Created as New Dataset,Sample 943 By YargerLab Date Monday, July 28 2025
cm-1,A
4000.00,0.0029
3999.00,0.0029
3998.00,0.0029
3997.00,0.0029
3996.00,0.0029
3995.00,0.0029
3994.00,0.0029
3993.00,0.0029
3992.00,0.0029
3991.00,0.0029
3990.00,0.0029
3989.00,0.0029
3988.00,0.0029
3987.00,0.0029
3986.00,0.0029
3985.00,0.0029
3984.00,0.0029
3983.00,0.0029
3982.00,0.0029
3981.00,0.0029
3980.00,0.0029
3979.00,0.0029
3978.00,0.0029
3977.00,0.0029
3976.00,0.0029
3975.00,0.0029
3974.00,0.0029
3973.00,0.0029
3972.00,0.0029
3971.00,0.0029
3970.00,0.0029
3969.00,0.0029
3968.00,0.0029
3967.00,0.0029
3966.00,0.0029
3965.00,0.0029
3964.00,0.0029
3963.00,0.0029
3962.00,0.0029
3961.00,0.0029
3960.00,0.0029
3959.00,0.0029
3958.00,0.0029
3957.00,0.0029
3956.00,0.0029
3955.00,0.0029
3954.00,0.0029
3953.00,0.0029
3952.00,0.0029
3951.00,0.0029
3950.00,0.0029
3949.00,0.0029
3948.00,0.0029
3947.00,0.0029
3946.00,0.0029
3945.00,0.0029
3944.00,0.0029
3943.00,0.0030
3942.00,0.0030
3941.00,0.0030
3940.00,0.0029
3939.00,0.0029
3938.00,0.0029
3937.00,0.0029
3936.00,0.0029
3935.00,0.0029
3934.00,0.0029
3933.00,0.0029
3932.00,0.0029
3931.00,0.0029
3930.00,0.0029
3929.00,0.0029
3928.00,0.0029
3927.00,0.0029
3926.00,0.0029
3925.00,0.0029
3924.00,0.0029
3923.00,0.0029
3922.00,0.0029
3921.00,0.0029
3920.00,0.0029
3919.00,0.0029
3918.00,0.0029
3917.00,0.0029
3916.00,0.0029
3915.00,0.0029
3914.00,0.0029
3913.00,0.0029
3912.00,0.0029
3911.00,0.0029
3910.00,0.0029
3909.00,0.0029
3908.00,0.0029
3907.00,0.0029
3906.00,0.0029
3905.00,0.0029
3904.00,0.0030
3903.00,0.0029
3902.00,0.0029
3901.00,0.0029
3900.00,0.0029
3899.00,0.0029
3898.00,0.0029
3897.00,0.0029
3896.00,0.0029
3895.00,0.0029
3894.00,0.0029
3893.00,0.0029
3892.00,0.0029
3891.00,0.0029
3890.00,0.0029
3889.00,0.0029
3888.00,0.0029
3887.00,0.0029
3886.00,0.0028
3885.00,0.0028
3884.00,0.0028
3883.00,0.0028
3882.00,0.0029
3881.00,0.0029
3880.00,0.0029
3879.00,0.0029
3878.00,0.0029
3877.00,0.0029
3876.00,0.0029
3875.00,0.0029
3874.00,0.0029
3873.00,0.0029
3872.00,0.0029
3871.00,0.0029
3870.00,0.0028
3869.00,0.0028
3868.00,0.0028
3867.00,0.0028
3866.00,0.0028
3865.00,0.0029
3864.00,0.0029
3863.00,0.0029
3862.00,0.0029
3861.00,0.0029
3860.00,0.0029
3859.00,0.0029
3858.00,0.0029
3857.00,0.0029
3856.00,0.0029
3855.00,0.0029
3854.00,0.0028
3853.00,0.0028
3852.00,0.0028
3851.00,0.0028
3850.00,0.0028
3849.00,0.0029
3848.00,0.0029
3847.00,0.0029
3846.00,0.0029
3845.00,0.0029
3844.00,0.0029
3843.00,0.0029
3842.00,0.0028
3841.00,0.0028
3840.00,0.0028
3839.00,0.0029
3838.00,0.0029
3837.00,0.0029
3836.00,0.0029
3835.00,0.0029
3834.00,0.0029
3833.00,0.0029
3832.00,0.0029
3831.00,0.0029
3830.00,0.0029
3829.00,0.0029
3828.00,0.0029
3827.00,0.0029
3826.00,0.0029
3825.00,0.0029
3824.00,0.0029
3823.00,0.0029
3822.00,0.0029
3821.00,0.0029
3820.00,0.0029
3819.00,0.0028
3818.00,0.0028
3817.00,0.0028
3816.00,0.0028
3815.00,0.0028
3814.00,0.0029
3813.00,0.0029
3812.00,0.0029
3811.00,0.0029
3810.00,0.0029
3809.00,0.0029
3808.00,0.0029
3807.00,0.0029
3806.00,0.0029
3805.00,0.0029
3804.00,0.0029
3803.00,0.0028
3802.00,0.0028
3801.00,0.0028
3800.00,0.0028
3799.00,0.0028
3798.00,0.0028
3797.00,0.0028
3796.00,0.0029
3795.00,0.0029
3794.00,0.0029
3793.00,0.0029
3792.00,0.0030
3791.00,0.0030
3790.00,0.0029
3789.00,0.0029
3788.00,0.0029
3787.00,0.0029
3786.00,0.0029
3785.00,0.0029
3784.00,0.0029
3783.00,0.0029
3782.00,0.0029
3781.00,0.0029
3780.00,0.0029
3779.00,0.0029
3778.00,0.0029
3777.00,0.0029
3776.00,0.0029
3775.00,0.0029
3774.00,0.0030
3773.00,0.0030
3772.00,0.0030
3771.00,0.0030
3770.00,0.0030
3769.00,0.0029
3768.00,0.0029
3767.00,0.0029
3766.00,0.0029
3765.00,0.0029
3764.00,0.0030
3763.00,0.0030
3762.00,0.0030
3761.00,0.0030
3760.00,0.0030
3759.00,0.0030
3758.00,0.0030
3757.00,0.0030
3756.00,0.0030
3755.00,0.0030
3754.00,0.0030
3753.00,0.0030
3752.00,0.0029
3751.00,0.0029
3750.00,0.0029
3749.00,0.0029
3748.00,0.0029
3747.00,0.0029
3746.00,0.0029
3745.00,0.0029
3744.00,0.0029
3743.00,0.0029
3742.00,0.0029
3741.00,0.0029
3740.00,0.0029
3739.00,0.0029
3738.00,0.0028
3737.00,0.0028
3736.00,0.0028
3735.00,0.0028
3734.00,0.0028
3733.00,0.0028
3732.00,0.0028
3731.00,0.0028
3730.00,0.0028
3729.00,0.0028
3728.00,0.0028
3727.00,0.0029
3726.00,0.0029
3725.00,0.0029
3724.00,0.0029
3723.00,0.0029
3722.00,0.0029
3721.00,0.0029
3720.00,0.0029
3719.00,0.0029
3718.00,0.0029
3717.00,0.0029
3716.00,0.0029
3715.00,0.0029
3714.00,0.0029
3713.00,0.0029
3712.00,0.0029
3711.00,0.0029
3710.00,0.0029
3709.00,0.0028
3708.00,0.0028
3707.00,0.0028
3706.00,0.0027
3705.00,0.0028
3704.00,0.0028
3703.00,0.0028
3702.00,0.0028
3701.00,0.0028
3700.00,0.0028
3699.00,0.0028
3698.00,0.0028
3697.00,0.0028
3696.00,0.0028
3695.00,0.0028
3694.00,0.0028
3693.00,0.0028
3692.00,0.0028
3691.00,0.0028
3690.00,0.0028
3689.00,0.0028
3688.00,0.0028
3687.00,0.0029
3686.00,0.0029
3685.00,0.0029
3684.00,0.0030
3683.00,0.0030
3682.00,0.0031
3681.00,0.0031
3680.00,0.0031
3679.00,0.0031
3678.00,0.0031
3677.00,0.0031
3676.00,0.0031
3675.00,0.0031
3674.00,0.0031
3673.00,0.0031
3672.00,0.0031
3671.00,0.0031
3670.00,0.0031
3669.00,0.0031
3668.00,0.0031
3667.00,0.0031
3666.00,0.0032
3665.00,0.0032
3664.00,0.0032
3663.00,0.0032
3662.00,0.0032
3661.00,0.0032
3660.00,0.0032
3659.00,0.0032
3658.00,0.0032
3657.00,0.0032
3656.00,0.0033
3655.00,0.0033
3654.00,0.0033
3653.00,0.0034
3652.00,0.0034
3651.00,0.0034
3650.00,0.0034
3649.00,0.0035
3648.00,0.0035
3647.00,0.0035
3646.00,0.0035
3645.00,0.0035
3644.00,0.0035
3643.00,0.0035
3642.00,0.0036
3641.00,0.0036
3640.00,0.0037
3639.00,0.0037
3638.00,0.0037
3637.00,0.0038
3636.00,0.0038
3635.00,0.0038
3634.00,0.0038
3633.00,0.0039
3632.00,0.0039
3631.00,0.0039
3630.00,0.0039
3629.00,0.0040
3628.00,0.0040
3627.00,0.0041
3626.00,0.0041
3625.00,0.0041
3624.00,0.0042
3623.00,0.0042
3622.00,0.0042
3621.00,0.0043
3620.00,0.0043
3619.00,0.0043
3618.00,0.0043
3617.00,0.0044
3616.00,0.0044
3615.00,0.0045
3614.00,0.0046
3613.00,0.0047
3612.00,0.0047
3611.00,0.0047
3610.00,0.0048
3609.00,0.0048
3608.00,0.0049
3607.00,0.0049
3606.00,0.0050
3605.00,0.0051
3604.00,0.0051
3603.00,0.0051
3602.00,0.0052
3601.00,0.0053
3600.00,0.0053
3599.00,0.0054
3598.00,0.0054
3597.00,0.0055
3596.00,0.0055
3595.00,0.0056
3594.00,0.0056
3593.00,0.0057
3592.00,0.0058
3591.00,0.0058
3590.00,0.0059
3589.00,0.0059
3588.00,0.0060
3587.00,0.0061
3586.00,0.0061
3585.00,0.0062
3584.00,0.0063
3583.00,0.0064
3582.00,0.0064
3581.00,0.0065
3580.00,0.0066
3579.00,0.0066
3578.00,0.0067
3577.00,0.0068
3576.00,0.0069
3575.00,0.0070
3574.00,0.0071
3573.00,0.0071
3572.00,0.0072
3571.00,0.0072
3570.00,0.0073
3569.00,0.0073
3568.00,0.0073
3567.00,0.0074
3566.00,0.0075
3565.00,0.0076
3564.00,0.0077
3563.00,0.0078
3562.00,0.0079
3561.00,0.0080
3560.00,0.0080
3559.00,0.0081
3558.00,0.0082
3557.00,0.0083
3556.00,0.0083
3555.00,0.0084
3554.00,0.0085
3553.00,0.0086
3552.00,0.0086
3551.00,0.0087
3550.00,0.0088
3549.00,0.0088
3548.00,0.0089
3547.00,0.0090
3546.00,0.0091
3545.00,0.0091
3544.00,0.0092
3543.00,0.0092
3542.00,0.0093
3541.00,0.0094
3540.00,0.0094
3539.00,0.0095
3538.00,0.0095
3537.00,0.0096
3536.00,0.0097
3535.00,0.0098
3534.00,0.0098
3533.00,0.0098
3532.00,0.0099
3531.00,0.0099
3530.00,0.0100
3529.00,0.0100
3528.00,0.0101
3527.00,0.0101
3526.00,0.0102
3525.00,0.0103
3524.00,0.0103
3523.00,0.0104
3522.00,0.0104
3521.00,0.0105
3520.00,0.0105
3519.00,0.0106
3518.00,0.0106
3517.00,0.0106
3516.00,0.0107
3515.00,0.0107
3514.00,0.0108
3513.00,0.0108
3512.00,0.0108
3511.00,0.0109
3510.00,0.0109
3509.00,0.0110
3508.00,0.0110
3507.00,0.0110
3506.00,0.0110
3505.00,0.0111
3504.00,0.0111
3503.00,0.0112
3502.00,0.0112
3501.00,0.0113
3500.00,0.0113
3499.00,0.0113
3498.00,0.0114
3497.00,0.0114
3496.00,0.0114
3495.00,0.0115
3494.00,0.0116
3493.00,0.0117
3492.00,0.0117
3491.00,0.0118
3490.00,0.0118
3489.00,0.0118
3488.00,0.0119
3487.00,0.0119
3486.00,0.0119
3485.00,0.0120
3484.00,0.0120
3483.00,0.0120
3482.00,0.0121
3481.00,0.0122
3480.00,0.0122
3479.00,0.0123
3478.00,0.0123
3477.00,0.0124
3476.00,0.0124
3475.00,0.0124
3474.00,0.0125
3473.00,0.0125
3472.00,0.0126
3471.00,0.0127
3470.00,0.0128
3469.00,0.0129
3468.00,0.0129
3467.00,0.0130
3466.00,0.0130
3465.00,0.0131
3464.00,0.0131
3463.00,0.0132
3462.00,0.0132
3461.00,0.0133
3460.00,0.0134
3459.00,0.0134
3458.00,0.0134
3457.00,0.0135
3456.00,0.0135
3455.00,0.0136
3454.00,0.0137
3453.00,0.0137
3452.00,0.0138
3451.00,0.0138
3450.00,0.0139
3449.00,0.0140
3448.00,0.0140
3447.00,0.0141
3446.00,0.0142
3445.00,0.0142
3444.00,0.0143
3443.00,0.0143
3442.00,0.0144
3441.00,0.0144
3440.00,0.0145
3439.00,0.0145
3438.00,0.0146
3437.00,0.0147
3436.00,0.0148
3435.00,0.0148
3434.00,0.0149
3433.00,0.0149
3432.00,0.0150
3431.00,0.0151
3430.00,0.0151
3429.00,0.0152
3428.00,0.0153
3427.00,0.0153
3426.00,0.0154
3425.00,0.0155
3424.00,0.0155
3423.00,0.0156
3422.00,0.0157
3421.00,0.0158
3420.00,0.0159
3419.00,0.0159
3418.00,0.0160
3417.00,0.0161
3416.00,0.0162
3415.00,0.0162
3414.00,0.0162
3413.00,0.0163
3412.00,0.0163
3411.00,0.0164
3410.00,0.0164
3409.00,0.0165
3408.00,0.0165
3407.00,0.0166
3406.00,0.0166
3405.00,0.0166
3404.00,0.0166
3403.00,0.0166
3402.00,0.0166
3401.00,0.0166
3400.00,0.0166
3399.00,0.0166
3398.00,0.0166
3397.00,0.0166
3396.00,0.0166
3395.00,0.0166
3394.00,0.0165
3393.00,0.0165
3392.00,0.0165
3391.00,0.0165
3390.00,0.0164
3389.00,0.0164
3388.00,0.0164
3387.00,0.0163
3386.00,0.0163
3385.00,0.0162
3384.00,0.0161
3383.00,0.0161
3382.00,0.0160
3381.00,0.0159
3380.00,0.0158
3379.00,0.0158
3378.00,0.0157
3377.00,0.0156
3376.00,0.0156
3375.00,0.0155
3374.00,0.0155
3373.00,0.0154
3372.00,0.0153
3371.00,0.0152
3370.00,0.0151
3369.00,0.0150
3368.00,0.0149
3367.00,0.0149
3366.00,0.0149
3365.00,0.0149
3364.00,0.0149
3363.00,0.0148
3362.00,0.0148
3361.00,0.0147
3360.00,0.0147
3359.00,0.0146
3358.00,0.0146
3357.00,0.0146
3356.00,0.0145
3355.00,0.0144
3354.00,0.0144
3353.00,0.0143
3352.00,0.0142
3351.00,0.0142
3350.00,0.0142
3349.00,0.0142
3348.00,0.0142
3347.00,0.0142
3346.00,0.0142
3345.00,0.0141
3344.00,0.0140
3343.00,0.0140
3342.00,0.0139
3341.00,0.0139
3340.00,0.0139
3339.00,0.0139
3338.00,0.0139
3337.00,0.0139
3336.00,0.0139
3335.00,0.0140
3334.00,0.0140
3333.00,0.0140
3332.00,0.0140
3331.00,0.0139
3330.00,0.0139
3329.00,0.0138
3328.00,0.0138
3327.00,0.0137
3326.00,0.0137
3325.00,0.0137
3324.00,0.0137
3323.00,0.0138
3322.00,0.0138
3321.00,0.0138
3320.00,0.0138
3319.00,0.0138
3318.00,0.0138
3317.00,0.0138
3316.00,0.0138
3315.00,0.0138
3314.00,0.0138
3313.00,0.0138
3312.00,0.0138
3311.00,0.0137
3310.00,0.0136
3309.00,0.0135
3308.00,0.0134
3307.00,0.0134
3306.00,0.0134
3305.00,0.0135
3304.00,0.0136
3303.00,0.0137
3302.00,0.0138
3301.00,0.0139
3300.00,0.0139
3299.00,0.0139
3298.00,0.0138
3297.00,0.0138
3296.00,0.0137
3295.00,0.0137
3294.00,0.0137
3293.00,0.0137
3292.00,0.0138
3291.00,0.0139
3290.00,0.0140
3289.00,0.0140
3288.00,0.0141
3287.00,0.0141
3286.00,0.0141
3285.00,0.0141
3284.00,0.0141
3283.00,0.0141
3282.00,0.0141
3281.00,0.0141
3280.00,0.0141
3279.00,0.0141
3278.00,0.0141
3277.00,0.0141
3276.00,0.0141
3275.00,0.0141
3274.00,0.0140
3273.00,0.0140
3272.00,0.0139
3271.00,0.0139
3270.00,0.0140
3269.00,0.0140
3268.00,0.0141
3267.00,0.0141
3266.00,0.0141
3265.00,0.0141
3264.00,0.0141
3263.00,0.0141
3262.00,0.0141
3261.00,0.0141
3260.00,0.0141
3259.00,0.0141
3258.00,0.0141
3257.00,0.0141
3256.00,0.0141
3255.00,0.0141
3254.00,0.0141
3253.00,0.0141
3252.00,0.0141
3251.00,0.0141
3250.00,0.0140
3249.00,0.0140
3248.00,0.0140
3247.00,0.0140
3246.00,0.0140
3245.00,0.0140
3244.00,0.0140
3243.00,0.0140
3242.00,0.0140
3241.00,0.0140
3240.00,0.0140
3239.00,0.0140
3238.00,0.0139
3237.00,0.0138
3236.00,0.0138
3235.00,0.0137
3234.00,0.0137
3233.00,0.0136
3232.00,0.0136
3231.00,0.0136
3230.00,0.0136
3229.00,0.0136
3228.00,0.0136
3227.00,0.0136
3226.00,0.0136
3225.00,0.0136
3224.00,0.0136
3223.00,0.0135
3222.00,0.0135
3221.00,0.0135
3220.00,0.0134
3219.00,0.0133
3218.00,0.0133
3217.00,0.0132
3216.00,0.0131
3215.00,0.0131
3214.00,0.0130
3213.00,0.0130
3212.00,0.0130
3211.00,0.0129
3210.00,0.0129
3209.00,0.0128
3208.00,0.0128
3207.00,0.0127
3206.00,0.0126
3205.00,0.0126
3204.00,0.0125
3203.00,0.0124
3202.00,0.0124
3201.00,0.0123
3200.00,0.0123
3199.00,0.0122
3198.00,0.0121
3197.00,0.0120
3196.00,0.0120
3195.00,0.0119
3194.00,0.0118
3193.00,0.0118
3192.00,0.0117
3191.00,0.0117
3190.00,0.0116
3189.00,0.0115
3188.00,0.0115
3187.00,0.0114
3186.00,0.0113
3185.00,0.0113
3184.00,0.0112
3183.00,0.0112
3182.00,0.0111
3181.00,0.0111
3180.00,0.0110
3179.00,0.0109
3178.00,0.0109
3177.00,0.0108
3176.00,0.0107
3175.00,0.0107
3174.00,0.0106
3173.00,0.0105
3172.00,0.0105
3171.00,0.0104
3170.00,0.0103
3169.00,0.0102
3168.00,0.0102
3167.00,0.0101
3166.00,0.0100
3165.00,0.0099
3164.00,0.0099
3163.00,0.0098
3162.00,0.0098
3161.00,0.0097
3160.00,0.0096
3159.00,0.0096
3158.00,0.0095
3157.00,0.0094
3156.00,0.0093
3155.00,0.0092
3154.00,0.0092
3153.00,0.0091
3152.00,0.0091
3151.00,0.0090
3150.00,0.0089
3149.00,0.0089
3148.00,0.0088
3147.00,0.0087
3146.00,0.0087
3145.00,0.0086
3144.00,0.0086
3143.00,0.0086
3142.00,0.0085
3141.00,0.0084
3140.00,0.0083
3139.00,0.0083
3138.00,0.0082
3137.00,0.0082
3136.00,0.0082
3135.00,0.0081
3134.00,0.0081
3133.00,0.0080
3132.00,0.0080
3131.00,0.0079
3130.00,0.0079
3129.00,0.0078
3128.00,0.0078
3127.00,0.0078
3126.00,0.0077
3125.00,0.0077
3124.00,0.0077
3123.00,0.0076
3122.00,0.0076
3121.00,0.0076
3120.00,0.0076
3119.00,0.0075
3118.00,0.0075
3117.00,0.0074
3116.00,0.0074
3115.00,0.0073
3114.00,0.0073
3113.00,0.0073
3112.00,0.0073
3111.00,0.0072
3110.00,0.0072
3109.00,0.0072
3108.00,0.0071
3107.00,0.0071
3106.00,0.0071
3105.00,0.0070
3104.00,0.0070
3103.00,0.0070
3102.00,0.0070
3101.00,0.0070
3100.00,0.0069
3099.00,0.0069
3098.00,0.0069
3097.00,0.0069
3096.00,0.0069
3095.00,0.0068
3094.00,0.0068
3093.00,0.0068
3092.00,0.0068
3091.00,0.0068
3090.00,0.0069
3089.00,0.0069
3088.00,0.0069
3087.00,0.0068
3086.00,0.0068
3085.00,0.0068
3084.00,0.0068
3083.00,0.0068
3082.00,0.0068
3081.00,0.0068
3080.00,0.0068
3079.00,0.0068
3078.00,0.0068
3077.00,0.0068
3076.00,0.0067
3075.00,0.0067
3074.00,0.0067
3073.00,0.0067
3072.00,0.0067
3071.00,0.0067
3070.00,0.0066
3069.00,0.0066
3068.00,0.0066
3067.00,0.0066
3066.00,0.0066
3065.00,0.0066
3064.00,0.0066
3063.00,0.0066
3062.00,0.0066
3061.00,0.0066
3060.00,0.0066
3059.00,0.0066
3058.00,0.0066
3057.00,0.0066
3056.00,0.0066
3055.00,0.0066
3054.00,0.0066
3053.00,0.0066
3052.00,0.0066
3051.00,0.0066
3050.00,0.0066
3049.00,0.0065
3048.00,0.0065
3047.00,0.0065
3046.00,0.0065
3045.00,0.0065
3044.00,0.0065
3043.00,0.0065
3042.00,0.0065
3041.00,0.0065
3040.00,0.0066
3039.00,0.0066
3038.00,0.0066
3037.00,0.0067
3036.00,0.0067
3035.00,0.0068
3034.00,0.0068
3033.00,0.0068
3032.00,0.0068
3031.00,0.0068
3030.00,0.0068
3029.00,0.0067
3028.00,0.0067
3027.00,0.0066
3026.00,0.0066
3025.00,0.0066
3024.00,0.0066
3023.00,0.0066
3022.00,0.0066
3021.00,0.0066
3020.00,0.0066
3019.00,0.0066
3018.00,0.0066
3017.00,0.0066
3016.00,0.0066
3015.00,0.0067
3014.00,0.0067
3013.00,0.0067
3012.00,0.0068
3011.00,0.0069
3010.00,0.0070
3009.00,0.0072
3008.00,0.0073
3007.00,0.0074
3006.00,0.0076
3005.00,0.0078
3004.00,0.0080
3003.00,0.0082
3002.00,0.0084
3001.00,0.0087
3000.00,0.0090
2999.00,0.0093
2998.00,0.0096
2997.00,0.0099
2996.00,0.0103
2995.00,0.0106
2994.00,0.0109
2993.00,0.0112
2992.00,0.0115
2991.00,0.0119
2990.00,0.0122
2989.00,0.0125
2988.00,0.0128
2987.00,0.0131
2986.00,0.0134
2985.00,0.0138
2984.00,0.0142
2983.00,0.0147
2982.00,0.0151
2981.00,0.0156
2980.00,0.0160
2979.00,0.0164
2978.00,0.0166
2977.00,0.0168
2976.00,0.0170
2975.00,0.0173
2974.00,0.0177
2973.00,0.0182
2972.00,0.0187
2971.00,0.0192
2970.00,0.0196
2969.00,0.0199
2968.00,0.0202
2967.00,0.0205
2966.00,0.0207
2965.00,0.0210
2964.00,0.0213
2963.00,0.0217
2962.00,0.0219
2961.00,0.0222
2960.00,0.0223
2959.00,0.0223
2958.00,0.0222
2957.00,0.0220
2956.00,0.0218
2955.00,0.0215
2954.00,0.0213
2953.00,0.0210
2952.00,0.0207
2951.00,0.0205
2950.00,0.0203
2949.00,0.0201
2948.00,0.0201
2947.00,0.0201
2946.00,0.0202
2945.00,0.0203
2944.00,0.0205
2943.00,0.0207
2942.00,0.0209
2941.00,0.0212
2940.00,0.0216
2939.00,0.0220
2938.00,0.0225
2937.00,0.0231
2936.00,0.0238
2935.00,0.0245
2934.00,0.0253
2933.00,0.0260
2932.00,0.0268
2931.00,0.0275
2930.00,0.0281
2929.00,0.0286
2928.00,0.0290
2927.00,0.0292
2926.00,0.0292
2925.00,0.0291
2924.00,0.0288
2923.00,0.0284
2922.00,0.0279
2921.00,0.0274
2920.00,0.0268
2919.00,0.0261
2918.00,0.0255
2917.00,0.0248
2916.00,0.0242
2915.00,0.0236
2914.00,0.0231
2913.00,0.0225
2912.00,0.0220
2911.00,0.0215
2910.00,0.0211
2909.00,0.0207
2908.00,0.0203
2907.00,0.0199
2906.00,0.0195
2905.00,0.0192
2904.00,0.0189
2903.00,0.0186
2902.00,0.0184
2901.00,0.0181
2900.00,0.0180
2899.00,0.0178
2898.00,0.0176
2897.00,0.0175
2896.00,0.0173
2895.00,0.0172
2894.00,0.0171
2893.00,0.0169
2892.00,0.0168
2891.00,0.0167
2890.00,0.0166
2889.00,0.0165
2888.00,0.0164
2887.00,0.0163
2886.00,0.0163
2885.00,0.0162
2884.00,0.0162
2883.00,0.0162
2882.00,0.0162
2881.00,0.0162
2880.00,0.0164
2879.00,0.0165
2878.00,0.0167
2877.00,0.0169
2876.00,0.0171
2875.00,0.0173
2874.00,0.0175
2873.00,0.0176
2872.00,0.0177
2871.00,0.0177
2870.00,0.0176
2869.00,0.0175
2868.00,0.0174
2867.00,0.0173
2866.00,0.0173
2865.00,0.0175
2864.00,0.0177
2863.00,0.0181
2862.00,0.0185
2861.00,0.0190
2860.00,0.0195
2859.00,0.0200
2858.00,0.0203
2857.00,0.0205
2856.00,0.0206
2855.00,0.0205
2854.00,0.0203
2853.00,0.0199
2852.00,0.0195
2851.00,0.0190
2850.00,0.0183
2849.00,0.0175
2848.00,0.0167
2847.00,0.0160
2846.00,0.0152
2845.00,0.0145
2844.00,0.0139
2843.00,0.0133
2842.00,0.0128
2841.00,0.0123
2840.00,0.0118
2839.00,0.0114
2838.00,0.0111
2837.00,0.0108
2836.00,0.0105
2835.00,0.0103
2834.00,0.0100
2833.00,0.0098
2832.00,0.0096
2831.00,0.0094
2830.00,0.0092
2829.00,0.0090
2828.00,0.0088
2827.00,0.0086
2826.00,0.0085
2825.00,0.0083
2824.00,0.0081
2823.00,0.0080
2822.00,0.0078
2821.00,0.0077
2820.00,0.0076
2819.00,0.0075
2818.00,0.0074
2817.00,0.0073
2816.00,0.0072
2815.00,0.0071
2814.00,0.0070
2813.00,0.0070
2812.00,0.0069
2811.00,0.0069
2810.00,0.0068
2809.00,0.0068
2808.00,0.0068
2807.00,0.0067
2806.00,0.0067
2805.00,0.0066
2804.00,0.0065
2803.00,0.0065
2802.00,0.0064
2801.00,0.0064
2800.00,0.0063
2799.00,0.0063
2798.00,0.0063
2797.00,0.0063
2796.00,0.0062
2795.00,0.0062
2794.00,0.0061
2793.00,0.0061
2792.00,0.0060
2791.00,0.0060
2790.00,0.0060
2789.00,0.0059
2788.00,0.0059
2787.00,0.0059
2786.00,0.0058
2785.00,0.0058
2784.00,0.0058
2783.00,0.0058
2782.00,0.0058
2781.00,0.0058
2780.00,0.0057
2779.00,0.0057
2778.00,0.0057
2777.00,0.0056
2776.00,0.0056
2775.00,0.0055
2774.00,0.0055
2773.00,0.0055
2772.00,0.0055
2771.00,0.0055
2770.00,0.0055
2769.00,0.0054
2768.00,0.0054
2767.00,0.0054
2766.00,0.0054
2765.00,0.0054
2764.00,0.0054
2763.00,0.0054
2762.00,0.0054
2761.00,0.0054
2760.00,0.0054
2759.00,0.0054
2758.00,0.0054
2757.00,0.0054
2756.00,0.0054
2755.00,0.0053
2754.00,0.0053
2753.00,0.0053
2752.00,0.0053
2751.00,0.0053
2750.00,0.0053
2749.00,0.0053
2748.00,0.0054
2747.00,0.0053
2746.00,0.0053
2745.00,0.0053
2744.00,0.0053
2743.00,0.0053
2742.00,0.0054
2741.00,0.0054
2740.00,0.0054
2739.00,0.0054
2738.00,0.0054
2737.00,0.0055
2736.00,0.0055
2735.00,0.0055
2734.00,0.0055
2733.00,0.0055
2732.00,0.0055
2731.00,0.0055
2730.00,0.0055
2729.00,0.0055
2728.00,0.0055
2727.00,0.0054
2726.00,0.0054
2725.00,0.0054
2724.00,0.0054
2723.00,0.0054
2722.00,0.0054
2721.00,0.0054
2720.00,0.0054
2719.00,0.0053
2718.00,0.0053
2717.00,0.0053
2716.00,0.0053
2715.00,0.0053
2714.00,0.0053
2713.00,0.0053
2712.00,0.0052
2711.00,0.0052
2710.00,0.0052
2709.00,0.0052
2708.00,0.0052
2707.00,0.0051
2706.00,0.0051
2705.00,0.0051
2704.00,0.0051
2703.00,0.0051
2702.00,0.0051
2701.00,0.0051
2700.00,0.0051
2699.00,0.0050
2698.00,0.0050
2697.00,0.0050
2696.00,0.0050
2695.00,0.0050
2694.00,0.0050
2693.00,0.0050
2692.00,0.0049
2691.00,0.0049
2690.00,0.0049
2689.00,0.0049
2688.00,0.0049
2687.00,0.0049
2686.00,0.0049
2685.00,0.0049
2684.00,0.0049
2683.00,0.0049
2682.00,0.0049
2681.00,0.0049
2680.00,0.0049
2679.00,0.0049
2678.00,0.0049
2677.00,0.0049
2676.00,0.0048
2675.00,0.0048
2674.00,0.0048
2673.00,0.0049
2672.00,0.0049
2671.00,0.0049
2670.00,0.0049
2669.00,0.0049
2668.00,0.0049
2667.00,0.0050
2666.00,0.0050
2665.00,0.0051
2664.00,0.0051
2663.00,0.0052
2662.00,0.0052
2661.00,0.0052
2660.00,0.0053
2659.00,0.0053
2658.00,0.0053
2657.00,0.0054
2656.00,0.0054
2655.00,0.0054
2654.00,0.0054
2653.00,0.0054
2652.00,0.0054
2651.00,0.0054
2650.00,0.0054
2649.00,0.0054
2648.00,0.0054
2647.00,0.0054
2646.00,0.0053
2645.00,0.0053
2644.00,0.0053
2643.00,0.0053
2642.00,0.0053
2641.00,0.0053
2640.00,0.0053
2639.00,0.0053
2638.00,0.0053
2637.00,0.0053
2636.00,0.0053
2635.00,0.0052
2634.00,0.0052
2633.00,0.0052
2632.00,0.0052
2631.00,0.0052
2630.00,0.0051
2629.00,0.0051
2628.00,0.0051
2627.00,0.0051
2626.00,0.0051
2625.00,0.0051
2624.00,0.0051
2623.00,0.0051
2622.00,0.0051
2621.00,0.0051
2620.00,0.0050
2619.00,0.0050
2618.00,0.0050
2617.00,0.0050
2616.00,0.0050
2615.00,0.0050
2614.00,0.0050
2613.00,0.0050
2612.00,0.0049
2611.00,0.0049
2610.00,0.0049
2609.00,0.0049
2608.00,0.0049
2607.00,0.0048
2606.00,0.0048
2605.00,0.0048
2604.00,0.0048
2603.00,0.0048
2602.00,0.0049
2601.00,0.0049
2600.00,0.0049
2599.00,0.0050
2598.00,0.0050
2597.00,0.0049
2596.00,0.0049
2595.00,0.0049
2594.00,0.0049
2593.00,0.0049
2592.00,0.0049
2591.00,0.0049
2590.00,0.0049
2589.00,0.0049
2588.00,0.0049
2587.00,0.0050
2586.00,0.0050
2585.00,0.0049
2584.00,0.0049
2583.00,0.0049
2582.00,0.0049
2581.00,0.0049
2580.00,0.0048
2579.00,0.0048
2578.00,0.0048
2577.00,0.0048
2576.00,0.0048
2575.00,0.0048
2574.00,0.0048
2573.00,0.0048
2572.00,0.0048
2571.00,0.0048
2570.00,0.0048
2569.00,0.0048
2568.00,0.0048
2567.00,0.0048
2566.00,0.0048
2565.00,0.0048
2564.00,0.0048
2563.00,0.0048
2562.00,0.0048
2561.00,0.0047
2560.00,0.0047
2559.00,0.0047
2558.00,0.0046
2557.00,0.0046
2556.00,0.0046
2555.00,0.0046
2554.00,0.0046
2553.00,0.0046
2552.00,0.0046
2551.00,0.0046
2550.00,0.0046
2549.00,0.0046
2548.00,0.0046
2547.00,0.0046
2546.00,0.0045
2545.00,0.0045
2544.00,0.0045
2543.00,0.0045
2542.00,0.0045
2541.00,0.0045
2540.00,0.0045
2539.00,0.0045
2538.00,0.0045
2537.00,0.0044
2536.00,0.0044
2535.00,0.0045
2534.00,0.0045
2533.00,0.0045
2532.00,0.0045
2531.00,0.0045
2530.00,0.0044
2529.00,0.0044
2528.00,0.0044
2527.00,0.0044
2526.00,0.0044
2525.00,0.0043
2524.00,0.0043
2523.00,0.0043
2522.00,0.0043
2521.00,0.0043
2520.00,0.0043
2519.00,0.0043
2518.00,0.0042
2517.00,0.0042
2516.00,0.0041
2515.00,0.0041
2514.00,0.0042
2513.00,0.0042
2512.00,0.0042
2511.00,0.0042
2510.00,0.0042
2509.00,0.0042
2508.00,0.0042
2507.00,0.0042
2506.00,0.0041
2505.00,0.0041
2504.00,0.0041
2503.00,0.0041
2502.00,0.0041
2501.00,0.0041
2500.00,0.0042
2499.00,0.0042
2498.00,0.0042
2497.00,0.0042
2496.00,0.0042
2495.00,0.0042
2494.00,0.0041
2493.00,0.0041
2492.00,0.0041
2491.00,0.0041
2490.00,0.0041
2489.00,0.0040
2488.00,0.0040
2487.00,0.0040
2486.00,0.0040
2485.00,0.0040
2484.00,0.0040
2483.00,0.0040
2482.00,0.0040
2481.00,0.0039
2480.00,0.0039
2479.00,0.0039
2478.00,0.0039
2477.00,0.0039
2476.00,0.0039
2475.00,0.0039
2474.00,0.0039
2473.00,0.0039
2472.00,0.0039
2471.00,0.0039
2470.00,0.0039
2469.00,0.0039
2468.00,0.0039
2467.00,0.0039
2466.00,0.0039
2465.00,0.0039
2464.00,0.0040
2463.00,0.0040
2462.00,0.0040
2461.00,0.0040
2460.00,0.0040
2459.00,0.0041
2458.00,0.0041
2457.00,0.0041
2456.00,0.0041
2455.00,0.0040
2454.00,0.0040
2453.00,0.0040
2452.00,0.0040
2451.00,0.0040
2450.00,0.0040
2449.00,0.0040
2448.00,0.0040
2447.00,0.0040
2446.00,0.0040
2445.00,0.0040
2444.00,0.0040
2443.00,0.0040
2442.00,0.0040
2441.00,0.0039
2440.00,0.0039
2439.00,0.0039
2438.00,0.0038
2437.00,0.0038
2436.00,0.0038
2435.00,0.0038
2434.00,0.0038
2433.00,0.0038
2432.00,0.0038
2431.00,0.0038
2430.00,0.0038
2429.00,0.0038
2428.00,0.0038
2427.00,0.0038
2426.00,0.0038
2425.00,0.0037
2424.00,0.0037
2423.00,0.0037
2422.00,0.0037
2421.00,0.0037
2420.00,0.0038
2419.00,0.0038
2418.00,0.0038
2417.00,0.0037
2416.00,0.0038
2415.00,0.0038
2414.00,0.0038
2413.00,0.0038
2412.00,0.0038
2411.00,0.0038
2410.00,0.0038
2409.00,0.0037
2408.00,0.0037
2407.00,0.0037
2406.00,0.0037
2405.00,0.0037
2404.00,0.0037
2403.00,0.0037
2402.00,0.0036
2401.00,0.0036
2400.00,0.0036
2399.00,0.0036
2398.00,0.0036
2397.00,0.0035
2396.00,0.0035
2395.00,0.0036
2394.00,0.0036
2393.00,0.0036
2392.00,0.0036
2391.00,0.0035
2390.00,0.0035
2389.00,0.0035
2388.00,0.0035
2387.00,0.0034
2386.00,0.0034
2385.00,0.0033
2384.00,0.0033
2383.00,0.0032
2382.00,0.0032
2381.00,0.0032
2380.00,0.0032
2379.00,0.0032
2378.00,0.0032
2377.00,0.0032
2376.00,0.0032
2375.00,0.0032
2374.00,0.0032
2373.00,0.0032
2372.00,0.0032
2371.00,0.0032
2370.00,0.0032
2369.00,0.0032
2368.00,0.0032
2367.00,0.0031
2366.00,0.0031
2365.00,0.0031
2364.00,0.0032
2363.00,0.0032
2362.00,0.0032
2361.00,0.0032
2360.00,0.0032
2359.00,0.0033
2358.00,0.0033
2357.00,0.0033
2356.00,0.0033
2355.00,0.0033
2354.00,0.0033
2353.00,0.0033
2352.00,0.0033
2351.00,0.0033
2350.00,0.0033
2349.00,0.0034
2348.00,0.0033
2347.00,0.0033
2346.00,0.0034
2345.00,0.0034
2344.00,0.0035
2343.00,0.0035
2342.00,0.0035
2341.00,0.0036
2340.00,0.0036
2339.00,0.0037
2338.00,0.0037
2337.00,0.0037
2336.00,0.0037
2335.00,0.0037
2334.00,0.0037
2333.00,0.0037
2332.00,0.0036
2331.00,0.0036
2330.00,0.0037
2329.00,0.0039
2328.00,0.0042
2327.00,0.0046
2326.00,0.0049
2325.00,0.0050
2324.00,0.0049
2323.00,0.0047
2322.00,0.0046
2321.00,0.0045
2320.00,0.0044
2319.00,0.0043
2318.00,0.0043
2317.00,0.0042
2316.00,0.0042
2315.00,0.0041
2314.00,0.0040
2313.00,0.0040
2312.00,0.0040
2311.00,0.0040
2310.00,0.0040
2309.00,0.0040
2308.00,0.0040
2307.00,0.0040
2306.00,0.0041
2305.00,0.0041
2304.00,0.0041
2303.00,0.0041
2302.00,0.0041
2301.00,0.0041
2300.00,0.0041
2299.00,0.0041
2298.00,0.0042
2297.00,0.0043
2296.00,0.0043
2295.00,0.0044
2294.00,0.0045
2293.00,0.0045
2292.00,0.0046
2291.00,0.0047
2290.00,0.0048
2289.00,0.0048
2288.00,0.0048
2287.00,0.0048
2286.00,0.0047
2285.00,0.0047
2284.00,0.0046
2283.00,0.0046
2282.00,0.0045
2281.00,0.0045
2280.00,0.0044
2279.00,0.0044
2278.00,0.0043
2277.00,0.0042
2276.00,0.0041
2275.00,0.0041
2274.00,0.0041
2273.00,0.0041
2272.00,0.0041
2271.00,0.0042
2270.00,0.0042
2269.00,0.0041
2268.00,0.0041
2267.00,0.0040
2266.00,0.0039
2265.00,0.0038
2264.00,0.0038
2263.00,0.0038
2262.00,0.0038
2261.00,0.0039
2260.00,0.0040
2259.00,0.0040
2258.00,0.0040
2257.00,0.0039
2256.00,0.0038
2255.00,0.0036
2254.00,0.0036
2253.00,0.0036
2252.00,0.0037
2251.00,0.0038
2250.00,0.0038
2249.00,0.0038
2248.00,0.0038
2247.00,0.0038
2246.00,0.0037
2245.00,0.0037
2244.00,0.0038
2243.00,0.0038
2242.00,0.0038
2241.00,0.0038
2240.00,0.0037
2239.00,0.0037
2238.00,0.0037
2237.00,0.0038
2236.00,0.0038
2235.00,0.0038
2234.00,0.0038
2233.00,0.0038
2232.00,0.0037
2231.00,0.0037
2230.00,0.0037
2229.00,0.0037
2228.00,0.0037
2227.00,0.0037
2226.00,0.0037
2225.00,0.0037
2224.00,0.0038
2223.00,0.0038
2222.00,0.0039
2221.00,0.0039
2220.00,0.0039
2219.00,0.0039
2218.00,0.0039
2217.00,0.0039
2216.00,0.0039
2215.00,0.0038
2214.00,0.0038
2213.00,0.0038
2212.00,0.0038
2211.00,0.0039
2210.00,0.0038
2209.00,0.0038
2208.00,0.0038
2207.00,0.0038
2206.00,0.0038
2205.00,0.0037
2204.00,0.0037
2203.00,0.0037
2202.00,0.0037
2201.00,0.0038
2200.00,0.0038
2199.00,0.0038
2198.00,0.0038
2197.00,0.0037
2196.00,0.0037
2195.00,0.0039
2194.00,0.0040
2193.00,0.0041
2192.00,0.0041
2191.00,0.0041
2190.00,0.0040
2189.00,0.0040
2188.00,0.0041
2187.00,0.0041
2186.00,0.0040
2185.00,0.0038
2184.00,0.0037
2183.00,0.0036
2182.00,0.0035
2181.00,0.0035
2180.00,0.0035
2179.00,0.0036
2178.00,0.0036
2177.00,0.0035
2176.00,0.0035
2175.00,0.0034
2174.00,0.0035
2173.00,0.0036
2172.00,0.0038
2171.00,0.0040
2170.00,0.0042
2169.00,0.0044
2168.00,0.0046
2167.00,0.0047
2166.00,0.0047
2165.00,0.0048
2164.00,0.0050
2163.00,0.0049
2162.00,0.0045
2161.00,0.0035
2160.00,0.0023
2159.00,0.0013
2158.00,0.0008
2157.00,0.0008
2156.00,0.0010
2155.00,0.0011
2154.00,0.0012
2153.00,0.0014
2152.00,0.0016
2151.00,0.0018
2150.00,0.0019
2149.00,0.0019
2148.00,0.0019
2147.00,0.0019
2146.00,0.0019
2145.00,0.0019
2144.00,0.0019
2143.00,0.0020
2142.00,0.0020
2141.00,0.0021
2140.00,0.0022
2139.00,0.0023
2138.00,0.0022
2137.00,0.0020
2136.00,0.0017
2135.00,0.0015
2134.00,0.0015
2133.00,0.0016
2132.00,0.0019
2131.00,0.0021
2130.00,0.0023
2129.00,0.0025
2128.00,0.0026
2127.00,0.0027
2126.00,0.0028
2125.00,0.0028
2124.00,0.0029
2123.00,0.0030
2122.00,0.0031
2121.00,0.0031
2120.00,0.0032
2119.00,0.0033
2118.00,0.0034
2117.00,0.0035
2116.00,0.0036
2115.00,0.0036
2114.00,0.0036
2113.00,0.0036
2112.00,0.0035
2111.00,0.0035
2110.00,0.0034
2109.00,0.0034
2108.00,0.0034
2107.00,0.0033
2106.00,0.0033
2105.00,0.0033
2104.00,0.0033
2103.00,0.0033
2102.00,0.0033
2101.00,0.0033
2100.00,0.0033
2099.00,0.0032
2098.00,0.0031
2097.00,0.0030
2096.00,0.0029
2095.00,0.0028
2094.00,0.0028
2093.00,0.0029
2092.00,0.0030
2091.00,0.0031
2090.00,0.0032
2089.00,0.0033
2088.00,0.0034
2087.00,0.0034
2086.00,0.0035
2085.00,0.0035
2084.00,0.0036
2083.00,0.0036
2082.00,0.0036
2081.00,0.0036
2080.00,0.0035
2079.00,0.0035
2078.00,0.0035
2077.00,0.0035
2076.00,0.0035
2075.00,0.0035
2074.00,0.0034
2073.00,0.0033
2072.00,0.0033
2071.00,0.0033
2070.00,0.0032
2069.00,0.0032
2068.00,0.0032
2067.00,0.0031
2066.00,0.0031
2065.00,0.0030
2064.00,0.0030
2063.00,0.0031
2062.00,0.0031
2061.00,0.0031
2060.00,0.0031
2059.00,0.0032
2058.00,0.0032
2057.00,0.0031
2056.00,0.0031
2055.00,0.0032
2054.00,0.0035
2053.00,0.0039
2052.00,0.0043
2051.00,0.0043
2050.00,0.0040
2049.00,0.0036
2048.00,0.0034
2047.00,0.0033
2046.00,0.0032
2045.00,0.0031
2044.00,0.0030
2043.00,0.0029
2042.00,0.0029
2041.00,0.0030
2040.00,0.0031
2039.00,0.0032
2038.00,0.0032
2037.00,0.0031
2036.00,0.0030
2035.00,0.0029
2034.00,0.0027
2033.00,0.0025
2032.00,0.0024
2031.00,0.0024
2030.00,0.0024
2029.00,0.0025
2028.00,0.0026
2027.00,0.0027
2026.00,0.0028
2025.00,0.0027
2024.00,0.0027
2023.00,0.0026
2022.00,0.0026
2021.00,0.0027
2020.00,0.0028
2019.00,0.0030
2018.00,0.0029
2017.00,0.0028
2016.00,0.0027
2015.00,0.0025
2014.00,0.0025
2013.00,0.0025
2012.00,0.0026
2011.00,0.0026
2010.00,0.0026
2009.00,0.0024
2008.00,0.0021
2007.00,0.0018
2006.00,0.0016
2005.00,0.0016
2004.00,0.0017
2003.00,0.0019
2002.00,0.0020
2001.00,0.0022
2000.00,0.0024
1999.00,0.0027
1998.00,0.0028
1997.00,0.0028
1996.00,0.0029
1995.00,0.0029
1994.00,0.0029
1993.00,0.0029
1992.00,0.0030
1991.00,0.0031
1990.00,0.0032
1989.00,0.0034
1988.00,0.0035
1987.00,0.0035
1986.00,0.0036
1985.00,0.0037
1984.00,0.0040
1983.00,0.0042
1982.00,0.0044
1981.00,0.0044
1980.00,0.0040
1979.00,0.0034
1978.00,0.0026
1977.00,0.0020
1976.00,0.0017
1975.00,0.0017
1974.00,0.0017
1973.00,0.0019
1972.00,0.0022
1971.00,0.0023
1970.00,0.0022
1969.00,0.0022
1968.00,0.0022
1967.00,0.0022
1966.00,0.0021
1965.00,0.0021
1964.00,0.0021
1963.00,0.0020
1962.00,0.0019
1961.00,0.0019
1960.00,0.0020
1959.00,0.0020
1958.00,0.0020
1957.00,0.0020
1956.00,0.0021
1955.00,0.0021
1954.00,0.0020
1953.00,0.0020
1952.00,0.0021
1951.00,0.0022
1950.00,0.0023
1949.00,0.0023
1948.00,0.0023
1947.00,0.0022
1946.00,0.0021
1945.00,0.0022
1944.00,0.0023
1943.00,0.0025
1942.00,0.0025
1941.00,0.0025
1940.00,0.0025
1939.00,0.0024
1938.00,0.0024
1937.00,0.0024
1936.00,0.0024
1935.00,0.0024
1934.00,0.0023
1933.00,0.0024
1932.00,0.0024
1931.00,0.0024
1930.00,0.0023
1929.00,0.0023
1928.00,0.0023
1927.00,0.0023
1926.00,0.0024
1925.00,0.0024
1924.00,0.0025
1923.00,0.0026
1922.00,0.0026
1921.00,0.0026
1920.00,0.0027
1919.00,0.0027
1918.00,0.0028
1917.00,0.0028
1916.00,0.0028
1915.00,0.0029
1914.00,0.0029
1913.00,0.0030
1912.00,0.0031
1911.00,0.0032
1910.00,0.0033
1909.00,0.0034
1908.00,0.0034
1907.00,0.0033
1906.00,0.0031
1905.00,0.0030
1904.00,0.0030
1903.00,0.0030
1902.00,0.0029
1901.00,0.0029
1900.00,0.0029
1899.00,0.0029
1898.00,0.0029
1897.00,0.0030
1896.00,0.0031
1895.00,0.0031
1894.00,0.0031
1893.00,0.0031
1892.00,0.0031
1891.00,0.0031
1890.00,0.0031
1889.00,0.0030
1888.00,0.0030
1887.00,0.0029
1886.00,0.0029
1885.00,0.0029
1884.00,0.0029
1883.00,0.0029
1882.00,0.0029
1881.00,0.0029
1880.00,0.0029
1879.00,0.0029
1878.00,0.0029
1877.00,0.0030
1876.00,0.0030
1875.00,0.0030
1874.00,0.0030
1873.00,0.0030
1872.00,0.0030
1871.00,0.0030
1870.00,0.0031
1869.00,0.0031
1868.00,0.0031
1867.00,0.0031
1866.00,0.0030
1865.00,0.0030
1864.00,0.0030
1863.00,0.0031
1862.00,0.0031
1861.00,0.0031
1860.00,0.0031
1859.00,0.0031
1858.00,0.0031
1857.00,0.0031
1856.00,0.0031
1855.00,0.0031
1854.00,0.0030
1853.00,0.0031
1852.00,0.0031
1851.00,0.0031
1850.00,0.0032
1849.00,0.0032
1848.00,0.0032
1847.00,0.0032
1846.00,0.0032
1845.00,0.0032
1844.00,0.0031
1843.00,0.0031
1842.00,0.0031
1841.00,0.0032
1840.00,0.0032
1839.00,0.0032
1838.00,0.0032
1837.00,0.0032
1836.00,0.0032
1835.00,0.0032
1834.00,0.0031
1833.00,0.0031
1832.00,0.0031
1831.00,0.0031
1830.00,0.0030
1829.00,0.0030
1828.00,0.0030
1827.00,0.0031
1826.00,0.0031
1825.00,0.0032
1824.00,0.0033
1823.00,0.0033
1822.00,0.0032
1821.00,0.0032
1820.00,0.0031
1819.00,0.0030
1818.00,0.0029
1817.00,0.0029
1816.00,0.0029
1815.00,0.0030
1814.00,0.0030
1813.00,0.0031
1812.00,0.0032
1811.00,0.0032
1810.00,0.0032
1809.00,0.0032
1808.00,0.0032
1807.00,0.0032
1806.00,0.0032
1805.00,0.0033
1804.00,0.0033
1803.00,0.0034
1802.00,0.0034
1801.00,0.0034
1800.00,0.0034
1799.00,0.0034
1798.00,0.0034
1797.00,0.0035
1796.00,0.0035
1795.00,0.0035
1794.00,0.0035
1793.00,0.0035
1792.00,0.0035
1791.00,0.0035
1790.00,0.0035
1789.00,0.0035
1788.00,0.0036
1787.00,0.0036
1786.00,0.0036
1785.00,0.0036
1784.00,0.0036
1783.00,0.0036
1782.00,0.0036
1781.00,0.0036
1780.00,0.0036
1779.00,0.0037
1778.00,0.0037
1777.00,0.0038
1776.00,0.0038
1775.00,0.0039
1774.00,0.0039
1773.00,0.0039
1772.00,0.0038
1771.00,0.0038
1770.00,0.0038
1769.00,0.0039
1768.00,0.0039
1767.00,0.0039
1766.00,0.0039
1765.00,0.0039
1764.00,0.0040
1763.00,0.0040
1762.00,0.0040
1761.00,0.0041
1760.00,0.0042
1759.00,0.0042
1758.00,0.0042
1757.00,0.0042
1756.00,0.0043
1755.00,0.0043
1754.00,0.0043
1753.00,0.0043
1752.00,0.0044
1751.00,0.0044
1750.00,0.0045
1749.00,0.0045
1748.00,0.0046
1747.00,0.0046
1746.00,0.0046
1745.00,0.0047
1744.00,0.0047
1743.00,0.0047
1742.00,0.0047
1741.00,0.0047
1740.00,0.0047
1739.00,0.0048
1738.00,0.0048
1737.00,0.0049
1736.00,0.0050
1735.00,0.0052
1734.00,0.0052
1733.00,0.0053
1732.00,0.0055
1731.00,0.0056
1730.00,0.0057
1729.00,0.0057
1728.00,0.0058
1727.00,0.0060
1726.00,0.0061
1725.00,0.0062
1724.00,0.0064
1723.00,0.0065
1722.00,0.0066
1721.00,0.0067
1720.00,0.0068
1719.00,0.0071
1718.00,0.0073
1717.00,0.0076
1716.00,0.0078
1715.00,0.0080
1714.00,0.0083
1713.00,0.0086
1712.00,0.0090
1711.00,0.0094
1710.00,0.0098
1709.00,0.0102
1708.00,0.0107
1707.00,0.0112
1706.00,0.0119
1705.00,0.0127
1704.00,0.0135
1703.00,0.0141
1702.00,0.0148
1701.00,0.0161
1700.00,0.0179
1699.00,0.0197
1698.00,0.0212
1697.00,0.0228
1696.00,0.0247
1695.00,0.0268
1694.00,0.0286
1693.00,0.0302
1692.00,0.0319
1691.00,0.0338
1690.00,0.0358
1689.00,0.0377
1688.00,0.0396
1687.00,0.0412
1686.00,0.0428
1685.00,0.0451
1684.00,0.0479
1683.00,0.0504
1682.00,0.0522
1681.00,0.0537
1680.00,0.0552
1679.00,0.0566
1678.00,0.0578
1677.00,0.0590
1676.00,0.0606
1675.00,0.0624
1674.00,0.0640
1673.00,0.0653
1672.00,0.0663
1671.00,0.0673
1670.00,0.0686
1669.00,0.0700
1668.00,0.0713
1667.00,0.0722
1666.00,0.0728
1665.00,0.0734
1664.00,0.0741
1663.00,0.0751
1662.00,0.0761
1661.00,0.0769
1660.00,0.0775
1659.00,0.0779
1658.00,0.0782
1657.00,0.0782
1656.00,0.0782
1655.00,0.0781
1654.00,0.0783
1653.00,0.0788
1652.00,0.0792
1651.00,0.0788
1650.00,0.0780
1649.00,0.0770
1648.00,0.0759
1647.00,0.0747
1646.00,0.0734
1645.00,0.0720
1644.00,0.0705
1643.00,0.0689
1642.00,0.0672
1641.00,0.0654
1640.00,0.0636
1639.00,0.0618
1638.00,0.0600
1637.00,0.0581
1636.00,0.0561
1635.00,0.0544
1634.00,0.0531
1633.00,0.0522
1632.00,0.0515
1631.00,0.0511
1630.00,0.0509
1629.00,0.0511
1628.00,0.0517
1627.00,0.0524
1626.00,0.0530
1625.00,0.0534
1624.00,0.0537
1623.00,0.0539
1622.00,0.0536
1621.00,0.0529
1620.00,0.0519
1619.00,0.0504
1618.00,0.0485
1617.00,0.0463
1616.00,0.0442
1615.00,0.0426
1614.00,0.0416
1613.00,0.0410
1612.00,0.0404
1611.00,0.0399
1610.00,0.0391
1609.00,0.0380
1608.00,0.0366
1607.00,0.0350
1606.00,0.0333
1605.00,0.0316
1604.00,0.0300
1603.00,0.0285
1602.00,0.0271
1601.00,0.0259
1600.00,0.0248
1599.00,0.0240
1598.00,0.0233
1597.00,0.0228
1596.00,0.0224
1595.00,0.0223
1594.00,0.0223
1593.00,0.0226
1592.00,0.0232
1591.00,0.0241
1590.00,0.0252
1589.00,0.0264
1588.00,0.0275
1587.00,0.0286
1586.00,0.0293
1585.00,0.0298
1584.00,0.0299
1583.00,0.0298
1582.00,0.0293
1581.00,0.0286
1580.00,0.0278
1579.00,0.0271
1578.00,0.0262
1577.00,0.0252
1576.00,0.0241
1575.00,0.0231
1574.00,0.0223
1573.00,0.0217
1572.00,0.0212
1571.00,0.0208
1570.00,0.0204
1569.00,0.0200
1568.00,0.0196
1567.00,0.0192
1566.00,0.0187
1565.00,0.0181
1564.00,0.0174
1563.00,0.0168
1562.00,0.0163
1561.00,0.0157
1560.00,0.0152
1559.00,0.0145
1558.00,0.0139
1557.00,0.0138
1556.00,0.0138
1555.00,0.0138
1554.00,0.0137
1553.00,0.0136
1552.00,0.0135
1551.00,0.0135
1550.00,0.0135
1549.00,0.0134
1548.00,0.0133
1547.00,0.0133
1546.00,0.0133
1545.00,0.0132
1544.00,0.0131
1543.00,0.0130
1542.00,0.0130
1541.00,0.0130
1540.00,0.0128
1539.00,0.0126
1538.00,0.0126
1537.00,0.0126
1536.00,0.0126
1535.00,0.0127
1534.00,0.0126
1533.00,0.0125
1532.00,0.0125
1531.00,0.0125
1530.00,0.0126
1529.00,0.0126
1528.00,0.0127
1527.00,0.0127
1526.00,0.0127
1525.00,0.0127
1524.00,0.0128
1523.00,0.0130
1522.00,0.0131
1521.00,0.0131
1520.00,0.0131
1519.00,0.0133
1518.00,0.0136
1517.00,0.0139
1516.00,0.0142
1515.00,0.0144
1514.00,0.0147
1513.00,0.0150
1512.00,0.0153
1511.00,0.0156
1510.00,0.0159
1509.00,0.0163
1508.00,0.0167
1507.00,0.0169
1506.00,0.0172
1505.00,0.0178
1504.00,0.0185
1503.00,0.0193
1502.00,0.0203
1501.00,0.0214
1500.00,0.0229
1499.00,0.0246
1498.00,0.0265
1497.00,0.0283
1496.00,0.0295
1495.00,0.0298
1494.00,0.0295
1493.00,0.0287
1492.00,0.0277
1491.00,0.0264
1490.00,0.0251
1489.00,0.0237
1488.00,0.0223
1487.00,0.0210
1486.00,0.0199
1485.00,0.0189
1484.00,0.0181
1483.00,0.0174
1482.00,0.0169
1481.00,0.0164
1480.00,0.0162
1479.00,0.0160
1478.00,0.0161
1477.00,0.0164
1476.00,0.0168
1475.00,0.0174
1474.00,0.0183
1473.00,0.0196
1472.00,0.0214
1471.00,0.0235
1470.00,0.0257
1469.00,0.0281
1468.00,0.0306
1467.00,0.0330
1466.00,0.0353
1465.00,0.0375
1464.00,0.0392
1463.00,0.0403
1462.00,0.0410
1461.00,0.0413
1460.00,0.0414
1459.00,0.0411
1458.00,0.0403
1457.00,0.0390
1456.00,0.0374
1455.00,0.0360
1454.00,0.0349
1453.00,0.0340
1452.00,0.0334
1451.00,0.0331
1450.00,0.0331
1449.00,0.0335
1448.00,0.0342
1447.00,0.0353
1446.00,0.0365
1445.00,0.0380
1444.00,0.0397
1443.00,0.0415
1442.00,0.0433
1441.00,0.0450
1440.00,0.0465
1439.00,0.0478
1438.00,0.0491
1437.00,0.0507
1436.00,0.0524
1435.00,0.0537
1434.00,0.0547
1433.00,0.0555
1432.00,0.0563
1431.00,0.0570
1430.00,0.0579
1429.00,0.0589
1428.00,0.0599
1427.00,0.0608
1426.00,0.0617
1425.00,0.0627
1424.00,0.0636
1423.00,0.0641
1422.00,0.0640
1421.00,0.0635
1420.00,0.0625
1419.00,0.0608
1418.00,0.0585
1417.00,0.0560
1416.00,0.0532
1415.00,0.0503
1414.00,0.0475
1413.00,0.0449
1412.00,0.0426
1411.00,0.0406
1410.00,0.0391
1409.00,0.0380
1408.00,0.0373
1407.00,0.0369
1406.00,0.0369
1405.00,0.0372
1404.00,0.0375
1403.00,0.0377
1402.00,0.0378
1401.00,0.0377
1400.00,0.0373
1399.00,0.0367
1398.00,0.0357
1397.00,0.0346
1396.00,0.0332
1395.00,0.0318
1394.00,0.0304
1393.00,0.0292
1392.00,0.0283
1391.00,0.0277
1390.00,0.0276
1389.00,0.0279
1388.00,0.0285
1387.00,0.0293
1386.00,0.0298
1385.00,0.0298
1384.00,0.0298
1383.00,0.0298
1382.00,0.0301
1381.00,0.0306
1380.00,0.0311
1379.00,0.0315
1378.00,0.0318
1377.00,0.0318
1376.00,0.0316
1375.00,0.0311
1374.00,0.0305
1373.00,0.0299
1372.00,0.0294
1371.00,0.0292
1370.00,0.0293
1369.00,0.0297
1368.00,0.0303
1367.00,0.0310
1366.00,0.0315
1365.00,0.0317
1364.00,0.0317
1363.00,0.0317
1362.00,0.0320
1361.00,0.0324
1360.00,0.0325
1359.00,0.0319
1358.00,0.0307
1357.00,0.0292
1356.00,0.0278
1355.00,0.0267
1354.00,0.0258
1353.00,0.0252
1352.00,0.0247
1351.00,0.0244
1350.00,0.0243
1349.00,0.0242
1348.00,0.0241
1347.00,0.0240
1346.00,0.0238
1345.00,0.0235
1344.00,0.0231
1343.00,0.0226
1342.00,0.0222
1341.00,0.0218
1340.00,0.0214
1339.00,0.0210
1338.00,0.0207
1337.00,0.0206
1336.00,0.0206
1335.00,0.0208
1334.00,0.0212
1333.00,0.0217
1332.00,0.0222
1331.00,0.0226
1330.00,0.0231
1329.00,0.0235
1328.00,0.0240
1327.00,0.0244
1326.00,0.0248
1325.00,0.0253
1324.00,0.0259
1323.00,0.0264
1322.00,0.0270
1321.00,0.0276
1320.00,0.0282
1319.00,0.0286
1318.00,0.0289
1317.00,0.0289
1316.00,0.0288
1315.00,0.0286
1314.00,0.0283
1313.00,0.0279
1312.00,0.0276
1311.00,0.0273
1310.00,0.0272
1309.00,0.0273
1308.00,0.0276
1307.00,0.0281
1306.00,0.0289
1305.00,0.0300
1304.00,0.0314
1303.00,0.0330
1302.00,0.0346
1301.00,0.0360
1300.00,0.0373
1299.00,0.0386
1298.00,0.0400
1297.00,0.0417
1296.00,0.0438
1295.00,0.0462
1294.00,0.0488
1293.00,0.0514
1292.00,0.0540
1291.00,0.0564
1290.00,0.0587
1289.00,0.0608
1288.00,0.0628
1287.00,0.0645
1286.00,0.0658
1285.00,0.0667
1284.00,0.0670
1283.00,0.0668
1282.00,0.0660
1281.00,0.0648
1280.00,0.0633
1279.00,0.0619
1278.00,0.0606
1277.00,0.0597
1276.00,0.0592
1275.00,0.0590
1274.00,0.0590
1273.00,0.0590
1272.00,0.0590
1271.00,0.0588
1270.00,0.0584
1269.00,0.0577
1268.00,0.0568
1267.00,0.0556
1266.00,0.0542
1265.00,0.0526
1264.00,0.0508
1263.00,0.0490
1262.00,0.0471
1261.00,0.0452
1260.00,0.0434
1259.00,0.0416
1258.00,0.0400
1257.00,0.0386
1256.00,0.0373
1255.00,0.0362
1254.00,0.0352
1253.00,0.0344
1252.00,0.0337
1251.00,0.0332
1250.00,0.0330
1249.00,0.0330
1248.00,0.0332
1247.00,0.0335
1246.00,0.0340
1245.00,0.0345
1244.00,0.0350
1243.00,0.0354
1242.00,0.0359
1241.00,0.0364
1240.00,0.0370
1239.00,0.0377
1238.00,0.0387
1237.00,0.0398
1236.00,0.0409
1235.00,0.0419
1234.00,0.0426
1233.00,0.0430
1232.00,0.0431
1231.00,0.0427
1230.00,0.0422
1229.00,0.0415
1228.00,0.0407
1227.00,0.0399
1226.00,0.0392
1225.00,0.0386
1224.00,0.0380
1223.00,0.0375
1222.00,0.0372
1221.00,0.0369
1220.00,0.0368
1219.00,0.0368
1218.00,0.0369
1217.00,0.0370
1216.00,0.0370
1215.00,0.0369
1214.00,0.0366
1213.00,0.0360
1212.00,0.0352
1211.00,0.0341
1210.00,0.0330
1209.00,0.0319
1208.00,0.0310
1207.00,0.0302
1206.00,0.0297
1205.00,0.0294
1204.00,0.0293
1203.00,0.0296
1202.00,0.0300
1201.00,0.0307
1200.00,0.0315
1199.00,0.0325
1198.00,0.0335
1197.00,0.0345
1196.00,0.0353
1195.00,0.0359
1194.00,0.0360
1193.00,0.0356
1192.00,0.0348
1191.00,0.0338
1190.00,0.0325
1189.00,0.0312
1188.00,0.0299
1187.00,0.0286
1186.00,0.0274
1185.00,0.0264
1184.00,0.0256
1183.00,0.0249
1182.00,0.0244
1181.00,0.0240
1180.00,0.0238
1179.00,0.0237
1178.00,0.0236
1177.00,0.0236
1176.00,0.0237
1175.00,0.0238
1174.00,0.0240
1173.00,0.0243
1172.00,0.0245
1171.00,0.0246
1170.00,0.0248
1169.00,0.0248
1168.00,0.0249
1167.00,0.0249
1166.00,0.0250
1165.00,0.0250
1164.00,0.0252
1163.00,0.0254
1162.00,0.0257
1161.00,0.0263
1160.00,0.0272
1159.00,0.0285
1158.00,0.0301
1157.00,0.0319
1156.00,0.0334
1155.00,0.0342
1154.00,0.0342
1153.00,0.0331
1152.00,0.0312
1151.00,0.0290
1150.00,0.0267
1149.00,0.0247
1148.00,0.0231
1147.00,0.0220
1146.00,0.0211
1145.00,0.0205
1144.00,0.0200
1143.00,0.0196
1142.00,0.0193
1141.00,0.0191
1140.00,0.0190
1139.00,0.0191
1138.00,0.0193
1137.00,0.0197
1136.00,0.0204
1135.00,0.0215
1134.00,0.0230
1133.00,0.0250
1132.00,0.0274
1131.00,0.0297
1130.00,0.0318
1129.00,0.0332
1128.00,0.0338
1127.00,0.0336
1126.00,0.0328
1125.00,0.0316
1124.00,0.0301
1123.00,0.0284
1122.00,0.0267
1121.00,0.0252
1120.00,0.0239
1119.00,0.0229
1118.00,0.0222
1117.00,0.0218
1116.00,0.0216
1115.00,0.0215
1114.00,0.0214
1113.00,0.0212
1112.00,0.0210
1111.00,0.0207
1110.00,0.0204
1109.00,0.0202
1108.00,0.0200
1107.00,0.0200
1106.00,0.0203
1105.00,0.0209
1104.00,0.0218
1103.00,0.0230
1102.00,0.0244
1101.00,0.0256
1100.00,0.0265
1099.00,0.0267
1098.00,0.0263
1097.00,0.0253
1096.00,0.0240
1095.00,0.0226
1094.00,0.0214
1093.00,0.0204
1092.00,0.0196
1091.00,0.0190
1090.00,0.0186
1089.00,0.0183
1088.00,0.0181
1087.00,0.0180
1086.00,0.0179
1085.00,0.0178
1084.00,0.0178
1083.00,0.0178
1082.00,0.0178
1081.00,0.0179
1080.00,0.0181
1079.00,0.0182
1078.00,0.0183
1077.00,0.0185
1076.00,0.0186
1075.00,0.0188
1074.00,0.0189
1073.00,0.0190
1072.00,0.0191
1071.00,0.0192
1070.00,0.0193
1069.00,0.0195
1068.00,0.0197
1067.00,0.0200
1066.00,0.0204
1065.00,0.0210
1064.00,0.0217
1063.00,0.0226
1062.00,0.0238
1061.00,0.0253
1060.00,0.0271
1059.00,0.0293
1058.00,0.0318
1057.00,0.0345
1056.00,0.0369
1055.00,0.0389
1054.00,0.0403
1053.00,0.0412
1052.00,0.0417
1051.00,0.0420
1050.00,0.0419
1049.00,0.0416
1048.00,0.0408
1047.00,0.0396
1046.00,0.0381
1045.00,0.0362
1044.00,0.0343
1043.00,0.0323
1042.00,0.0306
1041.00,0.0290
1040.00,0.0277
1039.00,0.0269
1038.00,0.0264
1037.00,0.0262
1036.00,0.0263
1035.00,0.0266
1034.00,0.0271
1033.00,0.0278
1032.00,0.0289
1031.00,0.0305
1030.00,0.0326
1029.00,0.0349
1028.00,0.0371
1027.00,0.0385
1026.00,0.0389
1025.00,0.0382
1024.00,0.0367
1023.00,0.0347
1022.00,0.0327
1021.00,0.0308
1020.00,0.0293
1019.00,0.0280
1018.00,0.0269
1017.00,0.0258
1016.00,0.0248
1015.00,0.0239
1014.00,0.0230
1013.00,0.0223
1012.00,0.0217
1011.00,0.0213
1010.00,0.0213
1009.00,0.0215
1008.00,0.0221
1007.00,0.0228
1006.00,0.0237
1005.00,0.0246
1004.00,0.0253
1003.00,0.0256
1002.00,0.0256
1001.00,0.0253
1000.00,0.0248
999.00,0.0242
998.00,0.0236
997.00,0.0230
996.00,0.0224
995.00,0.0219
994.00,0.0214
993.00,0.0209
992.00,0.0203
991.00,0.0197
990.00,0.0190
989.00,0.0183
988.00,0.0177
987.00,0.0172
986.00,0.0168
985.00,0.0164
984.00,0.0161
983.00,0.0158
982.00,0.0156
981.00,0.0155
980.00,0.0153
979.00,0.0153
978.00,0.0152
977.00,0.0152
976.00,0.0151
975.00,0.0151
974.00,0.0150
973.00,0.0150
972.00,0.0149
971.00,0.0148
970.00,0.0147
969.00,0.0146
968.00,0.0146
967.00,0.0146
966.00,0.0146
965.00,0.0147
964.00,0.0148
963.00,0.0149
962.00,0.0149
961.00,0.0148
960.00,0.0146
959.00,0.0142
958.00,0.0139
957.00,0.0135
956.00,0.0133
955.00,0.0131
954.00,0.0129
953.00,0.0127
952.00,0.0126
951.00,0.0126
950.00,0.0128
949.00,0.0129
948.00,0.0131
947.00,0.0131
946.00,0.0131
945.00,0.0131
944.00,0.0133
943.00,0.0135
942.00,0.0139
941.00,0.0144
940.00,0.0149
939.00,0.0154
938.00,0.0159
937.00,0.0164
936.00,0.0169
935.00,0.0173
934.00,0.0177
933.00,0.0180
932.00,0.0180
931.00,0.0178
930.00,0.0175
929.00,0.0171
928.00,0.0168
927.00,0.0166
926.00,0.0166
925.00,0.0168
924.00,0.0170
923.00,0.0173
922.00,0.0174
921.00,0.0174
920.00,0.0170
919.00,0.0164
918.00,0.0158
917.00,0.0151
916.00,0.0146
915.00,0.0142
914.00,0.0139
913.00,0.0137
912.00,0.0135
911.00,0.0134
910.00,0.0134
909.00,0.0134
908.00,0.0134
907.00,0.0136
906.00,0.0138
905.00,0.0142
904.00,0.0147
903.00,0.0155
902.00,0.0164
901.00,0.0172
900.00,0.0179
899.00,0.0183
898.00,0.0183
897.00,0.0180
896.00,0.0175
895.00,0.0171
894.00,0.0169
893.00,0.0170
892.00,0.0174
891.00,0.0180
890.00,0.0182
889.00,0.0179
888.00,0.0170
887.00,0.0160
886.00,0.0151
885.00,0.0145
884.00,0.0143
883.00,0.0142
882.00,0.0142
881.00,0.0144
880.00,0.0147
879.00,0.0151
878.00,0.0159
877.00,0.0170
876.00,0.0184
875.00,0.0201
874.00,0.0219
873.00,0.0239
872.00,0.0258
871.00,0.0274
870.00,0.0283
869.00,0.0284
868.00,0.0278
867.00,0.0268
866.00,0.0258
865.00,0.0247
864.00,0.0238
863.00,0.0228
862.00,0.0220
861.00,0.0213
860.00,0.0208
859.00,0.0207
858.00,0.0210
857.00,0.0217
856.00,0.0228
855.00,0.0241
854.00,0.0254
853.00,0.0267
852.00,0.0280
851.00,0.0294
850.00,0.0307
849.00,0.0315
848.00,0.0317
847.00,0.0312
846.00,0.0304
845.00,0.0294
844.00,0.0285
843.00,0.0278
842.00,0.0272
841.00,0.0268
840.00,0.0266
839.00,0.0268
838.00,0.0274
837.00,0.0283
836.00,0.0293
835.00,0.0301
834.00,0.0305
833.00,0.0304
832.00,0.0299
831.00,0.0289
830.00,0.0275
829.00,0.0258
828.00,0.0241
827.00,0.0226
826.00,0.0216
825.00,0.0212
824.00,0.0217
823.00,0.0233
822.00,0.0260
821.00,0.0287
820.00,0.0307
819.00,0.0318
818.00,0.0325
817.00,0.0335
816.00,0.0343
815.00,0.0338
814.00,0.0317
813.00,0.0284
812.00,0.0252
811.00,0.0225
810.00,0.0206
809.00,0.0192
808.00,0.0182
807.00,0.0174
806.00,0.0167
805.00,0.0162
804.00,0.0158
803.00,0.0155
802.00,0.0153
801.00,0.0151
800.00,0.0150
799.00,0.0148
798.00,0.0147
797.00,0.0146
796.00,0.0146
795.00,0.0146
794.00,0.0146
793.00,0.0146
792.00,0.0146
791.00,0.0147
790.00,0.0147
789.00,0.0147
788.00,0.0148
787.00,0.0148
786.00,0.0148
785.00,0.0148
784.00,0.0149
783.00,0.0150
782.00,0.0152
781.00,0.0153
780.00,0.0155
779.00,0.0158
778.00,0.0161
777.00,0.0167
776.00,0.0174
775.00,0.0181
774.00,0.0184
773.00,0.0184
772.00,0.0181
771.00,0.0176
770.00,0.0173
769.00,0.0172
768.00,0.0172
767.00,0.0173
766.00,0.0175
765.00,0.0177
764.00,0.0180
763.00,0.0184
762.00,0.0189
761.00,0.0195
760.00,0.0199
759.00,0.0202
758.00,0.0204
757.00,0.0205
756.00,0.0205
755.00,0.0206
754.00,0.0207
753.00,0.0210
752.00,0.0212
751.00,0.0215
750.00,0.0218
749.00,0.0221
748.00,0.0225
747.00,0.0228
746.00,0.0232
745.00,0.0236
744.00,0.0241
743.00,0.0245
742.00,0.0251
741.00,0.0258
740.00,0.0267
739.00,0.0279
738.00,0.0293
737.00,0.0309
736.00,0.0325
735.00,0.0336
734.00,0.0340
733.00,0.0337
732.00,0.0331
731.00,0.0327
730.00,0.0324
729.00,0.0322
728.00,0.0318
727.00,0.0309
726.00,0.0298
725.00,0.0285
724.00,0.0273
723.00,0.0263
722.00,0.0256
721.00,0.0251
720.00,0.0250
719.00,0.0251
718.00,0.0255
717.00,0.0259
716.00,0.0264
715.00,0.0267
714.00,0.0268
713.00,0.0266
712.00,0.0263
711.00,0.0259
710.00,0.0256
709.00,0.0253
708.00,0.0252
707.00,0.0252
706.00,0.0252
705.00,0.0254
704.00,0.0256
703.00,0.0260
702.00,0.0263
701.00,0.0268
700.00,0.0273
699.00,0.0277
698.00,0.0281
697.00,0.0283
696.00,0.0284
695.00,0.0283
694.00,0.0282
693.00,0.0283
692.00,0.0286
691.00,0.0291
690.00,0.0299
689.00,0.0306
688.00,0.0312
687.00,0.0313
686.00,0.0312
685.00,0.0311
684.00,0.0309
683.00,0.0308
682.00,0.0309
681.00,0.0311
680.00,0.0315
679.00,0.0319
678.00,0.0325
677.00,0.0331
676.00,0.0339
675.00,0.0347
674.00,0.0356
673.00,0.0365
672.00,0.0372
671.00,0.0378
670.00,0.0383
669.00,0.0385
668.00,0.0389
667.00,0.0393
666.00,0.0396
665.00,0.0399
664.00,0.0405
663.00,0.0412
662.00,0.0418
661.00,0.0424
660.00,0.0428
659.00,0.0431
658.00,0.0433
657.00,0.0434
656.00,0.0437
655.00,0.0439
654.00,0.0442
653.00,0.0445
652.00,0.0448
651.00,0.0451
650.00,0.0453
649.00,0.0455
648.00,0.0455
647.00,0.0455
646.00,0.0454
645.00,0.0451
644.00,0.0448
643.00,0.0444
642.00,0.0440
641.00,0.0437
640.00,0.0433
639.00,0.0428
638.00,0.0424
637.00,0.0421
636.00,0.0417
635.00,0.0414
634.00,0.0411
633.00,0.0408
632.00,0.0406
631.00,0.0404
630.00,0.0403
629.00,0.0402
628.00,0.0402
627.00,0.0402
626.00,0.0402
625.00,0.0404
624.00,0.0406
623.00,0.0409
622.00,0.0413
621.00,0.0417
620.00,0.0420
619.00,0.0420
618.00,0.0418
617.00,0.0415
616.00,0.0410
615.00,0.0405
614.00,0.0400
613.00,0.0396
612.00,0.0393
611.00,0.0393
610.00,0.0396
609.00,0.0402
608.00,0.0410
607.00,0.0420
606.00,0.0431
605.00,0.0442
604.00,0.0452
603.00,0.0460
602.00,0.0464
601.00,0.0466
600.00,0.0467
599.00,0.0468
598.00,0.0470
597.00,0.0472
596.00,0.0475
595.00,0.0476
594.00,0.0477
593.00,0.0478
592.00,0.0479
591.00,0.0481
590.00,0.0483
589.00,0.0485
588.00,0.0486
587.00,0.0488
586.00,0.0492
585.00,0.0497
584.00,0.0504
583.00,0.0512
582.00,0.0520
581.00,0.0529
580.00,0.0537
579.00,0.0547
578.00,0.0558
577.00,0.0569
576.00,0.0576
575.00,0.0577
574.00,0.0572
573.00,0.0564
572.00,0.0554
571.00,0.0546
570.00,0.0539
569.00,0.0534
568.00,0.0530
567.00,0.0528
566.00,0.0528
565.00,0.0529
564.00,0.0531
563.00,0.0534
562.00,0.0537
561.00,0.0540
560.00,0.0542
559.00,0.0541
558.00,0.0536
557.00,0.0529
556.00,0.0521
555.00,0.0515
554.00,0.0510
553.00,0.0506
552.00,0.0504
551.00,0.0505
550.00,0.0509
549.00,0.0515
548.00,0.0522
547.00,0.0528
546.00,0.0530
545.00,0.0528
544.00,0.0522
543.00,0.0514
542.00,0.0505
541.00,0.0497
540.00,0.0491
539.00,0.0487
538.00,0.0484
537.00,0.0485
536.00,0.0487
535.00,0.0491
534.00,0.0497
533.00,0.0503
532.00,0.0508
531.00,0.0510
530.00,0.0508
529.00,0.0504
528.00,0.0500
527.00,0.0495
526.00,0.0489
525.00,0.0481
524.00,0.0474
523.00,0.0468
522.00,0.0463
521.00,0.0460
520.00,0.0457
519.00,0.0454
518.00,0.0452
517.00,0.0450
516.00,0.0449
515.00,0.0448
514.00,0.0447
513.00,0.0446
512.00,0.0445
511.00,0.0446
510.00,0.0448
509.00,0.0450
508.00,0.0452
507.00,0.0453
506.00,0.0452
505.00,0.0451
504.00,0.0450
503.00,0.0449
502.00,0.0447
501.00,0.0446
500.00,0.0445
499.00,0.0446
498.00,0.0447
497.00,0.0448
496.00,0.0449
495.00,0.0451
494.00,0.0454
493.00,0.0455
492.00,0.0454
491.00,0.0451
490.00,0.0449
489.00,0.0449
488.00,0.0448
487.00,0.0447
486.00,0.0445
485.00,0.0443
484.00,0.0443
483.00,0.0443
482.00,0.0443
481.00,0.0442
480.00,0.0442
479.00,0.0441
478.00,0.0440
477.00,0.0438
476.00,0.0436
475.00,0.0434
474.00,0.0433
473.00,0.0433
472.00,0.0435
471.00,0.0437
470.00,0.0439
469.00,0.0438
468.00,0.0436
467.00,0.0434
466.00,0.0433
465.00,0.0434
464.00,0.0436
463.00,0.0437
462.00,0.0438
461.00,0.0438
460.00,0.0438
459.00,0.0437
458.00,0.0435
457.00,0.0434
456.00,0.0432
455.00,0.0430
454.00,0.0428
453.00,0.0427
452.00,0.0427
451.00,0.0426
450.00,0.0425
449.00,0.0423
448.00,0.0422
447.00,0.0422
446.00,0.0422
445.00,0.0421
444.00,0.0420
443.00,0.0417
442.00,0.0416
441.00,0.0417
440.00,0.0419
439.00,0.0420
438.00,0.0420
437.00,0.0417
436.00,0.0412
435.00,0.0409
434.00,0.0411
433.00,0.0416
432.00,0.0417
431.00,0.0415
430.00,0.0412
429.00,0.0411
428.00,0.0412
427.00,0.0411
426.00,0.0408
425.00,0.0405
424.00,0.0403
423.00,0.0402
422.00,0.0403
421.00,0.0405
420.00,0.0408
419.00,0.0411
418.00,0.0412
417.00,0.0411
416.00,0.0410
415.00,0.0410
414.00,0.0411
413.00,0.0417
412.00,0.0425
411.00,0.0433
410.00,0.0439
409.00,0.0441
408.00,0.0438
407.00,0.0429
406.00,0.0420
405.00,0.0417
404.00,0.0419
403.00,0.0419
402.00,0.0413
401.00,0.0404
400.00,0.0401
