Created as New Dataset,Sample 023 By YargerLab Date Thursday, August 07 2025
cm-1,A
4000.00,0.0019
3999.00,0.0020
3998.00,0.0020
3997.00,0.0020
3996.00,0.0020
3995.00,0.0020
3994.00,0.0020
3993.00,0.0020
3992.00,0.0020
3991.00,0.0020
3990.00,0.0020
3989.00,0.0020
3988.00,0.0019
3987.00,0.0019
3986.00,0.0019
3985.00,0.0019
3984.00,0.0019
3983.00,0.0019
3982.00,0.0019
3981.00,0.0020
3980.00,0.0020
3979.00,0.0020
3978.00,0.0020
3977.00,0.0020
3976.00,0.0020
3975.00,0.0020
3974.00,0.0020
3973.00,0.0020
3972.00,0.0020
3971.00,0.0020
3970.00,0.0020
3969.00,0.0020
3968.00,0.0020
3967.00,0.0020
3966.00,0.0020
3965.00,0.0019
3964.00,0.0019
3963.00,0.0019
3962.00,0.0019
3961.00,0.0020
3960.00,0.0020
3959.00,0.0020
3958.00,0.0019
3957.00,0.0019
3956.00,0.0019
3955.00,0.0019
3954.00,0.0019
3953.00,0.0019
3952.00,0.0019
3951.00,0.0019
3950.00,0.0019
3949.00,0.0019
3948.00,0.0019
3947.00,0.0019
3946.00,0.0019
3945.00,0.0019
3944.00,0.0019
3943.00,0.0020
3942.00,0.0020
3941.00,0.0020
3940.00,0.0020
3939.00,0.0020
3938.00,0.0020
3937.00,0.0020
3936.00,0.0020
3935.00,0.0020
3934.00,0.0019
3933.00,0.0019
3932.00,0.0019
3931.00,0.0019
3930.00,0.0020
3929.00,0.0020
3928.00,0.0020
3927.00,0.0020
3926.00,0.0020
3925.00,0.0020
3924.00,0.0020
3923.00,0.0020
3922.00,0.0020
3921.00,0.0020
3920.00,0.0020
3919.00,0.0020
3918.00,0.0020
3917.00,0.0020
3916.00,0.0020
3915.00,0.0020
3914.00,0.0020
3913.00,0.0020
3912.00,0.0020
3911.00,0.0020
3910.00,0.0020
3909.00,0.0020
3908.00,0.0020
3907.00,0.0020
3906.00,0.0020
3905.00,0.0020
3904.00,0.0020
3903.00,0.0020
3902.00,0.0019
3901.00,0.0019
3900.00,0.0019
3899.00,0.0019
3898.00,0.0019
3897.00,0.0019
3896.00,0.0019
3895.00,0.0019
3894.00,0.0019
3893.00,0.0019
3892.00,0.0019
3891.00,0.0020
3890.00,0.0020
3889.00,0.0020
3888.00,0.0020
3887.00,0.0020
3886.00,0.0020
3885.00,0.0019
3884.00,0.0019
3883.00,0.0019
3882.00,0.0019
3881.00,0.0019
3880.00,0.0019
3879.00,0.0019
3878.00,0.0019
3877.00,0.0019
3876.00,0.0019
3875.00,0.0019
3874.00,0.0020
3873.00,0.0020
3872.00,0.0020
3871.00,0.0020
3870.00,0.0020
3869.00,0.0020
3868.00,0.0020
3867.00,0.0019
3866.00,0.0019
3865.00,0.0019
3864.00,0.0019
3863.00,0.0019
3862.00,0.0019
3861.00,0.0019
3860.00,0.0019
3859.00,0.0019
3858.00,0.0020
3857.00,0.0020
3856.00,0.0021
3855.00,0.0021
3854.00,0.0020
3853.00,0.0020
3852.00,0.0020
3851.00,0.0020
3850.00,0.0019
3849.00,0.0019
3848.00,0.0019
3847.00,0.0019
3846.00,0.0019
3845.00,0.0019
3844.00,0.0019
3843.00,0.0019
3842.00,0.0019
3841.00,0.0019
3840.00,0.0019
3839.00,0.0020
3838.00,0.0020
3837.00,0.0020
3836.00,0.0020
3835.00,0.0020
3834.00,0.0019
3833.00,0.0019
3832.00,0.0019
3831.00,0.0020
3830.00,0.0020
3829.00,0.0019
3828.00,0.0019
3827.00,0.0020
3826.00,0.0020
3825.00,0.0020
3824.00,0.0020
3823.00,0.0020
3822.00,0.0020
3821.00,0.0020
3820.00,0.0020
3819.00,0.0020
3818.00,0.0020
3817.00,0.0020
3816.00,0.0020
3815.00,0.0020
3814.00,0.0020
3813.00,0.0020
3812.00,0.0020
3811.00,0.0020
3810.00,0.0020
3809.00,0.0020
3808.00,0.0020
3807.00,0.0020
3806.00,0.0020
3805.00,0.0020
3804.00,0.0020
3803.00,0.0020
3802.00,0.0020
3801.00,0.0020
3800.00,0.0020
3799.00,0.0020
3798.00,0.0019
3797.00,0.0019
3796.00,0.0019
3795.00,0.0020
3794.00,0.0019
3793.00,0.0019
3792.00,0.0019
3791.00,0.0019
3790.00,0.0019
3789.00,0.0020
3788.00,0.0020
3787.00,0.0020
3786.00,0.0020
3785.00,0.0020
3784.00,0.0020
3783.00,0.0020
3782.00,0.0020
3781.00,0.0020
3780.00,0.0020
3779.00,0.0020
3778.00,0.0020
3777.00,0.0020
3776.00,0.0020
3775.00,0.0020
3774.00,0.0020
3773.00,0.0020
3772.00,0.0020
3771.00,0.0020
3770.00,0.0020
3769.00,0.0020
3768.00,0.0020
3767.00,0.0020
3766.00,0.0020
3765.00,0.0020
3764.00,0.0020
3763.00,0.0020
3762.00,0.0019
3761.00,0.0019
3760.00,0.0019
3759.00,0.0020
3758.00,0.0020
3757.00,0.0020
3756.00,0.0020
3755.00,0.0020
3754.00,0.0020
3753.00,0.0020
3752.00,0.0020
3751.00,0.0020
3750.00,0.0020
3749.00,0.0020
3748.00,0.0020
3747.00,0.0020
3746.00,0.0020
3745.00,0.0020
3744.00,0.0020
3743.00,0.0020
3742.00,0.0020
3741.00,0.0020
3740.00,0.0020
3739.00,0.0020
3738.00,0.0020
3737.00,0.0020
3736.00,0.0019
3735.00,0.0019
3734.00,0.0019
3733.00,0.0019
3732.00,0.0019
3731.00,0.0019
3730.00,0.0019
3729.00,0.0019
3728.00,0.0019
3727.00,0.0020
3726.00,0.0020
3725.00,0.0020
3724.00,0.0020
3723.00,0.0020
3722.00,0.0019
3721.00,0.0019
3720.00,0.0019
3719.00,0.0019
3718.00,0.0019
3717.00,0.0019
3716.00,0.0019
3715.00,0.0019
3714.00,0.0019
3713.00,0.0019
3712.00,0.0020
3711.00,0.0020
3710.00,0.0020
3709.00,0.0020
3708.00,0.0020
3707.00,0.0020
3706.00,0.0019
3705.00,0.0019
3704.00,0.0019
3703.00,0.0019
3702.00,0.0020
3701.00,0.0020
3700.00,0.0020
3699.00,0.0020
3698.00,0.0020
3697.00,0.0020
3696.00,0.0020
3695.00,0.0019
3694.00,0.0019
3693.00,0.0020
3692.00,0.0020
3691.00,0.0020
3690.00,0.0021
3689.00,0.0021
3688.00,0.0022
3687.00,0.0022
3686.00,0.0022
3685.00,0.0021
3684.00,0.0022
3683.00,0.0022
3682.00,0.0022
3681.00,0.0022
3680.00,0.0023
3679.00,0.0023
3678.00,0.0024
3677.00,0.0023
3676.00,0.0023
3675.00,0.0024
3674.00,0.0024
3673.00,0.0024
3672.00,0.0024
3671.00,0.0024
3670.00,0.0024
3669.00,0.0024
3668.00,0.0024
3667.00,0.0024
3666.00,0.0024
3665.00,0.0024
3664.00,0.0024
3663.00,0.0025
3662.00,0.0025
3661.00,0.0025
3660.00,0.0025
3659.00,0.0025
3658.00,0.0026
3657.00,0.0026
3656.00,0.0026
3655.00,0.0026
3654.00,0.0026
3653.00,0.0027
3652.00,0.0027
3651.00,0.0027
3650.00,0.0027
3649.00,0.0027
3648.00,0.0028
3647.00,0.0028
3646.00,0.0028
3645.00,0.0028
3644.00,0.0029
3643.00,0.0029
3642.00,0.0030
3641.00,0.0030
3640.00,0.0031
3639.00,0.0031
3638.00,0.0031
3637.00,0.0032
3636.00,0.0032
3635.00,0.0033
3634.00,0.0033
3633.00,0.0034
3632.00,0.0034
3631.00,0.0034
3630.00,0.0033
3629.00,0.0033
3628.00,0.0034
3627.00,0.0034
3626.00,0.0035
3625.00,0.0035
3624.00,0.0036
3623.00,0.0036
3622.00,0.0037
3621.00,0.0037
3620.00,0.0038
3619.00,0.0038
3618.00,0.0039
3617.00,0.0039
3616.00,0.0040
3615.00,0.0040
3614.00,0.0041
3613.00,0.0041
3612.00,0.0042
3611.00,0.0042
3610.00,0.0042
3609.00,0.0043
3608.00,0.0043
3607.00,0.0044
3606.00,0.0045
3605.00,0.0045
3604.00,0.0046
3603.00,0.0046
3602.00,0.0047
3601.00,0.0047
3600.00,0.0048
3599.00,0.0049
3598.00,0.0049
3597.00,0.0050
3596.00,0.0050
3595.00,0.0051
3594.00,0.0051
3593.00,0.0052
3592.00,0.0053
3591.00,0.0054
3590.00,0.0055
3589.00,0.0055
3588.00,0.0055
3587.00,0.0056
3586.00,0.0056
3585.00,0.0057
3584.00,0.0058
3583.00,0.0059
3582.00,0.0060
3581.00,0.0061
3580.00,0.0061
3579.00,0.0062
3578.00,0.0063
3577.00,0.0063
3576.00,0.0064
3575.00,0.0064
3574.00,0.0065
3573.00,0.0066
3572.00,0.0067
3571.00,0.0068
3570.00,0.0069
3569.00,0.0069
3568.00,0.0069
3567.00,0.0070
3566.00,0.0070
3565.00,0.0071
3564.00,0.0072
3563.00,0.0073
3562.00,0.0074
3561.00,0.0075
3560.00,0.0076
3559.00,0.0077
3558.00,0.0078
3557.00,0.0078
3556.00,0.0079
3555.00,0.0079
3554.00,0.0080
3553.00,0.0080
3552.00,0.0081
3551.00,0.0082
3550.00,0.0082
3549.00,0.0082
3548.00,0.0083
3547.00,0.0084
3546.00,0.0084
3545.00,0.0085
3544.00,0.0085
3543.00,0.0086
3542.00,0.0086
3541.00,0.0087
3540.00,0.0087
3539.00,0.0088
3538.00,0.0088
3537.00,0.0089
3536.00,0.0089
3535.00,0.0090
3534.00,0.0090
3533.00,0.0090
3532.00,0.0091
3531.00,0.0092
3530.00,0.0092
3529.00,0.0092
3528.00,0.0093
3527.00,0.0093
3526.00,0.0094
3525.00,0.0094
3524.00,0.0094
3523.00,0.0094
3522.00,0.0094
3521.00,0.0094
3520.00,0.0095
3519.00,0.0095
3518.00,0.0095
3517.00,0.0095
3516.00,0.0095
3515.00,0.0096
3514.00,0.0096
3513.00,0.0096
3512.00,0.0097
3511.00,0.0097
3510.00,0.0097
3509.00,0.0098
3508.00,0.0098
3507.00,0.0099
3506.00,0.0099
3505.00,0.0099
3504.00,0.0099
3503.00,0.0099
3502.00,0.0099
3501.00,0.0100
3500.00,0.0100
3499.00,0.0100
3498.00,0.0101
3497.00,0.0101
3496.00,0.0101
3495.00,0.0101
3494.00,0.0101
3493.00,0.0101
3492.00,0.0101
3491.00,0.0102
3490.00,0.0102
3489.00,0.0102
3488.00,0.0103
3487.00,0.0103
3486.00,0.0103
3485.00,0.0104
3484.00,0.0104
3483.00,0.0104
3482.00,0.0104
3481.00,0.0104
3480.00,0.0104
3479.00,0.0104
3478.00,0.0104
3477.00,0.0104
3476.00,0.0104
3475.00,0.0105
3474.00,0.0105
3473.00,0.0105
3472.00,0.0105
3471.00,0.0106
3470.00,0.0106
3469.00,0.0106
3468.00,0.0106
3467.00,0.0106
3466.00,0.0106
3465.00,0.0107
3464.00,0.0107
3463.00,0.0107
3462.00,0.0106
3461.00,0.0106
3460.00,0.0106
3459.00,0.0106
3458.00,0.0106
3457.00,0.0107
3456.00,0.0107
3455.00,0.0107
3454.00,0.0107
3453.00,0.0107
3452.00,0.0107
3451.00,0.0107
3450.00,0.0107
3449.00,0.0107
3448.00,0.0107
3447.00,0.0107
3446.00,0.0107
3445.00,0.0107
3444.00,0.0107
3443.00,0.0107
3442.00,0.0106
3441.00,0.0106
3440.00,0.0106
3439.00,0.0107
3438.00,0.0107
3437.00,0.0107
3436.00,0.0107
3435.00,0.0107
3434.00,0.0107
3433.00,0.0107
3432.00,0.0107
3431.00,0.0106
3430.00,0.0106
3429.00,0.0106
3428.00,0.0106
3427.00,0.0106
3426.00,0.0106
3425.00,0.0106
3424.00,0.0106
3423.00,0.0105
3422.00,0.0105
3421.00,0.0105
3420.00,0.0105
3419.00,0.0104
3418.00,0.0104
3417.00,0.0104
3416.00,0.0104
3415.00,0.0104
3414.00,0.0104
3413.00,0.0103
3412.00,0.0103
3411.00,0.0103
3410.00,0.0103
3409.00,0.0103
3408.00,0.0103
3407.00,0.0103
3406.00,0.0103
3405.00,0.0103
3404.00,0.0102
3403.00,0.0102
3402.00,0.0102
3401.00,0.0101
3400.00,0.0101
3399.00,0.0101
3398.00,0.0101
3397.00,0.0101
3396.00,0.0100
3395.00,0.0100
3394.00,0.0100
3393.00,0.0100
3392.00,0.0099
3391.00,0.0099
3390.00,0.0099
3389.00,0.0099
3388.00,0.0099
3387.00,0.0099
3386.00,0.0099
3385.00,0.0099
3384.00,0.0099
3383.00,0.0099
3382.00,0.0098
3381.00,0.0098
3380.00,0.0097
3379.00,0.0096
3378.00,0.0096
3377.00,0.0096
3376.00,0.0096
3375.00,0.0097
3374.00,0.0097
3373.00,0.0096
3372.00,0.0096
3371.00,0.0095
3370.00,0.0094
3369.00,0.0094
3368.00,0.0094
3367.00,0.0094
3366.00,0.0094
3365.00,0.0095
3364.00,0.0095
3363.00,0.0095
3362.00,0.0095
3361.00,0.0095
3360.00,0.0094
3359.00,0.0094
3358.00,0.0094
3357.00,0.0094
3356.00,0.0094
3355.00,0.0094
3354.00,0.0094
3353.00,0.0093
3352.00,0.0092
3351.00,0.0092
3350.00,0.0092
3349.00,0.0092
3348.00,0.0092
3347.00,0.0092
3346.00,0.0092
3345.00,0.0092
3344.00,0.0092
3343.00,0.0092
3342.00,0.0092
3341.00,0.0091
3340.00,0.0091
3339.00,0.0090
3338.00,0.0090
3337.00,0.0091
3336.00,0.0091
3335.00,0.0092
3334.00,0.0092
3333.00,0.0092
3332.00,0.0092
3331.00,0.0091
3330.00,0.0091
3329.00,0.0091
3328.00,0.0090
3327.00,0.0090
3326.00,0.0090
3325.00,0.0090
3324.00,0.0090
3323.00,0.0090
3322.00,0.0090
3321.00,0.0091
3320.00,0.0091
3319.00,0.0091
3318.00,0.0091
3317.00,0.0091
3316.00,0.0090
3315.00,0.0090
3314.00,0.0090
3313.00,0.0090
3312.00,0.0089
3311.00,0.0088
3310.00,0.0087
3309.00,0.0087
3308.00,0.0086
3307.00,0.0085
3306.00,0.0085
3305.00,0.0086
3304.00,0.0087
3303.00,0.0088
3302.00,0.0088
3301.00,0.0089
3300.00,0.0089
3299.00,0.0089
3298.00,0.0088
3297.00,0.0087
3296.00,0.0087
3295.00,0.0087
3294.00,0.0087
3293.00,0.0086
3292.00,0.0087
3291.00,0.0087
3290.00,0.0087
3289.00,0.0088
3288.00,0.0088
3287.00,0.0088
3286.00,0.0088
3285.00,0.0088
3284.00,0.0088
3283.00,0.0088
3282.00,0.0088
3281.00,0.0088
3280.00,0.0087
3279.00,0.0087
3278.00,0.0086
3277.00,0.0086
3276.00,0.0085
3275.00,0.0085
3274.00,0.0084
3273.00,0.0084
3272.00,0.0084
3271.00,0.0084
3270.00,0.0084
3269.00,0.0084
3268.00,0.0085
3267.00,0.0085
3266.00,0.0085
3265.00,0.0085
3264.00,0.0084
3263.00,0.0084
3262.00,0.0084
3261.00,0.0084
3260.00,0.0083
3259.00,0.0083
3258.00,0.0083
3257.00,0.0082
3256.00,0.0082
3255.00,0.0082
3254.00,0.0082
3253.00,0.0082
3252.00,0.0082
3251.00,0.0081
3250.00,0.0081
3249.00,0.0080
3248.00,0.0080
3247.00,0.0080
3246.00,0.0080
3245.00,0.0080
3244.00,0.0080
3243.00,0.0080
3242.00,0.0080
3241.00,0.0080
3240.00,0.0079
3239.00,0.0079
3238.00,0.0079
3237.00,0.0079
3236.00,0.0078
3235.00,0.0078
3234.00,0.0077
3233.00,0.0077
3232.00,0.0077
3231.00,0.0077
3230.00,0.0077
3229.00,0.0077
3228.00,0.0077
3227.00,0.0077
3226.00,0.0077
3225.00,0.0077
3224.00,0.0076
3223.00,0.0076
3222.00,0.0076
3221.00,0.0076
3220.00,0.0075
3219.00,0.0075
3218.00,0.0075
3217.00,0.0075
3216.00,0.0075
3215.00,0.0075
3214.00,0.0074
3213.00,0.0074
3212.00,0.0074
3211.00,0.0073
3210.00,0.0073
3209.00,0.0073
3208.00,0.0073
3207.00,0.0073
3206.00,0.0073
3205.00,0.0073
3204.00,0.0072
3203.00,0.0072
3202.00,0.0072
3201.00,0.0072
3200.00,0.0072
3199.00,0.0071
3198.00,0.0071
3197.00,0.0071
3196.00,0.0071
3195.00,0.0070
3194.00,0.0070
3193.00,0.0070
3192.00,0.0070
3191.00,0.0070
3190.00,0.0070
3189.00,0.0070
3188.00,0.0070
3187.00,0.0069
3186.00,0.0069
3185.00,0.0069
3184.00,0.0069
3183.00,0.0069
3182.00,0.0069
3181.00,0.0069
3180.00,0.0069
3179.00,0.0069
3178.00,0.0069
3177.00,0.0069
3176.00,0.0068
3175.00,0.0068
3174.00,0.0068
3173.00,0.0068
3172.00,0.0068
3171.00,0.0068
3170.00,0.0068
3169.00,0.0068
3168.00,0.0068
3167.00,0.0068
3166.00,0.0068
3165.00,0.0068
3164.00,0.0067
3163.00,0.0067
3162.00,0.0067
3161.00,0.0067
3160.00,0.0066
3159.00,0.0066
3158.00,0.0066
3157.00,0.0066
3156.00,0.0066
3155.00,0.0065
3154.00,0.0065
3153.00,0.0065
3152.00,0.0065
3151.00,0.0065
3150.00,0.0065
3149.00,0.0064
3148.00,0.0064
3147.00,0.0064
3146.00,0.0065
3145.00,0.0065
3144.00,0.0065
3143.00,0.0065
3142.00,0.0065
3141.00,0.0064
3140.00,0.0064
3139.00,0.0064
3138.00,0.0063
3137.00,0.0063
3136.00,0.0063
3135.00,0.0063
3134.00,0.0063
3133.00,0.0063
3132.00,0.0062
3131.00,0.0062
3130.00,0.0062
3129.00,0.0063
3128.00,0.0063
3127.00,0.0063
3126.00,0.0062
3125.00,0.0062
3124.00,0.0062
3123.00,0.0062
3122.00,0.0062
3121.00,0.0062
3120.00,0.0062
3119.00,0.0061
3118.00,0.0061
3117.00,0.0061
3116.00,0.0061
3115.00,0.0061
3114.00,0.0061
3113.00,0.0061
3112.00,0.0061
3111.00,0.0061
3110.00,0.0061
3109.00,0.0060
3108.00,0.0060
3107.00,0.0060
3106.00,0.0060
3105.00,0.0060
3104.00,0.0060
3103.00,0.0060
3102.00,0.0060
3101.00,0.0059
3100.00,0.0059
3099.00,0.0059
3098.00,0.0059
3097.00,0.0060
3096.00,0.0060
3095.00,0.0060
3094.00,0.0059
3093.00,0.0059
3092.00,0.0059
3091.00,0.0059
3090.00,0.0059
3089.00,0.0059
3088.00,0.0059
3087.00,0.0059
3086.00,0.0059
3085.00,0.0059
3084.00,0.0059
3083.00,0.0059
3082.00,0.0059
3081.00,0.0059
3080.00,0.0059
3079.00,0.0059
3078.00,0.0059
3077.00,0.0059
3076.00,0.0059
3075.00,0.0059
3074.00,0.0059
3073.00,0.0059
3072.00,0.0059
3071.00,0.0059
3070.00,0.0059
3069.00,0.0059
3068.00,0.0059
3067.00,0.0058
3066.00,0.0058
3065.00,0.0058
3064.00,0.0058
3063.00,0.0057
3062.00,0.0057
3061.00,0.0057
3060.00,0.0057
3059.00,0.0057
3058.00,0.0057
3057.00,0.0057
3056.00,0.0057
3055.00,0.0057
3054.00,0.0057
3053.00,0.0057
3052.00,0.0057
3051.00,0.0057
3050.00,0.0056
3049.00,0.0056
3048.00,0.0056
3047.00,0.0056
3046.00,0.0056
3045.00,0.0056
3044.00,0.0056
3043.00,0.0056
3042.00,0.0056
3041.00,0.0056
3040.00,0.0056
3039.00,0.0056
3038.00,0.0056
3037.00,0.0056
3036.00,0.0056
3035.00,0.0056
3034.00,0.0056
3033.00,0.0056
3032.00,0.0056
3031.00,0.0056
3030.00,0.0056
3029.00,0.0056
3028.00,0.0056
3027.00,0.0056
3026.00,0.0056
3025.00,0.0056
3024.00,0.0056
3023.00,0.0056
3022.00,0.0056
3021.00,0.0057
3020.00,0.0057
3019.00,0.0057
3018.00,0.0057
3017.00,0.0058
3016.00,0.0058
3015.00,0.0059
3014.00,0.0060
3013.00,0.0060
3012.00,0.0061
3011.00,0.0062
3010.00,0.0063
3009.00,0.0064
3008.00,0.0065
3007.00,0.0066
3006.00,0.0068
3005.00,0.0070
3004.00,0.0071
3003.00,0.0073
3002.00,0.0075
3001.00,0.0077
3000.00,0.0079
2999.00,0.0082
2998.00,0.0084
2997.00,0.0087
2996.00,0.0090
2995.00,0.0093
2994.00,0.0096
2993.00,0.0099
2992.00,0.0102
2991.00,0.0106
2990.00,0.0109
2989.00,0.0113
2988.00,0.0116
2987.00,0.0120
2986.00,0.0123
2985.00,0.0126
2984.00,0.0129
2983.00,0.0131
2982.00,0.0134
2981.00,0.0136
2980.00,0.0139
2979.00,0.0141
2978.00,0.0143
2977.00,0.0145
2976.00,0.0146
2975.00,0.0147
2974.00,0.0148
2973.00,0.0149
2972.00,0.0151
2971.00,0.0152
2970.00,0.0153
2969.00,0.0154
2968.00,0.0156
2967.00,0.0157
2966.00,0.0159
2965.00,0.0160
2964.00,0.0162
2963.00,0.0164
2962.00,0.0166
2961.00,0.0168
2960.00,0.0170
2959.00,0.0172
2958.00,0.0174
2957.00,0.0176
2956.00,0.0178
2955.00,0.0180
2954.00,0.0181
2953.00,0.0182
2952.00,0.0183
2951.00,0.0183
2950.00,0.0183
2949.00,0.0182
2948.00,0.0181
2947.00,0.0180
2946.00,0.0179
2945.00,0.0178
2944.00,0.0176
2943.00,0.0175
2942.00,0.0174
2941.00,0.0173
2940.00,0.0172
2939.00,0.0171
2938.00,0.0170
2937.00,0.0170
2936.00,0.0170
2935.00,0.0170
2934.00,0.0170
2933.00,0.0171
2932.00,0.0171
2931.00,0.0171
2930.00,0.0172
2929.00,0.0173
2928.00,0.0174
2927.00,0.0175
2926.00,0.0176
2925.00,0.0177
2924.00,0.0178
2923.00,0.0179
2922.00,0.0180
2921.00,0.0180
2920.00,0.0181
2919.00,0.0181
2918.00,0.0181
2917.00,0.0181
2916.00,0.0180
2915.00,0.0178
2914.00,0.0176
2913.00,0.0173
2912.00,0.0170
2911.00,0.0167
2910.00,0.0164
2909.00,0.0161
2908.00,0.0159
2907.00,0.0157
2906.00,0.0155
2905.00,0.0153
2904.00,0.0151
2903.00,0.0150
2902.00,0.0149
2901.00,0.0148
2900.00,0.0148
2899.00,0.0147
2898.00,0.0147
2897.00,0.0147
2896.00,0.0148
2895.00,0.0148
2894.00,0.0149
2893.00,0.0149
2892.00,0.0149
2891.00,0.0149
2890.00,0.0149
2889.00,0.0149
2888.00,0.0149
2887.00,0.0149
2886.00,0.0149
2885.00,0.0149
2884.00,0.0149
2883.00,0.0149
2882.00,0.0149
2881.00,0.0149
2880.00,0.0150
2879.00,0.0150
2878.00,0.0150
2877.00,0.0150
2876.00,0.0150
2875.00,0.0149
2874.00,0.0149
2873.00,0.0149
2872.00,0.0149
2871.00,0.0149
2870.00,0.0149
2869.00,0.0148
2868.00,0.0147
2867.00,0.0146
2866.00,0.0145
2865.00,0.0144
2864.00,0.0143
2863.00,0.0142
2862.00,0.0141
2861.00,0.0140
2860.00,0.0139
2859.00,0.0138
2858.00,0.0136
2857.00,0.0135
2856.00,0.0133
2855.00,0.0131
2854.00,0.0129
2853.00,0.0127
2852.00,0.0125
2851.00,0.0123
2850.00,0.0121
2849.00,0.0118
2848.00,0.0116
2847.00,0.0113
2846.00,0.0110
2845.00,0.0107
2844.00,0.0105
2843.00,0.0102
2842.00,0.0099
2841.00,0.0096
2840.00,0.0094
2839.00,0.0092
2838.00,0.0090
2837.00,0.0088
2836.00,0.0087
2835.00,0.0085
2834.00,0.0084
2833.00,0.0082
2832.00,0.0081
2831.00,0.0079
2830.00,0.0077
2829.00,0.0076
2828.00,0.0074
2827.00,0.0072
2826.00,0.0071
2825.00,0.0069
2824.00,0.0068
2823.00,0.0067
2822.00,0.0066
2821.00,0.0065
2820.00,0.0064
2819.00,0.0063
2818.00,0.0062
2817.00,0.0061
2816.00,0.0060
2815.00,0.0059
2814.00,0.0058
2813.00,0.0057
2812.00,0.0056
2811.00,0.0055
2810.00,0.0055
2809.00,0.0054
2808.00,0.0054
2807.00,0.0053
2806.00,0.0052
2805.00,0.0052
2804.00,0.0052
2803.00,0.0051
2802.00,0.0051
2801.00,0.0051
2800.00,0.0050
2799.00,0.0050
2798.00,0.0050
2797.00,0.0050
2796.00,0.0049
2795.00,0.0049
2794.00,0.0049
2793.00,0.0048
2792.00,0.0048
2791.00,0.0047
2790.00,0.0047
2789.00,0.0047
2788.00,0.0047
2787.00,0.0047
2786.00,0.0046
2785.00,0.0046
2784.00,0.0046
2783.00,0.0046
2782.00,0.0046
2781.00,0.0045
2780.00,0.0045
2779.00,0.0045
2778.00,0.0045
2777.00,0.0045
2776.00,0.0044
2775.00,0.0044
2774.00,0.0044
2773.00,0.0044
2772.00,0.0044
2771.00,0.0044
2770.00,0.0044
2769.00,0.0043
2768.00,0.0043
2767.00,0.0043
2766.00,0.0042
2765.00,0.0042
2764.00,0.0042
2763.00,0.0042
2762.00,0.0042
2761.00,0.0042
2760.00,0.0042
2759.00,0.0042
2758.00,0.0042
2757.00,0.0042
2756.00,0.0042
2755.00,0.0042
2754.00,0.0042
2753.00,0.0042
2752.00,0.0042
2751.00,0.0042
2750.00,0.0042
2749.00,0.0042
2748.00,0.0042
2747.00,0.0042
2746.00,0.0042
2745.00,0.0042
2744.00,0.0042
2743.00,0.0042
2742.00,0.0042
2741.00,0.0042
2740.00,0.0042
2739.00,0.0043
2738.00,0.0043
2737.00,0.0043
2736.00,0.0043
2735.00,0.0042
2734.00,0.0042
2733.00,0.0042
2732.00,0.0042
2731.00,0.0042
2730.00,0.0042
2729.00,0.0042
2728.00,0.0042
2727.00,0.0042
2726.00,0.0041
2725.00,0.0041
2724.00,0.0041
2723.00,0.0041
2722.00,0.0041
2721.00,0.0041
2720.00,0.0041
2719.00,0.0041
2718.00,0.0041
2717.00,0.0040
2716.00,0.0040
2715.00,0.0040
2714.00,0.0040
2713.00,0.0040
2712.00,0.0040
2711.00,0.0040
2710.00,0.0040
2709.00,0.0040
2708.00,0.0040
2707.00,0.0040
2706.00,0.0039
2705.00,0.0039
2704.00,0.0039
2703.00,0.0039
2702.00,0.0039
2701.00,0.0039
2700.00,0.0039
2699.00,0.0039
2698.00,0.0038
2697.00,0.0038
2696.00,0.0038
2695.00,0.0038
2694.00,0.0038
2693.00,0.0037
2692.00,0.0037
2691.00,0.0037
2690.00,0.0037
2689.00,0.0037
2688.00,0.0038
2687.00,0.0038
2686.00,0.0037
2685.00,0.0037
2684.00,0.0037
2683.00,0.0037
2682.00,0.0037
2681.00,0.0037
2680.00,0.0037
2679.00,0.0036
2678.00,0.0037
2677.00,0.0037
2676.00,0.0037
2675.00,0.0037
2674.00,0.0037
2673.00,0.0037
2672.00,0.0037
2671.00,0.0037
2670.00,0.0037
2669.00,0.0037
2668.00,0.0037
2667.00,0.0037
2666.00,0.0037
2665.00,0.0038
2664.00,0.0038
2663.00,0.0039
2662.00,0.0039
2661.00,0.0039
2660.00,0.0039
2659.00,0.0039
2658.00,0.0040
2657.00,0.0040
2656.00,0.0040
2655.00,0.0040
2654.00,0.0040
2653.00,0.0040
2652.00,0.0040
2651.00,0.0040
2650.00,0.0040
2649.00,0.0040
2648.00,0.0040
2647.00,0.0040
2646.00,0.0040
2645.00,0.0040
2644.00,0.0040
2643.00,0.0039
2642.00,0.0039
2641.00,0.0039
2640.00,0.0039
2639.00,0.0039
2638.00,0.0039
2637.00,0.0039
2636.00,0.0038
2635.00,0.0038
2634.00,0.0038
2633.00,0.0038
2632.00,0.0038
2631.00,0.0038
2630.00,0.0038
2629.00,0.0038
2628.00,0.0038
2627.00,0.0038
2626.00,0.0038
2625.00,0.0038
2624.00,0.0038
2623.00,0.0038
2622.00,0.0037
2621.00,0.0037
2620.00,0.0037
2619.00,0.0037
2618.00,0.0036
2617.00,0.0036
2616.00,0.0036
2615.00,0.0036
2614.00,0.0036
2613.00,0.0035
2612.00,0.0035
2611.00,0.0035
2610.00,0.0035
2609.00,0.0035
2608.00,0.0035
2607.00,0.0035
2606.00,0.0035
2605.00,0.0035
2604.00,0.0035
2603.00,0.0035
2602.00,0.0035
2601.00,0.0035
2600.00,0.0035
2599.00,0.0035
2598.00,0.0035
2597.00,0.0035
2596.00,0.0034
2595.00,0.0034
2594.00,0.0034
2593.00,0.0034
2592.00,0.0035
2591.00,0.0035
2590.00,0.0035
2589.00,0.0034
2588.00,0.0034
2587.00,0.0034
2586.00,0.0034
2585.00,0.0034
2584.00,0.0034
2583.00,0.0034
2582.00,0.0034
2581.00,0.0034
2580.00,0.0034
2579.00,0.0034
2578.00,0.0034
2577.00,0.0034
2576.00,0.0034
2575.00,0.0034
2574.00,0.0034
2573.00,0.0034
2572.00,0.0033
2571.00,0.0033
2570.00,0.0033
2569.00,0.0033
2568.00,0.0033
2567.00,0.0033
2566.00,0.0033
2565.00,0.0033
2564.00,0.0032
2563.00,0.0032
2562.00,0.0032
2561.00,0.0031
2560.00,0.0031
2559.00,0.0031
2558.00,0.0031
2557.00,0.0031
2556.00,0.0031
2555.00,0.0031
2554.00,0.0031
2553.00,0.0031
2552.00,0.0031
2551.00,0.0031
2550.00,0.0031
2549.00,0.0031
2548.00,0.0031
2547.00,0.0031
2546.00,0.0031
2545.00,0.0031
2544.00,0.0031
2543.00,0.0031
2542.00,0.0031
2541.00,0.0030
2540.00,0.0030
2539.00,0.0030
2538.00,0.0030
2537.00,0.0030
2536.00,0.0029
2535.00,0.0029
2534.00,0.0029
2533.00,0.0029
2532.00,0.0029
2531.00,0.0029
2530.00,0.0029
2529.00,0.0029
2528.00,0.0029
2527.00,0.0029
2526.00,0.0028
2525.00,0.0028
2524.00,0.0028
2523.00,0.0028
2522.00,0.0027
2521.00,0.0027
2520.00,0.0027
2519.00,0.0027
2518.00,0.0027
2517.00,0.0027
2516.00,0.0027
2515.00,0.0027
2514.00,0.0027
2513.00,0.0026
2512.00,0.0026
2511.00,0.0025
2510.00,0.0025
2509.00,0.0025
2508.00,0.0025
2507.00,0.0025
2506.00,0.0025
2505.00,0.0026
2504.00,0.0026
2503.00,0.0026
2502.00,0.0025
2501.00,0.0025
2500.00,0.0025
2499.00,0.0025
2498.00,0.0026
2497.00,0.0026
2496.00,0.0026
2495.00,0.0025
2494.00,0.0025
2493.00,0.0024
2492.00,0.0024
2491.00,0.0024
2490.00,0.0024
2489.00,0.0025
2488.00,0.0025
2487.00,0.0025
2486.00,0.0025
2485.00,0.0025
2484.00,0.0025
2483.00,0.0025
2482.00,0.0025
2481.00,0.0024
2480.00,0.0024
2479.00,0.0024
2478.00,0.0024
2477.00,0.0024
2476.00,0.0024
2475.00,0.0024
2474.00,0.0024
2473.00,0.0024
2472.00,0.0025
2471.00,0.0025
2470.00,0.0025
2469.00,0.0025
2468.00,0.0025
2467.00,0.0025
2466.00,0.0025
2465.00,0.0025
2464.00,0.0025
2463.00,0.0024
2462.00,0.0024
2461.00,0.0025
2460.00,0.0025
2459.00,0.0026
2458.00,0.0026
2457.00,0.0027
2456.00,0.0027
2455.00,0.0026
2454.00,0.0026
2453.00,0.0026
2452.00,0.0025
2451.00,0.0025
2450.00,0.0025
2449.00,0.0025
2448.00,0.0025
2447.00,0.0025
2446.00,0.0025
2445.00,0.0025
2444.00,0.0025
2443.00,0.0025
2442.00,0.0025
2441.00,0.0025
2440.00,0.0025
2439.00,0.0025
2438.00,0.0025
2437.00,0.0025
2436.00,0.0024
2435.00,0.0024
2434.00,0.0024
2433.00,0.0024
2432.00,0.0024
2431.00,0.0024
2430.00,0.0024
2429.00,0.0024
2428.00,0.0024
2427.00,0.0024
2426.00,0.0024
2425.00,0.0024
2424.00,0.0024
2423.00,0.0024
2422.00,0.0024
2421.00,0.0024
2420.00,0.0024
2419.00,0.0024
2418.00,0.0024
2417.00,0.0024
2416.00,0.0024
2415.00,0.0024
2414.00,0.0024
2413.00,0.0024
2412.00,0.0024
2411.00,0.0024
2410.00,0.0024
2409.00,0.0023
2408.00,0.0023
2407.00,0.0023
2406.00,0.0023
2405.00,0.0023
2404.00,0.0023
2403.00,0.0023
2402.00,0.0023
2401.00,0.0022
2400.00,0.0022
2399.00,0.0022
2398.00,0.0022
2397.00,0.0022
2396.00,0.0022
2395.00,0.0022
2394.00,0.0022
2393.00,0.0022
2392.00,0.0022
2391.00,0.0022
2390.00,0.0022
2389.00,0.0022
2388.00,0.0022
2387.00,0.0022
2386.00,0.0022
2385.00,0.0022
2384.00,0.0022
2383.00,0.0023
2382.00,0.0023
2381.00,0.0023
2380.00,0.0023
2379.00,0.0023
2378.00,0.0023
2377.00,0.0023
2376.00,0.0023
2375.00,0.0023
2374.00,0.0023
2373.00,0.0023
2372.00,0.0023
2371.00,0.0023
2370.00,0.0023
2369.00,0.0023
2368.00,0.0023
2367.00,0.0023
2366.00,0.0024
2365.00,0.0024
2364.00,0.0025
2363.00,0.0026
2362.00,0.0026
2361.00,0.0026
2360.00,0.0027
2359.00,0.0026
2358.00,0.0026
2357.00,0.0025
2356.00,0.0025
2355.00,0.0025
2354.00,0.0024
2353.00,0.0024
2352.00,0.0023
2351.00,0.0024
2350.00,0.0025
2349.00,0.0026
2348.00,0.0028
2347.00,0.0028
2346.00,0.0028
2345.00,0.0028
2344.00,0.0029
2343.00,0.0029
2342.00,0.0029
2341.00,0.0029
2340.00,0.0029
2339.00,0.0028
2338.00,0.0028
2337.00,0.0028
2336.00,0.0028
2335.00,0.0028
2334.00,0.0028
2333.00,0.0028
2332.00,0.0028
2331.00,0.0028
2330.00,0.0029
2329.00,0.0030
2328.00,0.0034
2327.00,0.0037
2326.00,0.0040
2325.00,0.0041
2324.00,0.0040
2323.00,0.0038
2322.00,0.0036
2321.00,0.0035
2320.00,0.0034
2319.00,0.0033
2318.00,0.0033
2317.00,0.0033
2316.00,0.0032
2315.00,0.0032
2314.00,0.0031
2313.00,0.0031
2312.00,0.0031
2311.00,0.0031
2310.00,0.0031
2309.00,0.0031
2308.00,0.0031
2307.00,0.0031
2306.00,0.0031
2305.00,0.0031
2304.00,0.0031
2303.00,0.0031
2302.00,0.0032
2301.00,0.0031
2300.00,0.0031
2299.00,0.0031
2298.00,0.0032
2297.00,0.0032
2296.00,0.0033
2295.00,0.0033
2294.00,0.0034
2293.00,0.0035
2292.00,0.0035
2291.00,0.0036
2290.00,0.0036
2289.00,0.0036
2288.00,0.0036
2287.00,0.0036
2286.00,0.0035
2285.00,0.0034
2284.00,0.0034
2283.00,0.0033
2282.00,0.0033
2281.00,0.0032
2280.00,0.0032
2279.00,0.0032
2278.00,0.0032
2277.00,0.0031
2276.00,0.0031
2275.00,0.0031
2274.00,0.0031
2273.00,0.0031
2272.00,0.0031
2271.00,0.0031
2270.00,0.0031
2269.00,0.0031
2268.00,0.0030
2267.00,0.0029
2266.00,0.0029
2265.00,0.0028
2264.00,0.0028
2263.00,0.0028
2262.00,0.0028
2261.00,0.0029
2260.00,0.0029
2259.00,0.0029
2258.00,0.0029
2257.00,0.0027
2256.00,0.0026
2255.00,0.0025
2254.00,0.0025
2253.00,0.0026
2252.00,0.0027
2251.00,0.0027
2250.00,0.0027
2249.00,0.0027
2248.00,0.0027
2247.00,0.0027
2246.00,0.0028
2245.00,0.0028
2244.00,0.0027
2243.00,0.0027
2242.00,0.0027
2241.00,0.0027
2240.00,0.0028
2239.00,0.0028
2238.00,0.0029
2237.00,0.0029
2236.00,0.0029
2235.00,0.0030
2234.00,0.0030
2233.00,0.0029
2232.00,0.0029
2231.00,0.0028
2230.00,0.0027
2229.00,0.0027
2228.00,0.0027
2227.00,0.0026
2226.00,0.0026
2225.00,0.0027
2224.00,0.0027
2223.00,0.0027
2222.00,0.0026
2221.00,0.0026
2220.00,0.0026
2219.00,0.0027
2218.00,0.0027
2217.00,0.0028
2216.00,0.0029
2215.00,0.0029
2214.00,0.0028
2213.00,0.0028
2212.00,0.0028
2211.00,0.0028
2210.00,0.0028
2209.00,0.0028
2208.00,0.0028
2207.00,0.0028
2206.00,0.0028
2205.00,0.0028
2204.00,0.0027
2203.00,0.0028
2202.00,0.0028
2201.00,0.0028
2200.00,0.0028
2199.00,0.0028
2198.00,0.0029
2197.00,0.0029
2196.00,0.0030
2195.00,0.0030
2194.00,0.0030
2193.00,0.0030
2192.00,0.0031
2191.00,0.0032
2190.00,0.0032
2189.00,0.0032
2188.00,0.0032
2187.00,0.0032
2186.00,0.0031
2185.00,0.0029
2184.00,0.0027
2183.00,0.0024
2182.00,0.0022
2181.00,0.0022
2180.00,0.0024
2179.00,0.0025
2178.00,0.0026
2177.00,0.0025
2176.00,0.0025
2175.00,0.0025
2174.00,0.0027
2173.00,0.0028
2172.00,0.0030
2171.00,0.0031
2170.00,0.0032
2169.00,0.0032
2168.00,0.0032
2167.00,0.0033
2166.00,0.0034
2165.00,0.0036
2164.00,0.0039
2163.00,0.0040
2162.00,0.0036
2161.00,0.0026
2160.00,0.0014
2159.00,0.0003
2158.00,-0.0003
2157.00,-0.0005
2156.00,-0.0003
2155.00,-0.0000
2154.00,0.0003
2153.00,0.0007
2152.00,0.0010
2151.00,0.0012
2150.00,0.0012
2149.00,0.0010
2148.00,0.0009
2147.00,0.0009
2146.00,0.0009
2145.00,0.0009
2144.00,0.0010
2143.00,0.0010
2142.00,0.0010
2141.00,0.0011
2140.00,0.0011
2139.00,0.0011
2138.00,0.0011
2137.00,0.0010
2136.00,0.0008
2135.00,0.0006
2134.00,0.0005
2133.00,0.0005
2132.00,0.0007
2131.00,0.0008
2130.00,0.0010
2129.00,0.0011
2128.00,0.0012
2127.00,0.0013
2126.00,0.0014
2125.00,0.0015
2124.00,0.0017
2123.00,0.0019
2122.00,0.0020
2121.00,0.0021
2120.00,0.0022
2119.00,0.0023
2118.00,0.0024
2117.00,0.0025
2116.00,0.0026
2115.00,0.0026
2114.00,0.0026
2113.00,0.0025
2112.00,0.0025
2111.00,0.0025
2110.00,0.0024
2109.00,0.0024
2108.00,0.0024
2107.00,0.0024
2106.00,0.0024
2105.00,0.0024
2104.00,0.0024
2103.00,0.0025
2102.00,0.0025
2101.00,0.0024
2100.00,0.0024
2099.00,0.0023
2098.00,0.0022
2097.00,0.0021
2096.00,0.0020
2095.00,0.0019
2094.00,0.0019
2093.00,0.0020
2092.00,0.0020
2091.00,0.0021
2090.00,0.0022
2089.00,0.0022
2088.00,0.0023
2087.00,0.0023
2086.00,0.0023
2085.00,0.0024
2084.00,0.0025
2083.00,0.0026
2082.00,0.0026
2081.00,0.0026
2080.00,0.0026
2079.00,0.0025
2078.00,0.0024
2077.00,0.0024
2076.00,0.0025
2075.00,0.0026
2074.00,0.0026
2073.00,0.0026
2072.00,0.0026
2071.00,0.0026
2070.00,0.0026
2069.00,0.0025
2068.00,0.0024
2067.00,0.0024
2066.00,0.0023
2065.00,0.0023
2064.00,0.0023
2063.00,0.0023
2062.00,0.0023
2061.00,0.0023
2060.00,0.0023
2059.00,0.0024
2058.00,0.0024
2057.00,0.0024
2056.00,0.0025
2055.00,0.0026
2054.00,0.0028
2053.00,0.0031
2052.00,0.0034
2051.00,0.0035
2050.00,0.0033
2049.00,0.0030
2048.00,0.0028
2047.00,0.0026
2046.00,0.0026
2045.00,0.0025
2044.00,0.0025
2043.00,0.0025
2042.00,0.0024
2041.00,0.0023
2040.00,0.0024
2039.00,0.0024
2038.00,0.0023
2037.00,0.0022
2036.00,0.0022
2035.00,0.0022
2034.00,0.0020
2033.00,0.0017
2032.00,0.0016
2031.00,0.0016
2030.00,0.0016
2029.00,0.0018
2028.00,0.0020
2027.00,0.0020
2026.00,0.0019
2025.00,0.0018
2024.00,0.0018
2023.00,0.0018
2022.00,0.0017
2021.00,0.0016
2020.00,0.0015
2019.00,0.0015
2018.00,0.0015
2017.00,0.0015
2016.00,0.0016
2015.00,0.0017
2014.00,0.0017
2013.00,0.0017
2012.00,0.0018
2011.00,0.0017
2010.00,0.0016
2009.00,0.0013
2008.00,0.0010
2007.00,0.0007
2006.00,0.0006
2005.00,0.0006
2004.00,0.0009
2003.00,0.0010
2002.00,0.0011
2001.00,0.0013
2000.00,0.0015
1999.00,0.0017
1998.00,0.0018
1997.00,0.0018
1996.00,0.0018
1995.00,0.0019
1994.00,0.0019
1993.00,0.0020
1992.00,0.0021
1991.00,0.0021
1990.00,0.0020
1989.00,0.0020
1988.00,0.0020
1987.00,0.0021
1986.00,0.0023
1985.00,0.0025
1984.00,0.0028
1983.00,0.0032
1982.00,0.0034
1981.00,0.0034
1980.00,0.0031
1979.00,0.0026
1978.00,0.0019
1977.00,0.0014
1976.00,0.0012
1975.00,0.0012
1974.00,0.0012
1973.00,0.0012
1972.00,0.0013
1971.00,0.0014
1970.00,0.0013
1969.00,0.0012
1968.00,0.0013
1967.00,0.0013
1966.00,0.0012
1965.00,0.0012
1964.00,0.0012
1963.00,0.0013
1962.00,0.0012
1961.00,0.0011
1960.00,0.0010
1959.00,0.0009
1958.00,0.0008
1957.00,0.0009
1956.00,0.0010
1955.00,0.0012
1954.00,0.0012
1953.00,0.0012
1952.00,0.0012
1951.00,0.0013
1950.00,0.0013
1949.00,0.0014
1948.00,0.0016
1947.00,0.0016
1946.00,0.0015
1945.00,0.0015
1944.00,0.0015
1943.00,0.0015
1942.00,0.0015
1941.00,0.0015
1940.00,0.0015
1939.00,0.0014
1938.00,0.0014
1937.00,0.0014
1936.00,0.0014
1935.00,0.0014
1934.00,0.0014
1933.00,0.0014
1932.00,0.0015
1931.00,0.0016
1930.00,0.0015
1929.00,0.0015
1928.00,0.0015
1927.00,0.0015
1926.00,0.0015
1925.00,0.0014
1924.00,0.0015
1923.00,0.0015
1922.00,0.0016
1921.00,0.0017
1920.00,0.0017
1919.00,0.0018
1918.00,0.0017
1917.00,0.0017
1916.00,0.0016
1915.00,0.0016
1914.00,0.0016
1913.00,0.0016
1912.00,0.0017
1911.00,0.0017
1910.00,0.0017
1909.00,0.0018
1908.00,0.0018
1907.00,0.0018
1906.00,0.0017
1905.00,0.0017
1904.00,0.0017
1903.00,0.0018
1902.00,0.0018
1901.00,0.0018
1900.00,0.0018
1899.00,0.0019
1898.00,0.0018
1897.00,0.0018
1896.00,0.0018
1895.00,0.0018
1894.00,0.0017
1893.00,0.0017
1892.00,0.0017
1891.00,0.0017
1890.00,0.0017
1889.00,0.0018
1888.00,0.0018
1887.00,0.0018
1886.00,0.0018
1885.00,0.0017
1884.00,0.0018
1883.00,0.0018
1882.00,0.0017
1881.00,0.0017
1880.00,0.0017
1879.00,0.0017
1878.00,0.0017
1877.00,0.0017
1876.00,0.0018
1875.00,0.0019
1874.00,0.0019
1873.00,0.0019
1872.00,0.0019
1871.00,0.0019
1870.00,0.0019
1869.00,0.0019
1868.00,0.0019
1867.00,0.0019
1866.00,0.0019
1865.00,0.0019
1864.00,0.0019
1863.00,0.0019
1862.00,0.0019
1861.00,0.0019
1860.00,0.0019
1859.00,0.0019
1858.00,0.0019
1857.00,0.0019
1856.00,0.0019
1855.00,0.0019
1854.00,0.0020
1853.00,0.0020
1852.00,0.0020
1851.00,0.0020
1850.00,0.0020
1849.00,0.0020
1848.00,0.0020
1847.00,0.0020
1846.00,0.0019
1845.00,0.0019
1844.00,0.0019
1843.00,0.0018
1842.00,0.0018
1841.00,0.0018
1840.00,0.0019
1839.00,0.0020
1838.00,0.0020
1837.00,0.0019
1836.00,0.0020
1835.00,0.0020
1834.00,0.0020
1833.00,0.0020
1832.00,0.0020
1831.00,0.0020
1830.00,0.0020
1829.00,0.0020
1828.00,0.0020
1827.00,0.0020
1826.00,0.0021
1825.00,0.0021
1824.00,0.0021
1823.00,0.0021
1822.00,0.0020
1821.00,0.0020
1820.00,0.0019
1819.00,0.0019
1818.00,0.0018
1817.00,0.0017
1816.00,0.0018
1815.00,0.0018
1814.00,0.0019
1813.00,0.0019
1812.00,0.0020
1811.00,0.0020
1810.00,0.0021
1809.00,0.0021
1808.00,0.0021
1807.00,0.0021
1806.00,0.0021
1805.00,0.0021
1804.00,0.0021
1803.00,0.0021
1802.00,0.0021
1801.00,0.0021
1800.00,0.0022
1799.00,0.0022
1798.00,0.0022
1797.00,0.0023
1796.00,0.0023
1795.00,0.0023
1794.00,0.0022
1793.00,0.0022
1792.00,0.0022
1791.00,0.0023
1790.00,0.0022
1789.00,0.0022
1788.00,0.0022
1787.00,0.0023
1786.00,0.0023
1785.00,0.0023
1784.00,0.0023
1783.00,0.0023
1782.00,0.0023
1781.00,0.0024
1780.00,0.0024
1779.00,0.0024
1778.00,0.0024
1777.00,0.0023
1776.00,0.0023
1775.00,0.0023
1774.00,0.0023
1773.00,0.0024
1772.00,0.0024
1771.00,0.0025
1770.00,0.0024
1769.00,0.0024
1768.00,0.0025
1767.00,0.0025
1766.00,0.0025
1765.00,0.0025
1764.00,0.0025
1763.00,0.0026
1762.00,0.0026
1761.00,0.0026
1760.00,0.0026
1759.00,0.0026
1758.00,0.0026
1757.00,0.0026
1756.00,0.0026
1755.00,0.0025
1754.00,0.0024
1753.00,0.0024
1752.00,0.0025
1751.00,0.0025
1750.00,0.0025
1749.00,0.0025
1748.00,0.0026
1747.00,0.0026
1746.00,0.0026
1745.00,0.0026
1744.00,0.0026
1743.00,0.0026
1742.00,0.0026
1741.00,0.0026
1740.00,0.0026
1739.00,0.0027
1738.00,0.0027
1737.00,0.0027
1736.00,0.0028
1735.00,0.0029
1734.00,0.0030
1733.00,0.0030
1732.00,0.0031
1731.00,0.0033
1730.00,0.0034
1729.00,0.0035
1728.00,0.0036
1727.00,0.0038
1726.00,0.0039
1725.00,0.0040
1724.00,0.0042
1723.00,0.0045
1722.00,0.0046
1721.00,0.0047
1720.00,0.0049
1719.00,0.0052
1718.00,0.0055
1717.00,0.0059
1716.00,0.0062
1715.00,0.0066
1714.00,0.0069
1713.00,0.0073
1712.00,0.0078
1711.00,0.0084
1710.00,0.0090
1709.00,0.0096
1708.00,0.0104
1707.00,0.0114
1706.00,0.0125
1705.00,0.0137
1704.00,0.0150
1703.00,0.0162
1702.00,0.0174
1701.00,0.0193
1700.00,0.0218
1699.00,0.0243
1698.00,0.0264
1697.00,0.0288
1696.00,0.0317
1695.00,0.0348
1694.00,0.0375
1693.00,0.0401
1692.00,0.0427
1691.00,0.0456
1690.00,0.0485
1689.00,0.0515
1688.00,0.0543
1687.00,0.0570
1686.00,0.0595
1685.00,0.0621
1684.00,0.0649
1683.00,0.0676
1682.00,0.0700
1681.00,0.0722
1680.00,0.0745
1679.00,0.0766
1678.00,0.0785
1677.00,0.0801
1676.00,0.0815
1675.00,0.0827
1674.00,0.0839
1673.00,0.0853
1672.00,0.0866
1671.00,0.0876
1670.00,0.0881
1669.00,0.0885
1668.00,0.0892
1667.00,0.0901
1666.00,0.0911
1665.00,0.0921
1664.00,0.0929
1663.00,0.0934
1662.00,0.0938
1661.00,0.0945
1660.00,0.0953
1659.00,0.0961
1658.00,0.0969
1657.00,0.0977
1656.00,0.0986
1655.00,0.0990
1654.00,0.0981
1653.00,0.0962
1652.00,0.0948
1651.00,0.0946
1650.00,0.0947
1649.00,0.0944
1648.00,0.0930
1647.00,0.0906
1646.00,0.0877
1645.00,0.0851
1644.00,0.0831
1643.00,0.0811
1642.00,0.0788
1641.00,0.0763
1640.00,0.0738
1639.00,0.0714
1638.00,0.0689
1637.00,0.0660
1636.00,0.0624
1635.00,0.0588
1634.00,0.0560
1633.00,0.0540
1632.00,0.0523
1631.00,0.0506
1630.00,0.0488
1629.00,0.0471
1628.00,0.0455
1627.00,0.0442
1626.00,0.0433
1625.00,0.0426
1624.00,0.0422
1623.00,0.0419
1622.00,0.0418
1621.00,0.0419
1620.00,0.0420
1619.00,0.0418
1618.00,0.0413
1617.00,0.0403
1616.00,0.0391
1615.00,0.0380
1614.00,0.0371
1613.00,0.0363
1612.00,0.0355
1611.00,0.0346
1610.00,0.0338
1609.00,0.0328
1608.00,0.0317
1607.00,0.0305
1606.00,0.0291
1605.00,0.0277
1604.00,0.0263
1603.00,0.0249
1602.00,0.0236
1601.00,0.0224
1600.00,0.0213
1599.00,0.0204
1598.00,0.0197
1597.00,0.0191
1596.00,0.0187
1595.00,0.0185
1594.00,0.0186
1593.00,0.0188
1592.00,0.0193
1591.00,0.0199
1590.00,0.0208
1589.00,0.0217
1588.00,0.0226
1587.00,0.0233
1586.00,0.0237
1585.00,0.0239
1584.00,0.0236
1583.00,0.0231
1582.00,0.0223
1581.00,0.0215
1580.00,0.0206
1579.00,0.0197
1578.00,0.0189
1577.00,0.0180
1576.00,0.0171
1575.00,0.0163
1574.00,0.0157
1573.00,0.0154
1572.00,0.0150
1571.00,0.0146
1570.00,0.0142
1569.00,0.0137
1568.00,0.0134
1567.00,0.0130
1566.00,0.0128
1565.00,0.0125
1564.00,0.0123
1563.00,0.0121
1562.00,0.0119
1561.00,0.0116
1560.00,0.0112
1559.00,0.0109
1558.00,0.0107
1557.00,0.0104
1556.00,0.0104
1555.00,0.0103
1554.00,0.0103
1553.00,0.0102
1552.00,0.0101
1551.00,0.0100
1550.00,0.0100
1549.00,0.0099
1548.00,0.0098
1547.00,0.0097
1546.00,0.0096
1545.00,0.0096
1544.00,0.0095
1543.00,0.0094
1542.00,0.0093
1541.00,0.0092
1540.00,0.0092
1539.00,0.0092
1538.00,0.0091
1537.00,0.0091
1536.00,0.0091
1535.00,0.0091
1534.00,0.0090
1533.00,0.0090
1532.00,0.0090
1531.00,0.0090
1530.00,0.0090
1529.00,0.0091
1528.00,0.0091
1527.00,0.0092
1526.00,0.0093
1525.00,0.0093
1524.00,0.0093
1523.00,0.0095
1522.00,0.0096
1521.00,0.0098
1520.00,0.0099
1519.00,0.0100
1518.00,0.0102
1517.00,0.0104
1516.00,0.0106
1515.00,0.0107
1514.00,0.0109
1513.00,0.0110
1512.00,0.0112
1511.00,0.0114
1510.00,0.0116
1509.00,0.0119
1508.00,0.0122
1507.00,0.0128
1506.00,0.0134
1505.00,0.0139
1504.00,0.0146
1503.00,0.0155
1502.00,0.0166
1501.00,0.0178
1500.00,0.0191
1499.00,0.0205
1498.00,0.0220
1497.00,0.0234
1496.00,0.0246
1495.00,0.0254
1494.00,0.0258
1493.00,0.0260
1492.00,0.0258
1491.00,0.0252
1490.00,0.0243
1489.00,0.0231
1488.00,0.0218
1487.00,0.0205
1486.00,0.0192
1485.00,0.0180
1484.00,0.0170
1483.00,0.0161
1482.00,0.0154
1481.00,0.0148
1480.00,0.0144
1479.00,0.0141
1478.00,0.0141
1477.00,0.0142
1476.00,0.0146
1475.00,0.0151
1474.00,0.0159
1473.00,0.0171
1472.00,0.0187
1471.00,0.0205
1470.00,0.0223
1469.00,0.0244
1468.00,0.0267
1467.00,0.0292
1466.00,0.0320
1465.00,0.0350
1464.00,0.0379
1463.00,0.0403
1462.00,0.0421
1461.00,0.0434
1460.00,0.0441
1459.00,0.0441
1458.00,0.0431
1457.00,0.0409
1456.00,0.0384
1455.00,0.0364
1454.00,0.0349
1453.00,0.0337
1452.00,0.0327
1451.00,0.0320
1450.00,0.0318
1449.00,0.0320
1448.00,0.0327
1447.00,0.0338
1446.00,0.0352
1445.00,0.0368
1444.00,0.0387
1443.00,0.0406
1442.00,0.0426
1441.00,0.0447
1440.00,0.0467
1439.00,0.0485
1438.00,0.0502
1437.00,0.0519
1436.00,0.0536
1435.00,0.0551
1434.00,0.0563
1433.00,0.0574
1432.00,0.0583
1431.00,0.0591
1430.00,0.0599
1429.00,0.0610
1428.00,0.0623
1427.00,0.0639
1426.00,0.0658
1425.00,0.0680
1424.00,0.0701
1423.00,0.0720
1422.00,0.0733
1421.00,0.0738
1420.00,0.0731
1419.00,0.0710
1418.00,0.0680
1417.00,0.0647
1416.00,0.0612
1415.00,0.0574
1414.00,0.0536
1413.00,0.0500
1412.00,0.0466
1411.00,0.0436
1410.00,0.0411
1409.00,0.0391
1408.00,0.0376
1407.00,0.0364
1406.00,0.0354
1405.00,0.0347
1404.00,0.0341
1403.00,0.0335
1402.00,0.0330
1401.00,0.0324
1400.00,0.0316
1399.00,0.0304
1398.00,0.0292
1397.00,0.0281
1396.00,0.0268
1395.00,0.0254
1394.00,0.0242
1393.00,0.0233
1392.00,0.0226
1391.00,0.0221
1390.00,0.0219
1389.00,0.0218
1388.00,0.0219
1387.00,0.0221
1386.00,0.0226
1385.00,0.0232
1384.00,0.0240
1383.00,0.0248
1382.00,0.0257
1381.00,0.0266
1380.00,0.0274
1379.00,0.0281
1378.00,0.0287
1377.00,0.0291
1376.00,0.0294
1375.00,0.0296
1374.00,0.0296
1373.00,0.0295
1372.00,0.0293
1371.00,0.0290
1370.00,0.0287
1369.00,0.0283
1368.00,0.0279
1367.00,0.0274
1366.00,0.0270
1365.00,0.0267
1364.00,0.0264
1363.00,0.0261
1362.00,0.0258
1361.00,0.0254
1360.00,0.0248
1359.00,0.0241
1358.00,0.0233
1357.00,0.0223
1356.00,0.0213
1355.00,0.0202
1354.00,0.0193
1353.00,0.0186
1352.00,0.0180
1351.00,0.0176
1350.00,0.0173
1349.00,0.0170
1348.00,0.0168
1347.00,0.0166
1346.00,0.0165
1345.00,0.0164
1344.00,0.0163
1343.00,0.0163
1342.00,0.0163
1341.00,0.0163
1340.00,0.0164
1339.00,0.0166
1338.00,0.0167
1337.00,0.0169
1336.00,0.0172
1335.00,0.0174
1334.00,0.0178
1333.00,0.0181
1332.00,0.0186
1331.00,0.0191
1330.00,0.0196
1329.00,0.0202
1328.00,0.0208
1327.00,0.0215
1326.00,0.0224
1325.00,0.0233
1324.00,0.0242
1323.00,0.0252
1322.00,0.0261
1321.00,0.0270
1320.00,0.0278
1319.00,0.0285
1318.00,0.0289
1317.00,0.0292
1316.00,0.0292
1315.00,0.0290
1314.00,0.0286
1313.00,0.0281
1312.00,0.0276
1311.00,0.0270
1310.00,0.0266
1309.00,0.0263
1308.00,0.0261
1307.00,0.0261
1306.00,0.0262
1305.00,0.0266
1304.00,0.0272
1303.00,0.0279
1302.00,0.0290
1301.00,0.0303
1300.00,0.0320
1299.00,0.0342
1298.00,0.0367
1297.00,0.0397
1296.00,0.0432
1295.00,0.0470
1294.00,0.0511
1293.00,0.0553
1292.00,0.0596
1291.00,0.0637
1290.00,0.0676
1289.00,0.0711
1288.00,0.0741
1287.00,0.0765
1286.00,0.0781
1285.00,0.0790
1284.00,0.0792
1283.00,0.0787
1282.00,0.0776
1281.00,0.0763
1280.00,0.0748
1279.00,0.0736
1278.00,0.0727
1277.00,0.0722
1276.00,0.0721
1275.00,0.0724
1274.00,0.0729
1273.00,0.0735
1272.00,0.0740
1271.00,0.0741
1270.00,0.0738
1269.00,0.0730
1268.00,0.0718
1267.00,0.0700
1266.00,0.0679
1265.00,0.0654
1264.00,0.0628
1263.00,0.0600
1262.00,0.0573
1261.00,0.0545
1260.00,0.0519
1259.00,0.0494
1258.00,0.0470
1257.00,0.0449
1256.00,0.0430
1255.00,0.0412
1254.00,0.0396
1253.00,0.0382
1252.00,0.0370
1251.00,0.0360
1250.00,0.0351
1249.00,0.0345
1248.00,0.0342
1247.00,0.0340
1246.00,0.0340
1245.00,0.0342
1244.00,0.0345
1243.00,0.0349
1242.00,0.0354
1241.00,0.0359
1240.00,0.0364
1239.00,0.0368
1238.00,0.0373
1237.00,0.0377
1236.00,0.0381
1235.00,0.0385
1234.00,0.0390
1233.00,0.0394
1232.00,0.0397
1231.00,0.0398
1230.00,0.0399
1229.00,0.0399
1228.00,0.0398
1227.00,0.0397
1226.00,0.0395
1225.00,0.0392
1224.00,0.0390
1223.00,0.0389
1222.00,0.0387
1221.00,0.0386
1220.00,0.0384
1219.00,0.0382
1218.00,0.0379
1217.00,0.0374
1216.00,0.0368
1215.00,0.0360
1214.00,0.0351
1213.00,0.0341
1212.00,0.0331
1211.00,0.0320
1210.00,0.0310
1209.00,0.0301
1208.00,0.0292
1207.00,0.0285
1206.00,0.0279
1205.00,0.0274
1204.00,0.0271
1203.00,0.0269
1202.00,0.0269
1201.00,0.0270
1200.00,0.0273
1199.00,0.0276
1198.00,0.0280
1197.00,0.0284
1196.00,0.0288
1195.00,0.0291
1194.00,0.0292
1193.00,0.0291
1192.00,0.0288
1191.00,0.0283
1190.00,0.0276
1189.00,0.0268
1188.00,0.0260
1187.00,0.0252
1186.00,0.0245
1185.00,0.0239
1184.00,0.0234
1183.00,0.0230
1182.00,0.0227
1181.00,0.0226
1180.00,0.0224
1179.00,0.0224
1178.00,0.0225
1177.00,0.0226
1176.00,0.0228
1175.00,0.0231
1174.00,0.0235
1173.00,0.0238
1172.00,0.0241
1171.00,0.0243
1170.00,0.0246
1169.00,0.0248
1168.00,0.0249
1167.00,0.0250
1166.00,0.0251
1165.00,0.0251
1164.00,0.0252
1163.00,0.0254
1162.00,0.0256
1161.00,0.0259
1160.00,0.0263
1159.00,0.0267
1158.00,0.0271
1157.00,0.0272
1156.00,0.0271
1155.00,0.0268
1154.00,0.0263
1153.00,0.0255
1152.00,0.0247
1151.00,0.0237
1150.00,0.0228
1149.00,0.0218
1148.00,0.0208
1147.00,0.0199
1146.00,0.0191
1145.00,0.0184
1144.00,0.0177
1143.00,0.0171
1142.00,0.0166
1141.00,0.0163
1140.00,0.0161
1139.00,0.0160
1138.00,0.0161
1137.00,0.0164
1136.00,0.0169
1135.00,0.0177
1134.00,0.0187
1133.00,0.0199
1132.00,0.0211
1131.00,0.0222
1130.00,0.0230
1129.00,0.0233
1128.00,0.0230
1127.00,0.0223
1126.00,0.0213
1125.00,0.0203
1124.00,0.0193
1123.00,0.0184
1122.00,0.0178
1121.00,0.0172
1120.00,0.0168
1119.00,0.0165
1118.00,0.0164
1117.00,0.0163
1116.00,0.0163
1115.00,0.0163
1114.00,0.0163
1113.00,0.0163
1112.00,0.0164
1111.00,0.0165
1110.00,0.0166
1109.00,0.0168
1108.00,0.0169
1107.00,0.0171
1106.00,0.0174
1105.00,0.0177
1104.00,0.0180
1103.00,0.0184
1102.00,0.0188
1101.00,0.0191
1100.00,0.0193
1099.00,0.0193
1098.00,0.0191
1097.00,0.0189
1096.00,0.0185
1095.00,0.0181
1094.00,0.0178
1093.00,0.0174
1092.00,0.0171
1091.00,0.0167
1090.00,0.0164
1089.00,0.0162
1088.00,0.0160
1087.00,0.0158
1086.00,0.0158
1085.00,0.0158
1084.00,0.0158
1083.00,0.0158
1082.00,0.0160
1081.00,0.0162
1080.00,0.0164
1079.00,0.0167
1078.00,0.0171
1077.00,0.0174
1076.00,0.0178
1075.00,0.0181
1074.00,0.0185
1073.00,0.0189
1072.00,0.0192
1071.00,0.0196
1070.00,0.0201
1069.00,0.0208
1068.00,0.0216
1067.00,0.0225
1066.00,0.0236
1065.00,0.0249
1064.00,0.0263
1063.00,0.0278
1062.00,0.0294
1061.00,0.0308
1060.00,0.0321
1059.00,0.0331
1058.00,0.0337
1057.00,0.0339
1056.00,0.0335
1055.00,0.0326
1054.00,0.0313
1053.00,0.0297
1052.00,0.0279
1051.00,0.0263
1050.00,0.0248
1049.00,0.0235
1048.00,0.0225
1047.00,0.0218
1046.00,0.0213
1045.00,0.0210
1044.00,0.0208
1043.00,0.0207
1042.00,0.0207
1041.00,0.0208
1040.00,0.0209
1039.00,0.0211
1038.00,0.0212
1037.00,0.0214
1036.00,0.0215
1035.00,0.0217
1034.00,0.0220
1033.00,0.0223
1032.00,0.0226
1031.00,0.0229
1030.00,0.0231
1029.00,0.0231
1028.00,0.0228
1027.00,0.0225
1026.00,0.0222
1025.00,0.0219
1024.00,0.0218
1023.00,0.0217
1022.00,0.0217
1021.00,0.0218
1020.00,0.0220
1019.00,0.0221
1018.00,0.0222
1017.00,0.0222
1016.00,0.0219
1015.00,0.0215
1014.00,0.0209
1013.00,0.0202
1012.00,0.0195
1011.00,0.0189
1010.00,0.0184
1009.00,0.0182
1008.00,0.0182
1007.00,0.0184
1006.00,0.0187
1005.00,0.0192
1004.00,0.0197
1003.00,0.0201
1002.00,0.0204
1001.00,0.0204
1000.00,0.0202
999.00,0.0198
998.00,0.0193
997.00,0.0188
996.00,0.0182
995.00,0.0177
994.00,0.0173
993.00,0.0169
992.00,0.0165
991.00,0.0161
990.00,0.0157
989.00,0.0154
988.00,0.0151
987.00,0.0148
986.00,0.0145
985.00,0.0143
984.00,0.0141
983.00,0.0139
982.00,0.0137
981.00,0.0136
980.00,0.0136
979.00,0.0135
978.00,0.0135
977.00,0.0134
976.00,0.0134
975.00,0.0133
974.00,0.0132
973.00,0.0131
972.00,0.0130
971.00,0.0128
970.00,0.0126
969.00,0.0125
968.00,0.0124
967.00,0.0123
966.00,0.0122
965.00,0.0121
964.00,0.0119
963.00,0.0118
962.00,0.0117
961.00,0.0116
960.00,0.0114
959.00,0.0113
958.00,0.0112
957.00,0.0111
956.00,0.0110
955.00,0.0109
954.00,0.0108
953.00,0.0108
952.00,0.0108
951.00,0.0108
950.00,0.0108
949.00,0.0108
948.00,0.0108
947.00,0.0109
946.00,0.0110
945.00,0.0111
944.00,0.0112
943.00,0.0115
942.00,0.0118
941.00,0.0121
940.00,0.0126
939.00,0.0132
938.00,0.0138
937.00,0.0146
936.00,0.0153
935.00,0.0159
934.00,0.0164
933.00,0.0166
932.00,0.0166
931.00,0.0164
930.00,0.0161
929.00,0.0159
928.00,0.0157
927.00,0.0155
926.00,0.0154
925.00,0.0153
924.00,0.0151
923.00,0.0149
922.00,0.0147
921.00,0.0144
920.00,0.0142
919.00,0.0139
918.00,0.0137
917.00,0.0135
916.00,0.0132
915.00,0.0130
914.00,0.0128
913.00,0.0127
912.00,0.0126
911.00,0.0126
910.00,0.0126
909.00,0.0127
908.00,0.0129
907.00,0.0131
906.00,0.0133
905.00,0.0136
904.00,0.0140
903.00,0.0145
902.00,0.0150
901.00,0.0155
900.00,0.0159
899.00,0.0163
898.00,0.0166
897.00,0.0168
896.00,0.0169
895.00,0.0168
894.00,0.0166
893.00,0.0163
892.00,0.0160
891.00,0.0157
890.00,0.0154
889.00,0.0151
888.00,0.0149
887.00,0.0147
886.00,0.0146
885.00,0.0145
884.00,0.0145
883.00,0.0146
882.00,0.0148
881.00,0.0150
880.00,0.0153
879.00,0.0156
878.00,0.0160
877.00,0.0164
876.00,0.0168
875.00,0.0173
874.00,0.0177
873.00,0.0181
872.00,0.0185
871.00,0.0188
870.00,0.0191
869.00,0.0193
868.00,0.0194
867.00,0.0195
866.00,0.0195
865.00,0.0197
864.00,0.0199
863.00,0.0201
862.00,0.0203
861.00,0.0205
860.00,0.0207
859.00,0.0210
858.00,0.0214
857.00,0.0218
856.00,0.0224
855.00,0.0230
854.00,0.0236
853.00,0.0243
852.00,0.0250
851.00,0.0256
850.00,0.0262
849.00,0.0268
848.00,0.0274
847.00,0.0278
846.00,0.0281
845.00,0.0283
844.00,0.0284
843.00,0.0283
842.00,0.0282
841.00,0.0281
840.00,0.0280
839.00,0.0278
838.00,0.0276
837.00,0.0274
836.00,0.0272
835.00,0.0270
834.00,0.0268
833.00,0.0266
832.00,0.0264
831.00,0.0261
830.00,0.0259
829.00,0.0257
828.00,0.0254
827.00,0.0252
826.00,0.0249
825.00,0.0246
824.00,0.0243
823.00,0.0241
822.00,0.0240
821.00,0.0239
820.00,0.0238
819.00,0.0238
818.00,0.0237
817.00,0.0237
816.00,0.0236
815.00,0.0235
814.00,0.0233
813.00,0.0231
812.00,0.0227
811.00,0.0222
810.00,0.0215
809.00,0.0207
808.00,0.0199
807.00,0.0190
806.00,0.0182
805.00,0.0174
804.00,0.0167
803.00,0.0162
802.00,0.0158
801.00,0.0155
800.00,0.0154
799.00,0.0153
798.00,0.0152
797.00,0.0152
796.00,0.0151
795.00,0.0151
794.00,0.0151
793.00,0.0152
792.00,0.0152
791.00,0.0153
790.00,0.0153
789.00,0.0153
788.00,0.0154
787.00,0.0154
786.00,0.0154
785.00,0.0155
784.00,0.0155
783.00,0.0156
782.00,0.0156
781.00,0.0158
780.00,0.0160
779.00,0.0163
778.00,0.0165
777.00,0.0166
776.00,0.0167
775.00,0.0167
774.00,0.0166
773.00,0.0165
772.00,0.0165
771.00,0.0166
770.00,0.0168
769.00,0.0170
768.00,0.0172
767.00,0.0174
766.00,0.0176
765.00,0.0179
764.00,0.0182
763.00,0.0186
762.00,0.0189
761.00,0.0193
760.00,0.0198
759.00,0.0202
758.00,0.0207
757.00,0.0211
756.00,0.0216
755.00,0.0220
754.00,0.0224
753.00,0.0228
752.00,0.0232
751.00,0.0236
750.00,0.0241
749.00,0.0245
748.00,0.0249
747.00,0.0254
746.00,0.0258
745.00,0.0264
744.00,0.0269
743.00,0.0276
742.00,0.0282
741.00,0.0289
740.00,0.0297
739.00,0.0304
738.00,0.0311
737.00,0.0316
736.00,0.0319
735.00,0.0319
734.00,0.0317
733.00,0.0313
732.00,0.0308
731.00,0.0302
730.00,0.0296
729.00,0.0289
728.00,0.0282
727.00,0.0275
726.00,0.0268
725.00,0.0262
724.00,0.0256
723.00,0.0250
722.00,0.0245
721.00,0.0241
720.00,0.0238
719.00,0.0235
718.00,0.0233
717.00,0.0232
716.00,0.0230
715.00,0.0230
714.00,0.0229
713.00,0.0229
712.00,0.0228
711.00,0.0227
710.00,0.0226
709.00,0.0226
708.00,0.0226
707.00,0.0226
706.00,0.0226
705.00,0.0227
704.00,0.0227
703.00,0.0228
702.00,0.0229
701.00,0.0230
700.00,0.0231
699.00,0.0233
698.00,0.0236
697.00,0.0241
696.00,0.0246
695.00,0.0251
694.00,0.0256
693.00,0.0261
692.00,0.0265
691.00,0.0268
690.00,0.0271
689.00,0.0274
688.00,0.0276
687.00,0.0279
686.00,0.0280
685.00,0.0281
684.00,0.0280
683.00,0.0281
682.00,0.0282
681.00,0.0284
680.00,0.0287
679.00,0.0290
678.00,0.0294
677.00,0.0297
676.00,0.0300
675.00,0.0303
674.00,0.0307
673.00,0.0311
672.00,0.0316
671.00,0.0320
670.00,0.0325
669.00,0.0330
668.00,0.0336
667.00,0.0343
666.00,0.0351
665.00,0.0359
664.00,0.0366
663.00,0.0374
662.00,0.0382
661.00,0.0390
660.00,0.0399
659.00,0.0408
658.00,0.0417
657.00,0.0427
656.00,0.0436
655.00,0.0445
654.00,0.0452
653.00,0.0460
652.00,0.0467
651.00,0.0473
650.00,0.0478
649.00,0.0482
648.00,0.0484
647.00,0.0485
646.00,0.0483
645.00,0.0480
644.00,0.0476
643.00,0.0471
642.00,0.0465
641.00,0.0459
640.00,0.0452
639.00,0.0445
638.00,0.0438
637.00,0.0432
636.00,0.0425
635.00,0.0419
634.00,0.0413
633.00,0.0408
632.00,0.0403
631.00,0.0399
630.00,0.0395
629.00,0.0393
628.00,0.0391
627.00,0.0388
626.00,0.0386
625.00,0.0384
624.00,0.0382
623.00,0.0379
622.00,0.0377
621.00,0.0376
620.00,0.0375
619.00,0.0374
618.00,0.0374
617.00,0.0373
616.00,0.0372
615.00,0.0371
614.00,0.0370
613.00,0.0370
612.00,0.0371
611.00,0.0372
610.00,0.0373
609.00,0.0375
608.00,0.0376
607.00,0.0377
606.00,0.0379
605.00,0.0381
604.00,0.0383
603.00,0.0385
602.00,0.0387
601.00,0.0389
600.00,0.0390
599.00,0.0392
598.00,0.0393
597.00,0.0394
596.00,0.0395
595.00,0.0396
594.00,0.0398
593.00,0.0399
592.00,0.0401
591.00,0.0405
590.00,0.0410
589.00,0.0417
588.00,0.0426
587.00,0.0436
586.00,0.0447
585.00,0.0460
584.00,0.0472
583.00,0.0483
582.00,0.0492
581.00,0.0499
580.00,0.0506
579.00,0.0511
578.00,0.0517
577.00,0.0522
576.00,0.0526
575.00,0.0529
574.00,0.0531
573.00,0.0533
572.00,0.0534
571.00,0.0535
570.00,0.0535
569.00,0.0534
568.00,0.0532
567.00,0.0529
566.00,0.0525
565.00,0.0520
564.00,0.0515
563.00,0.0509
562.00,0.0503
561.00,0.0498
560.00,0.0493
559.00,0.0488
558.00,0.0484
557.00,0.0480
556.00,0.0477
555.00,0.0474
554.00,0.0471
553.00,0.0467
552.00,0.0464
551.00,0.0460
550.00,0.0456
549.00,0.0453
548.00,0.0450
547.00,0.0446
546.00,0.0442
545.00,0.0438
544.00,0.0434
543.00,0.0432
542.00,0.0430
541.00,0.0429
540.00,0.0427
539.00,0.0427
538.00,0.0427
537.00,0.0429
536.00,0.0431
535.00,0.0434
534.00,0.0435
533.00,0.0437
532.00,0.0440
531.00,0.0441
530.00,0.0442
529.00,0.0441
528.00,0.0439
527.00,0.0437
526.00,0.0434
525.00,0.0432
524.00,0.0429
523.00,0.0428
522.00,0.0427
521.00,0.0427
520.00,0.0427
519.00,0.0425
518.00,0.0423
517.00,0.0420
516.00,0.0418
515.00,0.0416
514.00,0.0415
513.00,0.0415
512.00,0.0416
511.00,0.0417
510.00,0.0419
509.00,0.0421
508.00,0.0422
507.00,0.0421
506.00,0.0420
505.00,0.0420
504.00,0.0421
503.00,0.0421
502.00,0.0421
501.00,0.0420
500.00,0.0418
499.00,0.0417
498.00,0.0415
497.00,0.0415
496.00,0.0415
495.00,0.0417
494.00,0.0420
493.00,0.0423
492.00,0.0424
491.00,0.0425
490.00,0.0426
489.00,0.0427
488.00,0.0428
487.00,0.0430
486.00,0.0432
485.00,0.0435
484.00,0.0437
483.00,0.0438
482.00,0.0437
481.00,0.0435
480.00,0.0434
479.00,0.0432
478.00,0.0431
477.00,0.0428
476.00,0.0427
475.00,0.0426
474.00,0.0426
473.00,0.0428
472.00,0.0431
471.00,0.0432
470.00,0.0432
469.00,0.0431
468.00,0.0431
467.00,0.0432
466.00,0.0435
465.00,0.0438
464.00,0.0440
463.00,0.0441
462.00,0.0441
461.00,0.0441
460.00,0.0441
459.00,0.0439
458.00,0.0436
457.00,0.0432
456.00,0.0429
455.00,0.0426
454.00,0.0424
453.00,0.0422
452.00,0.0422
451.00,0.0422
450.00,0.0423
449.00,0.0422
448.00,0.0419
447.00,0.0417
446.00,0.0415
445.00,0.0415
444.00,0.0417
443.00,0.0419
442.00,0.0420
441.00,0.0419
440.00,0.0416
439.00,0.0412
438.00,0.0409
437.00,0.0407
436.00,0.0406
435.00,0.0404
434.00,0.0401
433.00,0.0400
432.00,0.0399
431.00,0.0399
430.00,0.0401
429.00,0.0402
428.00,0.0403
427.00,0.0400
426.00,0.0394
425.00,0.0388
424.00,0.0383
423.00,0.0378
422.00,0.0375
421.00,0.0377
420.00,0.0386
419.00,0.0397
418.00,0.0402
417.00,0.0401
416.00,0.0399
415.00,0.0397
414.00,0.0396
413.00,0.0396
412.00,0.0396
411.00,0.0397
410.00,0.0400
409.00,0.0403
408.00,0.0406
407.00,0.0402
406.00,0.0392
405.00,0.0382
404.00,0.0377
403.00,0.0375
402.00,0.0375
401.00,0.0374
400.00,0.0371
