Created as New Dataset,Sample 916 By YargerLab Date Thursday, July 24 2025
cm-1,A
4000.00,0.0048
3999.00,0.0048
3998.00,0.0048
3997.00,0.0048
3996.00,0.0048
3995.00,0.0048
3994.00,0.0048
3993.00,0.0048
3992.00,0.0048
3991.00,0.0048
3990.00,0.0048
3989.00,0.0048
3988.00,0.0048
3987.00,0.0048
3986.00,0.0048
3985.00,0.0048
3984.00,0.0048
3983.00,0.0048
3982.00,0.0048
3981.00,0.0048
3980.00,0.0048
3979.00,0.0048
3978.00,0.0048
3977.00,0.0047
3976.00,0.0048
3975.00,0.0048
3974.00,0.0048
3973.00,0.0048
3972.00,0.0048
3971.00,0.0048
3970.00,0.0048
3969.00,0.0048
3968.00,0.0048
3967.00,0.0048
3966.00,0.0048
3965.00,0.0048
3964.00,0.0048
3963.00,0.0048
3962.00,0.0048
3961.00,0.0048
3960.00,0.0048
3959.00,0.0048
3958.00,0.0048
3957.00,0.0048
3956.00,0.0048
3955.00,0.0048
3954.00,0.0048
3953.00,0.0048
3952.00,0.0048
3951.00,0.0048
3950.00,0.0048
3949.00,0.0048
3948.00,0.0047
3947.00,0.0047
3946.00,0.0047
3945.00,0.0048
3944.00,0.0048
3943.00,0.0048
3942.00,0.0048
3941.00,0.0048
3940.00,0.0048
3939.00,0.0048
3938.00,0.0048
3937.00,0.0048
3936.00,0.0048
3935.00,0.0047
3934.00,0.0047
3933.00,0.0047
3932.00,0.0047
3931.00,0.0047
3930.00,0.0047
3929.00,0.0047
3928.00,0.0047
3927.00,0.0047
3926.00,0.0047
3925.00,0.0047
3924.00,0.0047
3923.00,0.0047
3922.00,0.0047
3921.00,0.0046
3920.00,0.0046
3919.00,0.0046
3918.00,0.0046
3917.00,0.0046
3916.00,0.0046
3915.00,0.0047
3914.00,0.0047
3913.00,0.0047
3912.00,0.0047
3911.00,0.0047
3910.00,0.0047
3909.00,0.0047
3908.00,0.0047
3907.00,0.0047
3906.00,0.0047
3905.00,0.0047
3904.00,0.0046
3903.00,0.0045
3902.00,0.0045
3901.00,0.0045
3900.00,0.0045
3899.00,0.0045
3898.00,0.0046
3897.00,0.0046
3896.00,0.0047
3895.00,0.0047
3894.00,0.0047
3893.00,0.0047
3892.00,0.0047
3891.00,0.0047
3890.00,0.0046
3889.00,0.0046
3888.00,0.0046
3887.00,0.0045
3886.00,0.0046
3885.00,0.0046
3884.00,0.0046
3883.00,0.0046
3882.00,0.0046
3881.00,0.0046
3880.00,0.0046
3879.00,0.0046
3878.00,0.0046
3877.00,0.0045
3876.00,0.0045
3875.00,0.0045
3874.00,0.0046
3873.00,0.0046
3872.00,0.0046
3871.00,0.0046
3870.00,0.0046
3869.00,0.0045
3868.00,0.0045
3867.00,0.0045
3866.00,0.0045
3865.00,0.0045
3864.00,0.0045
3863.00,0.0045
3862.00,0.0045
3861.00,0.0045
3860.00,0.0045
3859.00,0.0045
3858.00,0.0046
3857.00,0.0047
3856.00,0.0047
3855.00,0.0047
3854.00,0.0047
3853.00,0.0046
3852.00,0.0045
3851.00,0.0045
3850.00,0.0044
3849.00,0.0045
3848.00,0.0045
3847.00,0.0045
3846.00,0.0045
3845.00,0.0045
3844.00,0.0045
3843.00,0.0045
3842.00,0.0045
3841.00,0.0044
3840.00,0.0044
3839.00,0.0044
3838.00,0.0044
3837.00,0.0044
3836.00,0.0044
3835.00,0.0044
3834.00,0.0045
3833.00,0.0045
3832.00,0.0045
3831.00,0.0045
3830.00,0.0045
3829.00,0.0045
3828.00,0.0045
3827.00,0.0045
3826.00,0.0046
3825.00,0.0045
3824.00,0.0045
3823.00,0.0045
3822.00,0.0045
3821.00,0.0045
3820.00,0.0045
3819.00,0.0045
3818.00,0.0045
3817.00,0.0045
3816.00,0.0045
3815.00,0.0045
3814.00,0.0045
3813.00,0.0045
3812.00,0.0045
3811.00,0.0045
3810.00,0.0045
3809.00,0.0045
3808.00,0.0045
3807.00,0.0045
3806.00,0.0045
3805.00,0.0045
3804.00,0.0044
3803.00,0.0044
3802.00,0.0045
3801.00,0.0045
3800.00,0.0045
3799.00,0.0045
3798.00,0.0044
3797.00,0.0044
3796.00,0.0045
3795.00,0.0045
3794.00,0.0046
3793.00,0.0046
3792.00,0.0046
3791.00,0.0047
3790.00,0.0047
3789.00,0.0047
3788.00,0.0046
3787.00,0.0046
3786.00,0.0046
3785.00,0.0045
3784.00,0.0045
3783.00,0.0045
3782.00,0.0045
3781.00,0.0045
3780.00,0.0046
3779.00,0.0046
3778.00,0.0046
3777.00,0.0046
3776.00,0.0046
3775.00,0.0046
3774.00,0.0046
3773.00,0.0046
3772.00,0.0046
3771.00,0.0046
3770.00,0.0046
3769.00,0.0046
3768.00,0.0046
3767.00,0.0046
3766.00,0.0045
3765.00,0.0045
3764.00,0.0045
3763.00,0.0045
3762.00,0.0045
3761.00,0.0045
3760.00,0.0044
3759.00,0.0045
3758.00,0.0045
3757.00,0.0044
3756.00,0.0044
3755.00,0.0044
3754.00,0.0044
3753.00,0.0043
3752.00,0.0043
3751.00,0.0043
3750.00,0.0043
3749.00,0.0043
3748.00,0.0042
3747.00,0.0042
3746.00,0.0042
3745.00,0.0042
3744.00,0.0042
3743.00,0.0043
3742.00,0.0042
3741.00,0.0042
3740.00,0.0041
3739.00,0.0041
3738.00,0.0041
3737.00,0.0040
3736.00,0.0040
3735.00,0.0041
3734.00,0.0041
3733.00,0.0041
3732.00,0.0041
3731.00,0.0042
3730.00,0.0042
3729.00,0.0043
3728.00,0.0043
3727.00,0.0043
3726.00,0.0043
3725.00,0.0043
3724.00,0.0043
3723.00,0.0043
3722.00,0.0043
3721.00,0.0043
3720.00,0.0043
3719.00,0.0044
3718.00,0.0044
3717.00,0.0044
3716.00,0.0044
3715.00,0.0044
3714.00,0.0044
3713.00,0.0043
3712.00,0.0043
3711.00,0.0043
3710.00,0.0043
3709.00,0.0043
3708.00,0.0043
3707.00,0.0043
3706.00,0.0043
3705.00,0.0044
3704.00,0.0044
3703.00,0.0044
3702.00,0.0044
3701.00,0.0045
3700.00,0.0045
3699.00,0.0045
3698.00,0.0045
3697.00,0.0045
3696.00,0.0045
3695.00,0.0045
3694.00,0.0044
3693.00,0.0044
3692.00,0.0044
3691.00,0.0044
3690.00,0.0044
3689.00,0.0043
3688.00,0.0043
3687.00,0.0043
3686.00,0.0043
3685.00,0.0044
3684.00,0.0044
3683.00,0.0044
3682.00,0.0044
3681.00,0.0044
3680.00,0.0043
3679.00,0.0043
3678.00,0.0043
3677.00,0.0043
3676.00,0.0043
3675.00,0.0043
3674.00,0.0043
3673.00,0.0043
3672.00,0.0043
3671.00,0.0043
3670.00,0.0044
3669.00,0.0044
3668.00,0.0045
3667.00,0.0045
3666.00,0.0046
3665.00,0.0046
3664.00,0.0047
3663.00,0.0047
3662.00,0.0047
3661.00,0.0048
3660.00,0.0048
3659.00,0.0047
3658.00,0.0047
3657.00,0.0047
3656.00,0.0047
3655.00,0.0047
3654.00,0.0047
3653.00,0.0046
3652.00,0.0046
3651.00,0.0046
3650.00,0.0046
3649.00,0.0046
3648.00,0.0046
3647.00,0.0047
3646.00,0.0047
3645.00,0.0048
3644.00,0.0050
3643.00,0.0051
3642.00,0.0051
3641.00,0.0052
3640.00,0.0053
3639.00,0.0053
3638.00,0.0053
3637.00,0.0053
3636.00,0.0053
3635.00,0.0053
3634.00,0.0053
3633.00,0.0053
3632.00,0.0054
3631.00,0.0054
3630.00,0.0054
3629.00,0.0054
3628.00,0.0054
3627.00,0.0055
3626.00,0.0055
3625.00,0.0055
3624.00,0.0056
3623.00,0.0056
3622.00,0.0057
3621.00,0.0057
3620.00,0.0058
3619.00,0.0058
3618.00,0.0059
3617.00,0.0059
3616.00,0.0060
3615.00,0.0060
3614.00,0.0060
3613.00,0.0061
3612.00,0.0061
3611.00,0.0061
3610.00,0.0061
3609.00,0.0062
3608.00,0.0063
3607.00,0.0064
3606.00,0.0064
3605.00,0.0064
3604.00,0.0065
3603.00,0.0065
3602.00,0.0066
3601.00,0.0066
3600.00,0.0067
3599.00,0.0067
3598.00,0.0067
3597.00,0.0068
3596.00,0.0069
3595.00,0.0069
3594.00,0.0070
3593.00,0.0070
3592.00,0.0070
3591.00,0.0071
3590.00,0.0071
3589.00,0.0071
3588.00,0.0071
3587.00,0.0072
3586.00,0.0072
3585.00,0.0073
3584.00,0.0073
3583.00,0.0074
3582.00,0.0075
3581.00,0.0076
3580.00,0.0077
3579.00,0.0077
3578.00,0.0078
3577.00,0.0078
3576.00,0.0079
3575.00,0.0079
3574.00,0.0080
3573.00,0.0080
3572.00,0.0081
3571.00,0.0081
3570.00,0.0081
3569.00,0.0081
3568.00,0.0081
3567.00,0.0082
3566.00,0.0082
3565.00,0.0083
3564.00,0.0083
3563.00,0.0084
3562.00,0.0085
3561.00,0.0086
3560.00,0.0087
3559.00,0.0088
3558.00,0.0088
3557.00,0.0089
3556.00,0.0089
3555.00,0.0090
3554.00,0.0091
3553.00,0.0091
3552.00,0.0092
3551.00,0.0092
3550.00,0.0092
3549.00,0.0093
3548.00,0.0093
3547.00,0.0094
3546.00,0.0095
3545.00,0.0095
3544.00,0.0096
3543.00,0.0097
3542.00,0.0098
3541.00,0.0098
3540.00,0.0099
3539.00,0.0099
3538.00,0.0099
3537.00,0.0100
3536.00,0.0101
3535.00,0.0102
3534.00,0.0102
3533.00,0.0103
3532.00,0.0103
3531.00,0.0104
3530.00,0.0104
3529.00,0.0105
3528.00,0.0105
3527.00,0.0106
3526.00,0.0106
3525.00,0.0107
3524.00,0.0108
3523.00,0.0109
3522.00,0.0109
3521.00,0.0110
3520.00,0.0111
3519.00,0.0111
3518.00,0.0112
3517.00,0.0113
3516.00,0.0114
3515.00,0.0115
3514.00,0.0115
3513.00,0.0115
3512.00,0.0116
3511.00,0.0117
3510.00,0.0118
3509.00,0.0119
3508.00,0.0119
3507.00,0.0120
3506.00,0.0121
3505.00,0.0122
3504.00,0.0123
3503.00,0.0124
3502.00,0.0124
3501.00,0.0125
3500.00,0.0125
3499.00,0.0126
3498.00,0.0127
3497.00,0.0128
3496.00,0.0129
3495.00,0.0130
3494.00,0.0131
3493.00,0.0132
3492.00,0.0132
3491.00,0.0133
3490.00,0.0134
3489.00,0.0135
3488.00,0.0135
3487.00,0.0136
3486.00,0.0137
3485.00,0.0138
3484.00,0.0139
3483.00,0.0140
3482.00,0.0140
3481.00,0.0141
3480.00,0.0142
3479.00,0.0143
3478.00,0.0143
3477.00,0.0144
3476.00,0.0145
3475.00,0.0145
3474.00,0.0146
3473.00,0.0147
3472.00,0.0147
3471.00,0.0148
3470.00,0.0149
3469.00,0.0150
3468.00,0.0151
3467.00,0.0152
3466.00,0.0152
3465.00,0.0153
3464.00,0.0153
3463.00,0.0154
3462.00,0.0155
3461.00,0.0155
3460.00,0.0156
3459.00,0.0157
3458.00,0.0157
3457.00,0.0158
3456.00,0.0158
3455.00,0.0159
3454.00,0.0160
3453.00,0.0161
3452.00,0.0161
3451.00,0.0162
3450.00,0.0163
3449.00,0.0163
3448.00,0.0164
3447.00,0.0165
3446.00,0.0166
3445.00,0.0166
3444.00,0.0167
3443.00,0.0168
3442.00,0.0169
3441.00,0.0169
3440.00,0.0170
3439.00,0.0171
3438.00,0.0172
3437.00,0.0173
3436.00,0.0173
3435.00,0.0174
3434.00,0.0174
3433.00,0.0174
3432.00,0.0175
3431.00,0.0175
3430.00,0.0176
3429.00,0.0177
3428.00,0.0178
3427.00,0.0179
3426.00,0.0180
3425.00,0.0181
3424.00,0.0181
3423.00,0.0182
3422.00,0.0182
3421.00,0.0183
3420.00,0.0184
3419.00,0.0185
3418.00,0.0186
3417.00,0.0186
3416.00,0.0187
3415.00,0.0188
3414.00,0.0188
3413.00,0.0189
3412.00,0.0189
3411.00,0.0190
3410.00,0.0190
3409.00,0.0191
3408.00,0.0192
3407.00,0.0193
3406.00,0.0194
3405.00,0.0195
3404.00,0.0196
3403.00,0.0196
3402.00,0.0197
3401.00,0.0198
3400.00,0.0198
3399.00,0.0199
3398.00,0.0200
3397.00,0.0200
3396.00,0.0201
3395.00,0.0202
3394.00,0.0203
3393.00,0.0203
3392.00,0.0204
3391.00,0.0205
3390.00,0.0206
3389.00,0.0207
3388.00,0.0208
3387.00,0.0209
3386.00,0.0210
3385.00,0.0211
3384.00,0.0212
3383.00,0.0213
3382.00,0.0214
3381.00,0.0214
3380.00,0.0215
3379.00,0.0216
3378.00,0.0217
3377.00,0.0218
3376.00,0.0219
3375.00,0.0220
3374.00,0.0221
3373.00,0.0222
3372.00,0.0223
3371.00,0.0224
3370.00,0.0225
3369.00,0.0226
3368.00,0.0227
3367.00,0.0228
3366.00,0.0229
3365.00,0.0230
3364.00,0.0231
3363.00,0.0233
3362.00,0.0234
3361.00,0.0235
3360.00,0.0236
3359.00,0.0238
3358.00,0.0239
3357.00,0.0240
3356.00,0.0241
3355.00,0.0242
3354.00,0.0244
3353.00,0.0245
3352.00,0.0246
3351.00,0.0247
3350.00,0.0248
3349.00,0.0249
3348.00,0.0250
3347.00,0.0251
3346.00,0.0252
3345.00,0.0253
3344.00,0.0254
3343.00,0.0255
3342.00,0.0256
3341.00,0.0257
3340.00,0.0258
3339.00,0.0259
3338.00,0.0260
3337.00,0.0262
3336.00,0.0263
3335.00,0.0265
3334.00,0.0266
3333.00,0.0267
3332.00,0.0268
3331.00,0.0270
3330.00,0.0271
3329.00,0.0272
3328.00,0.0273
3327.00,0.0274
3326.00,0.0275
3325.00,0.0276
3324.00,0.0277
3323.00,0.0278
3322.00,0.0280
3321.00,0.0281
3320.00,0.0282
3319.00,0.0284
3318.00,0.0285
3317.00,0.0286
3316.00,0.0287
3315.00,0.0289
3314.00,0.0290
3313.00,0.0291
3312.00,0.0292
3311.00,0.0293
3310.00,0.0294
3309.00,0.0295
3308.00,0.0297
3307.00,0.0298
3306.00,0.0299
3305.00,0.0300
3304.00,0.0302
3303.00,0.0303
3302.00,0.0305
3301.00,0.0307
3300.00,0.0308
3299.00,0.0309
3298.00,0.0310
3297.00,0.0311
3296.00,0.0312
3295.00,0.0313
3294.00,0.0314
3293.00,0.0315
3292.00,0.0317
3291.00,0.0318
3290.00,0.0319
3289.00,0.0320
3288.00,0.0321
3287.00,0.0322
3286.00,0.0323
3285.00,0.0324
3284.00,0.0325
3283.00,0.0326
3282.00,0.0326
3281.00,0.0327
3280.00,0.0327
3279.00,0.0327
3278.00,0.0327
3277.00,0.0327
3276.00,0.0327
3275.00,0.0326
3274.00,0.0326
3273.00,0.0325
3272.00,0.0325
3271.00,0.0324
3270.00,0.0324
3269.00,0.0324
3268.00,0.0323
3267.00,0.0323
3266.00,0.0322
3265.00,0.0321
3264.00,0.0320
3263.00,0.0319
3262.00,0.0318
3261.00,0.0317
3260.00,0.0316
3259.00,0.0315
3258.00,0.0314
3257.00,0.0312
3256.00,0.0311
3255.00,0.0310
3254.00,0.0308
3253.00,0.0307
3252.00,0.0306
3251.00,0.0305
3250.00,0.0304
3249.00,0.0302
3248.00,0.0301
3247.00,0.0299
3246.00,0.0298
3245.00,0.0297
3244.00,0.0297
3243.00,0.0296
3242.00,0.0295
3241.00,0.0294
3240.00,0.0293
3239.00,0.0292
3238.00,0.0290
3237.00,0.0289
3236.00,0.0287
3235.00,0.0286
3234.00,0.0285
3233.00,0.0284
3232.00,0.0283
3231.00,0.0283
3230.00,0.0282
3229.00,0.0282
3228.00,0.0281
3227.00,0.0280
3226.00,0.0280
3225.00,0.0279
3224.00,0.0278
3223.00,0.0278
3222.00,0.0277
3221.00,0.0277
3220.00,0.0276
3219.00,0.0275
3218.00,0.0275
3217.00,0.0274
3216.00,0.0274
3215.00,0.0273
3214.00,0.0273
3213.00,0.0272
3212.00,0.0272
3211.00,0.0271
3210.00,0.0270
3209.00,0.0270
3208.00,0.0269
3207.00,0.0268
3206.00,0.0267
3205.00,0.0267
3204.00,0.0266
3203.00,0.0265
3202.00,0.0265
3201.00,0.0264
3200.00,0.0264
3199.00,0.0263
3198.00,0.0263
3197.00,0.0262
3196.00,0.0261
3195.00,0.0260
3194.00,0.0259
3193.00,0.0258
3192.00,0.0258
3191.00,0.0257
3190.00,0.0256
3189.00,0.0255
3188.00,0.0254
3187.00,0.0253
3186.00,0.0252
3185.00,0.0252
3184.00,0.0251
3183.00,0.0251
3182.00,0.0250
3181.00,0.0249
3180.00,0.0248
3179.00,0.0247
3178.00,0.0246
3177.00,0.0245
3176.00,0.0244
3175.00,0.0243
3174.00,0.0242
3173.00,0.0241
3172.00,0.0240
3171.00,0.0239
3170.00,0.0239
3169.00,0.0238
3168.00,0.0237
3167.00,0.0236
3166.00,0.0235
3165.00,0.0234
3164.00,0.0233
3163.00,0.0232
3162.00,0.0232
3161.00,0.0231
3160.00,0.0230
3159.00,0.0229
3158.00,0.0228
3157.00,0.0227
3156.00,0.0226
3155.00,0.0225
3154.00,0.0224
3153.00,0.0224
3152.00,0.0223
3151.00,0.0223
3150.00,0.0222
3149.00,0.0221
3148.00,0.0220
3147.00,0.0220
3146.00,0.0219
3145.00,0.0218
3144.00,0.0217
3143.00,0.0217
3142.00,0.0216
3141.00,0.0215
3140.00,0.0214
3139.00,0.0214
3138.00,0.0213
3137.00,0.0213
3136.00,0.0212
3135.00,0.0212
3134.00,0.0211
3133.00,0.0211
3132.00,0.0210
3131.00,0.0210
3130.00,0.0209
3129.00,0.0209
3128.00,0.0208
3127.00,0.0208
3126.00,0.0207
3125.00,0.0207
3124.00,0.0206
3123.00,0.0206
3122.00,0.0205
3121.00,0.0204
3120.00,0.0204
3119.00,0.0204
3118.00,0.0203
3117.00,0.0203
3116.00,0.0203
3115.00,0.0203
3114.00,0.0203
3113.00,0.0203
3112.00,0.0203
3111.00,0.0203
3110.00,0.0203
3109.00,0.0203
3108.00,0.0203
3107.00,0.0203
3106.00,0.0203
3105.00,0.0203
3104.00,0.0203
3103.00,0.0203
3102.00,0.0202
3101.00,0.0202
3100.00,0.0202
3099.00,0.0203
3098.00,0.0203
3097.00,0.0203
3096.00,0.0203
3095.00,0.0203
3094.00,0.0203
3093.00,0.0204
3092.00,0.0204
3091.00,0.0204
3090.00,0.0204
3089.00,0.0204
3088.00,0.0203
3087.00,0.0203
3086.00,0.0203
3085.00,0.0203
3084.00,0.0204
3083.00,0.0204
3082.00,0.0204
3081.00,0.0203
3080.00,0.0203
3079.00,0.0203
3078.00,0.0203
3077.00,0.0203
3076.00,0.0204
3075.00,0.0204
3074.00,0.0204
3073.00,0.0204
3072.00,0.0204
3071.00,0.0204
3070.00,0.0203
3069.00,0.0203
3068.00,0.0203
3067.00,0.0203
3066.00,0.0203
3065.00,0.0203
3064.00,0.0203
3063.00,0.0202
3062.00,0.0202
3061.00,0.0202
3060.00,0.0202
3059.00,0.0201
3058.00,0.0200
3057.00,0.0199
3056.00,0.0199
3055.00,0.0198
3054.00,0.0198
3053.00,0.0197
3052.00,0.0196
3051.00,0.0196
3050.00,0.0195
3049.00,0.0195
3048.00,0.0194
3047.00,0.0193
3046.00,0.0192
3045.00,0.0191
3044.00,0.0190
3043.00,0.0190
3042.00,0.0189
3041.00,0.0189
3040.00,0.0189
3039.00,0.0188
3038.00,0.0188
3037.00,0.0187
3036.00,0.0186
3035.00,0.0185
3034.00,0.0184
3033.00,0.0184
3032.00,0.0183
3031.00,0.0183
3030.00,0.0182
3029.00,0.0182
3028.00,0.0181
3027.00,0.0180
3026.00,0.0179
3025.00,0.0179
3024.00,0.0178
3023.00,0.0178
3022.00,0.0177
3021.00,0.0176
3020.00,0.0175
3019.00,0.0175
3018.00,0.0174
3017.00,0.0174
3016.00,0.0173
3015.00,0.0172
3014.00,0.0171
3013.00,0.0171
3012.00,0.0170
3011.00,0.0170
3010.00,0.0169
3009.00,0.0169
3008.00,0.0169
3007.00,0.0168
3006.00,0.0168
3005.00,0.0167
3004.00,0.0167
3003.00,0.0166
3002.00,0.0166
3001.00,0.0165
3000.00,0.0165
2999.00,0.0164
2998.00,0.0164
2997.00,0.0164
2996.00,0.0165
2995.00,0.0165
2994.00,0.0165
2993.00,0.0165
2992.00,0.0166
2991.00,0.0167
2990.00,0.0168
2989.00,0.0168
2988.00,0.0169
2987.00,0.0170
2986.00,0.0171
2985.00,0.0171
2984.00,0.0172
2983.00,0.0173
2982.00,0.0173
2981.00,0.0175
2980.00,0.0176
2979.00,0.0178
2978.00,0.0180
2977.00,0.0182
2976.00,0.0184
2975.00,0.0185
2974.00,0.0187
2973.00,0.0188
2972.00,0.0190
2971.00,0.0191
2970.00,0.0193
2969.00,0.0194
2968.00,0.0196
2967.00,0.0197
2966.00,0.0197
2965.00,0.0198
2964.00,0.0198
2963.00,0.0199
2962.00,0.0199
2961.00,0.0199
2960.00,0.0199
2959.00,0.0198
2958.00,0.0198
2957.00,0.0197
2956.00,0.0197
2955.00,0.0196
2954.00,0.0195
2953.00,0.0194
2952.00,0.0193
2951.00,0.0193
2950.00,0.0193
2949.00,0.0193
2948.00,0.0193
2947.00,0.0193
2946.00,0.0193
2945.00,0.0194
2944.00,0.0194
2943.00,0.0195
2942.00,0.0195
2941.00,0.0196
2940.00,0.0197
2939.00,0.0197
2938.00,0.0197
2937.00,0.0197
2936.00,0.0197
2935.00,0.0196
2934.00,0.0196
2933.00,0.0195
2932.00,0.0194
2931.00,0.0193
2930.00,0.0192
2929.00,0.0191
2928.00,0.0190
2927.00,0.0189
2926.00,0.0187
2925.00,0.0186
2924.00,0.0184
2923.00,0.0182
2922.00,0.0180
2921.00,0.0178
2920.00,0.0177
2919.00,0.0175
2918.00,0.0173
2917.00,0.0172
2916.00,0.0172
2915.00,0.0172
2914.00,0.0173
2913.00,0.0174
2912.00,0.0174
2911.00,0.0175
2910.00,0.0175
2909.00,0.0175
2908.00,0.0175
2907.00,0.0175
2906.00,0.0175
2905.00,0.0174
2904.00,0.0173
2903.00,0.0173
2902.00,0.0172
2901.00,0.0172
2900.00,0.0171
2899.00,0.0170
2898.00,0.0170
2897.00,0.0169
2896.00,0.0169
2895.00,0.0169
2894.00,0.0168
2893.00,0.0168
2892.00,0.0168
2891.00,0.0168
2890.00,0.0168
2889.00,0.0168
2888.00,0.0168
2887.00,0.0168
2886.00,0.0168
2885.00,0.0168
2884.00,0.0168
2883.00,0.0169
2882.00,0.0169
2881.00,0.0170
2880.00,0.0171
2879.00,0.0172
2878.00,0.0172
2877.00,0.0173
2876.00,0.0173
2875.00,0.0172
2874.00,0.0172
2873.00,0.0172
2872.00,0.0171
2871.00,0.0171
2870.00,0.0170
2869.00,0.0169
2868.00,0.0168
2867.00,0.0166
2866.00,0.0164
2865.00,0.0163
2864.00,0.0161
2863.00,0.0160
2862.00,0.0158
2861.00,0.0157
2860.00,0.0155
2859.00,0.0154
2858.00,0.0152
2857.00,0.0151
2856.00,0.0150
2855.00,0.0149
2854.00,0.0147
2853.00,0.0146
2852.00,0.0144
2851.00,0.0142
2850.00,0.0141
2849.00,0.0141
2848.00,0.0141
2847.00,0.0142
2846.00,0.0143
2845.00,0.0144
2844.00,0.0145
2843.00,0.0145
2842.00,0.0145
2841.00,0.0144
2840.00,0.0144
2839.00,0.0144
2838.00,0.0143
2837.00,0.0143
2836.00,0.0143
2835.00,0.0143
2834.00,0.0142
2833.00,0.0142
2832.00,0.0142
2831.00,0.0142
2830.00,0.0142
2829.00,0.0142
2828.00,0.0142
2827.00,0.0141
2826.00,0.0141
2825.00,0.0141
2824.00,0.0141
2823.00,0.0140
2822.00,0.0140
2821.00,0.0140
2820.00,0.0140
2819.00,0.0140
2818.00,0.0140
2817.00,0.0140
2816.00,0.0139
2815.00,0.0139
2814.00,0.0139
2813.00,0.0139
2812.00,0.0138
2811.00,0.0138
2810.00,0.0138
2809.00,0.0138
2808.00,0.0137
2807.00,0.0137
2806.00,0.0137
2805.00,0.0137
2804.00,0.0137
2803.00,0.0136
2802.00,0.0136
2801.00,0.0136
2800.00,0.0136
2799.00,0.0135
2798.00,0.0135
2797.00,0.0135
2796.00,0.0135
2795.00,0.0135
2794.00,0.0134
2793.00,0.0134
2792.00,0.0134
2791.00,0.0133
2790.00,0.0133
2789.00,0.0133
2788.00,0.0132
2787.00,0.0132
2786.00,0.0132
2785.00,0.0132
2784.00,0.0132
2783.00,0.0131
2782.00,0.0131
2781.00,0.0131
2780.00,0.0131
2779.00,0.0130
2778.00,0.0130
2777.00,0.0130
2776.00,0.0130
2775.00,0.0129
2774.00,0.0129
2773.00,0.0129
2772.00,0.0128
2771.00,0.0128
2770.00,0.0128
2769.00,0.0128
2768.00,0.0127
2767.00,0.0127
2766.00,0.0127
2765.00,0.0126
2764.00,0.0126
2763.00,0.0126
2762.00,0.0126
2761.00,0.0126
2760.00,0.0126
2759.00,0.0125
2758.00,0.0125
2757.00,0.0125
2756.00,0.0124
2755.00,0.0124
2754.00,0.0124
2753.00,0.0123
2752.00,0.0123
2751.00,0.0123
2750.00,0.0123
2749.00,0.0122
2748.00,0.0122
2747.00,0.0122
2746.00,0.0122
2745.00,0.0122
2744.00,0.0122
2743.00,0.0122
2742.00,0.0121
2741.00,0.0121
2740.00,0.0121
2739.00,0.0121
2738.00,0.0121
2737.00,0.0120
2736.00,0.0120
2735.00,0.0120
2734.00,0.0119
2733.00,0.0119
2732.00,0.0119
2731.00,0.0119
2730.00,0.0118
2729.00,0.0118
2728.00,0.0118
2727.00,0.0117
2726.00,0.0117
2725.00,0.0117
2724.00,0.0116
2723.00,0.0116
2722.00,0.0116
2721.00,0.0116
2720.00,0.0116
2719.00,0.0115
2718.00,0.0115
2717.00,0.0115
2716.00,0.0115
2715.00,0.0114
2714.00,0.0114
2713.00,0.0114
2712.00,0.0114
2711.00,0.0113
2710.00,0.0113
2709.00,0.0113
2708.00,0.0113
2707.00,0.0113
2706.00,0.0112
2705.00,0.0112
2704.00,0.0112
2703.00,0.0112
2702.00,0.0111
2701.00,0.0111
2700.00,0.0111
2699.00,0.0111
2698.00,0.0111
2697.00,0.0111
2696.00,0.0111
2695.00,0.0111
2694.00,0.0111
2693.00,0.0110
2692.00,0.0110
2691.00,0.0110
2690.00,0.0110
2689.00,0.0110
2688.00,0.0109
2687.00,0.0109
2686.00,0.0109
2685.00,0.0109
2684.00,0.0109
2683.00,0.0109
2682.00,0.0109
2681.00,0.0108
2680.00,0.0108
2679.00,0.0108
2678.00,0.0108
2677.00,0.0108
2676.00,0.0108
2675.00,0.0108
2674.00,0.0108
2673.00,0.0108
2672.00,0.0107
2671.00,0.0107
2670.00,0.0107
2669.00,0.0107
2668.00,0.0107
2667.00,0.0107
2666.00,0.0107
2665.00,0.0108
2664.00,0.0108
2663.00,0.0109
2662.00,0.0109
2661.00,0.0109
2660.00,0.0109
2659.00,0.0109
2658.00,0.0110
2657.00,0.0110
2656.00,0.0110
2655.00,0.0110
2654.00,0.0110
2653.00,0.0110
2652.00,0.0109
2651.00,0.0109
2650.00,0.0109
2649.00,0.0109
2648.00,0.0109
2647.00,0.0109
2646.00,0.0108
2645.00,0.0108
2644.00,0.0108
2643.00,0.0108
2642.00,0.0107
2641.00,0.0107
2640.00,0.0107
2639.00,0.0107
2638.00,0.0107
2637.00,0.0107
2636.00,0.0107
2635.00,0.0106
2634.00,0.0106
2633.00,0.0106
2632.00,0.0106
2631.00,0.0106
2630.00,0.0106
2629.00,0.0106
2628.00,0.0106
2627.00,0.0105
2626.00,0.0105
2625.00,0.0105
2624.00,0.0104
2623.00,0.0104
2622.00,0.0104
2621.00,0.0104
2620.00,0.0104
2619.00,0.0104
2618.00,0.0103
2617.00,0.0103
2616.00,0.0103
2615.00,0.0103
2614.00,0.0103
2613.00,0.0103
2612.00,0.0103
2611.00,0.0102
2610.00,0.0102
2609.00,0.0102
2608.00,0.0102
2607.00,0.0101
2606.00,0.0101
2605.00,0.0100
2604.00,0.0100
2603.00,0.0100
2602.00,0.0100
2601.00,0.0100
2600.00,0.0100
2599.00,0.0100
2598.00,0.0099
2597.00,0.0099
2596.00,0.0099
2595.00,0.0099
2594.00,0.0099
2593.00,0.0099
2592.00,0.0099
2591.00,0.0098
2590.00,0.0098
2589.00,0.0098
2588.00,0.0097
2587.00,0.0097
2586.00,0.0096
2585.00,0.0096
2584.00,0.0096
2583.00,0.0096
2582.00,0.0096
2581.00,0.0096
2580.00,0.0096
2579.00,0.0095
2578.00,0.0095
2577.00,0.0095
2576.00,0.0095
2575.00,0.0094
2574.00,0.0094
2573.00,0.0095
2572.00,0.0095
2571.00,0.0095
2570.00,0.0095
2569.00,0.0094
2568.00,0.0094
2567.00,0.0094
2566.00,0.0094
2565.00,0.0094
2564.00,0.0094
2563.00,0.0093
2562.00,0.0093
2561.00,0.0092
2560.00,0.0092
2559.00,0.0092
2558.00,0.0092
2557.00,0.0092
2556.00,0.0092
2555.00,0.0093
2554.00,0.0092
2553.00,0.0092
2552.00,0.0092
2551.00,0.0091
2550.00,0.0091
2549.00,0.0091
2548.00,0.0090
2547.00,0.0090
2546.00,0.0090
2545.00,0.0090
2544.00,0.0090
2543.00,0.0090
2542.00,0.0089
2541.00,0.0089
2540.00,0.0090
2539.00,0.0090
2538.00,0.0090
2537.00,0.0090
2536.00,0.0090
2535.00,0.0090
2534.00,0.0089
2533.00,0.0089
2532.00,0.0089
2531.00,0.0089
2530.00,0.0089
2529.00,0.0088
2528.00,0.0088
2527.00,0.0088
2526.00,0.0088
2525.00,0.0088
2524.00,0.0087
2523.00,0.0087
2522.00,0.0087
2521.00,0.0087
2520.00,0.0087
2519.00,0.0087
2518.00,0.0087
2517.00,0.0087
2516.00,0.0087
2515.00,0.0086
2514.00,0.0086
2513.00,0.0086
2512.00,0.0086
2511.00,0.0086
2510.00,0.0087
2509.00,0.0087
2508.00,0.0087
2507.00,0.0087
2506.00,0.0086
2505.00,0.0086
2504.00,0.0085
2503.00,0.0085
2502.00,0.0085
2501.00,0.0085
2500.00,0.0085
2499.00,0.0085
2498.00,0.0086
2497.00,0.0086
2496.00,0.0086
2495.00,0.0086
2494.00,0.0086
2493.00,0.0086
2492.00,0.0085
2491.00,0.0085
2490.00,0.0085
2489.00,0.0085
2488.00,0.0085
2487.00,0.0085
2486.00,0.0084
2485.00,0.0084
2484.00,0.0084
2483.00,0.0083
2482.00,0.0083
2481.00,0.0083
2480.00,0.0083
2479.00,0.0083
2478.00,0.0083
2477.00,0.0083
2476.00,0.0083
2475.00,0.0083
2474.00,0.0083
2473.00,0.0083
2472.00,0.0083
2471.00,0.0083
2470.00,0.0083
2469.00,0.0083
2468.00,0.0083
2467.00,0.0083
2466.00,0.0082
2465.00,0.0082
2464.00,0.0082
2463.00,0.0082
2462.00,0.0082
2461.00,0.0082
2460.00,0.0082
2459.00,0.0082
2458.00,0.0083
2457.00,0.0083
2456.00,0.0084
2455.00,0.0084
2454.00,0.0083
2453.00,0.0083
2452.00,0.0083
2451.00,0.0083
2450.00,0.0083
2449.00,0.0083
2448.00,0.0082
2447.00,0.0082
2446.00,0.0082
2445.00,0.0082
2444.00,0.0082
2443.00,0.0082
2442.00,0.0081
2441.00,0.0081
2440.00,0.0081
2439.00,0.0081
2438.00,0.0080
2437.00,0.0080
2436.00,0.0080
2435.00,0.0080
2434.00,0.0080
2433.00,0.0080
2432.00,0.0079
2431.00,0.0079
2430.00,0.0079
2429.00,0.0079
2428.00,0.0079
2427.00,0.0079
2426.00,0.0079
2425.00,0.0078
2424.00,0.0078
2423.00,0.0078
2422.00,0.0078
2421.00,0.0078
2420.00,0.0078
2419.00,0.0077
2418.00,0.0077
2417.00,0.0077
2416.00,0.0077
2415.00,0.0077
2414.00,0.0077
2413.00,0.0077
2412.00,0.0077
2411.00,0.0077
2410.00,0.0076
2409.00,0.0076
2408.00,0.0075
2407.00,0.0074
2406.00,0.0074
2405.00,0.0074
2404.00,0.0074
2403.00,0.0074
2402.00,0.0074
2401.00,0.0074
2400.00,0.0074
2399.00,0.0074
2398.00,0.0074
2397.00,0.0074
2396.00,0.0074
2395.00,0.0073
2394.00,0.0073
2393.00,0.0073
2392.00,0.0073
2391.00,0.0073
2390.00,0.0073
2389.00,0.0073
2388.00,0.0073
2387.00,0.0072
2386.00,0.0072
2385.00,0.0071
2384.00,0.0071
2383.00,0.0071
2382.00,0.0071
2381.00,0.0070
2380.00,0.0071
2379.00,0.0071
2378.00,0.0071
2377.00,0.0071
2376.00,0.0071
2375.00,0.0070
2374.00,0.0070
2373.00,0.0070
2372.00,0.0070
2371.00,0.0071
2370.00,0.0070
2369.00,0.0070
2368.00,0.0071
2367.00,0.0071
2366.00,0.0070
2365.00,0.0070
2364.00,0.0071
2363.00,0.0071
2362.00,0.0071
2361.00,0.0071
2360.00,0.0071
2359.00,0.0072
2358.00,0.0072
2357.00,0.0072
2356.00,0.0072
2355.00,0.0071
2354.00,0.0070
2353.00,0.0069
2352.00,0.0071
2351.00,0.0073
2350.00,0.0075
2349.00,0.0076
2348.00,0.0075
2347.00,0.0074
2346.00,0.0074
2345.00,0.0074
2344.00,0.0074
2343.00,0.0074
2342.00,0.0074
2341.00,0.0075
2340.00,0.0075
2339.00,0.0075
2338.00,0.0075
2337.00,0.0075
2336.00,0.0075
2335.00,0.0075
2334.00,0.0075
2333.00,0.0074
2332.00,0.0074
2331.00,0.0073
2330.00,0.0074
2329.00,0.0076
2328.00,0.0080
2327.00,0.0084
2326.00,0.0087
2325.00,0.0088
2324.00,0.0087
2323.00,0.0084
2322.00,0.0082
2321.00,0.0080
2320.00,0.0078
2319.00,0.0077
2318.00,0.0077
2317.00,0.0077
2316.00,0.0077
2315.00,0.0076
2314.00,0.0075
2313.00,0.0075
2312.00,0.0075
2311.00,0.0074
2310.00,0.0074
2309.00,0.0074
2308.00,0.0074
2307.00,0.0074
2306.00,0.0075
2305.00,0.0075
2304.00,0.0075
2303.00,0.0076
2302.00,0.0076
2301.00,0.0076
2300.00,0.0077
2299.00,0.0077
2298.00,0.0077
2297.00,0.0077
2296.00,0.0078
2295.00,0.0079
2294.00,0.0080
2293.00,0.0081
2292.00,0.0082
2291.00,0.0082
2290.00,0.0083
2289.00,0.0083
2288.00,0.0084
2287.00,0.0084
2286.00,0.0083
2285.00,0.0082
2284.00,0.0081
2283.00,0.0081
2282.00,0.0080
2281.00,0.0080
2280.00,0.0080
2279.00,0.0079
2278.00,0.0079
2277.00,0.0079
2276.00,0.0079
2275.00,0.0079
2274.00,0.0079
2273.00,0.0079
2272.00,0.0078
2271.00,0.0078
2270.00,0.0077
2269.00,0.0075
2268.00,0.0074
2267.00,0.0072
2266.00,0.0072
2265.00,0.0072
2264.00,0.0073
2263.00,0.0073
2262.00,0.0074
2261.00,0.0075
2260.00,0.0075
2259.00,0.0075
2258.00,0.0075
2257.00,0.0074
2256.00,0.0073
2255.00,0.0072
2254.00,0.0071
2253.00,0.0071
2252.00,0.0072
2251.00,0.0073
2250.00,0.0074
2249.00,0.0075
2248.00,0.0076
2247.00,0.0076
2246.00,0.0077
2245.00,0.0077
2244.00,0.0076
2243.00,0.0076
2242.00,0.0075
2241.00,0.0074
2240.00,0.0074
2239.00,0.0074
2238.00,0.0073
2237.00,0.0073
2236.00,0.0073
2235.00,0.0073
2234.00,0.0072
2233.00,0.0072
2232.00,0.0071
2231.00,0.0071
2230.00,0.0070
2229.00,0.0070
2228.00,0.0070
2227.00,0.0071
2226.00,0.0071
2225.00,0.0071
2224.00,0.0072
2223.00,0.0071
2222.00,0.0070
2221.00,0.0069
2220.00,0.0069
2219.00,0.0069
2218.00,0.0070
2217.00,0.0070
2216.00,0.0070
2215.00,0.0070
2214.00,0.0069
2213.00,0.0070
2212.00,0.0070
2211.00,0.0071
2210.00,0.0071
2209.00,0.0071
2208.00,0.0071
2207.00,0.0071
2206.00,0.0071
2205.00,0.0071
2204.00,0.0072
2203.00,0.0072
2202.00,0.0072
2201.00,0.0072
2200.00,0.0072
2199.00,0.0072
2198.00,0.0072
2197.00,0.0072
2196.00,0.0072
2195.00,0.0072
2194.00,0.0072
2193.00,0.0071
2192.00,0.0072
2191.00,0.0072
2190.00,0.0073
2189.00,0.0074
2188.00,0.0075
2187.00,0.0076
2186.00,0.0075
2185.00,0.0073
2184.00,0.0069
2183.00,0.0065
2182.00,0.0063
2181.00,0.0064
2180.00,0.0066
2179.00,0.0068
2178.00,0.0068
2177.00,0.0066
2176.00,0.0063
2175.00,0.0061
2174.00,0.0062
2173.00,0.0064
2172.00,0.0068
2171.00,0.0071
2170.00,0.0074
2169.00,0.0076
2168.00,0.0077
2167.00,0.0077
2166.00,0.0077
2165.00,0.0078
2164.00,0.0080
2163.00,0.0080
2162.00,0.0075
2161.00,0.0065
2160.00,0.0051
2159.00,0.0040
2158.00,0.0034
2157.00,0.0034
2156.00,0.0037
2155.00,0.0041
2154.00,0.0046
2153.00,0.0050
2152.00,0.0053
2151.00,0.0054
2150.00,0.0054
2149.00,0.0053
2148.00,0.0052
2147.00,0.0052
2146.00,0.0051
2145.00,0.0051
2144.00,0.0051
2143.00,0.0050
2142.00,0.0051
2141.00,0.0051
2140.00,0.0052
2139.00,0.0052
2138.00,0.0051
2137.00,0.0050
2136.00,0.0047
2135.00,0.0045
2134.00,0.0044
2133.00,0.0045
2132.00,0.0047
2131.00,0.0049
2130.00,0.0051
2129.00,0.0053
2128.00,0.0054
2127.00,0.0057
2126.00,0.0059
2125.00,0.0061
2124.00,0.0062
2123.00,0.0062
2122.00,0.0062
2121.00,0.0062
2120.00,0.0063
2119.00,0.0063
2118.00,0.0064
2117.00,0.0065
2116.00,0.0067
2115.00,0.0067
2114.00,0.0068
2113.00,0.0068
2112.00,0.0067
2111.00,0.0067
2110.00,0.0066
2109.00,0.0066
2108.00,0.0065
2107.00,0.0065
2106.00,0.0065
2105.00,0.0065
2104.00,0.0066
2103.00,0.0066
2102.00,0.0065
2101.00,0.0065
2100.00,0.0065
2099.00,0.0065
2098.00,0.0064
2097.00,0.0063
2096.00,0.0062
2095.00,0.0061
2094.00,0.0061
2093.00,0.0062
2092.00,0.0062
2091.00,0.0063
2090.00,0.0063
2089.00,0.0064
2088.00,0.0065
2087.00,0.0066
2086.00,0.0066
2085.00,0.0067
2084.00,0.0067
2083.00,0.0068
2082.00,0.0068
2081.00,0.0068
2080.00,0.0068
2079.00,0.0068
2078.00,0.0068
2077.00,0.0068
2076.00,0.0068
2075.00,0.0067
2074.00,0.0066
2073.00,0.0065
2072.00,0.0064
2071.00,0.0064
2070.00,0.0064
2069.00,0.0064
2068.00,0.0064
2067.00,0.0064
2066.00,0.0063
2065.00,0.0063
2064.00,0.0063
2063.00,0.0062
2062.00,0.0061
2061.00,0.0061
2060.00,0.0062
2059.00,0.0063
2058.00,0.0064
2057.00,0.0065
2056.00,0.0066
2055.00,0.0067
2054.00,0.0069
2053.00,0.0072
2052.00,0.0075
2051.00,0.0075
2050.00,0.0071
2049.00,0.0067
2048.00,0.0064
2047.00,0.0062
2046.00,0.0061
2045.00,0.0061
2044.00,0.0061
2043.00,0.0062
2042.00,0.0063
2041.00,0.0064
2040.00,0.0066
2039.00,0.0069
2038.00,0.0070
2037.00,0.0070
2036.00,0.0067
2035.00,0.0063
2034.00,0.0059
2033.00,0.0057
2032.00,0.0057
2031.00,0.0058
2030.00,0.0059
2029.00,0.0059
2028.00,0.0057
2027.00,0.0055
2026.00,0.0053
2025.00,0.0053
2024.00,0.0055
2023.00,0.0055
2022.00,0.0055
2021.00,0.0055
2020.00,0.0055
2019.00,0.0056
2018.00,0.0057
2017.00,0.0058
2016.00,0.0060
2015.00,0.0061
2014.00,0.0062
2013.00,0.0061
2012.00,0.0060
2011.00,0.0059
2010.00,0.0057
2009.00,0.0054
2008.00,0.0051
2007.00,0.0048
2006.00,0.0047
2005.00,0.0048
2004.00,0.0050
2003.00,0.0052
2002.00,0.0053
2001.00,0.0053
2000.00,0.0054
1999.00,0.0055
1998.00,0.0055
1997.00,0.0055
1996.00,0.0055
1995.00,0.0055
1994.00,0.0055
1993.00,0.0055
1992.00,0.0056
1991.00,0.0057
1990.00,0.0058
1989.00,0.0059
1988.00,0.0060
1987.00,0.0061
1986.00,0.0061
1985.00,0.0061
1984.00,0.0063
1983.00,0.0066
1982.00,0.0069
1981.00,0.0070
1980.00,0.0068
1979.00,0.0062
1978.00,0.0055
1977.00,0.0050
1976.00,0.0048
1975.00,0.0047
1974.00,0.0047
1973.00,0.0047
1972.00,0.0049
1971.00,0.0050
1970.00,0.0050
1969.00,0.0050
1968.00,0.0050
1967.00,0.0050
1966.00,0.0051
1965.00,0.0051
1964.00,0.0051
1963.00,0.0050
1962.00,0.0048
1961.00,0.0045
1960.00,0.0043
1959.00,0.0042
1958.00,0.0042
1957.00,0.0044
1956.00,0.0046
1955.00,0.0047
1954.00,0.0048
1953.00,0.0049
1952.00,0.0050
1951.00,0.0050
1950.00,0.0050
1949.00,0.0049
1948.00,0.0049
1947.00,0.0049
1946.00,0.0049
1945.00,0.0050
1944.00,0.0051
1943.00,0.0051
1942.00,0.0050
1941.00,0.0050
1940.00,0.0049
1939.00,0.0050
1938.00,0.0050
1937.00,0.0050
1936.00,0.0050
1935.00,0.0050
1934.00,0.0049
1933.00,0.0049
1932.00,0.0049
1931.00,0.0049
1930.00,0.0049
1929.00,0.0049
1928.00,0.0049
1927.00,0.0048
1926.00,0.0048
1925.00,0.0048
1924.00,0.0049
1923.00,0.0050
1922.00,0.0051
1921.00,0.0051
1920.00,0.0052
1919.00,0.0052
1918.00,0.0052
1917.00,0.0051
1916.00,0.0051
1915.00,0.0051
1914.00,0.0051
1913.00,0.0050
1912.00,0.0051
1911.00,0.0051
1910.00,0.0051
1909.00,0.0051
1908.00,0.0052
1907.00,0.0052
1906.00,0.0052
1905.00,0.0052
1904.00,0.0052
1903.00,0.0052
1902.00,0.0052
1901.00,0.0053
1900.00,0.0053
1899.00,0.0053
1898.00,0.0053
1897.00,0.0053
1896.00,0.0053
1895.00,0.0053
1894.00,0.0053
1893.00,0.0053
1892.00,0.0053
1891.00,0.0053
1890.00,0.0054
1889.00,0.0054
1888.00,0.0054
1887.00,0.0053
1886.00,0.0053
1885.00,0.0053
1884.00,0.0052
1883.00,0.0052
1882.00,0.0052
1881.00,0.0052
1880.00,0.0052
1879.00,0.0052
1878.00,0.0053
1877.00,0.0053
1876.00,0.0053
1875.00,0.0053
1874.00,0.0053
1873.00,0.0052
1872.00,0.0052
1871.00,0.0052
1870.00,0.0052
1869.00,0.0051
1868.00,0.0051
1867.00,0.0051
1866.00,0.0051
1865.00,0.0051
1864.00,0.0052
1863.00,0.0052
1862.00,0.0052
1861.00,0.0053
1860.00,0.0053
1859.00,0.0052
1858.00,0.0052
1857.00,0.0052
1856.00,0.0052
1855.00,0.0052
1854.00,0.0052
1853.00,0.0051
1852.00,0.0051
1851.00,0.0052
1850.00,0.0052
1849.00,0.0052
1848.00,0.0052
1847.00,0.0052
1846.00,0.0051
1845.00,0.0051
1844.00,0.0051
1843.00,0.0052
1842.00,0.0051
1841.00,0.0051
1840.00,0.0051
1839.00,0.0050
1838.00,0.0050
1837.00,0.0050
1836.00,0.0051
1835.00,0.0051
1834.00,0.0051
1833.00,0.0051
1832.00,0.0051
1831.00,0.0051
1830.00,0.0051
1829.00,0.0051
1828.00,0.0051
1827.00,0.0051
1826.00,0.0051
1825.00,0.0051
1824.00,0.0052
1823.00,0.0052
1822.00,0.0052
1821.00,0.0051
1820.00,0.0051
1819.00,0.0050
1818.00,0.0048
1817.00,0.0048
1816.00,0.0048
1815.00,0.0049
1814.00,0.0050
1813.00,0.0050
1812.00,0.0050
1811.00,0.0051
1810.00,0.0051
1809.00,0.0051
1808.00,0.0051
1807.00,0.0051
1806.00,0.0051
1805.00,0.0051
1804.00,0.0052
1803.00,0.0052
1802.00,0.0052
1801.00,0.0051
1800.00,0.0052
1799.00,0.0052
1798.00,0.0052
1797.00,0.0052
1796.00,0.0052
1795.00,0.0053
1794.00,0.0053
1793.00,0.0053
1792.00,0.0053
1791.00,0.0053
1790.00,0.0053
1789.00,0.0053
1788.00,0.0052
1787.00,0.0052
1786.00,0.0052
1785.00,0.0052
1784.00,0.0053
1783.00,0.0053
1782.00,0.0052
1781.00,0.0052
1780.00,0.0052
1779.00,0.0052
1778.00,0.0052
1777.00,0.0051
1776.00,0.0052
1775.00,0.0052
1774.00,0.0052
1773.00,0.0053
1772.00,0.0053
1771.00,0.0053
1770.00,0.0053
1769.00,0.0053
1768.00,0.0053
1767.00,0.0053
1766.00,0.0053
1765.00,0.0053
1764.00,0.0054
1763.00,0.0054
1762.00,0.0055
1761.00,0.0055
1760.00,0.0055
1759.00,0.0055
1758.00,0.0055
1757.00,0.0055
1756.00,0.0055
1755.00,0.0055
1754.00,0.0055
1753.00,0.0056
1752.00,0.0056
1751.00,0.0056
1750.00,0.0056
1749.00,0.0057
1748.00,0.0058
1747.00,0.0059
1746.00,0.0059
1745.00,0.0060
1744.00,0.0061
1743.00,0.0062
1742.00,0.0062
1741.00,0.0063
1740.00,0.0064
1739.00,0.0064
1738.00,0.0065
1737.00,0.0067
1736.00,0.0068
1735.00,0.0069
1734.00,0.0070
1733.00,0.0070
1732.00,0.0071
1731.00,0.0072
1730.00,0.0073
1729.00,0.0075
1728.00,0.0077
1727.00,0.0079
1726.00,0.0081
1725.00,0.0083
1724.00,0.0085
1723.00,0.0087
1722.00,0.0089
1721.00,0.0091
1720.00,0.0094
1719.00,0.0098
1718.00,0.0101
1717.00,0.0104
1716.00,0.0107
1715.00,0.0111
1714.00,0.0114
1713.00,0.0118
1712.00,0.0122
1711.00,0.0127
1710.00,0.0131
1709.00,0.0136
1708.00,0.0142
1707.00,0.0148
1706.00,0.0155
1705.00,0.0163
1704.00,0.0173
1703.00,0.0182
1702.00,0.0192
1701.00,0.0204
1700.00,0.0218
1699.00,0.0231
1698.00,0.0242
1697.00,0.0253
1696.00,0.0265
1695.00,0.0277
1694.00,0.0286
1693.00,0.0293
1692.00,0.0301
1691.00,0.0309
1690.00,0.0317
1689.00,0.0326
1688.00,0.0335
1687.00,0.0344
1686.00,0.0353
1685.00,0.0362
1684.00,0.0371
1683.00,0.0381
1682.00,0.0389
1681.00,0.0398
1680.00,0.0407
1679.00,0.0417
1678.00,0.0427
1677.00,0.0436
1676.00,0.0446
1675.00,0.0454
1674.00,0.0463
1673.00,0.0471
1672.00,0.0480
1671.00,0.0488
1670.00,0.0496
1669.00,0.0505
1668.00,0.0513
1667.00,0.0522
1666.00,0.0532
1665.00,0.0541
1664.00,0.0551
1663.00,0.0560
1662.00,0.0569
1661.00,0.0579
1660.00,0.0588
1659.00,0.0598
1658.00,0.0609
1657.00,0.0620
1656.00,0.0632
1655.00,0.0642
1654.00,0.0650
1653.00,0.0655
1652.00,0.0660
1651.00,0.0666
1650.00,0.0672
1649.00,0.0679
1648.00,0.0685
1647.00,0.0689
1646.00,0.0692
1645.00,0.0696
1644.00,0.0700
1643.00,0.0705
1642.00,0.0710
1641.00,0.0714
1640.00,0.0719
1639.00,0.0725
1638.00,0.0730
1637.00,0.0735
1636.00,0.0738
1635.00,0.0741
1634.00,0.0746
1633.00,0.0752
1632.00,0.0759
1631.00,0.0765
1630.00,0.0771
1629.00,0.0775
1628.00,0.0778
1627.00,0.0781
1626.00,0.0783
1625.00,0.0784
1624.00,0.0782
1623.00,0.0776
1622.00,0.0770
1621.00,0.0764
1620.00,0.0758
1619.00,0.0751
1618.00,0.0740
1617.00,0.0724
1616.00,0.0706
1615.00,0.0691
1614.00,0.0679
1613.00,0.0667
1612.00,0.0654
1611.00,0.0639
1610.00,0.0625
1609.00,0.0611
1608.00,0.0597
1607.00,0.0584
1606.00,0.0573
1605.00,0.0561
1604.00,0.0551
1603.00,0.0540
1602.00,0.0531
1601.00,0.0522
1600.00,0.0514
1599.00,0.0506
1598.00,0.0499
1597.00,0.0492
1596.00,0.0486
1595.00,0.0479
1594.00,0.0473
1593.00,0.0468
1592.00,0.0462
1591.00,0.0456
1590.00,0.0452
1589.00,0.0448
1588.00,0.0444
1587.00,0.0440
1586.00,0.0438
1585.00,0.0436
1584.00,0.0433
1583.00,0.0431
1582.00,0.0430
1581.00,0.0430
1580.00,0.0430
1579.00,0.0431
1578.00,0.0433
1577.00,0.0434
1576.00,0.0435
1575.00,0.0436
1574.00,0.0439
1573.00,0.0443
1572.00,0.0446
1571.00,0.0450
1570.00,0.0453
1569.00,0.0457
1568.00,0.0461
1567.00,0.0465
1566.00,0.0470
1565.00,0.0475
1564.00,0.0481
1563.00,0.0487
1562.00,0.0495
1561.00,0.0502
1560.00,0.0507
1559.00,0.0511
1558.00,0.0517
1557.00,0.0525
1556.00,0.0531
1555.00,0.0538
1554.00,0.0545
1553.00,0.0552
1552.00,0.0559
1551.00,0.0565
1550.00,0.0573
1549.00,0.0580
1548.00,0.0587
1547.00,0.0594
1546.00,0.0601
1545.00,0.0607
1544.00,0.0613
1543.00,0.0619
1542.00,0.0624
1541.00,0.0629
1540.00,0.0633
1539.00,0.0639
1538.00,0.0645
1537.00,0.0651
1536.00,0.0656
1535.00,0.0661
1534.00,0.0666
1533.00,0.0670
1532.00,0.0674
1531.00,0.0678
1530.00,0.0682
1529.00,0.0685
1528.00,0.0688
1527.00,0.0690
1526.00,0.0692
1525.00,0.0694
1524.00,0.0696
1523.00,0.0697
1522.00,0.0698
1521.00,0.0699
1520.00,0.0700
1519.00,0.0701
1518.00,0.0703
1517.00,0.0703
1516.00,0.0703
1515.00,0.0703
1514.00,0.0701
1513.00,0.0698
1512.00,0.0694
1511.00,0.0689
1510.00,0.0684
1509.00,0.0678
1508.00,0.0670
1507.00,0.0658
1506.00,0.0645
1505.00,0.0635
1504.00,0.0627
1503.00,0.0620
1502.00,0.0613
1501.00,0.0606
1500.00,0.0598
1499.00,0.0589
1498.00,0.0580
1497.00,0.0569
1496.00,0.0558
1495.00,0.0548
1494.00,0.0539
1493.00,0.0530
1492.00,0.0521
1491.00,0.0510
1490.00,0.0499
1489.00,0.0488
1488.00,0.0478
1487.00,0.0469
1486.00,0.0460
1485.00,0.0452
1484.00,0.0445
1483.00,0.0437
1482.00,0.0430
1481.00,0.0424
1480.00,0.0419
1479.00,0.0415
1478.00,0.0411
1477.00,0.0409
1476.00,0.0407
1475.00,0.0406
1474.00,0.0406
1473.00,0.0406
1472.00,0.0407
1471.00,0.0408
1470.00,0.0409
1469.00,0.0410
1468.00,0.0411
1467.00,0.0412
1466.00,0.0412
1465.00,0.0412
1464.00,0.0412
1463.00,0.0413
1462.00,0.0415
1461.00,0.0418
1460.00,0.0422
1459.00,0.0426
1458.00,0.0429
1457.00,0.0432
1456.00,0.0435
1455.00,0.0436
1454.00,0.0437
1453.00,0.0438
1452.00,0.0438
1451.00,0.0438
1450.00,0.0438
1449.00,0.0437
1448.00,0.0436
1447.00,0.0435
1446.00,0.0434
1445.00,0.0433
1444.00,0.0431
1443.00,0.0430
1442.00,0.0429
1441.00,0.0428
1440.00,0.0427
1439.00,0.0426
1438.00,0.0425
1437.00,0.0421
1436.00,0.0416
1435.00,0.0411
1434.00,0.0407
1433.00,0.0403
1432.00,0.0399
1431.00,0.0395
1430.00,0.0392
1429.00,0.0389
1428.00,0.0387
1427.00,0.0386
1426.00,0.0385
1425.00,0.0385
1424.00,0.0385
1423.00,0.0386
1422.00,0.0389
1421.00,0.0391
1420.00,0.0393
1419.00,0.0395
1418.00,0.0397
1417.00,0.0398
1416.00,0.0400
1415.00,0.0402
1414.00,0.0404
1413.00,0.0406
1412.00,0.0408
1411.00,0.0410
1410.00,0.0413
1409.00,0.0415
1408.00,0.0418
1407.00,0.0420
1406.00,0.0423
1405.00,0.0425
1404.00,0.0427
1403.00,0.0430
1402.00,0.0432
1401.00,0.0434
1400.00,0.0436
1399.00,0.0438
1398.00,0.0440
1397.00,0.0442
1396.00,0.0444
1395.00,0.0445
1394.00,0.0446
1393.00,0.0447
1392.00,0.0448
1391.00,0.0448
1390.00,0.0449
1389.00,0.0450
1388.00,0.0449
1387.00,0.0447
1386.00,0.0445
1385.00,0.0443
1384.00,0.0440
1383.00,0.0436
1382.00,0.0433
1381.00,0.0429
1380.00,0.0425
1379.00,0.0421
1378.00,0.0418
1377.00,0.0415
1376.00,0.0412
1375.00,0.0410
1374.00,0.0408
1373.00,0.0407
1372.00,0.0405
1371.00,0.0404
1370.00,0.0402
1369.00,0.0400
1368.00,0.0397
1367.00,0.0394
1366.00,0.0391
1365.00,0.0387
1364.00,0.0383
1363.00,0.0380
1362.00,0.0377
1361.00,0.0374
1360.00,0.0371
1359.00,0.0368
1358.00,0.0366
1357.00,0.0364
1356.00,0.0362
1355.00,0.0360
1354.00,0.0359
1353.00,0.0358
1352.00,0.0357
1351.00,0.0356
1350.00,0.0356
1349.00,0.0355
1348.00,0.0355
1347.00,0.0355
1346.00,0.0355
1345.00,0.0355
1344.00,0.0354
1343.00,0.0354
1342.00,0.0354
1341.00,0.0354
1340.00,0.0354
1339.00,0.0354
1338.00,0.0354
1337.00,0.0354
1336.00,0.0353
1335.00,0.0353
1334.00,0.0352
1333.00,0.0351
1332.00,0.0350
1331.00,0.0350
1330.00,0.0350
1329.00,0.0349
1328.00,0.0349
1327.00,0.0349
1326.00,0.0349
1325.00,0.0349
1324.00,0.0349
1323.00,0.0349
1322.00,0.0349
1321.00,0.0350
1320.00,0.0350
1319.00,0.0350
1318.00,0.0351
1317.00,0.0352
1316.00,0.0352
1315.00,0.0353
1314.00,0.0354
1313.00,0.0354
1312.00,0.0354
1311.00,0.0354
1310.00,0.0354
1309.00,0.0355
1308.00,0.0354
1307.00,0.0354
1306.00,0.0354
1305.00,0.0353
1304.00,0.0353
1303.00,0.0353
1302.00,0.0352
1301.00,0.0352
1300.00,0.0352
1299.00,0.0351
1298.00,0.0351
1297.00,0.0351
1296.00,0.0351
1295.00,0.0351
1294.00,0.0351
1293.00,0.0351
1292.00,0.0352
1291.00,0.0353
1290.00,0.0354
1289.00,0.0355
1288.00,0.0357
1287.00,0.0358
1286.00,0.0359
1285.00,0.0361
1284.00,0.0362
1283.00,0.0363
1282.00,0.0363
1281.00,0.0364
1280.00,0.0364
1279.00,0.0364
1278.00,0.0365
1277.00,0.0365
1276.00,0.0366
1275.00,0.0366
1274.00,0.0367
1273.00,0.0367
1272.00,0.0368
1271.00,0.0369
1270.00,0.0370
1269.00,0.0371
1268.00,0.0373
1267.00,0.0374
1266.00,0.0376
1265.00,0.0378
1264.00,0.0379
1263.00,0.0381
1262.00,0.0384
1261.00,0.0386
1260.00,0.0388
1259.00,0.0391
1258.00,0.0393
1257.00,0.0396
1256.00,0.0399
1255.00,0.0402
1254.00,0.0405
1253.00,0.0408
1252.00,0.0411
1251.00,0.0414
1250.00,0.0418
1249.00,0.0421
1248.00,0.0424
1247.00,0.0428
1246.00,0.0431
1245.00,0.0434
1244.00,0.0437
1243.00,0.0440
1242.00,0.0443
1241.00,0.0446
1240.00,0.0449
1239.00,0.0451
1238.00,0.0454
1237.00,0.0456
1236.00,0.0458
1235.00,0.0460
1234.00,0.0461
1233.00,0.0463
1232.00,0.0463
1231.00,0.0464
1230.00,0.0464
1229.00,0.0464
1228.00,0.0463
1227.00,0.0462
1226.00,0.0461
1225.00,0.0460
1224.00,0.0458
1223.00,0.0456
1222.00,0.0454
1221.00,0.0452
1220.00,0.0449
1219.00,0.0446
1218.00,0.0443
1217.00,0.0440
1216.00,0.0437
1215.00,0.0433
1214.00,0.0430
1213.00,0.0426
1212.00,0.0421
1211.00,0.0417
1210.00,0.0412
1209.00,0.0407
1208.00,0.0403
1207.00,0.0398
1206.00,0.0394
1205.00,0.0390
1204.00,0.0385
1203.00,0.0381
1202.00,0.0376
1201.00,0.0372
1200.00,0.0368
1199.00,0.0364
1198.00,0.0361
1197.00,0.0357
1196.00,0.0354
1195.00,0.0350
1194.00,0.0347
1193.00,0.0344
1192.00,0.0341
1191.00,0.0338
1190.00,0.0336
1189.00,0.0333
1188.00,0.0331
1187.00,0.0329
1186.00,0.0327
1185.00,0.0326
1184.00,0.0324
1183.00,0.0323
1182.00,0.0323
1181.00,0.0322
1180.00,0.0322
1179.00,0.0323
1178.00,0.0324
1177.00,0.0325
1176.00,0.0326
1175.00,0.0328
1174.00,0.0330
1173.00,0.0332
1172.00,0.0334
1171.00,0.0336
1170.00,0.0338
1169.00,0.0340
1168.00,0.0342
1167.00,0.0344
1166.00,0.0347
1165.00,0.0349
1164.00,0.0352
1163.00,0.0355
1162.00,0.0358
1161.00,0.0360
1160.00,0.0363
1159.00,0.0365
1158.00,0.0368
1157.00,0.0370
1156.00,0.0370
1155.00,0.0371
1154.00,0.0371
1153.00,0.0370
1152.00,0.0369
1151.00,0.0368
1150.00,0.0367
1149.00,0.0365
1148.00,0.0363
1147.00,0.0361
1146.00,0.0359
1145.00,0.0357
1144.00,0.0355
1143.00,0.0353
1142.00,0.0351
1141.00,0.0349
1140.00,0.0347
1139.00,0.0345
1138.00,0.0345
1137.00,0.0344
1136.00,0.0344
1135.00,0.0344
1134.00,0.0345
1133.00,0.0346
1132.00,0.0346
1131.00,0.0347
1130.00,0.0349
1129.00,0.0351
1128.00,0.0353
1127.00,0.0355
1126.00,0.0357
1125.00,0.0359
1124.00,0.0361
1123.00,0.0363
1122.00,0.0365
1121.00,0.0367
1120.00,0.0369
1119.00,0.0371
1118.00,0.0374
1117.00,0.0376
1116.00,0.0378
1115.00,0.0380
1114.00,0.0383
1113.00,0.0386
1112.00,0.0388
1111.00,0.0390
1110.00,0.0393
1109.00,0.0396
1108.00,0.0398
1107.00,0.0401
1106.00,0.0403
1105.00,0.0406
1104.00,0.0408
1103.00,0.0410
1102.00,0.0412
1101.00,0.0414
1100.00,0.0415
1099.00,0.0417
1098.00,0.0420
1097.00,0.0422
1096.00,0.0425
1095.00,0.0428
1094.00,0.0432
1093.00,0.0436
1092.00,0.0439
1091.00,0.0443
1090.00,0.0448
1089.00,0.0453
1088.00,0.0457
1087.00,0.0462
1086.00,0.0467
1085.00,0.0472
1084.00,0.0476
1083.00,0.0480
1082.00,0.0483
1081.00,0.0485
1080.00,0.0487
1079.00,0.0487
1078.00,0.0488
1077.00,0.0487
1076.00,0.0486
1075.00,0.0484
1074.00,0.0483
1073.00,0.0482
1072.00,0.0480
1071.00,0.0479
1070.00,0.0478
1069.00,0.0478
1068.00,0.0477
1067.00,0.0477
1066.00,0.0478
1065.00,0.0480
1064.00,0.0481
1063.00,0.0482
1062.00,0.0484
1061.00,0.0485
1060.00,0.0486
1059.00,0.0487
1058.00,0.0489
1057.00,0.0491
1056.00,0.0493
1055.00,0.0494
1054.00,0.0495
1053.00,0.0496
1052.00,0.0496
1051.00,0.0497
1050.00,0.0498
1049.00,0.0498
1048.00,0.0498
1047.00,0.0498
1046.00,0.0498
1045.00,0.0498
1044.00,0.0497
1043.00,0.0496
1042.00,0.0496
1041.00,0.0495
1040.00,0.0495
1039.00,0.0494
1038.00,0.0494
1037.00,0.0493
1036.00,0.0493
1035.00,0.0493
1034.00,0.0494
1033.00,0.0495
1032.00,0.0496
1031.00,0.0496
1030.00,0.0497
1029.00,0.0497
1028.00,0.0497
1027.00,0.0497
1026.00,0.0498
1025.00,0.0498
1024.00,0.0497
1023.00,0.0496
1022.00,0.0495
1021.00,0.0493
1020.00,0.0490
1019.00,0.0487
1018.00,0.0485
1017.00,0.0481
1016.00,0.0477
1015.00,0.0473
1014.00,0.0469
1013.00,0.0466
1012.00,0.0462
1011.00,0.0458
1010.00,0.0454
1009.00,0.0450
1008.00,0.0446
1007.00,0.0443
1006.00,0.0440
1005.00,0.0437
1004.00,0.0434
1003.00,0.0431
1002.00,0.0429
1001.00,0.0425
1000.00,0.0421
999.00,0.0417
998.00,0.0413
997.00,0.0409
996.00,0.0404
995.00,0.0399
994.00,0.0395
993.00,0.0390
992.00,0.0384
991.00,0.0379
990.00,0.0374
989.00,0.0369
988.00,0.0364
987.00,0.0359
986.00,0.0355
985.00,0.0350
984.00,0.0346
983.00,0.0342
982.00,0.0339
981.00,0.0336
980.00,0.0334
979.00,0.0332
978.00,0.0331
977.00,0.0330
976.00,0.0330
975.00,0.0329
974.00,0.0330
973.00,0.0331
972.00,0.0331
971.00,0.0332
970.00,0.0333
969.00,0.0333
968.00,0.0334
967.00,0.0334
966.00,0.0335
965.00,0.0335
964.00,0.0334
963.00,0.0333
962.00,0.0332
961.00,0.0332
960.00,0.0330
959.00,0.0329
958.00,0.0328
957.00,0.0326
956.00,0.0324
955.00,0.0322
954.00,0.0320
953.00,0.0318
952.00,0.0316
951.00,0.0314
950.00,0.0314
949.00,0.0312
948.00,0.0311
947.00,0.0309
946.00,0.0309
945.00,0.0308
944.00,0.0308
943.00,0.0308
942.00,0.0308
941.00,0.0309
940.00,0.0310
939.00,0.0311
938.00,0.0313
937.00,0.0314
936.00,0.0314
935.00,0.0314
934.00,0.0315
933.00,0.0315
932.00,0.0315
931.00,0.0315
930.00,0.0315
929.00,0.0315
928.00,0.0314
927.00,0.0313
926.00,0.0313
925.00,0.0312
924.00,0.0311
923.00,0.0310
922.00,0.0309
921.00,0.0309
920.00,0.0307
919.00,0.0306
918.00,0.0305
917.00,0.0304
916.00,0.0303
915.00,0.0301
914.00,0.0299
913.00,0.0298
912.00,0.0295
911.00,0.0293
910.00,0.0292
909.00,0.0291
908.00,0.0289
907.00,0.0287
906.00,0.0287
905.00,0.0286
904.00,0.0285
903.00,0.0284
902.00,0.0283
901.00,0.0283
900.00,0.0282
899.00,0.0282
898.00,0.0282
897.00,0.0283
896.00,0.0283
895.00,0.0283
894.00,0.0283
893.00,0.0283
892.00,0.0283
891.00,0.0283
890.00,0.0283
889.00,0.0283
888.00,0.0283
887.00,0.0282
886.00,0.0282
885.00,0.0282
884.00,0.0282
883.00,0.0281
882.00,0.0282
881.00,0.0282
880.00,0.0281
879.00,0.0280
878.00,0.0280
877.00,0.0280
876.00,0.0280
875.00,0.0280
874.00,0.0281
873.00,0.0282
872.00,0.0281
871.00,0.0281
870.00,0.0281
869.00,0.0281
868.00,0.0281
867.00,0.0280
866.00,0.0281
865.00,0.0282
864.00,0.0283
863.00,0.0284
862.00,0.0285
861.00,0.0286
860.00,0.0286
859.00,0.0287
858.00,0.0288
857.00,0.0290
856.00,0.0292
855.00,0.0293
854.00,0.0295
853.00,0.0296
852.00,0.0296
851.00,0.0296
850.00,0.0297
849.00,0.0297
848.00,0.0297
847.00,0.0297
846.00,0.0298
845.00,0.0299
844.00,0.0300
843.00,0.0301
842.00,0.0302
841.00,0.0304
840.00,0.0305
839.00,0.0306
838.00,0.0307
837.00,0.0309
836.00,0.0309
835.00,0.0310
834.00,0.0312
833.00,0.0313
832.00,0.0314
831.00,0.0315
830.00,0.0316
829.00,0.0317
828.00,0.0317
827.00,0.0318
826.00,0.0319
825.00,0.0319
824.00,0.0319
823.00,0.0319
822.00,0.0320
821.00,0.0320
820.00,0.0320
819.00,0.0321
818.00,0.0321
817.00,0.0322
816.00,0.0323
815.00,0.0324
814.00,0.0325
813.00,0.0326
812.00,0.0325
811.00,0.0325
810.00,0.0326
809.00,0.0327
808.00,0.0328
807.00,0.0328
806.00,0.0330
805.00,0.0331
804.00,0.0332
803.00,0.0333
802.00,0.0335
801.00,0.0337
800.00,0.0338
799.00,0.0339
798.00,0.0342
797.00,0.0344
796.00,0.0346
795.00,0.0347
794.00,0.0349
793.00,0.0351
792.00,0.0353
791.00,0.0355
790.00,0.0358
789.00,0.0361
788.00,0.0364
787.00,0.0367
786.00,0.0370
785.00,0.0374
784.00,0.0376
783.00,0.0379
782.00,0.0381
781.00,0.0383
780.00,0.0385
779.00,0.0386
778.00,0.0387
777.00,0.0388
776.00,0.0387
775.00,0.0386
774.00,0.0386
773.00,0.0386
772.00,0.0386
771.00,0.0386
770.00,0.0388
769.00,0.0389
768.00,0.0390
767.00,0.0391
766.00,0.0392
765.00,0.0394
764.00,0.0394
763.00,0.0395
762.00,0.0396
761.00,0.0397
760.00,0.0398
759.00,0.0400
758.00,0.0401
757.00,0.0402
756.00,0.0403
755.00,0.0403
754.00,0.0405
753.00,0.0407
752.00,0.0408
751.00,0.0410
750.00,0.0412
749.00,0.0415
748.00,0.0417
747.00,0.0418
746.00,0.0421
745.00,0.0423
744.00,0.0425
743.00,0.0426
742.00,0.0428
741.00,0.0430
740.00,0.0430
739.00,0.0431
738.00,0.0432
737.00,0.0434
736.00,0.0434
735.00,0.0435
734.00,0.0437
733.00,0.0438
732.00,0.0439
731.00,0.0441
730.00,0.0444
729.00,0.0447
728.00,0.0449
727.00,0.0452
726.00,0.0455
725.00,0.0457
724.00,0.0459
723.00,0.0461
722.00,0.0464
721.00,0.0467
720.00,0.0470
719.00,0.0473
718.00,0.0477
717.00,0.0481
716.00,0.0483
715.00,0.0485
714.00,0.0489
713.00,0.0492
712.00,0.0496
711.00,0.0500
710.00,0.0505
709.00,0.0509
708.00,0.0513
707.00,0.0517
706.00,0.0521
705.00,0.0525
704.00,0.0529
703.00,0.0533
702.00,0.0537
701.00,0.0540
700.00,0.0543
699.00,0.0545
698.00,0.0547
697.00,0.0549
696.00,0.0549
695.00,0.0549
694.00,0.0550
693.00,0.0550
692.00,0.0550
691.00,0.0549
690.00,0.0550
689.00,0.0551
688.00,0.0551
687.00,0.0552
686.00,0.0554
685.00,0.0555
684.00,0.0556
683.00,0.0557
682.00,0.0559
681.00,0.0561
680.00,0.0562
679.00,0.0563
678.00,0.0564
677.00,0.0566
676.00,0.0566
675.00,0.0567
674.00,0.0569
673.00,0.0571
672.00,0.0573
671.00,0.0576
670.00,0.0580
669.00,0.0583
668.00,0.0585
667.00,0.0587
666.00,0.0589
665.00,0.0590
664.00,0.0591
663.00,0.0593
662.00,0.0595
661.00,0.0598
660.00,0.0599
659.00,0.0600
658.00,0.0601
657.00,0.0602
656.00,0.0603
655.00,0.0604
654.00,0.0607
653.00,0.0609
652.00,0.0611
651.00,0.0612
650.00,0.0613
649.00,0.0614
648.00,0.0614
647.00,0.0615
646.00,0.0617
645.00,0.0618
644.00,0.0620
643.00,0.0621
642.00,0.0623
641.00,0.0623
640.00,0.0623
639.00,0.0623
638.00,0.0624
637.00,0.0625
636.00,0.0624
635.00,0.0624
634.00,0.0625
633.00,0.0627
632.00,0.0628
631.00,0.0629
630.00,0.0631
629.00,0.0634
628.00,0.0636
627.00,0.0637
626.00,0.0640
625.00,0.0641
624.00,0.0642
623.00,0.0643
622.00,0.0645
621.00,0.0646
620.00,0.0647
619.00,0.0648
618.00,0.0650
617.00,0.0652
616.00,0.0653
615.00,0.0654
614.00,0.0656
613.00,0.0658
612.00,0.0658
611.00,0.0659
610.00,0.0662
609.00,0.0664
608.00,0.0665
607.00,0.0664
606.00,0.0665
605.00,0.0665
604.00,0.0665
603.00,0.0666
602.00,0.0670
601.00,0.0673
600.00,0.0675
599.00,0.0675
598.00,0.0677
597.00,0.0678
596.00,0.0678
595.00,0.0679
594.00,0.0680
593.00,0.0682
592.00,0.0683
591.00,0.0685
590.00,0.0688
589.00,0.0691
588.00,0.0693
587.00,0.0695
586.00,0.0698
585.00,0.0701
584.00,0.0702
583.00,0.0703
582.00,0.0707
581.00,0.0710
580.00,0.0712
579.00,0.0714
578.00,0.0716
577.00,0.0717
576.00,0.0716
575.00,0.0716
574.00,0.0719
573.00,0.0721
572.00,0.0721
571.00,0.0722
570.00,0.0723
569.00,0.0725
568.00,0.0725
567.00,0.0726
566.00,0.0729
565.00,0.0730
564.00,0.0729
563.00,0.0729
562.00,0.0729
561.00,0.0730
560.00,0.0729
559.00,0.0730
558.00,0.0732
557.00,0.0735
556.00,0.0736
555.00,0.0738
554.00,0.0742
553.00,0.0745
552.00,0.0747
551.00,0.0748
550.00,0.0751
549.00,0.0753
548.00,0.0754
547.00,0.0755
546.00,0.0757
545.00,0.0758
544.00,0.0757
543.00,0.0757
542.00,0.0758
541.00,0.0760
540.00,0.0760
539.00,0.0761
538.00,0.0763
537.00,0.0766
536.00,0.0767
535.00,0.0770
534.00,0.0774
533.00,0.0777
532.00,0.0777
531.00,0.0777
530.00,0.0779
529.00,0.0781
528.00,0.0781
527.00,0.0781
526.00,0.0782
525.00,0.0783
524.00,0.0782
523.00,0.0782
522.00,0.0785
521.00,0.0788
520.00,0.0788
519.00,0.0788
518.00,0.0789
517.00,0.0788
516.00,0.0786
515.00,0.0785
514.00,0.0786
513.00,0.0788
512.00,0.0787
511.00,0.0786
510.00,0.0787
509.00,0.0788
508.00,0.0785
507.00,0.0783
506.00,0.0782
505.00,0.0782
504.00,0.0780
503.00,0.0779
502.00,0.0781
501.00,0.0783
500.00,0.0783
499.00,0.0782
498.00,0.0783
497.00,0.0783
496.00,0.0781
495.00,0.0781
494.00,0.0782
493.00,0.0784
492.00,0.0783
491.00,0.0783
490.00,0.0786
489.00,0.0787
488.00,0.0784
487.00,0.0782
486.00,0.0784
485.00,0.0786
484.00,0.0785
483.00,0.0783
482.00,0.0783
481.00,0.0783
480.00,0.0781
479.00,0.0782
478.00,0.0786
477.00,0.0789
476.00,0.0786
475.00,0.0783
474.00,0.0783
473.00,0.0782
472.00,0.0779
471.00,0.0778
470.00,0.0782
469.00,0.0784
468.00,0.0783
467.00,0.0784
466.00,0.0790
465.00,0.0794
464.00,0.0792
463.00,0.0786
462.00,0.0784
461.00,0.0781
460.00,0.0776
459.00,0.0771
458.00,0.0770
457.00,0.0768
456.00,0.0764
455.00,0.0764
454.00,0.0768
453.00,0.0768
452.00,0.0760
451.00,0.0753
450.00,0.0754
449.00,0.0758
448.00,0.0760
447.00,0.0761
446.00,0.0763
445.00,0.0762
444.00,0.0754
443.00,0.0748
442.00,0.0750
441.00,0.0754
440.00,0.0754
439.00,0.0753
438.00,0.0757
437.00,0.0758
436.00,0.0753
435.00,0.0749
434.00,0.0750
433.00,0.0751
432.00,0.0747
431.00,0.0746
430.00,0.0753
429.00,0.0757
428.00,0.0753
427.00,0.0747
426.00,0.0746
425.00,0.0745
424.00,0.0740
423.00,0.0737
422.00,0.0741
421.00,0.0745
420.00,0.0742
419.00,0.0740
418.00,0.0746
417.00,0.0747
416.00,0.0736
415.00,0.0728
414.00,0.0730
413.00,0.0733
412.00,0.0726
411.00,0.0718
410.00,0.0715
409.00,0.0708
408.00,0.0692
407.00,0.0686
406.00,0.0701
405.00,0.0718
404.00,0.0719
403.00,0.0718
402.00,0.0729
401.00,0.0740
400.00,0.0730
