Created as New Dataset,Sample 571 By YargerLab Date Thursday, June 05 2025
cm-1,A
4000.00,0.0007
3999.00,0.0007
3998.00,0.0006
3997.00,0.0006
3996.00,0.0006
3995.00,0.0006
3994.00,0.0006
3993.00,0.0006
3992.00,0.0006
3991.00,0.0006
3990.00,0.0006
3989.00,0.0006
3988.00,0.0006
3987.00,0.0006
3986.00,0.0006
3985.00,0.0006
3984.00,0.0006
3983.00,0.0006
3982.00,0.0006
3981.00,0.0006
3980.00,0.0006
3979.00,0.0006
3978.00,0.0006
3977.00,0.0006
3976.00,0.0006
3975.00,0.0006
3974.00,0.0006
3973.00,0.0006
3972.00,0.0005
3971.00,0.0005
3970.00,0.0005
3969.00,0.0005
3968.00,0.0005
3967.00,0.0005
3966.00,0.0005
3965.00,0.0006
3964.00,0.0006
3963.00,0.0006
3962.00,0.0006
3961.00,0.0006
3960.00,0.0006
3959.00,0.0005
3958.00,0.0005
3957.00,0.0005
3956.00,0.0005
3955.00,0.0005
3954.00,0.0005
3953.00,0.0005
3952.00,0.0005
3951.00,0.0005
3950.00,0.0005
3949.00,0.0005
3948.00,0.0005
3947.00,0.0005
3946.00,0.0005
3945.00,0.0005
3944.00,0.0005
3943.00,0.0005
3942.00,0.0005
3941.00,0.0005
3940.00,0.0005
3939.00,0.0006
3938.00,0.0006
3937.00,0.0006
3936.00,0.0006
3935.00,0.0006
3934.00,0.0005
3933.00,0.0005
3932.00,0.0005
3931.00,0.0005
3930.00,0.0005
3929.00,0.0005
3928.00,0.0005
3927.00,0.0005
3926.00,0.0005
3925.00,0.0005
3924.00,0.0005
3923.00,0.0005
3922.00,0.0005
3921.00,0.0005
3920.00,0.0005
3919.00,0.0005
3918.00,0.0005
3917.00,0.0005
3916.00,0.0005
3915.00,0.0005
3914.00,0.0005
3913.00,0.0005
3912.00,0.0005
3911.00,0.0005
3910.00,0.0005
3909.00,0.0005
3908.00,0.0005
3907.00,0.0005
3906.00,0.0004
3905.00,0.0004
3904.00,0.0004
3903.00,0.0004
3902.00,0.0004
3901.00,0.0004
3900.00,0.0004
3899.00,0.0004
3898.00,0.0004
3897.00,0.0004
3896.00,0.0005
3895.00,0.0005
3894.00,0.0005
3893.00,0.0005
3892.00,0.0005
3891.00,0.0005
3890.00,0.0004
3889.00,0.0004
3888.00,0.0004
3887.00,0.0004
3886.00,0.0004
3885.00,0.0004
3884.00,0.0004
3883.00,0.0004
3882.00,0.0004
3881.00,0.0004
3880.00,0.0004
3879.00,0.0004
3878.00,0.0004
3877.00,0.0004
3876.00,0.0004
3875.00,0.0004
3874.00,0.0004
3873.00,0.0004
3872.00,0.0004
3871.00,0.0004
3870.00,0.0004
3869.00,0.0004
3868.00,0.0004
3867.00,0.0004
3866.00,0.0004
3865.00,0.0004
3864.00,0.0003
3863.00,0.0004
3862.00,0.0004
3861.00,0.0004
3860.00,0.0004
3859.00,0.0004
3858.00,0.0004
3857.00,0.0004
3856.00,0.0005
3855.00,0.0005
3854.00,0.0004
3853.00,0.0004
3852.00,0.0003
3851.00,0.0003
3850.00,0.0003
3849.00,0.0003
3848.00,0.0003
3847.00,0.0004
3846.00,0.0004
3845.00,0.0004
3844.00,0.0004
3843.00,0.0004
3842.00,0.0004
3841.00,0.0004
3840.00,0.0004
3839.00,0.0004
3838.00,0.0003
3837.00,0.0003
3836.00,0.0003
3835.00,0.0004
3834.00,0.0004
3833.00,0.0004
3832.00,0.0004
3831.00,0.0004
3830.00,0.0004
3829.00,0.0004
3828.00,0.0004
3827.00,0.0003
3826.00,0.0003
3825.00,0.0003
3824.00,0.0003
3823.00,0.0003
3822.00,0.0004
3821.00,0.0004
3820.00,0.0004
3819.00,0.0004
3818.00,0.0004
3817.00,0.0004
3816.00,0.0003
3815.00,0.0003
3814.00,0.0004
3813.00,0.0004
3812.00,0.0004
3811.00,0.0004
3810.00,0.0004
3809.00,0.0004
3808.00,0.0004
3807.00,0.0004
3806.00,0.0004
3805.00,0.0004
3804.00,0.0003
3803.00,0.0003
3802.00,0.0003
3801.00,0.0003
3800.00,0.0004
3799.00,0.0004
3798.00,0.0004
3797.00,0.0004
3796.00,0.0004
3795.00,0.0004
3794.00,0.0004
3793.00,0.0004
3792.00,0.0004
3791.00,0.0004
3790.00,0.0004
3789.00,0.0004
3788.00,0.0004
3787.00,0.0004
3786.00,0.0004
3785.00,0.0004
3784.00,0.0004
3783.00,0.0004
3782.00,0.0004
3781.00,0.0004
3780.00,0.0004
3779.00,0.0004
3778.00,0.0005
3777.00,0.0005
3776.00,0.0005
3775.00,0.0005
3774.00,0.0006
3773.00,0.0006
3772.00,0.0006
3771.00,0.0006
3770.00,0.0005
3769.00,0.0005
3768.00,0.0005
3767.00,0.0005
3766.00,0.0005
3765.00,0.0005
3764.00,0.0005
3763.00,0.0005
3762.00,0.0005
3761.00,0.0005
3760.00,0.0005
3759.00,0.0005
3758.00,0.0005
3757.00,0.0005
3756.00,0.0005
3755.00,0.0005
3754.00,0.0005
3753.00,0.0004
3752.00,0.0004
3751.00,0.0004
3750.00,0.0003
3749.00,0.0003
3748.00,0.0003
3747.00,0.0003
3746.00,0.0004
3745.00,0.0004
3744.00,0.0004
3743.00,0.0004
3742.00,0.0004
3741.00,0.0004
3740.00,0.0004
3739.00,0.0004
3738.00,0.0004
3737.00,0.0004
3736.00,0.0003
3735.00,0.0003
3734.00,0.0003
3733.00,0.0003
3732.00,0.0004
3731.00,0.0004
3730.00,0.0004
3729.00,0.0005
3728.00,0.0005
3727.00,0.0005
3726.00,0.0005
3725.00,0.0005
3724.00,0.0005
3723.00,0.0005
3722.00,0.0004
3721.00,0.0004
3720.00,0.0004
3719.00,0.0005
3718.00,0.0004
3717.00,0.0004
3716.00,0.0004
3715.00,0.0004
3714.00,0.0004
3713.00,0.0005
3712.00,0.0005
3711.00,0.0006
3710.00,0.0006
3709.00,0.0006
3708.00,0.0007
3707.00,0.0007
3706.00,0.0006
3705.00,0.0006
3704.00,0.0006
3703.00,0.0006
3702.00,0.0006
3701.00,0.0007
3700.00,0.0007
3699.00,0.0007
3698.00,0.0007
3697.00,0.0007
3696.00,0.0007
3695.00,0.0007
3694.00,0.0007
3693.00,0.0007
3692.00,0.0007
3691.00,0.0007
3690.00,0.0007
3689.00,0.0007
3688.00,0.0008
3687.00,0.0008
3686.00,0.0009
3685.00,0.0009
3684.00,0.0009
3683.00,0.0009
3682.00,0.0009
3681.00,0.0010
3680.00,0.0010
3679.00,0.0010
3678.00,0.0010
3677.00,0.0010
3676.00,0.0010
3675.00,0.0011
3674.00,0.0011
3673.00,0.0011
3672.00,0.0012
3671.00,0.0012
3670.00,0.0013
3669.00,0.0013
3668.00,0.0014
3667.00,0.0015
3666.00,0.0016
3665.00,0.0016
3664.00,0.0017
3663.00,0.0017
3662.00,0.0018
3661.00,0.0018
3660.00,0.0019
3659.00,0.0019
3658.00,0.0019
3657.00,0.0020
3656.00,0.0020
3655.00,0.0021
3654.00,0.0021
3653.00,0.0022
3652.00,0.0022
3651.00,0.0022
3650.00,0.0023
3649.00,0.0024
3648.00,0.0026
3647.00,0.0027
3646.00,0.0028
3645.00,0.0029
3644.00,0.0030
3643.00,0.0030
3642.00,0.0030
3641.00,0.0031
3640.00,0.0031
3639.00,0.0032
3638.00,0.0033
3637.00,0.0034
3636.00,0.0034
3635.00,0.0035
3634.00,0.0036
3633.00,0.0036
3632.00,0.0037
3631.00,0.0037
3630.00,0.0038
3629.00,0.0040
3628.00,0.0042
3627.00,0.0043
3626.00,0.0044
3625.00,0.0044
3624.00,0.0044
3623.00,0.0044
3622.00,0.0045
3621.00,0.0045
3620.00,0.0046
3619.00,0.0048
3618.00,0.0049
3617.00,0.0050
3616.00,0.0051
3615.00,0.0051
3614.00,0.0052
3613.00,0.0054
3612.00,0.0055
3611.00,0.0056
3610.00,0.0057
3609.00,0.0058
3608.00,0.0059
3607.00,0.0060
3606.00,0.0061
3605.00,0.0062
3604.00,0.0063
3603.00,0.0063
3602.00,0.0064
3601.00,0.0065
3600.00,0.0067
3599.00,0.0068
3598.00,0.0068
3597.00,0.0069
3596.00,0.0070
3595.00,0.0070
3594.00,0.0071
3593.00,0.0072
3592.00,0.0073
3591.00,0.0074
3590.00,0.0074
3589.00,0.0075
3588.00,0.0077
3587.00,0.0079
3586.00,0.0081
3585.00,0.0083
3584.00,0.0084
3583.00,0.0085
3582.00,0.0085
3581.00,0.0086
3580.00,0.0087
3579.00,0.0088
3578.00,0.0089
3577.00,0.0090
3576.00,0.0091
3575.00,0.0092
3574.00,0.0093
3573.00,0.0094
3572.00,0.0095
3571.00,0.0095
3570.00,0.0095
3569.00,0.0095
3568.00,0.0097
3567.00,0.0099
3566.00,0.0102
3565.00,0.0104
3564.00,0.0105
3563.00,0.0106
3562.00,0.0106
3561.00,0.0107
3560.00,0.0108
3559.00,0.0110
3558.00,0.0111
3557.00,0.0112
3556.00,0.0113
3555.00,0.0113
3554.00,0.0115
3553.00,0.0116
3552.00,0.0117
3551.00,0.0119
3550.00,0.0119
3549.00,0.0120
3548.00,0.0121
3547.00,0.0122
3546.00,0.0124
3545.00,0.0125
3544.00,0.0127
3543.00,0.0128
3542.00,0.0128
3541.00,0.0129
3540.00,0.0130
3539.00,0.0131
3538.00,0.0132
3537.00,0.0133
3536.00,0.0135
3535.00,0.0136
3534.00,0.0137
3533.00,0.0138
3532.00,0.0139
3531.00,0.0139
3530.00,0.0140
3529.00,0.0141
3528.00,0.0143
3527.00,0.0144
3526.00,0.0145
3525.00,0.0146
3524.00,0.0147
3523.00,0.0148
3522.00,0.0149
3521.00,0.0150
3520.00,0.0151
3519.00,0.0152
3518.00,0.0153
3517.00,0.0154
3516.00,0.0155
3515.00,0.0156
3514.00,0.0157
3513.00,0.0158
3512.00,0.0159
3511.00,0.0160
3510.00,0.0161
3509.00,0.0163
3508.00,0.0163
3507.00,0.0164
3506.00,0.0165
3505.00,0.0166
3504.00,0.0167
3503.00,0.0169
3502.00,0.0171
3501.00,0.0172
3500.00,0.0173
3499.00,0.0173
3498.00,0.0174
3497.00,0.0174
3496.00,0.0176
3495.00,0.0177
3494.00,0.0179
3493.00,0.0180
3492.00,0.0181
3491.00,0.0182
3490.00,0.0183
3489.00,0.0184
3488.00,0.0185
3487.00,0.0186
3486.00,0.0187
3485.00,0.0188
3484.00,0.0188
3483.00,0.0190
3482.00,0.0191
3481.00,0.0192
3480.00,0.0194
3479.00,0.0195
3478.00,0.0196
3477.00,0.0197
3476.00,0.0198
3475.00,0.0199
3474.00,0.0200
3473.00,0.0201
3472.00,0.0202
3471.00,0.0203
3470.00,0.0204
3469.00,0.0205
3468.00,0.0206
3467.00,0.0207
3466.00,0.0208
3465.00,0.0210
3464.00,0.0211
3463.00,0.0212
3462.00,0.0213
3461.00,0.0214
3460.00,0.0215
3459.00,0.0216
3458.00,0.0217
3457.00,0.0218
3456.00,0.0219
3455.00,0.0220
3454.00,0.0221
3453.00,0.0222
3452.00,0.0223
3451.00,0.0224
3450.00,0.0224
3449.00,0.0225
3448.00,0.0227
3447.00,0.0228
3446.00,0.0230
3445.00,0.0231
3444.00,0.0232
3443.00,0.0233
3442.00,0.0234
3441.00,0.0235
3440.00,0.0237
3439.00,0.0238
3438.00,0.0239
3437.00,0.0240
3436.00,0.0241
3435.00,0.0242
3434.00,0.0243
3433.00,0.0244
3432.00,0.0245
3431.00,0.0246
3430.00,0.0247
3429.00,0.0248
3428.00,0.0250
3427.00,0.0251
3426.00,0.0252
3425.00,0.0253
3424.00,0.0253
3423.00,0.0254
3422.00,0.0256
3421.00,0.0257
3420.00,0.0258
3419.00,0.0260
3418.00,0.0261
3417.00,0.0262
3416.00,0.0263
3415.00,0.0264
3414.00,0.0266
3413.00,0.0267
3412.00,0.0268
3411.00,0.0269
3410.00,0.0270
3409.00,0.0271
3408.00,0.0272
3407.00,0.0273
3406.00,0.0274
3405.00,0.0275
3404.00,0.0276
3403.00,0.0277
3402.00,0.0278
3401.00,0.0279
3400.00,0.0280
3399.00,0.0282
3398.00,0.0283
3397.00,0.0284
3396.00,0.0285
3395.00,0.0286
3394.00,0.0287
3393.00,0.0288
3392.00,0.0290
3391.00,0.0291
3390.00,0.0293
3389.00,0.0294
3388.00,0.0295
3387.00,0.0296
3386.00,0.0298
3385.00,0.0299
3384.00,0.0300
3383.00,0.0301
3382.00,0.0302
3381.00,0.0303
3380.00,0.0304
3379.00,0.0306
3378.00,0.0307
3377.00,0.0309
3376.00,0.0310
3375.00,0.0312
3374.00,0.0313
3373.00,0.0315
3372.00,0.0316
3371.00,0.0317
3370.00,0.0318
3369.00,0.0319
3368.00,0.0321
3367.00,0.0322
3366.00,0.0324
3365.00,0.0326
3364.00,0.0328
3363.00,0.0330
3362.00,0.0331
3361.00,0.0333
3360.00,0.0335
3359.00,0.0337
3358.00,0.0339
3357.00,0.0341
3356.00,0.0343
3355.00,0.0344
3354.00,0.0345
3353.00,0.0347
3352.00,0.0348
3351.00,0.0350
3350.00,0.0352
3349.00,0.0354
3348.00,0.0356
3347.00,0.0358
3346.00,0.0360
3345.00,0.0361
3344.00,0.0363
3343.00,0.0365
3342.00,0.0367
3341.00,0.0368
3340.00,0.0370
3339.00,0.0372
3338.00,0.0375
3337.00,0.0378
3336.00,0.0380
3335.00,0.0383
3334.00,0.0385
3333.00,0.0388
3332.00,0.0390
3331.00,0.0393
3330.00,0.0395
3329.00,0.0397
3328.00,0.0399
3327.00,0.0401
3326.00,0.0404
3325.00,0.0407
3324.00,0.0411
3323.00,0.0414
3322.00,0.0417
3321.00,0.0420
3320.00,0.0423
3319.00,0.0426
3318.00,0.0429
3317.00,0.0432
3316.00,0.0435
3315.00,0.0438
3314.00,0.0441
3313.00,0.0444
3312.00,0.0447
3311.00,0.0449
3310.00,0.0452
3309.00,0.0455
3308.00,0.0459
3307.00,0.0462
3306.00,0.0466
3305.00,0.0470
3304.00,0.0474
3303.00,0.0479
3302.00,0.0483
3301.00,0.0487
3300.00,0.0490
3299.00,0.0494
3298.00,0.0496
3297.00,0.0499
3296.00,0.0502
3295.00,0.0506
3294.00,0.0509
3293.00,0.0513
3292.00,0.0517
3291.00,0.0521
3290.00,0.0525
3289.00,0.0529
3288.00,0.0532
3287.00,0.0535
3286.00,0.0538
3285.00,0.0541
3284.00,0.0543
3283.00,0.0546
3282.00,0.0548
3281.00,0.0550
3280.00,0.0552
3279.00,0.0554
3278.00,0.0555
3277.00,0.0556
3276.00,0.0556
3275.00,0.0556
3274.00,0.0556
3273.00,0.0556
3272.00,0.0556
3271.00,0.0556
3270.00,0.0556
3269.00,0.0556
3268.00,0.0556
3267.00,0.0554
3266.00,0.0553
3265.00,0.0551
3264.00,0.0548
3263.00,0.0546
3262.00,0.0543
3261.00,0.0540
3260.00,0.0537
3259.00,0.0534
3258.00,0.0530
3257.00,0.0526
3256.00,0.0523
3255.00,0.0520
3254.00,0.0517
3253.00,0.0514
3252.00,0.0511
3251.00,0.0507
3250.00,0.0503
3249.00,0.0499
3248.00,0.0495
3247.00,0.0492
3246.00,0.0490
3245.00,0.0487
3244.00,0.0485
3243.00,0.0482
3242.00,0.0479
3241.00,0.0476
3240.00,0.0473
3239.00,0.0470
3238.00,0.0467
3237.00,0.0463
3236.00,0.0460
3235.00,0.0456
3234.00,0.0453
3233.00,0.0451
3232.00,0.0450
3231.00,0.0449
3230.00,0.0447
3229.00,0.0445
3228.00,0.0443
3227.00,0.0442
3226.00,0.0440
3225.00,0.0438
3224.00,0.0436
3223.00,0.0434
3222.00,0.0431
3221.00,0.0429
3220.00,0.0427
3219.00,0.0425
3218.00,0.0423
3217.00,0.0422
3216.00,0.0420
3215.00,0.0419
3214.00,0.0417
3213.00,0.0416
3212.00,0.0414
3211.00,0.0412
3210.00,0.0411
3209.00,0.0409
3208.00,0.0408
3207.00,0.0407
3206.00,0.0405
3205.00,0.0404
3204.00,0.0402
3203.00,0.0400
3202.00,0.0399
3201.00,0.0397
3200.00,0.0395
3199.00,0.0394
3198.00,0.0393
3197.00,0.0392
3196.00,0.0391
3195.00,0.0389
3194.00,0.0387
3193.00,0.0386
3192.00,0.0384
3191.00,0.0383
3190.00,0.0382
3189.00,0.0380
3188.00,0.0379
3187.00,0.0377
3186.00,0.0376
3185.00,0.0374
3184.00,0.0373
3183.00,0.0371
3182.00,0.0369
3181.00,0.0368
3180.00,0.0366
3179.00,0.0365
3178.00,0.0364
3177.00,0.0363
3176.00,0.0362
3175.00,0.0360
3174.00,0.0359
3173.00,0.0357
3172.00,0.0356
3171.00,0.0354
3170.00,0.0353
3169.00,0.0352
3168.00,0.0350
3167.00,0.0349
3166.00,0.0348
3165.00,0.0346
3164.00,0.0345
3163.00,0.0344
3162.00,0.0343
3161.00,0.0341
3160.00,0.0340
3159.00,0.0338
3158.00,0.0337
3157.00,0.0335
3156.00,0.0334
3155.00,0.0332
3154.00,0.0330
3153.00,0.0328
3152.00,0.0327
3151.00,0.0327
3150.00,0.0327
3149.00,0.0326
3148.00,0.0325
3147.00,0.0325
3146.00,0.0324
3145.00,0.0323
3144.00,0.0322
3143.00,0.0320
3142.00,0.0319
3141.00,0.0317
3140.00,0.0316
3139.00,0.0315
3138.00,0.0314
3137.00,0.0314
3136.00,0.0314
3135.00,0.0314
3134.00,0.0313
3133.00,0.0312
3132.00,0.0311
3131.00,0.0311
3130.00,0.0310
3129.00,0.0310
3128.00,0.0309
3127.00,0.0309
3126.00,0.0308
3125.00,0.0308
3124.00,0.0307
3123.00,0.0305
3122.00,0.0304
3121.00,0.0303
3120.00,0.0302
3119.00,0.0302
3118.00,0.0302
3117.00,0.0302
3116.00,0.0303
3115.00,0.0303
3114.00,0.0304
3113.00,0.0305
3112.00,0.0305
3111.00,0.0305
3110.00,0.0304
3109.00,0.0304
3108.00,0.0305
3107.00,0.0305
3106.00,0.0306
3105.00,0.0306
3104.00,0.0306
3103.00,0.0306
3102.00,0.0306
3101.00,0.0307
3100.00,0.0307
3099.00,0.0308
3098.00,0.0309
3097.00,0.0310
3096.00,0.0310
3095.00,0.0310
3094.00,0.0310
3093.00,0.0310
3092.00,0.0309
3091.00,0.0309
3090.00,0.0309
3089.00,0.0309
3088.00,0.0310
3087.00,0.0310
3086.00,0.0310
3085.00,0.0310
3084.00,0.0310
3083.00,0.0309
3082.00,0.0309
3081.00,0.0309
3080.00,0.0309
3079.00,0.0309
3078.00,0.0309
3077.00,0.0310
3076.00,0.0310
3075.00,0.0311
3074.00,0.0311
3073.00,0.0311
3072.00,0.0310
3071.00,0.0309
3070.00,0.0308
3069.00,0.0307
3068.00,0.0306
3067.00,0.0305
3066.00,0.0305
3065.00,0.0304
3064.00,0.0304
3063.00,0.0303
3062.00,0.0303
3061.00,0.0302
3060.00,0.0300
3059.00,0.0299
3058.00,0.0297
3057.00,0.0295
3056.00,0.0294
3055.00,0.0293
3054.00,0.0291
3053.00,0.0289
3052.00,0.0288
3051.00,0.0286
3050.00,0.0285
3049.00,0.0284
3048.00,0.0282
3047.00,0.0281
3046.00,0.0278
3045.00,0.0276
3044.00,0.0275
3043.00,0.0274
3042.00,0.0273
3041.00,0.0272
3040.00,0.0272
3039.00,0.0271
3038.00,0.0270
3037.00,0.0268
3036.00,0.0266
3035.00,0.0264
3034.00,0.0263
3033.00,0.0263
3032.00,0.0262
3031.00,0.0262
3030.00,0.0261
3029.00,0.0260
3028.00,0.0258
3027.00,0.0257
3026.00,0.0255
3025.00,0.0253
3024.00,0.0252
3023.00,0.0251
3022.00,0.0249
3021.00,0.0248
3020.00,0.0246
3019.00,0.0244
3018.00,0.0242
3017.00,0.0241
3016.00,0.0239
3015.00,0.0238
3014.00,0.0237
3013.00,0.0237
3012.00,0.0236
3011.00,0.0236
3010.00,0.0235
3009.00,0.0235
3008.00,0.0234
3007.00,0.0234
3006.00,0.0233
3005.00,0.0232
3004.00,0.0231
3003.00,0.0230
3002.00,0.0230
3001.00,0.0230
3000.00,0.0229
2999.00,0.0228
2998.00,0.0228
2997.00,0.0228
2996.00,0.0228
2995.00,0.0229
2994.00,0.0229
2993.00,0.0230
2992.00,0.0232
2991.00,0.0234
2990.00,0.0236
2989.00,0.0238
2988.00,0.0240
2987.00,0.0242
2986.00,0.0243
2985.00,0.0244
2984.00,0.0245
2983.00,0.0246
2982.00,0.0248
2981.00,0.0251
2980.00,0.0254
2979.00,0.0258
2978.00,0.0262
2977.00,0.0266
2976.00,0.0270
2975.00,0.0274
2974.00,0.0277
2973.00,0.0281
2972.00,0.0284
2971.00,0.0288
2970.00,0.0292
2969.00,0.0295
2968.00,0.0299
2967.00,0.0303
2966.00,0.0306
2965.00,0.0308
2964.00,0.0311
2963.00,0.0312
2962.00,0.0314
2961.00,0.0314
2960.00,0.0315
2959.00,0.0314
2958.00,0.0314
2957.00,0.0313
2956.00,0.0311
2955.00,0.0308
2954.00,0.0306
2953.00,0.0304
2952.00,0.0302
2951.00,0.0300
2950.00,0.0298
2949.00,0.0297
2948.00,0.0296
2947.00,0.0296
2946.00,0.0297
2945.00,0.0298
2944.00,0.0300
2943.00,0.0302
2942.00,0.0305
2941.00,0.0307
2940.00,0.0310
2939.00,0.0313
2938.00,0.0315
2937.00,0.0318
2936.00,0.0320
2935.00,0.0322
2934.00,0.0324
2933.00,0.0325
2932.00,0.0327
2931.00,0.0327
2930.00,0.0328
2929.00,0.0328
2928.00,0.0329
2927.00,0.0329
2926.00,0.0329
2925.00,0.0329
2924.00,0.0329
2923.00,0.0327
2922.00,0.0326
2921.00,0.0324
2920.00,0.0322
2919.00,0.0319
2918.00,0.0316
2917.00,0.0312
2916.00,0.0307
2915.00,0.0303
2914.00,0.0298
2913.00,0.0294
2912.00,0.0290
2911.00,0.0286
2910.00,0.0282
2909.00,0.0279
2908.00,0.0276
2907.00,0.0273
2906.00,0.0270
2905.00,0.0267
2904.00,0.0265
2903.00,0.0263
2902.00,0.0260
2901.00,0.0258
2900.00,0.0257
2899.00,0.0255
2898.00,0.0253
2897.00,0.0252
2896.00,0.0250
2895.00,0.0249
2894.00,0.0247
2893.00,0.0246
2892.00,0.0246
2891.00,0.0245
2890.00,0.0244
2889.00,0.0244
2888.00,0.0243
2887.00,0.0243
2886.00,0.0243
2885.00,0.0244
2884.00,0.0244
2883.00,0.0245
2882.00,0.0247
2881.00,0.0248
2880.00,0.0250
2879.00,0.0251
2878.00,0.0253
2877.00,0.0253
2876.00,0.0254
2875.00,0.0254
2874.00,0.0254
2873.00,0.0253
2872.00,0.0252
2871.00,0.0251
2870.00,0.0249
2869.00,0.0247
2868.00,0.0244
2867.00,0.0242
2866.00,0.0240
2865.00,0.0238
2864.00,0.0237
2863.00,0.0235
2862.00,0.0234
2861.00,0.0233
2860.00,0.0233
2859.00,0.0233
2858.00,0.0233
2857.00,0.0233
2856.00,0.0233
2855.00,0.0234
2854.00,0.0234
2853.00,0.0233
2852.00,0.0232
2851.00,0.0230
2850.00,0.0227
2849.00,0.0223
2848.00,0.0220
2847.00,0.0216
2846.00,0.0211
2845.00,0.0208
2844.00,0.0204
2843.00,0.0201
2842.00,0.0198
2841.00,0.0196
2840.00,0.0194
2839.00,0.0192
2838.00,0.0191
2837.00,0.0189
2836.00,0.0188
2835.00,0.0187
2834.00,0.0186
2833.00,0.0186
2832.00,0.0185
2831.00,0.0184
2830.00,0.0183
2829.00,0.0183
2828.00,0.0182
2827.00,0.0182
2826.00,0.0181
2825.00,0.0180
2824.00,0.0180
2823.00,0.0179
2822.00,0.0179
2821.00,0.0179
2820.00,0.0178
2819.00,0.0178
2818.00,0.0177
2817.00,0.0177
2816.00,0.0177
2815.00,0.0176
2814.00,0.0176
2813.00,0.0175
2812.00,0.0175
2811.00,0.0174
2810.00,0.0174
2809.00,0.0174
2808.00,0.0173
2807.00,0.0173
2806.00,0.0173
2805.00,0.0172
2804.00,0.0172
2803.00,0.0171
2802.00,0.0171
2801.00,0.0170
2800.00,0.0170
2799.00,0.0169
2798.00,0.0169
2797.00,0.0168
2796.00,0.0168
2795.00,0.0167
2794.00,0.0167
2793.00,0.0166
2792.00,0.0166
2791.00,0.0165
2790.00,0.0164
2789.00,0.0164
2788.00,0.0164
2787.00,0.0163
2786.00,0.0163
2785.00,0.0162
2784.00,0.0162
2783.00,0.0161
2782.00,0.0160
2781.00,0.0159
2780.00,0.0158
2779.00,0.0157
2778.00,0.0157
2777.00,0.0156
2776.00,0.0155
2775.00,0.0154
2774.00,0.0153
2773.00,0.0153
2772.00,0.0152
2771.00,0.0151
2770.00,0.0151
2769.00,0.0150
2768.00,0.0149
2767.00,0.0148
2766.00,0.0147
2765.00,0.0146
2764.00,0.0146
2763.00,0.0145
2762.00,0.0144
2761.00,0.0143
2760.00,0.0142
2759.00,0.0142
2758.00,0.0141
2757.00,0.0141
2756.00,0.0140
2755.00,0.0139
2754.00,0.0139
2753.00,0.0138
2752.00,0.0138
2751.00,0.0137
2750.00,0.0137
2749.00,0.0136
2748.00,0.0136
2747.00,0.0135
2746.00,0.0134
2745.00,0.0134
2744.00,0.0133
2743.00,0.0133
2742.00,0.0133
2741.00,0.0132
2740.00,0.0132
2739.00,0.0131
2738.00,0.0130
2737.00,0.0130
2736.00,0.0130
2735.00,0.0129
2734.00,0.0129
2733.00,0.0129
2732.00,0.0128
2731.00,0.0128
2730.00,0.0127
2729.00,0.0127
2728.00,0.0126
2727.00,0.0126
2726.00,0.0125
2725.00,0.0125
2724.00,0.0125
2723.00,0.0125
2722.00,0.0124
2721.00,0.0124
2720.00,0.0123
2719.00,0.0123
2718.00,0.0122
2717.00,0.0122
2716.00,0.0122
2715.00,0.0121
2714.00,0.0121
2713.00,0.0120
2712.00,0.0120
2711.00,0.0119
2710.00,0.0119
2709.00,0.0119
2708.00,0.0118
2707.00,0.0118
2706.00,0.0118
2705.00,0.0117
2704.00,0.0117
2703.00,0.0117
2702.00,0.0116
2701.00,0.0116
2700.00,0.0116
2699.00,0.0116
2698.00,0.0115
2697.00,0.0115
2696.00,0.0115
2695.00,0.0114
2694.00,0.0114
2693.00,0.0114
2692.00,0.0114
2691.00,0.0113
2690.00,0.0113
2689.00,0.0112
2688.00,0.0112
2687.00,0.0111
2686.00,0.0111
2685.00,0.0110
2684.00,0.0110
2683.00,0.0109
2682.00,0.0109
2681.00,0.0108
2680.00,0.0108
2679.00,0.0108
2678.00,0.0107
2677.00,0.0107
2676.00,0.0107
2675.00,0.0106
2674.00,0.0106
2673.00,0.0105
2672.00,0.0105
2671.00,0.0104
2670.00,0.0104
2669.00,0.0103
2668.00,0.0103
2667.00,0.0103
2666.00,0.0103
2665.00,0.0104
2664.00,0.0104
2663.00,0.0104
2662.00,0.0104
2661.00,0.0104
2660.00,0.0104
2659.00,0.0104
2658.00,0.0103
2657.00,0.0103
2656.00,0.0103
2655.00,0.0102
2654.00,0.0102
2653.00,0.0102
2652.00,0.0102
2651.00,0.0101
2650.00,0.0101
2649.00,0.0101
2648.00,0.0100
2647.00,0.0100
2646.00,0.0099
2645.00,0.0099
2644.00,0.0099
2643.00,0.0098
2642.00,0.0098
2641.00,0.0097
2640.00,0.0097
2639.00,0.0096
2638.00,0.0096
2637.00,0.0096
2636.00,0.0096
2635.00,0.0095
2634.00,0.0095
2633.00,0.0095
2632.00,0.0095
2631.00,0.0094
2630.00,0.0094
2629.00,0.0093
2628.00,0.0093
2627.00,0.0092
2626.00,0.0092
2625.00,0.0092
2624.00,0.0092
2623.00,0.0091
2622.00,0.0091
2621.00,0.0090
2620.00,0.0090
2619.00,0.0090
2618.00,0.0089
2617.00,0.0089
2616.00,0.0089
2615.00,0.0089
2614.00,0.0088
2613.00,0.0088
2612.00,0.0088
2611.00,0.0087
2610.00,0.0087
2609.00,0.0086
2608.00,0.0086
2607.00,0.0085
2606.00,0.0085
2605.00,0.0085
2604.00,0.0085
2603.00,0.0084
2602.00,0.0084
2601.00,0.0083
2600.00,0.0083
2599.00,0.0083
2598.00,0.0082
2597.00,0.0082
2596.00,0.0082
2595.00,0.0081
2594.00,0.0081
2593.00,0.0081
2592.00,0.0081
2591.00,0.0080
2590.00,0.0080
2589.00,0.0080
2588.00,0.0079
2587.00,0.0079
2586.00,0.0079
2585.00,0.0078
2584.00,0.0078
2583.00,0.0078
2582.00,0.0078
2581.00,0.0078
2580.00,0.0077
2579.00,0.0077
2578.00,0.0076
2577.00,0.0076
2576.00,0.0076
2575.00,0.0075
2574.00,0.0075
2573.00,0.0074
2572.00,0.0074
2571.00,0.0074
2570.00,0.0074
2569.00,0.0074
2568.00,0.0074
2567.00,0.0074
2566.00,0.0074
2565.00,0.0073
2564.00,0.0073
2563.00,0.0073
2562.00,0.0072
2561.00,0.0072
2560.00,0.0072
2559.00,0.0072
2558.00,0.0071
2557.00,0.0071
2556.00,0.0071
2555.00,0.0070
2554.00,0.0070
2553.00,0.0070
2552.00,0.0070
2551.00,0.0070
2550.00,0.0070
2549.00,0.0069
2548.00,0.0069
2547.00,0.0069
2546.00,0.0068
2545.00,0.0068
2544.00,0.0068
2543.00,0.0067
2542.00,0.0067
2541.00,0.0067
2540.00,0.0067
2539.00,0.0066
2538.00,0.0066
2537.00,0.0066
2536.00,0.0066
2535.00,0.0066
2534.00,0.0065
2533.00,0.0065
2532.00,0.0065
2531.00,0.0065
2530.00,0.0065
2529.00,0.0064
2528.00,0.0064
2527.00,0.0063
2526.00,0.0063
2525.00,0.0063
2524.00,0.0063
2523.00,0.0063
2522.00,0.0063
2521.00,0.0063
2520.00,0.0063
2519.00,0.0063
2518.00,0.0063
2517.00,0.0062
2516.00,0.0062
2515.00,0.0061
2514.00,0.0061
2513.00,0.0061
2512.00,0.0061
2511.00,0.0061
2510.00,0.0061
2509.00,0.0061
2508.00,0.0061
2507.00,0.0061
2506.00,0.0060
2505.00,0.0060
2504.00,0.0060
2503.00,0.0059
2502.00,0.0059
2501.00,0.0059
2500.00,0.0059
2499.00,0.0058
2498.00,0.0058
2497.00,0.0058
2496.00,0.0057
2495.00,0.0057
2494.00,0.0057
2493.00,0.0056
2492.00,0.0056
2491.00,0.0056
2490.00,0.0056
2489.00,0.0056
2488.00,0.0056
2487.00,0.0055
2486.00,0.0055
2485.00,0.0055
2484.00,0.0055
2483.00,0.0055
2482.00,0.0054
2481.00,0.0053
2480.00,0.0053
2479.00,0.0053
2478.00,0.0052
2477.00,0.0052
2476.00,0.0052
2475.00,0.0052
2474.00,0.0052
2473.00,0.0052
2472.00,0.0051
2471.00,0.0051
2470.00,0.0051
2469.00,0.0051
2468.00,0.0051
2467.00,0.0051
2466.00,0.0051
2465.00,0.0051
2464.00,0.0051
2463.00,0.0051
2462.00,0.0050
2461.00,0.0050
2460.00,0.0051
2459.00,0.0051
2458.00,0.0051
2457.00,0.0051
2456.00,0.0050
2455.00,0.0050
2454.00,0.0050
2453.00,0.0049
2452.00,0.0049
2451.00,0.0049
2450.00,0.0049
2449.00,0.0049
2448.00,0.0048
2447.00,0.0048
2446.00,0.0047
2445.00,0.0047
2444.00,0.0047
2443.00,0.0046
2442.00,0.0045
2441.00,0.0045
2440.00,0.0045
2439.00,0.0045
2438.00,0.0045
2437.00,0.0044
2436.00,0.0044
2435.00,0.0043
2434.00,0.0043
2433.00,0.0043
2432.00,0.0043
2431.00,0.0043
2430.00,0.0043
2429.00,0.0043
2428.00,0.0043
2427.00,0.0042
2426.00,0.0042
2425.00,0.0042
2424.00,0.0041
2423.00,0.0041
2422.00,0.0041
2421.00,0.0041
2420.00,0.0041
2419.00,0.0040
2418.00,0.0040
2417.00,0.0040
2416.00,0.0040
2415.00,0.0040
2414.00,0.0040
2413.00,0.0040
2412.00,0.0040
2411.00,0.0040
2410.00,0.0039
2409.00,0.0038
2408.00,0.0037
2407.00,0.0037
2406.00,0.0037
2405.00,0.0037
2404.00,0.0037
2403.00,0.0037
2402.00,0.0037
2401.00,0.0037
2400.00,0.0036
2399.00,0.0036
2398.00,0.0036
2397.00,0.0036
2396.00,0.0036
2395.00,0.0035
2394.00,0.0035
2393.00,0.0035
2392.00,0.0035
2391.00,0.0035
2390.00,0.0035
2389.00,0.0034
2388.00,0.0034
2387.00,0.0034
2386.00,0.0033
2385.00,0.0033
2384.00,0.0032
2383.00,0.0032
2382.00,0.0031
2381.00,0.0031
2380.00,0.0031
2379.00,0.0031
2378.00,0.0031
2377.00,0.0031
2376.00,0.0031
2375.00,0.0031
2374.00,0.0031
2373.00,0.0030
2372.00,0.0030
2371.00,0.0029
2370.00,0.0029
2369.00,0.0029
2368.00,0.0029
2367.00,0.0029
2366.00,0.0029
2365.00,0.0029
2364.00,0.0030
2363.00,0.0030
2362.00,0.0031
2361.00,0.0031
2360.00,0.0031
2359.00,0.0031
2358.00,0.0031
2357.00,0.0030
2356.00,0.0030
2355.00,0.0030
2354.00,0.0030
2353.00,0.0029
2352.00,0.0029
2351.00,0.0027
2350.00,0.0027
2349.00,0.0028
2348.00,0.0030
2347.00,0.0032
2346.00,0.0033
2345.00,0.0034
2344.00,0.0033
2343.00,0.0032
2342.00,0.0032
2341.00,0.0032
2340.00,0.0033
2339.00,0.0033
2338.00,0.0032
2337.00,0.0033
2336.00,0.0033
2335.00,0.0033
2334.00,0.0032
2333.00,0.0031
2332.00,0.0031
2331.00,0.0030
2330.00,0.0030
2329.00,0.0032
2328.00,0.0036
2327.00,0.0040
2326.00,0.0043
2325.00,0.0045
2324.00,0.0044
2323.00,0.0041
2322.00,0.0039
2321.00,0.0037
2320.00,0.0035
2319.00,0.0035
2318.00,0.0034
2317.00,0.0034
2316.00,0.0035
2315.00,0.0035
2314.00,0.0035
2313.00,0.0034
2312.00,0.0034
2311.00,0.0033
2310.00,0.0033
2309.00,0.0033
2308.00,0.0032
2307.00,0.0032
2306.00,0.0032
2305.00,0.0033
2304.00,0.0033
2303.00,0.0033
2302.00,0.0034
2301.00,0.0034
2300.00,0.0034
2299.00,0.0035
2298.00,0.0036
2297.00,0.0036
2296.00,0.0037
2295.00,0.0037
2294.00,0.0038
2293.00,0.0038
2292.00,0.0039
2291.00,0.0040
2290.00,0.0040
2289.00,0.0041
2288.00,0.0041
2287.00,0.0041
2286.00,0.0041
2285.00,0.0041
2284.00,0.0040
2283.00,0.0039
2282.00,0.0038
2281.00,0.0038
2280.00,0.0039
2279.00,0.0039
2278.00,0.0039
2277.00,0.0038
2276.00,0.0038
2275.00,0.0037
2274.00,0.0036
2273.00,0.0035
2272.00,0.0035
2271.00,0.0034
2270.00,0.0034
2269.00,0.0033
2268.00,0.0032
2267.00,0.0031
2266.00,0.0031
2265.00,0.0031
2264.00,0.0031
2263.00,0.0032
2262.00,0.0032
2261.00,0.0032
2260.00,0.0032
2259.00,0.0032
2258.00,0.0031
2257.00,0.0031
2256.00,0.0030
2255.00,0.0029
2254.00,0.0029
2253.00,0.0029
2252.00,0.0029
2251.00,0.0029
2250.00,0.0028
2249.00,0.0028
2248.00,0.0028
2247.00,0.0029
2246.00,0.0029
2245.00,0.0030
2244.00,0.0030
2243.00,0.0030
2242.00,0.0029
2241.00,0.0029
2240.00,0.0029
2239.00,0.0029
2238.00,0.0028
2237.00,0.0028
2236.00,0.0028
2235.00,0.0028
2234.00,0.0029
2233.00,0.0030
2232.00,0.0031
2231.00,0.0031
2230.00,0.0031
2229.00,0.0031
2228.00,0.0029
2227.00,0.0028
2226.00,0.0027
2225.00,0.0027
2224.00,0.0028
2223.00,0.0028
2222.00,0.0028
2221.00,0.0028
2220.00,0.0027
2219.00,0.0026
2218.00,0.0026
2217.00,0.0027
2216.00,0.0029
2215.00,0.0030
2214.00,0.0030
2213.00,0.0030
2212.00,0.0029
2211.00,0.0028
2210.00,0.0026
2209.00,0.0025
2208.00,0.0025
2207.00,0.0025
2206.00,0.0025
2205.00,0.0026
2204.00,0.0027
2203.00,0.0028
2202.00,0.0028
2201.00,0.0029
2200.00,0.0029
2199.00,0.0028
2198.00,0.0027
2197.00,0.0026
2196.00,0.0027
2195.00,0.0028
2194.00,0.0029
2193.00,0.0029
2192.00,0.0030
2191.00,0.0031
2190.00,0.0031
2189.00,0.0031
2188.00,0.0031
2187.00,0.0030
2186.00,0.0028
2185.00,0.0026
2184.00,0.0024
2183.00,0.0023
2182.00,0.0022
2181.00,0.0023
2180.00,0.0025
2179.00,0.0026
2178.00,0.0025
2177.00,0.0023
2176.00,0.0021
2175.00,0.0019
2174.00,0.0020
2173.00,0.0023
2172.00,0.0026
2171.00,0.0029
2170.00,0.0031
2169.00,0.0031
2168.00,0.0031
2167.00,0.0031
2166.00,0.0031
2165.00,0.0032
2164.00,0.0034
2163.00,0.0034
2162.00,0.0029
2161.00,0.0018
2160.00,0.0004
2159.00,-0.0008
2158.00,-0.0012
2157.00,-0.0011
2156.00,-0.0007
2155.00,-0.0004
2154.00,-0.0001
2153.00,0.0002
2152.00,0.0005
2151.00,0.0007
2150.00,0.0007
2149.00,0.0007
2148.00,0.0006
2147.00,0.0006
2146.00,0.0006
2145.00,0.0006
2144.00,0.0007
2143.00,0.0007
2142.00,0.0008
2141.00,0.0009
2140.00,0.0011
2139.00,0.0011
2138.00,0.0009
2137.00,0.0007
2136.00,0.0004
2135.00,0.0002
2134.00,0.0001
2133.00,0.0003
2132.00,0.0006
2131.00,0.0008
2130.00,0.0010
2129.00,0.0012
2128.00,0.0014
2127.00,0.0015
2126.00,0.0016
2125.00,0.0017
2124.00,0.0018
2123.00,0.0019
2122.00,0.0020
2121.00,0.0020
2120.00,0.0021
2119.00,0.0022
2118.00,0.0022
2117.00,0.0023
2116.00,0.0024
2115.00,0.0025
2114.00,0.0026
2113.00,0.0026
2112.00,0.0026
2111.00,0.0026
2110.00,0.0025
2109.00,0.0024
2108.00,0.0024
2107.00,0.0024
2106.00,0.0024
2105.00,0.0024
2104.00,0.0024
2103.00,0.0024
2102.00,0.0025
2101.00,0.0025
2100.00,0.0025
2099.00,0.0024
2098.00,0.0022
2097.00,0.0021
2096.00,0.0020
2095.00,0.0020
2094.00,0.0020
2093.00,0.0021
2092.00,0.0022
2091.00,0.0022
2090.00,0.0023
2089.00,0.0023
2088.00,0.0024
2087.00,0.0024
2086.00,0.0024
2085.00,0.0024
2084.00,0.0025
2083.00,0.0025
2082.00,0.0025
2081.00,0.0026
2080.00,0.0026
2079.00,0.0026
2078.00,0.0026
2077.00,0.0026
2076.00,0.0026
2075.00,0.0025
2074.00,0.0024
2073.00,0.0024
2072.00,0.0023
2071.00,0.0022
2070.00,0.0022
2069.00,0.0022
2068.00,0.0023
2067.00,0.0023
2066.00,0.0022
2065.00,0.0022
2064.00,0.0023
2063.00,0.0022
2062.00,0.0022
2061.00,0.0022
2060.00,0.0022
2059.00,0.0022
2058.00,0.0022
2057.00,0.0022
2056.00,0.0022
2055.00,0.0023
2054.00,0.0025
2053.00,0.0029
2052.00,0.0031
2051.00,0.0031
2050.00,0.0028
2049.00,0.0024
2048.00,0.0022
2047.00,0.0019
2046.00,0.0017
2045.00,0.0017
2044.00,0.0018
2043.00,0.0019
2042.00,0.0020
2041.00,0.0021
2040.00,0.0021
2039.00,0.0021
2038.00,0.0019
2037.00,0.0018
2036.00,0.0017
2035.00,0.0016
2034.00,0.0015
2033.00,0.0014
2032.00,0.0013
2031.00,0.0012
2030.00,0.0010
2029.00,0.0011
2028.00,0.0012
2027.00,0.0012
2026.00,0.0011
2025.00,0.0010
2024.00,0.0009
2023.00,0.0009
2022.00,0.0007
2021.00,0.0007
2020.00,0.0008
2019.00,0.0009
2018.00,0.0010
2017.00,0.0010
2016.00,0.0010
2015.00,0.0009
2014.00,0.0009
2013.00,0.0010
2012.00,0.0012
2011.00,0.0012
2010.00,0.0011
2009.00,0.0009
2008.00,0.0005
2007.00,0.0002
2006.00,0.0001
2005.00,0.0002
2004.00,0.0004
2003.00,0.0005
2002.00,0.0006
2001.00,0.0008
2000.00,0.0009
1999.00,0.0010
1998.00,0.0010
1997.00,0.0011
1996.00,0.0013
1995.00,0.0014
1994.00,0.0014
1993.00,0.0015
1992.00,0.0016
1991.00,0.0016
1990.00,0.0016
1989.00,0.0015
1988.00,0.0015
1987.00,0.0014
1986.00,0.0014
1985.00,0.0015
1984.00,0.0018
1983.00,0.0021
1982.00,0.0023
1981.00,0.0024
1980.00,0.0023
1979.00,0.0018
1978.00,0.0012
1977.00,0.0009
1976.00,0.0007
1975.00,0.0004
1974.00,0.0001
1973.00,0.0001
1972.00,0.0001
1971.00,0.0001
1970.00,0.0001
1969.00,0.0002
1968.00,0.0003
1967.00,0.0004
1966.00,0.0003
1965.00,0.0003
1964.00,0.0004
1963.00,0.0003
1962.00,0.0001
1961.00,0.0000
1960.00,-0.0000
1959.00,-0.0001
1958.00,-0.0001
1957.00,0.0001
1956.00,0.0004
1955.00,0.0006
1954.00,0.0006
1953.00,0.0006
1952.00,0.0006
1951.00,0.0005
1950.00,0.0004
1949.00,0.0005
1948.00,0.0006
1947.00,0.0006
1946.00,0.0007
1945.00,0.0007
1944.00,0.0008
1943.00,0.0008
1942.00,0.0007
1941.00,0.0006
1940.00,0.0006
1939.00,0.0007
1938.00,0.0008
1937.00,0.0009
1936.00,0.0009
1935.00,0.0009
1934.00,0.0008
1933.00,0.0009
1932.00,0.0009
1931.00,0.0009
1930.00,0.0009
1929.00,0.0009
1928.00,0.0010
1927.00,0.0010
1926.00,0.0011
1925.00,0.0013
1924.00,0.0014
1923.00,0.0013
1922.00,0.0012
1921.00,0.0012
1920.00,0.0013
1919.00,0.0014
1918.00,0.0013
1917.00,0.0011
1916.00,0.0011
1915.00,0.0012
1914.00,0.0013
1913.00,0.0014
1912.00,0.0015
1911.00,0.0015
1910.00,0.0014
1909.00,0.0014
1908.00,0.0014
1907.00,0.0015
1906.00,0.0015
1905.00,0.0016
1904.00,0.0016
1903.00,0.0016
1902.00,0.0016
1901.00,0.0015
1900.00,0.0015
1899.00,0.0015
1898.00,0.0015
1897.00,0.0016
1896.00,0.0017
1895.00,0.0017
1894.00,0.0016
1893.00,0.0016
1892.00,0.0017
1891.00,0.0018
1890.00,0.0017
1889.00,0.0016
1888.00,0.0015
1887.00,0.0015
1886.00,0.0015
1885.00,0.0016
1884.00,0.0017
1883.00,0.0017
1882.00,0.0017
1881.00,0.0017
1880.00,0.0017
1879.00,0.0017
1878.00,0.0017
1877.00,0.0017
1876.00,0.0017
1875.00,0.0018
1874.00,0.0018
1873.00,0.0019
1872.00,0.0020
1871.00,0.0021
1870.00,0.0021
1869.00,0.0019
1868.00,0.0017
1867.00,0.0014
1866.00,0.0013
1865.00,0.0014
1864.00,0.0015
1863.00,0.0017
1862.00,0.0017
1861.00,0.0018
1860.00,0.0019
1859.00,0.0019
1858.00,0.0019
1857.00,0.0019
1856.00,0.0019
1855.00,0.0019
1854.00,0.0019
1853.00,0.0019
1852.00,0.0019
1851.00,0.0019
1850.00,0.0019
1849.00,0.0019
1848.00,0.0019
1847.00,0.0019
1846.00,0.0019
1845.00,0.0019
1844.00,0.0019
1843.00,0.0020
1842.00,0.0020
1841.00,0.0020
1840.00,0.0021
1839.00,0.0021
1838.00,0.0021
1837.00,0.0021
1836.00,0.0022
1835.00,0.0022
1834.00,0.0022
1833.00,0.0021
1832.00,0.0022
1831.00,0.0020
1830.00,0.0023
1829.00,0.0024
1828.00,0.0021
1827.00,0.0023
1826.00,0.0024
1825.00,0.0024
1824.00,0.0022
1823.00,0.0022
1822.00,0.0022
1821.00,0.0024
1820.00,0.0025
1819.00,0.0024
1818.00,0.0024
1817.00,0.0023
1816.00,0.0024
1815.00,0.0025
1814.00,0.0026
1813.00,0.0028
1812.00,0.0029
1811.00,0.0030
1810.00,0.0029
1809.00,0.0028
1808.00,0.0028
1807.00,0.0028
1806.00,0.0029
1805.00,0.0030
1804.00,0.0032
1803.00,0.0033
1802.00,0.0034
1801.00,0.0031
1800.00,0.0029
1799.00,0.0030
1798.00,0.0030
1797.00,0.0031
1796.00,0.0031
1795.00,0.0031
1794.00,0.0030
1793.00,0.0030
1792.00,0.0031
1791.00,0.0032
1790.00,0.0033
1789.00,0.0034
1788.00,0.0035
1787.00,0.0035
1786.00,0.0035
1785.00,0.0035
1784.00,0.0035
1783.00,0.0036
1782.00,0.0036
1781.00,0.0036
1780.00,0.0037
1779.00,0.0037
1778.00,0.0037
1777.00,0.0037
1776.00,0.0037
1775.00,0.0037
1774.00,0.0036
1773.00,0.0036
1772.00,0.0037
1771.00,0.0037
1770.00,0.0038
1769.00,0.0040
1768.00,0.0042
1767.00,0.0044
1766.00,0.0045
1765.00,0.0046
1764.00,0.0047
1763.00,0.0047
1762.00,0.0048
1761.00,0.0049
1760.00,0.0051
1759.00,0.0052
1758.00,0.0052
1757.00,0.0053
1756.00,0.0056
1755.00,0.0056
1754.00,0.0058
1753.00,0.0062
1752.00,0.0064
1751.00,0.0064
1750.00,0.0064
1749.00,0.0066
1748.00,0.0071
1747.00,0.0073
1746.00,0.0077
1745.00,0.0076
1744.00,0.0076
1743.00,0.0078
1742.00,0.0079
1741.00,0.0081
1740.00,0.0084
1739.00,0.0087
1738.00,0.0089
1737.00,0.0090
1736.00,0.0091
1735.00,0.0092
1734.00,0.0094
1733.00,0.0098
1732.00,0.0101
1731.00,0.0104
1730.00,0.0106
1729.00,0.0108
1728.00,0.0111
1727.00,0.0113
1726.00,0.0116
1725.00,0.0120
1724.00,0.0123
1723.00,0.0126
1722.00,0.0129
1721.00,0.0133
1720.00,0.0137
1719.00,0.0140
1718.00,0.0140
1717.00,0.0139
1716.00,0.0140
1715.00,0.0145
1714.00,0.0153
1713.00,0.0162
1712.00,0.0171
1711.00,0.0181
1710.00,0.0190
1709.00,0.0199
1708.00,0.0210
1707.00,0.0222
1706.00,0.0236
1705.00,0.0250
1704.00,0.0264
1703.00,0.0276
1702.00,0.0291
1701.00,0.0315
1700.00,0.0347
1699.00,0.0373
1698.00,0.0395
1697.00,0.0419
1696.00,0.0444
1695.00,0.0460
1694.00,0.0470
1693.00,0.0481
1692.00,0.0494
1691.00,0.0506
1690.00,0.0518
1689.00,0.0529
1688.00,0.0538
1687.00,0.0543
1686.00,0.0549
1685.00,0.0565
1684.00,0.0591
1683.00,0.0611
1682.00,0.0625
1681.00,0.0641
1680.00,0.0658
1679.00,0.0671
1678.00,0.0681
1677.00,0.0692
1676.00,0.0708
1675.00,0.0728
1674.00,0.0745
1673.00,0.0758
1672.00,0.0772
1671.00,0.0790
1670.00,0.0813
1669.00,0.0837
1668.00,0.0856
1667.00,0.0870
1666.00,0.0882
1665.00,0.0895
1664.00,0.0914
1663.00,0.0939
1662.00,0.0965
1661.00,0.0987
1660.00,0.1005
1659.00,0.1021
1658.00,0.1035
1657.00,0.1043
1656.00,0.1045
1655.00,0.1047
1654.00,0.1069
1653.00,0.1114
1652.00,0.1141
1651.00,0.1143
1650.00,0.1143
1649.00,0.1144
1648.00,0.1151
1647.00,0.1165
1646.00,0.1176
1645.00,0.1177
1644.00,0.1174
1643.00,0.1173
1642.00,0.1172
1641.00,0.1173
1640.00,0.1172
1639.00,0.1170
1638.00,0.1168
1637.00,0.1175
1636.00,0.1198
1635.00,0.1224
1634.00,0.1239
1633.00,0.1248
1632.00,0.1257
1631.00,0.1267
1630.00,0.1282
1629.00,0.1303
1628.00,0.1329
1627.00,0.1354
1626.00,0.1372
1625.00,0.1390
1624.00,0.1416
1623.00,0.1447
1622.00,0.1469
1621.00,0.1476
1620.00,0.1472
1619.00,0.1462
1618.00,0.1454
1617.00,0.1450
1616.00,0.1442
1615.00,0.1424
1614.00,0.1397
1613.00,0.1365
1612.00,0.1330
1611.00,0.1293
1610.00,0.1257
1609.00,0.1220
1608.00,0.1183
1607.00,0.1147
1606.00,0.1114
1605.00,0.1082
1604.00,0.1053
1603.00,0.1027
1602.00,0.1005
1601.00,0.0984
1600.00,0.0964
1599.00,0.0947
1598.00,0.0932
1597.00,0.0919
1596.00,0.0907
1595.00,0.0896
1594.00,0.0887
1593.00,0.0878
1592.00,0.0869
1591.00,0.0861
1590.00,0.0855
1589.00,0.0849
1588.00,0.0843
1587.00,0.0839
1586.00,0.0836
1585.00,0.0833
1584.00,0.0831
1583.00,0.0830
1582.00,0.0830
1581.00,0.0830
1580.00,0.0828
1579.00,0.0826
1578.00,0.0825
1577.00,0.0830
1576.00,0.0838
1575.00,0.0847
1574.00,0.0853
1573.00,0.0857
1572.00,0.0861
1571.00,0.0868
1570.00,0.0882
1569.00,0.0898
1568.00,0.0908
1567.00,0.0916
1566.00,0.0926
1565.00,0.0938
1564.00,0.0947
1563.00,0.0951
1562.00,0.0946
1561.00,0.0940
1560.00,0.0951
1559.00,0.0998
1558.00,0.1040
1557.00,0.1054
1556.00,0.1064
1555.00,0.1079
1554.00,0.1098
1553.00,0.1114
1552.00,0.1128
1551.00,0.1145
1550.00,0.1164
1549.00,0.1180
1548.00,0.1190
1547.00,0.1194
1546.00,0.1200
1545.00,0.1210
1544.00,0.1220
1543.00,0.1226
1542.00,0.1232
1541.00,0.1248
1540.00,0.1277
1539.00,0.1300
1538.00,0.1306
1537.00,0.1304
1536.00,0.1301
1535.00,0.1302
1534.00,0.1314
1533.00,0.1331
1532.00,0.1340
1531.00,0.1339
1530.00,0.1335
1529.00,0.1333
1528.00,0.1333
1527.00,0.1334
1526.00,0.1336
1525.00,0.1333
1524.00,0.1325
1523.00,0.1318
1522.00,0.1320
1521.00,0.1326
1520.00,0.1327
1519.00,0.1322
1518.00,0.1319
1517.00,0.1320
1516.00,0.1317
1515.00,0.1305
1514.00,0.1285
1513.00,0.1262
1512.00,0.1237
1511.00,0.1211
1510.00,0.1182
1509.00,0.1152
1508.00,0.1125
1507.00,0.1104
1506.00,0.1078
1505.00,0.1046
1504.00,0.1020
1503.00,0.0998
1502.00,0.0976
1501.00,0.0952
1500.00,0.0928
1499.00,0.0905
1498.00,0.0883
1497.00,0.0860
1496.00,0.0838
1495.00,0.0816
1494.00,0.0796
1493.00,0.0778
1492.00,0.0759
1491.00,0.0742
1490.00,0.0725
1489.00,0.0709
1488.00,0.0694
1487.00,0.0678
1486.00,0.0664
1485.00,0.0651
1484.00,0.0641
1483.00,0.0632
1482.00,0.0626
1481.00,0.0620
1480.00,0.0616
1479.00,0.0613
1478.00,0.0611
1477.00,0.0611
1476.00,0.0612
1475.00,0.0615
1474.00,0.0619
1473.00,0.0628
1472.00,0.0640
1471.00,0.0650
1470.00,0.0656
1469.00,0.0661
1468.00,0.0665
1467.00,0.0666
1466.00,0.0667
1465.00,0.0668
1464.00,0.0670
1463.00,0.0671
1462.00,0.0671
1461.00,0.0672
1460.00,0.0673
1459.00,0.0675
1458.00,0.0681
1457.00,0.0692
1456.00,0.0700
1455.00,0.0705
1454.00,0.0710
1453.00,0.0714
1452.00,0.0716
1451.00,0.0716
1450.00,0.0714
1449.00,0.0713
1448.00,0.0712
1447.00,0.0711
1446.00,0.0708
1445.00,0.0704
1444.00,0.0701
1443.00,0.0698
1442.00,0.0694
1441.00,0.0690
1440.00,0.0684
1439.00,0.0677
1438.00,0.0669
1437.00,0.0661
1436.00,0.0653
1435.00,0.0647
1434.00,0.0641
1433.00,0.0635
1432.00,0.0629
1431.00,0.0624
1430.00,0.0618
1429.00,0.0613
1428.00,0.0610
1427.00,0.0607
1426.00,0.0607
1425.00,0.0609
1424.00,0.0613
1423.00,0.0616
1422.00,0.0617
1421.00,0.0617
1420.00,0.0621
1419.00,0.0631
1418.00,0.0642
1417.00,0.0652
1416.00,0.0661
1415.00,0.0669
1414.00,0.0677
1413.00,0.0684
1412.00,0.0692
1411.00,0.0700
1410.00,0.0707
1409.00,0.0713
1408.00,0.0719
1407.00,0.0725
1406.00,0.0732
1405.00,0.0739
1404.00,0.0745
1403.00,0.0750
1402.00,0.0753
1401.00,0.0755
1400.00,0.0759
1399.00,0.0764
1398.00,0.0768
1397.00,0.0770
1396.00,0.0772
1395.00,0.0775
1394.00,0.0777
1393.00,0.0777
1392.00,0.0777
1391.00,0.0777
1390.00,0.0776
1389.00,0.0774
1388.00,0.0772
1387.00,0.0770
1386.00,0.0767
1385.00,0.0761
1384.00,0.0755
1383.00,0.0748
1382.00,0.0740
1381.00,0.0732
1380.00,0.0725
1379.00,0.0718
1378.00,0.0711
1377.00,0.0703
1376.00,0.0697
1375.00,0.0692
1374.00,0.0688
1373.00,0.0683
1372.00,0.0677
1371.00,0.0672
1370.00,0.0667
1369.00,0.0662
1368.00,0.0655
1367.00,0.0646
1366.00,0.0637
1365.00,0.0627
1364.00,0.0619
1363.00,0.0613
1362.00,0.0608
1361.00,0.0603
1360.00,0.0600
1359.00,0.0598
1358.00,0.0598
1357.00,0.0600
1356.00,0.0603
1355.00,0.0607
1354.00,0.0612
1353.00,0.0616
1352.00,0.0620
1351.00,0.0624
1350.00,0.0627
1349.00,0.0629
1348.00,0.0630
1347.00,0.0630
1346.00,0.0628
1345.00,0.0626
1344.00,0.0623
1343.00,0.0620
1342.00,0.0616
1341.00,0.0613
1340.00,0.0610
1339.00,0.0607
1338.00,0.0603
1337.00,0.0599
1336.00,0.0595
1335.00,0.0591
1334.00,0.0587
1333.00,0.0584
1332.00,0.0581
1331.00,0.0579
1330.00,0.0578
1329.00,0.0577
1328.00,0.0576
1327.00,0.0575
1326.00,0.0575
1325.00,0.0575
1324.00,0.0575
1323.00,0.0576
1322.00,0.0576
1321.00,0.0577
1320.00,0.0578
1319.00,0.0579
1318.00,0.0579
1317.00,0.0579
1316.00,0.0579
1315.00,0.0578
1314.00,0.0578
1313.00,0.0577
1312.00,0.0576
1311.00,0.0575
1310.00,0.0574
1309.00,0.0572
1308.00,0.0571
1307.00,0.0570
1306.00,0.0569
1305.00,0.0567
1304.00,0.0566
1303.00,0.0566
1302.00,0.0565
1301.00,0.0565
1300.00,0.0565
1299.00,0.0565
1298.00,0.0565
1297.00,0.0566
1296.00,0.0567
1295.00,0.0568
1294.00,0.0569
1293.00,0.0570
1292.00,0.0571
1291.00,0.0573
1290.00,0.0574
1289.00,0.0575
1288.00,0.0576
1287.00,0.0577
1286.00,0.0577
1285.00,0.0578
1284.00,0.0579
1283.00,0.0579
1282.00,0.0580
1281.00,0.0580
1280.00,0.0580
1279.00,0.0579
1278.00,0.0579
1277.00,0.0578
1276.00,0.0578
1275.00,0.0577
1274.00,0.0576
1273.00,0.0576
1272.00,0.0576
1271.00,0.0577
1270.00,0.0579
1269.00,0.0580
1268.00,0.0583
1267.00,0.0586
1266.00,0.0590
1265.00,0.0594
1264.00,0.0598
1263.00,0.0604
1262.00,0.0609
1261.00,0.0615
1260.00,0.0621
1259.00,0.0627
1258.00,0.0632
1257.00,0.0638
1256.00,0.0644
1255.00,0.0650
1254.00,0.0656
1253.00,0.0662
1252.00,0.0668
1251.00,0.0674
1250.00,0.0679
1249.00,0.0684
1248.00,0.0689
1247.00,0.0694
1246.00,0.0699
1245.00,0.0703
1244.00,0.0707
1243.00,0.0711
1242.00,0.0714
1241.00,0.0717
1240.00,0.0720
1239.00,0.0722
1238.00,0.0724
1237.00,0.0725
1236.00,0.0727
1235.00,0.0727
1234.00,0.0727
1233.00,0.0726
1232.00,0.0725
1231.00,0.0724
1230.00,0.0721
1229.00,0.0718
1228.00,0.0715
1227.00,0.0711
1226.00,0.0707
1225.00,0.0703
1224.00,0.0698
1223.00,0.0692
1222.00,0.0686
1221.00,0.0680
1220.00,0.0673
1219.00,0.0666
1218.00,0.0658
1217.00,0.0650
1216.00,0.0641
1215.00,0.0632
1214.00,0.0623
1213.00,0.0613
1212.00,0.0604
1211.00,0.0595
1210.00,0.0586
1209.00,0.0577
1208.00,0.0568
1207.00,0.0560
1206.00,0.0552
1205.00,0.0544
1204.00,0.0537
1203.00,0.0531
1202.00,0.0524
1201.00,0.0518
1200.00,0.0513
1199.00,0.0508
1198.00,0.0503
1197.00,0.0499
1196.00,0.0495
1195.00,0.0492
1194.00,0.0489
1193.00,0.0485
1192.00,0.0483
1191.00,0.0480
1190.00,0.0477
1189.00,0.0475
1188.00,0.0472
1187.00,0.0470
1186.00,0.0469
1185.00,0.0467
1184.00,0.0466
1183.00,0.0465
1182.00,0.0465
1181.00,0.0466
1180.00,0.0467
1179.00,0.0469
1178.00,0.0472
1177.00,0.0476
1176.00,0.0481
1175.00,0.0486
1174.00,0.0491
1173.00,0.0496
1172.00,0.0500
1171.00,0.0503
1170.00,0.0505
1169.00,0.0507
1168.00,0.0508
1167.00,0.0510
1166.00,0.0512
1165.00,0.0514
1164.00,0.0516
1163.00,0.0519
1162.00,0.0521
1161.00,0.0524
1160.00,0.0526
1159.00,0.0528
1158.00,0.0530
1157.00,0.0532
1156.00,0.0533
1155.00,0.0534
1154.00,0.0534
1153.00,0.0534
1152.00,0.0533
1151.00,0.0532
1150.00,0.0530
1149.00,0.0528
1148.00,0.0526
1147.00,0.0524
1146.00,0.0522
1145.00,0.0520
1144.00,0.0518
1143.00,0.0517
1142.00,0.0517
1141.00,0.0517
1140.00,0.0518
1139.00,0.0520
1138.00,0.0522
1137.00,0.0524
1136.00,0.0527
1135.00,0.0531
1134.00,0.0535
1133.00,0.0539
1132.00,0.0544
1131.00,0.0549
1130.00,0.0555
1129.00,0.0561
1128.00,0.0566
1127.00,0.0572
1126.00,0.0577
1125.00,0.0582
1124.00,0.0587
1123.00,0.0592
1122.00,0.0596
1121.00,0.0600
1120.00,0.0604
1119.00,0.0608
1118.00,0.0612
1117.00,0.0616
1116.00,0.0620
1115.00,0.0624
1114.00,0.0627
1113.00,0.0630
1112.00,0.0633
1111.00,0.0636
1110.00,0.0639
1109.00,0.0641
1108.00,0.0644
1107.00,0.0646
1106.00,0.0649
1105.00,0.0652
1104.00,0.0655
1103.00,0.0658
1102.00,0.0661
1101.00,0.0663
1100.00,0.0666
1099.00,0.0669
1098.00,0.0673
1097.00,0.0677
1096.00,0.0682
1095.00,0.0688
1094.00,0.0694
1093.00,0.0700
1092.00,0.0707
1091.00,0.0715
1090.00,0.0724
1089.00,0.0733
1088.00,0.0742
1087.00,0.0751
1086.00,0.0761
1085.00,0.0770
1084.00,0.0779
1083.00,0.0787
1082.00,0.0795
1081.00,0.0802
1080.00,0.0808
1079.00,0.0814
1078.00,0.0818
1077.00,0.0822
1076.00,0.0826
1075.00,0.0828
1074.00,0.0830
1073.00,0.0831
1072.00,0.0832
1071.00,0.0833
1070.00,0.0834
1069.00,0.0835
1068.00,0.0837
1067.00,0.0838
1066.00,0.0840
1065.00,0.0841
1064.00,0.0842
1063.00,0.0842
1062.00,0.0843
1061.00,0.0843
1060.00,0.0843
1059.00,0.0842
1058.00,0.0841
1057.00,0.0840
1056.00,0.0838
1055.00,0.0836
1054.00,0.0834
1053.00,0.0831
1052.00,0.0828
1051.00,0.0824
1050.00,0.0820
1049.00,0.0816
1048.00,0.0812
1047.00,0.0809
1046.00,0.0804
1045.00,0.0800
1044.00,0.0795
1043.00,0.0790
1042.00,0.0784
1041.00,0.0778
1040.00,0.0772
1039.00,0.0766
1038.00,0.0761
1037.00,0.0756
1036.00,0.0751
1035.00,0.0748
1034.00,0.0744
1033.00,0.0742
1032.00,0.0739
1031.00,0.0737
1030.00,0.0733
1029.00,0.0729
1028.00,0.0725
1027.00,0.0720
1026.00,0.0714
1025.00,0.0708
1024.00,0.0701
1023.00,0.0694
1022.00,0.0686
1021.00,0.0677
1020.00,0.0668
1019.00,0.0660
1018.00,0.0651
1017.00,0.0642
1016.00,0.0634
1015.00,0.0625
1014.00,0.0616
1013.00,0.0607
1012.00,0.0598
1011.00,0.0589
1010.00,0.0580
1009.00,0.0571
1008.00,0.0563
1007.00,0.0554
1006.00,0.0546
1005.00,0.0539
1004.00,0.0532
1003.00,0.0526
1002.00,0.0519
1001.00,0.0513
1000.00,0.0506
999.00,0.0501
998.00,0.0495
997.00,0.0490
996.00,0.0484
995.00,0.0479
994.00,0.0475
993.00,0.0470
992.00,0.0466
991.00,0.0463
990.00,0.0460
989.00,0.0457
988.00,0.0456
987.00,0.0456
986.00,0.0457
985.00,0.0458
984.00,0.0460
983.00,0.0463
982.00,0.0467
981.00,0.0472
980.00,0.0477
979.00,0.0482
978.00,0.0487
977.00,0.0492
976.00,0.0496
975.00,0.0500
974.00,0.0503
973.00,0.0504
972.00,0.0505
971.00,0.0504
970.00,0.0502
969.00,0.0500
968.00,0.0497
967.00,0.0494
966.00,0.0490
965.00,0.0487
964.00,0.0484
963.00,0.0480
962.00,0.0477
961.00,0.0473
960.00,0.0470
959.00,0.0466
958.00,0.0463
957.00,0.0460
956.00,0.0458
955.00,0.0456
954.00,0.0454
953.00,0.0452
952.00,0.0450
951.00,0.0449
950.00,0.0448
949.00,0.0447
948.00,0.0446
947.00,0.0445
946.00,0.0445
945.00,0.0445
944.00,0.0444
943.00,0.0444
942.00,0.0444
941.00,0.0444
940.00,0.0444
939.00,0.0444
938.00,0.0445
937.00,0.0445
936.00,0.0444
935.00,0.0444
934.00,0.0444
933.00,0.0443
932.00,0.0442
931.00,0.0440
930.00,0.0439
929.00,0.0436
928.00,0.0434
927.00,0.0431
926.00,0.0428
925.00,0.0426
924.00,0.0423
923.00,0.0421
922.00,0.0418
921.00,0.0416
920.00,0.0413
919.00,0.0411
918.00,0.0409
917.00,0.0407
916.00,0.0406
915.00,0.0404
914.00,0.0402
913.00,0.0401
912.00,0.0399
911.00,0.0399
910.00,0.0398
909.00,0.0398
908.00,0.0399
907.00,0.0399
906.00,0.0400
905.00,0.0401
904.00,0.0402
903.00,0.0403
902.00,0.0404
901.00,0.0405
900.00,0.0406
899.00,0.0407
898.00,0.0408
897.00,0.0409
896.00,0.0410
895.00,0.0411
894.00,0.0411
893.00,0.0412
892.00,0.0413
891.00,0.0413
890.00,0.0414
889.00,0.0415
888.00,0.0416
887.00,0.0418
886.00,0.0419
885.00,0.0419
884.00,0.0420
883.00,0.0420
882.00,0.0421
881.00,0.0421
880.00,0.0421
879.00,0.0421
878.00,0.0421
877.00,0.0421
876.00,0.0421
875.00,0.0421
874.00,0.0421
873.00,0.0421
872.00,0.0420
871.00,0.0420
870.00,0.0420
869.00,0.0420
868.00,0.0421
867.00,0.0423
866.00,0.0424
865.00,0.0425
864.00,0.0427
863.00,0.0429
862.00,0.0432
861.00,0.0434
860.00,0.0438
859.00,0.0441
858.00,0.0444
857.00,0.0448
856.00,0.0452
855.00,0.0456
854.00,0.0460
853.00,0.0463
852.00,0.0466
851.00,0.0469
850.00,0.0471
849.00,0.0473
848.00,0.0474
847.00,0.0475
846.00,0.0476
845.00,0.0478
844.00,0.0480
843.00,0.0483
842.00,0.0486
841.00,0.0490
840.00,0.0495
839.00,0.0499
838.00,0.0503
837.00,0.0507
836.00,0.0512
835.00,0.0517
834.00,0.0522
833.00,0.0527
832.00,0.0532
831.00,0.0536
830.00,0.0539
829.00,0.0542
828.00,0.0545
827.00,0.0547
826.00,0.0548
825.00,0.0549
824.00,0.0550
823.00,0.0551
822.00,0.0552
821.00,0.0553
820.00,0.0555
819.00,0.0557
818.00,0.0559
817.00,0.0562
816.00,0.0565
815.00,0.0568
814.00,0.0571
813.00,0.0574
812.00,0.0577
811.00,0.0580
810.00,0.0583
809.00,0.0586
808.00,0.0589
807.00,0.0593
806.00,0.0597
805.00,0.0602
804.00,0.0607
803.00,0.0612
802.00,0.0617
801.00,0.0622
800.00,0.0626
799.00,0.0629
798.00,0.0633
797.00,0.0636
796.00,0.0640
795.00,0.0644
794.00,0.0649
793.00,0.0655
792.00,0.0661
791.00,0.0668
790.00,0.0676
789.00,0.0684
788.00,0.0693
787.00,0.0701
786.00,0.0708
785.00,0.0715
784.00,0.0722
783.00,0.0728
782.00,0.0733
781.00,0.0737
780.00,0.0741
779.00,0.0745
778.00,0.0749
777.00,0.0752
776.00,0.0754
775.00,0.0756
774.00,0.0758
773.00,0.0760
772.00,0.0764
771.00,0.0767
770.00,0.0771
769.00,0.0774
768.00,0.0777
767.00,0.0780
766.00,0.0783
765.00,0.0785
764.00,0.0788
763.00,0.0790
762.00,0.0792
761.00,0.0795
760.00,0.0797
759.00,0.0800
758.00,0.0802
757.00,0.0805
756.00,0.0808
755.00,0.0811
754.00,0.0814
753.00,0.0818
752.00,0.0822
751.00,0.0827
750.00,0.0832
749.00,0.0837
748.00,0.0842
747.00,0.0846
746.00,0.0850
745.00,0.0853
744.00,0.0856
743.00,0.0859
742.00,0.0862
741.00,0.0865
740.00,0.0869
739.00,0.0872
738.00,0.0875
737.00,0.0879
736.00,0.0884
735.00,0.0889
734.00,0.0895
733.00,0.0901
732.00,0.0908
731.00,0.0916
730.00,0.0924
729.00,0.0934
728.00,0.0944
727.00,0.0955
726.00,0.0967
725.00,0.0979
724.00,0.0992
723.00,0.1004
722.00,0.1015
721.00,0.1026
720.00,0.1036
719.00,0.1046
718.00,0.1056
717.00,0.1064
716.00,0.1072
715.00,0.1081
714.00,0.1089
713.00,0.1097
712.00,0.1105
711.00,0.1113
710.00,0.1122
709.00,0.1131
708.00,0.1140
707.00,0.1150
706.00,0.1161
705.00,0.1172
704.00,0.1183
703.00,0.1193
702.00,0.1203
701.00,0.1211
700.00,0.1218
699.00,0.1223
698.00,0.1226
697.00,0.1228
696.00,0.1228
695.00,0.1227
694.00,0.1225
693.00,0.1224
692.00,0.1224
691.00,0.1224
690.00,0.1224
689.00,0.1224
688.00,0.1226
687.00,0.1227
686.00,0.1229
685.00,0.1231
684.00,0.1232
683.00,0.1234
682.00,0.1235
681.00,0.1236
680.00,0.1238
679.00,0.1241
678.00,0.1243
677.00,0.1245
676.00,0.1248
675.00,0.1250
674.00,0.1253
673.00,0.1255
672.00,0.1255
671.00,0.1253
670.00,0.1251
669.00,0.1254
668.00,0.1266
667.00,0.1279
666.00,0.1285
665.00,0.1286
664.00,0.1286
663.00,0.1289
662.00,0.1292
661.00,0.1295
660.00,0.1297
659.00,0.1300
658.00,0.1302
657.00,0.1304
656.00,0.1307
655.00,0.1310
654.00,0.1313
653.00,0.1316
652.00,0.1319
651.00,0.1322
650.00,0.1325
649.00,0.1329
648.00,0.1334
647.00,0.1338
646.00,0.1341
645.00,0.1344
644.00,0.1348
643.00,0.1351
642.00,0.1355
641.00,0.1358
640.00,0.1361
639.00,0.1365
638.00,0.1367
637.00,0.1369
636.00,0.1372
635.00,0.1375
634.00,0.1378
633.00,0.1381
632.00,0.1384
631.00,0.1387
630.00,0.1390
629.00,0.1394
628.00,0.1398
627.00,0.1404
626.00,0.1409
625.00,0.1414
624.00,0.1418
623.00,0.1423
622.00,0.1426
621.00,0.1429
620.00,0.1432
619.00,0.1434
618.00,0.1435
617.00,0.1437
616.00,0.1439
615.00,0.1441
614.00,0.1441
613.00,0.1442
612.00,0.1442
611.00,0.1443
610.00,0.1443
609.00,0.1443
608.00,0.1444
607.00,0.1446
606.00,0.1447
605.00,0.1448
604.00,0.1449
603.00,0.1450
602.00,0.1451
601.00,0.1452
600.00,0.1454
599.00,0.1455
598.00,0.1456
597.00,0.1456
596.00,0.1458
595.00,0.1460
594.00,0.1461
593.00,0.1463
592.00,0.1466
591.00,0.1470
590.00,0.1472
589.00,0.1474
588.00,0.1475
587.00,0.1476
586.00,0.1477
585.00,0.1479
584.00,0.1484
583.00,0.1489
582.00,0.1493
581.00,0.1496
580.00,0.1500
579.00,0.1503
578.00,0.1507
577.00,0.1510
576.00,0.1514
575.00,0.1518
574.00,0.1521
573.00,0.1524
572.00,0.1527
571.00,0.1530
570.00,0.1533
569.00,0.1535
568.00,0.1537
567.00,0.1540
566.00,0.1543
565.00,0.1547
564.00,0.1552
563.00,0.1557
562.00,0.1560
561.00,0.1563
560.00,0.1566
559.00,0.1569
558.00,0.1572
557.00,0.1576
556.00,0.1581
555.00,0.1585
554.00,0.1588
553.00,0.1589
552.00,0.1592
551.00,0.1596
550.00,0.1601
549.00,0.1607
548.00,0.1614
547.00,0.1619
546.00,0.1621
545.00,0.1622
544.00,0.1626
543.00,0.1629
542.00,0.1633
541.00,0.1637
540.00,0.1643
539.00,0.1647
538.00,0.1650
537.00,0.1652
536.00,0.1655
535.00,0.1657
534.00,0.1658
533.00,0.1659
532.00,0.1663
531.00,0.1667
530.00,0.1670
529.00,0.1672
528.00,0.1674
527.00,0.1675
526.00,0.1674
525.00,0.1674
524.00,0.1675
523.00,0.1676
522.00,0.1675
521.00,0.1675
520.00,0.1676
519.00,0.1677
518.00,0.1676
517.00,0.1675
516.00,0.1676
515.00,0.1677
514.00,0.1675
513.00,0.1672
512.00,0.1672
511.00,0.1671
510.00,0.1670
509.00,0.1669
508.00,0.1669
507.00,0.1670
506.00,0.1670
505.00,0.1669
504.00,0.1669
503.00,0.1668
502.00,0.1665
501.00,0.1664
500.00,0.1666
499.00,0.1668
498.00,0.1668
497.00,0.1668
496.00,0.1671
495.00,0.1673
494.00,0.1674
493.00,0.1673
492.00,0.1672
491.00,0.1670
490.00,0.1668
489.00,0.1667
488.00,0.1667
487.00,0.1665
486.00,0.1661
485.00,0.1658
484.00,0.1660
483.00,0.1662
482.00,0.1662
481.00,0.1662
480.00,0.1663
479.00,0.1665
478.00,0.1664
477.00,0.1662
476.00,0.1660
475.00,0.1660
474.00,0.1660
473.00,0.1661
472.00,0.1664
471.00,0.1665
470.00,0.1662
469.00,0.1658
468.00,0.1658
467.00,0.1659
466.00,0.1658
465.00,0.1657
464.00,0.1659
463.00,0.1661
462.00,0.1662
461.00,0.1663
460.00,0.1665
459.00,0.1666
458.00,0.1665
457.00,0.1664
456.00,0.1664
455.00,0.1662
454.00,0.1656
453.00,0.1650
452.00,0.1646
451.00,0.1643
450.00,0.1642
449.00,0.1644
448.00,0.1649
447.00,0.1652
446.00,0.1646
445.00,0.1637
444.00,0.1632
443.00,0.1631
442.00,0.1631
441.00,0.1630
440.00,0.1629
439.00,0.1625
438.00,0.1617
437.00,0.1611
436.00,0.1609
435.00,0.1610
434.00,0.1609
433.00,0.1610
432.00,0.1616
431.00,0.1624
430.00,0.1628
429.00,0.1631
428.00,0.1634
427.00,0.1634
426.00,0.1628
425.00,0.1621
424.00,0.1620
423.00,0.1624
422.00,0.1629
421.00,0.1635
420.00,0.1645
419.00,0.1653
418.00,0.1650
417.00,0.1644
416.00,0.1642
415.00,0.1637
414.00,0.1626
413.00,0.1615
412.00,0.1612
411.00,0.1611
410.00,0.1609
409.00,0.1608
408.00,0.1613
407.00,0.1617
406.00,0.1614
405.00,0.1608
404.00,0.1604
403.00,0.1600
402.00,0.1591
401.00,0.1582
400.00,0.1576
