Created as New Dataset,Sample 1080 By YargerLab Date Tuesday, August 05 2025
cm-1,A
4000.00,0.0012
3999.00,0.0012
3998.00,0.0012
3997.00,0.0012
3996.00,0.0012
3995.00,0.0012
3994.00,0.0012
3993.00,0.0012
3992.00,0.0012
3991.00,0.0012
3990.00,0.0012
3989.00,0.0012
3988.00,0.0012
3987.00,0.0012
3986.00,0.0012
3985.00,0.0012
3984.00,0.0012
3983.00,0.0012
3982.00,0.0012
3981.00,0.0012
3980.00,0.0012
3979.00,0.0012
3978.00,0.0012
3977.00,0.0012
3976.00,0.0013
3975.00,0.0013
3974.00,0.0013
3973.00,0.0012
3972.00,0.0012
3971.00,0.0012
3970.00,0.0012
3969.00,0.0012
3968.00,0.0012
3967.00,0.0012
3966.00,0.0012
3965.00,0.0012
3964.00,0.0012
3963.00,0.0012
3962.00,0.0012
3961.00,0.0012
3960.00,0.0012
3959.00,0.0012
3958.00,0.0012
3957.00,0.0012
3956.00,0.0012
3955.00,0.0012
3954.00,0.0012
3953.00,0.0011
3952.00,0.0011
3951.00,0.0011
3950.00,0.0011
3949.00,0.0011
3948.00,0.0011
3947.00,0.0011
3946.00,0.0011
3945.00,0.0011
3944.00,0.0011
3943.00,0.0012
3942.00,0.0012
3941.00,0.0012
3940.00,0.0012
3939.00,0.0012
3938.00,0.0012
3937.00,0.0011
3936.00,0.0011
3935.00,0.0011
3934.00,0.0011
3933.00,0.0011
3932.00,0.0011
3931.00,0.0011
3930.00,0.0011
3929.00,0.0011
3928.00,0.0011
3927.00,0.0011
3926.00,0.0011
3925.00,0.0011
3924.00,0.0011
3923.00,0.0011
3922.00,0.0011
3921.00,0.0011
3920.00,0.0011
3919.00,0.0011
3918.00,0.0011
3917.00,0.0011
3916.00,0.0011
3915.00,0.0011
3914.00,0.0011
3913.00,0.0011
3912.00,0.0011
3911.00,0.0011
3910.00,0.0011
3909.00,0.0011
3908.00,0.0011
3907.00,0.0011
3906.00,0.0010
3905.00,0.0010
3904.00,0.0010
3903.00,0.0010
3902.00,0.0010
3901.00,0.0010
3900.00,0.0010
3899.00,0.0010
3898.00,0.0010
3897.00,0.0010
3896.00,0.0011
3895.00,0.0011
3894.00,0.0011
3893.00,0.0011
3892.00,0.0011
3891.00,0.0011
3890.00,0.0011
3889.00,0.0010
3888.00,0.0010
3887.00,0.0010
3886.00,0.0010
3885.00,0.0010
3884.00,0.0010
3883.00,0.0010
3882.00,0.0010
3881.00,0.0010
3880.00,0.0010
3879.00,0.0010
3878.00,0.0010
3877.00,0.0010
3876.00,0.0010
3875.00,0.0011
3874.00,0.0011
3873.00,0.0011
3872.00,0.0011
3871.00,0.0011
3870.00,0.0011
3869.00,0.0011
3868.00,0.0010
3867.00,0.0010
3866.00,0.0010
3865.00,0.0010
3864.00,0.0010
3863.00,0.0010
3862.00,0.0010
3861.00,0.0010
3860.00,0.0010
3859.00,0.0010
3858.00,0.0009
3857.00,0.0009
3856.00,0.0008
3855.00,0.0008
3854.00,0.0008
3853.00,0.0009
3852.00,0.0009
3851.00,0.0009
3850.00,0.0010
3849.00,0.0010
3848.00,0.0010
3847.00,0.0011
3846.00,0.0011
3845.00,0.0011
3844.00,0.0011
3843.00,0.0010
3842.00,0.0010
3841.00,0.0010
3840.00,0.0010
3839.00,0.0010
3838.00,0.0010
3837.00,0.0010
3836.00,0.0011
3835.00,0.0011
3834.00,0.0011
3833.00,0.0011
3832.00,0.0011
3831.00,0.0011
3830.00,0.0012
3829.00,0.0012
3828.00,0.0012
3827.00,0.0012
3826.00,0.0012
3825.00,0.0012
3824.00,0.0012
3823.00,0.0012
3822.00,0.0012
3821.00,0.0011
3820.00,0.0011
3819.00,0.0011
3818.00,0.0011
3817.00,0.0011
3816.00,0.0011
3815.00,0.0011
3814.00,0.0011
3813.00,0.0011
3812.00,0.0011
3811.00,0.0011
3810.00,0.0011
3809.00,0.0011
3808.00,0.0011
3807.00,0.0011
3806.00,0.0011
3805.00,0.0011
3804.00,0.0011
3803.00,0.0010
3802.00,0.0010
3801.00,0.0011
3800.00,0.0011
3799.00,0.0011
3798.00,0.0011
3797.00,0.0011
3796.00,0.0011
3795.00,0.0011
3794.00,0.0011
3793.00,0.0011
3792.00,0.0011
3791.00,0.0011
3790.00,0.0011
3789.00,0.0011
3788.00,0.0011
3787.00,0.0011
3786.00,0.0011
3785.00,0.0011
3784.00,0.0011
3783.00,0.0011
3782.00,0.0011
3781.00,0.0012
3780.00,0.0012
3779.00,0.0012
3778.00,0.0012
3777.00,0.0012
3776.00,0.0011
3775.00,0.0011
3774.00,0.0011
3773.00,0.0011
3772.00,0.0011
3771.00,0.0011
3770.00,0.0011
3769.00,0.0011
3768.00,0.0011
3767.00,0.0011
3766.00,0.0011
3765.00,0.0011
3764.00,0.0011
3763.00,0.0011
3762.00,0.0011
3761.00,0.0011
3760.00,0.0012
3759.00,0.0012
3758.00,0.0012
3757.00,0.0012
3756.00,0.0012
3755.00,0.0012
3754.00,0.0012
3753.00,0.0012
3752.00,0.0011
3751.00,0.0011
3750.00,0.0010
3749.00,0.0010
3748.00,0.0010
3747.00,0.0009
3746.00,0.0009
3745.00,0.0009
3744.00,0.0009
3743.00,0.0009
3742.00,0.0010
3741.00,0.0010
3740.00,0.0011
3739.00,0.0011
3738.00,0.0011
3737.00,0.0011
3736.00,0.0011
3735.00,0.0010
3734.00,0.0010
3733.00,0.0010
3732.00,0.0010
3731.00,0.0010
3730.00,0.0010
3729.00,0.0010
3728.00,0.0010
3727.00,0.0010
3726.00,0.0010
3725.00,0.0011
3724.00,0.0011
3723.00,0.0011
3722.00,0.0011
3721.00,0.0011
3720.00,0.0011
3719.00,0.0011
3718.00,0.0011
3717.00,0.0011
3716.00,0.0010
3715.00,0.0010
3714.00,0.0010
3713.00,0.0010
3712.00,0.0011
3711.00,0.0011
3710.00,0.0011
3709.00,0.0011
3708.00,0.0011
3707.00,0.0011
3706.00,0.0011
3705.00,0.0011
3704.00,0.0011
3703.00,0.0011
3702.00,0.0011
3701.00,0.0011
3700.00,0.0011
3699.00,0.0011
3698.00,0.0011
3697.00,0.0011
3696.00,0.0011
3695.00,0.0011
3694.00,0.0011
3693.00,0.0012
3692.00,0.0012
3691.00,0.0013
3690.00,0.0013
3689.00,0.0013
3688.00,0.0014
3687.00,0.0014
3686.00,0.0014
3685.00,0.0014
3684.00,0.0015
3683.00,0.0015
3682.00,0.0016
3681.00,0.0016
3680.00,0.0016
3679.00,0.0016
3678.00,0.0016
3677.00,0.0016
3676.00,0.0016
3675.00,0.0016
3674.00,0.0015
3673.00,0.0015
3672.00,0.0015
3671.00,0.0016
3670.00,0.0017
3669.00,0.0017
3668.00,0.0018
3667.00,0.0018
3666.00,0.0018
3665.00,0.0019
3664.00,0.0019
3663.00,0.0019
3662.00,0.0019
3661.00,0.0019
3660.00,0.0020
3659.00,0.0020
3658.00,0.0020
3657.00,0.0020
3656.00,0.0021
3655.00,0.0021
3654.00,0.0021
3653.00,0.0021
3652.00,0.0022
3651.00,0.0022
3650.00,0.0023
3649.00,0.0023
3648.00,0.0023
3647.00,0.0023
3646.00,0.0024
3645.00,0.0024
3644.00,0.0025
3643.00,0.0026
3642.00,0.0027
3641.00,0.0027
3640.00,0.0028
3639.00,0.0028
3638.00,0.0028
3637.00,0.0029
3636.00,0.0030
3635.00,0.0030
3634.00,0.0030
3633.00,0.0031
3632.00,0.0031
3631.00,0.0031
3630.00,0.0032
3629.00,0.0032
3628.00,0.0032
3627.00,0.0032
3626.00,0.0033
3625.00,0.0033
3624.00,0.0034
3623.00,0.0034
3622.00,0.0035
3621.00,0.0035
3620.00,0.0036
3619.00,0.0036
3618.00,0.0037
3617.00,0.0038
3616.00,0.0039
3615.00,0.0040
3614.00,0.0041
3613.00,0.0041
3612.00,0.0042
3611.00,0.0042
3610.00,0.0042
3609.00,0.0043
3608.00,0.0044
3607.00,0.0044
3606.00,0.0045
3605.00,0.0046
3604.00,0.0048
3603.00,0.0049
3602.00,0.0050
3601.00,0.0051
3600.00,0.0051
3599.00,0.0052
3598.00,0.0052
3597.00,0.0053
3596.00,0.0053
3595.00,0.0054
3594.00,0.0055
3593.00,0.0056
3592.00,0.0057
3591.00,0.0058
3590.00,0.0058
3589.00,0.0059
3588.00,0.0059
3587.00,0.0060
3586.00,0.0060
3585.00,0.0061
3584.00,0.0063
3583.00,0.0064
3582.00,0.0065
3581.00,0.0066
3580.00,0.0067
3579.00,0.0068
3578.00,0.0069
3577.00,0.0070
3576.00,0.0071
3575.00,0.0072
3574.00,0.0073
3573.00,0.0074
3572.00,0.0075
3571.00,0.0075
3570.00,0.0076
3569.00,0.0077
3568.00,0.0078
3567.00,0.0078
3566.00,0.0079
3565.00,0.0080
3564.00,0.0081
3563.00,0.0082
3562.00,0.0083
3561.00,0.0084
3560.00,0.0085
3559.00,0.0086
3558.00,0.0087
3557.00,0.0088
3556.00,0.0089
3555.00,0.0090
3554.00,0.0091
3553.00,0.0092
3552.00,0.0092
3551.00,0.0093
3550.00,0.0093
3549.00,0.0094
3548.00,0.0095
3547.00,0.0095
3546.00,0.0096
3545.00,0.0096
3544.00,0.0097
3543.00,0.0097
3542.00,0.0098
3541.00,0.0099
3540.00,0.0099
3539.00,0.0100
3538.00,0.0101
3537.00,0.0102
3536.00,0.0102
3535.00,0.0103
3534.00,0.0103
3533.00,0.0104
3532.00,0.0104
3531.00,0.0105
3530.00,0.0106
3529.00,0.0106
3528.00,0.0107
3527.00,0.0107
3526.00,0.0108
3525.00,0.0108
3524.00,0.0109
3523.00,0.0110
3522.00,0.0110
3521.00,0.0110
3520.00,0.0111
3519.00,0.0111
3518.00,0.0112
3517.00,0.0112
3516.00,0.0113
3515.00,0.0114
3514.00,0.0114
3513.00,0.0115
3512.00,0.0115
3511.00,0.0115
3510.00,0.0116
3509.00,0.0116
3508.00,0.0116
3507.00,0.0117
3506.00,0.0117
3505.00,0.0118
3504.00,0.0118
3503.00,0.0118
3502.00,0.0119
3501.00,0.0119
3500.00,0.0119
3499.00,0.0120
3498.00,0.0120
3497.00,0.0121
3496.00,0.0121
3495.00,0.0122
3494.00,0.0122
3493.00,0.0122
3492.00,0.0123
3491.00,0.0123
3490.00,0.0124
3489.00,0.0124
3488.00,0.0125
3487.00,0.0125
3486.00,0.0125
3485.00,0.0126
3484.00,0.0126
3483.00,0.0127
3482.00,0.0127
3481.00,0.0127
3480.00,0.0127
3479.00,0.0127
3478.00,0.0128
3477.00,0.0129
3476.00,0.0129
3475.00,0.0129
3474.00,0.0130
3473.00,0.0130
3472.00,0.0130
3471.00,0.0130
3470.00,0.0130
3469.00,0.0131
3468.00,0.0131
3467.00,0.0131
3466.00,0.0132
3465.00,0.0132
3464.00,0.0132
3463.00,0.0132
3462.00,0.0132
3461.00,0.0132
3460.00,0.0132
3459.00,0.0132
3458.00,0.0132
3457.00,0.0133
3456.00,0.0133
3455.00,0.0133
3454.00,0.0134
3453.00,0.0134
3452.00,0.0134
3451.00,0.0134
3450.00,0.0135
3449.00,0.0135
3448.00,0.0135
3447.00,0.0135
3446.00,0.0135
3445.00,0.0134
3444.00,0.0134
3443.00,0.0134
3442.00,0.0135
3441.00,0.0135
3440.00,0.0135
3439.00,0.0135
3438.00,0.0135
3437.00,0.0135
3436.00,0.0135
3435.00,0.0135
3434.00,0.0136
3433.00,0.0136
3432.00,0.0136
3431.00,0.0136
3430.00,0.0136
3429.00,0.0136
3428.00,0.0136
3427.00,0.0135
3426.00,0.0135
3425.00,0.0135
3424.00,0.0135
3423.00,0.0135
3422.00,0.0135
3421.00,0.0135
3420.00,0.0135
3419.00,0.0135
3418.00,0.0134
3417.00,0.0134
3416.00,0.0134
3415.00,0.0134
3414.00,0.0134
3413.00,0.0134
3412.00,0.0134
3411.00,0.0134
3410.00,0.0134
3409.00,0.0134
3408.00,0.0134
3407.00,0.0134
3406.00,0.0134
3405.00,0.0133
3404.00,0.0133
3403.00,0.0133
3402.00,0.0133
3401.00,0.0132
3400.00,0.0132
3399.00,0.0132
3398.00,0.0132
3397.00,0.0132
3396.00,0.0132
3395.00,0.0132
3394.00,0.0132
3393.00,0.0131
3392.00,0.0131
3391.00,0.0131
3390.00,0.0131
3389.00,0.0131
3388.00,0.0131
3387.00,0.0131
3386.00,0.0131
3385.00,0.0131
3384.00,0.0130
3383.00,0.0130
3382.00,0.0130
3381.00,0.0130
3380.00,0.0130
3379.00,0.0130
3378.00,0.0129
3377.00,0.0129
3376.00,0.0129
3375.00,0.0129
3374.00,0.0128
3373.00,0.0128
3372.00,0.0128
3371.00,0.0127
3370.00,0.0127
3369.00,0.0127
3368.00,0.0127
3367.00,0.0127
3366.00,0.0127
3365.00,0.0127
3364.00,0.0128
3363.00,0.0127
3362.00,0.0127
3361.00,0.0127
3360.00,0.0127
3359.00,0.0127
3358.00,0.0127
3357.00,0.0127
3356.00,0.0127
3355.00,0.0127
3354.00,0.0126
3353.00,0.0126
3352.00,0.0125
3351.00,0.0125
3350.00,0.0125
3349.00,0.0125
3348.00,0.0125
3347.00,0.0125
3346.00,0.0125
3345.00,0.0125
3344.00,0.0124
3343.00,0.0124
3342.00,0.0124
3341.00,0.0124
3340.00,0.0124
3339.00,0.0124
3338.00,0.0124
3337.00,0.0124
3336.00,0.0125
3335.00,0.0125
3334.00,0.0125
3333.00,0.0125
3332.00,0.0125
3331.00,0.0125
3330.00,0.0124
3329.00,0.0124
3328.00,0.0123
3327.00,0.0123
3326.00,0.0123
3325.00,0.0123
3324.00,0.0124
3323.00,0.0124
3322.00,0.0124
3321.00,0.0124
3320.00,0.0124
3319.00,0.0124
3318.00,0.0124
3317.00,0.0124
3316.00,0.0124
3315.00,0.0124
3314.00,0.0124
3313.00,0.0124
3312.00,0.0123
3311.00,0.0122
3310.00,0.0121
3309.00,0.0120
3308.00,0.0120
3307.00,0.0119
3306.00,0.0120
3305.00,0.0120
3304.00,0.0121
3303.00,0.0122
3302.00,0.0123
3301.00,0.0123
3300.00,0.0123
3299.00,0.0123
3298.00,0.0123
3297.00,0.0122
3296.00,0.0122
3295.00,0.0122
3294.00,0.0122
3293.00,0.0122
3292.00,0.0122
3291.00,0.0123
3290.00,0.0123
3289.00,0.0123
3288.00,0.0124
3287.00,0.0124
3286.00,0.0124
3285.00,0.0123
3284.00,0.0123
3283.00,0.0123
3282.00,0.0123
3281.00,0.0123
3280.00,0.0123
3279.00,0.0123
3278.00,0.0123
3277.00,0.0123
3276.00,0.0122
3275.00,0.0122
3274.00,0.0121
3273.00,0.0121
3272.00,0.0120
3271.00,0.0120
3270.00,0.0120
3269.00,0.0120
3268.00,0.0121
3267.00,0.0121
3266.00,0.0121
3265.00,0.0121
3264.00,0.0121
3263.00,0.0121
3262.00,0.0121
3261.00,0.0120
3260.00,0.0120
3259.00,0.0120
3258.00,0.0119
3257.00,0.0119
3256.00,0.0119
3255.00,0.0118
3254.00,0.0118
3253.00,0.0118
3252.00,0.0118
3251.00,0.0118
3250.00,0.0118
3249.00,0.0117
3248.00,0.0117
3247.00,0.0117
3246.00,0.0117
3245.00,0.0117
3244.00,0.0117
3243.00,0.0117
3242.00,0.0117
3241.00,0.0117
3240.00,0.0117
3239.00,0.0117
3238.00,0.0116
3237.00,0.0116
3236.00,0.0116
3235.00,0.0115
3234.00,0.0114
3233.00,0.0114
3232.00,0.0114
3231.00,0.0114
3230.00,0.0114
3229.00,0.0114
3228.00,0.0114
3227.00,0.0114
3226.00,0.0114
3225.00,0.0114
3224.00,0.0113
3223.00,0.0113
3222.00,0.0113
3221.00,0.0113
3220.00,0.0113
3219.00,0.0112
3218.00,0.0112
3217.00,0.0112
3216.00,0.0111
3215.00,0.0111
3214.00,0.0111
3213.00,0.0110
3212.00,0.0110
3211.00,0.0110
3210.00,0.0109
3209.00,0.0109
3208.00,0.0109
3207.00,0.0109
3206.00,0.0109
3205.00,0.0108
3204.00,0.0108
3203.00,0.0108
3202.00,0.0107
3201.00,0.0107
3200.00,0.0107
3199.00,0.0106
3198.00,0.0106
3197.00,0.0105
3196.00,0.0105
3195.00,0.0105
3194.00,0.0105
3193.00,0.0105
3192.00,0.0105
3191.00,0.0104
3190.00,0.0104
3189.00,0.0104
3188.00,0.0104
3187.00,0.0103
3186.00,0.0103
3185.00,0.0103
3184.00,0.0103
3183.00,0.0103
3182.00,0.0102
3181.00,0.0102
3180.00,0.0101
3179.00,0.0101
3178.00,0.0101
3177.00,0.0101
3176.00,0.0101
3175.00,0.0101
3174.00,0.0101
3173.00,0.0101
3172.00,0.0101
3171.00,0.0101
3170.00,0.0100
3169.00,0.0100
3168.00,0.0099
3167.00,0.0099
3166.00,0.0099
3165.00,0.0098
3164.00,0.0098
3163.00,0.0098
3162.00,0.0098
3161.00,0.0097
3160.00,0.0097
3159.00,0.0097
3158.00,0.0097
3157.00,0.0097
3156.00,0.0096
3155.00,0.0096
3154.00,0.0096
3153.00,0.0095
3152.00,0.0095
3151.00,0.0095
3150.00,0.0094
3149.00,0.0094
3148.00,0.0094
3147.00,0.0094
3146.00,0.0093
3145.00,0.0093
3144.00,0.0093
3143.00,0.0092
3142.00,0.0092
3141.00,0.0092
3140.00,0.0092
3139.00,0.0092
3138.00,0.0092
3137.00,0.0092
3136.00,0.0091
3135.00,0.0091
3134.00,0.0090
3133.00,0.0090
3132.00,0.0090
3131.00,0.0090
3130.00,0.0091
3129.00,0.0091
3128.00,0.0090
3127.00,0.0090
3126.00,0.0090
3125.00,0.0090
3124.00,0.0090
3123.00,0.0090
3122.00,0.0090
3121.00,0.0089
3120.00,0.0090
3119.00,0.0090
3118.00,0.0090
3117.00,0.0089
3116.00,0.0089
3115.00,0.0089
3114.00,0.0088
3113.00,0.0088
3112.00,0.0088
3111.00,0.0087
3110.00,0.0087
3109.00,0.0087
3108.00,0.0086
3107.00,0.0086
3106.00,0.0086
3105.00,0.0086
3104.00,0.0085
3103.00,0.0085
3102.00,0.0085
3101.00,0.0084
3100.00,0.0084
3099.00,0.0084
3098.00,0.0084
3097.00,0.0084
3096.00,0.0084
3095.00,0.0084
3094.00,0.0083
3093.00,0.0083
3092.00,0.0084
3091.00,0.0083
3090.00,0.0083
3089.00,0.0083
3088.00,0.0084
3087.00,0.0084
3086.00,0.0084
3085.00,0.0084
3084.00,0.0084
3083.00,0.0083
3082.00,0.0083
3081.00,0.0083
3080.00,0.0083
3079.00,0.0083
3078.00,0.0082
3077.00,0.0082
3076.00,0.0082
3075.00,0.0082
3074.00,0.0083
3073.00,0.0083
3072.00,0.0083
3071.00,0.0082
3070.00,0.0082
3069.00,0.0082
3068.00,0.0082
3067.00,0.0081
3066.00,0.0081
3065.00,0.0081
3064.00,0.0080
3063.00,0.0080
3062.00,0.0080
3061.00,0.0079
3060.00,0.0079
3059.00,0.0079
3058.00,0.0079
3057.00,0.0079
3056.00,0.0079
3055.00,0.0078
3054.00,0.0078
3053.00,0.0078
3052.00,0.0078
3051.00,0.0077
3050.00,0.0077
3049.00,0.0077
3048.00,0.0077
3047.00,0.0077
3046.00,0.0077
3045.00,0.0077
3044.00,0.0077
3043.00,0.0077
3042.00,0.0077
3041.00,0.0077
3040.00,0.0076
3039.00,0.0076
3038.00,0.0076
3037.00,0.0076
3036.00,0.0076
3035.00,0.0076
3034.00,0.0076
3033.00,0.0076
3032.00,0.0076
3031.00,0.0076
3030.00,0.0076
3029.00,0.0076
3028.00,0.0075
3027.00,0.0075
3026.00,0.0075
3025.00,0.0075
3024.00,0.0075
3023.00,0.0075
3022.00,0.0075
3021.00,0.0075
3020.00,0.0075
3019.00,0.0075
3018.00,0.0076
3017.00,0.0076
3016.00,0.0076
3015.00,0.0077
3014.00,0.0077
3013.00,0.0078
3012.00,0.0078
3011.00,0.0079
3010.00,0.0080
3009.00,0.0082
3008.00,0.0083
3007.00,0.0085
3006.00,0.0086
3005.00,0.0088
3004.00,0.0090
3003.00,0.0093
3002.00,0.0095
3001.00,0.0098
3000.00,0.0101
2999.00,0.0104
2998.00,0.0107
2997.00,0.0111
2996.00,0.0115
2995.00,0.0118
2994.00,0.0122
2993.00,0.0127
2992.00,0.0131
2991.00,0.0136
2990.00,0.0141
2989.00,0.0146
2988.00,0.0150
2987.00,0.0155
2986.00,0.0159
2985.00,0.0162
2984.00,0.0166
2983.00,0.0170
2982.00,0.0173
2981.00,0.0176
2980.00,0.0180
2979.00,0.0183
2978.00,0.0186
2977.00,0.0188
2976.00,0.0190
2975.00,0.0192
2974.00,0.0194
2973.00,0.0195
2972.00,0.0197
2971.00,0.0199
2970.00,0.0202
2969.00,0.0204
2968.00,0.0206
2967.00,0.0209
2966.00,0.0212
2965.00,0.0215
2964.00,0.0218
2963.00,0.0221
2962.00,0.0224
2961.00,0.0228
2960.00,0.0231
2959.00,0.0234
2958.00,0.0237
2957.00,0.0240
2956.00,0.0242
2955.00,0.0244
2954.00,0.0245
2953.00,0.0246
2952.00,0.0246
2951.00,0.0245
2950.00,0.0244
2949.00,0.0243
2948.00,0.0242
2947.00,0.0241
2946.00,0.0240
2945.00,0.0239
2944.00,0.0238
2943.00,0.0238
2942.00,0.0237
2941.00,0.0237
2940.00,0.0238
2939.00,0.0239
2938.00,0.0240
2937.00,0.0241
2936.00,0.0243
2935.00,0.0245
2934.00,0.0248
2933.00,0.0250
2932.00,0.0253
2931.00,0.0255
2930.00,0.0257
2929.00,0.0259
2928.00,0.0261
2927.00,0.0263
2926.00,0.0264
2925.00,0.0264
2924.00,0.0264
2923.00,0.0263
2922.00,0.0262
2921.00,0.0260
2920.00,0.0258
2919.00,0.0255
2918.00,0.0251
2917.00,0.0248
2916.00,0.0243
2915.00,0.0239
2914.00,0.0234
2913.00,0.0230
2912.00,0.0225
2911.00,0.0221
2910.00,0.0217
2909.00,0.0212
2908.00,0.0208
2907.00,0.0204
2906.00,0.0201
2905.00,0.0198
2904.00,0.0196
2903.00,0.0193
2902.00,0.0192
2901.00,0.0190
2900.00,0.0189
2899.00,0.0189
2898.00,0.0188
2897.00,0.0188
2896.00,0.0188
2895.00,0.0187
2894.00,0.0187
2893.00,0.0187
2892.00,0.0187
2891.00,0.0187
2890.00,0.0187
2889.00,0.0186
2888.00,0.0186
2887.00,0.0186
2886.00,0.0186
2885.00,0.0186
2884.00,0.0186
2883.00,0.0186
2882.00,0.0186
2881.00,0.0186
2880.00,0.0187
2879.00,0.0187
2878.00,0.0188
2877.00,0.0189
2876.00,0.0190
2875.00,0.0191
2874.00,0.0191
2873.00,0.0192
2872.00,0.0193
2871.00,0.0193
2870.00,0.0193
2869.00,0.0192
2868.00,0.0192
2867.00,0.0191
2866.00,0.0190
2865.00,0.0190
2864.00,0.0189
2863.00,0.0189
2862.00,0.0189
2861.00,0.0189
2860.00,0.0190
2859.00,0.0189
2858.00,0.0189
2857.00,0.0188
2856.00,0.0186
2855.00,0.0183
2854.00,0.0179
2853.00,0.0175
2852.00,0.0170
2851.00,0.0165
2850.00,0.0159
2849.00,0.0153
2848.00,0.0148
2847.00,0.0143
2846.00,0.0138
2845.00,0.0133
2844.00,0.0129
2843.00,0.0124
2842.00,0.0120
2841.00,0.0116
2840.00,0.0112
2839.00,0.0108
2838.00,0.0105
2837.00,0.0102
2836.00,0.0100
2835.00,0.0097
2834.00,0.0095
2833.00,0.0093
2832.00,0.0090
2831.00,0.0088
2830.00,0.0086
2829.00,0.0084
2828.00,0.0082
2827.00,0.0080
2826.00,0.0078
2825.00,0.0076
2824.00,0.0075
2823.00,0.0073
2822.00,0.0071
2821.00,0.0070
2820.00,0.0069
2819.00,0.0067
2818.00,0.0066
2817.00,0.0065
2816.00,0.0064
2815.00,0.0063
2814.00,0.0062
2813.00,0.0061
2812.00,0.0060
2811.00,0.0060
2810.00,0.0059
2809.00,0.0058
2808.00,0.0058
2807.00,0.0057
2806.00,0.0057
2805.00,0.0056
2804.00,0.0056
2803.00,0.0056
2802.00,0.0055
2801.00,0.0055
2800.00,0.0054
2799.00,0.0054
2798.00,0.0054
2797.00,0.0053
2796.00,0.0053
2795.00,0.0052
2794.00,0.0052
2793.00,0.0052
2792.00,0.0051
2791.00,0.0051
2790.00,0.0051
2789.00,0.0051
2788.00,0.0050
2787.00,0.0050
2786.00,0.0050
2785.00,0.0050
2784.00,0.0049
2783.00,0.0049
2782.00,0.0049
2781.00,0.0049
2780.00,0.0048
2779.00,0.0048
2778.00,0.0048
2777.00,0.0048
2776.00,0.0048
2775.00,0.0047
2774.00,0.0047
2773.00,0.0047
2772.00,0.0047
2771.00,0.0046
2770.00,0.0046
2769.00,0.0046
2768.00,0.0046
2767.00,0.0046
2766.00,0.0046
2765.00,0.0046
2764.00,0.0045
2763.00,0.0045
2762.00,0.0045
2761.00,0.0045
2760.00,0.0045
2759.00,0.0045
2758.00,0.0045
2757.00,0.0045
2756.00,0.0045
2755.00,0.0045
2754.00,0.0046
2753.00,0.0046
2752.00,0.0046
2751.00,0.0046
2750.00,0.0046
2749.00,0.0046
2748.00,0.0046
2747.00,0.0046
2746.00,0.0046
2745.00,0.0046
2744.00,0.0046
2743.00,0.0046
2742.00,0.0046
2741.00,0.0047
2740.00,0.0047
2739.00,0.0047
2738.00,0.0047
2737.00,0.0047
2736.00,0.0047
2735.00,0.0047
2734.00,0.0047
2733.00,0.0047
2732.00,0.0047
2731.00,0.0046
2730.00,0.0046
2729.00,0.0046
2728.00,0.0046
2727.00,0.0046
2726.00,0.0046
2725.00,0.0045
2724.00,0.0045
2723.00,0.0045
2722.00,0.0045
2721.00,0.0045
2720.00,0.0045
2719.00,0.0045
2718.00,0.0045
2717.00,0.0044
2716.00,0.0044
2715.00,0.0044
2714.00,0.0044
2713.00,0.0043
2712.00,0.0043
2711.00,0.0043
2710.00,0.0043
2709.00,0.0043
2708.00,0.0043
2707.00,0.0043
2706.00,0.0043
2705.00,0.0043
2704.00,0.0042
2703.00,0.0042
2702.00,0.0042
2701.00,0.0042
2700.00,0.0042
2699.00,0.0042
2698.00,0.0041
2697.00,0.0041
2696.00,0.0041
2695.00,0.0041
2694.00,0.0041
2693.00,0.0041
2692.00,0.0041
2691.00,0.0040
2690.00,0.0040
2689.00,0.0040
2688.00,0.0040
2687.00,0.0039
2686.00,0.0039
2685.00,0.0039
2684.00,0.0039
2683.00,0.0039
2682.00,0.0039
2681.00,0.0039
2680.00,0.0039
2679.00,0.0038
2678.00,0.0038
2677.00,0.0038
2676.00,0.0038
2675.00,0.0038
2674.00,0.0038
2673.00,0.0038
2672.00,0.0038
2671.00,0.0038
2670.00,0.0038
2669.00,0.0038
2668.00,0.0038
2667.00,0.0038
2666.00,0.0038
2665.00,0.0039
2664.00,0.0039
2663.00,0.0039
2662.00,0.0040
2661.00,0.0040
2660.00,0.0040
2659.00,0.0040
2658.00,0.0040
2657.00,0.0040
2656.00,0.0040
2655.00,0.0040
2654.00,0.0040
2653.00,0.0040
2652.00,0.0040
2651.00,0.0040
2650.00,0.0040
2649.00,0.0040
2648.00,0.0040
2647.00,0.0040
2646.00,0.0039
2645.00,0.0039
2644.00,0.0039
2643.00,0.0039
2642.00,0.0039
2641.00,0.0039
2640.00,0.0038
2639.00,0.0038
2638.00,0.0038
2637.00,0.0038
2636.00,0.0038
2635.00,0.0038
2634.00,0.0037
2633.00,0.0037
2632.00,0.0037
2631.00,0.0037
2630.00,0.0037
2629.00,0.0037
2628.00,0.0037
2627.00,0.0036
2626.00,0.0036
2625.00,0.0036
2624.00,0.0036
2623.00,0.0036
2622.00,0.0036
2621.00,0.0036
2620.00,0.0036
2619.00,0.0036
2618.00,0.0035
2617.00,0.0035
2616.00,0.0035
2615.00,0.0035
2614.00,0.0035
2613.00,0.0035
2612.00,0.0035
2611.00,0.0035
2610.00,0.0035
2609.00,0.0035
2608.00,0.0034
2607.00,0.0034
2606.00,0.0034
2605.00,0.0033
2604.00,0.0033
2603.00,0.0033
2602.00,0.0033
2601.00,0.0033
2600.00,0.0033
2599.00,0.0033
2598.00,0.0033
2597.00,0.0033
2596.00,0.0033
2595.00,0.0032
2594.00,0.0032
2593.00,0.0032
2592.00,0.0032
2591.00,0.0032
2590.00,0.0032
2589.00,0.0032
2588.00,0.0032
2587.00,0.0032
2586.00,0.0032
2585.00,0.0032
2584.00,0.0032
2583.00,0.0032
2582.00,0.0032
2581.00,0.0032
2580.00,0.0032
2579.00,0.0032
2578.00,0.0032
2577.00,0.0032
2576.00,0.0032
2575.00,0.0032
2574.00,0.0032
2573.00,0.0032
2572.00,0.0031
2571.00,0.0031
2570.00,0.0031
2569.00,0.0031
2568.00,0.0031
2567.00,0.0030
2566.00,0.0030
2565.00,0.0030
2564.00,0.0030
2563.00,0.0029
2562.00,0.0029
2561.00,0.0029
2560.00,0.0029
2559.00,0.0029
2558.00,0.0029
2557.00,0.0029
2556.00,0.0028
2555.00,0.0028
2554.00,0.0028
2553.00,0.0028
2552.00,0.0028
2551.00,0.0028
2550.00,0.0028
2549.00,0.0028
2548.00,0.0028
2547.00,0.0027
2546.00,0.0027
2545.00,0.0028
2544.00,0.0028
2543.00,0.0028
2542.00,0.0027
2541.00,0.0027
2540.00,0.0027
2539.00,0.0026
2538.00,0.0026
2537.00,0.0026
2536.00,0.0026
2535.00,0.0026
2534.00,0.0026
2533.00,0.0026
2532.00,0.0026
2531.00,0.0025
2530.00,0.0025
2529.00,0.0025
2528.00,0.0025
2527.00,0.0024
2526.00,0.0024
2525.00,0.0023
2524.00,0.0023
2523.00,0.0023
2522.00,0.0022
2521.00,0.0022
2520.00,0.0022
2519.00,0.0022
2518.00,0.0022
2517.00,0.0022
2516.00,0.0022
2515.00,0.0022
2514.00,0.0022
2513.00,0.0022
2512.00,0.0022
2511.00,0.0021
2510.00,0.0021
2509.00,0.0021
2508.00,0.0022
2507.00,0.0022
2506.00,0.0022
2505.00,0.0022
2504.00,0.0022
2503.00,0.0021
2502.00,0.0021
2501.00,0.0021
2500.00,0.0021
2499.00,0.0021
2498.00,0.0020
2497.00,0.0020
2496.00,0.0020
2495.00,0.0021
2494.00,0.0021
2493.00,0.0021
2492.00,0.0020
2491.00,0.0020
2490.00,0.0020
2489.00,0.0019
2488.00,0.0019
2487.00,0.0019
2486.00,0.0019
2485.00,0.0019
2484.00,0.0019
2483.00,0.0019
2482.00,0.0019
2481.00,0.0019
2480.00,0.0019
2479.00,0.0019
2478.00,0.0019
2477.00,0.0019
2476.00,0.0020
2475.00,0.0020
2474.00,0.0020
2473.00,0.0020
2472.00,0.0019
2471.00,0.0019
2470.00,0.0019
2469.00,0.0019
2468.00,0.0019
2467.00,0.0020
2466.00,0.0020
2465.00,0.0020
2464.00,0.0020
2463.00,0.0020
2462.00,0.0020
2461.00,0.0020
2460.00,0.0020
2459.00,0.0020
2458.00,0.0020
2457.00,0.0020
2456.00,0.0020
2455.00,0.0020
2454.00,0.0020
2453.00,0.0020
2452.00,0.0020
2451.00,0.0020
2450.00,0.0020
2449.00,0.0019
2448.00,0.0019
2447.00,0.0019
2446.00,0.0019
2445.00,0.0019
2444.00,0.0019
2443.00,0.0019
2442.00,0.0019
2441.00,0.0019
2440.00,0.0019
2439.00,0.0019
2438.00,0.0019
2437.00,0.0018
2436.00,0.0018
2435.00,0.0018
2434.00,0.0019
2433.00,0.0019
2432.00,0.0019
2431.00,0.0019
2430.00,0.0019
2429.00,0.0019
2428.00,0.0018
2427.00,0.0018
2426.00,0.0018
2425.00,0.0018
2424.00,0.0018
2423.00,0.0018
2422.00,0.0018
2421.00,0.0018
2420.00,0.0018
2419.00,0.0018
2418.00,0.0017
2417.00,0.0017
2416.00,0.0017
2415.00,0.0018
2414.00,0.0018
2413.00,0.0018
2412.00,0.0018
2411.00,0.0018
2410.00,0.0018
2409.00,0.0018
2408.00,0.0017
2407.00,0.0017
2406.00,0.0017
2405.00,0.0016
2404.00,0.0016
2403.00,0.0016
2402.00,0.0016
2401.00,0.0017
2400.00,0.0017
2399.00,0.0017
2398.00,0.0016
2397.00,0.0016
2396.00,0.0016
2395.00,0.0016
2394.00,0.0016
2393.00,0.0016
2392.00,0.0015
2391.00,0.0015
2390.00,0.0015
2389.00,0.0015
2388.00,0.0015
2387.00,0.0015
2386.00,0.0015
2385.00,0.0014
2384.00,0.0014
2383.00,0.0013
2382.00,0.0013
2381.00,0.0012
2380.00,0.0012
2379.00,0.0012
2378.00,0.0012
2377.00,0.0012
2376.00,0.0012
2375.00,0.0012
2374.00,0.0012
2373.00,0.0012
2372.00,0.0012
2371.00,0.0012
2370.00,0.0011
2369.00,0.0010
2368.00,0.0010
2367.00,0.0010
2366.00,0.0011
2365.00,0.0011
2364.00,0.0012
2363.00,0.0012
2362.00,0.0012
2361.00,0.0012
2360.00,0.0012
2359.00,0.0012
2358.00,0.0012
2357.00,0.0012
2356.00,0.0013
2355.00,0.0013
2354.00,0.0013
2353.00,0.0013
2352.00,0.0012
2351.00,0.0012
2350.00,0.0012
2349.00,0.0013
2348.00,0.0015
2347.00,0.0015
2346.00,0.0015
2345.00,0.0015
2344.00,0.0015
2343.00,0.0015
2342.00,0.0015
2341.00,0.0016
2340.00,0.0016
2339.00,0.0016
2338.00,0.0016
2337.00,0.0016
2336.00,0.0016
2335.00,0.0016
2334.00,0.0016
2333.00,0.0016
2332.00,0.0016
2331.00,0.0016
2330.00,0.0017
2329.00,0.0018
2328.00,0.0021
2327.00,0.0025
2326.00,0.0028
2325.00,0.0029
2324.00,0.0029
2323.00,0.0027
2322.00,0.0025
2321.00,0.0023
2320.00,0.0023
2319.00,0.0023
2318.00,0.0023
2317.00,0.0023
2316.00,0.0023
2315.00,0.0022
2314.00,0.0021
2313.00,0.0021
2312.00,0.0021
2311.00,0.0021
2310.00,0.0021
2309.00,0.0021
2308.00,0.0022
2307.00,0.0022
2306.00,0.0022
2305.00,0.0021
2304.00,0.0022
2303.00,0.0022
2302.00,0.0022
2301.00,0.0022
2300.00,0.0022
2299.00,0.0022
2298.00,0.0022
2297.00,0.0023
2296.00,0.0024
2295.00,0.0025
2294.00,0.0025
2293.00,0.0026
2292.00,0.0027
2291.00,0.0027
2290.00,0.0028
2289.00,0.0028
2288.00,0.0029
2287.00,0.0029
2286.00,0.0029
2285.00,0.0029
2284.00,0.0028
2283.00,0.0026
2282.00,0.0025
2281.00,0.0024
2280.00,0.0024
2279.00,0.0024
2278.00,0.0024
2277.00,0.0024
2276.00,0.0024
2275.00,0.0023
2274.00,0.0023
2273.00,0.0022
2272.00,0.0022
2271.00,0.0022
2270.00,0.0021
2269.00,0.0021
2268.00,0.0021
2267.00,0.0020
2266.00,0.0020
2265.00,0.0020
2264.00,0.0020
2263.00,0.0021
2262.00,0.0021
2261.00,0.0021
2260.00,0.0021
2259.00,0.0021
2258.00,0.0020
2257.00,0.0019
2256.00,0.0019
2255.00,0.0019
2254.00,0.0019
2253.00,0.0019
2252.00,0.0019
2251.00,0.0020
2250.00,0.0019
2249.00,0.0019
2248.00,0.0019
2247.00,0.0020
2246.00,0.0020
2245.00,0.0020
2244.00,0.0020
2243.00,0.0019
2242.00,0.0019
2241.00,0.0018
2240.00,0.0019
2239.00,0.0019
2238.00,0.0020
2237.00,0.0020
2236.00,0.0019
2235.00,0.0019
2234.00,0.0018
2233.00,0.0018
2232.00,0.0018
2231.00,0.0018
2230.00,0.0019
2229.00,0.0019
2228.00,0.0020
2227.00,0.0021
2226.00,0.0020
2225.00,0.0020
2224.00,0.0020
2223.00,0.0020
2222.00,0.0020
2221.00,0.0020
2220.00,0.0020
2219.00,0.0020
2218.00,0.0020
2217.00,0.0020
2216.00,0.0019
2215.00,0.0019
2214.00,0.0018
2213.00,0.0018
2212.00,0.0019
2211.00,0.0019
2210.00,0.0020
2209.00,0.0020
2208.00,0.0020
2207.00,0.0020
2206.00,0.0020
2205.00,0.0020
2204.00,0.0020
2203.00,0.0019
2202.00,0.0019
2201.00,0.0018
2200.00,0.0018
2199.00,0.0019
2198.00,0.0019
2197.00,0.0020
2196.00,0.0021
2195.00,0.0021
2194.00,0.0021
2193.00,0.0020
2192.00,0.0021
2191.00,0.0022
2190.00,0.0023
2189.00,0.0024
2188.00,0.0025
2187.00,0.0025
2186.00,0.0025
2185.00,0.0024
2184.00,0.0022
2183.00,0.0019
2182.00,0.0017
2181.00,0.0017
2180.00,0.0019
2179.00,0.0020
2178.00,0.0019
2177.00,0.0017
2176.00,0.0015
2175.00,0.0015
2174.00,0.0016
2173.00,0.0017
2172.00,0.0019
2171.00,0.0021
2170.00,0.0023
2169.00,0.0024
2168.00,0.0026
2167.00,0.0027
2166.00,0.0027
2165.00,0.0028
2164.00,0.0030
2163.00,0.0031
2162.00,0.0028
2161.00,0.0020
2160.00,0.0008
2159.00,-0.0002
2158.00,-0.0009
2157.00,-0.0010
2156.00,-0.0008
2155.00,-0.0005
2154.00,-0.0002
2153.00,0.0000
2152.00,0.0002
2151.00,0.0003
2150.00,0.0003
2149.00,0.0002
2148.00,0.0001
2147.00,0.0001
2146.00,0.0001
2145.00,0.0002
2144.00,0.0004
2143.00,0.0006
2142.00,0.0006
2141.00,0.0006
2140.00,0.0005
2139.00,0.0005
2138.00,0.0003
2137.00,0.0001
2136.00,-0.0000
2135.00,-0.0002
2134.00,-0.0002
2133.00,-0.0000
2132.00,0.0002
2131.00,0.0004
2130.00,0.0005
2129.00,0.0006
2128.00,0.0007
2127.00,0.0009
2126.00,0.0010
2125.00,0.0010
2124.00,0.0011
2123.00,0.0011
2122.00,0.0011
2121.00,0.0011
2120.00,0.0012
2119.00,0.0013
2118.00,0.0014
2117.00,0.0015
2116.00,0.0017
2115.00,0.0017
2114.00,0.0018
2113.00,0.0018
2112.00,0.0018
2111.00,0.0017
2110.00,0.0016
2109.00,0.0015
2108.00,0.0014
2107.00,0.0014
2106.00,0.0014
2105.00,0.0014
2104.00,0.0015
2103.00,0.0017
2102.00,0.0018
2101.00,0.0018
2100.00,0.0018
2099.00,0.0017
2098.00,0.0015
2097.00,0.0013
2096.00,0.0012
2095.00,0.0012
2094.00,0.0012
2093.00,0.0013
2092.00,0.0014
2091.00,0.0015
2090.00,0.0016
2089.00,0.0017
2088.00,0.0017
2087.00,0.0018
2086.00,0.0018
2085.00,0.0018
2084.00,0.0019
2083.00,0.0020
2082.00,0.0020
2081.00,0.0021
2080.00,0.0021
2079.00,0.0020
2078.00,0.0019
2077.00,0.0018
2076.00,0.0017
2075.00,0.0017
2074.00,0.0017
2073.00,0.0017
2072.00,0.0018
2071.00,0.0017
2070.00,0.0017
2069.00,0.0016
2068.00,0.0016
2067.00,0.0016
2066.00,0.0016
2065.00,0.0016
2064.00,0.0016
2063.00,0.0016
2062.00,0.0015
2061.00,0.0015
2060.00,0.0015
2059.00,0.0015
2058.00,0.0016
2057.00,0.0016
2056.00,0.0016
2055.00,0.0018
2054.00,0.0020
2053.00,0.0024
2052.00,0.0027
2051.00,0.0027
2050.00,0.0024
2049.00,0.0021
2048.00,0.0019
2047.00,0.0018
2046.00,0.0018
2045.00,0.0018
2044.00,0.0019
2043.00,0.0020
2042.00,0.0019
2041.00,0.0018
2040.00,0.0017
2039.00,0.0017
2038.00,0.0016
2037.00,0.0015
2036.00,0.0015
2035.00,0.0013
2034.00,0.0011
2033.00,0.0010
2032.00,0.0009
2031.00,0.0009
2030.00,0.0009
2029.00,0.0009
2028.00,0.0011
2027.00,0.0012
2026.00,0.0013
2025.00,0.0013
2024.00,0.0014
2023.00,0.0013
2022.00,0.0012
2021.00,0.0010
2020.00,0.0009
2019.00,0.0008
2018.00,0.0008
2017.00,0.0008
2016.00,0.0009
2015.00,0.0010
2014.00,0.0009
2013.00,0.0008
2012.00,0.0008
2011.00,0.0007
2010.00,0.0007
2009.00,0.0006
2008.00,0.0006
2007.00,0.0005
2006.00,0.0003
2005.00,0.0003
2004.00,0.0003
2003.00,0.0005
2002.00,0.0006
2001.00,0.0007
2000.00,0.0009
1999.00,0.0009
1998.00,0.0009
1997.00,0.0010
1996.00,0.0011
1995.00,0.0011
1994.00,0.0011
1993.00,0.0011
1992.00,0.0011
1991.00,0.0012
1990.00,0.0012
1989.00,0.0013
1988.00,0.0015
1987.00,0.0016
1986.00,0.0017
1985.00,0.0017
1984.00,0.0019
1983.00,0.0022
1982.00,0.0024
1981.00,0.0025
1980.00,0.0023
1979.00,0.0018
1978.00,0.0011
1977.00,0.0007
1976.00,0.0005
1975.00,0.0004
1974.00,0.0004
1973.00,0.0003
1972.00,0.0004
1971.00,0.0003
1970.00,0.0002
1969.00,0.0001
1968.00,0.0001
1967.00,0.0001
1966.00,0.0001
1965.00,0.0002
1964.00,0.0003
1963.00,0.0003
1962.00,0.0002
1961.00,0.0001
1960.00,0.0000
1959.00,-0.0000
1958.00,0.0000
1957.00,0.0001
1956.00,0.0003
1955.00,0.0004
1954.00,0.0004
1953.00,0.0004
1952.00,0.0005
1951.00,0.0006
1950.00,0.0006
1949.00,0.0006
1948.00,0.0006
1947.00,0.0005
1946.00,0.0005
1945.00,0.0005
1944.00,0.0006
1943.00,0.0006
1942.00,0.0006
1941.00,0.0005
1940.00,0.0005
1939.00,0.0006
1938.00,0.0006
1937.00,0.0007
1936.00,0.0008
1935.00,0.0008
1934.00,0.0007
1933.00,0.0007
1932.00,0.0007
1931.00,0.0008
1930.00,0.0008
1929.00,0.0007
1928.00,0.0007
1927.00,0.0007
1926.00,0.0007
1925.00,0.0007
1924.00,0.0008
1923.00,0.0009
1922.00,0.0010
1921.00,0.0010
1920.00,0.0011
1919.00,0.0011
1918.00,0.0011
1917.00,0.0011
1916.00,0.0012
1915.00,0.0012
1914.00,0.0012
1913.00,0.0012
1912.00,0.0012
1911.00,0.0012
1910.00,0.0011
1909.00,0.0010
1908.00,0.0010
1907.00,0.0010
1906.00,0.0010
1905.00,0.0010
1904.00,0.0010
1903.00,0.0011
1902.00,0.0011
1901.00,0.0011
1900.00,0.0012
1899.00,0.0012
1898.00,0.0013
1897.00,0.0012
1896.00,0.0012
1895.00,0.0012
1894.00,0.0012
1893.00,0.0012
1892.00,0.0012
1891.00,0.0012
1890.00,0.0012
1889.00,0.0011
1888.00,0.0012
1887.00,0.0012
1886.00,0.0013
1885.00,0.0013
1884.00,0.0013
1883.00,0.0013
1882.00,0.0012
1881.00,0.0012
1880.00,0.0012
1879.00,0.0012
1878.00,0.0011
1877.00,0.0011
1876.00,0.0012
1875.00,0.0012
1874.00,0.0012
1873.00,0.0011
1872.00,0.0011
1871.00,0.0011
1870.00,0.0011
1869.00,0.0010
1868.00,0.0010
1867.00,0.0011
1866.00,0.0012
1865.00,0.0012
1864.00,0.0013
1863.00,0.0014
1862.00,0.0014
1861.00,0.0013
1860.00,0.0014
1859.00,0.0014
1858.00,0.0014
1857.00,0.0014
1856.00,0.0014
1855.00,0.0015
1854.00,0.0015
1853.00,0.0014
1852.00,0.0014
1851.00,0.0015
1850.00,0.0015
1849.00,0.0014
1848.00,0.0014
1847.00,0.0013
1846.00,0.0013
1845.00,0.0013
1844.00,0.0014
1843.00,0.0014
1842.00,0.0014
1841.00,0.0014
1840.00,0.0014
1839.00,0.0015
1838.00,0.0015
1837.00,0.0015
1836.00,0.0015
1835.00,0.0016
1834.00,0.0015
1833.00,0.0014
1832.00,0.0014
1831.00,0.0013
1830.00,0.0013
1829.00,0.0013
1828.00,0.0014
1827.00,0.0014
1826.00,0.0015
1825.00,0.0015
1824.00,0.0016
1823.00,0.0016
1822.00,0.0016
1821.00,0.0016
1820.00,0.0015
1819.00,0.0014
1818.00,0.0013
1817.00,0.0013
1816.00,0.0013
1815.00,0.0013
1814.00,0.0014
1813.00,0.0014
1812.00,0.0015
1811.00,0.0015
1810.00,0.0016
1809.00,0.0016
1808.00,0.0017
1807.00,0.0017
1806.00,0.0017
1805.00,0.0017
1804.00,0.0017
1803.00,0.0017
1802.00,0.0018
1801.00,0.0018
1800.00,0.0018
1799.00,0.0018
1798.00,0.0018
1797.00,0.0018
1796.00,0.0018
1795.00,0.0018
1794.00,0.0018
1793.00,0.0018
1792.00,0.0019
1791.00,0.0020
1790.00,0.0021
1789.00,0.0021
1788.00,0.0021
1787.00,0.0022
1786.00,0.0022
1785.00,0.0022
1784.00,0.0022
1783.00,0.0022
1782.00,0.0022
1781.00,0.0022
1780.00,0.0023
1779.00,0.0023
1778.00,0.0023
1777.00,0.0023
1776.00,0.0023
1775.00,0.0022
1774.00,0.0022
1773.00,0.0023
1772.00,0.0024
1771.00,0.0024
1770.00,0.0025
1769.00,0.0026
1768.00,0.0027
1767.00,0.0028
1766.00,0.0028
1765.00,0.0028
1764.00,0.0028
1763.00,0.0029
1762.00,0.0029
1761.00,0.0029
1760.00,0.0030
1759.00,0.0031
1758.00,0.0031
1757.00,0.0032
1756.00,0.0032
1755.00,0.0033
1754.00,0.0032
1753.00,0.0033
1752.00,0.0033
1751.00,0.0034
1750.00,0.0034
1749.00,0.0034
1748.00,0.0036
1747.00,0.0037
1746.00,0.0037
1745.00,0.0038
1744.00,0.0039
1743.00,0.0039
1742.00,0.0040
1741.00,0.0041
1740.00,0.0043
1739.00,0.0044
1738.00,0.0044
1737.00,0.0044
1736.00,0.0045
1735.00,0.0047
1734.00,0.0049
1733.00,0.0050
1732.00,0.0052
1731.00,0.0054
1730.00,0.0056
1729.00,0.0059
1728.00,0.0062
1727.00,0.0064
1726.00,0.0066
1725.00,0.0068
1724.00,0.0071
1723.00,0.0074
1722.00,0.0075
1721.00,0.0076
1720.00,0.0079
1719.00,0.0082
1718.00,0.0085
1717.00,0.0088
1716.00,0.0094
1715.00,0.0099
1714.00,0.0105
1713.00,0.0110
1712.00,0.0117
1711.00,0.0125
1710.00,0.0132
1709.00,0.0139
1708.00,0.0149
1707.00,0.0160
1706.00,0.0172
1705.00,0.0186
1704.00,0.0201
1703.00,0.0217
1702.00,0.0236
1701.00,0.0261
1700.00,0.0291
1699.00,0.0320
1698.00,0.0346
1697.00,0.0378
1696.00,0.0420
1695.00,0.0464
1694.00,0.0504
1693.00,0.0542
1692.00,0.0583
1691.00,0.0627
1690.00,0.0671
1689.00,0.0716
1688.00,0.0760
1687.00,0.0802
1686.00,0.0844
1685.00,0.0887
1684.00,0.0928
1683.00,0.0963
1682.00,0.0996
1681.00,0.1030
1680.00,0.1064
1679.00,0.1096
1678.00,0.1125
1677.00,0.1153
1676.00,0.1175
1675.00,0.1191
1674.00,0.1204
1673.00,0.1222
1672.00,0.1245
1671.00,0.1265
1670.00,0.1277
1669.00,0.1284
1668.00,0.1295
1667.00,0.1312
1666.00,0.1334
1665.00,0.1357
1664.00,0.1376
1663.00,0.1388
1662.00,0.1394
1661.00,0.1402
1660.00,0.1415
1659.00,0.1429
1658.00,0.1442
1657.00,0.1458
1656.00,0.1476
1655.00,0.1491
1654.00,0.1478
1653.00,0.1426
1652.00,0.1379
1651.00,0.1366
1650.00,0.1371
1649.00,0.1373
1648.00,0.1356
1647.00,0.1313
1646.00,0.1257
1645.00,0.1211
1644.00,0.1177
1643.00,0.1147
1642.00,0.1115
1641.00,0.1078
1640.00,0.1039
1639.00,0.1002
1638.00,0.0967
1637.00,0.0923
1636.00,0.0864
1635.00,0.0802
1634.00,0.0755
1633.00,0.0724
1632.00,0.0699
1631.00,0.0676
1630.00,0.0652
1629.00,0.0627
1628.00,0.0604
1627.00,0.0586
1626.00,0.0576
1625.00,0.0571
1624.00,0.0571
1623.00,0.0573
1622.00,0.0578
1621.00,0.0585
1620.00,0.0592
1619.00,0.0597
1618.00,0.0596
1617.00,0.0583
1616.00,0.0563
1615.00,0.0545
1614.00,0.0531
1613.00,0.0520
1612.00,0.0509
1611.00,0.0498
1610.00,0.0485
1609.00,0.0471
1608.00,0.0454
1607.00,0.0435
1606.00,0.0413
1605.00,0.0390
1604.00,0.0366
1603.00,0.0342
1602.00,0.0320
1601.00,0.0300
1600.00,0.0283
1599.00,0.0268
1598.00,0.0257
1597.00,0.0249
1596.00,0.0243
1595.00,0.0241
1594.00,0.0243
1593.00,0.0248
1592.00,0.0259
1591.00,0.0273
1590.00,0.0290
1589.00,0.0309
1588.00,0.0326
1587.00,0.0342
1586.00,0.0352
1585.00,0.0355
1584.00,0.0352
1583.00,0.0343
1582.00,0.0329
1581.00,0.0312
1580.00,0.0295
1579.00,0.0279
1578.00,0.0264
1577.00,0.0249
1576.00,0.0232
1575.00,0.0218
1574.00,0.0209
1573.00,0.0203
1572.00,0.0198
1571.00,0.0192
1570.00,0.0185
1569.00,0.0177
1568.00,0.0171
1567.00,0.0167
1566.00,0.0163
1565.00,0.0158
1564.00,0.0153
1563.00,0.0149
1562.00,0.0146
1561.00,0.0143
1560.00,0.0138
1559.00,0.0131
1558.00,0.0126
1557.00,0.0124
1556.00,0.0123
1555.00,0.0123
1554.00,0.0122
1553.00,0.0121
1552.00,0.0119
1551.00,0.0118
1550.00,0.0117
1549.00,0.0116
1548.00,0.0114
1547.00,0.0113
1546.00,0.0111
1545.00,0.0109
1544.00,0.0107
1543.00,0.0104
1542.00,0.0103
1541.00,0.0103
1540.00,0.0103
1539.00,0.0103
1538.00,0.0102
1537.00,0.0103
1536.00,0.0103
1535.00,0.0103
1534.00,0.0103
1533.00,0.0103
1532.00,0.0103
1531.00,0.0104
1530.00,0.0105
1529.00,0.0106
1528.00,0.0106
1527.00,0.0107
1526.00,0.0108
1525.00,0.0109
1524.00,0.0110
1523.00,0.0112
1522.00,0.0115
1521.00,0.0119
1520.00,0.0122
1519.00,0.0125
1518.00,0.0128
1517.00,0.0132
1516.00,0.0135
1515.00,0.0138
1514.00,0.0140
1513.00,0.0142
1512.00,0.0144
1511.00,0.0144
1510.00,0.0145
1509.00,0.0146
1508.00,0.0150
1507.00,0.0156
1506.00,0.0166
1505.00,0.0175
1504.00,0.0186
1503.00,0.0198
1502.00,0.0213
1501.00,0.0230
1500.00,0.0250
1499.00,0.0272
1498.00,0.0295
1497.00,0.0316
1496.00,0.0332
1495.00,0.0342
1494.00,0.0347
1493.00,0.0349
1492.00,0.0344
1491.00,0.0333
1490.00,0.0315
1489.00,0.0294
1488.00,0.0274
1487.00,0.0255
1486.00,0.0238
1485.00,0.0223
1484.00,0.0210
1483.00,0.0199
1482.00,0.0189
1481.00,0.0182
1480.00,0.0178
1479.00,0.0176
1478.00,0.0176
1477.00,0.0179
1476.00,0.0184
1475.00,0.0192
1474.00,0.0204
1473.00,0.0222
1472.00,0.0248
1471.00,0.0275
1470.00,0.0304
1469.00,0.0336
1468.00,0.0371
1467.00,0.0409
1466.00,0.0451
1465.00,0.0498
1464.00,0.0541
1463.00,0.0576
1462.00,0.0602
1461.00,0.0621
1460.00,0.0632
1459.00,0.0630
1458.00,0.0612
1457.00,0.0575
1456.00,0.0534
1455.00,0.0503
1454.00,0.0483
1453.00,0.0468
1452.00,0.0457
1451.00,0.0450
1450.00,0.0451
1449.00,0.0458
1448.00,0.0473
1447.00,0.0494
1446.00,0.0519
1445.00,0.0547
1444.00,0.0578
1443.00,0.0609
1442.00,0.0639
1441.00,0.0668
1440.00,0.0696
1439.00,0.0720
1438.00,0.0742
1437.00,0.0761
1436.00,0.0775
1435.00,0.0786
1434.00,0.0796
1433.00,0.0807
1432.00,0.0816
1431.00,0.0823
1430.00,0.0830
1429.00,0.0842
1428.00,0.0859
1427.00,0.0881
1426.00,0.0908
1425.00,0.0937
1424.00,0.0964
1423.00,0.0984
1422.00,0.0996
1421.00,0.0996
1420.00,0.0976
1419.00,0.0928
1418.00,0.0869
1417.00,0.0813
1416.00,0.0760
1415.00,0.0710
1414.00,0.0662
1413.00,0.0619
1412.00,0.0581
1411.00,0.0549
1410.00,0.0524
1409.00,0.0508
1408.00,0.0496
1407.00,0.0488
1406.00,0.0484
1405.00,0.0483
1404.00,0.0481
1403.00,0.0480
1402.00,0.0478
1401.00,0.0473
1400.00,0.0461
1399.00,0.0443
1398.00,0.0422
1397.00,0.0401
1396.00,0.0379
1395.00,0.0355
1394.00,0.0334
1393.00,0.0317
1392.00,0.0305
1391.00,0.0296
1390.00,0.0291
1389.00,0.0288
1388.00,0.0288
1387.00,0.0291
1386.00,0.0297
1385.00,0.0306
1384.00,0.0317
1383.00,0.0329
1382.00,0.0342
1381.00,0.0354
1380.00,0.0364
1379.00,0.0373
1378.00,0.0379
1377.00,0.0383
1376.00,0.0384
1375.00,0.0383
1374.00,0.0380
1373.00,0.0376
1372.00,0.0372
1371.00,0.0367
1370.00,0.0362
1369.00,0.0356
1368.00,0.0349
1367.00,0.0344
1366.00,0.0340
1365.00,0.0338
1364.00,0.0338
1363.00,0.0339
1362.00,0.0340
1361.00,0.0339
1360.00,0.0335
1359.00,0.0326
1358.00,0.0314
1357.00,0.0299
1356.00,0.0283
1355.00,0.0267
1354.00,0.0254
1353.00,0.0244
1352.00,0.0237
1351.00,0.0231
1350.00,0.0228
1349.00,0.0225
1348.00,0.0223
1347.00,0.0222
1346.00,0.0221
1345.00,0.0220
1344.00,0.0220
1343.00,0.0220
1342.00,0.0221
1341.00,0.0222
1340.00,0.0223
1339.00,0.0225
1338.00,0.0229
1337.00,0.0233
1336.00,0.0238
1335.00,0.0244
1334.00,0.0250
1333.00,0.0256
1332.00,0.0262
1331.00,0.0269
1330.00,0.0277
1329.00,0.0285
1328.00,0.0294
1327.00,0.0303
1326.00,0.0314
1325.00,0.0326
1324.00,0.0338
1323.00,0.0350
1322.00,0.0362
1321.00,0.0372
1320.00,0.0381
1319.00,0.0387
1318.00,0.0391
1317.00,0.0391
1316.00,0.0389
1315.00,0.0384
1314.00,0.0377
1313.00,0.0370
1312.00,0.0362
1311.00,0.0355
1310.00,0.0351
1309.00,0.0348
1308.00,0.0347
1307.00,0.0349
1306.00,0.0353
1305.00,0.0361
1304.00,0.0372
1303.00,0.0386
1302.00,0.0404
1301.00,0.0427
1300.00,0.0456
1299.00,0.0492
1298.00,0.0537
1297.00,0.0589
1296.00,0.0648
1295.00,0.0712
1294.00,0.0780
1293.00,0.0848
1292.00,0.0914
1291.00,0.0974
1290.00,0.1027
1289.00,0.1071
1288.00,0.1104
1287.00,0.1127
1286.00,0.1138
1285.00,0.1138
1284.00,0.1128
1283.00,0.1109
1282.00,0.1085
1281.00,0.1059
1280.00,0.1035
1279.00,0.1015
1278.00,0.1002
1277.00,0.0995
1276.00,0.0993
1275.00,0.0995
1274.00,0.0998
1273.00,0.1000
1272.00,0.0997
1271.00,0.0988
1270.00,0.0973
1269.00,0.0951
1268.00,0.0923
1267.00,0.0889
1266.00,0.0851
1265.00,0.0811
1264.00,0.0770
1263.00,0.0729
1262.00,0.0691
1261.00,0.0654
1260.00,0.0618
1259.00,0.0586
1258.00,0.0556
1257.00,0.0530
1256.00,0.0506
1255.00,0.0484
1254.00,0.0465
1253.00,0.0449
1252.00,0.0435
1251.00,0.0424
1250.00,0.0417
1249.00,0.0412
1248.00,0.0410
1247.00,0.0412
1246.00,0.0416
1245.00,0.0423
1244.00,0.0432
1243.00,0.0441
1242.00,0.0451
1241.00,0.0461
1240.00,0.0469
1239.00,0.0476
1238.00,0.0483
1237.00,0.0489
1236.00,0.0495
1235.00,0.0500
1234.00,0.0505
1233.00,0.0508
1232.00,0.0511
1231.00,0.0511
1230.00,0.0511
1229.00,0.0510
1228.00,0.0508
1227.00,0.0505
1226.00,0.0503
1225.00,0.0501
1224.00,0.0500
1223.00,0.0499
1222.00,0.0500
1221.00,0.0501
1220.00,0.0501
1219.00,0.0499
1218.00,0.0496
1217.00,0.0491
1216.00,0.0482
1215.00,0.0470
1214.00,0.0455
1213.00,0.0439
1212.00,0.0423
1211.00,0.0406
1210.00,0.0390
1209.00,0.0375
1208.00,0.0363
1207.00,0.0352
1206.00,0.0344
1205.00,0.0339
1204.00,0.0336
1203.00,0.0335
1202.00,0.0338
1201.00,0.0343
1200.00,0.0350
1199.00,0.0359
1198.00,0.0370
1197.00,0.0381
1196.00,0.0391
1195.00,0.0399
1194.00,0.0403
1193.00,0.0403
1192.00,0.0397
1191.00,0.0387
1190.00,0.0373
1189.00,0.0358
1188.00,0.0342
1187.00,0.0327
1186.00,0.0314
1185.00,0.0303
1184.00,0.0294
1183.00,0.0287
1182.00,0.0282
1181.00,0.0279
1180.00,0.0277
1179.00,0.0276
1178.00,0.0278
1177.00,0.0280
1176.00,0.0283
1175.00,0.0287
1174.00,0.0292
1173.00,0.0297
1172.00,0.0302
1171.00,0.0306
1170.00,0.0308
1169.00,0.0310
1168.00,0.0311
1167.00,0.0312
1166.00,0.0312
1165.00,0.0313
1164.00,0.0315
1163.00,0.0320
1162.00,0.0327
1161.00,0.0336
1160.00,0.0347
1159.00,0.0357
1158.00,0.0367
1157.00,0.0373
1156.00,0.0373
1155.00,0.0369
1154.00,0.0361
1153.00,0.0348
1152.00,0.0333
1151.00,0.0316
1150.00,0.0298
1149.00,0.0281
1148.00,0.0264
1147.00,0.0249
1146.00,0.0235
1145.00,0.0224
1144.00,0.0214
1143.00,0.0206
1142.00,0.0200
1141.00,0.0197
1140.00,0.0195
1139.00,0.0195
1138.00,0.0199
1137.00,0.0206
1136.00,0.0217
1135.00,0.0233
1134.00,0.0253
1133.00,0.0276
1132.00,0.0299
1131.00,0.0319
1130.00,0.0333
1129.00,0.0337
1128.00,0.0331
1127.00,0.0316
1126.00,0.0297
1125.00,0.0276
1124.00,0.0256
1123.00,0.0239
1122.00,0.0226
1121.00,0.0216
1120.00,0.0209
1119.00,0.0204
1118.00,0.0201
1117.00,0.0199
1116.00,0.0198
1115.00,0.0198
1114.00,0.0199
1113.00,0.0200
1112.00,0.0202
1111.00,0.0204
1110.00,0.0207
1109.00,0.0209
1108.00,0.0212
1107.00,0.0216
1106.00,0.0221
1105.00,0.0228
1104.00,0.0236
1103.00,0.0244
1102.00,0.0252
1101.00,0.0258
1100.00,0.0262
1099.00,0.0261
1098.00,0.0259
1097.00,0.0253
1096.00,0.0246
1095.00,0.0239
1094.00,0.0233
1093.00,0.0227
1092.00,0.0220
1091.00,0.0215
1090.00,0.0211
1089.00,0.0208
1088.00,0.0206
1087.00,0.0205
1086.00,0.0206
1085.00,0.0206
1084.00,0.0208
1083.00,0.0209
1082.00,0.0212
1081.00,0.0216
1080.00,0.0221
1079.00,0.0227
1078.00,0.0233
1077.00,0.0241
1076.00,0.0248
1075.00,0.0255
1074.00,0.0263
1073.00,0.0272
1072.00,0.0280
1071.00,0.0290
1070.00,0.0302
1069.00,0.0316
1068.00,0.0333
1067.00,0.0353
1066.00,0.0376
1065.00,0.0403
1064.00,0.0432
1063.00,0.0463
1062.00,0.0495
1061.00,0.0525
1060.00,0.0550
1059.00,0.0568
1058.00,0.0578
1057.00,0.0576
1056.00,0.0564
1055.00,0.0541
1054.00,0.0510
1053.00,0.0474
1052.00,0.0436
1051.00,0.0399
1050.00,0.0366
1049.00,0.0338
1048.00,0.0314
1047.00,0.0295
1046.00,0.0281
1045.00,0.0270
1044.00,0.0262
1043.00,0.0256
1042.00,0.0252
1041.00,0.0249
1040.00,0.0247
1039.00,0.0246
1038.00,0.0246
1037.00,0.0247
1036.00,0.0248
1035.00,0.0251
1034.00,0.0256
1033.00,0.0262
1032.00,0.0268
1031.00,0.0273
1030.00,0.0276
1029.00,0.0276
1028.00,0.0272
1027.00,0.0266
1026.00,0.0260
1025.00,0.0255
1024.00,0.0251
1023.00,0.0250
1022.00,0.0252
1021.00,0.0255
1020.00,0.0257
1019.00,0.0260
1018.00,0.0262
1017.00,0.0262
1016.00,0.0259
1015.00,0.0254
1014.00,0.0247
1013.00,0.0239
1012.00,0.0230
1011.00,0.0223
1010.00,0.0220
1009.00,0.0220
1008.00,0.0224
1007.00,0.0230
1006.00,0.0240
1005.00,0.0250
1004.00,0.0259
1003.00,0.0266
1002.00,0.0269
1001.00,0.0269
1000.00,0.0264
999.00,0.0258
998.00,0.0251
997.00,0.0244
996.00,0.0236
995.00,0.0230
994.00,0.0224
993.00,0.0218
992.00,0.0212
991.00,0.0206
990.00,0.0201
989.00,0.0196
988.00,0.0190
987.00,0.0185
986.00,0.0181
985.00,0.0177
984.00,0.0172
983.00,0.0169
982.00,0.0167
981.00,0.0165
980.00,0.0164
979.00,0.0163
978.00,0.0163
977.00,0.0163
976.00,0.0162
975.00,0.0161
974.00,0.0159
973.00,0.0157
972.00,0.0155
971.00,0.0152
970.00,0.0150
969.00,0.0148
968.00,0.0145
967.00,0.0143
966.00,0.0141
965.00,0.0139
964.00,0.0138
963.00,0.0137
962.00,0.0136
961.00,0.0135
960.00,0.0133
959.00,0.0131
958.00,0.0129
957.00,0.0127
956.00,0.0126
955.00,0.0124
954.00,0.0124
953.00,0.0123
952.00,0.0123
951.00,0.0122
950.00,0.0122
949.00,0.0123
948.00,0.0123
947.00,0.0124
946.00,0.0127
945.00,0.0129
944.00,0.0131
943.00,0.0134
942.00,0.0139
941.00,0.0145
940.00,0.0152
939.00,0.0160
938.00,0.0170
937.00,0.0180
936.00,0.0191
935.00,0.0200
934.00,0.0208
933.00,0.0212
932.00,0.0212
931.00,0.0210
930.00,0.0206
929.00,0.0202
928.00,0.0199
927.00,0.0198
926.00,0.0198
925.00,0.0197
924.00,0.0195
923.00,0.0192
922.00,0.0189
921.00,0.0186
920.00,0.0183
919.00,0.0179
918.00,0.0177
917.00,0.0174
916.00,0.0170
915.00,0.0166
914.00,0.0163
913.00,0.0162
912.00,0.0160
911.00,0.0160
910.00,0.0161
909.00,0.0163
908.00,0.0165
907.00,0.0168
906.00,0.0172
905.00,0.0178
904.00,0.0184
903.00,0.0192
902.00,0.0200
901.00,0.0208
900.00,0.0216
899.00,0.0223
898.00,0.0228
897.00,0.0231
896.00,0.0231
895.00,0.0229
894.00,0.0225
893.00,0.0220
892.00,0.0214
891.00,0.0208
890.00,0.0204
889.00,0.0200
888.00,0.0197
887.00,0.0195
886.00,0.0195
885.00,0.0195
884.00,0.0197
883.00,0.0199
882.00,0.0203
881.00,0.0208
880.00,0.0214
879.00,0.0221
878.00,0.0229
877.00,0.0238
876.00,0.0246
875.00,0.0255
874.00,0.0264
873.00,0.0272
872.00,0.0278
871.00,0.0284
870.00,0.0288
869.00,0.0290
868.00,0.0291
867.00,0.0291
866.00,0.0292
865.00,0.0293
864.00,0.0294
863.00,0.0295
862.00,0.0297
861.00,0.0300
860.00,0.0303
859.00,0.0307
858.00,0.0312
857.00,0.0318
856.00,0.0324
855.00,0.0331
854.00,0.0339
853.00,0.0348
852.00,0.0355
851.00,0.0363
850.00,0.0372
849.00,0.0380
848.00,0.0386
847.00,0.0391
846.00,0.0395
845.00,0.0398
844.00,0.0399
843.00,0.0400
842.00,0.0400
841.00,0.0399
840.00,0.0397
839.00,0.0396
838.00,0.0395
837.00,0.0394
836.00,0.0393
835.00,0.0392
834.00,0.0391
833.00,0.0390
832.00,0.0388
831.00,0.0386
830.00,0.0385
829.00,0.0383
828.00,0.0380
827.00,0.0377
826.00,0.0375
825.00,0.0372
824.00,0.0370
823.00,0.0368
822.00,0.0368
821.00,0.0369
820.00,0.0369
819.00,0.0370
818.00,0.0371
817.00,0.0371
816.00,0.0371
815.00,0.0369
814.00,0.0367
813.00,0.0363
812.00,0.0355
811.00,0.0344
810.00,0.0331
809.00,0.0315
808.00,0.0298
807.00,0.0282
806.00,0.0267
805.00,0.0254
804.00,0.0243
803.00,0.0234
802.00,0.0229
801.00,0.0225
800.00,0.0223
799.00,0.0221
798.00,0.0221
797.00,0.0221
796.00,0.0222
795.00,0.0222
794.00,0.0224
793.00,0.0224
792.00,0.0225
791.00,0.0226
790.00,0.0227
789.00,0.0229
788.00,0.0230
787.00,0.0231
786.00,0.0232
785.00,0.0234
784.00,0.0234
783.00,0.0235
782.00,0.0238
781.00,0.0241
780.00,0.0243
779.00,0.0247
778.00,0.0250
777.00,0.0252
776.00,0.0252
775.00,0.0251
774.00,0.0249
773.00,0.0248
772.00,0.0248
771.00,0.0249
770.00,0.0252
769.00,0.0255
768.00,0.0258
767.00,0.0261
766.00,0.0265
765.00,0.0269
764.00,0.0273
763.00,0.0278
762.00,0.0285
761.00,0.0292
760.00,0.0299
759.00,0.0305
758.00,0.0312
757.00,0.0318
756.00,0.0325
755.00,0.0332
754.00,0.0339
753.00,0.0346
752.00,0.0352
751.00,0.0358
750.00,0.0365
749.00,0.0372
748.00,0.0379
747.00,0.0387
746.00,0.0395
745.00,0.0404
744.00,0.0412
743.00,0.0422
742.00,0.0433
741.00,0.0445
740.00,0.0457
739.00,0.0470
738.00,0.0483
737.00,0.0492
736.00,0.0496
735.00,0.0495
734.00,0.0490
733.00,0.0482
732.00,0.0471
731.00,0.0460
730.00,0.0448
729.00,0.0437
728.00,0.0425
727.00,0.0413
726.00,0.0403
725.00,0.0395
724.00,0.0386
723.00,0.0378
722.00,0.0372
721.00,0.0367
720.00,0.0361
719.00,0.0357
718.00,0.0355
717.00,0.0354
716.00,0.0353
715.00,0.0353
714.00,0.0353
713.00,0.0352
712.00,0.0350
711.00,0.0348
710.00,0.0347
709.00,0.0345
708.00,0.0344
707.00,0.0343
706.00,0.0344
705.00,0.0345
704.00,0.0346
703.00,0.0347
702.00,0.0349
701.00,0.0351
700.00,0.0353
699.00,0.0356
698.00,0.0362
697.00,0.0370
696.00,0.0377
695.00,0.0386
694.00,0.0395
693.00,0.0403
692.00,0.0411
691.00,0.0417
690.00,0.0424
689.00,0.0428
688.00,0.0431
687.00,0.0433
686.00,0.0434
685.00,0.0435
684.00,0.0436
683.00,0.0436
682.00,0.0439
681.00,0.0441
680.00,0.0443
679.00,0.0446
678.00,0.0451
677.00,0.0456
676.00,0.0460
675.00,0.0465
674.00,0.0471
673.00,0.0479
672.00,0.0486
671.00,0.0493
670.00,0.0501
669.00,0.0510
668.00,0.0522
667.00,0.0534
666.00,0.0545
665.00,0.0554
664.00,0.0563
663.00,0.0573
662.00,0.0585
661.00,0.0598
660.00,0.0611
659.00,0.0625
658.00,0.0639
657.00,0.0653
656.00,0.0666
655.00,0.0679
654.00,0.0693
653.00,0.0705
652.00,0.0715
651.00,0.0724
650.00,0.0732
649.00,0.0737
648.00,0.0739
647.00,0.0739
646.00,0.0736
645.00,0.0730
644.00,0.0722
643.00,0.0712
642.00,0.0702
641.00,0.0691
640.00,0.0679
639.00,0.0667
638.00,0.0656
637.00,0.0645
636.00,0.0634
635.00,0.0624
634.00,0.0617
633.00,0.0610
632.00,0.0604
631.00,0.0598
630.00,0.0595
629.00,0.0592
628.00,0.0588
627.00,0.0585
626.00,0.0584
625.00,0.0582
624.00,0.0579
623.00,0.0576
622.00,0.0574
621.00,0.0572
620.00,0.0569
619.00,0.0567
618.00,0.0566
617.00,0.0565
616.00,0.0563
615.00,0.0561
614.00,0.0560
613.00,0.0561
612.00,0.0560
611.00,0.0561
610.00,0.0564
609.00,0.0568
608.00,0.0572
607.00,0.0576
606.00,0.0580
605.00,0.0584
604.00,0.0586
603.00,0.0588
602.00,0.0591
601.00,0.0595
600.00,0.0597
599.00,0.0599
598.00,0.0602
597.00,0.0604
596.00,0.0604
595.00,0.0605
594.00,0.0607
593.00,0.0610
592.00,0.0612
591.00,0.0618
590.00,0.0628
589.00,0.0640
588.00,0.0655
587.00,0.0674
586.00,0.0697
585.00,0.0720
584.00,0.0742
583.00,0.0760
582.00,0.0777
581.00,0.0789
580.00,0.0797
579.00,0.0803
578.00,0.0809
577.00,0.0813
576.00,0.0815
575.00,0.0817
574.00,0.0819
573.00,0.0821
572.00,0.0820
571.00,0.0818
570.00,0.0817
569.00,0.0815
568.00,0.0811
567.00,0.0807
566.00,0.0804
565.00,0.0800
564.00,0.0791
563.00,0.0781
562.00,0.0771
561.00,0.0761
560.00,0.0751
559.00,0.0743
558.00,0.0739
557.00,0.0736
556.00,0.0731
555.00,0.0724
554.00,0.0717
553.00,0.0710
552.00,0.0703
551.00,0.0697
550.00,0.0694
549.00,0.0690
548.00,0.0683
547.00,0.0676
546.00,0.0671
545.00,0.0668
544.00,0.0664
543.00,0.0660
542.00,0.0657
541.00,0.0655
540.00,0.0652
539.00,0.0650
538.00,0.0653
537.00,0.0658
536.00,0.0663
535.00,0.0670
534.00,0.0679
533.00,0.0686
532.00,0.0689
531.00,0.0690
530.00,0.0691
529.00,0.0688
528.00,0.0682
527.00,0.0675
526.00,0.0669
525.00,0.0664
524.00,0.0657
523.00,0.0652
522.00,0.0649
521.00,0.0646
520.00,0.0642
519.00,0.0639
518.00,0.0639
517.00,0.0638
516.00,0.0635
515.00,0.0632
514.00,0.0632
513.00,0.0634
512.00,0.0635
511.00,0.0638
510.00,0.0643
509.00,0.0646
508.00,0.0645
507.00,0.0644
506.00,0.0645
505.00,0.0646
504.00,0.0643
503.00,0.0640
502.00,0.0640
501.00,0.0640
500.00,0.0638
499.00,0.0638
498.00,0.0639
497.00,0.0641
496.00,0.0639
495.00,0.0639
494.00,0.0642
493.00,0.0644
492.00,0.0643
491.00,0.0643
490.00,0.0647
489.00,0.0651
488.00,0.0652
487.00,0.0653
486.00,0.0658
485.00,0.0662
484.00,0.0662
483.00,0.0662
482.00,0.0665
481.00,0.0667
480.00,0.0665
479.00,0.0664
478.00,0.0666
477.00,0.0668
476.00,0.0666
475.00,0.0666
474.00,0.0672
473.00,0.0676
472.00,0.0674
471.00,0.0670
470.00,0.0670
469.00,0.0669
468.00,0.0663
467.00,0.0658
466.00,0.0658
465.00,0.0660
464.00,0.0659
463.00,0.0658
462.00,0.0658
461.00,0.0656
460.00,0.0649
459.00,0.0642
458.00,0.0640
457.00,0.0638
456.00,0.0631
455.00,0.0625
454.00,0.0625
453.00,0.0626
452.00,0.0626
451.00,0.0627
450.00,0.0632
449.00,0.0634
448.00,0.0628
447.00,0.0622
446.00,0.0620
445.00,0.0617
444.00,0.0609
443.00,0.0604
442.00,0.0605
441.00,0.0604
440.00,0.0596
439.00,0.0590
438.00,0.0592
437.00,0.0595
436.00,0.0591
435.00,0.0587
434.00,0.0587
433.00,0.0588
432.00,0.0584
431.00,0.0582
430.00,0.0586
429.00,0.0587
428.00,0.0581
427.00,0.0575
426.00,0.0575
425.00,0.0576
424.00,0.0570
423.00,0.0566
422.00,0.0573
421.00,0.0580
420.00,0.0576
419.00,0.0571
418.00,0.0577
417.00,0.0583
416.00,0.0582
415.00,0.0586
414.00,0.0599
413.00,0.0609
412.00,0.0603
411.00,0.0594
410.00,0.0595
409.00,0.0596
408.00,0.0587
407.00,0.0582
406.00,0.0591
405.00,0.0600
404.00,0.0593
403.00,0.0584
402.00,0.0590
401.00,0.0598
400.00,0.0594
