Created as New Dataset,Sample 713 By YargerLab Date Wednesday, June 18 2025
cm-1,A
4000.00,0.0011
3999.00,0.0011
3998.00,0.0011
3997.00,0.0011
3996.00,0.0010
3995.00,0.0010
3994.00,0.0010
3993.00,0.0010
3992.00,0.0010
3991.00,0.0010
3990.00,0.0010
3989.00,0.0010
3988.00,0.0010
3987.00,0.0011
3986.00,0.0011
3985.00,0.0011
3984.00,0.0011
3983.00,0.0011
3982.00,0.0011
3981.00,0.0011
3980.00,0.0011
3979.00,0.0011
3978.00,0.0011
3977.00,0.0011
3976.00,0.0011
3975.00,0.0011
3974.00,0.0011
3973.00,0.0011
3972.00,0.0011
3971.00,0.0011
3970.00,0.0011
3969.00,0.0011
3968.00,0.0011
3967.00,0.0011
3966.00,0.0010
3965.00,0.0010
3964.00,0.0010
3963.00,0.0010
3962.00,0.0011
3961.00,0.0011
3960.00,0.0011
3959.00,0.0011
3958.00,0.0011
3957.00,0.0011
3956.00,0.0011
3955.00,0.0011
3954.00,0.0011
3953.00,0.0011
3952.00,0.0010
3951.00,0.0010
3950.00,0.0010
3949.00,0.0010
3948.00,0.0010
3947.00,0.0010
3946.00,0.0010
3945.00,0.0010
3944.00,0.0010
3943.00,0.0010
3942.00,0.0010
3941.00,0.0010
3940.00,0.0010
3939.00,0.0010
3938.00,0.0010
3937.00,0.0010
3936.00,0.0010
3935.00,0.0010
3934.00,0.0010
3933.00,0.0010
3932.00,0.0010
3931.00,0.0010
3930.00,0.0010
3929.00,0.0010
3928.00,0.0010
3927.00,0.0010
3926.00,0.0010
3925.00,0.0010
3924.00,0.0010
3923.00,0.0010
3922.00,0.0010
3921.00,0.0010
3920.00,0.0009
3919.00,0.0009
3918.00,0.0010
3917.00,0.0010
3916.00,0.0011
3915.00,0.0011
3914.00,0.0011
3913.00,0.0011
3912.00,0.0010
3911.00,0.0010
3910.00,0.0010
3909.00,0.0010
3908.00,0.0010
3907.00,0.0010
3906.00,0.0010
3905.00,0.0010
3904.00,0.0010
3903.00,0.0010
3902.00,0.0010
3901.00,0.0010
3900.00,0.0010
3899.00,0.0010
3898.00,0.0010
3897.00,0.0010
3896.00,0.0010
3895.00,0.0009
3894.00,0.0009
3893.00,0.0010
3892.00,0.0010
3891.00,0.0010
3890.00,0.0010
3889.00,0.0010
3888.00,0.0010
3887.00,0.0010
3886.00,0.0010
3885.00,0.0010
3884.00,0.0010
3883.00,0.0010
3882.00,0.0009
3881.00,0.0009
3880.00,0.0009
3879.00,0.0010
3878.00,0.0010
3877.00,0.0010
3876.00,0.0009
3875.00,0.0009
3874.00,0.0009
3873.00,0.0009
3872.00,0.0009
3871.00,0.0009
3870.00,0.0010
3869.00,0.0010
3868.00,0.0009
3867.00,0.0009
3866.00,0.0009
3865.00,0.0009
3864.00,0.0009
3863.00,0.0010
3862.00,0.0010
3861.00,0.0010
3860.00,0.0009
3859.00,0.0009
3858.00,0.0009
3857.00,0.0010
3856.00,0.0010
3855.00,0.0010
3854.00,0.0010
3853.00,0.0009
3852.00,0.0009
3851.00,0.0009
3850.00,0.0009
3849.00,0.0009
3848.00,0.0009
3847.00,0.0009
3846.00,0.0009
3845.00,0.0009
3844.00,0.0009
3843.00,0.0009
3842.00,0.0009
3841.00,0.0009
3840.00,0.0009
3839.00,0.0009
3838.00,0.0009
3837.00,0.0009
3836.00,0.0009
3835.00,0.0009
3834.00,0.0009
3833.00,0.0009
3832.00,0.0010
3831.00,0.0010
3830.00,0.0010
3829.00,0.0010
3828.00,0.0009
3827.00,0.0009
3826.00,0.0009
3825.00,0.0009
3824.00,0.0009
3823.00,0.0009
3822.00,0.0009
3821.00,0.0009
3820.00,0.0009
3819.00,0.0009
3818.00,0.0010
3817.00,0.0009
3816.00,0.0009
3815.00,0.0009
3814.00,0.0009
3813.00,0.0009
3812.00,0.0009
3811.00,0.0009
3810.00,0.0009
3809.00,0.0009
3808.00,0.0010
3807.00,0.0009
3806.00,0.0009
3805.00,0.0009
3804.00,0.0009
3803.00,0.0009
3802.00,0.0009
3801.00,0.0009
3800.00,0.0009
3799.00,0.0009
3798.00,0.0009
3797.00,0.0010
3796.00,0.0010
3795.00,0.0010
3794.00,0.0010
3793.00,0.0010
3792.00,0.0010
3791.00,0.0010
3790.00,0.0010
3789.00,0.0010
3788.00,0.0010
3787.00,0.0010
3786.00,0.0010
3785.00,0.0010
3784.00,0.0010
3783.00,0.0010
3782.00,0.0010
3781.00,0.0010
3780.00,0.0010
3779.00,0.0010
3778.00,0.0010
3777.00,0.0010
3776.00,0.0010
3775.00,0.0010
3774.00,0.0010
3773.00,0.0010
3772.00,0.0010
3771.00,0.0009
3770.00,0.0009
3769.00,0.0009
3768.00,0.0009
3767.00,0.0010
3766.00,0.0010
3765.00,0.0010
3764.00,0.0010
3763.00,0.0010
3762.00,0.0009
3761.00,0.0009
3760.00,0.0009
3759.00,0.0009
3758.00,0.0009
3757.00,0.0009
3756.00,0.0009
3755.00,0.0009
3754.00,0.0009
3753.00,0.0009
3752.00,0.0009
3751.00,0.0009
3750.00,0.0009
3749.00,0.0009
3748.00,0.0009
3747.00,0.0009
3746.00,0.0009
3745.00,0.0009
3744.00,0.0009
3743.00,0.0008
3742.00,0.0008
3741.00,0.0008
3740.00,0.0008
3739.00,0.0008
3738.00,0.0008
3737.00,0.0008
3736.00,0.0008
3735.00,0.0008
3734.00,0.0008
3733.00,0.0008
3732.00,0.0008
3731.00,0.0008
3730.00,0.0008
3729.00,0.0008
3728.00,0.0008
3727.00,0.0008
3726.00,0.0007
3725.00,0.0007
3724.00,0.0007
3723.00,0.0008
3722.00,0.0008
3721.00,0.0008
3720.00,0.0009
3719.00,0.0009
3718.00,0.0009
3717.00,0.0008
3716.00,0.0008
3715.00,0.0008
3714.00,0.0008
3713.00,0.0007
3712.00,0.0007
3711.00,0.0008
3710.00,0.0008
3709.00,0.0008
3708.00,0.0008
3707.00,0.0008
3706.00,0.0008
3705.00,0.0008
3704.00,0.0008
3703.00,0.0008
3702.00,0.0008
3701.00,0.0008
3700.00,0.0008
3699.00,0.0008
3698.00,0.0008
3697.00,0.0008
3696.00,0.0008
3695.00,0.0008
3694.00,0.0008
3693.00,0.0008
3692.00,0.0008
3691.00,0.0008
3690.00,0.0007
3689.00,0.0007
3688.00,0.0007
3687.00,0.0007
3686.00,0.0006
3685.00,0.0006
3684.00,0.0006
3683.00,0.0006
3682.00,0.0006
3681.00,0.0006
3680.00,0.0006
3679.00,0.0006
3678.00,0.0006
3677.00,0.0006
3676.00,0.0006
3675.00,0.0006
3674.00,0.0007
3673.00,0.0007
3672.00,0.0006
3671.00,0.0006
3670.00,0.0006
3669.00,0.0006
3668.00,0.0006
3667.00,0.0006
3666.00,0.0006
3665.00,0.0006
3664.00,0.0006
3663.00,0.0006
3662.00,0.0006
3661.00,0.0006
3660.00,0.0006
3659.00,0.0006
3658.00,0.0006
3657.00,0.0006
3656.00,0.0006
3655.00,0.0006
3654.00,0.0006
3653.00,0.0006
3652.00,0.0005
3651.00,0.0005
3650.00,0.0004
3649.00,0.0005
3648.00,0.0005
3647.00,0.0006
3646.00,0.0006
3645.00,0.0005
3644.00,0.0005
3643.00,0.0005
3642.00,0.0005
3641.00,0.0005
3640.00,0.0005
3639.00,0.0005
3638.00,0.0005
3637.00,0.0005
3636.00,0.0005
3635.00,0.0006
3634.00,0.0006
3633.00,0.0006
3632.00,0.0006
3631.00,0.0006
3630.00,0.0006
3629.00,0.0006
3628.00,0.0006
3627.00,0.0006
3626.00,0.0006
3625.00,0.0006
3624.00,0.0006
3623.00,0.0006
3622.00,0.0006
3621.00,0.0007
3620.00,0.0007
3619.00,0.0007
3618.00,0.0007
3617.00,0.0007
3616.00,0.0007
3615.00,0.0007
3614.00,0.0006
3613.00,0.0007
3612.00,0.0007
3611.00,0.0007
3610.00,0.0007
3609.00,0.0007
3608.00,0.0007
3607.00,0.0008
3606.00,0.0008
3605.00,0.0008
3604.00,0.0008
3603.00,0.0008
3602.00,0.0008
3601.00,0.0008
3600.00,0.0008
3599.00,0.0008
3598.00,0.0008
3597.00,0.0008
3596.00,0.0007
3595.00,0.0007
3594.00,0.0007
3593.00,0.0007
3592.00,0.0008
3591.00,0.0008
3590.00,0.0008
3589.00,0.0008
3588.00,0.0008
3587.00,0.0008
3586.00,0.0008
3585.00,0.0009
3584.00,0.0009
3583.00,0.0009
3582.00,0.0009
3581.00,0.0009
3580.00,0.0009
3579.00,0.0009
3578.00,0.0009
3577.00,0.0009
3576.00,0.0008
3575.00,0.0008
3574.00,0.0009
3573.00,0.0009
3572.00,0.0009
3571.00,0.0009
3570.00,0.0009
3569.00,0.0009
3568.00,0.0009
3567.00,0.0009
3566.00,0.0009
3565.00,0.0009
3564.00,0.0010
3563.00,0.0010
3562.00,0.0010
3561.00,0.0010
3560.00,0.0010
3559.00,0.0010
3558.00,0.0011
3557.00,0.0011
3556.00,0.0011
3555.00,0.0011
3554.00,0.0011
3553.00,0.0011
3552.00,0.0012
3551.00,0.0012
3550.00,0.0012
3549.00,0.0012
3548.00,0.0012
3547.00,0.0012
3546.00,0.0012
3545.00,0.0013
3544.00,0.0013
3543.00,0.0013
3542.00,0.0013
3541.00,0.0013
3540.00,0.0013
3539.00,0.0014
3538.00,0.0014
3537.00,0.0015
3536.00,0.0015
3535.00,0.0015
3534.00,0.0015
3533.00,0.0015
3532.00,0.0016
3531.00,0.0016
3530.00,0.0017
3529.00,0.0017
3528.00,0.0017
3527.00,0.0017
3526.00,0.0018
3525.00,0.0018
3524.00,0.0018
3523.00,0.0018
3522.00,0.0019
3521.00,0.0019
3520.00,0.0020
3519.00,0.0020
3518.00,0.0021
3517.00,0.0021
3516.00,0.0022
3515.00,0.0022
3514.00,0.0023
3513.00,0.0023
3512.00,0.0024
3511.00,0.0024
3510.00,0.0025
3509.00,0.0025
3508.00,0.0025
3507.00,0.0026
3506.00,0.0027
3505.00,0.0027
3504.00,0.0028
3503.00,0.0029
3502.00,0.0030
3501.00,0.0031
3500.00,0.0031
3499.00,0.0032
3498.00,0.0033
3497.00,0.0034
3496.00,0.0035
3495.00,0.0036
3494.00,0.0037
3493.00,0.0038
3492.00,0.0040
3491.00,0.0041
3490.00,0.0042
3489.00,0.0044
3488.00,0.0045
3487.00,0.0047
3486.00,0.0048
3485.00,0.0049
3484.00,0.0051
3483.00,0.0052
3482.00,0.0054
3481.00,0.0055
3480.00,0.0057
3479.00,0.0059
3478.00,0.0061
3477.00,0.0063
3476.00,0.0065
3475.00,0.0067
3474.00,0.0069
3473.00,0.0071
3472.00,0.0074
3471.00,0.0077
3470.00,0.0080
3469.00,0.0084
3468.00,0.0088
3467.00,0.0092
3466.00,0.0097
3465.00,0.0103
3464.00,0.0109
3463.00,0.0116
3462.00,0.0123
3461.00,0.0132
3460.00,0.0142
3459.00,0.0152
3458.00,0.0164
3457.00,0.0176
3456.00,0.0189
3455.00,0.0203
3454.00,0.0216
3453.00,0.0229
3452.00,0.0240
3451.00,0.0250
3450.00,0.0258
3449.00,0.0263
3448.00,0.0265
3447.00,0.0264
3446.00,0.0261
3445.00,0.0256
3444.00,0.0249
3443.00,0.0240
3442.00,0.0231
3441.00,0.0221
3440.00,0.0211
3439.00,0.0201
3438.00,0.0191
3437.00,0.0181
3436.00,0.0171
3435.00,0.0162
3434.00,0.0153
3433.00,0.0145
3432.00,0.0137
3431.00,0.0129
3430.00,0.0123
3429.00,0.0117
3428.00,0.0111
3427.00,0.0106
3426.00,0.0102
3425.00,0.0097
3424.00,0.0094
3423.00,0.0090
3422.00,0.0087
3421.00,0.0083
3420.00,0.0081
3419.00,0.0078
3418.00,0.0076
3417.00,0.0074
3416.00,0.0072
3415.00,0.0071
3414.00,0.0070
3413.00,0.0068
3412.00,0.0067
3411.00,0.0066
3410.00,0.0065
3409.00,0.0063
3408.00,0.0063
3407.00,0.0062
3406.00,0.0061
3405.00,0.0061
3404.00,0.0060
3403.00,0.0060
3402.00,0.0059
3401.00,0.0059
3400.00,0.0058
3399.00,0.0058
3398.00,0.0057
3397.00,0.0057
3396.00,0.0057
3395.00,0.0057
3394.00,0.0057
3393.00,0.0057
3392.00,0.0056
3391.00,0.0056
3390.00,0.0055
3389.00,0.0055
3388.00,0.0055
3387.00,0.0055
3386.00,0.0055
3385.00,0.0055
3384.00,0.0055
3383.00,0.0055
3382.00,0.0055
3381.00,0.0055
3380.00,0.0055
3379.00,0.0055
3378.00,0.0054
3377.00,0.0054
3376.00,0.0054
3375.00,0.0054
3374.00,0.0055
3373.00,0.0055
3372.00,0.0055
3371.00,0.0055
3370.00,0.0055
3369.00,0.0055
3368.00,0.0055
3367.00,0.0055
3366.00,0.0055
3365.00,0.0055
3364.00,0.0055
3363.00,0.0055
3362.00,0.0055
3361.00,0.0055
3360.00,0.0055
3359.00,0.0055
3358.00,0.0055
3357.00,0.0056
3356.00,0.0056
3355.00,0.0056
3354.00,0.0056
3353.00,0.0056
3352.00,0.0056
3351.00,0.0057
3350.00,0.0057
3349.00,0.0057
3348.00,0.0057
3347.00,0.0058
3346.00,0.0058
3345.00,0.0058
3344.00,0.0058
3343.00,0.0058
3342.00,0.0059
3341.00,0.0059
3340.00,0.0059
3339.00,0.0059
3338.00,0.0059
3337.00,0.0060
3336.00,0.0060
3335.00,0.0060
3334.00,0.0061
3333.00,0.0061
3332.00,0.0061
3331.00,0.0061
3330.00,0.0062
3329.00,0.0062
3328.00,0.0062
3327.00,0.0063
3326.00,0.0063
3325.00,0.0064
3324.00,0.0064
3323.00,0.0064
3322.00,0.0065
3321.00,0.0065
3320.00,0.0065
3319.00,0.0065
3318.00,0.0065
3317.00,0.0066
3316.00,0.0066
3315.00,0.0066
3314.00,0.0067
3313.00,0.0067
3312.00,0.0068
3311.00,0.0068
3310.00,0.0069
3309.00,0.0069
3308.00,0.0070
3307.00,0.0070
3306.00,0.0070
3305.00,0.0071
3304.00,0.0071
3303.00,0.0071
3302.00,0.0072
3301.00,0.0072
3300.00,0.0073
3299.00,0.0073
3298.00,0.0074
3297.00,0.0074
3296.00,0.0075
3295.00,0.0075
3294.00,0.0076
3293.00,0.0076
3292.00,0.0077
3291.00,0.0077
3290.00,0.0078
3289.00,0.0079
3288.00,0.0079
3287.00,0.0080
3286.00,0.0080
3285.00,0.0081
3284.00,0.0082
3283.00,0.0082
3282.00,0.0083
3281.00,0.0083
3280.00,0.0084
3279.00,0.0084
3278.00,0.0085
3277.00,0.0085
3276.00,0.0086
3275.00,0.0086
3274.00,0.0087
3273.00,0.0087
3272.00,0.0088
3271.00,0.0088
3270.00,0.0089
3269.00,0.0089
3268.00,0.0090
3267.00,0.0091
3266.00,0.0092
3265.00,0.0093
3264.00,0.0094
3263.00,0.0095
3262.00,0.0095
3261.00,0.0096
3260.00,0.0096
3259.00,0.0096
3258.00,0.0096
3257.00,0.0097
3256.00,0.0097
3255.00,0.0098
3254.00,0.0098
3253.00,0.0099
3252.00,0.0099
3251.00,0.0100
3250.00,0.0100
3249.00,0.0100
3248.00,0.0101
3247.00,0.0102
3246.00,0.0102
3245.00,0.0103
3244.00,0.0104
3243.00,0.0104
3242.00,0.0105
3241.00,0.0105
3240.00,0.0106
3239.00,0.0107
3238.00,0.0108
3237.00,0.0108
3236.00,0.0109
3235.00,0.0109
3234.00,0.0109
3233.00,0.0110
3232.00,0.0110
3231.00,0.0111
3230.00,0.0112
3229.00,0.0112
3228.00,0.0113
3227.00,0.0113
3226.00,0.0114
3225.00,0.0115
3224.00,0.0115
3223.00,0.0116
3222.00,0.0117
3221.00,0.0117
3220.00,0.0118
3219.00,0.0118
3218.00,0.0118
3217.00,0.0119
3216.00,0.0119
3215.00,0.0120
3214.00,0.0121
3213.00,0.0122
3212.00,0.0122
3211.00,0.0122
3210.00,0.0123
3209.00,0.0124
3208.00,0.0124
3207.00,0.0125
3206.00,0.0126
3205.00,0.0127
3204.00,0.0127
3203.00,0.0128
3202.00,0.0128
3201.00,0.0129
3200.00,0.0129
3199.00,0.0130
3198.00,0.0130
3197.00,0.0130
3196.00,0.0131
3195.00,0.0131
3194.00,0.0131
3193.00,0.0132
3192.00,0.0133
3191.00,0.0134
3190.00,0.0134
3189.00,0.0135
3188.00,0.0135
3187.00,0.0136
3186.00,0.0136
3185.00,0.0136
3184.00,0.0136
3183.00,0.0136
3182.00,0.0137
3181.00,0.0137
3180.00,0.0137
3179.00,0.0138
3178.00,0.0138
3177.00,0.0138
3176.00,0.0138
3175.00,0.0138
3174.00,0.0138
3173.00,0.0138
3172.00,0.0139
3171.00,0.0139
3170.00,0.0139
3169.00,0.0140
3168.00,0.0140
3167.00,0.0140
3166.00,0.0140
3165.00,0.0140
3164.00,0.0141
3163.00,0.0141
3162.00,0.0141
3161.00,0.0141
3160.00,0.0141
3159.00,0.0141
3158.00,0.0141
3157.00,0.0142
3156.00,0.0142
3155.00,0.0142
3154.00,0.0142
3153.00,0.0142
3152.00,0.0143
3151.00,0.0143
3150.00,0.0144
3149.00,0.0146
3148.00,0.0147
3147.00,0.0147
3146.00,0.0148
3145.00,0.0148
3144.00,0.0149
3143.00,0.0149
3142.00,0.0149
3141.00,0.0150
3140.00,0.0150
3139.00,0.0151
3138.00,0.0151
3137.00,0.0152
3136.00,0.0152
3135.00,0.0153
3134.00,0.0154
3133.00,0.0154
3132.00,0.0154
3131.00,0.0155
3130.00,0.0155
3129.00,0.0155
3128.00,0.0156
3127.00,0.0156
3126.00,0.0157
3125.00,0.0157
3124.00,0.0158
3123.00,0.0158
3122.00,0.0158
3121.00,0.0158
3120.00,0.0158
3119.00,0.0158
3118.00,0.0159
3117.00,0.0159
3116.00,0.0160
3115.00,0.0160
3114.00,0.0160
3113.00,0.0161
3112.00,0.0161
3111.00,0.0162
3110.00,0.0163
3109.00,0.0164
3108.00,0.0164
3107.00,0.0165
3106.00,0.0165
3105.00,0.0166
3104.00,0.0166
3103.00,0.0167
3102.00,0.0167
3101.00,0.0167
3100.00,0.0167
3099.00,0.0168
3098.00,0.0168
3097.00,0.0168
3096.00,0.0169
3095.00,0.0169
3094.00,0.0169
3093.00,0.0169
3092.00,0.0169
3091.00,0.0169
3090.00,0.0169
3089.00,0.0169
3088.00,0.0169
3087.00,0.0170
3086.00,0.0170
3085.00,0.0170
3084.00,0.0171
3083.00,0.0172
3082.00,0.0172
3081.00,0.0173
3080.00,0.0173
3079.00,0.0174
3078.00,0.0175
3077.00,0.0176
3076.00,0.0178
3075.00,0.0179
3074.00,0.0181
3073.00,0.0182
3072.00,0.0183
3071.00,0.0184
3070.00,0.0184
3069.00,0.0184
3068.00,0.0183
3067.00,0.0182
3066.00,0.0181
3065.00,0.0179
3064.00,0.0177
3063.00,0.0175
3062.00,0.0173
3061.00,0.0171
3060.00,0.0168
3059.00,0.0166
3058.00,0.0164
3057.00,0.0162
3056.00,0.0161
3055.00,0.0160
3054.00,0.0159
3053.00,0.0158
3052.00,0.0157
3051.00,0.0156
3050.00,0.0155
3049.00,0.0154
3048.00,0.0153
3047.00,0.0153
3046.00,0.0152
3045.00,0.0152
3044.00,0.0151
3043.00,0.0151
3042.00,0.0151
3041.00,0.0150
3040.00,0.0150
3039.00,0.0150
3038.00,0.0150
3037.00,0.0149
3036.00,0.0149
3035.00,0.0148
3034.00,0.0148
3033.00,0.0147
3032.00,0.0147
3031.00,0.0147
3030.00,0.0146
3029.00,0.0145
3028.00,0.0145
3027.00,0.0144
3026.00,0.0143
3025.00,0.0143
3024.00,0.0142
3023.00,0.0141
3022.00,0.0141
3021.00,0.0140
3020.00,0.0139
3019.00,0.0138
3018.00,0.0138
3017.00,0.0138
3016.00,0.0137
3015.00,0.0137
3014.00,0.0137
3013.00,0.0137
3012.00,0.0136
3011.00,0.0136
3010.00,0.0135
3009.00,0.0135
3008.00,0.0134
3007.00,0.0134
3006.00,0.0134
3005.00,0.0134
3004.00,0.0134
3003.00,0.0134
3002.00,0.0134
3001.00,0.0134
3000.00,0.0135
2999.00,0.0135
2998.00,0.0136
2997.00,0.0137
2996.00,0.0138
2995.00,0.0140
2994.00,0.0141
2993.00,0.0143
2992.00,0.0144
2991.00,0.0146
2990.00,0.0148
2989.00,0.0149
2988.00,0.0151
2987.00,0.0152
2986.00,0.0152
2985.00,0.0152
2984.00,0.0153
2983.00,0.0153
2982.00,0.0154
2981.00,0.0156
2980.00,0.0159
2979.00,0.0162
2978.00,0.0166
2977.00,0.0169
2976.00,0.0172
2975.00,0.0174
2974.00,0.0175
2973.00,0.0177
2972.00,0.0177
2971.00,0.0179
2970.00,0.0180
2969.00,0.0182
2968.00,0.0185
2967.00,0.0188
2966.00,0.0191
2965.00,0.0195
2964.00,0.0200
2963.00,0.0206
2962.00,0.0213
2961.00,0.0220
2960.00,0.0228
2959.00,0.0235
2958.00,0.0242
2957.00,0.0248
2956.00,0.0253
2955.00,0.0257
2954.00,0.0259
2953.00,0.0260
2952.00,0.0260
2951.00,0.0258
2950.00,0.0255
2949.00,0.0251
2948.00,0.0246
2947.00,0.0242
2946.00,0.0240
2945.00,0.0239
2944.00,0.0239
2943.00,0.0242
2942.00,0.0246
2941.00,0.0252
2940.00,0.0258
2939.00,0.0265
2938.00,0.0272
2937.00,0.0279
2936.00,0.0288
2935.00,0.0297
2934.00,0.0307
2933.00,0.0319
2932.00,0.0331
2931.00,0.0344
2930.00,0.0356
2929.00,0.0368
2928.00,0.0378
2927.00,0.0385
2926.00,0.0391
2925.00,0.0393
2924.00,0.0394
2923.00,0.0392
2922.00,0.0389
2921.00,0.0384
2920.00,0.0378
2919.00,0.0370
2918.00,0.0362
2917.00,0.0354
2916.00,0.0346
2915.00,0.0337
2914.00,0.0328
2913.00,0.0318
2912.00,0.0308
2911.00,0.0298
2910.00,0.0288
2909.00,0.0279
2908.00,0.0269
2907.00,0.0261
2906.00,0.0253
2905.00,0.0245
2904.00,0.0239
2903.00,0.0233
2902.00,0.0229
2901.00,0.0224
2900.00,0.0220
2899.00,0.0217
2898.00,0.0213
2897.00,0.0210
2896.00,0.0207
2895.00,0.0204
2894.00,0.0202
2893.00,0.0200
2892.00,0.0198
2891.00,0.0196
2890.00,0.0195
2889.00,0.0194
2888.00,0.0193
2887.00,0.0193
2886.00,0.0192
2885.00,0.0192
2884.00,0.0191
2883.00,0.0191
2882.00,0.0191
2881.00,0.0191
2880.00,0.0192
2879.00,0.0193
2878.00,0.0195
2877.00,0.0198
2876.00,0.0201
2875.00,0.0205
2874.00,0.0209
2873.00,0.0214
2872.00,0.0217
2871.00,0.0220
2870.00,0.0220
2869.00,0.0219
2868.00,0.0216
2867.00,0.0213
2866.00,0.0210
2865.00,0.0209
2864.00,0.0209
2863.00,0.0212
2862.00,0.0216
2861.00,0.0222
2860.00,0.0228
2859.00,0.0233
2858.00,0.0237
2857.00,0.0240
2856.00,0.0240
2855.00,0.0238
2854.00,0.0234
2853.00,0.0229
2852.00,0.0222
2851.00,0.0215
2850.00,0.0208
2849.00,0.0201
2848.00,0.0194
2847.00,0.0188
2846.00,0.0183
2845.00,0.0180
2844.00,0.0177
2843.00,0.0175
2842.00,0.0173
2841.00,0.0171
2840.00,0.0169
2839.00,0.0167
2838.00,0.0165
2837.00,0.0165
2836.00,0.0165
2835.00,0.0166
2834.00,0.0166
2833.00,0.0165
2832.00,0.0164
2831.00,0.0160
2830.00,0.0156
2829.00,0.0151
2828.00,0.0146
2827.00,0.0141
2826.00,0.0136
2825.00,0.0131
2824.00,0.0127
2823.00,0.0124
2822.00,0.0121
2821.00,0.0119
2820.00,0.0116
2819.00,0.0115
2818.00,0.0113
2817.00,0.0112
2816.00,0.0110
2815.00,0.0109
2814.00,0.0108
2813.00,0.0107
2812.00,0.0106
2811.00,0.0105
2810.00,0.0105
2809.00,0.0104
2808.00,0.0103
2807.00,0.0102
2806.00,0.0102
2805.00,0.0101
2804.00,0.0101
2803.00,0.0100
2802.00,0.0100
2801.00,0.0100
2800.00,0.0099
2799.00,0.0099
2798.00,0.0099
2797.00,0.0099
2796.00,0.0098
2795.00,0.0098
2794.00,0.0098
2793.00,0.0097
2792.00,0.0097
2791.00,0.0097
2790.00,0.0097
2789.00,0.0097
2788.00,0.0097
2787.00,0.0097
2786.00,0.0097
2785.00,0.0097
2784.00,0.0097
2783.00,0.0097
2782.00,0.0097
2781.00,0.0097
2780.00,0.0097
2779.00,0.0098
2778.00,0.0098
2777.00,0.0099
2776.00,0.0099
2775.00,0.0099
2774.00,0.0100
2773.00,0.0100
2772.00,0.0101
2771.00,0.0101
2770.00,0.0101
2769.00,0.0102
2768.00,0.0102
2767.00,0.0102
2766.00,0.0102
2765.00,0.0103
2764.00,0.0103
2763.00,0.0103
2762.00,0.0103
2761.00,0.0104
2760.00,0.0104
2759.00,0.0104
2758.00,0.0104
2757.00,0.0105
2756.00,0.0105
2755.00,0.0105
2754.00,0.0105
2753.00,0.0105
2752.00,0.0105
2751.00,0.0105
2750.00,0.0105
2749.00,0.0105
2748.00,0.0105
2747.00,0.0105
2746.00,0.0105
2745.00,0.0105
2744.00,0.0106
2743.00,0.0106
2742.00,0.0106
2741.00,0.0106
2740.00,0.0106
2739.00,0.0106
2738.00,0.0107
2737.00,0.0107
2736.00,0.0107
2735.00,0.0108
2734.00,0.0108
2733.00,0.0108
2732.00,0.0109
2731.00,0.0109
2730.00,0.0109
2729.00,0.0109
2728.00,0.0110
2727.00,0.0110
2726.00,0.0110
2725.00,0.0110
2724.00,0.0110
2723.00,0.0110
2722.00,0.0110
2721.00,0.0110
2720.00,0.0110
2719.00,0.0110
2718.00,0.0110
2717.00,0.0110
2716.00,0.0110
2715.00,0.0110
2714.00,0.0110
2713.00,0.0110
2712.00,0.0110
2711.00,0.0110
2710.00,0.0110
2709.00,0.0110
2708.00,0.0110
2707.00,0.0110
2706.00,0.0110
2705.00,0.0110
2704.00,0.0110
2703.00,0.0111
2702.00,0.0111
2701.00,0.0111
2700.00,0.0111
2699.00,0.0111
2698.00,0.0111
2697.00,0.0111
2696.00,0.0111
2695.00,0.0111
2694.00,0.0111
2693.00,0.0111
2692.00,0.0111
2691.00,0.0112
2690.00,0.0112
2689.00,0.0111
2688.00,0.0111
2687.00,0.0111
2686.00,0.0111
2685.00,0.0111
2684.00,0.0111
2683.00,0.0111
2682.00,0.0111
2681.00,0.0111
2680.00,0.0111
2679.00,0.0110
2678.00,0.0110
2677.00,0.0110
2676.00,0.0110
2675.00,0.0110
2674.00,0.0110
2673.00,0.0111
2672.00,0.0111
2671.00,0.0111
2670.00,0.0111
2669.00,0.0111
2668.00,0.0112
2667.00,0.0112
2666.00,0.0112
2665.00,0.0113
2664.00,0.0113
2663.00,0.0114
2662.00,0.0114
2661.00,0.0115
2660.00,0.0115
2659.00,0.0115
2658.00,0.0115
2657.00,0.0114
2656.00,0.0114
2655.00,0.0114
2654.00,0.0114
2653.00,0.0114
2652.00,0.0113
2651.00,0.0113
2650.00,0.0113
2649.00,0.0113
2648.00,0.0113
2647.00,0.0112
2646.00,0.0112
2645.00,0.0112
2644.00,0.0112
2643.00,0.0112
2642.00,0.0112
2641.00,0.0112
2640.00,0.0112
2639.00,0.0111
2638.00,0.0111
2637.00,0.0111
2636.00,0.0111
2635.00,0.0110
2634.00,0.0110
2633.00,0.0110
2632.00,0.0109
2631.00,0.0109
2630.00,0.0109
2629.00,0.0109
2628.00,0.0109
2627.00,0.0109
2626.00,0.0109
2625.00,0.0109
2624.00,0.0108
2623.00,0.0108
2622.00,0.0108
2621.00,0.0108
2620.00,0.0108
2619.00,0.0107
2618.00,0.0107
2617.00,0.0107
2616.00,0.0106
2615.00,0.0106
2614.00,0.0105
2613.00,0.0105
2612.00,0.0105
2611.00,0.0105
2610.00,0.0105
2609.00,0.0105
2608.00,0.0105
2607.00,0.0104
2606.00,0.0104
2605.00,0.0104
2604.00,0.0103
2603.00,0.0103
2602.00,0.0102
2601.00,0.0102
2600.00,0.0102
2599.00,0.0102
2598.00,0.0101
2597.00,0.0101
2596.00,0.0100
2595.00,0.0100
2594.00,0.0100
2593.00,0.0100
2592.00,0.0099
2591.00,0.0099
2590.00,0.0099
2589.00,0.0098
2588.00,0.0098
2587.00,0.0098
2586.00,0.0097
2585.00,0.0097
2584.00,0.0096
2583.00,0.0096
2582.00,0.0095
2581.00,0.0095
2580.00,0.0095
2579.00,0.0095
2578.00,0.0095
2577.00,0.0095
2576.00,0.0095
2575.00,0.0095
2574.00,0.0095
2573.00,0.0094
2572.00,0.0094
2571.00,0.0094
2570.00,0.0094
2569.00,0.0094
2568.00,0.0094
2567.00,0.0094
2566.00,0.0094
2565.00,0.0094
2564.00,0.0094
2563.00,0.0094
2562.00,0.0094
2561.00,0.0095
2560.00,0.0095
2559.00,0.0095
2558.00,0.0096
2557.00,0.0096
2556.00,0.0096
2555.00,0.0096
2554.00,0.0096
2553.00,0.0096
2552.00,0.0096
2551.00,0.0096
2550.00,0.0096
2549.00,0.0095
2548.00,0.0095
2547.00,0.0095
2546.00,0.0094
2545.00,0.0094
2544.00,0.0094
2543.00,0.0093
2542.00,0.0093
2541.00,0.0092
2540.00,0.0092
2539.00,0.0092
2538.00,0.0091
2537.00,0.0091
2536.00,0.0090
2535.00,0.0090
2534.00,0.0090
2533.00,0.0089
2532.00,0.0089
2531.00,0.0088
2530.00,0.0088
2529.00,0.0088
2528.00,0.0088
2527.00,0.0087
2526.00,0.0087
2525.00,0.0087
2524.00,0.0087
2523.00,0.0086
2522.00,0.0086
2521.00,0.0086
2520.00,0.0086
2519.00,0.0085
2518.00,0.0085
2517.00,0.0084
2516.00,0.0084
2515.00,0.0083
2514.00,0.0083
2513.00,0.0083
2512.00,0.0082
2511.00,0.0082
2510.00,0.0082
2509.00,0.0081
2508.00,0.0081
2507.00,0.0080
2506.00,0.0080
2505.00,0.0080
2504.00,0.0080
2503.00,0.0079
2502.00,0.0079
2501.00,0.0079
2500.00,0.0079
2499.00,0.0079
2498.00,0.0079
2497.00,0.0079
2496.00,0.0079
2495.00,0.0079
2494.00,0.0079
2493.00,0.0079
2492.00,0.0079
2491.00,0.0078
2490.00,0.0078
2489.00,0.0078
2488.00,0.0077
2487.00,0.0077
2486.00,0.0078
2485.00,0.0078
2484.00,0.0078
2483.00,0.0078
2482.00,0.0078
2481.00,0.0077
2480.00,0.0077
2479.00,0.0077
2478.00,0.0078
2477.00,0.0078
2476.00,0.0078
2475.00,0.0077
2474.00,0.0077
2473.00,0.0076
2472.00,0.0076
2471.00,0.0076
2470.00,0.0076
2469.00,0.0076
2468.00,0.0076
2467.00,0.0076
2466.00,0.0076
2465.00,0.0076
2464.00,0.0076
2463.00,0.0076
2462.00,0.0076
2461.00,0.0076
2460.00,0.0077
2459.00,0.0077
2458.00,0.0078
2457.00,0.0078
2456.00,0.0078
2455.00,0.0078
2454.00,0.0079
2453.00,0.0079
2452.00,0.0079
2451.00,0.0079
2450.00,0.0079
2449.00,0.0079
2448.00,0.0079
2447.00,0.0078
2446.00,0.0078
2445.00,0.0078
2444.00,0.0078
2443.00,0.0078
2442.00,0.0078
2441.00,0.0077
2440.00,0.0077
2439.00,0.0077
2438.00,0.0077
2437.00,0.0077
2436.00,0.0077
2435.00,0.0076
2434.00,0.0076
2433.00,0.0076
2432.00,0.0076
2431.00,0.0076
2430.00,0.0076
2429.00,0.0076
2428.00,0.0076
2427.00,0.0076
2426.00,0.0076
2425.00,0.0076
2424.00,0.0075
2423.00,0.0075
2422.00,0.0074
2421.00,0.0074
2420.00,0.0074
2419.00,0.0074
2418.00,0.0074
2417.00,0.0074
2416.00,0.0073
2415.00,0.0073
2414.00,0.0072
2413.00,0.0072
2412.00,0.0072
2411.00,0.0071
2410.00,0.0070
2409.00,0.0070
2408.00,0.0069
2407.00,0.0068
2406.00,0.0067
2405.00,0.0067
2404.00,0.0066
2403.00,0.0066
2402.00,0.0066
2401.00,0.0065
2400.00,0.0065
2399.00,0.0064
2398.00,0.0064
2397.00,0.0063
2396.00,0.0062
2395.00,0.0062
2394.00,0.0061
2393.00,0.0061
2392.00,0.0061
2391.00,0.0061
2390.00,0.0060
2389.00,0.0060
2388.00,0.0059
2387.00,0.0059
2386.00,0.0058
2385.00,0.0057
2384.00,0.0056
2383.00,0.0055
2382.00,0.0054
2381.00,0.0053
2380.00,0.0052
2379.00,0.0052
2378.00,0.0052
2377.00,0.0051
2376.00,0.0051
2375.00,0.0051
2374.00,0.0051
2373.00,0.0050
2372.00,0.0050
2371.00,0.0049
2370.00,0.0049
2369.00,0.0048
2368.00,0.0047
2367.00,0.0046
2366.00,0.0046
2365.00,0.0046
2364.00,0.0046
2363.00,0.0046
2362.00,0.0047
2361.00,0.0047
2360.00,0.0046
2359.00,0.0046
2358.00,0.0045
2357.00,0.0045
2356.00,0.0044
2355.00,0.0044
2354.00,0.0044
2353.00,0.0043
2352.00,0.0043
2351.00,0.0042
2350.00,0.0042
2349.00,0.0043
2348.00,0.0043
2347.00,0.0044
2346.00,0.0045
2345.00,0.0044
2344.00,0.0044
2343.00,0.0044
2342.00,0.0043
2341.00,0.0043
2340.00,0.0043
2339.00,0.0043
2338.00,0.0043
2337.00,0.0043
2336.00,0.0042
2335.00,0.0042
2334.00,0.0041
2333.00,0.0041
2332.00,0.0040
2331.00,0.0039
2330.00,0.0039
2329.00,0.0041
2328.00,0.0044
2327.00,0.0048
2326.00,0.0051
2325.00,0.0053
2324.00,0.0052
2323.00,0.0049
2322.00,0.0047
2321.00,0.0045
2320.00,0.0043
2319.00,0.0042
2318.00,0.0041
2317.00,0.0040
2316.00,0.0040
2315.00,0.0039
2314.00,0.0039
2313.00,0.0039
2312.00,0.0039
2311.00,0.0038
2310.00,0.0037
2309.00,0.0036
2308.00,0.0036
2307.00,0.0036
2306.00,0.0036
2305.00,0.0036
2304.00,0.0037
2303.00,0.0037
2302.00,0.0037
2301.00,0.0037
2300.00,0.0037
2299.00,0.0038
2298.00,0.0038
2297.00,0.0038
2296.00,0.0039
2295.00,0.0039
2294.00,0.0040
2293.00,0.0041
2292.00,0.0042
2291.00,0.0043
2290.00,0.0043
2289.00,0.0044
2288.00,0.0044
2287.00,0.0044
2286.00,0.0043
2285.00,0.0042
2284.00,0.0041
2283.00,0.0040
2282.00,0.0039
2281.00,0.0038
2280.00,0.0038
2279.00,0.0038
2278.00,0.0037
2277.00,0.0036
2276.00,0.0036
2275.00,0.0035
2274.00,0.0035
2273.00,0.0035
2272.00,0.0034
2271.00,0.0034
2270.00,0.0034
2269.00,0.0033
2268.00,0.0033
2267.00,0.0033
2266.00,0.0033
2265.00,0.0033
2264.00,0.0033
2263.00,0.0032
2262.00,0.0032
2261.00,0.0031
2260.00,0.0031
2259.00,0.0032
2258.00,0.0032
2257.00,0.0031
2256.00,0.0030
2255.00,0.0029
2254.00,0.0029
2253.00,0.0029
2252.00,0.0029
2251.00,0.0028
2250.00,0.0028
2249.00,0.0027
2248.00,0.0027
2247.00,0.0027
2246.00,0.0027
2245.00,0.0027
2244.00,0.0028
2243.00,0.0028
2242.00,0.0028
2241.00,0.0029
2240.00,0.0029
2239.00,0.0029
2238.00,0.0029
2237.00,0.0029
2236.00,0.0028
2235.00,0.0028
2234.00,0.0027
2233.00,0.0027
2232.00,0.0027
2231.00,0.0028
2230.00,0.0028
2229.00,0.0027
2228.00,0.0027
2227.00,0.0026
2226.00,0.0026
2225.00,0.0026
2224.00,0.0026
2223.00,0.0025
2222.00,0.0024
2221.00,0.0023
2220.00,0.0023
2219.00,0.0024
2218.00,0.0025
2217.00,0.0025
2216.00,0.0025
2215.00,0.0024
2214.00,0.0023
2213.00,0.0022
2212.00,0.0022
2211.00,0.0021
2210.00,0.0022
2209.00,0.0022
2208.00,0.0023
2207.00,0.0023
2206.00,0.0023
2205.00,0.0022
2204.00,0.0022
2203.00,0.0022
2202.00,0.0022
2201.00,0.0021
2200.00,0.0021
2199.00,0.0021
2198.00,0.0022
2197.00,0.0023
2196.00,0.0024
2195.00,0.0025
2194.00,0.0027
2193.00,0.0028
2192.00,0.0028
2191.00,0.0028
2190.00,0.0027
2189.00,0.0027
2188.00,0.0026
2187.00,0.0025
2186.00,0.0024
2185.00,0.0023
2184.00,0.0022
2183.00,0.0020
2182.00,0.0020
2181.00,0.0020
2180.00,0.0020
2179.00,0.0019
2178.00,0.0018
2177.00,0.0016
2176.00,0.0015
2175.00,0.0016
2174.00,0.0018
2173.00,0.0021
2172.00,0.0023
2171.00,0.0025
2170.00,0.0026
2169.00,0.0028
2168.00,0.0029
2167.00,0.0030
2166.00,0.0031
2165.00,0.0033
2164.00,0.0036
2163.00,0.0036
2162.00,0.0031
2161.00,0.0019
2160.00,0.0004
2159.00,-0.0008
2158.00,-0.0014
2157.00,-0.0015
2156.00,-0.0013
2155.00,-0.0010
2154.00,-0.0008
2153.00,-0.0005
2152.00,-0.0003
2151.00,-0.0001
2150.00,-0.0001
2149.00,-0.0002
2148.00,-0.0003
2147.00,-0.0004
2146.00,-0.0004
2145.00,-0.0004
2144.00,-0.0004
2143.00,-0.0003
2142.00,-0.0003
2141.00,-0.0002
2140.00,-0.0001
2139.00,-0.0001
2138.00,-0.0003
2137.00,-0.0005
2136.00,-0.0007
2135.00,-0.0009
2134.00,-0.0008
2133.00,-0.0007
2132.00,-0.0004
2131.00,-0.0003
2130.00,-0.0001
2129.00,-0.0000
2128.00,0.0001
2127.00,0.0001
2126.00,0.0002
2125.00,0.0003
2124.00,0.0004
2123.00,0.0005
2122.00,0.0006
2121.00,0.0008
2120.00,0.0009
2119.00,0.0010
2118.00,0.0012
2117.00,0.0013
2116.00,0.0014
2115.00,0.0015
2114.00,0.0015
2113.00,0.0015
2112.00,0.0014
2111.00,0.0012
2110.00,0.0012
2109.00,0.0011
2108.00,0.0011
2107.00,0.0011
2106.00,0.0012
2105.00,0.0013
2104.00,0.0013
2103.00,0.0013
2102.00,0.0012
2101.00,0.0011
2100.00,0.0011
2099.00,0.0011
2098.00,0.0011
2097.00,0.0010
2096.00,0.0009
2095.00,0.0008
2094.00,0.0008
2093.00,0.0008
2092.00,0.0009
2091.00,0.0009
2090.00,0.0009
2089.00,0.0009
2088.00,0.0010
2087.00,0.0011
2086.00,0.0011
2085.00,0.0012
2084.00,0.0012
2083.00,0.0013
2082.00,0.0013
2081.00,0.0014
2080.00,0.0014
2079.00,0.0014
2078.00,0.0014
2077.00,0.0013
2076.00,0.0013
2075.00,0.0012
2074.00,0.0011
2073.00,0.0011
2072.00,0.0010
2071.00,0.0010
2070.00,0.0010
2069.00,0.0010
2068.00,0.0010
2067.00,0.0010
2066.00,0.0009
2065.00,0.0009
2064.00,0.0009
2063.00,0.0010
2062.00,0.0010
2061.00,0.0010
2060.00,0.0011
2059.00,0.0011
2058.00,0.0010
2057.00,0.0009
2056.00,0.0009
2055.00,0.0009
2054.00,0.0012
2053.00,0.0017
2052.00,0.0022
2051.00,0.0023
2050.00,0.0020
2049.00,0.0016
2048.00,0.0014
2047.00,0.0013
2046.00,0.0013
2045.00,0.0012
2044.00,0.0012
2043.00,0.0012
2042.00,0.0013
2041.00,0.0015
2040.00,0.0016
2039.00,0.0016
2038.00,0.0014
2037.00,0.0013
2036.00,0.0013
2035.00,0.0012
2034.00,0.0010
2033.00,0.0008
2032.00,0.0006
2031.00,0.0004
2030.00,0.0003
2029.00,0.0004
2028.00,0.0005
2027.00,0.0005
2026.00,0.0006
2025.00,0.0006
2024.00,0.0007
2023.00,0.0006
2022.00,0.0004
2021.00,0.0003
2020.00,0.0002
2019.00,0.0002
2018.00,0.0002
2017.00,0.0003
2016.00,0.0005
2015.00,0.0005
2014.00,0.0005
2013.00,0.0005
2012.00,0.0006
2011.00,0.0007
2010.00,0.0007
2009.00,0.0005
2008.00,0.0003
2007.00,-0.0001
2006.00,-0.0003
2005.00,-0.0004
2004.00,-0.0003
2003.00,-0.0001
2002.00,0.0001
2001.00,0.0003
2000.00,0.0004
1999.00,0.0004
1998.00,0.0004
1997.00,0.0004
1996.00,0.0005
1995.00,0.0006
1994.00,0.0007
1993.00,0.0009
1992.00,0.0010
1991.00,0.0011
1990.00,0.0011
1989.00,0.0011
1988.00,0.0011
1987.00,0.0011
1986.00,0.0012
1985.00,0.0014
1984.00,0.0017
1983.00,0.0020
1982.00,0.0022
1981.00,0.0023
1980.00,0.0021
1979.00,0.0016
1978.00,0.0009
1977.00,0.0004
1976.00,0.0001
1975.00,0.0001
1974.00,0.0001
1973.00,0.0001
1972.00,0.0001
1971.00,0.0001
1970.00,0.0000
1969.00,-0.0000
1968.00,-0.0001
1967.00,-0.0001
1966.00,-0.0001
1965.00,-0.0001
1964.00,0.0000
1963.00,0.0000
1962.00,-0.0001
1961.00,-0.0001
1960.00,-0.0002
1959.00,-0.0003
1958.00,-0.0002
1957.00,-0.0001
1956.00,0.0000
1955.00,0.0002
1954.00,0.0002
1953.00,0.0003
1952.00,0.0004
1951.00,0.0004
1950.00,0.0004
1949.00,0.0004
1948.00,0.0003
1947.00,0.0003
1946.00,0.0001
1945.00,0.0001
1944.00,0.0001
1943.00,0.0001
1942.00,0.0002
1941.00,0.0003
1940.00,0.0003
1939.00,0.0003
1938.00,0.0002
1937.00,0.0002
1936.00,0.0003
1935.00,0.0003
1934.00,0.0003
1933.00,0.0003
1932.00,0.0003
1931.00,0.0003
1930.00,0.0002
1929.00,0.0003
1928.00,0.0003
1927.00,0.0004
1926.00,0.0004
1925.00,0.0004
1924.00,0.0005
1923.00,0.0006
1922.00,0.0007
1921.00,0.0007
1920.00,0.0007
1919.00,0.0007
1918.00,0.0007
1917.00,0.0007
1916.00,0.0007
1915.00,0.0007
1914.00,0.0007
1913.00,0.0007
1912.00,0.0007
1911.00,0.0006
1910.00,0.0006
1909.00,0.0005
1908.00,0.0005
1907.00,0.0005
1906.00,0.0005
1905.00,0.0005
1904.00,0.0005
1903.00,0.0005
1902.00,0.0005
1901.00,0.0005
1900.00,0.0005
1899.00,0.0005
1898.00,0.0005
1897.00,0.0005
1896.00,0.0005
1895.00,0.0005
1894.00,0.0005
1893.00,0.0004
1892.00,0.0004
1891.00,0.0004
1890.00,0.0005
1889.00,0.0005
1888.00,0.0006
1887.00,0.0007
1886.00,0.0006
1885.00,0.0006
1884.00,0.0006
1883.00,0.0006
1882.00,0.0006
1881.00,0.0007
1880.00,0.0007
1879.00,0.0007
1878.00,0.0007
1877.00,0.0007
1876.00,0.0007
1875.00,0.0007
1874.00,0.0007
1873.00,0.0007
1872.00,0.0007
1871.00,0.0008
1870.00,0.0008
1869.00,0.0009
1868.00,0.0009
1867.00,0.0009
1866.00,0.0009
1865.00,0.0009
1864.00,0.0009
1863.00,0.0008
1862.00,0.0008
1861.00,0.0008
1860.00,0.0008
1859.00,0.0007
1858.00,0.0007
1857.00,0.0007
1856.00,0.0008
1855.00,0.0008
1854.00,0.0008
1853.00,0.0008
1852.00,0.0007
1851.00,0.0007
1850.00,0.0006
1849.00,0.0006
1848.00,0.0006
1847.00,0.0007
1846.00,0.0007
1845.00,0.0008
1844.00,0.0009
1843.00,0.0009
1842.00,0.0009
1841.00,0.0009
1840.00,0.0008
1839.00,0.0008
1838.00,0.0008
1837.00,0.0008
1836.00,0.0008
1835.00,0.0008
1834.00,0.0008
1833.00,0.0008
1832.00,0.0008
1831.00,0.0008
1830.00,0.0008
1829.00,0.0009
1828.00,0.0009
1827.00,0.0009
1826.00,0.0009
1825.00,0.0009
1824.00,0.0010
1823.00,0.0009
1822.00,0.0009
1821.00,0.0009
1820.00,0.0008
1819.00,0.0007
1818.00,0.0006
1817.00,0.0006
1816.00,0.0006
1815.00,0.0007
1814.00,0.0007
1813.00,0.0007
1812.00,0.0008
1811.00,0.0009
1810.00,0.0009
1809.00,0.0009
1808.00,0.0010
1807.00,0.0010
1806.00,0.0010
1805.00,0.0010
1804.00,0.0011
1803.00,0.0011
1802.00,0.0011
1801.00,0.0012
1800.00,0.0012
1799.00,0.0012
1798.00,0.0012
1797.00,0.0012
1796.00,0.0012
1795.00,0.0013
1794.00,0.0013
1793.00,0.0014
1792.00,0.0015
1791.00,0.0015
1790.00,0.0016
1789.00,0.0016
1788.00,0.0016
1787.00,0.0017
1786.00,0.0018
1785.00,0.0018
1784.00,0.0019
1783.00,0.0019
1782.00,0.0019
1781.00,0.0019
1780.00,0.0018
1779.00,0.0018
1778.00,0.0018
1777.00,0.0018
1776.00,0.0018
1775.00,0.0018
1774.00,0.0018
1773.00,0.0018
1772.00,0.0018
1771.00,0.0018
1770.00,0.0018
1769.00,0.0018
1768.00,0.0018
1767.00,0.0018
1766.00,0.0018
1765.00,0.0017
1764.00,0.0017
1763.00,0.0017
1762.00,0.0017
1761.00,0.0018
1760.00,0.0018
1759.00,0.0018
1758.00,0.0017
1757.00,0.0017
1756.00,0.0017
1755.00,0.0017
1754.00,0.0017
1753.00,0.0017
1752.00,0.0017
1751.00,0.0018
1750.00,0.0018
1749.00,0.0019
1748.00,0.0019
1747.00,0.0019
1746.00,0.0019
1745.00,0.0019
1744.00,0.0019
1743.00,0.0020
1742.00,0.0020
1741.00,0.0020
1740.00,0.0020
1739.00,0.0020
1738.00,0.0020
1737.00,0.0020
1736.00,0.0020
1735.00,0.0020
1734.00,0.0020
1733.00,0.0021
1732.00,0.0021
1731.00,0.0021
1730.00,0.0022
1729.00,0.0022
1728.00,0.0023
1727.00,0.0023
1726.00,0.0023
1725.00,0.0023
1724.00,0.0024
1723.00,0.0024
1722.00,0.0024
1721.00,0.0025
1720.00,0.0025
1719.00,0.0025
1718.00,0.0025
1717.00,0.0026
1716.00,0.0027
1715.00,0.0027
1714.00,0.0027
1713.00,0.0027
1712.00,0.0027
1711.00,0.0027
1710.00,0.0027
1709.00,0.0027
1708.00,0.0028
1707.00,0.0028
1706.00,0.0029
1705.00,0.0029
1704.00,0.0030
1703.00,0.0031
1702.00,0.0031
1701.00,0.0031
1700.00,0.0030
1699.00,0.0031
1698.00,0.0031
1697.00,0.0031
1696.00,0.0031
1695.00,0.0032
1694.00,0.0032
1693.00,0.0032
1692.00,0.0033
1691.00,0.0033
1690.00,0.0034
1689.00,0.0034
1688.00,0.0035
1687.00,0.0035
1686.00,0.0035
1685.00,0.0036
1684.00,0.0038
1683.00,0.0039
1682.00,0.0040
1681.00,0.0041
1680.00,0.0042
1679.00,0.0043
1678.00,0.0044
1677.00,0.0045
1676.00,0.0047
1675.00,0.0048
1674.00,0.0050
1673.00,0.0052
1672.00,0.0053
1671.00,0.0056
1670.00,0.0058
1669.00,0.0061
1668.00,0.0065
1667.00,0.0068
1666.00,0.0071
1665.00,0.0074
1664.00,0.0078
1663.00,0.0082
1662.00,0.0086
1661.00,0.0090
1660.00,0.0096
1659.00,0.0101
1658.00,0.0107
1657.00,0.0114
1656.00,0.0122
1655.00,0.0130
1654.00,0.0139
1653.00,0.0149
1652.00,0.0161
1651.00,0.0173
1650.00,0.0186
1649.00,0.0201
1648.00,0.0220
1647.00,0.0243
1646.00,0.0270
1645.00,0.0299
1644.00,0.0329
1643.00,0.0360
1642.00,0.0389
1641.00,0.0416
1640.00,0.0442
1639.00,0.0466
1638.00,0.0490
1637.00,0.0511
1636.00,0.0529
1635.00,0.0544
1634.00,0.0556
1633.00,0.0568
1632.00,0.0576
1631.00,0.0577
1630.00,0.0570
1629.00,0.0554
1628.00,0.0530
1627.00,0.0504
1626.00,0.0478
1625.00,0.0454
1624.00,0.0426
1623.00,0.0396
1622.00,0.0369
1621.00,0.0349
1620.00,0.0335
1619.00,0.0322
1618.00,0.0307
1617.00,0.0289
1616.00,0.0270
1615.00,0.0257
1614.00,0.0249
1613.00,0.0243
1612.00,0.0237
1611.00,0.0230
1610.00,0.0223
1609.00,0.0218
1608.00,0.0214
1607.00,0.0210
1606.00,0.0208
1605.00,0.0207
1604.00,0.0207
1603.00,0.0207
1602.00,0.0209
1601.00,0.0212
1600.00,0.0216
1599.00,0.0222
1598.00,0.0230
1597.00,0.0241
1596.00,0.0255
1595.00,0.0271
1594.00,0.0292
1593.00,0.0316
1592.00,0.0343
1591.00,0.0373
1590.00,0.0403
1589.00,0.0432
1588.00,0.0459
1587.00,0.0484
1586.00,0.0506
1585.00,0.0526
1584.00,0.0544
1583.00,0.0561
1582.00,0.0576
1581.00,0.0590
1580.00,0.0605
1579.00,0.0619
1578.00,0.0629
1577.00,0.0630
1576.00,0.0624
1575.00,0.0618
1574.00,0.0616
1573.00,0.0619
1572.00,0.0622
1571.00,0.0617
1570.00,0.0603
1569.00,0.0585
1568.00,0.0571
1567.00,0.0561
1566.00,0.0550
1565.00,0.0536
1564.00,0.0521
1563.00,0.0511
1562.00,0.0503
1561.00,0.0494
1560.00,0.0472
1559.00,0.0434
1558.00,0.0397
1557.00,0.0377
1556.00,0.0365
1555.00,0.0354
1554.00,0.0340
1553.00,0.0325
1552.00,0.0313
1551.00,0.0302
1550.00,0.0289
1549.00,0.0277
1548.00,0.0267
1547.00,0.0259
1546.00,0.0252
1545.00,0.0244
1544.00,0.0236
1543.00,0.0230
1542.00,0.0224
1541.00,0.0215
1540.00,0.0206
1539.00,0.0198
1538.00,0.0193
1537.00,0.0192
1536.00,0.0193
1535.00,0.0193
1534.00,0.0192
1533.00,0.0191
1532.00,0.0192
1531.00,0.0195
1530.00,0.0199
1529.00,0.0204
1528.00,0.0210
1527.00,0.0215
1526.00,0.0219
1525.00,0.0222
1524.00,0.0223
1523.00,0.0222
1522.00,0.0215
1521.00,0.0206
1520.00,0.0195
1519.00,0.0187
1518.00,0.0178
1517.00,0.0167
1516.00,0.0157
1515.00,0.0149
1514.00,0.0143
1513.00,0.0138
1512.00,0.0134
1511.00,0.0131
1510.00,0.0129
1509.00,0.0127
1508.00,0.0124
1507.00,0.0120
1506.00,0.0115
1505.00,0.0111
1504.00,0.0109
1503.00,0.0108
1502.00,0.0107
1501.00,0.0105
1500.00,0.0104
1499.00,0.0102
1498.00,0.0100
1497.00,0.0098
1496.00,0.0096
1495.00,0.0095
1494.00,0.0094
1493.00,0.0094
1492.00,0.0094
1491.00,0.0094
1490.00,0.0093
1489.00,0.0093
1488.00,0.0093
1487.00,0.0094
1486.00,0.0094
1485.00,0.0095
1484.00,0.0097
1483.00,0.0099
1482.00,0.0102
1481.00,0.0106
1480.00,0.0110
1479.00,0.0115
1478.00,0.0120
1477.00,0.0126
1476.00,0.0133
1475.00,0.0140
1474.00,0.0147
1473.00,0.0156
1472.00,0.0169
1471.00,0.0183
1470.00,0.0197
1469.00,0.0209
1468.00,0.0218
1467.00,0.0221
1466.00,0.0219
1465.00,0.0216
1464.00,0.0215
1463.00,0.0220
1462.00,0.0230
1461.00,0.0244
1460.00,0.0261
1459.00,0.0281
1458.00,0.0304
1457.00,0.0328
1456.00,0.0352
1455.00,0.0376
1454.00,0.0402
1453.00,0.0431
1452.00,0.0463
1451.00,0.0495
1450.00,0.0526
1449.00,0.0555
1448.00,0.0580
1447.00,0.0599
1446.00,0.0615
1445.00,0.0627
1444.00,0.0634
1443.00,0.0633
1442.00,0.0625
1441.00,0.0611
1440.00,0.0596
1439.00,0.0577
1438.00,0.0555
1437.00,0.0527
1436.00,0.0498
1435.00,0.0476
1434.00,0.0461
1433.00,0.0449
1432.00,0.0434
1431.00,0.0416
1430.00,0.0395
1429.00,0.0374
1428.00,0.0356
1427.00,0.0341
1426.00,0.0328
1425.00,0.0316
1424.00,0.0305
1423.00,0.0296
1422.00,0.0291
1421.00,0.0287
1420.00,0.0283
1419.00,0.0279
1418.00,0.0276
1417.00,0.0275
1416.00,0.0275
1415.00,0.0276
1414.00,0.0278
1413.00,0.0279
1412.00,0.0281
1411.00,0.0283
1410.00,0.0285
1409.00,0.0287
1408.00,0.0289
1407.00,0.0292
1406.00,0.0295
1405.00,0.0298
1404.00,0.0300
1403.00,0.0302
1402.00,0.0304
1401.00,0.0306
1400.00,0.0307
1399.00,0.0306
1398.00,0.0304
1397.00,0.0302
1396.00,0.0298
1395.00,0.0293
1394.00,0.0287
1393.00,0.0281
1392.00,0.0277
1391.00,0.0273
1390.00,0.0269
1389.00,0.0266
1388.00,0.0261
1387.00,0.0257
1386.00,0.0255
1385.00,0.0255
1384.00,0.0260
1383.00,0.0268
1382.00,0.0280
1381.00,0.0296
1380.00,0.0314
1379.00,0.0331
1378.00,0.0343
1377.00,0.0349
1376.00,0.0349
1375.00,0.0342
1374.00,0.0331
1373.00,0.0319
1372.00,0.0310
1371.00,0.0307
1370.00,0.0308
1369.00,0.0312
1368.00,0.0317
1367.00,0.0320
1366.00,0.0320
1365.00,0.0317
1364.00,0.0312
1363.00,0.0305
1362.00,0.0299
1361.00,0.0295
1360.00,0.0294
1359.00,0.0296
1358.00,0.0300
1357.00,0.0307
1356.00,0.0318
1355.00,0.0331
1354.00,0.0345
1353.00,0.0358
1352.00,0.0371
1351.00,0.0381
1350.00,0.0387
1349.00,0.0389
1348.00,0.0386
1347.00,0.0378
1346.00,0.0368
1345.00,0.0357
1344.00,0.0347
1343.00,0.0339
1342.00,0.0334
1341.00,0.0332
1340.00,0.0334
1339.00,0.0338
1338.00,0.0344
1337.00,0.0351
1336.00,0.0356
1335.00,0.0356
1334.00,0.0352
1333.00,0.0343
1332.00,0.0333
1331.00,0.0323
1330.00,0.0316
1329.00,0.0314
1328.00,0.0318
1327.00,0.0327
1326.00,0.0341
1325.00,0.0359
1324.00,0.0381
1323.00,0.0405
1322.00,0.0430
1321.00,0.0454
1320.00,0.0472
1319.00,0.0481
1318.00,0.0479
1317.00,0.0466
1316.00,0.0445
1315.00,0.0420
1314.00,0.0393
1313.00,0.0369
1312.00,0.0348
1311.00,0.0331
1310.00,0.0320
1309.00,0.0315
1308.00,0.0314
1307.00,0.0317
1306.00,0.0321
1305.00,0.0323
1304.00,0.0322
1303.00,0.0317
1302.00,0.0308
1301.00,0.0300
1300.00,0.0292
1299.00,0.0288
1298.00,0.0286
1297.00,0.0286
1296.00,0.0287
1295.00,0.0289
1294.00,0.0292
1293.00,0.0298
1292.00,0.0307
1291.00,0.0318
1290.00,0.0332
1289.00,0.0346
1288.00,0.0360
1287.00,0.0372
1286.00,0.0384
1285.00,0.0397
1284.00,0.0411
1283.00,0.0425
1282.00,0.0438
1281.00,0.0447
1280.00,0.0449
1279.00,0.0443
1278.00,0.0429
1277.00,0.0407
1276.00,0.0383
1275.00,0.0356
1274.00,0.0330
1273.00,0.0306
1272.00,0.0285
1271.00,0.0266
1270.00,0.0249
1269.00,0.0234
1268.00,0.0221
1267.00,0.0210
1266.00,0.0201
1265.00,0.0192
1264.00,0.0186
1263.00,0.0181
1262.00,0.0177
1261.00,0.0176
1260.00,0.0176
1259.00,0.0179
1258.00,0.0185
1257.00,0.0194
1256.00,0.0207
1255.00,0.0222
1254.00,0.0238
1253.00,0.0252
1252.00,0.0262
1251.00,0.0270
1250.00,0.0277
1249.00,0.0287
1248.00,0.0302
1247.00,0.0321
1246.00,0.0341
1245.00,0.0357
1244.00,0.0367
1243.00,0.0368
1242.00,0.0358
1241.00,0.0341
1240.00,0.0320
1239.00,0.0296
1238.00,0.0274
1237.00,0.0254
1236.00,0.0238
1235.00,0.0226
1234.00,0.0219
1233.00,0.0216
1232.00,0.0219
1231.00,0.0226
1230.00,0.0235
1229.00,0.0242
1228.00,0.0245
1227.00,0.0242
1226.00,0.0235
1225.00,0.0225
1224.00,0.0217
1223.00,0.0212
1222.00,0.0211
1221.00,0.0214
1220.00,0.0219
1219.00,0.0224
1218.00,0.0224
1217.00,0.0220
1216.00,0.0212
1215.00,0.0203
1214.00,0.0196
1213.00,0.0194
1212.00,0.0199
1211.00,0.0212
1210.00,0.0234
1209.00,0.0265
1208.00,0.0302
1207.00,0.0337
1206.00,0.0363
1205.00,0.0372
1204.00,0.0364
1203.00,0.0341
1202.00,0.0310
1201.00,0.0277
1200.00,0.0246
1199.00,0.0219
1198.00,0.0198
1197.00,0.0181
1196.00,0.0169
1195.00,0.0161
1194.00,0.0156
1193.00,0.0154
1192.00,0.0155
1191.00,0.0157
1190.00,0.0159
1189.00,0.0161
1188.00,0.0161
1187.00,0.0160
1186.00,0.0158
1185.00,0.0156
1184.00,0.0155
1183.00,0.0154
1182.00,0.0156
1181.00,0.0161
1180.00,0.0171
1179.00,0.0186
1178.00,0.0206
1177.00,0.0230
1176.00,0.0256
1175.00,0.0283
1174.00,0.0310
1173.00,0.0333
1172.00,0.0349
1171.00,0.0354
1170.00,0.0345
1169.00,0.0326
1168.00,0.0301
1167.00,0.0273
1166.00,0.0247
1165.00,0.0223
1164.00,0.0204
1163.00,0.0188
1162.00,0.0176
1161.00,0.0167
1160.00,0.0161
1159.00,0.0158
1158.00,0.0155
1157.00,0.0155
1156.00,0.0156
1155.00,0.0161
1154.00,0.0170
1153.00,0.0187
1152.00,0.0212
1151.00,0.0244
1150.00,0.0276
1149.00,0.0298
1148.00,0.0301
1147.00,0.0282
1146.00,0.0247
1145.00,0.0207
1144.00,0.0172
1143.00,0.0145
1142.00,0.0127
1141.00,0.0115
1140.00,0.0109
1139.00,0.0105
1138.00,0.0103
1137.00,0.0102
1136.00,0.0101
1135.00,0.0099
1134.00,0.0096
1133.00,0.0092
1132.00,0.0088
1131.00,0.0083
1130.00,0.0079
1129.00,0.0075
1128.00,0.0072
1127.00,0.0069
1126.00,0.0066
1125.00,0.0065
1124.00,0.0063
1123.00,0.0062
1122.00,0.0061
1121.00,0.0061
1120.00,0.0061
1119.00,0.0061
1118.00,0.0061
1117.00,0.0062
1116.00,0.0063
1115.00,0.0064
1114.00,0.0066
1113.00,0.0068
1112.00,0.0071
1111.00,0.0074
1110.00,0.0077
1109.00,0.0081
1108.00,0.0086
1107.00,0.0091
1106.00,0.0095
1105.00,0.0100
1104.00,0.0107
1103.00,0.0114
1102.00,0.0120
1101.00,0.0126
1100.00,0.0130
1099.00,0.0131
1098.00,0.0129
1097.00,0.0123
1096.00,0.0117
1095.00,0.0110
1094.00,0.0103
1093.00,0.0098
1092.00,0.0095
1091.00,0.0091
1090.00,0.0089
1089.00,0.0087
1088.00,0.0086
1087.00,0.0086
1086.00,0.0087
1085.00,0.0088
1084.00,0.0090
1083.00,0.0092
1082.00,0.0093
1081.00,0.0093
1080.00,0.0093
1079.00,0.0091
1078.00,0.0088
1077.00,0.0085
1076.00,0.0083
1075.00,0.0080
1074.00,0.0078
1073.00,0.0077
1072.00,0.0076
1071.00,0.0076
1070.00,0.0076
1069.00,0.0078
1068.00,0.0081
1067.00,0.0085
1066.00,0.0091
1065.00,0.0099
1064.00,0.0108
1063.00,0.0120
1062.00,0.0135
1061.00,0.0153
1060.00,0.0175
1059.00,0.0201
1058.00,0.0232
1057.00,0.0267
1056.00,0.0304
1055.00,0.0337
1054.00,0.0356
1053.00,0.0358
1052.00,0.0342
1051.00,0.0313
1050.00,0.0280
1049.00,0.0250
1048.00,0.0228
1047.00,0.0214
1046.00,0.0209
1045.00,0.0209
1044.00,0.0215
1043.00,0.0225
1042.00,0.0238
1041.00,0.0254
1040.00,0.0276
1039.00,0.0301
1038.00,0.0331
1037.00,0.0364
1036.00,0.0398
1035.00,0.0428
1034.00,0.0450
1033.00,0.0463
1032.00,0.0467
1031.00,0.0460
1030.00,0.0444
1029.00,0.0419
1028.00,0.0389
1027.00,0.0355
1026.00,0.0320
1025.00,0.0288
1024.00,0.0261
1023.00,0.0239
1022.00,0.0222
1021.00,0.0208
1020.00,0.0197
1019.00,0.0187
1018.00,0.0177
1017.00,0.0167
1016.00,0.0160
1015.00,0.0153
1014.00,0.0148
1013.00,0.0144
1012.00,0.0140
1011.00,0.0138
1010.00,0.0134
1009.00,0.0131
1008.00,0.0127
1007.00,0.0123
1006.00,0.0119
1005.00,0.0116
1004.00,0.0117
1003.00,0.0122
1002.00,0.0132
1001.00,0.0145
1000.00,0.0158
999.00,0.0166
998.00,0.0165
997.00,0.0157
996.00,0.0144
995.00,0.0132
994.00,0.0122
993.00,0.0116
992.00,0.0114
991.00,0.0113
990.00,0.0114
989.00,0.0115
988.00,0.0117
987.00,0.0119
986.00,0.0120
985.00,0.0119
984.00,0.0118
983.00,0.0114
982.00,0.0110
981.00,0.0105
980.00,0.0100
979.00,0.0096
978.00,0.0093
977.00,0.0090
976.00,0.0089
975.00,0.0088
974.00,0.0088
973.00,0.0089
972.00,0.0091
971.00,0.0093
970.00,0.0094
969.00,0.0096
968.00,0.0098
967.00,0.0100
966.00,0.0104
965.00,0.0109
964.00,0.0118
963.00,0.0127
962.00,0.0137
961.00,0.0145
960.00,0.0151
959.00,0.0153
958.00,0.0153
957.00,0.0150
956.00,0.0147
955.00,0.0143
954.00,0.0139
953.00,0.0136
952.00,0.0134
951.00,0.0133
950.00,0.0131
949.00,0.0130
948.00,0.0130
947.00,0.0129
946.00,0.0129
945.00,0.0130
944.00,0.0132
943.00,0.0134
942.00,0.0135
941.00,0.0134
940.00,0.0132
939.00,0.0129
938.00,0.0124
937.00,0.0120
936.00,0.0116
935.00,0.0114
934.00,0.0112
933.00,0.0113
932.00,0.0114
931.00,0.0117
930.00,0.0120
929.00,0.0125
928.00,0.0129
927.00,0.0134
926.00,0.0138
925.00,0.0141
924.00,0.0144
923.00,0.0148
922.00,0.0152
921.00,0.0159
920.00,0.0167
919.00,0.0176
918.00,0.0183
917.00,0.0190
916.00,0.0197
915.00,0.0201
914.00,0.0203
913.00,0.0200
912.00,0.0193
911.00,0.0184
910.00,0.0174
909.00,0.0167
908.00,0.0164
907.00,0.0167
906.00,0.0173
905.00,0.0184
904.00,0.0196
903.00,0.0206
902.00,0.0213
901.00,0.0215
900.00,0.0213
899.00,0.0208
898.00,0.0201
897.00,0.0198
896.00,0.0199
895.00,0.0210
894.00,0.0233
893.00,0.0271
892.00,0.0324
891.00,0.0382
890.00,0.0427
889.00,0.0448
888.00,0.0444
887.00,0.0431
886.00,0.0420
885.00,0.0418
884.00,0.0414
883.00,0.0399
882.00,0.0371
881.00,0.0336
880.00,0.0303
879.00,0.0277
878.00,0.0257
877.00,0.0244
876.00,0.0235
875.00,0.0228
874.00,0.0223
873.00,0.0221
872.00,0.0220
871.00,0.0222
870.00,0.0225
869.00,0.0230
868.00,0.0240
867.00,0.0254
866.00,0.0274
865.00,0.0300
864.00,0.0332
863.00,0.0363
862.00,0.0388
861.00,0.0403
860.00,0.0410
859.00,0.0410
858.00,0.0408
857.00,0.0406
856.00,0.0404
855.00,0.0397
854.00,0.0384
853.00,0.0367
852.00,0.0351
851.00,0.0336
850.00,0.0324
849.00,0.0318
848.00,0.0316
847.00,0.0318
846.00,0.0323
845.00,0.0330
844.00,0.0337
843.00,0.0341
842.00,0.0342
841.00,0.0343
840.00,0.0344
839.00,0.0345
838.00,0.0342
837.00,0.0332
836.00,0.0316
835.00,0.0297
834.00,0.0279
833.00,0.0265
832.00,0.0256
831.00,0.0253
830.00,0.0253
829.00,0.0255
828.00,0.0254
827.00,0.0249
826.00,0.0237
825.00,0.0221
824.00,0.0206
823.00,0.0192
822.00,0.0181
821.00,0.0172
820.00,0.0166
819.00,0.0160
818.00,0.0156
817.00,0.0152
816.00,0.0151
815.00,0.0150
814.00,0.0151
813.00,0.0153
812.00,0.0156
811.00,0.0161
810.00,0.0167
809.00,0.0177
808.00,0.0192
807.00,0.0212
806.00,0.0235
805.00,0.0254
804.00,0.0266
803.00,0.0267
802.00,0.0261
801.00,0.0254
800.00,0.0250
799.00,0.0251
798.00,0.0257
797.00,0.0267
796.00,0.0277
795.00,0.0282
794.00,0.0280
793.00,0.0270
792.00,0.0256
791.00,0.0239
790.00,0.0222
789.00,0.0208
788.00,0.0198
787.00,0.0191
786.00,0.0185
785.00,0.0181
784.00,0.0177
783.00,0.0174
782.00,0.0171
781.00,0.0169
780.00,0.0169
779.00,0.0170
778.00,0.0171
777.00,0.0173
776.00,0.0177
775.00,0.0181
774.00,0.0185
773.00,0.0190
772.00,0.0194
771.00,0.0197
770.00,0.0197
769.00,0.0197
768.00,0.0196
767.00,0.0194
766.00,0.0191
765.00,0.0187
764.00,0.0183
763.00,0.0179
762.00,0.0175
761.00,0.0171
760.00,0.0169
759.00,0.0168
758.00,0.0167
757.00,0.0167
756.00,0.0167
755.00,0.0167
754.00,0.0165
753.00,0.0160
752.00,0.0154
751.00,0.0147
750.00,0.0140
749.00,0.0135
748.00,0.0133
747.00,0.0133
746.00,0.0133
745.00,0.0134
744.00,0.0137
743.00,0.0141
742.00,0.0144
741.00,0.0148
740.00,0.0154
739.00,0.0162
738.00,0.0170
737.00,0.0180
736.00,0.0192
735.00,0.0205
734.00,0.0217
733.00,0.0223
732.00,0.0224
731.00,0.0216
730.00,0.0204
729.00,0.0190
728.00,0.0178
727.00,0.0170
726.00,0.0163
725.00,0.0158
724.00,0.0155
723.00,0.0153
722.00,0.0150
721.00,0.0149
720.00,0.0149
719.00,0.0149
718.00,0.0148
717.00,0.0148
716.00,0.0148
715.00,0.0149
714.00,0.0149
713.00,0.0149
712.00,0.0149
711.00,0.0149
710.00,0.0148
709.00,0.0146
708.00,0.0146
707.00,0.0145
706.00,0.0144
705.00,0.0144
704.00,0.0144
703.00,0.0144
702.00,0.0144
701.00,0.0144
700.00,0.0145
699.00,0.0146
698.00,0.0146
697.00,0.0147
696.00,0.0148
695.00,0.0149
694.00,0.0150
693.00,0.0151
692.00,0.0154
691.00,0.0158
690.00,0.0161
689.00,0.0165
688.00,0.0169
687.00,0.0174
686.00,0.0179
685.00,0.0184
684.00,0.0190
683.00,0.0196
682.00,0.0200
681.00,0.0205
680.00,0.0210
679.00,0.0213
678.00,0.0214
677.00,0.0213
676.00,0.0212
675.00,0.0210
674.00,0.0208
673.00,0.0207
672.00,0.0208
671.00,0.0209
670.00,0.0208
669.00,0.0204
668.00,0.0196
667.00,0.0184
666.00,0.0172
665.00,0.0163
664.00,0.0156
663.00,0.0151
662.00,0.0146
661.00,0.0143
660.00,0.0142
659.00,0.0141
658.00,0.0139
657.00,0.0137
656.00,0.0137
655.00,0.0138
654.00,0.0138
653.00,0.0140
652.00,0.0143
651.00,0.0145
650.00,0.0146
649.00,0.0145
648.00,0.0144
647.00,0.0142
646.00,0.0139
645.00,0.0137
644.00,0.0136
643.00,0.0136
642.00,0.0137
641.00,0.0139
640.00,0.0142
639.00,0.0145
638.00,0.0147
637.00,0.0149
636.00,0.0152
635.00,0.0154
634.00,0.0155
633.00,0.0155
632.00,0.0156
631.00,0.0155
630.00,0.0153
629.00,0.0150
628.00,0.0147
627.00,0.0144
626.00,0.0140
625.00,0.0137
624.00,0.0135
623.00,0.0134
622.00,0.0133
621.00,0.0133
620.00,0.0135
619.00,0.0138
618.00,0.0143
617.00,0.0149
616.00,0.0157
615.00,0.0161
614.00,0.0162
613.00,0.0160
612.00,0.0158
611.00,0.0157
610.00,0.0154
609.00,0.0152
608.00,0.0150
607.00,0.0148
606.00,0.0144
605.00,0.0142
604.00,0.0141
603.00,0.0141
602.00,0.0139
601.00,0.0138
600.00,0.0138
599.00,0.0138
598.00,0.0138
597.00,0.0138
596.00,0.0141
595.00,0.0143
594.00,0.0143
593.00,0.0143
592.00,0.0143
591.00,0.0142
590.00,0.0139
589.00,0.0138
588.00,0.0138
587.00,0.0139
586.00,0.0139
585.00,0.0142
584.00,0.0150
583.00,0.0163
582.00,0.0183
581.00,0.0209
580.00,0.0238
579.00,0.0258
578.00,0.0261
577.00,0.0247
576.00,0.0222
575.00,0.0192
574.00,0.0164
573.00,0.0144
572.00,0.0131
571.00,0.0122
570.00,0.0116
569.00,0.0112
568.00,0.0109
567.00,0.0107
566.00,0.0104
565.00,0.0102
564.00,0.0105
563.00,0.0108
562.00,0.0111
561.00,0.0115
560.00,0.0121
559.00,0.0129
558.00,0.0138
557.00,0.0153
556.00,0.0176
555.00,0.0204
554.00,0.0234
553.00,0.0258
552.00,0.0272
551.00,0.0268
550.00,0.0249
549.00,0.0224
548.00,0.0203
547.00,0.0188
546.00,0.0177
545.00,0.0172
544.00,0.0171
543.00,0.0172
542.00,0.0173
541.00,0.0176
540.00,0.0184
539.00,0.0198
538.00,0.0215
537.00,0.0235
536.00,0.0255
535.00,0.0264
534.00,0.0259
533.00,0.0242
532.00,0.0221
531.00,0.0200
530.00,0.0186
529.00,0.0186
528.00,0.0198
527.00,0.0215
526.00,0.0225
525.00,0.0226
524.00,0.0223
523.00,0.0219
522.00,0.0212
521.00,0.0203
520.00,0.0189
519.00,0.0172
518.00,0.0154
517.00,0.0141
516.00,0.0135
515.00,0.0131
514.00,0.0127
513.00,0.0127
512.00,0.0130
511.00,0.0135
510.00,0.0137
509.00,0.0142
508.00,0.0149
507.00,0.0158
506.00,0.0166
505.00,0.0175
504.00,0.0190
503.00,0.0205
502.00,0.0220
501.00,0.0236
500.00,0.0254
499.00,0.0273
498.00,0.0290
497.00,0.0308
496.00,0.0328
495.00,0.0347
494.00,0.0363
493.00,0.0378
492.00,0.0393
491.00,0.0405
490.00,0.0410
489.00,0.0414
488.00,0.0417
487.00,0.0418
486.00,0.0413
485.00,0.0409
484.00,0.0409
483.00,0.0409
482.00,0.0406
481.00,0.0404
480.00,0.0405
479.00,0.0408
478.00,0.0409
477.00,0.0411
476.00,0.0415
475.00,0.0418
474.00,0.0416
473.00,0.0413
472.00,0.0412
471.00,0.0410
470.00,0.0402
469.00,0.0397
468.00,0.0397
467.00,0.0398
466.00,0.0397
465.00,0.0394
464.00,0.0391
463.00,0.0381
462.00,0.0362
461.00,0.0344
460.00,0.0333
459.00,0.0322
458.00,0.0307
457.00,0.0296
456.00,0.0292
455.00,0.0291
454.00,0.0287
453.00,0.0283
452.00,0.0283
451.00,0.0282
450.00,0.0277
449.00,0.0273
448.00,0.0273
447.00,0.0271
446.00,0.0264
445.00,0.0258
444.00,0.0258
443.00,0.0258
442.00,0.0253
441.00,0.0249
440.00,0.0249
439.00,0.0247
438.00,0.0240
437.00,0.0237
436.00,0.0241
435.00,0.0243
434.00,0.0237
433.00,0.0227
432.00,0.0220
431.00,0.0210
430.00,0.0195
429.00,0.0184
428.00,0.0182
427.00,0.0182
426.00,0.0177
425.00,0.0173
424.00,0.0176
423.00,0.0181
422.00,0.0179
421.00,0.0177
420.00,0.0181
419.00,0.0179
418.00,0.0166
417.00,0.0156
416.00,0.0158
415.00,0.0160
414.00,0.0153
413.00,0.0145
412.00,0.0146
411.00,0.0149
410.00,0.0148
409.00,0.0150
408.00,0.0162
407.00,0.0170
406.00,0.0168
405.00,0.0168
404.00,0.0178
403.00,0.0179
402.00,0.0162
401.00,0.0150
400.00,0.0163
