Created as New Dataset,Sample 818 By YargerLab Date Friday, July 11 2025
cm-1,A
4000.00,0.0014
3999.00,0.0014
3998.00,0.0014
3997.00,0.0014
3996.00,0.0014
3995.00,0.0014
3994.00,0.0014
3993.00,0.0014
3992.00,0.0014
3991.00,0.0014
3990.00,0.0014
3989.00,0.0014
3988.00,0.0014
3987.00,0.0014
3986.00,0.0014
3985.00,0.0014
3984.00,0.0013
3983.00,0.0013
3982.00,0.0014
3981.00,0.0014
3980.00,0.0014
3979.00,0.0014
3978.00,0.0014
3977.00,0.0014
3976.00,0.0014
3975.00,0.0014
3974.00,0.0014
3973.00,0.0014
3972.00,0.0014
3971.00,0.0014
3970.00,0.0014
3969.00,0.0014
3968.00,0.0014
3967.00,0.0014
3966.00,0.0014
3965.00,0.0014
3964.00,0.0014
3963.00,0.0014
3962.00,0.0014
3961.00,0.0014
3960.00,0.0014
3959.00,0.0014
3958.00,0.0014
3957.00,0.0014
3956.00,0.0014
3955.00,0.0014
3954.00,0.0014
3953.00,0.0013
3952.00,0.0013
3951.00,0.0013
3950.00,0.0013
3949.00,0.0013
3948.00,0.0013
3947.00,0.0013
3946.00,0.0013
3945.00,0.0013
3944.00,0.0013
3943.00,0.0013
3942.00,0.0013
3941.00,0.0013
3940.00,0.0013
3939.00,0.0013
3938.00,0.0013
3937.00,0.0013
3936.00,0.0013
3935.00,0.0013
3934.00,0.0013
3933.00,0.0013
3932.00,0.0013
3931.00,0.0012
3930.00,0.0012
3929.00,0.0012
3928.00,0.0013
3927.00,0.0013
3926.00,0.0013
3925.00,0.0013
3924.00,0.0012
3923.00,0.0012
3922.00,0.0012
3921.00,0.0012
3920.00,0.0012
3919.00,0.0012
3918.00,0.0012
3917.00,0.0012
3916.00,0.0012
3915.00,0.0012
3914.00,0.0012
3913.00,0.0012
3912.00,0.0012
3911.00,0.0012
3910.00,0.0013
3909.00,0.0013
3908.00,0.0013
3907.00,0.0012
3906.00,0.0012
3905.00,0.0012
3904.00,0.0012
3903.00,0.0011
3902.00,0.0010
3901.00,0.0010
3900.00,0.0009
3899.00,0.0010
3898.00,0.0010
3897.00,0.0011
3896.00,0.0012
3895.00,0.0012
3894.00,0.0012
3893.00,0.0012
3892.00,0.0012
3891.00,0.0012
3890.00,0.0012
3889.00,0.0012
3888.00,0.0011
3887.00,0.0011
3886.00,0.0011
3885.00,0.0011
3884.00,0.0011
3883.00,0.0010
3882.00,0.0011
3881.00,0.0011
3880.00,0.0011
3879.00,0.0011
3878.00,0.0011
3877.00,0.0011
3876.00,0.0011
3875.00,0.0011
3874.00,0.0011
3873.00,0.0011
3872.00,0.0010
3871.00,0.0010
3870.00,0.0010
3869.00,0.0010
3868.00,0.0010
3867.00,0.0010
3866.00,0.0010
3865.00,0.0010
3864.00,0.0011
3863.00,0.0011
3862.00,0.0011
3861.00,0.0011
3860.00,0.0011
3859.00,0.0011
3858.00,0.0011
3857.00,0.0010
3856.00,0.0010
3855.00,0.0010
3854.00,0.0010
3853.00,0.0009
3852.00,0.0009
3851.00,0.0009
3850.00,0.0009
3849.00,0.0011
3848.00,0.0012
3847.00,0.0012
3846.00,0.0012
3845.00,0.0013
3844.00,0.0012
3843.00,0.0012
3842.00,0.0012
3841.00,0.0011
3840.00,0.0011
3839.00,0.0010
3838.00,0.0010
3837.00,0.0010
3836.00,0.0010
3835.00,0.0010
3834.00,0.0010
3833.00,0.0010
3832.00,0.0011
3831.00,0.0011
3830.00,0.0011
3829.00,0.0011
3828.00,0.0011
3827.00,0.0011
3826.00,0.0012
3825.00,0.0011
3824.00,0.0011
3823.00,0.0010
3822.00,0.0010
3821.00,0.0011
3820.00,0.0010
3819.00,0.0010
3818.00,0.0010
3817.00,0.0010
3816.00,0.0011
3815.00,0.0011
3814.00,0.0011
3813.00,0.0011
3812.00,0.0012
3811.00,0.0012
3810.00,0.0012
3809.00,0.0012
3808.00,0.0012
3807.00,0.0012
3806.00,0.0011
3805.00,0.0010
3804.00,0.0010
3803.00,0.0010
3802.00,0.0010
3801.00,0.0011
3800.00,0.0011
3799.00,0.0011
3798.00,0.0011
3797.00,0.0011
3796.00,0.0012
3795.00,0.0012
3794.00,0.0012
3793.00,0.0012
3792.00,0.0012
3791.00,0.0012
3790.00,0.0013
3789.00,0.0013
3788.00,0.0012
3787.00,0.0012
3786.00,0.0012
3785.00,0.0012
3784.00,0.0012
3783.00,0.0012
3782.00,0.0012
3781.00,0.0012
3780.00,0.0013
3779.00,0.0013
3778.00,0.0013
3777.00,0.0013
3776.00,0.0012
3775.00,0.0013
3774.00,0.0013
3773.00,0.0013
3772.00,0.0013
3771.00,0.0012
3770.00,0.0012
3769.00,0.0012
3768.00,0.0011
3767.00,0.0011
3766.00,0.0011
3765.00,0.0012
3764.00,0.0012
3763.00,0.0013
3762.00,0.0013
3761.00,0.0013
3760.00,0.0012
3759.00,0.0012
3758.00,0.0012
3757.00,0.0011
3756.00,0.0011
3755.00,0.0011
3754.00,0.0010
3753.00,0.0010
3752.00,0.0010
3751.00,0.0010
3750.00,0.0010
3749.00,0.0009
3748.00,0.0008
3747.00,0.0008
3746.00,0.0008
3745.00,0.0009
3744.00,0.0009
3743.00,0.0009
3742.00,0.0009
3741.00,0.0009
3740.00,0.0010
3739.00,0.0010
3738.00,0.0010
3737.00,0.0010
3736.00,0.0009
3735.00,0.0009
3734.00,0.0008
3733.00,0.0008
3732.00,0.0009
3731.00,0.0009
3730.00,0.0010
3729.00,0.0010
3728.00,0.0011
3727.00,0.0012
3726.00,0.0012
3725.00,0.0011
3724.00,0.0011
3723.00,0.0011
3722.00,0.0011
3721.00,0.0012
3720.00,0.0012
3719.00,0.0012
3718.00,0.0012
3717.00,0.0012
3716.00,0.0012
3715.00,0.0012
3714.00,0.0012
3713.00,0.0011
3712.00,0.0011
3711.00,0.0011
3710.00,0.0011
3709.00,0.0011
3708.00,0.0012
3707.00,0.0012
3706.00,0.0012
3705.00,0.0013
3704.00,0.0013
3703.00,0.0013
3702.00,0.0013
3701.00,0.0013
3700.00,0.0013
3699.00,0.0013
3698.00,0.0013
3697.00,0.0014
3696.00,0.0014
3695.00,0.0014
3694.00,0.0014
3693.00,0.0014
3692.00,0.0014
3691.00,0.0014
3690.00,0.0015
3689.00,0.0015
3688.00,0.0016
3687.00,0.0016
3686.00,0.0017
3685.00,0.0017
3684.00,0.0018
3683.00,0.0019
3682.00,0.0019
3681.00,0.0019
3680.00,0.0019
3679.00,0.0019
3678.00,0.0018
3677.00,0.0019
3676.00,0.0019
3675.00,0.0020
3674.00,0.0020
3673.00,0.0020
3672.00,0.0020
3671.00,0.0021
3670.00,0.0022
3669.00,0.0023
3668.00,0.0024
3667.00,0.0024
3666.00,0.0025
3665.00,0.0026
3664.00,0.0027
3663.00,0.0028
3662.00,0.0029
3661.00,0.0029
3660.00,0.0029
3659.00,0.0029
3658.00,0.0029
3657.00,0.0030
3656.00,0.0031
3655.00,0.0031
3654.00,0.0031
3653.00,0.0031
3652.00,0.0031
3651.00,0.0031
3650.00,0.0032
3649.00,0.0033
3648.00,0.0034
3647.00,0.0036
3646.00,0.0037
3645.00,0.0038
3644.00,0.0040
3643.00,0.0041
3642.00,0.0042
3641.00,0.0043
3640.00,0.0043
3639.00,0.0044
3638.00,0.0044
3637.00,0.0045
3636.00,0.0046
3635.00,0.0048
3634.00,0.0049
3633.00,0.0049
3632.00,0.0049
3631.00,0.0049
3630.00,0.0051
3629.00,0.0054
3628.00,0.0056
3627.00,0.0057
3626.00,0.0058
3625.00,0.0059
3624.00,0.0060
3623.00,0.0060
3622.00,0.0061
3621.00,0.0062
3620.00,0.0064
3619.00,0.0066
3618.00,0.0068
3617.00,0.0069
3616.00,0.0070
3615.00,0.0072
3614.00,0.0073
3613.00,0.0075
3612.00,0.0076
3611.00,0.0077
3610.00,0.0078
3609.00,0.0080
3608.00,0.0082
3607.00,0.0084
3606.00,0.0085
3605.00,0.0086
3604.00,0.0087
3603.00,0.0088
3602.00,0.0090
3601.00,0.0091
3600.00,0.0093
3599.00,0.0094
3598.00,0.0095
3597.00,0.0096
3596.00,0.0097
3595.00,0.0099
3594.00,0.0101
3593.00,0.0102
3592.00,0.0103
3591.00,0.0103
3590.00,0.0104
3589.00,0.0106
3588.00,0.0109
3587.00,0.0112
3586.00,0.0115
3585.00,0.0117
3584.00,0.0118
3583.00,0.0119
3582.00,0.0121
3581.00,0.0122
3580.00,0.0124
3579.00,0.0126
3578.00,0.0128
3577.00,0.0130
3576.00,0.0132
3575.00,0.0134
3574.00,0.0136
3573.00,0.0137
3572.00,0.0138
3571.00,0.0138
3570.00,0.0139
3569.00,0.0141
3568.00,0.0145
3567.00,0.0149
3566.00,0.0153
3565.00,0.0156
3564.00,0.0158
3563.00,0.0159
3562.00,0.0161
3561.00,0.0163
3560.00,0.0165
3559.00,0.0167
3558.00,0.0169
3557.00,0.0171
3556.00,0.0172
3555.00,0.0174
3554.00,0.0177
3553.00,0.0179
3552.00,0.0182
3551.00,0.0184
3550.00,0.0185
3549.00,0.0187
3548.00,0.0189
3547.00,0.0192
3546.00,0.0195
3545.00,0.0198
3544.00,0.0202
3543.00,0.0204
3542.00,0.0206
3541.00,0.0208
3540.00,0.0210
3539.00,0.0212
3538.00,0.0214
3537.00,0.0216
3536.00,0.0219
3535.00,0.0221
3534.00,0.0223
3533.00,0.0225
3532.00,0.0228
3531.00,0.0230
3530.00,0.0233
3529.00,0.0237
3528.00,0.0240
3527.00,0.0243
3526.00,0.0247
3525.00,0.0250
3524.00,0.0253
3523.00,0.0256
3522.00,0.0259
3521.00,0.0261
3520.00,0.0262
3519.00,0.0264
3518.00,0.0266
3517.00,0.0268
3516.00,0.0269
3515.00,0.0270
3514.00,0.0271
3513.00,0.0271
3512.00,0.0272
3511.00,0.0274
3510.00,0.0275
3509.00,0.0277
3508.00,0.0279
3507.00,0.0280
3506.00,0.0280
3505.00,0.0282
3504.00,0.0284
3503.00,0.0286
3502.00,0.0288
3501.00,0.0290
3500.00,0.0292
3499.00,0.0293
3498.00,0.0295
3497.00,0.0297
3496.00,0.0299
3495.00,0.0301
3494.00,0.0302
3493.00,0.0304
3492.00,0.0305
3491.00,0.0307
3490.00,0.0309
3489.00,0.0311
3488.00,0.0313
3487.00,0.0316
3486.00,0.0317
3485.00,0.0319
3484.00,0.0320
3483.00,0.0323
3482.00,0.0325
3481.00,0.0327
3480.00,0.0329
3479.00,0.0331
3478.00,0.0333
3477.00,0.0334
3476.00,0.0336
3475.00,0.0338
3474.00,0.0341
3473.00,0.0343
3472.00,0.0345
3471.00,0.0347
3470.00,0.0349
3469.00,0.0351
3468.00,0.0353
3467.00,0.0355
3466.00,0.0357
3465.00,0.0359
3464.00,0.0360
3463.00,0.0362
3462.00,0.0365
3461.00,0.0367
3460.00,0.0369
3459.00,0.0371
3458.00,0.0372
3457.00,0.0374
3456.00,0.0376
3455.00,0.0377
3454.00,0.0379
3453.00,0.0380
3452.00,0.0382
3451.00,0.0383
3450.00,0.0384
3449.00,0.0386
3448.00,0.0388
3447.00,0.0391
3446.00,0.0393
3445.00,0.0394
3444.00,0.0395
3443.00,0.0397
3442.00,0.0398
3441.00,0.0399
3440.00,0.0401
3439.00,0.0402
3438.00,0.0404
3437.00,0.0405
3436.00,0.0407
3435.00,0.0408
3434.00,0.0409
3433.00,0.0410
3432.00,0.0411
3431.00,0.0412
3430.00,0.0413
3429.00,0.0414
3428.00,0.0415
3427.00,0.0416
3426.00,0.0417
3425.00,0.0418
3424.00,0.0419
3423.00,0.0420
3422.00,0.0421
3421.00,0.0422
3420.00,0.0424
3419.00,0.0425
3418.00,0.0426
3417.00,0.0426
3416.00,0.0427
3415.00,0.0428
3414.00,0.0429
3413.00,0.0430
3412.00,0.0430
3411.00,0.0431
3410.00,0.0432
3409.00,0.0433
3408.00,0.0433
3407.00,0.0434
3406.00,0.0434
3405.00,0.0434
3404.00,0.0435
3403.00,0.0435
3402.00,0.0435
3401.00,0.0435
3400.00,0.0434
3399.00,0.0434
3398.00,0.0433
3397.00,0.0433
3396.00,0.0432
3395.00,0.0431
3394.00,0.0431
3393.00,0.0431
3392.00,0.0431
3391.00,0.0431
3390.00,0.0430
3389.00,0.0430
3388.00,0.0430
3387.00,0.0429
3386.00,0.0429
3385.00,0.0429
3384.00,0.0428
3383.00,0.0428
3382.00,0.0427
3381.00,0.0427
3380.00,0.0426
3379.00,0.0426
3378.00,0.0425
3377.00,0.0425
3376.00,0.0424
3375.00,0.0424
3374.00,0.0423
3373.00,0.0422
3372.00,0.0422
3371.00,0.0421
3370.00,0.0420
3369.00,0.0419
3368.00,0.0418
3367.00,0.0418
3366.00,0.0418
3365.00,0.0418
3364.00,0.0417
3363.00,0.0417
3362.00,0.0416
3361.00,0.0416
3360.00,0.0416
3359.00,0.0415
3358.00,0.0415
3357.00,0.0414
3356.00,0.0414
3355.00,0.0413
3354.00,0.0411
3353.00,0.0410
3352.00,0.0409
3351.00,0.0409
3350.00,0.0408
3349.00,0.0408
3348.00,0.0408
3347.00,0.0408
3346.00,0.0407
3345.00,0.0406
3344.00,0.0405
3343.00,0.0403
3342.00,0.0402
3341.00,0.0401
3340.00,0.0400
3339.00,0.0399
3338.00,0.0399
3337.00,0.0399
3336.00,0.0399
3335.00,0.0399
3334.00,0.0399
3333.00,0.0398
3332.00,0.0398
3331.00,0.0397
3330.00,0.0396
3329.00,0.0395
3328.00,0.0394
3327.00,0.0393
3326.00,0.0392
3325.00,0.0391
3324.00,0.0391
3323.00,0.0391
3322.00,0.0391
3321.00,0.0390
3320.00,0.0390
3319.00,0.0390
3318.00,0.0389
3317.00,0.0389
3316.00,0.0388
3315.00,0.0387
3314.00,0.0386
3313.00,0.0385
3312.00,0.0384
3311.00,0.0382
3310.00,0.0380
3309.00,0.0379
3308.00,0.0378
3307.00,0.0377
3306.00,0.0377
3305.00,0.0377
3304.00,0.0378
3303.00,0.0379
3302.00,0.0380
3301.00,0.0380
3300.00,0.0380
3299.00,0.0378
3298.00,0.0377
3297.00,0.0376
3296.00,0.0374
3295.00,0.0373
3294.00,0.0373
3293.00,0.0372
3292.00,0.0373
3291.00,0.0374
3290.00,0.0374
3289.00,0.0375
3288.00,0.0375
3287.00,0.0374
3286.00,0.0374
3285.00,0.0373
3284.00,0.0372
3283.00,0.0371
3282.00,0.0371
3281.00,0.0370
3280.00,0.0369
3279.00,0.0368
3278.00,0.0366
3277.00,0.0365
3276.00,0.0363
3275.00,0.0361
3274.00,0.0360
3273.00,0.0359
3272.00,0.0358
3271.00,0.0357
3270.00,0.0357
3269.00,0.0358
3268.00,0.0358
3267.00,0.0358
3266.00,0.0357
3265.00,0.0356
3264.00,0.0355
3263.00,0.0354
3262.00,0.0353
3261.00,0.0352
3260.00,0.0351
3259.00,0.0349
3258.00,0.0348
3257.00,0.0346
3256.00,0.0345
3255.00,0.0345
3254.00,0.0344
3253.00,0.0343
3252.00,0.0342
3251.00,0.0341
3250.00,0.0339
3249.00,0.0338
3248.00,0.0336
3247.00,0.0335
3246.00,0.0334
3245.00,0.0334
3244.00,0.0333
3243.00,0.0332
3242.00,0.0331
3241.00,0.0330
3240.00,0.0328
3239.00,0.0327
3238.00,0.0325
3237.00,0.0324
3236.00,0.0322
3235.00,0.0320
3234.00,0.0319
3233.00,0.0318
3232.00,0.0317
3231.00,0.0316
3230.00,0.0315
3229.00,0.0314
3228.00,0.0313
3227.00,0.0312
3226.00,0.0311
3225.00,0.0310
3224.00,0.0308
3223.00,0.0307
3222.00,0.0306
3221.00,0.0304
3220.00,0.0303
3219.00,0.0301
3218.00,0.0300
3217.00,0.0298
3216.00,0.0297
3215.00,0.0296
3214.00,0.0295
3213.00,0.0293
3212.00,0.0292
3211.00,0.0291
3210.00,0.0290
3209.00,0.0289
3208.00,0.0288
3207.00,0.0286
3206.00,0.0285
3205.00,0.0283
3204.00,0.0282
3203.00,0.0281
3202.00,0.0280
3201.00,0.0279
3200.00,0.0277
3199.00,0.0276
3198.00,0.0275
3197.00,0.0273
3196.00,0.0272
3195.00,0.0271
3194.00,0.0270
3193.00,0.0269
3192.00,0.0267
3191.00,0.0266
3190.00,0.0264
3189.00,0.0263
3188.00,0.0262
3187.00,0.0261
3186.00,0.0260
3185.00,0.0259
3184.00,0.0257
3183.00,0.0256
3182.00,0.0254
3181.00,0.0253
3180.00,0.0252
3179.00,0.0251
3178.00,0.0250
3177.00,0.0248
3176.00,0.0247
3175.00,0.0246
3174.00,0.0245
3173.00,0.0244
3172.00,0.0243
3171.00,0.0241
3170.00,0.0240
3169.00,0.0239
3168.00,0.0238
3167.00,0.0237
3166.00,0.0236
3165.00,0.0234
3164.00,0.0233
3163.00,0.0232
3162.00,0.0231
3161.00,0.0230
3160.00,0.0228
3159.00,0.0227
3158.00,0.0226
3157.00,0.0225
3156.00,0.0223
3155.00,0.0221
3154.00,0.0220
3153.00,0.0218
3152.00,0.0217
3151.00,0.0217
3150.00,0.0216
3149.00,0.0215
3148.00,0.0214
3147.00,0.0213
3146.00,0.0212
3145.00,0.0210
3144.00,0.0209
3143.00,0.0208
3142.00,0.0207
3141.00,0.0206
3140.00,0.0205
3139.00,0.0204
3138.00,0.0203
3137.00,0.0202
3136.00,0.0201
3135.00,0.0200
3134.00,0.0199
3133.00,0.0198
3132.00,0.0197
3131.00,0.0196
3130.00,0.0195
3129.00,0.0194
3128.00,0.0193
3127.00,0.0192
3126.00,0.0191
3125.00,0.0190
3124.00,0.0190
3123.00,0.0189
3122.00,0.0188
3121.00,0.0187
3120.00,0.0186
3119.00,0.0184
3118.00,0.0184
3117.00,0.0183
3116.00,0.0182
3115.00,0.0181
3114.00,0.0181
3113.00,0.0180
3112.00,0.0179
3111.00,0.0178
3110.00,0.0177
3109.00,0.0176
3108.00,0.0175
3107.00,0.0175
3106.00,0.0174
3105.00,0.0173
3104.00,0.0172
3103.00,0.0172
3102.00,0.0171
3101.00,0.0171
3100.00,0.0170
3099.00,0.0170
3098.00,0.0169
3097.00,0.0169
3096.00,0.0168
3095.00,0.0168
3094.00,0.0167
3093.00,0.0166
3092.00,0.0166
3091.00,0.0165
3090.00,0.0165
3089.00,0.0164
3088.00,0.0164
3087.00,0.0163
3086.00,0.0163
3085.00,0.0163
3084.00,0.0163
3083.00,0.0163
3082.00,0.0163
3081.00,0.0162
3080.00,0.0162
3079.00,0.0162
3078.00,0.0162
3077.00,0.0162
3076.00,0.0162
3075.00,0.0162
3074.00,0.0162
3073.00,0.0161
3072.00,0.0160
3071.00,0.0160
3070.00,0.0158
3069.00,0.0157
3068.00,0.0156
3067.00,0.0155
3066.00,0.0154
3065.00,0.0153
3064.00,0.0152
3063.00,0.0151
3062.00,0.0150
3061.00,0.0149
3060.00,0.0148
3059.00,0.0148
3058.00,0.0147
3057.00,0.0146
3056.00,0.0146
3055.00,0.0146
3054.00,0.0145
3053.00,0.0145
3052.00,0.0145
3051.00,0.0145
3050.00,0.0145
3049.00,0.0145
3048.00,0.0145
3047.00,0.0145
3046.00,0.0145
3045.00,0.0145
3044.00,0.0145
3043.00,0.0145
3042.00,0.0145
3041.00,0.0145
3040.00,0.0145
3039.00,0.0145
3038.00,0.0146
3037.00,0.0146
3036.00,0.0146
3035.00,0.0146
3034.00,0.0146
3033.00,0.0146
3032.00,0.0146
3031.00,0.0146
3030.00,0.0146
3029.00,0.0145
3028.00,0.0145
3027.00,0.0145
3026.00,0.0144
3025.00,0.0144
3024.00,0.0144
3023.00,0.0144
3022.00,0.0144
3021.00,0.0144
3020.00,0.0144
3019.00,0.0144
3018.00,0.0145
3017.00,0.0145
3016.00,0.0147
3015.00,0.0148
3014.00,0.0149
3013.00,0.0151
3012.00,0.0152
3011.00,0.0154
3010.00,0.0157
3009.00,0.0159
3008.00,0.0162
3007.00,0.0165
3006.00,0.0169
3005.00,0.0172
3004.00,0.0176
3003.00,0.0181
3002.00,0.0185
3001.00,0.0190
3000.00,0.0196
2999.00,0.0201
2998.00,0.0207
2997.00,0.0213
2996.00,0.0220
2995.00,0.0227
2994.00,0.0235
2993.00,0.0242
2992.00,0.0251
2991.00,0.0259
2990.00,0.0269
2989.00,0.0278
2988.00,0.0288
2987.00,0.0297
2986.00,0.0307
2985.00,0.0317
2984.00,0.0326
2983.00,0.0335
2982.00,0.0345
2981.00,0.0354
2980.00,0.0365
2979.00,0.0375
2978.00,0.0385
2977.00,0.0395
2976.00,0.0406
2975.00,0.0416
2974.00,0.0426
2973.00,0.0436
2972.00,0.0446
2971.00,0.0456
2970.00,0.0465
2969.00,0.0475
2968.00,0.0485
2967.00,0.0494
2966.00,0.0502
2965.00,0.0510
2964.00,0.0518
2963.00,0.0525
2962.00,0.0532
2961.00,0.0538
2960.00,0.0544
2959.00,0.0548
2958.00,0.0552
2957.00,0.0554
2956.00,0.0555
2955.00,0.0554
2954.00,0.0552
2953.00,0.0549
2952.00,0.0545
2951.00,0.0541
2950.00,0.0537
2949.00,0.0534
2948.00,0.0532
2947.00,0.0532
2946.00,0.0535
2945.00,0.0539
2944.00,0.0546
2943.00,0.0555
2942.00,0.0565
2941.00,0.0577
2940.00,0.0590
2939.00,0.0605
2938.00,0.0620
2937.00,0.0635
2936.00,0.0651
2935.00,0.0667
2934.00,0.0681
2933.00,0.0695
2932.00,0.0707
2931.00,0.0716
2930.00,0.0724
2929.00,0.0730
2928.00,0.0732
2927.00,0.0732
2926.00,0.0729
2925.00,0.0725
2924.00,0.0718
2923.00,0.0709
2922.00,0.0699
2921.00,0.0688
2920.00,0.0676
2919.00,0.0664
2918.00,0.0650
2917.00,0.0637
2916.00,0.0623
2915.00,0.0610
2914.00,0.0597
2913.00,0.0584
2912.00,0.0571
2911.00,0.0558
2910.00,0.0546
2909.00,0.0534
2908.00,0.0523
2907.00,0.0513
2906.00,0.0503
2905.00,0.0494
2904.00,0.0487
2903.00,0.0480
2902.00,0.0474
2901.00,0.0469
2900.00,0.0464
2899.00,0.0460
2898.00,0.0457
2897.00,0.0454
2896.00,0.0451
2895.00,0.0449
2894.00,0.0447
2893.00,0.0445
2892.00,0.0443
2891.00,0.0441
2890.00,0.0438
2889.00,0.0436
2888.00,0.0433
2887.00,0.0431
2886.00,0.0428
2885.00,0.0426
2884.00,0.0425
2883.00,0.0424
2882.00,0.0424
2881.00,0.0425
2880.00,0.0426
2879.00,0.0429
2878.00,0.0432
2877.00,0.0436
2876.00,0.0441
2875.00,0.0446
2874.00,0.0451
2873.00,0.0456
2872.00,0.0460
2871.00,0.0461
2870.00,0.0461
2869.00,0.0459
2868.00,0.0456
2867.00,0.0453
2866.00,0.0451
2865.00,0.0450
2864.00,0.0452
2863.00,0.0454
2862.00,0.0458
2861.00,0.0463
2860.00,0.0468
2859.00,0.0472
2858.00,0.0474
2857.00,0.0474
2856.00,0.0470
2855.00,0.0463
2854.00,0.0454
2853.00,0.0442
2852.00,0.0428
2851.00,0.0413
2850.00,0.0398
2849.00,0.0382
2848.00,0.0367
2847.00,0.0353
2846.00,0.0339
2845.00,0.0325
2844.00,0.0311
2843.00,0.0298
2842.00,0.0286
2841.00,0.0274
2840.00,0.0263
2839.00,0.0254
2838.00,0.0245
2837.00,0.0238
2836.00,0.0231
2835.00,0.0225
2834.00,0.0219
2833.00,0.0214
2832.00,0.0209
2831.00,0.0204
2830.00,0.0198
2829.00,0.0193
2828.00,0.0187
2827.00,0.0181
2826.00,0.0174
2825.00,0.0169
2824.00,0.0163
2823.00,0.0158
2822.00,0.0154
2821.00,0.0150
2820.00,0.0146
2819.00,0.0143
2818.00,0.0140
2817.00,0.0138
2816.00,0.0135
2815.00,0.0133
2814.00,0.0131
2813.00,0.0129
2812.00,0.0127
2811.00,0.0126
2810.00,0.0124
2809.00,0.0123
2808.00,0.0121
2807.00,0.0120
2806.00,0.0118
2805.00,0.0117
2804.00,0.0116
2803.00,0.0115
2802.00,0.0114
2801.00,0.0113
2800.00,0.0111
2799.00,0.0110
2798.00,0.0109
2797.00,0.0108
2796.00,0.0108
2795.00,0.0107
2794.00,0.0106
2793.00,0.0106
2792.00,0.0105
2791.00,0.0105
2790.00,0.0104
2789.00,0.0103
2788.00,0.0103
2787.00,0.0102
2786.00,0.0102
2785.00,0.0101
2784.00,0.0101
2783.00,0.0100
2782.00,0.0100
2781.00,0.0099
2780.00,0.0099
2779.00,0.0098
2778.00,0.0098
2777.00,0.0097
2776.00,0.0097
2775.00,0.0096
2774.00,0.0096
2773.00,0.0096
2772.00,0.0096
2771.00,0.0096
2770.00,0.0095
2769.00,0.0095
2768.00,0.0095
2767.00,0.0095
2766.00,0.0095
2765.00,0.0095
2764.00,0.0094
2763.00,0.0094
2762.00,0.0094
2761.00,0.0094
2760.00,0.0094
2759.00,0.0094
2758.00,0.0094
2757.00,0.0094
2756.00,0.0094
2755.00,0.0094
2754.00,0.0095
2753.00,0.0095
2752.00,0.0095
2751.00,0.0095
2750.00,0.0095
2749.00,0.0095
2748.00,0.0095
2747.00,0.0095
2746.00,0.0095
2745.00,0.0096
2744.00,0.0096
2743.00,0.0097
2742.00,0.0097
2741.00,0.0098
2740.00,0.0098
2739.00,0.0098
2738.00,0.0098
2737.00,0.0098
2736.00,0.0098
2735.00,0.0099
2734.00,0.0099
2733.00,0.0100
2732.00,0.0100
2731.00,0.0101
2730.00,0.0101
2729.00,0.0101
2728.00,0.0101
2727.00,0.0101
2726.00,0.0101
2725.00,0.0101
2724.00,0.0101
2723.00,0.0100
2722.00,0.0100
2721.00,0.0099
2720.00,0.0099
2719.00,0.0099
2718.00,0.0098
2717.00,0.0098
2716.00,0.0097
2715.00,0.0097
2714.00,0.0097
2713.00,0.0096
2712.00,0.0096
2711.00,0.0096
2710.00,0.0095
2709.00,0.0095
2708.00,0.0095
2707.00,0.0095
2706.00,0.0095
2705.00,0.0094
2704.00,0.0094
2703.00,0.0094
2702.00,0.0093
2701.00,0.0093
2700.00,0.0093
2699.00,0.0093
2698.00,0.0092
2697.00,0.0092
2696.00,0.0092
2695.00,0.0092
2694.00,0.0092
2693.00,0.0092
2692.00,0.0092
2691.00,0.0092
2690.00,0.0092
2689.00,0.0092
2688.00,0.0092
2687.00,0.0092
2686.00,0.0092
2685.00,0.0092
2684.00,0.0092
2683.00,0.0091
2682.00,0.0091
2681.00,0.0091
2680.00,0.0091
2679.00,0.0091
2678.00,0.0091
2677.00,0.0091
2676.00,0.0091
2675.00,0.0091
2674.00,0.0091
2673.00,0.0091
2672.00,0.0091
2671.00,0.0091
2670.00,0.0091
2669.00,0.0091
2668.00,0.0092
2667.00,0.0092
2666.00,0.0092
2665.00,0.0093
2664.00,0.0093
2663.00,0.0093
2662.00,0.0094
2661.00,0.0094
2660.00,0.0094
2659.00,0.0094
2658.00,0.0094
2657.00,0.0094
2656.00,0.0094
2655.00,0.0094
2654.00,0.0093
2653.00,0.0093
2652.00,0.0093
2651.00,0.0092
2650.00,0.0092
2649.00,0.0092
2648.00,0.0091
2647.00,0.0091
2646.00,0.0091
2645.00,0.0091
2644.00,0.0090
2643.00,0.0090
2642.00,0.0090
2641.00,0.0089
2640.00,0.0089
2639.00,0.0089
2638.00,0.0088
2637.00,0.0088
2636.00,0.0088
2635.00,0.0088
2634.00,0.0087
2633.00,0.0087
2632.00,0.0087
2631.00,0.0087
2630.00,0.0087
2629.00,0.0086
2628.00,0.0086
2627.00,0.0085
2626.00,0.0085
2625.00,0.0084
2624.00,0.0084
2623.00,0.0084
2622.00,0.0084
2621.00,0.0084
2620.00,0.0084
2619.00,0.0083
2618.00,0.0083
2617.00,0.0082
2616.00,0.0082
2615.00,0.0082
2614.00,0.0082
2613.00,0.0082
2612.00,0.0082
2611.00,0.0082
2610.00,0.0081
2609.00,0.0081
2608.00,0.0081
2607.00,0.0081
2606.00,0.0081
2605.00,0.0081
2604.00,0.0081
2603.00,0.0081
2602.00,0.0081
2601.00,0.0081
2600.00,0.0081
2599.00,0.0081
2598.00,0.0081
2597.00,0.0081
2596.00,0.0081
2595.00,0.0081
2594.00,0.0081
2593.00,0.0081
2592.00,0.0081
2591.00,0.0081
2590.00,0.0081
2589.00,0.0081
2588.00,0.0081
2587.00,0.0081
2586.00,0.0081
2585.00,0.0080
2584.00,0.0080
2583.00,0.0080
2582.00,0.0080
2581.00,0.0079
2580.00,0.0079
2579.00,0.0080
2578.00,0.0080
2577.00,0.0080
2576.00,0.0080
2575.00,0.0080
2574.00,0.0079
2573.00,0.0079
2572.00,0.0079
2571.00,0.0079
2570.00,0.0079
2569.00,0.0079
2568.00,0.0079
2567.00,0.0079
2566.00,0.0078
2565.00,0.0078
2564.00,0.0077
2563.00,0.0077
2562.00,0.0077
2561.00,0.0077
2560.00,0.0077
2559.00,0.0077
2558.00,0.0077
2557.00,0.0076
2556.00,0.0076
2555.00,0.0076
2554.00,0.0076
2553.00,0.0076
2552.00,0.0077
2551.00,0.0077
2550.00,0.0077
2549.00,0.0076
2548.00,0.0076
2547.00,0.0076
2546.00,0.0076
2545.00,0.0076
2544.00,0.0076
2543.00,0.0076
2542.00,0.0076
2541.00,0.0076
2540.00,0.0076
2539.00,0.0076
2538.00,0.0076
2537.00,0.0076
2536.00,0.0076
2535.00,0.0075
2534.00,0.0075
2533.00,0.0074
2532.00,0.0074
2531.00,0.0074
2530.00,0.0075
2529.00,0.0075
2528.00,0.0074
2527.00,0.0074
2526.00,0.0074
2525.00,0.0073
2524.00,0.0073
2523.00,0.0073
2522.00,0.0073
2521.00,0.0073
2520.00,0.0073
2519.00,0.0072
2518.00,0.0072
2517.00,0.0072
2516.00,0.0072
2515.00,0.0072
2514.00,0.0071
2513.00,0.0071
2512.00,0.0071
2511.00,0.0071
2510.00,0.0071
2509.00,0.0071
2508.00,0.0071
2507.00,0.0071
2506.00,0.0070
2505.00,0.0069
2504.00,0.0069
2503.00,0.0069
2502.00,0.0069
2501.00,0.0069
2500.00,0.0069
2499.00,0.0069
2498.00,0.0069
2497.00,0.0068
2496.00,0.0068
2495.00,0.0068
2494.00,0.0068
2493.00,0.0068
2492.00,0.0068
2491.00,0.0067
2490.00,0.0067
2489.00,0.0066
2488.00,0.0066
2487.00,0.0066
2486.00,0.0066
2485.00,0.0066
2484.00,0.0066
2483.00,0.0066
2482.00,0.0065
2481.00,0.0065
2480.00,0.0065
2479.00,0.0065
2478.00,0.0064
2477.00,0.0064
2476.00,0.0065
2475.00,0.0065
2474.00,0.0064
2473.00,0.0064
2472.00,0.0064
2471.00,0.0064
2470.00,0.0063
2469.00,0.0063
2468.00,0.0063
2467.00,0.0063
2466.00,0.0062
2465.00,0.0062
2464.00,0.0062
2463.00,0.0062
2462.00,0.0062
2461.00,0.0062
2460.00,0.0063
2459.00,0.0063
2458.00,0.0063
2457.00,0.0063
2456.00,0.0063
2455.00,0.0063
2454.00,0.0062
2453.00,0.0062
2452.00,0.0061
2451.00,0.0061
2450.00,0.0061
2449.00,0.0060
2448.00,0.0060
2447.00,0.0060
2446.00,0.0060
2445.00,0.0060
2444.00,0.0060
2443.00,0.0059
2442.00,0.0059
2441.00,0.0059
2440.00,0.0058
2439.00,0.0058
2438.00,0.0057
2437.00,0.0057
2436.00,0.0057
2435.00,0.0057
2434.00,0.0057
2433.00,0.0057
2432.00,0.0057
2431.00,0.0056
2430.00,0.0056
2429.00,0.0056
2428.00,0.0056
2427.00,0.0056
2426.00,0.0055
2425.00,0.0055
2424.00,0.0055
2423.00,0.0055
2422.00,0.0055
2421.00,0.0055
2420.00,0.0055
2419.00,0.0055
2418.00,0.0055
2417.00,0.0055
2416.00,0.0055
2415.00,0.0055
2414.00,0.0055
2413.00,0.0055
2412.00,0.0055
2411.00,0.0055
2410.00,0.0055
2409.00,0.0055
2408.00,0.0054
2407.00,0.0054
2406.00,0.0053
2405.00,0.0053
2404.00,0.0053
2403.00,0.0053
2402.00,0.0053
2401.00,0.0053
2400.00,0.0053
2399.00,0.0053
2398.00,0.0053
2397.00,0.0053
2396.00,0.0053
2395.00,0.0052
2394.00,0.0052
2393.00,0.0052
2392.00,0.0052
2391.00,0.0052
2390.00,0.0052
2389.00,0.0052
2388.00,0.0051
2387.00,0.0051
2386.00,0.0050
2385.00,0.0049
2384.00,0.0048
2383.00,0.0047
2382.00,0.0046
2381.00,0.0046
2380.00,0.0046
2379.00,0.0045
2378.00,0.0045
2377.00,0.0045
2376.00,0.0045
2375.00,0.0045
2374.00,0.0045
2373.00,0.0045
2372.00,0.0045
2371.00,0.0044
2370.00,0.0043
2369.00,0.0042
2368.00,0.0042
2367.00,0.0041
2366.00,0.0042
2365.00,0.0042
2364.00,0.0043
2363.00,0.0044
2362.00,0.0044
2361.00,0.0044
2360.00,0.0044
2359.00,0.0044
2358.00,0.0044
2357.00,0.0044
2356.00,0.0044
2355.00,0.0044
2354.00,0.0044
2353.00,0.0044
2352.00,0.0043
2351.00,0.0043
2350.00,0.0044
2349.00,0.0045
2348.00,0.0046
2347.00,0.0047
2346.00,0.0046
2345.00,0.0046
2344.00,0.0046
2343.00,0.0047
2342.00,0.0047
2341.00,0.0047
2340.00,0.0048
2339.00,0.0048
2338.00,0.0048
2337.00,0.0048
2336.00,0.0048
2335.00,0.0049
2334.00,0.0048
2333.00,0.0048
2332.00,0.0047
2331.00,0.0047
2330.00,0.0047
2329.00,0.0050
2328.00,0.0054
2327.00,0.0059
2326.00,0.0062
2325.00,0.0062
2324.00,0.0061
2323.00,0.0058
2322.00,0.0055
2321.00,0.0054
2320.00,0.0053
2319.00,0.0053
2318.00,0.0053
2317.00,0.0053
2316.00,0.0053
2315.00,0.0052
2314.00,0.0051
2313.00,0.0051
2312.00,0.0050
2311.00,0.0049
2310.00,0.0049
2309.00,0.0049
2308.00,0.0049
2307.00,0.0049
2306.00,0.0050
2305.00,0.0050
2304.00,0.0050
2303.00,0.0050
2302.00,0.0050
2301.00,0.0051
2300.00,0.0051
2299.00,0.0052
2298.00,0.0052
2297.00,0.0052
2296.00,0.0053
2295.00,0.0053
2294.00,0.0054
2293.00,0.0055
2292.00,0.0055
2291.00,0.0056
2290.00,0.0057
2289.00,0.0057
2288.00,0.0058
2287.00,0.0058
2286.00,0.0057
2285.00,0.0056
2284.00,0.0056
2283.00,0.0055
2282.00,0.0053
2281.00,0.0052
2280.00,0.0052
2279.00,0.0052
2278.00,0.0051
2277.00,0.0051
2276.00,0.0051
2275.00,0.0051
2274.00,0.0050
2273.00,0.0050
2272.00,0.0050
2271.00,0.0050
2270.00,0.0049
2269.00,0.0048
2268.00,0.0048
2267.00,0.0047
2266.00,0.0046
2265.00,0.0045
2264.00,0.0045
2263.00,0.0045
2262.00,0.0046
2261.00,0.0046
2260.00,0.0047
2259.00,0.0047
2258.00,0.0047
2257.00,0.0046
2256.00,0.0045
2255.00,0.0044
2254.00,0.0043
2253.00,0.0043
2252.00,0.0044
2251.00,0.0044
2250.00,0.0045
2249.00,0.0045
2248.00,0.0045
2247.00,0.0045
2246.00,0.0045
2245.00,0.0045
2244.00,0.0045
2243.00,0.0045
2242.00,0.0045
2241.00,0.0045
2240.00,0.0045
2239.00,0.0045
2238.00,0.0045
2237.00,0.0045
2236.00,0.0045
2235.00,0.0046
2234.00,0.0046
2233.00,0.0046
2232.00,0.0046
2231.00,0.0046
2230.00,0.0046
2229.00,0.0045
2228.00,0.0045
2227.00,0.0044
2226.00,0.0043
2225.00,0.0042
2224.00,0.0043
2223.00,0.0043
2222.00,0.0044
2221.00,0.0044
2220.00,0.0044
2219.00,0.0044
2218.00,0.0044
2217.00,0.0045
2216.00,0.0046
2215.00,0.0046
2214.00,0.0046
2213.00,0.0046
2212.00,0.0046
2211.00,0.0045
2210.00,0.0045
2209.00,0.0045
2208.00,0.0046
2207.00,0.0046
2206.00,0.0045
2205.00,0.0045
2204.00,0.0045
2203.00,0.0044
2202.00,0.0044
2201.00,0.0044
2200.00,0.0044
2199.00,0.0045
2198.00,0.0045
2197.00,0.0045
2196.00,0.0046
2195.00,0.0047
2194.00,0.0047
2193.00,0.0047
2192.00,0.0048
2191.00,0.0048
2190.00,0.0047
2189.00,0.0047
2188.00,0.0047
2187.00,0.0047
2186.00,0.0046
2185.00,0.0044
2184.00,0.0042
2183.00,0.0040
2182.00,0.0039
2181.00,0.0040
2180.00,0.0042
2179.00,0.0043
2178.00,0.0043
2177.00,0.0041
2176.00,0.0039
2175.00,0.0039
2174.00,0.0039
2173.00,0.0041
2172.00,0.0045
2171.00,0.0048
2170.00,0.0051
2169.00,0.0052
2168.00,0.0054
2167.00,0.0054
2166.00,0.0054
2165.00,0.0055
2164.00,0.0057
2163.00,0.0057
2162.00,0.0050
2161.00,0.0037
2160.00,0.0022
2159.00,0.0009
2158.00,0.0002
2157.00,0.0001
2156.00,0.0003
2155.00,0.0006
2154.00,0.0011
2153.00,0.0016
2152.00,0.0021
2151.00,0.0024
2150.00,0.0024
2149.00,0.0023
2148.00,0.0022
2147.00,0.0021
2146.00,0.0021
2145.00,0.0021
2144.00,0.0023
2143.00,0.0024
2142.00,0.0025
2141.00,0.0026
2140.00,0.0026
2139.00,0.0025
2138.00,0.0023
2137.00,0.0020
2136.00,0.0018
2135.00,0.0017
2134.00,0.0017
2133.00,0.0020
2132.00,0.0023
2131.00,0.0026
2130.00,0.0027
2129.00,0.0028
2128.00,0.0029
2127.00,0.0030
2126.00,0.0031
2125.00,0.0032
2124.00,0.0034
2123.00,0.0035
2122.00,0.0036
2121.00,0.0037
2120.00,0.0038
2119.00,0.0039
2118.00,0.0040
2117.00,0.0041
2116.00,0.0043
2115.00,0.0044
2114.00,0.0044
2113.00,0.0043
2112.00,0.0043
2111.00,0.0043
2110.00,0.0043
2109.00,0.0043
2108.00,0.0044
2107.00,0.0044
2106.00,0.0043
2105.00,0.0043
2104.00,0.0043
2103.00,0.0043
2102.00,0.0042
2101.00,0.0042
2100.00,0.0042
2099.00,0.0041
2098.00,0.0039
2097.00,0.0037
2096.00,0.0036
2095.00,0.0035
2094.00,0.0035
2093.00,0.0035
2092.00,0.0036
2091.00,0.0037
2090.00,0.0038
2089.00,0.0038
2088.00,0.0039
2087.00,0.0040
2086.00,0.0040
2085.00,0.0041
2084.00,0.0041
2083.00,0.0041
2082.00,0.0041
2081.00,0.0041
2080.00,0.0042
2079.00,0.0042
2078.00,0.0041
2077.00,0.0041
2076.00,0.0042
2075.00,0.0042
2074.00,0.0041
2073.00,0.0040
2072.00,0.0039
2071.00,0.0038
2070.00,0.0037
2069.00,0.0037
2068.00,0.0037
2067.00,0.0038
2066.00,0.0038
2065.00,0.0037
2064.00,0.0038
2063.00,0.0038
2062.00,0.0037
2061.00,0.0037
2060.00,0.0037
2059.00,0.0037
2058.00,0.0037
2057.00,0.0036
2056.00,0.0037
2055.00,0.0038
2054.00,0.0041
2053.00,0.0046
2052.00,0.0050
2051.00,0.0051
2050.00,0.0047
2049.00,0.0042
2048.00,0.0039
2047.00,0.0038
2046.00,0.0037
2045.00,0.0036
2044.00,0.0037
2043.00,0.0037
2042.00,0.0036
2041.00,0.0035
2040.00,0.0035
2039.00,0.0034
2038.00,0.0033
2037.00,0.0031
2036.00,0.0030
2035.00,0.0028
2034.00,0.0025
2033.00,0.0024
2032.00,0.0025
2031.00,0.0026
2030.00,0.0026
2029.00,0.0027
2028.00,0.0028
2027.00,0.0028
2026.00,0.0027
2025.00,0.0026
2024.00,0.0026
2023.00,0.0026
2022.00,0.0026
2021.00,0.0026
2020.00,0.0026
2019.00,0.0025
2018.00,0.0024
2017.00,0.0024
2016.00,0.0024
2015.00,0.0025
2014.00,0.0024
2013.00,0.0024
2012.00,0.0025
2011.00,0.0026
2010.00,0.0025
2009.00,0.0022
2008.00,0.0020
2007.00,0.0017
2006.00,0.0016
2005.00,0.0017
2004.00,0.0019
2003.00,0.0021
2002.00,0.0022
2001.00,0.0023
2000.00,0.0026
1999.00,0.0028
1998.00,0.0029
1997.00,0.0030
1996.00,0.0031
1995.00,0.0032
1994.00,0.0031
1993.00,0.0031
1992.00,0.0031
1991.00,0.0031
1990.00,0.0031
1989.00,0.0032
1988.00,0.0034
1987.00,0.0036
1986.00,0.0036
1985.00,0.0037
1984.00,0.0040
1983.00,0.0044
1982.00,0.0047
1981.00,0.0047
1980.00,0.0043
1979.00,0.0035
1978.00,0.0026
1977.00,0.0020
1976.00,0.0018
1975.00,0.0019
1974.00,0.0019
1973.00,0.0019
1972.00,0.0021
1971.00,0.0022
1970.00,0.0022
1969.00,0.0022
1968.00,0.0022
1967.00,0.0021
1966.00,0.0020
1965.00,0.0021
1964.00,0.0022
1963.00,0.0023
1962.00,0.0022
1961.00,0.0020
1960.00,0.0018
1959.00,0.0017
1958.00,0.0018
1957.00,0.0020
1956.00,0.0024
1955.00,0.0026
1954.00,0.0027
1953.00,0.0027
1952.00,0.0027
1951.00,0.0027
1950.00,0.0026
1949.00,0.0027
1948.00,0.0028
1947.00,0.0029
1946.00,0.0029
1945.00,0.0029
1944.00,0.0030
1943.00,0.0030
1942.00,0.0029
1941.00,0.0029
1940.00,0.0030
1939.00,0.0030
1938.00,0.0030
1937.00,0.0030
1936.00,0.0030
1935.00,0.0030
1934.00,0.0029
1933.00,0.0029
1932.00,0.0029
1931.00,0.0030
1930.00,0.0030
1929.00,0.0030
1928.00,0.0030
1927.00,0.0031
1926.00,0.0031
1925.00,0.0031
1924.00,0.0033
1923.00,0.0033
1922.00,0.0033
1921.00,0.0032
1920.00,0.0032
1919.00,0.0032
1918.00,0.0031
1917.00,0.0030
1916.00,0.0031
1915.00,0.0032
1914.00,0.0032
1913.00,0.0033
1912.00,0.0034
1911.00,0.0034
1910.00,0.0034
1909.00,0.0033
1908.00,0.0033
1907.00,0.0033
1906.00,0.0033
1905.00,0.0033
1904.00,0.0033
1903.00,0.0033
1902.00,0.0033
1901.00,0.0032
1900.00,0.0033
1899.00,0.0033
1898.00,0.0033
1897.00,0.0033
1896.00,0.0034
1895.00,0.0034
1894.00,0.0034
1893.00,0.0034
1892.00,0.0035
1891.00,0.0035
1890.00,0.0035
1889.00,0.0034
1888.00,0.0034
1887.00,0.0034
1886.00,0.0034
1885.00,0.0034
1884.00,0.0034
1883.00,0.0034
1882.00,0.0033
1881.00,0.0033
1880.00,0.0033
1879.00,0.0034
1878.00,0.0034
1877.00,0.0034
1876.00,0.0034
1875.00,0.0034
1874.00,0.0034
1873.00,0.0034
1872.00,0.0035
1871.00,0.0036
1870.00,0.0037
1869.00,0.0036
1868.00,0.0036
1867.00,0.0035
1866.00,0.0034
1865.00,0.0034
1864.00,0.0034
1863.00,0.0034
1862.00,0.0034
1861.00,0.0035
1860.00,0.0035
1859.00,0.0035
1858.00,0.0035
1857.00,0.0035
1856.00,0.0035
1855.00,0.0035
1854.00,0.0035
1853.00,0.0035
1852.00,0.0035
1851.00,0.0036
1850.00,0.0036
1849.00,0.0036
1848.00,0.0035
1847.00,0.0034
1846.00,0.0032
1845.00,0.0032
1844.00,0.0032
1843.00,0.0033
1842.00,0.0034
1841.00,0.0035
1840.00,0.0036
1839.00,0.0037
1838.00,0.0036
1837.00,0.0036
1836.00,0.0036
1835.00,0.0036
1834.00,0.0036
1833.00,0.0036
1832.00,0.0037
1831.00,0.0038
1830.00,0.0037
1829.00,0.0036
1828.00,0.0036
1827.00,0.0037
1826.00,0.0037
1825.00,0.0036
1824.00,0.0036
1823.00,0.0036
1822.00,0.0036
1821.00,0.0036
1820.00,0.0035
1819.00,0.0034
1818.00,0.0033
1817.00,0.0032
1816.00,0.0033
1815.00,0.0035
1814.00,0.0036
1813.00,0.0037
1812.00,0.0038
1811.00,0.0039
1810.00,0.0038
1809.00,0.0038
1808.00,0.0039
1807.00,0.0039
1806.00,0.0039
1805.00,0.0039
1804.00,0.0040
1803.00,0.0041
1802.00,0.0041
1801.00,0.0040
1800.00,0.0040
1799.00,0.0041
1798.00,0.0041
1797.00,0.0041
1796.00,0.0041
1795.00,0.0041
1794.00,0.0041
1793.00,0.0041
1792.00,0.0042
1791.00,0.0042
1790.00,0.0042
1789.00,0.0043
1788.00,0.0044
1787.00,0.0044
1786.00,0.0044
1785.00,0.0044
1784.00,0.0046
1783.00,0.0047
1782.00,0.0048
1781.00,0.0049
1780.00,0.0049
1779.00,0.0050
1778.00,0.0050
1777.00,0.0051
1776.00,0.0052
1775.00,0.0052
1774.00,0.0053
1773.00,0.0054
1772.00,0.0055
1771.00,0.0056
1770.00,0.0057
1769.00,0.0058
1768.00,0.0060
1767.00,0.0063
1766.00,0.0065
1765.00,0.0067
1764.00,0.0069
1763.00,0.0072
1762.00,0.0074
1761.00,0.0077
1760.00,0.0081
1759.00,0.0085
1758.00,0.0089
1757.00,0.0093
1756.00,0.0098
1755.00,0.0103
1754.00,0.0107
1753.00,0.0113
1752.00,0.0121
1751.00,0.0130
1750.00,0.0138
1749.00,0.0145
1748.00,0.0152
1747.00,0.0158
1746.00,0.0164
1745.00,0.0170
1744.00,0.0176
1743.00,0.0181
1742.00,0.0184
1741.00,0.0188
1740.00,0.0193
1739.00,0.0197
1738.00,0.0200
1737.00,0.0202
1736.00,0.0206
1735.00,0.0213
1734.00,0.0222
1733.00,0.0234
1732.00,0.0247
1731.00,0.0260
1730.00,0.0271
1729.00,0.0283
1728.00,0.0296
1727.00,0.0309
1726.00,0.0322
1725.00,0.0335
1724.00,0.0348
1723.00,0.0358
1722.00,0.0365
1721.00,0.0371
1720.00,0.0377
1719.00,0.0382
1718.00,0.0383
1717.00,0.0383
1716.00,0.0385
1715.00,0.0386
1714.00,0.0386
1713.00,0.0386
1712.00,0.0387
1711.00,0.0388
1710.00,0.0388
1709.00,0.0389
1708.00,0.0392
1707.00,0.0395
1706.00,0.0397
1705.00,0.0399
1704.00,0.0400
1703.00,0.0399
1702.00,0.0400
1701.00,0.0407
1700.00,0.0420
1699.00,0.0432
1698.00,0.0442
1697.00,0.0454
1696.00,0.0472
1695.00,0.0494
1694.00,0.0514
1693.00,0.0533
1692.00,0.0553
1691.00,0.0578
1690.00,0.0605
1689.00,0.0633
1688.00,0.0656
1687.00,0.0675
1686.00,0.0699
1685.00,0.0744
1684.00,0.0806
1683.00,0.0860
1682.00,0.0895
1681.00,0.0923
1680.00,0.0953
1679.00,0.0982
1678.00,0.1006
1677.00,0.1035
1676.00,0.1080
1675.00,0.1137
1674.00,0.1186
1673.00,0.1221
1672.00,0.1253
1671.00,0.1296
1670.00,0.1354
1669.00,0.1420
1668.00,0.1478
1667.00,0.1517
1666.00,0.1543
1665.00,0.1571
1664.00,0.1611
1663.00,0.1664
1662.00,0.1716
1661.00,0.1756
1660.00,0.1784
1659.00,0.1804
1658.00,0.1815
1657.00,0.1814
1656.00,0.1805
1655.00,0.1803
1654.00,0.1836
1653.00,0.1906
1652.00,0.1952
1651.00,0.1947
1650.00,0.1916
1649.00,0.1887
1648.00,0.1876
1647.00,0.1883
1646.00,0.1890
1645.00,0.1880
1644.00,0.1856
1643.00,0.1825
1642.00,0.1790
1641.00,0.1756
1640.00,0.1721
1639.00,0.1685
1638.00,0.1649
1637.00,0.1623
1636.00,0.1616
1635.00,0.1617
1634.00,0.1609
1633.00,0.1591
1632.00,0.1570
1631.00,0.1553
1630.00,0.1541
1629.00,0.1536
1628.00,0.1535
1627.00,0.1533
1626.00,0.1526
1625.00,0.1513
1624.00,0.1498
1623.00,0.1477
1622.00,0.1446
1621.00,0.1407
1620.00,0.1362
1619.00,0.1312
1618.00,0.1256
1617.00,0.1192
1616.00,0.1130
1615.00,0.1075
1614.00,0.1028
1613.00,0.0984
1612.00,0.0941
1611.00,0.0900
1610.00,0.0861
1609.00,0.0825
1608.00,0.0791
1607.00,0.0760
1606.00,0.0733
1605.00,0.0708
1604.00,0.0686
1603.00,0.0666
1602.00,0.0648
1601.00,0.0632
1600.00,0.0619
1599.00,0.0609
1598.00,0.0602
1597.00,0.0598
1596.00,0.0596
1595.00,0.0598
1594.00,0.0603
1593.00,0.0611
1592.00,0.0622
1591.00,0.0638
1590.00,0.0656
1589.00,0.0678
1588.00,0.0701
1587.00,0.0725
1586.00,0.0750
1585.00,0.0774
1584.00,0.0796
1583.00,0.0815
1582.00,0.0829
1581.00,0.0837
1580.00,0.0840
1579.00,0.0836
1578.00,0.0823
1577.00,0.0799
1576.00,0.0765
1575.00,0.0730
1574.00,0.0702
1573.00,0.0677
1572.00,0.0651
1571.00,0.0621
1570.00,0.0585
1569.00,0.0547
1568.00,0.0517
1567.00,0.0493
1566.00,0.0471
1565.00,0.0448
1564.00,0.0423
1563.00,0.0401
1562.00,0.0382
1561.00,0.0367
1560.00,0.0353
1559.00,0.0330
1558.00,0.0310
1557.00,0.0302
1556.00,0.0297
1555.00,0.0292
1554.00,0.0286
1553.00,0.0281
1552.00,0.0277
1551.00,0.0273
1550.00,0.0267
1549.00,0.0261
1548.00,0.0256
1547.00,0.0252
1546.00,0.0249
1545.00,0.0246
1544.00,0.0242
1543.00,0.0237
1542.00,0.0234
1541.00,0.0231
1540.00,0.0226
1539.00,0.0222
1538.00,0.0224
1537.00,0.0226
1536.00,0.0227
1535.00,0.0228
1534.00,0.0228
1533.00,0.0228
1532.00,0.0229
1531.00,0.0230
1530.00,0.0232
1529.00,0.0235
1528.00,0.0238
1527.00,0.0240
1526.00,0.0244
1525.00,0.0247
1524.00,0.0251
1523.00,0.0256
1522.00,0.0263
1521.00,0.0272
1520.00,0.0281
1519.00,0.0291
1518.00,0.0300
1517.00,0.0308
1516.00,0.0313
1515.00,0.0317
1514.00,0.0321
1513.00,0.0324
1512.00,0.0327
1511.00,0.0329
1510.00,0.0330
1509.00,0.0331
1508.00,0.0333
1507.00,0.0335
1506.00,0.0340
1505.00,0.0351
1504.00,0.0364
1503.00,0.0376
1502.00,0.0389
1501.00,0.0403
1500.00,0.0419
1499.00,0.0435
1498.00,0.0452
1497.00,0.0468
1496.00,0.0479
1495.00,0.0484
1494.00,0.0483
1493.00,0.0476
1492.00,0.0465
1491.00,0.0450
1490.00,0.0430
1489.00,0.0408
1488.00,0.0386
1487.00,0.0366
1486.00,0.0349
1485.00,0.0336
1484.00,0.0327
1483.00,0.0320
1482.00,0.0316
1481.00,0.0315
1480.00,0.0317
1479.00,0.0322
1478.00,0.0330
1477.00,0.0343
1476.00,0.0360
1475.00,0.0381
1474.00,0.0410
1473.00,0.0456
1472.00,0.0515
1471.00,0.0575
1470.00,0.0630
1469.00,0.0685
1468.00,0.0738
1467.00,0.0794
1466.00,0.0853
1465.00,0.0915
1464.00,0.0968
1463.00,0.1001
1462.00,0.1014
1461.00,0.1015
1460.00,0.1006
1459.00,0.0989
1458.00,0.0965
1457.00,0.0939
1456.00,0.0917
1455.00,0.0903
1454.00,0.0895
1453.00,0.0895
1452.00,0.0903
1451.00,0.0919
1450.00,0.0945
1449.00,0.0983
1448.00,0.1030
1447.00,0.1080
1446.00,0.1126
1445.00,0.1169
1444.00,0.1208
1443.00,0.1243
1442.00,0.1273
1441.00,0.1297
1440.00,0.1311
1439.00,0.1317
1438.00,0.1322
1437.00,0.1329
1436.00,0.1336
1435.00,0.1338
1434.00,0.1337
1433.00,0.1340
1432.00,0.1354
1431.00,0.1383
1430.00,0.1430
1429.00,0.1489
1428.00,0.1549
1427.00,0.1602
1426.00,0.1645
1425.00,0.1674
1424.00,0.1680
1423.00,0.1657
1422.00,0.1610
1421.00,0.1542
1420.00,0.1449
1419.00,0.1333
1418.00,0.1217
1417.00,0.1116
1416.00,0.1028
1415.00,0.0948
1414.00,0.0876
1413.00,0.0813
1412.00,0.0757
1411.00,0.0709
1410.00,0.0669
1409.00,0.0636
1408.00,0.0608
1407.00,0.0585
1406.00,0.0567
1405.00,0.0550
1404.00,0.0535
1403.00,0.0522
1402.00,0.0514
1401.00,0.0507
1400.00,0.0501
1399.00,0.0496
1398.00,0.0493
1397.00,0.0491
1396.00,0.0489
1395.00,0.0489
1394.00,0.0492
1393.00,0.0498
1392.00,0.0507
1391.00,0.0518
1390.00,0.0534
1389.00,0.0556
1388.00,0.0584
1387.00,0.0619
1386.00,0.0654
1385.00,0.0685
1384.00,0.0711
1383.00,0.0732
1382.00,0.0748
1381.00,0.0760
1380.00,0.0772
1379.00,0.0784
1378.00,0.0798
1377.00,0.0812
1376.00,0.0823
1375.00,0.0832
1374.00,0.0839
1373.00,0.0841
1372.00,0.0840
1371.00,0.0836
1370.00,0.0829
1369.00,0.0818
1368.00,0.0805
1367.00,0.0792
1366.00,0.0781
1365.00,0.0771
1364.00,0.0761
1363.00,0.0751
1362.00,0.0740
1361.00,0.0730
1360.00,0.0720
1359.00,0.0712
1358.00,0.0704
1357.00,0.0696
1356.00,0.0686
1355.00,0.0675
1354.00,0.0664
1353.00,0.0652
1352.00,0.0642
1351.00,0.0633
1350.00,0.0625
1349.00,0.0619
1348.00,0.0613
1347.00,0.0608
1346.00,0.0605
1345.00,0.0602
1344.00,0.0600
1343.00,0.0599
1342.00,0.0599
1341.00,0.0601
1340.00,0.0601
1339.00,0.0601
1338.00,0.0602
1337.00,0.0604
1336.00,0.0606
1335.00,0.0609
1334.00,0.0612
1333.00,0.0616
1332.00,0.0620
1331.00,0.0626
1330.00,0.0632
1329.00,0.0640
1328.00,0.0650
1327.00,0.0661
1326.00,0.0676
1325.00,0.0693
1324.00,0.0712
1323.00,0.0732
1322.00,0.0752
1321.00,0.0770
1320.00,0.0784
1319.00,0.0793
1318.00,0.0797
1317.00,0.0794
1316.00,0.0785
1315.00,0.0772
1314.00,0.0755
1313.00,0.0737
1312.00,0.0717
1311.00,0.0699
1310.00,0.0684
1309.00,0.0671
1308.00,0.0663
1307.00,0.0659
1306.00,0.0661
1305.00,0.0670
1304.00,0.0684
1303.00,0.0706
1302.00,0.0737
1301.00,0.0776
1300.00,0.0825
1299.00,0.0884
1298.00,0.0954
1297.00,0.1032
1296.00,0.1114
1295.00,0.1198
1294.00,0.1278
1293.00,0.1350
1292.00,0.1411
1291.00,0.1459
1290.00,0.1491
1289.00,0.1509
1288.00,0.1512
1287.00,0.1502
1286.00,0.1482
1285.00,0.1455
1284.00,0.1425
1283.00,0.1395
1282.00,0.1370
1281.00,0.1350
1280.00,0.1338
1279.00,0.1332
1278.00,0.1332
1277.00,0.1335
1276.00,0.1340
1275.00,0.1345
1274.00,0.1346
1273.00,0.1343
1272.00,0.1334
1271.00,0.1318
1270.00,0.1296
1269.00,0.1269
1268.00,0.1236
1267.00,0.1200
1266.00,0.1163
1265.00,0.1124
1264.00,0.1086
1263.00,0.1048
1262.00,0.1013
1261.00,0.0980
1260.00,0.0950
1259.00,0.0923
1258.00,0.0900
1257.00,0.0880
1256.00,0.0861
1255.00,0.0845
1254.00,0.0831
1253.00,0.0817
1252.00,0.0804
1251.00,0.0792
1250.00,0.0781
1249.00,0.0770
1248.00,0.0760
1247.00,0.0751
1246.00,0.0743
1245.00,0.0737
1244.00,0.0733
1243.00,0.0732
1242.00,0.0734
1241.00,0.0738
1240.00,0.0744
1239.00,0.0752
1238.00,0.0761
1237.00,0.0771
1236.00,0.0781
1235.00,0.0790
1234.00,0.0799
1233.00,0.0805
1232.00,0.0809
1231.00,0.0812
1230.00,0.0815
1229.00,0.0817
1228.00,0.0820
1227.00,0.0824
1226.00,0.0830
1225.00,0.0836
1224.00,0.0843
1223.00,0.0850
1222.00,0.0858
1221.00,0.0866
1220.00,0.0874
1219.00,0.0883
1218.00,0.0891
1217.00,0.0897
1216.00,0.0902
1215.00,0.0903
1214.00,0.0903
1213.00,0.0900
1212.00,0.0895
1211.00,0.0891
1210.00,0.0888
1209.00,0.0885
1208.00,0.0885
1207.00,0.0885
1206.00,0.0888
1205.00,0.0892
1204.00,0.0896
1203.00,0.0900
1202.00,0.0903
1201.00,0.0904
1200.00,0.0905
1199.00,0.0904
1198.00,0.0905
1197.00,0.0905
1196.00,0.0907
1195.00,0.0909
1194.00,0.0914
1193.00,0.0921
1192.00,0.0931
1191.00,0.0945
1190.00,0.0962
1189.00,0.0983
1188.00,0.1006
1187.00,0.1029
1186.00,0.1049
1185.00,0.1065
1184.00,0.1073
1183.00,0.1072
1182.00,0.1063
1181.00,0.1046
1180.00,0.1023
1179.00,0.0999
1178.00,0.0975
1177.00,0.0954
1176.00,0.0936
1175.00,0.0921
1174.00,0.0908
1173.00,0.0896
1172.00,0.0883
1171.00,0.0871
1170.00,0.0858
1169.00,0.0847
1168.00,0.0836
1167.00,0.0827
1166.00,0.0821
1165.00,0.0817
1164.00,0.0817
1163.00,0.0819
1162.00,0.0823
1161.00,0.0827
1160.00,0.0832
1159.00,0.0835
1158.00,0.0839
1157.00,0.0841
1156.00,0.0842
1155.00,0.0842
1154.00,0.0839
1153.00,0.0833
1152.00,0.0823
1151.00,0.0808
1150.00,0.0790
1149.00,0.0769
1148.00,0.0749
1147.00,0.0733
1146.00,0.0724
1145.00,0.0722
1144.00,0.0726
1143.00,0.0733
1142.00,0.0741
1141.00,0.0748
1140.00,0.0753
1139.00,0.0758
1138.00,0.0762
1137.00,0.0768
1136.00,0.0773
1135.00,0.0778
1134.00,0.0781
1133.00,0.0781
1132.00,0.0776
1131.00,0.0767
1130.00,0.0754
1129.00,0.0738
1128.00,0.0719
1127.00,0.0698
1126.00,0.0677
1125.00,0.0657
1124.00,0.0637
1123.00,0.0621
1122.00,0.0607
1121.00,0.0599
1120.00,0.0595
1119.00,0.0597
1118.00,0.0604
1117.00,0.0616
1116.00,0.0631
1115.00,0.0645
1114.00,0.0659
1113.00,0.0669
1112.00,0.0674
1111.00,0.0674
1110.00,0.0672
1109.00,0.0667
1108.00,0.0661
1107.00,0.0655
1106.00,0.0651
1105.00,0.0649
1104.00,0.0649
1103.00,0.0652
1102.00,0.0658
1101.00,0.0665
1100.00,0.0673
1099.00,0.0680
1098.00,0.0687
1097.00,0.0693
1096.00,0.0696
1095.00,0.0698
1094.00,0.0701
1093.00,0.0704
1092.00,0.0710
1091.00,0.0719
1090.00,0.0730
1089.00,0.0743
1088.00,0.0755
1087.00,0.0766
1086.00,0.0775
1085.00,0.0779
1084.00,0.0778
1083.00,0.0772
1082.00,0.0762
1081.00,0.0749
1080.00,0.0735
1079.00,0.0725
1078.00,0.0719
1077.00,0.0717
1076.00,0.0717
1075.00,0.0718
1074.00,0.0716
1073.00,0.0710
1072.00,0.0698
1071.00,0.0680
1070.00,0.0659
1069.00,0.0636
1068.00,0.0613
1067.00,0.0592
1066.00,0.0575
1065.00,0.0563
1064.00,0.0553
1063.00,0.0548
1062.00,0.0546
1061.00,0.0548
1060.00,0.0552
1059.00,0.0560
1058.00,0.0572
1057.00,0.0587
1056.00,0.0603
1055.00,0.0620
1054.00,0.0637
1053.00,0.0652
1052.00,0.0665
1051.00,0.0677
1050.00,0.0689
1049.00,0.0703
1048.00,0.0719
1047.00,0.0738
1046.00,0.0760
1045.00,0.0782
1044.00,0.0803
1043.00,0.0821
1042.00,0.0834
1041.00,0.0844
1040.00,0.0851
1039.00,0.0858
1038.00,0.0867
1037.00,0.0877
1036.00,0.0887
1035.00,0.0896
1034.00,0.0902
1033.00,0.0906
1032.00,0.0906
1031.00,0.0905
1030.00,0.0901
1029.00,0.0896
1028.00,0.0887
1027.00,0.0874
1026.00,0.0857
1025.00,0.0838
1024.00,0.0819
1023.00,0.0804
1022.00,0.0795
1021.00,0.0792
1020.00,0.0791
1019.00,0.0790
1018.00,0.0784
1017.00,0.0771
1016.00,0.0749
1015.00,0.0723
1014.00,0.0695
1013.00,0.0670
1012.00,0.0649
1011.00,0.0635
1010.00,0.0630
1009.00,0.0631
1008.00,0.0637
1007.00,0.0648
1006.00,0.0662
1005.00,0.0676
1004.00,0.0687
1003.00,0.0694
1002.00,0.0696
1001.00,0.0694
1000.00,0.0687
999.00,0.0677
998.00,0.0667
997.00,0.0656
996.00,0.0644
995.00,0.0630
994.00,0.0617
993.00,0.0603
992.00,0.0589
991.00,0.0577
990.00,0.0565
989.00,0.0555
988.00,0.0544
987.00,0.0533
986.00,0.0521
985.00,0.0508
984.00,0.0494
983.00,0.0479
982.00,0.0467
981.00,0.0456
980.00,0.0448
979.00,0.0442
978.00,0.0439
977.00,0.0438
976.00,0.0436
975.00,0.0434
974.00,0.0432
973.00,0.0429
972.00,0.0425
971.00,0.0420
970.00,0.0416
969.00,0.0411
968.00,0.0406
967.00,0.0403
966.00,0.0400
965.00,0.0400
964.00,0.0400
963.00,0.0402
962.00,0.0406
961.00,0.0411
960.00,0.0413
959.00,0.0414
958.00,0.0413
957.00,0.0410
956.00,0.0405
955.00,0.0399
954.00,0.0393
953.00,0.0386
952.00,0.0379
951.00,0.0373
950.00,0.0369
949.00,0.0366
948.00,0.0365
947.00,0.0364
946.00,0.0363
945.00,0.0362
944.00,0.0358
943.00,0.0355
942.00,0.0353
941.00,0.0354
940.00,0.0357
939.00,0.0363
938.00,0.0371
937.00,0.0380
936.00,0.0387
935.00,0.0393
934.00,0.0397
933.00,0.0397
932.00,0.0395
931.00,0.0391
930.00,0.0387
929.00,0.0385
928.00,0.0384
927.00,0.0384
926.00,0.0385
925.00,0.0387
924.00,0.0389
923.00,0.0390
922.00,0.0392
921.00,0.0394
920.00,0.0393
919.00,0.0392
918.00,0.0392
917.00,0.0392
916.00,0.0394
915.00,0.0398
914.00,0.0405
913.00,0.0413
912.00,0.0420
911.00,0.0427
910.00,0.0432
909.00,0.0436
908.00,0.0438
907.00,0.0441
906.00,0.0447
905.00,0.0454
904.00,0.0463
903.00,0.0472
902.00,0.0481
901.00,0.0488
900.00,0.0494
899.00,0.0500
898.00,0.0505
897.00,0.0508
896.00,0.0509
895.00,0.0507
894.00,0.0505
893.00,0.0504
892.00,0.0504
891.00,0.0505
890.00,0.0509
889.00,0.0514
888.00,0.0520
887.00,0.0527
886.00,0.0534
885.00,0.0539
884.00,0.0538
883.00,0.0531
882.00,0.0519
881.00,0.0504
880.00,0.0487
879.00,0.0472
878.00,0.0460
877.00,0.0449
876.00,0.0440
875.00,0.0433
874.00,0.0429
873.00,0.0426
872.00,0.0424
871.00,0.0424
870.00,0.0426
869.00,0.0430
868.00,0.0434
867.00,0.0440
866.00,0.0449
865.00,0.0459
864.00,0.0469
863.00,0.0481
862.00,0.0494
861.00,0.0507
860.00,0.0521
859.00,0.0537
858.00,0.0555
857.00,0.0574
856.00,0.0593
855.00,0.0613
854.00,0.0632
853.00,0.0649
852.00,0.0663
851.00,0.0675
850.00,0.0684
849.00,0.0692
848.00,0.0698
847.00,0.0703
846.00,0.0706
845.00,0.0708
844.00,0.0708
843.00,0.0708
842.00,0.0706
841.00,0.0704
840.00,0.0701
839.00,0.0697
838.00,0.0694
837.00,0.0692
836.00,0.0690
835.00,0.0690
834.00,0.0691
833.00,0.0691
832.00,0.0691
831.00,0.0691
830.00,0.0690
829.00,0.0688
828.00,0.0683
827.00,0.0676
826.00,0.0667
825.00,0.0656
824.00,0.0643
823.00,0.0631
822.00,0.0620
821.00,0.0611
820.00,0.0602
819.00,0.0593
818.00,0.0584
817.00,0.0573
816.00,0.0561
815.00,0.0547
814.00,0.0533
813.00,0.0520
812.00,0.0507
811.00,0.0497
810.00,0.0490
809.00,0.0486
808.00,0.0484
807.00,0.0485
806.00,0.0488
805.00,0.0491
804.00,0.0493
803.00,0.0492
802.00,0.0489
801.00,0.0486
800.00,0.0482
799.00,0.0480
798.00,0.0481
797.00,0.0483
796.00,0.0487
795.00,0.0491
794.00,0.0497
793.00,0.0502
792.00,0.0507
791.00,0.0512
790.00,0.0517
789.00,0.0521
788.00,0.0523
787.00,0.0523
786.00,0.0521
785.00,0.0519
784.00,0.0515
783.00,0.0511
782.00,0.0509
781.00,0.0508
780.00,0.0507
779.00,0.0508
778.00,0.0512
777.00,0.0517
776.00,0.0521
775.00,0.0527
774.00,0.0532
773.00,0.0538
772.00,0.0543
771.00,0.0548
770.00,0.0553
769.00,0.0557
768.00,0.0561
767.00,0.0564
766.00,0.0568
765.00,0.0572
764.00,0.0575
763.00,0.0578
762.00,0.0584
761.00,0.0591
760.00,0.0599
759.00,0.0608
758.00,0.0618
757.00,0.0629
756.00,0.0641
755.00,0.0653
754.00,0.0666
753.00,0.0679
752.00,0.0691
751.00,0.0703
750.00,0.0714
749.00,0.0724
748.00,0.0732
747.00,0.0738
746.00,0.0743
745.00,0.0748
744.00,0.0751
743.00,0.0756
742.00,0.0763
741.00,0.0770
740.00,0.0778
739.00,0.0788
738.00,0.0799
737.00,0.0810
736.00,0.0820
735.00,0.0830
734.00,0.0839
733.00,0.0844
732.00,0.0845
731.00,0.0843
730.00,0.0838
729.00,0.0832
728.00,0.0823
727.00,0.0815
726.00,0.0807
725.00,0.0798
724.00,0.0788
723.00,0.0778
722.00,0.0768
721.00,0.0759
720.00,0.0749
719.00,0.0741
718.00,0.0735
717.00,0.0730
716.00,0.0726
715.00,0.0724
714.00,0.0724
713.00,0.0726
712.00,0.0728
711.00,0.0731
710.00,0.0736
709.00,0.0741
708.00,0.0746
707.00,0.0753
706.00,0.0761
705.00,0.0769
704.00,0.0775
703.00,0.0780
702.00,0.0787
701.00,0.0792
700.00,0.0798
699.00,0.0804
698.00,0.0810
697.00,0.0816
696.00,0.0822
695.00,0.0828
694.00,0.0836
693.00,0.0845
692.00,0.0852
691.00,0.0861
690.00,0.0871
689.00,0.0882
688.00,0.0893
687.00,0.0903
686.00,0.0915
685.00,0.0928
684.00,0.0939
683.00,0.0951
682.00,0.0964
681.00,0.0976
680.00,0.0987
679.00,0.0997
678.00,0.1007
677.00,0.1015
676.00,0.1018
675.00,0.1020
674.00,0.1020
673.00,0.1018
672.00,0.1015
671.00,0.1011
670.00,0.1011
669.00,0.1017
668.00,0.1029
667.00,0.1042
666.00,0.1050
665.00,0.1056
664.00,0.1063
663.00,0.1076
662.00,0.1092
661.00,0.1110
660.00,0.1127
659.00,0.1145
658.00,0.1164
657.00,0.1181
656.00,0.1196
655.00,0.1210
654.00,0.1224
653.00,0.1235
652.00,0.1244
651.00,0.1251
650.00,0.1256
649.00,0.1260
648.00,0.1261
647.00,0.1259
646.00,0.1255
645.00,0.1248
644.00,0.1240
643.00,0.1231
642.00,0.1221
641.00,0.1209
640.00,0.1196
639.00,0.1184
638.00,0.1172
637.00,0.1161
636.00,0.1150
635.00,0.1140
634.00,0.1132
633.00,0.1125
632.00,0.1118
631.00,0.1111
630.00,0.1106
629.00,0.1101
628.00,0.1096
627.00,0.1091
626.00,0.1088
625.00,0.1087
624.00,0.1085
623.00,0.1083
622.00,0.1084
621.00,0.1085
620.00,0.1085
619.00,0.1086
618.00,0.1088
617.00,0.1091
616.00,0.1094
615.00,0.1097
614.00,0.1101
613.00,0.1105
612.00,0.1108
611.00,0.1110
610.00,0.1113
609.00,0.1116
608.00,0.1118
607.00,0.1120
606.00,0.1124
605.00,0.1127
604.00,0.1128
603.00,0.1130
602.00,0.1134
601.00,0.1138
600.00,0.1141
599.00,0.1144
598.00,0.1148
597.00,0.1152
596.00,0.1155
595.00,0.1158
594.00,0.1164
593.00,0.1171
592.00,0.1178
591.00,0.1185
590.00,0.1194
589.00,0.1203
588.00,0.1212
587.00,0.1223
586.00,0.1237
585.00,0.1250
584.00,0.1262
583.00,0.1273
582.00,0.1285
581.00,0.1298
580.00,0.1308
579.00,0.1318
578.00,0.1328
577.00,0.1335
576.00,0.1340
575.00,0.1345
574.00,0.1348
573.00,0.1349
572.00,0.1346
571.00,0.1343
570.00,0.1340
569.00,0.1336
568.00,0.1330
567.00,0.1324
566.00,0.1319
565.00,0.1313
564.00,0.1304
563.00,0.1296
562.00,0.1291
561.00,0.1286
560.00,0.1279
559.00,0.1274
558.00,0.1270
557.00,0.1267
556.00,0.1263
555.00,0.1260
554.00,0.1260
553.00,0.1259
552.00,0.1254
551.00,0.1248
550.00,0.1244
549.00,0.1240
548.00,0.1234
547.00,0.1229
546.00,0.1226
545.00,0.1221
544.00,0.1214
543.00,0.1206
542.00,0.1202
541.00,0.1200
540.00,0.1196
539.00,0.1192
538.00,0.1191
537.00,0.1190
536.00,0.1189
535.00,0.1189
534.00,0.1192
533.00,0.1195
532.00,0.1195
531.00,0.1195
530.00,0.1197
529.00,0.1199
528.00,0.1198
527.00,0.1198
526.00,0.1202
525.00,0.1205
524.00,0.1204
523.00,0.1201
522.00,0.1198
521.00,0.1194
520.00,0.1186
519.00,0.1181
518.00,0.1179
517.00,0.1179
516.00,0.1176
515.00,0.1174
514.00,0.1175
513.00,0.1174
512.00,0.1171
511.00,0.1169
510.00,0.1170
509.00,0.1172
508.00,0.1172
507.00,0.1174
506.00,0.1179
505.00,0.1183
504.00,0.1183
503.00,0.1184
502.00,0.1188
501.00,0.1193
500.00,0.1194
499.00,0.1194
498.00,0.1197
497.00,0.1198
496.00,0.1197
495.00,0.1196
494.00,0.1199
493.00,0.1202
492.00,0.1202
491.00,0.1202
490.00,0.1204
489.00,0.1206
488.00,0.1204
487.00,0.1202
486.00,0.1203
485.00,0.1206
484.00,0.1205
483.00,0.1207
482.00,0.1212
481.00,0.1213
480.00,0.1207
479.00,0.1199
478.00,0.1196
477.00,0.1196
476.00,0.1192
475.00,0.1189
474.00,0.1189
473.00,0.1187
472.00,0.1182
471.00,0.1180
470.00,0.1185
469.00,0.1187
468.00,0.1181
467.00,0.1175
466.00,0.1172
465.00,0.1170
464.00,0.1164
463.00,0.1159
462.00,0.1158
461.00,0.1154
460.00,0.1143
459.00,0.1135
458.00,0.1137
457.00,0.1140
456.00,0.1136
455.00,0.1129
454.00,0.1127
453.00,0.1126
452.00,0.1122
451.00,0.1120
450.00,0.1122
449.00,0.1120
448.00,0.1112
447.00,0.1105
446.00,0.1108
445.00,0.1114
444.00,0.1115
443.00,0.1115
442.00,0.1118
441.00,0.1118
440.00,0.1111
439.00,0.1108
438.00,0.1112
437.00,0.1118
436.00,0.1117
435.00,0.1113
434.00,0.1112
433.00,0.1110
432.00,0.1104
431.00,0.1102
430.00,0.1107
429.00,0.1109
428.00,0.1101
427.00,0.1095
426.00,0.1101
425.00,0.1108
424.00,0.1106
423.00,0.1101
422.00,0.1101
421.00,0.1099
420.00,0.1089
419.00,0.1082
418.00,0.1090
417.00,0.1094
416.00,0.1084
415.00,0.1076
414.00,0.1077
413.00,0.1074
412.00,0.1059
411.00,0.1047
410.00,0.1052
409.00,0.1062
408.00,0.1061
407.00,0.1061
406.00,0.1070
405.00,0.1074
404.00,0.1059
403.00,0.1046
402.00,0.1052
401.00,0.1057
400.00,0.1046
