Created as New Dataset,Sample 824 By YargerLab Date Tuesday, July 15 2025
cm-1,A
4000.00,0.0036
3999.00,0.0036
3998.00,0.0036
3997.00,0.0036
3996.00,0.0036
3995.00,0.0036
3994.00,0.0035
3993.00,0.0035
3992.00,0.0035
3991.00,0.0035
3990.00,0.0035
3989.00,0.0036
3988.00,0.0036
3987.00,0.0036
3986.00,0.0035
3985.00,0.0035
3984.00,0.0035
3983.00,0.0036
3982.00,0.0036
3981.00,0.0036
3980.00,0.0036
3979.00,0.0036
3978.00,0.0036
3977.00,0.0036
3976.00,0.0036
3975.00,0.0036
3974.00,0.0035
3973.00,0.0035
3972.00,0.0035
3971.00,0.0035
3970.00,0.0035
3969.00,0.0035
3968.00,0.0035
3967.00,0.0035
3966.00,0.0035
3965.00,0.0035
3964.00,0.0035
3963.00,0.0035
3962.00,0.0035
3961.00,0.0035
3960.00,0.0035
3959.00,0.0035
3958.00,0.0036
3957.00,0.0036
3956.00,0.0036
3955.00,0.0036
3954.00,0.0035
3953.00,0.0035
3952.00,0.0035
3951.00,0.0035
3950.00,0.0035
3949.00,0.0035
3948.00,0.0035
3947.00,0.0035
3946.00,0.0035
3945.00,0.0035
3944.00,0.0035
3943.00,0.0035
3942.00,0.0035
3941.00,0.0035
3940.00,0.0035
3939.00,0.0035
3938.00,0.0035
3937.00,0.0036
3936.00,0.0036
3935.00,0.0035
3934.00,0.0035
3933.00,0.0035
3932.00,0.0035
3931.00,0.0035
3930.00,0.0035
3929.00,0.0035
3928.00,0.0035
3927.00,0.0035
3926.00,0.0035
3925.00,0.0035
3924.00,0.0035
3923.00,0.0035
3922.00,0.0035
3921.00,0.0034
3920.00,0.0034
3919.00,0.0034
3918.00,0.0034
3917.00,0.0034
3916.00,0.0034
3915.00,0.0035
3914.00,0.0035
3913.00,0.0035
3912.00,0.0035
3911.00,0.0035
3910.00,0.0035
3909.00,0.0035
3908.00,0.0035
3907.00,0.0035
3906.00,0.0035
3905.00,0.0034
3904.00,0.0034
3903.00,0.0034
3902.00,0.0033
3901.00,0.0033
3900.00,0.0033
3899.00,0.0033
3898.00,0.0033
3897.00,0.0034
3896.00,0.0034
3895.00,0.0034
3894.00,0.0034
3893.00,0.0034
3892.00,0.0034
3891.00,0.0034
3890.00,0.0034
3889.00,0.0034
3888.00,0.0034
3887.00,0.0034
3886.00,0.0034
3885.00,0.0034
3884.00,0.0034
3883.00,0.0033
3882.00,0.0033
3881.00,0.0034
3880.00,0.0034
3879.00,0.0034
3878.00,0.0034
3877.00,0.0034
3876.00,0.0034
3875.00,0.0035
3874.00,0.0035
3873.00,0.0034
3872.00,0.0034
3871.00,0.0033
3870.00,0.0033
3869.00,0.0033
3868.00,0.0033
3867.00,0.0033
3866.00,0.0033
3865.00,0.0033
3864.00,0.0033
3863.00,0.0033
3862.00,0.0033
3861.00,0.0034
3860.00,0.0034
3859.00,0.0034
3858.00,0.0035
3857.00,0.0035
3856.00,0.0034
3855.00,0.0034
3854.00,0.0034
3853.00,0.0034
3852.00,0.0034
3851.00,0.0033
3850.00,0.0033
3849.00,0.0034
3848.00,0.0034
3847.00,0.0034
3846.00,0.0034
3845.00,0.0034
3844.00,0.0034
3843.00,0.0034
3842.00,0.0034
3841.00,0.0033
3840.00,0.0033
3839.00,0.0033
3838.00,0.0033
3837.00,0.0034
3836.00,0.0034
3835.00,0.0034
3834.00,0.0033
3833.00,0.0034
3832.00,0.0034
3831.00,0.0034
3830.00,0.0034
3829.00,0.0034
3828.00,0.0034
3827.00,0.0035
3826.00,0.0035
3825.00,0.0035
3824.00,0.0034
3823.00,0.0034
3822.00,0.0034
3821.00,0.0034
3820.00,0.0033
3819.00,0.0033
3818.00,0.0033
3817.00,0.0033
3816.00,0.0034
3815.00,0.0034
3814.00,0.0034
3813.00,0.0035
3812.00,0.0035
3811.00,0.0035
3810.00,0.0035
3809.00,0.0035
3808.00,0.0035
3807.00,0.0035
3806.00,0.0035
3805.00,0.0035
3804.00,0.0034
3803.00,0.0034
3802.00,0.0034
3801.00,0.0034
3800.00,0.0034
3799.00,0.0034
3798.00,0.0034
3797.00,0.0034
3796.00,0.0034
3795.00,0.0035
3794.00,0.0035
3793.00,0.0035
3792.00,0.0035
3791.00,0.0035
3790.00,0.0035
3789.00,0.0035
3788.00,0.0035
3787.00,0.0035
3786.00,0.0035
3785.00,0.0035
3784.00,0.0035
3783.00,0.0035
3782.00,0.0035
3781.00,0.0035
3780.00,0.0035
3779.00,0.0035
3778.00,0.0035
3777.00,0.0035
3776.00,0.0035
3775.00,0.0035
3774.00,0.0035
3773.00,0.0035
3772.00,0.0035
3771.00,0.0035
3770.00,0.0035
3769.00,0.0035
3768.00,0.0035
3767.00,0.0035
3766.00,0.0035
3765.00,0.0035
3764.00,0.0035
3763.00,0.0035
3762.00,0.0035
3761.00,0.0035
3760.00,0.0035
3759.00,0.0035
3758.00,0.0035
3757.00,0.0035
3756.00,0.0035
3755.00,0.0034
3754.00,0.0034
3753.00,0.0034
3752.00,0.0034
3751.00,0.0034
3750.00,0.0033
3749.00,0.0033
3748.00,0.0033
3747.00,0.0033
3746.00,0.0033
3745.00,0.0033
3744.00,0.0033
3743.00,0.0033
3742.00,0.0032
3741.00,0.0032
3740.00,0.0032
3739.00,0.0032
3738.00,0.0032
3737.00,0.0032
3736.00,0.0032
3735.00,0.0031
3734.00,0.0031
3733.00,0.0031
3732.00,0.0032
3731.00,0.0032
3730.00,0.0033
3729.00,0.0033
3728.00,0.0033
3727.00,0.0033
3726.00,0.0033
3725.00,0.0033
3724.00,0.0033
3723.00,0.0033
3722.00,0.0033
3721.00,0.0033
3720.00,0.0033
3719.00,0.0034
3718.00,0.0034
3717.00,0.0034
3716.00,0.0034
3715.00,0.0034
3714.00,0.0033
3713.00,0.0033
3712.00,0.0032
3711.00,0.0032
3710.00,0.0031
3709.00,0.0031
3708.00,0.0032
3707.00,0.0032
3706.00,0.0033
3705.00,0.0033
3704.00,0.0033
3703.00,0.0034
3702.00,0.0034
3701.00,0.0034
3700.00,0.0034
3699.00,0.0034
3698.00,0.0034
3697.00,0.0034
3696.00,0.0034
3695.00,0.0034
3694.00,0.0034
3693.00,0.0034
3692.00,0.0035
3691.00,0.0035
3690.00,0.0034
3689.00,0.0034
3688.00,0.0035
3687.00,0.0035
3686.00,0.0035
3685.00,0.0036
3684.00,0.0037
3683.00,0.0038
3682.00,0.0038
3681.00,0.0038
3680.00,0.0038
3679.00,0.0038
3678.00,0.0038
3677.00,0.0037
3676.00,0.0037
3675.00,0.0037
3674.00,0.0037
3673.00,0.0037
3672.00,0.0037
3671.00,0.0037
3670.00,0.0038
3669.00,0.0038
3668.00,0.0039
3667.00,0.0039
3666.00,0.0040
3665.00,0.0040
3664.00,0.0040
3663.00,0.0041
3662.00,0.0041
3661.00,0.0042
3660.00,0.0042
3659.00,0.0042
3658.00,0.0042
3657.00,0.0042
3656.00,0.0042
3655.00,0.0042
3654.00,0.0042
3653.00,0.0041
3652.00,0.0041
3651.00,0.0041
3650.00,0.0041
3649.00,0.0041
3648.00,0.0041
3647.00,0.0042
3646.00,0.0042
3645.00,0.0043
3644.00,0.0044
3643.00,0.0045
3642.00,0.0046
3641.00,0.0046
3640.00,0.0047
3639.00,0.0047
3638.00,0.0047
3637.00,0.0047
3636.00,0.0048
3635.00,0.0048
3634.00,0.0048
3633.00,0.0048
3632.00,0.0048
3631.00,0.0048
3630.00,0.0048
3629.00,0.0049
3628.00,0.0050
3627.00,0.0051
3626.00,0.0051
3625.00,0.0052
3624.00,0.0052
3623.00,0.0053
3622.00,0.0053
3621.00,0.0053
3620.00,0.0054
3619.00,0.0055
3618.00,0.0056
3617.00,0.0056
3616.00,0.0057
3615.00,0.0057
3614.00,0.0058
3613.00,0.0059
3612.00,0.0059
3611.00,0.0059
3610.00,0.0060
3609.00,0.0060
3608.00,0.0061
3607.00,0.0062
3606.00,0.0063
3605.00,0.0063
3604.00,0.0064
3603.00,0.0064
3602.00,0.0065
3601.00,0.0065
3600.00,0.0065
3599.00,0.0066
3598.00,0.0066
3597.00,0.0066
3596.00,0.0067
3595.00,0.0067
3594.00,0.0068
3593.00,0.0069
3592.00,0.0069
3591.00,0.0069
3590.00,0.0070
3589.00,0.0070
3588.00,0.0071
3587.00,0.0072
3586.00,0.0073
3585.00,0.0074
3584.00,0.0075
3583.00,0.0076
3582.00,0.0077
3581.00,0.0078
3580.00,0.0079
3579.00,0.0079
3578.00,0.0080
3577.00,0.0081
3576.00,0.0082
3575.00,0.0082
3574.00,0.0083
3573.00,0.0084
3572.00,0.0084
3571.00,0.0085
3570.00,0.0085
3569.00,0.0085
3568.00,0.0086
3567.00,0.0087
3566.00,0.0087
3565.00,0.0088
3564.00,0.0089
3563.00,0.0090
3562.00,0.0091
3561.00,0.0092
3560.00,0.0093
3559.00,0.0093
3558.00,0.0094
3557.00,0.0095
3556.00,0.0095
3555.00,0.0096
3554.00,0.0096
3553.00,0.0097
3552.00,0.0098
3551.00,0.0099
3550.00,0.0099
3549.00,0.0100
3548.00,0.0101
3547.00,0.0101
3546.00,0.0102
3545.00,0.0102
3544.00,0.0103
3543.00,0.0104
3542.00,0.0104
3541.00,0.0105
3540.00,0.0106
3539.00,0.0107
3538.00,0.0107
3537.00,0.0108
3536.00,0.0109
3535.00,0.0109
3534.00,0.0110
3533.00,0.0110
3532.00,0.0111
3531.00,0.0111
3530.00,0.0111
3529.00,0.0112
3528.00,0.0113
3527.00,0.0113
3526.00,0.0114
3525.00,0.0114
3524.00,0.0115
3523.00,0.0115
3522.00,0.0116
3521.00,0.0117
3520.00,0.0117
3519.00,0.0118
3518.00,0.0119
3517.00,0.0120
3516.00,0.0120
3515.00,0.0121
3514.00,0.0121
3513.00,0.0122
3512.00,0.0122
3511.00,0.0122
3510.00,0.0123
3509.00,0.0124
3508.00,0.0124
3507.00,0.0125
3506.00,0.0125
3505.00,0.0126
3504.00,0.0126
3503.00,0.0127
3502.00,0.0127
3501.00,0.0128
3500.00,0.0129
3499.00,0.0129
3498.00,0.0130
3497.00,0.0131
3496.00,0.0132
3495.00,0.0132
3494.00,0.0133
3493.00,0.0133
3492.00,0.0134
3491.00,0.0134
3490.00,0.0135
3489.00,0.0135
3488.00,0.0136
3487.00,0.0136
3486.00,0.0137
3485.00,0.0137
3484.00,0.0138
3483.00,0.0138
3482.00,0.0139
3481.00,0.0140
3480.00,0.0140
3479.00,0.0141
3478.00,0.0141
3477.00,0.0142
3476.00,0.0142
3475.00,0.0143
3474.00,0.0144
3473.00,0.0144
3472.00,0.0145
3471.00,0.0146
3470.00,0.0146
3469.00,0.0147
3468.00,0.0147
3467.00,0.0147
3466.00,0.0148
3465.00,0.0148
3464.00,0.0149
3463.00,0.0149
3462.00,0.0150
3461.00,0.0150
3460.00,0.0151
3459.00,0.0151
3458.00,0.0151
3457.00,0.0152
3456.00,0.0152
3455.00,0.0153
3454.00,0.0153
3453.00,0.0153
3452.00,0.0154
3451.00,0.0154
3450.00,0.0154
3449.00,0.0155
3448.00,0.0155
3447.00,0.0155
3446.00,0.0156
3445.00,0.0156
3444.00,0.0156
3443.00,0.0157
3442.00,0.0157
3441.00,0.0157
3440.00,0.0158
3439.00,0.0158
3438.00,0.0159
3437.00,0.0159
3436.00,0.0160
3435.00,0.0160
3434.00,0.0160
3433.00,0.0160
3432.00,0.0160
3431.00,0.0160
3430.00,0.0160
3429.00,0.0160
3428.00,0.0161
3427.00,0.0161
3426.00,0.0161
3425.00,0.0161
3424.00,0.0161
3423.00,0.0161
3422.00,0.0161
3421.00,0.0161
3420.00,0.0161
3419.00,0.0162
3418.00,0.0162
3417.00,0.0162
3416.00,0.0163
3415.00,0.0163
3414.00,0.0163
3413.00,0.0163
3412.00,0.0163
3411.00,0.0163
3410.00,0.0163
3409.00,0.0163
3408.00,0.0163
3407.00,0.0163
3406.00,0.0164
3405.00,0.0164
3404.00,0.0164
3403.00,0.0164
3402.00,0.0164
3401.00,0.0164
3400.00,0.0165
3399.00,0.0165
3398.00,0.0165
3397.00,0.0165
3396.00,0.0165
3395.00,0.0165
3394.00,0.0165
3393.00,0.0165
3392.00,0.0165
3391.00,0.0165
3390.00,0.0166
3389.00,0.0166
3388.00,0.0166
3387.00,0.0167
3386.00,0.0167
3385.00,0.0167
3384.00,0.0167
3383.00,0.0167
3382.00,0.0167
3381.00,0.0168
3380.00,0.0168
3379.00,0.0168
3378.00,0.0168
3377.00,0.0168
3376.00,0.0168
3375.00,0.0168
3374.00,0.0168
3373.00,0.0168
3372.00,0.0168
3371.00,0.0167
3370.00,0.0167
3369.00,0.0166
3368.00,0.0166
3367.00,0.0167
3366.00,0.0168
3365.00,0.0169
3364.00,0.0169
3363.00,0.0169
3362.00,0.0169
3361.00,0.0169
3360.00,0.0170
3359.00,0.0170
3358.00,0.0171
3357.00,0.0171
3356.00,0.0171
3355.00,0.0171
3354.00,0.0170
3353.00,0.0169
3352.00,0.0169
3351.00,0.0169
3350.00,0.0169
3349.00,0.0170
3348.00,0.0171
3347.00,0.0171
3346.00,0.0171
3345.00,0.0171
3344.00,0.0170
3343.00,0.0170
3342.00,0.0170
3341.00,0.0170
3340.00,0.0170
3339.00,0.0170
3338.00,0.0170
3337.00,0.0170
3336.00,0.0171
3335.00,0.0172
3334.00,0.0173
3333.00,0.0173
3332.00,0.0173
3331.00,0.0174
3330.00,0.0173
3329.00,0.0173
3328.00,0.0172
3327.00,0.0172
3326.00,0.0172
3325.00,0.0172
3324.00,0.0172
3323.00,0.0173
3322.00,0.0174
3321.00,0.0175
3320.00,0.0175
3319.00,0.0175
3318.00,0.0175
3317.00,0.0175
3316.00,0.0175
3315.00,0.0175
3314.00,0.0175
3313.00,0.0174
3312.00,0.0174
3311.00,0.0173
3310.00,0.0171
3309.00,0.0170
3308.00,0.0170
3307.00,0.0170
3306.00,0.0170
3305.00,0.0171
3304.00,0.0172
3303.00,0.0174
3302.00,0.0175
3301.00,0.0175
3300.00,0.0175
3299.00,0.0175
3298.00,0.0174
3297.00,0.0173
3296.00,0.0173
3295.00,0.0172
3294.00,0.0172
3293.00,0.0172
3292.00,0.0172
3291.00,0.0173
3290.00,0.0174
3289.00,0.0175
3288.00,0.0176
3287.00,0.0176
3286.00,0.0176
3285.00,0.0176
3284.00,0.0176
3283.00,0.0176
3282.00,0.0176
3281.00,0.0176
3280.00,0.0176
3279.00,0.0175
3278.00,0.0175
3277.00,0.0174
3276.00,0.0174
3275.00,0.0173
3274.00,0.0173
3273.00,0.0172
3272.00,0.0172
3271.00,0.0171
3270.00,0.0172
3269.00,0.0172
3268.00,0.0173
3267.00,0.0173
3266.00,0.0173
3265.00,0.0173
3264.00,0.0173
3263.00,0.0173
3262.00,0.0172
3261.00,0.0172
3260.00,0.0172
3259.00,0.0172
3258.00,0.0172
3257.00,0.0172
3256.00,0.0171
3255.00,0.0171
3254.00,0.0171
3253.00,0.0171
3252.00,0.0171
3251.00,0.0171
3250.00,0.0170
3249.00,0.0170
3248.00,0.0169
3247.00,0.0169
3246.00,0.0169
3245.00,0.0169
3244.00,0.0169
3243.00,0.0169
3242.00,0.0169
3241.00,0.0169
3240.00,0.0169
3239.00,0.0168
3238.00,0.0168
3237.00,0.0168
3236.00,0.0168
3235.00,0.0167
3234.00,0.0167
3233.00,0.0167
3232.00,0.0167
3231.00,0.0167
3230.00,0.0167
3229.00,0.0167
3228.00,0.0166
3227.00,0.0166
3226.00,0.0165
3225.00,0.0165
3224.00,0.0165
3223.00,0.0165
3222.00,0.0164
3221.00,0.0164
3220.00,0.0163
3219.00,0.0163
3218.00,0.0163
3217.00,0.0163
3216.00,0.0163
3215.00,0.0163
3214.00,0.0162
3213.00,0.0162
3212.00,0.0162
3211.00,0.0161
3210.00,0.0161
3209.00,0.0161
3208.00,0.0161
3207.00,0.0160
3206.00,0.0160
3205.00,0.0160
3204.00,0.0160
3203.00,0.0160
3202.00,0.0159
3201.00,0.0159
3200.00,0.0159
3199.00,0.0159
3198.00,0.0159
3197.00,0.0159
3196.00,0.0158
3195.00,0.0158
3194.00,0.0158
3193.00,0.0157
3192.00,0.0157
3191.00,0.0157
3190.00,0.0157
3189.00,0.0156
3188.00,0.0156
3187.00,0.0156
3186.00,0.0155
3185.00,0.0155
3184.00,0.0154
3183.00,0.0154
3182.00,0.0154
3181.00,0.0153
3180.00,0.0153
3179.00,0.0152
3178.00,0.0152
3177.00,0.0152
3176.00,0.0151
3175.00,0.0151
3174.00,0.0150
3173.00,0.0150
3172.00,0.0149
3171.00,0.0149
3170.00,0.0148
3169.00,0.0148
3168.00,0.0148
3167.00,0.0147
3166.00,0.0147
3165.00,0.0146
3164.00,0.0146
3163.00,0.0145
3162.00,0.0145
3161.00,0.0144
3160.00,0.0144
3159.00,0.0143
3158.00,0.0143
3157.00,0.0142
3156.00,0.0141
3155.00,0.0141
3154.00,0.0141
3153.00,0.0140
3152.00,0.0140
3151.00,0.0140
3150.00,0.0139
3149.00,0.0138
3148.00,0.0138
3147.00,0.0137
3146.00,0.0136
3145.00,0.0136
3144.00,0.0135
3143.00,0.0135
3142.00,0.0134
3141.00,0.0134
3140.00,0.0134
3139.00,0.0134
3138.00,0.0134
3137.00,0.0133
3136.00,0.0133
3135.00,0.0132
3134.00,0.0131
3133.00,0.0131
3132.00,0.0130
3131.00,0.0130
3130.00,0.0130
3129.00,0.0129
3128.00,0.0129
3127.00,0.0128
3126.00,0.0128
3125.00,0.0127
3124.00,0.0127
3123.00,0.0127
3122.00,0.0126
3121.00,0.0126
3120.00,0.0126
3119.00,0.0125
3118.00,0.0125
3117.00,0.0125
3116.00,0.0125
3115.00,0.0124
3114.00,0.0124
3113.00,0.0123
3112.00,0.0123
3111.00,0.0122
3110.00,0.0122
3109.00,0.0121
3108.00,0.0121
3107.00,0.0120
3106.00,0.0120
3105.00,0.0119
3104.00,0.0119
3103.00,0.0118
3102.00,0.0118
3101.00,0.0118
3100.00,0.0118
3099.00,0.0117
3098.00,0.0117
3097.00,0.0117
3096.00,0.0116
3095.00,0.0116
3094.00,0.0115
3093.00,0.0115
3092.00,0.0114
3091.00,0.0114
3090.00,0.0113
3089.00,0.0113
3088.00,0.0113
3087.00,0.0113
3086.00,0.0112
3085.00,0.0112
3084.00,0.0112
3083.00,0.0112
3082.00,0.0112
3081.00,0.0112
3080.00,0.0112
3079.00,0.0112
3078.00,0.0112
3077.00,0.0112
3076.00,0.0112
3075.00,0.0112
3074.00,0.0111
3073.00,0.0111
3072.00,0.0111
3071.00,0.0111
3070.00,0.0110
3069.00,0.0110
3068.00,0.0109
3067.00,0.0108
3066.00,0.0107
3065.00,0.0106
3064.00,0.0106
3063.00,0.0105
3062.00,0.0104
3061.00,0.0104
3060.00,0.0103
3059.00,0.0102
3058.00,0.0102
3057.00,0.0101
3056.00,0.0100
3055.00,0.0100
3054.00,0.0099
3053.00,0.0099
3052.00,0.0099
3051.00,0.0098
3050.00,0.0098
3049.00,0.0097
3048.00,0.0097
3047.00,0.0097
3046.00,0.0096
3045.00,0.0096
3044.00,0.0096
3043.00,0.0096
3042.00,0.0095
3041.00,0.0095
3040.00,0.0095
3039.00,0.0095
3038.00,0.0095
3037.00,0.0094
3036.00,0.0094
3035.00,0.0094
3034.00,0.0093
3033.00,0.0093
3032.00,0.0093
3031.00,0.0093
3030.00,0.0093
3029.00,0.0093
3028.00,0.0093
3027.00,0.0093
3026.00,0.0093
3025.00,0.0093
3024.00,0.0093
3023.00,0.0093
3022.00,0.0094
3021.00,0.0094
3020.00,0.0094
3019.00,0.0095
3018.00,0.0095
3017.00,0.0096
3016.00,0.0096
3015.00,0.0097
3014.00,0.0097
3013.00,0.0098
3012.00,0.0099
3011.00,0.0100
3010.00,0.0101
3009.00,0.0103
3008.00,0.0104
3007.00,0.0105
3006.00,0.0107
3005.00,0.0108
3004.00,0.0110
3003.00,0.0112
3002.00,0.0114
3001.00,0.0116
3000.00,0.0118
2999.00,0.0120
2998.00,0.0123
2997.00,0.0125
2996.00,0.0128
2995.00,0.0131
2994.00,0.0134
2993.00,0.0137
2992.00,0.0141
2991.00,0.0144
2990.00,0.0147
2989.00,0.0150
2988.00,0.0154
2987.00,0.0157
2986.00,0.0160
2985.00,0.0163
2984.00,0.0166
2983.00,0.0168
2982.00,0.0171
2981.00,0.0174
2980.00,0.0177
2979.00,0.0180
2978.00,0.0184
2977.00,0.0187
2976.00,0.0190
2975.00,0.0194
2974.00,0.0197
2973.00,0.0200
2972.00,0.0204
2971.00,0.0207
2970.00,0.0211
2969.00,0.0215
2968.00,0.0220
2967.00,0.0224
2966.00,0.0228
2965.00,0.0233
2964.00,0.0237
2963.00,0.0241
2962.00,0.0244
2961.00,0.0248
2960.00,0.0250
2959.00,0.0253
2958.00,0.0255
2957.00,0.0257
2956.00,0.0258
2955.00,0.0260
2954.00,0.0260
2953.00,0.0261
2952.00,0.0261
2951.00,0.0260
2950.00,0.0260
2949.00,0.0259
2948.00,0.0258
2947.00,0.0258
2946.00,0.0257
2945.00,0.0257
2944.00,0.0257
2943.00,0.0257
2942.00,0.0258
2941.00,0.0260
2940.00,0.0262
2939.00,0.0264
2938.00,0.0267
2937.00,0.0270
2936.00,0.0273
2935.00,0.0276
2934.00,0.0279
2933.00,0.0282
2932.00,0.0286
2931.00,0.0289
2930.00,0.0292
2929.00,0.0294
2928.00,0.0297
2927.00,0.0299
2926.00,0.0300
2925.00,0.0301
2924.00,0.0302
2923.00,0.0303
2922.00,0.0303
2921.00,0.0302
2920.00,0.0300
2919.00,0.0299
2918.00,0.0296
2917.00,0.0293
2916.00,0.0290
2915.00,0.0287
2914.00,0.0283
2913.00,0.0279
2912.00,0.0275
2911.00,0.0271
2910.00,0.0267
2909.00,0.0263
2908.00,0.0260
2907.00,0.0256
2906.00,0.0253
2905.00,0.0250
2904.00,0.0247
2903.00,0.0244
2902.00,0.0242
2901.00,0.0240
2900.00,0.0238
2899.00,0.0237
2898.00,0.0236
2897.00,0.0234
2896.00,0.0233
2895.00,0.0232
2894.00,0.0232
2893.00,0.0231
2892.00,0.0230
2891.00,0.0229
2890.00,0.0228
2889.00,0.0227
2888.00,0.0227
2887.00,0.0226
2886.00,0.0225
2885.00,0.0224
2884.00,0.0224
2883.00,0.0224
2882.00,0.0223
2881.00,0.0223
2880.00,0.0223
2879.00,0.0223
2878.00,0.0222
2877.00,0.0222
2876.00,0.0222
2875.00,0.0222
2874.00,0.0222
2873.00,0.0222
2872.00,0.0222
2871.00,0.0222
2870.00,0.0222
2869.00,0.0221
2868.00,0.0221
2867.00,0.0220
2866.00,0.0219
2865.00,0.0219
2864.00,0.0219
2863.00,0.0219
2862.00,0.0219
2861.00,0.0219
2860.00,0.0219
2859.00,0.0220
2858.00,0.0220
2857.00,0.0219
2856.00,0.0218
2855.00,0.0216
2854.00,0.0213
2853.00,0.0210
2852.00,0.0206
2851.00,0.0201
2850.00,0.0195
2849.00,0.0190
2848.00,0.0184
2847.00,0.0178
2846.00,0.0173
2845.00,0.0168
2844.00,0.0163
2843.00,0.0158
2842.00,0.0153
2841.00,0.0149
2840.00,0.0146
2839.00,0.0142
2838.00,0.0140
2837.00,0.0138
2836.00,0.0137
2835.00,0.0136
2834.00,0.0134
2833.00,0.0133
2832.00,0.0132
2831.00,0.0131
2830.00,0.0129
2829.00,0.0127
2828.00,0.0124
2827.00,0.0122
2826.00,0.0119
2825.00,0.0116
2824.00,0.0113
2823.00,0.0110
2822.00,0.0107
2821.00,0.0104
2820.00,0.0102
2819.00,0.0099
2818.00,0.0097
2817.00,0.0095
2816.00,0.0094
2815.00,0.0092
2814.00,0.0090
2813.00,0.0089
2812.00,0.0088
2811.00,0.0087
2810.00,0.0086
2809.00,0.0085
2808.00,0.0084
2807.00,0.0083
2806.00,0.0083
2805.00,0.0082
2804.00,0.0082
2803.00,0.0081
2802.00,0.0080
2801.00,0.0080
2800.00,0.0079
2799.00,0.0078
2798.00,0.0078
2797.00,0.0078
2796.00,0.0077
2795.00,0.0077
2794.00,0.0077
2793.00,0.0076
2792.00,0.0076
2791.00,0.0076
2790.00,0.0075
2789.00,0.0075
2788.00,0.0075
2787.00,0.0075
2786.00,0.0074
2785.00,0.0074
2784.00,0.0074
2783.00,0.0073
2782.00,0.0073
2781.00,0.0073
2780.00,0.0073
2779.00,0.0072
2778.00,0.0072
2777.00,0.0072
2776.00,0.0071
2775.00,0.0071
2774.00,0.0071
2773.00,0.0070
2772.00,0.0070
2771.00,0.0070
2770.00,0.0070
2769.00,0.0070
2768.00,0.0070
2767.00,0.0070
2766.00,0.0069
2765.00,0.0069
2764.00,0.0069
2763.00,0.0069
2762.00,0.0069
2761.00,0.0069
2760.00,0.0069
2759.00,0.0069
2758.00,0.0069
2757.00,0.0069
2756.00,0.0069
2755.00,0.0069
2754.00,0.0069
2753.00,0.0069
2752.00,0.0068
2751.00,0.0068
2750.00,0.0068
2749.00,0.0068
2748.00,0.0068
2747.00,0.0068
2746.00,0.0068
2745.00,0.0069
2744.00,0.0069
2743.00,0.0069
2742.00,0.0069
2741.00,0.0069
2740.00,0.0069
2739.00,0.0068
2738.00,0.0068
2737.00,0.0069
2736.00,0.0069
2735.00,0.0069
2734.00,0.0069
2733.00,0.0069
2732.00,0.0069
2731.00,0.0070
2730.00,0.0070
2729.00,0.0070
2728.00,0.0070
2727.00,0.0070
2726.00,0.0070
2725.00,0.0070
2724.00,0.0070
2723.00,0.0070
2722.00,0.0070
2721.00,0.0069
2720.00,0.0069
2719.00,0.0069
2718.00,0.0069
2717.00,0.0068
2716.00,0.0068
2715.00,0.0068
2714.00,0.0068
2713.00,0.0068
2712.00,0.0067
2711.00,0.0067
2710.00,0.0067
2709.00,0.0067
2708.00,0.0067
2707.00,0.0067
2706.00,0.0067
2705.00,0.0067
2704.00,0.0066
2703.00,0.0066
2702.00,0.0066
2701.00,0.0066
2700.00,0.0066
2699.00,0.0066
2698.00,0.0066
2697.00,0.0066
2696.00,0.0066
2695.00,0.0065
2694.00,0.0065
2693.00,0.0065
2692.00,0.0065
2691.00,0.0065
2690.00,0.0065
2689.00,0.0065
2688.00,0.0066
2687.00,0.0066
2686.00,0.0065
2685.00,0.0065
2684.00,0.0065
2683.00,0.0065
2682.00,0.0065
2681.00,0.0065
2680.00,0.0065
2679.00,0.0065
2678.00,0.0065
2677.00,0.0064
2676.00,0.0064
2675.00,0.0064
2674.00,0.0064
2673.00,0.0064
2672.00,0.0064
2671.00,0.0064
2670.00,0.0064
2669.00,0.0064
2668.00,0.0064
2667.00,0.0065
2666.00,0.0065
2665.00,0.0065
2664.00,0.0066
2663.00,0.0066
2662.00,0.0066
2661.00,0.0067
2660.00,0.0067
2659.00,0.0067
2658.00,0.0067
2657.00,0.0067
2656.00,0.0067
2655.00,0.0067
2654.00,0.0067
2653.00,0.0067
2652.00,0.0067
2651.00,0.0067
2650.00,0.0067
2649.00,0.0067
2648.00,0.0067
2647.00,0.0067
2646.00,0.0066
2645.00,0.0066
2644.00,0.0066
2643.00,0.0066
2642.00,0.0066
2641.00,0.0066
2640.00,0.0066
2639.00,0.0066
2638.00,0.0066
2637.00,0.0066
2636.00,0.0065
2635.00,0.0065
2634.00,0.0065
2633.00,0.0065
2632.00,0.0065
2631.00,0.0065
2630.00,0.0064
2629.00,0.0064
2628.00,0.0064
2627.00,0.0064
2626.00,0.0064
2625.00,0.0064
2624.00,0.0064
2623.00,0.0063
2622.00,0.0063
2621.00,0.0062
2620.00,0.0062
2619.00,0.0062
2618.00,0.0062
2617.00,0.0062
2616.00,0.0061
2615.00,0.0061
2614.00,0.0061
2613.00,0.0061
2612.00,0.0060
2611.00,0.0060
2610.00,0.0060
2609.00,0.0060
2608.00,0.0060
2607.00,0.0060
2606.00,0.0060
2605.00,0.0060
2604.00,0.0059
2603.00,0.0059
2602.00,0.0060
2601.00,0.0060
2600.00,0.0060
2599.00,0.0060
2598.00,0.0059
2597.00,0.0059
2596.00,0.0059
2595.00,0.0058
2594.00,0.0058
2593.00,0.0058
2592.00,0.0058
2591.00,0.0058
2590.00,0.0058
2589.00,0.0058
2588.00,0.0058
2587.00,0.0058
2586.00,0.0058
2585.00,0.0058
2584.00,0.0058
2583.00,0.0058
2582.00,0.0058
2581.00,0.0058
2580.00,0.0057
2579.00,0.0057
2578.00,0.0057
2577.00,0.0057
2576.00,0.0057
2575.00,0.0057
2574.00,0.0057
2573.00,0.0057
2572.00,0.0057
2571.00,0.0057
2570.00,0.0057
2569.00,0.0057
2568.00,0.0057
2567.00,0.0057
2566.00,0.0056
2565.00,0.0056
2564.00,0.0056
2563.00,0.0056
2562.00,0.0056
2561.00,0.0056
2560.00,0.0055
2559.00,0.0054
2558.00,0.0054
2557.00,0.0054
2556.00,0.0054
2555.00,0.0054
2554.00,0.0054
2553.00,0.0054
2552.00,0.0054
2551.00,0.0054
2550.00,0.0053
2549.00,0.0053
2548.00,0.0053
2547.00,0.0053
2546.00,0.0053
2545.00,0.0053
2544.00,0.0053
2543.00,0.0053
2542.00,0.0052
2541.00,0.0052
2540.00,0.0052
2539.00,0.0052
2538.00,0.0052
2537.00,0.0052
2536.00,0.0052
2535.00,0.0052
2534.00,0.0052
2533.00,0.0052
2532.00,0.0052
2531.00,0.0052
2530.00,0.0052
2529.00,0.0051
2528.00,0.0051
2527.00,0.0050
2526.00,0.0050
2525.00,0.0050
2524.00,0.0050
2523.00,0.0050
2522.00,0.0050
2521.00,0.0050
2520.00,0.0049
2519.00,0.0049
2518.00,0.0049
2517.00,0.0049
2516.00,0.0049
2515.00,0.0049
2514.00,0.0049
2513.00,0.0049
2512.00,0.0049
2511.00,0.0049
2510.00,0.0049
2509.00,0.0049
2508.00,0.0049
2507.00,0.0049
2506.00,0.0049
2505.00,0.0049
2504.00,0.0049
2503.00,0.0048
2502.00,0.0048
2501.00,0.0048
2500.00,0.0049
2499.00,0.0048
2498.00,0.0048
2497.00,0.0048
2496.00,0.0048
2495.00,0.0047
2494.00,0.0047
2493.00,0.0047
2492.00,0.0047
2491.00,0.0047
2490.00,0.0048
2489.00,0.0048
2488.00,0.0048
2487.00,0.0048
2486.00,0.0047
2485.00,0.0047
2484.00,0.0047
2483.00,0.0047
2482.00,0.0047
2481.00,0.0047
2480.00,0.0046
2479.00,0.0046
2478.00,0.0046
2477.00,0.0046
2476.00,0.0046
2475.00,0.0046
2474.00,0.0045
2473.00,0.0045
2472.00,0.0045
2471.00,0.0045
2470.00,0.0046
2469.00,0.0046
2468.00,0.0046
2467.00,0.0046
2466.00,0.0046
2465.00,0.0045
2464.00,0.0046
2463.00,0.0046
2462.00,0.0047
2461.00,0.0047
2460.00,0.0047
2459.00,0.0047
2458.00,0.0047
2457.00,0.0047
2456.00,0.0047
2455.00,0.0047
2454.00,0.0047
2453.00,0.0047
2452.00,0.0047
2451.00,0.0047
2450.00,0.0047
2449.00,0.0047
2448.00,0.0046
2447.00,0.0046
2446.00,0.0046
2445.00,0.0046
2444.00,0.0046
2443.00,0.0046
2442.00,0.0045
2441.00,0.0045
2440.00,0.0045
2439.00,0.0045
2438.00,0.0045
2437.00,0.0044
2436.00,0.0044
2435.00,0.0044
2434.00,0.0044
2433.00,0.0044
2432.00,0.0043
2431.00,0.0043
2430.00,0.0043
2429.00,0.0044
2428.00,0.0044
2427.00,0.0044
2426.00,0.0044
2425.00,0.0044
2424.00,0.0044
2423.00,0.0044
2422.00,0.0043
2421.00,0.0043
2420.00,0.0043
2419.00,0.0043
2418.00,0.0043
2417.00,0.0043
2416.00,0.0043
2415.00,0.0042
2414.00,0.0042
2413.00,0.0043
2412.00,0.0043
2411.00,0.0043
2410.00,0.0043
2409.00,0.0042
2408.00,0.0042
2407.00,0.0041
2406.00,0.0041
2405.00,0.0041
2404.00,0.0042
2403.00,0.0042
2402.00,0.0042
2401.00,0.0042
2400.00,0.0042
2399.00,0.0042
2398.00,0.0042
2397.00,0.0041
2396.00,0.0041
2395.00,0.0041
2394.00,0.0041
2393.00,0.0041
2392.00,0.0041
2391.00,0.0041
2390.00,0.0041
2389.00,0.0041
2388.00,0.0040
2387.00,0.0039
2386.00,0.0039
2385.00,0.0038
2384.00,0.0037
2383.00,0.0037
2382.00,0.0036
2381.00,0.0035
2380.00,0.0035
2379.00,0.0036
2378.00,0.0036
2377.00,0.0036
2376.00,0.0036
2375.00,0.0036
2374.00,0.0036
2373.00,0.0036
2372.00,0.0036
2371.00,0.0036
2370.00,0.0035
2369.00,0.0035
2368.00,0.0035
2367.00,0.0035
2366.00,0.0036
2365.00,0.0036
2364.00,0.0037
2363.00,0.0036
2362.00,0.0036
2361.00,0.0036
2360.00,0.0036
2359.00,0.0037
2358.00,0.0037
2357.00,0.0037
2356.00,0.0037
2355.00,0.0037
2354.00,0.0037
2353.00,0.0037
2352.00,0.0037
2351.00,0.0037
2350.00,0.0038
2349.00,0.0038
2348.00,0.0039
2347.00,0.0040
2346.00,0.0040
2345.00,0.0040
2344.00,0.0040
2343.00,0.0040
2342.00,0.0041
2341.00,0.0041
2340.00,0.0042
2339.00,0.0042
2338.00,0.0042
2337.00,0.0042
2336.00,0.0042
2335.00,0.0042
2334.00,0.0042
2333.00,0.0042
2332.00,0.0041
2331.00,0.0041
2330.00,0.0042
2329.00,0.0045
2328.00,0.0049
2327.00,0.0054
2326.00,0.0057
2325.00,0.0058
2324.00,0.0056
2323.00,0.0053
2322.00,0.0051
2321.00,0.0050
2320.00,0.0049
2319.00,0.0049
2318.00,0.0049
2317.00,0.0048
2316.00,0.0048
2315.00,0.0047
2314.00,0.0047
2313.00,0.0046
2312.00,0.0045
2311.00,0.0044
2310.00,0.0044
2309.00,0.0044
2308.00,0.0044
2307.00,0.0044
2306.00,0.0044
2305.00,0.0044
2304.00,0.0045
2303.00,0.0045
2302.00,0.0046
2301.00,0.0046
2300.00,0.0047
2299.00,0.0048
2298.00,0.0048
2297.00,0.0049
2296.00,0.0050
2295.00,0.0050
2294.00,0.0051
2293.00,0.0052
2292.00,0.0053
2291.00,0.0054
2290.00,0.0055
2289.00,0.0056
2288.00,0.0056
2287.00,0.0056
2286.00,0.0056
2285.00,0.0055
2284.00,0.0055
2283.00,0.0054
2282.00,0.0053
2281.00,0.0052
2280.00,0.0051
2279.00,0.0051
2278.00,0.0051
2277.00,0.0051
2276.00,0.0051
2275.00,0.0050
2274.00,0.0050
2273.00,0.0050
2272.00,0.0050
2271.00,0.0049
2270.00,0.0049
2269.00,0.0048
2268.00,0.0048
2267.00,0.0047
2266.00,0.0047
2265.00,0.0046
2264.00,0.0046
2263.00,0.0047
2262.00,0.0047
2261.00,0.0049
2260.00,0.0050
2259.00,0.0050
2258.00,0.0049
2257.00,0.0047
2256.00,0.0045
2255.00,0.0044
2254.00,0.0043
2253.00,0.0043
2252.00,0.0044
2251.00,0.0044
2250.00,0.0044
2249.00,0.0044
2248.00,0.0045
2247.00,0.0045
2246.00,0.0046
2245.00,0.0046
2244.00,0.0047
2243.00,0.0047
2242.00,0.0046
2241.00,0.0046
2240.00,0.0046
2239.00,0.0046
2238.00,0.0047
2237.00,0.0047
2236.00,0.0048
2235.00,0.0048
2234.00,0.0048
2233.00,0.0048
2232.00,0.0048
2231.00,0.0048
2230.00,0.0047
2229.00,0.0046
2228.00,0.0045
2227.00,0.0044
2226.00,0.0043
2225.00,0.0043
2224.00,0.0045
2223.00,0.0046
2222.00,0.0046
2221.00,0.0045
2220.00,0.0045
2219.00,0.0044
2218.00,0.0044
2217.00,0.0044
2216.00,0.0045
2215.00,0.0045
2214.00,0.0045
2213.00,0.0046
2212.00,0.0046
2211.00,0.0046
2210.00,0.0045
2209.00,0.0045
2208.00,0.0045
2207.00,0.0046
2206.00,0.0046
2205.00,0.0046
2204.00,0.0047
2203.00,0.0047
2202.00,0.0048
2201.00,0.0049
2200.00,0.0050
2199.00,0.0050
2198.00,0.0050
2197.00,0.0049
2196.00,0.0048
2195.00,0.0047
2194.00,0.0047
2193.00,0.0048
2192.00,0.0049
2191.00,0.0051
2190.00,0.0052
2189.00,0.0052
2188.00,0.0052
2187.00,0.0052
2186.00,0.0051
2185.00,0.0048
2184.00,0.0046
2183.00,0.0044
2182.00,0.0044
2181.00,0.0045
2180.00,0.0047
2179.00,0.0048
2178.00,0.0045
2177.00,0.0041
2176.00,0.0039
2175.00,0.0039
2174.00,0.0040
2173.00,0.0044
2172.00,0.0048
2171.00,0.0051
2170.00,0.0054
2169.00,0.0055
2168.00,0.0055
2167.00,0.0056
2166.00,0.0056
2165.00,0.0058
2164.00,0.0060
2163.00,0.0059
2162.00,0.0053
2161.00,0.0038
2160.00,0.0021
2159.00,0.0006
2158.00,-0.0001
2157.00,0.0001
2156.00,0.0007
2155.00,0.0014
2154.00,0.0019
2153.00,0.0022
2152.00,0.0025
2151.00,0.0025
2150.00,0.0024
2149.00,0.0024
2148.00,0.0023
2147.00,0.0023
2146.00,0.0023
2145.00,0.0024
2144.00,0.0024
2143.00,0.0025
2142.00,0.0026
2141.00,0.0026
2140.00,0.0027
2139.00,0.0026
2138.00,0.0024
2137.00,0.0022
2136.00,0.0021
2135.00,0.0019
2134.00,0.0019
2133.00,0.0020
2132.00,0.0023
2131.00,0.0026
2130.00,0.0028
2129.00,0.0029
2128.00,0.0031
2127.00,0.0032
2126.00,0.0033
2125.00,0.0033
2124.00,0.0034
2123.00,0.0034
2122.00,0.0035
2121.00,0.0036
2120.00,0.0037
2119.00,0.0039
2118.00,0.0040
2117.00,0.0041
2116.00,0.0042
2115.00,0.0042
2114.00,0.0042
2113.00,0.0042
2112.00,0.0043
2111.00,0.0042
2110.00,0.0042
2109.00,0.0042
2108.00,0.0042
2107.00,0.0042
2106.00,0.0042
2105.00,0.0042
2104.00,0.0042
2103.00,0.0042
2102.00,0.0042
2101.00,0.0042
2100.00,0.0042
2099.00,0.0041
2098.00,0.0040
2097.00,0.0038
2096.00,0.0036
2095.00,0.0035
2094.00,0.0034
2093.00,0.0036
2092.00,0.0038
2091.00,0.0039
2090.00,0.0040
2089.00,0.0041
2088.00,0.0041
2087.00,0.0042
2086.00,0.0043
2085.00,0.0044
2084.00,0.0045
2083.00,0.0046
2082.00,0.0045
2081.00,0.0044
2080.00,0.0043
2079.00,0.0042
2078.00,0.0042
2077.00,0.0043
2076.00,0.0043
2075.00,0.0043
2074.00,0.0042
2073.00,0.0040
2072.00,0.0040
2071.00,0.0039
2070.00,0.0039
2069.00,0.0038
2068.00,0.0038
2067.00,0.0038
2066.00,0.0038
2065.00,0.0038
2064.00,0.0038
2063.00,0.0037
2062.00,0.0037
2061.00,0.0037
2060.00,0.0038
2059.00,0.0038
2058.00,0.0039
2057.00,0.0038
2056.00,0.0038
2055.00,0.0039
2054.00,0.0042
2053.00,0.0048
2052.00,0.0052
2051.00,0.0052
2050.00,0.0048
2049.00,0.0044
2048.00,0.0042
2047.00,0.0042
2046.00,0.0042
2045.00,0.0042
2044.00,0.0042
2043.00,0.0042
2042.00,0.0041
2041.00,0.0042
2040.00,0.0042
2039.00,0.0043
2038.00,0.0043
2037.00,0.0042
2036.00,0.0040
2035.00,0.0036
2034.00,0.0032
2033.00,0.0029
2032.00,0.0029
2031.00,0.0030
2030.00,0.0032
2029.00,0.0033
2028.00,0.0033
2027.00,0.0031
2026.00,0.0029
2025.00,0.0029
2024.00,0.0031
2023.00,0.0032
2022.00,0.0032
2021.00,0.0032
2020.00,0.0032
2019.00,0.0032
2018.00,0.0032
2017.00,0.0033
2016.00,0.0033
2015.00,0.0033
2014.00,0.0032
2013.00,0.0031
2012.00,0.0031
2011.00,0.0031
2010.00,0.0030
2009.00,0.0028
2008.00,0.0026
2007.00,0.0023
2006.00,0.0022
2005.00,0.0023
2004.00,0.0026
2003.00,0.0028
2002.00,0.0029
2001.00,0.0031
2000.00,0.0033
1999.00,0.0034
1998.00,0.0033
1997.00,0.0033
1996.00,0.0033
1995.00,0.0034
1994.00,0.0034
1993.00,0.0035
1992.00,0.0037
1991.00,0.0038
1990.00,0.0039
1989.00,0.0039
1988.00,0.0040
1987.00,0.0041
1986.00,0.0041
1985.00,0.0042
1984.00,0.0045
1983.00,0.0049
1982.00,0.0052
1981.00,0.0052
1980.00,0.0050
1979.00,0.0044
1978.00,0.0036
1977.00,0.0029
1976.00,0.0026
1975.00,0.0025
1974.00,0.0025
1973.00,0.0026
1972.00,0.0027
1971.00,0.0027
1970.00,0.0026
1969.00,0.0025
1968.00,0.0026
1967.00,0.0026
1966.00,0.0026
1965.00,0.0026
1964.00,0.0027
1963.00,0.0026
1962.00,0.0025
1961.00,0.0023
1960.00,0.0021
1959.00,0.0021
1958.00,0.0021
1957.00,0.0022
1956.00,0.0024
1955.00,0.0026
1954.00,0.0027
1953.00,0.0027
1952.00,0.0028
1951.00,0.0029
1950.00,0.0028
1949.00,0.0028
1948.00,0.0028
1947.00,0.0028
1946.00,0.0028
1945.00,0.0028
1944.00,0.0028
1943.00,0.0027
1942.00,0.0027
1941.00,0.0027
1940.00,0.0027
1939.00,0.0027
1938.00,0.0026
1937.00,0.0026
1936.00,0.0026
1935.00,0.0026
1934.00,0.0026
1933.00,0.0027
1932.00,0.0027
1931.00,0.0027
1930.00,0.0027
1929.00,0.0028
1928.00,0.0029
1927.00,0.0029
1926.00,0.0029
1925.00,0.0029
1924.00,0.0029
1923.00,0.0030
1922.00,0.0030
1921.00,0.0030
1920.00,0.0031
1919.00,0.0032
1918.00,0.0031
1917.00,0.0031
1916.00,0.0031
1915.00,0.0032
1914.00,0.0032
1913.00,0.0032
1912.00,0.0033
1911.00,0.0032
1910.00,0.0031
1909.00,0.0031
1908.00,0.0031
1907.00,0.0032
1906.00,0.0032
1905.00,0.0032
1904.00,0.0032
1903.00,0.0032
1902.00,0.0031
1901.00,0.0031
1900.00,0.0031
1899.00,0.0031
1898.00,0.0031
1897.00,0.0031
1896.00,0.0032
1895.00,0.0032
1894.00,0.0032
1893.00,0.0032
1892.00,0.0032
1891.00,0.0032
1890.00,0.0032
1889.00,0.0032
1888.00,0.0032
1887.00,0.0032
1886.00,0.0032
1885.00,0.0032
1884.00,0.0032
1883.00,0.0032
1882.00,0.0031
1881.00,0.0031
1880.00,0.0032
1879.00,0.0032
1878.00,0.0032
1877.00,0.0032
1876.00,0.0033
1875.00,0.0033
1874.00,0.0033
1873.00,0.0032
1872.00,0.0033
1871.00,0.0033
1870.00,0.0033
1869.00,0.0033
1868.00,0.0033
1867.00,0.0033
1866.00,0.0032
1865.00,0.0032
1864.00,0.0033
1863.00,0.0033
1862.00,0.0032
1861.00,0.0032
1860.00,0.0032
1859.00,0.0032
1858.00,0.0032
1857.00,0.0032
1856.00,0.0033
1855.00,0.0033
1854.00,0.0034
1853.00,0.0034
1852.00,0.0034
1851.00,0.0034
1850.00,0.0034
1849.00,0.0034
1848.00,0.0034
1847.00,0.0034
1846.00,0.0034
1845.00,0.0034
1844.00,0.0034
1843.00,0.0034
1842.00,0.0034
1841.00,0.0034
1840.00,0.0034
1839.00,0.0034
1838.00,0.0034
1837.00,0.0033
1836.00,0.0034
1835.00,0.0034
1834.00,0.0033
1833.00,0.0033
1832.00,0.0034
1831.00,0.0035
1830.00,0.0035
1829.00,0.0034
1828.00,0.0035
1827.00,0.0035
1826.00,0.0035
1825.00,0.0034
1824.00,0.0034
1823.00,0.0033
1822.00,0.0033
1821.00,0.0032
1820.00,0.0032
1819.00,0.0031
1818.00,0.0030
1817.00,0.0030
1816.00,0.0030
1815.00,0.0031
1814.00,0.0032
1813.00,0.0032
1812.00,0.0033
1811.00,0.0033
1810.00,0.0033
1809.00,0.0033
1808.00,0.0033
1807.00,0.0034
1806.00,0.0034
1805.00,0.0034
1804.00,0.0034
1803.00,0.0034
1802.00,0.0034
1801.00,0.0034
1800.00,0.0035
1799.00,0.0035
1798.00,0.0035
1797.00,0.0035
1796.00,0.0035
1795.00,0.0035
1794.00,0.0035
1793.00,0.0035
1792.00,0.0035
1791.00,0.0035
1790.00,0.0035
1789.00,0.0035
1788.00,0.0036
1787.00,0.0036
1786.00,0.0036
1785.00,0.0036
1784.00,0.0036
1783.00,0.0037
1782.00,0.0037
1781.00,0.0036
1780.00,0.0036
1779.00,0.0036
1778.00,0.0036
1777.00,0.0036
1776.00,0.0037
1775.00,0.0037
1774.00,0.0037
1773.00,0.0038
1772.00,0.0038
1771.00,0.0038
1770.00,0.0038
1769.00,0.0038
1768.00,0.0038
1767.00,0.0039
1766.00,0.0038
1765.00,0.0038
1764.00,0.0039
1763.00,0.0040
1762.00,0.0039
1761.00,0.0039
1760.00,0.0040
1759.00,0.0040
1758.00,0.0040
1757.00,0.0040
1756.00,0.0040
1755.00,0.0041
1754.00,0.0041
1753.00,0.0041
1752.00,0.0042
1751.00,0.0043
1750.00,0.0042
1749.00,0.0042
1748.00,0.0043
1747.00,0.0043
1746.00,0.0043
1745.00,0.0044
1744.00,0.0044
1743.00,0.0044
1742.00,0.0043
1741.00,0.0043
1740.00,0.0044
1739.00,0.0045
1738.00,0.0045
1737.00,0.0046
1736.00,0.0047
1735.00,0.0049
1734.00,0.0049
1733.00,0.0049
1732.00,0.0050
1731.00,0.0051
1730.00,0.0051
1729.00,0.0051
1728.00,0.0053
1727.00,0.0054
1726.00,0.0055
1725.00,0.0056
1724.00,0.0058
1723.00,0.0059
1722.00,0.0060
1721.00,0.0061
1720.00,0.0063
1719.00,0.0067
1718.00,0.0069
1717.00,0.0071
1716.00,0.0075
1715.00,0.0078
1714.00,0.0080
1713.00,0.0083
1712.00,0.0088
1711.00,0.0093
1710.00,0.0098
1709.00,0.0104
1708.00,0.0112
1707.00,0.0120
1706.00,0.0131
1705.00,0.0142
1704.00,0.0154
1703.00,0.0164
1702.00,0.0177
1701.00,0.0199
1700.00,0.0230
1699.00,0.0258
1698.00,0.0278
1697.00,0.0303
1696.00,0.0340
1695.00,0.0379
1694.00,0.0412
1693.00,0.0440
1692.00,0.0468
1691.00,0.0501
1690.00,0.0536
1689.00,0.0572
1688.00,0.0604
1687.00,0.0630
1686.00,0.0655
1685.00,0.0692
1684.00,0.0742
1683.00,0.0784
1682.00,0.0810
1681.00,0.0829
1680.00,0.0848
1679.00,0.0865
1678.00,0.0880
1677.00,0.0894
1676.00,0.0913
1675.00,0.0935
1674.00,0.0955
1673.00,0.0969
1672.00,0.0980
1671.00,0.0993
1670.00,0.1012
1669.00,0.1036
1668.00,0.1057
1667.00,0.1073
1666.00,0.1084
1665.00,0.1094
1664.00,0.1107
1663.00,0.1126
1662.00,0.1145
1661.00,0.1161
1660.00,0.1173
1659.00,0.1182
1658.00,0.1187
1657.00,0.1189
1656.00,0.1188
1655.00,0.1184
1654.00,0.1185
1653.00,0.1194
1652.00,0.1200
1651.00,0.1193
1650.00,0.1178
1649.00,0.1158
1648.00,0.1136
1647.00,0.1113
1646.00,0.1089
1645.00,0.1064
1644.00,0.1038
1643.00,0.1008
1642.00,0.0976
1641.00,0.0941
1640.00,0.0906
1639.00,0.0872
1638.00,0.0837
1637.00,0.0799
1636.00,0.0759
1635.00,0.0721
1634.00,0.0690
1633.00,0.0664
1632.00,0.0639
1631.00,0.0616
1630.00,0.0594
1629.00,0.0574
1628.00,0.0557
1627.00,0.0543
1626.00,0.0530
1625.00,0.0519
1624.00,0.0508
1623.00,0.0499
1622.00,0.0492
1621.00,0.0484
1620.00,0.0476
1619.00,0.0467
1618.00,0.0457
1617.00,0.0447
1616.00,0.0436
1615.00,0.0424
1614.00,0.0411
1613.00,0.0397
1612.00,0.0381
1611.00,0.0366
1610.00,0.0351
1609.00,0.0336
1608.00,0.0323
1607.00,0.0311
1606.00,0.0302
1605.00,0.0294
1604.00,0.0288
1603.00,0.0284
1602.00,0.0283
1601.00,0.0284
1600.00,0.0287
1599.00,0.0291
1598.00,0.0297
1597.00,0.0303
1596.00,0.0309
1595.00,0.0314
1594.00,0.0318
1593.00,0.0321
1592.00,0.0321
1591.00,0.0320
1590.00,0.0318
1589.00,0.0314
1588.00,0.0310
1587.00,0.0305
1586.00,0.0299
1585.00,0.0292
1584.00,0.0284
1583.00,0.0276
1582.00,0.0267
1581.00,0.0258
1580.00,0.0248
1579.00,0.0240
1578.00,0.0231
1577.00,0.0222
1576.00,0.0212
1575.00,0.0203
1574.00,0.0196
1573.00,0.0190
1572.00,0.0184
1571.00,0.0179
1570.00,0.0173
1569.00,0.0168
1568.00,0.0163
1567.00,0.0160
1566.00,0.0156
1565.00,0.0153
1564.00,0.0149
1563.00,0.0146
1562.00,0.0143
1561.00,0.0140
1560.00,0.0138
1559.00,0.0135
1558.00,0.0133
1557.00,0.0132
1556.00,0.0131
1555.00,0.0130
1554.00,0.0130
1553.00,0.0129
1552.00,0.0127
1551.00,0.0126
1550.00,0.0125
1549.00,0.0124
1548.00,0.0123
1547.00,0.0123
1546.00,0.0122
1545.00,0.0122
1544.00,0.0121
1543.00,0.0120
1542.00,0.0120
1541.00,0.0120
1540.00,0.0119
1539.00,0.0119
1538.00,0.0119
1537.00,0.0119
1536.00,0.0119
1535.00,0.0118
1534.00,0.0118
1533.00,0.0118
1532.00,0.0118
1531.00,0.0118
1530.00,0.0118
1529.00,0.0118
1528.00,0.0119
1527.00,0.0119
1526.00,0.0120
1525.00,0.0120
1524.00,0.0120
1523.00,0.0121
1522.00,0.0122
1521.00,0.0122
1520.00,0.0122
1519.00,0.0123
1518.00,0.0123
1517.00,0.0124
1516.00,0.0124
1515.00,0.0124
1514.00,0.0125
1513.00,0.0126
1512.00,0.0127
1511.00,0.0129
1510.00,0.0131
1509.00,0.0134
1508.00,0.0138
1507.00,0.0145
1506.00,0.0154
1505.00,0.0163
1504.00,0.0171
1503.00,0.0179
1502.00,0.0188
1501.00,0.0199
1500.00,0.0211
1499.00,0.0225
1498.00,0.0239
1497.00,0.0254
1496.00,0.0266
1495.00,0.0273
1494.00,0.0276
1493.00,0.0276
1492.00,0.0272
1491.00,0.0265
1490.00,0.0254
1489.00,0.0241
1488.00,0.0227
1487.00,0.0214
1486.00,0.0201
1485.00,0.0191
1484.00,0.0182
1483.00,0.0175
1482.00,0.0169
1481.00,0.0165
1480.00,0.0163
1479.00,0.0163
1478.00,0.0164
1477.00,0.0169
1476.00,0.0175
1475.00,0.0184
1474.00,0.0196
1473.00,0.0215
1472.00,0.0239
1471.00,0.0263
1470.00,0.0286
1469.00,0.0310
1468.00,0.0335
1467.00,0.0363
1466.00,0.0394
1465.00,0.0429
1464.00,0.0461
1463.00,0.0484
1462.00,0.0496
1461.00,0.0502
1460.00,0.0502
1459.00,0.0497
1458.00,0.0484
1457.00,0.0468
1456.00,0.0451
1455.00,0.0438
1454.00,0.0428
1453.00,0.0422
1452.00,0.0420
1451.00,0.0421
1450.00,0.0427
1449.00,0.0438
1448.00,0.0455
1447.00,0.0475
1446.00,0.0496
1445.00,0.0517
1444.00,0.0539
1443.00,0.0562
1442.00,0.0585
1441.00,0.0606
1440.00,0.0625
1439.00,0.0641
1438.00,0.0657
1437.00,0.0678
1436.00,0.0699
1435.00,0.0715
1434.00,0.0727
1433.00,0.0737
1432.00,0.0750
1431.00,0.0765
1430.00,0.0783
1429.00,0.0801
1428.00,0.0818
1427.00,0.0831
1426.00,0.0843
1425.00,0.0854
1424.00,0.0864
1423.00,0.0867
1422.00,0.0862
1421.00,0.0848
1420.00,0.0823
1419.00,0.0783
1418.00,0.0737
1417.00,0.0690
1416.00,0.0643
1415.00,0.0597
1414.00,0.0552
1413.00,0.0511
1412.00,0.0473
1411.00,0.0440
1410.00,0.0412
1409.00,0.0389
1408.00,0.0369
1407.00,0.0352
1406.00,0.0339
1405.00,0.0327
1404.00,0.0317
1403.00,0.0308
1402.00,0.0302
1401.00,0.0297
1400.00,0.0292
1399.00,0.0288
1398.00,0.0286
1397.00,0.0284
1396.00,0.0283
1395.00,0.0282
1394.00,0.0282
1393.00,0.0283
1392.00,0.0284
1391.00,0.0285
1390.00,0.0288
1389.00,0.0292
1388.00,0.0297
1387.00,0.0303
1386.00,0.0311
1385.00,0.0318
1384.00,0.0326
1383.00,0.0335
1382.00,0.0346
1381.00,0.0357
1380.00,0.0368
1379.00,0.0380
1378.00,0.0390
1377.00,0.0398
1376.00,0.0403
1375.00,0.0406
1374.00,0.0406
1373.00,0.0403
1372.00,0.0398
1371.00,0.0392
1370.00,0.0384
1369.00,0.0377
1368.00,0.0368
1367.00,0.0360
1366.00,0.0352
1365.00,0.0343
1364.00,0.0334
1363.00,0.0323
1362.00,0.0313
1361.00,0.0304
1360.00,0.0296
1359.00,0.0288
1358.00,0.0282
1357.00,0.0276
1356.00,0.0271
1355.00,0.0266
1354.00,0.0262
1353.00,0.0257
1352.00,0.0253
1351.00,0.0250
1350.00,0.0246
1349.00,0.0243
1348.00,0.0240
1347.00,0.0237
1346.00,0.0235
1345.00,0.0233
1344.00,0.0232
1343.00,0.0231
1342.00,0.0230
1341.00,0.0230
1340.00,0.0230
1339.00,0.0231
1338.00,0.0232
1337.00,0.0233
1336.00,0.0234
1335.00,0.0235
1334.00,0.0237
1333.00,0.0240
1332.00,0.0243
1331.00,0.0246
1330.00,0.0251
1329.00,0.0257
1328.00,0.0265
1327.00,0.0273
1326.00,0.0283
1325.00,0.0294
1324.00,0.0306
1323.00,0.0318
1322.00,0.0329
1321.00,0.0341
1320.00,0.0351
1319.00,0.0359
1318.00,0.0365
1317.00,0.0368
1316.00,0.0368
1315.00,0.0366
1314.00,0.0361
1313.00,0.0355
1312.00,0.0348
1311.00,0.0341
1310.00,0.0335
1309.00,0.0330
1308.00,0.0326
1307.00,0.0324
1306.00,0.0324
1305.00,0.0326
1304.00,0.0331
1303.00,0.0340
1302.00,0.0353
1301.00,0.0370
1300.00,0.0392
1299.00,0.0420
1298.00,0.0453
1297.00,0.0492
1296.00,0.0536
1295.00,0.0583
1294.00,0.0631
1293.00,0.0678
1292.00,0.0723
1291.00,0.0763
1290.00,0.0797
1289.00,0.0824
1288.00,0.0843
1287.00,0.0854
1286.00,0.0856
1285.00,0.0850
1284.00,0.0838
1283.00,0.0820
1282.00,0.0800
1281.00,0.0781
1280.00,0.0764
1279.00,0.0752
1278.00,0.0745
1277.00,0.0743
1276.00,0.0744
1275.00,0.0749
1274.00,0.0754
1273.00,0.0757
1272.00,0.0758
1271.00,0.0755
1270.00,0.0746
1269.00,0.0733
1268.00,0.0716
1267.00,0.0695
1266.00,0.0672
1265.00,0.0648
1264.00,0.0624
1263.00,0.0601
1262.00,0.0580
1261.00,0.0562
1260.00,0.0548
1259.00,0.0536
1258.00,0.0527
1257.00,0.0521
1256.00,0.0518
1255.00,0.0515
1254.00,0.0513
1253.00,0.0511
1252.00,0.0508
1251.00,0.0505
1250.00,0.0501
1249.00,0.0496
1248.00,0.0491
1247.00,0.0485
1246.00,0.0478
1245.00,0.0472
1244.00,0.0465
1243.00,0.0458
1242.00,0.0451
1241.00,0.0445
1240.00,0.0440
1239.00,0.0436
1238.00,0.0432
1237.00,0.0430
1236.00,0.0429
1235.00,0.0429
1234.00,0.0430
1233.00,0.0430
1232.00,0.0431
1231.00,0.0431
1230.00,0.0432
1229.00,0.0431
1228.00,0.0431
1227.00,0.0431
1226.00,0.0430
1225.00,0.0429
1224.00,0.0427
1223.00,0.0425
1222.00,0.0422
1221.00,0.0419
1220.00,0.0416
1219.00,0.0413
1218.00,0.0409
1217.00,0.0404
1216.00,0.0399
1215.00,0.0394
1214.00,0.0388
1213.00,0.0382
1212.00,0.0375
1211.00,0.0368
1210.00,0.0362
1209.00,0.0356
1208.00,0.0350
1207.00,0.0345
1206.00,0.0341
1205.00,0.0337
1204.00,0.0334
1203.00,0.0330
1202.00,0.0326
1201.00,0.0321
1200.00,0.0317
1199.00,0.0312
1198.00,0.0307
1197.00,0.0303
1196.00,0.0299
1195.00,0.0296
1194.00,0.0293
1193.00,0.0291
1192.00,0.0290
1191.00,0.0289
1190.00,0.0288
1189.00,0.0287
1188.00,0.0285
1187.00,0.0283
1186.00,0.0282
1185.00,0.0280
1184.00,0.0278
1183.00,0.0277
1182.00,0.0277
1181.00,0.0277
1180.00,0.0278
1179.00,0.0280
1178.00,0.0284
1177.00,0.0290
1176.00,0.0296
1175.00,0.0303
1174.00,0.0309
1173.00,0.0315
1172.00,0.0319
1171.00,0.0321
1170.00,0.0321
1169.00,0.0319
1168.00,0.0315
1167.00,0.0310
1166.00,0.0304
1165.00,0.0298
1164.00,0.0291
1163.00,0.0285
1162.00,0.0280
1161.00,0.0277
1160.00,0.0275
1159.00,0.0276
1158.00,0.0280
1157.00,0.0285
1156.00,0.0290
1155.00,0.0295
1154.00,0.0299
1153.00,0.0300
1152.00,0.0297
1151.00,0.0292
1150.00,0.0284
1149.00,0.0274
1148.00,0.0263
1147.00,0.0252
1146.00,0.0242
1145.00,0.0232
1144.00,0.0224
1143.00,0.0217
1142.00,0.0211
1141.00,0.0206
1140.00,0.0203
1139.00,0.0200
1138.00,0.0198
1137.00,0.0197
1136.00,0.0195
1135.00,0.0193
1134.00,0.0190
1133.00,0.0188
1132.00,0.0185
1131.00,0.0183
1130.00,0.0181
1129.00,0.0180
1128.00,0.0179
1127.00,0.0177
1126.00,0.0176
1125.00,0.0176
1124.00,0.0176
1123.00,0.0176
1122.00,0.0176
1121.00,0.0176
1120.00,0.0177
1119.00,0.0177
1118.00,0.0177
1117.00,0.0178
1116.00,0.0178
1115.00,0.0179
1114.00,0.0180
1113.00,0.0181
1112.00,0.0181
1111.00,0.0182
1110.00,0.0182
1109.00,0.0182
1108.00,0.0182
1107.00,0.0182
1106.00,0.0182
1105.00,0.0182
1104.00,0.0183
1103.00,0.0184
1102.00,0.0186
1101.00,0.0187
1100.00,0.0189
1099.00,0.0190
1098.00,0.0191
1097.00,0.0192
1096.00,0.0192
1095.00,0.0191
1094.00,0.0190
1093.00,0.0189
1092.00,0.0186
1091.00,0.0184
1090.00,0.0182
1089.00,0.0181
1088.00,0.0180
1087.00,0.0179
1086.00,0.0180
1085.00,0.0181
1084.00,0.0182
1083.00,0.0183
1082.00,0.0185
1081.00,0.0188
1080.00,0.0190
1079.00,0.0193
1078.00,0.0196
1077.00,0.0198
1076.00,0.0199
1075.00,0.0199
1074.00,0.0198
1073.00,0.0196
1072.00,0.0194
1071.00,0.0191
1070.00,0.0188
1069.00,0.0186
1068.00,0.0183
1067.00,0.0182
1066.00,0.0183
1065.00,0.0186
1064.00,0.0190
1063.00,0.0197
1062.00,0.0206
1061.00,0.0218
1060.00,0.0233
1059.00,0.0250
1058.00,0.0267
1057.00,0.0282
1056.00,0.0290
1055.00,0.0291
1054.00,0.0285
1053.00,0.0274
1052.00,0.0259
1051.00,0.0243
1050.00,0.0229
1049.00,0.0218
1048.00,0.0210
1047.00,0.0206
1046.00,0.0204
1045.00,0.0205
1044.00,0.0209
1043.00,0.0214
1042.00,0.0222
1041.00,0.0232
1040.00,0.0244
1039.00,0.0259
1038.00,0.0276
1037.00,0.0295
1036.00,0.0315
1035.00,0.0334
1034.00,0.0352
1033.00,0.0367
1032.00,0.0377
1031.00,0.0381
1030.00,0.0380
1029.00,0.0373
1028.00,0.0362
1027.00,0.0349
1026.00,0.0336
1025.00,0.0323
1024.00,0.0312
1023.00,0.0303
1022.00,0.0297
1021.00,0.0293
1020.00,0.0289
1019.00,0.0286
1018.00,0.0281
1017.00,0.0275
1016.00,0.0268
1015.00,0.0259
1014.00,0.0250
1013.00,0.0241
1012.00,0.0232
1011.00,0.0225
1010.00,0.0220
1009.00,0.0216
1008.00,0.0215
1007.00,0.0214
1006.00,0.0215
1005.00,0.0217
1004.00,0.0218
1003.00,0.0219
1002.00,0.0219
1001.00,0.0218
1000.00,0.0216
999.00,0.0212
998.00,0.0208
997.00,0.0203
996.00,0.0199
995.00,0.0195
994.00,0.0191
993.00,0.0189
992.00,0.0187
991.00,0.0186
990.00,0.0186
989.00,0.0185
988.00,0.0185
987.00,0.0183
986.00,0.0181
985.00,0.0179
984.00,0.0177
983.00,0.0174
982.00,0.0172
981.00,0.0169
980.00,0.0167
979.00,0.0165
978.00,0.0164
977.00,0.0162
976.00,0.0161
975.00,0.0160
974.00,0.0159
973.00,0.0159
972.00,0.0158
971.00,0.0158
970.00,0.0157
969.00,0.0157
968.00,0.0157
967.00,0.0157
966.00,0.0157
965.00,0.0157
964.00,0.0156
963.00,0.0155
962.00,0.0154
961.00,0.0153
960.00,0.0151
959.00,0.0148
958.00,0.0146
957.00,0.0143
956.00,0.0140
955.00,0.0138
954.00,0.0135
953.00,0.0132
952.00,0.0130
951.00,0.0128
950.00,0.0127
949.00,0.0126
948.00,0.0125
947.00,0.0125
946.00,0.0125
945.00,0.0126
944.00,0.0126
943.00,0.0128
942.00,0.0130
941.00,0.0132
940.00,0.0136
939.00,0.0141
938.00,0.0146
937.00,0.0152
936.00,0.0157
935.00,0.0162
934.00,0.0166
933.00,0.0168
932.00,0.0168
931.00,0.0166
930.00,0.0164
929.00,0.0161
928.00,0.0158
927.00,0.0156
926.00,0.0154
925.00,0.0152
924.00,0.0150
923.00,0.0149
922.00,0.0148
921.00,0.0148
920.00,0.0148
919.00,0.0149
918.00,0.0149
917.00,0.0150
916.00,0.0152
915.00,0.0153
914.00,0.0155
913.00,0.0156
912.00,0.0158
911.00,0.0160
910.00,0.0163
909.00,0.0166
908.00,0.0169
907.00,0.0173
906.00,0.0178
905.00,0.0183
904.00,0.0189
903.00,0.0194
902.00,0.0200
901.00,0.0206
900.00,0.0211
899.00,0.0216
898.00,0.0220
897.00,0.0223
896.00,0.0226
895.00,0.0228
894.00,0.0230
893.00,0.0232
892.00,0.0233
891.00,0.0234
890.00,0.0235
889.00,0.0236
888.00,0.0237
887.00,0.0238
886.00,0.0239
885.00,0.0239
884.00,0.0239
883.00,0.0239
882.00,0.0238
881.00,0.0237
880.00,0.0235
879.00,0.0233
878.00,0.0230
877.00,0.0227
876.00,0.0223
875.00,0.0220
874.00,0.0217
873.00,0.0214
872.00,0.0211
871.00,0.0209
870.00,0.0207
869.00,0.0207
868.00,0.0207
867.00,0.0208
866.00,0.0210
865.00,0.0213
864.00,0.0215
863.00,0.0218
862.00,0.0222
861.00,0.0227
860.00,0.0233
859.00,0.0240
858.00,0.0247
857.00,0.0254
856.00,0.0262
855.00,0.0270
854.00,0.0277
853.00,0.0284
852.00,0.0291
851.00,0.0297
850.00,0.0302
849.00,0.0307
848.00,0.0310
847.00,0.0313
846.00,0.0316
845.00,0.0317
844.00,0.0317
843.00,0.0317
842.00,0.0316
841.00,0.0316
840.00,0.0315
839.00,0.0314
838.00,0.0313
837.00,0.0312
836.00,0.0312
835.00,0.0312
834.00,0.0312
833.00,0.0312
832.00,0.0312
831.00,0.0310
830.00,0.0308
829.00,0.0304
828.00,0.0300
827.00,0.0294
826.00,0.0288
825.00,0.0281
824.00,0.0273
823.00,0.0266
822.00,0.0258
821.00,0.0251
820.00,0.0244
819.00,0.0238
818.00,0.0233
817.00,0.0228
816.00,0.0224
815.00,0.0221
814.00,0.0219
813.00,0.0217
812.00,0.0215
811.00,0.0214
810.00,0.0214
809.00,0.0215
808.00,0.0215
807.00,0.0216
806.00,0.0216
805.00,0.0216
804.00,0.0215
803.00,0.0213
802.00,0.0211
801.00,0.0208
800.00,0.0206
799.00,0.0205
798.00,0.0205
797.00,0.0205
796.00,0.0207
795.00,0.0208
794.00,0.0208
793.00,0.0209
792.00,0.0209
791.00,0.0208
790.00,0.0207
789.00,0.0206
788.00,0.0205
787.00,0.0204
786.00,0.0203
785.00,0.0202
784.00,0.0202
783.00,0.0202
782.00,0.0203
781.00,0.0205
780.00,0.0208
779.00,0.0211
778.00,0.0214
777.00,0.0217
776.00,0.0220
775.00,0.0223
774.00,0.0225
773.00,0.0228
772.00,0.0229
771.00,0.0231
770.00,0.0232
769.00,0.0233
768.00,0.0234
767.00,0.0235
766.00,0.0237
765.00,0.0239
764.00,0.0242
763.00,0.0245
762.00,0.0249
761.00,0.0253
760.00,0.0258
759.00,0.0262
758.00,0.0266
757.00,0.0270
756.00,0.0273
755.00,0.0275
754.00,0.0276
753.00,0.0278
752.00,0.0279
751.00,0.0280
750.00,0.0281
749.00,0.0284
748.00,0.0287
747.00,0.0291
746.00,0.0295
745.00,0.0299
744.00,0.0303
743.00,0.0308
742.00,0.0312
741.00,0.0316
740.00,0.0320
739.00,0.0325
738.00,0.0330
737.00,0.0335
736.00,0.0338
735.00,0.0340
734.00,0.0342
733.00,0.0342
732.00,0.0341
731.00,0.0339
730.00,0.0334
729.00,0.0329
728.00,0.0322
727.00,0.0315
726.00,0.0309
725.00,0.0303
724.00,0.0298
723.00,0.0294
722.00,0.0290
721.00,0.0286
720.00,0.0282
719.00,0.0280
718.00,0.0278
717.00,0.0276
716.00,0.0274
715.00,0.0273
714.00,0.0272
713.00,0.0272
712.00,0.0272
711.00,0.0272
710.00,0.0272
709.00,0.0272
708.00,0.0272
707.00,0.0272
706.00,0.0273
705.00,0.0274
704.00,0.0275
703.00,0.0277
702.00,0.0278
701.00,0.0279
700.00,0.0280
699.00,0.0281
698.00,0.0283
697.00,0.0285
696.00,0.0287
695.00,0.0289
694.00,0.0292
693.00,0.0294
692.00,0.0296
691.00,0.0298
690.00,0.0300
689.00,0.0303
688.00,0.0307
687.00,0.0311
686.00,0.0315
685.00,0.0320
684.00,0.0324
683.00,0.0328
682.00,0.0332
681.00,0.0336
680.00,0.0340
679.00,0.0344
678.00,0.0347
677.00,0.0352
676.00,0.0356
675.00,0.0361
674.00,0.0365
673.00,0.0369
672.00,0.0372
671.00,0.0376
670.00,0.0380
669.00,0.0385
668.00,0.0395
667.00,0.0404
666.00,0.0409
665.00,0.0413
664.00,0.0418
663.00,0.0423
662.00,0.0430
661.00,0.0437
660.00,0.0445
659.00,0.0453
658.00,0.0462
657.00,0.0470
656.00,0.0479
655.00,0.0487
654.00,0.0494
653.00,0.0501
652.00,0.0507
651.00,0.0512
650.00,0.0516
649.00,0.0518
648.00,0.0520
647.00,0.0519
646.00,0.0518
645.00,0.0514
644.00,0.0509
643.00,0.0502
642.00,0.0496
641.00,0.0489
640.00,0.0482
639.00,0.0475
638.00,0.0468
637.00,0.0460
636.00,0.0453
635.00,0.0446
634.00,0.0439
633.00,0.0434
632.00,0.0428
631.00,0.0422
630.00,0.0417
629.00,0.0413
628.00,0.0410
627.00,0.0407
626.00,0.0404
625.00,0.0402
624.00,0.0400
623.00,0.0398
622.00,0.0396
621.00,0.0394
620.00,0.0394
619.00,0.0394
618.00,0.0394
617.00,0.0394
616.00,0.0394
615.00,0.0395
614.00,0.0396
613.00,0.0398
612.00,0.0402
611.00,0.0406
610.00,0.0408
609.00,0.0408
608.00,0.0406
607.00,0.0404
606.00,0.0404
605.00,0.0405
604.00,0.0407
603.00,0.0409
602.00,0.0411
601.00,0.0413
600.00,0.0414
599.00,0.0416
598.00,0.0417
597.00,0.0419
596.00,0.0421
595.00,0.0423
594.00,0.0425
593.00,0.0428
592.00,0.0432
591.00,0.0436
590.00,0.0441
589.00,0.0447
588.00,0.0453
587.00,0.0459
586.00,0.0466
585.00,0.0473
584.00,0.0481
583.00,0.0490
582.00,0.0500
581.00,0.0509
580.00,0.0517
579.00,0.0524
578.00,0.0529
577.00,0.0533
576.00,0.0536
575.00,0.0539
574.00,0.0539
573.00,0.0539
572.00,0.0537
571.00,0.0535
570.00,0.0533
569.00,0.0529
568.00,0.0525
567.00,0.0521
566.00,0.0517
565.00,0.0512
564.00,0.0506
563.00,0.0501
562.00,0.0496
561.00,0.0493
560.00,0.0490
559.00,0.0489
558.00,0.0488
557.00,0.0487
556.00,0.0487
555.00,0.0487
554.00,0.0485
553.00,0.0483
552.00,0.0480
551.00,0.0478
550.00,0.0477
549.00,0.0475
548.00,0.0472
547.00,0.0469
546.00,0.0465
545.00,0.0460
544.00,0.0455
543.00,0.0451
542.00,0.0449
541.00,0.0447
540.00,0.0445
539.00,0.0444
538.00,0.0444
537.00,0.0443
536.00,0.0443
535.00,0.0443
534.00,0.0443
533.00,0.0443
532.00,0.0441
531.00,0.0439
530.00,0.0438
529.00,0.0439
528.00,0.0441
527.00,0.0445
526.00,0.0450
525.00,0.0454
524.00,0.0455
523.00,0.0455
522.00,0.0454
521.00,0.0453
520.00,0.0449
519.00,0.0445
518.00,0.0440
517.00,0.0436
516.00,0.0432
515.00,0.0429
514.00,0.0426
513.00,0.0423
512.00,0.0421
511.00,0.0420
510.00,0.0419
509.00,0.0418
508.00,0.0417
507.00,0.0415
506.00,0.0412
505.00,0.0410
504.00,0.0410
503.00,0.0409
502.00,0.0410
501.00,0.0411
500.00,0.0413
499.00,0.0415
498.00,0.0416
497.00,0.0417
496.00,0.0418
495.00,0.0420
494.00,0.0422
493.00,0.0423
492.00,0.0423
491.00,0.0424
490.00,0.0426
489.00,0.0427
488.00,0.0427
487.00,0.0427
486.00,0.0427
485.00,0.0427
484.00,0.0426
483.00,0.0427
482.00,0.0429
481.00,0.0431
480.00,0.0433
479.00,0.0432
478.00,0.0430
477.00,0.0428
476.00,0.0426
475.00,0.0427
474.00,0.0430
473.00,0.0434
472.00,0.0436
471.00,0.0438
470.00,0.0439
469.00,0.0442
468.00,0.0443
467.00,0.0443
466.00,0.0442
465.00,0.0441
464.00,0.0440
463.00,0.0440
462.00,0.0440
461.00,0.0438
460.00,0.0432
459.00,0.0424
458.00,0.0419
457.00,0.0418
456.00,0.0420
455.00,0.0421
454.00,0.0422
453.00,0.0420
452.00,0.0416
451.00,0.0411
450.00,0.0408
449.00,0.0409
448.00,0.0411
447.00,0.0413
446.00,0.0414
445.00,0.0413
444.00,0.0410
443.00,0.0406
442.00,0.0402
441.00,0.0398
440.00,0.0395
439.00,0.0392
438.00,0.0390
437.00,0.0390
436.00,0.0391
435.00,0.0392
434.00,0.0395
433.00,0.0397
432.00,0.0398
431.00,0.0398
430.00,0.0400
429.00,0.0403
428.00,0.0408
427.00,0.0410
426.00,0.0411
425.00,0.0410
424.00,0.0407
423.00,0.0405
422.00,0.0404
421.00,0.0404
420.00,0.0406
419.00,0.0408
418.00,0.0409
417.00,0.0407
416.00,0.0402
415.00,0.0397
414.00,0.0394
413.00,0.0393
412.00,0.0396
411.00,0.0401
410.00,0.0405
409.00,0.0405
408.00,0.0402
407.00,0.0398
406.00,0.0399
405.00,0.0401
404.00,0.0403
403.00,0.0405
402.00,0.0410
401.00,0.0414
400.00,0.0413
