Created as New Dataset,Sample 883 By YargerLab Date Wednesday, July 23 2025
cm-1,A
4000.00,0.0027
3999.00,0.0027
3998.00,0.0027
3997.00,0.0027
3996.00,0.0027
3995.00,0.0027
3994.00,0.0026
3993.00,0.0026
3992.00,0.0026
3991.00,0.0026
3990.00,0.0026
3989.00,0.0027
3988.00,0.0027
3987.00,0.0026
3986.00,0.0026
3985.00,0.0026
3984.00,0.0026
3983.00,0.0026
3982.00,0.0026
3981.00,0.0026
3980.00,0.0026
3979.00,0.0026
3978.00,0.0025
3977.00,0.0025
3976.00,0.0025
3975.00,0.0026
3974.00,0.0026
3973.00,0.0026
3972.00,0.0026
3971.00,0.0026
3970.00,0.0026
3969.00,0.0026
3968.00,0.0026
3967.00,0.0026
3966.00,0.0025
3965.00,0.0025
3964.00,0.0025
3963.00,0.0025
3962.00,0.0025
3961.00,0.0025
3960.00,0.0025
3959.00,0.0025
3958.00,0.0026
3957.00,0.0026
3956.00,0.0026
3955.00,0.0026
3954.00,0.0026
3953.00,0.0026
3952.00,0.0025
3951.00,0.0025
3950.00,0.0025
3949.00,0.0025
3948.00,0.0025
3947.00,0.0025
3946.00,0.0025
3945.00,0.0025
3944.00,0.0025
3943.00,0.0025
3942.00,0.0025
3941.00,0.0025
3940.00,0.0026
3939.00,0.0026
3938.00,0.0026
3937.00,0.0026
3936.00,0.0026
3935.00,0.0026
3934.00,0.0025
3933.00,0.0025
3932.00,0.0026
3931.00,0.0026
3930.00,0.0026
3929.00,0.0026
3928.00,0.0026
3927.00,0.0026
3926.00,0.0026
3925.00,0.0026
3924.00,0.0026
3923.00,0.0026
3922.00,0.0026
3921.00,0.0026
3920.00,0.0026
3919.00,0.0026
3918.00,0.0026
3917.00,0.0026
3916.00,0.0026
3915.00,0.0026
3914.00,0.0026
3913.00,0.0026
3912.00,0.0026
3911.00,0.0026
3910.00,0.0026
3909.00,0.0026
3908.00,0.0025
3907.00,0.0025
3906.00,0.0025
3905.00,0.0025
3904.00,0.0026
3903.00,0.0026
3902.00,0.0026
3901.00,0.0026
3900.00,0.0026
3899.00,0.0027
3898.00,0.0027
3897.00,0.0027
3896.00,0.0027
3895.00,0.0027
3894.00,0.0027
3893.00,0.0027
3892.00,0.0027
3891.00,0.0027
3890.00,0.0026
3889.00,0.0026
3888.00,0.0026
3887.00,0.0026
3886.00,0.0026
3885.00,0.0026
3884.00,0.0026
3883.00,0.0025
3882.00,0.0025
3881.00,0.0025
3880.00,0.0025
3879.00,0.0025
3878.00,0.0025
3877.00,0.0025
3876.00,0.0026
3875.00,0.0026
3874.00,0.0026
3873.00,0.0026
3872.00,0.0026
3871.00,0.0026
3870.00,0.0026
3869.00,0.0026
3868.00,0.0026
3867.00,0.0026
3866.00,0.0026
3865.00,0.0026
3864.00,0.0026
3863.00,0.0026
3862.00,0.0026
3861.00,0.0025
3860.00,0.0025
3859.00,0.0025
3858.00,0.0026
3857.00,0.0026
3856.00,0.0026
3855.00,0.0026
3854.00,0.0026
3853.00,0.0026
3852.00,0.0026
3851.00,0.0026
3850.00,0.0026
3849.00,0.0026
3848.00,0.0026
3847.00,0.0026
3846.00,0.0026
3845.00,0.0026
3844.00,0.0026
3843.00,0.0026
3842.00,0.0026
3841.00,0.0026
3840.00,0.0026
3839.00,0.0026
3838.00,0.0026
3837.00,0.0026
3836.00,0.0026
3835.00,0.0026
3834.00,0.0026
3833.00,0.0026
3832.00,0.0026
3831.00,0.0026
3830.00,0.0026
3829.00,0.0026
3828.00,0.0026
3827.00,0.0026
3826.00,0.0026
3825.00,0.0026
3824.00,0.0026
3823.00,0.0025
3822.00,0.0025
3821.00,0.0025
3820.00,0.0025
3819.00,0.0025
3818.00,0.0026
3817.00,0.0026
3816.00,0.0026
3815.00,0.0026
3814.00,0.0026
3813.00,0.0027
3812.00,0.0027
3811.00,0.0027
3810.00,0.0026
3809.00,0.0026
3808.00,0.0026
3807.00,0.0026
3806.00,0.0026
3805.00,0.0025
3804.00,0.0025
3803.00,0.0025
3802.00,0.0025
3801.00,0.0025
3800.00,0.0025
3799.00,0.0025
3798.00,0.0025
3797.00,0.0026
3796.00,0.0026
3795.00,0.0026
3794.00,0.0026
3793.00,0.0026
3792.00,0.0026
3791.00,0.0026
3790.00,0.0026
3789.00,0.0026
3788.00,0.0025
3787.00,0.0025
3786.00,0.0025
3785.00,0.0025
3784.00,0.0025
3783.00,0.0025
3782.00,0.0025
3781.00,0.0025
3780.00,0.0025
3779.00,0.0025
3778.00,0.0024
3777.00,0.0024
3776.00,0.0024
3775.00,0.0025
3774.00,0.0025
3773.00,0.0025
3772.00,0.0025
3771.00,0.0025
3770.00,0.0024
3769.00,0.0024
3768.00,0.0024
3767.00,0.0024
3766.00,0.0024
3765.00,0.0024
3764.00,0.0024
3763.00,0.0024
3762.00,0.0024
3761.00,0.0024
3760.00,0.0024
3759.00,0.0024
3758.00,0.0023
3757.00,0.0023
3756.00,0.0023
3755.00,0.0023
3754.00,0.0023
3753.00,0.0023
3752.00,0.0023
3751.00,0.0023
3750.00,0.0023
3749.00,0.0023
3748.00,0.0023
3747.00,0.0023
3746.00,0.0023
3745.00,0.0024
3744.00,0.0023
3743.00,0.0023
3742.00,0.0023
3741.00,0.0022
3740.00,0.0022
3739.00,0.0022
3738.00,0.0022
3737.00,0.0022
3736.00,0.0022
3735.00,0.0022
3734.00,0.0023
3733.00,0.0023
3732.00,0.0023
3731.00,0.0023
3730.00,0.0023
3729.00,0.0023
3728.00,0.0023
3727.00,0.0023
3726.00,0.0023
3725.00,0.0023
3724.00,0.0023
3723.00,0.0023
3722.00,0.0023
3721.00,0.0023
3720.00,0.0024
3719.00,0.0024
3718.00,0.0024
3717.00,0.0024
3716.00,0.0024
3715.00,0.0024
3714.00,0.0024
3713.00,0.0024
3712.00,0.0025
3711.00,0.0025
3710.00,0.0025
3709.00,0.0025
3708.00,0.0025
3707.00,0.0025
3706.00,0.0024
3705.00,0.0024
3704.00,0.0024
3703.00,0.0024
3702.00,0.0025
3701.00,0.0025
3700.00,0.0026
3699.00,0.0026
3698.00,0.0025
3697.00,0.0025
3696.00,0.0025
3695.00,0.0025
3694.00,0.0026
3693.00,0.0026
3692.00,0.0027
3691.00,0.0027
3690.00,0.0028
3689.00,0.0029
3688.00,0.0030
3687.00,0.0031
3686.00,0.0032
3685.00,0.0034
3684.00,0.0035
3683.00,0.0037
3682.00,0.0038
3681.00,0.0040
3680.00,0.0042
3679.00,0.0043
3678.00,0.0045
3677.00,0.0047
3676.00,0.0049
3675.00,0.0051
3674.00,0.0053
3673.00,0.0055
3672.00,0.0056
3671.00,0.0057
3670.00,0.0058
3669.00,0.0059
3668.00,0.0059
3667.00,0.0060
3666.00,0.0061
3665.00,0.0062
3664.00,0.0062
3663.00,0.0063
3662.00,0.0064
3661.00,0.0065
3660.00,0.0065
3659.00,0.0065
3658.00,0.0065
3657.00,0.0065
3656.00,0.0065
3655.00,0.0065
3654.00,0.0064
3653.00,0.0064
3652.00,0.0064
3651.00,0.0064
3650.00,0.0064
3649.00,0.0063
3648.00,0.0063
3647.00,0.0062
3646.00,0.0061
3645.00,0.0060
3644.00,0.0059
3643.00,0.0058
3642.00,0.0057
3641.00,0.0056
3640.00,0.0056
3639.00,0.0056
3638.00,0.0057
3637.00,0.0056
3636.00,0.0055
3635.00,0.0052
3634.00,0.0049
3633.00,0.0046
3632.00,0.0044
3631.00,0.0042
3630.00,0.0041
3629.00,0.0040
3628.00,0.0040
3627.00,0.0040
3626.00,0.0039
3625.00,0.0039
3624.00,0.0039
3623.00,0.0039
3622.00,0.0039
3621.00,0.0039
3620.00,0.0038
3619.00,0.0038
3618.00,0.0038
3617.00,0.0038
3616.00,0.0038
3615.00,0.0038
3614.00,0.0038
3613.00,0.0038
3612.00,0.0038
3611.00,0.0038
3610.00,0.0038
3609.00,0.0037
3608.00,0.0038
3607.00,0.0038
3606.00,0.0038
3605.00,0.0038
3604.00,0.0038
3603.00,0.0038
3602.00,0.0038
3601.00,0.0038
3600.00,0.0039
3599.00,0.0039
3598.00,0.0039
3597.00,0.0039
3596.00,0.0040
3595.00,0.0040
3594.00,0.0040
3593.00,0.0040
3592.00,0.0040
3591.00,0.0041
3590.00,0.0041
3589.00,0.0041
3588.00,0.0042
3587.00,0.0042
3586.00,0.0043
3585.00,0.0043
3584.00,0.0043
3583.00,0.0044
3582.00,0.0044
3581.00,0.0045
3580.00,0.0045
3579.00,0.0045
3578.00,0.0045
3577.00,0.0046
3576.00,0.0046
3575.00,0.0047
3574.00,0.0047
3573.00,0.0047
3572.00,0.0048
3571.00,0.0048
3570.00,0.0048
3569.00,0.0049
3568.00,0.0049
3567.00,0.0050
3566.00,0.0050
3565.00,0.0051
3564.00,0.0051
3563.00,0.0052
3562.00,0.0053
3561.00,0.0054
3560.00,0.0054
3559.00,0.0055
3558.00,0.0056
3557.00,0.0056
3556.00,0.0057
3555.00,0.0057
3554.00,0.0058
3553.00,0.0058
3552.00,0.0059
3551.00,0.0060
3550.00,0.0060
3549.00,0.0061
3548.00,0.0062
3547.00,0.0062
3546.00,0.0063
3545.00,0.0064
3544.00,0.0065
3543.00,0.0066
3542.00,0.0067
3541.00,0.0068
3540.00,0.0069
3539.00,0.0069
3538.00,0.0070
3537.00,0.0071
3536.00,0.0071
3535.00,0.0072
3534.00,0.0073
3533.00,0.0074
3532.00,0.0074
3531.00,0.0075
3530.00,0.0076
3529.00,0.0077
3528.00,0.0078
3527.00,0.0079
3526.00,0.0080
3525.00,0.0081
3524.00,0.0082
3523.00,0.0083
3522.00,0.0084
3521.00,0.0084
3520.00,0.0085
3519.00,0.0086
3518.00,0.0087
3517.00,0.0088
3516.00,0.0090
3515.00,0.0091
3514.00,0.0092
3513.00,0.0093
3512.00,0.0094
3511.00,0.0095
3510.00,0.0096
3509.00,0.0097
3508.00,0.0099
3507.00,0.0100
3506.00,0.0101
3505.00,0.0103
3504.00,0.0104
3503.00,0.0106
3502.00,0.0108
3501.00,0.0109
3500.00,0.0111
3499.00,0.0112
3498.00,0.0113
3497.00,0.0114
3496.00,0.0116
3495.00,0.0117
3494.00,0.0118
3493.00,0.0120
3492.00,0.0121
3491.00,0.0123
3490.00,0.0125
3489.00,0.0126
3488.00,0.0128
3487.00,0.0129
3486.00,0.0130
3485.00,0.0132
3484.00,0.0133
3483.00,0.0135
3482.00,0.0136
3481.00,0.0138
3480.00,0.0140
3479.00,0.0142
3478.00,0.0143
3477.00,0.0145
3476.00,0.0147
3475.00,0.0149
3474.00,0.0151
3473.00,0.0153
3472.00,0.0155
3471.00,0.0156
3470.00,0.0158
3469.00,0.0160
3468.00,0.0162
3467.00,0.0164
3466.00,0.0165
3465.00,0.0167
3464.00,0.0169
3463.00,0.0170
3462.00,0.0172
3461.00,0.0174
3460.00,0.0176
3459.00,0.0178
3458.00,0.0179
3457.00,0.0181
3456.00,0.0183
3455.00,0.0185
3454.00,0.0186
3453.00,0.0188
3452.00,0.0189
3451.00,0.0191
3450.00,0.0192
3449.00,0.0194
3448.00,0.0196
3447.00,0.0198
3446.00,0.0199
3445.00,0.0201
3444.00,0.0203
3443.00,0.0204
3442.00,0.0206
3441.00,0.0208
3440.00,0.0209
3439.00,0.0211
3438.00,0.0212
3437.00,0.0214
3436.00,0.0215
3435.00,0.0216
3434.00,0.0218
3433.00,0.0220
3432.00,0.0221
3431.00,0.0223
3430.00,0.0225
3429.00,0.0226
3428.00,0.0228
3427.00,0.0229
3426.00,0.0231
3425.00,0.0232
3424.00,0.0234
3423.00,0.0235
3422.00,0.0237
3421.00,0.0239
3420.00,0.0240
3419.00,0.0242
3418.00,0.0243
3417.00,0.0245
3416.00,0.0247
3415.00,0.0249
3414.00,0.0250
3413.00,0.0252
3412.00,0.0253
3411.00,0.0255
3410.00,0.0256
3409.00,0.0258
3408.00,0.0260
3407.00,0.0262
3406.00,0.0263
3405.00,0.0265
3404.00,0.0267
3403.00,0.0269
3402.00,0.0270
3401.00,0.0272
3400.00,0.0273
3399.00,0.0275
3398.00,0.0276
3397.00,0.0278
3396.00,0.0279
3395.00,0.0281
3394.00,0.0283
3393.00,0.0285
3392.00,0.0287
3391.00,0.0288
3390.00,0.0290
3389.00,0.0291
3388.00,0.0293
3387.00,0.0294
3386.00,0.0295
3385.00,0.0297
3384.00,0.0298
3383.00,0.0300
3382.00,0.0301
3381.00,0.0303
3380.00,0.0304
3379.00,0.0305
3378.00,0.0307
3377.00,0.0308
3376.00,0.0310
3375.00,0.0311
3374.00,0.0312
3373.00,0.0313
3372.00,0.0315
3371.00,0.0316
3370.00,0.0318
3369.00,0.0319
3368.00,0.0321
3367.00,0.0322
3366.00,0.0323
3365.00,0.0324
3364.00,0.0325
3363.00,0.0326
3362.00,0.0327
3361.00,0.0329
3360.00,0.0329
3359.00,0.0330
3358.00,0.0331
3357.00,0.0332
3356.00,0.0333
3355.00,0.0333
3354.00,0.0334
3353.00,0.0335
3352.00,0.0336
3351.00,0.0337
3350.00,0.0337
3349.00,0.0338
3348.00,0.0339
3347.00,0.0339
3346.00,0.0339
3345.00,0.0340
3344.00,0.0340
3343.00,0.0340
3342.00,0.0341
3341.00,0.0341
3340.00,0.0341
3339.00,0.0341
3338.00,0.0341
3337.00,0.0342
3336.00,0.0342
3335.00,0.0342
3334.00,0.0342
3333.00,0.0342
3332.00,0.0342
3331.00,0.0342
3330.00,0.0342
3329.00,0.0342
3328.00,0.0342
3327.00,0.0342
3326.00,0.0342
3325.00,0.0341
3324.00,0.0341
3323.00,0.0341
3322.00,0.0340
3321.00,0.0340
3320.00,0.0340
3319.00,0.0339
3318.00,0.0339
3317.00,0.0338
3316.00,0.0338
3315.00,0.0337
3314.00,0.0337
3313.00,0.0336
3312.00,0.0336
3311.00,0.0335
3310.00,0.0335
3309.00,0.0334
3308.00,0.0334
3307.00,0.0333
3306.00,0.0332
3305.00,0.0331
3304.00,0.0330
3303.00,0.0329
3302.00,0.0329
3301.00,0.0328
3300.00,0.0327
3299.00,0.0326
3298.00,0.0325
3297.00,0.0325
3296.00,0.0324
3295.00,0.0323
3294.00,0.0322
3293.00,0.0321
3292.00,0.0320
3291.00,0.0319
3290.00,0.0318
3289.00,0.0317
3288.00,0.0316
3287.00,0.0315
3286.00,0.0314
3285.00,0.0313
3284.00,0.0312
3283.00,0.0311
3282.00,0.0310
3281.00,0.0309
3280.00,0.0308
3279.00,0.0307
3278.00,0.0306
3277.00,0.0305
3276.00,0.0303
3275.00,0.0302
3274.00,0.0300
3273.00,0.0299
3272.00,0.0298
3271.00,0.0296
3270.00,0.0295
3269.00,0.0294
3268.00,0.0292
3267.00,0.0291
3266.00,0.0290
3265.00,0.0289
3264.00,0.0287
3263.00,0.0286
3262.00,0.0285
3261.00,0.0283
3260.00,0.0282
3259.00,0.0281
3258.00,0.0279
3257.00,0.0278
3256.00,0.0277
3255.00,0.0275
3254.00,0.0274
3253.00,0.0272
3252.00,0.0271
3251.00,0.0270
3250.00,0.0268
3249.00,0.0267
3248.00,0.0266
3247.00,0.0264
3246.00,0.0263
3245.00,0.0261
3244.00,0.0260
3243.00,0.0258
3242.00,0.0256
3241.00,0.0255
3240.00,0.0253
3239.00,0.0252
3238.00,0.0250
3237.00,0.0249
3236.00,0.0247
3235.00,0.0246
3234.00,0.0244
3233.00,0.0243
3232.00,0.0241
3231.00,0.0240
3230.00,0.0238
3229.00,0.0236
3228.00,0.0235
3227.00,0.0233
3226.00,0.0232
3225.00,0.0231
3224.00,0.0229
3223.00,0.0228
3222.00,0.0226
3221.00,0.0225
3220.00,0.0223
3219.00,0.0221
3218.00,0.0220
3217.00,0.0219
3216.00,0.0217
3215.00,0.0216
3214.00,0.0214
3213.00,0.0213
3212.00,0.0211
3211.00,0.0209
3210.00,0.0208
3209.00,0.0207
3208.00,0.0205
3207.00,0.0204
3206.00,0.0203
3205.00,0.0201
3204.00,0.0200
3203.00,0.0199
3202.00,0.0198
3201.00,0.0196
3200.00,0.0195
3199.00,0.0194
3198.00,0.0192
3197.00,0.0191
3196.00,0.0189
3195.00,0.0188
3194.00,0.0187
3193.00,0.0186
3192.00,0.0184
3191.00,0.0183
3190.00,0.0181
3189.00,0.0179
3188.00,0.0178
3187.00,0.0177
3186.00,0.0176
3185.00,0.0175
3184.00,0.0173
3183.00,0.0172
3182.00,0.0171
3181.00,0.0169
3180.00,0.0168
3179.00,0.0167
3178.00,0.0166
3177.00,0.0165
3176.00,0.0163
3175.00,0.0162
3174.00,0.0160
3173.00,0.0159
3172.00,0.0158
3171.00,0.0156
3170.00,0.0155
3169.00,0.0154
3168.00,0.0153
3167.00,0.0152
3166.00,0.0150
3165.00,0.0149
3164.00,0.0148
3163.00,0.0147
3162.00,0.0146
3161.00,0.0145
3160.00,0.0143
3159.00,0.0142
3158.00,0.0141
3157.00,0.0140
3156.00,0.0139
3155.00,0.0138
3154.00,0.0138
3153.00,0.0137
3152.00,0.0136
3151.00,0.0135
3150.00,0.0133
3149.00,0.0132
3148.00,0.0131
3147.00,0.0130
3146.00,0.0130
3145.00,0.0129
3144.00,0.0128
3143.00,0.0127
3142.00,0.0126
3141.00,0.0125
3140.00,0.0124
3139.00,0.0124
3138.00,0.0123
3137.00,0.0122
3136.00,0.0121
3135.00,0.0121
3134.00,0.0120
3133.00,0.0119
3132.00,0.0118
3131.00,0.0116
3130.00,0.0115
3129.00,0.0115
3128.00,0.0114
3127.00,0.0113
3126.00,0.0113
3125.00,0.0112
3124.00,0.0111
3123.00,0.0111
3122.00,0.0110
3121.00,0.0110
3120.00,0.0109
3119.00,0.0108
3118.00,0.0107
3117.00,0.0107
3116.00,0.0106
3115.00,0.0105
3114.00,0.0105
3113.00,0.0104
3112.00,0.0103
3111.00,0.0103
3110.00,0.0102
3109.00,0.0102
3108.00,0.0101
3107.00,0.0101
3106.00,0.0100
3105.00,0.0100
3104.00,0.0099
3103.00,0.0099
3102.00,0.0098
3101.00,0.0097
3100.00,0.0097
3099.00,0.0096
3098.00,0.0096
3097.00,0.0095
3096.00,0.0095
3095.00,0.0094
3094.00,0.0094
3093.00,0.0094
3092.00,0.0094
3091.00,0.0093
3090.00,0.0093
3089.00,0.0093
3088.00,0.0092
3087.00,0.0092
3086.00,0.0092
3085.00,0.0092
3084.00,0.0091
3083.00,0.0091
3082.00,0.0090
3081.00,0.0090
3080.00,0.0090
3079.00,0.0090
3078.00,0.0090
3077.00,0.0090
3076.00,0.0089
3075.00,0.0089
3074.00,0.0089
3073.00,0.0089
3072.00,0.0088
3071.00,0.0088
3070.00,0.0087
3069.00,0.0086
3068.00,0.0086
3067.00,0.0085
3066.00,0.0085
3065.00,0.0084
3064.00,0.0083
3063.00,0.0083
3062.00,0.0082
3061.00,0.0082
3060.00,0.0082
3059.00,0.0081
3058.00,0.0081
3057.00,0.0081
3056.00,0.0080
3055.00,0.0080
3054.00,0.0080
3053.00,0.0080
3052.00,0.0079
3051.00,0.0079
3050.00,0.0079
3049.00,0.0078
3048.00,0.0078
3047.00,0.0078
3046.00,0.0078
3045.00,0.0078
3044.00,0.0078
3043.00,0.0078
3042.00,0.0078
3041.00,0.0078
3040.00,0.0078
3039.00,0.0078
3038.00,0.0079
3037.00,0.0079
3036.00,0.0079
3035.00,0.0079
3034.00,0.0079
3033.00,0.0079
3032.00,0.0079
3031.00,0.0079
3030.00,0.0080
3029.00,0.0080
3028.00,0.0081
3027.00,0.0081
3026.00,0.0082
3025.00,0.0083
3024.00,0.0084
3023.00,0.0085
3022.00,0.0087
3021.00,0.0089
3020.00,0.0091
3019.00,0.0094
3018.00,0.0097
3017.00,0.0100
3016.00,0.0104
3015.00,0.0109
3014.00,0.0115
3013.00,0.0121
3012.00,0.0129
3011.00,0.0137
3010.00,0.0146
3009.00,0.0155
3008.00,0.0166
3007.00,0.0177
3006.00,0.0189
3005.00,0.0201
3004.00,0.0214
3003.00,0.0227
3002.00,0.0240
3001.00,0.0252
3000.00,0.0265
2999.00,0.0276
2998.00,0.0288
2997.00,0.0298
2996.00,0.0308
2995.00,0.0317
2994.00,0.0327
2993.00,0.0337
2992.00,0.0347
2991.00,0.0357
2990.00,0.0369
2989.00,0.0382
2988.00,0.0397
2987.00,0.0417
2986.00,0.0445
2985.00,0.0484
2984.00,0.0531
2983.00,0.0582
2982.00,0.0626
2981.00,0.0658
2980.00,0.0676
2979.00,0.0686
2978.00,0.0694
2977.00,0.0704
2976.00,0.0719
2975.00,0.0739
2974.00,0.0764
2973.00,0.0789
2972.00,0.0810
2971.00,0.0819
2970.00,0.0815
2969.00,0.0799
2968.00,0.0775
2967.00,0.0747
2966.00,0.0716
2965.00,0.0683
2964.00,0.0649
2963.00,0.0616
2962.00,0.0584
2961.00,0.0555
2960.00,0.0528
2959.00,0.0504
2958.00,0.0483
2957.00,0.0463
2956.00,0.0446
2955.00,0.0430
2954.00,0.0415
2953.00,0.0402
2952.00,0.0390
2951.00,0.0380
2950.00,0.0371
2949.00,0.0364
2948.00,0.0359
2947.00,0.0354
2946.00,0.0351
2945.00,0.0349
2944.00,0.0348
2943.00,0.0349
2942.00,0.0352
2941.00,0.0356
2940.00,0.0361
2939.00,0.0366
2938.00,0.0371
2937.00,0.0377
2936.00,0.0382
2935.00,0.0388
2934.00,0.0393
2933.00,0.0399
2932.00,0.0404
2931.00,0.0407
2930.00,0.0409
2929.00,0.0409
2928.00,0.0408
2927.00,0.0407
2926.00,0.0404
2925.00,0.0400
2924.00,0.0396
2923.00,0.0392
2922.00,0.0387
2921.00,0.0382
2920.00,0.0377
2919.00,0.0372
2918.00,0.0368
2917.00,0.0363
2916.00,0.0358
2915.00,0.0353
2914.00,0.0349
2913.00,0.0345
2912.00,0.0341
2911.00,0.0338
2910.00,0.0335
2909.00,0.0333
2908.00,0.0331
2907.00,0.0330
2906.00,0.0329
2905.00,0.0328
2904.00,0.0328
2903.00,0.0327
2902.00,0.0327
2901.00,0.0327
2900.00,0.0327
2899.00,0.0327
2898.00,0.0327
2897.00,0.0328
2896.00,0.0330
2895.00,0.0332
2894.00,0.0334
2893.00,0.0337
2892.00,0.0340
2891.00,0.0343
2890.00,0.0345
2889.00,0.0346
2888.00,0.0346
2887.00,0.0346
2886.00,0.0345
2885.00,0.0345
2884.00,0.0344
2883.00,0.0342
2882.00,0.0337
2881.00,0.0330
2880.00,0.0323
2879.00,0.0316
2878.00,0.0310
2877.00,0.0306
2876.00,0.0302
2875.00,0.0298
2874.00,0.0295
2873.00,0.0291
2872.00,0.0288
2871.00,0.0284
2870.00,0.0279
2869.00,0.0275
2868.00,0.0270
2867.00,0.0266
2866.00,0.0263
2865.00,0.0259
2864.00,0.0256
2863.00,0.0254
2862.00,0.0252
2861.00,0.0250
2860.00,0.0249
2859.00,0.0247
2858.00,0.0245
2857.00,0.0242
2856.00,0.0239
2855.00,0.0234
2854.00,0.0229
2853.00,0.0224
2852.00,0.0217
2851.00,0.0210
2850.00,0.0203
2849.00,0.0195
2848.00,0.0188
2847.00,0.0181
2846.00,0.0174
2845.00,0.0168
2844.00,0.0162
2843.00,0.0157
2842.00,0.0153
2841.00,0.0148
2840.00,0.0145
2839.00,0.0142
2838.00,0.0140
2837.00,0.0138
2836.00,0.0136
2835.00,0.0134
2834.00,0.0133
2833.00,0.0132
2832.00,0.0130
2831.00,0.0128
2830.00,0.0127
2829.00,0.0125
2828.00,0.0123
2827.00,0.0121
2826.00,0.0119
2825.00,0.0117
2824.00,0.0116
2823.00,0.0115
2822.00,0.0113
2821.00,0.0112
2820.00,0.0111
2819.00,0.0110
2818.00,0.0108
2817.00,0.0108
2816.00,0.0107
2815.00,0.0106
2814.00,0.0105
2813.00,0.0104
2812.00,0.0103
2811.00,0.0101
2810.00,0.0100
2809.00,0.0099
2808.00,0.0098
2807.00,0.0098
2806.00,0.0097
2805.00,0.0096
2804.00,0.0095
2803.00,0.0094
2802.00,0.0093
2801.00,0.0093
2800.00,0.0092
2799.00,0.0091
2798.00,0.0090
2797.00,0.0089
2796.00,0.0089
2795.00,0.0089
2794.00,0.0088
2793.00,0.0087
2792.00,0.0087
2791.00,0.0086
2790.00,0.0085
2789.00,0.0085
2788.00,0.0084
2787.00,0.0084
2786.00,0.0083
2785.00,0.0083
2784.00,0.0082
2783.00,0.0082
2782.00,0.0081
2781.00,0.0081
2780.00,0.0080
2779.00,0.0080
2778.00,0.0079
2777.00,0.0078
2776.00,0.0078
2775.00,0.0077
2774.00,0.0076
2773.00,0.0076
2772.00,0.0076
2771.00,0.0076
2770.00,0.0075
2769.00,0.0075
2768.00,0.0075
2767.00,0.0074
2766.00,0.0074
2765.00,0.0073
2764.00,0.0073
2763.00,0.0072
2762.00,0.0072
2761.00,0.0071
2760.00,0.0071
2759.00,0.0071
2758.00,0.0070
2757.00,0.0070
2756.00,0.0069
2755.00,0.0069
2754.00,0.0069
2753.00,0.0068
2752.00,0.0068
2751.00,0.0068
2750.00,0.0067
2749.00,0.0067
2748.00,0.0067
2747.00,0.0066
2746.00,0.0067
2745.00,0.0067
2744.00,0.0067
2743.00,0.0067
2742.00,0.0067
2741.00,0.0067
2740.00,0.0066
2739.00,0.0066
2738.00,0.0066
2737.00,0.0066
2736.00,0.0067
2735.00,0.0067
2734.00,0.0067
2733.00,0.0067
2732.00,0.0067
2731.00,0.0067
2730.00,0.0067
2729.00,0.0066
2728.00,0.0066
2727.00,0.0066
2726.00,0.0066
2725.00,0.0066
2724.00,0.0066
2723.00,0.0066
2722.00,0.0066
2721.00,0.0066
2720.00,0.0065
2719.00,0.0065
2718.00,0.0065
2717.00,0.0065
2716.00,0.0064
2715.00,0.0064
2714.00,0.0063
2713.00,0.0063
2712.00,0.0062
2711.00,0.0062
2710.00,0.0062
2709.00,0.0061
2708.00,0.0061
2707.00,0.0061
2706.00,0.0060
2705.00,0.0060
2704.00,0.0060
2703.00,0.0060
2702.00,0.0060
2701.00,0.0059
2700.00,0.0059
2699.00,0.0059
2698.00,0.0059
2697.00,0.0059
2696.00,0.0058
2695.00,0.0058
2694.00,0.0058
2693.00,0.0057
2692.00,0.0057
2691.00,0.0056
2690.00,0.0056
2689.00,0.0056
2688.00,0.0055
2687.00,0.0055
2686.00,0.0055
2685.00,0.0055
2684.00,0.0055
2683.00,0.0055
2682.00,0.0055
2681.00,0.0054
2680.00,0.0054
2679.00,0.0054
2678.00,0.0055
2677.00,0.0055
2676.00,0.0055
2675.00,0.0055
2674.00,0.0056
2673.00,0.0056
2672.00,0.0057
2671.00,0.0058
2670.00,0.0058
2669.00,0.0059
2668.00,0.0059
2667.00,0.0060
2666.00,0.0061
2665.00,0.0061
2664.00,0.0061
2663.00,0.0062
2662.00,0.0062
2661.00,0.0062
2660.00,0.0062
2659.00,0.0062
2658.00,0.0061
2657.00,0.0061
2656.00,0.0061
2655.00,0.0060
2654.00,0.0060
2653.00,0.0059
2652.00,0.0059
2651.00,0.0058
2650.00,0.0058
2649.00,0.0057
2648.00,0.0056
2647.00,0.0056
2646.00,0.0055
2645.00,0.0055
2644.00,0.0054
2643.00,0.0054
2642.00,0.0053
2641.00,0.0053
2640.00,0.0053
2639.00,0.0052
2638.00,0.0052
2637.00,0.0051
2636.00,0.0050
2635.00,0.0049
2634.00,0.0049
2633.00,0.0049
2632.00,0.0048
2631.00,0.0048
2630.00,0.0048
2629.00,0.0048
2628.00,0.0048
2627.00,0.0047
2626.00,0.0047
2625.00,0.0047
2624.00,0.0047
2623.00,0.0047
2622.00,0.0047
2621.00,0.0047
2620.00,0.0046
2619.00,0.0046
2618.00,0.0046
2617.00,0.0046
2616.00,0.0046
2615.00,0.0046
2614.00,0.0046
2613.00,0.0045
2612.00,0.0045
2611.00,0.0045
2610.00,0.0045
2609.00,0.0045
2608.00,0.0045
2607.00,0.0045
2606.00,0.0045
2605.00,0.0045
2604.00,0.0045
2603.00,0.0045
2602.00,0.0045
2601.00,0.0045
2600.00,0.0044
2599.00,0.0044
2598.00,0.0043
2597.00,0.0043
2596.00,0.0043
2595.00,0.0043
2594.00,0.0043
2593.00,0.0043
2592.00,0.0043
2591.00,0.0043
2590.00,0.0043
2589.00,0.0043
2588.00,0.0042
2587.00,0.0042
2586.00,0.0042
2585.00,0.0042
2584.00,0.0042
2583.00,0.0042
2582.00,0.0042
2581.00,0.0041
2580.00,0.0041
2579.00,0.0042
2578.00,0.0042
2577.00,0.0042
2576.00,0.0042
2575.00,0.0042
2574.00,0.0041
2573.00,0.0041
2572.00,0.0041
2571.00,0.0040
2570.00,0.0040
2569.00,0.0040
2568.00,0.0039
2567.00,0.0039
2566.00,0.0038
2565.00,0.0038
2564.00,0.0038
2563.00,0.0038
2562.00,0.0038
2561.00,0.0037
2560.00,0.0037
2559.00,0.0037
2558.00,0.0037
2557.00,0.0037
2556.00,0.0036
2555.00,0.0036
2554.00,0.0036
2553.00,0.0036
2552.00,0.0036
2551.00,0.0036
2550.00,0.0036
2549.00,0.0035
2548.00,0.0035
2547.00,0.0035
2546.00,0.0035
2545.00,0.0036
2544.00,0.0036
2543.00,0.0035
2542.00,0.0035
2541.00,0.0035
2540.00,0.0035
2539.00,0.0035
2538.00,0.0035
2537.00,0.0035
2536.00,0.0036
2535.00,0.0036
2534.00,0.0037
2533.00,0.0037
2532.00,0.0037
2531.00,0.0037
2530.00,0.0037
2529.00,0.0037
2528.00,0.0036
2527.00,0.0036
2526.00,0.0036
2525.00,0.0037
2524.00,0.0037
2523.00,0.0037
2522.00,0.0037
2521.00,0.0037
2520.00,0.0037
2519.00,0.0036
2518.00,0.0036
2517.00,0.0036
2516.00,0.0036
2515.00,0.0036
2514.00,0.0036
2513.00,0.0036
2512.00,0.0036
2511.00,0.0035
2510.00,0.0035
2509.00,0.0035
2508.00,0.0035
2507.00,0.0035
2506.00,0.0035
2505.00,0.0035
2504.00,0.0034
2503.00,0.0034
2502.00,0.0034
2501.00,0.0034
2500.00,0.0034
2499.00,0.0034
2498.00,0.0034
2497.00,0.0034
2496.00,0.0034
2495.00,0.0034
2494.00,0.0033
2493.00,0.0033
2492.00,0.0032
2491.00,0.0032
2490.00,0.0032
2489.00,0.0032
2488.00,0.0032
2487.00,0.0032
2486.00,0.0032
2485.00,0.0032
2484.00,0.0032
2483.00,0.0032
2482.00,0.0032
2481.00,0.0032
2480.00,0.0032
2479.00,0.0032
2478.00,0.0032
2477.00,0.0032
2476.00,0.0031
2475.00,0.0031
2474.00,0.0031
2473.00,0.0031
2472.00,0.0031
2471.00,0.0031
2470.00,0.0031
2469.00,0.0031
2468.00,0.0031
2467.00,0.0030
2466.00,0.0030
2465.00,0.0030
2464.00,0.0029
2463.00,0.0029
2462.00,0.0029
2461.00,0.0029
2460.00,0.0029
2459.00,0.0029
2458.00,0.0029
2457.00,0.0029
2456.00,0.0029
2455.00,0.0028
2454.00,0.0028
2453.00,0.0028
2452.00,0.0029
2451.00,0.0029
2450.00,0.0028
2449.00,0.0028
2448.00,0.0028
2447.00,0.0028
2446.00,0.0028
2445.00,0.0028
2444.00,0.0028
2443.00,0.0028
2442.00,0.0028
2441.00,0.0028
2440.00,0.0028
2439.00,0.0028
2438.00,0.0028
2437.00,0.0028
2436.00,0.0028
2435.00,0.0028
2434.00,0.0028
2433.00,0.0028
2432.00,0.0028
2431.00,0.0028
2430.00,0.0028
2429.00,0.0028
2428.00,0.0028
2427.00,0.0028
2426.00,0.0028
2425.00,0.0028
2424.00,0.0028
2423.00,0.0028
2422.00,0.0028
2421.00,0.0028
2420.00,0.0029
2419.00,0.0029
2418.00,0.0029
2417.00,0.0029
2416.00,0.0029
2415.00,0.0029
2414.00,0.0029
2413.00,0.0029
2412.00,0.0029
2411.00,0.0029
2410.00,0.0029
2409.00,0.0029
2408.00,0.0029
2407.00,0.0029
2406.00,0.0029
2405.00,0.0029
2404.00,0.0028
2403.00,0.0028
2402.00,0.0029
2401.00,0.0029
2400.00,0.0029
2399.00,0.0029
2398.00,0.0028
2397.00,0.0029
2396.00,0.0029
2395.00,0.0029
2394.00,0.0029
2393.00,0.0029
2392.00,0.0028
2391.00,0.0028
2390.00,0.0028
2389.00,0.0028
2388.00,0.0027
2387.00,0.0027
2386.00,0.0027
2385.00,0.0027
2384.00,0.0028
2383.00,0.0028
2382.00,0.0028
2381.00,0.0027
2380.00,0.0027
2379.00,0.0027
2378.00,0.0027
2377.00,0.0027
2376.00,0.0027
2375.00,0.0027
2374.00,0.0027
2373.00,0.0027
2372.00,0.0027
2371.00,0.0027
2370.00,0.0027
2369.00,0.0027
2368.00,0.0028
2367.00,0.0028
2366.00,0.0028
2365.00,0.0027
2364.00,0.0027
2363.00,0.0027
2362.00,0.0026
2361.00,0.0026
2360.00,0.0027
2359.00,0.0027
2358.00,0.0027
2357.00,0.0027
2356.00,0.0027
2355.00,0.0027
2354.00,0.0027
2353.00,0.0027
2352.00,0.0027
2351.00,0.0027
2350.00,0.0027
2349.00,0.0027
2348.00,0.0027
2347.00,0.0027
2346.00,0.0027
2345.00,0.0027
2344.00,0.0027
2343.00,0.0027
2342.00,0.0027
2341.00,0.0027
2340.00,0.0027
2339.00,0.0027
2338.00,0.0027
2337.00,0.0027
2336.00,0.0026
2335.00,0.0026
2334.00,0.0026
2333.00,0.0026
2332.00,0.0026
2331.00,0.0026
2330.00,0.0026
2329.00,0.0026
2328.00,0.0027
2327.00,0.0027
2326.00,0.0027
2325.00,0.0027
2324.00,0.0027
2323.00,0.0027
2322.00,0.0027
2321.00,0.0026
2320.00,0.0026
2319.00,0.0026
2318.00,0.0026
2317.00,0.0026
2316.00,0.0025
2315.00,0.0025
2314.00,0.0025
2313.00,0.0025
2312.00,0.0025
2311.00,0.0025
2310.00,0.0025
2309.00,0.0025
2308.00,0.0024
2307.00,0.0024
2306.00,0.0023
2305.00,0.0023
2304.00,0.0024
2303.00,0.0024
2302.00,0.0024
2301.00,0.0024
2300.00,0.0024
2299.00,0.0023
2298.00,0.0023
2297.00,0.0023
2296.00,0.0023
2295.00,0.0023
2294.00,0.0023
2293.00,0.0023
2292.00,0.0023
2291.00,0.0023
2290.00,0.0023
2289.00,0.0023
2288.00,0.0023
2287.00,0.0023
2286.00,0.0023
2285.00,0.0023
2284.00,0.0023
2283.00,0.0023
2282.00,0.0023
2281.00,0.0022
2280.00,0.0021
2279.00,0.0021
2278.00,0.0020
2277.00,0.0020
2276.00,0.0020
2275.00,0.0021
2274.00,0.0021
2273.00,0.0021
2272.00,0.0020
2271.00,0.0019
2270.00,0.0019
2269.00,0.0019
2268.00,0.0019
2267.00,0.0019
2266.00,0.0019
2265.00,0.0019
2264.00,0.0019
2263.00,0.0019
2262.00,0.0018
2261.00,0.0018
2260.00,0.0018
2259.00,0.0018
2258.00,0.0018
2257.00,0.0018
2256.00,0.0019
2255.00,0.0019
2254.00,0.0019
2253.00,0.0019
2252.00,0.0019
2251.00,0.0018
2250.00,0.0018
2249.00,0.0018
2248.00,0.0018
2247.00,0.0018
2246.00,0.0018
2245.00,0.0018
2244.00,0.0018
2243.00,0.0017
2242.00,0.0017
2241.00,0.0017
2240.00,0.0017
2239.00,0.0016
2238.00,0.0016
2237.00,0.0016
2236.00,0.0017
2235.00,0.0017
2234.00,0.0017
2233.00,0.0016
2232.00,0.0016
2231.00,0.0016
2230.00,0.0016
2229.00,0.0016
2228.00,0.0017
2227.00,0.0018
2226.00,0.0018
2225.00,0.0018
2224.00,0.0018
2223.00,0.0018
2222.00,0.0019
2221.00,0.0019
2220.00,0.0019
2219.00,0.0020
2218.00,0.0020
2217.00,0.0020
2216.00,0.0020
2215.00,0.0020
2214.00,0.0019
2213.00,0.0018
2212.00,0.0018
2211.00,0.0018
2210.00,0.0018
2209.00,0.0019
2208.00,0.0019
2207.00,0.0019
2206.00,0.0019
2205.00,0.0018
2204.00,0.0018
2203.00,0.0018
2202.00,0.0019
2201.00,0.0018
2200.00,0.0018
2199.00,0.0018
2198.00,0.0019
2197.00,0.0019
2196.00,0.0020
2195.00,0.0020
2194.00,0.0020
2193.00,0.0019
2192.00,0.0019
2191.00,0.0020
2190.00,0.0021
2189.00,0.0021
2188.00,0.0020
2187.00,0.0019
2186.00,0.0018
2185.00,0.0018
2184.00,0.0018
2183.00,0.0018
2182.00,0.0018
2181.00,0.0017
2180.00,0.0017
2179.00,0.0017
2178.00,0.0017
2177.00,0.0018
2176.00,0.0019
2175.00,0.0018
2174.00,0.0017
2173.00,0.0016
2172.00,0.0015
2171.00,0.0016
2170.00,0.0017
2169.00,0.0017
2168.00,0.0017
2167.00,0.0017
2166.00,0.0016
2165.00,0.0016
2164.00,0.0015
2163.00,0.0016
2162.00,0.0016
2161.00,0.0016
2160.00,0.0016
2159.00,0.0015
2158.00,0.0015
2157.00,0.0015
2156.00,0.0015
2155.00,0.0015
2154.00,0.0015
2153.00,0.0014
2152.00,0.0014
2151.00,0.0015
2150.00,0.0016
2149.00,0.0016
2148.00,0.0017
2147.00,0.0017
2146.00,0.0016
2145.00,0.0015
2144.00,0.0014
2143.00,0.0014
2142.00,0.0015
2141.00,0.0016
2140.00,0.0017
2139.00,0.0017
2138.00,0.0016
2137.00,0.0016
2136.00,0.0016
2135.00,0.0016
2134.00,0.0015
2133.00,0.0015
2132.00,0.0015
2131.00,0.0015
2130.00,0.0015
2129.00,0.0015
2128.00,0.0015
2127.00,0.0016
2126.00,0.0016
2125.00,0.0017
2124.00,0.0018
2123.00,0.0018
2122.00,0.0018
2121.00,0.0019
2120.00,0.0019
2119.00,0.0019
2118.00,0.0018
2117.00,0.0017
2116.00,0.0017
2115.00,0.0017
2114.00,0.0017
2113.00,0.0017
2112.00,0.0017
2111.00,0.0018
2110.00,0.0018
2109.00,0.0018
2108.00,0.0019
2107.00,0.0019
2106.00,0.0018
2105.00,0.0018
2104.00,0.0018
2103.00,0.0018
2102.00,0.0019
2101.00,0.0019
2100.00,0.0019
2099.00,0.0018
2098.00,0.0017
2097.00,0.0017
2096.00,0.0016
2095.00,0.0016
2094.00,0.0017
2093.00,0.0017
2092.00,0.0018
2091.00,0.0019
2090.00,0.0019
2089.00,0.0019
2088.00,0.0019
2087.00,0.0019
2086.00,0.0018
2085.00,0.0018
2084.00,0.0017
2083.00,0.0018
2082.00,0.0018
2081.00,0.0019
2080.00,0.0019
2079.00,0.0018
2078.00,0.0017
2077.00,0.0018
2076.00,0.0018
2075.00,0.0019
2074.00,0.0020
2073.00,0.0019
2072.00,0.0019
2071.00,0.0019
2070.00,0.0019
2069.00,0.0019
2068.00,0.0019
2067.00,0.0018
2066.00,0.0017
2065.00,0.0018
2064.00,0.0018
2063.00,0.0018
2062.00,0.0019
2061.00,0.0018
2060.00,0.0019
2059.00,0.0019
2058.00,0.0019
2057.00,0.0019
2056.00,0.0018
2055.00,0.0017
2054.00,0.0017
2053.00,0.0017
2052.00,0.0017
2051.00,0.0017
2050.00,0.0017
2049.00,0.0016
2048.00,0.0016
2047.00,0.0017
2046.00,0.0017
2045.00,0.0017
2044.00,0.0016
2043.00,0.0016
2042.00,0.0015
2041.00,0.0013
2040.00,0.0012
2039.00,0.0011
2038.00,0.0012
2037.00,0.0014
2036.00,0.0014
2035.00,0.0014
2034.00,0.0013
2033.00,0.0012
2032.00,0.0012
2031.00,0.0012
2030.00,0.0012
2029.00,0.0013
2028.00,0.0014
2027.00,0.0014
2026.00,0.0014
2025.00,0.0014
2024.00,0.0013
2023.00,0.0012
2022.00,0.0012
2021.00,0.0014
2020.00,0.0016
2019.00,0.0017
2018.00,0.0018
2017.00,0.0018
2016.00,0.0019
2015.00,0.0018
2014.00,0.0017
2013.00,0.0015
2012.00,0.0014
2011.00,0.0014
2010.00,0.0015
2009.00,0.0017
2008.00,0.0018
2007.00,0.0017
2006.00,0.0014
2005.00,0.0013
2004.00,0.0012
2003.00,0.0013
2002.00,0.0014
2001.00,0.0015
2000.00,0.0015
1999.00,0.0014
1998.00,0.0014
1997.00,0.0014
1996.00,0.0015
1995.00,0.0015
1994.00,0.0015
1993.00,0.0015
1992.00,0.0015
1991.00,0.0015
1990.00,0.0015
1989.00,0.0014
1988.00,0.0014
1987.00,0.0015
1986.00,0.0014
1985.00,0.0013
1984.00,0.0013
1983.00,0.0014
1982.00,0.0015
1981.00,0.0016
1980.00,0.0017
1979.00,0.0018
1978.00,0.0018
1977.00,0.0018
1976.00,0.0018
1975.00,0.0017
1974.00,0.0014
1973.00,0.0012
1972.00,0.0011
1971.00,0.0012
1970.00,0.0012
1969.00,0.0011
1968.00,0.0011
1967.00,0.0012
1966.00,0.0014
1965.00,0.0015
1964.00,0.0016
1963.00,0.0015
1962.00,0.0014
1961.00,0.0013
1960.00,0.0013
1959.00,0.0013
1958.00,0.0013
1957.00,0.0014
1956.00,0.0015
1955.00,0.0016
1954.00,0.0016
1953.00,0.0016
1952.00,0.0015
1951.00,0.0015
1950.00,0.0016
1949.00,0.0016
1948.00,0.0016
1947.00,0.0015
1946.00,0.0014
1945.00,0.0013
1944.00,0.0013
1943.00,0.0013
1942.00,0.0014
1941.00,0.0014
1940.00,0.0014
1939.00,0.0014
1938.00,0.0013
1937.00,0.0012
1936.00,0.0012
1935.00,0.0012
1934.00,0.0012
1933.00,0.0013
1932.00,0.0013
1931.00,0.0013
1930.00,0.0013
1929.00,0.0012
1928.00,0.0011
1927.00,0.0012
1926.00,0.0013
1925.00,0.0014
1924.00,0.0014
1923.00,0.0015
1922.00,0.0015
1921.00,0.0014
1920.00,0.0014
1919.00,0.0013
1918.00,0.0013
1917.00,0.0013
1916.00,0.0013
1915.00,0.0013
1914.00,0.0013
1913.00,0.0013
1912.00,0.0013
1911.00,0.0014
1910.00,0.0014
1909.00,0.0015
1908.00,0.0015
1907.00,0.0014
1906.00,0.0014
1905.00,0.0014
1904.00,0.0014
1903.00,0.0015
1902.00,0.0015
1901.00,0.0015
1900.00,0.0015
1899.00,0.0015
1898.00,0.0016
1897.00,0.0016
1896.00,0.0016
1895.00,0.0016
1894.00,0.0017
1893.00,0.0017
1892.00,0.0016
1891.00,0.0015
1890.00,0.0015
1889.00,0.0015
1888.00,0.0015
1887.00,0.0016
1886.00,0.0016
1885.00,0.0016
1884.00,0.0016
1883.00,0.0015
1882.00,0.0015
1881.00,0.0015
1880.00,0.0016
1879.00,0.0016
1878.00,0.0016
1877.00,0.0016
1876.00,0.0016
1875.00,0.0016
1874.00,0.0016
1873.00,0.0016
1872.00,0.0016
1871.00,0.0015
1870.00,0.0015
1869.00,0.0015
1868.00,0.0014
1867.00,0.0014
1866.00,0.0015
1865.00,0.0015
1864.00,0.0015
1863.00,0.0015
1862.00,0.0016
1861.00,0.0016
1860.00,0.0016
1859.00,0.0016
1858.00,0.0016
1857.00,0.0016
1856.00,0.0016
1855.00,0.0016
1854.00,0.0016
1853.00,0.0016
1852.00,0.0016
1851.00,0.0016
1850.00,0.0016
1849.00,0.0016
1848.00,0.0016
1847.00,0.0016
1846.00,0.0016
1845.00,0.0015
1844.00,0.0015
1843.00,0.0015
1842.00,0.0015
1841.00,0.0016
1840.00,0.0016
1839.00,0.0017
1838.00,0.0017
1837.00,0.0017
1836.00,0.0017
1835.00,0.0017
1834.00,0.0017
1833.00,0.0017
1832.00,0.0018
1831.00,0.0017
1830.00,0.0017
1829.00,0.0017
1828.00,0.0017
1827.00,0.0017
1826.00,0.0016
1825.00,0.0016
1824.00,0.0015
1823.00,0.0016
1822.00,0.0016
1821.00,0.0016
1820.00,0.0016
1819.00,0.0016
1818.00,0.0016
1817.00,0.0016
1816.00,0.0017
1815.00,0.0017
1814.00,0.0017
1813.00,0.0017
1812.00,0.0017
1811.00,0.0017
1810.00,0.0017
1809.00,0.0018
1808.00,0.0018
1807.00,0.0018
1806.00,0.0018
1805.00,0.0018
1804.00,0.0018
1803.00,0.0019
1802.00,0.0019
1801.00,0.0018
1800.00,0.0018
1799.00,0.0019
1798.00,0.0019
1797.00,0.0019
1796.00,0.0019
1795.00,0.0020
1794.00,0.0020
1793.00,0.0020
1792.00,0.0020
1791.00,0.0020
1790.00,0.0020
1789.00,0.0021
1788.00,0.0021
1787.00,0.0022
1786.00,0.0022
1785.00,0.0023
1784.00,0.0023
1783.00,0.0024
1782.00,0.0024
1781.00,0.0025
1780.00,0.0025
1779.00,0.0025
1778.00,0.0026
1777.00,0.0026
1776.00,0.0027
1775.00,0.0027
1774.00,0.0028
1773.00,0.0029
1772.00,0.0030
1771.00,0.0030
1770.00,0.0031
1769.00,0.0031
1768.00,0.0032
1767.00,0.0032
1766.00,0.0032
1765.00,0.0032
1764.00,0.0032
1763.00,0.0032
1762.00,0.0032
1761.00,0.0031
1760.00,0.0031
1759.00,0.0031
1758.00,0.0031
1757.00,0.0031
1756.00,0.0031
1755.00,0.0032
1754.00,0.0032
1753.00,0.0032
1752.00,0.0032
1751.00,0.0032
1750.00,0.0032
1749.00,0.0032
1748.00,0.0032
1747.00,0.0032
1746.00,0.0033
1745.00,0.0033
1744.00,0.0033
1743.00,0.0033
1742.00,0.0033
1741.00,0.0034
1740.00,0.0034
1739.00,0.0034
1738.00,0.0035
1737.00,0.0035
1736.00,0.0035
1735.00,0.0035
1734.00,0.0035
1733.00,0.0036
1732.00,0.0036
1731.00,0.0036
1730.00,0.0037
1729.00,0.0037
1728.00,0.0038
1727.00,0.0039
1726.00,0.0039
1725.00,0.0040
1724.00,0.0041
1723.00,0.0041
1722.00,0.0042
1721.00,0.0043
1720.00,0.0044
1719.00,0.0045
1718.00,0.0046
1717.00,0.0048
1716.00,0.0049
1715.00,0.0049
1714.00,0.0050
1713.00,0.0051
1712.00,0.0051
1711.00,0.0052
1710.00,0.0052
1709.00,0.0052
1708.00,0.0052
1707.00,0.0051
1706.00,0.0051
1705.00,0.0050
1704.00,0.0049
1703.00,0.0049
1702.00,0.0048
1701.00,0.0047
1700.00,0.0046
1699.00,0.0045
1698.00,0.0046
1697.00,0.0046
1696.00,0.0046
1695.00,0.0045
1694.00,0.0045
1693.00,0.0045
1692.00,0.0045
1691.00,0.0046
1690.00,0.0047
1689.00,0.0048
1688.00,0.0049
1687.00,0.0051
1686.00,0.0052
1685.00,0.0055
1684.00,0.0058
1683.00,0.0061
1682.00,0.0063
1681.00,0.0066
1680.00,0.0069
1679.00,0.0072
1678.00,0.0075
1677.00,0.0079
1676.00,0.0083
1675.00,0.0090
1674.00,0.0096
1673.00,0.0102
1672.00,0.0107
1671.00,0.0114
1670.00,0.0122
1669.00,0.0131
1668.00,0.0140
1667.00,0.0148
1666.00,0.0155
1665.00,0.0162
1664.00,0.0169
1663.00,0.0177
1662.00,0.0185
1661.00,0.0193
1660.00,0.0199
1659.00,0.0204
1658.00,0.0208
1657.00,0.0211
1656.00,0.0214
1655.00,0.0217
1654.00,0.0221
1653.00,0.0226
1652.00,0.0231
1651.00,0.0233
1650.00,0.0233
1649.00,0.0233
1648.00,0.0235
1647.00,0.0237
1646.00,0.0240
1645.00,0.0242
1644.00,0.0242
1643.00,0.0242
1642.00,0.0241
1641.00,0.0239
1640.00,0.0236
1639.00,0.0233
1638.00,0.0230
1637.00,0.0225
1636.00,0.0220
1635.00,0.0216
1634.00,0.0211
1633.00,0.0207
1632.00,0.0202
1631.00,0.0197
1630.00,0.0191
1629.00,0.0185
1628.00,0.0178
1627.00,0.0170
1626.00,0.0163
1625.00,0.0155
1624.00,0.0147
1623.00,0.0139
1622.00,0.0132
1621.00,0.0126
1620.00,0.0121
1619.00,0.0117
1618.00,0.0112
1617.00,0.0106
1616.00,0.0101
1615.00,0.0096
1614.00,0.0092
1613.00,0.0089
1612.00,0.0086
1611.00,0.0083
1610.00,0.0080
1609.00,0.0078
1608.00,0.0076
1607.00,0.0074
1606.00,0.0073
1605.00,0.0071
1604.00,0.0070
1603.00,0.0069
1602.00,0.0069
1601.00,0.0069
1600.00,0.0069
1599.00,0.0069
1598.00,0.0070
1597.00,0.0070
1596.00,0.0071
1595.00,0.0072
1594.00,0.0073
1593.00,0.0074
1592.00,0.0076
1591.00,0.0077
1590.00,0.0079
1589.00,0.0080
1588.00,0.0082
1587.00,0.0083
1586.00,0.0083
1585.00,0.0083
1584.00,0.0081
1583.00,0.0079
1582.00,0.0077
1581.00,0.0074
1580.00,0.0071
1579.00,0.0069
1578.00,0.0067
1577.00,0.0064
1576.00,0.0061
1575.00,0.0058
1574.00,0.0057
1573.00,0.0055
1572.00,0.0054
1571.00,0.0053
1570.00,0.0051
1569.00,0.0050
1568.00,0.0049
1567.00,0.0049
1566.00,0.0048
1565.00,0.0048
1564.00,0.0047
1563.00,0.0047
1562.00,0.0048
1561.00,0.0048
1560.00,0.0047
1559.00,0.0046
1558.00,0.0045
1557.00,0.0045
1556.00,0.0045
1555.00,0.0045
1554.00,0.0045
1553.00,0.0045
1552.00,0.0045
1551.00,0.0045
1550.00,0.0044
1549.00,0.0044
1548.00,0.0044
1547.00,0.0044
1546.00,0.0044
1545.00,0.0044
1544.00,0.0044
1543.00,0.0044
1542.00,0.0044
1541.00,0.0045
1540.00,0.0045
1539.00,0.0045
1538.00,0.0045
1537.00,0.0045
1536.00,0.0046
1535.00,0.0046
1534.00,0.0047
1533.00,0.0047
1532.00,0.0048
1531.00,0.0048
1530.00,0.0049
1529.00,0.0050
1528.00,0.0050
1527.00,0.0051
1526.00,0.0052
1525.00,0.0052
1524.00,0.0053
1523.00,0.0054
1522.00,0.0056
1521.00,0.0057
1520.00,0.0058
1519.00,0.0058
1518.00,0.0059
1517.00,0.0060
1516.00,0.0061
1515.00,0.0061
1514.00,0.0062
1513.00,0.0063
1512.00,0.0064
1511.00,0.0065
1510.00,0.0067
1509.00,0.0068
1508.00,0.0070
1507.00,0.0072
1506.00,0.0075
1505.00,0.0077
1504.00,0.0079
1503.00,0.0082
1502.00,0.0085
1501.00,0.0088
1500.00,0.0092
1499.00,0.0095
1498.00,0.0099
1497.00,0.0103
1496.00,0.0106
1495.00,0.0108
1494.00,0.0109
1493.00,0.0110
1492.00,0.0111
1491.00,0.0112
1490.00,0.0113
1489.00,0.0115
1488.00,0.0117
1487.00,0.0119
1486.00,0.0121
1485.00,0.0124
1484.00,0.0127
1483.00,0.0131
1482.00,0.0136
1481.00,0.0141
1480.00,0.0147
1479.00,0.0154
1478.00,0.0162
1477.00,0.0173
1476.00,0.0186
1475.00,0.0201
1474.00,0.0218
1473.00,0.0238
1472.00,0.0257
1471.00,0.0273
1470.00,0.0284
1469.00,0.0294
1468.00,0.0302
1467.00,0.0308
1466.00,0.0313
1465.00,0.0317
1464.00,0.0318
1463.00,0.0314
1462.00,0.0309
1461.00,0.0301
1460.00,0.0293
1459.00,0.0284
1458.00,0.0276
1457.00,0.0269
1456.00,0.0263
1455.00,0.0260
1454.00,0.0257
1453.00,0.0254
1452.00,0.0252
1451.00,0.0251
1450.00,0.0249
1449.00,0.0248
1448.00,0.0247
1447.00,0.0247
1446.00,0.0246
1445.00,0.0246
1444.00,0.0245
1443.00,0.0244
1442.00,0.0242
1441.00,0.0241
1440.00,0.0240
1439.00,0.0238
1438.00,0.0237
1437.00,0.0235
1436.00,0.0235
1435.00,0.0234
1434.00,0.0234
1433.00,0.0234
1432.00,0.0235
1431.00,0.0237
1430.00,0.0239
1429.00,0.0241
1428.00,0.0243
1427.00,0.0244
1426.00,0.0245
1425.00,0.0246
1424.00,0.0246
1423.00,0.0247
1422.00,0.0247
1421.00,0.0246
1420.00,0.0245
1419.00,0.0245
1418.00,0.0246
1417.00,0.0246
1416.00,0.0247
1415.00,0.0249
1414.00,0.0252
1413.00,0.0255
1412.00,0.0258
1411.00,0.0262
1410.00,0.0265
1409.00,0.0269
1408.00,0.0271
1407.00,0.0274
1406.00,0.0277
1405.00,0.0280
1404.00,0.0284
1403.00,0.0287
1402.00,0.0291
1401.00,0.0295
1400.00,0.0300
1399.00,0.0304
1398.00,0.0310
1397.00,0.0314
1396.00,0.0319
1395.00,0.0324
1394.00,0.0329
1393.00,0.0333
1392.00,0.0336
1391.00,0.0340
1390.00,0.0345
1389.00,0.0354
1388.00,0.0367
1387.00,0.0385
1386.00,0.0407
1385.00,0.0431
1384.00,0.0459
1383.00,0.0489
1382.00,0.0519
1381.00,0.0544
1380.00,0.0562
1379.00,0.0570
1378.00,0.0568
1377.00,0.0556
1376.00,0.0539
1375.00,0.0519
1374.00,0.0500
1373.00,0.0486
1372.00,0.0478
1371.00,0.0474
1370.00,0.0474
1369.00,0.0473
1368.00,0.0470
1367.00,0.0462
1366.00,0.0448
1365.00,0.0428
1364.00,0.0403
1363.00,0.0374
1362.00,0.0346
1361.00,0.0321
1360.00,0.0300
1359.00,0.0283
1358.00,0.0269
1357.00,0.0257
1356.00,0.0248
1355.00,0.0239
1354.00,0.0233
1353.00,0.0228
1352.00,0.0225
1351.00,0.0224
1350.00,0.0224
1349.00,0.0226
1348.00,0.0229
1347.00,0.0234
1346.00,0.0240
1345.00,0.0247
1344.00,0.0254
1343.00,0.0260
1342.00,0.0264
1341.00,0.0266
1340.00,0.0264
1339.00,0.0260
1338.00,0.0253
1337.00,0.0246
1336.00,0.0239
1335.00,0.0233
1334.00,0.0228
1333.00,0.0224
1332.00,0.0221
1331.00,0.0220
1330.00,0.0220
1329.00,0.0222
1328.00,0.0224
1327.00,0.0227
1326.00,0.0232
1325.00,0.0238
1324.00,0.0244
1323.00,0.0250
1322.00,0.0256
1321.00,0.0262
1320.00,0.0268
1319.00,0.0273
1318.00,0.0278
1317.00,0.0283
1316.00,0.0286
1315.00,0.0288
1314.00,0.0291
1313.00,0.0292
1312.00,0.0293
1311.00,0.0293
1310.00,0.0294
1309.00,0.0294
1308.00,0.0294
1307.00,0.0295
1306.00,0.0295
1305.00,0.0295
1304.00,0.0296
1303.00,0.0297
1302.00,0.0298
1301.00,0.0300
1300.00,0.0302
1299.00,0.0304
1298.00,0.0306
1297.00,0.0307
1296.00,0.0307
1295.00,0.0305
1294.00,0.0302
1293.00,0.0297
1292.00,0.0290
1291.00,0.0283
1290.00,0.0274
1289.00,0.0265
1288.00,0.0256
1287.00,0.0247
1286.00,0.0240
1285.00,0.0233
1284.00,0.0227
1283.00,0.0222
1282.00,0.0218
1281.00,0.0215
1280.00,0.0212
1279.00,0.0209
1278.00,0.0207
1277.00,0.0205
1276.00,0.0203
1275.00,0.0201
1274.00,0.0199
1273.00,0.0198
1272.00,0.0197
1271.00,0.0196
1270.00,0.0196
1269.00,0.0197
1268.00,0.0198
1267.00,0.0200
1266.00,0.0202
1265.00,0.0204
1264.00,0.0207
1263.00,0.0210
1262.00,0.0212
1261.00,0.0214
1260.00,0.0215
1259.00,0.0215
1258.00,0.0214
1257.00,0.0214
1256.00,0.0214
1255.00,0.0214
1254.00,0.0214
1253.00,0.0214
1252.00,0.0214
1251.00,0.0211
1250.00,0.0208
1249.00,0.0203
1248.00,0.0199
1247.00,0.0195
1246.00,0.0192
1245.00,0.0189
1244.00,0.0188
1243.00,0.0186
1242.00,0.0186
1241.00,0.0185
1240.00,0.0183
1239.00,0.0182
1238.00,0.0180
1237.00,0.0177
1236.00,0.0174
1235.00,0.0171
1234.00,0.0168
1233.00,0.0164
1232.00,0.0160
1231.00,0.0157
1230.00,0.0154
1229.00,0.0151
1228.00,0.0148
1227.00,0.0145
1226.00,0.0143
1225.00,0.0141
1224.00,0.0139
1223.00,0.0137
1222.00,0.0135
1221.00,0.0133
1220.00,0.0132
1219.00,0.0131
1218.00,0.0130
1217.00,0.0129
1216.00,0.0128
1215.00,0.0128
1214.00,0.0128
1213.00,0.0128
1212.00,0.0129
1211.00,0.0131
1210.00,0.0133
1209.00,0.0137
1208.00,0.0141
1207.00,0.0145
1206.00,0.0150
1205.00,0.0154
1204.00,0.0157
1203.00,0.0159
1202.00,0.0159
1201.00,0.0158
1200.00,0.0155
1199.00,0.0152
1198.00,0.0150
1197.00,0.0147
1196.00,0.0145
1195.00,0.0143
1194.00,0.0142
1193.00,0.0142
1192.00,0.0142
1191.00,0.0144
1190.00,0.0146
1189.00,0.0148
1188.00,0.0150
1187.00,0.0154
1186.00,0.0158
1185.00,0.0163
1184.00,0.0168
1183.00,0.0174
1182.00,0.0182
1181.00,0.0190
1180.00,0.0199
1179.00,0.0209
1178.00,0.0220
1177.00,0.0233
1176.00,0.0248
1175.00,0.0265
1174.00,0.0284
1173.00,0.0305
1172.00,0.0329
1171.00,0.0355
1170.00,0.0385
1169.00,0.0416
1168.00,0.0447
1167.00,0.0479
1166.00,0.0509
1165.00,0.0537
1164.00,0.0560
1163.00,0.0578
1162.00,0.0589
1161.00,0.0594
1160.00,0.0594
1159.00,0.0589
1158.00,0.0581
1157.00,0.0570
1156.00,0.0556
1155.00,0.0540
1154.00,0.0525
1153.00,0.0511
1152.00,0.0496
1151.00,0.0481
1150.00,0.0468
1149.00,0.0455
1148.00,0.0443
1147.00,0.0432
1146.00,0.0422
1145.00,0.0414
1144.00,0.0408
1143.00,0.0405
1142.00,0.0406
1141.00,0.0409
1140.00,0.0415
1139.00,0.0424
1138.00,0.0438
1137.00,0.0454
1136.00,0.0474
1135.00,0.0495
1134.00,0.0518
1133.00,0.0542
1132.00,0.0565
1131.00,0.0584
1130.00,0.0598
1129.00,0.0605
1128.00,0.0604
1127.00,0.0596
1126.00,0.0582
1125.00,0.0564
1124.00,0.0542
1123.00,0.0519
1122.00,0.0498
1121.00,0.0480
1120.00,0.0466
1119.00,0.0456
1118.00,0.0451
1117.00,0.0449
1116.00,0.0449
1115.00,0.0451
1114.00,0.0455
1113.00,0.0458
1112.00,0.0461
1111.00,0.0463
1110.00,0.0465
1109.00,0.0466
1108.00,0.0466
1107.00,0.0464
1106.00,0.0460
1105.00,0.0456
1104.00,0.0449
1103.00,0.0441
1102.00,0.0432
1101.00,0.0421
1100.00,0.0409
1099.00,0.0397
1098.00,0.0385
1097.00,0.0372
1096.00,0.0360
1095.00,0.0347
1094.00,0.0335
1093.00,0.0324
1092.00,0.0314
1091.00,0.0304
1090.00,0.0295
1089.00,0.0285
1088.00,0.0275
1087.00,0.0267
1086.00,0.0258
1085.00,0.0250
1084.00,0.0243
1083.00,0.0237
1082.00,0.0232
1081.00,0.0228
1080.00,0.0223
1079.00,0.0219
1078.00,0.0215
1077.00,0.0211
1076.00,0.0208
1075.00,0.0205
1074.00,0.0203
1073.00,0.0200
1072.00,0.0197
1071.00,0.0193
1070.00,0.0189
1069.00,0.0184
1068.00,0.0178
1067.00,0.0173
1066.00,0.0168
1065.00,0.0164
1064.00,0.0160
1063.00,0.0156
1062.00,0.0153
1061.00,0.0151
1060.00,0.0148
1059.00,0.0146
1058.00,0.0144
1057.00,0.0142
1056.00,0.0139
1055.00,0.0137
1054.00,0.0135
1053.00,0.0132
1052.00,0.0127
1051.00,0.0122
1050.00,0.0117
1049.00,0.0112
1048.00,0.0107
1047.00,0.0103
1046.00,0.0099
1045.00,0.0096
1044.00,0.0093
1043.00,0.0091
1042.00,0.0090
1041.00,0.0089
1040.00,0.0088
1039.00,0.0087
1038.00,0.0088
1037.00,0.0089
1036.00,0.0090
1035.00,0.0092
1034.00,0.0094
1033.00,0.0096
1032.00,0.0098
1031.00,0.0099
1030.00,0.0100
1029.00,0.0099
1028.00,0.0098
1027.00,0.0096
1026.00,0.0094
1025.00,0.0092
1024.00,0.0089
1023.00,0.0087
1022.00,0.0085
1021.00,0.0084
1020.00,0.0083
1019.00,0.0081
1018.00,0.0079
1017.00,0.0078
1016.00,0.0075
1015.00,0.0074
1014.00,0.0073
1013.00,0.0072
1012.00,0.0071
1011.00,0.0071
1010.00,0.0071
1009.00,0.0072
1008.00,0.0071
1007.00,0.0070
1006.00,0.0069
1005.00,0.0069
1004.00,0.0069
1003.00,0.0068
1002.00,0.0067
1001.00,0.0066
1000.00,0.0065
999.00,0.0065
998.00,0.0065
997.00,0.0065
996.00,0.0065
995.00,0.0064
994.00,0.0065
993.00,0.0065
992.00,0.0066
991.00,0.0066
990.00,0.0067
989.00,0.0069
988.00,0.0071
987.00,0.0073
986.00,0.0076
985.00,0.0078
984.00,0.0080
983.00,0.0082
982.00,0.0086
981.00,0.0091
980.00,0.0096
979.00,0.0101
978.00,0.0108
977.00,0.0116
976.00,0.0124
975.00,0.0133
974.00,0.0143
973.00,0.0154
972.00,0.0165
971.00,0.0176
970.00,0.0187
969.00,0.0198
968.00,0.0208
967.00,0.0219
966.00,0.0231
965.00,0.0245
964.00,0.0260
963.00,0.0280
962.00,0.0308
961.00,0.0346
960.00,0.0394
959.00,0.0453
958.00,0.0521
957.00,0.0592
956.00,0.0665
955.00,0.0736
954.00,0.0801
953.00,0.0855
952.00,0.0891
951.00,0.0906
950.00,0.0897
949.00,0.0868
948.00,0.0821
947.00,0.0763
946.00,0.0700
945.00,0.0635
944.00,0.0573
943.00,0.0516
942.00,0.0464
941.00,0.0419
940.00,0.0380
939.00,0.0348
938.00,0.0321
937.00,0.0297
936.00,0.0275
935.00,0.0254
934.00,0.0235
933.00,0.0217
932.00,0.0200
931.00,0.0184
930.00,0.0170
929.00,0.0158
928.00,0.0146
927.00,0.0137
926.00,0.0130
925.00,0.0124
924.00,0.0117
923.00,0.0112
922.00,0.0108
921.00,0.0105
920.00,0.0101
919.00,0.0096
918.00,0.0092
917.00,0.0089
916.00,0.0085
915.00,0.0082
914.00,0.0079
913.00,0.0077
912.00,0.0074
911.00,0.0072
910.00,0.0071
909.00,0.0071
908.00,0.0070
907.00,0.0069
906.00,0.0069
905.00,0.0070
904.00,0.0070
903.00,0.0070
902.00,0.0070
901.00,0.0070
900.00,0.0069
899.00,0.0069
898.00,0.0070
897.00,0.0071
896.00,0.0071
895.00,0.0071
894.00,0.0072
893.00,0.0073
892.00,0.0073
891.00,0.0073
890.00,0.0073
889.00,0.0074
888.00,0.0074
887.00,0.0074
886.00,0.0074
885.00,0.0073
884.00,0.0072
883.00,0.0071
882.00,0.0071
881.00,0.0070
880.00,0.0068
879.00,0.0066
878.00,0.0066
877.00,0.0066
876.00,0.0066
875.00,0.0065
874.00,0.0065
873.00,0.0065
872.00,0.0064
871.00,0.0063
870.00,0.0063
869.00,0.0063
868.00,0.0063
867.00,0.0064
866.00,0.0065
865.00,0.0066
864.00,0.0066
863.00,0.0066
862.00,0.0067
861.00,0.0068
860.00,0.0069
859.00,0.0070
858.00,0.0071
857.00,0.0072
856.00,0.0073
855.00,0.0074
854.00,0.0075
853.00,0.0076
852.00,0.0077
851.00,0.0078
850.00,0.0079
849.00,0.0082
848.00,0.0084
847.00,0.0085
846.00,0.0088
845.00,0.0091
844.00,0.0095
843.00,0.0099
842.00,0.0104
841.00,0.0109
840.00,0.0114
839.00,0.0120
838.00,0.0128
837.00,0.0134
836.00,0.0139
835.00,0.0143
834.00,0.0147
833.00,0.0150
832.00,0.0152
831.00,0.0153
830.00,0.0154
829.00,0.0155
828.00,0.0157
827.00,0.0161
826.00,0.0166
825.00,0.0174
824.00,0.0187
823.00,0.0209
822.00,0.0243
821.00,0.0286
820.00,0.0336
819.00,0.0386
818.00,0.0425
817.00,0.0444
816.00,0.0440
815.00,0.0413
814.00,0.0369
813.00,0.0319
812.00,0.0269
811.00,0.0228
810.00,0.0196
809.00,0.0172
808.00,0.0153
807.00,0.0141
806.00,0.0134
805.00,0.0129
804.00,0.0125
803.00,0.0122
802.00,0.0119
801.00,0.0117
800.00,0.0115
799.00,0.0113
798.00,0.0112
797.00,0.0110
796.00,0.0108
795.00,0.0107
794.00,0.0107
793.00,0.0106
792.00,0.0104
791.00,0.0102
790.00,0.0102
789.00,0.0103
788.00,0.0102
787.00,0.0102
786.00,0.0102
785.00,0.0102
784.00,0.0102
783.00,0.0103
782.00,0.0105
781.00,0.0105
780.00,0.0105
779.00,0.0105
778.00,0.0107
777.00,0.0108
776.00,0.0108
775.00,0.0108
774.00,0.0109
773.00,0.0109
772.00,0.0110
771.00,0.0110
770.00,0.0112
769.00,0.0112
768.00,0.0112
767.00,0.0113
766.00,0.0115
765.00,0.0117
764.00,0.0117
763.00,0.0118
762.00,0.0120
761.00,0.0122
760.00,0.0122
759.00,0.0122
758.00,0.0124
757.00,0.0126
756.00,0.0128
755.00,0.0130
754.00,0.0132
753.00,0.0133
752.00,0.0134
751.00,0.0135
750.00,0.0138
749.00,0.0140
748.00,0.0140
747.00,0.0140
746.00,0.0142
745.00,0.0143
744.00,0.0144
743.00,0.0145
742.00,0.0146
741.00,0.0148
740.00,0.0148
739.00,0.0149
738.00,0.0150
737.00,0.0152
736.00,0.0152
735.00,0.0153
734.00,0.0155
733.00,0.0157
732.00,0.0157
731.00,0.0157
730.00,0.0157
729.00,0.0159
728.00,0.0161
727.00,0.0162
726.00,0.0163
725.00,0.0165
724.00,0.0165
723.00,0.0166
722.00,0.0168
721.00,0.0170
720.00,0.0169
719.00,0.0169
718.00,0.0170
717.00,0.0172
716.00,0.0173
715.00,0.0173
714.00,0.0174
713.00,0.0176
712.00,0.0177
711.00,0.0178
710.00,0.0179
709.00,0.0180
708.00,0.0180
707.00,0.0181
706.00,0.0183
705.00,0.0186
704.00,0.0187
703.00,0.0187
702.00,0.0189
701.00,0.0192
700.00,0.0194
699.00,0.0195
698.00,0.0195
697.00,0.0194
696.00,0.0195
695.00,0.0196
694.00,0.0198
693.00,0.0200
692.00,0.0201
691.00,0.0202
690.00,0.0204
689.00,0.0206
688.00,0.0209
687.00,0.0210
686.00,0.0210
685.00,0.0212
684.00,0.0213
683.00,0.0214
682.00,0.0215
681.00,0.0216
680.00,0.0217
679.00,0.0219
678.00,0.0222
677.00,0.0224
676.00,0.0224
675.00,0.0225
674.00,0.0226
673.00,0.0227
672.00,0.0229
671.00,0.0231
670.00,0.0231
669.00,0.0231
668.00,0.0232
667.00,0.0234
666.00,0.0235
665.00,0.0234
664.00,0.0234
663.00,0.0236
662.00,0.0239
661.00,0.0240
660.00,0.0240
659.00,0.0240
658.00,0.0241
657.00,0.0242
656.00,0.0243
655.00,0.0245
654.00,0.0246
653.00,0.0246
652.00,0.0246
651.00,0.0247
650.00,0.0249
649.00,0.0248
648.00,0.0246
647.00,0.0245
646.00,0.0245
645.00,0.0245
644.00,0.0245
643.00,0.0245
642.00,0.0245
641.00,0.0244
640.00,0.0244
639.00,0.0245
638.00,0.0247
637.00,0.0246
636.00,0.0243
635.00,0.0243
634.00,0.0245
633.00,0.0244
632.00,0.0242
631.00,0.0241
630.00,0.0242
629.00,0.0242
628.00,0.0241
627.00,0.0241
626.00,0.0241
625.00,0.0241
624.00,0.0239
623.00,0.0239
622.00,0.0240
621.00,0.0240
620.00,0.0236
619.00,0.0234
618.00,0.0236
617.00,0.0237
616.00,0.0234
615.00,0.0232
614.00,0.0232
613.00,0.0234
612.00,0.0234
611.00,0.0235
610.00,0.0236
609.00,0.0236
608.00,0.0233
607.00,0.0233
606.00,0.0235
605.00,0.0235
604.00,0.0232
603.00,0.0231
602.00,0.0232
601.00,0.0234
600.00,0.0232
599.00,0.0230
598.00,0.0232
597.00,0.0234
596.00,0.0233
595.00,0.0232
594.00,0.0233
593.00,0.0233
592.00,0.0228
591.00,0.0227
590.00,0.0230
589.00,0.0234
588.00,0.0231
587.00,0.0227
586.00,0.0225
585.00,0.0226
584.00,0.0225
583.00,0.0222
582.00,0.0222
581.00,0.0223
580.00,0.0222
579.00,0.0222
578.00,0.0222
577.00,0.0222
576.00,0.0218
575.00,0.0214
574.00,0.0215
573.00,0.0219
572.00,0.0218
571.00,0.0214
570.00,0.0211
569.00,0.0210
568.00,0.0209
567.00,0.0207
566.00,0.0207
565.00,0.0206
564.00,0.0203
563.00,0.0200
562.00,0.0201
561.00,0.0202
560.00,0.0198
559.00,0.0192
558.00,0.0191
557.00,0.0194
556.00,0.0195
555.00,0.0191
554.00,0.0188
553.00,0.0188
552.00,0.0189
551.00,0.0187
550.00,0.0185
549.00,0.0183
548.00,0.0181
547.00,0.0179
546.00,0.0179
545.00,0.0180
544.00,0.0179
543.00,0.0176
542.00,0.0174
541.00,0.0176
540.00,0.0178
539.00,0.0178
538.00,0.0176
537.00,0.0174
536.00,0.0174
535.00,0.0175
534.00,0.0177
533.00,0.0178
532.00,0.0175
531.00,0.0172
530.00,0.0170
529.00,0.0170
528.00,0.0169
527.00,0.0165
526.00,0.0161
525.00,0.0159
524.00,0.0160
523.00,0.0160
522.00,0.0158
521.00,0.0155
520.00,0.0154
519.00,0.0155
518.00,0.0157
517.00,0.0156
516.00,0.0155
515.00,0.0154
514.00,0.0156
513.00,0.0158
512.00,0.0161
511.00,0.0163
510.00,0.0161
509.00,0.0157
508.00,0.0156
507.00,0.0160
506.00,0.0165
505.00,0.0165
504.00,0.0161
503.00,0.0163
502.00,0.0170
501.00,0.0174
500.00,0.0174
499.00,0.0175
498.00,0.0179
497.00,0.0184
496.00,0.0191
495.00,0.0199
494.00,0.0206
493.00,0.0210
492.00,0.0215
491.00,0.0227
490.00,0.0238
489.00,0.0239
488.00,0.0234
487.00,0.0233
486.00,0.0235
485.00,0.0233
484.00,0.0225
483.00,0.0217
482.00,0.0209
481.00,0.0198
480.00,0.0189
479.00,0.0190
478.00,0.0194
477.00,0.0186
476.00,0.0170
475.00,0.0164
474.00,0.0172
473.00,0.0176
472.00,0.0166
471.00,0.0157
470.00,0.0161
469.00,0.0166
468.00,0.0164
467.00,0.0160
466.00,0.0158
465.00,0.0153
464.00,0.0146
463.00,0.0148
462.00,0.0158
461.00,0.0159
460.00,0.0145
459.00,0.0138
458.00,0.0148
457.00,0.0160
456.00,0.0157
455.00,0.0151
454.00,0.0151
453.00,0.0152
452.00,0.0150
451.00,0.0153
450.00,0.0161
449.00,0.0160
448.00,0.0149
447.00,0.0147
446.00,0.0162
445.00,0.0171
444.00,0.0159
443.00,0.0147
442.00,0.0157
441.00,0.0174
440.00,0.0176
439.00,0.0169
438.00,0.0172
437.00,0.0182
436.00,0.0186
435.00,0.0188
434.00,0.0196
433.00,0.0201
432.00,0.0194
431.00,0.0191
430.00,0.0208
429.00,0.0229
428.00,0.0231
427.00,0.0220
426.00,0.0221
425.00,0.0234
424.00,0.0244
423.00,0.0244
422.00,0.0247
421.00,0.0250
420.00,0.0243
419.00,0.0238
418.00,0.0245
417.00,0.0239
416.00,0.0205
415.00,0.0171
414.00,0.0167
413.00,0.0181
412.00,0.0175
411.00,0.0147
410.00,0.0131
409.00,0.0139
408.00,0.0149
407.00,0.0150
406.00,0.0154
405.00,0.0161
404.00,0.0157
403.00,0.0150
402.00,0.0163
401.00,0.0185
400.00,0.0176
