Created as New Dataset,Sample 944 By YargerLab Date Monday, July 28 2025
cm-1,A
4000.00,0.0040
3999.00,0.0040
3998.00,0.0040
3997.00,0.0040
3996.00,0.0040
3995.00,0.0040
3994.00,0.0040
3993.00,0.0040
3992.00,0.0040
3991.00,0.0040
3990.00,0.0040
3989.00,0.0040
3988.00,0.0040
3987.00,0.0040
3986.00,0.0040
3985.00,0.0040
3984.00,0.0041
3983.00,0.0041
3982.00,0.0041
3981.00,0.0041
3980.00,0.0040
3979.00,0.0040
3978.00,0.0040
3977.00,0.0041
3976.00,0.0041
3975.00,0.0040
3974.00,0.0040
3973.00,0.0040
3972.00,0.0040
3971.00,0.0040
3970.00,0.0040
3969.00,0.0040
3968.00,0.0040
3967.00,0.0040
3966.00,0.0040
3965.00,0.0040
3964.00,0.0040
3963.00,0.0040
3962.00,0.0040
3961.00,0.0040
3960.00,0.0040
3959.00,0.0040
3958.00,0.0040
3957.00,0.0040
3956.00,0.0040
3955.00,0.0040
3954.00,0.0041
3953.00,0.0041
3952.00,0.0041
3951.00,0.0040
3950.00,0.0040
3949.00,0.0040
3948.00,0.0040
3947.00,0.0040
3946.00,0.0040
3945.00,0.0040
3944.00,0.0041
3943.00,0.0041
3942.00,0.0041
3941.00,0.0040
3940.00,0.0040
3939.00,0.0040
3938.00,0.0040
3937.00,0.0040
3936.00,0.0040
3935.00,0.0040
3934.00,0.0040
3933.00,0.0040
3932.00,0.0040
3931.00,0.0040
3930.00,0.0040
3929.00,0.0040
3928.00,0.0040
3927.00,0.0040
3926.00,0.0040
3925.00,0.0040
3924.00,0.0040
3923.00,0.0039
3922.00,0.0040
3921.00,0.0040
3920.00,0.0040
3919.00,0.0040
3918.00,0.0040
3917.00,0.0040
3916.00,0.0040
3915.00,0.0040
3914.00,0.0040
3913.00,0.0040
3912.00,0.0040
3911.00,0.0040
3910.00,0.0040
3909.00,0.0040
3908.00,0.0040
3907.00,0.0040
3906.00,0.0040
3905.00,0.0040
3904.00,0.0041
3903.00,0.0041
3902.00,0.0040
3901.00,0.0040
3900.00,0.0040
3899.00,0.0040
3898.00,0.0040
3897.00,0.0040
3896.00,0.0040
3895.00,0.0039
3894.00,0.0039
3893.00,0.0039
3892.00,0.0039
3891.00,0.0040
3890.00,0.0040
3889.00,0.0040
3888.00,0.0040
3887.00,0.0040
3886.00,0.0039
3885.00,0.0039
3884.00,0.0039
3883.00,0.0039
3882.00,0.0039
3881.00,0.0039
3880.00,0.0040
3879.00,0.0040
3878.00,0.0040
3877.00,0.0039
3876.00,0.0039
3875.00,0.0039
3874.00,0.0039
3873.00,0.0039
3872.00,0.0039
3871.00,0.0039
3870.00,0.0039
3869.00,0.0039
3868.00,0.0039
3867.00,0.0039
3866.00,0.0039
3865.00,0.0039
3864.00,0.0040
3863.00,0.0040
3862.00,0.0040
3861.00,0.0040
3860.00,0.0040
3859.00,0.0040
3858.00,0.0040
3857.00,0.0040
3856.00,0.0039
3855.00,0.0039
3854.00,0.0039
3853.00,0.0039
3852.00,0.0039
3851.00,0.0039
3850.00,0.0039
3849.00,0.0039
3848.00,0.0039
3847.00,0.0039
3846.00,0.0039
3845.00,0.0039
3844.00,0.0039
3843.00,0.0039
3842.00,0.0039
3841.00,0.0039
3840.00,0.0040
3839.00,0.0040
3838.00,0.0040
3837.00,0.0040
3836.00,0.0039
3835.00,0.0039
3834.00,0.0039
3833.00,0.0039
3832.00,0.0039
3831.00,0.0039
3830.00,0.0040
3829.00,0.0040
3828.00,0.0040
3827.00,0.0040
3826.00,0.0040
3825.00,0.0040
3824.00,0.0040
3823.00,0.0040
3822.00,0.0040
3821.00,0.0040
3820.00,0.0040
3819.00,0.0040
3818.00,0.0039
3817.00,0.0039
3816.00,0.0039
3815.00,0.0039
3814.00,0.0039
3813.00,0.0039
3812.00,0.0039
3811.00,0.0039
3810.00,0.0039
3809.00,0.0040
3808.00,0.0040
3807.00,0.0040
3806.00,0.0040
3805.00,0.0040
3804.00,0.0039
3803.00,0.0039
3802.00,0.0039
3801.00,0.0039
3800.00,0.0039
3799.00,0.0039
3798.00,0.0039
3797.00,0.0039
3796.00,0.0040
3795.00,0.0040
3794.00,0.0040
3793.00,0.0040
3792.00,0.0040
3791.00,0.0040
3790.00,0.0040
3789.00,0.0040
3788.00,0.0040
3787.00,0.0040
3786.00,0.0040
3785.00,0.0040
3784.00,0.0040
3783.00,0.0040
3782.00,0.0040
3781.00,0.0040
3780.00,0.0041
3779.00,0.0041
3778.00,0.0041
3777.00,0.0041
3776.00,0.0040
3775.00,0.0040
3774.00,0.0040
3773.00,0.0040
3772.00,0.0040
3771.00,0.0040
3770.00,0.0040
3769.00,0.0040
3768.00,0.0041
3767.00,0.0041
3766.00,0.0041
3765.00,0.0041
3764.00,0.0041
3763.00,0.0041
3762.00,0.0040
3761.00,0.0040
3760.00,0.0041
3759.00,0.0041
3758.00,0.0041
3757.00,0.0040
3756.00,0.0040
3755.00,0.0040
3754.00,0.0040
3753.00,0.0040
3752.00,0.0040
3751.00,0.0041
3750.00,0.0041
3749.00,0.0041
3748.00,0.0040
3747.00,0.0040
3746.00,0.0040
3745.00,0.0039
3744.00,0.0039
3743.00,0.0039
3742.00,0.0039
3741.00,0.0039
3740.00,0.0039
3739.00,0.0039
3738.00,0.0040
3737.00,0.0040
3736.00,0.0040
3735.00,0.0040
3734.00,0.0039
3733.00,0.0039
3732.00,0.0039
3731.00,0.0039
3730.00,0.0039
3729.00,0.0039
3728.00,0.0039
3727.00,0.0039
3726.00,0.0039
3725.00,0.0039
3724.00,0.0039
3723.00,0.0039
3722.00,0.0039
3721.00,0.0040
3720.00,0.0040
3719.00,0.0040
3718.00,0.0040
3717.00,0.0040
3716.00,0.0040
3715.00,0.0040
3714.00,0.0039
3713.00,0.0039
3712.00,0.0039
3711.00,0.0039
3710.00,0.0039
3709.00,0.0039
3708.00,0.0039
3707.00,0.0039
3706.00,0.0039
3705.00,0.0039
3704.00,0.0039
3703.00,0.0039
3702.00,0.0039
3701.00,0.0039
3700.00,0.0039
3699.00,0.0039
3698.00,0.0039
3697.00,0.0039
3696.00,0.0039
3695.00,0.0039
3694.00,0.0039
3693.00,0.0039
3692.00,0.0039
3691.00,0.0039
3690.00,0.0039
3689.00,0.0039
3688.00,0.0039
3687.00,0.0039
3686.00,0.0040
3685.00,0.0040
3684.00,0.0041
3683.00,0.0041
3682.00,0.0042
3681.00,0.0042
3680.00,0.0042
3679.00,0.0042
3678.00,0.0042
3677.00,0.0042
3676.00,0.0042
3675.00,0.0042
3674.00,0.0042
3673.00,0.0042
3672.00,0.0042
3671.00,0.0042
3670.00,0.0042
3669.00,0.0042
3668.00,0.0042
3667.00,0.0042
3666.00,0.0042
3665.00,0.0043
3664.00,0.0043
3663.00,0.0044
3662.00,0.0044
3661.00,0.0044
3660.00,0.0044
3659.00,0.0043
3658.00,0.0043
3657.00,0.0044
3656.00,0.0044
3655.00,0.0044
3654.00,0.0045
3653.00,0.0045
3652.00,0.0045
3651.00,0.0045
3650.00,0.0046
3649.00,0.0046
3648.00,0.0046
3647.00,0.0046
3646.00,0.0047
3645.00,0.0047
3644.00,0.0047
3643.00,0.0047
3642.00,0.0048
3641.00,0.0048
3640.00,0.0049
3639.00,0.0049
3638.00,0.0049
3637.00,0.0050
3636.00,0.0050
3635.00,0.0050
3634.00,0.0051
3633.00,0.0051
3632.00,0.0051
3631.00,0.0052
3630.00,0.0052
3629.00,0.0052
3628.00,0.0052
3627.00,0.0053
3626.00,0.0053
3625.00,0.0054
3624.00,0.0054
3623.00,0.0055
3622.00,0.0055
3621.00,0.0056
3620.00,0.0056
3619.00,0.0057
3618.00,0.0057
3617.00,0.0058
3616.00,0.0058
3615.00,0.0059
3614.00,0.0059
3613.00,0.0060
3612.00,0.0061
3611.00,0.0061
3610.00,0.0061
3609.00,0.0062
3608.00,0.0063
3607.00,0.0063
3606.00,0.0064
3605.00,0.0064
3604.00,0.0065
3603.00,0.0066
3602.00,0.0067
3601.00,0.0067
3600.00,0.0068
3599.00,0.0069
3598.00,0.0070
3597.00,0.0070
3596.00,0.0071
3595.00,0.0071
3594.00,0.0072
3593.00,0.0073
3592.00,0.0074
3591.00,0.0074
3590.00,0.0075
3589.00,0.0075
3588.00,0.0076
3587.00,0.0077
3586.00,0.0078
3585.00,0.0079
3584.00,0.0080
3583.00,0.0081
3582.00,0.0081
3581.00,0.0082
3580.00,0.0083
3579.00,0.0084
3578.00,0.0085
3577.00,0.0086
3576.00,0.0087
3575.00,0.0088
3574.00,0.0089
3573.00,0.0090
3572.00,0.0091
3571.00,0.0091
3570.00,0.0092
3569.00,0.0093
3568.00,0.0094
3567.00,0.0095
3566.00,0.0096
3565.00,0.0096
3564.00,0.0097
3563.00,0.0098
3562.00,0.0099
3561.00,0.0100
3560.00,0.0101
3559.00,0.0102
3558.00,0.0103
3557.00,0.0104
3556.00,0.0105
3555.00,0.0106
3554.00,0.0107
3553.00,0.0108
3552.00,0.0108
3551.00,0.0109
3550.00,0.0110
3549.00,0.0111
3548.00,0.0112
3547.00,0.0113
3546.00,0.0113
3545.00,0.0114
3544.00,0.0115
3543.00,0.0116
3542.00,0.0117
3541.00,0.0117
3540.00,0.0118
3539.00,0.0119
3538.00,0.0119
3537.00,0.0120
3536.00,0.0121
3535.00,0.0122
3534.00,0.0122
3533.00,0.0123
3532.00,0.0124
3531.00,0.0124
3530.00,0.0125
3529.00,0.0125
3528.00,0.0126
3527.00,0.0127
3526.00,0.0128
3525.00,0.0129
3524.00,0.0129
3523.00,0.0130
3522.00,0.0130
3521.00,0.0130
3520.00,0.0131
3519.00,0.0131
3518.00,0.0132
3517.00,0.0132
3516.00,0.0133
3515.00,0.0133
3514.00,0.0134
3513.00,0.0134
3512.00,0.0134
3511.00,0.0135
3510.00,0.0135
3509.00,0.0136
3508.00,0.0136
3507.00,0.0137
3506.00,0.0137
3505.00,0.0137
3504.00,0.0138
3503.00,0.0138
3502.00,0.0139
3501.00,0.0139
3500.00,0.0140
3499.00,0.0140
3498.00,0.0141
3497.00,0.0141
3496.00,0.0142
3495.00,0.0142
3494.00,0.0143
3493.00,0.0143
3492.00,0.0144
3491.00,0.0144
3490.00,0.0145
3489.00,0.0145
3488.00,0.0146
3487.00,0.0146
3486.00,0.0146
3485.00,0.0147
3484.00,0.0148
3483.00,0.0149
3482.00,0.0149
3481.00,0.0150
3480.00,0.0150
3479.00,0.0151
3478.00,0.0151
3477.00,0.0152
3476.00,0.0153
3475.00,0.0154
3474.00,0.0155
3473.00,0.0155
3472.00,0.0156
3471.00,0.0157
3470.00,0.0158
3469.00,0.0158
3468.00,0.0159
3467.00,0.0160
3466.00,0.0160
3465.00,0.0161
3464.00,0.0162
3463.00,0.0162
3462.00,0.0163
3461.00,0.0164
3460.00,0.0165
3459.00,0.0165
3458.00,0.0166
3457.00,0.0167
3456.00,0.0168
3455.00,0.0168
3454.00,0.0169
3453.00,0.0170
3452.00,0.0171
3451.00,0.0171
3450.00,0.0172
3449.00,0.0173
3448.00,0.0173
3447.00,0.0174
3446.00,0.0175
3445.00,0.0176
3444.00,0.0177
3443.00,0.0178
3442.00,0.0178
3441.00,0.0179
3440.00,0.0180
3439.00,0.0181
3438.00,0.0181
3437.00,0.0182
3436.00,0.0183
3435.00,0.0184
3434.00,0.0185
3433.00,0.0186
3432.00,0.0187
3431.00,0.0187
3430.00,0.0188
3429.00,0.0189
3428.00,0.0190
3427.00,0.0191
3426.00,0.0192
3425.00,0.0193
3424.00,0.0194
3423.00,0.0195
3422.00,0.0196
3421.00,0.0197
3420.00,0.0198
3419.00,0.0200
3418.00,0.0201
3417.00,0.0202
3416.00,0.0203
3415.00,0.0203
3414.00,0.0204
3413.00,0.0205
3412.00,0.0205
3411.00,0.0206
3410.00,0.0207
3409.00,0.0207
3408.00,0.0208
3407.00,0.0208
3406.00,0.0209
3405.00,0.0209
3404.00,0.0209
3403.00,0.0209
3402.00,0.0210
3401.00,0.0210
3400.00,0.0210
3399.00,0.0210
3398.00,0.0210
3397.00,0.0210
3396.00,0.0209
3395.00,0.0209
3394.00,0.0208
3393.00,0.0208
3392.00,0.0207
3391.00,0.0207
3390.00,0.0206
3389.00,0.0206
3388.00,0.0205
3387.00,0.0204
3386.00,0.0203
3385.00,0.0202
3384.00,0.0201
3383.00,0.0200
3382.00,0.0199
3381.00,0.0198
3380.00,0.0197
3379.00,0.0196
3378.00,0.0195
3377.00,0.0195
3376.00,0.0194
3375.00,0.0193
3374.00,0.0192
3373.00,0.0190
3372.00,0.0189
3371.00,0.0187
3370.00,0.0186
3369.00,0.0185
3368.00,0.0184
3367.00,0.0183
3366.00,0.0183
3365.00,0.0182
3364.00,0.0182
3363.00,0.0182
3362.00,0.0181
3361.00,0.0180
3360.00,0.0179
3359.00,0.0178
3358.00,0.0177
3357.00,0.0177
3356.00,0.0176
3355.00,0.0176
3354.00,0.0175
3353.00,0.0173
3352.00,0.0172
3351.00,0.0171
3350.00,0.0171
3349.00,0.0171
3348.00,0.0171
3347.00,0.0171
3346.00,0.0170
3345.00,0.0169
3344.00,0.0169
3343.00,0.0168
3342.00,0.0168
3341.00,0.0168
3340.00,0.0167
3339.00,0.0166
3338.00,0.0166
3337.00,0.0166
3336.00,0.0166
3335.00,0.0166
3334.00,0.0166
3333.00,0.0166
3332.00,0.0166
3331.00,0.0165
3330.00,0.0165
3329.00,0.0164
3328.00,0.0163
3327.00,0.0162
3326.00,0.0162
3325.00,0.0162
3324.00,0.0162
3323.00,0.0163
3322.00,0.0163
3321.00,0.0163
3320.00,0.0163
3319.00,0.0163
3318.00,0.0163
3317.00,0.0163
3316.00,0.0163
3315.00,0.0163
3314.00,0.0163
3313.00,0.0163
3312.00,0.0163
3311.00,0.0162
3310.00,0.0160
3309.00,0.0159
3308.00,0.0158
3307.00,0.0158
3306.00,0.0158
3305.00,0.0159
3304.00,0.0160
3303.00,0.0162
3302.00,0.0163
3301.00,0.0163
3300.00,0.0163
3299.00,0.0163
3298.00,0.0163
3297.00,0.0162
3296.00,0.0162
3295.00,0.0161
3294.00,0.0161
3293.00,0.0162
3292.00,0.0162
3291.00,0.0163
3290.00,0.0164
3289.00,0.0165
3288.00,0.0165
3287.00,0.0165
3286.00,0.0165
3285.00,0.0166
3284.00,0.0166
3283.00,0.0166
3282.00,0.0166
3281.00,0.0166
3280.00,0.0166
3279.00,0.0166
3278.00,0.0166
3277.00,0.0165
3276.00,0.0165
3275.00,0.0165
3274.00,0.0165
3273.00,0.0165
3272.00,0.0165
3271.00,0.0165
3270.00,0.0165
3269.00,0.0166
3268.00,0.0166
3267.00,0.0167
3266.00,0.0167
3265.00,0.0167
3264.00,0.0168
3263.00,0.0168
3262.00,0.0168
3261.00,0.0168
3260.00,0.0168
3259.00,0.0168
3258.00,0.0168
3257.00,0.0168
3256.00,0.0168
3255.00,0.0168
3254.00,0.0168
3253.00,0.0168
3252.00,0.0168
3251.00,0.0168
3250.00,0.0168
3249.00,0.0168
3248.00,0.0168
3247.00,0.0168
3246.00,0.0169
3245.00,0.0169
3244.00,0.0169
3243.00,0.0169
3242.00,0.0169
3241.00,0.0169
3240.00,0.0169
3239.00,0.0169
3238.00,0.0168
3237.00,0.0168
3236.00,0.0167
3235.00,0.0166
3234.00,0.0166
3233.00,0.0165
3232.00,0.0165
3231.00,0.0165
3230.00,0.0165
3229.00,0.0165
3228.00,0.0165
3227.00,0.0165
3226.00,0.0164
3225.00,0.0164
3224.00,0.0164
3223.00,0.0164
3222.00,0.0163
3221.00,0.0163
3220.00,0.0162
3219.00,0.0162
3218.00,0.0161
3217.00,0.0160
3216.00,0.0160
3215.00,0.0159
3214.00,0.0159
3213.00,0.0158
3212.00,0.0158
3211.00,0.0157
3210.00,0.0156
3209.00,0.0155
3208.00,0.0154
3207.00,0.0153
3206.00,0.0152
3205.00,0.0152
3204.00,0.0151
3203.00,0.0150
3202.00,0.0149
3201.00,0.0148
3200.00,0.0147
3199.00,0.0147
3198.00,0.0146
3197.00,0.0145
3196.00,0.0144
3195.00,0.0143
3194.00,0.0142
3193.00,0.0141
3192.00,0.0141
3191.00,0.0140
3190.00,0.0139
3189.00,0.0138
3188.00,0.0137
3187.00,0.0137
3186.00,0.0136
3185.00,0.0135
3184.00,0.0134
3183.00,0.0133
3182.00,0.0132
3181.00,0.0132
3180.00,0.0131
3179.00,0.0130
3178.00,0.0129
3177.00,0.0128
3176.00,0.0127
3175.00,0.0126
3174.00,0.0125
3173.00,0.0125
3172.00,0.0124
3171.00,0.0123
3170.00,0.0122
3169.00,0.0121
3168.00,0.0120
3167.00,0.0119
3166.00,0.0118
3165.00,0.0117
3164.00,0.0116
3163.00,0.0115
3162.00,0.0115
3161.00,0.0114
3160.00,0.0113
3159.00,0.0112
3158.00,0.0111
3157.00,0.0110
3156.00,0.0110
3155.00,0.0109
3154.00,0.0108
3153.00,0.0107
3152.00,0.0106
3151.00,0.0106
3150.00,0.0105
3149.00,0.0104
3148.00,0.0103
3147.00,0.0102
3146.00,0.0102
3145.00,0.0101
3144.00,0.0100
3143.00,0.0100
3142.00,0.0099
3141.00,0.0098
3140.00,0.0097
3139.00,0.0097
3138.00,0.0096
3137.00,0.0096
3136.00,0.0095
3135.00,0.0095
3134.00,0.0094
3133.00,0.0094
3132.00,0.0093
3131.00,0.0092
3130.00,0.0092
3129.00,0.0091
3128.00,0.0091
3127.00,0.0090
3126.00,0.0090
3125.00,0.0090
3124.00,0.0089
3123.00,0.0089
3122.00,0.0089
3121.00,0.0088
3120.00,0.0088
3119.00,0.0087
3118.00,0.0086
3117.00,0.0086
3116.00,0.0085
3115.00,0.0085
3114.00,0.0085
3113.00,0.0084
3112.00,0.0084
3111.00,0.0083
3110.00,0.0083
3109.00,0.0082
3108.00,0.0082
3107.00,0.0081
3106.00,0.0081
3105.00,0.0081
3104.00,0.0080
3103.00,0.0080
3102.00,0.0080
3101.00,0.0080
3100.00,0.0080
3099.00,0.0079
3098.00,0.0079
3097.00,0.0079
3096.00,0.0078
3095.00,0.0078
3094.00,0.0078
3093.00,0.0078
3092.00,0.0078
3091.00,0.0078
3090.00,0.0079
3089.00,0.0079
3088.00,0.0079
3087.00,0.0079
3086.00,0.0079
3085.00,0.0079
3084.00,0.0079
3083.00,0.0078
3082.00,0.0078
3081.00,0.0078
3080.00,0.0078
3079.00,0.0078
3078.00,0.0078
3077.00,0.0077
3076.00,0.0077
3075.00,0.0077
3074.00,0.0076
3073.00,0.0076
3072.00,0.0076
3071.00,0.0076
3070.00,0.0076
3069.00,0.0076
3068.00,0.0076
3067.00,0.0075
3066.00,0.0075
3065.00,0.0075
3064.00,0.0075
3063.00,0.0075
3062.00,0.0075
3061.00,0.0075
3060.00,0.0075
3059.00,0.0076
3058.00,0.0076
3057.00,0.0076
3056.00,0.0076
3055.00,0.0076
3054.00,0.0076
3053.00,0.0076
3052.00,0.0076
3051.00,0.0076
3050.00,0.0076
3049.00,0.0076
3048.00,0.0075
3047.00,0.0075
3046.00,0.0075
3045.00,0.0075
3044.00,0.0076
3043.00,0.0076
3042.00,0.0076
3041.00,0.0076
3040.00,0.0077
3039.00,0.0077
3038.00,0.0078
3037.00,0.0078
3036.00,0.0079
3035.00,0.0080
3034.00,0.0080
3033.00,0.0080
3032.00,0.0080
3031.00,0.0080
3030.00,0.0080
3029.00,0.0080
3028.00,0.0079
3027.00,0.0079
3026.00,0.0079
3025.00,0.0078
3024.00,0.0078
3023.00,0.0078
3022.00,0.0078
3021.00,0.0078
3020.00,0.0078
3019.00,0.0078
3018.00,0.0078
3017.00,0.0078
3016.00,0.0078
3015.00,0.0079
3014.00,0.0079
3013.00,0.0080
3012.00,0.0082
3011.00,0.0083
3010.00,0.0084
3009.00,0.0086
3008.00,0.0088
3007.00,0.0090
3006.00,0.0092
3005.00,0.0095
3004.00,0.0098
3003.00,0.0101
3002.00,0.0104
3001.00,0.0107
3000.00,0.0111
2999.00,0.0114
2998.00,0.0119
2997.00,0.0123
2996.00,0.0127
2995.00,0.0131
2994.00,0.0136
2993.00,0.0140
2992.00,0.0144
2991.00,0.0148
2990.00,0.0152
2989.00,0.0156
2988.00,0.0160
2987.00,0.0164
2986.00,0.0169
2985.00,0.0174
2984.00,0.0179
2983.00,0.0186
2982.00,0.0192
2981.00,0.0198
2980.00,0.0204
2979.00,0.0208
2978.00,0.0211
2977.00,0.0214
2976.00,0.0217
2975.00,0.0221
2974.00,0.0226
2973.00,0.0233
2972.00,0.0240
2971.00,0.0247
2970.00,0.0252
2969.00,0.0256
2968.00,0.0260
2967.00,0.0263
2966.00,0.0266
2965.00,0.0270
2964.00,0.0274
2963.00,0.0278
2962.00,0.0282
2961.00,0.0284
2960.00,0.0286
2959.00,0.0286
2958.00,0.0284
2957.00,0.0281
2956.00,0.0278
2955.00,0.0274
2954.00,0.0269
2953.00,0.0266
2952.00,0.0262
2951.00,0.0259
2950.00,0.0256
2949.00,0.0255
2948.00,0.0254
2947.00,0.0255
2946.00,0.0256
2945.00,0.0258
2944.00,0.0260
2943.00,0.0263
2942.00,0.0267
2941.00,0.0271
2940.00,0.0276
2939.00,0.0282
2938.00,0.0289
2937.00,0.0297
2936.00,0.0306
2935.00,0.0317
2934.00,0.0327
2933.00,0.0338
2932.00,0.0349
2931.00,0.0358
2930.00,0.0367
2929.00,0.0374
2928.00,0.0378
2927.00,0.0380
2926.00,0.0380
2925.00,0.0377
2924.00,0.0373
2923.00,0.0367
2922.00,0.0360
2921.00,0.0351
2920.00,0.0342
2919.00,0.0333
2918.00,0.0324
2917.00,0.0315
2916.00,0.0307
2915.00,0.0299
2914.00,0.0291
2913.00,0.0285
2912.00,0.0278
2911.00,0.0273
2910.00,0.0267
2909.00,0.0262
2908.00,0.0256
2907.00,0.0251
2906.00,0.0246
2905.00,0.0242
2904.00,0.0238
2903.00,0.0234
2902.00,0.0231
2901.00,0.0228
2900.00,0.0226
2899.00,0.0223
2898.00,0.0221
2897.00,0.0219
2896.00,0.0217
2895.00,0.0215
2894.00,0.0214
2893.00,0.0212
2892.00,0.0211
2891.00,0.0210
2890.00,0.0208
2889.00,0.0207
2888.00,0.0206
2887.00,0.0205
2886.00,0.0204
2885.00,0.0203
2884.00,0.0203
2883.00,0.0203
2882.00,0.0204
2881.00,0.0205
2880.00,0.0206
2879.00,0.0208
2878.00,0.0211
2877.00,0.0214
2876.00,0.0217
2875.00,0.0220
2874.00,0.0223
2873.00,0.0224
2872.00,0.0225
2871.00,0.0225
2870.00,0.0224
2869.00,0.0222
2868.00,0.0221
2867.00,0.0220
2866.00,0.0221
2865.00,0.0223
2864.00,0.0226
2863.00,0.0231
2862.00,0.0238
2861.00,0.0245
2860.00,0.0252
2859.00,0.0259
2858.00,0.0263
2857.00,0.0266
2856.00,0.0266
2855.00,0.0265
2854.00,0.0261
2853.00,0.0256
2852.00,0.0250
2851.00,0.0242
2850.00,0.0233
2849.00,0.0223
2848.00,0.0212
2847.00,0.0202
2846.00,0.0192
2845.00,0.0183
2844.00,0.0174
2843.00,0.0166
2842.00,0.0159
2841.00,0.0153
2840.00,0.0147
2839.00,0.0142
2838.00,0.0137
2837.00,0.0134
2836.00,0.0130
2835.00,0.0127
2834.00,0.0124
2833.00,0.0121
2832.00,0.0119
2831.00,0.0116
2830.00,0.0113
2829.00,0.0111
2828.00,0.0109
2827.00,0.0106
2826.00,0.0104
2825.00,0.0102
2824.00,0.0100
2823.00,0.0098
2822.00,0.0096
2821.00,0.0094
2820.00,0.0093
2819.00,0.0091
2818.00,0.0090
2817.00,0.0089
2816.00,0.0088
2815.00,0.0087
2814.00,0.0086
2813.00,0.0085
2812.00,0.0085
2811.00,0.0084
2810.00,0.0083
2809.00,0.0082
2808.00,0.0082
2807.00,0.0081
2806.00,0.0080
2805.00,0.0080
2804.00,0.0079
2803.00,0.0079
2802.00,0.0078
2801.00,0.0077
2800.00,0.0077
2799.00,0.0077
2798.00,0.0076
2797.00,0.0076
2796.00,0.0075
2795.00,0.0075
2794.00,0.0075
2793.00,0.0074
2792.00,0.0074
2791.00,0.0073
2790.00,0.0073
2789.00,0.0073
2788.00,0.0072
2787.00,0.0072
2786.00,0.0071
2785.00,0.0071
2784.00,0.0070
2783.00,0.0070
2782.00,0.0070
2781.00,0.0070
2780.00,0.0070
2779.00,0.0069
2778.00,0.0069
2777.00,0.0068
2776.00,0.0068
2775.00,0.0068
2774.00,0.0067
2773.00,0.0067
2772.00,0.0067
2771.00,0.0067
2770.00,0.0066
2769.00,0.0066
2768.00,0.0066
2767.00,0.0066
2766.00,0.0066
2765.00,0.0066
2764.00,0.0066
2763.00,0.0066
2762.00,0.0065
2761.00,0.0065
2760.00,0.0065
2759.00,0.0066
2758.00,0.0066
2757.00,0.0066
2756.00,0.0066
2755.00,0.0066
2754.00,0.0066
2753.00,0.0066
2752.00,0.0066
2751.00,0.0066
2750.00,0.0066
2749.00,0.0066
2748.00,0.0066
2747.00,0.0066
2746.00,0.0066
2745.00,0.0066
2744.00,0.0066
2743.00,0.0066
2742.00,0.0067
2741.00,0.0067
2740.00,0.0067
2739.00,0.0067
2738.00,0.0067
2737.00,0.0067
2736.00,0.0068
2735.00,0.0068
2734.00,0.0068
2733.00,0.0069
2732.00,0.0069
2731.00,0.0069
2730.00,0.0069
2729.00,0.0069
2728.00,0.0068
2727.00,0.0068
2726.00,0.0068
2725.00,0.0068
2724.00,0.0068
2723.00,0.0067
2722.00,0.0067
2721.00,0.0067
2720.00,0.0067
2719.00,0.0066
2718.00,0.0066
2717.00,0.0066
2716.00,0.0066
2715.00,0.0066
2714.00,0.0066
2713.00,0.0066
2712.00,0.0065
2711.00,0.0065
2710.00,0.0065
2709.00,0.0064
2708.00,0.0064
2707.00,0.0064
2706.00,0.0064
2705.00,0.0064
2704.00,0.0064
2703.00,0.0064
2702.00,0.0064
2701.00,0.0064
2700.00,0.0063
2699.00,0.0063
2698.00,0.0063
2697.00,0.0063
2696.00,0.0063
2695.00,0.0062
2694.00,0.0062
2693.00,0.0062
2692.00,0.0062
2691.00,0.0062
2690.00,0.0062
2689.00,0.0062
2688.00,0.0062
2687.00,0.0062
2686.00,0.0062
2685.00,0.0062
2684.00,0.0061
2683.00,0.0061
2682.00,0.0061
2681.00,0.0061
2680.00,0.0061
2679.00,0.0061
2678.00,0.0061
2677.00,0.0061
2676.00,0.0061
2675.00,0.0061
2674.00,0.0061
2673.00,0.0061
2672.00,0.0061
2671.00,0.0061
2670.00,0.0062
2669.00,0.0062
2668.00,0.0062
2667.00,0.0063
2666.00,0.0063
2665.00,0.0063
2664.00,0.0064
2663.00,0.0065
2662.00,0.0065
2661.00,0.0066
2660.00,0.0066
2659.00,0.0066
2658.00,0.0067
2657.00,0.0067
2656.00,0.0067
2655.00,0.0067
2654.00,0.0067
2653.00,0.0067
2652.00,0.0067
2651.00,0.0067
2650.00,0.0067
2649.00,0.0067
2648.00,0.0067
2647.00,0.0067
2646.00,0.0067
2645.00,0.0067
2644.00,0.0067
2643.00,0.0067
2642.00,0.0067
2641.00,0.0067
2640.00,0.0067
2639.00,0.0066
2638.00,0.0066
2637.00,0.0066
2636.00,0.0066
2635.00,0.0066
2634.00,0.0065
2633.00,0.0065
2632.00,0.0065
2631.00,0.0064
2630.00,0.0064
2629.00,0.0064
2628.00,0.0064
2627.00,0.0064
2626.00,0.0063
2625.00,0.0063
2624.00,0.0063
2623.00,0.0063
2622.00,0.0063
2621.00,0.0063
2620.00,0.0063
2619.00,0.0063
2618.00,0.0063
2617.00,0.0063
2616.00,0.0063
2615.00,0.0062
2614.00,0.0062
2613.00,0.0062
2612.00,0.0062
2611.00,0.0062
2610.00,0.0062
2609.00,0.0061
2608.00,0.0061
2607.00,0.0061
2606.00,0.0061
2605.00,0.0061
2604.00,0.0061
2603.00,0.0062
2602.00,0.0062
2601.00,0.0062
2600.00,0.0062
2599.00,0.0062
2598.00,0.0062
2597.00,0.0062
2596.00,0.0062
2595.00,0.0062
2594.00,0.0062
2593.00,0.0062
2592.00,0.0062
2591.00,0.0062
2590.00,0.0062
2589.00,0.0062
2588.00,0.0063
2587.00,0.0063
2586.00,0.0063
2585.00,0.0063
2584.00,0.0062
2583.00,0.0062
2582.00,0.0062
2581.00,0.0062
2580.00,0.0062
2579.00,0.0062
2578.00,0.0062
2577.00,0.0062
2576.00,0.0062
2575.00,0.0062
2574.00,0.0062
2573.00,0.0061
2572.00,0.0061
2571.00,0.0061
2570.00,0.0061
2569.00,0.0061
2568.00,0.0061
2567.00,0.0061
2566.00,0.0060
2565.00,0.0060
2564.00,0.0061
2563.00,0.0061
2562.00,0.0061
2561.00,0.0060
2560.00,0.0060
2559.00,0.0060
2558.00,0.0060
2557.00,0.0059
2556.00,0.0059
2555.00,0.0059
2554.00,0.0058
2553.00,0.0058
2552.00,0.0058
2551.00,0.0059
2550.00,0.0059
2549.00,0.0059
2548.00,0.0058
2547.00,0.0058
2546.00,0.0058
2545.00,0.0058
2544.00,0.0058
2543.00,0.0057
2542.00,0.0057
2541.00,0.0058
2540.00,0.0058
2539.00,0.0058
2538.00,0.0058
2537.00,0.0058
2536.00,0.0058
2535.00,0.0058
2534.00,0.0058
2533.00,0.0058
2532.00,0.0057
2531.00,0.0057
2530.00,0.0057
2529.00,0.0056
2528.00,0.0056
2527.00,0.0056
2526.00,0.0056
2525.00,0.0056
2524.00,0.0055
2523.00,0.0055
2522.00,0.0055
2521.00,0.0055
2520.00,0.0055
2519.00,0.0055
2518.00,0.0055
2517.00,0.0055
2516.00,0.0055
2515.00,0.0055
2514.00,0.0055
2513.00,0.0055
2512.00,0.0055
2511.00,0.0055
2510.00,0.0055
2509.00,0.0054
2508.00,0.0054
2507.00,0.0054
2506.00,0.0053
2505.00,0.0053
2504.00,0.0053
2503.00,0.0053
2502.00,0.0053
2501.00,0.0053
2500.00,0.0053
2499.00,0.0053
2498.00,0.0053
2497.00,0.0053
2496.00,0.0053
2495.00,0.0053
2494.00,0.0053
2493.00,0.0053
2492.00,0.0053
2491.00,0.0053
2490.00,0.0052
2489.00,0.0052
2488.00,0.0052
2487.00,0.0052
2486.00,0.0052
2485.00,0.0052
2484.00,0.0052
2483.00,0.0052
2482.00,0.0052
2481.00,0.0052
2480.00,0.0052
2479.00,0.0052
2478.00,0.0052
2477.00,0.0052
2476.00,0.0051
2475.00,0.0051
2474.00,0.0051
2473.00,0.0051
2472.00,0.0051
2471.00,0.0051
2470.00,0.0051
2469.00,0.0051
2468.00,0.0051
2467.00,0.0052
2466.00,0.0052
2465.00,0.0052
2464.00,0.0052
2463.00,0.0052
2462.00,0.0052
2461.00,0.0052
2460.00,0.0052
2459.00,0.0053
2458.00,0.0053
2457.00,0.0053
2456.00,0.0053
2455.00,0.0053
2454.00,0.0053
2453.00,0.0053
2452.00,0.0053
2451.00,0.0052
2450.00,0.0052
2449.00,0.0052
2448.00,0.0052
2447.00,0.0052
2446.00,0.0051
2445.00,0.0051
2444.00,0.0051
2443.00,0.0051
2442.00,0.0051
2441.00,0.0051
2440.00,0.0051
2439.00,0.0051
2438.00,0.0051
2437.00,0.0051
2436.00,0.0051
2435.00,0.0051
2434.00,0.0051
2433.00,0.0051
2432.00,0.0051
2431.00,0.0051
2430.00,0.0051
2429.00,0.0050
2428.00,0.0050
2427.00,0.0050
2426.00,0.0049
2425.00,0.0049
2424.00,0.0050
2423.00,0.0050
2422.00,0.0050
2421.00,0.0050
2420.00,0.0050
2419.00,0.0050
2418.00,0.0050
2417.00,0.0050
2416.00,0.0050
2415.00,0.0050
2414.00,0.0050
2413.00,0.0050
2412.00,0.0050
2411.00,0.0050
2410.00,0.0050
2409.00,0.0050
2408.00,0.0050
2407.00,0.0049
2406.00,0.0049
2405.00,0.0049
2404.00,0.0049
2403.00,0.0049
2402.00,0.0049
2401.00,0.0048
2400.00,0.0048
2399.00,0.0048
2398.00,0.0048
2397.00,0.0048
2396.00,0.0048
2395.00,0.0048
2394.00,0.0048
2393.00,0.0048
2392.00,0.0048
2391.00,0.0048
2390.00,0.0048
2389.00,0.0047
2388.00,0.0047
2387.00,0.0047
2386.00,0.0046
2385.00,0.0046
2384.00,0.0045
2383.00,0.0045
2382.00,0.0044
2381.00,0.0044
2380.00,0.0044
2379.00,0.0044
2378.00,0.0044
2377.00,0.0044
2376.00,0.0044
2375.00,0.0044
2374.00,0.0044
2373.00,0.0044
2372.00,0.0044
2371.00,0.0044
2370.00,0.0044
2369.00,0.0044
2368.00,0.0044
2367.00,0.0044
2366.00,0.0043
2365.00,0.0044
2364.00,0.0044
2363.00,0.0044
2362.00,0.0044
2361.00,0.0045
2360.00,0.0045
2359.00,0.0046
2358.00,0.0046
2357.00,0.0045
2356.00,0.0045
2355.00,0.0045
2354.00,0.0045
2353.00,0.0045
2352.00,0.0045
2351.00,0.0045
2350.00,0.0045
2349.00,0.0046
2348.00,0.0046
2347.00,0.0046
2346.00,0.0047
2345.00,0.0047
2344.00,0.0047
2343.00,0.0047
2342.00,0.0047
2341.00,0.0048
2340.00,0.0049
2339.00,0.0049
2338.00,0.0049
2337.00,0.0049
2336.00,0.0049
2335.00,0.0048
2334.00,0.0048
2333.00,0.0048
2332.00,0.0048
2331.00,0.0048
2330.00,0.0049
2329.00,0.0052
2328.00,0.0055
2327.00,0.0060
2326.00,0.0063
2325.00,0.0064
2324.00,0.0063
2323.00,0.0061
2322.00,0.0059
2321.00,0.0058
2320.00,0.0057
2319.00,0.0056
2318.00,0.0056
2317.00,0.0055
2316.00,0.0055
2315.00,0.0054
2314.00,0.0054
2313.00,0.0053
2312.00,0.0053
2311.00,0.0053
2310.00,0.0053
2309.00,0.0053
2308.00,0.0053
2307.00,0.0053
2306.00,0.0053
2305.00,0.0054
2304.00,0.0054
2303.00,0.0054
2302.00,0.0054
2301.00,0.0054
2300.00,0.0054
2299.00,0.0055
2298.00,0.0055
2297.00,0.0056
2296.00,0.0057
2295.00,0.0058
2294.00,0.0058
2293.00,0.0059
2292.00,0.0060
2291.00,0.0060
2290.00,0.0061
2289.00,0.0061
2288.00,0.0062
2287.00,0.0062
2286.00,0.0061
2285.00,0.0061
2284.00,0.0060
2283.00,0.0060
2282.00,0.0059
2281.00,0.0059
2280.00,0.0058
2279.00,0.0057
2278.00,0.0056
2277.00,0.0055
2276.00,0.0054
2275.00,0.0054
2274.00,0.0054
2273.00,0.0054
2272.00,0.0054
2271.00,0.0054
2270.00,0.0054
2269.00,0.0054
2268.00,0.0053
2267.00,0.0052
2266.00,0.0051
2265.00,0.0050
2264.00,0.0050
2263.00,0.0050
2262.00,0.0050
2261.00,0.0051
2260.00,0.0052
2259.00,0.0052
2258.00,0.0052
2257.00,0.0051
2256.00,0.0050
2255.00,0.0048
2254.00,0.0048
2253.00,0.0048
2252.00,0.0048
2251.00,0.0049
2250.00,0.0050
2249.00,0.0051
2248.00,0.0051
2247.00,0.0051
2246.00,0.0051
2245.00,0.0051
2244.00,0.0051
2243.00,0.0051
2242.00,0.0051
2241.00,0.0050
2240.00,0.0050
2239.00,0.0051
2238.00,0.0051
2237.00,0.0051
2236.00,0.0051
2235.00,0.0051
2234.00,0.0050
2233.00,0.0050
2232.00,0.0050
2231.00,0.0050
2230.00,0.0050
2229.00,0.0050
2228.00,0.0050
2227.00,0.0050
2226.00,0.0050
2225.00,0.0050
2224.00,0.0050
2223.00,0.0050
2222.00,0.0050
2221.00,0.0050
2220.00,0.0051
2219.00,0.0051
2218.00,0.0052
2217.00,0.0052
2216.00,0.0052
2215.00,0.0051
2214.00,0.0051
2213.00,0.0051
2212.00,0.0051
2211.00,0.0051
2210.00,0.0050
2209.00,0.0050
2208.00,0.0050
2207.00,0.0050
2206.00,0.0049
2205.00,0.0049
2204.00,0.0049
2203.00,0.0050
2202.00,0.0050
2201.00,0.0050
2200.00,0.0051
2199.00,0.0051
2198.00,0.0052
2197.00,0.0052
2196.00,0.0053
2195.00,0.0054
2194.00,0.0054
2193.00,0.0054
2192.00,0.0053
2191.00,0.0053
2190.00,0.0053
2189.00,0.0053
2188.00,0.0053
2187.00,0.0054
2186.00,0.0053
2185.00,0.0052
2184.00,0.0051
2183.00,0.0049
2182.00,0.0049
2181.00,0.0049
2180.00,0.0050
2179.00,0.0050
2178.00,0.0048
2177.00,0.0046
2176.00,0.0045
2175.00,0.0045
2174.00,0.0046
2173.00,0.0048
2172.00,0.0051
2171.00,0.0055
2170.00,0.0058
2169.00,0.0061
2168.00,0.0063
2167.00,0.0062
2166.00,0.0061
2165.00,0.0061
2164.00,0.0061
2163.00,0.0060
2162.00,0.0055
2161.00,0.0044
2160.00,0.0032
2159.00,0.0021
2158.00,0.0015
2157.00,0.0015
2156.00,0.0019
2155.00,0.0023
2154.00,0.0026
2153.00,0.0029
2152.00,0.0031
2151.00,0.0032
2150.00,0.0033
2149.00,0.0032
2148.00,0.0032
2147.00,0.0032
2146.00,0.0032
2145.00,0.0031
2144.00,0.0032
2143.00,0.0032
2142.00,0.0032
2141.00,0.0033
2140.00,0.0033
2139.00,0.0033
2138.00,0.0033
2137.00,0.0031
2136.00,0.0028
2135.00,0.0026
2134.00,0.0026
2133.00,0.0027
2132.00,0.0030
2131.00,0.0032
2130.00,0.0035
2129.00,0.0037
2128.00,0.0038
2127.00,0.0039
2126.00,0.0039
2125.00,0.0039
2124.00,0.0040
2123.00,0.0041
2122.00,0.0042
2121.00,0.0042
2120.00,0.0043
2119.00,0.0044
2118.00,0.0045
2117.00,0.0047
2116.00,0.0048
2115.00,0.0048
2114.00,0.0048
2113.00,0.0048
2112.00,0.0048
2111.00,0.0047
2110.00,0.0047
2109.00,0.0046
2108.00,0.0045
2107.00,0.0045
2106.00,0.0044
2105.00,0.0045
2104.00,0.0046
2103.00,0.0046
2102.00,0.0046
2101.00,0.0046
2100.00,0.0046
2099.00,0.0045
2098.00,0.0043
2097.00,0.0041
2096.00,0.0040
2095.00,0.0040
2094.00,0.0040
2093.00,0.0042
2092.00,0.0043
2091.00,0.0045
2090.00,0.0045
2089.00,0.0046
2088.00,0.0047
2087.00,0.0047
2086.00,0.0047
2085.00,0.0047
2084.00,0.0048
2083.00,0.0048
2082.00,0.0048
2081.00,0.0048
2080.00,0.0049
2079.00,0.0048
2078.00,0.0048
2077.00,0.0047
2076.00,0.0047
2075.00,0.0046
2074.00,0.0046
2073.00,0.0046
2072.00,0.0046
2071.00,0.0045
2070.00,0.0045
2069.00,0.0044
2068.00,0.0044
2067.00,0.0044
2066.00,0.0044
2065.00,0.0043
2064.00,0.0043
2063.00,0.0042
2062.00,0.0042
2061.00,0.0042
2060.00,0.0042
2059.00,0.0042
2058.00,0.0042
2057.00,0.0042
2056.00,0.0043
2055.00,0.0044
2054.00,0.0047
2053.00,0.0052
2052.00,0.0055
2051.00,0.0055
2050.00,0.0050
2049.00,0.0045
2048.00,0.0042
2047.00,0.0042
2046.00,0.0043
2045.00,0.0043
2044.00,0.0043
2043.00,0.0043
2042.00,0.0043
2041.00,0.0043
2040.00,0.0044
2039.00,0.0045
2038.00,0.0046
2037.00,0.0046
2036.00,0.0045
2035.00,0.0043
2034.00,0.0041
2033.00,0.0039
2032.00,0.0038
2031.00,0.0037
2030.00,0.0036
2029.00,0.0037
2028.00,0.0039
2027.00,0.0040
2026.00,0.0040
2025.00,0.0039
2024.00,0.0037
2023.00,0.0036
2022.00,0.0035
2021.00,0.0036
2020.00,0.0038
2019.00,0.0040
2018.00,0.0040
2017.00,0.0039
2016.00,0.0037
2015.00,0.0035
2014.00,0.0034
2013.00,0.0034
2012.00,0.0034
2011.00,0.0035
2010.00,0.0034
2009.00,0.0032
2008.00,0.0030
2007.00,0.0028
2006.00,0.0027
2005.00,0.0028
2004.00,0.0029
2003.00,0.0031
2002.00,0.0033
2001.00,0.0035
2000.00,0.0038
1999.00,0.0040
1998.00,0.0040
1997.00,0.0040
1996.00,0.0040
1995.00,0.0040
1994.00,0.0041
1993.00,0.0042
1992.00,0.0043
1991.00,0.0043
1990.00,0.0042
1989.00,0.0043
1988.00,0.0044
1987.00,0.0045
1986.00,0.0045
1985.00,0.0046
1984.00,0.0048
1983.00,0.0052
1982.00,0.0054
1981.00,0.0055
1980.00,0.0052
1979.00,0.0045
1978.00,0.0036
1977.00,0.0030
1976.00,0.0028
1975.00,0.0028
1974.00,0.0028
1973.00,0.0030
1972.00,0.0032
1971.00,0.0033
1970.00,0.0034
1969.00,0.0035
1968.00,0.0035
1967.00,0.0035
1966.00,0.0034
1965.00,0.0033
1964.00,0.0033
1963.00,0.0032
1962.00,0.0031
1961.00,0.0030
1960.00,0.0030
1959.00,0.0030
1958.00,0.0030
1957.00,0.0031
1956.00,0.0032
1955.00,0.0032
1954.00,0.0031
1953.00,0.0032
1952.00,0.0033
1951.00,0.0033
1950.00,0.0033
1949.00,0.0033
1948.00,0.0034
1947.00,0.0034
1946.00,0.0034
1945.00,0.0035
1944.00,0.0036
1943.00,0.0036
1942.00,0.0036
1941.00,0.0035
1940.00,0.0035
1939.00,0.0035
1938.00,0.0034
1937.00,0.0033
1936.00,0.0033
1935.00,0.0033
1934.00,0.0034
1933.00,0.0034
1932.00,0.0035
1931.00,0.0036
1930.00,0.0035
1929.00,0.0035
1928.00,0.0035
1927.00,0.0035
1926.00,0.0036
1925.00,0.0037
1924.00,0.0039
1923.00,0.0039
1922.00,0.0039
1921.00,0.0039
1920.00,0.0039
1919.00,0.0039
1918.00,0.0039
1917.00,0.0039
1916.00,0.0040
1915.00,0.0040
1914.00,0.0041
1913.00,0.0042
1912.00,0.0043
1911.00,0.0045
1910.00,0.0046
1909.00,0.0047
1908.00,0.0047
1907.00,0.0046
1906.00,0.0044
1905.00,0.0043
1904.00,0.0043
1903.00,0.0043
1902.00,0.0042
1901.00,0.0042
1900.00,0.0042
1899.00,0.0042
1898.00,0.0042
1897.00,0.0043
1896.00,0.0044
1895.00,0.0044
1894.00,0.0044
1893.00,0.0044
1892.00,0.0044
1891.00,0.0044
1890.00,0.0043
1889.00,0.0042
1888.00,0.0041
1887.00,0.0041
1886.00,0.0041
1885.00,0.0041
1884.00,0.0041
1883.00,0.0041
1882.00,0.0041
1881.00,0.0041
1880.00,0.0041
1879.00,0.0041
1878.00,0.0041
1877.00,0.0041
1876.00,0.0042
1875.00,0.0042
1874.00,0.0041
1873.00,0.0041
1872.00,0.0041
1871.00,0.0042
1870.00,0.0043
1869.00,0.0043
1868.00,0.0043
1867.00,0.0043
1866.00,0.0042
1865.00,0.0042
1864.00,0.0042
1863.00,0.0042
1862.00,0.0042
1861.00,0.0043
1860.00,0.0043
1859.00,0.0043
1858.00,0.0043
1857.00,0.0043
1856.00,0.0043
1855.00,0.0043
1854.00,0.0042
1853.00,0.0042
1852.00,0.0043
1851.00,0.0044
1850.00,0.0044
1849.00,0.0045
1848.00,0.0046
1847.00,0.0046
1846.00,0.0045
1845.00,0.0044
1844.00,0.0043
1843.00,0.0043
1842.00,0.0043
1841.00,0.0044
1840.00,0.0044
1839.00,0.0045
1838.00,0.0045
1837.00,0.0045
1836.00,0.0045
1835.00,0.0044
1834.00,0.0044
1833.00,0.0043
1832.00,0.0044
1831.00,0.0044
1830.00,0.0044
1829.00,0.0043
1828.00,0.0043
1827.00,0.0043
1826.00,0.0043
1825.00,0.0044
1824.00,0.0044
1823.00,0.0044
1822.00,0.0044
1821.00,0.0044
1820.00,0.0043
1819.00,0.0042
1818.00,0.0041
1817.00,0.0041
1816.00,0.0041
1815.00,0.0042
1814.00,0.0044
1813.00,0.0045
1812.00,0.0046
1811.00,0.0046
1810.00,0.0045
1809.00,0.0045
1808.00,0.0045
1807.00,0.0045
1806.00,0.0045
1805.00,0.0045
1804.00,0.0046
1803.00,0.0047
1802.00,0.0047
1801.00,0.0047
1800.00,0.0047
1799.00,0.0048
1798.00,0.0048
1797.00,0.0049
1796.00,0.0049
1795.00,0.0048
1794.00,0.0047
1793.00,0.0047
1792.00,0.0047
1791.00,0.0047
1790.00,0.0047
1789.00,0.0048
1788.00,0.0048
1787.00,0.0049
1786.00,0.0048
1785.00,0.0048
1784.00,0.0049
1783.00,0.0050
1782.00,0.0051
1781.00,0.0051
1780.00,0.0051
1779.00,0.0051
1778.00,0.0051
1777.00,0.0052
1776.00,0.0052
1775.00,0.0053
1774.00,0.0053
1773.00,0.0053
1772.00,0.0052
1771.00,0.0051
1770.00,0.0051
1769.00,0.0052
1768.00,0.0052
1767.00,0.0052
1766.00,0.0052
1765.00,0.0052
1764.00,0.0053
1763.00,0.0054
1762.00,0.0054
1761.00,0.0054
1760.00,0.0055
1759.00,0.0056
1758.00,0.0056
1757.00,0.0056
1756.00,0.0055
1755.00,0.0056
1754.00,0.0056
1753.00,0.0057
1752.00,0.0058
1751.00,0.0060
1750.00,0.0061
1749.00,0.0062
1748.00,0.0062
1747.00,0.0063
1746.00,0.0063
1745.00,0.0064
1744.00,0.0064
1743.00,0.0063
1742.00,0.0062
1741.00,0.0061
1740.00,0.0061
1739.00,0.0062
1738.00,0.0063
1737.00,0.0063
1736.00,0.0063
1735.00,0.0064
1734.00,0.0065
1733.00,0.0067
1732.00,0.0070
1731.00,0.0073
1730.00,0.0074
1729.00,0.0074
1728.00,0.0075
1727.00,0.0076
1726.00,0.0078
1725.00,0.0080
1724.00,0.0082
1723.00,0.0084
1722.00,0.0084
1721.00,0.0085
1720.00,0.0087
1719.00,0.0091
1718.00,0.0095
1717.00,0.0097
1716.00,0.0100
1715.00,0.0103
1714.00,0.0106
1713.00,0.0110
1712.00,0.0115
1711.00,0.0120
1710.00,0.0124
1709.00,0.0129
1708.00,0.0136
1707.00,0.0144
1706.00,0.0153
1705.00,0.0163
1704.00,0.0170
1703.00,0.0176
1702.00,0.0183
1701.00,0.0198
1700.00,0.0222
1699.00,0.0247
1698.00,0.0268
1697.00,0.0288
1696.00,0.0311
1695.00,0.0337
1694.00,0.0361
1693.00,0.0385
1692.00,0.0408
1691.00,0.0434
1690.00,0.0461
1689.00,0.0487
1688.00,0.0511
1687.00,0.0533
1686.00,0.0556
1685.00,0.0585
1684.00,0.0620
1683.00,0.0651
1682.00,0.0677
1681.00,0.0699
1680.00,0.0721
1679.00,0.0740
1678.00,0.0757
1677.00,0.0774
1676.00,0.0796
1675.00,0.0819
1674.00,0.0841
1673.00,0.0859
1672.00,0.0875
1671.00,0.0891
1670.00,0.0907
1669.00,0.0923
1668.00,0.0938
1667.00,0.0950
1666.00,0.0960
1665.00,0.0969
1664.00,0.0979
1663.00,0.0991
1662.00,0.1002
1661.00,0.1011
1660.00,0.1020
1659.00,0.1026
1658.00,0.1031
1657.00,0.1033
1656.00,0.1034
1655.00,0.1034
1654.00,0.1033
1653.00,0.1030
1652.00,0.1026
1651.00,0.1023
1650.00,0.1016
1649.00,0.1007
1648.00,0.0993
1647.00,0.0972
1646.00,0.0947
1645.00,0.0924
1644.00,0.0903
1643.00,0.0882
1642.00,0.0859
1641.00,0.0833
1640.00,0.0808
1639.00,0.0783
1638.00,0.0757
1637.00,0.0730
1636.00,0.0700
1635.00,0.0673
1634.00,0.0654
1633.00,0.0643
1632.00,0.0635
1631.00,0.0630
1630.00,0.0630
1629.00,0.0634
1628.00,0.0644
1627.00,0.0654
1626.00,0.0664
1625.00,0.0671
1624.00,0.0677
1623.00,0.0679
1622.00,0.0675
1621.00,0.0666
1620.00,0.0651
1619.00,0.0631
1618.00,0.0605
1617.00,0.0573
1616.00,0.0544
1615.00,0.0523
1614.00,0.0510
1613.00,0.0503
1612.00,0.0497
1611.00,0.0490
1610.00,0.0480
1609.00,0.0465
1608.00,0.0446
1607.00,0.0423
1606.00,0.0400
1605.00,0.0378
1604.00,0.0356
1603.00,0.0337
1602.00,0.0318
1601.00,0.0302
1600.00,0.0288
1599.00,0.0277
1598.00,0.0269
1597.00,0.0263
1596.00,0.0259
1595.00,0.0258
1594.00,0.0260
1593.00,0.0265
1592.00,0.0274
1591.00,0.0287
1590.00,0.0302
1589.00,0.0319
1588.00,0.0336
1587.00,0.0350
1586.00,0.0361
1585.00,0.0367
1584.00,0.0368
1583.00,0.0366
1582.00,0.0359
1581.00,0.0350
1580.00,0.0339
1579.00,0.0329
1578.00,0.0317
1577.00,0.0303
1576.00,0.0286
1575.00,0.0271
1574.00,0.0260
1573.00,0.0252
1572.00,0.0245
1571.00,0.0239
1570.00,0.0233
1569.00,0.0227
1568.00,0.0221
1567.00,0.0216
1566.00,0.0209
1565.00,0.0201
1564.00,0.0191
1563.00,0.0181
1562.00,0.0171
1561.00,0.0162
1560.00,0.0155
1559.00,0.0147
1558.00,0.0139
1557.00,0.0137
1556.00,0.0138
1555.00,0.0138
1554.00,0.0136
1553.00,0.0135
1552.00,0.0135
1551.00,0.0134
1550.00,0.0133
1549.00,0.0130
1548.00,0.0128
1547.00,0.0127
1546.00,0.0126
1545.00,0.0126
1544.00,0.0125
1543.00,0.0123
1542.00,0.0122
1541.00,0.0121
1540.00,0.0118
1539.00,0.0115
1538.00,0.0115
1537.00,0.0115
1536.00,0.0116
1535.00,0.0116
1534.00,0.0115
1533.00,0.0115
1532.00,0.0114
1531.00,0.0115
1530.00,0.0116
1529.00,0.0116
1528.00,0.0117
1527.00,0.0117
1526.00,0.0117
1525.00,0.0117
1524.00,0.0119
1523.00,0.0121
1522.00,0.0122
1521.00,0.0123
1520.00,0.0124
1519.00,0.0127
1518.00,0.0132
1517.00,0.0136
1516.00,0.0139
1515.00,0.0142
1514.00,0.0145
1513.00,0.0150
1512.00,0.0155
1511.00,0.0160
1510.00,0.0165
1509.00,0.0171
1508.00,0.0177
1507.00,0.0179
1506.00,0.0182
1505.00,0.0190
1504.00,0.0201
1503.00,0.0213
1502.00,0.0226
1501.00,0.0242
1500.00,0.0262
1499.00,0.0286
1498.00,0.0312
1497.00,0.0336
1496.00,0.0352
1495.00,0.0357
1494.00,0.0354
1493.00,0.0345
1492.00,0.0333
1491.00,0.0318
1490.00,0.0301
1489.00,0.0282
1488.00,0.0264
1487.00,0.0247
1486.00,0.0232
1485.00,0.0220
1484.00,0.0210
1483.00,0.0201
1482.00,0.0194
1481.00,0.0189
1480.00,0.0185
1479.00,0.0183
1478.00,0.0184
1477.00,0.0187
1476.00,0.0193
1475.00,0.0200
1474.00,0.0212
1473.00,0.0229
1472.00,0.0251
1471.00,0.0278
1470.00,0.0308
1469.00,0.0340
1468.00,0.0373
1467.00,0.0405
1466.00,0.0436
1465.00,0.0464
1464.00,0.0487
1463.00,0.0503
1462.00,0.0513
1461.00,0.0520
1460.00,0.0522
1459.00,0.0518
1458.00,0.0507
1457.00,0.0487
1456.00,0.0464
1455.00,0.0446
1454.00,0.0432
1453.00,0.0420
1452.00,0.0412
1451.00,0.0407
1450.00,0.0407
1449.00,0.0412
1448.00,0.0421
1447.00,0.0434
1446.00,0.0450
1445.00,0.0470
1444.00,0.0493
1443.00,0.0517
1442.00,0.0542
1441.00,0.0565
1440.00,0.0586
1439.00,0.0604
1438.00,0.0622
1437.00,0.0643
1436.00,0.0665
1435.00,0.0685
1434.00,0.0701
1433.00,0.0714
1432.00,0.0726
1431.00,0.0737
1430.00,0.0749
1429.00,0.0761
1428.00,0.0775
1427.00,0.0788
1426.00,0.0803
1425.00,0.0817
1424.00,0.0830
1423.00,0.0838
1422.00,0.0838
1421.00,0.0833
1420.00,0.0819
1419.00,0.0796
1418.00,0.0764
1417.00,0.0729
1416.00,0.0692
1415.00,0.0653
1414.00,0.0614
1413.00,0.0579
1412.00,0.0547
1411.00,0.0520
1410.00,0.0498
1409.00,0.0483
1408.00,0.0473
1407.00,0.0468
1406.00,0.0468
1405.00,0.0471
1404.00,0.0475
1403.00,0.0478
1402.00,0.0479
1401.00,0.0478
1400.00,0.0472
1399.00,0.0462
1398.00,0.0449
1397.00,0.0432
1396.00,0.0413
1395.00,0.0392
1394.00,0.0371
1393.00,0.0355
1392.00,0.0343
1391.00,0.0335
1390.00,0.0333
1389.00,0.0337
1388.00,0.0347
1387.00,0.0357
1386.00,0.0363
1385.00,0.0365
1384.00,0.0363
1383.00,0.0364
1382.00,0.0368
1381.00,0.0375
1380.00,0.0383
1379.00,0.0389
1378.00,0.0393
1377.00,0.0394
1376.00,0.0392
1375.00,0.0387
1374.00,0.0378
1373.00,0.0369
1372.00,0.0363
1371.00,0.0361
1370.00,0.0363
1369.00,0.0368
1368.00,0.0377
1367.00,0.0387
1366.00,0.0395
1365.00,0.0399
1364.00,0.0400
1363.00,0.0401
1362.00,0.0405
1361.00,0.0409
1360.00,0.0409
1359.00,0.0401
1358.00,0.0385
1357.00,0.0365
1356.00,0.0346
1355.00,0.0331
1354.00,0.0319
1353.00,0.0310
1352.00,0.0304
1351.00,0.0300
1350.00,0.0298
1349.00,0.0297
1348.00,0.0295
1347.00,0.0293
1346.00,0.0290
1345.00,0.0286
1344.00,0.0281
1343.00,0.0276
1342.00,0.0271
1341.00,0.0266
1340.00,0.0261
1339.00,0.0255
1338.00,0.0250
1337.00,0.0248
1336.00,0.0248
1335.00,0.0251
1334.00,0.0256
1333.00,0.0262
1332.00,0.0268
1331.00,0.0275
1330.00,0.0281
1329.00,0.0287
1328.00,0.0292
1327.00,0.0298
1326.00,0.0304
1325.00,0.0310
1324.00,0.0317
1323.00,0.0325
1322.00,0.0333
1321.00,0.0342
1320.00,0.0350
1319.00,0.0356
1318.00,0.0359
1317.00,0.0360
1316.00,0.0359
1315.00,0.0357
1314.00,0.0353
1313.00,0.0349
1312.00,0.0344
1311.00,0.0340
1310.00,0.0339
1309.00,0.0340
1308.00,0.0343
1307.00,0.0350
1306.00,0.0360
1305.00,0.0375
1304.00,0.0393
1303.00,0.0414
1302.00,0.0435
1301.00,0.0454
1300.00,0.0471
1299.00,0.0488
1298.00,0.0506
1297.00,0.0530
1296.00,0.0558
1295.00,0.0591
1294.00,0.0627
1293.00,0.0663
1292.00,0.0699
1291.00,0.0734
1290.00,0.0766
1289.00,0.0797
1288.00,0.0826
1287.00,0.0850
1286.00,0.0870
1285.00,0.0883
1284.00,0.0889
1283.00,0.0886
1282.00,0.0874
1281.00,0.0857
1280.00,0.0837
1279.00,0.0817
1278.00,0.0801
1277.00,0.0789
1276.00,0.0782
1275.00,0.0780
1274.00,0.0780
1273.00,0.0782
1272.00,0.0783
1271.00,0.0781
1270.00,0.0776
1269.00,0.0767
1268.00,0.0755
1267.00,0.0739
1266.00,0.0719
1265.00,0.0697
1264.00,0.0672
1263.00,0.0647
1262.00,0.0620
1261.00,0.0594
1260.00,0.0568
1259.00,0.0543
1258.00,0.0520
1257.00,0.0499
1256.00,0.0481
1255.00,0.0464
1254.00,0.0450
1253.00,0.0438
1252.00,0.0429
1251.00,0.0422
1250.00,0.0419
1249.00,0.0418
1248.00,0.0419
1247.00,0.0424
1246.00,0.0429
1245.00,0.0436
1244.00,0.0442
1243.00,0.0448
1242.00,0.0454
1241.00,0.0460
1240.00,0.0468
1239.00,0.0478
1238.00,0.0491
1237.00,0.0506
1236.00,0.0520
1235.00,0.0534
1234.00,0.0544
1233.00,0.0549
1232.00,0.0549
1231.00,0.0545
1230.00,0.0538
1229.00,0.0528
1228.00,0.0518
1227.00,0.0508
1226.00,0.0499
1225.00,0.0490
1224.00,0.0482
1223.00,0.0476
1222.00,0.0472
1221.00,0.0468
1220.00,0.0467
1219.00,0.0467
1218.00,0.0469
1217.00,0.0471
1216.00,0.0472
1215.00,0.0471
1214.00,0.0467
1213.00,0.0460
1212.00,0.0448
1211.00,0.0434
1210.00,0.0419
1209.00,0.0405
1208.00,0.0393
1207.00,0.0383
1206.00,0.0376
1205.00,0.0373
1204.00,0.0373
1203.00,0.0376
1202.00,0.0383
1201.00,0.0392
1200.00,0.0404
1199.00,0.0417
1198.00,0.0431
1197.00,0.0446
1196.00,0.0457
1195.00,0.0464
1194.00,0.0465
1193.00,0.0459
1192.00,0.0448
1191.00,0.0433
1190.00,0.0415
1189.00,0.0397
1188.00,0.0378
1187.00,0.0361
1186.00,0.0345
1185.00,0.0332
1184.00,0.0321
1183.00,0.0312
1182.00,0.0305
1181.00,0.0301
1180.00,0.0298
1179.00,0.0296
1178.00,0.0295
1177.00,0.0296
1176.00,0.0297
1175.00,0.0299
1174.00,0.0301
1173.00,0.0304
1172.00,0.0307
1171.00,0.0309
1170.00,0.0312
1169.00,0.0313
1168.00,0.0314
1167.00,0.0315
1166.00,0.0315
1165.00,0.0316
1164.00,0.0317
1163.00,0.0320
1162.00,0.0325
1161.00,0.0333
1160.00,0.0346
1159.00,0.0364
1158.00,0.0386
1157.00,0.0410
1156.00,0.0430
1155.00,0.0441
1154.00,0.0440
1153.00,0.0424
1152.00,0.0397
1151.00,0.0365
1150.00,0.0334
1149.00,0.0307
1148.00,0.0286
1147.00,0.0270
1146.00,0.0259
1145.00,0.0251
1144.00,0.0245
1143.00,0.0240
1142.00,0.0236
1141.00,0.0234
1140.00,0.0233
1139.00,0.0234
1138.00,0.0237
1137.00,0.0243
1136.00,0.0253
1135.00,0.0268
1134.00,0.0289
1133.00,0.0318
1132.00,0.0351
1131.00,0.0384
1130.00,0.0413
1129.00,0.0432
1128.00,0.0438
1127.00,0.0434
1126.00,0.0421
1125.00,0.0402
1124.00,0.0380
1123.00,0.0355
1122.00,0.0331
1121.00,0.0310
1120.00,0.0292
1119.00,0.0278
1118.00,0.0269
1117.00,0.0263
1116.00,0.0261
1115.00,0.0259
1114.00,0.0258
1113.00,0.0256
1112.00,0.0252
1111.00,0.0248
1110.00,0.0244
1109.00,0.0241
1108.00,0.0239
1107.00,0.0240
1106.00,0.0243
1105.00,0.0251
1104.00,0.0263
1103.00,0.0280
1102.00,0.0298
1101.00,0.0315
1100.00,0.0326
1099.00,0.0329
1098.00,0.0322
1097.00,0.0308
1096.00,0.0290
1095.00,0.0271
1094.00,0.0254
1093.00,0.0241
1092.00,0.0230
1091.00,0.0222
1090.00,0.0216
1089.00,0.0212
1088.00,0.0209
1087.00,0.0207
1086.00,0.0205
1085.00,0.0204
1084.00,0.0203
1083.00,0.0203
1082.00,0.0203
1081.00,0.0204
1080.00,0.0206
1079.00,0.0208
1078.00,0.0210
1077.00,0.0212
1076.00,0.0215
1075.00,0.0217
1074.00,0.0219
1073.00,0.0221
1072.00,0.0223
1071.00,0.0225
1070.00,0.0227
1069.00,0.0230
1068.00,0.0233
1067.00,0.0237
1066.00,0.0242
1065.00,0.0249
1064.00,0.0258
1063.00,0.0271
1062.00,0.0287
1061.00,0.0308
1060.00,0.0334
1059.00,0.0365
1058.00,0.0400
1057.00,0.0437
1056.00,0.0472
1055.00,0.0500
1054.00,0.0520
1053.00,0.0532
1052.00,0.0539
1051.00,0.0542
1050.00,0.0540
1049.00,0.0534
1048.00,0.0521
1047.00,0.0502
1046.00,0.0478
1045.00,0.0451
1044.00,0.0423
1043.00,0.0395
1042.00,0.0370
1041.00,0.0348
1040.00,0.0331
1039.00,0.0320
1038.00,0.0315
1037.00,0.0313
1036.00,0.0315
1035.00,0.0319
1034.00,0.0325
1033.00,0.0335
1032.00,0.0350
1031.00,0.0373
1030.00,0.0402
1029.00,0.0435
1028.00,0.0465
1027.00,0.0484
1026.00,0.0488
1025.00,0.0477
1024.00,0.0454
1023.00,0.0426
1022.00,0.0398
1021.00,0.0373
1020.00,0.0352
1019.00,0.0335
1018.00,0.0320
1017.00,0.0307
1016.00,0.0294
1015.00,0.0283
1014.00,0.0272
1013.00,0.0262
1012.00,0.0254
1011.00,0.0249
1010.00,0.0249
1009.00,0.0253
1008.00,0.0260
1007.00,0.0271
1006.00,0.0284
1005.00,0.0296
1004.00,0.0305
1003.00,0.0309
1002.00,0.0309
1001.00,0.0305
1000.00,0.0299
999.00,0.0291
998.00,0.0283
997.00,0.0275
996.00,0.0268
995.00,0.0261
994.00,0.0254
993.00,0.0247
992.00,0.0240
991.00,0.0232
990.00,0.0224
989.00,0.0216
988.00,0.0208
987.00,0.0202
986.00,0.0197
985.00,0.0192
984.00,0.0188
983.00,0.0184
982.00,0.0182
981.00,0.0181
980.00,0.0180
979.00,0.0179
978.00,0.0178
977.00,0.0178
976.00,0.0177
975.00,0.0176
974.00,0.0176
973.00,0.0175
972.00,0.0173
971.00,0.0172
970.00,0.0171
969.00,0.0170
968.00,0.0169
967.00,0.0169
966.00,0.0170
965.00,0.0171
964.00,0.0172
963.00,0.0174
962.00,0.0175
961.00,0.0173
960.00,0.0170
959.00,0.0166
958.00,0.0161
957.00,0.0157
956.00,0.0154
955.00,0.0151
954.00,0.0148
953.00,0.0146
952.00,0.0145
951.00,0.0146
950.00,0.0147
949.00,0.0149
948.00,0.0151
947.00,0.0152
946.00,0.0152
945.00,0.0153
944.00,0.0155
943.00,0.0159
942.00,0.0164
941.00,0.0170
940.00,0.0177
939.00,0.0183
938.00,0.0190
937.00,0.0197
936.00,0.0204
935.00,0.0210
934.00,0.0215
933.00,0.0219
932.00,0.0219
931.00,0.0216
930.00,0.0211
929.00,0.0206
928.00,0.0203
927.00,0.0201
926.00,0.0201
925.00,0.0202
924.00,0.0205
923.00,0.0208
922.00,0.0210
921.00,0.0208
920.00,0.0204
919.00,0.0196
918.00,0.0188
917.00,0.0180
916.00,0.0173
915.00,0.0167
914.00,0.0164
913.00,0.0161
912.00,0.0159
911.00,0.0158
910.00,0.0158
909.00,0.0158
908.00,0.0160
907.00,0.0162
906.00,0.0165
905.00,0.0171
904.00,0.0178
903.00,0.0188
902.00,0.0199
901.00,0.0210
900.00,0.0220
899.00,0.0225
898.00,0.0225
897.00,0.0221
896.00,0.0214
895.00,0.0208
894.00,0.0205
893.00,0.0207
892.00,0.0212
891.00,0.0219
890.00,0.0222
889.00,0.0217
888.00,0.0206
887.00,0.0193
886.00,0.0181
885.00,0.0174
884.00,0.0170
883.00,0.0168
882.00,0.0168
881.00,0.0171
880.00,0.0175
879.00,0.0182
878.00,0.0192
877.00,0.0207
876.00,0.0225
875.00,0.0247
874.00,0.0273
873.00,0.0300
872.00,0.0325
871.00,0.0345
870.00,0.0356
869.00,0.0356
868.00,0.0347
867.00,0.0333
866.00,0.0317
865.00,0.0303
864.00,0.0290
863.00,0.0278
862.00,0.0266
861.00,0.0258
860.00,0.0252
859.00,0.0251
858.00,0.0256
857.00,0.0266
856.00,0.0281
855.00,0.0298
854.00,0.0316
853.00,0.0333
852.00,0.0350
851.00,0.0368
850.00,0.0384
849.00,0.0395
848.00,0.0396
847.00,0.0390
846.00,0.0379
845.00,0.0367
844.00,0.0355
843.00,0.0345
842.00,0.0337
841.00,0.0332
840.00,0.0331
839.00,0.0334
838.00,0.0342
837.00,0.0353
836.00,0.0365
835.00,0.0374
834.00,0.0379
833.00,0.0377
832.00,0.0369
831.00,0.0355
830.00,0.0336
829.00,0.0314
828.00,0.0291
827.00,0.0272
826.00,0.0258
825.00,0.0253
824.00,0.0260
823.00,0.0282
822.00,0.0317
821.00,0.0353
820.00,0.0379
819.00,0.0393
818.00,0.0403
817.00,0.0416
816.00,0.0424
815.00,0.0415
814.00,0.0384
813.00,0.0339
812.00,0.0295
811.00,0.0260
810.00,0.0236
809.00,0.0218
808.00,0.0204
807.00,0.0194
806.00,0.0186
805.00,0.0180
804.00,0.0175
803.00,0.0171
802.00,0.0169
801.00,0.0167
800.00,0.0165
799.00,0.0164
798.00,0.0162
797.00,0.0162
796.00,0.0161
795.00,0.0161
794.00,0.0161
793.00,0.0161
792.00,0.0162
791.00,0.0162
790.00,0.0162
789.00,0.0162
788.00,0.0162
787.00,0.0162
786.00,0.0162
785.00,0.0163
784.00,0.0164
783.00,0.0165
782.00,0.0166
781.00,0.0168
780.00,0.0170
779.00,0.0174
778.00,0.0180
777.00,0.0187
776.00,0.0196
775.00,0.0204
774.00,0.0208
773.00,0.0208
772.00,0.0204
771.00,0.0199
770.00,0.0195
769.00,0.0193
768.00,0.0193
767.00,0.0194
766.00,0.0196
765.00,0.0199
764.00,0.0204
763.00,0.0210
762.00,0.0216
761.00,0.0223
760.00,0.0228
759.00,0.0232
758.00,0.0235
757.00,0.0236
756.00,0.0237
755.00,0.0239
754.00,0.0241
753.00,0.0244
752.00,0.0247
751.00,0.0251
750.00,0.0255
749.00,0.0260
748.00,0.0264
747.00,0.0268
746.00,0.0273
745.00,0.0278
744.00,0.0284
743.00,0.0290
742.00,0.0298
741.00,0.0307
740.00,0.0318
739.00,0.0333
738.00,0.0352
737.00,0.0373
736.00,0.0394
735.00,0.0408
734.00,0.0412
733.00,0.0408
732.00,0.0400
731.00,0.0393
730.00,0.0389
729.00,0.0386
728.00,0.0379
727.00,0.0367
726.00,0.0351
725.00,0.0334
724.00,0.0318
723.00,0.0305
722.00,0.0295
721.00,0.0289
720.00,0.0287
719.00,0.0289
718.00,0.0293
717.00,0.0299
716.00,0.0304
715.00,0.0307
714.00,0.0307
713.00,0.0304
712.00,0.0300
711.00,0.0295
710.00,0.0291
709.00,0.0288
708.00,0.0286
707.00,0.0286
706.00,0.0287
705.00,0.0288
704.00,0.0291
703.00,0.0295
702.00,0.0300
701.00,0.0306
700.00,0.0311
699.00,0.0316
698.00,0.0320
697.00,0.0322
696.00,0.0323
695.00,0.0322
694.00,0.0322
693.00,0.0323
692.00,0.0327
691.00,0.0335
690.00,0.0344
689.00,0.0354
688.00,0.0361
687.00,0.0363
686.00,0.0362
685.00,0.0360
684.00,0.0358
683.00,0.0357
682.00,0.0358
681.00,0.0361
680.00,0.0366
679.00,0.0372
678.00,0.0379
677.00,0.0388
676.00,0.0397
675.00,0.0408
674.00,0.0419
673.00,0.0430
672.00,0.0439
671.00,0.0447
670.00,0.0452
669.00,0.0455
668.00,0.0459
667.00,0.0464
666.00,0.0469
665.00,0.0474
664.00,0.0482
663.00,0.0491
662.00,0.0501
661.00,0.0509
660.00,0.0515
659.00,0.0519
658.00,0.0521
657.00,0.0523
656.00,0.0525
655.00,0.0529
654.00,0.0534
653.00,0.0539
652.00,0.0544
651.00,0.0548
650.00,0.0551
649.00,0.0553
648.00,0.0554
647.00,0.0554
646.00,0.0552
645.00,0.0549
644.00,0.0545
643.00,0.0539
642.00,0.0534
641.00,0.0528
640.00,0.0522
639.00,0.0516
638.00,0.0511
637.00,0.0506
636.00,0.0501
635.00,0.0497
634.00,0.0493
633.00,0.0488
632.00,0.0484
631.00,0.0481
630.00,0.0479
629.00,0.0477
628.00,0.0476
627.00,0.0476
626.00,0.0477
625.00,0.0478
624.00,0.0481
623.00,0.0484
622.00,0.0488
621.00,0.0492
620.00,0.0494
619.00,0.0494
618.00,0.0492
617.00,0.0487
616.00,0.0481
615.00,0.0474
614.00,0.0469
613.00,0.0465
612.00,0.0463
611.00,0.0463
610.00,0.0467
609.00,0.0474
608.00,0.0484
607.00,0.0496
606.00,0.0510
605.00,0.0523
604.00,0.0535
603.00,0.0544
602.00,0.0550
601.00,0.0554
600.00,0.0556
599.00,0.0557
598.00,0.0558
597.00,0.0560
596.00,0.0563
595.00,0.0565
594.00,0.0568
593.00,0.0570
592.00,0.0571
591.00,0.0573
590.00,0.0575
589.00,0.0577
588.00,0.0580
587.00,0.0583
586.00,0.0588
585.00,0.0595
584.00,0.0603
583.00,0.0612
582.00,0.0622
581.00,0.0634
580.00,0.0646
579.00,0.0661
578.00,0.0677
577.00,0.0692
576.00,0.0701
575.00,0.0701
574.00,0.0695
573.00,0.0685
572.00,0.0675
571.00,0.0667
570.00,0.0659
569.00,0.0653
568.00,0.0647
567.00,0.0643
566.00,0.0641
565.00,0.0642
564.00,0.0644
563.00,0.0648
562.00,0.0653
561.00,0.0657
560.00,0.0658
559.00,0.0655
558.00,0.0647
557.00,0.0638
556.00,0.0628
555.00,0.0620
554.00,0.0612
553.00,0.0607
552.00,0.0605
551.00,0.0606
550.00,0.0610
549.00,0.0617
548.00,0.0624
547.00,0.0630
546.00,0.0632
545.00,0.0629
544.00,0.0622
543.00,0.0612
542.00,0.0602
541.00,0.0593
540.00,0.0586
539.00,0.0582
538.00,0.0578
537.00,0.0576
536.00,0.0576
535.00,0.0580
534.00,0.0587
533.00,0.0596
532.00,0.0603
531.00,0.0607
530.00,0.0606
529.00,0.0601
528.00,0.0594
527.00,0.0586
526.00,0.0578
525.00,0.0569
524.00,0.0560
523.00,0.0553
522.00,0.0547
521.00,0.0544
520.00,0.0542
519.00,0.0540
518.00,0.0539
517.00,0.0536
516.00,0.0533
515.00,0.0531
514.00,0.0529
513.00,0.0529
512.00,0.0530
511.00,0.0530
510.00,0.0530
509.00,0.0530
508.00,0.0532
507.00,0.0535
506.00,0.0537
505.00,0.0538
504.00,0.0536
503.00,0.0535
502.00,0.0533
501.00,0.0531
500.00,0.0530
499.00,0.0528
498.00,0.0528
497.00,0.0528
496.00,0.0530
495.00,0.0533
494.00,0.0536
493.00,0.0539
492.00,0.0540
491.00,0.0538
490.00,0.0537
489.00,0.0537
488.00,0.0537
487.00,0.0537
486.00,0.0535
485.00,0.0533
484.00,0.0531
483.00,0.0530
482.00,0.0531
481.00,0.0532
480.00,0.0533
479.00,0.0534
478.00,0.0533
477.00,0.0532
476.00,0.0531
475.00,0.0530
474.00,0.0531
473.00,0.0531
472.00,0.0530
471.00,0.0527
470.00,0.0526
469.00,0.0526
468.00,0.0526
467.00,0.0526
466.00,0.0526
465.00,0.0525
464.00,0.0524
463.00,0.0523
462.00,0.0522
461.00,0.0523
460.00,0.0524
459.00,0.0525
458.00,0.0525
457.00,0.0523
456.00,0.0521
455.00,0.0522
454.00,0.0525
453.00,0.0526
452.00,0.0524
451.00,0.0519
450.00,0.0514
449.00,0.0511
448.00,0.0509
447.00,0.0508
446.00,0.0507
445.00,0.0505
444.00,0.0501
443.00,0.0496
442.00,0.0493
441.00,0.0493
440.00,0.0495
439.00,0.0497
438.00,0.0498
437.00,0.0496
436.00,0.0493
435.00,0.0491
434.00,0.0492
433.00,0.0492
432.00,0.0488
431.00,0.0482
430.00,0.0476
429.00,0.0474
428.00,0.0474
427.00,0.0474
426.00,0.0471
425.00,0.0467
424.00,0.0464
423.00,0.0463
422.00,0.0466
421.00,0.0470
420.00,0.0471
419.00,0.0466
418.00,0.0459
417.00,0.0457
416.00,0.0459
415.00,0.0461
414.00,0.0463
413.00,0.0467
412.00,0.0475
411.00,0.0483
410.00,0.0491
409.00,0.0498
408.00,0.0503
407.00,0.0504
406.00,0.0499
405.00,0.0491
404.00,0.0481
403.00,0.0472
402.00,0.0465
401.00,0.0462
400.00,0.0460
