Created as New Dataset,Sample 896 By YargerLab Date Wednesday, July 23 2025
cm-1,A
4000.00,0.0014
3999.00,0.0014
3998.00,0.0014
3997.00,0.0014
3996.00,0.0014
3995.00,0.0014
3994.00,0.0014
3993.00,0.0014
3992.00,0.0014
3991.00,0.0014
3990.00,0.0014
3989.00,0.0014
3988.00,0.0014
3987.00,0.0014
3986.00,0.0014
3985.00,0.0014
3984.00,0.0014
3983.00,0.0014
3982.00,0.0014
3981.00,0.0014
3980.00,0.0014
3979.00,0.0014
3978.00,0.0014
3977.00,0.0014
3976.00,0.0014
3975.00,0.0014
3974.00,0.0014
3973.00,0.0014
3972.00,0.0014
3971.00,0.0014
3970.00,0.0014
3969.00,0.0014
3968.00,0.0014
3967.00,0.0014
3966.00,0.0014
3965.00,0.0014
3964.00,0.0014
3963.00,0.0014
3962.00,0.0014
3961.00,0.0014
3960.00,0.0014
3959.00,0.0014
3958.00,0.0014
3957.00,0.0014
3956.00,0.0014
3955.00,0.0014
3954.00,0.0014
3953.00,0.0014
3952.00,0.0014
3951.00,0.0014
3950.00,0.0014
3949.00,0.0014
3948.00,0.0013
3947.00,0.0013
3946.00,0.0013
3945.00,0.0013
3944.00,0.0013
3943.00,0.0014
3942.00,0.0014
3941.00,0.0014
3940.00,0.0014
3939.00,0.0014
3938.00,0.0013
3937.00,0.0013
3936.00,0.0013
3935.00,0.0013
3934.00,0.0013
3933.00,0.0013
3932.00,0.0013
3931.00,0.0013
3930.00,0.0013
3929.00,0.0014
3928.00,0.0014
3927.00,0.0014
3926.00,0.0014
3925.00,0.0014
3924.00,0.0014
3923.00,0.0013
3922.00,0.0013
3921.00,0.0013
3920.00,0.0013
3919.00,0.0012
3918.00,0.0012
3917.00,0.0013
3916.00,0.0013
3915.00,0.0013
3914.00,0.0014
3913.00,0.0014
3912.00,0.0014
3911.00,0.0014
3910.00,0.0014
3909.00,0.0014
3908.00,0.0014
3907.00,0.0013
3906.00,0.0013
3905.00,0.0012
3904.00,0.0012
3903.00,0.0011
3902.00,0.0011
3901.00,0.0010
3900.00,0.0011
3899.00,0.0011
3898.00,0.0012
3897.00,0.0012
3896.00,0.0013
3895.00,0.0013
3894.00,0.0013
3893.00,0.0013
3892.00,0.0013
3891.00,0.0013
3890.00,0.0013
3889.00,0.0013
3888.00,0.0012
3887.00,0.0012
3886.00,0.0012
3885.00,0.0012
3884.00,0.0012
3883.00,0.0012
3882.00,0.0012
3881.00,0.0012
3880.00,0.0012
3879.00,0.0013
3878.00,0.0013
3877.00,0.0012
3876.00,0.0012
3875.00,0.0013
3874.00,0.0013
3873.00,0.0013
3872.00,0.0012
3871.00,0.0012
3870.00,0.0011
3869.00,0.0012
3868.00,0.0012
3867.00,0.0012
3866.00,0.0011
3865.00,0.0012
3864.00,0.0012
3863.00,0.0012
3862.00,0.0012
3861.00,0.0012
3860.00,0.0012
3859.00,0.0012
3858.00,0.0012
3857.00,0.0013
3856.00,0.0013
3855.00,0.0013
3854.00,0.0013
3853.00,0.0013
3852.00,0.0012
3851.00,0.0012
3850.00,0.0011
3849.00,0.0011
3848.00,0.0011
3847.00,0.0011
3846.00,0.0012
3845.00,0.0012
3844.00,0.0012
3843.00,0.0012
3842.00,0.0012
3841.00,0.0012
3840.00,0.0012
3839.00,0.0012
3838.00,0.0012
3837.00,0.0012
3836.00,0.0012
3835.00,0.0012
3834.00,0.0012
3833.00,0.0012
3832.00,0.0012
3831.00,0.0012
3830.00,0.0012
3829.00,0.0012
3828.00,0.0012
3827.00,0.0012
3826.00,0.0013
3825.00,0.0012
3824.00,0.0012
3823.00,0.0011
3822.00,0.0011
3821.00,0.0012
3820.00,0.0012
3819.00,0.0012
3818.00,0.0012
3817.00,0.0011
3816.00,0.0011
3815.00,0.0012
3814.00,0.0013
3813.00,0.0013
3812.00,0.0013
3811.00,0.0013
3810.00,0.0014
3809.00,0.0013
3808.00,0.0013
3807.00,0.0013
3806.00,0.0013
3805.00,0.0012
3804.00,0.0012
3803.00,0.0012
3802.00,0.0012
3801.00,0.0012
3800.00,0.0012
3799.00,0.0012
3798.00,0.0012
3797.00,0.0012
3796.00,0.0012
3795.00,0.0012
3794.00,0.0013
3793.00,0.0013
3792.00,0.0013
3791.00,0.0013
3790.00,0.0013
3789.00,0.0013
3788.00,0.0014
3787.00,0.0014
3786.00,0.0014
3785.00,0.0014
3784.00,0.0014
3783.00,0.0014
3782.00,0.0014
3781.00,0.0013
3780.00,0.0013
3779.00,0.0014
3778.00,0.0014
3777.00,0.0014
3776.00,0.0014
3775.00,0.0014
3774.00,0.0014
3773.00,0.0014
3772.00,0.0014
3771.00,0.0013
3770.00,0.0013
3769.00,0.0013
3768.00,0.0013
3767.00,0.0013
3766.00,0.0013
3765.00,0.0012
3764.00,0.0012
3763.00,0.0012
3762.00,0.0012
3761.00,0.0012
3760.00,0.0012
3759.00,0.0012
3758.00,0.0012
3757.00,0.0012
3756.00,0.0012
3755.00,0.0012
3754.00,0.0012
3753.00,0.0012
3752.00,0.0012
3751.00,0.0012
3750.00,0.0011
3749.00,0.0011
3748.00,0.0011
3747.00,0.0011
3746.00,0.0010
3745.00,0.0010
3744.00,0.0010
3743.00,0.0010
3742.00,0.0010
3741.00,0.0010
3740.00,0.0009
3739.00,0.0009
3738.00,0.0009
3737.00,0.0009
3736.00,0.0009
3735.00,0.0009
3734.00,0.0009
3733.00,0.0009
3732.00,0.0009
3731.00,0.0010
3730.00,0.0010
3729.00,0.0010
3728.00,0.0010
3727.00,0.0010
3726.00,0.0011
3725.00,0.0012
3724.00,0.0012
3723.00,0.0012
3722.00,0.0012
3721.00,0.0012
3720.00,0.0012
3719.00,0.0012
3718.00,0.0012
3717.00,0.0012
3716.00,0.0012
3715.00,0.0012
3714.00,0.0011
3713.00,0.0011
3712.00,0.0011
3711.00,0.0011
3710.00,0.0011
3709.00,0.0011
3708.00,0.0011
3707.00,0.0011
3706.00,0.0011
3705.00,0.0012
3704.00,0.0012
3703.00,0.0012
3702.00,0.0012
3701.00,0.0012
3700.00,0.0012
3699.00,0.0012
3698.00,0.0012
3697.00,0.0013
3696.00,0.0013
3695.00,0.0013
3694.00,0.0013
3693.00,0.0012
3692.00,0.0012
3691.00,0.0012
3690.00,0.0012
3689.00,0.0012
3688.00,0.0011
3687.00,0.0011
3686.00,0.0011
3685.00,0.0011
3684.00,0.0011
3683.00,0.0012
3682.00,0.0012
3681.00,0.0012
3680.00,0.0012
3679.00,0.0012
3678.00,0.0012
3677.00,0.0012
3676.00,0.0011
3675.00,0.0011
3674.00,0.0011
3673.00,0.0011
3672.00,0.0010
3671.00,0.0010
3670.00,0.0010
3669.00,0.0011
3668.00,0.0012
3667.00,0.0012
3666.00,0.0012
3665.00,0.0013
3664.00,0.0013
3663.00,0.0013
3662.00,0.0013
3661.00,0.0013
3660.00,0.0014
3659.00,0.0014
3658.00,0.0014
3657.00,0.0014
3656.00,0.0014
3655.00,0.0014
3654.00,0.0014
3653.00,0.0013
3652.00,0.0013
3651.00,0.0013
3650.00,0.0013
3649.00,0.0013
3648.00,0.0013
3647.00,0.0014
3646.00,0.0014
3645.00,0.0015
3644.00,0.0016
3643.00,0.0017
3642.00,0.0018
3641.00,0.0018
3640.00,0.0019
3639.00,0.0019
3638.00,0.0019
3637.00,0.0020
3636.00,0.0020
3635.00,0.0020
3634.00,0.0020
3633.00,0.0021
3632.00,0.0021
3631.00,0.0021
3630.00,0.0021
3629.00,0.0021
3628.00,0.0021
3627.00,0.0021
3626.00,0.0022
3625.00,0.0023
3624.00,0.0023
3623.00,0.0024
3622.00,0.0024
3621.00,0.0024
3620.00,0.0025
3619.00,0.0025
3618.00,0.0025
3617.00,0.0025
3616.00,0.0025
3615.00,0.0025
3614.00,0.0025
3613.00,0.0026
3612.00,0.0026
3611.00,0.0027
3610.00,0.0027
3609.00,0.0027
3608.00,0.0028
3607.00,0.0029
3606.00,0.0030
3605.00,0.0030
3604.00,0.0031
3603.00,0.0032
3602.00,0.0032
3601.00,0.0033
3600.00,0.0033
3599.00,0.0034
3598.00,0.0034
3597.00,0.0034
3596.00,0.0034
3595.00,0.0034
3594.00,0.0035
3593.00,0.0035
3592.00,0.0036
3591.00,0.0036
3590.00,0.0037
3589.00,0.0037
3588.00,0.0037
3587.00,0.0038
3586.00,0.0038
3585.00,0.0039
3584.00,0.0040
3583.00,0.0040
3582.00,0.0041
3581.00,0.0042
3580.00,0.0043
3579.00,0.0043
3578.00,0.0044
3577.00,0.0044
3576.00,0.0045
3575.00,0.0045
3574.00,0.0046
3573.00,0.0046
3572.00,0.0046
3571.00,0.0047
3570.00,0.0047
3569.00,0.0047
3568.00,0.0047
3567.00,0.0048
3566.00,0.0048
3565.00,0.0048
3564.00,0.0049
3563.00,0.0050
3562.00,0.0051
3561.00,0.0052
3560.00,0.0053
3559.00,0.0054
3558.00,0.0054
3557.00,0.0055
3556.00,0.0055
3555.00,0.0056
3554.00,0.0056
3553.00,0.0057
3552.00,0.0057
3551.00,0.0058
3550.00,0.0058
3549.00,0.0058
3548.00,0.0059
3547.00,0.0059
3546.00,0.0060
3545.00,0.0061
3544.00,0.0061
3543.00,0.0062
3542.00,0.0063
3541.00,0.0063
3540.00,0.0064
3539.00,0.0065
3538.00,0.0065
3537.00,0.0066
3536.00,0.0066
3535.00,0.0066
3534.00,0.0067
3533.00,0.0067
3532.00,0.0068
3531.00,0.0068
3530.00,0.0069
3529.00,0.0069
3528.00,0.0070
3527.00,0.0070
3526.00,0.0071
3525.00,0.0072
3524.00,0.0072
3523.00,0.0073
3522.00,0.0073
3521.00,0.0074
3520.00,0.0075
3519.00,0.0075
3518.00,0.0076
3517.00,0.0077
3516.00,0.0078
3515.00,0.0078
3514.00,0.0079
3513.00,0.0080
3512.00,0.0080
3511.00,0.0081
3510.00,0.0082
3509.00,0.0082
3508.00,0.0083
3507.00,0.0084
3506.00,0.0085
3505.00,0.0085
3504.00,0.0086
3503.00,0.0086
3502.00,0.0087
3501.00,0.0088
3500.00,0.0088
3499.00,0.0089
3498.00,0.0090
3497.00,0.0091
3496.00,0.0092
3495.00,0.0093
3494.00,0.0093
3493.00,0.0094
3492.00,0.0095
3491.00,0.0095
3490.00,0.0096
3489.00,0.0097
3488.00,0.0098
3487.00,0.0099
3486.00,0.0099
3485.00,0.0100
3484.00,0.0100
3483.00,0.0101
3482.00,0.0102
3481.00,0.0102
3480.00,0.0103
3479.00,0.0104
3478.00,0.0105
3477.00,0.0105
3476.00,0.0106
3475.00,0.0107
3474.00,0.0107
3473.00,0.0108
3472.00,0.0109
3471.00,0.0110
3470.00,0.0110
3469.00,0.0111
3468.00,0.0111
3467.00,0.0112
3466.00,0.0112
3465.00,0.0113
3464.00,0.0113
3463.00,0.0114
3462.00,0.0114
3461.00,0.0115
3460.00,0.0115
3459.00,0.0116
3458.00,0.0116
3457.00,0.0117
3456.00,0.0117
3455.00,0.0118
3454.00,0.0118
3453.00,0.0119
3452.00,0.0119
3451.00,0.0120
3450.00,0.0120
3449.00,0.0121
3448.00,0.0121
3447.00,0.0122
3446.00,0.0122
3445.00,0.0123
3444.00,0.0123
3443.00,0.0124
3442.00,0.0124
3441.00,0.0125
3440.00,0.0125
3439.00,0.0126
3438.00,0.0126
3437.00,0.0126
3436.00,0.0126
3435.00,0.0126
3434.00,0.0127
3433.00,0.0127
3432.00,0.0128
3431.00,0.0129
3430.00,0.0129
3429.00,0.0129
3428.00,0.0130
3427.00,0.0130
3426.00,0.0130
3425.00,0.0131
3424.00,0.0131
3423.00,0.0132
3422.00,0.0132
3421.00,0.0132
3420.00,0.0133
3419.00,0.0133
3418.00,0.0134
3417.00,0.0134
3416.00,0.0135
3415.00,0.0135
3414.00,0.0135
3413.00,0.0135
3412.00,0.0135
3411.00,0.0136
3410.00,0.0136
3409.00,0.0137
3408.00,0.0137
3407.00,0.0138
3406.00,0.0138
3405.00,0.0138
3404.00,0.0139
3403.00,0.0139
3402.00,0.0139
3401.00,0.0139
3400.00,0.0140
3399.00,0.0140
3398.00,0.0141
3397.00,0.0141
3396.00,0.0142
3395.00,0.0142
3394.00,0.0143
3393.00,0.0143
3392.00,0.0144
3391.00,0.0144
3390.00,0.0145
3389.00,0.0146
3388.00,0.0147
3387.00,0.0147
3386.00,0.0148
3385.00,0.0148
3384.00,0.0149
3383.00,0.0149
3382.00,0.0150
3381.00,0.0150
3380.00,0.0151
3379.00,0.0151
3378.00,0.0152
3377.00,0.0153
3376.00,0.0154
3375.00,0.0155
3374.00,0.0155
3373.00,0.0156
3372.00,0.0156
3371.00,0.0156
3370.00,0.0157
3369.00,0.0157
3368.00,0.0158
3367.00,0.0158
3366.00,0.0159
3365.00,0.0161
3364.00,0.0162
3363.00,0.0163
3362.00,0.0164
3361.00,0.0164
3360.00,0.0165
3359.00,0.0166
3358.00,0.0167
3357.00,0.0168
3356.00,0.0168
3355.00,0.0169
3354.00,0.0169
3353.00,0.0170
3352.00,0.0170
3351.00,0.0170
3350.00,0.0171
3349.00,0.0172
3348.00,0.0173
3347.00,0.0174
3346.00,0.0174
3345.00,0.0174
3344.00,0.0175
3343.00,0.0175
3342.00,0.0176
3341.00,0.0176
3340.00,0.0176
3339.00,0.0177
3338.00,0.0178
3337.00,0.0179
3336.00,0.0180
3335.00,0.0181
3334.00,0.0181
3333.00,0.0182
3332.00,0.0182
3331.00,0.0183
3330.00,0.0183
3329.00,0.0184
3328.00,0.0184
3327.00,0.0184
3326.00,0.0184
3325.00,0.0184
3324.00,0.0185
3323.00,0.0186
3322.00,0.0187
3321.00,0.0187
3320.00,0.0188
3319.00,0.0188
3318.00,0.0189
3317.00,0.0189
3316.00,0.0190
3315.00,0.0191
3314.00,0.0191
3313.00,0.0191
3312.00,0.0191
3311.00,0.0191
3310.00,0.0191
3309.00,0.0191
3308.00,0.0192
3307.00,0.0192
3306.00,0.0192
3305.00,0.0193
3304.00,0.0194
3303.00,0.0196
3302.00,0.0197
3301.00,0.0198
3300.00,0.0198
3299.00,0.0198
3298.00,0.0198
3297.00,0.0198
3296.00,0.0198
3295.00,0.0198
3294.00,0.0199
3293.00,0.0200
3292.00,0.0200
3291.00,0.0201
3290.00,0.0202
3289.00,0.0203
3288.00,0.0203
3287.00,0.0203
3286.00,0.0203
3285.00,0.0203
3284.00,0.0203
3283.00,0.0203
3282.00,0.0203
3281.00,0.0204
3280.00,0.0204
3279.00,0.0204
3278.00,0.0204
3277.00,0.0203
3276.00,0.0203
3275.00,0.0203
3274.00,0.0202
3273.00,0.0201
3272.00,0.0201
3271.00,0.0201
3270.00,0.0200
3269.00,0.0201
3268.00,0.0201
3267.00,0.0201
3266.00,0.0200
3265.00,0.0200
3264.00,0.0200
3263.00,0.0199
3262.00,0.0198
3261.00,0.0198
3260.00,0.0197
3259.00,0.0196
3258.00,0.0195
3257.00,0.0194
3256.00,0.0193
3255.00,0.0192
3254.00,0.0192
3253.00,0.0191
3252.00,0.0191
3251.00,0.0190
3250.00,0.0189
3249.00,0.0188
3248.00,0.0187
3247.00,0.0186
3246.00,0.0186
3245.00,0.0185
3244.00,0.0185
3243.00,0.0184
3242.00,0.0184
3241.00,0.0183
3240.00,0.0183
3239.00,0.0182
3238.00,0.0181
3237.00,0.0181
3236.00,0.0180
3235.00,0.0179
3234.00,0.0178
3233.00,0.0177
3232.00,0.0177
3231.00,0.0177
3230.00,0.0177
3229.00,0.0177
3228.00,0.0177
3227.00,0.0177
3226.00,0.0176
3225.00,0.0176
3224.00,0.0175
3223.00,0.0175
3222.00,0.0175
3221.00,0.0175
3220.00,0.0174
3219.00,0.0174
3218.00,0.0173
3217.00,0.0173
3216.00,0.0173
3215.00,0.0172
3214.00,0.0172
3213.00,0.0171
3212.00,0.0171
3211.00,0.0171
3210.00,0.0170
3209.00,0.0170
3208.00,0.0170
3207.00,0.0170
3206.00,0.0170
3205.00,0.0169
3204.00,0.0169
3203.00,0.0169
3202.00,0.0168
3201.00,0.0168
3200.00,0.0168
3199.00,0.0167
3198.00,0.0167
3197.00,0.0166
3196.00,0.0166
3195.00,0.0165
3194.00,0.0165
3193.00,0.0164
3192.00,0.0164
3191.00,0.0163
3190.00,0.0162
3189.00,0.0162
3188.00,0.0161
3187.00,0.0161
3186.00,0.0160
3185.00,0.0159
3184.00,0.0159
3183.00,0.0158
3182.00,0.0157
3181.00,0.0157
3180.00,0.0157
3179.00,0.0156
3178.00,0.0155
3177.00,0.0155
3176.00,0.0154
3175.00,0.0153
3174.00,0.0153
3173.00,0.0152
3172.00,0.0152
3171.00,0.0151
3170.00,0.0151
3169.00,0.0150
3168.00,0.0149
3167.00,0.0148
3166.00,0.0148
3165.00,0.0147
3164.00,0.0146
3163.00,0.0145
3162.00,0.0145
3161.00,0.0144
3160.00,0.0143
3159.00,0.0143
3158.00,0.0142
3157.00,0.0141
3156.00,0.0140
3155.00,0.0139
3154.00,0.0138
3153.00,0.0137
3152.00,0.0137
3151.00,0.0137
3150.00,0.0136
3149.00,0.0136
3148.00,0.0136
3147.00,0.0135
3146.00,0.0135
3145.00,0.0134
3144.00,0.0133
3143.00,0.0133
3142.00,0.0132
3141.00,0.0132
3140.00,0.0131
3139.00,0.0131
3138.00,0.0130
3137.00,0.0130
3136.00,0.0130
3135.00,0.0130
3134.00,0.0129
3133.00,0.0129
3132.00,0.0128
3131.00,0.0128
3130.00,0.0127
3129.00,0.0126
3128.00,0.0126
3127.00,0.0126
3126.00,0.0125
3125.00,0.0125
3124.00,0.0125
3123.00,0.0124
3122.00,0.0123
3121.00,0.0123
3120.00,0.0122
3119.00,0.0121
3118.00,0.0121
3117.00,0.0121
3116.00,0.0121
3115.00,0.0121
3114.00,0.0121
3113.00,0.0121
3112.00,0.0121
3111.00,0.0121
3110.00,0.0121
3109.00,0.0121
3108.00,0.0121
3107.00,0.0121
3106.00,0.0121
3105.00,0.0121
3104.00,0.0121
3103.00,0.0120
3102.00,0.0120
3101.00,0.0119
3100.00,0.0120
3099.00,0.0120
3098.00,0.0120
3097.00,0.0120
3096.00,0.0120
3095.00,0.0120
3094.00,0.0120
3093.00,0.0120
3092.00,0.0120
3091.00,0.0120
3090.00,0.0119
3089.00,0.0119
3088.00,0.0119
3087.00,0.0119
3086.00,0.0119
3085.00,0.0119
3084.00,0.0119
3083.00,0.0118
3082.00,0.0118
3081.00,0.0117
3080.00,0.0117
3079.00,0.0117
3078.00,0.0117
3077.00,0.0118
3076.00,0.0119
3075.00,0.0119
3074.00,0.0119
3073.00,0.0119
3072.00,0.0119
3071.00,0.0119
3070.00,0.0119
3069.00,0.0118
3068.00,0.0118
3067.00,0.0118
3066.00,0.0118
3065.00,0.0118
3064.00,0.0118
3063.00,0.0118
3062.00,0.0118
3061.00,0.0118
3060.00,0.0117
3059.00,0.0117
3058.00,0.0117
3057.00,0.0116
3056.00,0.0116
3055.00,0.0115
3054.00,0.0115
3053.00,0.0114
3052.00,0.0113
3051.00,0.0113
3050.00,0.0113
3049.00,0.0112
3048.00,0.0112
3047.00,0.0112
3046.00,0.0111
3045.00,0.0111
3044.00,0.0110
3043.00,0.0110
3042.00,0.0109
3041.00,0.0109
3040.00,0.0108
3039.00,0.0109
3038.00,0.0108
3037.00,0.0108
3036.00,0.0107
3035.00,0.0106
3034.00,0.0106
3033.00,0.0106
3032.00,0.0106
3031.00,0.0106
3030.00,0.0106
3029.00,0.0106
3028.00,0.0105
3027.00,0.0105
3026.00,0.0104
3025.00,0.0104
3024.00,0.0103
3023.00,0.0103
3022.00,0.0103
3021.00,0.0102
3020.00,0.0101
3019.00,0.0100
3018.00,0.0100
3017.00,0.0099
3016.00,0.0098
3015.00,0.0097
3014.00,0.0097
3013.00,0.0096
3012.00,0.0096
3011.00,0.0096
3010.00,0.0096
3009.00,0.0096
3008.00,0.0095
3007.00,0.0095
3006.00,0.0094
3005.00,0.0094
3004.00,0.0093
3003.00,0.0093
3002.00,0.0092
3001.00,0.0092
3000.00,0.0091
2999.00,0.0091
2998.00,0.0091
2997.00,0.0091
2996.00,0.0091
2995.00,0.0091
2994.00,0.0092
2993.00,0.0092
2992.00,0.0093
2991.00,0.0093
2990.00,0.0094
2989.00,0.0095
2988.00,0.0096
2987.00,0.0097
2986.00,0.0097
2985.00,0.0096
2984.00,0.0095
2983.00,0.0093
2982.00,0.0093
2981.00,0.0094
2980.00,0.0095
2979.00,0.0098
2978.00,0.0101
2977.00,0.0103
2976.00,0.0105
2975.00,0.0107
2974.00,0.0108
2973.00,0.0109
2972.00,0.0111
2971.00,0.0112
2970.00,0.0114
2969.00,0.0116
2968.00,0.0118
2967.00,0.0119
2966.00,0.0121
2965.00,0.0122
2964.00,0.0123
2963.00,0.0124
2962.00,0.0124
2961.00,0.0125
2960.00,0.0126
2959.00,0.0126
2958.00,0.0127
2957.00,0.0127
2956.00,0.0127
2955.00,0.0127
2954.00,0.0127
2953.00,0.0126
2952.00,0.0127
2951.00,0.0127
2950.00,0.0127
2949.00,0.0126
2948.00,0.0126
2947.00,0.0126
2946.00,0.0127
2945.00,0.0127
2944.00,0.0127
2943.00,0.0128
2942.00,0.0129
2941.00,0.0129
2940.00,0.0130
2939.00,0.0130
2938.00,0.0131
2937.00,0.0131
2936.00,0.0130
2935.00,0.0130
2934.00,0.0130
2933.00,0.0130
2932.00,0.0129
2931.00,0.0129
2930.00,0.0129
2929.00,0.0129
2928.00,0.0129
2927.00,0.0129
2926.00,0.0129
2925.00,0.0128
2924.00,0.0128
2923.00,0.0128
2922.00,0.0128
2921.00,0.0127
2920.00,0.0127
2919.00,0.0127
2918.00,0.0126
2917.00,0.0125
2916.00,0.0124
2915.00,0.0123
2914.00,0.0122
2913.00,0.0121
2912.00,0.0119
2911.00,0.0118
2910.00,0.0117
2909.00,0.0116
2908.00,0.0115
2907.00,0.0115
2906.00,0.0114
2905.00,0.0113
2904.00,0.0112
2903.00,0.0112
2902.00,0.0111
2901.00,0.0111
2900.00,0.0110
2899.00,0.0109
2898.00,0.0109
2897.00,0.0108
2896.00,0.0108
2895.00,0.0108
2894.00,0.0107
2893.00,0.0107
2892.00,0.0106
2891.00,0.0106
2890.00,0.0106
2889.00,0.0106
2888.00,0.0106
2887.00,0.0106
2886.00,0.0106
2885.00,0.0106
2884.00,0.0107
2883.00,0.0107
2882.00,0.0108
2881.00,0.0108
2880.00,0.0109
2879.00,0.0109
2878.00,0.0110
2877.00,0.0110
2876.00,0.0110
2875.00,0.0109
2874.00,0.0109
2873.00,0.0108
2872.00,0.0108
2871.00,0.0107
2870.00,0.0107
2869.00,0.0106
2868.00,0.0105
2867.00,0.0104
2866.00,0.0103
2865.00,0.0102
2864.00,0.0102
2863.00,0.0100
2862.00,0.0099
2861.00,0.0098
2860.00,0.0098
2859.00,0.0097
2858.00,0.0097
2857.00,0.0096
2856.00,0.0096
2855.00,0.0095
2854.00,0.0095
2853.00,0.0095
2852.00,0.0095
2851.00,0.0094
2850.00,0.0093
2849.00,0.0092
2848.00,0.0092
2847.00,0.0091
2846.00,0.0090
2845.00,0.0089
2844.00,0.0088
2843.00,0.0087
2842.00,0.0086
2841.00,0.0085
2840.00,0.0084
2839.00,0.0084
2838.00,0.0083
2837.00,0.0082
2836.00,0.0082
2835.00,0.0082
2834.00,0.0081
2833.00,0.0081
2832.00,0.0080
2831.00,0.0080
2830.00,0.0079
2829.00,0.0079
2828.00,0.0078
2827.00,0.0078
2826.00,0.0078
2825.00,0.0077
2824.00,0.0077
2823.00,0.0077
2822.00,0.0076
2821.00,0.0076
2820.00,0.0075
2819.00,0.0075
2818.00,0.0075
2817.00,0.0074
2816.00,0.0074
2815.00,0.0074
2814.00,0.0074
2813.00,0.0073
2812.00,0.0073
2811.00,0.0073
2810.00,0.0072
2809.00,0.0072
2808.00,0.0072
2807.00,0.0072
2806.00,0.0072
2805.00,0.0072
2804.00,0.0071
2803.00,0.0071
2802.00,0.0071
2801.00,0.0070
2800.00,0.0070
2799.00,0.0070
2798.00,0.0069
2797.00,0.0069
2796.00,0.0069
2795.00,0.0069
2794.00,0.0069
2793.00,0.0068
2792.00,0.0068
2791.00,0.0068
2790.00,0.0068
2789.00,0.0068
2788.00,0.0068
2787.00,0.0068
2786.00,0.0068
2785.00,0.0068
2784.00,0.0067
2783.00,0.0067
2782.00,0.0067
2781.00,0.0066
2780.00,0.0066
2779.00,0.0066
2778.00,0.0066
2777.00,0.0065
2776.00,0.0065
2775.00,0.0065
2774.00,0.0065
2773.00,0.0065
2772.00,0.0065
2771.00,0.0064
2770.00,0.0064
2769.00,0.0064
2768.00,0.0063
2767.00,0.0063
2766.00,0.0063
2765.00,0.0063
2764.00,0.0063
2763.00,0.0063
2762.00,0.0062
2761.00,0.0062
2760.00,0.0062
2759.00,0.0062
2758.00,0.0062
2757.00,0.0062
2756.00,0.0061
2755.00,0.0061
2754.00,0.0061
2753.00,0.0061
2752.00,0.0061
2751.00,0.0061
2750.00,0.0060
2749.00,0.0060
2748.00,0.0060
2747.00,0.0060
2746.00,0.0060
2745.00,0.0060
2744.00,0.0060
2743.00,0.0060
2742.00,0.0059
2741.00,0.0059
2740.00,0.0059
2739.00,0.0059
2738.00,0.0059
2737.00,0.0059
2736.00,0.0059
2735.00,0.0058
2734.00,0.0058
2733.00,0.0058
2732.00,0.0058
2731.00,0.0058
2730.00,0.0057
2729.00,0.0057
2728.00,0.0057
2727.00,0.0056
2726.00,0.0056
2725.00,0.0056
2724.00,0.0056
2723.00,0.0056
2722.00,0.0056
2721.00,0.0056
2720.00,0.0056
2719.00,0.0056
2718.00,0.0056
2717.00,0.0056
2716.00,0.0055
2715.00,0.0055
2714.00,0.0055
2713.00,0.0055
2712.00,0.0055
2711.00,0.0055
2710.00,0.0054
2709.00,0.0054
2708.00,0.0054
2707.00,0.0053
2706.00,0.0053
2705.00,0.0053
2704.00,0.0053
2703.00,0.0053
2702.00,0.0053
2701.00,0.0053
2700.00,0.0053
2699.00,0.0053
2698.00,0.0053
2697.00,0.0053
2696.00,0.0053
2695.00,0.0053
2694.00,0.0052
2693.00,0.0052
2692.00,0.0052
2691.00,0.0052
2690.00,0.0052
2689.00,0.0052
2688.00,0.0051
2687.00,0.0051
2686.00,0.0051
2685.00,0.0051
2684.00,0.0051
2683.00,0.0051
2682.00,0.0051
2681.00,0.0051
2680.00,0.0050
2679.00,0.0050
2678.00,0.0051
2677.00,0.0051
2676.00,0.0051
2675.00,0.0051
2674.00,0.0050
2673.00,0.0050
2672.00,0.0050
2671.00,0.0050
2670.00,0.0050
2669.00,0.0050
2668.00,0.0050
2667.00,0.0050
2666.00,0.0051
2665.00,0.0051
2664.00,0.0052
2663.00,0.0052
2662.00,0.0052
2661.00,0.0053
2660.00,0.0053
2659.00,0.0053
2658.00,0.0053
2657.00,0.0053
2656.00,0.0053
2655.00,0.0053
2654.00,0.0053
2653.00,0.0053
2652.00,0.0053
2651.00,0.0053
2650.00,0.0053
2649.00,0.0053
2648.00,0.0053
2647.00,0.0053
2646.00,0.0053
2645.00,0.0053
2644.00,0.0053
2643.00,0.0052
2642.00,0.0052
2641.00,0.0052
2640.00,0.0052
2639.00,0.0052
2638.00,0.0052
2637.00,0.0052
2636.00,0.0052
2635.00,0.0052
2634.00,0.0052
2633.00,0.0052
2632.00,0.0052
2631.00,0.0051
2630.00,0.0051
2629.00,0.0051
2628.00,0.0051
2627.00,0.0051
2626.00,0.0051
2625.00,0.0051
2624.00,0.0051
2623.00,0.0051
2622.00,0.0051
2621.00,0.0051
2620.00,0.0051
2619.00,0.0050
2618.00,0.0050
2617.00,0.0050
2616.00,0.0050
2615.00,0.0049
2614.00,0.0049
2613.00,0.0049
2612.00,0.0049
2611.00,0.0049
2610.00,0.0049
2609.00,0.0049
2608.00,0.0049
2607.00,0.0048
2606.00,0.0048
2605.00,0.0048
2604.00,0.0048
2603.00,0.0048
2602.00,0.0048
2601.00,0.0048
2600.00,0.0048
2599.00,0.0047
2598.00,0.0047
2597.00,0.0047
2596.00,0.0047
2595.00,0.0047
2594.00,0.0047
2593.00,0.0046
2592.00,0.0046
2591.00,0.0046
2590.00,0.0046
2589.00,0.0046
2588.00,0.0046
2587.00,0.0046
2586.00,0.0045
2585.00,0.0045
2584.00,0.0045
2583.00,0.0045
2582.00,0.0045
2581.00,0.0045
2580.00,0.0045
2579.00,0.0045
2578.00,0.0044
2577.00,0.0044
2576.00,0.0044
2575.00,0.0043
2574.00,0.0043
2573.00,0.0043
2572.00,0.0043
2571.00,0.0042
2570.00,0.0043
2569.00,0.0043
2568.00,0.0043
2567.00,0.0043
2566.00,0.0043
2565.00,0.0042
2564.00,0.0042
2563.00,0.0042
2562.00,0.0042
2561.00,0.0042
2560.00,0.0042
2559.00,0.0041
2558.00,0.0041
2557.00,0.0041
2556.00,0.0041
2555.00,0.0041
2554.00,0.0041
2553.00,0.0041
2552.00,0.0041
2551.00,0.0041
2550.00,0.0041
2549.00,0.0041
2548.00,0.0041
2547.00,0.0040
2546.00,0.0040
2545.00,0.0040
2544.00,0.0040
2543.00,0.0040
2542.00,0.0040
2541.00,0.0040
2540.00,0.0040
2539.00,0.0039
2538.00,0.0039
2537.00,0.0039
2536.00,0.0039
2535.00,0.0039
2534.00,0.0038
2533.00,0.0038
2532.00,0.0038
2531.00,0.0038
2530.00,0.0038
2529.00,0.0038
2528.00,0.0038
2527.00,0.0038
2526.00,0.0038
2525.00,0.0038
2524.00,0.0038
2523.00,0.0037
2522.00,0.0037
2521.00,0.0037
2520.00,0.0037
2519.00,0.0037
2518.00,0.0037
2517.00,0.0037
2516.00,0.0036
2515.00,0.0036
2514.00,0.0036
2513.00,0.0036
2512.00,0.0037
2511.00,0.0037
2510.00,0.0037
2509.00,0.0037
2508.00,0.0036
2507.00,0.0036
2506.00,0.0036
2505.00,0.0036
2504.00,0.0036
2503.00,0.0036
2502.00,0.0036
2501.00,0.0036
2500.00,0.0036
2499.00,0.0036
2498.00,0.0035
2497.00,0.0035
2496.00,0.0035
2495.00,0.0035
2494.00,0.0035
2493.00,0.0036
2492.00,0.0036
2491.00,0.0036
2490.00,0.0035
2489.00,0.0035
2488.00,0.0035
2487.00,0.0035
2486.00,0.0035
2485.00,0.0035
2484.00,0.0035
2483.00,0.0035
2482.00,0.0035
2481.00,0.0035
2480.00,0.0035
2479.00,0.0035
2478.00,0.0034
2477.00,0.0034
2476.00,0.0034
2475.00,0.0034
2474.00,0.0034
2473.00,0.0034
2472.00,0.0034
2471.00,0.0034
2470.00,0.0034
2469.00,0.0034
2468.00,0.0034
2467.00,0.0034
2466.00,0.0035
2465.00,0.0035
2464.00,0.0035
2463.00,0.0035
2462.00,0.0035
2461.00,0.0035
2460.00,0.0035
2459.00,0.0035
2458.00,0.0035
2457.00,0.0035
2456.00,0.0036
2455.00,0.0036
2454.00,0.0035
2453.00,0.0035
2452.00,0.0035
2451.00,0.0035
2450.00,0.0035
2449.00,0.0035
2448.00,0.0035
2447.00,0.0035
2446.00,0.0034
2445.00,0.0034
2444.00,0.0033
2443.00,0.0033
2442.00,0.0033
2441.00,0.0033
2440.00,0.0033
2439.00,0.0033
2438.00,0.0032
2437.00,0.0032
2436.00,0.0032
2435.00,0.0032
2434.00,0.0032
2433.00,0.0032
2432.00,0.0032
2431.00,0.0031
2430.00,0.0031
2429.00,0.0031
2428.00,0.0030
2427.00,0.0030
2426.00,0.0030
2425.00,0.0030
2424.00,0.0030
2423.00,0.0030
2422.00,0.0030
2421.00,0.0030
2420.00,0.0030
2419.00,0.0030
2418.00,0.0030
2417.00,0.0030
2416.00,0.0030
2415.00,0.0030
2414.00,0.0030
2413.00,0.0029
2412.00,0.0030
2411.00,0.0030
2410.00,0.0029
2409.00,0.0029
2408.00,0.0028
2407.00,0.0028
2406.00,0.0027
2405.00,0.0027
2404.00,0.0027
2403.00,0.0027
2402.00,0.0027
2401.00,0.0027
2400.00,0.0028
2399.00,0.0028
2398.00,0.0028
2397.00,0.0027
2396.00,0.0027
2395.00,0.0027
2394.00,0.0027
2393.00,0.0027
2392.00,0.0027
2391.00,0.0027
2390.00,0.0026
2389.00,0.0026
2388.00,0.0026
2387.00,0.0026
2386.00,0.0025
2385.00,0.0025
2384.00,0.0025
2383.00,0.0025
2382.00,0.0025
2381.00,0.0025
2380.00,0.0025
2379.00,0.0024
2378.00,0.0024
2377.00,0.0024
2376.00,0.0024
2375.00,0.0024
2374.00,0.0024
2373.00,0.0024
2372.00,0.0024
2371.00,0.0024
2370.00,0.0024
2369.00,0.0024
2368.00,0.0024
2367.00,0.0024
2366.00,0.0024
2365.00,0.0024
2364.00,0.0024
2363.00,0.0025
2362.00,0.0025
2361.00,0.0025
2360.00,0.0025
2359.00,0.0025
2358.00,0.0025
2357.00,0.0025
2356.00,0.0026
2355.00,0.0026
2354.00,0.0025
2353.00,0.0024
2352.00,0.0023
2351.00,0.0023
2350.00,0.0024
2349.00,0.0026
2348.00,0.0028
2347.00,0.0029
2346.00,0.0030
2345.00,0.0029
2344.00,0.0028
2343.00,0.0028
2342.00,0.0028
2341.00,0.0028
2340.00,0.0029
2339.00,0.0029
2338.00,0.0029
2337.00,0.0029
2336.00,0.0029
2335.00,0.0028
2334.00,0.0028
2333.00,0.0028
2332.00,0.0028
2331.00,0.0029
2330.00,0.0029
2329.00,0.0031
2328.00,0.0034
2327.00,0.0038
2326.00,0.0041
2325.00,0.0042
2324.00,0.0041
2323.00,0.0038
2322.00,0.0036
2321.00,0.0035
2320.00,0.0034
2319.00,0.0034
2318.00,0.0034
2317.00,0.0033
2316.00,0.0032
2315.00,0.0032
2314.00,0.0031
2313.00,0.0030
2312.00,0.0030
2311.00,0.0030
2310.00,0.0030
2309.00,0.0030
2308.00,0.0030
2307.00,0.0030
2306.00,0.0030
2305.00,0.0030
2304.00,0.0030
2303.00,0.0030
2302.00,0.0030
2301.00,0.0030
2300.00,0.0031
2299.00,0.0031
2298.00,0.0032
2297.00,0.0033
2296.00,0.0033
2295.00,0.0034
2294.00,0.0035
2293.00,0.0036
2292.00,0.0037
2291.00,0.0038
2290.00,0.0039
2289.00,0.0039
2288.00,0.0040
2287.00,0.0040
2286.00,0.0039
2285.00,0.0038
2284.00,0.0037
2283.00,0.0037
2282.00,0.0036
2281.00,0.0036
2280.00,0.0036
2279.00,0.0035
2278.00,0.0035
2277.00,0.0035
2276.00,0.0035
2275.00,0.0035
2274.00,0.0034
2273.00,0.0034
2272.00,0.0034
2271.00,0.0034
2270.00,0.0033
2269.00,0.0032
2268.00,0.0031
2267.00,0.0031
2266.00,0.0030
2265.00,0.0031
2264.00,0.0032
2263.00,0.0032
2262.00,0.0033
2261.00,0.0033
2260.00,0.0033
2259.00,0.0032
2258.00,0.0032
2257.00,0.0030
2256.00,0.0029
2255.00,0.0028
2254.00,0.0028
2253.00,0.0028
2252.00,0.0028
2251.00,0.0029
2250.00,0.0029
2249.00,0.0029
2248.00,0.0029
2247.00,0.0029
2246.00,0.0029
2245.00,0.0029
2244.00,0.0029
2243.00,0.0029
2242.00,0.0029
2241.00,0.0029
2240.00,0.0030
2239.00,0.0030
2238.00,0.0030
2237.00,0.0031
2236.00,0.0030
2235.00,0.0030
2234.00,0.0030
2233.00,0.0030
2232.00,0.0031
2231.00,0.0031
2230.00,0.0032
2229.00,0.0032
2228.00,0.0031
2227.00,0.0030
2226.00,0.0029
2225.00,0.0028
2224.00,0.0028
2223.00,0.0028
2222.00,0.0029
2221.00,0.0029
2220.00,0.0030
2219.00,0.0030
2218.00,0.0029
2217.00,0.0029
2216.00,0.0029
2215.00,0.0028
2214.00,0.0027
2213.00,0.0027
2212.00,0.0027
2211.00,0.0028
2210.00,0.0028
2209.00,0.0028
2208.00,0.0027
2207.00,0.0028
2206.00,0.0028
2205.00,0.0028
2204.00,0.0028
2203.00,0.0028
2202.00,0.0028
2201.00,0.0028
2200.00,0.0029
2199.00,0.0030
2198.00,0.0030
2197.00,0.0031
2196.00,0.0030
2195.00,0.0030
2194.00,0.0029
2193.00,0.0030
2192.00,0.0030
2191.00,0.0032
2190.00,0.0033
2189.00,0.0033
2188.00,0.0033
2187.00,0.0032
2186.00,0.0032
2185.00,0.0031
2184.00,0.0030
2183.00,0.0028
2182.00,0.0026
2181.00,0.0026
2180.00,0.0028
2179.00,0.0029
2178.00,0.0028
2177.00,0.0028
2176.00,0.0026
2175.00,0.0025
2174.00,0.0024
2173.00,0.0026
2172.00,0.0029
2171.00,0.0033
2170.00,0.0036
2169.00,0.0038
2168.00,0.0038
2167.00,0.0038
2166.00,0.0038
2165.00,0.0038
2164.00,0.0039
2163.00,0.0037
2162.00,0.0031
2161.00,0.0020
2160.00,0.0008
2159.00,-0.0002
2158.00,-0.0005
2157.00,-0.0004
2156.00,-0.0002
2155.00,-0.0001
2154.00,0.0000
2153.00,0.0002
2152.00,0.0004
2151.00,0.0005
2150.00,0.0007
2149.00,0.0008
2148.00,0.0010
2147.00,0.0011
2146.00,0.0010
2145.00,0.0009
2144.00,0.0008
2143.00,0.0009
2142.00,0.0009
2141.00,0.0009
2140.00,0.0009
2139.00,0.0009
2138.00,0.0008
2137.00,0.0006
2136.00,0.0005
2135.00,0.0004
2134.00,0.0003
2133.00,0.0003
2132.00,0.0005
2131.00,0.0007
2130.00,0.0009
2129.00,0.0011
2128.00,0.0013
2127.00,0.0014
2126.00,0.0015
2125.00,0.0016
2124.00,0.0018
2123.00,0.0019
2122.00,0.0020
2121.00,0.0020
2120.00,0.0020
2119.00,0.0020
2118.00,0.0022
2117.00,0.0023
2116.00,0.0025
2115.00,0.0026
2114.00,0.0026
2113.00,0.0026
2112.00,0.0027
2111.00,0.0026
2110.00,0.0025
2109.00,0.0025
2108.00,0.0025
2107.00,0.0025
2106.00,0.0025
2105.00,0.0025
2104.00,0.0025
2103.00,0.0025
2102.00,0.0024
2101.00,0.0024
2100.00,0.0023
2099.00,0.0022
2098.00,0.0020
2097.00,0.0019
2096.00,0.0019
2095.00,0.0019
2094.00,0.0021
2093.00,0.0022
2092.00,0.0023
2091.00,0.0024
2090.00,0.0025
2089.00,0.0025
2088.00,0.0025
2087.00,0.0025
2086.00,0.0025
2085.00,0.0025
2084.00,0.0025
2083.00,0.0025
2082.00,0.0025
2081.00,0.0024
2080.00,0.0024
2079.00,0.0025
2078.00,0.0025
2077.00,0.0025
2076.00,0.0025
2075.00,0.0025
2074.00,0.0024
2073.00,0.0024
2072.00,0.0024
2071.00,0.0024
2070.00,0.0023
2069.00,0.0023
2068.00,0.0022
2067.00,0.0022
2066.00,0.0022
2065.00,0.0022
2064.00,0.0022
2063.00,0.0022
2062.00,0.0021
2061.00,0.0020
2060.00,0.0020
2059.00,0.0020
2058.00,0.0021
2057.00,0.0022
2056.00,0.0023
2055.00,0.0023
2054.00,0.0025
2053.00,0.0029
2052.00,0.0032
2051.00,0.0032
2050.00,0.0030
2049.00,0.0026
2048.00,0.0023
2047.00,0.0021
2046.00,0.0020
2045.00,0.0020
2044.00,0.0020
2043.00,0.0020
2042.00,0.0021
2041.00,0.0022
2040.00,0.0023
2039.00,0.0023
2038.00,0.0023
2037.00,0.0023
2036.00,0.0022
2035.00,0.0020
2034.00,0.0019
2033.00,0.0018
2032.00,0.0018
2031.00,0.0017
2030.00,0.0015
2029.00,0.0013
2028.00,0.0011
2027.00,0.0011
2026.00,0.0010
2025.00,0.0010
2024.00,0.0011
2023.00,0.0011
2022.00,0.0011
2021.00,0.0011
2020.00,0.0012
2019.00,0.0013
2018.00,0.0015
2017.00,0.0016
2016.00,0.0017
2015.00,0.0018
2014.00,0.0018
2013.00,0.0017
2012.00,0.0017
2011.00,0.0015
2010.00,0.0012
2009.00,0.0008
2008.00,0.0006
2007.00,0.0004
2006.00,0.0004
2005.00,0.0005
2004.00,0.0007
2003.00,0.0009
2002.00,0.0011
2001.00,0.0012
2000.00,0.0013
1999.00,0.0014
1998.00,0.0015
1997.00,0.0016
1996.00,0.0017
1995.00,0.0018
1994.00,0.0018
1993.00,0.0018
1992.00,0.0019
1991.00,0.0019
1990.00,0.0019
1989.00,0.0019
1988.00,0.0021
1987.00,0.0022
1986.00,0.0023
1985.00,0.0024
1984.00,0.0025
1983.00,0.0027
1982.00,0.0028
1981.00,0.0028
1980.00,0.0026
1979.00,0.0022
1978.00,0.0016
1977.00,0.0012
1976.00,0.0011
1975.00,0.0010
1974.00,0.0009
1973.00,0.0008
1972.00,0.0007
1971.00,0.0007
1970.00,0.0007
1969.00,0.0009
1968.00,0.0011
1967.00,0.0012
1966.00,0.0011
1965.00,0.0010
1964.00,0.0009
1963.00,0.0008
1962.00,0.0007
1961.00,0.0007
1960.00,0.0006
1959.00,0.0006
1958.00,0.0006
1957.00,0.0007
1956.00,0.0008
1955.00,0.0009
1954.00,0.0010
1953.00,0.0010
1952.00,0.0010
1951.00,0.0011
1950.00,0.0011
1949.00,0.0011
1948.00,0.0011
1947.00,0.0010
1946.00,0.0009
1945.00,0.0008
1944.00,0.0008
1943.00,0.0008
1942.00,0.0010
1941.00,0.0011
1940.00,0.0012
1939.00,0.0012
1938.00,0.0011
1937.00,0.0011
1936.00,0.0011
1935.00,0.0011
1934.00,0.0011
1933.00,0.0011
1932.00,0.0012
1931.00,0.0013
1930.00,0.0013
1929.00,0.0012
1928.00,0.0012
1927.00,0.0011
1926.00,0.0011
1925.00,0.0011
1924.00,0.0012
1923.00,0.0013
1922.00,0.0013
1921.00,0.0014
1920.00,0.0013
1919.00,0.0013
1918.00,0.0013
1917.00,0.0013
1916.00,0.0013
1915.00,0.0013
1914.00,0.0013
1913.00,0.0013
1912.00,0.0014
1911.00,0.0014
1910.00,0.0014
1909.00,0.0014
1908.00,0.0014
1907.00,0.0014
1906.00,0.0014
1905.00,0.0014
1904.00,0.0014
1903.00,0.0015
1902.00,0.0015
1901.00,0.0015
1900.00,0.0015
1899.00,0.0015
1898.00,0.0015
1897.00,0.0015
1896.00,0.0016
1895.00,0.0016
1894.00,0.0016
1893.00,0.0015
1892.00,0.0015
1891.00,0.0014
1890.00,0.0014
1889.00,0.0015
1888.00,0.0016
1887.00,0.0016
1886.00,0.0016
1885.00,0.0017
1884.00,0.0017
1883.00,0.0017
1882.00,0.0016
1881.00,0.0016
1880.00,0.0015
1879.00,0.0015
1878.00,0.0015
1877.00,0.0015
1876.00,0.0015
1875.00,0.0015
1874.00,0.0015
1873.00,0.0015
1872.00,0.0014
1871.00,0.0014
1870.00,0.0013
1869.00,0.0013
1868.00,0.0014
1867.00,0.0015
1866.00,0.0015
1865.00,0.0015
1864.00,0.0016
1863.00,0.0016
1862.00,0.0016
1861.00,0.0016
1860.00,0.0016
1859.00,0.0015
1858.00,0.0015
1857.00,0.0015
1856.00,0.0015
1855.00,0.0015
1854.00,0.0015
1853.00,0.0015
1852.00,0.0015
1851.00,0.0015
1850.00,0.0015
1849.00,0.0015
1848.00,0.0015
1847.00,0.0015
1846.00,0.0014
1845.00,0.0014
1844.00,0.0015
1843.00,0.0015
1842.00,0.0015
1841.00,0.0015
1840.00,0.0015
1839.00,0.0016
1838.00,0.0016
1837.00,0.0016
1836.00,0.0016
1835.00,0.0016
1834.00,0.0016
1833.00,0.0016
1832.00,0.0015
1831.00,0.0015
1830.00,0.0015
1829.00,0.0015
1828.00,0.0015
1827.00,0.0015
1826.00,0.0015
1825.00,0.0015
1824.00,0.0016
1823.00,0.0016
1822.00,0.0016
1821.00,0.0016
1820.00,0.0016
1819.00,0.0015
1818.00,0.0014
1817.00,0.0013
1816.00,0.0013
1815.00,0.0014
1814.00,0.0014
1813.00,0.0015
1812.00,0.0015
1811.00,0.0016
1810.00,0.0016
1809.00,0.0016
1808.00,0.0017
1807.00,0.0017
1806.00,0.0017
1805.00,0.0017
1804.00,0.0016
1803.00,0.0016
1802.00,0.0016
1801.00,0.0016
1800.00,0.0016
1799.00,0.0016
1798.00,0.0017
1797.00,0.0017
1796.00,0.0017
1795.00,0.0017
1794.00,0.0017
1793.00,0.0017
1792.00,0.0017
1791.00,0.0018
1790.00,0.0018
1789.00,0.0019
1788.00,0.0019
1787.00,0.0019
1786.00,0.0018
1785.00,0.0018
1784.00,0.0018
1783.00,0.0018
1782.00,0.0018
1781.00,0.0018
1780.00,0.0018
1779.00,0.0018
1778.00,0.0018
1777.00,0.0017
1776.00,0.0017
1775.00,0.0017
1774.00,0.0017
1773.00,0.0017
1772.00,0.0018
1771.00,0.0018
1770.00,0.0019
1769.00,0.0019
1768.00,0.0020
1767.00,0.0020
1766.00,0.0021
1765.00,0.0020
1764.00,0.0020
1763.00,0.0020
1762.00,0.0021
1761.00,0.0021
1760.00,0.0022
1759.00,0.0021
1758.00,0.0021
1757.00,0.0022
1756.00,0.0022
1755.00,0.0023
1754.00,0.0023
1753.00,0.0022
1752.00,0.0022
1751.00,0.0022
1750.00,0.0022
1749.00,0.0022
1748.00,0.0022
1747.00,0.0023
1746.00,0.0024
1745.00,0.0024
1744.00,0.0025
1743.00,0.0025
1742.00,0.0025
1741.00,0.0025
1740.00,0.0026
1739.00,0.0027
1738.00,0.0028
1737.00,0.0028
1736.00,0.0029
1735.00,0.0030
1734.00,0.0032
1733.00,0.0034
1732.00,0.0035
1731.00,0.0035
1730.00,0.0036
1729.00,0.0037
1728.00,0.0039
1727.00,0.0040
1726.00,0.0041
1725.00,0.0043
1724.00,0.0045
1723.00,0.0046
1722.00,0.0047
1721.00,0.0048
1720.00,0.0049
1719.00,0.0051
1718.00,0.0054
1717.00,0.0058
1716.00,0.0061
1715.00,0.0064
1714.00,0.0066
1713.00,0.0069
1712.00,0.0073
1711.00,0.0076
1710.00,0.0080
1709.00,0.0083
1708.00,0.0087
1707.00,0.0092
1706.00,0.0098
1705.00,0.0105
1704.00,0.0112
1703.00,0.0119
1702.00,0.0126
1701.00,0.0135
1700.00,0.0148
1699.00,0.0161
1698.00,0.0171
1697.00,0.0182
1696.00,0.0195
1695.00,0.0209
1694.00,0.0220
1693.00,0.0228
1692.00,0.0238
1691.00,0.0248
1690.00,0.0259
1689.00,0.0270
1688.00,0.0281
1687.00,0.0293
1686.00,0.0303
1685.00,0.0313
1684.00,0.0324
1683.00,0.0335
1682.00,0.0345
1681.00,0.0355
1680.00,0.0366
1679.00,0.0376
1678.00,0.0386
1677.00,0.0395
1676.00,0.0404
1675.00,0.0412
1674.00,0.0421
1673.00,0.0429
1672.00,0.0438
1671.00,0.0446
1670.00,0.0453
1669.00,0.0461
1668.00,0.0469
1667.00,0.0478
1666.00,0.0486
1665.00,0.0495
1664.00,0.0502
1663.00,0.0509
1662.00,0.0515
1661.00,0.0522
1660.00,0.0530
1659.00,0.0538
1658.00,0.0546
1657.00,0.0554
1656.00,0.0563
1655.00,0.0572
1654.00,0.0574
1653.00,0.0572
1652.00,0.0570
1651.00,0.0573
1650.00,0.0576
1649.00,0.0579
1648.00,0.0580
1647.00,0.0578
1646.00,0.0575
1645.00,0.0574
1644.00,0.0574
1643.00,0.0575
1642.00,0.0574
1641.00,0.0573
1640.00,0.0572
1639.00,0.0571
1638.00,0.0569
1637.00,0.0565
1636.00,0.0558
1635.00,0.0551
1634.00,0.0547
1633.00,0.0545
1632.00,0.0545
1631.00,0.0545
1630.00,0.0542
1629.00,0.0538
1628.00,0.0534
1627.00,0.0531
1626.00,0.0527
1625.00,0.0523
1624.00,0.0518
1623.00,0.0512
1622.00,0.0506
1621.00,0.0501
1620.00,0.0498
1619.00,0.0494
1618.00,0.0488
1617.00,0.0478
1616.00,0.0467
1615.00,0.0458
1614.00,0.0450
1613.00,0.0444
1612.00,0.0436
1611.00,0.0428
1610.00,0.0420
1609.00,0.0413
1608.00,0.0405
1607.00,0.0398
1606.00,0.0391
1605.00,0.0385
1604.00,0.0379
1603.00,0.0373
1602.00,0.0367
1601.00,0.0362
1600.00,0.0357
1599.00,0.0352
1598.00,0.0347
1597.00,0.0342
1596.00,0.0338
1595.00,0.0333
1594.00,0.0329
1593.00,0.0324
1592.00,0.0320
1591.00,0.0316
1590.00,0.0313
1589.00,0.0310
1588.00,0.0307
1587.00,0.0304
1586.00,0.0301
1585.00,0.0299
1584.00,0.0297
1583.00,0.0295
1582.00,0.0294
1581.00,0.0294
1580.00,0.0293
1579.00,0.0293
1578.00,0.0294
1577.00,0.0294
1576.00,0.0294
1575.00,0.0293
1574.00,0.0294
1573.00,0.0294
1572.00,0.0294
1571.00,0.0294
1570.00,0.0294
1569.00,0.0296
1568.00,0.0297
1567.00,0.0299
1566.00,0.0302
1565.00,0.0304
1564.00,0.0307
1563.00,0.0310
1562.00,0.0313
1561.00,0.0316
1560.00,0.0316
1559.00,0.0316
1558.00,0.0320
1557.00,0.0325
1556.00,0.0330
1555.00,0.0334
1554.00,0.0339
1553.00,0.0343
1552.00,0.0347
1551.00,0.0351
1550.00,0.0354
1549.00,0.0358
1548.00,0.0362
1547.00,0.0366
1546.00,0.0369
1545.00,0.0372
1544.00,0.0374
1543.00,0.0377
1542.00,0.0378
1541.00,0.0380
1540.00,0.0382
1539.00,0.0385
1538.00,0.0388
1537.00,0.0391
1536.00,0.0392
1535.00,0.0393
1534.00,0.0394
1533.00,0.0395
1532.00,0.0397
1531.00,0.0398
1530.00,0.0400
1529.00,0.0400
1528.00,0.0401
1527.00,0.0400
1526.00,0.0400
1525.00,0.0399
1524.00,0.0399
1523.00,0.0399
1522.00,0.0399
1521.00,0.0399
1520.00,0.0398
1519.00,0.0398
1518.00,0.0398
1517.00,0.0397
1516.00,0.0397
1515.00,0.0397
1514.00,0.0396
1513.00,0.0395
1512.00,0.0392
1511.00,0.0389
1510.00,0.0387
1509.00,0.0383
1508.00,0.0378
1507.00,0.0372
1506.00,0.0366
1505.00,0.0363
1504.00,0.0362
1503.00,0.0360
1502.00,0.0359
1501.00,0.0356
1500.00,0.0354
1499.00,0.0351
1498.00,0.0348
1497.00,0.0345
1496.00,0.0341
1495.00,0.0337
1494.00,0.0333
1493.00,0.0328
1492.00,0.0322
1491.00,0.0315
1490.00,0.0307
1489.00,0.0300
1488.00,0.0293
1487.00,0.0287
1486.00,0.0282
1485.00,0.0277
1484.00,0.0272
1483.00,0.0268
1482.00,0.0263
1481.00,0.0260
1480.00,0.0257
1479.00,0.0255
1478.00,0.0253
1477.00,0.0252
1476.00,0.0252
1475.00,0.0253
1474.00,0.0255
1473.00,0.0258
1472.00,0.0263
1471.00,0.0268
1470.00,0.0274
1469.00,0.0279
1468.00,0.0284
1467.00,0.0289
1466.00,0.0294
1465.00,0.0298
1464.00,0.0303
1463.00,0.0308
1462.00,0.0311
1461.00,0.0314
1460.00,0.0316
1459.00,0.0317
1458.00,0.0317
1457.00,0.0315
1456.00,0.0313
1455.00,0.0312
1454.00,0.0310
1453.00,0.0308
1452.00,0.0307
1451.00,0.0307
1450.00,0.0306
1449.00,0.0306
1448.00,0.0306
1447.00,0.0307
1446.00,0.0309
1445.00,0.0312
1444.00,0.0315
1443.00,0.0318
1442.00,0.0321
1441.00,0.0324
1440.00,0.0327
1439.00,0.0329
1438.00,0.0331
1437.00,0.0331
1436.00,0.0331
1435.00,0.0330
1434.00,0.0330
1433.00,0.0329
1432.00,0.0328
1431.00,0.0327
1430.00,0.0326
1429.00,0.0326
1428.00,0.0328
1427.00,0.0330
1426.00,0.0333
1425.00,0.0336
1424.00,0.0338
1423.00,0.0341
1422.00,0.0343
1421.00,0.0345
1420.00,0.0344
1419.00,0.0340
1418.00,0.0336
1417.00,0.0331
1416.00,0.0327
1415.00,0.0322
1414.00,0.0316
1413.00,0.0311
1412.00,0.0306
1411.00,0.0300
1410.00,0.0296
1409.00,0.0292
1408.00,0.0289
1407.00,0.0286
1406.00,0.0283
1405.00,0.0281
1404.00,0.0280
1403.00,0.0279
1402.00,0.0278
1401.00,0.0277
1400.00,0.0275
1399.00,0.0275
1398.00,0.0274
1397.00,0.0274
1396.00,0.0274
1395.00,0.0274
1394.00,0.0274
1393.00,0.0274
1392.00,0.0275
1391.00,0.0275
1390.00,0.0276
1389.00,0.0276
1388.00,0.0276
1387.00,0.0276
1386.00,0.0275
1385.00,0.0274
1384.00,0.0273
1383.00,0.0272
1382.00,0.0271
1381.00,0.0269
1380.00,0.0268
1379.00,0.0267
1378.00,0.0266
1377.00,0.0265
1376.00,0.0264
1375.00,0.0263
1374.00,0.0262
1373.00,0.0261
1372.00,0.0260
1371.00,0.0259
1370.00,0.0258
1369.00,0.0257
1368.00,0.0254
1367.00,0.0252
1366.00,0.0249
1365.00,0.0246
1364.00,0.0242
1363.00,0.0239
1362.00,0.0235
1361.00,0.0233
1360.00,0.0230
1359.00,0.0227
1358.00,0.0225
1357.00,0.0222
1356.00,0.0220
1355.00,0.0219
1354.00,0.0217
1353.00,0.0216
1352.00,0.0215
1351.00,0.0213
1350.00,0.0212
1349.00,0.0211
1348.00,0.0210
1347.00,0.0210
1346.00,0.0209
1345.00,0.0209
1344.00,0.0209
1343.00,0.0209
1342.00,0.0209
1341.00,0.0209
1340.00,0.0209
1339.00,0.0209
1338.00,0.0209
1337.00,0.0209
1336.00,0.0210
1335.00,0.0210
1334.00,0.0210
1333.00,0.0211
1332.00,0.0211
1331.00,0.0212
1330.00,0.0213
1329.00,0.0215
1328.00,0.0216
1327.00,0.0218
1326.00,0.0220
1325.00,0.0222
1324.00,0.0224
1323.00,0.0226
1322.00,0.0228
1321.00,0.0230
1320.00,0.0232
1319.00,0.0234
1318.00,0.0235
1317.00,0.0237
1316.00,0.0238
1315.00,0.0238
1314.00,0.0238
1313.00,0.0238
1312.00,0.0237
1311.00,0.0236
1310.00,0.0235
1309.00,0.0234
1308.00,0.0234
1307.00,0.0233
1306.00,0.0233
1305.00,0.0233
1304.00,0.0234
1303.00,0.0235
1302.00,0.0236
1301.00,0.0239
1300.00,0.0242
1299.00,0.0246
1298.00,0.0250
1297.00,0.0256
1296.00,0.0262
1295.00,0.0268
1294.00,0.0275
1293.00,0.0283
1292.00,0.0290
1291.00,0.0297
1290.00,0.0304
1289.00,0.0310
1288.00,0.0315
1287.00,0.0319
1286.00,0.0321
1285.00,0.0322
1284.00,0.0323
1283.00,0.0322
1282.00,0.0321
1281.00,0.0319
1280.00,0.0317
1279.00,0.0315
1278.00,0.0314
1277.00,0.0314
1276.00,0.0314
1275.00,0.0315
1274.00,0.0317
1273.00,0.0318
1272.00,0.0319
1271.00,0.0320
1270.00,0.0320
1269.00,0.0321
1268.00,0.0320
1267.00,0.0319
1266.00,0.0317
1265.00,0.0314
1264.00,0.0312
1263.00,0.0309
1262.00,0.0306
1261.00,0.0304
1260.00,0.0301
1259.00,0.0298
1258.00,0.0296
1257.00,0.0294
1256.00,0.0292
1255.00,0.0290
1254.00,0.0289
1253.00,0.0288
1252.00,0.0288
1251.00,0.0287
1250.00,0.0287
1249.00,0.0288
1248.00,0.0288
1247.00,0.0289
1246.00,0.0290
1245.00,0.0291
1244.00,0.0292
1243.00,0.0293
1242.00,0.0294
1241.00,0.0296
1240.00,0.0297
1239.00,0.0299
1238.00,0.0301
1237.00,0.0302
1236.00,0.0304
1235.00,0.0306
1234.00,0.0307
1233.00,0.0308
1232.00,0.0309
1231.00,0.0309
1230.00,0.0309
1229.00,0.0309
1228.00,0.0309
1227.00,0.0308
1226.00,0.0307
1225.00,0.0306
1224.00,0.0304
1223.00,0.0303
1222.00,0.0301
1221.00,0.0299
1220.00,0.0296
1219.00,0.0294
1218.00,0.0292
1217.00,0.0289
1216.00,0.0286
1215.00,0.0283
1214.00,0.0280
1213.00,0.0277
1212.00,0.0273
1211.00,0.0270
1210.00,0.0266
1209.00,0.0263
1208.00,0.0259
1207.00,0.0256
1206.00,0.0252
1205.00,0.0249
1204.00,0.0246
1203.00,0.0242
1202.00,0.0239
1201.00,0.0236
1200.00,0.0233
1199.00,0.0230
1198.00,0.0228
1197.00,0.0225
1196.00,0.0223
1195.00,0.0220
1194.00,0.0218
1193.00,0.0215
1192.00,0.0213
1191.00,0.0212
1190.00,0.0210
1189.00,0.0209
1188.00,0.0208
1187.00,0.0207
1186.00,0.0206
1185.00,0.0204
1184.00,0.0203
1183.00,0.0203
1182.00,0.0203
1181.00,0.0203
1180.00,0.0203
1179.00,0.0204
1178.00,0.0204
1177.00,0.0206
1176.00,0.0207
1175.00,0.0209
1174.00,0.0211
1173.00,0.0213
1172.00,0.0215
1171.00,0.0216
1170.00,0.0218
1169.00,0.0219
1168.00,0.0221
1167.00,0.0222
1166.00,0.0224
1165.00,0.0225
1164.00,0.0226
1163.00,0.0227
1162.00,0.0228
1161.00,0.0228
1160.00,0.0229
1159.00,0.0229
1158.00,0.0230
1157.00,0.0230
1156.00,0.0230
1155.00,0.0229
1154.00,0.0229
1153.00,0.0228
1152.00,0.0226
1151.00,0.0225
1150.00,0.0223
1149.00,0.0221
1148.00,0.0220
1147.00,0.0218
1146.00,0.0217
1145.00,0.0215
1144.00,0.0213
1143.00,0.0211
1142.00,0.0209
1141.00,0.0208
1140.00,0.0206
1139.00,0.0205
1138.00,0.0204
1137.00,0.0203
1136.00,0.0202
1135.00,0.0202
1134.00,0.0202
1133.00,0.0203
1132.00,0.0203
1131.00,0.0204
1130.00,0.0205
1129.00,0.0206
1128.00,0.0207
1127.00,0.0208
1126.00,0.0210
1125.00,0.0211
1124.00,0.0213
1123.00,0.0214
1122.00,0.0215
1121.00,0.0217
1120.00,0.0218
1119.00,0.0219
1118.00,0.0221
1117.00,0.0222
1116.00,0.0224
1115.00,0.0225
1114.00,0.0227
1113.00,0.0229
1112.00,0.0231
1111.00,0.0232
1110.00,0.0234
1109.00,0.0235
1108.00,0.0236
1107.00,0.0237
1106.00,0.0239
1105.00,0.0240
1104.00,0.0242
1103.00,0.0243
1102.00,0.0244
1101.00,0.0245
1100.00,0.0246
1099.00,0.0247
1098.00,0.0248
1097.00,0.0250
1096.00,0.0251
1095.00,0.0253
1094.00,0.0255
1093.00,0.0257
1092.00,0.0259
1091.00,0.0260
1090.00,0.0263
1089.00,0.0265
1088.00,0.0268
1087.00,0.0270
1086.00,0.0273
1085.00,0.0275
1084.00,0.0277
1083.00,0.0279
1082.00,0.0280
1081.00,0.0281
1080.00,0.0282
1079.00,0.0283
1078.00,0.0283
1077.00,0.0283
1076.00,0.0282
1075.00,0.0282
1074.00,0.0281
1073.00,0.0280
1072.00,0.0279
1071.00,0.0278
1070.00,0.0277
1069.00,0.0276
1068.00,0.0276
1067.00,0.0276
1066.00,0.0276
1065.00,0.0276
1064.00,0.0276
1063.00,0.0276
1062.00,0.0277
1061.00,0.0278
1060.00,0.0280
1059.00,0.0281
1058.00,0.0282
1057.00,0.0284
1056.00,0.0285
1055.00,0.0286
1054.00,0.0286
1053.00,0.0287
1052.00,0.0287
1051.00,0.0288
1050.00,0.0289
1049.00,0.0290
1048.00,0.0290
1047.00,0.0290
1046.00,0.0290
1045.00,0.0290
1044.00,0.0290
1043.00,0.0290
1042.00,0.0290
1041.00,0.0290
1040.00,0.0289
1039.00,0.0289
1038.00,0.0289
1037.00,0.0289
1036.00,0.0289
1035.00,0.0289
1034.00,0.0289
1033.00,0.0289
1032.00,0.0289
1031.00,0.0290
1030.00,0.0291
1029.00,0.0291
1028.00,0.0292
1027.00,0.0293
1026.00,0.0293
1025.00,0.0294
1024.00,0.0294
1023.00,0.0294
1022.00,0.0294
1021.00,0.0293
1020.00,0.0292
1019.00,0.0291
1018.00,0.0289
1017.00,0.0286
1016.00,0.0283
1015.00,0.0280
1014.00,0.0276
1013.00,0.0273
1012.00,0.0269
1011.00,0.0266
1010.00,0.0263
1009.00,0.0260
1008.00,0.0258
1007.00,0.0255
1006.00,0.0253
1005.00,0.0252
1004.00,0.0250
1003.00,0.0249
1002.00,0.0247
1001.00,0.0244
1000.00,0.0242
999.00,0.0239
998.00,0.0236
997.00,0.0233
996.00,0.0230
995.00,0.0227
994.00,0.0224
993.00,0.0221
992.00,0.0217
991.00,0.0214
990.00,0.0210
989.00,0.0207
988.00,0.0204
987.00,0.0200
986.00,0.0197
985.00,0.0195
984.00,0.0192
983.00,0.0190
982.00,0.0187
981.00,0.0185
980.00,0.0183
979.00,0.0181
978.00,0.0180
977.00,0.0180
976.00,0.0179
975.00,0.0179
974.00,0.0178
973.00,0.0178
972.00,0.0178
971.00,0.0178
970.00,0.0179
969.00,0.0179
968.00,0.0178
967.00,0.0178
966.00,0.0178
965.00,0.0178
964.00,0.0177
963.00,0.0177
962.00,0.0177
961.00,0.0176
960.00,0.0175
959.00,0.0174
958.00,0.0172
957.00,0.0171
956.00,0.0170
955.00,0.0169
954.00,0.0168
953.00,0.0166
952.00,0.0165
951.00,0.0164
950.00,0.0163
949.00,0.0162
948.00,0.0162
947.00,0.0162
946.00,0.0162
945.00,0.0162
944.00,0.0163
943.00,0.0163
942.00,0.0164
941.00,0.0165
940.00,0.0167
939.00,0.0168
938.00,0.0170
937.00,0.0172
936.00,0.0174
935.00,0.0175
934.00,0.0177
933.00,0.0178
932.00,0.0178
931.00,0.0178
930.00,0.0178
929.00,0.0178
928.00,0.0177
927.00,0.0177
926.00,0.0177
925.00,0.0177
924.00,0.0176
923.00,0.0176
922.00,0.0175
921.00,0.0174
920.00,0.0173
919.00,0.0172
918.00,0.0172
917.00,0.0171
916.00,0.0170
915.00,0.0169
914.00,0.0168
913.00,0.0166
912.00,0.0165
911.00,0.0164
910.00,0.0163
909.00,0.0163
908.00,0.0162
907.00,0.0162
906.00,0.0161
905.00,0.0161
904.00,0.0161
903.00,0.0161
902.00,0.0162
901.00,0.0162
900.00,0.0162
899.00,0.0162
898.00,0.0163
897.00,0.0163
896.00,0.0164
895.00,0.0164
894.00,0.0165
893.00,0.0165
892.00,0.0164
891.00,0.0163
890.00,0.0162
889.00,0.0162
888.00,0.0161
887.00,0.0161
886.00,0.0161
885.00,0.0161
884.00,0.0161
883.00,0.0161
882.00,0.0161
881.00,0.0161
880.00,0.0161
879.00,0.0160
878.00,0.0160
877.00,0.0159
876.00,0.0159
875.00,0.0159
874.00,0.0159
873.00,0.0159
872.00,0.0159
871.00,0.0159
870.00,0.0160
869.00,0.0160
868.00,0.0161
867.00,0.0162
866.00,0.0163
865.00,0.0164
864.00,0.0166
863.00,0.0168
862.00,0.0169
861.00,0.0170
860.00,0.0171
859.00,0.0172
858.00,0.0173
857.00,0.0175
856.00,0.0177
855.00,0.0179
854.00,0.0181
853.00,0.0184
852.00,0.0186
851.00,0.0187
850.00,0.0189
849.00,0.0190
848.00,0.0191
847.00,0.0191
846.00,0.0192
845.00,0.0192
844.00,0.0193
843.00,0.0193
842.00,0.0194
841.00,0.0194
840.00,0.0194
839.00,0.0195
838.00,0.0196
837.00,0.0196
836.00,0.0196
835.00,0.0196
834.00,0.0196
833.00,0.0196
832.00,0.0196
831.00,0.0195
830.00,0.0195
829.00,0.0194
828.00,0.0194
827.00,0.0194
826.00,0.0193
825.00,0.0193
824.00,0.0193
823.00,0.0192
822.00,0.0192
821.00,0.0192
820.00,0.0192
819.00,0.0193
818.00,0.0193
817.00,0.0193
816.00,0.0194
815.00,0.0194
814.00,0.0194
813.00,0.0194
812.00,0.0195
811.00,0.0195
810.00,0.0196
809.00,0.0197
808.00,0.0198
807.00,0.0198
806.00,0.0198
805.00,0.0198
804.00,0.0199
803.00,0.0201
802.00,0.0202
801.00,0.0203
800.00,0.0204
799.00,0.0205
798.00,0.0206
797.00,0.0207
796.00,0.0209
795.00,0.0210
794.00,0.0212
793.00,0.0214
792.00,0.0215
791.00,0.0217
790.00,0.0218
789.00,0.0220
788.00,0.0222
787.00,0.0224
786.00,0.0225
785.00,0.0227
784.00,0.0229
783.00,0.0231
782.00,0.0232
781.00,0.0234
780.00,0.0235
779.00,0.0235
778.00,0.0235
777.00,0.0235
776.00,0.0234
775.00,0.0234
774.00,0.0233
773.00,0.0233
772.00,0.0233
771.00,0.0233
770.00,0.0234
769.00,0.0236
768.00,0.0237
767.00,0.0238
766.00,0.0239
765.00,0.0241
764.00,0.0242
763.00,0.0243
762.00,0.0244
761.00,0.0246
760.00,0.0247
759.00,0.0248
758.00,0.0250
757.00,0.0251
756.00,0.0253
755.00,0.0255
754.00,0.0256
753.00,0.0257
752.00,0.0258
751.00,0.0260
750.00,0.0262
749.00,0.0264
748.00,0.0266
747.00,0.0267
746.00,0.0269
745.00,0.0270
744.00,0.0272
743.00,0.0273
742.00,0.0275
741.00,0.0277
740.00,0.0278
739.00,0.0279
738.00,0.0280
737.00,0.0281
736.00,0.0282
735.00,0.0283
734.00,0.0284
733.00,0.0285
732.00,0.0286
731.00,0.0287
730.00,0.0287
729.00,0.0288
728.00,0.0289
727.00,0.0289
726.00,0.0290
725.00,0.0291
724.00,0.0292
723.00,0.0293
722.00,0.0294
721.00,0.0295
720.00,0.0296
719.00,0.0297
718.00,0.0298
717.00,0.0299
716.00,0.0301
715.00,0.0303
714.00,0.0305
713.00,0.0306
712.00,0.0308
711.00,0.0310
710.00,0.0312
709.00,0.0314
708.00,0.0317
707.00,0.0319
706.00,0.0322
705.00,0.0324
704.00,0.0326
703.00,0.0328
702.00,0.0330
701.00,0.0332
700.00,0.0333
699.00,0.0335
698.00,0.0336
697.00,0.0337
696.00,0.0338
695.00,0.0339
694.00,0.0340
693.00,0.0339
692.00,0.0339
691.00,0.0340
690.00,0.0341
689.00,0.0343
688.00,0.0345
687.00,0.0347
686.00,0.0349
685.00,0.0350
684.00,0.0351
683.00,0.0352
682.00,0.0353
681.00,0.0355
680.00,0.0356
679.00,0.0358
678.00,0.0359
677.00,0.0361
676.00,0.0362
675.00,0.0364
674.00,0.0366
673.00,0.0369
672.00,0.0371
671.00,0.0373
670.00,0.0377
669.00,0.0380
668.00,0.0383
667.00,0.0385
666.00,0.0386
665.00,0.0387
664.00,0.0389
663.00,0.0392
662.00,0.0395
661.00,0.0399
660.00,0.0402
659.00,0.0404
658.00,0.0405
657.00,0.0407
656.00,0.0409
655.00,0.0411
654.00,0.0414
653.00,0.0416
652.00,0.0419
651.00,0.0421
650.00,0.0422
649.00,0.0423
648.00,0.0424
647.00,0.0424
646.00,0.0424
645.00,0.0424
644.00,0.0425
643.00,0.0425
642.00,0.0425
641.00,0.0425
640.00,0.0425
639.00,0.0426
638.00,0.0426
637.00,0.0425
636.00,0.0425
635.00,0.0424
634.00,0.0424
633.00,0.0424
632.00,0.0425
631.00,0.0425
630.00,0.0426
629.00,0.0427
628.00,0.0427
627.00,0.0428
626.00,0.0428
625.00,0.0429
624.00,0.0430
623.00,0.0432
622.00,0.0433
621.00,0.0434
620.00,0.0435
619.00,0.0436
618.00,0.0436
617.00,0.0436
616.00,0.0437
615.00,0.0438
614.00,0.0440
613.00,0.0443
612.00,0.0445
611.00,0.0446
610.00,0.0446
609.00,0.0447
608.00,0.0448
607.00,0.0449
606.00,0.0449
605.00,0.0450
604.00,0.0451
603.00,0.0452
602.00,0.0455
601.00,0.0457
600.00,0.0459
599.00,0.0461
598.00,0.0463
597.00,0.0464
596.00,0.0466
595.00,0.0467
594.00,0.0469
593.00,0.0472
592.00,0.0475
591.00,0.0477
590.00,0.0478
589.00,0.0480
588.00,0.0482
587.00,0.0484
586.00,0.0487
585.00,0.0489
584.00,0.0492
583.00,0.0494
582.00,0.0496
581.00,0.0497
580.00,0.0499
579.00,0.0501
578.00,0.0503
577.00,0.0505
576.00,0.0507
575.00,0.0509
574.00,0.0511
573.00,0.0512
572.00,0.0512
571.00,0.0511
570.00,0.0510
569.00,0.0509
568.00,0.0508
567.00,0.0507
566.00,0.0506
565.00,0.0506
564.00,0.0507
563.00,0.0507
562.00,0.0506
561.00,0.0504
560.00,0.0503
559.00,0.0501
558.00,0.0501
557.00,0.0501
556.00,0.0502
555.00,0.0504
554.00,0.0504
553.00,0.0504
552.00,0.0504
551.00,0.0503
550.00,0.0503
549.00,0.0504
548.00,0.0505
547.00,0.0506
546.00,0.0506
545.00,0.0506
544.00,0.0507
543.00,0.0508
542.00,0.0510
541.00,0.0512
540.00,0.0514
539.00,0.0514
538.00,0.0515
537.00,0.0515
536.00,0.0516
535.00,0.0517
534.00,0.0517
533.00,0.0517
532.00,0.0518
531.00,0.0519
530.00,0.0520
529.00,0.0521
528.00,0.0520
527.00,0.0519
526.00,0.0518
525.00,0.0518
524.00,0.0519
523.00,0.0522
522.00,0.0524
521.00,0.0526
520.00,0.0526
519.00,0.0525
518.00,0.0524
517.00,0.0523
516.00,0.0522
515.00,0.0521
514.00,0.0520
513.00,0.0518
512.00,0.0517
511.00,0.0516
510.00,0.0515
509.00,0.0515
508.00,0.0515
507.00,0.0515
506.00,0.0514
505.00,0.0513
504.00,0.0512
503.00,0.0511
502.00,0.0509
501.00,0.0509
500.00,0.0508
499.00,0.0508
498.00,0.0507
497.00,0.0507
496.00,0.0507
495.00,0.0507
494.00,0.0507
493.00,0.0507
492.00,0.0508
491.00,0.0510
490.00,0.0509
489.00,0.0506
488.00,0.0503
487.00,0.0500
486.00,0.0499
485.00,0.0500
484.00,0.0502
483.00,0.0503
482.00,0.0502
481.00,0.0501
480.00,0.0499
479.00,0.0496
478.00,0.0494
477.00,0.0493
476.00,0.0493
475.00,0.0493
474.00,0.0494
473.00,0.0493
472.00,0.0493
471.00,0.0494
470.00,0.0496
469.00,0.0499
468.00,0.0500
467.00,0.0499
466.00,0.0497
465.00,0.0496
464.00,0.0496
463.00,0.0496
462.00,0.0494
461.00,0.0494
460.00,0.0494
459.00,0.0495
458.00,0.0494
457.00,0.0492
456.00,0.0490
455.00,0.0489
454.00,0.0488
453.00,0.0489
452.00,0.0490
451.00,0.0490
450.00,0.0487
449.00,0.0485
448.00,0.0483
447.00,0.0482
446.00,0.0483
445.00,0.0485
444.00,0.0487
443.00,0.0487
442.00,0.0486
441.00,0.0485
440.00,0.0484
439.00,0.0485
438.00,0.0489
437.00,0.0493
436.00,0.0496
435.00,0.0496
434.00,0.0493
433.00,0.0493
432.00,0.0496
431.00,0.0499
430.00,0.0498
429.00,0.0496
428.00,0.0496
427.00,0.0500
426.00,0.0505
425.00,0.0507
424.00,0.0507
423.00,0.0504
422.00,0.0499
421.00,0.0491
420.00,0.0484
419.00,0.0479
418.00,0.0479
417.00,0.0484
416.00,0.0488
415.00,0.0492
414.00,0.0495
413.00,0.0500
412.00,0.0505
411.00,0.0508
410.00,0.0508
409.00,0.0503
408.00,0.0498
407.00,0.0495
406.00,0.0495
405.00,0.0497
404.00,0.0496
403.00,0.0488
402.00,0.0480
401.00,0.0478
400.00,0.0484
