Created as New Dataset,Sample 862 By YargerLab Date Monday, July 21 2025
cm-1,A
4000.00,0.0029
3999.00,0.0029
3998.00,0.0029
3997.00,0.0029
3996.00,0.0029
3995.00,0.0029
3994.00,0.0030
3993.00,0.0029
3992.00,0.0029
3991.00,0.0029
3990.00,0.0030
3989.00,0.0030
3988.00,0.0030
3987.00,0.0030
3986.00,0.0029
3985.00,0.0029
3984.00,0.0029
3983.00,0.0029
3982.00,0.0029
3981.00,0.0029
3980.00,0.0029
3979.00,0.0029
3978.00,0.0029
3977.00,0.0029
3976.00,0.0029
3975.00,0.0029
3974.00,0.0029
3973.00,0.0029
3972.00,0.0029
3971.00,0.0029
3970.00,0.0029
3969.00,0.0029
3968.00,0.0029
3967.00,0.0029
3966.00,0.0029
3965.00,0.0029
3964.00,0.0029
3963.00,0.0029
3962.00,0.0029
3961.00,0.0029
3960.00,0.0029
3959.00,0.0029
3958.00,0.0029
3957.00,0.0029
3956.00,0.0029
3955.00,0.0029
3954.00,0.0029
3953.00,0.0029
3952.00,0.0029
3951.00,0.0028
3950.00,0.0028
3949.00,0.0028
3948.00,0.0028
3947.00,0.0028
3946.00,0.0029
3945.00,0.0029
3944.00,0.0029
3943.00,0.0029
3942.00,0.0029
3941.00,0.0029
3940.00,0.0029
3939.00,0.0029
3938.00,0.0029
3937.00,0.0029
3936.00,0.0029
3935.00,0.0029
3934.00,0.0029
3933.00,0.0029
3932.00,0.0029
3931.00,0.0029
3930.00,0.0028
3929.00,0.0028
3928.00,0.0028
3927.00,0.0028
3926.00,0.0028
3925.00,0.0028
3924.00,0.0028
3923.00,0.0029
3922.00,0.0029
3921.00,0.0029
3920.00,0.0029
3919.00,0.0029
3918.00,0.0029
3917.00,0.0029
3916.00,0.0029
3915.00,0.0029
3914.00,0.0029
3913.00,0.0029
3912.00,0.0029
3911.00,0.0029
3910.00,0.0029
3909.00,0.0029
3908.00,0.0029
3907.00,0.0029
3906.00,0.0028
3905.00,0.0028
3904.00,0.0028
3903.00,0.0028
3902.00,0.0027
3901.00,0.0028
3900.00,0.0028
3899.00,0.0028
3898.00,0.0028
3897.00,0.0028
3896.00,0.0028
3895.00,0.0028
3894.00,0.0028
3893.00,0.0028
3892.00,0.0028
3891.00,0.0029
3890.00,0.0029
3889.00,0.0029
3888.00,0.0029
3887.00,0.0029
3886.00,0.0029
3885.00,0.0028
3884.00,0.0028
3883.00,0.0027
3882.00,0.0027
3881.00,0.0027
3880.00,0.0028
3879.00,0.0028
3878.00,0.0029
3877.00,0.0029
3876.00,0.0028
3875.00,0.0028
3874.00,0.0028
3873.00,0.0028
3872.00,0.0028
3871.00,0.0027
3870.00,0.0027
3869.00,0.0028
3868.00,0.0028
3867.00,0.0028
3866.00,0.0028
3865.00,0.0027
3864.00,0.0027
3863.00,0.0027
3862.00,0.0027
3861.00,0.0028
3860.00,0.0028
3859.00,0.0028
3858.00,0.0028
3857.00,0.0029
3856.00,0.0029
3855.00,0.0028
3854.00,0.0028
3853.00,0.0027
3852.00,0.0027
3851.00,0.0027
3850.00,0.0027
3849.00,0.0027
3848.00,0.0028
3847.00,0.0028
3846.00,0.0028
3845.00,0.0028
3844.00,0.0028
3843.00,0.0028
3842.00,0.0028
3841.00,0.0028
3840.00,0.0028
3839.00,0.0028
3838.00,0.0028
3837.00,0.0028
3836.00,0.0028
3835.00,0.0028
3834.00,0.0028
3833.00,0.0028
3832.00,0.0028
3831.00,0.0028
3830.00,0.0029
3829.00,0.0029
3828.00,0.0029
3827.00,0.0029
3826.00,0.0028
3825.00,0.0028
3824.00,0.0028
3823.00,0.0027
3822.00,0.0027
3821.00,0.0027
3820.00,0.0027
3819.00,0.0028
3818.00,0.0027
3817.00,0.0027
3816.00,0.0028
3815.00,0.0028
3814.00,0.0028
3813.00,0.0028
3812.00,0.0028
3811.00,0.0028
3810.00,0.0028
3809.00,0.0029
3808.00,0.0029
3807.00,0.0028
3806.00,0.0028
3805.00,0.0028
3804.00,0.0028
3803.00,0.0028
3802.00,0.0028
3801.00,0.0028
3800.00,0.0028
3799.00,0.0027
3798.00,0.0027
3797.00,0.0027
3796.00,0.0027
3795.00,0.0028
3794.00,0.0028
3793.00,0.0028
3792.00,0.0028
3791.00,0.0029
3790.00,0.0029
3789.00,0.0029
3788.00,0.0029
3787.00,0.0028
3786.00,0.0028
3785.00,0.0028
3784.00,0.0028
3783.00,0.0029
3782.00,0.0029
3781.00,0.0029
3780.00,0.0028
3779.00,0.0028
3778.00,0.0029
3777.00,0.0029
3776.00,0.0029
3775.00,0.0029
3774.00,0.0029
3773.00,0.0029
3772.00,0.0029
3771.00,0.0029
3770.00,0.0029
3769.00,0.0029
3768.00,0.0029
3767.00,0.0029
3766.00,0.0028
3765.00,0.0028
3764.00,0.0028
3763.00,0.0028
3762.00,0.0028
3761.00,0.0029
3760.00,0.0029
3759.00,0.0029
3758.00,0.0028
3757.00,0.0028
3756.00,0.0028
3755.00,0.0028
3754.00,0.0028
3753.00,0.0027
3752.00,0.0027
3751.00,0.0027
3750.00,0.0027
3749.00,0.0026
3748.00,0.0026
3747.00,0.0026
3746.00,0.0027
3745.00,0.0027
3744.00,0.0027
3743.00,0.0027
3742.00,0.0027
3741.00,0.0027
3740.00,0.0027
3739.00,0.0027
3738.00,0.0027
3737.00,0.0026
3736.00,0.0026
3735.00,0.0025
3734.00,0.0025
3733.00,0.0026
3732.00,0.0026
3731.00,0.0026
3730.00,0.0027
3729.00,0.0027
3728.00,0.0027
3727.00,0.0027
3726.00,0.0027
3725.00,0.0027
3724.00,0.0027
3723.00,0.0027
3722.00,0.0027
3721.00,0.0027
3720.00,0.0027
3719.00,0.0027
3718.00,0.0027
3717.00,0.0028
3716.00,0.0028
3715.00,0.0028
3714.00,0.0028
3713.00,0.0028
3712.00,0.0027
3711.00,0.0027
3710.00,0.0027
3709.00,0.0027
3708.00,0.0027
3707.00,0.0027
3706.00,0.0027
3705.00,0.0027
3704.00,0.0027
3703.00,0.0027
3702.00,0.0027
3701.00,0.0027
3700.00,0.0028
3699.00,0.0028
3698.00,0.0028
3697.00,0.0028
3696.00,0.0028
3695.00,0.0028
3694.00,0.0028
3693.00,0.0028
3692.00,0.0028
3691.00,0.0028
3690.00,0.0028
3689.00,0.0028
3688.00,0.0028
3687.00,0.0028
3686.00,0.0028
3685.00,0.0028
3684.00,0.0029
3683.00,0.0029
3682.00,0.0029
3681.00,0.0030
3680.00,0.0030
3679.00,0.0030
3678.00,0.0030
3677.00,0.0030
3676.00,0.0030
3675.00,0.0029
3674.00,0.0029
3673.00,0.0029
3672.00,0.0029
3671.00,0.0028
3670.00,0.0028
3669.00,0.0029
3668.00,0.0029
3667.00,0.0030
3666.00,0.0030
3665.00,0.0030
3664.00,0.0030
3663.00,0.0031
3662.00,0.0031
3661.00,0.0031
3660.00,0.0031
3659.00,0.0032
3658.00,0.0032
3657.00,0.0032
3656.00,0.0032
3655.00,0.0032
3654.00,0.0032
3653.00,0.0032
3652.00,0.0032
3651.00,0.0032
3650.00,0.0032
3649.00,0.0032
3648.00,0.0032
3647.00,0.0033
3646.00,0.0033
3645.00,0.0033
3644.00,0.0034
3643.00,0.0035
3642.00,0.0035
3641.00,0.0036
3640.00,0.0036
3639.00,0.0037
3638.00,0.0037
3637.00,0.0037
3636.00,0.0038
3635.00,0.0038
3634.00,0.0038
3633.00,0.0039
3632.00,0.0039
3631.00,0.0039
3630.00,0.0040
3629.00,0.0040
3628.00,0.0041
3627.00,0.0042
3626.00,0.0042
3625.00,0.0042
3624.00,0.0042
3623.00,0.0042
3622.00,0.0043
3621.00,0.0043
3620.00,0.0043
3619.00,0.0043
3618.00,0.0044
3617.00,0.0044
3616.00,0.0044
3615.00,0.0044
3614.00,0.0045
3613.00,0.0045
3612.00,0.0046
3611.00,0.0047
3610.00,0.0047
3609.00,0.0048
3608.00,0.0049
3607.00,0.0049
3606.00,0.0050
3605.00,0.0050
3604.00,0.0051
3603.00,0.0051
3602.00,0.0052
3601.00,0.0052
3600.00,0.0053
3599.00,0.0053
3598.00,0.0054
3597.00,0.0054
3596.00,0.0054
3595.00,0.0055
3594.00,0.0055
3593.00,0.0056
3592.00,0.0056
3591.00,0.0056
3590.00,0.0056
3589.00,0.0057
3588.00,0.0057
3587.00,0.0058
3586.00,0.0059
3585.00,0.0059
3584.00,0.0060
3583.00,0.0060
3582.00,0.0061
3581.00,0.0062
3580.00,0.0063
3579.00,0.0064
3578.00,0.0065
3577.00,0.0065
3576.00,0.0066
3575.00,0.0067
3574.00,0.0067
3573.00,0.0067
3572.00,0.0067
3571.00,0.0067
3570.00,0.0067
3569.00,0.0067
3568.00,0.0068
3567.00,0.0069
3566.00,0.0070
3565.00,0.0071
3564.00,0.0072
3563.00,0.0073
3562.00,0.0073
3561.00,0.0074
3560.00,0.0075
3559.00,0.0075
3558.00,0.0076
3557.00,0.0076
3556.00,0.0077
3555.00,0.0077
3554.00,0.0077
3553.00,0.0078
3552.00,0.0079
3551.00,0.0079
3550.00,0.0080
3549.00,0.0081
3548.00,0.0081
3547.00,0.0082
3546.00,0.0082
3545.00,0.0083
3544.00,0.0083
3543.00,0.0084
3542.00,0.0085
3541.00,0.0085
3540.00,0.0086
3539.00,0.0086
3538.00,0.0087
3537.00,0.0087
3536.00,0.0087
3535.00,0.0087
3534.00,0.0088
3533.00,0.0088
3532.00,0.0088
3531.00,0.0089
3530.00,0.0089
3529.00,0.0090
3528.00,0.0090
3527.00,0.0091
3526.00,0.0091
3525.00,0.0091
3524.00,0.0092
3523.00,0.0092
3522.00,0.0093
3521.00,0.0093
3520.00,0.0094
3519.00,0.0095
3518.00,0.0095
3517.00,0.0096
3516.00,0.0096
3515.00,0.0096
3514.00,0.0096
3513.00,0.0096
3512.00,0.0096
3511.00,0.0097
3510.00,0.0097
3509.00,0.0098
3508.00,0.0098
3507.00,0.0099
3506.00,0.0099
3505.00,0.0100
3504.00,0.0100
3503.00,0.0101
3502.00,0.0101
3501.00,0.0101
3500.00,0.0101
3499.00,0.0102
3498.00,0.0102
3497.00,0.0102
3496.00,0.0103
3495.00,0.0104
3494.00,0.0104
3493.00,0.0105
3492.00,0.0105
3491.00,0.0105
3490.00,0.0105
3489.00,0.0106
3488.00,0.0106
3487.00,0.0107
3486.00,0.0107
3485.00,0.0108
3484.00,0.0108
3483.00,0.0109
3482.00,0.0109
3481.00,0.0110
3480.00,0.0110
3479.00,0.0110
3478.00,0.0110
3477.00,0.0110
3476.00,0.0111
3475.00,0.0111
3474.00,0.0111
3473.00,0.0112
3472.00,0.0112
3471.00,0.0112
3470.00,0.0113
3469.00,0.0113
3468.00,0.0114
3467.00,0.0114
3466.00,0.0114
3465.00,0.0115
3464.00,0.0115
3463.00,0.0115
3462.00,0.0116
3461.00,0.0116
3460.00,0.0116
3459.00,0.0117
3458.00,0.0117
3457.00,0.0117
3456.00,0.0117
3455.00,0.0118
3454.00,0.0118
3453.00,0.0118
3452.00,0.0118
3451.00,0.0118
3450.00,0.0118
3449.00,0.0118
3448.00,0.0119
3447.00,0.0119
3446.00,0.0119
3445.00,0.0119
3444.00,0.0120
3443.00,0.0120
3442.00,0.0120
3441.00,0.0121
3440.00,0.0121
3439.00,0.0121
3438.00,0.0122
3437.00,0.0122
3436.00,0.0122
3435.00,0.0122
3434.00,0.0122
3433.00,0.0122
3432.00,0.0122
3431.00,0.0122
3430.00,0.0122
3429.00,0.0122
3428.00,0.0122
3427.00,0.0122
3426.00,0.0123
3425.00,0.0123
3424.00,0.0123
3423.00,0.0123
3422.00,0.0123
3421.00,0.0123
3420.00,0.0124
3419.00,0.0124
3418.00,0.0124
3417.00,0.0124
3416.00,0.0124
3415.00,0.0124
3414.00,0.0124
3413.00,0.0124
3412.00,0.0124
3411.00,0.0124
3410.00,0.0125
3409.00,0.0125
3408.00,0.0125
3407.00,0.0125
3406.00,0.0125
3405.00,0.0125
3404.00,0.0125
3403.00,0.0124
3402.00,0.0124
3401.00,0.0124
3400.00,0.0124
3399.00,0.0124
3398.00,0.0125
3397.00,0.0125
3396.00,0.0125
3395.00,0.0125
3394.00,0.0125
3393.00,0.0125
3392.00,0.0125
3391.00,0.0125
3390.00,0.0125
3389.00,0.0126
3388.00,0.0126
3387.00,0.0127
3386.00,0.0127
3385.00,0.0127
3384.00,0.0126
3383.00,0.0126
3382.00,0.0126
3381.00,0.0127
3380.00,0.0127
3379.00,0.0127
3378.00,0.0127
3377.00,0.0127
3376.00,0.0127
3375.00,0.0128
3374.00,0.0127
3373.00,0.0127
3372.00,0.0126
3371.00,0.0126
3370.00,0.0125
3369.00,0.0125
3368.00,0.0125
3367.00,0.0126
3366.00,0.0127
3365.00,0.0128
3364.00,0.0128
3363.00,0.0128
3362.00,0.0128
3361.00,0.0129
3360.00,0.0129
3359.00,0.0130
3358.00,0.0130
3357.00,0.0130
3356.00,0.0130
3355.00,0.0130
3354.00,0.0129
3353.00,0.0128
3352.00,0.0128
3351.00,0.0128
3350.00,0.0128
3349.00,0.0130
3348.00,0.0131
3347.00,0.0131
3346.00,0.0131
3345.00,0.0131
3344.00,0.0130
3343.00,0.0130
3342.00,0.0130
3341.00,0.0129
3340.00,0.0129
3339.00,0.0128
3338.00,0.0129
3337.00,0.0129
3336.00,0.0130
3335.00,0.0131
3334.00,0.0132
3333.00,0.0132
3332.00,0.0133
3331.00,0.0133
3330.00,0.0133
3329.00,0.0132
3328.00,0.0131
3327.00,0.0131
3326.00,0.0130
3325.00,0.0131
3324.00,0.0131
3323.00,0.0132
3322.00,0.0133
3321.00,0.0134
3320.00,0.0134
3319.00,0.0135
3318.00,0.0135
3317.00,0.0135
3316.00,0.0134
3315.00,0.0134
3314.00,0.0134
3313.00,0.0133
3312.00,0.0133
3311.00,0.0131
3310.00,0.0130
3309.00,0.0129
3308.00,0.0128
3307.00,0.0128
3306.00,0.0128
3305.00,0.0129
3304.00,0.0131
3303.00,0.0133
3302.00,0.0134
3301.00,0.0135
3300.00,0.0135
3299.00,0.0134
3298.00,0.0133
3297.00,0.0132
3296.00,0.0132
3295.00,0.0131
3294.00,0.0131
3293.00,0.0131
3292.00,0.0132
3291.00,0.0133
3290.00,0.0134
3289.00,0.0135
3288.00,0.0135
3287.00,0.0136
3286.00,0.0135
3285.00,0.0135
3284.00,0.0135
3283.00,0.0135
3282.00,0.0135
3281.00,0.0135
3280.00,0.0135
3279.00,0.0135
3278.00,0.0134
3277.00,0.0134
3276.00,0.0133
3275.00,0.0132
3274.00,0.0132
3273.00,0.0131
3272.00,0.0131
3271.00,0.0131
3270.00,0.0131
3269.00,0.0132
3268.00,0.0133
3267.00,0.0133
3266.00,0.0133
3265.00,0.0133
3264.00,0.0133
3263.00,0.0133
3262.00,0.0133
3261.00,0.0133
3260.00,0.0133
3259.00,0.0132
3258.00,0.0132
3257.00,0.0131
3256.00,0.0131
3255.00,0.0131
3254.00,0.0131
3253.00,0.0131
3252.00,0.0131
3251.00,0.0131
3250.00,0.0131
3249.00,0.0130
3248.00,0.0130
3247.00,0.0129
3246.00,0.0130
3245.00,0.0130
3244.00,0.0130
3243.00,0.0130
3242.00,0.0130
3241.00,0.0130
3240.00,0.0130
3239.00,0.0130
3238.00,0.0129
3237.00,0.0129
3236.00,0.0128
3235.00,0.0128
3234.00,0.0127
3233.00,0.0127
3232.00,0.0127
3231.00,0.0128
3230.00,0.0128
3229.00,0.0128
3228.00,0.0128
3227.00,0.0128
3226.00,0.0128
3225.00,0.0127
3224.00,0.0127
3223.00,0.0126
3222.00,0.0126
3221.00,0.0125
3220.00,0.0125
3219.00,0.0125
3218.00,0.0125
3217.00,0.0125
3216.00,0.0124
3215.00,0.0124
3214.00,0.0124
3213.00,0.0124
3212.00,0.0124
3211.00,0.0124
3210.00,0.0123
3209.00,0.0123
3208.00,0.0123
3207.00,0.0123
3206.00,0.0123
3205.00,0.0123
3204.00,0.0123
3203.00,0.0122
3202.00,0.0122
3201.00,0.0122
3200.00,0.0122
3199.00,0.0122
3198.00,0.0122
3197.00,0.0122
3196.00,0.0121
3195.00,0.0121
3194.00,0.0121
3193.00,0.0121
3192.00,0.0121
3191.00,0.0120
3190.00,0.0120
3189.00,0.0120
3188.00,0.0120
3187.00,0.0120
3186.00,0.0120
3185.00,0.0119
3184.00,0.0119
3183.00,0.0119
3182.00,0.0118
3181.00,0.0118
3180.00,0.0117
3179.00,0.0117
3178.00,0.0117
3177.00,0.0117
3176.00,0.0116
3175.00,0.0116
3174.00,0.0116
3173.00,0.0115
3172.00,0.0115
3171.00,0.0115
3170.00,0.0115
3169.00,0.0114
3168.00,0.0114
3167.00,0.0114
3166.00,0.0113
3165.00,0.0113
3164.00,0.0113
3163.00,0.0112
3162.00,0.0112
3161.00,0.0111
3160.00,0.0111
3159.00,0.0110
3158.00,0.0110
3157.00,0.0110
3156.00,0.0109
3155.00,0.0109
3154.00,0.0108
3153.00,0.0108
3152.00,0.0107
3151.00,0.0107
3150.00,0.0107
3149.00,0.0106
3148.00,0.0106
3147.00,0.0106
3146.00,0.0105
3145.00,0.0105
3144.00,0.0105
3143.00,0.0105
3142.00,0.0104
3141.00,0.0104
3140.00,0.0103
3139.00,0.0103
3138.00,0.0102
3137.00,0.0102
3136.00,0.0102
3135.00,0.0102
3134.00,0.0102
3133.00,0.0101
3132.00,0.0101
3131.00,0.0101
3130.00,0.0100
3129.00,0.0100
3128.00,0.0100
3127.00,0.0100
3126.00,0.0100
3125.00,0.0100
3124.00,0.0100
3123.00,0.0099
3122.00,0.0099
3121.00,0.0099
3120.00,0.0098
3119.00,0.0098
3118.00,0.0097
3117.00,0.0097
3116.00,0.0097
3115.00,0.0096
3114.00,0.0096
3113.00,0.0096
3112.00,0.0096
3111.00,0.0096
3110.00,0.0095
3109.00,0.0095
3108.00,0.0095
3107.00,0.0094
3106.00,0.0094
3105.00,0.0094
3104.00,0.0093
3103.00,0.0093
3102.00,0.0092
3101.00,0.0092
3100.00,0.0092
3099.00,0.0091
3098.00,0.0091
3097.00,0.0091
3096.00,0.0091
3095.00,0.0090
3094.00,0.0090
3093.00,0.0090
3092.00,0.0089
3091.00,0.0089
3090.00,0.0089
3089.00,0.0089
3088.00,0.0089
3087.00,0.0089
3086.00,0.0089
3085.00,0.0088
3084.00,0.0088
3083.00,0.0088
3082.00,0.0087
3081.00,0.0087
3080.00,0.0087
3079.00,0.0087
3078.00,0.0087
3077.00,0.0087
3076.00,0.0087
3075.00,0.0087
3074.00,0.0087
3073.00,0.0087
3072.00,0.0087
3071.00,0.0087
3070.00,0.0086
3069.00,0.0086
3068.00,0.0085
3067.00,0.0085
3066.00,0.0084
3065.00,0.0084
3064.00,0.0083
3063.00,0.0083
3062.00,0.0082
3061.00,0.0082
3060.00,0.0081
3059.00,0.0081
3058.00,0.0081
3057.00,0.0080
3056.00,0.0080
3055.00,0.0079
3054.00,0.0079
3053.00,0.0079
3052.00,0.0079
3051.00,0.0078
3050.00,0.0078
3049.00,0.0078
3048.00,0.0078
3047.00,0.0078
3046.00,0.0078
3045.00,0.0077
3044.00,0.0077
3043.00,0.0077
3042.00,0.0076
3041.00,0.0076
3040.00,0.0076
3039.00,0.0076
3038.00,0.0076
3037.00,0.0075
3036.00,0.0075
3035.00,0.0075
3034.00,0.0075
3033.00,0.0075
3032.00,0.0075
3031.00,0.0075
3030.00,0.0075
3029.00,0.0075
3028.00,0.0074
3027.00,0.0074
3026.00,0.0074
3025.00,0.0074
3024.00,0.0075
3023.00,0.0075
3022.00,0.0075
3021.00,0.0075
3020.00,0.0075
3019.00,0.0075
3018.00,0.0076
3017.00,0.0076
3016.00,0.0076
3015.00,0.0077
3014.00,0.0077
3013.00,0.0078
3012.00,0.0078
3011.00,0.0079
3010.00,0.0079
3009.00,0.0080
3008.00,0.0081
3007.00,0.0081
3006.00,0.0082
3005.00,0.0083
3004.00,0.0084
3003.00,0.0085
3002.00,0.0086
3001.00,0.0087
3000.00,0.0088
2999.00,0.0090
2998.00,0.0091
2997.00,0.0093
2996.00,0.0095
2995.00,0.0097
2994.00,0.0099
2993.00,0.0101
2992.00,0.0103
2991.00,0.0106
2990.00,0.0109
2989.00,0.0111
2988.00,0.0113
2987.00,0.0116
2986.00,0.0117
2985.00,0.0119
2984.00,0.0119
2983.00,0.0120
2982.00,0.0120
2981.00,0.0122
2980.00,0.0124
2979.00,0.0127
2978.00,0.0130
2977.00,0.0133
2976.00,0.0136
2975.00,0.0139
2974.00,0.0141
2973.00,0.0143
2972.00,0.0146
2971.00,0.0148
2970.00,0.0152
2969.00,0.0155
2968.00,0.0159
2967.00,0.0163
2966.00,0.0166
2965.00,0.0170
2964.00,0.0174
2963.00,0.0178
2962.00,0.0181
2961.00,0.0185
2960.00,0.0188
2959.00,0.0190
2958.00,0.0193
2957.00,0.0195
2956.00,0.0197
2955.00,0.0199
2954.00,0.0200
2953.00,0.0201
2952.00,0.0202
2951.00,0.0202
2950.00,0.0202
2949.00,0.0202
2948.00,0.0202
2947.00,0.0201
2946.00,0.0201
2945.00,0.0201
2944.00,0.0201
2943.00,0.0202
2942.00,0.0202
2941.00,0.0203
2940.00,0.0204
2939.00,0.0205
2938.00,0.0207
2937.00,0.0208
2936.00,0.0211
2935.00,0.0213
2934.00,0.0215
2933.00,0.0218
2932.00,0.0220
2931.00,0.0222
2930.00,0.0224
2929.00,0.0226
2928.00,0.0229
2927.00,0.0231
2926.00,0.0233
2925.00,0.0234
2924.00,0.0236
2923.00,0.0236
2922.00,0.0236
2921.00,0.0236
2920.00,0.0235
2919.00,0.0234
2918.00,0.0232
2917.00,0.0230
2916.00,0.0228
2915.00,0.0226
2914.00,0.0223
2913.00,0.0220
2912.00,0.0218
2911.00,0.0215
2910.00,0.0212
2909.00,0.0209
2908.00,0.0206
2907.00,0.0203
2906.00,0.0200
2905.00,0.0198
2904.00,0.0195
2903.00,0.0194
2902.00,0.0192
2901.00,0.0191
2900.00,0.0190
2899.00,0.0189
2898.00,0.0188
2897.00,0.0187
2896.00,0.0187
2895.00,0.0186
2894.00,0.0186
2893.00,0.0185
2892.00,0.0184
2891.00,0.0184
2890.00,0.0183
2889.00,0.0182
2888.00,0.0182
2887.00,0.0182
2886.00,0.0181
2885.00,0.0181
2884.00,0.0181
2883.00,0.0180
2882.00,0.0180
2881.00,0.0181
2880.00,0.0181
2879.00,0.0181
2878.00,0.0181
2877.00,0.0181
2876.00,0.0181
2875.00,0.0181
2874.00,0.0180
2873.00,0.0180
2872.00,0.0180
2871.00,0.0180
2870.00,0.0180
2869.00,0.0180
2868.00,0.0179
2867.00,0.0178
2866.00,0.0177
2865.00,0.0177
2864.00,0.0177
2863.00,0.0177
2862.00,0.0178
2861.00,0.0178
2860.00,0.0178
2859.00,0.0179
2858.00,0.0179
2857.00,0.0179
2856.00,0.0178
2855.00,0.0177
2854.00,0.0175
2853.00,0.0173
2852.00,0.0169
2851.00,0.0166
2850.00,0.0162
2849.00,0.0157
2848.00,0.0153
2847.00,0.0149
2846.00,0.0145
2845.00,0.0141
2844.00,0.0137
2843.00,0.0134
2842.00,0.0130
2841.00,0.0127
2840.00,0.0123
2839.00,0.0121
2838.00,0.0119
2837.00,0.0118
2836.00,0.0117
2835.00,0.0116
2834.00,0.0115
2833.00,0.0114
2832.00,0.0113
2831.00,0.0112
2830.00,0.0110
2829.00,0.0109
2828.00,0.0107
2827.00,0.0105
2826.00,0.0103
2825.00,0.0100
2824.00,0.0098
2823.00,0.0095
2822.00,0.0093
2821.00,0.0091
2820.00,0.0089
2819.00,0.0087
2818.00,0.0085
2817.00,0.0084
2816.00,0.0082
2815.00,0.0081
2814.00,0.0079
2813.00,0.0078
2812.00,0.0077
2811.00,0.0077
2810.00,0.0076
2809.00,0.0075
2808.00,0.0074
2807.00,0.0074
2806.00,0.0073
2805.00,0.0072
2804.00,0.0072
2803.00,0.0071
2802.00,0.0071
2801.00,0.0070
2800.00,0.0070
2799.00,0.0069
2798.00,0.0069
2797.00,0.0069
2796.00,0.0068
2795.00,0.0068
2794.00,0.0068
2793.00,0.0067
2792.00,0.0067
2791.00,0.0067
2790.00,0.0067
2789.00,0.0066
2788.00,0.0066
2787.00,0.0066
2786.00,0.0066
2785.00,0.0066
2784.00,0.0065
2783.00,0.0065
2782.00,0.0065
2781.00,0.0065
2780.00,0.0065
2779.00,0.0064
2778.00,0.0064
2777.00,0.0064
2776.00,0.0063
2775.00,0.0063
2774.00,0.0063
2773.00,0.0062
2772.00,0.0062
2771.00,0.0062
2770.00,0.0062
2769.00,0.0062
2768.00,0.0062
2767.00,0.0062
2766.00,0.0062
2765.00,0.0062
2764.00,0.0061
2763.00,0.0061
2762.00,0.0061
2761.00,0.0061
2760.00,0.0061
2759.00,0.0061
2758.00,0.0061
2757.00,0.0061
2756.00,0.0061
2755.00,0.0061
2754.00,0.0061
2753.00,0.0061
2752.00,0.0061
2751.00,0.0061
2750.00,0.0061
2749.00,0.0061
2748.00,0.0061
2747.00,0.0061
2746.00,0.0061
2745.00,0.0061
2744.00,0.0061
2743.00,0.0061
2742.00,0.0061
2741.00,0.0061
2740.00,0.0061
2739.00,0.0061
2738.00,0.0061
2737.00,0.0061
2736.00,0.0061
2735.00,0.0061
2734.00,0.0061
2733.00,0.0061
2732.00,0.0061
2731.00,0.0061
2730.00,0.0061
2729.00,0.0061
2728.00,0.0061
2727.00,0.0061
2726.00,0.0061
2725.00,0.0061
2724.00,0.0061
2723.00,0.0061
2722.00,0.0061
2721.00,0.0061
2720.00,0.0061
2719.00,0.0061
2718.00,0.0060
2717.00,0.0060
2716.00,0.0060
2715.00,0.0060
2714.00,0.0060
2713.00,0.0060
2712.00,0.0060
2711.00,0.0059
2710.00,0.0059
2709.00,0.0059
2708.00,0.0059
2707.00,0.0059
2706.00,0.0059
2705.00,0.0059
2704.00,0.0059
2703.00,0.0059
2702.00,0.0058
2701.00,0.0058
2700.00,0.0058
2699.00,0.0058
2698.00,0.0058
2697.00,0.0058
2696.00,0.0058
2695.00,0.0058
2694.00,0.0058
2693.00,0.0058
2692.00,0.0058
2691.00,0.0058
2690.00,0.0058
2689.00,0.0058
2688.00,0.0058
2687.00,0.0058
2686.00,0.0058
2685.00,0.0058
2684.00,0.0058
2683.00,0.0057
2682.00,0.0057
2681.00,0.0057
2680.00,0.0057
2679.00,0.0057
2678.00,0.0057
2677.00,0.0057
2676.00,0.0057
2675.00,0.0057
2674.00,0.0057
2673.00,0.0057
2672.00,0.0057
2671.00,0.0057
2670.00,0.0057
2669.00,0.0057
2668.00,0.0057
2667.00,0.0058
2666.00,0.0058
2665.00,0.0058
2664.00,0.0059
2663.00,0.0059
2662.00,0.0059
2661.00,0.0060
2660.00,0.0060
2659.00,0.0060
2658.00,0.0060
2657.00,0.0060
2656.00,0.0060
2655.00,0.0060
2654.00,0.0060
2653.00,0.0060
2652.00,0.0060
2651.00,0.0060
2650.00,0.0060
2649.00,0.0060
2648.00,0.0060
2647.00,0.0060
2646.00,0.0059
2645.00,0.0059
2644.00,0.0059
2643.00,0.0059
2642.00,0.0059
2641.00,0.0059
2640.00,0.0059
2639.00,0.0059
2638.00,0.0059
2637.00,0.0058
2636.00,0.0058
2635.00,0.0058
2634.00,0.0058
2633.00,0.0057
2632.00,0.0057
2631.00,0.0057
2630.00,0.0057
2629.00,0.0057
2628.00,0.0057
2627.00,0.0057
2626.00,0.0057
2625.00,0.0056
2624.00,0.0056
2623.00,0.0056
2622.00,0.0055
2621.00,0.0055
2620.00,0.0055
2619.00,0.0055
2618.00,0.0055
2617.00,0.0055
2616.00,0.0055
2615.00,0.0055
2614.00,0.0054
2613.00,0.0054
2612.00,0.0054
2611.00,0.0054
2610.00,0.0054
2609.00,0.0053
2608.00,0.0053
2607.00,0.0053
2606.00,0.0053
2605.00,0.0053
2604.00,0.0053
2603.00,0.0054
2602.00,0.0054
2601.00,0.0054
2600.00,0.0054
2599.00,0.0053
2598.00,0.0053
2597.00,0.0053
2596.00,0.0053
2595.00,0.0053
2594.00,0.0053
2593.00,0.0053
2592.00,0.0053
2591.00,0.0053
2590.00,0.0053
2589.00,0.0053
2588.00,0.0053
2587.00,0.0053
2586.00,0.0053
2585.00,0.0053
2584.00,0.0053
2583.00,0.0053
2582.00,0.0053
2581.00,0.0053
2580.00,0.0052
2579.00,0.0052
2578.00,0.0052
2577.00,0.0052
2576.00,0.0052
2575.00,0.0052
2574.00,0.0052
2573.00,0.0052
2572.00,0.0052
2571.00,0.0052
2570.00,0.0052
2569.00,0.0052
2568.00,0.0051
2567.00,0.0051
2566.00,0.0051
2565.00,0.0051
2564.00,0.0051
2563.00,0.0051
2562.00,0.0050
2561.00,0.0050
2560.00,0.0050
2559.00,0.0050
2558.00,0.0049
2557.00,0.0049
2556.00,0.0049
2555.00,0.0049
2554.00,0.0049
2553.00,0.0049
2552.00,0.0049
2551.00,0.0049
2550.00,0.0049
2549.00,0.0049
2548.00,0.0049
2547.00,0.0049
2546.00,0.0048
2545.00,0.0048
2544.00,0.0048
2543.00,0.0048
2542.00,0.0048
2541.00,0.0048
2540.00,0.0048
2539.00,0.0048
2538.00,0.0048
2537.00,0.0048
2536.00,0.0048
2535.00,0.0048
2534.00,0.0048
2533.00,0.0048
2532.00,0.0048
2531.00,0.0048
2530.00,0.0048
2529.00,0.0048
2528.00,0.0047
2527.00,0.0047
2526.00,0.0047
2525.00,0.0046
2524.00,0.0046
2523.00,0.0046
2522.00,0.0046
2521.00,0.0046
2520.00,0.0046
2519.00,0.0046
2518.00,0.0046
2517.00,0.0046
2516.00,0.0045
2515.00,0.0045
2514.00,0.0045
2513.00,0.0046
2512.00,0.0046
2511.00,0.0046
2510.00,0.0046
2509.00,0.0045
2508.00,0.0045
2507.00,0.0045
2506.00,0.0045
2505.00,0.0045
2504.00,0.0045
2503.00,0.0045
2502.00,0.0045
2501.00,0.0044
2500.00,0.0044
2499.00,0.0044
2498.00,0.0044
2497.00,0.0044
2496.00,0.0044
2495.00,0.0044
2494.00,0.0044
2493.00,0.0044
2492.00,0.0044
2491.00,0.0044
2490.00,0.0044
2489.00,0.0044
2488.00,0.0044
2487.00,0.0044
2486.00,0.0043
2485.00,0.0043
2484.00,0.0043
2483.00,0.0043
2482.00,0.0043
2481.00,0.0043
2480.00,0.0043
2479.00,0.0043
2478.00,0.0043
2477.00,0.0043
2476.00,0.0043
2475.00,0.0043
2474.00,0.0043
2473.00,0.0043
2472.00,0.0043
2471.00,0.0043
2470.00,0.0044
2469.00,0.0044
2468.00,0.0044
2467.00,0.0044
2466.00,0.0043
2465.00,0.0043
2464.00,0.0043
2463.00,0.0044
2462.00,0.0044
2461.00,0.0044
2460.00,0.0044
2459.00,0.0044
2458.00,0.0044
2457.00,0.0044
2456.00,0.0043
2455.00,0.0043
2454.00,0.0043
2453.00,0.0044
2452.00,0.0044
2451.00,0.0044
2450.00,0.0044
2449.00,0.0044
2448.00,0.0044
2447.00,0.0043
2446.00,0.0043
2445.00,0.0043
2444.00,0.0043
2443.00,0.0043
2442.00,0.0043
2441.00,0.0043
2440.00,0.0043
2439.00,0.0043
2438.00,0.0042
2437.00,0.0042
2436.00,0.0042
2435.00,0.0042
2434.00,0.0042
2433.00,0.0041
2432.00,0.0041
2431.00,0.0041
2430.00,0.0041
2429.00,0.0041
2428.00,0.0041
2427.00,0.0041
2426.00,0.0041
2425.00,0.0041
2424.00,0.0041
2423.00,0.0041
2422.00,0.0041
2421.00,0.0041
2420.00,0.0041
2419.00,0.0041
2418.00,0.0041
2417.00,0.0041
2416.00,0.0041
2415.00,0.0041
2414.00,0.0041
2413.00,0.0041
2412.00,0.0041
2411.00,0.0041
2410.00,0.0041
2409.00,0.0040
2408.00,0.0040
2407.00,0.0039
2406.00,0.0039
2405.00,0.0039
2404.00,0.0039
2403.00,0.0039
2402.00,0.0039
2401.00,0.0039
2400.00,0.0040
2399.00,0.0039
2398.00,0.0039
2397.00,0.0039
2396.00,0.0039
2395.00,0.0039
2394.00,0.0039
2393.00,0.0039
2392.00,0.0039
2391.00,0.0039
2390.00,0.0038
2389.00,0.0039
2388.00,0.0039
2387.00,0.0038
2386.00,0.0038
2385.00,0.0037
2384.00,0.0037
2383.00,0.0037
2382.00,0.0036
2381.00,0.0036
2380.00,0.0036
2379.00,0.0036
2378.00,0.0037
2377.00,0.0037
2376.00,0.0037
2375.00,0.0037
2374.00,0.0037
2373.00,0.0036
2372.00,0.0036
2371.00,0.0036
2370.00,0.0036
2369.00,0.0037
2368.00,0.0037
2367.00,0.0038
2366.00,0.0037
2365.00,0.0037
2364.00,0.0038
2363.00,0.0038
2362.00,0.0039
2361.00,0.0039
2360.00,0.0039
2359.00,0.0039
2358.00,0.0039
2357.00,0.0039
2356.00,0.0039
2355.00,0.0039
2354.00,0.0039
2353.00,0.0039
2352.00,0.0038
2351.00,0.0038
2350.00,0.0039
2349.00,0.0040
2348.00,0.0041
2347.00,0.0042
2346.00,0.0042
2345.00,0.0042
2344.00,0.0042
2343.00,0.0042
2342.00,0.0042
2341.00,0.0043
2340.00,0.0043
2339.00,0.0043
2338.00,0.0043
2337.00,0.0043
2336.00,0.0043
2335.00,0.0043
2334.00,0.0043
2333.00,0.0043
2332.00,0.0043
2331.00,0.0043
2330.00,0.0043
2329.00,0.0045
2328.00,0.0048
2327.00,0.0051
2326.00,0.0054
2325.00,0.0055
2324.00,0.0053
2323.00,0.0051
2322.00,0.0049
2321.00,0.0048
2320.00,0.0047
2319.00,0.0047
2318.00,0.0047
2317.00,0.0047
2316.00,0.0046
2315.00,0.0046
2314.00,0.0045
2313.00,0.0045
2312.00,0.0044
2311.00,0.0043
2310.00,0.0043
2309.00,0.0043
2308.00,0.0043
2307.00,0.0043
2306.00,0.0043
2305.00,0.0043
2304.00,0.0043
2303.00,0.0044
2302.00,0.0044
2301.00,0.0045
2300.00,0.0045
2299.00,0.0045
2298.00,0.0045
2297.00,0.0046
2296.00,0.0046
2295.00,0.0047
2294.00,0.0047
2293.00,0.0048
2292.00,0.0049
2291.00,0.0050
2290.00,0.0051
2289.00,0.0051
2288.00,0.0052
2287.00,0.0051
2286.00,0.0051
2285.00,0.0050
2284.00,0.0050
2283.00,0.0049
2282.00,0.0048
2281.00,0.0048
2280.00,0.0048
2279.00,0.0048
2278.00,0.0048
2277.00,0.0048
2276.00,0.0048
2275.00,0.0048
2274.00,0.0047
2273.00,0.0047
2272.00,0.0047
2271.00,0.0046
2270.00,0.0046
2269.00,0.0046
2268.00,0.0046
2267.00,0.0045
2266.00,0.0044
2265.00,0.0044
2264.00,0.0044
2263.00,0.0044
2262.00,0.0045
2261.00,0.0046
2260.00,0.0046
2259.00,0.0046
2258.00,0.0045
2257.00,0.0044
2256.00,0.0043
2255.00,0.0042
2254.00,0.0042
2253.00,0.0042
2252.00,0.0042
2251.00,0.0043
2250.00,0.0043
2249.00,0.0043
2248.00,0.0043
2247.00,0.0043
2246.00,0.0043
2245.00,0.0043
2244.00,0.0043
2243.00,0.0044
2242.00,0.0043
2241.00,0.0043
2240.00,0.0042
2239.00,0.0043
2238.00,0.0044
2237.00,0.0044
2236.00,0.0045
2235.00,0.0045
2234.00,0.0044
2233.00,0.0044
2232.00,0.0044
2231.00,0.0044
2230.00,0.0044
2229.00,0.0044
2228.00,0.0043
2227.00,0.0042
2226.00,0.0042
2225.00,0.0042
2224.00,0.0043
2223.00,0.0043
2222.00,0.0042
2221.00,0.0042
2220.00,0.0043
2219.00,0.0043
2218.00,0.0043
2217.00,0.0043
2216.00,0.0043
2215.00,0.0043
2214.00,0.0042
2213.00,0.0042
2212.00,0.0041
2211.00,0.0041
2210.00,0.0042
2209.00,0.0042
2208.00,0.0043
2207.00,0.0044
2206.00,0.0044
2205.00,0.0043
2204.00,0.0043
2203.00,0.0042
2202.00,0.0042
2201.00,0.0042
2200.00,0.0043
2199.00,0.0043
2198.00,0.0044
2197.00,0.0044
2196.00,0.0044
2195.00,0.0044
2194.00,0.0044
2193.00,0.0044
2192.00,0.0044
2191.00,0.0043
2190.00,0.0042
2189.00,0.0043
2188.00,0.0043
2187.00,0.0044
2186.00,0.0043
2185.00,0.0042
2184.00,0.0040
2183.00,0.0038
2182.00,0.0037
2181.00,0.0038
2180.00,0.0040
2179.00,0.0041
2178.00,0.0040
2177.00,0.0037
2176.00,0.0035
2175.00,0.0035
2174.00,0.0037
2173.00,0.0040
2172.00,0.0043
2171.00,0.0044
2170.00,0.0045
2169.00,0.0046
2168.00,0.0048
2167.00,0.0049
2166.00,0.0050
2165.00,0.0052
2164.00,0.0054
2163.00,0.0054
2162.00,0.0049
2161.00,0.0039
2160.00,0.0026
2159.00,0.0016
2158.00,0.0010
2157.00,0.0009
2156.00,0.0012
2155.00,0.0015
2154.00,0.0018
2153.00,0.0020
2152.00,0.0022
2151.00,0.0023
2150.00,0.0025
2149.00,0.0025
2148.00,0.0025
2147.00,0.0024
2146.00,0.0023
2145.00,0.0023
2144.00,0.0024
2143.00,0.0025
2142.00,0.0025
2141.00,0.0026
2140.00,0.0026
2139.00,0.0025
2138.00,0.0024
2137.00,0.0022
2136.00,0.0021
2135.00,0.0019
2134.00,0.0019
2133.00,0.0020
2132.00,0.0022
2131.00,0.0024
2130.00,0.0025
2129.00,0.0026
2128.00,0.0027
2127.00,0.0028
2126.00,0.0030
2125.00,0.0031
2124.00,0.0032
2123.00,0.0033
2122.00,0.0033
2121.00,0.0033
2120.00,0.0034
2119.00,0.0035
2118.00,0.0037
2117.00,0.0039
2116.00,0.0040
2115.00,0.0040
2114.00,0.0039
2113.00,0.0038
2112.00,0.0038
2111.00,0.0038
2110.00,0.0037
2109.00,0.0037
2108.00,0.0037
2107.00,0.0037
2106.00,0.0038
2105.00,0.0039
2104.00,0.0039
2103.00,0.0039
2102.00,0.0038
2101.00,0.0038
2100.00,0.0038
2099.00,0.0037
2098.00,0.0036
2097.00,0.0035
2096.00,0.0034
2095.00,0.0033
2094.00,0.0033
2093.00,0.0033
2092.00,0.0035
2091.00,0.0037
2090.00,0.0038
2089.00,0.0038
2088.00,0.0039
2087.00,0.0039
2086.00,0.0039
2085.00,0.0039
2084.00,0.0039
2083.00,0.0039
2082.00,0.0039
2081.00,0.0039
2080.00,0.0039
2079.00,0.0039
2078.00,0.0039
2077.00,0.0039
2076.00,0.0039
2075.00,0.0038
2074.00,0.0038
2073.00,0.0037
2072.00,0.0036
2071.00,0.0035
2070.00,0.0035
2069.00,0.0035
2068.00,0.0036
2067.00,0.0036
2066.00,0.0036
2065.00,0.0036
2064.00,0.0036
2063.00,0.0035
2062.00,0.0034
2061.00,0.0033
2060.00,0.0034
2059.00,0.0034
2058.00,0.0035
2057.00,0.0036
2056.00,0.0036
2055.00,0.0036
2054.00,0.0038
2053.00,0.0041
2052.00,0.0044
2051.00,0.0044
2050.00,0.0042
2049.00,0.0039
2048.00,0.0038
2047.00,0.0037
2046.00,0.0036
2045.00,0.0035
2044.00,0.0033
2043.00,0.0033
2042.00,0.0033
2041.00,0.0034
2040.00,0.0035
2039.00,0.0035
2038.00,0.0034
2037.00,0.0032
2036.00,0.0031
2035.00,0.0030
2034.00,0.0029
2033.00,0.0029
2032.00,0.0030
2031.00,0.0030
2030.00,0.0029
2029.00,0.0029
2028.00,0.0028
2027.00,0.0028
2026.00,0.0028
2025.00,0.0029
2024.00,0.0031
2023.00,0.0031
2022.00,0.0031
2021.00,0.0031
2020.00,0.0031
2019.00,0.0030
2018.00,0.0028
2017.00,0.0027
2016.00,0.0027
2015.00,0.0028
2014.00,0.0029
2013.00,0.0030
2012.00,0.0030
2011.00,0.0030
2010.00,0.0029
2009.00,0.0028
2008.00,0.0026
2007.00,0.0022
2006.00,0.0019
2005.00,0.0018
2004.00,0.0020
2003.00,0.0022
2002.00,0.0023
2001.00,0.0025
2000.00,0.0026
1999.00,0.0027
1998.00,0.0028
1997.00,0.0029
1996.00,0.0030
1995.00,0.0031
1994.00,0.0032
1993.00,0.0033
1992.00,0.0033
1991.00,0.0033
1990.00,0.0033
1989.00,0.0034
1988.00,0.0034
1987.00,0.0034
1986.00,0.0033
1985.00,0.0034
1984.00,0.0037
1983.00,0.0041
1982.00,0.0044
1981.00,0.0045
1980.00,0.0043
1979.00,0.0038
1978.00,0.0031
1977.00,0.0027
1976.00,0.0025
1975.00,0.0024
1974.00,0.0023
1973.00,0.0023
1972.00,0.0023
1971.00,0.0023
1970.00,0.0023
1969.00,0.0024
1968.00,0.0025
1967.00,0.0025
1966.00,0.0024
1965.00,0.0023
1964.00,0.0023
1963.00,0.0022
1962.00,0.0022
1961.00,0.0022
1960.00,0.0023
1959.00,0.0024
1958.00,0.0024
1957.00,0.0025
1956.00,0.0025
1955.00,0.0026
1954.00,0.0026
1953.00,0.0026
1952.00,0.0027
1951.00,0.0027
1950.00,0.0026
1949.00,0.0025
1948.00,0.0025
1947.00,0.0025
1946.00,0.0026
1945.00,0.0026
1944.00,0.0026
1943.00,0.0026
1942.00,0.0026
1941.00,0.0025
1940.00,0.0026
1939.00,0.0026
1938.00,0.0026
1937.00,0.0027
1936.00,0.0027
1935.00,0.0027
1934.00,0.0027
1933.00,0.0026
1932.00,0.0026
1931.00,0.0027
1930.00,0.0027
1929.00,0.0027
1928.00,0.0027
1927.00,0.0027
1926.00,0.0027
1925.00,0.0027
1924.00,0.0028
1923.00,0.0029
1922.00,0.0029
1921.00,0.0030
1920.00,0.0031
1919.00,0.0031
1918.00,0.0031
1917.00,0.0031
1916.00,0.0030
1915.00,0.0030
1914.00,0.0029
1913.00,0.0029
1912.00,0.0029
1911.00,0.0030
1910.00,0.0030
1909.00,0.0030
1908.00,0.0031
1907.00,0.0031
1906.00,0.0030
1905.00,0.0030
1904.00,0.0030
1903.00,0.0030
1902.00,0.0031
1901.00,0.0031
1900.00,0.0032
1899.00,0.0032
1898.00,0.0032
1897.00,0.0031
1896.00,0.0032
1895.00,0.0031
1894.00,0.0031
1893.00,0.0030
1892.00,0.0030
1891.00,0.0031
1890.00,0.0030
1889.00,0.0030
1888.00,0.0030
1887.00,0.0030
1886.00,0.0030
1885.00,0.0030
1884.00,0.0030
1883.00,0.0030
1882.00,0.0030
1881.00,0.0030
1880.00,0.0030
1879.00,0.0030
1878.00,0.0031
1877.00,0.0031
1876.00,0.0031
1875.00,0.0032
1874.00,0.0032
1873.00,0.0032
1872.00,0.0033
1871.00,0.0033
1870.00,0.0032
1869.00,0.0032
1868.00,0.0032
1867.00,0.0032
1866.00,0.0032
1865.00,0.0031
1864.00,0.0031
1863.00,0.0031
1862.00,0.0031
1861.00,0.0031
1860.00,0.0031
1859.00,0.0031
1858.00,0.0031
1857.00,0.0030
1856.00,0.0030
1855.00,0.0030
1854.00,0.0030
1853.00,0.0031
1852.00,0.0031
1851.00,0.0032
1850.00,0.0032
1849.00,0.0032
1848.00,0.0032
1847.00,0.0032
1846.00,0.0032
1845.00,0.0032
1844.00,0.0032
1843.00,0.0032
1842.00,0.0032
1841.00,0.0032
1840.00,0.0033
1839.00,0.0032
1838.00,0.0032
1837.00,0.0032
1836.00,0.0032
1835.00,0.0032
1834.00,0.0031
1833.00,0.0031
1832.00,0.0031
1831.00,0.0031
1830.00,0.0031
1829.00,0.0031
1828.00,0.0032
1827.00,0.0033
1826.00,0.0033
1825.00,0.0033
1824.00,0.0033
1823.00,0.0033
1822.00,0.0032
1821.00,0.0031
1820.00,0.0030
1819.00,0.0030
1818.00,0.0029
1817.00,0.0028
1816.00,0.0029
1815.00,0.0030
1814.00,0.0030
1813.00,0.0031
1812.00,0.0032
1811.00,0.0032
1810.00,0.0031
1809.00,0.0031
1808.00,0.0031
1807.00,0.0032
1806.00,0.0032
1805.00,0.0032
1804.00,0.0032
1803.00,0.0033
1802.00,0.0033
1801.00,0.0033
1800.00,0.0033
1799.00,0.0033
1798.00,0.0032
1797.00,0.0032
1796.00,0.0032
1795.00,0.0033
1794.00,0.0033
1793.00,0.0033
1792.00,0.0033
1791.00,0.0033
1790.00,0.0033
1789.00,0.0033
1788.00,0.0033
1787.00,0.0033
1786.00,0.0033
1785.00,0.0033
1784.00,0.0033
1783.00,0.0034
1782.00,0.0034
1781.00,0.0034
1780.00,0.0034
1779.00,0.0034
1778.00,0.0033
1777.00,0.0033
1776.00,0.0034
1775.00,0.0034
1774.00,0.0034
1773.00,0.0034
1772.00,0.0034
1771.00,0.0035
1770.00,0.0035
1769.00,0.0036
1768.00,0.0036
1767.00,0.0036
1766.00,0.0035
1765.00,0.0035
1764.00,0.0036
1763.00,0.0036
1762.00,0.0036
1761.00,0.0036
1760.00,0.0036
1759.00,0.0037
1758.00,0.0037
1757.00,0.0037
1756.00,0.0037
1755.00,0.0038
1754.00,0.0038
1753.00,0.0038
1752.00,0.0039
1751.00,0.0039
1750.00,0.0039
1749.00,0.0039
1748.00,0.0040
1747.00,0.0040
1746.00,0.0040
1745.00,0.0040
1744.00,0.0041
1743.00,0.0041
1742.00,0.0042
1741.00,0.0042
1740.00,0.0043
1739.00,0.0043
1738.00,0.0044
1737.00,0.0044
1736.00,0.0046
1735.00,0.0046
1734.00,0.0046
1733.00,0.0046
1732.00,0.0047
1731.00,0.0048
1730.00,0.0049
1729.00,0.0050
1728.00,0.0052
1727.00,0.0053
1726.00,0.0053
1725.00,0.0054
1724.00,0.0056
1723.00,0.0058
1722.00,0.0059
1721.00,0.0061
1720.00,0.0063
1719.00,0.0066
1718.00,0.0067
1717.00,0.0070
1716.00,0.0074
1715.00,0.0077
1714.00,0.0080
1713.00,0.0084
1712.00,0.0089
1711.00,0.0094
1710.00,0.0099
1709.00,0.0105
1708.00,0.0113
1707.00,0.0121
1706.00,0.0132
1705.00,0.0143
1704.00,0.0155
1703.00,0.0166
1702.00,0.0178
1701.00,0.0198
1700.00,0.0225
1699.00,0.0248
1698.00,0.0266
1697.00,0.0287
1696.00,0.0318
1695.00,0.0352
1694.00,0.0380
1693.00,0.0402
1692.00,0.0425
1691.00,0.0452
1690.00,0.0481
1689.00,0.0510
1688.00,0.0535
1687.00,0.0555
1686.00,0.0575
1685.00,0.0607
1684.00,0.0652
1683.00,0.0689
1682.00,0.0709
1681.00,0.0723
1680.00,0.0737
1679.00,0.0750
1678.00,0.0761
1677.00,0.0771
1676.00,0.0786
1675.00,0.0805
1674.00,0.0819
1673.00,0.0826
1672.00,0.0831
1671.00,0.0839
1670.00,0.0852
1669.00,0.0869
1668.00,0.0883
1667.00,0.0891
1666.00,0.0894
1665.00,0.0898
1664.00,0.0907
1663.00,0.0921
1662.00,0.0937
1661.00,0.0949
1660.00,0.0956
1659.00,0.0961
1658.00,0.0963
1657.00,0.0961
1656.00,0.0957
1655.00,0.0953
1654.00,0.0961
1653.00,0.0982
1652.00,0.0993
1651.00,0.0985
1650.00,0.0967
1649.00,0.0948
1648.00,0.0932
1647.00,0.0919
1646.00,0.0906
1645.00,0.0889
1644.00,0.0866
1643.00,0.0840
1642.00,0.0813
1641.00,0.0786
1640.00,0.0758
1639.00,0.0729
1638.00,0.0701
1637.00,0.0672
1636.00,0.0644
1635.00,0.0619
1634.00,0.0596
1633.00,0.0574
1632.00,0.0552
1631.00,0.0532
1630.00,0.0514
1629.00,0.0498
1628.00,0.0484
1627.00,0.0472
1626.00,0.0462
1625.00,0.0452
1624.00,0.0443
1623.00,0.0436
1622.00,0.0430
1621.00,0.0423
1620.00,0.0415
1619.00,0.0406
1618.00,0.0398
1617.00,0.0391
1616.00,0.0383
1615.00,0.0374
1614.00,0.0363
1613.00,0.0351
1612.00,0.0338
1611.00,0.0325
1610.00,0.0313
1609.00,0.0301
1608.00,0.0290
1607.00,0.0280
1606.00,0.0272
1605.00,0.0265
1604.00,0.0259
1603.00,0.0255
1602.00,0.0253
1601.00,0.0252
1600.00,0.0253
1599.00,0.0255
1598.00,0.0259
1597.00,0.0263
1596.00,0.0266
1595.00,0.0270
1594.00,0.0273
1593.00,0.0274
1592.00,0.0274
1591.00,0.0274
1590.00,0.0272
1589.00,0.0269
1588.00,0.0266
1587.00,0.0262
1586.00,0.0258
1585.00,0.0253
1584.00,0.0247
1583.00,0.0241
1582.00,0.0234
1581.00,0.0227
1580.00,0.0220
1579.00,0.0213
1578.00,0.0206
1577.00,0.0198
1576.00,0.0190
1575.00,0.0184
1574.00,0.0179
1573.00,0.0174
1572.00,0.0170
1571.00,0.0165
1570.00,0.0160
1569.00,0.0156
1568.00,0.0153
1567.00,0.0149
1566.00,0.0146
1565.00,0.0143
1564.00,0.0140
1563.00,0.0138
1562.00,0.0136
1561.00,0.0134
1560.00,0.0131
1559.00,0.0130
1558.00,0.0129
1557.00,0.0128
1556.00,0.0126
1555.00,0.0124
1554.00,0.0123
1553.00,0.0122
1552.00,0.0121
1551.00,0.0120
1550.00,0.0119
1549.00,0.0118
1548.00,0.0118
1547.00,0.0117
1546.00,0.0116
1545.00,0.0116
1544.00,0.0116
1543.00,0.0115
1542.00,0.0114
1541.00,0.0113
1540.00,0.0112
1539.00,0.0112
1538.00,0.0112
1537.00,0.0112
1536.00,0.0111
1535.00,0.0111
1534.00,0.0111
1533.00,0.0111
1532.00,0.0111
1531.00,0.0111
1530.00,0.0110
1529.00,0.0110
1528.00,0.0110
1527.00,0.0111
1526.00,0.0111
1525.00,0.0111
1524.00,0.0111
1523.00,0.0111
1522.00,0.0111
1521.00,0.0112
1520.00,0.0113
1519.00,0.0113
1518.00,0.0113
1517.00,0.0114
1516.00,0.0114
1515.00,0.0115
1514.00,0.0115
1513.00,0.0115
1512.00,0.0116
1511.00,0.0117
1510.00,0.0118
1509.00,0.0120
1508.00,0.0123
1507.00,0.0128
1506.00,0.0136
1505.00,0.0142
1504.00,0.0148
1503.00,0.0154
1502.00,0.0162
1501.00,0.0171
1500.00,0.0182
1499.00,0.0193
1498.00,0.0205
1497.00,0.0217
1496.00,0.0227
1495.00,0.0235
1494.00,0.0238
1493.00,0.0239
1492.00,0.0237
1491.00,0.0233
1490.00,0.0226
1489.00,0.0217
1488.00,0.0206
1487.00,0.0194
1486.00,0.0183
1485.00,0.0173
1484.00,0.0164
1483.00,0.0156
1482.00,0.0150
1481.00,0.0145
1480.00,0.0143
1479.00,0.0141
1478.00,0.0142
1477.00,0.0144
1476.00,0.0149
1475.00,0.0154
1474.00,0.0163
1473.00,0.0177
1472.00,0.0195
1471.00,0.0214
1470.00,0.0233
1469.00,0.0252
1468.00,0.0273
1467.00,0.0296
1466.00,0.0323
1465.00,0.0354
1464.00,0.0382
1463.00,0.0403
1462.00,0.0415
1461.00,0.0422
1460.00,0.0424
1459.00,0.0420
1458.00,0.0411
1457.00,0.0399
1456.00,0.0385
1455.00,0.0372
1454.00,0.0360
1453.00,0.0353
1452.00,0.0348
1451.00,0.0347
1450.00,0.0350
1449.00,0.0358
1448.00,0.0370
1447.00,0.0385
1446.00,0.0401
1445.00,0.0418
1444.00,0.0436
1443.00,0.0455
1442.00,0.0474
1441.00,0.0493
1440.00,0.0509
1439.00,0.0523
1438.00,0.0539
1437.00,0.0560
1436.00,0.0580
1435.00,0.0595
1434.00,0.0604
1433.00,0.0612
1432.00,0.0623
1431.00,0.0636
1430.00,0.0651
1429.00,0.0667
1428.00,0.0682
1427.00,0.0695
1426.00,0.0707
1425.00,0.0722
1424.00,0.0736
1423.00,0.0745
1422.00,0.0746
1421.00,0.0740
1420.00,0.0727
1419.00,0.0705
1418.00,0.0675
1417.00,0.0639
1416.00,0.0600
1415.00,0.0559
1414.00,0.0519
1413.00,0.0481
1412.00,0.0447
1411.00,0.0415
1410.00,0.0388
1409.00,0.0364
1408.00,0.0344
1407.00,0.0327
1406.00,0.0313
1405.00,0.0301
1404.00,0.0290
1403.00,0.0281
1402.00,0.0273
1401.00,0.0267
1400.00,0.0261
1399.00,0.0257
1398.00,0.0254
1397.00,0.0252
1396.00,0.0249
1395.00,0.0248
1394.00,0.0248
1393.00,0.0247
1392.00,0.0247
1391.00,0.0246
1390.00,0.0247
1389.00,0.0250
1388.00,0.0253
1387.00,0.0258
1386.00,0.0263
1385.00,0.0269
1384.00,0.0274
1383.00,0.0281
1382.00,0.0289
1381.00,0.0298
1380.00,0.0308
1379.00,0.0319
1378.00,0.0328
1377.00,0.0336
1376.00,0.0341
1375.00,0.0346
1374.00,0.0348
1373.00,0.0348
1372.00,0.0345
1371.00,0.0340
1370.00,0.0334
1369.00,0.0328
1368.00,0.0321
1367.00,0.0314
1366.00,0.0306
1365.00,0.0298
1364.00,0.0289
1363.00,0.0281
1362.00,0.0273
1361.00,0.0265
1360.00,0.0258
1359.00,0.0251
1358.00,0.0246
1357.00,0.0241
1356.00,0.0237
1355.00,0.0233
1354.00,0.0229
1353.00,0.0225
1352.00,0.0221
1351.00,0.0218
1350.00,0.0215
1349.00,0.0213
1348.00,0.0210
1347.00,0.0208
1346.00,0.0206
1345.00,0.0204
1344.00,0.0203
1343.00,0.0201
1342.00,0.0201
1341.00,0.0201
1340.00,0.0201
1339.00,0.0201
1338.00,0.0202
1337.00,0.0202
1336.00,0.0203
1335.00,0.0204
1334.00,0.0206
1333.00,0.0208
1332.00,0.0210
1331.00,0.0213
1330.00,0.0218
1329.00,0.0223
1328.00,0.0229
1327.00,0.0237
1326.00,0.0245
1325.00,0.0254
1324.00,0.0264
1323.00,0.0274
1322.00,0.0283
1321.00,0.0293
1320.00,0.0301
1319.00,0.0308
1318.00,0.0313
1317.00,0.0315
1316.00,0.0316
1315.00,0.0314
1314.00,0.0310
1313.00,0.0306
1312.00,0.0301
1311.00,0.0295
1310.00,0.0290
1309.00,0.0285
1308.00,0.0282
1307.00,0.0280
1306.00,0.0279
1305.00,0.0281
1304.00,0.0285
1303.00,0.0291
1302.00,0.0301
1301.00,0.0314
1300.00,0.0331
1299.00,0.0353
1298.00,0.0379
1297.00,0.0410
1296.00,0.0445
1295.00,0.0483
1294.00,0.0523
1293.00,0.0563
1292.00,0.0602
1291.00,0.0638
1290.00,0.0670
1289.00,0.0697
1288.00,0.0719
1287.00,0.0734
1286.00,0.0741
1285.00,0.0742
1284.00,0.0736
1283.00,0.0726
1282.00,0.0712
1281.00,0.0697
1280.00,0.0683
1279.00,0.0672
1278.00,0.0665
1277.00,0.0663
1276.00,0.0664
1275.00,0.0668
1274.00,0.0673
1273.00,0.0678
1272.00,0.0680
1271.00,0.0680
1270.00,0.0676
1269.00,0.0667
1268.00,0.0655
1267.00,0.0639
1266.00,0.0621
1265.00,0.0600
1264.00,0.0580
1263.00,0.0560
1262.00,0.0541
1261.00,0.0524
1260.00,0.0510
1259.00,0.0498
1258.00,0.0488
1257.00,0.0481
1256.00,0.0475
1255.00,0.0470
1254.00,0.0466
1253.00,0.0463
1252.00,0.0459
1251.00,0.0455
1250.00,0.0451
1249.00,0.0446
1248.00,0.0441
1247.00,0.0436
1246.00,0.0431
1245.00,0.0425
1244.00,0.0419
1243.00,0.0414
1242.00,0.0408
1241.00,0.0403
1240.00,0.0399
1239.00,0.0395
1238.00,0.0392
1237.00,0.0391
1236.00,0.0390
1235.00,0.0390
1234.00,0.0390
1233.00,0.0391
1232.00,0.0392
1231.00,0.0393
1230.00,0.0393
1229.00,0.0393
1228.00,0.0393
1227.00,0.0393
1226.00,0.0392
1225.00,0.0390
1224.00,0.0388
1223.00,0.0385
1222.00,0.0383
1221.00,0.0379
1220.00,0.0376
1219.00,0.0372
1218.00,0.0368
1217.00,0.0364
1216.00,0.0359
1215.00,0.0354
1214.00,0.0349
1213.00,0.0343
1212.00,0.0336
1211.00,0.0330
1210.00,0.0324
1209.00,0.0318
1208.00,0.0313
1207.00,0.0309
1206.00,0.0306
1205.00,0.0302
1204.00,0.0299
1203.00,0.0295
1202.00,0.0292
1201.00,0.0289
1200.00,0.0285
1199.00,0.0281
1198.00,0.0277
1197.00,0.0273
1196.00,0.0270
1195.00,0.0268
1194.00,0.0266
1193.00,0.0264
1192.00,0.0262
1191.00,0.0261
1190.00,0.0260
1189.00,0.0259
1188.00,0.0258
1187.00,0.0257
1186.00,0.0255
1185.00,0.0253
1184.00,0.0252
1183.00,0.0250
1182.00,0.0249
1181.00,0.0249
1180.00,0.0250
1179.00,0.0251
1178.00,0.0253
1177.00,0.0257
1176.00,0.0261
1175.00,0.0266
1174.00,0.0271
1173.00,0.0275
1172.00,0.0279
1171.00,0.0280
1170.00,0.0280
1169.00,0.0279
1168.00,0.0276
1167.00,0.0273
1166.00,0.0268
1165.00,0.0263
1164.00,0.0257
1163.00,0.0252
1162.00,0.0247
1161.00,0.0244
1160.00,0.0241
1159.00,0.0241
1158.00,0.0242
1157.00,0.0244
1156.00,0.0248
1155.00,0.0251
1154.00,0.0253
1153.00,0.0254
1152.00,0.0252
1151.00,0.0248
1150.00,0.0242
1149.00,0.0234
1148.00,0.0226
1147.00,0.0217
1146.00,0.0209
1145.00,0.0201
1144.00,0.0194
1143.00,0.0188
1142.00,0.0184
1141.00,0.0180
1140.00,0.0177
1139.00,0.0175
1138.00,0.0173
1137.00,0.0172
1136.00,0.0170
1135.00,0.0169
1134.00,0.0168
1133.00,0.0167
1132.00,0.0165
1131.00,0.0165
1130.00,0.0164
1129.00,0.0164
1128.00,0.0163
1127.00,0.0163
1126.00,0.0163
1125.00,0.0163
1124.00,0.0164
1123.00,0.0164
1122.00,0.0165
1121.00,0.0166
1120.00,0.0167
1119.00,0.0167
1118.00,0.0168
1117.00,0.0169
1116.00,0.0169
1115.00,0.0170
1114.00,0.0170
1113.00,0.0171
1112.00,0.0172
1111.00,0.0172
1110.00,0.0173
1109.00,0.0173
1108.00,0.0173
1107.00,0.0173
1106.00,0.0173
1105.00,0.0173
1104.00,0.0174
1103.00,0.0174
1102.00,0.0175
1101.00,0.0175
1100.00,0.0176
1099.00,0.0177
1098.00,0.0178
1097.00,0.0178
1096.00,0.0178
1095.00,0.0178
1094.00,0.0177
1093.00,0.0176
1092.00,0.0174
1091.00,0.0173
1090.00,0.0172
1089.00,0.0170
1088.00,0.0169
1087.00,0.0169
1086.00,0.0169
1085.00,0.0170
1084.00,0.0171
1083.00,0.0172
1082.00,0.0174
1081.00,0.0176
1080.00,0.0179
1079.00,0.0182
1078.00,0.0185
1077.00,0.0187
1076.00,0.0188
1075.00,0.0189
1074.00,0.0189
1073.00,0.0188
1072.00,0.0186
1071.00,0.0185
1070.00,0.0183
1069.00,0.0181
1068.00,0.0180
1067.00,0.0179
1066.00,0.0179
1065.00,0.0180
1064.00,0.0182
1063.00,0.0186
1062.00,0.0192
1061.00,0.0201
1060.00,0.0212
1059.00,0.0224
1058.00,0.0237
1057.00,0.0248
1056.00,0.0255
1055.00,0.0256
1054.00,0.0253
1053.00,0.0246
1052.00,0.0236
1051.00,0.0226
1050.00,0.0216
1049.00,0.0209
1048.00,0.0203
1047.00,0.0201
1046.00,0.0200
1045.00,0.0201
1044.00,0.0204
1043.00,0.0208
1042.00,0.0214
1041.00,0.0222
1040.00,0.0231
1039.00,0.0242
1038.00,0.0255
1037.00,0.0270
1036.00,0.0284
1035.00,0.0299
1034.00,0.0313
1033.00,0.0324
1032.00,0.0332
1031.00,0.0335
1030.00,0.0335
1029.00,0.0331
1028.00,0.0324
1027.00,0.0315
1026.00,0.0305
1025.00,0.0296
1024.00,0.0288
1023.00,0.0282
1022.00,0.0278
1021.00,0.0275
1020.00,0.0273
1019.00,0.0271
1018.00,0.0268
1017.00,0.0264
1016.00,0.0258
1015.00,0.0251
1014.00,0.0243
1013.00,0.0236
1012.00,0.0229
1011.00,0.0222
1010.00,0.0217
1009.00,0.0213
1008.00,0.0211
1007.00,0.0209
1006.00,0.0210
1005.00,0.0211
1004.00,0.0213
1003.00,0.0214
1002.00,0.0214
1001.00,0.0214
1000.00,0.0213
999.00,0.0211
998.00,0.0208
997.00,0.0204
996.00,0.0200
995.00,0.0197
994.00,0.0193
993.00,0.0190
992.00,0.0188
991.00,0.0186
990.00,0.0185
989.00,0.0184
988.00,0.0182
987.00,0.0181
986.00,0.0179
985.00,0.0177
984.00,0.0174
983.00,0.0172
982.00,0.0170
981.00,0.0167
980.00,0.0165
979.00,0.0163
978.00,0.0161
977.00,0.0160
976.00,0.0159
975.00,0.0158
974.00,0.0157
973.00,0.0156
972.00,0.0155
971.00,0.0154
970.00,0.0154
969.00,0.0153
968.00,0.0152
967.00,0.0152
966.00,0.0151
965.00,0.0151
964.00,0.0150
963.00,0.0149
962.00,0.0148
961.00,0.0147
960.00,0.0145
959.00,0.0143
958.00,0.0140
957.00,0.0137
956.00,0.0134
955.00,0.0132
954.00,0.0130
953.00,0.0128
952.00,0.0127
951.00,0.0125
950.00,0.0124
949.00,0.0124
948.00,0.0123
947.00,0.0123
946.00,0.0123
945.00,0.0123
944.00,0.0124
943.00,0.0125
942.00,0.0127
941.00,0.0130
940.00,0.0133
939.00,0.0137
938.00,0.0141
937.00,0.0146
936.00,0.0151
935.00,0.0156
934.00,0.0160
933.00,0.0163
932.00,0.0163
931.00,0.0162
930.00,0.0160
929.00,0.0157
928.00,0.0155
927.00,0.0153
926.00,0.0151
925.00,0.0150
924.00,0.0148
923.00,0.0147
922.00,0.0146
921.00,0.0146
920.00,0.0146
919.00,0.0146
918.00,0.0147
917.00,0.0147
916.00,0.0148
915.00,0.0148
914.00,0.0149
913.00,0.0150
912.00,0.0150
911.00,0.0151
910.00,0.0153
909.00,0.0155
908.00,0.0158
907.00,0.0161
906.00,0.0165
905.00,0.0169
904.00,0.0174
903.00,0.0179
902.00,0.0185
901.00,0.0190
900.00,0.0195
899.00,0.0199
898.00,0.0203
897.00,0.0207
896.00,0.0209
895.00,0.0211
894.00,0.0213
893.00,0.0214
892.00,0.0215
891.00,0.0216
890.00,0.0217
889.00,0.0217
888.00,0.0218
887.00,0.0218
886.00,0.0219
885.00,0.0220
884.00,0.0221
883.00,0.0221
882.00,0.0221
881.00,0.0219
880.00,0.0218
879.00,0.0216
878.00,0.0214
877.00,0.0211
876.00,0.0209
875.00,0.0206
874.00,0.0203
873.00,0.0201
872.00,0.0200
871.00,0.0199
870.00,0.0198
869.00,0.0197
868.00,0.0197
867.00,0.0198
866.00,0.0200
865.00,0.0202
864.00,0.0204
863.00,0.0207
862.00,0.0210
861.00,0.0214
860.00,0.0219
859.00,0.0223
858.00,0.0229
857.00,0.0236
856.00,0.0243
855.00,0.0251
854.00,0.0258
853.00,0.0264
852.00,0.0270
851.00,0.0276
850.00,0.0281
849.00,0.0285
848.00,0.0289
847.00,0.0293
846.00,0.0296
845.00,0.0298
844.00,0.0299
843.00,0.0299
842.00,0.0299
841.00,0.0299
840.00,0.0297
839.00,0.0296
838.00,0.0295
837.00,0.0294
836.00,0.0293
835.00,0.0292
834.00,0.0292
833.00,0.0291
832.00,0.0290
831.00,0.0289
830.00,0.0287
829.00,0.0284
828.00,0.0280
827.00,0.0276
826.00,0.0270
825.00,0.0265
824.00,0.0258
823.00,0.0252
822.00,0.0246
821.00,0.0240
820.00,0.0233
819.00,0.0228
818.00,0.0223
817.00,0.0219
816.00,0.0216
815.00,0.0214
814.00,0.0212
813.00,0.0210
812.00,0.0209
811.00,0.0208
810.00,0.0208
809.00,0.0208
808.00,0.0209
807.00,0.0209
806.00,0.0210
805.00,0.0210
804.00,0.0208
803.00,0.0206
802.00,0.0204
801.00,0.0202
800.00,0.0201
799.00,0.0200
798.00,0.0199
797.00,0.0200
796.00,0.0201
795.00,0.0202
794.00,0.0203
793.00,0.0204
792.00,0.0204
791.00,0.0203
790.00,0.0202
789.00,0.0201
788.00,0.0200
787.00,0.0199
786.00,0.0199
785.00,0.0198
784.00,0.0198
783.00,0.0198
782.00,0.0199
781.00,0.0199
780.00,0.0201
779.00,0.0202
778.00,0.0205
777.00,0.0208
776.00,0.0210
775.00,0.0212
774.00,0.0214
773.00,0.0216
772.00,0.0218
771.00,0.0219
770.00,0.0221
769.00,0.0222
768.00,0.0224
767.00,0.0226
766.00,0.0228
765.00,0.0230
764.00,0.0233
763.00,0.0236
762.00,0.0239
761.00,0.0242
760.00,0.0246
759.00,0.0250
758.00,0.0254
757.00,0.0257
756.00,0.0260
755.00,0.0262
754.00,0.0264
753.00,0.0265
752.00,0.0266
751.00,0.0267
750.00,0.0268
749.00,0.0270
748.00,0.0273
747.00,0.0276
746.00,0.0280
745.00,0.0284
744.00,0.0288
743.00,0.0291
742.00,0.0295
741.00,0.0299
740.00,0.0303
739.00,0.0308
738.00,0.0312
737.00,0.0316
736.00,0.0319
735.00,0.0322
734.00,0.0324
733.00,0.0325
732.00,0.0325
731.00,0.0324
730.00,0.0321
729.00,0.0317
728.00,0.0312
727.00,0.0307
726.00,0.0302
725.00,0.0298
724.00,0.0293
723.00,0.0289
722.00,0.0284
721.00,0.0280
720.00,0.0276
719.00,0.0273
718.00,0.0271
717.00,0.0270
716.00,0.0268
715.00,0.0267
714.00,0.0266
713.00,0.0265
712.00,0.0264
711.00,0.0263
710.00,0.0264
709.00,0.0264
708.00,0.0265
707.00,0.0265
706.00,0.0266
705.00,0.0267
704.00,0.0269
703.00,0.0270
702.00,0.0271
701.00,0.0272
700.00,0.0273
699.00,0.0274
698.00,0.0276
697.00,0.0278
696.00,0.0280
695.00,0.0281
694.00,0.0284
693.00,0.0286
692.00,0.0288
691.00,0.0291
690.00,0.0294
689.00,0.0297
688.00,0.0300
687.00,0.0304
686.00,0.0307
685.00,0.0310
684.00,0.0313
683.00,0.0316
682.00,0.0319
681.00,0.0322
680.00,0.0325
679.00,0.0329
678.00,0.0333
677.00,0.0336
676.00,0.0339
675.00,0.0342
674.00,0.0345
673.00,0.0349
672.00,0.0352
671.00,0.0355
670.00,0.0358
669.00,0.0363
668.00,0.0372
667.00,0.0379
666.00,0.0384
665.00,0.0387
664.00,0.0392
663.00,0.0397
662.00,0.0404
661.00,0.0410
660.00,0.0417
659.00,0.0426
658.00,0.0434
657.00,0.0442
656.00,0.0450
655.00,0.0458
654.00,0.0466
653.00,0.0473
652.00,0.0480
651.00,0.0486
650.00,0.0491
649.00,0.0495
648.00,0.0497
647.00,0.0498
646.00,0.0496
645.00,0.0494
644.00,0.0490
643.00,0.0485
642.00,0.0479
641.00,0.0473
640.00,0.0466
639.00,0.0459
638.00,0.0452
637.00,0.0445
636.00,0.0440
635.00,0.0434
634.00,0.0429
633.00,0.0425
632.00,0.0420
631.00,0.0415
630.00,0.0410
629.00,0.0406
628.00,0.0403
627.00,0.0400
626.00,0.0397
625.00,0.0394
624.00,0.0391
623.00,0.0389
622.00,0.0388
621.00,0.0387
620.00,0.0386
619.00,0.0385
618.00,0.0385
617.00,0.0384
616.00,0.0384
615.00,0.0385
614.00,0.0386
613.00,0.0387
612.00,0.0387
611.00,0.0386
610.00,0.0386
609.00,0.0387
608.00,0.0388
607.00,0.0390
606.00,0.0391
605.00,0.0392
604.00,0.0392
603.00,0.0393
602.00,0.0395
601.00,0.0397
600.00,0.0398
599.00,0.0398
598.00,0.0399
597.00,0.0401
596.00,0.0403
595.00,0.0406
594.00,0.0408
593.00,0.0411
592.00,0.0413
591.00,0.0417
590.00,0.0421
589.00,0.0426
588.00,0.0431
587.00,0.0436
586.00,0.0442
585.00,0.0450
584.00,0.0458
583.00,0.0467
582.00,0.0476
581.00,0.0485
580.00,0.0493
579.00,0.0500
578.00,0.0506
577.00,0.0510
576.00,0.0513
575.00,0.0516
574.00,0.0518
573.00,0.0519
572.00,0.0519
571.00,0.0518
570.00,0.0516
569.00,0.0513
568.00,0.0509
567.00,0.0505
566.00,0.0500
565.00,0.0495
564.00,0.0489
563.00,0.0484
562.00,0.0479
561.00,0.0476
560.00,0.0474
559.00,0.0472
558.00,0.0472
557.00,0.0471
556.00,0.0470
555.00,0.0468
554.00,0.0466
553.00,0.0465
552.00,0.0466
551.00,0.0466
550.00,0.0464
549.00,0.0461
548.00,0.0456
547.00,0.0451
546.00,0.0447
545.00,0.0443
544.00,0.0440
543.00,0.0437
542.00,0.0434
541.00,0.0432
540.00,0.0429
539.00,0.0427
538.00,0.0425
537.00,0.0425
536.00,0.0425
535.00,0.0425
534.00,0.0426
533.00,0.0427
532.00,0.0426
531.00,0.0425
530.00,0.0424
529.00,0.0424
528.00,0.0426
527.00,0.0428
526.00,0.0430
525.00,0.0432
524.00,0.0434
523.00,0.0434
522.00,0.0432
521.00,0.0429
520.00,0.0425
519.00,0.0421
518.00,0.0418
517.00,0.0416
516.00,0.0413
515.00,0.0410
514.00,0.0407
513.00,0.0406
512.00,0.0405
511.00,0.0404
510.00,0.0403
509.00,0.0401
508.00,0.0399
507.00,0.0397
506.00,0.0396
505.00,0.0396
504.00,0.0395
503.00,0.0396
502.00,0.0397
501.00,0.0398
500.00,0.0399
499.00,0.0399
498.00,0.0399
497.00,0.0399
496.00,0.0398
495.00,0.0397
494.00,0.0397
493.00,0.0399
492.00,0.0401
491.00,0.0403
490.00,0.0404
489.00,0.0405
488.00,0.0407
487.00,0.0408
486.00,0.0409
485.00,0.0411
484.00,0.0413
483.00,0.0415
482.00,0.0417
481.00,0.0418
480.00,0.0418
479.00,0.0419
478.00,0.0418
477.00,0.0417
476.00,0.0417
475.00,0.0417
474.00,0.0418
473.00,0.0419
472.00,0.0420
471.00,0.0420
470.00,0.0420
469.00,0.0420
468.00,0.0420
467.00,0.0420
466.00,0.0421
465.00,0.0422
464.00,0.0423
463.00,0.0422
462.00,0.0419
461.00,0.0415
460.00,0.0412
459.00,0.0411
458.00,0.0411
457.00,0.0410
456.00,0.0407
455.00,0.0405
454.00,0.0402
453.00,0.0400
452.00,0.0401
451.00,0.0404
450.00,0.0406
449.00,0.0406
448.00,0.0403
447.00,0.0397
446.00,0.0393
445.00,0.0392
444.00,0.0393
443.00,0.0395
442.00,0.0396
441.00,0.0398
440.00,0.0399
439.00,0.0399
438.00,0.0398
437.00,0.0396
436.00,0.0394
435.00,0.0394
434.00,0.0394
433.00,0.0395
432.00,0.0396
431.00,0.0397
430.00,0.0397
429.00,0.0397
428.00,0.0402
427.00,0.0410
426.00,0.0419
425.00,0.0424
424.00,0.0424
423.00,0.0419
422.00,0.0414
421.00,0.0411
420.00,0.0409
419.00,0.0407
418.00,0.0406
417.00,0.0407
416.00,0.0409
415.00,0.0410
414.00,0.0408
413.00,0.0403
412.00,0.0399
411.00,0.0398
410.00,0.0398
409.00,0.0398
408.00,0.0397
407.00,0.0397
406.00,0.0400
405.00,0.0408
404.00,0.0419
403.00,0.0424
402.00,0.0416
401.00,0.0398
400.00,0.0378
