Created as New Dataset,Sample 1015 By YargerLab Date Friday, August 01 2025
cm-1,A
4000.00,0.0046
3999.00,0.0046
3998.00,0.0046
3997.00,0.0046
3996.00,0.0046
3995.00,0.0046
3994.00,0.0046
3993.00,0.0046
3992.00,0.0046
3991.00,0.0046
3990.00,0.0046
3989.00,0.0046
3988.00,0.0046
3987.00,0.0046
3986.00,0.0046
3985.00,0.0046
3984.00,0.0046
3983.00,0.0046
3982.00,0.0046
3981.00,0.0046
3980.00,0.0047
3979.00,0.0047
3978.00,0.0046
3977.00,0.0046
3976.00,0.0046
3975.00,0.0046
3974.00,0.0046
3973.00,0.0046
3972.00,0.0046
3971.00,0.0046
3970.00,0.0046
3969.00,0.0046
3968.00,0.0046
3967.00,0.0046
3966.00,0.0046
3965.00,0.0046
3964.00,0.0046
3963.00,0.0046
3962.00,0.0046
3961.00,0.0046
3960.00,0.0046
3959.00,0.0046
3958.00,0.0046
3957.00,0.0046
3956.00,0.0046
3955.00,0.0046
3954.00,0.0046
3953.00,0.0046
3952.00,0.0046
3951.00,0.0046
3950.00,0.0046
3949.00,0.0045
3948.00,0.0045
3947.00,0.0045
3946.00,0.0045
3945.00,0.0045
3944.00,0.0045
3943.00,0.0045
3942.00,0.0045
3941.00,0.0045
3940.00,0.0045
3939.00,0.0046
3938.00,0.0046
3937.00,0.0046
3936.00,0.0046
3935.00,0.0045
3934.00,0.0045
3933.00,0.0045
3932.00,0.0045
3931.00,0.0045
3930.00,0.0045
3929.00,0.0045
3928.00,0.0045
3927.00,0.0045
3926.00,0.0045
3925.00,0.0045
3924.00,0.0045
3923.00,0.0045
3922.00,0.0045
3921.00,0.0045
3920.00,0.0044
3919.00,0.0044
3918.00,0.0045
3917.00,0.0045
3916.00,0.0045
3915.00,0.0045
3914.00,0.0045
3913.00,0.0045
3912.00,0.0046
3911.00,0.0046
3910.00,0.0046
3909.00,0.0045
3908.00,0.0045
3907.00,0.0044
3906.00,0.0044
3905.00,0.0044
3904.00,0.0044
3903.00,0.0044
3902.00,0.0043
3901.00,0.0043
3900.00,0.0043
3899.00,0.0044
3898.00,0.0044
3897.00,0.0044
3896.00,0.0044
3895.00,0.0044
3894.00,0.0044
3893.00,0.0044
3892.00,0.0044
3891.00,0.0044
3890.00,0.0045
3889.00,0.0045
3888.00,0.0044
3887.00,0.0044
3886.00,0.0044
3885.00,0.0044
3884.00,0.0043
3883.00,0.0043
3882.00,0.0043
3881.00,0.0043
3880.00,0.0044
3879.00,0.0044
3878.00,0.0044
3877.00,0.0043
3876.00,0.0043
3875.00,0.0043
3874.00,0.0043
3873.00,0.0043
3872.00,0.0043
3871.00,0.0043
3870.00,0.0043
3869.00,0.0043
3868.00,0.0043
3867.00,0.0042
3866.00,0.0042
3865.00,0.0043
3864.00,0.0043
3863.00,0.0043
3862.00,0.0044
3861.00,0.0044
3860.00,0.0044
3859.00,0.0044
3858.00,0.0044
3857.00,0.0043
3856.00,0.0042
3855.00,0.0042
3854.00,0.0042
3853.00,0.0042
3852.00,0.0041
3851.00,0.0041
3850.00,0.0042
3849.00,0.0043
3848.00,0.0043
3847.00,0.0044
3846.00,0.0044
3845.00,0.0044
3844.00,0.0044
3843.00,0.0044
3842.00,0.0043
3841.00,0.0043
3840.00,0.0042
3839.00,0.0042
3838.00,0.0042
3837.00,0.0041
3836.00,0.0041
3835.00,0.0042
3834.00,0.0042
3833.00,0.0042
3832.00,0.0043
3831.00,0.0043
3830.00,0.0043
3829.00,0.0044
3828.00,0.0044
3827.00,0.0044
3826.00,0.0044
3825.00,0.0043
3824.00,0.0043
3823.00,0.0042
3822.00,0.0042
3821.00,0.0043
3820.00,0.0042
3819.00,0.0042
3818.00,0.0042
3817.00,0.0042
3816.00,0.0043
3815.00,0.0043
3814.00,0.0043
3813.00,0.0043
3812.00,0.0043
3811.00,0.0043
3810.00,0.0043
3809.00,0.0043
3808.00,0.0043
3807.00,0.0044
3806.00,0.0043
3805.00,0.0043
3804.00,0.0043
3803.00,0.0043
3802.00,0.0043
3801.00,0.0043
3800.00,0.0042
3799.00,0.0042
3798.00,0.0043
3797.00,0.0043
3796.00,0.0044
3795.00,0.0044
3794.00,0.0044
3793.00,0.0044
3792.00,0.0044
3791.00,0.0045
3790.00,0.0045
3789.00,0.0044
3788.00,0.0044
3787.00,0.0044
3786.00,0.0044
3785.00,0.0044
3784.00,0.0043
3783.00,0.0043
3782.00,0.0043
3781.00,0.0043
3780.00,0.0043
3779.00,0.0044
3778.00,0.0044
3777.00,0.0044
3776.00,0.0044
3775.00,0.0044
3774.00,0.0044
3773.00,0.0044
3772.00,0.0044
3771.00,0.0044
3770.00,0.0044
3769.00,0.0043
3768.00,0.0043
3767.00,0.0043
3766.00,0.0043
3765.00,0.0043
3764.00,0.0043
3763.00,0.0043
3762.00,0.0043
3761.00,0.0043
3760.00,0.0044
3759.00,0.0044
3758.00,0.0043
3757.00,0.0043
3756.00,0.0043
3755.00,0.0043
3754.00,0.0043
3753.00,0.0043
3752.00,0.0044
3751.00,0.0043
3750.00,0.0042
3749.00,0.0041
3748.00,0.0041
3747.00,0.0040
3746.00,0.0041
3745.00,0.0041
3744.00,0.0042
3743.00,0.0042
3742.00,0.0042
3741.00,0.0042
3740.00,0.0042
3739.00,0.0042
3738.00,0.0041
3737.00,0.0041
3736.00,0.0041
3735.00,0.0041
3734.00,0.0040
3733.00,0.0040
3732.00,0.0040
3731.00,0.0041
3730.00,0.0041
3729.00,0.0041
3728.00,0.0041
3727.00,0.0041
3726.00,0.0041
3725.00,0.0042
3724.00,0.0042
3723.00,0.0042
3722.00,0.0042
3721.00,0.0042
3720.00,0.0042
3719.00,0.0042
3718.00,0.0042
3717.00,0.0042
3716.00,0.0042
3715.00,0.0042
3714.00,0.0041
3713.00,0.0041
3712.00,0.0041
3711.00,0.0041
3710.00,0.0040
3709.00,0.0040
3708.00,0.0041
3707.00,0.0041
3706.00,0.0041
3705.00,0.0042
3704.00,0.0042
3703.00,0.0042
3702.00,0.0043
3701.00,0.0043
3700.00,0.0042
3699.00,0.0042
3698.00,0.0042
3697.00,0.0042
3696.00,0.0042
3695.00,0.0042
3694.00,0.0042
3693.00,0.0041
3692.00,0.0041
3691.00,0.0041
3690.00,0.0041
3689.00,0.0041
3688.00,0.0042
3687.00,0.0042
3686.00,0.0042
3685.00,0.0043
3684.00,0.0043
3683.00,0.0043
3682.00,0.0043
3681.00,0.0043
3680.00,0.0043
3679.00,0.0042
3678.00,0.0042
3677.00,0.0041
3676.00,0.0041
3675.00,0.0041
3674.00,0.0041
3673.00,0.0040
3672.00,0.0040
3671.00,0.0041
3670.00,0.0042
3669.00,0.0042
3668.00,0.0042
3667.00,0.0043
3666.00,0.0043
3665.00,0.0044
3664.00,0.0044
3663.00,0.0044
3662.00,0.0044
3661.00,0.0044
3660.00,0.0044
3659.00,0.0044
3658.00,0.0044
3657.00,0.0044
3656.00,0.0044
3655.00,0.0044
3654.00,0.0044
3653.00,0.0043
3652.00,0.0043
3651.00,0.0043
3650.00,0.0043
3649.00,0.0043
3648.00,0.0043
3647.00,0.0043
3646.00,0.0044
3645.00,0.0045
3644.00,0.0045
3643.00,0.0046
3642.00,0.0046
3641.00,0.0046
3640.00,0.0046
3639.00,0.0047
3638.00,0.0047
3637.00,0.0047
3636.00,0.0048
3635.00,0.0048
3634.00,0.0048
3633.00,0.0048
3632.00,0.0048
3631.00,0.0047
3630.00,0.0047
3629.00,0.0048
3628.00,0.0048
3627.00,0.0048
3626.00,0.0048
3625.00,0.0049
3624.00,0.0050
3623.00,0.0050
3622.00,0.0050
3621.00,0.0050
3620.00,0.0050
3619.00,0.0050
3618.00,0.0050
3617.00,0.0050
3616.00,0.0050
3615.00,0.0051
3614.00,0.0051
3613.00,0.0052
3612.00,0.0052
3611.00,0.0053
3610.00,0.0053
3609.00,0.0053
3608.00,0.0053
3607.00,0.0053
3606.00,0.0054
3605.00,0.0054
3604.00,0.0054
3603.00,0.0055
3602.00,0.0056
3601.00,0.0056
3600.00,0.0057
3599.00,0.0057
3598.00,0.0057
3597.00,0.0057
3596.00,0.0058
3595.00,0.0058
3594.00,0.0058
3593.00,0.0058
3592.00,0.0058
3591.00,0.0059
3590.00,0.0059
3589.00,0.0060
3588.00,0.0060
3587.00,0.0061
3586.00,0.0061
3585.00,0.0061
3584.00,0.0061
3583.00,0.0062
3582.00,0.0062
3581.00,0.0063
3580.00,0.0063
3579.00,0.0064
3578.00,0.0064
3577.00,0.0065
3576.00,0.0065
3575.00,0.0066
3574.00,0.0066
3573.00,0.0067
3572.00,0.0067
3571.00,0.0067
3570.00,0.0068
3569.00,0.0068
3568.00,0.0068
3567.00,0.0068
3566.00,0.0069
3565.00,0.0069
3564.00,0.0070
3563.00,0.0071
3562.00,0.0072
3561.00,0.0072
3560.00,0.0073
3559.00,0.0074
3558.00,0.0075
3557.00,0.0075
3556.00,0.0076
3555.00,0.0076
3554.00,0.0077
3553.00,0.0077
3552.00,0.0077
3551.00,0.0078
3550.00,0.0078
3549.00,0.0079
3548.00,0.0080
3547.00,0.0080
3546.00,0.0081
3545.00,0.0081
3544.00,0.0082
3543.00,0.0083
3542.00,0.0083
3541.00,0.0084
3540.00,0.0085
3539.00,0.0085
3538.00,0.0086
3537.00,0.0087
3536.00,0.0087
3535.00,0.0088
3534.00,0.0088
3533.00,0.0089
3532.00,0.0089
3531.00,0.0090
3530.00,0.0090
3529.00,0.0091
3528.00,0.0091
3527.00,0.0092
3526.00,0.0093
3525.00,0.0093
3524.00,0.0094
3523.00,0.0094
3522.00,0.0095
3521.00,0.0095
3520.00,0.0096
3519.00,0.0096
3518.00,0.0097
3517.00,0.0098
3516.00,0.0098
3515.00,0.0099
3514.00,0.0099
3513.00,0.0099
3512.00,0.0100
3511.00,0.0100
3510.00,0.0100
3509.00,0.0100
3508.00,0.0101
3507.00,0.0101
3506.00,0.0102
3505.00,0.0102
3504.00,0.0103
3503.00,0.0104
3502.00,0.0104
3501.00,0.0105
3500.00,0.0105
3499.00,0.0106
3498.00,0.0107
3497.00,0.0108
3496.00,0.0108
3495.00,0.0109
3494.00,0.0109
3493.00,0.0109
3492.00,0.0110
3491.00,0.0110
3490.00,0.0111
3489.00,0.0112
3488.00,0.0112
3487.00,0.0113
3486.00,0.0113
3485.00,0.0114
3484.00,0.0115
3483.00,0.0115
3482.00,0.0116
3481.00,0.0117
3480.00,0.0118
3479.00,0.0119
3478.00,0.0120
3477.00,0.0120
3476.00,0.0121
3475.00,0.0122
3474.00,0.0123
3473.00,0.0124
3472.00,0.0125
3471.00,0.0127
3470.00,0.0128
3469.00,0.0129
3468.00,0.0129
3467.00,0.0130
3466.00,0.0131
3465.00,0.0132
3464.00,0.0133
3463.00,0.0134
3462.00,0.0135
3461.00,0.0136
3460.00,0.0137
3459.00,0.0138
3458.00,0.0139
3457.00,0.0140
3456.00,0.0142
3455.00,0.0143
3454.00,0.0144
3453.00,0.0145
3452.00,0.0146
3451.00,0.0147
3450.00,0.0148
3449.00,0.0149
3448.00,0.0150
3447.00,0.0151
3446.00,0.0153
3445.00,0.0154
3444.00,0.0155
3443.00,0.0157
3442.00,0.0158
3441.00,0.0160
3440.00,0.0161
3439.00,0.0163
3438.00,0.0165
3437.00,0.0166
3436.00,0.0168
3435.00,0.0170
3434.00,0.0171
3433.00,0.0173
3432.00,0.0174
3431.00,0.0176
3430.00,0.0178
3429.00,0.0179
3428.00,0.0181
3427.00,0.0183
3426.00,0.0184
3425.00,0.0186
3424.00,0.0188
3423.00,0.0190
3422.00,0.0192
3421.00,0.0194
3420.00,0.0196
3419.00,0.0198
3418.00,0.0200
3417.00,0.0202
3416.00,0.0204
3415.00,0.0206
3414.00,0.0207
3413.00,0.0209
3412.00,0.0210
3411.00,0.0212
3410.00,0.0213
3409.00,0.0214
3408.00,0.0215
3407.00,0.0216
3406.00,0.0216
3405.00,0.0217
3404.00,0.0218
3403.00,0.0218
3402.00,0.0219
3401.00,0.0219
3400.00,0.0219
3399.00,0.0219
3398.00,0.0218
3397.00,0.0218
3396.00,0.0218
3395.00,0.0217
3394.00,0.0217
3393.00,0.0216
3392.00,0.0215
3391.00,0.0214
3390.00,0.0213
3389.00,0.0212
3388.00,0.0211
3387.00,0.0210
3386.00,0.0209
3385.00,0.0208
3384.00,0.0206
3383.00,0.0205
3382.00,0.0204
3381.00,0.0203
3380.00,0.0202
3379.00,0.0201
3378.00,0.0200
3377.00,0.0199
3376.00,0.0198
3375.00,0.0196
3374.00,0.0195
3373.00,0.0194
3372.00,0.0192
3371.00,0.0191
3370.00,0.0190
3369.00,0.0189
3368.00,0.0188
3367.00,0.0187
3366.00,0.0186
3365.00,0.0185
3364.00,0.0184
3363.00,0.0184
3362.00,0.0183
3361.00,0.0182
3360.00,0.0181
3359.00,0.0180
3358.00,0.0179
3357.00,0.0178
3356.00,0.0178
3355.00,0.0177
3354.00,0.0177
3353.00,0.0176
3352.00,0.0175
3351.00,0.0175
3350.00,0.0174
3349.00,0.0174
3348.00,0.0174
3347.00,0.0173
3346.00,0.0173
3345.00,0.0172
3344.00,0.0172
3343.00,0.0171
3342.00,0.0171
3341.00,0.0171
3340.00,0.0170
3339.00,0.0170
3338.00,0.0170
3337.00,0.0170
3336.00,0.0170
3335.00,0.0170
3334.00,0.0170
3333.00,0.0170
3332.00,0.0170
3331.00,0.0170
3330.00,0.0170
3329.00,0.0170
3328.00,0.0170
3327.00,0.0170
3326.00,0.0170
3325.00,0.0170
3324.00,0.0170
3323.00,0.0170
3322.00,0.0171
3321.00,0.0172
3320.00,0.0172
3319.00,0.0173
3318.00,0.0173
3317.00,0.0173
3316.00,0.0174
3315.00,0.0174
3314.00,0.0174
3313.00,0.0174
3312.00,0.0174
3311.00,0.0174
3310.00,0.0174
3309.00,0.0174
3308.00,0.0174
3307.00,0.0175
3306.00,0.0176
3305.00,0.0177
3304.00,0.0177
3303.00,0.0178
3302.00,0.0179
3301.00,0.0180
3300.00,0.0180
3299.00,0.0181
3298.00,0.0181
3297.00,0.0182
3296.00,0.0182
3295.00,0.0183
3294.00,0.0183
3293.00,0.0184
3292.00,0.0185
3291.00,0.0185
3290.00,0.0186
3289.00,0.0187
3288.00,0.0188
3287.00,0.0188
3286.00,0.0189
3285.00,0.0189
3284.00,0.0190
3283.00,0.0190
3282.00,0.0191
3281.00,0.0192
3280.00,0.0192
3279.00,0.0193
3278.00,0.0194
3277.00,0.0194
3276.00,0.0195
3275.00,0.0195
3274.00,0.0196
3273.00,0.0196
3272.00,0.0197
3271.00,0.0198
3270.00,0.0198
3269.00,0.0199
3268.00,0.0200
3267.00,0.0201
3266.00,0.0201
3265.00,0.0202
3264.00,0.0203
3263.00,0.0203
3262.00,0.0203
3261.00,0.0204
3260.00,0.0204
3259.00,0.0204
3258.00,0.0205
3257.00,0.0206
3256.00,0.0206
3255.00,0.0207
3254.00,0.0207
3253.00,0.0208
3252.00,0.0208
3251.00,0.0209
3250.00,0.0209
3249.00,0.0209
3248.00,0.0209
3247.00,0.0210
3246.00,0.0210
3245.00,0.0210
3244.00,0.0211
3243.00,0.0211
3242.00,0.0212
3241.00,0.0212
3240.00,0.0212
3239.00,0.0212
3238.00,0.0212
3237.00,0.0211
3236.00,0.0211
3235.00,0.0210
3234.00,0.0210
3233.00,0.0210
3232.00,0.0210
3231.00,0.0210
3230.00,0.0209
3229.00,0.0209
3228.00,0.0208
3227.00,0.0208
3226.00,0.0207
3225.00,0.0206
3224.00,0.0206
3223.00,0.0205
3222.00,0.0205
3221.00,0.0204
3220.00,0.0204
3219.00,0.0203
3218.00,0.0202
3217.00,0.0201
3216.00,0.0200
3215.00,0.0200
3214.00,0.0199
3213.00,0.0198
3212.00,0.0196
3211.00,0.0195
3210.00,0.0194
3209.00,0.0193
3208.00,0.0192
3207.00,0.0191
3206.00,0.0190
3205.00,0.0188
3204.00,0.0187
3203.00,0.0186
3202.00,0.0184
3201.00,0.0183
3200.00,0.0182
3199.00,0.0181
3198.00,0.0180
3197.00,0.0178
3196.00,0.0177
3195.00,0.0176
3194.00,0.0175
3193.00,0.0173
3192.00,0.0172
3191.00,0.0171
3190.00,0.0170
3189.00,0.0168
3188.00,0.0167
3187.00,0.0166
3186.00,0.0164
3185.00,0.0163
3184.00,0.0162
3183.00,0.0161
3182.00,0.0160
3181.00,0.0159
3180.00,0.0158
3179.00,0.0156
3178.00,0.0155
3177.00,0.0154
3176.00,0.0152
3175.00,0.0151
3174.00,0.0150
3173.00,0.0149
3172.00,0.0147
3171.00,0.0146
3170.00,0.0145
3169.00,0.0144
3168.00,0.0143
3167.00,0.0141
3166.00,0.0140
3165.00,0.0138
3164.00,0.0137
3163.00,0.0136
3162.00,0.0135
3161.00,0.0134
3160.00,0.0133
3159.00,0.0132
3158.00,0.0130
3157.00,0.0129
3156.00,0.0127
3155.00,0.0126
3154.00,0.0125
3153.00,0.0124
3152.00,0.0123
3151.00,0.0122
3150.00,0.0121
3149.00,0.0119
3148.00,0.0118
3147.00,0.0117
3146.00,0.0116
3145.00,0.0116
3144.00,0.0115
3143.00,0.0114
3142.00,0.0113
3141.00,0.0112
3140.00,0.0111
3139.00,0.0110
3138.00,0.0110
3137.00,0.0109
3136.00,0.0109
3135.00,0.0108
3134.00,0.0107
3133.00,0.0106
3132.00,0.0105
3131.00,0.0104
3130.00,0.0103
3129.00,0.0103
3128.00,0.0102
3127.00,0.0102
3126.00,0.0101
3125.00,0.0100
3124.00,0.0100
3123.00,0.0099
3122.00,0.0099
3121.00,0.0098
3120.00,0.0097
3119.00,0.0097
3118.00,0.0097
3117.00,0.0096
3116.00,0.0096
3115.00,0.0095
3114.00,0.0094
3113.00,0.0093
3112.00,0.0092
3111.00,0.0092
3110.00,0.0091
3109.00,0.0091
3108.00,0.0090
3107.00,0.0089
3106.00,0.0089
3105.00,0.0088
3104.00,0.0088
3103.00,0.0087
3102.00,0.0087
3101.00,0.0086
3100.00,0.0085
3099.00,0.0085
3098.00,0.0085
3097.00,0.0085
3096.00,0.0085
3095.00,0.0084
3094.00,0.0084
3093.00,0.0084
3092.00,0.0085
3091.00,0.0085
3090.00,0.0085
3089.00,0.0086
3088.00,0.0086
3087.00,0.0086
3086.00,0.0086
3085.00,0.0086
3084.00,0.0086
3083.00,0.0086
3082.00,0.0086
3081.00,0.0086
3080.00,0.0085
3079.00,0.0085
3078.00,0.0085
3077.00,0.0085
3076.00,0.0084
3075.00,0.0084
3074.00,0.0083
3073.00,0.0083
3072.00,0.0083
3071.00,0.0083
3070.00,0.0082
3069.00,0.0082
3068.00,0.0082
3067.00,0.0081
3066.00,0.0081
3065.00,0.0081
3064.00,0.0081
3063.00,0.0081
3062.00,0.0081
3061.00,0.0081
3060.00,0.0082
3059.00,0.0082
3058.00,0.0082
3057.00,0.0082
3056.00,0.0082
3055.00,0.0082
3054.00,0.0082
3053.00,0.0082
3052.00,0.0083
3051.00,0.0082
3050.00,0.0082
3049.00,0.0082
3048.00,0.0082
3047.00,0.0081
3046.00,0.0081
3045.00,0.0081
3044.00,0.0081
3043.00,0.0081
3042.00,0.0081
3041.00,0.0081
3040.00,0.0082
3039.00,0.0082
3038.00,0.0083
3037.00,0.0084
3036.00,0.0085
3035.00,0.0086
3034.00,0.0086
3033.00,0.0086
3032.00,0.0086
3031.00,0.0086
3030.00,0.0085
3029.00,0.0085
3028.00,0.0084
3027.00,0.0084
3026.00,0.0083
3025.00,0.0082
3024.00,0.0081
3023.00,0.0080
3022.00,0.0080
3021.00,0.0079
3020.00,0.0078
3019.00,0.0078
3018.00,0.0078
3017.00,0.0078
3016.00,0.0078
3015.00,0.0077
3014.00,0.0077
3013.00,0.0078
3012.00,0.0078
3011.00,0.0078
3010.00,0.0079
3009.00,0.0080
3008.00,0.0081
3007.00,0.0082
3006.00,0.0084
3005.00,0.0085
3004.00,0.0087
3003.00,0.0089
3002.00,0.0091
3001.00,0.0093
3000.00,0.0096
2999.00,0.0099
2998.00,0.0102
2997.00,0.0106
2996.00,0.0110
2995.00,0.0114
2994.00,0.0117
2993.00,0.0121
2992.00,0.0124
2991.00,0.0127
2990.00,0.0130
2989.00,0.0133
2988.00,0.0136
2987.00,0.0139
2986.00,0.0143
2985.00,0.0146
2984.00,0.0151
2983.00,0.0156
2982.00,0.0162
2981.00,0.0168
2980.00,0.0175
2979.00,0.0180
2978.00,0.0183
2977.00,0.0185
2976.00,0.0187
2975.00,0.0189
2974.00,0.0193
2973.00,0.0199
2972.00,0.0207
2971.00,0.0214
2970.00,0.0221
2969.00,0.0226
2968.00,0.0230
2967.00,0.0233
2966.00,0.0236
2965.00,0.0239
2964.00,0.0243
2963.00,0.0248
2962.00,0.0252
2961.00,0.0256
2960.00,0.0258
2959.00,0.0259
2958.00,0.0257
2957.00,0.0253
2956.00,0.0247
2955.00,0.0240
2954.00,0.0233
2953.00,0.0226
2952.00,0.0220
2951.00,0.0215
2950.00,0.0211
2949.00,0.0208
2948.00,0.0207
2947.00,0.0207
2946.00,0.0209
2945.00,0.0212
2944.00,0.0216
2943.00,0.0222
2942.00,0.0227
2941.00,0.0234
2940.00,0.0242
2939.00,0.0250
2938.00,0.0260
2937.00,0.0271
2936.00,0.0284
2935.00,0.0298
2934.00,0.0313
2933.00,0.0328
2932.00,0.0343
2931.00,0.0356
2930.00,0.0368
2929.00,0.0376
2928.00,0.0381
2927.00,0.0382
2926.00,0.0379
2925.00,0.0373
2924.00,0.0365
2923.00,0.0354
2922.00,0.0343
2921.00,0.0331
2920.00,0.0319
2919.00,0.0308
2918.00,0.0296
2917.00,0.0285
2916.00,0.0275
2915.00,0.0265
2914.00,0.0256
2913.00,0.0248
2912.00,0.0240
2911.00,0.0233
2910.00,0.0227
2909.00,0.0221
2908.00,0.0215
2907.00,0.0210
2906.00,0.0205
2905.00,0.0200
2904.00,0.0196
2903.00,0.0192
2902.00,0.0188
2901.00,0.0184
2900.00,0.0181
2899.00,0.0177
2898.00,0.0174
2897.00,0.0172
2896.00,0.0169
2895.00,0.0166
2894.00,0.0164
2893.00,0.0162
2892.00,0.0160
2891.00,0.0158
2890.00,0.0156
2889.00,0.0155
2888.00,0.0154
2887.00,0.0153
2886.00,0.0152
2885.00,0.0151
2884.00,0.0151
2883.00,0.0151
2882.00,0.0151
2881.00,0.0152
2880.00,0.0155
2879.00,0.0158
2878.00,0.0162
2877.00,0.0167
2876.00,0.0172
2875.00,0.0177
2874.00,0.0181
2873.00,0.0185
2872.00,0.0187
2871.00,0.0187
2870.00,0.0187
2869.00,0.0185
2868.00,0.0184
2867.00,0.0184
2866.00,0.0185
2865.00,0.0188
2864.00,0.0192
2863.00,0.0199
2862.00,0.0208
2861.00,0.0217
2860.00,0.0228
2859.00,0.0237
2858.00,0.0245
2857.00,0.0249
2856.00,0.0251
2855.00,0.0250
2854.00,0.0247
2853.00,0.0242
2852.00,0.0235
2851.00,0.0226
2850.00,0.0215
2849.00,0.0204
2848.00,0.0192
2847.00,0.0180
2846.00,0.0169
2845.00,0.0159
2844.00,0.0149
2843.00,0.0141
2842.00,0.0134
2841.00,0.0127
2840.00,0.0122
2839.00,0.0117
2838.00,0.0113
2837.00,0.0109
2836.00,0.0106
2835.00,0.0104
2834.00,0.0101
2833.00,0.0099
2832.00,0.0097
2831.00,0.0095
2830.00,0.0093
2829.00,0.0092
2828.00,0.0090
2827.00,0.0089
2826.00,0.0087
2825.00,0.0086
2824.00,0.0084
2823.00,0.0083
2822.00,0.0082
2821.00,0.0081
2820.00,0.0080
2819.00,0.0079
2818.00,0.0079
2817.00,0.0078
2816.00,0.0077
2815.00,0.0076
2814.00,0.0076
2813.00,0.0075
2812.00,0.0074
2811.00,0.0074
2810.00,0.0073
2809.00,0.0073
2808.00,0.0073
2807.00,0.0072
2806.00,0.0072
2805.00,0.0072
2804.00,0.0071
2803.00,0.0071
2802.00,0.0071
2801.00,0.0070
2800.00,0.0070
2799.00,0.0069
2798.00,0.0069
2797.00,0.0068
2796.00,0.0068
2795.00,0.0068
2794.00,0.0067
2793.00,0.0067
2792.00,0.0067
2791.00,0.0066
2790.00,0.0066
2789.00,0.0066
2788.00,0.0065
2787.00,0.0065
2786.00,0.0065
2785.00,0.0064
2784.00,0.0064
2783.00,0.0064
2782.00,0.0063
2781.00,0.0063
2780.00,0.0063
2779.00,0.0063
2778.00,0.0062
2777.00,0.0062
2776.00,0.0062
2775.00,0.0062
2774.00,0.0061
2773.00,0.0061
2772.00,0.0061
2771.00,0.0062
2770.00,0.0062
2769.00,0.0061
2768.00,0.0061
2767.00,0.0061
2766.00,0.0061
2765.00,0.0061
2764.00,0.0061
2763.00,0.0061
2762.00,0.0061
2761.00,0.0061
2760.00,0.0061
2759.00,0.0061
2758.00,0.0061
2757.00,0.0061
2756.00,0.0061
2755.00,0.0062
2754.00,0.0062
2753.00,0.0062
2752.00,0.0062
2751.00,0.0062
2750.00,0.0062
2749.00,0.0062
2748.00,0.0062
2747.00,0.0062
2746.00,0.0062
2745.00,0.0062
2744.00,0.0062
2743.00,0.0062
2742.00,0.0062
2741.00,0.0062
2740.00,0.0063
2739.00,0.0063
2738.00,0.0063
2737.00,0.0064
2736.00,0.0064
2735.00,0.0065
2734.00,0.0065
2733.00,0.0066
2732.00,0.0066
2731.00,0.0066
2730.00,0.0066
2729.00,0.0066
2728.00,0.0066
2727.00,0.0066
2726.00,0.0065
2725.00,0.0065
2724.00,0.0065
2723.00,0.0064
2722.00,0.0064
2721.00,0.0064
2720.00,0.0064
2719.00,0.0064
2718.00,0.0063
2717.00,0.0063
2716.00,0.0063
2715.00,0.0063
2714.00,0.0063
2713.00,0.0062
2712.00,0.0062
2711.00,0.0062
2710.00,0.0062
2709.00,0.0062
2708.00,0.0062
2707.00,0.0062
2706.00,0.0062
2705.00,0.0062
2704.00,0.0062
2703.00,0.0062
2702.00,0.0061
2701.00,0.0061
2700.00,0.0061
2699.00,0.0061
2698.00,0.0061
2697.00,0.0061
2696.00,0.0061
2695.00,0.0061
2694.00,0.0061
2693.00,0.0060
2692.00,0.0060
2691.00,0.0060
2690.00,0.0060
2689.00,0.0059
2688.00,0.0059
2687.00,0.0059
2686.00,0.0059
2685.00,0.0059
2684.00,0.0059
2683.00,0.0059
2682.00,0.0059
2681.00,0.0059
2680.00,0.0059
2679.00,0.0059
2678.00,0.0059
2677.00,0.0059
2676.00,0.0059
2675.00,0.0059
2674.00,0.0059
2673.00,0.0059
2672.00,0.0059
2671.00,0.0059
2670.00,0.0059
2669.00,0.0059
2668.00,0.0060
2667.00,0.0060
2666.00,0.0060
2665.00,0.0060
2664.00,0.0061
2663.00,0.0062
2662.00,0.0062
2661.00,0.0063
2660.00,0.0063
2659.00,0.0063
2658.00,0.0063
2657.00,0.0063
2656.00,0.0063
2655.00,0.0063
2654.00,0.0063
2653.00,0.0064
2652.00,0.0064
2651.00,0.0064
2650.00,0.0064
2649.00,0.0064
2648.00,0.0064
2647.00,0.0064
2646.00,0.0064
2645.00,0.0064
2644.00,0.0064
2643.00,0.0063
2642.00,0.0063
2641.00,0.0063
2640.00,0.0063
2639.00,0.0063
2638.00,0.0063
2637.00,0.0062
2636.00,0.0062
2635.00,0.0062
2634.00,0.0062
2633.00,0.0062
2632.00,0.0061
2631.00,0.0061
2630.00,0.0061
2629.00,0.0060
2628.00,0.0060
2627.00,0.0059
2626.00,0.0059
2625.00,0.0059
2624.00,0.0059
2623.00,0.0059
2622.00,0.0059
2621.00,0.0059
2620.00,0.0059
2619.00,0.0059
2618.00,0.0058
2617.00,0.0058
2616.00,0.0058
2615.00,0.0058
2614.00,0.0058
2613.00,0.0058
2612.00,0.0059
2611.00,0.0059
2610.00,0.0059
2609.00,0.0058
2608.00,0.0058
2607.00,0.0058
2606.00,0.0058
2605.00,0.0058
2604.00,0.0058
2603.00,0.0059
2602.00,0.0059
2601.00,0.0059
2600.00,0.0059
2599.00,0.0059
2598.00,0.0059
2597.00,0.0059
2596.00,0.0059
2595.00,0.0059
2594.00,0.0059
2593.00,0.0059
2592.00,0.0059
2591.00,0.0059
2590.00,0.0059
2589.00,0.0059
2588.00,0.0059
2587.00,0.0059
2586.00,0.0059
2585.00,0.0059
2584.00,0.0059
2583.00,0.0059
2582.00,0.0059
2581.00,0.0059
2580.00,0.0059
2579.00,0.0058
2578.00,0.0058
2577.00,0.0058
2576.00,0.0057
2575.00,0.0057
2574.00,0.0057
2573.00,0.0057
2572.00,0.0057
2571.00,0.0057
2570.00,0.0057
2569.00,0.0057
2568.00,0.0058
2567.00,0.0058
2566.00,0.0058
2565.00,0.0058
2564.00,0.0057
2563.00,0.0057
2562.00,0.0056
2561.00,0.0056
2560.00,0.0056
2559.00,0.0056
2558.00,0.0055
2557.00,0.0055
2556.00,0.0055
2555.00,0.0055
2554.00,0.0055
2553.00,0.0055
2552.00,0.0055
2551.00,0.0055
2550.00,0.0055
2549.00,0.0054
2548.00,0.0054
2547.00,0.0054
2546.00,0.0053
2545.00,0.0054
2544.00,0.0054
2543.00,0.0054
2542.00,0.0054
2541.00,0.0054
2540.00,0.0054
2539.00,0.0054
2538.00,0.0054
2537.00,0.0054
2536.00,0.0054
2535.00,0.0054
2534.00,0.0055
2533.00,0.0055
2532.00,0.0055
2531.00,0.0055
2530.00,0.0054
2529.00,0.0054
2528.00,0.0053
2527.00,0.0053
2526.00,0.0053
2525.00,0.0053
2524.00,0.0053
2523.00,0.0053
2522.00,0.0052
2521.00,0.0052
2520.00,0.0052
2519.00,0.0052
2518.00,0.0052
2517.00,0.0051
2516.00,0.0051
2515.00,0.0051
2514.00,0.0051
2513.00,0.0051
2512.00,0.0052
2511.00,0.0052
2510.00,0.0052
2509.00,0.0051
2508.00,0.0051
2507.00,0.0050
2506.00,0.0050
2505.00,0.0049
2504.00,0.0049
2503.00,0.0049
2502.00,0.0049
2501.00,0.0049
2500.00,0.0049
2499.00,0.0049
2498.00,0.0049
2497.00,0.0050
2496.00,0.0050
2495.00,0.0050
2494.00,0.0050
2493.00,0.0050
2492.00,0.0050
2491.00,0.0050
2490.00,0.0049
2489.00,0.0049
2488.00,0.0049
2487.00,0.0049
2486.00,0.0048
2485.00,0.0048
2484.00,0.0048
2483.00,0.0048
2482.00,0.0048
2481.00,0.0048
2480.00,0.0048
2479.00,0.0048
2478.00,0.0048
2477.00,0.0048
2476.00,0.0048
2475.00,0.0049
2474.00,0.0049
2473.00,0.0049
2472.00,0.0049
2471.00,0.0049
2470.00,0.0048
2469.00,0.0048
2468.00,0.0048
2467.00,0.0047
2466.00,0.0047
2465.00,0.0047
2464.00,0.0047
2463.00,0.0047
2462.00,0.0047
2461.00,0.0047
2460.00,0.0048
2459.00,0.0048
2458.00,0.0048
2457.00,0.0048
2456.00,0.0048
2455.00,0.0048
2454.00,0.0048
2453.00,0.0048
2452.00,0.0049
2451.00,0.0048
2450.00,0.0048
2449.00,0.0048
2448.00,0.0048
2447.00,0.0048
2446.00,0.0048
2445.00,0.0048
2444.00,0.0048
2443.00,0.0048
2442.00,0.0048
2441.00,0.0047
2440.00,0.0046
2439.00,0.0046
2438.00,0.0046
2437.00,0.0046
2436.00,0.0046
2435.00,0.0046
2434.00,0.0046
2433.00,0.0046
2432.00,0.0046
2431.00,0.0046
2430.00,0.0046
2429.00,0.0046
2428.00,0.0046
2427.00,0.0046
2426.00,0.0046
2425.00,0.0046
2424.00,0.0046
2423.00,0.0046
2422.00,0.0045
2421.00,0.0045
2420.00,0.0045
2419.00,0.0046
2418.00,0.0046
2417.00,0.0045
2416.00,0.0045
2415.00,0.0045
2414.00,0.0045
2413.00,0.0045
2412.00,0.0045
2411.00,0.0046
2410.00,0.0045
2409.00,0.0045
2408.00,0.0045
2407.00,0.0044
2406.00,0.0044
2405.00,0.0044
2404.00,0.0045
2403.00,0.0045
2402.00,0.0044
2401.00,0.0044
2400.00,0.0044
2399.00,0.0044
2398.00,0.0044
2397.00,0.0044
2396.00,0.0044
2395.00,0.0044
2394.00,0.0043
2393.00,0.0043
2392.00,0.0043
2391.00,0.0043
2390.00,0.0043
2389.00,0.0043
2388.00,0.0043
2387.00,0.0043
2386.00,0.0043
2385.00,0.0042
2384.00,0.0042
2383.00,0.0041
2382.00,0.0041
2381.00,0.0041
2380.00,0.0040
2379.00,0.0040
2378.00,0.0040
2377.00,0.0041
2376.00,0.0041
2375.00,0.0041
2374.00,0.0041
2373.00,0.0041
2372.00,0.0041
2371.00,0.0041
2370.00,0.0041
2369.00,0.0041
2368.00,0.0041
2367.00,0.0041
2366.00,0.0041
2365.00,0.0042
2364.00,0.0042
2363.00,0.0042
2362.00,0.0042
2361.00,0.0042
2360.00,0.0042
2359.00,0.0042
2358.00,0.0042
2357.00,0.0042
2356.00,0.0042
2355.00,0.0042
2354.00,0.0042
2353.00,0.0042
2352.00,0.0042
2351.00,0.0043
2350.00,0.0043
2349.00,0.0043
2348.00,0.0043
2347.00,0.0043
2346.00,0.0043
2345.00,0.0043
2344.00,0.0044
2343.00,0.0044
2342.00,0.0045
2341.00,0.0045
2340.00,0.0046
2339.00,0.0046
2338.00,0.0045
2337.00,0.0045
2336.00,0.0045
2335.00,0.0044
2334.00,0.0044
2333.00,0.0044
2332.00,0.0044
2331.00,0.0044
2330.00,0.0044
2329.00,0.0046
2328.00,0.0049
2327.00,0.0052
2326.00,0.0055
2325.00,0.0056
2324.00,0.0055
2323.00,0.0054
2322.00,0.0052
2321.00,0.0051
2320.00,0.0051
2319.00,0.0050
2318.00,0.0050
2317.00,0.0050
2316.00,0.0050
2315.00,0.0049
2314.00,0.0049
2313.00,0.0048
2312.00,0.0048
2311.00,0.0048
2310.00,0.0048
2309.00,0.0047
2308.00,0.0047
2307.00,0.0047
2306.00,0.0047
2305.00,0.0048
2304.00,0.0048
2303.00,0.0048
2302.00,0.0048
2301.00,0.0049
2300.00,0.0049
2299.00,0.0050
2298.00,0.0050
2297.00,0.0050
2296.00,0.0051
2295.00,0.0051
2294.00,0.0052
2293.00,0.0053
2292.00,0.0053
2291.00,0.0054
2290.00,0.0054
2289.00,0.0054
2288.00,0.0054
2287.00,0.0054
2286.00,0.0054
2285.00,0.0053
2284.00,0.0052
2283.00,0.0052
2282.00,0.0051
2281.00,0.0051
2280.00,0.0051
2279.00,0.0050
2278.00,0.0050
2277.00,0.0050
2276.00,0.0050
2275.00,0.0050
2274.00,0.0049
2273.00,0.0048
2272.00,0.0048
2271.00,0.0047
2270.00,0.0047
2269.00,0.0047
2268.00,0.0047
2267.00,0.0046
2266.00,0.0045
2265.00,0.0045
2264.00,0.0045
2263.00,0.0046
2262.00,0.0046
2261.00,0.0047
2260.00,0.0047
2259.00,0.0046
2258.00,0.0046
2257.00,0.0045
2256.00,0.0044
2255.00,0.0043
2254.00,0.0043
2253.00,0.0043
2252.00,0.0044
2251.00,0.0044
2250.00,0.0044
2249.00,0.0044
2248.00,0.0044
2247.00,0.0045
2246.00,0.0045
2245.00,0.0045
2244.00,0.0045
2243.00,0.0045
2242.00,0.0045
2241.00,0.0045
2240.00,0.0045
2239.00,0.0045
2238.00,0.0045
2237.00,0.0045
2236.00,0.0045
2235.00,0.0045
2234.00,0.0045
2233.00,0.0046
2232.00,0.0046
2231.00,0.0046
2230.00,0.0045
2229.00,0.0045
2228.00,0.0044
2227.00,0.0044
2226.00,0.0044
2225.00,0.0045
2224.00,0.0046
2223.00,0.0047
2222.00,0.0048
2221.00,0.0048
2220.00,0.0047
2219.00,0.0047
2218.00,0.0046
2217.00,0.0046
2216.00,0.0045
2215.00,0.0045
2214.00,0.0045
2213.00,0.0046
2212.00,0.0047
2211.00,0.0048
2210.00,0.0047
2209.00,0.0046
2208.00,0.0046
2207.00,0.0046
2206.00,0.0046
2205.00,0.0045
2204.00,0.0045
2203.00,0.0045
2202.00,0.0045
2201.00,0.0044
2200.00,0.0044
2199.00,0.0044
2198.00,0.0043
2197.00,0.0043
2196.00,0.0044
2195.00,0.0045
2194.00,0.0046
2193.00,0.0047
2192.00,0.0047
2191.00,0.0047
2190.00,0.0046
2189.00,0.0045
2188.00,0.0045
2187.00,0.0046
2186.00,0.0046
2185.00,0.0045
2184.00,0.0044
2183.00,0.0041
2182.00,0.0040
2181.00,0.0040
2180.00,0.0042
2179.00,0.0042
2178.00,0.0041
2177.00,0.0038
2176.00,0.0036
2175.00,0.0036
2174.00,0.0037
2173.00,0.0040
2172.00,0.0043
2171.00,0.0046
2170.00,0.0049
2169.00,0.0051
2168.00,0.0052
2167.00,0.0053
2166.00,0.0052
2165.00,0.0052
2164.00,0.0054
2163.00,0.0054
2162.00,0.0050
2161.00,0.0041
2160.00,0.0029
2159.00,0.0019
2158.00,0.0015
2157.00,0.0015
2156.00,0.0018
2155.00,0.0020
2154.00,0.0021
2153.00,0.0023
2152.00,0.0025
2151.00,0.0027
2150.00,0.0027
2149.00,0.0026
2148.00,0.0026
2147.00,0.0026
2146.00,0.0027
2145.00,0.0027
2144.00,0.0028
2143.00,0.0029
2142.00,0.0029
2141.00,0.0030
2140.00,0.0030
2139.00,0.0029
2138.00,0.0027
2137.00,0.0025
2136.00,0.0023
2135.00,0.0022
2134.00,0.0022
2133.00,0.0024
2132.00,0.0026
2131.00,0.0027
2130.00,0.0029
2129.00,0.0030
2128.00,0.0031
2127.00,0.0032
2126.00,0.0033
2125.00,0.0033
2124.00,0.0034
2123.00,0.0035
2122.00,0.0035
2121.00,0.0035
2120.00,0.0036
2119.00,0.0037
2118.00,0.0039
2117.00,0.0040
2116.00,0.0041
2115.00,0.0041
2114.00,0.0041
2113.00,0.0040
2112.00,0.0040
2111.00,0.0040
2110.00,0.0040
2109.00,0.0040
2108.00,0.0040
2107.00,0.0040
2106.00,0.0040
2105.00,0.0040
2104.00,0.0040
2103.00,0.0040
2102.00,0.0040
2101.00,0.0039
2100.00,0.0039
2099.00,0.0038
2098.00,0.0037
2097.00,0.0035
2096.00,0.0034
2095.00,0.0033
2094.00,0.0033
2093.00,0.0034
2092.00,0.0035
2091.00,0.0036
2090.00,0.0037
2089.00,0.0038
2088.00,0.0039
2087.00,0.0040
2086.00,0.0040
2085.00,0.0041
2084.00,0.0041
2083.00,0.0042
2082.00,0.0042
2081.00,0.0041
2080.00,0.0041
2079.00,0.0041
2078.00,0.0041
2077.00,0.0041
2076.00,0.0040
2075.00,0.0040
2074.00,0.0039
2073.00,0.0040
2072.00,0.0041
2071.00,0.0041
2070.00,0.0041
2069.00,0.0041
2068.00,0.0040
2067.00,0.0039
2066.00,0.0038
2065.00,0.0038
2064.00,0.0038
2063.00,0.0038
2062.00,0.0038
2061.00,0.0037
2060.00,0.0037
2059.00,0.0037
2058.00,0.0037
2057.00,0.0037
2056.00,0.0036
2055.00,0.0037
2054.00,0.0039
2053.00,0.0043
2052.00,0.0047
2051.00,0.0048
2050.00,0.0046
2049.00,0.0043
2048.00,0.0041
2047.00,0.0040
2046.00,0.0040
2045.00,0.0040
2044.00,0.0041
2043.00,0.0041
2042.00,0.0041
2041.00,0.0041
2040.00,0.0040
2039.00,0.0040
2038.00,0.0040
2037.00,0.0041
2036.00,0.0041
2035.00,0.0041
2034.00,0.0039
2033.00,0.0036
2032.00,0.0035
2031.00,0.0034
2030.00,0.0033
2029.00,0.0032
2028.00,0.0032
2027.00,0.0032
2026.00,0.0031
2025.00,0.0031
2024.00,0.0032
2023.00,0.0032
2022.00,0.0031
2021.00,0.0029
2020.00,0.0029
2019.00,0.0029
2018.00,0.0030
2017.00,0.0032
2016.00,0.0032
2015.00,0.0032
2014.00,0.0032
2013.00,0.0032
2012.00,0.0034
2011.00,0.0035
2010.00,0.0034
2009.00,0.0032
2008.00,0.0029
2007.00,0.0027
2006.00,0.0025
2005.00,0.0025
2004.00,0.0026
2003.00,0.0027
2002.00,0.0028
2001.00,0.0029
2000.00,0.0030
1999.00,0.0032
1998.00,0.0032
1997.00,0.0033
1996.00,0.0033
1995.00,0.0033
1994.00,0.0034
1993.00,0.0035
1992.00,0.0036
1991.00,0.0037
1990.00,0.0037
1989.00,0.0038
1988.00,0.0040
1987.00,0.0042
1986.00,0.0044
1985.00,0.0046
1984.00,0.0047
1983.00,0.0049
1982.00,0.0050
1981.00,0.0049
1980.00,0.0046
1979.00,0.0040
1978.00,0.0034
1977.00,0.0030
1976.00,0.0028
1975.00,0.0028
1974.00,0.0027
1973.00,0.0027
1972.00,0.0027
1971.00,0.0028
1970.00,0.0028
1969.00,0.0029
1968.00,0.0029
1967.00,0.0029
1966.00,0.0029
1965.00,0.0029
1964.00,0.0030
1963.00,0.0030
1962.00,0.0029
1961.00,0.0028
1960.00,0.0027
1959.00,0.0027
1958.00,0.0026
1957.00,0.0027
1956.00,0.0027
1955.00,0.0028
1954.00,0.0028
1953.00,0.0028
1952.00,0.0029
1951.00,0.0029
1950.00,0.0030
1949.00,0.0031
1948.00,0.0031
1947.00,0.0030
1946.00,0.0029
1945.00,0.0028
1944.00,0.0028
1943.00,0.0029
1942.00,0.0030
1941.00,0.0031
1940.00,0.0030
1939.00,0.0030
1938.00,0.0029
1937.00,0.0029
1936.00,0.0030
1935.00,0.0031
1934.00,0.0031
1933.00,0.0032
1932.00,0.0032
1931.00,0.0033
1930.00,0.0033
1929.00,0.0033
1928.00,0.0032
1927.00,0.0032
1926.00,0.0031
1925.00,0.0031
1924.00,0.0032
1923.00,0.0033
1922.00,0.0034
1921.00,0.0034
1920.00,0.0034
1919.00,0.0035
1918.00,0.0035
1917.00,0.0035
1916.00,0.0035
1915.00,0.0035
1914.00,0.0035
1913.00,0.0035
1912.00,0.0037
1911.00,0.0038
1910.00,0.0040
1909.00,0.0041
1908.00,0.0042
1907.00,0.0041
1906.00,0.0040
1905.00,0.0039
1904.00,0.0038
1903.00,0.0037
1902.00,0.0037
1901.00,0.0037
1900.00,0.0037
1899.00,0.0037
1898.00,0.0037
1897.00,0.0037
1896.00,0.0038
1895.00,0.0038
1894.00,0.0038
1893.00,0.0038
1892.00,0.0038
1891.00,0.0037
1890.00,0.0036
1889.00,0.0035
1888.00,0.0035
1887.00,0.0035
1886.00,0.0035
1885.00,0.0035
1884.00,0.0035
1883.00,0.0035
1882.00,0.0035
1881.00,0.0035
1880.00,0.0035
1879.00,0.0035
1878.00,0.0034
1877.00,0.0034
1876.00,0.0034
1875.00,0.0034
1874.00,0.0035
1873.00,0.0035
1872.00,0.0035
1871.00,0.0035
1870.00,0.0035
1869.00,0.0034
1868.00,0.0034
1867.00,0.0035
1866.00,0.0035
1865.00,0.0035
1864.00,0.0036
1863.00,0.0035
1862.00,0.0035
1861.00,0.0035
1860.00,0.0036
1859.00,0.0036
1858.00,0.0036
1857.00,0.0036
1856.00,0.0036
1855.00,0.0036
1854.00,0.0036
1853.00,0.0035
1852.00,0.0036
1851.00,0.0036
1850.00,0.0036
1849.00,0.0036
1848.00,0.0036
1847.00,0.0037
1846.00,0.0038
1845.00,0.0038
1844.00,0.0039
1843.00,0.0038
1842.00,0.0037
1841.00,0.0036
1840.00,0.0036
1839.00,0.0036
1838.00,0.0036
1837.00,0.0036
1836.00,0.0036
1835.00,0.0036
1834.00,0.0036
1833.00,0.0035
1832.00,0.0035
1831.00,0.0035
1830.00,0.0034
1829.00,0.0034
1828.00,0.0034
1827.00,0.0034
1826.00,0.0034
1825.00,0.0035
1824.00,0.0035
1823.00,0.0035
1822.00,0.0035
1821.00,0.0035
1820.00,0.0034
1819.00,0.0034
1818.00,0.0033
1817.00,0.0033
1816.00,0.0033
1815.00,0.0034
1814.00,0.0034
1813.00,0.0035
1812.00,0.0035
1811.00,0.0035
1810.00,0.0035
1809.00,0.0035
1808.00,0.0035
1807.00,0.0035
1806.00,0.0036
1805.00,0.0036
1804.00,0.0036
1803.00,0.0036
1802.00,0.0036
1801.00,0.0036
1800.00,0.0036
1799.00,0.0037
1798.00,0.0037
1797.00,0.0037
1796.00,0.0038
1795.00,0.0037
1794.00,0.0037
1793.00,0.0037
1792.00,0.0037
1791.00,0.0037
1790.00,0.0037
1789.00,0.0037
1788.00,0.0037
1787.00,0.0038
1786.00,0.0038
1785.00,0.0038
1784.00,0.0038
1783.00,0.0037
1782.00,0.0037
1781.00,0.0037
1780.00,0.0037
1779.00,0.0038
1778.00,0.0038
1777.00,0.0038
1776.00,0.0039
1775.00,0.0039
1774.00,0.0039
1773.00,0.0039
1772.00,0.0039
1771.00,0.0039
1770.00,0.0039
1769.00,0.0039
1768.00,0.0039
1767.00,0.0039
1766.00,0.0039
1765.00,0.0038
1764.00,0.0038
1763.00,0.0039
1762.00,0.0039
1761.00,0.0039
1760.00,0.0039
1759.00,0.0039
1758.00,0.0039
1757.00,0.0039
1756.00,0.0039
1755.00,0.0038
1754.00,0.0038
1753.00,0.0038
1752.00,0.0037
1751.00,0.0037
1750.00,0.0035
1749.00,0.0035
1748.00,0.0035
1747.00,0.0036
1746.00,0.0036
1745.00,0.0036
1744.00,0.0036
1743.00,0.0036
1742.00,0.0036
1741.00,0.0036
1740.00,0.0036
1739.00,0.0037
1738.00,0.0037
1737.00,0.0037
1736.00,0.0037
1735.00,0.0038
1734.00,0.0038
1733.00,0.0038
1732.00,0.0039
1731.00,0.0040
1730.00,0.0041
1729.00,0.0042
1728.00,0.0043
1727.00,0.0044
1726.00,0.0045
1725.00,0.0046
1724.00,0.0047
1723.00,0.0048
1722.00,0.0048
1721.00,0.0049
1720.00,0.0049
1719.00,0.0049
1718.00,0.0050
1717.00,0.0050
1716.00,0.0052
1715.00,0.0054
1714.00,0.0055
1713.00,0.0056
1712.00,0.0058
1711.00,0.0059
1710.00,0.0060
1709.00,0.0061
1708.00,0.0063
1707.00,0.0064
1706.00,0.0066
1705.00,0.0068
1704.00,0.0070
1703.00,0.0073
1702.00,0.0076
1701.00,0.0079
1700.00,0.0083
1699.00,0.0086
1698.00,0.0090
1697.00,0.0094
1696.00,0.0102
1695.00,0.0109
1694.00,0.0116
1693.00,0.0122
1692.00,0.0130
1691.00,0.0137
1690.00,0.0145
1689.00,0.0153
1688.00,0.0161
1687.00,0.0169
1686.00,0.0176
1685.00,0.0185
1684.00,0.0195
1683.00,0.0205
1682.00,0.0214
1681.00,0.0222
1680.00,0.0231
1679.00,0.0241
1678.00,0.0249
1677.00,0.0257
1676.00,0.0266
1675.00,0.0274
1674.00,0.0281
1673.00,0.0289
1672.00,0.0298
1671.00,0.0306
1670.00,0.0313
1669.00,0.0320
1668.00,0.0328
1667.00,0.0336
1666.00,0.0344
1665.00,0.0351
1664.00,0.0357
1663.00,0.0362
1662.00,0.0365
1661.00,0.0369
1660.00,0.0373
1659.00,0.0377
1658.00,0.0381
1657.00,0.0385
1656.00,0.0389
1655.00,0.0392
1654.00,0.0388
1653.00,0.0377
1652.00,0.0369
1651.00,0.0370
1650.00,0.0373
1649.00,0.0374
1648.00,0.0371
1647.00,0.0364
1646.00,0.0355
1645.00,0.0350
1644.00,0.0347
1643.00,0.0345
1642.00,0.0342
1641.00,0.0338
1640.00,0.0334
1639.00,0.0330
1638.00,0.0325
1637.00,0.0318
1636.00,0.0308
1635.00,0.0300
1634.00,0.0297
1633.00,0.0300
1632.00,0.0306
1631.00,0.0316
1630.00,0.0329
1629.00,0.0348
1628.00,0.0372
1627.00,0.0398
1626.00,0.0422
1625.00,0.0443
1624.00,0.0460
1623.00,0.0472
1622.00,0.0476
1621.00,0.0475
1620.00,0.0469
1619.00,0.0458
1618.00,0.0437
1617.00,0.0408
1616.00,0.0380
1615.00,0.0363
1614.00,0.0356
1613.00,0.0355
1612.00,0.0355
1611.00,0.0353
1610.00,0.0347
1609.00,0.0335
1608.00,0.0320
1607.00,0.0301
1606.00,0.0281
1605.00,0.0263
1604.00,0.0245
1603.00,0.0228
1602.00,0.0214
1601.00,0.0201
1600.00,0.0191
1599.00,0.0184
1598.00,0.0178
1597.00,0.0175
1596.00,0.0174
1595.00,0.0175
1594.00,0.0180
1593.00,0.0189
1592.00,0.0201
1591.00,0.0217
1590.00,0.0237
1589.00,0.0259
1588.00,0.0281
1587.00,0.0301
1586.00,0.0317
1585.00,0.0327
1584.00,0.0332
1583.00,0.0332
1582.00,0.0326
1581.00,0.0317
1580.00,0.0307
1579.00,0.0296
1578.00,0.0283
1577.00,0.0266
1576.00,0.0246
1575.00,0.0229
1574.00,0.0218
1573.00,0.0211
1572.00,0.0206
1571.00,0.0200
1570.00,0.0193
1569.00,0.0187
1568.00,0.0182
1567.00,0.0177
1566.00,0.0170
1565.00,0.0161
1564.00,0.0151
1563.00,0.0143
1562.00,0.0137
1561.00,0.0130
1560.00,0.0122
1559.00,0.0111
1558.00,0.0104
1557.00,0.0101
1556.00,0.0099
1555.00,0.0098
1554.00,0.0097
1553.00,0.0095
1552.00,0.0094
1551.00,0.0093
1550.00,0.0092
1549.00,0.0091
1548.00,0.0090
1547.00,0.0089
1546.00,0.0088
1545.00,0.0086
1544.00,0.0084
1543.00,0.0083
1542.00,0.0081
1541.00,0.0079
1540.00,0.0078
1539.00,0.0078
1538.00,0.0079
1537.00,0.0079
1536.00,0.0079
1535.00,0.0079
1534.00,0.0078
1533.00,0.0077
1532.00,0.0077
1531.00,0.0077
1530.00,0.0077
1529.00,0.0077
1528.00,0.0077
1527.00,0.0077
1526.00,0.0078
1525.00,0.0078
1524.00,0.0078
1523.00,0.0079
1522.00,0.0081
1521.00,0.0083
1520.00,0.0086
1519.00,0.0088
1518.00,0.0091
1517.00,0.0094
1516.00,0.0098
1515.00,0.0102
1514.00,0.0105
1513.00,0.0109
1512.00,0.0112
1511.00,0.0114
1510.00,0.0115
1509.00,0.0116
1508.00,0.0117
1507.00,0.0119
1506.00,0.0123
1505.00,0.0127
1504.00,0.0132
1503.00,0.0137
1502.00,0.0145
1501.00,0.0155
1500.00,0.0168
1499.00,0.0186
1498.00,0.0206
1497.00,0.0224
1496.00,0.0235
1495.00,0.0235
1494.00,0.0229
1493.00,0.0219
1492.00,0.0206
1491.00,0.0189
1490.00,0.0173
1489.00,0.0158
1488.00,0.0146
1487.00,0.0137
1486.00,0.0130
1485.00,0.0124
1484.00,0.0120
1483.00,0.0116
1482.00,0.0112
1481.00,0.0110
1480.00,0.0110
1479.00,0.0110
1478.00,0.0111
1477.00,0.0112
1476.00,0.0115
1475.00,0.0119
1474.00,0.0124
1473.00,0.0134
1472.00,0.0148
1471.00,0.0165
1470.00,0.0185
1469.00,0.0205
1468.00,0.0227
1467.00,0.0246
1466.00,0.0262
1465.00,0.0273
1464.00,0.0278
1463.00,0.0281
1462.00,0.0283
1461.00,0.0286
1460.00,0.0287
1459.00,0.0286
1458.00,0.0280
1457.00,0.0269
1456.00,0.0257
1455.00,0.0249
1454.00,0.0243
1453.00,0.0240
1452.00,0.0239
1451.00,0.0240
1450.00,0.0243
1449.00,0.0249
1448.00,0.0255
1447.00,0.0264
1446.00,0.0274
1445.00,0.0286
1444.00,0.0299
1443.00,0.0312
1442.00,0.0324
1441.00,0.0335
1440.00,0.0346
1439.00,0.0354
1438.00,0.0361
1437.00,0.0366
1436.00,0.0371
1435.00,0.0375
1434.00,0.0381
1433.00,0.0388
1432.00,0.0394
1431.00,0.0398
1430.00,0.0401
1429.00,0.0404
1428.00,0.0406
1427.00,0.0408
1426.00,0.0409
1425.00,0.0408
1424.00,0.0405
1423.00,0.0402
1422.00,0.0398
1421.00,0.0392
1420.00,0.0381
1419.00,0.0364
1418.00,0.0345
1417.00,0.0329
1416.00,0.0316
1415.00,0.0305
1414.00,0.0296
1413.00,0.0288
1412.00,0.0283
1411.00,0.0281
1410.00,0.0283
1409.00,0.0288
1408.00,0.0297
1407.00,0.0308
1406.00,0.0323
1405.00,0.0340
1404.00,0.0357
1403.00,0.0371
1402.00,0.0382
1401.00,0.0389
1400.00,0.0389
1399.00,0.0382
1398.00,0.0369
1397.00,0.0353
1396.00,0.0333
1395.00,0.0310
1394.00,0.0288
1393.00,0.0269
1392.00,0.0255
1391.00,0.0246
1390.00,0.0241
1389.00,0.0244
1388.00,0.0251
1387.00,0.0259
1386.00,0.0263
1385.00,0.0260
1384.00,0.0253
1383.00,0.0248
1382.00,0.0246
1381.00,0.0248
1380.00,0.0250
1379.00,0.0251
1378.00,0.0249
1377.00,0.0245
1376.00,0.0237
1375.00,0.0227
1374.00,0.0216
1373.00,0.0207
1372.00,0.0202
1371.00,0.0201
1370.00,0.0204
1369.00,0.0213
1368.00,0.0226
1367.00,0.0241
1366.00,0.0256
1365.00,0.0266
1364.00,0.0273
1363.00,0.0280
1362.00,0.0289
1361.00,0.0299
1360.00,0.0303
1359.00,0.0298
1358.00,0.0285
1357.00,0.0268
1356.00,0.0251
1355.00,0.0239
1354.00,0.0230
1353.00,0.0224
1352.00,0.0220
1351.00,0.0218
1350.00,0.0217
1349.00,0.0217
1348.00,0.0217
1347.00,0.0217
1346.00,0.0215
1345.00,0.0212
1344.00,0.0207
1343.00,0.0201
1342.00,0.0194
1341.00,0.0187
1340.00,0.0180
1339.00,0.0174
1338.00,0.0169
1337.00,0.0167
1336.00,0.0166
1335.00,0.0167
1334.00,0.0170
1333.00,0.0173
1332.00,0.0176
1331.00,0.0179
1330.00,0.0182
1329.00,0.0184
1328.00,0.0185
1327.00,0.0186
1326.00,0.0186
1325.00,0.0187
1324.00,0.0188
1323.00,0.0190
1322.00,0.0192
1321.00,0.0194
1320.00,0.0196
1319.00,0.0196
1318.00,0.0195
1317.00,0.0193
1316.00,0.0190
1315.00,0.0186
1314.00,0.0183
1313.00,0.0181
1312.00,0.0180
1311.00,0.0180
1310.00,0.0183
1309.00,0.0187
1308.00,0.0194
1307.00,0.0202
1306.00,0.0213
1305.00,0.0228
1304.00,0.0244
1303.00,0.0262
1302.00,0.0278
1301.00,0.0291
1300.00,0.0298
1299.00,0.0302
1298.00,0.0306
1297.00,0.0310
1296.00,0.0318
1295.00,0.0327
1294.00,0.0337
1293.00,0.0347
1292.00,0.0355
1291.00,0.0361
1290.00,0.0368
1289.00,0.0375
1288.00,0.0382
1287.00,0.0389
1286.00,0.0395
1285.00,0.0400
1284.00,0.0400
1283.00,0.0397
1282.00,0.0389
1281.00,0.0378
1280.00,0.0364
1279.00,0.0350
1278.00,0.0338
1277.00,0.0327
1276.00,0.0319
1275.00,0.0313
1274.00,0.0308
1273.00,0.0303
1272.00,0.0298
1271.00,0.0292
1270.00,0.0285
1269.00,0.0278
1268.00,0.0270
1267.00,0.0263
1266.00,0.0255
1265.00,0.0246
1264.00,0.0238
1263.00,0.0229
1262.00,0.0220
1261.00,0.0212
1260.00,0.0205
1259.00,0.0198
1258.00,0.0192
1257.00,0.0187
1256.00,0.0183
1255.00,0.0180
1254.00,0.0178
1253.00,0.0177
1252.00,0.0177
1251.00,0.0179
1250.00,0.0183
1249.00,0.0189
1248.00,0.0198
1247.00,0.0208
1246.00,0.0218
1245.00,0.0229
1244.00,0.0238
1243.00,0.0245
1242.00,0.0250
1241.00,0.0255
1240.00,0.0260
1239.00,0.0266
1238.00,0.0275
1237.00,0.0285
1236.00,0.0296
1235.00,0.0306
1234.00,0.0312
1233.00,0.0313
1232.00,0.0310
1231.00,0.0303
1230.00,0.0293
1229.00,0.0282
1228.00,0.0272
1227.00,0.0262
1226.00,0.0253
1225.00,0.0246
1224.00,0.0240
1223.00,0.0235
1222.00,0.0233
1221.00,0.0232
1220.00,0.0234
1219.00,0.0237
1218.00,0.0242
1217.00,0.0248
1216.00,0.0254
1215.00,0.0258
1214.00,0.0259
1213.00,0.0256
1212.00,0.0249
1211.00,0.0239
1210.00,0.0228
1209.00,0.0217
1208.00,0.0207
1207.00,0.0201
1206.00,0.0197
1205.00,0.0196
1204.00,0.0199
1203.00,0.0205
1202.00,0.0215
1201.00,0.0227
1200.00,0.0242
1199.00,0.0258
1198.00,0.0276
1197.00,0.0293
1196.00,0.0308
1195.00,0.0317
1194.00,0.0319
1193.00,0.0313
1192.00,0.0302
1191.00,0.0286
1190.00,0.0269
1189.00,0.0251
1188.00,0.0234
1187.00,0.0217
1186.00,0.0202
1185.00,0.0190
1184.00,0.0179
1183.00,0.0171
1182.00,0.0165
1181.00,0.0160
1180.00,0.0156
1179.00,0.0153
1178.00,0.0151
1177.00,0.0150
1176.00,0.0149
1175.00,0.0148
1174.00,0.0148
1173.00,0.0149
1172.00,0.0149
1171.00,0.0149
1170.00,0.0149
1169.00,0.0149
1168.00,0.0149
1167.00,0.0150
1166.00,0.0151
1165.00,0.0154
1164.00,0.0158
1163.00,0.0164
1162.00,0.0174
1161.00,0.0187
1160.00,0.0205
1159.00,0.0228
1158.00,0.0257
1157.00,0.0288
1156.00,0.0315
1155.00,0.0330
1154.00,0.0330
1153.00,0.0314
1152.00,0.0285
1151.00,0.0251
1150.00,0.0219
1149.00,0.0192
1148.00,0.0172
1147.00,0.0158
1146.00,0.0149
1145.00,0.0143
1144.00,0.0138
1143.00,0.0136
1142.00,0.0135
1141.00,0.0135
1140.00,0.0136
1139.00,0.0138
1138.00,0.0143
1137.00,0.0150
1136.00,0.0161
1135.00,0.0177
1134.00,0.0199
1133.00,0.0229
1132.00,0.0264
1131.00,0.0299
1130.00,0.0330
1129.00,0.0349
1128.00,0.0355
1127.00,0.0348
1126.00,0.0330
1125.00,0.0307
1124.00,0.0281
1123.00,0.0254
1122.00,0.0230
1121.00,0.0209
1120.00,0.0192
1119.00,0.0180
1118.00,0.0172
1117.00,0.0168
1116.00,0.0166
1115.00,0.0165
1114.00,0.0164
1113.00,0.0162
1112.00,0.0159
1111.00,0.0155
1110.00,0.0152
1109.00,0.0149
1108.00,0.0147
1107.00,0.0148
1106.00,0.0152
1105.00,0.0159
1104.00,0.0170
1103.00,0.0186
1102.00,0.0204
1101.00,0.0221
1100.00,0.0233
1099.00,0.0237
1098.00,0.0231
1097.00,0.0217
1096.00,0.0199
1095.00,0.0181
1094.00,0.0164
1093.00,0.0151
1092.00,0.0140
1091.00,0.0132
1090.00,0.0126
1089.00,0.0122
1088.00,0.0119
1087.00,0.0116
1086.00,0.0115
1085.00,0.0114
1084.00,0.0113
1083.00,0.0112
1082.00,0.0113
1081.00,0.0113
1080.00,0.0114
1079.00,0.0115
1078.00,0.0116
1077.00,0.0117
1076.00,0.0119
1075.00,0.0120
1074.00,0.0122
1073.00,0.0124
1072.00,0.0127
1071.00,0.0131
1070.00,0.0135
1069.00,0.0139
1068.00,0.0145
1067.00,0.0150
1066.00,0.0157
1065.00,0.0166
1064.00,0.0177
1063.00,0.0192
1062.00,0.0210
1061.00,0.0233
1060.00,0.0260
1059.00,0.0293
1058.00,0.0331
1057.00,0.0372
1056.00,0.0410
1055.00,0.0441
1054.00,0.0462
1053.00,0.0473
1052.00,0.0477
1051.00,0.0477
1050.00,0.0474
1049.00,0.0465
1048.00,0.0450
1047.00,0.0428
1046.00,0.0400
1045.00,0.0370
1044.00,0.0338
1043.00,0.0307
1042.00,0.0280
1041.00,0.0258
1040.00,0.0240
1039.00,0.0228
1038.00,0.0222
1037.00,0.0219
1036.00,0.0221
1035.00,0.0224
1034.00,0.0230
1033.00,0.0239
1032.00,0.0255
1031.00,0.0279
1030.00,0.0311
1029.00,0.0346
1028.00,0.0377
1027.00,0.0396
1026.00,0.0397
1025.00,0.0380
1024.00,0.0349
1023.00,0.0314
1022.00,0.0280
1021.00,0.0251
1020.00,0.0227
1019.00,0.0208
1018.00,0.0193
1017.00,0.0181
1016.00,0.0171
1015.00,0.0162
1014.00,0.0155
1013.00,0.0149
1012.00,0.0146
1011.00,0.0145
1010.00,0.0147
1009.00,0.0152
1008.00,0.0159
1007.00,0.0169
1006.00,0.0179
1005.00,0.0190
1004.00,0.0198
1003.00,0.0202
1002.00,0.0202
1001.00,0.0197
1000.00,0.0191
999.00,0.0184
998.00,0.0178
997.00,0.0173
996.00,0.0168
995.00,0.0164
994.00,0.0161
993.00,0.0157
992.00,0.0152
991.00,0.0146
990.00,0.0139
989.00,0.0133
988.00,0.0128
987.00,0.0123
986.00,0.0119
985.00,0.0116
984.00,0.0114
983.00,0.0112
982.00,0.0111
981.00,0.0110
980.00,0.0109
979.00,0.0109
978.00,0.0109
977.00,0.0109
976.00,0.0108
975.00,0.0108
974.00,0.0107
973.00,0.0107
972.00,0.0106
971.00,0.0105
970.00,0.0105
969.00,0.0105
968.00,0.0105
967.00,0.0105
966.00,0.0105
965.00,0.0106
964.00,0.0108
963.00,0.0109
962.00,0.0110
961.00,0.0108
960.00,0.0105
959.00,0.0101
958.00,0.0098
957.00,0.0094
956.00,0.0092
955.00,0.0089
954.00,0.0088
953.00,0.0086
952.00,0.0086
951.00,0.0086
950.00,0.0087
949.00,0.0088
948.00,0.0089
947.00,0.0090
946.00,0.0090
945.00,0.0090
944.00,0.0092
943.00,0.0094
942.00,0.0097
941.00,0.0101
940.00,0.0105
939.00,0.0110
938.00,0.0113
937.00,0.0116
936.00,0.0119
935.00,0.0121
934.00,0.0123
933.00,0.0124
932.00,0.0124
931.00,0.0123
930.00,0.0121
929.00,0.0119
928.00,0.0117
927.00,0.0118
926.00,0.0119
925.00,0.0122
924.00,0.0126
923.00,0.0130
922.00,0.0132
921.00,0.0132
920.00,0.0128
919.00,0.0122
918.00,0.0115
917.00,0.0108
916.00,0.0102
915.00,0.0097
914.00,0.0095
913.00,0.0093
912.00,0.0092
911.00,0.0091
910.00,0.0090
909.00,0.0090
908.00,0.0090
907.00,0.0092
906.00,0.0094
905.00,0.0098
904.00,0.0103
903.00,0.0110
902.00,0.0119
901.00,0.0129
900.00,0.0136
899.00,0.0141
898.00,0.0141
897.00,0.0137
896.00,0.0131
895.00,0.0125
894.00,0.0122
893.00,0.0124
892.00,0.0129
891.00,0.0135
890.00,0.0139
889.00,0.0136
888.00,0.0128
887.00,0.0117
886.00,0.0108
885.00,0.0103
884.00,0.0101
883.00,0.0101
882.00,0.0102
881.00,0.0104
880.00,0.0109
879.00,0.0115
878.00,0.0124
877.00,0.0137
876.00,0.0154
875.00,0.0173
874.00,0.0196
873.00,0.0220
872.00,0.0244
871.00,0.0263
870.00,0.0274
869.00,0.0274
868.00,0.0265
867.00,0.0250
866.00,0.0233
865.00,0.0218
864.00,0.0204
863.00,0.0191
862.00,0.0179
861.00,0.0168
860.00,0.0160
859.00,0.0156
858.00,0.0156
857.00,0.0162
856.00,0.0171
855.00,0.0183
854.00,0.0194
853.00,0.0203
852.00,0.0213
851.00,0.0222
850.00,0.0230
849.00,0.0234
848.00,0.0233
847.00,0.0226
846.00,0.0217
845.00,0.0207
844.00,0.0198
843.00,0.0190
842.00,0.0186
841.00,0.0184
840.00,0.0185
839.00,0.0190
838.00,0.0200
837.00,0.0213
836.00,0.0227
835.00,0.0239
834.00,0.0245
833.00,0.0247
832.00,0.0243
831.00,0.0234
830.00,0.0221
829.00,0.0205
828.00,0.0189
827.00,0.0174
826.00,0.0164
825.00,0.0162
824.00,0.0170
823.00,0.0191
822.00,0.0222
821.00,0.0254
820.00,0.0277
819.00,0.0288
818.00,0.0295
817.00,0.0306
816.00,0.0313
815.00,0.0307
814.00,0.0280
813.00,0.0242
812.00,0.0206
811.00,0.0178
810.00,0.0159
809.00,0.0145
808.00,0.0134
807.00,0.0126
806.00,0.0120
805.00,0.0114
804.00,0.0111
803.00,0.0108
802.00,0.0107
801.00,0.0105
800.00,0.0104
799.00,0.0104
798.00,0.0103
797.00,0.0102
796.00,0.0101
795.00,0.0101
794.00,0.0100
793.00,0.0100
792.00,0.0100
791.00,0.0101
790.00,0.0101
789.00,0.0102
788.00,0.0102
787.00,0.0102
786.00,0.0102
785.00,0.0102
784.00,0.0103
783.00,0.0104
782.00,0.0105
781.00,0.0106
780.00,0.0108
779.00,0.0110
778.00,0.0114
777.00,0.0119
776.00,0.0126
775.00,0.0132
774.00,0.0134
773.00,0.0132
772.00,0.0128
771.00,0.0124
770.00,0.0120
769.00,0.0119
768.00,0.0119
767.00,0.0119
766.00,0.0119
765.00,0.0120
764.00,0.0122
763.00,0.0124
762.00,0.0127
761.00,0.0130
760.00,0.0133
759.00,0.0136
758.00,0.0137
757.00,0.0137
756.00,0.0137
755.00,0.0137
754.00,0.0137
753.00,0.0137
752.00,0.0138
751.00,0.0139
750.00,0.0140
749.00,0.0142
748.00,0.0144
747.00,0.0146
746.00,0.0149
745.00,0.0152
744.00,0.0155
743.00,0.0159
742.00,0.0163
741.00,0.0169
740.00,0.0177
739.00,0.0188
738.00,0.0202
737.00,0.0219
736.00,0.0235
735.00,0.0246
734.00,0.0249
733.00,0.0245
732.00,0.0238
731.00,0.0232
730.00,0.0229
729.00,0.0227
728.00,0.0224
727.00,0.0217
726.00,0.0207
725.00,0.0195
724.00,0.0184
723.00,0.0177
722.00,0.0172
721.00,0.0170
720.00,0.0169
719.00,0.0170
718.00,0.0173
717.00,0.0177
716.00,0.0182
715.00,0.0185
714.00,0.0186
713.00,0.0185
712.00,0.0182
711.00,0.0180
710.00,0.0177
709.00,0.0175
708.00,0.0174
707.00,0.0173
706.00,0.0174
705.00,0.0175
704.00,0.0177
703.00,0.0180
702.00,0.0184
701.00,0.0188
700.00,0.0192
699.00,0.0196
698.00,0.0198
697.00,0.0199
696.00,0.0199
695.00,0.0197
694.00,0.0196
693.00,0.0195
692.00,0.0197
691.00,0.0200
690.00,0.0206
689.00,0.0211
688.00,0.0215
687.00,0.0216
686.00,0.0214
685.00,0.0210
684.00,0.0207
683.00,0.0204
682.00,0.0203
681.00,0.0204
680.00,0.0206
679.00,0.0209
678.00,0.0213
677.00,0.0218
676.00,0.0223
675.00,0.0230
674.00,0.0236
673.00,0.0243
672.00,0.0249
671.00,0.0254
670.00,0.0256
669.00,0.0256
668.00,0.0255
667.00,0.0253
666.00,0.0253
665.00,0.0255
664.00,0.0259
663.00,0.0263
662.00,0.0266
661.00,0.0269
660.00,0.0269
659.00,0.0267
658.00,0.0264
657.00,0.0261
656.00,0.0258
655.00,0.0257
654.00,0.0256
653.00,0.0256
652.00,0.0256
651.00,0.0256
650.00,0.0256
649.00,0.0256
648.00,0.0256
647.00,0.0256
646.00,0.0255
645.00,0.0254
644.00,0.0253
643.00,0.0252
642.00,0.0251
641.00,0.0250
640.00,0.0250
639.00,0.0249
638.00,0.0247
637.00,0.0245
636.00,0.0243
635.00,0.0242
634.00,0.0241
633.00,0.0240
632.00,0.0240
631.00,0.0239
630.00,0.0239
629.00,0.0240
628.00,0.0241
627.00,0.0242
626.00,0.0243
625.00,0.0246
624.00,0.0248
623.00,0.0251
622.00,0.0255
621.00,0.0258
620.00,0.0260
619.00,0.0261
618.00,0.0259
617.00,0.0255
616.00,0.0250
615.00,0.0245
614.00,0.0241
613.00,0.0238
612.00,0.0237
611.00,0.0238
610.00,0.0241
609.00,0.0246
608.00,0.0253
607.00,0.0262
606.00,0.0271
605.00,0.0281
604.00,0.0288
603.00,0.0293
602.00,0.0296
601.00,0.0299
600.00,0.0300
599.00,0.0301
598.00,0.0302
597.00,0.0301
596.00,0.0300
595.00,0.0299
594.00,0.0298
593.00,0.0297
592.00,0.0297
591.00,0.0297
590.00,0.0295
589.00,0.0294
588.00,0.0293
587.00,0.0293
586.00,0.0294
585.00,0.0297
584.00,0.0300
583.00,0.0304
582.00,0.0308
581.00,0.0312
580.00,0.0317
579.00,0.0323
578.00,0.0329
577.00,0.0335
576.00,0.0338
575.00,0.0336
574.00,0.0330
573.00,0.0323
572.00,0.0316
571.00,0.0310
570.00,0.0305
569.00,0.0301
568.00,0.0298
567.00,0.0298
566.00,0.0300
565.00,0.0304
564.00,0.0308
563.00,0.0313
562.00,0.0318
561.00,0.0322
560.00,0.0325
559.00,0.0324
558.00,0.0320
557.00,0.0315
556.00,0.0309
555.00,0.0303
554.00,0.0299
553.00,0.0296
552.00,0.0295
551.00,0.0297
550.00,0.0302
549.00,0.0307
548.00,0.0313
547.00,0.0318
546.00,0.0322
545.00,0.0323
544.00,0.0320
543.00,0.0314
542.00,0.0307
541.00,0.0301
540.00,0.0297
539.00,0.0293
538.00,0.0292
537.00,0.0292
536.00,0.0293
535.00,0.0296
534.00,0.0300
533.00,0.0304
532.00,0.0308
531.00,0.0310
530.00,0.0310
529.00,0.0307
528.00,0.0301
527.00,0.0293
526.00,0.0286
525.00,0.0281
524.00,0.0278
523.00,0.0276
522.00,0.0272
521.00,0.0268
520.00,0.0265
519.00,0.0263
518.00,0.0261
517.00,0.0259
516.00,0.0257
515.00,0.0255
514.00,0.0255
513.00,0.0256
512.00,0.0258
511.00,0.0260
510.00,0.0261
509.00,0.0261
508.00,0.0261
507.00,0.0262
506.00,0.0263
505.00,0.0262
504.00,0.0260
503.00,0.0258
502.00,0.0258
501.00,0.0257
500.00,0.0256
499.00,0.0254
498.00,0.0252
497.00,0.0252
496.00,0.0252
495.00,0.0254
494.00,0.0256
493.00,0.0257
492.00,0.0257
491.00,0.0255
490.00,0.0255
489.00,0.0256
488.00,0.0257
487.00,0.0257
486.00,0.0254
485.00,0.0250
484.00,0.0248
483.00,0.0246
482.00,0.0246
481.00,0.0245
480.00,0.0243
479.00,0.0242
478.00,0.0240
477.00,0.0238
476.00,0.0237
475.00,0.0237
474.00,0.0237
473.00,0.0238
472.00,0.0240
471.00,0.0242
470.00,0.0244
469.00,0.0245
468.00,0.0244
467.00,0.0242
466.00,0.0240
465.00,0.0239
464.00,0.0239
463.00,0.0239
462.00,0.0237
461.00,0.0234
460.00,0.0230
459.00,0.0228
458.00,0.0229
457.00,0.0232
456.00,0.0235
455.00,0.0236
454.00,0.0236
453.00,0.0235
452.00,0.0234
451.00,0.0232
450.00,0.0231
449.00,0.0232
448.00,0.0234
447.00,0.0235
446.00,0.0235
445.00,0.0233
444.00,0.0231
443.00,0.0228
442.00,0.0226
441.00,0.0225
440.00,0.0226
439.00,0.0228
438.00,0.0228
437.00,0.0227
436.00,0.0224
435.00,0.0223
434.00,0.0223
433.00,0.0224
432.00,0.0225
431.00,0.0224
430.00,0.0224
429.00,0.0223
428.00,0.0223
427.00,0.0223
426.00,0.0224
425.00,0.0227
424.00,0.0228
423.00,0.0227
422.00,0.0224
421.00,0.0220
420.00,0.0216
419.00,0.0209
418.00,0.0202
417.00,0.0200
416.00,0.0201
415.00,0.0206
414.00,0.0211
413.00,0.0218
412.00,0.0224
411.00,0.0230
410.00,0.0235
409.00,0.0240
408.00,0.0241
407.00,0.0236
406.00,0.0223
405.00,0.0209
404.00,0.0201
403.00,0.0201
402.00,0.0205
401.00,0.0211
400.00,0.0219
