Created as New Dataset,Sample 1086 By YargerLab Date Wednesday, August 06 2025
cm-1,A
4000.00,0.0098
3999.00,0.0098
3998.00,0.0097
3997.00,0.0097
3996.00,0.0097
3995.00,0.0097
3994.00,0.0097
3993.00,0.0097
3992.00,0.0098
3991.00,0.0098
3990.00,0.0098
3989.00,0.0098
3988.00,0.0098
3987.00,0.0098
3986.00,0.0098
3985.00,0.0098
3984.00,0.0098
3983.00,0.0097
3982.00,0.0097
3981.00,0.0097
3980.00,0.0097
3979.00,0.0098
3978.00,0.0098
3977.00,0.0098
3976.00,0.0098
3975.00,0.0097
3974.00,0.0097
3973.00,0.0098
3972.00,0.0098
3971.00,0.0098
3970.00,0.0098
3969.00,0.0097
3968.00,0.0097
3967.00,0.0097
3966.00,0.0097
3965.00,0.0097
3964.00,0.0097
3963.00,0.0097
3962.00,0.0097
3961.00,0.0097
3960.00,0.0098
3959.00,0.0098
3958.00,0.0097
3957.00,0.0097
3956.00,0.0097
3955.00,0.0097
3954.00,0.0097
3953.00,0.0097
3952.00,0.0097
3951.00,0.0097
3950.00,0.0097
3949.00,0.0097
3948.00,0.0097
3947.00,0.0097
3946.00,0.0097
3945.00,0.0097
3944.00,0.0097
3943.00,0.0097
3942.00,0.0097
3941.00,0.0097
3940.00,0.0097
3939.00,0.0097
3938.00,0.0097
3937.00,0.0097
3936.00,0.0097
3935.00,0.0097
3934.00,0.0097
3933.00,0.0097
3932.00,0.0097
3931.00,0.0096
3930.00,0.0096
3929.00,0.0096
3928.00,0.0096
3927.00,0.0097
3926.00,0.0097
3925.00,0.0097
3924.00,0.0097
3923.00,0.0097
3922.00,0.0097
3921.00,0.0097
3920.00,0.0097
3919.00,0.0097
3918.00,0.0097
3917.00,0.0097
3916.00,0.0096
3915.00,0.0096
3914.00,0.0096
3913.00,0.0096
3912.00,0.0096
3911.00,0.0096
3910.00,0.0096
3909.00,0.0096
3908.00,0.0097
3907.00,0.0097
3906.00,0.0097
3905.00,0.0097
3904.00,0.0097
3903.00,0.0097
3902.00,0.0097
3901.00,0.0097
3900.00,0.0097
3899.00,0.0096
3898.00,0.0096
3897.00,0.0096
3896.00,0.0096
3895.00,0.0096
3894.00,0.0096
3893.00,0.0096
3892.00,0.0096
3891.00,0.0096
3890.00,0.0096
3889.00,0.0096
3888.00,0.0096
3887.00,0.0096
3886.00,0.0096
3885.00,0.0096
3884.00,0.0096
3883.00,0.0095
3882.00,0.0095
3881.00,0.0095
3880.00,0.0095
3879.00,0.0095
3878.00,0.0095
3877.00,0.0095
3876.00,0.0095
3875.00,0.0095
3874.00,0.0095
3873.00,0.0095
3872.00,0.0095
3871.00,0.0095
3870.00,0.0095
3869.00,0.0095
3868.00,0.0095
3867.00,0.0095
3866.00,0.0095
3865.00,0.0095
3864.00,0.0095
3863.00,0.0095
3862.00,0.0095
3861.00,0.0095
3860.00,0.0095
3859.00,0.0096
3858.00,0.0096
3857.00,0.0096
3856.00,0.0096
3855.00,0.0096
3854.00,0.0095
3853.00,0.0095
3852.00,0.0095
3851.00,0.0095
3850.00,0.0095
3849.00,0.0095
3848.00,0.0095
3847.00,0.0095
3846.00,0.0096
3845.00,0.0096
3844.00,0.0096
3843.00,0.0096
3842.00,0.0096
3841.00,0.0095
3840.00,0.0095
3839.00,0.0094
3838.00,0.0094
3837.00,0.0095
3836.00,0.0095
3835.00,0.0095
3834.00,0.0095
3833.00,0.0095
3832.00,0.0095
3831.00,0.0095
3830.00,0.0095
3829.00,0.0095
3828.00,0.0095
3827.00,0.0095
3826.00,0.0095
3825.00,0.0095
3824.00,0.0096
3823.00,0.0096
3822.00,0.0097
3821.00,0.0096
3820.00,0.0096
3819.00,0.0095
3818.00,0.0094
3817.00,0.0094
3816.00,0.0094
3815.00,0.0094
3814.00,0.0094
3813.00,0.0095
3812.00,0.0095
3811.00,0.0095
3810.00,0.0095
3809.00,0.0095
3808.00,0.0095
3807.00,0.0094
3806.00,0.0094
3805.00,0.0094
3804.00,0.0094
3803.00,0.0094
3802.00,0.0094
3801.00,0.0094
3800.00,0.0094
3799.00,0.0094
3798.00,0.0094
3797.00,0.0094
3796.00,0.0094
3795.00,0.0094
3794.00,0.0094
3793.00,0.0094
3792.00,0.0094
3791.00,0.0094
3790.00,0.0094
3789.00,0.0095
3788.00,0.0095
3787.00,0.0095
3786.00,0.0095
3785.00,0.0095
3784.00,0.0095
3783.00,0.0094
3782.00,0.0094
3781.00,0.0094
3780.00,0.0094
3779.00,0.0094
3778.00,0.0094
3777.00,0.0094
3776.00,0.0095
3775.00,0.0095
3774.00,0.0095
3773.00,0.0095
3772.00,0.0095
3771.00,0.0095
3770.00,0.0095
3769.00,0.0095
3768.00,0.0094
3767.00,0.0094
3766.00,0.0095
3765.00,0.0095
3764.00,0.0095
3763.00,0.0095
3762.00,0.0095
3761.00,0.0095
3760.00,0.0095
3759.00,0.0095
3758.00,0.0095
3757.00,0.0095
3756.00,0.0095
3755.00,0.0094
3754.00,0.0094
3753.00,0.0094
3752.00,0.0094
3751.00,0.0094
3750.00,0.0094
3749.00,0.0094
3748.00,0.0094
3747.00,0.0094
3746.00,0.0095
3745.00,0.0095
3744.00,0.0094
3743.00,0.0094
3742.00,0.0093
3741.00,0.0093
3740.00,0.0093
3739.00,0.0093
3738.00,0.0093
3737.00,0.0093
3736.00,0.0093
3735.00,0.0092
3734.00,0.0092
3733.00,0.0092
3732.00,0.0092
3731.00,0.0092
3730.00,0.0093
3729.00,0.0093
3728.00,0.0093
3727.00,0.0092
3726.00,0.0092
3725.00,0.0092
3724.00,0.0092
3723.00,0.0092
3722.00,0.0092
3721.00,0.0092
3720.00,0.0093
3719.00,0.0093
3718.00,0.0093
3717.00,0.0093
3716.00,0.0093
3715.00,0.0092
3714.00,0.0092
3713.00,0.0091
3712.00,0.0091
3711.00,0.0091
3710.00,0.0092
3709.00,0.0092
3708.00,0.0092
3707.00,0.0092
3706.00,0.0092
3705.00,0.0092
3704.00,0.0092
3703.00,0.0092
3702.00,0.0092
3701.00,0.0092
3700.00,0.0092
3699.00,0.0092
3698.00,0.0092
3697.00,0.0092
3696.00,0.0092
3695.00,0.0092
3694.00,0.0092
3693.00,0.0093
3692.00,0.0093
3691.00,0.0093
3690.00,0.0094
3689.00,0.0094
3688.00,0.0094
3687.00,0.0094
3686.00,0.0094
3685.00,0.0094
3684.00,0.0095
3683.00,0.0095
3682.00,0.0096
3681.00,0.0096
3680.00,0.0096
3679.00,0.0096
3678.00,0.0096
3677.00,0.0096
3676.00,0.0096
3675.00,0.0096
3674.00,0.0096
3673.00,0.0096
3672.00,0.0096
3671.00,0.0097
3670.00,0.0097
3669.00,0.0098
3668.00,0.0098
3667.00,0.0098
3666.00,0.0098
3665.00,0.0098
3664.00,0.0098
3663.00,0.0099
3662.00,0.0099
3661.00,0.0099
3660.00,0.0100
3659.00,0.0100
3658.00,0.0101
3657.00,0.0101
3656.00,0.0101
3655.00,0.0101
3654.00,0.0101
3653.00,0.0102
3652.00,0.0102
3651.00,0.0102
3650.00,0.0103
3649.00,0.0103
3648.00,0.0104
3647.00,0.0104
3646.00,0.0105
3645.00,0.0105
3644.00,0.0106
3643.00,0.0106
3642.00,0.0107
3641.00,0.0107
3640.00,0.0108
3639.00,0.0108
3638.00,0.0109
3637.00,0.0109
3636.00,0.0110
3635.00,0.0111
3634.00,0.0111
3633.00,0.0112
3632.00,0.0113
3631.00,0.0114
3630.00,0.0115
3629.00,0.0116
3628.00,0.0117
3627.00,0.0117
3626.00,0.0118
3625.00,0.0118
3624.00,0.0119
3623.00,0.0119
3622.00,0.0120
3621.00,0.0121
3620.00,0.0121
3619.00,0.0122
3618.00,0.0123
3617.00,0.0124
3616.00,0.0125
3615.00,0.0126
3614.00,0.0127
3613.00,0.0128
3612.00,0.0129
3611.00,0.0130
3610.00,0.0131
3609.00,0.0132
3608.00,0.0133
3607.00,0.0134
3606.00,0.0135
3605.00,0.0135
3604.00,0.0136
3603.00,0.0136
3602.00,0.0137
3601.00,0.0138
3600.00,0.0139
3599.00,0.0140
3598.00,0.0141
3597.00,0.0142
3596.00,0.0143
3595.00,0.0145
3594.00,0.0146
3593.00,0.0147
3592.00,0.0148
3591.00,0.0149
3590.00,0.0150
3589.00,0.0151
3588.00,0.0152
3587.00,0.0154
3586.00,0.0156
3585.00,0.0158
3584.00,0.0159
3583.00,0.0160
3582.00,0.0161
3581.00,0.0162
3580.00,0.0163
3579.00,0.0165
3578.00,0.0166
3577.00,0.0167
3576.00,0.0169
3575.00,0.0170
3574.00,0.0172
3573.00,0.0173
3572.00,0.0174
3571.00,0.0175
3570.00,0.0177
3569.00,0.0178
3568.00,0.0180
3567.00,0.0181
3566.00,0.0183
3565.00,0.0185
3564.00,0.0186
3563.00,0.0188
3562.00,0.0189
3561.00,0.0190
3560.00,0.0191
3559.00,0.0193
3558.00,0.0194
3557.00,0.0195
3556.00,0.0197
3555.00,0.0198
3554.00,0.0199
3553.00,0.0201
3552.00,0.0203
3551.00,0.0204
3550.00,0.0206
3549.00,0.0207
3548.00,0.0208
3547.00,0.0210
3546.00,0.0211
3545.00,0.0213
3544.00,0.0215
3543.00,0.0216
3542.00,0.0217
3541.00,0.0218
3540.00,0.0219
3539.00,0.0220
3538.00,0.0221
3537.00,0.0222
3536.00,0.0223
3535.00,0.0225
3534.00,0.0226
3533.00,0.0227
3532.00,0.0228
3531.00,0.0229
3530.00,0.0229
3529.00,0.0231
3528.00,0.0232
3527.00,0.0233
3526.00,0.0234
3525.00,0.0236
3524.00,0.0237
3523.00,0.0238
3522.00,0.0240
3521.00,0.0241
3520.00,0.0242
3519.00,0.0243
3518.00,0.0243
3517.00,0.0245
3516.00,0.0246
3515.00,0.0246
3514.00,0.0247
3513.00,0.0248
3512.00,0.0249
3511.00,0.0249
3510.00,0.0250
3509.00,0.0251
3508.00,0.0252
3507.00,0.0253
3506.00,0.0254
3505.00,0.0255
3504.00,0.0256
3503.00,0.0258
3502.00,0.0260
3501.00,0.0261
3500.00,0.0262
3499.00,0.0262
3498.00,0.0263
3497.00,0.0264
3496.00,0.0264
3495.00,0.0266
3494.00,0.0267
3493.00,0.0268
3492.00,0.0269
3491.00,0.0270
3490.00,0.0271
3489.00,0.0272
3488.00,0.0274
3487.00,0.0275
3486.00,0.0276
3485.00,0.0277
3484.00,0.0279
3483.00,0.0280
3482.00,0.0282
3481.00,0.0284
3480.00,0.0285
3479.00,0.0287
3478.00,0.0288
3477.00,0.0289
3476.00,0.0291
3475.00,0.0292
3474.00,0.0294
3473.00,0.0295
3472.00,0.0297
3471.00,0.0298
3470.00,0.0300
3469.00,0.0302
3468.00,0.0304
3467.00,0.0306
3466.00,0.0307
3465.00,0.0309
3464.00,0.0310
3463.00,0.0312
3462.00,0.0314
3461.00,0.0316
3460.00,0.0318
3459.00,0.0319
3458.00,0.0321
3457.00,0.0322
3456.00,0.0324
3455.00,0.0326
3454.00,0.0328
3453.00,0.0330
3452.00,0.0331
3451.00,0.0333
3450.00,0.0334
3449.00,0.0336
3448.00,0.0338
3447.00,0.0340
3446.00,0.0342
3445.00,0.0345
3444.00,0.0347
3443.00,0.0349
3442.00,0.0351
3441.00,0.0353
3440.00,0.0355
3439.00,0.0358
3438.00,0.0360
3437.00,0.0362
3436.00,0.0364
3435.00,0.0366
3434.00,0.0369
3433.00,0.0371
3432.00,0.0374
3431.00,0.0376
3430.00,0.0379
3429.00,0.0381
3428.00,0.0384
3427.00,0.0386
3426.00,0.0389
3425.00,0.0392
3424.00,0.0394
3423.00,0.0397
3422.00,0.0400
3421.00,0.0403
3420.00,0.0406
3419.00,0.0409
3418.00,0.0412
3417.00,0.0414
3416.00,0.0417
3415.00,0.0419
3414.00,0.0422
3413.00,0.0425
3412.00,0.0427
3411.00,0.0429
3410.00,0.0431
3409.00,0.0433
3408.00,0.0434
3407.00,0.0436
3406.00,0.0437
3405.00,0.0438
3404.00,0.0439
3403.00,0.0440
3402.00,0.0440
3401.00,0.0440
3400.00,0.0440
3399.00,0.0440
3398.00,0.0439
3397.00,0.0439
3396.00,0.0438
3395.00,0.0437
3394.00,0.0436
3393.00,0.0434
3392.00,0.0433
3391.00,0.0432
3390.00,0.0430
3389.00,0.0429
3388.00,0.0427
3387.00,0.0425
3386.00,0.0422
3385.00,0.0420
3384.00,0.0418
3383.00,0.0415
3382.00,0.0413
3381.00,0.0411
3380.00,0.0408
3379.00,0.0406
3378.00,0.0404
3377.00,0.0402
3376.00,0.0399
3375.00,0.0397
3374.00,0.0394
3373.00,0.0391
3372.00,0.0388
3371.00,0.0385
3370.00,0.0383
3369.00,0.0381
3368.00,0.0379
3367.00,0.0377
3366.00,0.0376
3365.00,0.0375
3364.00,0.0373
3363.00,0.0371
3362.00,0.0369
3361.00,0.0367
3360.00,0.0365
3359.00,0.0363
3358.00,0.0362
3357.00,0.0360
3356.00,0.0359
3355.00,0.0358
3354.00,0.0356
3353.00,0.0354
3352.00,0.0353
3351.00,0.0351
3350.00,0.0350
3349.00,0.0349
3348.00,0.0349
3347.00,0.0348
3346.00,0.0347
3345.00,0.0345
3344.00,0.0344
3343.00,0.0343
3342.00,0.0342
3341.00,0.0341
3340.00,0.0340
3339.00,0.0339
3338.00,0.0339
3337.00,0.0339
3336.00,0.0339
3335.00,0.0339
3334.00,0.0339
3333.00,0.0338
3332.00,0.0338
3331.00,0.0338
3330.00,0.0338
3329.00,0.0337
3328.00,0.0337
3327.00,0.0336
3326.00,0.0336
3325.00,0.0336
3324.00,0.0336
3323.00,0.0337
3322.00,0.0337
3321.00,0.0338
3320.00,0.0338
3319.00,0.0339
3318.00,0.0339
3317.00,0.0339
3316.00,0.0339
3315.00,0.0339
3314.00,0.0339
3313.00,0.0339
3312.00,0.0339
3311.00,0.0338
3310.00,0.0338
3309.00,0.0337
3308.00,0.0337
3307.00,0.0337
3306.00,0.0338
3305.00,0.0340
3304.00,0.0341
3303.00,0.0343
3302.00,0.0345
3301.00,0.0346
3300.00,0.0347
3299.00,0.0347
3298.00,0.0347
3297.00,0.0347
3296.00,0.0347
3295.00,0.0347
3294.00,0.0348
3293.00,0.0349
3292.00,0.0350
3291.00,0.0352
3290.00,0.0354
3289.00,0.0355
3288.00,0.0356
3287.00,0.0357
3286.00,0.0358
3285.00,0.0359
3284.00,0.0360
3283.00,0.0360
3282.00,0.0361
3281.00,0.0362
3280.00,0.0363
3279.00,0.0363
3278.00,0.0364
3277.00,0.0364
3276.00,0.0364
3275.00,0.0365
3274.00,0.0365
3273.00,0.0365
3272.00,0.0365
3271.00,0.0366
3270.00,0.0367
3269.00,0.0369
3268.00,0.0370
3267.00,0.0371
3266.00,0.0372
3265.00,0.0373
3264.00,0.0374
3263.00,0.0374
3262.00,0.0375
3261.00,0.0375
3260.00,0.0376
3259.00,0.0376
3258.00,0.0377
3257.00,0.0377
3256.00,0.0378
3255.00,0.0378
3254.00,0.0379
3253.00,0.0380
3252.00,0.0381
3251.00,0.0381
3250.00,0.0381
3249.00,0.0381
3248.00,0.0381
3247.00,0.0381
3246.00,0.0382
3245.00,0.0383
3244.00,0.0384
3243.00,0.0384
3242.00,0.0385
3241.00,0.0385
3240.00,0.0385
3239.00,0.0384
3238.00,0.0384
3237.00,0.0383
3236.00,0.0382
3235.00,0.0381
3234.00,0.0380
3233.00,0.0380
3232.00,0.0380
3231.00,0.0381
3230.00,0.0381
3229.00,0.0380
3228.00,0.0380
3227.00,0.0379
3226.00,0.0378
3225.00,0.0377
3224.00,0.0377
3223.00,0.0375
3222.00,0.0374
3221.00,0.0373
3220.00,0.0372
3219.00,0.0370
3218.00,0.0369
3217.00,0.0368
3216.00,0.0367
3215.00,0.0366
3214.00,0.0365
3213.00,0.0363
3212.00,0.0361
3211.00,0.0360
3210.00,0.0358
3209.00,0.0356
3208.00,0.0355
3207.00,0.0353
3206.00,0.0351
3205.00,0.0349
3204.00,0.0347
3203.00,0.0345
3202.00,0.0342
3201.00,0.0340
3200.00,0.0338
3199.00,0.0336
3198.00,0.0334
3197.00,0.0332
3196.00,0.0330
3195.00,0.0328
3194.00,0.0326
3193.00,0.0324
3192.00,0.0322
3191.00,0.0320
3190.00,0.0318
3189.00,0.0315
3188.00,0.0313
3187.00,0.0311
3186.00,0.0309
3185.00,0.0307
3184.00,0.0305
3183.00,0.0303
3182.00,0.0301
3181.00,0.0299
3180.00,0.0296
3179.00,0.0294
3178.00,0.0292
3177.00,0.0291
3176.00,0.0289
3175.00,0.0287
3174.00,0.0285
3173.00,0.0283
3172.00,0.0281
3171.00,0.0278
3170.00,0.0276
3169.00,0.0274
3168.00,0.0272
3167.00,0.0270
3166.00,0.0267
3165.00,0.0265
3164.00,0.0263
3163.00,0.0261
3162.00,0.0259
3161.00,0.0257
3160.00,0.0255
3159.00,0.0253
3158.00,0.0251
3157.00,0.0249
3156.00,0.0247
3155.00,0.0245
3154.00,0.0242
3153.00,0.0240
3152.00,0.0238
3151.00,0.0237
3150.00,0.0235
3149.00,0.0234
3148.00,0.0232
3147.00,0.0231
3146.00,0.0229
3145.00,0.0227
3144.00,0.0225
3143.00,0.0224
3142.00,0.0222
3141.00,0.0220
3140.00,0.0219
3139.00,0.0217
3138.00,0.0216
3137.00,0.0215
3136.00,0.0214
3135.00,0.0213
3134.00,0.0212
3133.00,0.0210
3132.00,0.0209
3131.00,0.0207
3130.00,0.0206
3129.00,0.0205
3128.00,0.0204
3127.00,0.0203
3126.00,0.0202
3125.00,0.0201
3124.00,0.0200
3123.00,0.0199
3122.00,0.0198
3121.00,0.0197
3120.00,0.0196
3119.00,0.0195
3118.00,0.0194
3117.00,0.0193
3116.00,0.0192
3115.00,0.0191
3114.00,0.0190
3113.00,0.0189
3112.00,0.0188
3111.00,0.0186
3110.00,0.0185
3109.00,0.0184
3108.00,0.0183
3107.00,0.0182
3106.00,0.0181
3105.00,0.0180
3104.00,0.0179
3103.00,0.0177
3102.00,0.0176
3101.00,0.0176
3100.00,0.0175
3099.00,0.0174
3098.00,0.0174
3097.00,0.0173
3096.00,0.0173
3095.00,0.0173
3094.00,0.0173
3093.00,0.0173
3092.00,0.0173
3091.00,0.0173
3090.00,0.0174
3089.00,0.0174
3088.00,0.0174
3087.00,0.0174
3086.00,0.0174
3085.00,0.0174
3084.00,0.0174
3083.00,0.0174
3082.00,0.0173
3081.00,0.0172
3080.00,0.0172
3079.00,0.0171
3078.00,0.0170
3077.00,0.0170
3076.00,0.0169
3075.00,0.0168
3074.00,0.0168
3073.00,0.0167
3072.00,0.0167
3071.00,0.0167
3070.00,0.0166
3069.00,0.0166
3068.00,0.0166
3067.00,0.0166
3066.00,0.0166
3065.00,0.0166
3064.00,0.0166
3063.00,0.0166
3062.00,0.0166
3061.00,0.0166
3060.00,0.0166
3059.00,0.0166
3058.00,0.0167
3057.00,0.0167
3056.00,0.0167
3055.00,0.0167
3054.00,0.0167
3053.00,0.0166
3052.00,0.0166
3051.00,0.0166
3050.00,0.0165
3049.00,0.0165
3048.00,0.0165
3047.00,0.0165
3046.00,0.0165
3045.00,0.0165
3044.00,0.0165
3043.00,0.0165
3042.00,0.0165
3041.00,0.0166
3040.00,0.0167
3039.00,0.0168
3038.00,0.0170
3037.00,0.0171
3036.00,0.0172
3035.00,0.0173
3034.00,0.0173
3033.00,0.0173
3032.00,0.0174
3031.00,0.0173
3030.00,0.0173
3029.00,0.0172
3028.00,0.0171
3027.00,0.0170
3026.00,0.0169
3025.00,0.0167
3024.00,0.0166
3023.00,0.0165
3022.00,0.0164
3021.00,0.0164
3020.00,0.0163
3019.00,0.0163
3018.00,0.0162
3017.00,0.0162
3016.00,0.0163
3015.00,0.0163
3014.00,0.0164
3013.00,0.0165
3012.00,0.0167
3011.00,0.0168
3010.00,0.0170
3009.00,0.0172
3008.00,0.0175
3007.00,0.0177
3006.00,0.0180
3005.00,0.0184
3004.00,0.0188
3003.00,0.0192
3002.00,0.0197
3001.00,0.0202
3000.00,0.0209
2999.00,0.0215
2998.00,0.0223
2997.00,0.0230
2996.00,0.0238
2995.00,0.0245
2994.00,0.0252
2993.00,0.0258
2992.00,0.0264
2991.00,0.0270
2990.00,0.0275
2989.00,0.0281
2988.00,0.0286
2987.00,0.0293
2986.00,0.0300
2985.00,0.0308
2984.00,0.0318
2983.00,0.0329
2982.00,0.0342
2981.00,0.0355
2980.00,0.0366
2979.00,0.0375
2978.00,0.0381
2977.00,0.0386
2976.00,0.0391
2975.00,0.0399
2974.00,0.0410
2973.00,0.0424
2972.00,0.0439
2971.00,0.0454
2970.00,0.0466
2969.00,0.0475
2968.00,0.0482
2967.00,0.0488
2966.00,0.0495
2965.00,0.0503
2964.00,0.0512
2963.00,0.0521
2962.00,0.0530
2961.00,0.0536
2960.00,0.0539
2959.00,0.0537
2958.00,0.0532
2957.00,0.0524
2956.00,0.0513
2955.00,0.0502
2954.00,0.0490
2953.00,0.0480
2952.00,0.0471
2951.00,0.0463
2950.00,0.0458
2949.00,0.0454
2948.00,0.0453
2947.00,0.0454
2946.00,0.0457
2945.00,0.0462
2944.00,0.0469
2943.00,0.0477
2942.00,0.0486
2941.00,0.0496
2940.00,0.0509
2939.00,0.0523
2938.00,0.0540
2937.00,0.0561
2936.00,0.0584
2935.00,0.0609
2934.00,0.0636
2933.00,0.0663
2932.00,0.0690
2931.00,0.0716
2930.00,0.0739
2929.00,0.0758
2928.00,0.0771
2927.00,0.0778
2926.00,0.0778
2925.00,0.0771
2924.00,0.0761
2923.00,0.0746
2922.00,0.0729
2921.00,0.0711
2920.00,0.0692
2919.00,0.0672
2918.00,0.0651
2917.00,0.0631
2916.00,0.0612
2915.00,0.0593
2914.00,0.0574
2913.00,0.0557
2912.00,0.0542
2911.00,0.0528
2910.00,0.0515
2909.00,0.0502
2908.00,0.0491
2907.00,0.0481
2906.00,0.0471
2905.00,0.0462
2904.00,0.0454
2903.00,0.0446
2902.00,0.0438
2901.00,0.0431
2900.00,0.0424
2899.00,0.0418
2898.00,0.0413
2897.00,0.0408
2896.00,0.0403
2895.00,0.0399
2894.00,0.0395
2893.00,0.0391
2892.00,0.0388
2891.00,0.0384
2890.00,0.0381
2889.00,0.0378
2888.00,0.0375
2887.00,0.0372
2886.00,0.0369
2885.00,0.0367
2884.00,0.0366
2883.00,0.0365
2882.00,0.0366
2881.00,0.0368
2880.00,0.0372
2879.00,0.0378
2878.00,0.0385
2877.00,0.0393
2876.00,0.0401
2875.00,0.0408
2874.00,0.0414
2873.00,0.0418
2872.00,0.0420
2871.00,0.0419
2870.00,0.0417
2869.00,0.0415
2868.00,0.0413
2867.00,0.0413
2866.00,0.0415
2865.00,0.0422
2864.00,0.0432
2863.00,0.0446
2862.00,0.0463
2861.00,0.0482
2860.00,0.0502
2859.00,0.0521
2858.00,0.0536
2857.00,0.0545
2856.00,0.0550
2855.00,0.0550
2854.00,0.0546
2853.00,0.0539
2852.00,0.0527
2851.00,0.0511
2850.00,0.0491
2849.00,0.0467
2848.00,0.0442
2847.00,0.0417
2846.00,0.0393
2845.00,0.0372
2844.00,0.0352
2843.00,0.0334
2842.00,0.0319
2841.00,0.0305
2840.00,0.0293
2839.00,0.0282
2838.00,0.0273
2837.00,0.0266
2836.00,0.0259
2835.00,0.0253
2834.00,0.0247
2833.00,0.0242
2832.00,0.0237
2831.00,0.0233
2830.00,0.0228
2829.00,0.0224
2828.00,0.0219
2827.00,0.0215
2826.00,0.0212
2825.00,0.0208
2824.00,0.0205
2823.00,0.0202
2822.00,0.0199
2821.00,0.0197
2820.00,0.0195
2819.00,0.0192
2818.00,0.0190
2817.00,0.0188
2816.00,0.0186
2815.00,0.0184
2814.00,0.0182
2813.00,0.0181
2812.00,0.0179
2811.00,0.0178
2810.00,0.0177
2809.00,0.0176
2808.00,0.0175
2807.00,0.0174
2806.00,0.0173
2805.00,0.0172
2804.00,0.0171
2803.00,0.0170
2802.00,0.0169
2801.00,0.0168
2800.00,0.0167
2799.00,0.0166
2798.00,0.0165
2797.00,0.0164
2796.00,0.0163
2795.00,0.0162
2794.00,0.0162
2793.00,0.0161
2792.00,0.0160
2791.00,0.0159
2790.00,0.0158
2789.00,0.0157
2788.00,0.0157
2787.00,0.0156
2786.00,0.0155
2785.00,0.0155
2784.00,0.0154
2783.00,0.0153
2782.00,0.0152
2781.00,0.0152
2780.00,0.0151
2779.00,0.0151
2778.00,0.0150
2777.00,0.0150
2776.00,0.0149
2775.00,0.0149
2774.00,0.0149
2773.00,0.0148
2772.00,0.0148
2771.00,0.0148
2770.00,0.0147
2769.00,0.0147
2768.00,0.0147
2767.00,0.0147
2766.00,0.0146
2765.00,0.0146
2764.00,0.0146
2763.00,0.0146
2762.00,0.0146
2761.00,0.0146
2760.00,0.0146
2759.00,0.0146
2758.00,0.0145
2757.00,0.0145
2756.00,0.0145
2755.00,0.0146
2754.00,0.0146
2753.00,0.0145
2752.00,0.0145
2751.00,0.0145
2750.00,0.0145
2749.00,0.0145
2748.00,0.0145
2747.00,0.0146
2746.00,0.0146
2745.00,0.0146
2744.00,0.0146
2743.00,0.0147
2742.00,0.0147
2741.00,0.0147
2740.00,0.0148
2739.00,0.0148
2738.00,0.0148
2737.00,0.0149
2736.00,0.0150
2735.00,0.0151
2734.00,0.0151
2733.00,0.0152
2732.00,0.0153
2731.00,0.0153
2730.00,0.0153
2729.00,0.0153
2728.00,0.0153
2727.00,0.0152
2726.00,0.0152
2725.00,0.0151
2724.00,0.0151
2723.00,0.0150
2722.00,0.0150
2721.00,0.0149
2720.00,0.0149
2719.00,0.0148
2718.00,0.0148
2717.00,0.0147
2716.00,0.0147
2715.00,0.0146
2714.00,0.0146
2713.00,0.0146
2712.00,0.0146
2711.00,0.0145
2710.00,0.0145
2709.00,0.0145
2708.00,0.0144
2707.00,0.0144
2706.00,0.0144
2705.00,0.0144
2704.00,0.0144
2703.00,0.0144
2702.00,0.0144
2701.00,0.0143
2700.00,0.0143
2699.00,0.0142
2698.00,0.0142
2697.00,0.0142
2696.00,0.0142
2695.00,0.0142
2694.00,0.0141
2693.00,0.0141
2692.00,0.0140
2691.00,0.0140
2690.00,0.0139
2689.00,0.0139
2688.00,0.0138
2687.00,0.0138
2686.00,0.0138
2685.00,0.0138
2684.00,0.0138
2683.00,0.0137
2682.00,0.0137
2681.00,0.0137
2680.00,0.0137
2679.00,0.0137
2678.00,0.0137
2677.00,0.0137
2676.00,0.0137
2675.00,0.0137
2674.00,0.0138
2673.00,0.0138
2672.00,0.0138
2671.00,0.0138
2670.00,0.0139
2669.00,0.0139
2668.00,0.0139
2667.00,0.0140
2666.00,0.0140
2665.00,0.0141
2664.00,0.0142
2663.00,0.0142
2662.00,0.0143
2661.00,0.0143
2660.00,0.0144
2659.00,0.0144
2658.00,0.0144
2657.00,0.0144
2656.00,0.0144
2655.00,0.0144
2654.00,0.0144
2653.00,0.0144
2652.00,0.0144
2651.00,0.0144
2650.00,0.0144
2649.00,0.0144
2648.00,0.0144
2647.00,0.0144
2646.00,0.0144
2645.00,0.0144
2644.00,0.0144
2643.00,0.0144
2642.00,0.0143
2641.00,0.0143
2640.00,0.0142
2639.00,0.0142
2638.00,0.0142
2637.00,0.0141
2636.00,0.0141
2635.00,0.0140
2634.00,0.0139
2633.00,0.0139
2632.00,0.0139
2631.00,0.0138
2630.00,0.0138
2629.00,0.0138
2628.00,0.0137
2627.00,0.0137
2626.00,0.0136
2625.00,0.0136
2624.00,0.0135
2623.00,0.0135
2622.00,0.0134
2621.00,0.0134
2620.00,0.0134
2619.00,0.0134
2618.00,0.0134
2617.00,0.0134
2616.00,0.0134
2615.00,0.0134
2614.00,0.0134
2613.00,0.0134
2612.00,0.0133
2611.00,0.0133
2610.00,0.0133
2609.00,0.0133
2608.00,0.0133
2607.00,0.0133
2606.00,0.0133
2605.00,0.0134
2604.00,0.0134
2603.00,0.0134
2602.00,0.0134
2601.00,0.0134
2600.00,0.0134
2599.00,0.0135
2598.00,0.0135
2597.00,0.0135
2596.00,0.0135
2595.00,0.0136
2594.00,0.0136
2593.00,0.0136
2592.00,0.0136
2591.00,0.0136
2590.00,0.0136
2589.00,0.0136
2588.00,0.0136
2587.00,0.0136
2586.00,0.0136
2585.00,0.0136
2584.00,0.0136
2583.00,0.0136
2582.00,0.0136
2581.00,0.0135
2580.00,0.0135
2579.00,0.0135
2578.00,0.0134
2577.00,0.0134
2576.00,0.0134
2575.00,0.0134
2574.00,0.0134
2573.00,0.0133
2572.00,0.0133
2571.00,0.0133
2570.00,0.0133
2569.00,0.0134
2568.00,0.0134
2567.00,0.0133
2566.00,0.0133
2565.00,0.0133
2564.00,0.0133
2563.00,0.0133
2562.00,0.0132
2561.00,0.0132
2560.00,0.0131
2559.00,0.0131
2558.00,0.0130
2557.00,0.0130
2556.00,0.0130
2555.00,0.0129
2554.00,0.0129
2553.00,0.0128
2552.00,0.0128
2551.00,0.0128
2550.00,0.0128
2549.00,0.0128
2548.00,0.0127
2547.00,0.0127
2546.00,0.0127
2545.00,0.0127
2544.00,0.0128
2543.00,0.0128
2542.00,0.0128
2541.00,0.0128
2540.00,0.0128
2539.00,0.0128
2538.00,0.0128
2537.00,0.0128
2536.00,0.0128
2535.00,0.0127
2534.00,0.0127
2533.00,0.0127
2532.00,0.0127
2531.00,0.0127
2530.00,0.0127
2529.00,0.0126
2528.00,0.0126
2527.00,0.0125
2526.00,0.0125
2525.00,0.0124
2524.00,0.0124
2523.00,0.0124
2522.00,0.0124
2521.00,0.0124
2520.00,0.0124
2519.00,0.0123
2518.00,0.0123
2517.00,0.0123
2516.00,0.0122
2515.00,0.0122
2514.00,0.0122
2513.00,0.0122
2512.00,0.0122
2511.00,0.0122
2510.00,0.0121
2509.00,0.0121
2508.00,0.0121
2507.00,0.0121
2506.00,0.0121
2505.00,0.0120
2504.00,0.0120
2503.00,0.0120
2502.00,0.0120
2501.00,0.0119
2500.00,0.0119
2499.00,0.0119
2498.00,0.0119
2497.00,0.0119
2496.00,0.0119
2495.00,0.0118
2494.00,0.0118
2493.00,0.0118
2492.00,0.0118
2491.00,0.0118
2490.00,0.0118
2489.00,0.0118
2488.00,0.0118
2487.00,0.0118
2486.00,0.0118
2485.00,0.0118
2484.00,0.0118
2483.00,0.0118
2482.00,0.0118
2481.00,0.0117
2480.00,0.0117
2479.00,0.0117
2478.00,0.0117
2477.00,0.0116
2476.00,0.0116
2475.00,0.0116
2474.00,0.0116
2473.00,0.0116
2472.00,0.0116
2471.00,0.0116
2470.00,0.0116
2469.00,0.0116
2468.00,0.0116
2467.00,0.0116
2466.00,0.0115
2465.00,0.0115
2464.00,0.0116
2463.00,0.0116
2462.00,0.0116
2461.00,0.0116
2460.00,0.0116
2459.00,0.0117
2458.00,0.0117
2457.00,0.0117
2456.00,0.0117
2455.00,0.0117
2454.00,0.0117
2453.00,0.0117
2452.00,0.0117
2451.00,0.0116
2450.00,0.0116
2449.00,0.0116
2448.00,0.0115
2447.00,0.0115
2446.00,0.0115
2445.00,0.0115
2444.00,0.0115
2443.00,0.0115
2442.00,0.0115
2441.00,0.0115
2440.00,0.0114
2439.00,0.0114
2438.00,0.0113
2437.00,0.0114
2436.00,0.0114
2435.00,0.0114
2434.00,0.0113
2433.00,0.0113
2432.00,0.0113
2431.00,0.0113
2430.00,0.0113
2429.00,0.0114
2428.00,0.0114
2427.00,0.0113
2426.00,0.0113
2425.00,0.0113
2424.00,0.0113
2423.00,0.0113
2422.00,0.0113
2421.00,0.0113
2420.00,0.0113
2419.00,0.0113
2418.00,0.0113
2417.00,0.0113
2416.00,0.0113
2415.00,0.0113
2414.00,0.0113
2413.00,0.0114
2412.00,0.0114
2411.00,0.0114
2410.00,0.0114
2409.00,0.0114
2408.00,0.0113
2407.00,0.0112
2406.00,0.0112
2405.00,0.0112
2404.00,0.0112
2403.00,0.0112
2402.00,0.0112
2401.00,0.0112
2400.00,0.0112
2399.00,0.0112
2398.00,0.0112
2397.00,0.0112
2396.00,0.0112
2395.00,0.0112
2394.00,0.0112
2393.00,0.0111
2392.00,0.0111
2391.00,0.0111
2390.00,0.0111
2389.00,0.0110
2388.00,0.0110
2387.00,0.0110
2386.00,0.0109
2385.00,0.0109
2384.00,0.0108
2383.00,0.0108
2382.00,0.0107
2381.00,0.0107
2380.00,0.0107
2379.00,0.0107
2378.00,0.0107
2377.00,0.0107
2376.00,0.0107
2375.00,0.0108
2374.00,0.0108
2373.00,0.0109
2372.00,0.0109
2371.00,0.0108
2370.00,0.0108
2369.00,0.0108
2368.00,0.0108
2367.00,0.0108
2366.00,0.0108
2365.00,0.0107
2364.00,0.0108
2363.00,0.0108
2362.00,0.0108
2361.00,0.0109
2360.00,0.0109
2359.00,0.0110
2358.00,0.0110
2357.00,0.0110
2356.00,0.0111
2355.00,0.0111
2354.00,0.0110
2353.00,0.0110
2352.00,0.0110
2351.00,0.0110
2350.00,0.0110
2349.00,0.0110
2348.00,0.0111
2347.00,0.0110
2346.00,0.0110
2345.00,0.0110
2344.00,0.0110
2343.00,0.0111
2342.00,0.0112
2341.00,0.0113
2340.00,0.0114
2339.00,0.0114
2338.00,0.0114
2337.00,0.0114
2336.00,0.0115
2335.00,0.0115
2334.00,0.0115
2333.00,0.0114
2332.00,0.0113
2331.00,0.0113
2330.00,0.0113
2329.00,0.0116
2328.00,0.0121
2327.00,0.0125
2326.00,0.0129
2325.00,0.0129
2324.00,0.0128
2323.00,0.0125
2322.00,0.0123
2321.00,0.0122
2320.00,0.0121
2319.00,0.0121
2318.00,0.0120
2317.00,0.0119
2316.00,0.0119
2315.00,0.0117
2314.00,0.0116
2313.00,0.0116
2312.00,0.0115
2311.00,0.0115
2310.00,0.0114
2309.00,0.0114
2308.00,0.0114
2307.00,0.0114
2306.00,0.0114
2305.00,0.0114
2304.00,0.0114
2303.00,0.0114
2302.00,0.0114
2301.00,0.0115
2300.00,0.0116
2299.00,0.0116
2298.00,0.0117
2297.00,0.0118
2296.00,0.0118
2295.00,0.0119
2294.00,0.0120
2293.00,0.0121
2292.00,0.0122
2291.00,0.0123
2290.00,0.0124
2289.00,0.0125
2288.00,0.0125
2287.00,0.0125
2286.00,0.0124
2285.00,0.0123
2284.00,0.0122
2283.00,0.0121
2282.00,0.0120
2281.00,0.0119
2280.00,0.0119
2279.00,0.0118
2278.00,0.0118
2277.00,0.0117
2276.00,0.0117
2275.00,0.0117
2274.00,0.0116
2273.00,0.0115
2272.00,0.0115
2271.00,0.0114
2270.00,0.0113
2269.00,0.0113
2268.00,0.0112
2267.00,0.0112
2266.00,0.0111
2265.00,0.0110
2264.00,0.0110
2263.00,0.0110
2262.00,0.0110
2261.00,0.0110
2260.00,0.0111
2259.00,0.0111
2258.00,0.0110
2257.00,0.0109
2256.00,0.0107
2255.00,0.0106
2254.00,0.0106
2253.00,0.0106
2252.00,0.0107
2251.00,0.0108
2250.00,0.0108
2249.00,0.0108
2248.00,0.0108
2247.00,0.0109
2246.00,0.0109
2245.00,0.0109
2244.00,0.0110
2243.00,0.0111
2242.00,0.0111
2241.00,0.0111
2240.00,0.0111
2239.00,0.0111
2238.00,0.0109
2237.00,0.0109
2236.00,0.0109
2235.00,0.0109
2234.00,0.0109
2233.00,0.0110
2232.00,0.0110
2231.00,0.0110
2230.00,0.0110
2229.00,0.0110
2228.00,0.0111
2227.00,0.0112
2226.00,0.0113
2225.00,0.0113
2224.00,0.0112
2223.00,0.0110
2222.00,0.0109
2221.00,0.0109
2220.00,0.0109
2219.00,0.0109
2218.00,0.0109
2217.00,0.0110
2216.00,0.0111
2215.00,0.0111
2214.00,0.0111
2213.00,0.0110
2212.00,0.0110
2211.00,0.0109
2210.00,0.0108
2209.00,0.0108
2208.00,0.0109
2207.00,0.0109
2206.00,0.0109
2205.00,0.0110
2204.00,0.0110
2203.00,0.0110
2202.00,0.0108
2201.00,0.0108
2200.00,0.0108
2199.00,0.0108
2198.00,0.0109
2197.00,0.0109
2196.00,0.0109
2195.00,0.0109
2194.00,0.0109
2193.00,0.0110
2192.00,0.0111
2191.00,0.0112
2190.00,0.0113
2189.00,0.0114
2188.00,0.0114
2187.00,0.0114
2186.00,0.0113
2185.00,0.0111
2184.00,0.0108
2183.00,0.0107
2182.00,0.0106
2181.00,0.0107
2180.00,0.0110
2179.00,0.0110
2178.00,0.0108
2177.00,0.0106
2176.00,0.0105
2175.00,0.0104
2174.00,0.0104
2173.00,0.0107
2172.00,0.0110
2171.00,0.0113
2170.00,0.0115
2169.00,0.0118
2168.00,0.0120
2167.00,0.0121
2166.00,0.0121
2165.00,0.0122
2164.00,0.0125
2163.00,0.0124
2162.00,0.0117
2161.00,0.0104
2160.00,0.0088
2159.00,0.0075
2158.00,0.0070
2157.00,0.0072
2156.00,0.0076
2155.00,0.0080
2154.00,0.0083
2153.00,0.0085
2152.00,0.0088
2151.00,0.0088
2150.00,0.0088
2149.00,0.0087
2148.00,0.0087
2147.00,0.0087
2146.00,0.0087
2145.00,0.0088
2144.00,0.0090
2143.00,0.0091
2142.00,0.0091
2141.00,0.0091
2140.00,0.0091
2139.00,0.0091
2138.00,0.0090
2137.00,0.0088
2136.00,0.0086
2135.00,0.0084
2134.00,0.0082
2133.00,0.0083
2132.00,0.0085
2131.00,0.0088
2130.00,0.0090
2129.00,0.0092
2128.00,0.0094
2127.00,0.0095
2126.00,0.0096
2125.00,0.0096
2124.00,0.0098
2123.00,0.0099
2122.00,0.0100
2121.00,0.0100
2120.00,0.0101
2119.00,0.0102
2118.00,0.0104
2117.00,0.0105
2116.00,0.0107
2115.00,0.0107
2114.00,0.0106
2113.00,0.0105
2112.00,0.0104
2111.00,0.0104
2110.00,0.0103
2109.00,0.0103
2108.00,0.0103
2107.00,0.0102
2106.00,0.0102
2105.00,0.0102
2104.00,0.0103
2103.00,0.0103
2102.00,0.0102
2101.00,0.0102
2100.00,0.0102
2099.00,0.0101
2098.00,0.0099
2097.00,0.0097
2096.00,0.0096
2095.00,0.0096
2094.00,0.0096
2093.00,0.0097
2092.00,0.0098
2091.00,0.0099
2090.00,0.0100
2089.00,0.0101
2088.00,0.0102
2087.00,0.0103
2086.00,0.0103
2085.00,0.0104
2084.00,0.0104
2083.00,0.0105
2082.00,0.0105
2081.00,0.0105
2080.00,0.0105
2079.00,0.0105
2078.00,0.0105
2077.00,0.0105
2076.00,0.0105
2075.00,0.0105
2074.00,0.0104
2073.00,0.0104
2072.00,0.0104
2071.00,0.0103
2070.00,0.0102
2069.00,0.0101
2068.00,0.0101
2067.00,0.0101
2066.00,0.0100
2065.00,0.0099
2064.00,0.0098
2063.00,0.0096
2062.00,0.0095
2061.00,0.0096
2060.00,0.0098
2059.00,0.0099
2058.00,0.0100
2057.00,0.0099
2056.00,0.0098
2055.00,0.0098
2054.00,0.0100
2053.00,0.0104
2052.00,0.0108
2051.00,0.0108
2050.00,0.0104
2049.00,0.0100
2048.00,0.0098
2047.00,0.0097
2046.00,0.0097
2045.00,0.0096
2044.00,0.0097
2043.00,0.0098
2042.00,0.0098
2041.00,0.0099
2040.00,0.0099
2039.00,0.0100
2038.00,0.0099
2037.00,0.0099
2036.00,0.0098
2035.00,0.0096
2034.00,0.0092
2033.00,0.0089
2032.00,0.0089
2031.00,0.0090
2030.00,0.0091
2029.00,0.0091
2028.00,0.0091
2027.00,0.0089
2026.00,0.0088
2025.00,0.0088
2024.00,0.0090
2023.00,0.0091
2022.00,0.0091
2021.00,0.0090
2020.00,0.0092
2019.00,0.0093
2018.00,0.0093
2017.00,0.0093
2016.00,0.0093
2015.00,0.0092
2014.00,0.0090
2013.00,0.0088
2012.00,0.0087
2011.00,0.0086
2010.00,0.0084
2009.00,0.0082
2008.00,0.0080
2007.00,0.0078
2006.00,0.0076
2005.00,0.0078
2004.00,0.0081
2003.00,0.0084
2002.00,0.0085
2001.00,0.0086
2000.00,0.0088
1999.00,0.0089
1998.00,0.0088
1997.00,0.0088
1996.00,0.0090
1995.00,0.0091
1994.00,0.0092
1993.00,0.0094
1992.00,0.0096
1991.00,0.0097
1990.00,0.0097
1989.00,0.0098
1988.00,0.0098
1987.00,0.0098
1986.00,0.0097
1985.00,0.0098
1984.00,0.0102
1983.00,0.0106
1982.00,0.0108
1981.00,0.0107
1980.00,0.0102
1979.00,0.0094
1978.00,0.0086
1977.00,0.0082
1976.00,0.0082
1975.00,0.0082
1974.00,0.0082
1973.00,0.0083
1972.00,0.0085
1971.00,0.0085
1970.00,0.0085
1969.00,0.0086
1968.00,0.0087
1967.00,0.0087
1966.00,0.0085
1965.00,0.0083
1964.00,0.0083
1963.00,0.0083
1962.00,0.0081
1961.00,0.0080
1960.00,0.0080
1959.00,0.0081
1958.00,0.0081
1957.00,0.0082
1956.00,0.0084
1955.00,0.0084
1954.00,0.0083
1953.00,0.0084
1952.00,0.0086
1951.00,0.0087
1950.00,0.0087
1949.00,0.0087
1948.00,0.0088
1947.00,0.0088
1946.00,0.0088
1945.00,0.0089
1944.00,0.0090
1943.00,0.0091
1942.00,0.0089
1941.00,0.0087
1940.00,0.0087
1939.00,0.0087
1938.00,0.0086
1937.00,0.0086
1936.00,0.0086
1935.00,0.0087
1934.00,0.0087
1933.00,0.0088
1932.00,0.0089
1931.00,0.0089
1930.00,0.0089
1929.00,0.0089
1928.00,0.0090
1927.00,0.0090
1926.00,0.0090
1925.00,0.0092
1924.00,0.0094
1923.00,0.0095
1922.00,0.0095
1921.00,0.0094
1920.00,0.0094
1919.00,0.0093
1918.00,0.0092
1917.00,0.0092
1916.00,0.0093
1915.00,0.0094
1914.00,0.0095
1913.00,0.0098
1912.00,0.0101
1911.00,0.0105
1910.00,0.0108
1909.00,0.0110
1908.00,0.0110
1907.00,0.0108
1906.00,0.0105
1905.00,0.0102
1904.00,0.0100
1903.00,0.0098
1902.00,0.0097
1901.00,0.0097
1900.00,0.0097
1899.00,0.0098
1898.00,0.0098
1897.00,0.0099
1896.00,0.0101
1895.00,0.0101
1894.00,0.0100
1893.00,0.0100
1892.00,0.0100
1891.00,0.0099
1890.00,0.0098
1889.00,0.0096
1888.00,0.0095
1887.00,0.0095
1886.00,0.0095
1885.00,0.0095
1884.00,0.0095
1883.00,0.0094
1882.00,0.0093
1881.00,0.0093
1880.00,0.0093
1879.00,0.0094
1878.00,0.0093
1877.00,0.0093
1876.00,0.0093
1875.00,0.0093
1874.00,0.0093
1873.00,0.0094
1872.00,0.0095
1871.00,0.0096
1870.00,0.0097
1869.00,0.0097
1868.00,0.0097
1867.00,0.0096
1866.00,0.0095
1865.00,0.0095
1864.00,0.0096
1863.00,0.0096
1862.00,0.0096
1861.00,0.0096
1860.00,0.0096
1859.00,0.0096
1858.00,0.0096
1857.00,0.0095
1856.00,0.0095
1855.00,0.0095
1854.00,0.0095
1853.00,0.0095
1852.00,0.0097
1851.00,0.0099
1850.00,0.0100
1849.00,0.0102
1848.00,0.0103
1847.00,0.0103
1846.00,0.0102
1845.00,0.0100
1844.00,0.0098
1843.00,0.0097
1842.00,0.0097
1841.00,0.0098
1840.00,0.0098
1839.00,0.0099
1838.00,0.0098
1837.00,0.0098
1836.00,0.0097
1835.00,0.0097
1834.00,0.0096
1833.00,0.0096
1832.00,0.0097
1831.00,0.0097
1830.00,0.0096
1829.00,0.0095
1828.00,0.0096
1827.00,0.0096
1826.00,0.0097
1825.00,0.0096
1824.00,0.0096
1823.00,0.0096
1822.00,0.0096
1821.00,0.0095
1820.00,0.0095
1819.00,0.0094
1818.00,0.0093
1817.00,0.0092
1816.00,0.0092
1815.00,0.0094
1814.00,0.0096
1813.00,0.0098
1812.00,0.0099
1811.00,0.0099
1810.00,0.0097
1809.00,0.0097
1808.00,0.0097
1807.00,0.0097
1806.00,0.0097
1805.00,0.0098
1804.00,0.0099
1803.00,0.0100
1802.00,0.0100
1801.00,0.0100
1800.00,0.0100
1799.00,0.0100
1798.00,0.0101
1797.00,0.0103
1796.00,0.0104
1795.00,0.0103
1794.00,0.0102
1793.00,0.0101
1792.00,0.0100
1791.00,0.0100
1790.00,0.0099
1789.00,0.0100
1788.00,0.0101
1787.00,0.0101
1786.00,0.0101
1785.00,0.0101
1784.00,0.0101
1783.00,0.0103
1782.00,0.0104
1781.00,0.0105
1780.00,0.0105
1779.00,0.0105
1778.00,0.0106
1777.00,0.0107
1776.00,0.0109
1775.00,0.0110
1774.00,0.0110
1773.00,0.0108
1772.00,0.0107
1771.00,0.0106
1770.00,0.0106
1769.00,0.0107
1768.00,0.0107
1767.00,0.0106
1766.00,0.0106
1765.00,0.0106
1764.00,0.0108
1763.00,0.0108
1762.00,0.0108
1761.00,0.0109
1760.00,0.0111
1759.00,0.0113
1758.00,0.0114
1757.00,0.0112
1756.00,0.0111
1755.00,0.0111
1754.00,0.0112
1753.00,0.0114
1752.00,0.0116
1751.00,0.0118
1750.00,0.0119
1749.00,0.0120
1748.00,0.0122
1747.00,0.0123
1746.00,0.0124
1745.00,0.0125
1744.00,0.0126
1743.00,0.0125
1742.00,0.0122
1741.00,0.0120
1740.00,0.0120
1739.00,0.0121
1738.00,0.0122
1737.00,0.0123
1736.00,0.0124
1735.00,0.0126
1734.00,0.0127
1733.00,0.0129
1732.00,0.0135
1731.00,0.0139
1730.00,0.0141
1729.00,0.0142
1728.00,0.0143
1727.00,0.0146
1726.00,0.0148
1725.00,0.0151
1724.00,0.0155
1723.00,0.0157
1722.00,0.0158
1721.00,0.0159
1720.00,0.0163
1719.00,0.0169
1718.00,0.0174
1717.00,0.0177
1716.00,0.0181
1715.00,0.0184
1714.00,0.0187
1713.00,0.0193
1712.00,0.0200
1711.00,0.0207
1710.00,0.0212
1709.00,0.0218
1708.00,0.0225
1707.00,0.0234
1706.00,0.0243
1705.00,0.0254
1704.00,0.0263
1703.00,0.0268
1702.00,0.0271
1701.00,0.0285
1700.00,0.0313
1699.00,0.0342
1698.00,0.0366
1697.00,0.0390
1696.00,0.0418
1695.00,0.0449
1694.00,0.0477
1693.00,0.0503
1692.00,0.0531
1691.00,0.0561
1690.00,0.0594
1689.00,0.0627
1688.00,0.0657
1687.00,0.0680
1686.00,0.0704
1685.00,0.0744
1684.00,0.0800
1683.00,0.0850
1682.00,0.0886
1681.00,0.0915
1680.00,0.0942
1679.00,0.0967
1678.00,0.0986
1677.00,0.1007
1676.00,0.1038
1675.00,0.1077
1674.00,0.1113
1673.00,0.1139
1672.00,0.1159
1671.00,0.1182
1670.00,0.1210
1669.00,0.1244
1668.00,0.1274
1667.00,0.1296
1666.00,0.1309
1665.00,0.1321
1664.00,0.1338
1663.00,0.1363
1662.00,0.1389
1661.00,0.1411
1660.00,0.1428
1659.00,0.1441
1658.00,0.1448
1657.00,0.1450
1656.00,0.1446
1655.00,0.1441
1654.00,0.1449
1653.00,0.1477
1652.00,0.1504
1651.00,0.1509
1650.00,0.1497
1649.00,0.1481
1648.00,0.1466
1647.00,0.1454
1646.00,0.1442
1645.00,0.1428
1644.00,0.1410
1643.00,0.1387
1642.00,0.1360
1641.00,0.1330
1640.00,0.1300
1639.00,0.1268
1638.00,0.1233
1637.00,0.1198
1636.00,0.1166
1635.00,0.1143
1634.00,0.1127
1633.00,0.1117
1632.00,0.1110
1631.00,0.1109
1630.00,0.1118
1629.00,0.1142
1628.00,0.1179
1627.00,0.1218
1626.00,0.1250
1625.00,0.1275
1624.00,0.1298
1623.00,0.1318
1622.00,0.1323
1621.00,0.1309
1620.00,0.1278
1619.00,0.1233
1618.00,0.1176
1617.00,0.1111
1616.00,0.1055
1615.00,0.1017
1614.00,0.0996
1613.00,0.0982
1612.00,0.0973
1611.00,0.0964
1610.00,0.0948
1609.00,0.0922
1608.00,0.0886
1607.00,0.0843
1606.00,0.0797
1605.00,0.0751
1604.00,0.0707
1603.00,0.0666
1602.00,0.0629
1601.00,0.0597
1600.00,0.0569
1599.00,0.0546
1598.00,0.0528
1597.00,0.0516
1596.00,0.0508
1595.00,0.0506
1594.00,0.0510
1593.00,0.0522
1592.00,0.0540
1591.00,0.0567
1590.00,0.0600
1589.00,0.0635
1588.00,0.0671
1587.00,0.0703
1586.00,0.0729
1585.00,0.0745
1584.00,0.0753
1583.00,0.0751
1582.00,0.0742
1581.00,0.0726
1580.00,0.0706
1579.00,0.0684
1578.00,0.0658
1577.00,0.0627
1576.00,0.0594
1575.00,0.0566
1574.00,0.0544
1573.00,0.0526
1572.00,0.0509
1571.00,0.0495
1570.00,0.0483
1569.00,0.0472
1568.00,0.0461
1567.00,0.0449
1566.00,0.0433
1565.00,0.0413
1564.00,0.0392
1563.00,0.0372
1562.00,0.0353
1561.00,0.0332
1560.00,0.0314
1559.00,0.0294
1558.00,0.0279
1557.00,0.0276
1556.00,0.0276
1555.00,0.0275
1554.00,0.0272
1553.00,0.0268
1552.00,0.0267
1551.00,0.0263
1550.00,0.0256
1549.00,0.0254
1548.00,0.0251
1547.00,0.0249
1546.00,0.0246
1545.00,0.0244
1544.00,0.0242
1543.00,0.0240
1542.00,0.0239
1541.00,0.0237
1540.00,0.0236
1539.00,0.0234
1538.00,0.0232
1537.00,0.0228
1536.00,0.0225
1535.00,0.0225
1534.00,0.0222
1533.00,0.0220
1532.00,0.0219
1531.00,0.0219
1530.00,0.0220
1529.00,0.0221
1528.00,0.0222
1527.00,0.0222
1526.00,0.0222
1525.00,0.0223
1524.00,0.0224
1523.00,0.0226
1522.00,0.0229
1521.00,0.0232
1520.00,0.0236
1519.00,0.0242
1518.00,0.0250
1517.00,0.0258
1516.00,0.0265
1515.00,0.0270
1514.00,0.0276
1513.00,0.0283
1512.00,0.0292
1511.00,0.0300
1510.00,0.0308
1509.00,0.0316
1508.00,0.0323
1507.00,0.0326
1506.00,0.0330
1505.00,0.0343
1504.00,0.0360
1503.00,0.0377
1502.00,0.0398
1501.00,0.0424
1500.00,0.0460
1499.00,0.0507
1498.00,0.0561
1497.00,0.0612
1496.00,0.0645
1495.00,0.0653
1494.00,0.0641
1493.00,0.0618
1492.00,0.0587
1491.00,0.0554
1490.00,0.0519
1489.00,0.0484
1488.00,0.0450
1487.00,0.0420
1486.00,0.0394
1485.00,0.0373
1484.00,0.0356
1483.00,0.0342
1482.00,0.0330
1481.00,0.0321
1480.00,0.0315
1479.00,0.0312
1478.00,0.0313
1477.00,0.0318
1476.00,0.0327
1475.00,0.0338
1474.00,0.0355
1473.00,0.0386
1472.00,0.0429
1471.00,0.0480
1470.00,0.0535
1469.00,0.0594
1468.00,0.0654
1467.00,0.0711
1466.00,0.0764
1465.00,0.0811
1464.00,0.0846
1463.00,0.0866
1462.00,0.0876
1461.00,0.0879
1460.00,0.0876
1459.00,0.0867
1458.00,0.0847
1457.00,0.0816
1456.00,0.0781
1455.00,0.0752
1454.00,0.0728
1453.00,0.0709
1452.00,0.0697
1451.00,0.0692
1450.00,0.0695
1449.00,0.0708
1448.00,0.0730
1447.00,0.0759
1446.00,0.0793
1445.00,0.0830
1444.00,0.0871
1443.00,0.0915
1442.00,0.0958
1441.00,0.0997
1440.00,0.1029
1439.00,0.1054
1438.00,0.1078
1437.00,0.1111
1436.00,0.1149
1435.00,0.1180
1434.00,0.1200
1433.00,0.1216
1432.00,0.1232
1431.00,0.1249
1430.00,0.1268
1429.00,0.1288
1428.00,0.1306
1427.00,0.1321
1426.00,0.1334
1425.00,0.1350
1424.00,0.1363
1423.00,0.1367
1422.00,0.1358
1421.00,0.1338
1420.00,0.1307
1419.00,0.1264
1418.00,0.1210
1417.00,0.1152
1416.00,0.1091
1415.00,0.1029
1414.00,0.0971
1413.00,0.0921
1412.00,0.0878
1411.00,0.0845
1410.00,0.0822
1409.00,0.0810
1408.00,0.0808
1407.00,0.0814
1406.00,0.0829
1405.00,0.0851
1404.00,0.0874
1403.00,0.0893
1402.00,0.0904
1401.00,0.0908
1400.00,0.0905
1399.00,0.0892
1398.00,0.0870
1397.00,0.0840
1396.00,0.0801
1395.00,0.0758
1394.00,0.0717
1393.00,0.0682
1392.00,0.0654
1391.00,0.0635
1390.00,0.0627
1389.00,0.0633
1388.00,0.0650
1387.00,0.0668
1386.00,0.0675
1385.00,0.0669
1384.00,0.0657
1383.00,0.0649
1382.00,0.0651
1381.00,0.0659
1380.00,0.0671
1379.00,0.0680
1378.00,0.0685
1377.00,0.0684
1376.00,0.0676
1375.00,0.0660
1374.00,0.0640
1373.00,0.0620
1372.00,0.0607
1371.00,0.0603
1370.00,0.0609
1369.00,0.0626
1368.00,0.0649
1367.00,0.0675
1366.00,0.0695
1365.00,0.0705
1364.00,0.0710
1363.00,0.0718
1362.00,0.0736
1361.00,0.0758
1360.00,0.0770
1359.00,0.0759
1358.00,0.0729
1357.00,0.0689
1356.00,0.0651
1355.00,0.0622
1354.00,0.0601
1353.00,0.0587
1352.00,0.0578
1351.00,0.0573
1350.00,0.0573
1349.00,0.0574
1348.00,0.0575
1347.00,0.0573
1346.00,0.0568
1345.00,0.0560
1344.00,0.0549
1343.00,0.0536
1342.00,0.0523
1341.00,0.0509
1340.00,0.0495
1339.00,0.0482
1338.00,0.0470
1337.00,0.0463
1336.00,0.0462
1335.00,0.0466
1334.00,0.0475
1333.00,0.0488
1332.00,0.0501
1331.00,0.0514
1330.00,0.0525
1329.00,0.0535
1328.00,0.0543
1327.00,0.0549
1326.00,0.0555
1325.00,0.0561
1324.00,0.0568
1323.00,0.0576
1322.00,0.0586
1321.00,0.0595
1320.00,0.0603
1319.00,0.0608
1318.00,0.0609
1317.00,0.0605
1316.00,0.0598
1315.00,0.0589
1314.00,0.0580
1313.00,0.0572
1312.00,0.0565
1311.00,0.0561
1310.00,0.0563
1309.00,0.0570
1308.00,0.0583
1307.00,0.0602
1306.00,0.0630
1305.00,0.0666
1304.00,0.0710
1303.00,0.0758
1302.00,0.0805
1301.00,0.0845
1300.00,0.0875
1299.00,0.0899
1298.00,0.0924
1297.00,0.0955
1296.00,0.0996
1295.00,0.1044
1294.00,0.1096
1293.00,0.1147
1292.00,0.1193
1291.00,0.1237
1290.00,0.1278
1289.00,0.1319
1288.00,0.1359
1287.00,0.1397
1286.00,0.1428
1285.00,0.1450
1284.00,0.1459
1283.00,0.1453
1282.00,0.1431
1281.00,0.1397
1280.00,0.1357
1279.00,0.1316
1278.00,0.1281
1277.00,0.1253
1276.00,0.1234
1275.00,0.1222
1274.00,0.1215
1273.00,0.1208
1272.00,0.1200
1271.00,0.1187
1270.00,0.1170
1269.00,0.1149
1268.00,0.1123
1267.00,0.1094
1266.00,0.1061
1265.00,0.1025
1264.00,0.0988
1263.00,0.0949
1262.00,0.0910
1261.00,0.0873
1260.00,0.0837
1259.00,0.0803
1258.00,0.0773
1257.00,0.0747
1256.00,0.0723
1255.00,0.0703
1254.00,0.0686
1253.00,0.0673
1252.00,0.0665
1251.00,0.0661
1250.00,0.0663
1249.00,0.0670
1248.00,0.0682
1247.00,0.0698
1246.00,0.0716
1245.00,0.0735
1244.00,0.0752
1243.00,0.0766
1242.00,0.0778
1241.00,0.0791
1240.00,0.0806
1239.00,0.0827
1238.00,0.0854
1237.00,0.0885
1236.00,0.0917
1235.00,0.0944
1234.00,0.0963
1233.00,0.0969
1232.00,0.0963
1231.00,0.0945
1230.00,0.0921
1229.00,0.0894
1228.00,0.0866
1227.00,0.0841
1226.00,0.0819
1225.00,0.0800
1224.00,0.0785
1223.00,0.0772
1222.00,0.0765
1221.00,0.0762
1220.00,0.0763
1219.00,0.0768
1218.00,0.0777
1217.00,0.0787
1216.00,0.0795
1215.00,0.0799
1214.00,0.0797
1213.00,0.0785
1212.00,0.0764
1211.00,0.0736
1210.00,0.0706
1209.00,0.0678
1208.00,0.0653
1207.00,0.0634
1206.00,0.0623
1205.00,0.0619
1204.00,0.0623
1203.00,0.0635
1202.00,0.0655
1201.00,0.0680
1200.00,0.0710
1199.00,0.0744
1198.00,0.0781
1197.00,0.0819
1196.00,0.0851
1195.00,0.0872
1194.00,0.0877
1193.00,0.0867
1192.00,0.0843
1191.00,0.0809
1190.00,0.0770
1189.00,0.0729
1188.00,0.0687
1187.00,0.0647
1186.00,0.0612
1185.00,0.0582
1184.00,0.0557
1183.00,0.0537
1182.00,0.0522
1181.00,0.0511
1180.00,0.0502
1179.00,0.0497
1178.00,0.0493
1177.00,0.0492
1176.00,0.0492
1175.00,0.0493
1174.00,0.0495
1173.00,0.0497
1172.00,0.0499
1171.00,0.0500
1170.00,0.0502
1169.00,0.0503
1168.00,0.0503
1167.00,0.0503
1166.00,0.0503
1165.00,0.0505
1164.00,0.0508
1163.00,0.0515
1162.00,0.0527
1161.00,0.0547
1160.00,0.0578
1159.00,0.0622
1158.00,0.0676
1157.00,0.0735
1156.00,0.0787
1155.00,0.0817
1154.00,0.0817
1153.00,0.0782
1152.00,0.0723
1151.00,0.0652
1150.00,0.0584
1149.00,0.0528
1148.00,0.0485
1147.00,0.0455
1146.00,0.0434
1145.00,0.0420
1144.00,0.0409
1143.00,0.0403
1142.00,0.0399
1141.00,0.0397
1140.00,0.0398
1139.00,0.0403
1138.00,0.0413
1137.00,0.0429
1136.00,0.0454
1135.00,0.0490
1134.00,0.0540
1133.00,0.0605
1132.00,0.0681
1131.00,0.0759
1130.00,0.0826
1129.00,0.0870
1128.00,0.0887
1127.00,0.0879
1126.00,0.0852
1125.00,0.0811
1124.00,0.0762
1123.00,0.0708
1122.00,0.0654
1121.00,0.0605
1120.00,0.0565
1119.00,0.0535
1118.00,0.0516
1117.00,0.0504
1116.00,0.0499
1115.00,0.0496
1114.00,0.0492
1113.00,0.0487
1112.00,0.0479
1111.00,0.0469
1110.00,0.0459
1109.00,0.0452
1108.00,0.0448
1107.00,0.0449
1106.00,0.0457
1105.00,0.0476
1104.00,0.0504
1103.00,0.0544
1102.00,0.0588
1101.00,0.0629
1100.00,0.0657
1099.00,0.0663
1098.00,0.0647
1097.00,0.0614
1096.00,0.0571
1095.00,0.0526
1094.00,0.0487
1093.00,0.0454
1092.00,0.0430
1091.00,0.0411
1090.00,0.0398
1089.00,0.0389
1088.00,0.0383
1087.00,0.0378
1086.00,0.0374
1085.00,0.0372
1084.00,0.0370
1083.00,0.0370
1082.00,0.0371
1081.00,0.0373
1080.00,0.0376
1079.00,0.0379
1078.00,0.0383
1077.00,0.0387
1076.00,0.0392
1075.00,0.0395
1074.00,0.0399
1073.00,0.0404
1072.00,0.0408
1071.00,0.0413
1070.00,0.0419
1069.00,0.0426
1068.00,0.0434
1067.00,0.0444
1066.00,0.0455
1065.00,0.0469
1064.00,0.0487
1063.00,0.0512
1062.00,0.0546
1061.00,0.0592
1060.00,0.0649
1059.00,0.0720
1058.00,0.0802
1057.00,0.0888
1056.00,0.0970
1055.00,0.1038
1054.00,0.1086
1053.00,0.1115
1052.00,0.1132
1051.00,0.1140
1050.00,0.1140
1049.00,0.1128
1048.00,0.1102
1047.00,0.1061
1046.00,0.1007
1045.00,0.0946
1044.00,0.0881
1043.00,0.0817
1042.00,0.0759
1041.00,0.0709
1040.00,0.0671
1039.00,0.0646
1038.00,0.0633
1037.00,0.0630
1036.00,0.0635
1035.00,0.0643
1034.00,0.0654
1033.00,0.0673
1032.00,0.0705
1031.00,0.0756
1030.00,0.0824
1029.00,0.0902
1028.00,0.0975
1027.00,0.1024
1026.00,0.1037
1025.00,0.1011
1024.00,0.0956
1023.00,0.0887
1022.00,0.0818
1021.00,0.0756
1020.00,0.0704
1019.00,0.0659
1018.00,0.0622
1017.00,0.0590
1016.00,0.0561
1015.00,0.0535
1014.00,0.0513
1013.00,0.0495
1012.00,0.0482
1011.00,0.0476
1010.00,0.0478
1009.00,0.0490
1008.00,0.0511
1007.00,0.0537
1006.00,0.0567
1005.00,0.0596
1004.00,0.0617
1003.00,0.0628
1002.00,0.0627
1001.00,0.0617
1000.00,0.0601
999.00,0.0583
998.00,0.0566
997.00,0.0549
996.00,0.0535
995.00,0.0522
994.00,0.0510
993.00,0.0495
992.00,0.0478
991.00,0.0459
990.00,0.0439
989.00,0.0421
988.00,0.0404
987.00,0.0390
986.00,0.0378
985.00,0.0369
984.00,0.0360
983.00,0.0354
982.00,0.0349
981.00,0.0345
980.00,0.0342
979.00,0.0341
978.00,0.0340
977.00,0.0340
976.00,0.0338
975.00,0.0336
974.00,0.0335
973.00,0.0332
972.00,0.0330
971.00,0.0327
970.00,0.0326
969.00,0.0325
968.00,0.0324
967.00,0.0324
966.00,0.0325
965.00,0.0328
964.00,0.0331
963.00,0.0335
962.00,0.0336
961.00,0.0333
960.00,0.0324
959.00,0.0313
958.00,0.0301
957.00,0.0291
956.00,0.0283
955.00,0.0277
954.00,0.0272
953.00,0.0268
952.00,0.0267
951.00,0.0268
950.00,0.0272
949.00,0.0278
948.00,0.0282
947.00,0.0283
946.00,0.0282
945.00,0.0282
944.00,0.0285
943.00,0.0291
942.00,0.0300
941.00,0.0310
940.00,0.0322
939.00,0.0333
938.00,0.0344
937.00,0.0354
936.00,0.0364
935.00,0.0373
934.00,0.0382
933.00,0.0387
932.00,0.0387
931.00,0.0381
930.00,0.0373
929.00,0.0364
928.00,0.0358
927.00,0.0355
926.00,0.0357
925.00,0.0363
924.00,0.0373
923.00,0.0383
922.00,0.0389
921.00,0.0388
920.00,0.0378
919.00,0.0361
918.00,0.0342
917.00,0.0324
916.00,0.0308
915.00,0.0296
914.00,0.0287
913.00,0.0281
912.00,0.0277
911.00,0.0274
910.00,0.0273
909.00,0.0274
908.00,0.0276
907.00,0.0281
906.00,0.0288
905.00,0.0299
904.00,0.0315
903.00,0.0336
902.00,0.0361
901.00,0.0387
900.00,0.0408
899.00,0.0419
898.00,0.0418
897.00,0.0407
896.00,0.0391
895.00,0.0377
894.00,0.0371
893.00,0.0376
892.00,0.0392
891.00,0.0410
890.00,0.0420
889.00,0.0412
888.00,0.0388
887.00,0.0358
886.00,0.0333
885.00,0.0318
884.00,0.0310
883.00,0.0307
882.00,0.0309
881.00,0.0314
880.00,0.0322
879.00,0.0337
878.00,0.0361
877.00,0.0394
876.00,0.0436
875.00,0.0486
874.00,0.0543
873.00,0.0602
872.00,0.0657
871.00,0.0701
870.00,0.0726
869.00,0.0726
868.00,0.0705
867.00,0.0671
866.00,0.0634
865.00,0.0600
864.00,0.0567
863.00,0.0536
862.00,0.0507
861.00,0.0483
860.00,0.0466
859.00,0.0459
858.00,0.0464
857.00,0.0483
856.00,0.0512
855.00,0.0546
854.00,0.0582
853.00,0.0617
852.00,0.0654
851.00,0.0693
850.00,0.0728
849.00,0.0749
848.00,0.0750
847.00,0.0732
846.00,0.0702
845.00,0.0671
844.00,0.0641
843.00,0.0617
842.00,0.0600
841.00,0.0591
840.00,0.0590
839.00,0.0601
838.00,0.0624
837.00,0.0657
836.00,0.0692
835.00,0.0720
834.00,0.0737
833.00,0.0740
832.00,0.0726
831.00,0.0697
830.00,0.0656
829.00,0.0607
828.00,0.0556
827.00,0.0512
826.00,0.0482
825.00,0.0473
824.00,0.0492
823.00,0.0547
822.00,0.0629
821.00,0.0714
820.00,0.0773
819.00,0.0803
818.00,0.0824
817.00,0.0856
816.00,0.0882
815.00,0.0868
814.00,0.0799
813.00,0.0696
812.00,0.0595
811.00,0.0515
810.00,0.0461
809.00,0.0424
808.00,0.0398
807.00,0.0379
806.00,0.0365
805.00,0.0353
804.00,0.0345
803.00,0.0338
802.00,0.0333
801.00,0.0330
800.00,0.0327
799.00,0.0325
798.00,0.0324
797.00,0.0322
796.00,0.0321
795.00,0.0320
794.00,0.0319
793.00,0.0318
792.00,0.0317
791.00,0.0318
790.00,0.0318
789.00,0.0319
788.00,0.0319
787.00,0.0320
786.00,0.0320
785.00,0.0320
784.00,0.0321
783.00,0.0322
782.00,0.0324
781.00,0.0327
780.00,0.0331
779.00,0.0338
778.00,0.0349
777.00,0.0365
776.00,0.0385
775.00,0.0402
774.00,0.0410
773.00,0.0407
772.00,0.0396
771.00,0.0384
770.00,0.0376
769.00,0.0372
768.00,0.0372
767.00,0.0374
766.00,0.0377
765.00,0.0383
764.00,0.0391
763.00,0.0402
762.00,0.0414
761.00,0.0427
760.00,0.0439
759.00,0.0447
758.00,0.0450
757.00,0.0451
756.00,0.0450
755.00,0.0449
754.00,0.0450
753.00,0.0453
752.00,0.0457
751.00,0.0462
750.00,0.0468
749.00,0.0475
748.00,0.0482
747.00,0.0489
746.00,0.0497
745.00,0.0506
744.00,0.0516
743.00,0.0528
742.00,0.0541
741.00,0.0558
740.00,0.0582
739.00,0.0613
738.00,0.0654
737.00,0.0701
736.00,0.0745
735.00,0.0774
734.00,0.0781
733.00,0.0771
732.00,0.0756
731.00,0.0747
730.00,0.0746
729.00,0.0747
728.00,0.0740
727.00,0.0719
726.00,0.0686
725.00,0.0649
724.00,0.0614
723.00,0.0588
722.00,0.0570
721.00,0.0560
720.00,0.0558
719.00,0.0564
718.00,0.0577
717.00,0.0593
716.00,0.0609
715.00,0.0619
714.00,0.0620
713.00,0.0615
712.00,0.0605
711.00,0.0593
710.00,0.0583
709.00,0.0575
708.00,0.0570
707.00,0.0569
706.00,0.0571
705.00,0.0577
704.00,0.0584
703.00,0.0594
702.00,0.0604
701.00,0.0615
700.00,0.0627
699.00,0.0637
698.00,0.0643
697.00,0.0645
696.00,0.0643
695.00,0.0638
694.00,0.0634
693.00,0.0633
692.00,0.0640
691.00,0.0655
690.00,0.0675
689.00,0.0696
688.00,0.0711
687.00,0.0715
686.00,0.0709
685.00,0.0699
684.00,0.0692
683.00,0.0688
682.00,0.0689
681.00,0.0694
680.00,0.0702
679.00,0.0712
678.00,0.0725
677.00,0.0740
676.00,0.0757
675.00,0.0778
674.00,0.0800
673.00,0.0821
672.00,0.0838
671.00,0.0851
670.00,0.0859
669.00,0.0864
668.00,0.0869
667.00,0.0873
666.00,0.0873
665.00,0.0876
664.00,0.0886
663.00,0.0901
662.00,0.0916
661.00,0.0928
660.00,0.0933
659.00,0.0932
658.00,0.0928
657.00,0.0924
656.00,0.0922
655.00,0.0924
654.00,0.0928
653.00,0.0933
652.00,0.0938
651.00,0.0943
650.00,0.0946
649.00,0.0949
648.00,0.0951
647.00,0.0951
646.00,0.0950
645.00,0.0945
644.00,0.0939
643.00,0.0932
642.00,0.0924
641.00,0.0917
640.00,0.0909
639.00,0.0902
638.00,0.0895
637.00,0.0888
636.00,0.0881
635.00,0.0875
634.00,0.0869
633.00,0.0863
632.00,0.0858
631.00,0.0854
630.00,0.0852
629.00,0.0852
628.00,0.0853
627.00,0.0856
626.00,0.0862
625.00,0.0869
624.00,0.0878
623.00,0.0888
622.00,0.0900
621.00,0.0910
620.00,0.0917
619.00,0.0918
618.00,0.0912
617.00,0.0900
616.00,0.0883
615.00,0.0865
614.00,0.0849
613.00,0.0837
612.00,0.0831
611.00,0.0832
610.00,0.0840
609.00,0.0857
608.00,0.0881
607.00,0.0912
606.00,0.0946
605.00,0.0978
604.00,0.1005
603.00,0.1025
602.00,0.1039
601.00,0.1048
600.00,0.1053
599.00,0.1055
598.00,0.1056
597.00,0.1058
596.00,0.1059
595.00,0.1060
594.00,0.1060
593.00,0.1059
592.00,0.1057
591.00,0.1055
590.00,0.1053
589.00,0.1053
588.00,0.1055
587.00,0.1058
586.00,0.1063
585.00,0.1071
584.00,0.1081
583.00,0.1094
582.00,0.1108
581.00,0.1126
580.00,0.1150
579.00,0.1180
578.00,0.1215
577.00,0.1246
576.00,0.1264
575.00,0.1263
574.00,0.1246
573.00,0.1222
572.00,0.1198
571.00,0.1177
570.00,0.1159
569.00,0.1144
568.00,0.1132
567.00,0.1127
566.00,0.1127
565.00,0.1132
564.00,0.1142
563.00,0.1155
562.00,0.1169
561.00,0.1184
560.00,0.1193
559.00,0.1192
558.00,0.1181
557.00,0.1163
556.00,0.1142
555.00,0.1123
554.00,0.1106
553.00,0.1097
552.00,0.1096
551.00,0.1105
550.00,0.1121
549.00,0.1142
548.00,0.1165
547.00,0.1182
546.00,0.1189
545.00,0.1185
544.00,0.1171
543.00,0.1151
542.00,0.1129
541.00,0.1109
540.00,0.1091
539.00,0.1076
538.00,0.1066
537.00,0.1063
536.00,0.1066
535.00,0.1078
534.00,0.1096
533.00,0.1116
532.00,0.1134
531.00,0.1143
530.00,0.1141
529.00,0.1128
528.00,0.1109
527.00,0.1087
526.00,0.1064
525.00,0.1041
524.00,0.1023
523.00,0.1008
522.00,0.0996
521.00,0.0988
520.00,0.0982
519.00,0.0977
518.00,0.0972
517.00,0.0967
516.00,0.0964
515.00,0.0961
514.00,0.0959
513.00,0.0958
512.00,0.0957
511.00,0.0959
510.00,0.0962
509.00,0.0968
508.00,0.0975
507.00,0.0979
506.00,0.0980
505.00,0.0978
504.00,0.0974
503.00,0.0968
502.00,0.0960
501.00,0.0953
500.00,0.0948
499.00,0.0944
498.00,0.0942
497.00,0.0943
496.00,0.0947
495.00,0.0955
494.00,0.0964
493.00,0.0972
492.00,0.0977
491.00,0.0978
490.00,0.0976
489.00,0.0972
488.00,0.0968
487.00,0.0962
486.00,0.0957
485.00,0.0953
484.00,0.0950
483.00,0.0947
482.00,0.0945
481.00,0.0943
480.00,0.0942
479.00,0.0941
478.00,0.0942
477.00,0.0943
476.00,0.0944
475.00,0.0945
474.00,0.0946
473.00,0.0948
472.00,0.0951
471.00,0.0953
470.00,0.0953
469.00,0.0948
468.00,0.0942
467.00,0.0934
466.00,0.0928
465.00,0.0924
464.00,0.0922
463.00,0.0922
462.00,0.0922
461.00,0.0921
460.00,0.0919
459.00,0.0918
458.00,0.0918
457.00,0.0918
456.00,0.0916
455.00,0.0912
454.00,0.0906
453.00,0.0901
452.00,0.0897
451.00,0.0893
450.00,0.0888
449.00,0.0883
448.00,0.0877
447.00,0.0870
446.00,0.0865
445.00,0.0864
444.00,0.0866
443.00,0.0870
442.00,0.0871
441.00,0.0870
440.00,0.0866
439.00,0.0861
438.00,0.0853
437.00,0.0843
436.00,0.0832
435.00,0.0824
434.00,0.0820
433.00,0.0818
432.00,0.0818
431.00,0.0816
430.00,0.0813
429.00,0.0808
428.00,0.0802
427.00,0.0796
426.00,0.0789
425.00,0.0784
424.00,0.0784
423.00,0.0786
422.00,0.0785
421.00,0.0779
420.00,0.0773
419.00,0.0774
418.00,0.0779
417.00,0.0783
416.00,0.0786
415.00,0.0791
414.00,0.0799
413.00,0.0805
412.00,0.0808
411.00,0.0809
410.00,0.0809
409.00,0.0808
408.00,0.0801
407.00,0.0786
406.00,0.0767
405.00,0.0749
404.00,0.0738
403.00,0.0737
402.00,0.0744
401.00,0.0756
400.00,0.0771
