Created as New Dataset,Sample 852 By YargerLab Date Monday, July 21 2025
cm-1,A
4000.00,0.0023
3999.00,0.0023
3998.00,0.0023
3997.00,0.0023
3996.00,0.0023
3995.00,0.0023
3994.00,0.0023
3993.00,0.0023
3992.00,0.0023
3991.00,0.0023
3990.00,0.0023
3989.00,0.0023
3988.00,0.0023
3987.00,0.0023
3986.00,0.0023
3985.00,0.0023
3984.00,0.0023
3983.00,0.0023
3982.00,0.0023
3981.00,0.0023
3980.00,0.0023
3979.00,0.0023
3978.00,0.0023
3977.00,0.0022
3976.00,0.0022
3975.00,0.0022
3974.00,0.0022
3973.00,0.0022
3972.00,0.0022
3971.00,0.0022
3970.00,0.0022
3969.00,0.0022
3968.00,0.0022
3967.00,0.0022
3966.00,0.0022
3965.00,0.0022
3964.00,0.0022
3963.00,0.0022
3962.00,0.0022
3961.00,0.0022
3960.00,0.0022
3959.00,0.0022
3958.00,0.0022
3957.00,0.0022
3956.00,0.0022
3955.00,0.0022
3954.00,0.0022
3953.00,0.0022
3952.00,0.0022
3951.00,0.0022
3950.00,0.0022
3949.00,0.0022
3948.00,0.0022
3947.00,0.0022
3946.00,0.0022
3945.00,0.0022
3944.00,0.0022
3943.00,0.0022
3942.00,0.0022
3941.00,0.0022
3940.00,0.0022
3939.00,0.0022
3938.00,0.0022
3937.00,0.0022
3936.00,0.0022
3935.00,0.0022
3934.00,0.0022
3933.00,0.0022
3932.00,0.0021
3931.00,0.0021
3930.00,0.0021
3929.00,0.0022
3928.00,0.0022
3927.00,0.0022
3926.00,0.0022
3925.00,0.0022
3924.00,0.0022
3923.00,0.0022
3922.00,0.0023
3921.00,0.0022
3920.00,0.0022
3919.00,0.0022
3918.00,0.0022
3917.00,0.0022
3916.00,0.0022
3915.00,0.0022
3914.00,0.0022
3913.00,0.0022
3912.00,0.0022
3911.00,0.0022
3910.00,0.0022
3909.00,0.0023
3908.00,0.0023
3907.00,0.0023
3906.00,0.0023
3905.00,0.0022
3904.00,0.0022
3903.00,0.0022
3902.00,0.0022
3901.00,0.0022
3900.00,0.0021
3899.00,0.0021
3898.00,0.0022
3897.00,0.0022
3896.00,0.0022
3895.00,0.0022
3894.00,0.0022
3893.00,0.0021
3892.00,0.0021
3891.00,0.0022
3890.00,0.0022
3889.00,0.0022
3888.00,0.0022
3887.00,0.0022
3886.00,0.0021
3885.00,0.0022
3884.00,0.0022
3883.00,0.0022
3882.00,0.0021
3881.00,0.0021
3880.00,0.0021
3879.00,0.0022
3878.00,0.0022
3877.00,0.0022
3876.00,0.0022
3875.00,0.0021
3874.00,0.0022
3873.00,0.0022
3872.00,0.0022
3871.00,0.0021
3870.00,0.0021
3869.00,0.0021
3868.00,0.0022
3867.00,0.0022
3866.00,0.0021
3865.00,0.0021
3864.00,0.0021
3863.00,0.0021
3862.00,0.0021
3861.00,0.0021
3860.00,0.0021
3859.00,0.0021
3858.00,0.0022
3857.00,0.0023
3856.00,0.0024
3855.00,0.0024
3854.00,0.0023
3853.00,0.0022
3852.00,0.0022
3851.00,0.0022
3850.00,0.0021
3849.00,0.0020
3848.00,0.0021
3847.00,0.0021
3846.00,0.0022
3845.00,0.0022
3844.00,0.0022
3843.00,0.0022
3842.00,0.0022
3841.00,0.0022
3840.00,0.0022
3839.00,0.0022
3838.00,0.0022
3837.00,0.0022
3836.00,0.0023
3835.00,0.0022
3834.00,0.0022
3833.00,0.0022
3832.00,0.0022
3831.00,0.0022
3830.00,0.0022
3829.00,0.0022
3828.00,0.0022
3827.00,0.0022
3826.00,0.0022
3825.00,0.0023
3824.00,0.0023
3823.00,0.0023
3822.00,0.0022
3821.00,0.0022
3820.00,0.0023
3819.00,0.0024
3818.00,0.0023
3817.00,0.0023
3816.00,0.0023
3815.00,0.0023
3814.00,0.0024
3813.00,0.0023
3812.00,0.0023
3811.00,0.0023
3810.00,0.0023
3809.00,0.0023
3808.00,0.0023
3807.00,0.0023
3806.00,0.0023
3805.00,0.0023
3804.00,0.0023
3803.00,0.0022
3802.00,0.0022
3801.00,0.0022
3800.00,0.0022
3799.00,0.0022
3798.00,0.0022
3797.00,0.0022
3796.00,0.0022
3795.00,0.0022
3794.00,0.0023
3793.00,0.0022
3792.00,0.0022
3791.00,0.0022
3790.00,0.0022
3789.00,0.0022
3788.00,0.0022
3787.00,0.0022
3786.00,0.0022
3785.00,0.0022
3784.00,0.0023
3783.00,0.0023
3782.00,0.0023
3781.00,0.0022
3780.00,0.0022
3779.00,0.0022
3778.00,0.0023
3777.00,0.0023
3776.00,0.0023
3775.00,0.0023
3774.00,0.0023
3773.00,0.0023
3772.00,0.0023
3771.00,0.0023
3770.00,0.0023
3769.00,0.0023
3768.00,0.0023
3767.00,0.0023
3766.00,0.0023
3765.00,0.0023
3764.00,0.0023
3763.00,0.0023
3762.00,0.0023
3761.00,0.0023
3760.00,0.0023
3759.00,0.0023
3758.00,0.0023
3757.00,0.0023
3756.00,0.0023
3755.00,0.0023
3754.00,0.0023
3753.00,0.0024
3752.00,0.0024
3751.00,0.0023
3750.00,0.0023
3749.00,0.0024
3748.00,0.0024
3747.00,0.0024
3746.00,0.0023
3745.00,0.0023
3744.00,0.0024
3743.00,0.0024
3742.00,0.0024
3741.00,0.0023
3740.00,0.0023
3739.00,0.0023
3738.00,0.0024
3737.00,0.0024
3736.00,0.0023
3735.00,0.0023
3734.00,0.0023
3733.00,0.0023
3732.00,0.0023
3731.00,0.0023
3730.00,0.0023
3729.00,0.0023
3728.00,0.0023
3727.00,0.0023
3726.00,0.0023
3725.00,0.0023
3724.00,0.0024
3723.00,0.0024
3722.00,0.0023
3721.00,0.0023
3720.00,0.0023
3719.00,0.0023
3718.00,0.0023
3717.00,0.0023
3716.00,0.0024
3715.00,0.0024
3714.00,0.0024
3713.00,0.0024
3712.00,0.0024
3711.00,0.0024
3710.00,0.0024
3709.00,0.0024
3708.00,0.0024
3707.00,0.0024
3706.00,0.0024
3705.00,0.0024
3704.00,0.0024
3703.00,0.0025
3702.00,0.0025
3701.00,0.0025
3700.00,0.0025
3699.00,0.0025
3698.00,0.0025
3697.00,0.0025
3696.00,0.0025
3695.00,0.0026
3694.00,0.0026
3693.00,0.0027
3692.00,0.0027
3691.00,0.0028
3690.00,0.0028
3689.00,0.0028
3688.00,0.0029
3687.00,0.0030
3686.00,0.0030
3685.00,0.0031
3684.00,0.0031
3683.00,0.0032
3682.00,0.0033
3681.00,0.0034
3680.00,0.0035
3679.00,0.0036
3678.00,0.0037
3677.00,0.0037
3676.00,0.0037
3675.00,0.0037
3674.00,0.0038
3673.00,0.0038
3672.00,0.0038
3671.00,0.0037
3670.00,0.0037
3669.00,0.0038
3668.00,0.0040
3667.00,0.0040
3666.00,0.0041
3665.00,0.0041
3664.00,0.0042
3663.00,0.0043
3662.00,0.0044
3661.00,0.0045
3660.00,0.0046
3659.00,0.0046
3658.00,0.0047
3657.00,0.0047
3656.00,0.0048
3655.00,0.0049
3654.00,0.0050
3653.00,0.0051
3652.00,0.0052
3651.00,0.0053
3650.00,0.0054
3649.00,0.0054
3648.00,0.0055
3647.00,0.0056
3646.00,0.0057
3645.00,0.0058
3644.00,0.0059
3643.00,0.0060
3642.00,0.0061
3641.00,0.0062
3640.00,0.0064
3639.00,0.0065
3638.00,0.0067
3637.00,0.0068
3636.00,0.0069
3635.00,0.0071
3634.00,0.0072
3633.00,0.0074
3632.00,0.0075
3631.00,0.0077
3630.00,0.0078
3629.00,0.0079
3628.00,0.0081
3627.00,0.0082
3626.00,0.0083
3625.00,0.0084
3624.00,0.0085
3623.00,0.0086
3622.00,0.0088
3621.00,0.0089
3620.00,0.0090
3619.00,0.0092
3618.00,0.0094
3617.00,0.0096
3616.00,0.0097
3615.00,0.0098
3614.00,0.0100
3613.00,0.0102
3612.00,0.0104
3611.00,0.0107
3610.00,0.0109
3609.00,0.0111
3608.00,0.0113
3607.00,0.0115
3606.00,0.0117
3605.00,0.0119
3604.00,0.0121
3603.00,0.0123
3602.00,0.0125
3601.00,0.0127
3600.00,0.0130
3599.00,0.0132
3598.00,0.0134
3597.00,0.0136
3596.00,0.0138
3595.00,0.0141
3594.00,0.0143
3593.00,0.0145
3592.00,0.0147
3591.00,0.0149
3590.00,0.0151
3589.00,0.0154
3588.00,0.0156
3587.00,0.0159
3586.00,0.0161
3585.00,0.0164
3584.00,0.0166
3583.00,0.0168
3582.00,0.0171
3581.00,0.0173
3580.00,0.0176
3579.00,0.0179
3578.00,0.0182
3577.00,0.0184
3576.00,0.0187
3575.00,0.0189
3574.00,0.0192
3573.00,0.0195
3572.00,0.0198
3571.00,0.0201
3570.00,0.0203
3569.00,0.0206
3568.00,0.0208
3567.00,0.0210
3566.00,0.0213
3565.00,0.0216
3564.00,0.0219
3563.00,0.0221
3562.00,0.0224
3561.00,0.0227
3560.00,0.0229
3559.00,0.0232
3558.00,0.0235
3557.00,0.0237
3556.00,0.0240
3555.00,0.0243
3554.00,0.0245
3553.00,0.0248
3552.00,0.0250
3551.00,0.0253
3550.00,0.0255
3549.00,0.0257
3548.00,0.0259
3547.00,0.0262
3546.00,0.0264
3545.00,0.0267
3544.00,0.0269
3543.00,0.0272
3542.00,0.0274
3541.00,0.0276
3540.00,0.0278
3539.00,0.0280
3538.00,0.0282
3537.00,0.0284
3536.00,0.0286
3535.00,0.0288
3534.00,0.0290
3533.00,0.0292
3532.00,0.0293
3531.00,0.0295
3530.00,0.0297
3529.00,0.0299
3528.00,0.0300
3527.00,0.0302
3526.00,0.0304
3525.00,0.0305
3524.00,0.0306
3523.00,0.0308
3522.00,0.0309
3521.00,0.0311
3520.00,0.0312
3519.00,0.0314
3518.00,0.0316
3517.00,0.0317
3516.00,0.0319
3515.00,0.0321
3514.00,0.0322
3513.00,0.0323
3512.00,0.0324
3511.00,0.0325
3510.00,0.0326
3509.00,0.0327
3508.00,0.0329
3507.00,0.0330
3506.00,0.0331
3505.00,0.0333
3504.00,0.0334
3503.00,0.0336
3502.00,0.0337
3501.00,0.0338
3500.00,0.0339
3499.00,0.0340
3498.00,0.0341
3497.00,0.0342
3496.00,0.0343
3495.00,0.0344
3494.00,0.0345
3493.00,0.0346
3492.00,0.0347
3491.00,0.0348
3490.00,0.0350
3489.00,0.0350
3488.00,0.0351
3487.00,0.0352
3486.00,0.0352
3485.00,0.0353
3484.00,0.0354
3483.00,0.0355
3482.00,0.0356
3481.00,0.0357
3480.00,0.0358
3479.00,0.0359
3478.00,0.0359
3477.00,0.0360
3476.00,0.0361
3475.00,0.0362
3474.00,0.0363
3473.00,0.0364
3472.00,0.0365
3471.00,0.0366
3470.00,0.0367
3469.00,0.0368
3468.00,0.0369
3467.00,0.0369
3466.00,0.0370
3465.00,0.0370
3464.00,0.0371
3463.00,0.0371
3462.00,0.0372
3461.00,0.0373
3460.00,0.0373
3459.00,0.0374
3458.00,0.0374
3457.00,0.0375
3456.00,0.0376
3455.00,0.0376
3454.00,0.0377
3453.00,0.0377
3452.00,0.0378
3451.00,0.0378
3450.00,0.0379
3449.00,0.0379
3448.00,0.0379
3447.00,0.0379
3446.00,0.0380
3445.00,0.0380
3444.00,0.0381
3443.00,0.0381
3442.00,0.0381
3441.00,0.0382
3440.00,0.0382
3439.00,0.0382
3438.00,0.0383
3437.00,0.0383
3436.00,0.0384
3435.00,0.0384
3434.00,0.0384
3433.00,0.0383
3432.00,0.0383
3431.00,0.0383
3430.00,0.0383
3429.00,0.0383
3428.00,0.0383
3427.00,0.0383
3426.00,0.0383
3425.00,0.0383
3424.00,0.0383
3423.00,0.0382
3422.00,0.0382
3421.00,0.0382
3420.00,0.0382
3419.00,0.0382
3418.00,0.0382
3417.00,0.0382
3416.00,0.0382
3415.00,0.0382
3414.00,0.0382
3413.00,0.0381
3412.00,0.0381
3411.00,0.0380
3410.00,0.0380
3409.00,0.0379
3408.00,0.0379
3407.00,0.0378
3406.00,0.0378
3405.00,0.0377
3404.00,0.0377
3403.00,0.0376
3402.00,0.0376
3401.00,0.0375
3400.00,0.0374
3399.00,0.0374
3398.00,0.0373
3397.00,0.0372
3396.00,0.0371
3395.00,0.0371
3394.00,0.0370
3393.00,0.0369
3392.00,0.0368
3391.00,0.0367
3390.00,0.0366
3389.00,0.0365
3388.00,0.0365
3387.00,0.0364
3386.00,0.0363
3385.00,0.0362
3384.00,0.0360
3383.00,0.0359
3382.00,0.0358
3381.00,0.0357
3380.00,0.0356
3379.00,0.0355
3378.00,0.0354
3377.00,0.0353
3376.00,0.0352
3375.00,0.0351
3374.00,0.0349
3373.00,0.0348
3372.00,0.0346
3371.00,0.0345
3370.00,0.0343
3369.00,0.0342
3368.00,0.0341
3367.00,0.0340
3366.00,0.0339
3365.00,0.0338
3364.00,0.0338
3363.00,0.0337
3362.00,0.0335
3361.00,0.0334
3360.00,0.0333
3359.00,0.0333
3358.00,0.0332
3357.00,0.0331
3356.00,0.0330
3355.00,0.0328
3354.00,0.0327
3353.00,0.0325
3352.00,0.0323
3351.00,0.0322
3350.00,0.0321
3349.00,0.0321
3348.00,0.0321
3347.00,0.0320
3346.00,0.0319
3345.00,0.0317
3344.00,0.0316
3343.00,0.0315
3342.00,0.0314
3341.00,0.0312
3340.00,0.0311
3339.00,0.0309
3338.00,0.0309
3337.00,0.0308
3336.00,0.0309
3335.00,0.0309
3334.00,0.0309
3333.00,0.0308
3332.00,0.0308
3331.00,0.0307
3330.00,0.0306
3329.00,0.0304
3328.00,0.0303
3327.00,0.0301
3326.00,0.0300
3325.00,0.0300
3324.00,0.0300
3323.00,0.0301
3322.00,0.0301
3321.00,0.0300
3320.00,0.0300
3319.00,0.0299
3318.00,0.0299
3317.00,0.0298
3316.00,0.0297
3315.00,0.0296
3314.00,0.0296
3313.00,0.0294
3312.00,0.0293
3311.00,0.0291
3310.00,0.0289
3309.00,0.0287
3308.00,0.0286
3307.00,0.0285
3306.00,0.0284
3305.00,0.0285
3304.00,0.0286
3303.00,0.0287
3302.00,0.0288
3301.00,0.0288
3300.00,0.0288
3299.00,0.0287
3298.00,0.0285
3297.00,0.0284
3296.00,0.0283
3295.00,0.0282
3294.00,0.0281
3293.00,0.0280
3292.00,0.0280
3291.00,0.0281
3290.00,0.0281
3289.00,0.0281
3288.00,0.0281
3287.00,0.0281
3286.00,0.0280
3285.00,0.0279
3284.00,0.0279
3283.00,0.0278
3282.00,0.0278
3281.00,0.0277
3280.00,0.0276
3279.00,0.0275
3278.00,0.0274
3277.00,0.0272
3276.00,0.0271
3275.00,0.0269
3274.00,0.0268
3273.00,0.0266
3272.00,0.0265
3271.00,0.0264
3270.00,0.0264
3269.00,0.0264
3268.00,0.0264
3267.00,0.0264
3266.00,0.0263
3265.00,0.0262
3264.00,0.0261
3263.00,0.0260
3262.00,0.0259
3261.00,0.0258
3260.00,0.0256
3259.00,0.0255
3258.00,0.0254
3257.00,0.0252
3256.00,0.0251
3255.00,0.0250
3254.00,0.0249
3253.00,0.0248
3252.00,0.0247
3251.00,0.0246
3250.00,0.0245
3249.00,0.0243
3248.00,0.0242
3247.00,0.0240
3246.00,0.0239
3245.00,0.0238
3244.00,0.0237
3243.00,0.0236
3242.00,0.0235
3241.00,0.0234
3240.00,0.0232
3239.00,0.0231
3238.00,0.0230
3237.00,0.0228
3236.00,0.0226
3235.00,0.0225
3234.00,0.0224
3233.00,0.0223
3232.00,0.0222
3231.00,0.0221
3230.00,0.0220
3229.00,0.0219
3228.00,0.0218
3227.00,0.0217
3226.00,0.0215
3225.00,0.0214
3224.00,0.0213
3223.00,0.0212
3222.00,0.0210
3221.00,0.0209
3220.00,0.0208
3219.00,0.0206
3218.00,0.0205
3217.00,0.0203
3216.00,0.0202
3215.00,0.0200
3214.00,0.0199
3213.00,0.0198
3212.00,0.0197
3211.00,0.0196
3210.00,0.0195
3209.00,0.0193
3208.00,0.0192
3207.00,0.0191
3206.00,0.0189
3205.00,0.0188
3204.00,0.0187
3203.00,0.0186
3202.00,0.0184
3201.00,0.0183
3200.00,0.0182
3199.00,0.0180
3198.00,0.0179
3197.00,0.0178
3196.00,0.0177
3195.00,0.0176
3194.00,0.0175
3193.00,0.0174
3192.00,0.0173
3191.00,0.0172
3190.00,0.0170
3189.00,0.0169
3188.00,0.0168
3187.00,0.0167
3186.00,0.0165
3185.00,0.0164
3184.00,0.0163
3183.00,0.0162
3182.00,0.0161
3181.00,0.0160
3180.00,0.0159
3179.00,0.0158
3178.00,0.0157
3177.00,0.0156
3176.00,0.0155
3175.00,0.0154
3174.00,0.0153
3173.00,0.0152
3172.00,0.0151
3171.00,0.0150
3170.00,0.0149
3169.00,0.0148
3168.00,0.0147
3167.00,0.0146
3166.00,0.0145
3165.00,0.0144
3164.00,0.0144
3163.00,0.0143
3162.00,0.0142
3161.00,0.0141
3160.00,0.0140
3159.00,0.0139
3158.00,0.0138
3157.00,0.0137
3156.00,0.0136
3155.00,0.0135
3154.00,0.0135
3153.00,0.0134
3152.00,0.0133
3151.00,0.0133
3150.00,0.0132
3149.00,0.0130
3148.00,0.0129
3147.00,0.0129
3146.00,0.0128
3145.00,0.0127
3144.00,0.0127
3143.00,0.0126
3142.00,0.0125
3141.00,0.0124
3140.00,0.0123
3139.00,0.0122
3138.00,0.0122
3137.00,0.0122
3136.00,0.0121
3135.00,0.0120
3134.00,0.0120
3133.00,0.0119
3132.00,0.0118
3131.00,0.0118
3130.00,0.0117
3129.00,0.0116
3128.00,0.0116
3127.00,0.0115
3126.00,0.0114
3125.00,0.0113
3124.00,0.0113
3123.00,0.0112
3122.00,0.0112
3121.00,0.0111
3120.00,0.0111
3119.00,0.0111
3118.00,0.0110
3117.00,0.0110
3116.00,0.0109
3115.00,0.0109
3114.00,0.0108
3113.00,0.0107
3112.00,0.0107
3111.00,0.0107
3110.00,0.0106
3109.00,0.0106
3108.00,0.0105
3107.00,0.0104
3106.00,0.0103
3105.00,0.0103
3104.00,0.0102
3103.00,0.0102
3102.00,0.0102
3101.00,0.0101
3100.00,0.0101
3099.00,0.0100
3098.00,0.0100
3097.00,0.0099
3096.00,0.0098
3095.00,0.0098
3094.00,0.0097
3093.00,0.0097
3092.00,0.0096
3091.00,0.0096
3090.00,0.0095
3089.00,0.0095
3088.00,0.0094
3087.00,0.0094
3086.00,0.0093
3085.00,0.0092
3084.00,0.0092
3083.00,0.0092
3082.00,0.0091
3081.00,0.0091
3080.00,0.0091
3079.00,0.0091
3078.00,0.0090
3077.00,0.0090
3076.00,0.0089
3075.00,0.0089
3074.00,0.0089
3073.00,0.0089
3072.00,0.0088
3071.00,0.0088
3070.00,0.0087
3069.00,0.0087
3068.00,0.0087
3067.00,0.0086
3066.00,0.0086
3065.00,0.0085
3064.00,0.0085
3063.00,0.0085
3062.00,0.0084
3061.00,0.0084
3060.00,0.0084
3059.00,0.0083
3058.00,0.0083
3057.00,0.0083
3056.00,0.0082
3055.00,0.0082
3054.00,0.0082
3053.00,0.0082
3052.00,0.0081
3051.00,0.0081
3050.00,0.0081
3049.00,0.0081
3048.00,0.0081
3047.00,0.0080
3046.00,0.0080
3045.00,0.0080
3044.00,0.0080
3043.00,0.0080
3042.00,0.0080
3041.00,0.0080
3040.00,0.0080
3039.00,0.0080
3038.00,0.0080
3037.00,0.0079
3036.00,0.0079
3035.00,0.0079
3034.00,0.0079
3033.00,0.0079
3032.00,0.0079
3031.00,0.0079
3030.00,0.0079
3029.00,0.0080
3028.00,0.0080
3027.00,0.0080
3026.00,0.0081
3025.00,0.0081
3024.00,0.0082
3023.00,0.0083
3022.00,0.0083
3021.00,0.0084
3020.00,0.0085
3019.00,0.0086
3018.00,0.0087
3017.00,0.0088
3016.00,0.0089
3015.00,0.0091
3014.00,0.0093
3013.00,0.0095
3012.00,0.0097
3011.00,0.0100
3010.00,0.0103
3009.00,0.0106
3008.00,0.0109
3007.00,0.0112
3006.00,0.0116
3005.00,0.0119
3004.00,0.0123
3003.00,0.0128
3002.00,0.0132
3001.00,0.0137
3000.00,0.0142
2999.00,0.0147
2998.00,0.0152
2997.00,0.0158
2996.00,0.0164
2995.00,0.0169
2994.00,0.0175
2993.00,0.0181
2992.00,0.0187
2991.00,0.0193
2990.00,0.0198
2989.00,0.0204
2988.00,0.0210
2987.00,0.0215
2986.00,0.0221
2985.00,0.0226
2984.00,0.0231
2983.00,0.0236
2982.00,0.0241
2981.00,0.0246
2980.00,0.0249
2979.00,0.0253
2978.00,0.0256
2977.00,0.0259
2976.00,0.0263
2975.00,0.0266
2974.00,0.0271
2973.00,0.0275
2972.00,0.0279
2971.00,0.0284
2970.00,0.0288
2969.00,0.0292
2968.00,0.0296
2967.00,0.0301
2966.00,0.0305
2965.00,0.0310
2964.00,0.0314
2963.00,0.0319
2962.00,0.0323
2961.00,0.0327
2960.00,0.0330
2959.00,0.0334
2958.00,0.0336
2957.00,0.0338
2956.00,0.0340
2955.00,0.0342
2954.00,0.0343
2953.00,0.0343
2952.00,0.0343
2951.00,0.0342
2950.00,0.0341
2949.00,0.0339
2948.00,0.0337
2947.00,0.0335
2946.00,0.0332
2945.00,0.0330
2944.00,0.0327
2943.00,0.0324
2942.00,0.0322
2941.00,0.0320
2940.00,0.0318
2939.00,0.0317
2938.00,0.0316
2937.00,0.0316
2936.00,0.0316
2935.00,0.0317
2934.00,0.0319
2933.00,0.0320
2932.00,0.0322
2931.00,0.0324
2930.00,0.0326
2929.00,0.0328
2928.00,0.0330
2927.00,0.0332
2926.00,0.0334
2925.00,0.0335
2924.00,0.0335
2923.00,0.0335
2922.00,0.0334
2921.00,0.0333
2920.00,0.0331
2919.00,0.0328
2918.00,0.0325
2917.00,0.0321
2916.00,0.0317
2915.00,0.0312
2914.00,0.0307
2913.00,0.0302
2912.00,0.0297
2911.00,0.0292
2910.00,0.0287
2909.00,0.0283
2908.00,0.0279
2907.00,0.0275
2906.00,0.0272
2905.00,0.0270
2904.00,0.0268
2903.00,0.0267
2902.00,0.0266
2901.00,0.0265
2900.00,0.0265
2899.00,0.0265
2898.00,0.0265
2897.00,0.0266
2896.00,0.0266
2895.00,0.0267
2894.00,0.0267
2893.00,0.0268
2892.00,0.0268
2891.00,0.0268
2890.00,0.0268
2889.00,0.0267
2888.00,0.0267
2887.00,0.0266
2886.00,0.0265
2885.00,0.0265
2884.00,0.0264
2883.00,0.0264
2882.00,0.0263
2881.00,0.0262
2880.00,0.0261
2879.00,0.0260
2878.00,0.0258
2877.00,0.0257
2876.00,0.0256
2875.00,0.0254
2874.00,0.0253
2873.00,0.0251
2872.00,0.0250
2871.00,0.0248
2870.00,0.0247
2869.00,0.0245
2868.00,0.0243
2867.00,0.0241
2866.00,0.0239
2865.00,0.0237
2864.00,0.0235
2863.00,0.0234
2862.00,0.0232
2861.00,0.0230
2860.00,0.0227
2859.00,0.0225
2858.00,0.0223
2857.00,0.0220
2856.00,0.0216
2855.00,0.0213
2854.00,0.0208
2853.00,0.0203
2852.00,0.0198
2851.00,0.0192
2850.00,0.0186
2849.00,0.0180
2848.00,0.0174
2847.00,0.0168
2846.00,0.0163
2845.00,0.0158
2844.00,0.0153
2843.00,0.0148
2842.00,0.0143
2841.00,0.0139
2840.00,0.0135
2839.00,0.0131
2838.00,0.0128
2837.00,0.0126
2836.00,0.0124
2835.00,0.0122
2834.00,0.0119
2833.00,0.0117
2832.00,0.0115
2831.00,0.0112
2830.00,0.0110
2829.00,0.0107
2828.00,0.0105
2827.00,0.0102
2826.00,0.0100
2825.00,0.0097
2824.00,0.0095
2823.00,0.0093
2822.00,0.0091
2821.00,0.0089
2820.00,0.0087
2819.00,0.0085
2818.00,0.0083
2817.00,0.0082
2816.00,0.0080
2815.00,0.0079
2814.00,0.0078
2813.00,0.0077
2812.00,0.0075
2811.00,0.0074
2810.00,0.0073
2809.00,0.0073
2808.00,0.0072
2807.00,0.0072
2806.00,0.0071
2805.00,0.0070
2804.00,0.0070
2803.00,0.0069
2802.00,0.0068
2801.00,0.0068
2800.00,0.0067
2799.00,0.0067
2798.00,0.0066
2797.00,0.0066
2796.00,0.0065
2795.00,0.0065
2794.00,0.0065
2793.00,0.0064
2792.00,0.0064
2791.00,0.0063
2790.00,0.0063
2789.00,0.0062
2788.00,0.0062
2787.00,0.0062
2786.00,0.0062
2785.00,0.0061
2784.00,0.0061
2783.00,0.0061
2782.00,0.0060
2781.00,0.0060
2780.00,0.0060
2779.00,0.0059
2778.00,0.0059
2777.00,0.0059
2776.00,0.0058
2775.00,0.0058
2774.00,0.0058
2773.00,0.0057
2772.00,0.0057
2771.00,0.0057
2770.00,0.0057
2769.00,0.0056
2768.00,0.0056
2767.00,0.0056
2766.00,0.0055
2765.00,0.0055
2764.00,0.0055
2763.00,0.0055
2762.00,0.0055
2761.00,0.0055
2760.00,0.0054
2759.00,0.0054
2758.00,0.0054
2757.00,0.0054
2756.00,0.0055
2755.00,0.0055
2754.00,0.0055
2753.00,0.0054
2752.00,0.0054
2751.00,0.0054
2750.00,0.0054
2749.00,0.0054
2748.00,0.0054
2747.00,0.0054
2746.00,0.0054
2745.00,0.0054
2744.00,0.0054
2743.00,0.0054
2742.00,0.0054
2741.00,0.0054
2740.00,0.0054
2739.00,0.0054
2738.00,0.0053
2737.00,0.0054
2736.00,0.0054
2735.00,0.0054
2734.00,0.0054
2733.00,0.0054
2732.00,0.0053
2731.00,0.0053
2730.00,0.0053
2729.00,0.0053
2728.00,0.0053
2727.00,0.0053
2726.00,0.0053
2725.00,0.0053
2724.00,0.0053
2723.00,0.0052
2722.00,0.0052
2721.00,0.0052
2720.00,0.0052
2719.00,0.0052
2718.00,0.0052
2717.00,0.0051
2716.00,0.0051
2715.00,0.0051
2714.00,0.0051
2713.00,0.0051
2712.00,0.0051
2711.00,0.0051
2710.00,0.0051
2709.00,0.0050
2708.00,0.0050
2707.00,0.0050
2706.00,0.0050
2705.00,0.0050
2704.00,0.0050
2703.00,0.0049
2702.00,0.0049
2701.00,0.0049
2700.00,0.0049
2699.00,0.0049
2698.00,0.0049
2697.00,0.0049
2696.00,0.0049
2695.00,0.0049
2694.00,0.0049
2693.00,0.0048
2692.00,0.0048
2691.00,0.0048
2690.00,0.0048
2689.00,0.0048
2688.00,0.0048
2687.00,0.0048
2686.00,0.0048
2685.00,0.0048
2684.00,0.0047
2683.00,0.0047
2682.00,0.0047
2681.00,0.0047
2680.00,0.0047
2679.00,0.0047
2678.00,0.0047
2677.00,0.0047
2676.00,0.0047
2675.00,0.0047
2674.00,0.0047
2673.00,0.0047
2672.00,0.0047
2671.00,0.0047
2670.00,0.0047
2669.00,0.0047
2668.00,0.0047
2667.00,0.0048
2666.00,0.0048
2665.00,0.0049
2664.00,0.0049
2663.00,0.0050
2662.00,0.0050
2661.00,0.0051
2660.00,0.0051
2659.00,0.0051
2658.00,0.0051
2657.00,0.0051
2656.00,0.0051
2655.00,0.0051
2654.00,0.0051
2653.00,0.0051
2652.00,0.0051
2651.00,0.0051
2650.00,0.0051
2649.00,0.0051
2648.00,0.0051
2647.00,0.0051
2646.00,0.0051
2645.00,0.0051
2644.00,0.0051
2643.00,0.0050
2642.00,0.0050
2641.00,0.0050
2640.00,0.0050
2639.00,0.0050
2638.00,0.0049
2637.00,0.0049
2636.00,0.0050
2635.00,0.0050
2634.00,0.0050
2633.00,0.0049
2632.00,0.0049
2631.00,0.0049
2630.00,0.0049
2629.00,0.0049
2628.00,0.0049
2627.00,0.0049
2626.00,0.0048
2625.00,0.0048
2624.00,0.0048
2623.00,0.0047
2622.00,0.0047
2621.00,0.0047
2620.00,0.0047
2619.00,0.0047
2618.00,0.0046
2617.00,0.0046
2616.00,0.0046
2615.00,0.0046
2614.00,0.0046
2613.00,0.0046
2612.00,0.0046
2611.00,0.0046
2610.00,0.0046
2609.00,0.0046
2608.00,0.0046
2607.00,0.0045
2606.00,0.0045
2605.00,0.0045
2604.00,0.0045
2603.00,0.0045
2602.00,0.0045
2601.00,0.0045
2600.00,0.0045
2599.00,0.0045
2598.00,0.0045
2597.00,0.0045
2596.00,0.0045
2595.00,0.0045
2594.00,0.0045
2593.00,0.0045
2592.00,0.0046
2591.00,0.0046
2590.00,0.0046
2589.00,0.0045
2588.00,0.0045
2587.00,0.0045
2586.00,0.0044
2585.00,0.0044
2584.00,0.0044
2583.00,0.0045
2582.00,0.0045
2581.00,0.0045
2580.00,0.0045
2579.00,0.0045
2578.00,0.0045
2577.00,0.0046
2576.00,0.0046
2575.00,0.0045
2574.00,0.0045
2573.00,0.0045
2572.00,0.0045
2571.00,0.0045
2570.00,0.0045
2569.00,0.0045
2568.00,0.0045
2567.00,0.0044
2566.00,0.0044
2565.00,0.0043
2564.00,0.0043
2563.00,0.0043
2562.00,0.0043
2561.00,0.0043
2560.00,0.0043
2559.00,0.0043
2558.00,0.0043
2557.00,0.0043
2556.00,0.0043
2555.00,0.0043
2554.00,0.0043
2553.00,0.0043
2552.00,0.0043
2551.00,0.0043
2550.00,0.0042
2549.00,0.0042
2548.00,0.0041
2547.00,0.0041
2546.00,0.0041
2545.00,0.0041
2544.00,0.0041
2543.00,0.0042
2542.00,0.0042
2541.00,0.0042
2540.00,0.0042
2539.00,0.0041
2538.00,0.0041
2537.00,0.0040
2536.00,0.0040
2535.00,0.0040
2534.00,0.0040
2533.00,0.0040
2532.00,0.0040
2531.00,0.0040
2530.00,0.0040
2529.00,0.0040
2528.00,0.0040
2527.00,0.0040
2526.00,0.0040
2525.00,0.0040
2524.00,0.0040
2523.00,0.0040
2522.00,0.0039
2521.00,0.0039
2520.00,0.0039
2519.00,0.0039
2518.00,0.0039
2517.00,0.0039
2516.00,0.0039
2515.00,0.0039
2514.00,0.0038
2513.00,0.0038
2512.00,0.0038
2511.00,0.0038
2510.00,0.0038
2509.00,0.0038
2508.00,0.0038
2507.00,0.0038
2506.00,0.0039
2505.00,0.0039
2504.00,0.0039
2503.00,0.0038
2502.00,0.0038
2501.00,0.0038
2500.00,0.0038
2499.00,0.0038
2498.00,0.0039
2497.00,0.0039
2496.00,0.0039
2495.00,0.0039
2494.00,0.0038
2493.00,0.0038
2492.00,0.0038
2491.00,0.0038
2490.00,0.0037
2489.00,0.0037
2488.00,0.0037
2487.00,0.0037
2486.00,0.0037
2485.00,0.0037
2484.00,0.0038
2483.00,0.0038
2482.00,0.0038
2481.00,0.0037
2480.00,0.0037
2479.00,0.0037
2478.00,0.0036
2477.00,0.0036
2476.00,0.0036
2475.00,0.0037
2474.00,0.0037
2473.00,0.0037
2472.00,0.0037
2471.00,0.0038
2470.00,0.0038
2469.00,0.0038
2468.00,0.0038
2467.00,0.0038
2466.00,0.0038
2465.00,0.0038
2464.00,0.0038
2463.00,0.0038
2462.00,0.0039
2461.00,0.0039
2460.00,0.0039
2459.00,0.0040
2458.00,0.0040
2457.00,0.0039
2456.00,0.0039
2455.00,0.0039
2454.00,0.0039
2453.00,0.0039
2452.00,0.0039
2451.00,0.0039
2450.00,0.0039
2449.00,0.0039
2448.00,0.0039
2447.00,0.0039
2446.00,0.0038
2445.00,0.0038
2444.00,0.0038
2443.00,0.0038
2442.00,0.0038
2441.00,0.0038
2440.00,0.0038
2439.00,0.0038
2438.00,0.0038
2437.00,0.0038
2436.00,0.0038
2435.00,0.0037
2434.00,0.0037
2433.00,0.0037
2432.00,0.0037
2431.00,0.0038
2430.00,0.0038
2429.00,0.0038
2428.00,0.0038
2427.00,0.0038
2426.00,0.0038
2425.00,0.0038
2424.00,0.0038
2423.00,0.0038
2422.00,0.0038
2421.00,0.0038
2420.00,0.0038
2419.00,0.0038
2418.00,0.0038
2417.00,0.0038
2416.00,0.0038
2415.00,0.0038
2414.00,0.0038
2413.00,0.0038
2412.00,0.0038
2411.00,0.0038
2410.00,0.0038
2409.00,0.0038
2408.00,0.0038
2407.00,0.0038
2406.00,0.0038
2405.00,0.0038
2404.00,0.0038
2403.00,0.0038
2402.00,0.0038
2401.00,0.0038
2400.00,0.0038
2399.00,0.0038
2398.00,0.0038
2397.00,0.0039
2396.00,0.0039
2395.00,0.0039
2394.00,0.0038
2393.00,0.0038
2392.00,0.0038
2391.00,0.0038
2390.00,0.0038
2389.00,0.0037
2388.00,0.0037
2387.00,0.0037
2386.00,0.0037
2385.00,0.0037
2384.00,0.0037
2383.00,0.0036
2382.00,0.0036
2381.00,0.0036
2380.00,0.0036
2379.00,0.0036
2378.00,0.0036
2377.00,0.0036
2376.00,0.0036
2375.00,0.0036
2374.00,0.0036
2373.00,0.0036
2372.00,0.0037
2371.00,0.0036
2370.00,0.0036
2369.00,0.0036
2368.00,0.0036
2367.00,0.0036
2366.00,0.0036
2365.00,0.0036
2364.00,0.0037
2363.00,0.0037
2362.00,0.0037
2361.00,0.0037
2360.00,0.0037
2359.00,0.0037
2358.00,0.0037
2357.00,0.0037
2356.00,0.0036
2355.00,0.0036
2354.00,0.0035
2353.00,0.0034
2352.00,0.0034
2351.00,0.0034
2350.00,0.0035
2349.00,0.0038
2348.00,0.0041
2347.00,0.0043
2346.00,0.0044
2345.00,0.0043
2344.00,0.0042
2343.00,0.0042
2342.00,0.0041
2341.00,0.0041
2340.00,0.0042
2339.00,0.0042
2338.00,0.0041
2337.00,0.0041
2336.00,0.0042
2335.00,0.0042
2334.00,0.0042
2333.00,0.0042
2332.00,0.0042
2331.00,0.0041
2330.00,0.0042
2329.00,0.0043
2328.00,0.0047
2327.00,0.0052
2326.00,0.0056
2325.00,0.0057
2324.00,0.0056
2323.00,0.0054
2322.00,0.0051
2321.00,0.0049
2320.00,0.0048
2319.00,0.0047
2318.00,0.0046
2317.00,0.0046
2316.00,0.0047
2315.00,0.0047
2314.00,0.0047
2313.00,0.0046
2312.00,0.0046
2311.00,0.0046
2310.00,0.0045
2309.00,0.0045
2308.00,0.0045
2307.00,0.0046
2306.00,0.0046
2305.00,0.0046
2304.00,0.0046
2303.00,0.0046
2302.00,0.0046
2301.00,0.0046
2300.00,0.0046
2299.00,0.0047
2298.00,0.0047
2297.00,0.0048
2296.00,0.0048
2295.00,0.0049
2294.00,0.0050
2293.00,0.0050
2292.00,0.0051
2291.00,0.0053
2290.00,0.0053
2289.00,0.0054
2288.00,0.0054
2287.00,0.0054
2286.00,0.0054
2285.00,0.0053
2284.00,0.0052
2283.00,0.0051
2282.00,0.0050
2281.00,0.0050
2280.00,0.0050
2279.00,0.0050
2278.00,0.0050
2277.00,0.0050
2276.00,0.0049
2275.00,0.0049
2274.00,0.0049
2273.00,0.0049
2272.00,0.0049
2271.00,0.0049
2270.00,0.0049
2269.00,0.0048
2268.00,0.0047
2267.00,0.0046
2266.00,0.0045
2265.00,0.0045
2264.00,0.0045
2263.00,0.0046
2262.00,0.0046
2261.00,0.0047
2260.00,0.0048
2259.00,0.0049
2258.00,0.0048
2257.00,0.0047
2256.00,0.0045
2255.00,0.0045
2254.00,0.0044
2253.00,0.0044
2252.00,0.0045
2251.00,0.0045
2250.00,0.0044
2249.00,0.0044
2248.00,0.0044
2247.00,0.0044
2246.00,0.0044
2245.00,0.0045
2244.00,0.0046
2243.00,0.0047
2242.00,0.0047
2241.00,0.0047
2240.00,0.0047
2239.00,0.0046
2238.00,0.0045
2237.00,0.0045
2236.00,0.0046
2235.00,0.0046
2234.00,0.0046
2233.00,0.0046
2232.00,0.0046
2231.00,0.0046
2230.00,0.0045
2229.00,0.0045
2228.00,0.0046
2227.00,0.0046
2226.00,0.0045
2225.00,0.0045
2224.00,0.0046
2223.00,0.0046
2222.00,0.0046
2221.00,0.0047
2220.00,0.0047
2219.00,0.0048
2218.00,0.0047
2217.00,0.0047
2216.00,0.0047
2215.00,0.0047
2214.00,0.0047
2213.00,0.0047
2212.00,0.0048
2211.00,0.0048
2210.00,0.0048
2209.00,0.0048
2208.00,0.0048
2207.00,0.0049
2206.00,0.0049
2205.00,0.0050
2204.00,0.0050
2203.00,0.0051
2202.00,0.0051
2201.00,0.0051
2200.00,0.0052
2199.00,0.0052
2198.00,0.0052
2197.00,0.0052
2196.00,0.0052
2195.00,0.0052
2194.00,0.0051
2193.00,0.0050
2192.00,0.0050
2191.00,0.0049
2190.00,0.0049
2189.00,0.0050
2188.00,0.0052
2187.00,0.0053
2186.00,0.0054
2185.00,0.0052
2184.00,0.0050
2183.00,0.0046
2182.00,0.0043
2181.00,0.0043
2180.00,0.0045
2179.00,0.0047
2178.00,0.0047
2177.00,0.0046
2176.00,0.0045
2175.00,0.0045
2174.00,0.0046
2173.00,0.0048
2172.00,0.0051
2171.00,0.0054
2170.00,0.0056
2169.00,0.0058
2168.00,0.0060
2167.00,0.0062
2166.00,0.0063
2165.00,0.0065
2164.00,0.0068
2163.00,0.0068
2162.00,0.0062
2161.00,0.0048
2160.00,0.0032
2159.00,0.0019
2158.00,0.0013
2157.00,0.0014
2156.00,0.0019
2155.00,0.0022
2154.00,0.0024
2153.00,0.0026
2152.00,0.0028
2151.00,0.0029
2150.00,0.0030
2149.00,0.0030
2148.00,0.0031
2147.00,0.0032
2146.00,0.0031
2145.00,0.0031
2144.00,0.0032
2143.00,0.0033
2142.00,0.0033
2141.00,0.0034
2140.00,0.0035
2139.00,0.0035
2138.00,0.0033
2137.00,0.0031
2136.00,0.0029
2135.00,0.0027
2134.00,0.0026
2133.00,0.0028
2132.00,0.0030
2131.00,0.0032
2130.00,0.0034
2129.00,0.0036
2128.00,0.0038
2127.00,0.0040
2126.00,0.0041
2125.00,0.0041
2124.00,0.0042
2123.00,0.0043
2122.00,0.0043
2121.00,0.0044
2120.00,0.0046
2119.00,0.0047
2118.00,0.0048
2117.00,0.0048
2116.00,0.0049
2115.00,0.0049
2114.00,0.0049
2113.00,0.0048
2112.00,0.0049
2111.00,0.0049
2110.00,0.0050
2109.00,0.0050
2108.00,0.0051
2107.00,0.0051
2106.00,0.0050
2105.00,0.0049
2104.00,0.0049
2103.00,0.0048
2102.00,0.0048
2101.00,0.0047
2100.00,0.0047
2099.00,0.0046
2098.00,0.0045
2097.00,0.0044
2096.00,0.0043
2095.00,0.0043
2094.00,0.0043
2093.00,0.0043
2092.00,0.0045
2091.00,0.0046
2090.00,0.0046
2089.00,0.0046
2088.00,0.0047
2087.00,0.0047
2086.00,0.0047
2085.00,0.0047
2084.00,0.0048
2083.00,0.0047
2082.00,0.0047
2081.00,0.0046
2080.00,0.0047
2079.00,0.0047
2078.00,0.0047
2077.00,0.0047
2076.00,0.0047
2075.00,0.0047
2074.00,0.0046
2073.00,0.0045
2072.00,0.0045
2071.00,0.0045
2070.00,0.0044
2069.00,0.0044
2068.00,0.0044
2067.00,0.0045
2066.00,0.0045
2065.00,0.0044
2064.00,0.0044
2063.00,0.0043
2062.00,0.0042
2061.00,0.0041
2060.00,0.0041
2059.00,0.0042
2058.00,0.0042
2057.00,0.0042
2056.00,0.0043
2055.00,0.0044
2054.00,0.0046
2053.00,0.0051
2052.00,0.0055
2051.00,0.0056
2050.00,0.0053
2049.00,0.0049
2048.00,0.0046
2047.00,0.0044
2046.00,0.0042
2045.00,0.0040
2044.00,0.0040
2043.00,0.0040
2042.00,0.0041
2041.00,0.0042
2040.00,0.0043
2039.00,0.0043
2038.00,0.0042
2037.00,0.0040
2036.00,0.0039
2035.00,0.0037
2034.00,0.0035
2033.00,0.0034
2032.00,0.0034
2031.00,0.0034
2030.00,0.0033
2029.00,0.0032
2028.00,0.0031
2027.00,0.0030
2026.00,0.0028
2025.00,0.0027
2024.00,0.0029
2023.00,0.0031
2022.00,0.0032
2021.00,0.0033
2020.00,0.0034
2019.00,0.0034
2018.00,0.0033
2017.00,0.0033
2016.00,0.0034
2015.00,0.0034
2014.00,0.0033
2013.00,0.0034
2012.00,0.0035
2011.00,0.0035
2010.00,0.0034
2009.00,0.0032
2008.00,0.0031
2007.00,0.0029
2006.00,0.0027
2005.00,0.0026
2004.00,0.0027
2003.00,0.0028
2002.00,0.0028
2001.00,0.0028
2000.00,0.0030
1999.00,0.0031
1998.00,0.0031
1997.00,0.0031
1996.00,0.0032
1995.00,0.0032
1994.00,0.0031
1993.00,0.0032
1992.00,0.0033
1991.00,0.0034
1990.00,0.0034
1989.00,0.0035
1988.00,0.0037
1987.00,0.0039
1986.00,0.0039
1985.00,0.0040
1984.00,0.0043
1983.00,0.0045
1982.00,0.0046
1981.00,0.0046
1980.00,0.0044
1979.00,0.0039
1978.00,0.0033
1977.00,0.0028
1976.00,0.0027
1975.00,0.0026
1974.00,0.0026
1973.00,0.0026
1972.00,0.0028
1971.00,0.0028
1970.00,0.0027
1969.00,0.0026
1968.00,0.0026
1967.00,0.0026
1966.00,0.0025
1965.00,0.0025
1964.00,0.0024
1963.00,0.0024
1962.00,0.0023
1961.00,0.0023
1960.00,0.0023
1959.00,0.0023
1958.00,0.0022
1957.00,0.0022
1956.00,0.0024
1955.00,0.0026
1954.00,0.0026
1953.00,0.0027
1952.00,0.0027
1951.00,0.0027
1950.00,0.0027
1949.00,0.0026
1948.00,0.0027
1947.00,0.0026
1946.00,0.0025
1945.00,0.0025
1944.00,0.0026
1943.00,0.0027
1942.00,0.0027
1941.00,0.0027
1940.00,0.0027
1939.00,0.0027
1938.00,0.0026
1937.00,0.0026
1936.00,0.0026
1935.00,0.0026
1934.00,0.0026
1933.00,0.0026
1932.00,0.0027
1931.00,0.0027
1930.00,0.0027
1929.00,0.0027
1928.00,0.0028
1927.00,0.0029
1926.00,0.0028
1925.00,0.0028
1924.00,0.0029
1923.00,0.0029
1922.00,0.0030
1921.00,0.0030
1920.00,0.0030
1919.00,0.0030
1918.00,0.0029
1917.00,0.0029
1916.00,0.0029
1915.00,0.0029
1914.00,0.0030
1913.00,0.0030
1912.00,0.0030
1911.00,0.0030
1910.00,0.0030
1909.00,0.0029
1908.00,0.0030
1907.00,0.0030
1906.00,0.0030
1905.00,0.0030
1904.00,0.0031
1903.00,0.0031
1902.00,0.0031
1901.00,0.0031
1900.00,0.0031
1899.00,0.0031
1898.00,0.0031
1897.00,0.0030
1896.00,0.0031
1895.00,0.0031
1894.00,0.0031
1893.00,0.0030
1892.00,0.0030
1891.00,0.0030
1890.00,0.0030
1889.00,0.0030
1888.00,0.0030
1887.00,0.0030
1886.00,0.0030
1885.00,0.0030
1884.00,0.0031
1883.00,0.0031
1882.00,0.0031
1881.00,0.0031
1880.00,0.0031
1879.00,0.0031
1878.00,0.0031
1877.00,0.0031
1876.00,0.0031
1875.00,0.0031
1874.00,0.0030
1873.00,0.0030
1872.00,0.0030
1871.00,0.0030
1870.00,0.0030
1869.00,0.0030
1868.00,0.0030
1867.00,0.0031
1866.00,0.0031
1865.00,0.0031
1864.00,0.0031
1863.00,0.0032
1862.00,0.0032
1861.00,0.0032
1860.00,0.0033
1859.00,0.0033
1858.00,0.0033
1857.00,0.0032
1856.00,0.0032
1855.00,0.0033
1854.00,0.0032
1853.00,0.0032
1852.00,0.0032
1851.00,0.0032
1850.00,0.0032
1849.00,0.0032
1848.00,0.0032
1847.00,0.0033
1846.00,0.0032
1845.00,0.0031
1844.00,0.0031
1843.00,0.0031
1842.00,0.0031
1841.00,0.0031
1840.00,0.0032
1839.00,0.0033
1838.00,0.0033
1837.00,0.0033
1836.00,0.0033
1835.00,0.0033
1834.00,0.0033
1833.00,0.0033
1832.00,0.0033
1831.00,0.0033
1830.00,0.0034
1829.00,0.0034
1828.00,0.0034
1827.00,0.0033
1826.00,0.0033
1825.00,0.0033
1824.00,0.0033
1823.00,0.0034
1822.00,0.0033
1821.00,0.0033
1820.00,0.0032
1819.00,0.0032
1818.00,0.0031
1817.00,0.0030
1816.00,0.0031
1815.00,0.0032
1814.00,0.0032
1813.00,0.0032
1812.00,0.0033
1811.00,0.0034
1810.00,0.0034
1809.00,0.0034
1808.00,0.0034
1807.00,0.0034
1806.00,0.0034
1805.00,0.0035
1804.00,0.0035
1803.00,0.0035
1802.00,0.0034
1801.00,0.0034
1800.00,0.0034
1799.00,0.0035
1798.00,0.0035
1797.00,0.0035
1796.00,0.0035
1795.00,0.0036
1794.00,0.0035
1793.00,0.0034
1792.00,0.0034
1791.00,0.0035
1790.00,0.0035
1789.00,0.0035
1788.00,0.0037
1787.00,0.0038
1786.00,0.0038
1785.00,0.0038
1784.00,0.0038
1783.00,0.0039
1782.00,0.0039
1781.00,0.0039
1780.00,0.0040
1779.00,0.0041
1778.00,0.0040
1777.00,0.0040
1776.00,0.0040
1775.00,0.0041
1774.00,0.0040
1773.00,0.0040
1772.00,0.0041
1771.00,0.0042
1770.00,0.0041
1769.00,0.0041
1768.00,0.0042
1767.00,0.0044
1766.00,0.0044
1765.00,0.0045
1764.00,0.0046
1763.00,0.0046
1762.00,0.0046
1761.00,0.0046
1760.00,0.0047
1759.00,0.0048
1758.00,0.0048
1757.00,0.0049
1756.00,0.0050
1755.00,0.0051
1754.00,0.0051
1753.00,0.0051
1752.00,0.0052
1751.00,0.0053
1750.00,0.0053
1749.00,0.0054
1748.00,0.0056
1747.00,0.0058
1746.00,0.0059
1745.00,0.0060
1744.00,0.0062
1743.00,0.0063
1742.00,0.0063
1741.00,0.0064
1740.00,0.0065
1739.00,0.0067
1738.00,0.0068
1737.00,0.0068
1736.00,0.0068
1735.00,0.0069
1734.00,0.0069
1733.00,0.0071
1732.00,0.0074
1731.00,0.0077
1730.00,0.0081
1729.00,0.0084
1728.00,0.0088
1727.00,0.0090
1726.00,0.0092
1725.00,0.0094
1724.00,0.0098
1723.00,0.0101
1722.00,0.0103
1721.00,0.0105
1720.00,0.0107
1719.00,0.0110
1718.00,0.0113
1717.00,0.0117
1716.00,0.0123
1715.00,0.0129
1714.00,0.0134
1713.00,0.0140
1712.00,0.0148
1711.00,0.0156
1710.00,0.0163
1709.00,0.0171
1708.00,0.0181
1707.00,0.0192
1706.00,0.0205
1705.00,0.0219
1704.00,0.0234
1703.00,0.0247
1702.00,0.0261
1701.00,0.0285
1700.00,0.0319
1699.00,0.0351
1698.00,0.0377
1697.00,0.0409
1696.00,0.0456
1695.00,0.0508
1694.00,0.0554
1693.00,0.0595
1692.00,0.0640
1691.00,0.0692
1690.00,0.0748
1689.00,0.0806
1688.00,0.0859
1687.00,0.0908
1686.00,0.0958
1685.00,0.1025
1684.00,0.1110
1683.00,0.1187
1682.00,0.1242
1681.00,0.1292
1680.00,0.1346
1679.00,0.1399
1678.00,0.1447
1677.00,0.1495
1676.00,0.1551
1675.00,0.1611
1674.00,0.1664
1673.00,0.1709
1672.00,0.1753
1671.00,0.1801
1670.00,0.1851
1669.00,0.1903
1668.00,0.1951
1667.00,0.1993
1666.00,0.2030
1665.00,0.2066
1664.00,0.2105
1663.00,0.2143
1662.00,0.2177
1661.00,0.2205
1660.00,0.2231
1659.00,0.2254
1658.00,0.2273
1657.00,0.2289
1656.00,0.2303
1655.00,0.2312
1654.00,0.2304
1653.00,0.2279
1652.00,0.2255
1651.00,0.2244
1650.00,0.2240
1649.00,0.2231
1648.00,0.2208
1647.00,0.2168
1646.00,0.2118
1645.00,0.2073
1644.00,0.2036
1643.00,0.2001
1642.00,0.1962
1641.00,0.1918
1640.00,0.1872
1639.00,0.1828
1638.00,0.1781
1637.00,0.1723
1636.00,0.1650
1635.00,0.1573
1634.00,0.1509
1633.00,0.1458
1632.00,0.1414
1631.00,0.1369
1630.00,0.1320
1629.00,0.1268
1628.00,0.1215
1627.00,0.1166
1626.00,0.1122
1625.00,0.1079
1624.00,0.1036
1623.00,0.0991
1622.00,0.0951
1621.00,0.0917
1620.00,0.0887
1619.00,0.0859
1618.00,0.0828
1617.00,0.0792
1616.00,0.0758
1615.00,0.0728
1614.00,0.0704
1613.00,0.0682
1612.00,0.0659
1611.00,0.0635
1610.00,0.0612
1609.00,0.0589
1608.00,0.0568
1607.00,0.0547
1606.00,0.0528
1605.00,0.0510
1604.00,0.0493
1603.00,0.0477
1602.00,0.0461
1601.00,0.0447
1600.00,0.0434
1599.00,0.0421
1598.00,0.0410
1597.00,0.0400
1596.00,0.0389
1595.00,0.0378
1594.00,0.0368
1593.00,0.0358
1592.00,0.0348
1591.00,0.0339
1590.00,0.0330
1589.00,0.0321
1588.00,0.0312
1587.00,0.0304
1586.00,0.0296
1585.00,0.0289
1584.00,0.0282
1583.00,0.0275
1582.00,0.0268
1581.00,0.0262
1580.00,0.0256
1579.00,0.0250
1578.00,0.0244
1577.00,0.0238
1576.00,0.0232
1575.00,0.0226
1574.00,0.0222
1573.00,0.0218
1572.00,0.0214
1571.00,0.0210
1570.00,0.0206
1569.00,0.0202
1568.00,0.0199
1567.00,0.0195
1566.00,0.0193
1565.00,0.0191
1564.00,0.0189
1563.00,0.0185
1562.00,0.0182
1561.00,0.0177
1560.00,0.0171
1559.00,0.0167
1558.00,0.0166
1557.00,0.0164
1556.00,0.0163
1555.00,0.0163
1554.00,0.0163
1553.00,0.0163
1552.00,0.0162
1551.00,0.0161
1550.00,0.0161
1549.00,0.0160
1548.00,0.0159
1547.00,0.0157
1546.00,0.0156
1545.00,0.0154
1544.00,0.0152
1543.00,0.0150
1542.00,0.0148
1541.00,0.0146
1540.00,0.0146
1539.00,0.0146
1538.00,0.0145
1537.00,0.0145
1536.00,0.0145
1535.00,0.0145
1534.00,0.0144
1533.00,0.0144
1532.00,0.0143
1531.00,0.0142
1530.00,0.0142
1529.00,0.0142
1528.00,0.0141
1527.00,0.0140
1526.00,0.0140
1525.00,0.0139
1524.00,0.0139
1523.00,0.0138
1522.00,0.0138
1521.00,0.0139
1520.00,0.0139
1519.00,0.0140
1518.00,0.0142
1517.00,0.0145
1516.00,0.0148
1515.00,0.0150
1514.00,0.0152
1513.00,0.0155
1512.00,0.0159
1511.00,0.0163
1510.00,0.0167
1509.00,0.0172
1508.00,0.0181
1507.00,0.0197
1506.00,0.0217
1505.00,0.0235
1504.00,0.0253
1503.00,0.0271
1502.00,0.0292
1501.00,0.0314
1500.00,0.0338
1499.00,0.0361
1498.00,0.0385
1497.00,0.0407
1496.00,0.0426
1495.00,0.0437
1494.00,0.0443
1493.00,0.0443
1492.00,0.0437
1491.00,0.0424
1490.00,0.0405
1489.00,0.0383
1488.00,0.0360
1487.00,0.0337
1486.00,0.0316
1485.00,0.0299
1484.00,0.0284
1483.00,0.0271
1482.00,0.0260
1481.00,0.0253
1480.00,0.0250
1479.00,0.0248
1478.00,0.0250
1477.00,0.0257
1476.00,0.0267
1475.00,0.0280
1474.00,0.0299
1473.00,0.0330
1472.00,0.0371
1471.00,0.0414
1470.00,0.0457
1469.00,0.0503
1468.00,0.0553
1467.00,0.0607
1466.00,0.0667
1465.00,0.0730
1464.00,0.0787
1463.00,0.0826
1462.00,0.0848
1461.00,0.0857
1460.00,0.0853
1459.00,0.0833
1458.00,0.0793
1457.00,0.0737
1456.00,0.0683
1455.00,0.0644
1454.00,0.0620
1453.00,0.0604
1452.00,0.0594
1451.00,0.0591
1450.00,0.0598
1449.00,0.0616
1448.00,0.0645
1447.00,0.0682
1446.00,0.0723
1445.00,0.0767
1444.00,0.0813
1443.00,0.0859
1442.00,0.0904
1441.00,0.0945
1440.00,0.0979
1439.00,0.1006
1438.00,0.1027
1437.00,0.1043
1436.00,0.1053
1435.00,0.1057
1434.00,0.1057
1433.00,0.1057
1432.00,0.1058
1431.00,0.1062
1430.00,0.1074
1429.00,0.1095
1428.00,0.1124
1427.00,0.1158
1426.00,0.1194
1425.00,0.1231
1424.00,0.1261
1423.00,0.1278
1422.00,0.1279
1421.00,0.1262
1420.00,0.1219
1419.00,0.1150
1418.00,0.1069
1417.00,0.0992
1416.00,0.0917
1415.00,0.0844
1414.00,0.0773
1413.00,0.0706
1412.00,0.0644
1411.00,0.0589
1410.00,0.0541
1409.00,0.0500
1408.00,0.0465
1407.00,0.0435
1406.00,0.0409
1405.00,0.0387
1404.00,0.0367
1403.00,0.0350
1402.00,0.0338
1401.00,0.0327
1400.00,0.0317
1399.00,0.0308
1398.00,0.0302
1397.00,0.0297
1396.00,0.0293
1395.00,0.0291
1394.00,0.0291
1393.00,0.0292
1392.00,0.0294
1391.00,0.0298
1390.00,0.0302
1389.00,0.0308
1388.00,0.0315
1387.00,0.0324
1386.00,0.0335
1385.00,0.0346
1384.00,0.0358
1383.00,0.0371
1382.00,0.0384
1381.00,0.0397
1380.00,0.0410
1379.00,0.0422
1378.00,0.0433
1377.00,0.0443
1376.00,0.0450
1375.00,0.0456
1374.00,0.0460
1373.00,0.0461
1372.00,0.0459
1371.00,0.0455
1370.00,0.0448
1369.00,0.0440
1368.00,0.0428
1367.00,0.0416
1366.00,0.0403
1365.00,0.0389
1364.00,0.0374
1363.00,0.0358
1362.00,0.0342
1361.00,0.0329
1360.00,0.0317
1359.00,0.0307
1358.00,0.0299
1357.00,0.0292
1356.00,0.0285
1355.00,0.0279
1354.00,0.0274
1353.00,0.0270
1352.00,0.0265
1351.00,0.0261
1350.00,0.0258
1349.00,0.0255
1348.00,0.0253
1347.00,0.0250
1346.00,0.0249
1345.00,0.0247
1344.00,0.0247
1343.00,0.0246
1342.00,0.0247
1341.00,0.0248
1340.00,0.0249
1339.00,0.0252
1338.00,0.0255
1337.00,0.0260
1336.00,0.0265
1335.00,0.0271
1334.00,0.0278
1333.00,0.0287
1332.00,0.0296
1331.00,0.0307
1330.00,0.0320
1329.00,0.0335
1328.00,0.0351
1327.00,0.0368
1326.00,0.0387
1325.00,0.0408
1324.00,0.0428
1323.00,0.0449
1322.00,0.0469
1321.00,0.0487
1320.00,0.0502
1319.00,0.0514
1318.00,0.0522
1317.00,0.0525
1316.00,0.0524
1315.00,0.0518
1314.00,0.0510
1313.00,0.0499
1312.00,0.0487
1311.00,0.0475
1310.00,0.0464
1309.00,0.0456
1308.00,0.0451
1307.00,0.0449
1306.00,0.0452
1305.00,0.0459
1304.00,0.0473
1303.00,0.0493
1302.00,0.0520
1301.00,0.0556
1300.00,0.0601
1299.00,0.0657
1298.00,0.0722
1297.00,0.0798
1296.00,0.0882
1295.00,0.0971
1294.00,0.1062
1293.00,0.1151
1292.00,0.1234
1291.00,0.1307
1290.00,0.1368
1289.00,0.1414
1288.00,0.1445
1287.00,0.1460
1286.00,0.1459
1285.00,0.1444
1284.00,0.1419
1283.00,0.1387
1282.00,0.1354
1281.00,0.1324
1280.00,0.1301
1279.00,0.1287
1278.00,0.1281
1277.00,0.1284
1276.00,0.1291
1275.00,0.1300
1274.00,0.1307
1273.00,0.1310
1272.00,0.1307
1271.00,0.1295
1270.00,0.1274
1269.00,0.1246
1268.00,0.1210
1267.00,0.1169
1266.00,0.1124
1265.00,0.1077
1264.00,0.1029
1263.00,0.0981
1262.00,0.0936
1261.00,0.0892
1260.00,0.0852
1259.00,0.0814
1258.00,0.0780
1257.00,0.0749
1256.00,0.0721
1255.00,0.0696
1254.00,0.0673
1253.00,0.0652
1252.00,0.0634
1251.00,0.0617
1250.00,0.0603
1249.00,0.0591
1248.00,0.0580
1247.00,0.0571
1246.00,0.0565
1245.00,0.0560
1244.00,0.0556
1243.00,0.0555
1242.00,0.0556
1241.00,0.0558
1240.00,0.0562
1239.00,0.0567
1238.00,0.0574
1237.00,0.0581
1236.00,0.0589
1235.00,0.0598
1234.00,0.0606
1233.00,0.0614
1232.00,0.0621
1231.00,0.0626
1230.00,0.0629
1229.00,0.0631
1228.00,0.0631
1227.00,0.0630
1226.00,0.0627
1225.00,0.0624
1224.00,0.0621
1223.00,0.0618
1222.00,0.0616
1221.00,0.0614
1220.00,0.0611
1219.00,0.0607
1218.00,0.0603
1217.00,0.0598
1216.00,0.0591
1215.00,0.0583
1214.00,0.0574
1213.00,0.0564
1212.00,0.0554
1211.00,0.0543
1210.00,0.0533
1209.00,0.0523
1208.00,0.0513
1207.00,0.0503
1206.00,0.0494
1205.00,0.0485
1204.00,0.0477
1203.00,0.0468
1202.00,0.0460
1201.00,0.0453
1200.00,0.0445
1199.00,0.0438
1198.00,0.0431
1197.00,0.0425
1196.00,0.0419
1195.00,0.0414
1194.00,0.0409
1193.00,0.0405
1192.00,0.0401
1191.00,0.0398
1190.00,0.0396
1189.00,0.0394
1188.00,0.0392
1187.00,0.0391
1186.00,0.0391
1185.00,0.0391
1184.00,0.0391
1183.00,0.0392
1182.00,0.0394
1181.00,0.0397
1180.00,0.0401
1179.00,0.0406
1178.00,0.0412
1177.00,0.0418
1176.00,0.0425
1175.00,0.0432
1174.00,0.0439
1173.00,0.0446
1172.00,0.0451
1171.00,0.0455
1170.00,0.0457
1169.00,0.0458
1168.00,0.0456
1167.00,0.0452
1166.00,0.0446
1165.00,0.0438
1164.00,0.0429
1163.00,0.0420
1162.00,0.0411
1161.00,0.0401
1160.00,0.0392
1159.00,0.0384
1158.00,0.0376
1157.00,0.0369
1156.00,0.0362
1155.00,0.0356
1154.00,0.0350
1153.00,0.0344
1152.00,0.0339
1151.00,0.0333
1150.00,0.0327
1149.00,0.0322
1148.00,0.0316
1147.00,0.0311
1146.00,0.0306
1145.00,0.0301
1144.00,0.0295
1143.00,0.0290
1142.00,0.0286
1141.00,0.0281
1140.00,0.0277
1139.00,0.0273
1138.00,0.0269
1137.00,0.0267
1136.00,0.0264
1135.00,0.0262
1134.00,0.0262
1133.00,0.0261
1132.00,0.0262
1131.00,0.0262
1130.00,0.0264
1129.00,0.0266
1128.00,0.0267
1127.00,0.0269
1126.00,0.0271
1125.00,0.0273
1124.00,0.0275
1123.00,0.0277
1122.00,0.0278
1121.00,0.0280
1120.00,0.0281
1119.00,0.0283
1118.00,0.0284
1117.00,0.0285
1116.00,0.0286
1115.00,0.0287
1114.00,0.0288
1113.00,0.0289
1112.00,0.0290
1111.00,0.0291
1110.00,0.0291
1109.00,0.0292
1108.00,0.0292
1107.00,0.0292
1106.00,0.0293
1105.00,0.0293
1104.00,0.0293
1103.00,0.0293
1102.00,0.0293
1101.00,0.0294
1100.00,0.0294
1099.00,0.0295
1098.00,0.0295
1097.00,0.0296
1096.00,0.0297
1095.00,0.0297
1094.00,0.0297
1093.00,0.0298
1092.00,0.0297
1091.00,0.0297
1090.00,0.0297
1089.00,0.0297
1088.00,0.0297
1087.00,0.0297
1086.00,0.0298
1085.00,0.0300
1084.00,0.0301
1083.00,0.0302
1082.00,0.0305
1081.00,0.0307
1080.00,0.0310
1079.00,0.0313
1078.00,0.0316
1077.00,0.0319
1076.00,0.0321
1075.00,0.0322
1074.00,0.0323
1073.00,0.0322
1072.00,0.0320
1071.00,0.0317
1070.00,0.0314
1069.00,0.0311
1068.00,0.0308
1067.00,0.0304
1066.00,0.0302
1065.00,0.0299
1064.00,0.0297
1063.00,0.0296
1062.00,0.0295
1061.00,0.0294
1060.00,0.0293
1059.00,0.0292
1058.00,0.0291
1057.00,0.0291
1056.00,0.0290
1055.00,0.0289
1054.00,0.0288
1053.00,0.0287
1052.00,0.0285
1051.00,0.0282
1050.00,0.0280
1049.00,0.0279
1048.00,0.0277
1047.00,0.0276
1046.00,0.0276
1045.00,0.0275
1044.00,0.0274
1043.00,0.0275
1042.00,0.0275
1041.00,0.0276
1040.00,0.0278
1039.00,0.0279
1038.00,0.0282
1037.00,0.0284
1036.00,0.0287
1035.00,0.0289
1034.00,0.0291
1033.00,0.0293
1032.00,0.0295
1031.00,0.0296
1030.00,0.0297
1029.00,0.0299
1028.00,0.0302
1027.00,0.0305
1026.00,0.0309
1025.00,0.0314
1024.00,0.0320
1023.00,0.0327
1022.00,0.0334
1021.00,0.0341
1020.00,0.0347
1019.00,0.0351
1018.00,0.0353
1017.00,0.0352
1016.00,0.0347
1015.00,0.0339
1014.00,0.0330
1013.00,0.0320
1012.00,0.0310
1011.00,0.0301
1010.00,0.0295
1009.00,0.0291
1008.00,0.0289
1007.00,0.0290
1006.00,0.0294
1005.00,0.0301
1004.00,0.0307
1003.00,0.0312
1002.00,0.0314
1001.00,0.0313
1000.00,0.0310
999.00,0.0304
998.00,0.0298
997.00,0.0291
996.00,0.0284
995.00,0.0278
994.00,0.0272
993.00,0.0266
992.00,0.0262
991.00,0.0257
990.00,0.0253
989.00,0.0249
988.00,0.0245
987.00,0.0242
986.00,0.0240
985.00,0.0238
984.00,0.0236
983.00,0.0234
982.00,0.0232
981.00,0.0230
980.00,0.0228
979.00,0.0226
978.00,0.0225
977.00,0.0223
976.00,0.0222
975.00,0.0221
974.00,0.0219
973.00,0.0218
972.00,0.0217
971.00,0.0215
970.00,0.0214
969.00,0.0213
968.00,0.0211
967.00,0.0210
966.00,0.0209
965.00,0.0208
964.00,0.0207
963.00,0.0205
962.00,0.0204
961.00,0.0203
960.00,0.0202
959.00,0.0201
958.00,0.0200
957.00,0.0199
956.00,0.0198
955.00,0.0197
954.00,0.0196
953.00,0.0196
952.00,0.0195
951.00,0.0195
950.00,0.0195
949.00,0.0196
948.00,0.0196
947.00,0.0197
946.00,0.0198
945.00,0.0199
944.00,0.0201
943.00,0.0205
942.00,0.0209
941.00,0.0214
940.00,0.0221
939.00,0.0228
938.00,0.0237
937.00,0.0245
936.00,0.0253
935.00,0.0259
934.00,0.0262
933.00,0.0262
932.00,0.0259
931.00,0.0253
930.00,0.0248
929.00,0.0242
928.00,0.0237
927.00,0.0234
926.00,0.0231
925.00,0.0229
924.00,0.0226
923.00,0.0223
922.00,0.0221
921.00,0.0218
920.00,0.0216
919.00,0.0214
918.00,0.0212
917.00,0.0211
916.00,0.0210
915.00,0.0209
914.00,0.0209
913.00,0.0209
912.00,0.0208
911.00,0.0208
910.00,0.0208
909.00,0.0209
908.00,0.0210
907.00,0.0212
906.00,0.0215
905.00,0.0219
904.00,0.0222
903.00,0.0226
902.00,0.0231
901.00,0.0235
900.00,0.0239
899.00,0.0243
898.00,0.0247
897.00,0.0250
896.00,0.0252
895.00,0.0253
894.00,0.0253
893.00,0.0252
892.00,0.0249
891.00,0.0246
890.00,0.0243
889.00,0.0240
888.00,0.0237
887.00,0.0234
886.00,0.0232
885.00,0.0230
884.00,0.0228
883.00,0.0226
882.00,0.0224
881.00,0.0223
880.00,0.0222
879.00,0.0221
878.00,0.0221
877.00,0.0221
876.00,0.0221
875.00,0.0221
874.00,0.0221
873.00,0.0222
872.00,0.0223
871.00,0.0225
870.00,0.0227
869.00,0.0229
868.00,0.0231
867.00,0.0234
866.00,0.0238
865.00,0.0242
864.00,0.0247
863.00,0.0252
862.00,0.0258
861.00,0.0265
860.00,0.0272
859.00,0.0280
858.00,0.0289
857.00,0.0298
856.00,0.0308
855.00,0.0318
854.00,0.0329
853.00,0.0339
852.00,0.0349
851.00,0.0359
850.00,0.0369
849.00,0.0377
848.00,0.0385
847.00,0.0390
846.00,0.0394
845.00,0.0397
844.00,0.0398
843.00,0.0398
842.00,0.0396
841.00,0.0392
840.00,0.0388
839.00,0.0383
838.00,0.0378
837.00,0.0372
836.00,0.0367
835.00,0.0361
834.00,0.0355
833.00,0.0349
832.00,0.0342
831.00,0.0335
830.00,0.0329
829.00,0.0323
828.00,0.0317
827.00,0.0311
826.00,0.0305
825.00,0.0300
824.00,0.0296
823.00,0.0291
822.00,0.0288
821.00,0.0284
820.00,0.0281
819.00,0.0278
818.00,0.0276
817.00,0.0274
816.00,0.0272
815.00,0.0271
814.00,0.0270
813.00,0.0269
812.00,0.0269
811.00,0.0268
810.00,0.0267
809.00,0.0267
808.00,0.0268
807.00,0.0268
806.00,0.0269
805.00,0.0269
804.00,0.0269
803.00,0.0269
802.00,0.0269
801.00,0.0270
800.00,0.0271
799.00,0.0272
798.00,0.0273
797.00,0.0274
796.00,0.0274
795.00,0.0275
794.00,0.0276
793.00,0.0278
792.00,0.0280
791.00,0.0281
790.00,0.0283
789.00,0.0284
788.00,0.0285
787.00,0.0287
786.00,0.0289
785.00,0.0291
784.00,0.0293
783.00,0.0294
782.00,0.0296
781.00,0.0298
780.00,0.0299
779.00,0.0302
778.00,0.0305
777.00,0.0307
776.00,0.0310
775.00,0.0313
774.00,0.0316
773.00,0.0319
772.00,0.0322
771.00,0.0326
770.00,0.0330
769.00,0.0334
768.00,0.0339
767.00,0.0344
766.00,0.0350
765.00,0.0356
764.00,0.0362
763.00,0.0367
762.00,0.0374
761.00,0.0381
760.00,0.0388
759.00,0.0395
758.00,0.0402
757.00,0.0409
756.00,0.0416
755.00,0.0424
754.00,0.0432
753.00,0.0440
752.00,0.0448
751.00,0.0456
750.00,0.0463
749.00,0.0470
748.00,0.0478
747.00,0.0486
746.00,0.0493
745.00,0.0501
744.00,0.0508
743.00,0.0516
742.00,0.0524
741.00,0.0533
740.00,0.0541
739.00,0.0548
738.00,0.0555
737.00,0.0560
736.00,0.0565
735.00,0.0569
734.00,0.0571
733.00,0.0572
732.00,0.0570
731.00,0.0566
730.00,0.0560
729.00,0.0552
728.00,0.0544
727.00,0.0536
726.00,0.0529
725.00,0.0522
724.00,0.0516
723.00,0.0511
722.00,0.0507
721.00,0.0504
720.00,0.0500
719.00,0.0498
718.00,0.0495
717.00,0.0493
716.00,0.0492
715.00,0.0492
714.00,0.0492
713.00,0.0492
712.00,0.0493
711.00,0.0493
710.00,0.0495
709.00,0.0496
708.00,0.0498
707.00,0.0499
706.00,0.0501
705.00,0.0503
704.00,0.0506
703.00,0.0508
702.00,0.0511
701.00,0.0513
700.00,0.0516
699.00,0.0519
698.00,0.0523
697.00,0.0527
696.00,0.0531
695.00,0.0536
694.00,0.0541
693.00,0.0545
692.00,0.0550
691.00,0.0554
690.00,0.0559
689.00,0.0564
688.00,0.0570
687.00,0.0577
686.00,0.0583
685.00,0.0590
684.00,0.0597
683.00,0.0603
682.00,0.0609
681.00,0.0615
680.00,0.0621
679.00,0.0627
678.00,0.0633
677.00,0.0639
676.00,0.0644
675.00,0.0650
674.00,0.0657
673.00,0.0664
672.00,0.0671
671.00,0.0677
670.00,0.0682
669.00,0.0688
668.00,0.0696
667.00,0.0707
666.00,0.0719
665.00,0.0732
664.00,0.0744
663.00,0.0757
662.00,0.0770
661.00,0.0783
660.00,0.0796
659.00,0.0810
658.00,0.0825
657.00,0.0839
656.00,0.0853
655.00,0.0867
654.00,0.0880
653.00,0.0894
652.00,0.0907
651.00,0.0918
650.00,0.0926
649.00,0.0933
648.00,0.0937
647.00,0.0940
646.00,0.0940
645.00,0.0938
644.00,0.0935
643.00,0.0930
642.00,0.0924
641.00,0.0916
640.00,0.0909
639.00,0.0901
638.00,0.0894
637.00,0.0886
636.00,0.0879
635.00,0.0872
634.00,0.0864
633.00,0.0856
632.00,0.0850
631.00,0.0846
630.00,0.0842
629.00,0.0840
628.00,0.0837
627.00,0.0833
626.00,0.0829
625.00,0.0825
624.00,0.0822
623.00,0.0819
622.00,0.0818
621.00,0.0817
620.00,0.0817
619.00,0.0817
618.00,0.0816
617.00,0.0817
616.00,0.0818
615.00,0.0820
614.00,0.0822
613.00,0.0823
612.00,0.0822
611.00,0.0821
610.00,0.0821
609.00,0.0822
608.00,0.0824
607.00,0.0825
606.00,0.0827
605.00,0.0829
604.00,0.0832
603.00,0.0834
602.00,0.0836
601.00,0.0838
600.00,0.0840
599.00,0.0843
598.00,0.0848
597.00,0.0853
596.00,0.0858
595.00,0.0863
594.00,0.0867
593.00,0.0871
592.00,0.0878
591.00,0.0886
590.00,0.0895
589.00,0.0905
588.00,0.0914
587.00,0.0924
586.00,0.0934
585.00,0.0946
584.00,0.0959
583.00,0.0973
582.00,0.0985
581.00,0.0997
580.00,0.1009
579.00,0.1021
578.00,0.1031
577.00,0.1040
576.00,0.1048
575.00,0.1055
574.00,0.1060
573.00,0.1063
572.00,0.1065
571.00,0.1065
570.00,0.1064
569.00,0.1062
568.00,0.1059
567.00,0.1055
566.00,0.1051
565.00,0.1047
564.00,0.1043
563.00,0.1037
562.00,0.1031
561.00,0.1025
560.00,0.1020
559.00,0.1014
558.00,0.1008
557.00,0.1003
556.00,0.1000
555.00,0.0997
554.00,0.0994
553.00,0.0991
552.00,0.0988
551.00,0.0984
550.00,0.0979
549.00,0.0975
548.00,0.0972
547.00,0.0969
546.00,0.0966
545.00,0.0963
544.00,0.0959
543.00,0.0956
542.00,0.0954
541.00,0.0953
540.00,0.0952
539.00,0.0950
538.00,0.0948
537.00,0.0946
536.00,0.0945
535.00,0.0944
534.00,0.0944
533.00,0.0944
532.00,0.0944
531.00,0.0944
530.00,0.0945
529.00,0.0947
528.00,0.0948
527.00,0.0950
526.00,0.0951
525.00,0.0952
524.00,0.0952
523.00,0.0952
522.00,0.0952
521.00,0.0952
520.00,0.0953
519.00,0.0953
518.00,0.0952
517.00,0.0951
516.00,0.0951
515.00,0.0951
514.00,0.0951
513.00,0.0951
512.00,0.0952
511.00,0.0952
510.00,0.0951
509.00,0.0951
508.00,0.0951
507.00,0.0952
506.00,0.0953
505.00,0.0955
504.00,0.0957
503.00,0.0957
502.00,0.0956
501.00,0.0956
500.00,0.0958
499.00,0.0960
498.00,0.0963
497.00,0.0966
496.00,0.0968
495.00,0.0968
494.00,0.0968
493.00,0.0969
492.00,0.0972
491.00,0.0974
490.00,0.0975
489.00,0.0974
488.00,0.0974
487.00,0.0976
486.00,0.0978
485.00,0.0981
484.00,0.0983
483.00,0.0984
482.00,0.0984
481.00,0.0987
480.00,0.0992
479.00,0.0997
478.00,0.1001
477.00,0.1003
476.00,0.1005
475.00,0.1006
474.00,0.1008
473.00,0.1009
472.00,0.1009
471.00,0.1007
470.00,0.1006
469.00,0.1004
468.00,0.1003
467.00,0.1002
466.00,0.0999
465.00,0.0996
464.00,0.0993
463.00,0.0989
462.00,0.0984
461.00,0.0980
460.00,0.0976
459.00,0.0973
458.00,0.0972
457.00,0.0972
456.00,0.0973
455.00,0.0972
454.00,0.0969
453.00,0.0965
452.00,0.0960
451.00,0.0957
450.00,0.0955
449.00,0.0955
448.00,0.0953
447.00,0.0949
446.00,0.0942
445.00,0.0935
444.00,0.0928
443.00,0.0922
442.00,0.0917
441.00,0.0915
440.00,0.0912
439.00,0.0908
438.00,0.0903
437.00,0.0899
436.00,0.0897
435.00,0.0894
434.00,0.0890
433.00,0.0884
432.00,0.0878
431.00,0.0870
430.00,0.0862
429.00,0.0856
428.00,0.0852
427.00,0.0850
426.00,0.0849
425.00,0.0849
424.00,0.0848
423.00,0.0844
422.00,0.0840
421.00,0.0836
420.00,0.0833
419.00,0.0827
418.00,0.0820
417.00,0.0818
416.00,0.0822
415.00,0.0825
414.00,0.0824
413.00,0.0818
412.00,0.0809
411.00,0.0804
410.00,0.0804
409.00,0.0810
408.00,0.0814
407.00,0.0811
406.00,0.0802
405.00,0.0790
404.00,0.0782
403.00,0.0779
402.00,0.0783
401.00,0.0793
400.00,0.0807
