Created as New Dataset,Sample 912 By YargerLab Date Thursday, July 24 2025
cm-1,A
4000.00,0.0047
3999.00,0.0048
3998.00,0.0048
3997.00,0.0048
3996.00,0.0048
3995.00,0.0048
3994.00,0.0048
3993.00,0.0048
3992.00,0.0048
3991.00,0.0048
3990.00,0.0048
3989.00,0.0048
3988.00,0.0047
3987.00,0.0047
3986.00,0.0047
3985.00,0.0047
3984.00,0.0047
3983.00,0.0047
3982.00,0.0047
3981.00,0.0047
3980.00,0.0047
3979.00,0.0047
3978.00,0.0047
3977.00,0.0047
3976.00,0.0047
3975.00,0.0047
3974.00,0.0047
3973.00,0.0047
3972.00,0.0047
3971.00,0.0047
3970.00,0.0047
3969.00,0.0047
3968.00,0.0047
3967.00,0.0047
3966.00,0.0047
3965.00,0.0047
3964.00,0.0047
3963.00,0.0047
3962.00,0.0047
3961.00,0.0047
3960.00,0.0047
3959.00,0.0047
3958.00,0.0047
3957.00,0.0047
3956.00,0.0047
3955.00,0.0047
3954.00,0.0047
3953.00,0.0047
3952.00,0.0047
3951.00,0.0047
3950.00,0.0047
3949.00,0.0047
3948.00,0.0047
3947.00,0.0047
3946.00,0.0047
3945.00,0.0047
3944.00,0.0047
3943.00,0.0047
3942.00,0.0047
3941.00,0.0047
3940.00,0.0047
3939.00,0.0047
3938.00,0.0047
3937.00,0.0047
3936.00,0.0047
3935.00,0.0047
3934.00,0.0047
3933.00,0.0047
3932.00,0.0047
3931.00,0.0047
3930.00,0.0047
3929.00,0.0047
3928.00,0.0047
3927.00,0.0047
3926.00,0.0047
3925.00,0.0047
3924.00,0.0047
3923.00,0.0047
3922.00,0.0047
3921.00,0.0047
3920.00,0.0047
3919.00,0.0047
3918.00,0.0047
3917.00,0.0047
3916.00,0.0047
3915.00,0.0047
3914.00,0.0047
3913.00,0.0047
3912.00,0.0047
3911.00,0.0048
3910.00,0.0048
3909.00,0.0048
3908.00,0.0048
3907.00,0.0048
3906.00,0.0048
3905.00,0.0048
3904.00,0.0048
3903.00,0.0047
3902.00,0.0047
3901.00,0.0047
3900.00,0.0047
3899.00,0.0047
3898.00,0.0047
3897.00,0.0047
3896.00,0.0047
3895.00,0.0047
3894.00,0.0047
3893.00,0.0047
3892.00,0.0047
3891.00,0.0047
3890.00,0.0048
3889.00,0.0048
3888.00,0.0048
3887.00,0.0048
3886.00,0.0047
3885.00,0.0047
3884.00,0.0047
3883.00,0.0047
3882.00,0.0047
3881.00,0.0047
3880.00,0.0047
3879.00,0.0047
3878.00,0.0047
3877.00,0.0047
3876.00,0.0047
3875.00,0.0047
3874.00,0.0046
3873.00,0.0047
3872.00,0.0047
3871.00,0.0047
3870.00,0.0047
3869.00,0.0047
3868.00,0.0047
3867.00,0.0047
3866.00,0.0047
3865.00,0.0047
3864.00,0.0047
3863.00,0.0047
3862.00,0.0047
3861.00,0.0047
3860.00,0.0047
3859.00,0.0047
3858.00,0.0047
3857.00,0.0048
3856.00,0.0048
3855.00,0.0048
3854.00,0.0048
3853.00,0.0047
3852.00,0.0047
3851.00,0.0047
3850.00,0.0047
3849.00,0.0047
3848.00,0.0047
3847.00,0.0047
3846.00,0.0047
3845.00,0.0047
3844.00,0.0047
3843.00,0.0047
3842.00,0.0047
3841.00,0.0047
3840.00,0.0047
3839.00,0.0047
3838.00,0.0047
3837.00,0.0047
3836.00,0.0047
3835.00,0.0047
3834.00,0.0047
3833.00,0.0047
3832.00,0.0047
3831.00,0.0048
3830.00,0.0048
3829.00,0.0047
3828.00,0.0047
3827.00,0.0047
3826.00,0.0047
3825.00,0.0047
3824.00,0.0047
3823.00,0.0047
3822.00,0.0047
3821.00,0.0047
3820.00,0.0047
3819.00,0.0048
3818.00,0.0047
3817.00,0.0047
3816.00,0.0047
3815.00,0.0047
3814.00,0.0047
3813.00,0.0047
3812.00,0.0047
3811.00,0.0047
3810.00,0.0047
3809.00,0.0047
3808.00,0.0047
3807.00,0.0047
3806.00,0.0047
3805.00,0.0047
3804.00,0.0047
3803.00,0.0047
3802.00,0.0047
3801.00,0.0047
3800.00,0.0047
3799.00,0.0047
3798.00,0.0047
3797.00,0.0047
3796.00,0.0048
3795.00,0.0048
3794.00,0.0048
3793.00,0.0048
3792.00,0.0048
3791.00,0.0048
3790.00,0.0048
3789.00,0.0048
3788.00,0.0048
3787.00,0.0048
3786.00,0.0048
3785.00,0.0048
3784.00,0.0048
3783.00,0.0048
3782.00,0.0048
3781.00,0.0048
3780.00,0.0048
3779.00,0.0048
3778.00,0.0048
3777.00,0.0048
3776.00,0.0048
3775.00,0.0048
3774.00,0.0048
3773.00,0.0048
3772.00,0.0048
3771.00,0.0048
3770.00,0.0049
3769.00,0.0049
3768.00,0.0049
3767.00,0.0049
3766.00,0.0049
3765.00,0.0049
3764.00,0.0048
3763.00,0.0048
3762.00,0.0048
3761.00,0.0047
3760.00,0.0047
3759.00,0.0047
3758.00,0.0047
3757.00,0.0048
3756.00,0.0048
3755.00,0.0048
3754.00,0.0048
3753.00,0.0048
3752.00,0.0048
3751.00,0.0048
3750.00,0.0048
3749.00,0.0048
3748.00,0.0048
3747.00,0.0047
3746.00,0.0047
3745.00,0.0047
3744.00,0.0048
3743.00,0.0048
3742.00,0.0048
3741.00,0.0048
3740.00,0.0047
3739.00,0.0047
3738.00,0.0047
3737.00,0.0046
3736.00,0.0046
3735.00,0.0046
3734.00,0.0046
3733.00,0.0046
3732.00,0.0046
3731.00,0.0046
3730.00,0.0047
3729.00,0.0047
3728.00,0.0047
3727.00,0.0047
3726.00,0.0047
3725.00,0.0047
3724.00,0.0047
3723.00,0.0047
3722.00,0.0047
3721.00,0.0047
3720.00,0.0047
3719.00,0.0047
3718.00,0.0047
3717.00,0.0048
3716.00,0.0048
3715.00,0.0048
3714.00,0.0047
3713.00,0.0047
3712.00,0.0047
3711.00,0.0047
3710.00,0.0047
3709.00,0.0047
3708.00,0.0047
3707.00,0.0046
3706.00,0.0046
3705.00,0.0046
3704.00,0.0046
3703.00,0.0046
3702.00,0.0046
3701.00,0.0046
3700.00,0.0046
3699.00,0.0046
3698.00,0.0046
3697.00,0.0046
3696.00,0.0046
3695.00,0.0046
3694.00,0.0046
3693.00,0.0046
3692.00,0.0046
3691.00,0.0046
3690.00,0.0046
3689.00,0.0046
3688.00,0.0047
3687.00,0.0047
3686.00,0.0047
3685.00,0.0047
3684.00,0.0047
3683.00,0.0047
3682.00,0.0047
3681.00,0.0048
3680.00,0.0048
3679.00,0.0048
3678.00,0.0047
3677.00,0.0047
3676.00,0.0047
3675.00,0.0047
3674.00,0.0048
3673.00,0.0048
3672.00,0.0048
3671.00,0.0048
3670.00,0.0048
3669.00,0.0048
3668.00,0.0048
3667.00,0.0048
3666.00,0.0049
3665.00,0.0049
3664.00,0.0049
3663.00,0.0049
3662.00,0.0049
3661.00,0.0049
3660.00,0.0050
3659.00,0.0050
3658.00,0.0050
3657.00,0.0050
3656.00,0.0050
3655.00,0.0050
3654.00,0.0050
3653.00,0.0050
3652.00,0.0050
3651.00,0.0051
3650.00,0.0051
3649.00,0.0051
3648.00,0.0051
3647.00,0.0052
3646.00,0.0052
3645.00,0.0052
3644.00,0.0053
3643.00,0.0053
3642.00,0.0053
3641.00,0.0054
3640.00,0.0054
3639.00,0.0055
3638.00,0.0055
3637.00,0.0055
3636.00,0.0055
3635.00,0.0055
3634.00,0.0056
3633.00,0.0056
3632.00,0.0056
3631.00,0.0057
3630.00,0.0057
3629.00,0.0057
3628.00,0.0058
3627.00,0.0058
3626.00,0.0059
3625.00,0.0059
3624.00,0.0060
3623.00,0.0060
3622.00,0.0061
3621.00,0.0061
3620.00,0.0062
3619.00,0.0063
3618.00,0.0064
3617.00,0.0064
3616.00,0.0065
3615.00,0.0065
3614.00,0.0066
3613.00,0.0066
3612.00,0.0066
3611.00,0.0067
3610.00,0.0067
3609.00,0.0067
3608.00,0.0068
3607.00,0.0069
3606.00,0.0070
3605.00,0.0070
3604.00,0.0071
3603.00,0.0071
3602.00,0.0072
3601.00,0.0072
3600.00,0.0073
3599.00,0.0073
3598.00,0.0074
3597.00,0.0075
3596.00,0.0075
3595.00,0.0076
3594.00,0.0076
3593.00,0.0077
3592.00,0.0078
3591.00,0.0079
3590.00,0.0080
3589.00,0.0081
3588.00,0.0081
3587.00,0.0082
3586.00,0.0083
3585.00,0.0083
3584.00,0.0084
3583.00,0.0085
3582.00,0.0086
3581.00,0.0087
3580.00,0.0088
3579.00,0.0089
3578.00,0.0090
3577.00,0.0090
3576.00,0.0091
3575.00,0.0092
3574.00,0.0093
3573.00,0.0094
3572.00,0.0095
3571.00,0.0096
3570.00,0.0097
3569.00,0.0098
3568.00,0.0098
3567.00,0.0099
3566.00,0.0100
3565.00,0.0101
3564.00,0.0101
3563.00,0.0102
3562.00,0.0103
3561.00,0.0104
3560.00,0.0105
3559.00,0.0106
3558.00,0.0107
3557.00,0.0108
3556.00,0.0109
3555.00,0.0109
3554.00,0.0110
3553.00,0.0111
3552.00,0.0112
3551.00,0.0112
3550.00,0.0113
3549.00,0.0113
3548.00,0.0114
3547.00,0.0115
3546.00,0.0116
3545.00,0.0117
3544.00,0.0117
3543.00,0.0118
3542.00,0.0118
3541.00,0.0119
3540.00,0.0119
3539.00,0.0120
3538.00,0.0120
3537.00,0.0121
3536.00,0.0121
3535.00,0.0121
3534.00,0.0122
3533.00,0.0122
3532.00,0.0123
3531.00,0.0123
3530.00,0.0123
3529.00,0.0124
3528.00,0.0124
3527.00,0.0125
3526.00,0.0125
3525.00,0.0126
3524.00,0.0126
3523.00,0.0126
3522.00,0.0126
3521.00,0.0126
3520.00,0.0126
3519.00,0.0127
3518.00,0.0127
3517.00,0.0127
3516.00,0.0128
3515.00,0.0128
3514.00,0.0128
3513.00,0.0129
3512.00,0.0129
3511.00,0.0129
3510.00,0.0129
3509.00,0.0130
3508.00,0.0130
3507.00,0.0130
3506.00,0.0131
3505.00,0.0131
3504.00,0.0131
3503.00,0.0131
3502.00,0.0131
3501.00,0.0131
3500.00,0.0131
3499.00,0.0131
3498.00,0.0132
3497.00,0.0132
3496.00,0.0132
3495.00,0.0131
3494.00,0.0131
3493.00,0.0131
3492.00,0.0132
3491.00,0.0132
3490.00,0.0133
3489.00,0.0133
3488.00,0.0133
3487.00,0.0133
3486.00,0.0133
3485.00,0.0133
3484.00,0.0133
3483.00,0.0133
3482.00,0.0133
3481.00,0.0133
3480.00,0.0134
3479.00,0.0134
3478.00,0.0134
3477.00,0.0134
3476.00,0.0134
3475.00,0.0134
3474.00,0.0134
3473.00,0.0134
3472.00,0.0135
3471.00,0.0135
3470.00,0.0135
3469.00,0.0135
3468.00,0.0135
3467.00,0.0135
3466.00,0.0135
3465.00,0.0135
3464.00,0.0135
3463.00,0.0135
3462.00,0.0135
3461.00,0.0135
3460.00,0.0136
3459.00,0.0135
3458.00,0.0135
3457.00,0.0135
3456.00,0.0135
3455.00,0.0135
3454.00,0.0135
3453.00,0.0136
3452.00,0.0136
3451.00,0.0136
3450.00,0.0136
3449.00,0.0136
3448.00,0.0136
3447.00,0.0136
3446.00,0.0136
3445.00,0.0136
3444.00,0.0135
3443.00,0.0135
3442.00,0.0135
3441.00,0.0135
3440.00,0.0135
3439.00,0.0136
3438.00,0.0136
3437.00,0.0136
3436.00,0.0136
3435.00,0.0136
3434.00,0.0136
3433.00,0.0135
3432.00,0.0135
3431.00,0.0135
3430.00,0.0135
3429.00,0.0134
3428.00,0.0134
3427.00,0.0134
3426.00,0.0134
3425.00,0.0134
3424.00,0.0133
3423.00,0.0133
3422.00,0.0133
3421.00,0.0133
3420.00,0.0133
3419.00,0.0133
3418.00,0.0132
3417.00,0.0132
3416.00,0.0132
3415.00,0.0131
3414.00,0.0131
3413.00,0.0131
3412.00,0.0131
3411.00,0.0131
3410.00,0.0131
3409.00,0.0130
3408.00,0.0130
3407.00,0.0129
3406.00,0.0129
3405.00,0.0129
3404.00,0.0128
3403.00,0.0128
3402.00,0.0128
3401.00,0.0127
3400.00,0.0127
3399.00,0.0127
3398.00,0.0127
3397.00,0.0127
3396.00,0.0127
3395.00,0.0126
3394.00,0.0126
3393.00,0.0125
3392.00,0.0125
3391.00,0.0125
3390.00,0.0124
3389.00,0.0124
3388.00,0.0124
3387.00,0.0124
3386.00,0.0123
3385.00,0.0123
3384.00,0.0123
3383.00,0.0122
3382.00,0.0122
3381.00,0.0122
3380.00,0.0122
3379.00,0.0121
3378.00,0.0121
3377.00,0.0121
3376.00,0.0121
3375.00,0.0120
3374.00,0.0120
3373.00,0.0119
3372.00,0.0118
3371.00,0.0117
3370.00,0.0116
3369.00,0.0116
3368.00,0.0116
3367.00,0.0117
3366.00,0.0117
3365.00,0.0118
3364.00,0.0118
3363.00,0.0118
3362.00,0.0117
3361.00,0.0117
3360.00,0.0117
3359.00,0.0116
3358.00,0.0116
3357.00,0.0116
3356.00,0.0116
3355.00,0.0116
3354.00,0.0115
3353.00,0.0115
3352.00,0.0114
3351.00,0.0114
3350.00,0.0114
3349.00,0.0114
3348.00,0.0114
3347.00,0.0114
3346.00,0.0114
3345.00,0.0113
3344.00,0.0113
3343.00,0.0112
3342.00,0.0112
3341.00,0.0111
3340.00,0.0111
3339.00,0.0111
3338.00,0.0111
3337.00,0.0111
3336.00,0.0112
3335.00,0.0112
3334.00,0.0112
3333.00,0.0112
3332.00,0.0112
3331.00,0.0112
3330.00,0.0111
3329.00,0.0111
3328.00,0.0110
3327.00,0.0109
3326.00,0.0109
3325.00,0.0109
3324.00,0.0109
3323.00,0.0110
3322.00,0.0110
3321.00,0.0110
3320.00,0.0110
3319.00,0.0109
3318.00,0.0109
3317.00,0.0108
3316.00,0.0108
3315.00,0.0107
3314.00,0.0107
3313.00,0.0106
3312.00,0.0106
3311.00,0.0105
3310.00,0.0104
3309.00,0.0102
3308.00,0.0101
3307.00,0.0100
3306.00,0.0100
3305.00,0.0100
3304.00,0.0102
3303.00,0.0103
3302.00,0.0104
3301.00,0.0104
3300.00,0.0103
3299.00,0.0103
3298.00,0.0102
3297.00,0.0101
3296.00,0.0100
3295.00,0.0099
3294.00,0.0099
3293.00,0.0099
3292.00,0.0099
3291.00,0.0099
3290.00,0.0100
3289.00,0.0100
3288.00,0.0100
3287.00,0.0100
3286.00,0.0100
3285.00,0.0099
3284.00,0.0099
3283.00,0.0099
3282.00,0.0099
3281.00,0.0098
3280.00,0.0098
3279.00,0.0097
3278.00,0.0096
3277.00,0.0096
3276.00,0.0095
3275.00,0.0095
3274.00,0.0094
3273.00,0.0094
3272.00,0.0093
3271.00,0.0092
3270.00,0.0092
3269.00,0.0092
3268.00,0.0093
3267.00,0.0093
3266.00,0.0093
3265.00,0.0093
3264.00,0.0092
3263.00,0.0092
3262.00,0.0092
3261.00,0.0091
3260.00,0.0091
3259.00,0.0090
3258.00,0.0089
3257.00,0.0089
3256.00,0.0089
3255.00,0.0088
3254.00,0.0088
3253.00,0.0088
3252.00,0.0088
3251.00,0.0087
3250.00,0.0087
3249.00,0.0086
3248.00,0.0086
3247.00,0.0086
3246.00,0.0085
3245.00,0.0085
3244.00,0.0085
3243.00,0.0085
3242.00,0.0085
3241.00,0.0084
3240.00,0.0084
3239.00,0.0083
3238.00,0.0083
3237.00,0.0083
3236.00,0.0082
3235.00,0.0082
3234.00,0.0081
3233.00,0.0081
3232.00,0.0081
3231.00,0.0080
3230.00,0.0080
3229.00,0.0080
3228.00,0.0080
3227.00,0.0080
3226.00,0.0079
3225.00,0.0079
3224.00,0.0079
3223.00,0.0079
3222.00,0.0078
3221.00,0.0078
3220.00,0.0077
3219.00,0.0077
3218.00,0.0077
3217.00,0.0077
3216.00,0.0077
3215.00,0.0076
3214.00,0.0076
3213.00,0.0076
3212.00,0.0076
3211.00,0.0076
3210.00,0.0075
3209.00,0.0075
3208.00,0.0075
3207.00,0.0074
3206.00,0.0074
3205.00,0.0074
3204.00,0.0073
3203.00,0.0073
3202.00,0.0073
3201.00,0.0073
3200.00,0.0073
3199.00,0.0072
3198.00,0.0072
3197.00,0.0072
3196.00,0.0071
3195.00,0.0071
3194.00,0.0071
3193.00,0.0071
3192.00,0.0071
3191.00,0.0071
3190.00,0.0071
3189.00,0.0070
3188.00,0.0070
3187.00,0.0070
3186.00,0.0070
3185.00,0.0070
3184.00,0.0070
3183.00,0.0069
3182.00,0.0069
3181.00,0.0069
3180.00,0.0069
3179.00,0.0068
3178.00,0.0068
3177.00,0.0068
3176.00,0.0068
3175.00,0.0068
3174.00,0.0068
3173.00,0.0068
3172.00,0.0068
3171.00,0.0068
3170.00,0.0068
3169.00,0.0068
3168.00,0.0067
3167.00,0.0067
3166.00,0.0067
3165.00,0.0067
3164.00,0.0066
3163.00,0.0066
3162.00,0.0066
3161.00,0.0066
3160.00,0.0066
3159.00,0.0066
3158.00,0.0066
3157.00,0.0066
3156.00,0.0065
3155.00,0.0065
3154.00,0.0065
3153.00,0.0064
3152.00,0.0064
3151.00,0.0064
3150.00,0.0064
3149.00,0.0065
3148.00,0.0065
3147.00,0.0064
3146.00,0.0064
3145.00,0.0064
3144.00,0.0064
3143.00,0.0064
3142.00,0.0064
3141.00,0.0064
3140.00,0.0063
3139.00,0.0063
3138.00,0.0063
3137.00,0.0063
3136.00,0.0063
3135.00,0.0064
3134.00,0.0063
3133.00,0.0063
3132.00,0.0063
3131.00,0.0063
3130.00,0.0063
3129.00,0.0063
3128.00,0.0062
3127.00,0.0062
3126.00,0.0062
3125.00,0.0062
3124.00,0.0062
3123.00,0.0062
3122.00,0.0062
3121.00,0.0062
3120.00,0.0062
3119.00,0.0062
3118.00,0.0062
3117.00,0.0062
3116.00,0.0062
3115.00,0.0062
3114.00,0.0062
3113.00,0.0062
3112.00,0.0062
3111.00,0.0062
3110.00,0.0062
3109.00,0.0062
3108.00,0.0062
3107.00,0.0062
3106.00,0.0061
3105.00,0.0061
3104.00,0.0061
3103.00,0.0061
3102.00,0.0061
3101.00,0.0061
3100.00,0.0061
3099.00,0.0061
3098.00,0.0061
3097.00,0.0061
3096.00,0.0060
3095.00,0.0060
3094.00,0.0060
3093.00,0.0060
3092.00,0.0060
3091.00,0.0060
3090.00,0.0060
3089.00,0.0060
3088.00,0.0060
3087.00,0.0060
3086.00,0.0059
3085.00,0.0059
3084.00,0.0059
3083.00,0.0059
3082.00,0.0059
3081.00,0.0059
3080.00,0.0059
3079.00,0.0059
3078.00,0.0059
3077.00,0.0059
3076.00,0.0059
3075.00,0.0059
3074.00,0.0059
3073.00,0.0058
3072.00,0.0058
3071.00,0.0058
3070.00,0.0058
3069.00,0.0058
3068.00,0.0059
3067.00,0.0059
3066.00,0.0059
3065.00,0.0059
3064.00,0.0059
3063.00,0.0059
3062.00,0.0058
3061.00,0.0058
3060.00,0.0058
3059.00,0.0058
3058.00,0.0058
3057.00,0.0058
3056.00,0.0058
3055.00,0.0058
3054.00,0.0058
3053.00,0.0058
3052.00,0.0058
3051.00,0.0058
3050.00,0.0058
3049.00,0.0058
3048.00,0.0058
3047.00,0.0058
3046.00,0.0058
3045.00,0.0058
3044.00,0.0058
3043.00,0.0058
3042.00,0.0058
3041.00,0.0058
3040.00,0.0058
3039.00,0.0059
3038.00,0.0058
3037.00,0.0058
3036.00,0.0058
3035.00,0.0058
3034.00,0.0058
3033.00,0.0059
3032.00,0.0059
3031.00,0.0059
3030.00,0.0059
3029.00,0.0059
3028.00,0.0060
3027.00,0.0060
3026.00,0.0060
3025.00,0.0060
3024.00,0.0061
3023.00,0.0061
3022.00,0.0061
3021.00,0.0062
3020.00,0.0062
3019.00,0.0062
3018.00,0.0063
3017.00,0.0063
3016.00,0.0063
3015.00,0.0064
3014.00,0.0064
3013.00,0.0065
3012.00,0.0066
3011.00,0.0067
3010.00,0.0068
3009.00,0.0069
3008.00,0.0070
3007.00,0.0071
3006.00,0.0072
3005.00,0.0073
3004.00,0.0074
3003.00,0.0076
3002.00,0.0077
3001.00,0.0079
3000.00,0.0081
2999.00,0.0083
2998.00,0.0085
2997.00,0.0087
2996.00,0.0089
2995.00,0.0092
2994.00,0.0094
2993.00,0.0097
2992.00,0.0100
2991.00,0.0102
2990.00,0.0105
2989.00,0.0108
2988.00,0.0111
2987.00,0.0113
2986.00,0.0115
2985.00,0.0117
2984.00,0.0119
2983.00,0.0120
2982.00,0.0121
2981.00,0.0123
2980.00,0.0126
2979.00,0.0128
2978.00,0.0131
2977.00,0.0133
2976.00,0.0135
2975.00,0.0137
2974.00,0.0139
2973.00,0.0140
2972.00,0.0142
2971.00,0.0143
2970.00,0.0145
2969.00,0.0147
2968.00,0.0149
2967.00,0.0150
2966.00,0.0152
2965.00,0.0153
2964.00,0.0154
2963.00,0.0155
2962.00,0.0157
2961.00,0.0158
2960.00,0.0159
2959.00,0.0161
2958.00,0.0162
2957.00,0.0163
2956.00,0.0164
2955.00,0.0166
2954.00,0.0167
2953.00,0.0168
2952.00,0.0169
2951.00,0.0170
2950.00,0.0171
2949.00,0.0171
2948.00,0.0171
2947.00,0.0170
2946.00,0.0170
2945.00,0.0169
2944.00,0.0167
2943.00,0.0166
2942.00,0.0164
2941.00,0.0162
2940.00,0.0160
2939.00,0.0159
2938.00,0.0157
2937.00,0.0156
2936.00,0.0155
2935.00,0.0154
2934.00,0.0153
2933.00,0.0152
2932.00,0.0151
2931.00,0.0150
2930.00,0.0150
2929.00,0.0150
2928.00,0.0150
2927.00,0.0151
2926.00,0.0151
2925.00,0.0151
2924.00,0.0152
2923.00,0.0152
2922.00,0.0152
2921.00,0.0152
2920.00,0.0151
2919.00,0.0151
2918.00,0.0150
2917.00,0.0150
2916.00,0.0150
2915.00,0.0150
2914.00,0.0150
2913.00,0.0150
2912.00,0.0150
2911.00,0.0150
2910.00,0.0149
2909.00,0.0148
2908.00,0.0147
2907.00,0.0146
2906.00,0.0146
2905.00,0.0145
2904.00,0.0144
2903.00,0.0144
2902.00,0.0144
2901.00,0.0144
2900.00,0.0144
2899.00,0.0144
2898.00,0.0144
2897.00,0.0145
2896.00,0.0145
2895.00,0.0146
2894.00,0.0147
2893.00,0.0148
2892.00,0.0149
2891.00,0.0149
2890.00,0.0150
2889.00,0.0151
2888.00,0.0151
2887.00,0.0151
2886.00,0.0152
2885.00,0.0152
2884.00,0.0152
2883.00,0.0152
2882.00,0.0153
2881.00,0.0153
2880.00,0.0153
2879.00,0.0153
2878.00,0.0153
2877.00,0.0152
2876.00,0.0151
2875.00,0.0150
2874.00,0.0149
2873.00,0.0148
2872.00,0.0148
2871.00,0.0147
2870.00,0.0146
2869.00,0.0146
2868.00,0.0145
2867.00,0.0144
2866.00,0.0143
2865.00,0.0142
2864.00,0.0141
2863.00,0.0139
2862.00,0.0138
2861.00,0.0136
2860.00,0.0134
2859.00,0.0132
2858.00,0.0130
2857.00,0.0128
2856.00,0.0126
2855.00,0.0124
2854.00,0.0122
2853.00,0.0120
2852.00,0.0118
2851.00,0.0116
2850.00,0.0114
2849.00,0.0113
2848.00,0.0112
2847.00,0.0111
2846.00,0.0111
2845.00,0.0111
2844.00,0.0110
2843.00,0.0109
2842.00,0.0108
2841.00,0.0107
2840.00,0.0106
2839.00,0.0105
2838.00,0.0103
2837.00,0.0102
2836.00,0.0102
2835.00,0.0101
2834.00,0.0100
2833.00,0.0099
2832.00,0.0097
2831.00,0.0096
2830.00,0.0095
2829.00,0.0094
2828.00,0.0092
2827.00,0.0091
2826.00,0.0089
2825.00,0.0088
2824.00,0.0087
2823.00,0.0086
2822.00,0.0085
2821.00,0.0084
2820.00,0.0083
2819.00,0.0082
2818.00,0.0081
2817.00,0.0080
2816.00,0.0080
2815.00,0.0079
2814.00,0.0078
2813.00,0.0078
2812.00,0.0077
2811.00,0.0077
2810.00,0.0076
2809.00,0.0076
2808.00,0.0075
2807.00,0.0075
2806.00,0.0075
2805.00,0.0074
2804.00,0.0074
2803.00,0.0074
2802.00,0.0073
2801.00,0.0073
2800.00,0.0073
2799.00,0.0073
2798.00,0.0073
2797.00,0.0072
2796.00,0.0072
2795.00,0.0072
2794.00,0.0072
2793.00,0.0071
2792.00,0.0071
2791.00,0.0071
2790.00,0.0071
2789.00,0.0071
2788.00,0.0071
2787.00,0.0070
2786.00,0.0070
2785.00,0.0070
2784.00,0.0070
2783.00,0.0070
2782.00,0.0070
2781.00,0.0070
2780.00,0.0069
2779.00,0.0069
2778.00,0.0069
2777.00,0.0069
2776.00,0.0069
2775.00,0.0068
2774.00,0.0068
2773.00,0.0068
2772.00,0.0068
2771.00,0.0068
2770.00,0.0067
2769.00,0.0067
2768.00,0.0067
2767.00,0.0067
2766.00,0.0067
2765.00,0.0067
2764.00,0.0067
2763.00,0.0067
2762.00,0.0067
2761.00,0.0067
2760.00,0.0066
2759.00,0.0066
2758.00,0.0066
2757.00,0.0066
2756.00,0.0066
2755.00,0.0066
2754.00,0.0066
2753.00,0.0066
2752.00,0.0066
2751.00,0.0066
2750.00,0.0066
2749.00,0.0066
2748.00,0.0066
2747.00,0.0066
2746.00,0.0066
2745.00,0.0066
2744.00,0.0066
2743.00,0.0066
2742.00,0.0066
2741.00,0.0066
2740.00,0.0066
2739.00,0.0066
2738.00,0.0066
2737.00,0.0065
2736.00,0.0065
2735.00,0.0065
2734.00,0.0065
2733.00,0.0065
2732.00,0.0065
2731.00,0.0065
2730.00,0.0066
2729.00,0.0065
2728.00,0.0065
2727.00,0.0065
2726.00,0.0065
2725.00,0.0065
2724.00,0.0065
2723.00,0.0065
2722.00,0.0065
2721.00,0.0065
2720.00,0.0065
2719.00,0.0065
2718.00,0.0065
2717.00,0.0064
2716.00,0.0064
2715.00,0.0064
2714.00,0.0064
2713.00,0.0064
2712.00,0.0064
2711.00,0.0064
2710.00,0.0064
2709.00,0.0064
2708.00,0.0064
2707.00,0.0064
2706.00,0.0064
2705.00,0.0064
2704.00,0.0064
2703.00,0.0063
2702.00,0.0063
2701.00,0.0063
2700.00,0.0063
2699.00,0.0063
2698.00,0.0063
2697.00,0.0063
2696.00,0.0063
2695.00,0.0063
2694.00,0.0063
2693.00,0.0063
2692.00,0.0063
2691.00,0.0063
2690.00,0.0063
2689.00,0.0063
2688.00,0.0063
2687.00,0.0062
2686.00,0.0062
2685.00,0.0062
2684.00,0.0062
2683.00,0.0062
2682.00,0.0062
2681.00,0.0062
2680.00,0.0062
2679.00,0.0062
2678.00,0.0062
2677.00,0.0062
2676.00,0.0062
2675.00,0.0062
2674.00,0.0062
2673.00,0.0062
2672.00,0.0062
2671.00,0.0062
2670.00,0.0063
2669.00,0.0063
2668.00,0.0063
2667.00,0.0063
2666.00,0.0063
2665.00,0.0064
2664.00,0.0064
2663.00,0.0065
2662.00,0.0065
2661.00,0.0065
2660.00,0.0066
2659.00,0.0066
2658.00,0.0066
2657.00,0.0066
2656.00,0.0066
2655.00,0.0067
2654.00,0.0067
2653.00,0.0067
2652.00,0.0067
2651.00,0.0067
2650.00,0.0067
2649.00,0.0067
2648.00,0.0067
2647.00,0.0067
2646.00,0.0067
2645.00,0.0067
2644.00,0.0067
2643.00,0.0067
2642.00,0.0067
2641.00,0.0067
2640.00,0.0067
2639.00,0.0066
2638.00,0.0066
2637.00,0.0066
2636.00,0.0066
2635.00,0.0066
2634.00,0.0066
2633.00,0.0066
2632.00,0.0066
2631.00,0.0066
2630.00,0.0066
2629.00,0.0066
2628.00,0.0066
2627.00,0.0066
2626.00,0.0066
2625.00,0.0066
2624.00,0.0066
2623.00,0.0066
2622.00,0.0066
2621.00,0.0065
2620.00,0.0065
2619.00,0.0065
2618.00,0.0065
2617.00,0.0065
2616.00,0.0065
2615.00,0.0065
2614.00,0.0065
2613.00,0.0065
2612.00,0.0065
2611.00,0.0065
2610.00,0.0065
2609.00,0.0065
2608.00,0.0065
2607.00,0.0064
2606.00,0.0064
2605.00,0.0064
2604.00,0.0064
2603.00,0.0064
2602.00,0.0064
2601.00,0.0064
2600.00,0.0064
2599.00,0.0064
2598.00,0.0064
2597.00,0.0064
2596.00,0.0064
2595.00,0.0064
2594.00,0.0064
2593.00,0.0064
2592.00,0.0064
2591.00,0.0064
2590.00,0.0063
2589.00,0.0063
2588.00,0.0063
2587.00,0.0063
2586.00,0.0063
2585.00,0.0063
2584.00,0.0064
2583.00,0.0064
2582.00,0.0064
2581.00,0.0064
2580.00,0.0064
2579.00,0.0064
2578.00,0.0064
2577.00,0.0064
2576.00,0.0064
2575.00,0.0064
2574.00,0.0064
2573.00,0.0064
2572.00,0.0064
2571.00,0.0064
2570.00,0.0064
2569.00,0.0064
2568.00,0.0064
2567.00,0.0064
2566.00,0.0064
2565.00,0.0064
2564.00,0.0064
2563.00,0.0064
2562.00,0.0064
2561.00,0.0064
2560.00,0.0063
2559.00,0.0063
2558.00,0.0063
2557.00,0.0062
2556.00,0.0062
2555.00,0.0062
2554.00,0.0062
2553.00,0.0062
2552.00,0.0062
2551.00,0.0062
2550.00,0.0062
2549.00,0.0062
2548.00,0.0062
2547.00,0.0062
2546.00,0.0062
2545.00,0.0061
2544.00,0.0061
2543.00,0.0061
2542.00,0.0061
2541.00,0.0061
2540.00,0.0061
2539.00,0.0061
2538.00,0.0060
2537.00,0.0060
2536.00,0.0060
2535.00,0.0061
2534.00,0.0061
2533.00,0.0060
2532.00,0.0060
2531.00,0.0060
2530.00,0.0060
2529.00,0.0060
2528.00,0.0060
2527.00,0.0060
2526.00,0.0060
2525.00,0.0060
2524.00,0.0060
2523.00,0.0060
2522.00,0.0060
2521.00,0.0060
2520.00,0.0060
2519.00,0.0060
2518.00,0.0060
2517.00,0.0060
2516.00,0.0060
2515.00,0.0060
2514.00,0.0060
2513.00,0.0059
2512.00,0.0059
2511.00,0.0059
2510.00,0.0059
2509.00,0.0059
2508.00,0.0059
2507.00,0.0059
2506.00,0.0059
2505.00,0.0059
2504.00,0.0059
2503.00,0.0059
2502.00,0.0059
2501.00,0.0059
2500.00,0.0059
2499.00,0.0059
2498.00,0.0059
2497.00,0.0059
2496.00,0.0059
2495.00,0.0059
2494.00,0.0059
2493.00,0.0059
2492.00,0.0059
2491.00,0.0059
2490.00,0.0059
2489.00,0.0059
2488.00,0.0059
2487.00,0.0059
2486.00,0.0059
2485.00,0.0058
2484.00,0.0058
2483.00,0.0058
2482.00,0.0057
2481.00,0.0057
2480.00,0.0057
2479.00,0.0058
2478.00,0.0058
2477.00,0.0058
2476.00,0.0058
2475.00,0.0058
2474.00,0.0058
2473.00,0.0058
2472.00,0.0058
2471.00,0.0058
2470.00,0.0058
2469.00,0.0058
2468.00,0.0058
2467.00,0.0058
2466.00,0.0057
2465.00,0.0057
2464.00,0.0057
2463.00,0.0057
2462.00,0.0058
2461.00,0.0058
2460.00,0.0059
2459.00,0.0060
2458.00,0.0060
2457.00,0.0059
2456.00,0.0059
2455.00,0.0059
2454.00,0.0059
2453.00,0.0059
2452.00,0.0059
2451.00,0.0059
2450.00,0.0059
2449.00,0.0059
2448.00,0.0059
2447.00,0.0059
2446.00,0.0059
2445.00,0.0059
2444.00,0.0059
2443.00,0.0058
2442.00,0.0058
2441.00,0.0058
2440.00,0.0058
2439.00,0.0059
2438.00,0.0059
2437.00,0.0059
2436.00,0.0059
2435.00,0.0058
2434.00,0.0058
2433.00,0.0058
2432.00,0.0058
2431.00,0.0058
2430.00,0.0058
2429.00,0.0058
2428.00,0.0058
2427.00,0.0058
2426.00,0.0058
2425.00,0.0058
2424.00,0.0058
2423.00,0.0058
2422.00,0.0058
2421.00,0.0058
2420.00,0.0058
2419.00,0.0058
2418.00,0.0057
2417.00,0.0057
2416.00,0.0057
2415.00,0.0058
2414.00,0.0058
2413.00,0.0058
2412.00,0.0058
2411.00,0.0058
2410.00,0.0058
2409.00,0.0057
2408.00,0.0057
2407.00,0.0057
2406.00,0.0057
2405.00,0.0057
2404.00,0.0057
2403.00,0.0057
2402.00,0.0056
2401.00,0.0056
2400.00,0.0056
2399.00,0.0056
2398.00,0.0056
2397.00,0.0056
2396.00,0.0056
2395.00,0.0056
2394.00,0.0056
2393.00,0.0056
2392.00,0.0056
2391.00,0.0056
2390.00,0.0056
2389.00,0.0056
2388.00,0.0056
2387.00,0.0056
2386.00,0.0055
2385.00,0.0055
2384.00,0.0054
2383.00,0.0054
2382.00,0.0053
2381.00,0.0053
2380.00,0.0052
2379.00,0.0052
2378.00,0.0052
2377.00,0.0052
2376.00,0.0052
2375.00,0.0052
2374.00,0.0052
2373.00,0.0052
2372.00,0.0052
2371.00,0.0052
2370.00,0.0051
2369.00,0.0050
2368.00,0.0050
2367.00,0.0049
2366.00,0.0050
2365.00,0.0050
2364.00,0.0051
2363.00,0.0051
2362.00,0.0051
2361.00,0.0051
2360.00,0.0051
2359.00,0.0052
2358.00,0.0052
2357.00,0.0052
2356.00,0.0052
2355.00,0.0052
2354.00,0.0052
2353.00,0.0052
2352.00,0.0052
2351.00,0.0052
2350.00,0.0052
2349.00,0.0053
2348.00,0.0053
2347.00,0.0054
2346.00,0.0054
2345.00,0.0055
2344.00,0.0055
2343.00,0.0055
2342.00,0.0054
2341.00,0.0054
2340.00,0.0054
2339.00,0.0055
2338.00,0.0056
2337.00,0.0056
2336.00,0.0057
2335.00,0.0057
2334.00,0.0056
2333.00,0.0056
2332.00,0.0056
2331.00,0.0056
2330.00,0.0057
2329.00,0.0059
2328.00,0.0062
2327.00,0.0065
2326.00,0.0068
2325.00,0.0069
2324.00,0.0068
2323.00,0.0067
2322.00,0.0065
2321.00,0.0063
2320.00,0.0062
2319.00,0.0061
2318.00,0.0061
2317.00,0.0061
2316.00,0.0061
2315.00,0.0061
2314.00,0.0061
2313.00,0.0060
2312.00,0.0059
2311.00,0.0059
2310.00,0.0058
2309.00,0.0058
2308.00,0.0059
2307.00,0.0059
2306.00,0.0060
2305.00,0.0060
2304.00,0.0060
2303.00,0.0060
2302.00,0.0060
2301.00,0.0061
2300.00,0.0061
2299.00,0.0062
2298.00,0.0062
2297.00,0.0063
2296.00,0.0063
2295.00,0.0064
2294.00,0.0064
2293.00,0.0065
2292.00,0.0065
2291.00,0.0066
2290.00,0.0066
2289.00,0.0067
2288.00,0.0067
2287.00,0.0068
2286.00,0.0068
2285.00,0.0067
2284.00,0.0067
2283.00,0.0066
2282.00,0.0065
2281.00,0.0065
2280.00,0.0064
2279.00,0.0064
2278.00,0.0064
2277.00,0.0064
2276.00,0.0064
2275.00,0.0064
2274.00,0.0065
2273.00,0.0064
2272.00,0.0064
2271.00,0.0063
2270.00,0.0062
2269.00,0.0062
2268.00,0.0061
2267.00,0.0061
2266.00,0.0061
2265.00,0.0061
2264.00,0.0061
2263.00,0.0062
2262.00,0.0062
2261.00,0.0062
2260.00,0.0062
2259.00,0.0062
2258.00,0.0062
2257.00,0.0062
2256.00,0.0061
2255.00,0.0060
2254.00,0.0060
2253.00,0.0060
2252.00,0.0060
2251.00,0.0061
2250.00,0.0060
2249.00,0.0060
2248.00,0.0059
2247.00,0.0059
2246.00,0.0059
2245.00,0.0059
2244.00,0.0060
2243.00,0.0061
2242.00,0.0061
2241.00,0.0062
2240.00,0.0062
2239.00,0.0062
2238.00,0.0062
2237.00,0.0061
2236.00,0.0062
2235.00,0.0062
2234.00,0.0062
2233.00,0.0061
2232.00,0.0061
2231.00,0.0061
2230.00,0.0061
2229.00,0.0061
2228.00,0.0060
2227.00,0.0060
2226.00,0.0059
2225.00,0.0059
2224.00,0.0059
2223.00,0.0059
2222.00,0.0058
2221.00,0.0058
2220.00,0.0058
2219.00,0.0058
2218.00,0.0058
2217.00,0.0059
2216.00,0.0060
2215.00,0.0061
2214.00,0.0061
2213.00,0.0061
2212.00,0.0060
2211.00,0.0060
2210.00,0.0060
2209.00,0.0060
2208.00,0.0061
2207.00,0.0061
2206.00,0.0061
2205.00,0.0061
2204.00,0.0062
2203.00,0.0062
2202.00,0.0061
2201.00,0.0061
2200.00,0.0060
2199.00,0.0060
2198.00,0.0059
2197.00,0.0059
2196.00,0.0060
2195.00,0.0061
2194.00,0.0062
2193.00,0.0062
2192.00,0.0062
2191.00,0.0061
2190.00,0.0062
2189.00,0.0063
2188.00,0.0064
2187.00,0.0064
2186.00,0.0064
2185.00,0.0063
2184.00,0.0061
2183.00,0.0059
2182.00,0.0057
2181.00,0.0057
2180.00,0.0058
2179.00,0.0059
2178.00,0.0059
2177.00,0.0059
2176.00,0.0060
2175.00,0.0060
2174.00,0.0061
2173.00,0.0062
2172.00,0.0064
2171.00,0.0065
2170.00,0.0067
2169.00,0.0068
2168.00,0.0070
2167.00,0.0071
2166.00,0.0072
2165.00,0.0074
2164.00,0.0075
2163.00,0.0075
2162.00,0.0071
2161.00,0.0060
2160.00,0.0046
2159.00,0.0033
2158.00,0.0027
2157.00,0.0027
2156.00,0.0030
2155.00,0.0034
2154.00,0.0038
2153.00,0.0042
2152.00,0.0044
2151.00,0.0045
2150.00,0.0044
2149.00,0.0043
2148.00,0.0043
2147.00,0.0043
2146.00,0.0043
2145.00,0.0043
2144.00,0.0044
2143.00,0.0044
2142.00,0.0044
2141.00,0.0044
2140.00,0.0045
2139.00,0.0045
2138.00,0.0045
2137.00,0.0043
2136.00,0.0040
2135.00,0.0038
2134.00,0.0038
2133.00,0.0039
2132.00,0.0041
2131.00,0.0044
2130.00,0.0046
2129.00,0.0048
2128.00,0.0049
2127.00,0.0051
2126.00,0.0051
2125.00,0.0052
2124.00,0.0052
2123.00,0.0052
2122.00,0.0053
2121.00,0.0053
2120.00,0.0054
2119.00,0.0056
2118.00,0.0057
2117.00,0.0059
2116.00,0.0060
2115.00,0.0060
2114.00,0.0059
2113.00,0.0059
2112.00,0.0059
2111.00,0.0058
2110.00,0.0058
2109.00,0.0058
2108.00,0.0058
2107.00,0.0058
2106.00,0.0058
2105.00,0.0059
2104.00,0.0059
2103.00,0.0059
2102.00,0.0059
2101.00,0.0059
2100.00,0.0058
2099.00,0.0057
2098.00,0.0056
2097.00,0.0055
2096.00,0.0054
2095.00,0.0054
2094.00,0.0054
2093.00,0.0055
2092.00,0.0056
2091.00,0.0057
2090.00,0.0057
2089.00,0.0058
2088.00,0.0059
2087.00,0.0059
2086.00,0.0058
2085.00,0.0058
2084.00,0.0058
2083.00,0.0058
2082.00,0.0059
2081.00,0.0059
2080.00,0.0059
2079.00,0.0059
2078.00,0.0059
2077.00,0.0058
2076.00,0.0059
2075.00,0.0059
2074.00,0.0059
2073.00,0.0059
2072.00,0.0059
2071.00,0.0059
2070.00,0.0058
2069.00,0.0057
2068.00,0.0056
2067.00,0.0056
2066.00,0.0056
2065.00,0.0056
2064.00,0.0056
2063.00,0.0056
2062.00,0.0056
2061.00,0.0055
2060.00,0.0055
2059.00,0.0055
2058.00,0.0055
2057.00,0.0055
2056.00,0.0056
2055.00,0.0057
2054.00,0.0060
2053.00,0.0064
2052.00,0.0067
2051.00,0.0067
2050.00,0.0063
2049.00,0.0059
2048.00,0.0055
2047.00,0.0054
2046.00,0.0053
2045.00,0.0053
2044.00,0.0054
2043.00,0.0056
2042.00,0.0057
2041.00,0.0059
2040.00,0.0061
2039.00,0.0062
2038.00,0.0061
2037.00,0.0059
2036.00,0.0056
2035.00,0.0054
2034.00,0.0052
2033.00,0.0051
2032.00,0.0051
2031.00,0.0050
2030.00,0.0048
2029.00,0.0048
2028.00,0.0049
2027.00,0.0049
2026.00,0.0049
2025.00,0.0048
2024.00,0.0048
2023.00,0.0048
2022.00,0.0048
2021.00,0.0047
2020.00,0.0048
2019.00,0.0049
2018.00,0.0050
2017.00,0.0051
2016.00,0.0052
2015.00,0.0052
2014.00,0.0051
2013.00,0.0051
2012.00,0.0051
2011.00,0.0051
2010.00,0.0050
2009.00,0.0049
2008.00,0.0047
2007.00,0.0046
2006.00,0.0045
2005.00,0.0044
2004.00,0.0044
2003.00,0.0044
2002.00,0.0044
2001.00,0.0045
2000.00,0.0045
1999.00,0.0045
1998.00,0.0046
1997.00,0.0047
1996.00,0.0049
1995.00,0.0051
1994.00,0.0052
1993.00,0.0052
1992.00,0.0052
1991.00,0.0052
1990.00,0.0051
1989.00,0.0051
1988.00,0.0052
1987.00,0.0054
1986.00,0.0054
1985.00,0.0055
1984.00,0.0056
1983.00,0.0059
1982.00,0.0061
1981.00,0.0061
1980.00,0.0058
1979.00,0.0053
1978.00,0.0048
1977.00,0.0045
1976.00,0.0045
1975.00,0.0044
1974.00,0.0043
1973.00,0.0042
1972.00,0.0041
1971.00,0.0040
1970.00,0.0041
1969.00,0.0042
1968.00,0.0044
1967.00,0.0044
1966.00,0.0043
1965.00,0.0042
1964.00,0.0042
1963.00,0.0042
1962.00,0.0041
1961.00,0.0039
1960.00,0.0038
1959.00,0.0037
1958.00,0.0037
1957.00,0.0038
1956.00,0.0040
1955.00,0.0042
1954.00,0.0044
1953.00,0.0045
1952.00,0.0046
1951.00,0.0045
1950.00,0.0044
1949.00,0.0044
1948.00,0.0044
1947.00,0.0044
1946.00,0.0043
1945.00,0.0043
1944.00,0.0043
1943.00,0.0043
1942.00,0.0043
1941.00,0.0043
1940.00,0.0044
1939.00,0.0044
1938.00,0.0044
1937.00,0.0044
1936.00,0.0044
1935.00,0.0044
1934.00,0.0043
1933.00,0.0043
1932.00,0.0043
1931.00,0.0043
1930.00,0.0043
1929.00,0.0043
1928.00,0.0043
1927.00,0.0043
1926.00,0.0043
1925.00,0.0044
1924.00,0.0044
1923.00,0.0045
1922.00,0.0045
1921.00,0.0045
1920.00,0.0045
1919.00,0.0046
1918.00,0.0045
1917.00,0.0045
1916.00,0.0045
1915.00,0.0045
1914.00,0.0045
1913.00,0.0046
1912.00,0.0047
1911.00,0.0047
1910.00,0.0047
1909.00,0.0046
1908.00,0.0046
1907.00,0.0046
1906.00,0.0045
1905.00,0.0045
1904.00,0.0045
1903.00,0.0045
1902.00,0.0045
1901.00,0.0045
1900.00,0.0045
1899.00,0.0045
1898.00,0.0045
1897.00,0.0045
1896.00,0.0045
1895.00,0.0046
1894.00,0.0046
1893.00,0.0045
1892.00,0.0045
1891.00,0.0045
1890.00,0.0045
1889.00,0.0045
1888.00,0.0045
1887.00,0.0045
1886.00,0.0045
1885.00,0.0045
1884.00,0.0045
1883.00,0.0045
1882.00,0.0045
1881.00,0.0045
1880.00,0.0045
1879.00,0.0045
1878.00,0.0045
1877.00,0.0045
1876.00,0.0045
1875.00,0.0045
1874.00,0.0045
1873.00,0.0045
1872.00,0.0045
1871.00,0.0046
1870.00,0.0046
1869.00,0.0046
1868.00,0.0047
1867.00,0.0046
1866.00,0.0046
1865.00,0.0045
1864.00,0.0045
1863.00,0.0045
1862.00,0.0044
1861.00,0.0044
1860.00,0.0045
1859.00,0.0045
1858.00,0.0045
1857.00,0.0045
1856.00,0.0045
1855.00,0.0045
1854.00,0.0045
1853.00,0.0044
1852.00,0.0045
1851.00,0.0045
1850.00,0.0045
1849.00,0.0045
1848.00,0.0045
1847.00,0.0045
1846.00,0.0044
1845.00,0.0044
1844.00,0.0044
1843.00,0.0045
1842.00,0.0044
1841.00,0.0044
1840.00,0.0044
1839.00,0.0044
1838.00,0.0044
1837.00,0.0044
1836.00,0.0044
1835.00,0.0044
1834.00,0.0044
1833.00,0.0044
1832.00,0.0044
1831.00,0.0044
1830.00,0.0044
1829.00,0.0044
1828.00,0.0044
1827.00,0.0045
1826.00,0.0044
1825.00,0.0044
1824.00,0.0044
1823.00,0.0044
1822.00,0.0044
1821.00,0.0044
1820.00,0.0043
1819.00,0.0042
1818.00,0.0041
1817.00,0.0040
1816.00,0.0040
1815.00,0.0041
1814.00,0.0041
1813.00,0.0042
1812.00,0.0043
1811.00,0.0043
1810.00,0.0043
1809.00,0.0043
1808.00,0.0043
1807.00,0.0043
1806.00,0.0042
1805.00,0.0042
1804.00,0.0042
1803.00,0.0043
1802.00,0.0042
1801.00,0.0043
1800.00,0.0043
1799.00,0.0043
1798.00,0.0043
1797.00,0.0043
1796.00,0.0043
1795.00,0.0043
1794.00,0.0042
1793.00,0.0042
1792.00,0.0042
1791.00,0.0042
1790.00,0.0042
1789.00,0.0042
1788.00,0.0042
1787.00,0.0042
1786.00,0.0042
1785.00,0.0042
1784.00,0.0042
1783.00,0.0042
1782.00,0.0043
1781.00,0.0043
1780.00,0.0043
1779.00,0.0042
1778.00,0.0042
1777.00,0.0042
1776.00,0.0042
1775.00,0.0042
1774.00,0.0042
1773.00,0.0042
1772.00,0.0042
1771.00,0.0042
1770.00,0.0042
1769.00,0.0041
1768.00,0.0041
1767.00,0.0041
1766.00,0.0041
1765.00,0.0042
1764.00,0.0042
1763.00,0.0042
1762.00,0.0042
1761.00,0.0042
1760.00,0.0042
1759.00,0.0043
1758.00,0.0042
1757.00,0.0042
1756.00,0.0042
1755.00,0.0042
1754.00,0.0043
1753.00,0.0043
1752.00,0.0043
1751.00,0.0043
1750.00,0.0043
1749.00,0.0044
1748.00,0.0044
1747.00,0.0045
1746.00,0.0045
1745.00,0.0045
1744.00,0.0045
1743.00,0.0045
1742.00,0.0045
1741.00,0.0044
1740.00,0.0044
1739.00,0.0045
1738.00,0.0045
1737.00,0.0045
1736.00,0.0045
1735.00,0.0045
1734.00,0.0045
1733.00,0.0046
1732.00,0.0047
1731.00,0.0048
1730.00,0.0048
1729.00,0.0048
1728.00,0.0049
1727.00,0.0050
1726.00,0.0051
1725.00,0.0051
1724.00,0.0053
1723.00,0.0054
1722.00,0.0055
1721.00,0.0056
1720.00,0.0058
1719.00,0.0060
1718.00,0.0062
1717.00,0.0064
1716.00,0.0067
1715.00,0.0069
1714.00,0.0071
1713.00,0.0074
1712.00,0.0079
1711.00,0.0084
1710.00,0.0089
1709.00,0.0094
1708.00,0.0102
1707.00,0.0111
1706.00,0.0120
1705.00,0.0132
1704.00,0.0144
1703.00,0.0155
1702.00,0.0167
1701.00,0.0184
1700.00,0.0208
1699.00,0.0232
1698.00,0.0254
1697.00,0.0277
1696.00,0.0304
1695.00,0.0334
1694.00,0.0362
1693.00,0.0389
1692.00,0.0417
1691.00,0.0447
1690.00,0.0479
1689.00,0.0510
1688.00,0.0541
1687.00,0.0570
1686.00,0.0599
1685.00,0.0632
1684.00,0.0668
1683.00,0.0700
1682.00,0.0728
1681.00,0.0755
1680.00,0.0783
1679.00,0.0810
1678.00,0.0835
1677.00,0.0858
1676.00,0.0881
1675.00,0.0903
1674.00,0.0923
1673.00,0.0943
1672.00,0.0962
1671.00,0.0979
1670.00,0.0993
1669.00,0.1003
1668.00,0.1014
1667.00,0.1026
1666.00,0.1038
1665.00,0.1050
1664.00,0.1060
1663.00,0.1067
1662.00,0.1071
1661.00,0.1075
1660.00,0.1081
1659.00,0.1087
1658.00,0.1092
1657.00,0.1098
1656.00,0.1104
1655.00,0.1107
1654.00,0.1099
1653.00,0.1074
1652.00,0.1050
1651.00,0.1039
1650.00,0.1035
1649.00,0.1028
1648.00,0.1011
1647.00,0.0982
1646.00,0.0946
1645.00,0.0914
1644.00,0.0887
1643.00,0.0863
1642.00,0.0837
1641.00,0.0810
1640.00,0.0782
1639.00,0.0756
1638.00,0.0731
1637.00,0.0702
1636.00,0.0668
1635.00,0.0632
1634.00,0.0604
1633.00,0.0582
1632.00,0.0564
1631.00,0.0546
1630.00,0.0527
1629.00,0.0508
1628.00,0.0488
1627.00,0.0471
1626.00,0.0455
1625.00,0.0440
1624.00,0.0425
1623.00,0.0410
1622.00,0.0396
1621.00,0.0385
1620.00,0.0375
1619.00,0.0365
1618.00,0.0354
1617.00,0.0341
1616.00,0.0329
1615.00,0.0318
1614.00,0.0310
1613.00,0.0302
1612.00,0.0294
1611.00,0.0285
1610.00,0.0278
1609.00,0.0270
1608.00,0.0262
1607.00,0.0255
1606.00,0.0248
1605.00,0.0241
1604.00,0.0235
1603.00,0.0229
1602.00,0.0223
1601.00,0.0218
1600.00,0.0212
1599.00,0.0207
1598.00,0.0202
1597.00,0.0198
1596.00,0.0194
1595.00,0.0189
1594.00,0.0185
1593.00,0.0181
1592.00,0.0177
1591.00,0.0173
1590.00,0.0169
1589.00,0.0166
1588.00,0.0162
1587.00,0.0158
1586.00,0.0155
1585.00,0.0152
1584.00,0.0150
1583.00,0.0147
1582.00,0.0145
1581.00,0.0143
1580.00,0.0142
1579.00,0.0140
1578.00,0.0139
1577.00,0.0138
1576.00,0.0136
1575.00,0.0135
1574.00,0.0134
1573.00,0.0133
1572.00,0.0132
1571.00,0.0130
1570.00,0.0129
1569.00,0.0128
1568.00,0.0127
1567.00,0.0127
1566.00,0.0126
1565.00,0.0125
1564.00,0.0124
1563.00,0.0123
1562.00,0.0122
1561.00,0.0120
1560.00,0.0118
1559.00,0.0118
1558.00,0.0117
1557.00,0.0116
1556.00,0.0116
1555.00,0.0116
1554.00,0.0115
1553.00,0.0115
1552.00,0.0114
1551.00,0.0113
1550.00,0.0112
1549.00,0.0111
1548.00,0.0110
1547.00,0.0109
1546.00,0.0108
1545.00,0.0107
1544.00,0.0107
1543.00,0.0106
1542.00,0.0106
1541.00,0.0105
1540.00,0.0105
1539.00,0.0104
1538.00,0.0103
1537.00,0.0103
1536.00,0.0103
1535.00,0.0103
1534.00,0.0103
1533.00,0.0103
1532.00,0.0103
1531.00,0.0102
1530.00,0.0102
1529.00,0.0102
1528.00,0.0102
1527.00,0.0102
1526.00,0.0101
1525.00,0.0101
1524.00,0.0101
1523.00,0.0101
1522.00,0.0101
1521.00,0.0101
1520.00,0.0101
1519.00,0.0101
1518.00,0.0102
1517.00,0.0102
1516.00,0.0102
1515.00,0.0102
1514.00,0.0103
1513.00,0.0104
1512.00,0.0106
1511.00,0.0109
1510.00,0.0112
1509.00,0.0116
1508.00,0.0121
1507.00,0.0127
1506.00,0.0133
1505.00,0.0140
1504.00,0.0148
1503.00,0.0157
1502.00,0.0166
1501.00,0.0175
1500.00,0.0186
1499.00,0.0197
1498.00,0.0208
1497.00,0.0218
1496.00,0.0227
1495.00,0.0234
1494.00,0.0238
1493.00,0.0240
1492.00,0.0240
1491.00,0.0237
1490.00,0.0232
1489.00,0.0224
1488.00,0.0214
1487.00,0.0204
1486.00,0.0194
1485.00,0.0185
1484.00,0.0176
1483.00,0.0169
1482.00,0.0162
1481.00,0.0156
1480.00,0.0152
1479.00,0.0150
1478.00,0.0149
1477.00,0.0150
1476.00,0.0153
1475.00,0.0158
1474.00,0.0165
1473.00,0.0175
1472.00,0.0188
1471.00,0.0204
1470.00,0.0221
1469.00,0.0240
1468.00,0.0260
1467.00,0.0283
1466.00,0.0308
1465.00,0.0335
1464.00,0.0360
1463.00,0.0380
1462.00,0.0395
1461.00,0.0405
1460.00,0.0410
1459.00,0.0409
1458.00,0.0398
1457.00,0.0378
1456.00,0.0355
1455.00,0.0337
1454.00,0.0323
1453.00,0.0312
1452.00,0.0302
1451.00,0.0294
1450.00,0.0290
1449.00,0.0290
1448.00,0.0294
1447.00,0.0301
1446.00,0.0313
1445.00,0.0327
1444.00,0.0344
1443.00,0.0363
1442.00,0.0383
1441.00,0.0405
1440.00,0.0426
1439.00,0.0446
1438.00,0.0466
1437.00,0.0485
1436.00,0.0504
1435.00,0.0519
1434.00,0.0532
1433.00,0.0543
1432.00,0.0553
1431.00,0.0562
1430.00,0.0572
1429.00,0.0586
1428.00,0.0602
1427.00,0.0621
1426.00,0.0642
1425.00,0.0665
1424.00,0.0686
1423.00,0.0703
1422.00,0.0714
1421.00,0.0719
1420.00,0.0713
1419.00,0.0694
1418.00,0.0666
1417.00,0.0636
1416.00,0.0603
1415.00,0.0567
1414.00,0.0529
1413.00,0.0491
1412.00,0.0455
1411.00,0.0420
1410.00,0.0388
1409.00,0.0360
1408.00,0.0336
1407.00,0.0314
1406.00,0.0295
1405.00,0.0278
1404.00,0.0262
1403.00,0.0249
1402.00,0.0238
1401.00,0.0229
1400.00,0.0221
1399.00,0.0213
1398.00,0.0207
1397.00,0.0203
1396.00,0.0198
1395.00,0.0195
1394.00,0.0192
1393.00,0.0191
1392.00,0.0190
1391.00,0.0191
1390.00,0.0192
1389.00,0.0194
1388.00,0.0198
1387.00,0.0202
1386.00,0.0207
1385.00,0.0213
1384.00,0.0218
1383.00,0.0224
1382.00,0.0231
1381.00,0.0238
1380.00,0.0244
1379.00,0.0251
1378.00,0.0257
1377.00,0.0262
1376.00,0.0267
1375.00,0.0271
1374.00,0.0273
1373.00,0.0275
1372.00,0.0275
1371.00,0.0275
1370.00,0.0273
1369.00,0.0271
1368.00,0.0268
1367.00,0.0263
1366.00,0.0259
1365.00,0.0253
1364.00,0.0247
1363.00,0.0240
1362.00,0.0232
1361.00,0.0224
1360.00,0.0217
1359.00,0.0210
1358.00,0.0204
1357.00,0.0198
1356.00,0.0192
1355.00,0.0187
1354.00,0.0182
1353.00,0.0178
1352.00,0.0174
1351.00,0.0170
1350.00,0.0167
1349.00,0.0164
1348.00,0.0161
1347.00,0.0159
1346.00,0.0157
1345.00,0.0155
1344.00,0.0154
1343.00,0.0153
1342.00,0.0153
1341.00,0.0153
1340.00,0.0154
1339.00,0.0154
1338.00,0.0155
1337.00,0.0156
1336.00,0.0157
1335.00,0.0159
1334.00,0.0161
1333.00,0.0164
1332.00,0.0167
1331.00,0.0171
1330.00,0.0176
1329.00,0.0182
1328.00,0.0188
1327.00,0.0195
1326.00,0.0203
1325.00,0.0211
1324.00,0.0221
1323.00,0.0230
1322.00,0.0240
1321.00,0.0250
1320.00,0.0259
1319.00,0.0267
1318.00,0.0274
1317.00,0.0278
1316.00,0.0281
1315.00,0.0282
1314.00,0.0280
1313.00,0.0277
1312.00,0.0273
1311.00,0.0268
1310.00,0.0262
1309.00,0.0257
1308.00,0.0252
1307.00,0.0249
1306.00,0.0248
1305.00,0.0248
1304.00,0.0251
1303.00,0.0256
1302.00,0.0264
1301.00,0.0276
1300.00,0.0291
1299.00,0.0310
1298.00,0.0334
1297.00,0.0362
1296.00,0.0395
1295.00,0.0432
1294.00,0.0472
1293.00,0.0515
1292.00,0.0558
1291.00,0.0600
1290.00,0.0640
1289.00,0.0677
1288.00,0.0708
1287.00,0.0732
1286.00,0.0750
1285.00,0.0759
1284.00,0.0761
1283.00,0.0756
1282.00,0.0746
1281.00,0.0734
1280.00,0.0721
1279.00,0.0711
1278.00,0.0704
1277.00,0.0701
1276.00,0.0704
1275.00,0.0709
1274.00,0.0717
1273.00,0.0725
1272.00,0.0732
1271.00,0.0737
1270.00,0.0738
1269.00,0.0735
1268.00,0.0727
1267.00,0.0715
1266.00,0.0699
1265.00,0.0679
1264.00,0.0656
1263.00,0.0632
1262.00,0.0608
1261.00,0.0582
1260.00,0.0558
1259.00,0.0534
1258.00,0.0511
1257.00,0.0490
1256.00,0.0471
1255.00,0.0453
1254.00,0.0437
1253.00,0.0422
1252.00,0.0408
1251.00,0.0396
1250.00,0.0386
1249.00,0.0377
1248.00,0.0370
1247.00,0.0363
1246.00,0.0358
1245.00,0.0355
1244.00,0.0352
1243.00,0.0350
1242.00,0.0349
1241.00,0.0349
1240.00,0.0350
1239.00,0.0352
1238.00,0.0355
1237.00,0.0359
1236.00,0.0364
1235.00,0.0368
1234.00,0.0373
1233.00,0.0378
1232.00,0.0382
1231.00,0.0385
1230.00,0.0388
1229.00,0.0390
1228.00,0.0391
1227.00,0.0392
1226.00,0.0391
1225.00,0.0390
1224.00,0.0388
1223.00,0.0385
1222.00,0.0383
1221.00,0.0381
1220.00,0.0379
1219.00,0.0376
1218.00,0.0373
1217.00,0.0369
1216.00,0.0365
1215.00,0.0359
1214.00,0.0354
1213.00,0.0349
1212.00,0.0343
1211.00,0.0337
1210.00,0.0332
1209.00,0.0326
1208.00,0.0320
1207.00,0.0315
1206.00,0.0309
1205.00,0.0305
1204.00,0.0300
1203.00,0.0296
1202.00,0.0292
1201.00,0.0288
1200.00,0.0284
1199.00,0.0281
1198.00,0.0277
1197.00,0.0274
1196.00,0.0271
1195.00,0.0268
1194.00,0.0265
1193.00,0.0263
1192.00,0.0260
1191.00,0.0258
1190.00,0.0256
1189.00,0.0254
1188.00,0.0252
1187.00,0.0251
1186.00,0.0250
1185.00,0.0249
1184.00,0.0248
1183.00,0.0248
1182.00,0.0248
1181.00,0.0249
1180.00,0.0250
1179.00,0.0251
1178.00,0.0252
1177.00,0.0254
1176.00,0.0257
1175.00,0.0260
1174.00,0.0264
1173.00,0.0268
1172.00,0.0271
1171.00,0.0275
1170.00,0.0278
1169.00,0.0281
1168.00,0.0282
1167.00,0.0283
1166.00,0.0282
1165.00,0.0281
1164.00,0.0278
1163.00,0.0275
1162.00,0.0271
1161.00,0.0267
1160.00,0.0262
1159.00,0.0258
1158.00,0.0253
1157.00,0.0249
1156.00,0.0245
1155.00,0.0240
1154.00,0.0236
1153.00,0.0233
1152.00,0.0229
1151.00,0.0225
1150.00,0.0222
1149.00,0.0219
1148.00,0.0216
1147.00,0.0213
1146.00,0.0210
1145.00,0.0207
1144.00,0.0204
1143.00,0.0201
1142.00,0.0198
1141.00,0.0195
1140.00,0.0193
1139.00,0.0190
1138.00,0.0187
1137.00,0.0185
1136.00,0.0183
1135.00,0.0182
1134.00,0.0180
1133.00,0.0180
1132.00,0.0179
1131.00,0.0178
1130.00,0.0178
1129.00,0.0178
1128.00,0.0178
1127.00,0.0178
1126.00,0.0179
1125.00,0.0179
1124.00,0.0179
1123.00,0.0179
1122.00,0.0179
1121.00,0.0179
1120.00,0.0179
1119.00,0.0179
1118.00,0.0179
1117.00,0.0179
1116.00,0.0179
1115.00,0.0179
1114.00,0.0179
1113.00,0.0179
1112.00,0.0179
1111.00,0.0179
1110.00,0.0179
1109.00,0.0179
1108.00,0.0179
1107.00,0.0180
1106.00,0.0180
1105.00,0.0180
1104.00,0.0180
1103.00,0.0179
1102.00,0.0179
1101.00,0.0179
1100.00,0.0179
1099.00,0.0178
1098.00,0.0178
1097.00,0.0178
1096.00,0.0178
1095.00,0.0178
1094.00,0.0178
1093.00,0.0178
1092.00,0.0178
1091.00,0.0178
1090.00,0.0178
1089.00,0.0178
1088.00,0.0178
1087.00,0.0178
1086.00,0.0178
1085.00,0.0178
1084.00,0.0178
1083.00,0.0178
1082.00,0.0178
1081.00,0.0179
1080.00,0.0180
1079.00,0.0181
1078.00,0.0183
1077.00,0.0185
1076.00,0.0186
1075.00,0.0187
1074.00,0.0188
1073.00,0.0187
1072.00,0.0186
1071.00,0.0185
1070.00,0.0183
1069.00,0.0181
1068.00,0.0179
1067.00,0.0177
1066.00,0.0175
1065.00,0.0174
1064.00,0.0172
1063.00,0.0171
1062.00,0.0169
1061.00,0.0169
1060.00,0.0168
1059.00,0.0168
1058.00,0.0167
1057.00,0.0166
1056.00,0.0165
1055.00,0.0165
1054.00,0.0164
1053.00,0.0164
1052.00,0.0164
1051.00,0.0164
1050.00,0.0165
1049.00,0.0165
1048.00,0.0165
1047.00,0.0165
1046.00,0.0165
1045.00,0.0165
1044.00,0.0165
1043.00,0.0165
1042.00,0.0165
1041.00,0.0165
1040.00,0.0165
1039.00,0.0165
1038.00,0.0165
1037.00,0.0165
1036.00,0.0166
1035.00,0.0166
1034.00,0.0166
1033.00,0.0166
1032.00,0.0166
1031.00,0.0167
1030.00,0.0168
1029.00,0.0170
1028.00,0.0172
1027.00,0.0174
1026.00,0.0178
1025.00,0.0181
1024.00,0.0185
1023.00,0.0190
1022.00,0.0194
1021.00,0.0198
1020.00,0.0201
1019.00,0.0203
1018.00,0.0205
1017.00,0.0205
1016.00,0.0204
1015.00,0.0202
1014.00,0.0198
1013.00,0.0194
1012.00,0.0189
1011.00,0.0184
1010.00,0.0181
1009.00,0.0179
1008.00,0.0177
1007.00,0.0177
1006.00,0.0178
1005.00,0.0180
1004.00,0.0182
1003.00,0.0184
1002.00,0.0186
1001.00,0.0187
1000.00,0.0186
999.00,0.0185
998.00,0.0182
997.00,0.0179
996.00,0.0176
995.00,0.0173
994.00,0.0170
993.00,0.0167
992.00,0.0165
991.00,0.0162
990.00,0.0160
989.00,0.0158
988.00,0.0157
987.00,0.0156
986.00,0.0155
985.00,0.0154
984.00,0.0153
983.00,0.0152
982.00,0.0151
981.00,0.0150
980.00,0.0149
979.00,0.0148
978.00,0.0147
977.00,0.0146
976.00,0.0145
975.00,0.0144
974.00,0.0143
973.00,0.0142
972.00,0.0141
971.00,0.0140
970.00,0.0139
969.00,0.0138
968.00,0.0137
967.00,0.0136
966.00,0.0136
965.00,0.0135
964.00,0.0134
963.00,0.0134
962.00,0.0133
961.00,0.0133
960.00,0.0133
959.00,0.0133
958.00,0.0133
957.00,0.0133
956.00,0.0133
955.00,0.0132
954.00,0.0131
953.00,0.0131
952.00,0.0131
951.00,0.0131
950.00,0.0131
949.00,0.0131
948.00,0.0131
947.00,0.0131
946.00,0.0132
945.00,0.0133
944.00,0.0134
943.00,0.0136
942.00,0.0138
941.00,0.0141
940.00,0.0144
939.00,0.0149
938.00,0.0154
937.00,0.0159
936.00,0.0164
935.00,0.0168
934.00,0.0171
933.00,0.0173
932.00,0.0173
931.00,0.0172
930.00,0.0170
929.00,0.0167
928.00,0.0165
927.00,0.0163
926.00,0.0161
925.00,0.0159
924.00,0.0157
923.00,0.0156
922.00,0.0154
921.00,0.0153
920.00,0.0152
919.00,0.0150
918.00,0.0149
917.00,0.0149
916.00,0.0148
915.00,0.0147
914.00,0.0147
913.00,0.0147
912.00,0.0146
911.00,0.0146
910.00,0.0146
909.00,0.0147
908.00,0.0147
907.00,0.0148
906.00,0.0149
905.00,0.0151
904.00,0.0152
903.00,0.0154
902.00,0.0156
901.00,0.0158
900.00,0.0159
899.00,0.0160
898.00,0.0161
897.00,0.0162
896.00,0.0162
895.00,0.0163
894.00,0.0162
893.00,0.0161
892.00,0.0160
891.00,0.0158
890.00,0.0156
889.00,0.0153
888.00,0.0151
887.00,0.0149
886.00,0.0147
885.00,0.0145
884.00,0.0144
883.00,0.0142
882.00,0.0141
881.00,0.0140
880.00,0.0139
879.00,0.0139
878.00,0.0138
877.00,0.0138
876.00,0.0138
875.00,0.0138
874.00,0.0139
873.00,0.0139
872.00,0.0140
871.00,0.0141
870.00,0.0142
869.00,0.0143
868.00,0.0145
867.00,0.0146
866.00,0.0148
865.00,0.0150
864.00,0.0153
863.00,0.0155
862.00,0.0159
861.00,0.0162
860.00,0.0167
859.00,0.0171
858.00,0.0176
857.00,0.0182
856.00,0.0187
855.00,0.0193
854.00,0.0199
853.00,0.0206
852.00,0.0212
851.00,0.0218
850.00,0.0224
849.00,0.0229
848.00,0.0233
847.00,0.0237
846.00,0.0240
845.00,0.0241
844.00,0.0242
843.00,0.0241
842.00,0.0240
841.00,0.0238
840.00,0.0235
839.00,0.0231
838.00,0.0227
837.00,0.0222
836.00,0.0218
835.00,0.0213
834.00,0.0208
833.00,0.0203
832.00,0.0198
831.00,0.0193
830.00,0.0189
829.00,0.0184
828.00,0.0180
827.00,0.0177
826.00,0.0173
825.00,0.0169
824.00,0.0166
823.00,0.0162
822.00,0.0159
821.00,0.0157
820.00,0.0155
819.00,0.0152
818.00,0.0151
817.00,0.0149
816.00,0.0147
815.00,0.0146
814.00,0.0144
813.00,0.0143
812.00,0.0141
811.00,0.0140
810.00,0.0138
809.00,0.0137
808.00,0.0136
807.00,0.0136
806.00,0.0135
805.00,0.0134
804.00,0.0133
803.00,0.0132
802.00,0.0132
801.00,0.0131
800.00,0.0131
799.00,0.0132
798.00,0.0132
797.00,0.0132
796.00,0.0131
795.00,0.0132
794.00,0.0132
793.00,0.0132
792.00,0.0133
791.00,0.0133
790.00,0.0133
789.00,0.0134
788.00,0.0135
787.00,0.0135
786.00,0.0136
785.00,0.0137
784.00,0.0138
783.00,0.0138
782.00,0.0139
781.00,0.0140
780.00,0.0140
779.00,0.0141
778.00,0.0142
777.00,0.0143
776.00,0.0144
775.00,0.0145
774.00,0.0146
773.00,0.0147
772.00,0.0148
771.00,0.0150
770.00,0.0151
769.00,0.0153
768.00,0.0154
767.00,0.0156
766.00,0.0158
765.00,0.0160
764.00,0.0162
763.00,0.0165
762.00,0.0167
761.00,0.0170
760.00,0.0173
759.00,0.0176
758.00,0.0178
757.00,0.0181
756.00,0.0184
755.00,0.0187
754.00,0.0190
753.00,0.0194
752.00,0.0198
751.00,0.0202
750.00,0.0206
749.00,0.0210
748.00,0.0213
747.00,0.0217
746.00,0.0220
745.00,0.0224
744.00,0.0227
743.00,0.0231
742.00,0.0235
741.00,0.0238
740.00,0.0241
739.00,0.0245
738.00,0.0248
737.00,0.0251
736.00,0.0254
735.00,0.0256
734.00,0.0256
733.00,0.0256
732.00,0.0254
731.00,0.0252
730.00,0.0248
729.00,0.0243
728.00,0.0238
727.00,0.0233
726.00,0.0227
725.00,0.0222
724.00,0.0218
723.00,0.0214
722.00,0.0210
721.00,0.0207
720.00,0.0204
719.00,0.0202
718.00,0.0200
717.00,0.0199
716.00,0.0198
715.00,0.0196
714.00,0.0195
713.00,0.0194
712.00,0.0193
711.00,0.0193
710.00,0.0193
709.00,0.0193
708.00,0.0193
707.00,0.0194
706.00,0.0194
705.00,0.0195
704.00,0.0196
703.00,0.0197
702.00,0.0198
701.00,0.0200
700.00,0.0201
699.00,0.0203
698.00,0.0204
697.00,0.0206
696.00,0.0207
695.00,0.0209
694.00,0.0211
693.00,0.0213
692.00,0.0216
691.00,0.0218
690.00,0.0220
689.00,0.0222
688.00,0.0225
687.00,0.0229
686.00,0.0233
685.00,0.0236
684.00,0.0238
683.00,0.0241
682.00,0.0244
681.00,0.0247
680.00,0.0251
679.00,0.0255
678.00,0.0258
677.00,0.0262
676.00,0.0266
675.00,0.0270
674.00,0.0274
673.00,0.0278
672.00,0.0283
671.00,0.0287
670.00,0.0292
669.00,0.0298
668.00,0.0305
667.00,0.0312
666.00,0.0318
665.00,0.0324
664.00,0.0331
663.00,0.0338
662.00,0.0346
661.00,0.0354
660.00,0.0361
659.00,0.0369
658.00,0.0378
657.00,0.0386
656.00,0.0394
655.00,0.0402
654.00,0.0410
653.00,0.0418
652.00,0.0425
651.00,0.0430
650.00,0.0434
649.00,0.0437
648.00,0.0439
647.00,0.0439
646.00,0.0439
645.00,0.0438
644.00,0.0435
643.00,0.0431
642.00,0.0426
641.00,0.0421
640.00,0.0415
639.00,0.0410
638.00,0.0404
637.00,0.0399
636.00,0.0393
635.00,0.0388
634.00,0.0383
633.00,0.0378
632.00,0.0374
631.00,0.0371
630.00,0.0368
629.00,0.0365
628.00,0.0362
627.00,0.0359
626.00,0.0357
625.00,0.0354
624.00,0.0352
623.00,0.0351
622.00,0.0349
621.00,0.0348
620.00,0.0347
619.00,0.0346
618.00,0.0346
617.00,0.0345
616.00,0.0345
615.00,0.0346
614.00,0.0346
613.00,0.0346
612.00,0.0346
611.00,0.0347
610.00,0.0347
609.00,0.0347
608.00,0.0348
607.00,0.0349
606.00,0.0351
605.00,0.0351
604.00,0.0352
603.00,0.0352
602.00,0.0353
601.00,0.0354
600.00,0.0355
599.00,0.0357
598.00,0.0359
597.00,0.0362
596.00,0.0365
595.00,0.0369
594.00,0.0373
593.00,0.0376
592.00,0.0379
591.00,0.0382
590.00,0.0386
589.00,0.0392
588.00,0.0399
587.00,0.0407
586.00,0.0415
585.00,0.0422
584.00,0.0430
583.00,0.0437
582.00,0.0444
581.00,0.0452
580.00,0.0460
579.00,0.0468
578.00,0.0474
577.00,0.0480
576.00,0.0485
575.00,0.0489
574.00,0.0492
573.00,0.0494
572.00,0.0496
571.00,0.0497
570.00,0.0497
569.00,0.0496
568.00,0.0493
567.00,0.0490
566.00,0.0486
565.00,0.0482
564.00,0.0478
563.00,0.0473
562.00,0.0466
561.00,0.0461
560.00,0.0456
559.00,0.0451
558.00,0.0446
557.00,0.0443
556.00,0.0440
555.00,0.0437
554.00,0.0433
553.00,0.0429
552.00,0.0426
551.00,0.0425
550.00,0.0423
549.00,0.0422
548.00,0.0420
547.00,0.0417
546.00,0.0414
545.00,0.0411
544.00,0.0407
543.00,0.0405
542.00,0.0403
541.00,0.0402
540.00,0.0401
539.00,0.0401
538.00,0.0400
537.00,0.0398
536.00,0.0396
535.00,0.0394
534.00,0.0393
533.00,0.0393
532.00,0.0393
531.00,0.0392
530.00,0.0392
529.00,0.0392
528.00,0.0392
527.00,0.0392
526.00,0.0392
525.00,0.0392
524.00,0.0394
523.00,0.0395
522.00,0.0396
521.00,0.0397
520.00,0.0398
519.00,0.0398
518.00,0.0398
517.00,0.0397
516.00,0.0397
515.00,0.0396
514.00,0.0396
513.00,0.0395
512.00,0.0395
511.00,0.0395
510.00,0.0397
509.00,0.0398
508.00,0.0398
507.00,0.0398
506.00,0.0397
505.00,0.0398
504.00,0.0400
503.00,0.0402
502.00,0.0403
501.00,0.0403
500.00,0.0403
499.00,0.0404
498.00,0.0404
497.00,0.0403
496.00,0.0402
495.00,0.0402
494.00,0.0403
493.00,0.0405
492.00,0.0408
491.00,0.0410
490.00,0.0411
489.00,0.0411
488.00,0.0411
487.00,0.0412
486.00,0.0414
485.00,0.0415
484.00,0.0415
483.00,0.0414
482.00,0.0413
481.00,0.0414
480.00,0.0416
479.00,0.0419
478.00,0.0422
477.00,0.0422
476.00,0.0421
475.00,0.0420
474.00,0.0419
473.00,0.0419
472.00,0.0420
471.00,0.0420
470.00,0.0419
469.00,0.0419
468.00,0.0419
467.00,0.0420
466.00,0.0420
465.00,0.0421
464.00,0.0420
463.00,0.0419
462.00,0.0417
461.00,0.0416
460.00,0.0417
459.00,0.0419
458.00,0.0420
457.00,0.0419
456.00,0.0417
455.00,0.0414
454.00,0.0413
453.00,0.0413
452.00,0.0413
451.00,0.0413
450.00,0.0413
449.00,0.0412
448.00,0.0409
447.00,0.0405
446.00,0.0401
445.00,0.0397
444.00,0.0394
443.00,0.0393
442.00,0.0393
441.00,0.0392
440.00,0.0390
439.00,0.0389
438.00,0.0389
437.00,0.0390
436.00,0.0391
435.00,0.0391
434.00,0.0392
433.00,0.0393
432.00,0.0393
431.00,0.0391
430.00,0.0388
429.00,0.0386
428.00,0.0383
427.00,0.0380
426.00,0.0378
425.00,0.0377
424.00,0.0377
423.00,0.0377
422.00,0.0376
421.00,0.0376
420.00,0.0376
419.00,0.0377
418.00,0.0380
417.00,0.0381
416.00,0.0378
415.00,0.0369
414.00,0.0358
413.00,0.0352
412.00,0.0353
411.00,0.0358
410.00,0.0362
409.00,0.0362
408.00,0.0359
407.00,0.0351
406.00,0.0345
405.00,0.0344
404.00,0.0348
403.00,0.0353
402.00,0.0352
401.00,0.0345
400.00,0.0336
