Created as New Dataset,Sample 627 By YargerLab Date Friday, June 06 2025
cm-1,A
4000.00,0.0070
3999.00,0.0070
3998.00,0.0069
3997.00,0.0069
3996.00,0.0069
3995.00,0.0069
3994.00,0.0069
3993.00,0.0069
3992.00,0.0069
3991.00,0.0069
3990.00,0.0069
3989.00,0.0069
3988.00,0.0069
3987.00,0.0069
3986.00,0.0069
3985.00,0.0069
3984.00,0.0069
3983.00,0.0069
3982.00,0.0069
3981.00,0.0069
3980.00,0.0069
3979.00,0.0069
3978.00,0.0070
3977.00,0.0070
3976.00,0.0070
3975.00,0.0069
3974.00,0.0069
3973.00,0.0069
3972.00,0.0069
3971.00,0.0069
3970.00,0.0069
3969.00,0.0069
3968.00,0.0069
3967.00,0.0069
3966.00,0.0069
3965.00,0.0069
3964.00,0.0070
3963.00,0.0070
3962.00,0.0070
3961.00,0.0069
3960.00,0.0069
3959.00,0.0069
3958.00,0.0070
3957.00,0.0070
3956.00,0.0070
3955.00,0.0070
3954.00,0.0070
3953.00,0.0069
3952.00,0.0069
3951.00,0.0069
3950.00,0.0069
3949.00,0.0069
3948.00,0.0069
3947.00,0.0069
3946.00,0.0069
3945.00,0.0069
3944.00,0.0069
3943.00,0.0069
3942.00,0.0069
3941.00,0.0069
3940.00,0.0070
3939.00,0.0069
3938.00,0.0069
3937.00,0.0069
3936.00,0.0069
3935.00,0.0069
3934.00,0.0069
3933.00,0.0069
3932.00,0.0069
3931.00,0.0069
3930.00,0.0069
3929.00,0.0069
3928.00,0.0069
3927.00,0.0069
3926.00,0.0069
3925.00,0.0069
3924.00,0.0069
3923.00,0.0069
3922.00,0.0069
3921.00,0.0068
3920.00,0.0068
3919.00,0.0068
3918.00,0.0069
3917.00,0.0069
3916.00,0.0069
3915.00,0.0069
3914.00,0.0069
3913.00,0.0069
3912.00,0.0068
3911.00,0.0068
3910.00,0.0068
3909.00,0.0068
3908.00,0.0068
3907.00,0.0068
3906.00,0.0068
3905.00,0.0068
3904.00,0.0068
3903.00,0.0068
3902.00,0.0068
3901.00,0.0069
3900.00,0.0069
3899.00,0.0069
3898.00,0.0068
3897.00,0.0068
3896.00,0.0068
3895.00,0.0068
3894.00,0.0068
3893.00,0.0068
3892.00,0.0067
3891.00,0.0067
3890.00,0.0067
3889.00,0.0067
3888.00,0.0067
3887.00,0.0067
3886.00,0.0067
3885.00,0.0067
3884.00,0.0067
3883.00,0.0067
3882.00,0.0067
3881.00,0.0068
3880.00,0.0068
3879.00,0.0067
3878.00,0.0067
3877.00,0.0067
3876.00,0.0067
3875.00,0.0067
3874.00,0.0067
3873.00,0.0067
3872.00,0.0067
3871.00,0.0067
3870.00,0.0067
3869.00,0.0066
3868.00,0.0066
3867.00,0.0066
3866.00,0.0067
3865.00,0.0067
3864.00,0.0067
3863.00,0.0067
3862.00,0.0067
3861.00,0.0067
3860.00,0.0067
3859.00,0.0066
3858.00,0.0066
3857.00,0.0065
3856.00,0.0065
3855.00,0.0066
3854.00,0.0067
3853.00,0.0067
3852.00,0.0067
3851.00,0.0067
3850.00,0.0067
3849.00,0.0067
3848.00,0.0067
3847.00,0.0066
3846.00,0.0066
3845.00,0.0066
3844.00,0.0066
3843.00,0.0066
3842.00,0.0066
3841.00,0.0066
3840.00,0.0066
3839.00,0.0066
3838.00,0.0066
3837.00,0.0066
3836.00,0.0066
3835.00,0.0067
3834.00,0.0067
3833.00,0.0067
3832.00,0.0066
3831.00,0.0066
3830.00,0.0067
3829.00,0.0067
3828.00,0.0067
3827.00,0.0067
3826.00,0.0066
3825.00,0.0066
3824.00,0.0065
3823.00,0.0066
3822.00,0.0066
3821.00,0.0065
3820.00,0.0065
3819.00,0.0065
3818.00,0.0065
3817.00,0.0065
3816.00,0.0065
3815.00,0.0065
3814.00,0.0066
3813.00,0.0066
3812.00,0.0066
3811.00,0.0066
3810.00,0.0066
3809.00,0.0066
3808.00,0.0066
3807.00,0.0066
3806.00,0.0066
3805.00,0.0066
3804.00,0.0066
3803.00,0.0066
3802.00,0.0066
3801.00,0.0065
3800.00,0.0065
3799.00,0.0065
3798.00,0.0066
3797.00,0.0066
3796.00,0.0065
3795.00,0.0065
3794.00,0.0066
3793.00,0.0066
3792.00,0.0066
3791.00,0.0066
3790.00,0.0066
3789.00,0.0066
3788.00,0.0066
3787.00,0.0066
3786.00,0.0066
3785.00,0.0066
3784.00,0.0066
3783.00,0.0066
3782.00,0.0066
3781.00,0.0066
3780.00,0.0066
3779.00,0.0066
3778.00,0.0066
3777.00,0.0067
3776.00,0.0067
3775.00,0.0067
3774.00,0.0066
3773.00,0.0066
3772.00,0.0066
3771.00,0.0066
3770.00,0.0066
3769.00,0.0066
3768.00,0.0066
3767.00,0.0066
3766.00,0.0066
3765.00,0.0066
3764.00,0.0066
3763.00,0.0066
3762.00,0.0066
3761.00,0.0066
3760.00,0.0066
3759.00,0.0066
3758.00,0.0066
3757.00,0.0066
3756.00,0.0066
3755.00,0.0066
3754.00,0.0066
3753.00,0.0065
3752.00,0.0065
3751.00,0.0065
3750.00,0.0065
3749.00,0.0064
3748.00,0.0064
3747.00,0.0065
3746.00,0.0065
3745.00,0.0066
3744.00,0.0065
3743.00,0.0065
3742.00,0.0065
3741.00,0.0065
3740.00,0.0065
3739.00,0.0064
3738.00,0.0064
3737.00,0.0065
3736.00,0.0065
3735.00,0.0064
3734.00,0.0064
3733.00,0.0064
3732.00,0.0064
3731.00,0.0065
3730.00,0.0065
3729.00,0.0065
3728.00,0.0065
3727.00,0.0065
3726.00,0.0065
3725.00,0.0065
3724.00,0.0065
3723.00,0.0065
3722.00,0.0065
3721.00,0.0064
3720.00,0.0064
3719.00,0.0064
3718.00,0.0063
3717.00,0.0063
3716.00,0.0063
3715.00,0.0064
3714.00,0.0064
3713.00,0.0064
3712.00,0.0064
3711.00,0.0064
3710.00,0.0064
3709.00,0.0064
3708.00,0.0064
3707.00,0.0064
3706.00,0.0064
3705.00,0.0063
3704.00,0.0063
3703.00,0.0064
3702.00,0.0064
3701.00,0.0064
3700.00,0.0064
3699.00,0.0064
3698.00,0.0063
3697.00,0.0063
3696.00,0.0062
3695.00,0.0062
3694.00,0.0061
3693.00,0.0061
3692.00,0.0061
3691.00,0.0060
3690.00,0.0060
3689.00,0.0059
3688.00,0.0059
3687.00,0.0059
3686.00,0.0060
3685.00,0.0060
3684.00,0.0060
3683.00,0.0059
3682.00,0.0059
3681.00,0.0058
3680.00,0.0057
3679.00,0.0056
3678.00,0.0055
3677.00,0.0054
3676.00,0.0053
3675.00,0.0053
3674.00,0.0052
3673.00,0.0052
3672.00,0.0052
3671.00,0.0052
3670.00,0.0052
3669.00,0.0052
3668.00,0.0051
3667.00,0.0051
3666.00,0.0051
3665.00,0.0051
3664.00,0.0051
3663.00,0.0050
3662.00,0.0050
3661.00,0.0050
3660.00,0.0050
3659.00,0.0050
3658.00,0.0050
3657.00,0.0050
3656.00,0.0050
3655.00,0.0051
3654.00,0.0051
3653.00,0.0051
3652.00,0.0051
3651.00,0.0051
3650.00,0.0051
3649.00,0.0051
3648.00,0.0051
3647.00,0.0052
3646.00,0.0052
3645.00,0.0052
3644.00,0.0052
3643.00,0.0053
3642.00,0.0053
3641.00,0.0053
3640.00,0.0053
3639.00,0.0053
3638.00,0.0053
3637.00,0.0054
3636.00,0.0054
3635.00,0.0055
3634.00,0.0056
3633.00,0.0057
3632.00,0.0058
3631.00,0.0058
3630.00,0.0059
3629.00,0.0060
3628.00,0.0060
3627.00,0.0060
3626.00,0.0060
3625.00,0.0060
3624.00,0.0060
3623.00,0.0060
3622.00,0.0060
3621.00,0.0060
3620.00,0.0060
3619.00,0.0059
3618.00,0.0059
3617.00,0.0060
3616.00,0.0060
3615.00,0.0060
3614.00,0.0060
3613.00,0.0060
3612.00,0.0060
3611.00,0.0061
3610.00,0.0061
3609.00,0.0061
3608.00,0.0061
3607.00,0.0062
3606.00,0.0061
3605.00,0.0061
3604.00,0.0061
3603.00,0.0061
3602.00,0.0061
3601.00,0.0061
3600.00,0.0061
3599.00,0.0060
3598.00,0.0060
3597.00,0.0060
3596.00,0.0060
3595.00,0.0061
3594.00,0.0061
3593.00,0.0061
3592.00,0.0061
3591.00,0.0061
3590.00,0.0060
3589.00,0.0060
3588.00,0.0060
3587.00,0.0060
3586.00,0.0060
3585.00,0.0060
3584.00,0.0061
3583.00,0.0061
3582.00,0.0061
3581.00,0.0061
3580.00,0.0061
3579.00,0.0061
3578.00,0.0060
3577.00,0.0060
3576.00,0.0060
3575.00,0.0060
3574.00,0.0060
3573.00,0.0060
3572.00,0.0060
3571.00,0.0060
3570.00,0.0060
3569.00,0.0060
3568.00,0.0060
3567.00,0.0060
3566.00,0.0060
3565.00,0.0060
3564.00,0.0060
3563.00,0.0060
3562.00,0.0060
3561.00,0.0060
3560.00,0.0060
3559.00,0.0060
3558.00,0.0060
3557.00,0.0060
3556.00,0.0060
3555.00,0.0061
3554.00,0.0061
3553.00,0.0061
3552.00,0.0060
3551.00,0.0060
3550.00,0.0060
3549.00,0.0060
3548.00,0.0060
3547.00,0.0060
3546.00,0.0061
3545.00,0.0061
3544.00,0.0061
3543.00,0.0061
3542.00,0.0061
3541.00,0.0061
3540.00,0.0061
3539.00,0.0061
3538.00,0.0061
3537.00,0.0061
3536.00,0.0061
3535.00,0.0061
3534.00,0.0061
3533.00,0.0061
3532.00,0.0061
3531.00,0.0060
3530.00,0.0060
3529.00,0.0060
3528.00,0.0060
3527.00,0.0060
3526.00,0.0060
3525.00,0.0061
3524.00,0.0061
3523.00,0.0061
3522.00,0.0061
3521.00,0.0061
3520.00,0.0061
3519.00,0.0061
3518.00,0.0061
3517.00,0.0061
3516.00,0.0061
3515.00,0.0061
3514.00,0.0061
3513.00,0.0061
3512.00,0.0061
3511.00,0.0060
3510.00,0.0060
3509.00,0.0060
3508.00,0.0060
3507.00,0.0060
3506.00,0.0060
3505.00,0.0060
3504.00,0.0060
3503.00,0.0060
3502.00,0.0060
3501.00,0.0060
3500.00,0.0060
3499.00,0.0060
3498.00,0.0060
3497.00,0.0060
3496.00,0.0060
3495.00,0.0060
3494.00,0.0060
3493.00,0.0060
3492.00,0.0060
3491.00,0.0060
3490.00,0.0060
3489.00,0.0060
3488.00,0.0060
3487.00,0.0060
3486.00,0.0060
3485.00,0.0060
3484.00,0.0060
3483.00,0.0060
3482.00,0.0060
3481.00,0.0060
3480.00,0.0060
3479.00,0.0059
3478.00,0.0059
3477.00,0.0059
3476.00,0.0059
3475.00,0.0059
3474.00,0.0059
3473.00,0.0059
3472.00,0.0059
3471.00,0.0060
3470.00,0.0060
3469.00,0.0060
3468.00,0.0060
3467.00,0.0060
3466.00,0.0060
3465.00,0.0059
3464.00,0.0059
3463.00,0.0059
3462.00,0.0059
3461.00,0.0059
3460.00,0.0059
3459.00,0.0059
3458.00,0.0059
3457.00,0.0059
3456.00,0.0059
3455.00,0.0059
3454.00,0.0059
3453.00,0.0059
3452.00,0.0060
3451.00,0.0060
3450.00,0.0060
3449.00,0.0060
3448.00,0.0060
3447.00,0.0060
3446.00,0.0060
3445.00,0.0060
3444.00,0.0060
3443.00,0.0060
3442.00,0.0060
3441.00,0.0059
3440.00,0.0059
3439.00,0.0060
3438.00,0.0060
3437.00,0.0060
3436.00,0.0060
3435.00,0.0060
3434.00,0.0060
3433.00,0.0061
3432.00,0.0061
3431.00,0.0061
3430.00,0.0061
3429.00,0.0061
3428.00,0.0061
3427.00,0.0061
3426.00,0.0061
3425.00,0.0061
3424.00,0.0062
3423.00,0.0062
3422.00,0.0063
3421.00,0.0063
3420.00,0.0063
3419.00,0.0064
3418.00,0.0064
3417.00,0.0064
3416.00,0.0064
3415.00,0.0064
3414.00,0.0064
3413.00,0.0064
3412.00,0.0064
3411.00,0.0065
3410.00,0.0065
3409.00,0.0066
3408.00,0.0066
3407.00,0.0067
3406.00,0.0067
3405.00,0.0067
3404.00,0.0067
3403.00,0.0068
3402.00,0.0068
3401.00,0.0068
3400.00,0.0069
3399.00,0.0070
3398.00,0.0071
3397.00,0.0072
3396.00,0.0072
3395.00,0.0073
3394.00,0.0074
3393.00,0.0075
3392.00,0.0076
3391.00,0.0078
3390.00,0.0080
3389.00,0.0081
3388.00,0.0083
3387.00,0.0085
3386.00,0.0086
3385.00,0.0088
3384.00,0.0090
3383.00,0.0092
3382.00,0.0093
3381.00,0.0095
3380.00,0.0096
3379.00,0.0098
3378.00,0.0100
3377.00,0.0102
3376.00,0.0104
3375.00,0.0106
3374.00,0.0107
3373.00,0.0108
3372.00,0.0109
3371.00,0.0109
3370.00,0.0111
3369.00,0.0113
3368.00,0.0116
3367.00,0.0120
3366.00,0.0125
3365.00,0.0129
3364.00,0.0133
3363.00,0.0138
3362.00,0.0142
3361.00,0.0146
3360.00,0.0151
3359.00,0.0157
3358.00,0.0163
3357.00,0.0170
3356.00,0.0176
3355.00,0.0182
3354.00,0.0188
3353.00,0.0195
3352.00,0.0202
3351.00,0.0210
3350.00,0.0220
3349.00,0.0231
3348.00,0.0243
3347.00,0.0256
3346.00,0.0269
3345.00,0.0282
3344.00,0.0297
3343.00,0.0314
3342.00,0.0331
3341.00,0.0350
3340.00,0.0370
3339.00,0.0390
3338.00,0.0411
3337.00,0.0432
3336.00,0.0452
3335.00,0.0470
3334.00,0.0486
3333.00,0.0498
3332.00,0.0508
3331.00,0.0514
3330.00,0.0518
3329.00,0.0520
3328.00,0.0521
3327.00,0.0520
3326.00,0.0519
3325.00,0.0517
3324.00,0.0514
3323.00,0.0511
3322.00,0.0507
3321.00,0.0501
3320.00,0.0493
3319.00,0.0484
3318.00,0.0474
3317.00,0.0462
3316.00,0.0450
3315.00,0.0437
3314.00,0.0424
3313.00,0.0410
3312.00,0.0397
3311.00,0.0383
3310.00,0.0370
3309.00,0.0358
3308.00,0.0347
3307.00,0.0337
3306.00,0.0328
3305.00,0.0320
3304.00,0.0313
3303.00,0.0306
3302.00,0.0300
3301.00,0.0294
3300.00,0.0289
3299.00,0.0283
3298.00,0.0278
3297.00,0.0273
3296.00,0.0269
3295.00,0.0265
3294.00,0.0261
3293.00,0.0258
3292.00,0.0255
3291.00,0.0252
3290.00,0.0249
3289.00,0.0245
3288.00,0.0241
3287.00,0.0237
3286.00,0.0232
3285.00,0.0228
3284.00,0.0223
3283.00,0.0220
3282.00,0.0216
3281.00,0.0213
3280.00,0.0210
3279.00,0.0207
3278.00,0.0205
3277.00,0.0203
3276.00,0.0201
3275.00,0.0200
3274.00,0.0199
3273.00,0.0198
3272.00,0.0198
3271.00,0.0197
3270.00,0.0198
3269.00,0.0198
3268.00,0.0199
3267.00,0.0199
3266.00,0.0199
3265.00,0.0199
3264.00,0.0198
3263.00,0.0198
3262.00,0.0197
3261.00,0.0196
3260.00,0.0195
3259.00,0.0194
3258.00,0.0193
3257.00,0.0191
3256.00,0.0191
3255.00,0.0190
3254.00,0.0190
3253.00,0.0189
3252.00,0.0188
3251.00,0.0188
3250.00,0.0187
3249.00,0.0186
3248.00,0.0186
3247.00,0.0185
3246.00,0.0186
3245.00,0.0186
3244.00,0.0187
3243.00,0.0187
3242.00,0.0187
3241.00,0.0186
3240.00,0.0186
3239.00,0.0185
3238.00,0.0184
3237.00,0.0182
3236.00,0.0180
3235.00,0.0177
3234.00,0.0175
3233.00,0.0173
3232.00,0.0171
3231.00,0.0169
3230.00,0.0167
3229.00,0.0164
3228.00,0.0161
3227.00,0.0159
3226.00,0.0156
3225.00,0.0153
3224.00,0.0150
3223.00,0.0147
3222.00,0.0145
3221.00,0.0143
3220.00,0.0141
3219.00,0.0138
3218.00,0.0137
3217.00,0.0135
3216.00,0.0133
3215.00,0.0131
3214.00,0.0130
3213.00,0.0128
3212.00,0.0127
3211.00,0.0126
3210.00,0.0125
3209.00,0.0124
3208.00,0.0122
3207.00,0.0121
3206.00,0.0120
3205.00,0.0119
3204.00,0.0118
3203.00,0.0117
3202.00,0.0116
3201.00,0.0115
3200.00,0.0114
3199.00,0.0113
3198.00,0.0112
3197.00,0.0111
3196.00,0.0110
3195.00,0.0109
3194.00,0.0108
3193.00,0.0107
3192.00,0.0107
3191.00,0.0106
3190.00,0.0105
3189.00,0.0105
3188.00,0.0105
3187.00,0.0105
3186.00,0.0105
3185.00,0.0105
3184.00,0.0104
3183.00,0.0104
3182.00,0.0104
3181.00,0.0104
3180.00,0.0104
3179.00,0.0104
3178.00,0.0104
3177.00,0.0103
3176.00,0.0103
3175.00,0.0103
3174.00,0.0102
3173.00,0.0102
3172.00,0.0101
3171.00,0.0101
3170.00,0.0101
3169.00,0.0101
3168.00,0.0100
3167.00,0.0100
3166.00,0.0100
3165.00,0.0100
3164.00,0.0100
3163.00,0.0100
3162.00,0.0100
3161.00,0.0099
3160.00,0.0099
3159.00,0.0099
3158.00,0.0099
3157.00,0.0099
3156.00,0.0099
3155.00,0.0099
3154.00,0.0099
3153.00,0.0099
3152.00,0.0100
3151.00,0.0101
3150.00,0.0101
3149.00,0.0102
3148.00,0.0102
3147.00,0.0103
3146.00,0.0103
3145.00,0.0103
3144.00,0.0103
3143.00,0.0103
3142.00,0.0103
3141.00,0.0103
3140.00,0.0103
3139.00,0.0103
3138.00,0.0104
3137.00,0.0104
3136.00,0.0105
3135.00,0.0105
3134.00,0.0106
3133.00,0.0106
3132.00,0.0107
3131.00,0.0107
3130.00,0.0108
3129.00,0.0109
3128.00,0.0110
3127.00,0.0111
3126.00,0.0111
3125.00,0.0112
3124.00,0.0113
3123.00,0.0114
3122.00,0.0115
3121.00,0.0116
3120.00,0.0118
3119.00,0.0119
3118.00,0.0121
3117.00,0.0123
3116.00,0.0125
3115.00,0.0127
3114.00,0.0129
3113.00,0.0131
3112.00,0.0134
3111.00,0.0136
3110.00,0.0138
3109.00,0.0141
3108.00,0.0143
3107.00,0.0146
3106.00,0.0148
3105.00,0.0149
3104.00,0.0150
3103.00,0.0151
3102.00,0.0151
3101.00,0.0150
3100.00,0.0150
3099.00,0.0148
3098.00,0.0147
3097.00,0.0144
3096.00,0.0142
3095.00,0.0140
3094.00,0.0138
3093.00,0.0137
3092.00,0.0135
3091.00,0.0134
3090.00,0.0133
3089.00,0.0132
3088.00,0.0132
3087.00,0.0133
3086.00,0.0134
3085.00,0.0134
3084.00,0.0135
3083.00,0.0135
3082.00,0.0134
3081.00,0.0134
3080.00,0.0134
3079.00,0.0133
3078.00,0.0132
3077.00,0.0131
3076.00,0.0129
3075.00,0.0126
3074.00,0.0123
3073.00,0.0120
3072.00,0.0117
3071.00,0.0115
3070.00,0.0113
3069.00,0.0112
3068.00,0.0112
3067.00,0.0113
3066.00,0.0115
3065.00,0.0116
3064.00,0.0117
3063.00,0.0118
3062.00,0.0118
3061.00,0.0117
3060.00,0.0116
3059.00,0.0114
3058.00,0.0112
3057.00,0.0110
3056.00,0.0109
3055.00,0.0109
3054.00,0.0108
3053.00,0.0107
3052.00,0.0107
3051.00,0.0107
3050.00,0.0107
3049.00,0.0107
3048.00,0.0107
3047.00,0.0106
3046.00,0.0106
3045.00,0.0105
3044.00,0.0105
3043.00,0.0106
3042.00,0.0107
3041.00,0.0109
3040.00,0.0111
3039.00,0.0113
3038.00,0.0114
3037.00,0.0115
3036.00,0.0115
3035.00,0.0115
3034.00,0.0116
3033.00,0.0117
3032.00,0.0119
3031.00,0.0120
3030.00,0.0121
3029.00,0.0122
3028.00,0.0123
3027.00,0.0123
3026.00,0.0122
3025.00,0.0121
3024.00,0.0120
3023.00,0.0119
3022.00,0.0117
3021.00,0.0116
3020.00,0.0114
3019.00,0.0112
3018.00,0.0111
3017.00,0.0110
3016.00,0.0109
3015.00,0.0108
3014.00,0.0108
3013.00,0.0108
3012.00,0.0108
3011.00,0.0109
3010.00,0.0111
3009.00,0.0112
3008.00,0.0114
3007.00,0.0116
3006.00,0.0118
3005.00,0.0119
3004.00,0.0121
3003.00,0.0122
3002.00,0.0123
3001.00,0.0123
3000.00,0.0123
2999.00,0.0123
2998.00,0.0121
2997.00,0.0119
2996.00,0.0115
2995.00,0.0110
2994.00,0.0103
2993.00,0.0095
2992.00,0.0088
2991.00,0.0082
2990.00,0.0077
2989.00,0.0072
2988.00,0.0067
2987.00,0.0062
2986.00,0.0055
2985.00,0.0046
2984.00,0.0034
2983.00,0.0022
2982.00,0.0013
2981.00,0.0009
2980.00,0.0011
2979.00,0.0016
2978.00,0.0022
2977.00,0.0028
2976.00,0.0032
2975.00,0.0034
2974.00,0.0035
2973.00,0.0035
2972.00,0.0035
2971.00,0.0038
2970.00,0.0044
2969.00,0.0051
2968.00,0.0059
2967.00,0.0067
2966.00,0.0076
2965.00,0.0085
2964.00,0.0096
2963.00,0.0107
2962.00,0.0121
2961.00,0.0135
2960.00,0.0149
2959.00,0.0164
2958.00,0.0177
2957.00,0.0189
2956.00,0.0198
2955.00,0.0203
2954.00,0.0206
2953.00,0.0205
2952.00,0.0201
2951.00,0.0194
2950.00,0.0185
2949.00,0.0176
2948.00,0.0166
2947.00,0.0157
2946.00,0.0150
2945.00,0.0144
2944.00,0.0139
2943.00,0.0135
2942.00,0.0132
2941.00,0.0130
2940.00,0.0128
2939.00,0.0126
2938.00,0.0125
2937.00,0.0125
2936.00,0.0124
2935.00,0.0124
2934.00,0.0123
2933.00,0.0122
2932.00,0.0121
2931.00,0.0120
2930.00,0.0120
2929.00,0.0119
2928.00,0.0118
2927.00,0.0118
2926.00,0.0116
2925.00,0.0115
2924.00,0.0113
2923.00,0.0112
2922.00,0.0110
2921.00,0.0108
2920.00,0.0106
2919.00,0.0104
2918.00,0.0102
2917.00,0.0101
2916.00,0.0099
2915.00,0.0098
2914.00,0.0097
2913.00,0.0097
2912.00,0.0096
2911.00,0.0095
2910.00,0.0095
2909.00,0.0093
2908.00,0.0092
2907.00,0.0091
2906.00,0.0089
2905.00,0.0088
2904.00,0.0088
2903.00,0.0087
2902.00,0.0086
2901.00,0.0085
2900.00,0.0084
2899.00,0.0083
2898.00,0.0081
2897.00,0.0080
2896.00,0.0078
2895.00,0.0077
2894.00,0.0076
2893.00,0.0075
2892.00,0.0074
2891.00,0.0073
2890.00,0.0073
2889.00,0.0073
2888.00,0.0074
2887.00,0.0075
2886.00,0.0076
2885.00,0.0077
2884.00,0.0077
2883.00,0.0079
2882.00,0.0080
2881.00,0.0082
2880.00,0.0084
2879.00,0.0087
2878.00,0.0088
2877.00,0.0090
2876.00,0.0092
2875.00,0.0093
2874.00,0.0095
2873.00,0.0097
2872.00,0.0099
2871.00,0.0101
2870.00,0.0102
2869.00,0.0102
2868.00,0.0102
2867.00,0.0102
2866.00,0.0101
2865.00,0.0101
2864.00,0.0100
2863.00,0.0100
2862.00,0.0099
2861.00,0.0098
2860.00,0.0097
2859.00,0.0097
2858.00,0.0098
2857.00,0.0098
2856.00,0.0099
2855.00,0.0099
2854.00,0.0099
2853.00,0.0100
2852.00,0.0101
2851.00,0.0102
2850.00,0.0104
2849.00,0.0106
2848.00,0.0109
2847.00,0.0113
2846.00,0.0116
2845.00,0.0119
2844.00,0.0121
2843.00,0.0121
2842.00,0.0120
2841.00,0.0118
2840.00,0.0115
2839.00,0.0112
2838.00,0.0109
2837.00,0.0106
2836.00,0.0104
2835.00,0.0102
2834.00,0.0100
2833.00,0.0099
2832.00,0.0098
2831.00,0.0097
2830.00,0.0097
2829.00,0.0096
2828.00,0.0096
2827.00,0.0096
2826.00,0.0095
2825.00,0.0095
2824.00,0.0095
2823.00,0.0095
2822.00,0.0095
2821.00,0.0095
2820.00,0.0095
2819.00,0.0095
2818.00,0.0095
2817.00,0.0095
2816.00,0.0096
2815.00,0.0096
2814.00,0.0096
2813.00,0.0096
2812.00,0.0097
2811.00,0.0097
2810.00,0.0097
2809.00,0.0097
2808.00,0.0097
2807.00,0.0097
2806.00,0.0096
2805.00,0.0096
2804.00,0.0096
2803.00,0.0095
2802.00,0.0095
2801.00,0.0094
2800.00,0.0093
2799.00,0.0092
2798.00,0.0091
2797.00,0.0091
2796.00,0.0090
2795.00,0.0090
2794.00,0.0089
2793.00,0.0088
2792.00,0.0087
2791.00,0.0086
2790.00,0.0085
2789.00,0.0084
2788.00,0.0084
2787.00,0.0083
2786.00,0.0082
2785.00,0.0082
2784.00,0.0081
2783.00,0.0081
2782.00,0.0081
2781.00,0.0081
2780.00,0.0081
2779.00,0.0080
2778.00,0.0080
2777.00,0.0080
2776.00,0.0080
2775.00,0.0080
2774.00,0.0080
2773.00,0.0080
2772.00,0.0080
2771.00,0.0080
2770.00,0.0080
2769.00,0.0080
2768.00,0.0080
2767.00,0.0080
2766.00,0.0080
2765.00,0.0080
2764.00,0.0080
2763.00,0.0080
2762.00,0.0079
2761.00,0.0079
2760.00,0.0079
2759.00,0.0079
2758.00,0.0079
2757.00,0.0079
2756.00,0.0079
2755.00,0.0079
2754.00,0.0079
2753.00,0.0079
2752.00,0.0079
2751.00,0.0078
2750.00,0.0078
2749.00,0.0078
2748.00,0.0078
2747.00,0.0078
2746.00,0.0078
2745.00,0.0078
2744.00,0.0078
2743.00,0.0078
2742.00,0.0078
2741.00,0.0078
2740.00,0.0078
2739.00,0.0077
2738.00,0.0077
2737.00,0.0077
2736.00,0.0077
2735.00,0.0077
2734.00,0.0076
2733.00,0.0076
2732.00,0.0076
2731.00,0.0076
2730.00,0.0076
2729.00,0.0076
2728.00,0.0077
2727.00,0.0077
2726.00,0.0077
2725.00,0.0077
2724.00,0.0078
2723.00,0.0078
2722.00,0.0078
2721.00,0.0078
2720.00,0.0078
2719.00,0.0078
2718.00,0.0078
2717.00,0.0078
2716.00,0.0078
2715.00,0.0078
2714.00,0.0078
2713.00,0.0078
2712.00,0.0078
2711.00,0.0078
2710.00,0.0078
2709.00,0.0077
2708.00,0.0077
2707.00,0.0077
2706.00,0.0077
2705.00,0.0077
2704.00,0.0077
2703.00,0.0077
2702.00,0.0077
2701.00,0.0078
2700.00,0.0078
2699.00,0.0078
2698.00,0.0078
2697.00,0.0078
2696.00,0.0078
2695.00,0.0078
2694.00,0.0078
2693.00,0.0077
2692.00,0.0077
2691.00,0.0077
2690.00,0.0077
2689.00,0.0077
2688.00,0.0077
2687.00,0.0077
2686.00,0.0077
2685.00,0.0076
2684.00,0.0076
2683.00,0.0076
2682.00,0.0076
2681.00,0.0076
2680.00,0.0076
2679.00,0.0076
2678.00,0.0076
2677.00,0.0076
2676.00,0.0076
2675.00,0.0076
2674.00,0.0076
2673.00,0.0076
2672.00,0.0076
2671.00,0.0076
2670.00,0.0076
2669.00,0.0075
2668.00,0.0075
2667.00,0.0075
2666.00,0.0075
2665.00,0.0076
2664.00,0.0076
2663.00,0.0076
2662.00,0.0077
2661.00,0.0077
2660.00,0.0077
2659.00,0.0077
2658.00,0.0078
2657.00,0.0078
2656.00,0.0078
2655.00,0.0078
2654.00,0.0078
2653.00,0.0078
2652.00,0.0078
2651.00,0.0079
2650.00,0.0079
2649.00,0.0079
2648.00,0.0079
2647.00,0.0079
2646.00,0.0079
2645.00,0.0079
2644.00,0.0079
2643.00,0.0078
2642.00,0.0078
2641.00,0.0078
2640.00,0.0078
2639.00,0.0078
2638.00,0.0078
2637.00,0.0078
2636.00,0.0078
2635.00,0.0078
2634.00,0.0077
2633.00,0.0077
2632.00,0.0077
2631.00,0.0077
2630.00,0.0078
2629.00,0.0078
2628.00,0.0078
2627.00,0.0079
2626.00,0.0079
2625.00,0.0079
2624.00,0.0079
2623.00,0.0080
2622.00,0.0080
2621.00,0.0080
2620.00,0.0081
2619.00,0.0081
2618.00,0.0080
2617.00,0.0080
2616.00,0.0080
2615.00,0.0080
2614.00,0.0080
2613.00,0.0079
2612.00,0.0079
2611.00,0.0079
2610.00,0.0078
2609.00,0.0078
2608.00,0.0078
2607.00,0.0078
2606.00,0.0078
2605.00,0.0077
2604.00,0.0077
2603.00,0.0076
2602.00,0.0076
2601.00,0.0076
2600.00,0.0075
2599.00,0.0075
2598.00,0.0075
2597.00,0.0075
2596.00,0.0075
2595.00,0.0075
2594.00,0.0074
2593.00,0.0074
2592.00,0.0074
2591.00,0.0073
2590.00,0.0073
2589.00,0.0074
2588.00,0.0074
2587.00,0.0074
2586.00,0.0073
2585.00,0.0073
2584.00,0.0073
2583.00,0.0073
2582.00,0.0073
2581.00,0.0073
2580.00,0.0073
2579.00,0.0072
2578.00,0.0072
2577.00,0.0072
2576.00,0.0072
2575.00,0.0071
2574.00,0.0071
2573.00,0.0071
2572.00,0.0071
2571.00,0.0071
2570.00,0.0070
2569.00,0.0070
2568.00,0.0070
2567.00,0.0070
2566.00,0.0070
2565.00,0.0070
2564.00,0.0069
2563.00,0.0069
2562.00,0.0069
2561.00,0.0069
2560.00,0.0070
2559.00,0.0070
2558.00,0.0070
2557.00,0.0070
2556.00,0.0070
2555.00,0.0069
2554.00,0.0069
2553.00,0.0069
2552.00,0.0069
2551.00,0.0069
2550.00,0.0070
2549.00,0.0070
2548.00,0.0070
2547.00,0.0070
2546.00,0.0070
2545.00,0.0070
2544.00,0.0070
2543.00,0.0071
2542.00,0.0071
2541.00,0.0071
2540.00,0.0071
2539.00,0.0071
2538.00,0.0070
2537.00,0.0070
2536.00,0.0070
2535.00,0.0071
2534.00,0.0071
2533.00,0.0071
2532.00,0.0071
2531.00,0.0070
2530.00,0.0070
2529.00,0.0070
2528.00,0.0070
2527.00,0.0069
2526.00,0.0069
2525.00,0.0068
2524.00,0.0068
2523.00,0.0068
2522.00,0.0068
2521.00,0.0068
2520.00,0.0068
2519.00,0.0067
2518.00,0.0067
2517.00,0.0067
2516.00,0.0067
2515.00,0.0067
2514.00,0.0067
2513.00,0.0067
2512.00,0.0067
2511.00,0.0067
2510.00,0.0067
2509.00,0.0067
2508.00,0.0067
2507.00,0.0066
2506.00,0.0066
2505.00,0.0065
2504.00,0.0065
2503.00,0.0065
2502.00,0.0065
2501.00,0.0065
2500.00,0.0065
2499.00,0.0065
2498.00,0.0066
2497.00,0.0066
2496.00,0.0066
2495.00,0.0067
2494.00,0.0067
2493.00,0.0068
2492.00,0.0068
2491.00,0.0067
2490.00,0.0067
2489.00,0.0068
2488.00,0.0068
2487.00,0.0069
2486.00,0.0069
2485.00,0.0068
2484.00,0.0068
2483.00,0.0067
2482.00,0.0066
2481.00,0.0066
2480.00,0.0066
2479.00,0.0065
2478.00,0.0065
2477.00,0.0065
2476.00,0.0065
2475.00,0.0065
2474.00,0.0065
2473.00,0.0065
2472.00,0.0065
2471.00,0.0065
2470.00,0.0065
2469.00,0.0065
2468.00,0.0066
2467.00,0.0066
2466.00,0.0066
2465.00,0.0066
2464.00,0.0066
2463.00,0.0066
2462.00,0.0067
2461.00,0.0067
2460.00,0.0068
2459.00,0.0068
2458.00,0.0069
2457.00,0.0069
2456.00,0.0070
2455.00,0.0070
2454.00,0.0070
2453.00,0.0070
2452.00,0.0069
2451.00,0.0069
2450.00,0.0069
2449.00,0.0069
2448.00,0.0070
2447.00,0.0069
2446.00,0.0069
2445.00,0.0068
2444.00,0.0067
2443.00,0.0066
2442.00,0.0066
2441.00,0.0066
2440.00,0.0066
2439.00,0.0066
2438.00,0.0066
2437.00,0.0066
2436.00,0.0066
2435.00,0.0065
2434.00,0.0065
2433.00,0.0065
2432.00,0.0064
2431.00,0.0064
2430.00,0.0064
2429.00,0.0064
2428.00,0.0064
2427.00,0.0064
2426.00,0.0064
2425.00,0.0064
2424.00,0.0064
2423.00,0.0064
2422.00,0.0064
2421.00,0.0064
2420.00,0.0064
2419.00,0.0064
2418.00,0.0063
2417.00,0.0063
2416.00,0.0063
2415.00,0.0063
2414.00,0.0063
2413.00,0.0063
2412.00,0.0063
2411.00,0.0063
2410.00,0.0062
2409.00,0.0062
2408.00,0.0061
2407.00,0.0061
2406.00,0.0061
2405.00,0.0061
2404.00,0.0061
2403.00,0.0061
2402.00,0.0061
2401.00,0.0061
2400.00,0.0061
2399.00,0.0061
2398.00,0.0061
2397.00,0.0061
2396.00,0.0061
2395.00,0.0061
2394.00,0.0060
2393.00,0.0060
2392.00,0.0060
2391.00,0.0060
2390.00,0.0060
2389.00,0.0060
2388.00,0.0060
2387.00,0.0060
2386.00,0.0060
2385.00,0.0060
2384.00,0.0059
2383.00,0.0059
2382.00,0.0058
2381.00,0.0058
2380.00,0.0058
2379.00,0.0058
2378.00,0.0058
2377.00,0.0058
2376.00,0.0059
2375.00,0.0059
2374.00,0.0059
2373.00,0.0058
2372.00,0.0057
2371.00,0.0056
2370.00,0.0056
2369.00,0.0055
2368.00,0.0056
2367.00,0.0056
2366.00,0.0056
2365.00,0.0057
2364.00,0.0057
2363.00,0.0058
2362.00,0.0059
2361.00,0.0059
2360.00,0.0060
2359.00,0.0059
2358.00,0.0059
2357.00,0.0058
2356.00,0.0058
2355.00,0.0059
2354.00,0.0059
2353.00,0.0059
2352.00,0.0058
2351.00,0.0057
2350.00,0.0057
2349.00,0.0058
2348.00,0.0059
2347.00,0.0061
2346.00,0.0061
2345.00,0.0061
2344.00,0.0060
2343.00,0.0060
2342.00,0.0060
2341.00,0.0061
2340.00,0.0062
2339.00,0.0062
2338.00,0.0062
2337.00,0.0061
2336.00,0.0061
2335.00,0.0061
2334.00,0.0061
2333.00,0.0060
2332.00,0.0060
2331.00,0.0059
2330.00,0.0059
2329.00,0.0060
2328.00,0.0063
2327.00,0.0067
2326.00,0.0069
2325.00,0.0071
2324.00,0.0070
2323.00,0.0068
2322.00,0.0066
2321.00,0.0065
2320.00,0.0063
2319.00,0.0062
2318.00,0.0061
2317.00,0.0061
2316.00,0.0061
2315.00,0.0061
2314.00,0.0060
2313.00,0.0059
2312.00,0.0059
2311.00,0.0058
2310.00,0.0057
2309.00,0.0057
2308.00,0.0057
2307.00,0.0057
2306.00,0.0056
2305.00,0.0057
2304.00,0.0057
2303.00,0.0057
2302.00,0.0057
2301.00,0.0058
2300.00,0.0058
2299.00,0.0058
2298.00,0.0059
2297.00,0.0060
2296.00,0.0061
2295.00,0.0062
2294.00,0.0063
2293.00,0.0064
2292.00,0.0065
2291.00,0.0066
2290.00,0.0066
2289.00,0.0067
2288.00,0.0068
2287.00,0.0069
2286.00,0.0068
2285.00,0.0068
2284.00,0.0067
2283.00,0.0066
2282.00,0.0065
2281.00,0.0065
2280.00,0.0064
2279.00,0.0064
2278.00,0.0063
2277.00,0.0062
2276.00,0.0062
2275.00,0.0062
2274.00,0.0062
2273.00,0.0062
2272.00,0.0062
2271.00,0.0062
2270.00,0.0061
2269.00,0.0060
2268.00,0.0060
2267.00,0.0059
2266.00,0.0058
2265.00,0.0058
2264.00,0.0058
2263.00,0.0057
2262.00,0.0057
2261.00,0.0058
2260.00,0.0058
2259.00,0.0058
2258.00,0.0056
2257.00,0.0055
2256.00,0.0053
2255.00,0.0052
2254.00,0.0051
2253.00,0.0051
2252.00,0.0052
2251.00,0.0052
2250.00,0.0052
2249.00,0.0052
2248.00,0.0052
2247.00,0.0052
2246.00,0.0051
2245.00,0.0051
2244.00,0.0051
2243.00,0.0050
2242.00,0.0050
2241.00,0.0049
2240.00,0.0049
2239.00,0.0049
2238.00,0.0048
2237.00,0.0048
2236.00,0.0048
2235.00,0.0048
2234.00,0.0048
2233.00,0.0047
2232.00,0.0047
2231.00,0.0046
2230.00,0.0046
2229.00,0.0045
2228.00,0.0045
2227.00,0.0045
2226.00,0.0046
2225.00,0.0047
2224.00,0.0047
2223.00,0.0047
2222.00,0.0047
2221.00,0.0046
2220.00,0.0047
2219.00,0.0047
2218.00,0.0047
2217.00,0.0047
2216.00,0.0048
2215.00,0.0048
2214.00,0.0047
2213.00,0.0047
2212.00,0.0047
2211.00,0.0046
2210.00,0.0045
2209.00,0.0044
2208.00,0.0044
2207.00,0.0044
2206.00,0.0043
2205.00,0.0043
2204.00,0.0043
2203.00,0.0042
2202.00,0.0042
2201.00,0.0043
2200.00,0.0045
2199.00,0.0046
2198.00,0.0047
2197.00,0.0047
2196.00,0.0048
2195.00,0.0047
2194.00,0.0046
2193.00,0.0045
2192.00,0.0046
2191.00,0.0046
2190.00,0.0047
2189.00,0.0047
2188.00,0.0047
2187.00,0.0046
2186.00,0.0045
2185.00,0.0044
2184.00,0.0042
2183.00,0.0040
2182.00,0.0039
2181.00,0.0040
2180.00,0.0042
2179.00,0.0044
2178.00,0.0043
2177.00,0.0041
2176.00,0.0041
2175.00,0.0043
2174.00,0.0045
2173.00,0.0048
2172.00,0.0050
2171.00,0.0052
2170.00,0.0054
2169.00,0.0056
2168.00,0.0058
2167.00,0.0058
2166.00,0.0057
2165.00,0.0058
2164.00,0.0060
2163.00,0.0059
2162.00,0.0053
2161.00,0.0042
2160.00,0.0031
2159.00,0.0022
2158.00,0.0018
2157.00,0.0019
2156.00,0.0022
2155.00,0.0025
2154.00,0.0027
2153.00,0.0030
2152.00,0.0031
2151.00,0.0031
2150.00,0.0031
2149.00,0.0032
2148.00,0.0033
2147.00,0.0033
2146.00,0.0032
2145.00,0.0032
2144.00,0.0032
2143.00,0.0032
2142.00,0.0031
2141.00,0.0031
2140.00,0.0032
2139.00,0.0032
2138.00,0.0031
2137.00,0.0029
2136.00,0.0026
2135.00,0.0025
2134.00,0.0024
2133.00,0.0026
2132.00,0.0029
2131.00,0.0032
2130.00,0.0033
2129.00,0.0034
2128.00,0.0035
2127.00,0.0036
2126.00,0.0037
2125.00,0.0039
2124.00,0.0040
2123.00,0.0040
2122.00,0.0040
2121.00,0.0040
2120.00,0.0040
2119.00,0.0041
2118.00,0.0041
2117.00,0.0043
2116.00,0.0044
2115.00,0.0045
2114.00,0.0045
2113.00,0.0045
2112.00,0.0044
2111.00,0.0044
2110.00,0.0044
2109.00,0.0043
2108.00,0.0043
2107.00,0.0043
2106.00,0.0043
2105.00,0.0044
2104.00,0.0045
2103.00,0.0045
2102.00,0.0046
2101.00,0.0046
2100.00,0.0046
2099.00,0.0045
2098.00,0.0044
2097.00,0.0043
2096.00,0.0042
2095.00,0.0041
2094.00,0.0041
2093.00,0.0042
2092.00,0.0044
2091.00,0.0045
2090.00,0.0045
2089.00,0.0046
2088.00,0.0047
2087.00,0.0048
2086.00,0.0048
2085.00,0.0048
2084.00,0.0049
2083.00,0.0049
2082.00,0.0048
2081.00,0.0048
2080.00,0.0048
2079.00,0.0049
2078.00,0.0049
2077.00,0.0049
2076.00,0.0049
2075.00,0.0048
2074.00,0.0047
2073.00,0.0047
2072.00,0.0047
2071.00,0.0046
2070.00,0.0046
2069.00,0.0046
2068.00,0.0046
2067.00,0.0046
2066.00,0.0045
2065.00,0.0044
2064.00,0.0043
2063.00,0.0042
2062.00,0.0042
2061.00,0.0042
2060.00,0.0043
2059.00,0.0043
2058.00,0.0042
2057.00,0.0040
2056.00,0.0039
2055.00,0.0039
2054.00,0.0040
2053.00,0.0044
2052.00,0.0047
2051.00,0.0046
2050.00,0.0042
2049.00,0.0036
2048.00,0.0032
2047.00,0.0029
2046.00,0.0027
2045.00,0.0027
2044.00,0.0027
2043.00,0.0026
2042.00,0.0025
2041.00,0.0025
2040.00,0.0026
2039.00,0.0025
2038.00,0.0024
2037.00,0.0022
2036.00,0.0021
2035.00,0.0020
2034.00,0.0018
2033.00,0.0018
2032.00,0.0019
2031.00,0.0020
2030.00,0.0020
2029.00,0.0021
2028.00,0.0021
2027.00,0.0021
2026.00,0.0020
2025.00,0.0021
2024.00,0.0023
2023.00,0.0025
2022.00,0.0026
2021.00,0.0026
2020.00,0.0026
2019.00,0.0026
2018.00,0.0024
2017.00,0.0025
2016.00,0.0026
2015.00,0.0027
2014.00,0.0027
2013.00,0.0028
2012.00,0.0029
2011.00,0.0030
2010.00,0.0031
2009.00,0.0031
2008.00,0.0032
2007.00,0.0032
2006.00,0.0033
2005.00,0.0035
2004.00,0.0039
2003.00,0.0041
2002.00,0.0040
2001.00,0.0040
2000.00,0.0039
1999.00,0.0038
1998.00,0.0038
1997.00,0.0039
1996.00,0.0041
1995.00,0.0041
1994.00,0.0040
1993.00,0.0040
1992.00,0.0041
1991.00,0.0040
1990.00,0.0039
1989.00,0.0038
1988.00,0.0039
1987.00,0.0040
1986.00,0.0040
1985.00,0.0041
1984.00,0.0045
1983.00,0.0047
1982.00,0.0049
1981.00,0.0049
1980.00,0.0046
1979.00,0.0041
1978.00,0.0035
1977.00,0.0031
1976.00,0.0030
1975.00,0.0029
1974.00,0.0028
1973.00,0.0028
1972.00,0.0031
1971.00,0.0032
1970.00,0.0032
1969.00,0.0031
1968.00,0.0032
1967.00,0.0033
1966.00,0.0033
1965.00,0.0033
1964.00,0.0035
1963.00,0.0035
1962.00,0.0034
1961.00,0.0033
1960.00,0.0032
1959.00,0.0032
1958.00,0.0031
1957.00,0.0031
1956.00,0.0032
1955.00,0.0032
1954.00,0.0032
1953.00,0.0033
1952.00,0.0035
1951.00,0.0036
1950.00,0.0036
1949.00,0.0036
1948.00,0.0036
1947.00,0.0036
1946.00,0.0035
1945.00,0.0036
1944.00,0.0038
1943.00,0.0039
1942.00,0.0039
1941.00,0.0038
1940.00,0.0037
1939.00,0.0037
1938.00,0.0037
1937.00,0.0037
1936.00,0.0039
1935.00,0.0040
1934.00,0.0040
1933.00,0.0041
1932.00,0.0042
1931.00,0.0043
1930.00,0.0043
1929.00,0.0043
1928.00,0.0043
1927.00,0.0042
1926.00,0.0042
1925.00,0.0043
1924.00,0.0044
1923.00,0.0045
1922.00,0.0045
1921.00,0.0045
1920.00,0.0046
1919.00,0.0047
1918.00,0.0047
1917.00,0.0046
1916.00,0.0044
1915.00,0.0043
1914.00,0.0041
1913.00,0.0041
1912.00,0.0041
1911.00,0.0041
1910.00,0.0040
1909.00,0.0040
1908.00,0.0040
1907.00,0.0040
1906.00,0.0039
1905.00,0.0038
1904.00,0.0038
1903.00,0.0037
1902.00,0.0037
1901.00,0.0037
1900.00,0.0037
1899.00,0.0038
1898.00,0.0038
1897.00,0.0038
1896.00,0.0039
1895.00,0.0039
1894.00,0.0039
1893.00,0.0039
1892.00,0.0040
1891.00,0.0041
1890.00,0.0042
1889.00,0.0042
1888.00,0.0042
1887.00,0.0041
1886.00,0.0040
1885.00,0.0039
1884.00,0.0039
1883.00,0.0039
1882.00,0.0038
1881.00,0.0037
1880.00,0.0037
1879.00,0.0037
1878.00,0.0036
1877.00,0.0036
1876.00,0.0036
1875.00,0.0036
1874.00,0.0036
1873.00,0.0036
1872.00,0.0038
1871.00,0.0040
1870.00,0.0042
1869.00,0.0042
1868.00,0.0042
1867.00,0.0040
1866.00,0.0039
1865.00,0.0038
1864.00,0.0038
1863.00,0.0038
1862.00,0.0037
1861.00,0.0038
1860.00,0.0038
1859.00,0.0039
1858.00,0.0038
1857.00,0.0039
1856.00,0.0040
1855.00,0.0041
1854.00,0.0042
1853.00,0.0043
1852.00,0.0044
1851.00,0.0045
1850.00,0.0046
1849.00,0.0046
1848.00,0.0047
1847.00,0.0047
1846.00,0.0047
1845.00,0.0046
1844.00,0.0045
1843.00,0.0043
1842.00,0.0041
1841.00,0.0039
1840.00,0.0038
1839.00,0.0038
1838.00,0.0037
1837.00,0.0037
1836.00,0.0038
1835.00,0.0038
1834.00,0.0038
1833.00,0.0039
1832.00,0.0041
1831.00,0.0042
1830.00,0.0042
1829.00,0.0041
1828.00,0.0042
1827.00,0.0042
1826.00,0.0043
1825.00,0.0043
1824.00,0.0042
1823.00,0.0040
1822.00,0.0038
1821.00,0.0036
1820.00,0.0036
1819.00,0.0036
1818.00,0.0036
1817.00,0.0036
1816.00,0.0036
1815.00,0.0036
1814.00,0.0036
1813.00,0.0037
1812.00,0.0039
1811.00,0.0039
1810.00,0.0039
1809.00,0.0039
1808.00,0.0040
1807.00,0.0040
1806.00,0.0040
1805.00,0.0040
1804.00,0.0042
1803.00,0.0045
1802.00,0.0047
1801.00,0.0048
1800.00,0.0047
1799.00,0.0046
1798.00,0.0044
1797.00,0.0044
1796.00,0.0045
1795.00,0.0046
1794.00,0.0047
1793.00,0.0048
1792.00,0.0049
1791.00,0.0049
1790.00,0.0047
1789.00,0.0045
1788.00,0.0045
1787.00,0.0045
1786.00,0.0046
1785.00,0.0047
1784.00,0.0047
1783.00,0.0047
1782.00,0.0047
1781.00,0.0047
1780.00,0.0047
1779.00,0.0047
1778.00,0.0046
1777.00,0.0046
1776.00,0.0047
1775.00,0.0047
1774.00,0.0046
1773.00,0.0044
1772.00,0.0044
1771.00,0.0046
1770.00,0.0049
1769.00,0.0052
1768.00,0.0054
1767.00,0.0053
1766.00,0.0051
1765.00,0.0051
1764.00,0.0053
1763.00,0.0055
1762.00,0.0056
1761.00,0.0057
1760.00,0.0058
1759.00,0.0058
1758.00,0.0059
1757.00,0.0060
1756.00,0.0061
1755.00,0.0060
1754.00,0.0060
1753.00,0.0060
1752.00,0.0062
1751.00,0.0064
1750.00,0.0065
1749.00,0.0065
1748.00,0.0066
1747.00,0.0066
1746.00,0.0065
1745.00,0.0066
1744.00,0.0068
1743.00,0.0070
1742.00,0.0070
1741.00,0.0071
1740.00,0.0072
1739.00,0.0073
1738.00,0.0074
1737.00,0.0075
1736.00,0.0077
1735.00,0.0078
1734.00,0.0077
1733.00,0.0077
1732.00,0.0080
1731.00,0.0085
1730.00,0.0088
1729.00,0.0090
1728.00,0.0091
1727.00,0.0092
1726.00,0.0092
1725.00,0.0093
1724.00,0.0095
1723.00,0.0097
1722.00,0.0099
1721.00,0.0103
1720.00,0.0109
1719.00,0.0113
1718.00,0.0116
1717.00,0.0121
1716.00,0.0133
1715.00,0.0147
1714.00,0.0161
1713.00,0.0174
1712.00,0.0186
1711.00,0.0199
1710.00,0.0212
1709.00,0.0227
1708.00,0.0243
1707.00,0.0261
1706.00,0.0278
1705.00,0.0294
1704.00,0.0309
1703.00,0.0320
1702.00,0.0333
1701.00,0.0355
1700.00,0.0383
1699.00,0.0403
1698.00,0.0421
1697.00,0.0457
1696.00,0.0524
1695.00,0.0616
1694.00,0.0713
1693.00,0.0813
1692.00,0.0924
1691.00,0.1043
1690.00,0.1157
1689.00,0.1244
1688.00,0.1291
1687.00,0.1300
1686.00,0.1290
1685.00,0.1291
1684.00,0.1324
1683.00,0.1377
1682.00,0.1434
1681.00,0.1494
1680.00,0.1559
1679.00,0.1614
1678.00,0.1644
1677.00,0.1641
1676.00,0.1602
1675.00,0.1527
1674.00,0.1430
1673.00,0.1329
1672.00,0.1228
1671.00,0.1126
1670.00,0.1022
1669.00,0.0927
1668.00,0.0849
1667.00,0.0788
1666.00,0.0739
1665.00,0.0697
1664.00,0.0658
1663.00,0.0623
1662.00,0.0593
1661.00,0.0569
1660.00,0.0548
1659.00,0.0531
1658.00,0.0520
1657.00,0.0513
1656.00,0.0509
1655.00,0.0511
1654.00,0.0536
1653.00,0.0591
1652.00,0.0648
1651.00,0.0689
1650.00,0.0726
1649.00,0.0759
1648.00,0.0786
1647.00,0.0799
1646.00,0.0793
1645.00,0.0768
1644.00,0.0730
1643.00,0.0688
1642.00,0.0644
1641.00,0.0601
1640.00,0.0564
1639.00,0.0533
1638.00,0.0509
1637.00,0.0491
1636.00,0.0485
1635.00,0.0492
1634.00,0.0506
1633.00,0.0524
1632.00,0.0543
1631.00,0.0566
1630.00,0.0590
1629.00,0.0614
1628.00,0.0633
1627.00,0.0645
1626.00,0.0651
1625.00,0.0653
1624.00,0.0655
1623.00,0.0657
1622.00,0.0659
1621.00,0.0657
1620.00,0.0652
1619.00,0.0642
1618.00,0.0628
1617.00,0.0612
1616.00,0.0594
1615.00,0.0578
1614.00,0.0561
1613.00,0.0542
1612.00,0.0520
1611.00,0.0498
1610.00,0.0482
1609.00,0.0472
1608.00,0.0471
1607.00,0.0481
1606.00,0.0497
1605.00,0.0512
1604.00,0.0517
1603.00,0.0507
1602.00,0.0482
1601.00,0.0445
1600.00,0.0406
1599.00,0.0370
1598.00,0.0341
1597.00,0.0316
1596.00,0.0296
1595.00,0.0279
1594.00,0.0265
1593.00,0.0253
1592.00,0.0242
1591.00,0.0231
1590.00,0.0222
1589.00,0.0213
1588.00,0.0204
1587.00,0.0197
1586.00,0.0190
1585.00,0.0186
1584.00,0.0182
1583.00,0.0179
1582.00,0.0179
1581.00,0.0181
1580.00,0.0185
1579.00,0.0190
1578.00,0.0196
1577.00,0.0206
1576.00,0.0220
1575.00,0.0232
1574.00,0.0237
1573.00,0.0235
1572.00,0.0226
1571.00,0.0213
1570.00,0.0198
1569.00,0.0186
1568.00,0.0177
1567.00,0.0170
1566.00,0.0166
1565.00,0.0162
1564.00,0.0159
1563.00,0.0156
1562.00,0.0153
1561.00,0.0153
1560.00,0.0154
1559.00,0.0152
1558.00,0.0151
1557.00,0.0153
1556.00,0.0153
1555.00,0.0154
1554.00,0.0154
1553.00,0.0156
1552.00,0.0160
1551.00,0.0164
1550.00,0.0170
1549.00,0.0174
1548.00,0.0177
1547.00,0.0182
1546.00,0.0191
1545.00,0.0202
1544.00,0.0211
1543.00,0.0217
1542.00,0.0226
1541.00,0.0240
1540.00,0.0267
1539.00,0.0307
1538.00,0.0353
1537.00,0.0403
1536.00,0.0463
1535.00,0.0547
1534.00,0.0669
1533.00,0.0816
1532.00,0.0954
1531.00,0.1069
1530.00,0.1170
1529.00,0.1259
1528.00,0.1328
1527.00,0.1365
1526.00,0.1364
1525.00,0.1328
1524.00,0.1270
1523.00,0.1196
1522.00,0.1109
1521.00,0.1017
1520.00,0.0939
1519.00,0.0878
1518.00,0.0824
1517.00,0.0770
1516.00,0.0721
1515.00,0.0679
1514.00,0.0644
1513.00,0.0613
1512.00,0.0589
1511.00,0.0573
1510.00,0.0564
1509.00,0.0562
1508.00,0.0574
1507.00,0.0609
1506.00,0.0665
1505.00,0.0719
1504.00,0.0768
1503.00,0.0822
1502.00,0.0883
1501.00,0.0951
1500.00,0.1022
1499.00,0.1091
1498.00,0.1156
1497.00,0.1212
1496.00,0.1251
1495.00,0.1273
1494.00,0.1280
1493.00,0.1274
1492.00,0.1262
1491.00,0.1244
1490.00,0.1221
1489.00,0.1189
1488.00,0.1150
1487.00,0.1107
1486.00,0.1064
1485.00,0.1021
1484.00,0.0978
1483.00,0.0938
1482.00,0.0901
1481.00,0.0867
1480.00,0.0837
1479.00,0.0810
1478.00,0.0787
1477.00,0.0764
1476.00,0.0739
1475.00,0.0712
1474.00,0.0685
1473.00,0.0661
1472.00,0.0640
1471.00,0.0625
1470.00,0.0613
1469.00,0.0603
1468.00,0.0596
1467.00,0.0591
1466.00,0.0587
1465.00,0.0581
1464.00,0.0572
1463.00,0.0561
1462.00,0.0551
1461.00,0.0543
1460.00,0.0537
1459.00,0.0531
1458.00,0.0528
1457.00,0.0526
1456.00,0.0522
1455.00,0.0516
1454.00,0.0511
1453.00,0.0507
1452.00,0.0506
1451.00,0.0509
1450.00,0.0517
1449.00,0.0532
1448.00,0.0555
1447.00,0.0582
1446.00,0.0611
1445.00,0.0638
1444.00,0.0661
1443.00,0.0678
1442.00,0.0691
1441.00,0.0706
1440.00,0.0727
1439.00,0.0762
1438.00,0.0820
1437.00,0.0908
1436.00,0.1008
1435.00,0.1094
1434.00,0.1162
1433.00,0.1218
1432.00,0.1253
1431.00,0.1254
1430.00,0.1215
1429.00,0.1146
1428.00,0.1065
1427.00,0.0983
1426.00,0.0908
1425.00,0.0840
1424.00,0.0778
1423.00,0.0725
1422.00,0.0681
1421.00,0.0643
1420.00,0.0607
1419.00,0.0572
1418.00,0.0538
1417.00,0.0507
1416.00,0.0479
1415.00,0.0452
1414.00,0.0428
1413.00,0.0406
1412.00,0.0387
1411.00,0.0370
1410.00,0.0353
1409.00,0.0339
1408.00,0.0325
1407.00,0.0314
1406.00,0.0304
1405.00,0.0294
1404.00,0.0283
1403.00,0.0273
1402.00,0.0265
1401.00,0.0259
1400.00,0.0255
1399.00,0.0252
1398.00,0.0249
1397.00,0.0246
1396.00,0.0245
1395.00,0.0247
1394.00,0.0251
1393.00,0.0257
1392.00,0.0264
1391.00,0.0275
1390.00,0.0290
1389.00,0.0307
1388.00,0.0324
1387.00,0.0338
1386.00,0.0350
1385.00,0.0359
1384.00,0.0370
1383.00,0.0386
1382.00,0.0405
1381.00,0.0425
1380.00,0.0439
1379.00,0.0444
1378.00,0.0436
1377.00,0.0417
1376.00,0.0391
1375.00,0.0362
1374.00,0.0335
1373.00,0.0311
1372.00,0.0292
1371.00,0.0279
1370.00,0.0270
1369.00,0.0266
1368.00,0.0265
1367.00,0.0268
1366.00,0.0275
1365.00,0.0287
1364.00,0.0305
1363.00,0.0328
1362.00,0.0353
1361.00,0.0379
1360.00,0.0405
1359.00,0.0435
1358.00,0.0471
1357.00,0.0515
1356.00,0.0571
1355.00,0.0644
1354.00,0.0736
1353.00,0.0847
1352.00,0.0971
1351.00,0.1094
1350.00,0.1195
1349.00,0.1255
1348.00,0.1265
1347.00,0.1235
1346.00,0.1183
1345.00,0.1132
1344.00,0.1094
1343.00,0.1072
1342.00,0.1063
1341.00,0.1055
1340.00,0.1040
1339.00,0.1011
1338.00,0.0968
1337.00,0.0914
1336.00,0.0854
1335.00,0.0793
1334.00,0.0734
1333.00,0.0680
1332.00,0.0634
1331.00,0.0597
1330.00,0.0571
1329.00,0.0554
1328.00,0.0547
1327.00,0.0549
1326.00,0.0562
1325.00,0.0588
1324.00,0.0629
1323.00,0.0681
1322.00,0.0741
1321.00,0.0799
1320.00,0.0850
1319.00,0.0891
1318.00,0.0925
1317.00,0.0956
1316.00,0.0989
1315.00,0.1027
1314.00,0.1067
1313.00,0.1106
1312.00,0.1138
1311.00,0.1163
1310.00,0.1176
1309.00,0.1176
1308.00,0.1158
1307.00,0.1126
1306.00,0.1081
1305.00,0.1031
1304.00,0.0979
1303.00,0.0929
1302.00,0.0883
1301.00,0.0840
1300.00,0.0802
1299.00,0.0768
1298.00,0.0740
1297.00,0.0718
1296.00,0.0703
1295.00,0.0695
1294.00,0.0694
1293.00,0.0698
1292.00,0.0704
1291.00,0.0707
1290.00,0.0704
1289.00,0.0693
1288.00,0.0676
1287.00,0.0656
1286.00,0.0636
1285.00,0.0618
1284.00,0.0602
1283.00,0.0589
1282.00,0.0578
1281.00,0.0570
1280.00,0.0563
1279.00,0.0558
1278.00,0.0556
1277.00,0.0555
1276.00,0.0556
1275.00,0.0559
1274.00,0.0564
1273.00,0.0570
1272.00,0.0576
1271.00,0.0580
1270.00,0.0579
1269.00,0.0569
1268.00,0.0550
1267.00,0.0524
1266.00,0.0494
1265.00,0.0462
1264.00,0.0433
1263.00,0.0407
1262.00,0.0385
1261.00,0.0367
1260.00,0.0352
1259.00,0.0341
1258.00,0.0332
1257.00,0.0326
1256.00,0.0323
1255.00,0.0321
1254.00,0.0321
1253.00,0.0323
1252.00,0.0325
1251.00,0.0330
1250.00,0.0335
1249.00,0.0342
1248.00,0.0351
1247.00,0.0361
1246.00,0.0374
1245.00,0.0390
1244.00,0.0411
1243.00,0.0439
1242.00,0.0476
1241.00,0.0523
1240.00,0.0578
1239.00,0.0637
1238.00,0.0695
1237.00,0.0753
1236.00,0.0817
1235.00,0.0895
1234.00,0.0994
1233.00,0.1112
1232.00,0.1246
1231.00,0.1391
1230.00,0.1541
1229.00,0.1690
1228.00,0.1831
1227.00,0.1954
1226.00,0.2049
1225.00,0.2108
1224.00,0.2128
1223.00,0.2113
1222.00,0.2071
1221.00,0.2010
1220.00,0.1941
1219.00,0.1867
1218.00,0.1793
1217.00,0.1720
1216.00,0.1650
1215.00,0.1581
1214.00,0.1512
1213.00,0.1444
1212.00,0.1377
1211.00,0.1311
1210.00,0.1246
1209.00,0.1183
1208.00,0.1123
1207.00,0.1067
1206.00,0.1014
1205.00,0.0965
1204.00,0.0919
1203.00,0.0878
1202.00,0.0842
1201.00,0.0813
1200.00,0.0792
1199.00,0.0783
1198.00,0.0790
1197.00,0.0815
1196.00,0.0863
1195.00,0.0934
1194.00,0.1026
1193.00,0.1130
1192.00,0.1232
1191.00,0.1316
1190.00,0.1367
1189.00,0.1378
1188.00,0.1349
1187.00,0.1291
1186.00,0.1216
1185.00,0.1137
1184.00,0.1061
1183.00,0.0991
1182.00,0.0926
1181.00,0.0865
1180.00,0.0808
1179.00,0.0755
1178.00,0.0709
1177.00,0.0668
1176.00,0.0635
1175.00,0.0607
1174.00,0.0586
1173.00,0.0570
1172.00,0.0562
1171.00,0.0561
1170.00,0.0571
1169.00,0.0593
1168.00,0.0628
1167.00,0.0672
1166.00,0.0718
1165.00,0.0752
1164.00,0.0762
1163.00,0.0745
1162.00,0.0704
1161.00,0.0651
1160.00,0.0598
1159.00,0.0557
1158.00,0.0535
1157.00,0.0539
1156.00,0.0571
1155.00,0.0630
1154.00,0.0703
1153.00,0.0770
1152.00,0.0807
1151.00,0.0802
1150.00,0.0762
1149.00,0.0703
1148.00,0.0643
1147.00,0.0589
1146.00,0.0545
1145.00,0.0509
1144.00,0.0479
1143.00,0.0456
1142.00,0.0439
1141.00,0.0429
1140.00,0.0426
1139.00,0.0429
1138.00,0.0435
1137.00,0.0443
1136.00,0.0451
1135.00,0.0457
1134.00,0.0465
1133.00,0.0476
1132.00,0.0493
1131.00,0.0520
1130.00,0.0562
1129.00,0.0622
1128.00,0.0704
1127.00,0.0812
1126.00,0.0945
1125.00,0.1098
1124.00,0.1261
1123.00,0.1417
1122.00,0.1549
1121.00,0.1642
1120.00,0.1689
1119.00,0.1691
1118.00,0.1656
1117.00,0.1595
1116.00,0.1519
1115.00,0.1435
1114.00,0.1352
1113.00,0.1273
1112.00,0.1203
1111.00,0.1147
1110.00,0.1107
1109.00,0.1087
1108.00,0.1089
1107.00,0.1114
1106.00,0.1160
1105.00,0.1223
1104.00,0.1294
1103.00,0.1358
1102.00,0.1402
1101.00,0.1419
1100.00,0.1404
1099.00,0.1363
1098.00,0.1303
1097.00,0.1235
1096.00,0.1163
1095.00,0.1093
1094.00,0.1027
1093.00,0.0964
1092.00,0.0906
1091.00,0.0852
1090.00,0.0801
1089.00,0.0755
1088.00,0.0714
1087.00,0.0677
1086.00,0.0645
1085.00,0.0616
1084.00,0.0591
1083.00,0.0569
1082.00,0.0549
1081.00,0.0532
1080.00,0.0516
1079.00,0.0503
1078.00,0.0492
1077.00,0.0483
1076.00,0.0477
1075.00,0.0474
1074.00,0.0475
1073.00,0.0478
1072.00,0.0482
1071.00,0.0484
1070.00,0.0480
1069.00,0.0471
1068.00,0.0458
1067.00,0.0446
1066.00,0.0437
1065.00,0.0434
1064.00,0.0438
1063.00,0.0451
1062.00,0.0475
1061.00,0.0510
1060.00,0.0558
1059.00,0.0617
1058.00,0.0682
1057.00,0.0745
1056.00,0.0795
1055.00,0.0826
1054.00,0.0834
1053.00,0.0824
1052.00,0.0804
1051.00,0.0779
1050.00,0.0754
1049.00,0.0729
1048.00,0.0702
1047.00,0.0673
1046.00,0.0645
1045.00,0.0621
1044.00,0.0601
1043.00,0.0588
1042.00,0.0580
1041.00,0.0577
1040.00,0.0577
1039.00,0.0581
1038.00,0.0587
1037.00,0.0594
1036.00,0.0601
1035.00,0.0610
1034.00,0.0621
1033.00,0.0635
1032.00,0.0653
1031.00,0.0679
1030.00,0.0714
1029.00,0.0760
1028.00,0.0818
1027.00,0.0885
1026.00,0.0960
1025.00,0.1037
1024.00,0.1108
1023.00,0.1166
1022.00,0.1203
1021.00,0.1215
1020.00,0.1204
1019.00,0.1171
1018.00,0.1124
1017.00,0.1068
1016.00,0.1008
1015.00,0.0947
1014.00,0.0889
1013.00,0.0834
1012.00,0.0784
1011.00,0.0739
1010.00,0.0699
1009.00,0.0663
1008.00,0.0631
1007.00,0.0604
1006.00,0.0581
1005.00,0.0562
1004.00,0.0549
1003.00,0.0537
1002.00,0.0526
1001.00,0.0513
1000.00,0.0497
999.00,0.0480
998.00,0.0464
997.00,0.0449
996.00,0.0437
995.00,0.0425
994.00,0.0415
993.00,0.0406
992.00,0.0398
991.00,0.0389
990.00,0.0382
989.00,0.0375
988.00,0.0369
987.00,0.0363
986.00,0.0358
985.00,0.0354
984.00,0.0349
983.00,0.0344
982.00,0.0340
981.00,0.0335
980.00,0.0331
979.00,0.0327
978.00,0.0322
977.00,0.0318
976.00,0.0313
975.00,0.0309
974.00,0.0306
973.00,0.0305
972.00,0.0308
971.00,0.0311
970.00,0.0314
969.00,0.0315
968.00,0.0312
967.00,0.0309
966.00,0.0309
965.00,0.0317
964.00,0.0331
963.00,0.0343
962.00,0.0348
961.00,0.0344
960.00,0.0334
959.00,0.0328
958.00,0.0332
957.00,0.0344
956.00,0.0361
955.00,0.0373
954.00,0.0376
953.00,0.0368
952.00,0.0354
951.00,0.0337
950.00,0.0320
949.00,0.0306
948.00,0.0294
947.00,0.0284
946.00,0.0275
945.00,0.0268
944.00,0.0261
943.00,0.0256
942.00,0.0251
941.00,0.0247
940.00,0.0244
939.00,0.0242
938.00,0.0239
937.00,0.0237
936.00,0.0236
935.00,0.0235
934.00,0.0234
933.00,0.0234
932.00,0.0233
931.00,0.0232
930.00,0.0232
929.00,0.0232
928.00,0.0231
927.00,0.0231
926.00,0.0230
925.00,0.0229
924.00,0.0228
923.00,0.0228
922.00,0.0227
921.00,0.0226
920.00,0.0225
919.00,0.0224
918.00,0.0223
917.00,0.0222
916.00,0.0221
915.00,0.0220
914.00,0.0218
913.00,0.0217
912.00,0.0216
911.00,0.0215
910.00,0.0213
909.00,0.0212
908.00,0.0211
907.00,0.0210
906.00,0.0208
905.00,0.0207
904.00,0.0206
903.00,0.0205
902.00,0.0204
901.00,0.0203
900.00,0.0201
899.00,0.0200
898.00,0.0199
897.00,0.0198
896.00,0.0197
895.00,0.0196
894.00,0.0195
893.00,0.0195
892.00,0.0194
891.00,0.0194
890.00,0.0193
889.00,0.0194
888.00,0.0195
887.00,0.0198
886.00,0.0203
885.00,0.0210
884.00,0.0214
883.00,0.0214
882.00,0.0209
881.00,0.0202
880.00,0.0195
879.00,0.0189
878.00,0.0185
877.00,0.0182
876.00,0.0181
875.00,0.0179
874.00,0.0178
873.00,0.0177
872.00,0.0176
871.00,0.0175
870.00,0.0174
869.00,0.0175
868.00,0.0176
867.00,0.0178
866.00,0.0183
865.00,0.0191
864.00,0.0207
863.00,0.0241
862.00,0.0307
861.00,0.0412
860.00,0.0533
859.00,0.0620
858.00,0.0630
857.00,0.0563
856.00,0.0463
855.00,0.0373
854.00,0.0311
853.00,0.0273
852.00,0.0249
851.00,0.0234
850.00,0.0225
849.00,0.0218
848.00,0.0211
847.00,0.0207
846.00,0.0204
845.00,0.0202
844.00,0.0202
843.00,0.0204
842.00,0.0211
841.00,0.0223
840.00,0.0247
839.00,0.0288
838.00,0.0352
837.00,0.0435
836.00,0.0527
835.00,0.0616
834.00,0.0695
833.00,0.0769
832.00,0.0847
831.00,0.0924
830.00,0.0983
829.00,0.1004
828.00,0.0980
827.00,0.0920
826.00,0.0839
825.00,0.0753
824.00,0.0672
823.00,0.0602
822.00,0.0542
821.00,0.0489
820.00,0.0442
819.00,0.0401
818.00,0.0365
817.00,0.0334
816.00,0.0308
815.00,0.0288
814.00,0.0274
813.00,0.0266
812.00,0.0264
811.00,0.0269
810.00,0.0280
809.00,0.0295
808.00,0.0309
807.00,0.0318
806.00,0.0317
805.00,0.0304
804.00,0.0286
803.00,0.0269
802.00,0.0262
801.00,0.0266
800.00,0.0290
799.00,0.0344
798.00,0.0447
797.00,0.0609
796.00,0.0813
795.00,0.1012
794.00,0.1137
793.00,0.1150
792.00,0.1071
791.00,0.0954
790.00,0.0841
789.00,0.0745
788.00,0.0664
787.00,0.0592
786.00,0.0530
785.00,0.0481
784.00,0.0444
783.00,0.0417
782.00,0.0396
781.00,0.0379
780.00,0.0364
779.00,0.0352
778.00,0.0344
777.00,0.0342
776.00,0.0350
775.00,0.0369
774.00,0.0396
773.00,0.0417
772.00,0.0422
771.00,0.0411
770.00,0.0394
769.00,0.0388
768.00,0.0410
767.00,0.0473
766.00,0.0577
765.00,0.0707
764.00,0.0831
763.00,0.0907
762.00,0.0913
761.00,0.0858
760.00,0.0772
759.00,0.0685
758.00,0.0612
757.00,0.0557
756.00,0.0516
755.00,0.0488
754.00,0.0470
753.00,0.0463
752.00,0.0470
751.00,0.0498
750.00,0.0554
749.00,0.0644
748.00,0.0768
747.00,0.0910
746.00,0.1035
745.00,0.1106
744.00,0.1103
743.00,0.1038
742.00,0.0939
741.00,0.0832
740.00,0.0733
739.00,0.0647
738.00,0.0574
737.00,0.0513
736.00,0.0463
735.00,0.0423
734.00,0.0392
733.00,0.0367
732.00,0.0347
731.00,0.0331
730.00,0.0317
729.00,0.0306
728.00,0.0298
727.00,0.0291
726.00,0.0287
725.00,0.0284
724.00,0.0285
723.00,0.0288
722.00,0.0295
721.00,0.0307
720.00,0.0330
719.00,0.0367
718.00,0.0429
717.00,0.0528
716.00,0.0672
715.00,0.0855
714.00,0.1043
713.00,0.1180
712.00,0.1225
711.00,0.1173
710.00,0.1058
709.00,0.0923
708.00,0.0798
707.00,0.0696
706.00,0.0618
705.00,0.0561
704.00,0.0520
703.00,0.0491
702.00,0.0470
701.00,0.0456
700.00,0.0448
699.00,0.0446
698.00,0.0449
697.00,0.0459
696.00,0.0475
695.00,0.0499
694.00,0.0533
693.00,0.0577
692.00,0.0631
691.00,0.0693
690.00,0.0761
689.00,0.0825
688.00,0.0876
687.00,0.0902
686.00,0.0896
685.00,0.0860
684.00,0.0802
683.00,0.0739
682.00,0.0682
681.00,0.0640
680.00,0.0614
679.00,0.0607
678.00,0.0618
677.00,0.0644
676.00,0.0677
675.00,0.0708
674.00,0.0724
673.00,0.0719
672.00,0.0695
671.00,0.0663
670.00,0.0631
669.00,0.0606
668.00,0.0592
667.00,0.0590
666.00,0.0594
665.00,0.0599
664.00,0.0603
663.00,0.0605
662.00,0.0602
661.00,0.0593
660.00,0.0578
659.00,0.0558
658.00,0.0537
657.00,0.0515
656.00,0.0494
655.00,0.0473
654.00,0.0453
653.00,0.0435
652.00,0.0417
651.00,0.0401
650.00,0.0386
649.00,0.0371
648.00,0.0358
647.00,0.0347
646.00,0.0336
645.00,0.0327
644.00,0.0317
643.00,0.0308
642.00,0.0300
641.00,0.0293
640.00,0.0285
639.00,0.0279
638.00,0.0274
637.00,0.0272
636.00,0.0270
635.00,0.0270
634.00,0.0273
633.00,0.0280
632.00,0.0291
631.00,0.0310
630.00,0.0340
629.00,0.0384
628.00,0.0444
627.00,0.0518
626.00,0.0600
625.00,0.0674
624.00,0.0725
623.00,0.0746
622.00,0.0735
621.00,0.0701
620.00,0.0655
619.00,0.0606
618.00,0.0561
617.00,0.0522
616.00,0.0491
615.00,0.0470
614.00,0.0457
613.00,0.0454
612.00,0.0461
611.00,0.0475
610.00,0.0493
609.00,0.0506
608.00,0.0509
607.00,0.0499
606.00,0.0478
605.00,0.0451
604.00,0.0423
603.00,0.0397
602.00,0.0377
601.00,0.0362
600.00,0.0351
599.00,0.0342
598.00,0.0338
597.00,0.0338
596.00,0.0343
595.00,0.0356
594.00,0.0380
593.00,0.0411
592.00,0.0445
591.00,0.0470
590.00,0.0478
589.00,0.0472
588.00,0.0464
587.00,0.0466
586.00,0.0480
585.00,0.0496
584.00,0.0500
583.00,0.0485
582.00,0.0456
581.00,0.0422
580.00,0.0391
579.00,0.0368
578.00,0.0352
577.00,0.0339
576.00,0.0330
575.00,0.0322
574.00,0.0317
573.00,0.0317
572.00,0.0321
571.00,0.0330
570.00,0.0342
569.00,0.0356
568.00,0.0369
567.00,0.0382
566.00,0.0395
565.00,0.0405
564.00,0.0410
563.00,0.0406
562.00,0.0393
561.00,0.0374
560.00,0.0353
559.00,0.0334
558.00,0.0318
557.00,0.0306
556.00,0.0295
555.00,0.0287
554.00,0.0280
553.00,0.0274
552.00,0.0270
551.00,0.0266
550.00,0.0261
549.00,0.0257
548.00,0.0254
547.00,0.0251
546.00,0.0249
545.00,0.0247
544.00,0.0243
543.00,0.0240
542.00,0.0238
541.00,0.0236
540.00,0.0235
539.00,0.0235
538.00,0.0235
537.00,0.0234
536.00,0.0231
535.00,0.0228
534.00,0.0225
533.00,0.0221
532.00,0.0219
531.00,0.0218
530.00,0.0218
529.00,0.0218
528.00,0.0218
527.00,0.0218
526.00,0.0217
525.00,0.0215
524.00,0.0212
523.00,0.0210
522.00,0.0210
521.00,0.0210
520.00,0.0210
519.00,0.0210
518.00,0.0210
517.00,0.0213
516.00,0.0217
515.00,0.0224
514.00,0.0234
513.00,0.0243
512.00,0.0247
511.00,0.0244
510.00,0.0236
509.00,0.0227
508.00,0.0219
507.00,0.0213
506.00,0.0209
505.00,0.0207
504.00,0.0206
503.00,0.0206
502.00,0.0205
501.00,0.0202
500.00,0.0197
499.00,0.0192
498.00,0.0189
497.00,0.0188
496.00,0.0188
495.00,0.0189
494.00,0.0190
493.00,0.0190
492.00,0.0189
491.00,0.0188
490.00,0.0189
489.00,0.0191
488.00,0.0194
487.00,0.0196
486.00,0.0198
485.00,0.0199
484.00,0.0200
483.00,0.0203
482.00,0.0207
481.00,0.0212
480.00,0.0217
479.00,0.0225
478.00,0.0237
477.00,0.0249
476.00,0.0264
475.00,0.0282
474.00,0.0309
473.00,0.0341
472.00,0.0375
471.00,0.0407
470.00,0.0435
469.00,0.0457
468.00,0.0471
467.00,0.0474
466.00,0.0467
465.00,0.0451
464.00,0.0431
463.00,0.0407
462.00,0.0382
461.00,0.0361
460.00,0.0344
459.00,0.0330
458.00,0.0315
457.00,0.0297
456.00,0.0279
455.00,0.0267
454.00,0.0262
453.00,0.0260
452.00,0.0258
451.00,0.0253
450.00,0.0248
449.00,0.0243
448.00,0.0237
447.00,0.0232
446.00,0.0228
445.00,0.0227
444.00,0.0226
443.00,0.0225
442.00,0.0224
441.00,0.0222
440.00,0.0219
439.00,0.0219
438.00,0.0221
437.00,0.0222
436.00,0.0222
435.00,0.0220
434.00,0.0218
433.00,0.0216
432.00,0.0215
431.00,0.0216
430.00,0.0220
429.00,0.0224
428.00,0.0223
427.00,0.0222
426.00,0.0224
425.00,0.0230
424.00,0.0238
423.00,0.0250
422.00,0.0264
421.00,0.0282
420.00,0.0303
419.00,0.0327
418.00,0.0352
417.00,0.0374
416.00,0.0396
415.00,0.0421
414.00,0.0447
413.00,0.0466
412.00,0.0475
411.00,0.0476
410.00,0.0475
409.00,0.0471
408.00,0.0464
407.00,0.0451
406.00,0.0428
405.00,0.0397
404.00,0.0365
403.00,0.0340
402.00,0.0323
401.00,0.0316
400.00,0.0319
