Created as New Dataset,Sample 885 By YargerLab Date Wednesday, July 23 2025
cm-1,A
4000.00,0.0015
3999.00,0.0015
3998.00,0.0015
3997.00,0.0014
3996.00,0.0014
3995.00,0.0014
3994.00,0.0014
3993.00,0.0014
3992.00,0.0015
3991.00,0.0015
3990.00,0.0015
3989.00,0.0015
3988.00,0.0015
3987.00,0.0015
3986.00,0.0015
3985.00,0.0016
3984.00,0.0016
3983.00,0.0016
3982.00,0.0016
3981.00,0.0016
3980.00,0.0016
3979.00,0.0016
3978.00,0.0016
3977.00,0.0016
3976.00,0.0016
3975.00,0.0016
3974.00,0.0016
3973.00,0.0016
3972.00,0.0016
3971.00,0.0016
3970.00,0.0016
3969.00,0.0016
3968.00,0.0016
3967.00,0.0016
3966.00,0.0016
3965.00,0.0016
3964.00,0.0016
3963.00,0.0016
3962.00,0.0016
3961.00,0.0017
3960.00,0.0017
3959.00,0.0016
3958.00,0.0016
3957.00,0.0016
3956.00,0.0017
3955.00,0.0017
3954.00,0.0017
3953.00,0.0017
3952.00,0.0017
3951.00,0.0017
3950.00,0.0016
3949.00,0.0016
3948.00,0.0016
3947.00,0.0016
3946.00,0.0016
3945.00,0.0016
3944.00,0.0016
3943.00,0.0016
3942.00,0.0016
3941.00,0.0016
3940.00,0.0016
3939.00,0.0016
3938.00,0.0016
3937.00,0.0016
3936.00,0.0016
3935.00,0.0016
3934.00,0.0016
3933.00,0.0016
3932.00,0.0016
3931.00,0.0015
3930.00,0.0015
3929.00,0.0015
3928.00,0.0015
3927.00,0.0015
3926.00,0.0015
3925.00,0.0015
3924.00,0.0015
3923.00,0.0015
3922.00,0.0015
3921.00,0.0015
3920.00,0.0015
3919.00,0.0015
3918.00,0.0015
3917.00,0.0015
3916.00,0.0015
3915.00,0.0015
3914.00,0.0015
3913.00,0.0015
3912.00,0.0015
3911.00,0.0015
3910.00,0.0015
3909.00,0.0015
3908.00,0.0015
3907.00,0.0015
3906.00,0.0015
3905.00,0.0014
3904.00,0.0014
3903.00,0.0014
3902.00,0.0014
3901.00,0.0014
3900.00,0.0014
3899.00,0.0014
3898.00,0.0014
3897.00,0.0014
3896.00,0.0014
3895.00,0.0014
3894.00,0.0014
3893.00,0.0014
3892.00,0.0014
3891.00,0.0014
3890.00,0.0014
3889.00,0.0014
3888.00,0.0014
3887.00,0.0014
3886.00,0.0014
3885.00,0.0014
3884.00,0.0014
3883.00,0.0014
3882.00,0.0013
3881.00,0.0013
3880.00,0.0013
3879.00,0.0013
3878.00,0.0013
3877.00,0.0013
3876.00,0.0013
3875.00,0.0013
3874.00,0.0013
3873.00,0.0013
3872.00,0.0013
3871.00,0.0013
3870.00,0.0013
3869.00,0.0013
3868.00,0.0013
3867.00,0.0013
3866.00,0.0013
3865.00,0.0012
3864.00,0.0012
3863.00,0.0013
3862.00,0.0013
3861.00,0.0013
3860.00,0.0012
3859.00,0.0012
3858.00,0.0012
3857.00,0.0012
3856.00,0.0012
3855.00,0.0012
3854.00,0.0012
3853.00,0.0012
3852.00,0.0012
3851.00,0.0012
3850.00,0.0012
3849.00,0.0012
3848.00,0.0013
3847.00,0.0013
3846.00,0.0013
3845.00,0.0012
3844.00,0.0012
3843.00,0.0012
3842.00,0.0011
3841.00,0.0011
3840.00,0.0011
3839.00,0.0011
3838.00,0.0011
3837.00,0.0010
3836.00,0.0011
3835.00,0.0011
3834.00,0.0011
3833.00,0.0011
3832.00,0.0011
3831.00,0.0011
3830.00,0.0011
3829.00,0.0011
3828.00,0.0011
3827.00,0.0011
3826.00,0.0012
3825.00,0.0011
3824.00,0.0011
3823.00,0.0011
3822.00,0.0011
3821.00,0.0011
3820.00,0.0011
3819.00,0.0011
3818.00,0.0011
3817.00,0.0011
3816.00,0.0011
3815.00,0.0011
3814.00,0.0011
3813.00,0.0011
3812.00,0.0011
3811.00,0.0011
3810.00,0.0011
3809.00,0.0011
3808.00,0.0010
3807.00,0.0010
3806.00,0.0010
3805.00,0.0010
3804.00,0.0010
3803.00,0.0010
3802.00,0.0010
3801.00,0.0010
3800.00,0.0010
3799.00,0.0010
3798.00,0.0010
3797.00,0.0010
3796.00,0.0010
3795.00,0.0010
3794.00,0.0010
3793.00,0.0010
3792.00,0.0010
3791.00,0.0010
3790.00,0.0010
3789.00,0.0010
3788.00,0.0010
3787.00,0.0010
3786.00,0.0010
3785.00,0.0010
3784.00,0.0010
3783.00,0.0010
3782.00,0.0010
3781.00,0.0010
3780.00,0.0010
3779.00,0.0010
3778.00,0.0010
3777.00,0.0010
3776.00,0.0010
3775.00,0.0010
3774.00,0.0010
3773.00,0.0010
3772.00,0.0009
3771.00,0.0009
3770.00,0.0009
3769.00,0.0009
3768.00,0.0009
3767.00,0.0009
3766.00,0.0009
3765.00,0.0009
3764.00,0.0009
3763.00,0.0009
3762.00,0.0010
3761.00,0.0010
3760.00,0.0010
3759.00,0.0010
3758.00,0.0010
3757.00,0.0009
3756.00,0.0009
3755.00,0.0009
3754.00,0.0008
3753.00,0.0008
3752.00,0.0008
3751.00,0.0008
3750.00,0.0009
3749.00,0.0009
3748.00,0.0009
3747.00,0.0009
3746.00,0.0009
3745.00,0.0009
3744.00,0.0010
3743.00,0.0010
3742.00,0.0010
3741.00,0.0010
3740.00,0.0010
3739.00,0.0009
3738.00,0.0009
3737.00,0.0009
3736.00,0.0009
3735.00,0.0009
3734.00,0.0009
3733.00,0.0009
3732.00,0.0009
3731.00,0.0009
3730.00,0.0009
3729.00,0.0009
3728.00,0.0009
3727.00,0.0009
3726.00,0.0009
3725.00,0.0009
3724.00,0.0009
3723.00,0.0009
3722.00,0.0009
3721.00,0.0009
3720.00,0.0009
3719.00,0.0009
3718.00,0.0009
3717.00,0.0009
3716.00,0.0009
3715.00,0.0009
3714.00,0.0009
3713.00,0.0009
3712.00,0.0009
3711.00,0.0009
3710.00,0.0009
3709.00,0.0009
3708.00,0.0009
3707.00,0.0010
3706.00,0.0010
3705.00,0.0010
3704.00,0.0010
3703.00,0.0010
3702.00,0.0010
3701.00,0.0010
3700.00,0.0010
3699.00,0.0010
3698.00,0.0010
3697.00,0.0010
3696.00,0.0011
3695.00,0.0011
3694.00,0.0011
3693.00,0.0011
3692.00,0.0011
3691.00,0.0011
3690.00,0.0011
3689.00,0.0011
3688.00,0.0010
3687.00,0.0011
3686.00,0.0011
3685.00,0.0011
3684.00,0.0012
3683.00,0.0012
3682.00,0.0012
3681.00,0.0012
3680.00,0.0012
3679.00,0.0012
3678.00,0.0012
3677.00,0.0012
3676.00,0.0012
3675.00,0.0012
3674.00,0.0012
3673.00,0.0012
3672.00,0.0012
3671.00,0.0012
3670.00,0.0013
3669.00,0.0013
3668.00,0.0013
3667.00,0.0013
3666.00,0.0013
3665.00,0.0013
3664.00,0.0013
3663.00,0.0013
3662.00,0.0013
3661.00,0.0013
3660.00,0.0014
3659.00,0.0014
3658.00,0.0014
3657.00,0.0014
3656.00,0.0014
3655.00,0.0015
3654.00,0.0015
3653.00,0.0015
3652.00,0.0016
3651.00,0.0016
3650.00,0.0016
3649.00,0.0016
3648.00,0.0016
3647.00,0.0017
3646.00,0.0017
3645.00,0.0018
3644.00,0.0018
3643.00,0.0019
3642.00,0.0019
3641.00,0.0019
3640.00,0.0019
3639.00,0.0020
3638.00,0.0020
3637.00,0.0021
3636.00,0.0021
3635.00,0.0022
3634.00,0.0023
3633.00,0.0024
3632.00,0.0025
3631.00,0.0026
3630.00,0.0027
3629.00,0.0028
3628.00,0.0029
3627.00,0.0030
3626.00,0.0031
3625.00,0.0033
3624.00,0.0034
3623.00,0.0035
3622.00,0.0036
3621.00,0.0038
3620.00,0.0039
3619.00,0.0041
3618.00,0.0042
3617.00,0.0043
3616.00,0.0043
3615.00,0.0044
3614.00,0.0044
3613.00,0.0045
3612.00,0.0045
3611.00,0.0046
3610.00,0.0047
3609.00,0.0047
3608.00,0.0048
3607.00,0.0048
3606.00,0.0049
3605.00,0.0049
3604.00,0.0050
3603.00,0.0050
3602.00,0.0051
3601.00,0.0052
3600.00,0.0053
3599.00,0.0054
3598.00,0.0055
3597.00,0.0055
3596.00,0.0056
3595.00,0.0058
3594.00,0.0059
3593.00,0.0060
3592.00,0.0061
3591.00,0.0062
3590.00,0.0063
3589.00,0.0064
3588.00,0.0066
3587.00,0.0068
3586.00,0.0069
3585.00,0.0071
3584.00,0.0072
3583.00,0.0073
3582.00,0.0075
3581.00,0.0077
3580.00,0.0078
3579.00,0.0080
3578.00,0.0082
3577.00,0.0083
3576.00,0.0085
3575.00,0.0087
3574.00,0.0089
3573.00,0.0091
3572.00,0.0093
3571.00,0.0095
3570.00,0.0096
3569.00,0.0098
3568.00,0.0101
3567.00,0.0103
3566.00,0.0106
3565.00,0.0109
3564.00,0.0111
3563.00,0.0113
3562.00,0.0116
3561.00,0.0118
3560.00,0.0121
3559.00,0.0123
3558.00,0.0126
3557.00,0.0128
3556.00,0.0131
3555.00,0.0134
3554.00,0.0136
3553.00,0.0139
3552.00,0.0142
3551.00,0.0145
3550.00,0.0148
3549.00,0.0151
3548.00,0.0155
3547.00,0.0158
3546.00,0.0162
3545.00,0.0166
3544.00,0.0170
3543.00,0.0174
3542.00,0.0178
3541.00,0.0182
3540.00,0.0185
3539.00,0.0190
3538.00,0.0194
3537.00,0.0199
3536.00,0.0205
3535.00,0.0210
3534.00,0.0216
3533.00,0.0222
3532.00,0.0229
3531.00,0.0236
3530.00,0.0245
3529.00,0.0254
3528.00,0.0263
3527.00,0.0274
3526.00,0.0284
3525.00,0.0294
3524.00,0.0303
3523.00,0.0312
3522.00,0.0318
3521.00,0.0323
3520.00,0.0327
3519.00,0.0329
3518.00,0.0330
3517.00,0.0329
3516.00,0.0328
3515.00,0.0326
3514.00,0.0324
3513.00,0.0321
3512.00,0.0319
3511.00,0.0317
3510.00,0.0316
3509.00,0.0315
3508.00,0.0315
3507.00,0.0316
3506.00,0.0317
3505.00,0.0319
3504.00,0.0321
3503.00,0.0324
3502.00,0.0328
3501.00,0.0331
3500.00,0.0335
3499.00,0.0339
3498.00,0.0343
3497.00,0.0347
3496.00,0.0352
3495.00,0.0357
3494.00,0.0361
3493.00,0.0366
3492.00,0.0372
3491.00,0.0377
3490.00,0.0383
3489.00,0.0388
3488.00,0.0394
3487.00,0.0400
3486.00,0.0406
3485.00,0.0412
3484.00,0.0418
3483.00,0.0425
3482.00,0.0432
3481.00,0.0440
3480.00,0.0447
3479.00,0.0454
3478.00,0.0462
3477.00,0.0469
3476.00,0.0476
3475.00,0.0484
3474.00,0.0491
3473.00,0.0499
3472.00,0.0507
3471.00,0.0515
3470.00,0.0523
3469.00,0.0531
3468.00,0.0539
3467.00,0.0547
3466.00,0.0555
3465.00,0.0563
3464.00,0.0570
3463.00,0.0578
3462.00,0.0586
3461.00,0.0593
3460.00,0.0600
3459.00,0.0607
3458.00,0.0614
3457.00,0.0621
3456.00,0.0627
3455.00,0.0634
3454.00,0.0640
3453.00,0.0646
3452.00,0.0652
3451.00,0.0657
3450.00,0.0662
3449.00,0.0666
3448.00,0.0671
3447.00,0.0676
3446.00,0.0680
3445.00,0.0685
3444.00,0.0688
3443.00,0.0692
3442.00,0.0696
3441.00,0.0699
3440.00,0.0703
3439.00,0.0706
3438.00,0.0710
3437.00,0.0712
3436.00,0.0715
3435.00,0.0716
3434.00,0.0718
3433.00,0.0719
3432.00,0.0721
3431.00,0.0723
3430.00,0.0724
3429.00,0.0726
3428.00,0.0727
3427.00,0.0728
3426.00,0.0729
3425.00,0.0731
3424.00,0.0732
3423.00,0.0733
3422.00,0.0735
3421.00,0.0737
3420.00,0.0739
3419.00,0.0741
3418.00,0.0742
3417.00,0.0744
3416.00,0.0746
3415.00,0.0748
3414.00,0.0749
3413.00,0.0751
3412.00,0.0752
3411.00,0.0752
3410.00,0.0752
3409.00,0.0752
3408.00,0.0750
3407.00,0.0748
3406.00,0.0745
3405.00,0.0742
3404.00,0.0738
3403.00,0.0734
3402.00,0.0729
3401.00,0.0724
3400.00,0.0717
3399.00,0.0710
3398.00,0.0703
3397.00,0.0695
3396.00,0.0688
3395.00,0.0682
3394.00,0.0676
3393.00,0.0670
3392.00,0.0664
3391.00,0.0658
3390.00,0.0651
3389.00,0.0645
3388.00,0.0639
3387.00,0.0633
3386.00,0.0628
3385.00,0.0623
3384.00,0.0618
3383.00,0.0613
3382.00,0.0609
3381.00,0.0604
3380.00,0.0600
3379.00,0.0596
3378.00,0.0591
3377.00,0.0587
3376.00,0.0583
3375.00,0.0579
3374.00,0.0575
3373.00,0.0571
3372.00,0.0567
3371.00,0.0563
3370.00,0.0559
3369.00,0.0555
3368.00,0.0551
3367.00,0.0547
3366.00,0.0542
3365.00,0.0538
3364.00,0.0534
3363.00,0.0529
3362.00,0.0525
3361.00,0.0521
3360.00,0.0517
3359.00,0.0512
3358.00,0.0508
3357.00,0.0504
3356.00,0.0500
3355.00,0.0496
3354.00,0.0491
3353.00,0.0487
3352.00,0.0483
3351.00,0.0479
3350.00,0.0475
3349.00,0.0471
3348.00,0.0466
3347.00,0.0462
3346.00,0.0458
3345.00,0.0454
3344.00,0.0450
3343.00,0.0446
3342.00,0.0442
3341.00,0.0438
3340.00,0.0434
3339.00,0.0430
3338.00,0.0425
3337.00,0.0421
3336.00,0.0417
3335.00,0.0413
3334.00,0.0409
3333.00,0.0404
3332.00,0.0400
3331.00,0.0396
3330.00,0.0392
3329.00,0.0389
3328.00,0.0385
3327.00,0.0381
3326.00,0.0378
3325.00,0.0374
3324.00,0.0370
3323.00,0.0366
3322.00,0.0362
3321.00,0.0359
3320.00,0.0355
3319.00,0.0351
3318.00,0.0348
3317.00,0.0344
3316.00,0.0340
3315.00,0.0337
3314.00,0.0333
3313.00,0.0330
3312.00,0.0327
3311.00,0.0323
3310.00,0.0320
3309.00,0.0317
3308.00,0.0313
3307.00,0.0310
3306.00,0.0307
3305.00,0.0303
3304.00,0.0300
3303.00,0.0297
3302.00,0.0294
3301.00,0.0291
3300.00,0.0288
3299.00,0.0284
3298.00,0.0281
3297.00,0.0278
3296.00,0.0275
3295.00,0.0272
3294.00,0.0270
3293.00,0.0267
3292.00,0.0264
3291.00,0.0262
3290.00,0.0260
3289.00,0.0257
3288.00,0.0254
3287.00,0.0252
3286.00,0.0249
3285.00,0.0247
3284.00,0.0244
3283.00,0.0242
3282.00,0.0239
3281.00,0.0237
3280.00,0.0235
3279.00,0.0232
3278.00,0.0230
3277.00,0.0227
3276.00,0.0224
3275.00,0.0222
3274.00,0.0219
3273.00,0.0216
3272.00,0.0214
3271.00,0.0212
3270.00,0.0211
3269.00,0.0210
3268.00,0.0209
3267.00,0.0208
3266.00,0.0207
3265.00,0.0206
3264.00,0.0204
3263.00,0.0202
3262.00,0.0200
3261.00,0.0198
3260.00,0.0197
3259.00,0.0195
3258.00,0.0193
3257.00,0.0190
3256.00,0.0188
3255.00,0.0187
3254.00,0.0185
3253.00,0.0184
3252.00,0.0182
3251.00,0.0180
3250.00,0.0178
3249.00,0.0175
3248.00,0.0173
3247.00,0.0171
3246.00,0.0169
3245.00,0.0168
3244.00,0.0167
3243.00,0.0166
3242.00,0.0164
3241.00,0.0162
3240.00,0.0161
3239.00,0.0159
3238.00,0.0157
3237.00,0.0156
3236.00,0.0154
3235.00,0.0152
3234.00,0.0150
3233.00,0.0149
3232.00,0.0148
3231.00,0.0147
3230.00,0.0146
3229.00,0.0145
3228.00,0.0143
3227.00,0.0142
3226.00,0.0141
3225.00,0.0140
3224.00,0.0139
3223.00,0.0138
3222.00,0.0137
3221.00,0.0137
3220.00,0.0136
3219.00,0.0135
3218.00,0.0134
3217.00,0.0133
3216.00,0.0132
3215.00,0.0132
3214.00,0.0131
3213.00,0.0130
3212.00,0.0130
3211.00,0.0129
3210.00,0.0128
3209.00,0.0127
3208.00,0.0126
3207.00,0.0125
3206.00,0.0123
3205.00,0.0122
3204.00,0.0121
3203.00,0.0120
3202.00,0.0120
3201.00,0.0119
3200.00,0.0118
3199.00,0.0117
3198.00,0.0116
3197.00,0.0115
3196.00,0.0114
3195.00,0.0113
3194.00,0.0112
3193.00,0.0111
3192.00,0.0110
3191.00,0.0109
3190.00,0.0109
3189.00,0.0108
3188.00,0.0107
3187.00,0.0107
3186.00,0.0106
3185.00,0.0106
3184.00,0.0106
3183.00,0.0105
3182.00,0.0105
3181.00,0.0104
3180.00,0.0104
3179.00,0.0103
3178.00,0.0103
3177.00,0.0103
3176.00,0.0102
3175.00,0.0102
3174.00,0.0102
3173.00,0.0101
3172.00,0.0101
3171.00,0.0100
3170.00,0.0100
3169.00,0.0100
3168.00,0.0099
3167.00,0.0099
3166.00,0.0098
3165.00,0.0097
3164.00,0.0096
3163.00,0.0096
3162.00,0.0095
3161.00,0.0094
3160.00,0.0094
3159.00,0.0093
3158.00,0.0092
3157.00,0.0091
3156.00,0.0090
3155.00,0.0089
3154.00,0.0087
3153.00,0.0086
3152.00,0.0086
3151.00,0.0086
3150.00,0.0087
3149.00,0.0087
3148.00,0.0086
3147.00,0.0086
3146.00,0.0086
3145.00,0.0085
3144.00,0.0084
3143.00,0.0083
3142.00,0.0082
3141.00,0.0081
3140.00,0.0080
3139.00,0.0080
3138.00,0.0080
3137.00,0.0080
3136.00,0.0080
3135.00,0.0079
3134.00,0.0079
3133.00,0.0078
3132.00,0.0077
3131.00,0.0077
3130.00,0.0076
3129.00,0.0076
3128.00,0.0076
3127.00,0.0075
3126.00,0.0075
3125.00,0.0075
3124.00,0.0074
3123.00,0.0074
3122.00,0.0073
3121.00,0.0072
3120.00,0.0072
3119.00,0.0072
3118.00,0.0072
3117.00,0.0072
3116.00,0.0072
3115.00,0.0072
3114.00,0.0072
3113.00,0.0072
3112.00,0.0072
3111.00,0.0072
3110.00,0.0072
3109.00,0.0072
3108.00,0.0072
3107.00,0.0073
3106.00,0.0073
3105.00,0.0073
3104.00,0.0074
3103.00,0.0074
3102.00,0.0074
3101.00,0.0074
3100.00,0.0075
3099.00,0.0076
3098.00,0.0077
3097.00,0.0078
3096.00,0.0079
3095.00,0.0080
3094.00,0.0081
3093.00,0.0082
3092.00,0.0083
3091.00,0.0085
3090.00,0.0087
3089.00,0.0090
3088.00,0.0093
3087.00,0.0096
3086.00,0.0100
3085.00,0.0103
3084.00,0.0108
3083.00,0.0112
3082.00,0.0117
3081.00,0.0123
3080.00,0.0129
3079.00,0.0136
3078.00,0.0143
3077.00,0.0150
3076.00,0.0157
3075.00,0.0162
3074.00,0.0166
3073.00,0.0167
3072.00,0.0165
3071.00,0.0161
3070.00,0.0155
3069.00,0.0148
3068.00,0.0141
3067.00,0.0133
3066.00,0.0126
3065.00,0.0119
3064.00,0.0112
3063.00,0.0107
3062.00,0.0102
3061.00,0.0099
3060.00,0.0095
3059.00,0.0093
3058.00,0.0091
3057.00,0.0090
3056.00,0.0089
3055.00,0.0088
3054.00,0.0088
3053.00,0.0088
3052.00,0.0088
3051.00,0.0089
3050.00,0.0089
3049.00,0.0090
3048.00,0.0091
3047.00,0.0093
3046.00,0.0094
3045.00,0.0096
3044.00,0.0098
3043.00,0.0101
3042.00,0.0103
3041.00,0.0105
3040.00,0.0108
3039.00,0.0110
3038.00,0.0112
3037.00,0.0114
3036.00,0.0116
3035.00,0.0117
3034.00,0.0118
3033.00,0.0118
3032.00,0.0118
3031.00,0.0117
3030.00,0.0116
3029.00,0.0115
3028.00,0.0113
3027.00,0.0111
3026.00,0.0109
3025.00,0.0107
3024.00,0.0106
3023.00,0.0105
3022.00,0.0104
3021.00,0.0103
3020.00,0.0103
3019.00,0.0103
3018.00,0.0103
3017.00,0.0103
3016.00,0.0103
3015.00,0.0104
3014.00,0.0104
3013.00,0.0105
3012.00,0.0107
3011.00,0.0108
3010.00,0.0110
3009.00,0.0113
3008.00,0.0115
3007.00,0.0117
3006.00,0.0119
3005.00,0.0121
3004.00,0.0123
3003.00,0.0125
3002.00,0.0128
3001.00,0.0131
3000.00,0.0134
2999.00,0.0137
2998.00,0.0140
2997.00,0.0144
2996.00,0.0148
2995.00,0.0151
2994.00,0.0155
2993.00,0.0159
2992.00,0.0163
2991.00,0.0167
2990.00,0.0172
2989.00,0.0177
2988.00,0.0181
2987.00,0.0186
2986.00,0.0190
2985.00,0.0195
2984.00,0.0200
2983.00,0.0207
2982.00,0.0215
2981.00,0.0227
2980.00,0.0240
2979.00,0.0256
2978.00,0.0273
2977.00,0.0292
2976.00,0.0313
2975.00,0.0335
2974.00,0.0359
2973.00,0.0386
2972.00,0.0415
2971.00,0.0446
2970.00,0.0480
2969.00,0.0514
2968.00,0.0547
2967.00,0.0579
2966.00,0.0607
2965.00,0.0632
2964.00,0.0653
2963.00,0.0671
2962.00,0.0685
2961.00,0.0696
2960.00,0.0705
2959.00,0.0710
2958.00,0.0713
2957.00,0.0711
2956.00,0.0707
2955.00,0.0699
2954.00,0.0688
2953.00,0.0675
2952.00,0.0661
2951.00,0.0648
2950.00,0.0637
2949.00,0.0630
2948.00,0.0629
2947.00,0.0635
2946.00,0.0648
2945.00,0.0667
2944.00,0.0693
2943.00,0.0724
2942.00,0.0759
2941.00,0.0798
2940.00,0.0840
2939.00,0.0884
2938.00,0.0931
2937.00,0.0980
2936.00,0.1030
2935.00,0.1080
2934.00,0.1129
2933.00,0.1175
2932.00,0.1219
2931.00,0.1257
2930.00,0.1291
2929.00,0.1319
2928.00,0.1340
2927.00,0.1354
2926.00,0.1361
2925.00,0.1359
2924.00,0.1350
2923.00,0.1333
2922.00,0.1310
2921.00,0.1283
2920.00,0.1253
2919.00,0.1222
2918.00,0.1191
2917.00,0.1161
2916.00,0.1131
2915.00,0.1102
2914.00,0.1073
2913.00,0.1043
2912.00,0.1013
2911.00,0.0982
2910.00,0.0951
2909.00,0.0920
2908.00,0.0890
2907.00,0.0861
2906.00,0.0833
2905.00,0.0807
2904.00,0.0783
2903.00,0.0760
2902.00,0.0739
2901.00,0.0718
2900.00,0.0697
2899.00,0.0677
2898.00,0.0657
2897.00,0.0638
2896.00,0.0619
2895.00,0.0602
2894.00,0.0586
2893.00,0.0571
2892.00,0.0558
2891.00,0.0546
2890.00,0.0536
2889.00,0.0527
2888.00,0.0519
2887.00,0.0512
2886.00,0.0506
2885.00,0.0500
2884.00,0.0496
2883.00,0.0493
2882.00,0.0492
2881.00,0.0494
2880.00,0.0498
2879.00,0.0505
2878.00,0.0515
2877.00,0.0528
2876.00,0.0543
2875.00,0.0558
2874.00,0.0572
2873.00,0.0584
2872.00,0.0591
2871.00,0.0593
2870.00,0.0590
2869.00,0.0584
2868.00,0.0579
2867.00,0.0578
2866.00,0.0583
2865.00,0.0595
2864.00,0.0615
2863.00,0.0643
2862.00,0.0675
2861.00,0.0710
2860.00,0.0745
2859.00,0.0776
2858.00,0.0800
2857.00,0.0813
2856.00,0.0813
2855.00,0.0800
2854.00,0.0775
2853.00,0.0741
2852.00,0.0701
2851.00,0.0658
2850.00,0.0614
2849.00,0.0570
2848.00,0.0528
2847.00,0.0488
2846.00,0.0452
2845.00,0.0419
2844.00,0.0391
2843.00,0.0367
2842.00,0.0349
2841.00,0.0336
2840.00,0.0328
2839.00,0.0325
2838.00,0.0325
2837.00,0.0328
2836.00,0.0333
2835.00,0.0338
2834.00,0.0343
2833.00,0.0346
2832.00,0.0347
2831.00,0.0343
2830.00,0.0334
2829.00,0.0320
2828.00,0.0301
2827.00,0.0279
2826.00,0.0256
2825.00,0.0234
2824.00,0.0213
2823.00,0.0196
2822.00,0.0180
2821.00,0.0168
2820.00,0.0157
2819.00,0.0148
2818.00,0.0141
2817.00,0.0135
2816.00,0.0129
2815.00,0.0125
2814.00,0.0120
2813.00,0.0117
2812.00,0.0114
2811.00,0.0111
2810.00,0.0108
2809.00,0.0105
2808.00,0.0103
2807.00,0.0101
2806.00,0.0098
2805.00,0.0096
2804.00,0.0094
2803.00,0.0092
2802.00,0.0090
2801.00,0.0089
2800.00,0.0087
2799.00,0.0085
2798.00,0.0084
2797.00,0.0082
2796.00,0.0081
2795.00,0.0079
2794.00,0.0078
2793.00,0.0076
2792.00,0.0075
2791.00,0.0074
2790.00,0.0073
2789.00,0.0072
2788.00,0.0071
2787.00,0.0070
2786.00,0.0069
2785.00,0.0068
2784.00,0.0067
2783.00,0.0066
2782.00,0.0065
2781.00,0.0065
2780.00,0.0064
2779.00,0.0063
2778.00,0.0062
2777.00,0.0062
2776.00,0.0061
2775.00,0.0061
2774.00,0.0060
2773.00,0.0060
2772.00,0.0059
2771.00,0.0058
2770.00,0.0058
2769.00,0.0057
2768.00,0.0057
2767.00,0.0057
2766.00,0.0056
2765.00,0.0056
2764.00,0.0056
2763.00,0.0056
2762.00,0.0056
2761.00,0.0056
2760.00,0.0056
2759.00,0.0055
2758.00,0.0055
2757.00,0.0055
2756.00,0.0056
2755.00,0.0056
2754.00,0.0056
2753.00,0.0056
2752.00,0.0056
2751.00,0.0056
2750.00,0.0056
2749.00,0.0056
2748.00,0.0057
2747.00,0.0057
2746.00,0.0058
2745.00,0.0058
2744.00,0.0059
2743.00,0.0060
2742.00,0.0061
2741.00,0.0062
2740.00,0.0063
2739.00,0.0064
2738.00,0.0065
2737.00,0.0067
2736.00,0.0069
2735.00,0.0071
2734.00,0.0073
2733.00,0.0075
2732.00,0.0076
2731.00,0.0077
2730.00,0.0078
2729.00,0.0077
2728.00,0.0077
2727.00,0.0076
2726.00,0.0074
2725.00,0.0072
2724.00,0.0070
2723.00,0.0068
2722.00,0.0066
2721.00,0.0065
2720.00,0.0063
2719.00,0.0061
2718.00,0.0060
2717.00,0.0059
2716.00,0.0058
2715.00,0.0057
2714.00,0.0056
2713.00,0.0055
2712.00,0.0055
2711.00,0.0054
2710.00,0.0053
2709.00,0.0053
2708.00,0.0052
2707.00,0.0052
2706.00,0.0052
2705.00,0.0051
2704.00,0.0051
2703.00,0.0051
2702.00,0.0051
2701.00,0.0051
2700.00,0.0051
2699.00,0.0051
2698.00,0.0051
2697.00,0.0051
2696.00,0.0051
2695.00,0.0051
2694.00,0.0051
2693.00,0.0052
2692.00,0.0052
2691.00,0.0052
2690.00,0.0052
2689.00,0.0052
2688.00,0.0053
2687.00,0.0053
2686.00,0.0053
2685.00,0.0054
2684.00,0.0054
2683.00,0.0055
2682.00,0.0055
2681.00,0.0055
2680.00,0.0056
2679.00,0.0056
2678.00,0.0056
2677.00,0.0057
2676.00,0.0057
2675.00,0.0057
2674.00,0.0057
2673.00,0.0058
2672.00,0.0058
2671.00,0.0058
2670.00,0.0059
2669.00,0.0059
2668.00,0.0059
2667.00,0.0059
2666.00,0.0058
2665.00,0.0058
2664.00,0.0058
2663.00,0.0057
2662.00,0.0057
2661.00,0.0056
2660.00,0.0056
2659.00,0.0055
2658.00,0.0054
2657.00,0.0054
2656.00,0.0053
2655.00,0.0053
2654.00,0.0052
2653.00,0.0052
2652.00,0.0051
2651.00,0.0051
2650.00,0.0050
2649.00,0.0050
2648.00,0.0049
2647.00,0.0049
2646.00,0.0049
2645.00,0.0048
2644.00,0.0048
2643.00,0.0048
2642.00,0.0048
2641.00,0.0048
2640.00,0.0048
2639.00,0.0048
2638.00,0.0047
2637.00,0.0047
2636.00,0.0047
2635.00,0.0047
2634.00,0.0047
2633.00,0.0047
2632.00,0.0047
2631.00,0.0046
2630.00,0.0046
2629.00,0.0046
2628.00,0.0047
2627.00,0.0047
2626.00,0.0047
2625.00,0.0047
2624.00,0.0047
2623.00,0.0047
2622.00,0.0047
2621.00,0.0046
2620.00,0.0046
2619.00,0.0046
2618.00,0.0046
2617.00,0.0046
2616.00,0.0046
2615.00,0.0046
2614.00,0.0046
2613.00,0.0046
2612.00,0.0046
2611.00,0.0046
2610.00,0.0045
2609.00,0.0045
2608.00,0.0045
2607.00,0.0044
2606.00,0.0044
2605.00,0.0045
2604.00,0.0045
2603.00,0.0045
2602.00,0.0045
2601.00,0.0045
2600.00,0.0044
2599.00,0.0044
2598.00,0.0044
2597.00,0.0044
2596.00,0.0044
2595.00,0.0044
2594.00,0.0044
2593.00,0.0044
2592.00,0.0044
2591.00,0.0044
2590.00,0.0043
2589.00,0.0043
2588.00,0.0043
2587.00,0.0044
2586.00,0.0044
2585.00,0.0044
2584.00,0.0044
2583.00,0.0044
2582.00,0.0044
2581.00,0.0044
2580.00,0.0044
2579.00,0.0044
2578.00,0.0044
2577.00,0.0044
2576.00,0.0044
2575.00,0.0044
2574.00,0.0044
2573.00,0.0044
2572.00,0.0044
2571.00,0.0044
2570.00,0.0043
2569.00,0.0043
2568.00,0.0043
2567.00,0.0043
2566.00,0.0043
2565.00,0.0043
2564.00,0.0043
2563.00,0.0042
2562.00,0.0042
2561.00,0.0042
2560.00,0.0041
2559.00,0.0041
2558.00,0.0041
2557.00,0.0041
2556.00,0.0042
2555.00,0.0042
2554.00,0.0042
2553.00,0.0042
2552.00,0.0042
2551.00,0.0042
2550.00,0.0042
2549.00,0.0042
2548.00,0.0042
2547.00,0.0042
2546.00,0.0042
2545.00,0.0042
2544.00,0.0042
2543.00,0.0042
2542.00,0.0042
2541.00,0.0042
2540.00,0.0042
2539.00,0.0042
2538.00,0.0042
2537.00,0.0042
2536.00,0.0042
2535.00,0.0042
2534.00,0.0042
2533.00,0.0042
2532.00,0.0042
2531.00,0.0042
2530.00,0.0042
2529.00,0.0042
2528.00,0.0042
2527.00,0.0042
2526.00,0.0042
2525.00,0.0041
2524.00,0.0041
2523.00,0.0041
2522.00,0.0041
2521.00,0.0040
2520.00,0.0040
2519.00,0.0040
2518.00,0.0040
2517.00,0.0040
2516.00,0.0040
2515.00,0.0040
2514.00,0.0040
2513.00,0.0039
2512.00,0.0039
2511.00,0.0040
2510.00,0.0040
2509.00,0.0040
2508.00,0.0040
2507.00,0.0040
2506.00,0.0040
2505.00,0.0040
2504.00,0.0040
2503.00,0.0039
2502.00,0.0039
2501.00,0.0040
2500.00,0.0040
2499.00,0.0040
2498.00,0.0040
2497.00,0.0040
2496.00,0.0040
2495.00,0.0040
2494.00,0.0040
2493.00,0.0040
2492.00,0.0040
2491.00,0.0040
2490.00,0.0040
2489.00,0.0040
2488.00,0.0040
2487.00,0.0041
2486.00,0.0041
2485.00,0.0041
2484.00,0.0041
2483.00,0.0041
2482.00,0.0040
2481.00,0.0041
2480.00,0.0041
2479.00,0.0041
2478.00,0.0041
2477.00,0.0042
2476.00,0.0042
2475.00,0.0042
2474.00,0.0042
2473.00,0.0042
2472.00,0.0042
2471.00,0.0042
2470.00,0.0042
2469.00,0.0041
2468.00,0.0041
2467.00,0.0040
2466.00,0.0040
2465.00,0.0040
2464.00,0.0040
2463.00,0.0039
2462.00,0.0039
2461.00,0.0039
2460.00,0.0038
2459.00,0.0038
2458.00,0.0038
2457.00,0.0039
2456.00,0.0039
2455.00,0.0039
2454.00,0.0039
2453.00,0.0039
2452.00,0.0039
2451.00,0.0039
2450.00,0.0039
2449.00,0.0038
2448.00,0.0038
2447.00,0.0037
2446.00,0.0037
2445.00,0.0036
2444.00,0.0036
2443.00,0.0036
2442.00,0.0035
2441.00,0.0035
2440.00,0.0035
2439.00,0.0034
2438.00,0.0034
2437.00,0.0033
2436.00,0.0033
2435.00,0.0033
2434.00,0.0032
2433.00,0.0032
2432.00,0.0031
2431.00,0.0031
2430.00,0.0030
2429.00,0.0030
2428.00,0.0030
2427.00,0.0029
2426.00,0.0029
2425.00,0.0028
2424.00,0.0028
2423.00,0.0028
2422.00,0.0028
2421.00,0.0028
2420.00,0.0028
2419.00,0.0028
2418.00,0.0028
2417.00,0.0027
2416.00,0.0027
2415.00,0.0027
2414.00,0.0027
2413.00,0.0027
2412.00,0.0027
2411.00,0.0027
2410.00,0.0026
2409.00,0.0026
2408.00,0.0026
2407.00,0.0026
2406.00,0.0026
2405.00,0.0026
2404.00,0.0026
2403.00,0.0026
2402.00,0.0026
2401.00,0.0026
2400.00,0.0026
2399.00,0.0026
2398.00,0.0026
2397.00,0.0026
2396.00,0.0026
2395.00,0.0027
2394.00,0.0027
2393.00,0.0027
2392.00,0.0027
2391.00,0.0026
2390.00,0.0027
2389.00,0.0027
2388.00,0.0027
2387.00,0.0027
2386.00,0.0027
2385.00,0.0027
2384.00,0.0028
2383.00,0.0028
2382.00,0.0028
2381.00,0.0029
2380.00,0.0029
2379.00,0.0029
2378.00,0.0029
2377.00,0.0029
2376.00,0.0029
2375.00,0.0029
2374.00,0.0028
2373.00,0.0028
2372.00,0.0028
2371.00,0.0028
2370.00,0.0028
2369.00,0.0028
2368.00,0.0028
2367.00,0.0028
2366.00,0.0028
2365.00,0.0027
2364.00,0.0027
2363.00,0.0026
2362.00,0.0027
2361.00,0.0027
2360.00,0.0028
2359.00,0.0028
2358.00,0.0027
2357.00,0.0027
2356.00,0.0027
2355.00,0.0027
2354.00,0.0027
2353.00,0.0027
2352.00,0.0027
2351.00,0.0027
2350.00,0.0027
2349.00,0.0027
2348.00,0.0027
2347.00,0.0027
2346.00,0.0026
2345.00,0.0026
2344.00,0.0026
2343.00,0.0026
2342.00,0.0026
2341.00,0.0026
2340.00,0.0026
2339.00,0.0026
2338.00,0.0026
2337.00,0.0026
2336.00,0.0026
2335.00,0.0026
2334.00,0.0026
2333.00,0.0026
2332.00,0.0025
2331.00,0.0025
2330.00,0.0025
2329.00,0.0025
2328.00,0.0025
2327.00,0.0025
2326.00,0.0024
2325.00,0.0024
2324.00,0.0024
2323.00,0.0024
2322.00,0.0023
2321.00,0.0023
2320.00,0.0023
2319.00,0.0023
2318.00,0.0023
2317.00,0.0023
2316.00,0.0023
2315.00,0.0023
2314.00,0.0023
2313.00,0.0023
2312.00,0.0023
2311.00,0.0023
2310.00,0.0023
2309.00,0.0023
2308.00,0.0022
2307.00,0.0022
2306.00,0.0022
2305.00,0.0022
2304.00,0.0021
2303.00,0.0021
2302.00,0.0020
2301.00,0.0020
2300.00,0.0020
2299.00,0.0020
2298.00,0.0020
2297.00,0.0020
2296.00,0.0020
2295.00,0.0020
2294.00,0.0019
2293.00,0.0019
2292.00,0.0018
2291.00,0.0018
2290.00,0.0018
2289.00,0.0018
2288.00,0.0018
2287.00,0.0017
2286.00,0.0017
2285.00,0.0016
2284.00,0.0016
2283.00,0.0016
2282.00,0.0016
2281.00,0.0016
2280.00,0.0016
2279.00,0.0016
2278.00,0.0015
2277.00,0.0015
2276.00,0.0015
2275.00,0.0015
2274.00,0.0015
2273.00,0.0015
2272.00,0.0016
2271.00,0.0016
2270.00,0.0016
2269.00,0.0016
2268.00,0.0016
2267.00,0.0015
2266.00,0.0015
2265.00,0.0015
2264.00,0.0016
2263.00,0.0016
2262.00,0.0015
2261.00,0.0015
2260.00,0.0015
2259.00,0.0015
2258.00,0.0015
2257.00,0.0015
2256.00,0.0015
2255.00,0.0015
2254.00,0.0015
2253.00,0.0015
2252.00,0.0015
2251.00,0.0015
2250.00,0.0015
2249.00,0.0015
2248.00,0.0015
2247.00,0.0015
2246.00,0.0015
2245.00,0.0016
2244.00,0.0017
2243.00,0.0017
2242.00,0.0017
2241.00,0.0017
2240.00,0.0017
2239.00,0.0016
2238.00,0.0016
2237.00,0.0016
2236.00,0.0015
2235.00,0.0015
2234.00,0.0015
2233.00,0.0015
2232.00,0.0015
2231.00,0.0015
2230.00,0.0014
2229.00,0.0015
2228.00,0.0015
2227.00,0.0014
2226.00,0.0013
2225.00,0.0013
2224.00,0.0013
2223.00,0.0014
2222.00,0.0013
2221.00,0.0013
2220.00,0.0013
2219.00,0.0013
2218.00,0.0013
2217.00,0.0014
2216.00,0.0014
2215.00,0.0014
2214.00,0.0013
2213.00,0.0013
2212.00,0.0014
2211.00,0.0014
2210.00,0.0014
2209.00,0.0014
2208.00,0.0013
2207.00,0.0013
2206.00,0.0012
2205.00,0.0012
2204.00,0.0012
2203.00,0.0012
2202.00,0.0011
2201.00,0.0011
2200.00,0.0012
2199.00,0.0013
2198.00,0.0013
2197.00,0.0012
2196.00,0.0012
2195.00,0.0011
2194.00,0.0010
2193.00,0.0010
2192.00,0.0010
2191.00,0.0010
2190.00,0.0009
2189.00,0.0010
2188.00,0.0011
2187.00,0.0011
2186.00,0.0011
2185.00,0.0011
2184.00,0.0012
2183.00,0.0013
2182.00,0.0013
2181.00,0.0013
2180.00,0.0013
2179.00,0.0013
2178.00,0.0013
2177.00,0.0014
2176.00,0.0015
2175.00,0.0015
2174.00,0.0015
2173.00,0.0014
2172.00,0.0012
2171.00,0.0011
2170.00,0.0010
2169.00,0.0010
2168.00,0.0010
2167.00,0.0009
2166.00,0.0009
2165.00,0.0010
2164.00,0.0011
2163.00,0.0011
2162.00,0.0010
2161.00,0.0011
2160.00,0.0012
2159.00,0.0013
2158.00,0.0014
2157.00,0.0014
2156.00,0.0013
2155.00,0.0012
2154.00,0.0011
2153.00,0.0011
2152.00,0.0011
2151.00,0.0012
2150.00,0.0012
2149.00,0.0013
2148.00,0.0012
2147.00,0.0012
2146.00,0.0010
2145.00,0.0010
2144.00,0.0009
2143.00,0.0009
2142.00,0.0008
2141.00,0.0008
2140.00,0.0008
2139.00,0.0008
2138.00,0.0008
2137.00,0.0009
2136.00,0.0010
2135.00,0.0011
2134.00,0.0011
2133.00,0.0011
2132.00,0.0012
2131.00,0.0012
2130.00,0.0011
2129.00,0.0011
2128.00,0.0011
2127.00,0.0011
2126.00,0.0011
2125.00,0.0012
2124.00,0.0012
2123.00,0.0012
2122.00,0.0012
2121.00,0.0011
2120.00,0.0011
2119.00,0.0011
2118.00,0.0011
2117.00,0.0011
2116.00,0.0011
2115.00,0.0011
2114.00,0.0010
2113.00,0.0010
2112.00,0.0009
2111.00,0.0009
2110.00,0.0009
2109.00,0.0009
2108.00,0.0009
2107.00,0.0008
2106.00,0.0007
2105.00,0.0006
2104.00,0.0006
2103.00,0.0006
2102.00,0.0006
2101.00,0.0006
2100.00,0.0006
2099.00,0.0007
2098.00,0.0007
2097.00,0.0008
2096.00,0.0008
2095.00,0.0009
2094.00,0.0009
2093.00,0.0009
2092.00,0.0009
2091.00,0.0009
2090.00,0.0008
2089.00,0.0008
2088.00,0.0009
2087.00,0.0009
2086.00,0.0009
2085.00,0.0009
2084.00,0.0010
2083.00,0.0009
2082.00,0.0009
2081.00,0.0008
2080.00,0.0008
2079.00,0.0007
2078.00,0.0007
2077.00,0.0007
2076.00,0.0008
2075.00,0.0008
2074.00,0.0007
2073.00,0.0007
2072.00,0.0007
2071.00,0.0006
2070.00,0.0005
2069.00,0.0005
2068.00,0.0005
2067.00,0.0004
2066.00,0.0004
2065.00,0.0004
2064.00,0.0004
2063.00,0.0003
2062.00,0.0001
2061.00,0.0000
2060.00,-0.0000
2059.00,-0.0001
2058.00,-0.0002
2057.00,-0.0003
2056.00,-0.0004
2055.00,-0.0005
2054.00,-0.0005
2053.00,-0.0006
2052.00,-0.0006
2051.00,-0.0007
2050.00,-0.0009
2049.00,-0.0011
2048.00,-0.0012
2047.00,-0.0014
2046.00,-0.0015
2045.00,-0.0014
2044.00,-0.0013
2043.00,-0.0012
2042.00,-0.0013
2041.00,-0.0013
2040.00,-0.0014
2039.00,-0.0016
2038.00,-0.0016
2037.00,-0.0015
2036.00,-0.0014
2035.00,-0.0013
2034.00,-0.0015
2033.00,-0.0016
2032.00,-0.0016
2031.00,-0.0017
2030.00,-0.0017
2029.00,-0.0017
2028.00,-0.0015
2027.00,-0.0014
2026.00,-0.0013
2025.00,-0.0012
2024.00,-0.0010
2023.00,-0.0009
2022.00,-0.0009
2021.00,-0.0010
2020.00,-0.0009
2019.00,-0.0009
2018.00,-0.0009
2017.00,-0.0009
2016.00,-0.0009
2015.00,-0.0010
2014.00,-0.0011
2013.00,-0.0010
2012.00,-0.0009
2011.00,-0.0009
2010.00,-0.0009
2009.00,-0.0009
2008.00,-0.0009
2007.00,-0.0008
2006.00,-0.0007
2005.00,-0.0005
2004.00,-0.0003
2003.00,-0.0003
2002.00,-0.0003
2001.00,-0.0002
2000.00,-0.0001
1999.00,-0.0001
1998.00,-0.0001
1997.00,-0.0000
1996.00,-0.0000
1995.00,-0.0001
1994.00,-0.0003
1993.00,-0.0003
1992.00,-0.0002
1991.00,-0.0001
1990.00,-0.0001
1989.00,0.0000
1988.00,0.0001
1987.00,0.0000
1986.00,-0.0000
1985.00,-0.0000
1984.00,0.0000
1983.00,0.0000
1982.00,-0.0002
1981.00,-0.0003
1980.00,-0.0004
1979.00,-0.0004
1978.00,-0.0004
1977.00,-0.0003
1976.00,-0.0002
1975.00,-0.0001
1974.00,-0.0001
1973.00,-0.0000
1972.00,0.0001
1971.00,0.0001
1970.00,0.0000
1969.00,0.0000
1968.00,0.0000
1967.00,0.0000
1966.00,-0.0000
1965.00,0.0001
1964.00,0.0002
1963.00,0.0002
1962.00,0.0002
1961.00,0.0002
1960.00,0.0002
1959.00,0.0002
1958.00,0.0002
1957.00,0.0003
1956.00,0.0004
1955.00,0.0004
1954.00,0.0004
1953.00,0.0003
1952.00,0.0004
1951.00,0.0005
1950.00,0.0006
1949.00,0.0006
1948.00,0.0007
1947.00,0.0007
1946.00,0.0008
1945.00,0.0009
1944.00,0.0009
1943.00,0.0009
1942.00,0.0009
1941.00,0.0009
1940.00,0.0009
1939.00,0.0009
1938.00,0.0008
1937.00,0.0008
1936.00,0.0009
1935.00,0.0009
1934.00,0.0009
1933.00,0.0009
1932.00,0.0009
1931.00,0.0009
1930.00,0.0009
1929.00,0.0009
1928.00,0.0010
1927.00,0.0011
1926.00,0.0011
1925.00,0.0011
1924.00,0.0012
1923.00,0.0013
1922.00,0.0013
1921.00,0.0013
1920.00,0.0013
1919.00,0.0013
1918.00,0.0013
1917.00,0.0013
1916.00,0.0014
1915.00,0.0014
1914.00,0.0013
1913.00,0.0013
1912.00,0.0013
1911.00,0.0013
1910.00,0.0012
1909.00,0.0013
1908.00,0.0013
1907.00,0.0014
1906.00,0.0014
1905.00,0.0014
1904.00,0.0014
1903.00,0.0015
1902.00,0.0015
1901.00,0.0015
1900.00,0.0015
1899.00,0.0015
1898.00,0.0015
1897.00,0.0016
1896.00,0.0017
1895.00,0.0017
1894.00,0.0017
1893.00,0.0018
1892.00,0.0018
1891.00,0.0018
1890.00,0.0017
1889.00,0.0016
1888.00,0.0016
1887.00,0.0016
1886.00,0.0016
1885.00,0.0017
1884.00,0.0018
1883.00,0.0019
1882.00,0.0019
1881.00,0.0019
1880.00,0.0019
1879.00,0.0019
1878.00,0.0018
1877.00,0.0018
1876.00,0.0019
1875.00,0.0018
1874.00,0.0018
1873.00,0.0018
1872.00,0.0019
1871.00,0.0020
1870.00,0.0020
1869.00,0.0020
1868.00,0.0019
1867.00,0.0018
1866.00,0.0018
1865.00,0.0018
1864.00,0.0018
1863.00,0.0019
1862.00,0.0019
1861.00,0.0019
1860.00,0.0020
1859.00,0.0020
1858.00,0.0019
1857.00,0.0019
1856.00,0.0019
1855.00,0.0019
1854.00,0.0019
1853.00,0.0019
1852.00,0.0019
1851.00,0.0020
1850.00,0.0020
1849.00,0.0020
1848.00,0.0020
1847.00,0.0020
1846.00,0.0020
1845.00,0.0020
1844.00,0.0020
1843.00,0.0020
1842.00,0.0020
1841.00,0.0021
1840.00,0.0021
1839.00,0.0022
1838.00,0.0022
1837.00,0.0022
1836.00,0.0023
1835.00,0.0023
1834.00,0.0023
1833.00,0.0024
1832.00,0.0024
1831.00,0.0025
1830.00,0.0025
1829.00,0.0025
1828.00,0.0025
1827.00,0.0025
1826.00,0.0025
1825.00,0.0025
1824.00,0.0025
1823.00,0.0025
1822.00,0.0025
1821.00,0.0025
1820.00,0.0025
1819.00,0.0025
1818.00,0.0026
1817.00,0.0027
1816.00,0.0028
1815.00,0.0028
1814.00,0.0028
1813.00,0.0028
1812.00,0.0029
1811.00,0.0029
1810.00,0.0029
1809.00,0.0030
1808.00,0.0031
1807.00,0.0032
1806.00,0.0032
1805.00,0.0033
1804.00,0.0034
1803.00,0.0034
1802.00,0.0035
1801.00,0.0035
1800.00,0.0036
1799.00,0.0037
1798.00,0.0037
1797.00,0.0037
1796.00,0.0038
1795.00,0.0038
1794.00,0.0038
1793.00,0.0038
1792.00,0.0038
1791.00,0.0038
1790.00,0.0039
1789.00,0.0039
1788.00,0.0040
1787.00,0.0040
1786.00,0.0040
1785.00,0.0041
1784.00,0.0041
1783.00,0.0041
1782.00,0.0041
1781.00,0.0041
1780.00,0.0041
1779.00,0.0041
1778.00,0.0041
1777.00,0.0040
1776.00,0.0041
1775.00,0.0041
1774.00,0.0041
1773.00,0.0041
1772.00,0.0041
1771.00,0.0040
1770.00,0.0039
1769.00,0.0039
1768.00,0.0038
1767.00,0.0038
1766.00,0.0037
1765.00,0.0036
1764.00,0.0036
1763.00,0.0036
1762.00,0.0035
1761.00,0.0035
1760.00,0.0035
1759.00,0.0035
1758.00,0.0034
1757.00,0.0034
1756.00,0.0034
1755.00,0.0034
1754.00,0.0033
1753.00,0.0033
1752.00,0.0034
1751.00,0.0034
1750.00,0.0034
1749.00,0.0034
1748.00,0.0034
1747.00,0.0034
1746.00,0.0034
1745.00,0.0034
1744.00,0.0034
1743.00,0.0035
1742.00,0.0034
1741.00,0.0034
1740.00,0.0035
1739.00,0.0035
1738.00,0.0035
1737.00,0.0035
1736.00,0.0036
1735.00,0.0036
1734.00,0.0036
1733.00,0.0036
1732.00,0.0037
1731.00,0.0038
1730.00,0.0038
1729.00,0.0038
1728.00,0.0038
1727.00,0.0039
1726.00,0.0039
1725.00,0.0040
1724.00,0.0040
1723.00,0.0041
1722.00,0.0041
1721.00,0.0042
1720.00,0.0043
1719.00,0.0044
1718.00,0.0044
1717.00,0.0044
1716.00,0.0045
1715.00,0.0045
1714.00,0.0045
1713.00,0.0045
1712.00,0.0046
1711.00,0.0047
1710.00,0.0047
1709.00,0.0048
1708.00,0.0049
1707.00,0.0051
1706.00,0.0051
1705.00,0.0052
1704.00,0.0053
1703.00,0.0053
1702.00,0.0053
1701.00,0.0053
1700.00,0.0054
1699.00,0.0055
1698.00,0.0055
1697.00,0.0055
1696.00,0.0055
1695.00,0.0055
1694.00,0.0054
1693.00,0.0054
1692.00,0.0053
1691.00,0.0053
1690.00,0.0053
1689.00,0.0053
1688.00,0.0053
1687.00,0.0054
1686.00,0.0054
1685.00,0.0054
1684.00,0.0055
1683.00,0.0056
1682.00,0.0056
1681.00,0.0057
1680.00,0.0058
1679.00,0.0060
1678.00,0.0061
1677.00,0.0062
1676.00,0.0065
1675.00,0.0069
1674.00,0.0072
1673.00,0.0074
1672.00,0.0078
1671.00,0.0082
1670.00,0.0085
1669.00,0.0090
1668.00,0.0095
1667.00,0.0099
1666.00,0.0103
1665.00,0.0107
1664.00,0.0112
1663.00,0.0117
1662.00,0.0121
1661.00,0.0124
1660.00,0.0127
1659.00,0.0130
1658.00,0.0133
1657.00,0.0137
1656.00,0.0142
1655.00,0.0150
1654.00,0.0167
1653.00,0.0196
1652.00,0.0227
1651.00,0.0250
1650.00,0.0271
1649.00,0.0300
1648.00,0.0346
1647.00,0.0411
1646.00,0.0478
1645.00,0.0528
1644.00,0.0559
1643.00,0.0574
1642.00,0.0578
1641.00,0.0579
1640.00,0.0585
1639.00,0.0598
1638.00,0.0625
1637.00,0.0680
1636.00,0.0778
1635.00,0.0901
1634.00,0.1010
1633.00,0.1095
1632.00,0.1164
1631.00,0.1223
1630.00,0.1266
1629.00,0.1286
1628.00,0.1281
1627.00,0.1255
1626.00,0.1212
1625.00,0.1156
1624.00,0.1085
1623.00,0.1005
1622.00,0.0925
1621.00,0.0853
1620.00,0.0788
1619.00,0.0723
1618.00,0.0651
1617.00,0.0574
1616.00,0.0502
1615.00,0.0447
1614.00,0.0408
1613.00,0.0378
1612.00,0.0351
1611.00,0.0327
1610.00,0.0308
1609.00,0.0293
1608.00,0.0282
1607.00,0.0273
1606.00,0.0268
1605.00,0.0266
1604.00,0.0268
1603.00,0.0271
1602.00,0.0279
1601.00,0.0291
1600.00,0.0308
1599.00,0.0328
1598.00,0.0354
1597.00,0.0387
1596.00,0.0428
1595.00,0.0477
1594.00,0.0535
1593.00,0.0604
1592.00,0.0685
1591.00,0.0780
1590.00,0.0887
1589.00,0.1004
1588.00,0.1124
1587.00,0.1238
1586.00,0.1338
1585.00,0.1416
1584.00,0.1468
1583.00,0.1489
1582.00,0.1477
1581.00,0.1437
1580.00,0.1380
1579.00,0.1312
1578.00,0.1230
1577.00,0.1131
1576.00,0.1023
1575.00,0.0928
1574.00,0.0853
1573.00,0.0792
1572.00,0.0733
1571.00,0.0669
1570.00,0.0598
1569.00,0.0529
1568.00,0.0473
1567.00,0.0430
1566.00,0.0391
1565.00,0.0355
1564.00,0.0324
1563.00,0.0299
1562.00,0.0281
1561.00,0.0266
1560.00,0.0249
1559.00,0.0229
1558.00,0.0212
1557.00,0.0202
1556.00,0.0194
1555.00,0.0187
1554.00,0.0180
1553.00,0.0174
1552.00,0.0169
1551.00,0.0164
1550.00,0.0160
1549.00,0.0157
1548.00,0.0154
1547.00,0.0151
1546.00,0.0149
1545.00,0.0149
1544.00,0.0148
1543.00,0.0147
1542.00,0.0147
1541.00,0.0148
1540.00,0.0149
1539.00,0.0149
1538.00,0.0150
1537.00,0.0151
1536.00,0.0152
1535.00,0.0153
1534.00,0.0157
1533.00,0.0162
1532.00,0.0167
1531.00,0.0171
1530.00,0.0177
1529.00,0.0183
1528.00,0.0192
1527.00,0.0203
1526.00,0.0216
1525.00,0.0230
1524.00,0.0245
1523.00,0.0262
1522.00,0.0285
1521.00,0.0313
1520.00,0.0336
1519.00,0.0352
1518.00,0.0365
1517.00,0.0377
1516.00,0.0386
1515.00,0.0387
1514.00,0.0384
1513.00,0.0375
1512.00,0.0363
1511.00,0.0348
1510.00,0.0332
1509.00,0.0316
1508.00,0.0296
1507.00,0.0272
1506.00,0.0248
1505.00,0.0232
1504.00,0.0222
1503.00,0.0214
1502.00,0.0206
1501.00,0.0199
1500.00,0.0193
1499.00,0.0187
1498.00,0.0181
1497.00,0.0175
1496.00,0.0170
1495.00,0.0165
1494.00,0.0161
1493.00,0.0158
1492.00,0.0156
1491.00,0.0154
1490.00,0.0152
1489.00,0.0151
1488.00,0.0150
1487.00,0.0149
1486.00,0.0149
1485.00,0.0149
1484.00,0.0151
1483.00,0.0153
1482.00,0.0155
1481.00,0.0159
1480.00,0.0164
1479.00,0.0168
1478.00,0.0174
1477.00,0.0183
1476.00,0.0193
1475.00,0.0206
1474.00,0.0223
1473.00,0.0254
1472.00,0.0297
1471.00,0.0345
1470.00,0.0391
1469.00,0.0435
1468.00,0.0475
1467.00,0.0506
1466.00,0.0531
1465.00,0.0553
1464.00,0.0577
1463.00,0.0601
1462.00,0.0628
1461.00,0.0658
1460.00,0.0692
1459.00,0.0733
1458.00,0.0791
1457.00,0.0871
1456.00,0.0952
1455.00,0.1018
1454.00,0.1080
1453.00,0.1153
1452.00,0.1240
1451.00,0.1336
1450.00,0.1439
1449.00,0.1551
1448.00,0.1669
1447.00,0.1777
1446.00,0.1865
1445.00,0.1933
1444.00,0.1981
1443.00,0.2008
1442.00,0.2018
1441.00,0.2015
1440.00,0.1998
1439.00,0.1966
1438.00,0.1921
1437.00,0.1865
1436.00,0.1797
1435.00,0.1727
1434.00,0.1660
1433.00,0.1594
1432.00,0.1523
1431.00,0.1443
1430.00,0.1354
1429.00,0.1257
1428.00,0.1154
1427.00,0.1051
1426.00,0.0947
1425.00,0.0842
1424.00,0.0740
1423.00,0.0652
1422.00,0.0582
1421.00,0.0523
1420.00,0.0467
1419.00,0.0416
1418.00,0.0375
1417.00,0.0344
1416.00,0.0321
1415.00,0.0303
1414.00,0.0288
1413.00,0.0274
1412.00,0.0263
1411.00,0.0254
1410.00,0.0247
1409.00,0.0241
1408.00,0.0236
1407.00,0.0232
1406.00,0.0230
1405.00,0.0228
1404.00,0.0226
1403.00,0.0226
1402.00,0.0226
1401.00,0.0226
1400.00,0.0226
1399.00,0.0226
1398.00,0.0228
1397.00,0.0228
1396.00,0.0228
1395.00,0.0229
1394.00,0.0231
1393.00,0.0232
1392.00,0.0234
1391.00,0.0237
1390.00,0.0242
1389.00,0.0248
1388.00,0.0258
1387.00,0.0273
1386.00,0.0294
1385.00,0.0320
1384.00,0.0355
1383.00,0.0404
1382.00,0.0467
1381.00,0.0540
1380.00,0.0620
1379.00,0.0697
1378.00,0.0760
1377.00,0.0800
1376.00,0.0811
1375.00,0.0793
1374.00,0.0751
1373.00,0.0697
1372.00,0.0647
1371.00,0.0607
1370.00,0.0575
1369.00,0.0550
1368.00,0.0531
1367.00,0.0516
1366.00,0.0504
1365.00,0.0493
1364.00,0.0484
1363.00,0.0477
1362.00,0.0473
1361.00,0.0472
1360.00,0.0472
1359.00,0.0475
1358.00,0.0480
1357.00,0.0486
1356.00,0.0494
1355.00,0.0505
1354.00,0.0517
1353.00,0.0528
1352.00,0.0539
1351.00,0.0549
1350.00,0.0558
1349.00,0.0565
1348.00,0.0571
1347.00,0.0577
1346.00,0.0582
1345.00,0.0586
1344.00,0.0588
1343.00,0.0589
1342.00,0.0589
1341.00,0.0588
1340.00,0.0586
1339.00,0.0584
1338.00,0.0584
1337.00,0.0585
1336.00,0.0587
1335.00,0.0591
1334.00,0.0597
1333.00,0.0601
1332.00,0.0605
1331.00,0.0607
1330.00,0.0607
1329.00,0.0605
1328.00,0.0601
1327.00,0.0599
1326.00,0.0599
1325.00,0.0601
1324.00,0.0606
1323.00,0.0614
1322.00,0.0624
1321.00,0.0636
1320.00,0.0651
1319.00,0.0670
1318.00,0.0694
1317.00,0.0720
1316.00,0.0747
1315.00,0.0774
1314.00,0.0799
1313.00,0.0819
1312.00,0.0832
1311.00,0.0838
1310.00,0.0836
1309.00,0.0828
1308.00,0.0819
1307.00,0.0810
1306.00,0.0803
1305.00,0.0798
1304.00,0.0795
1303.00,0.0793
1302.00,0.0789
1301.00,0.0784
1300.00,0.0776
1299.00,0.0767
1298.00,0.0755
1297.00,0.0743
1296.00,0.0730
1295.00,0.0717
1294.00,0.0705
1293.00,0.0694
1292.00,0.0686
1291.00,0.0681
1290.00,0.0678
1289.00,0.0678
1288.00,0.0681
1287.00,0.0688
1286.00,0.0699
1285.00,0.0711
1284.00,0.0724
1283.00,0.0737
1282.00,0.0747
1281.00,0.0753
1280.00,0.0755
1279.00,0.0753
1278.00,0.0746
1277.00,0.0735
1276.00,0.0720
1275.00,0.0701
1274.00,0.0679
1273.00,0.0654
1272.00,0.0627
1271.00,0.0599
1270.00,0.0570
1269.00,0.0540
1268.00,0.0512
1267.00,0.0486
1266.00,0.0463
1265.00,0.0443
1264.00,0.0427
1263.00,0.0414
1262.00,0.0405
1261.00,0.0399
1260.00,0.0395
1259.00,0.0396
1258.00,0.0400
1257.00,0.0409
1256.00,0.0422
1255.00,0.0440
1254.00,0.0463
1253.00,0.0491
1252.00,0.0522
1251.00,0.0555
1250.00,0.0589
1249.00,0.0622
1248.00,0.0656
1247.00,0.0691
1246.00,0.0730
1245.00,0.0775
1244.00,0.0825
1243.00,0.0881
1242.00,0.0940
1241.00,0.0999
1240.00,0.1055
1239.00,0.1103
1238.00,0.1140
1237.00,0.1160
1236.00,0.1164
1235.00,0.1151
1234.00,0.1126
1233.00,0.1094
1232.00,0.1061
1231.00,0.1034
1230.00,0.1022
1229.00,0.1027
1228.00,0.1051
1227.00,0.1091
1226.00,0.1139
1225.00,0.1190
1224.00,0.1239
1223.00,0.1286
1222.00,0.1329
1221.00,0.1371
1220.00,0.1414
1219.00,0.1459
1218.00,0.1504
1217.00,0.1544
1216.00,0.1576
1215.00,0.1594
1214.00,0.1594
1213.00,0.1574
1212.00,0.1538
1211.00,0.1490
1210.00,0.1435
1209.00,0.1379
1208.00,0.1329
1207.00,0.1287
1206.00,0.1253
1205.00,0.1225
1204.00,0.1199
1203.00,0.1169
1202.00,0.1133
1201.00,0.1088
1200.00,0.1037
1199.00,0.0980
1198.00,0.0922
1197.00,0.0864
1196.00,0.0811
1195.00,0.0763
1194.00,0.0723
1193.00,0.0689
1192.00,0.0662
1191.00,0.0642
1190.00,0.0627
1189.00,0.0618
1188.00,0.0613
1187.00,0.0613
1186.00,0.0617
1185.00,0.0626
1184.00,0.0638
1183.00,0.0654
1182.00,0.0674
1181.00,0.0698
1180.00,0.0727
1179.00,0.0761
1178.00,0.0800
1177.00,0.0841
1176.00,0.0879
1175.00,0.0911
1174.00,0.0932
1173.00,0.0937
1172.00,0.0923
1171.00,0.0891
1170.00,0.0844
1169.00,0.0789
1168.00,0.0732
1167.00,0.0680
1166.00,0.0634
1165.00,0.0594
1164.00,0.0561
1163.00,0.0533
1162.00,0.0512
1161.00,0.0497
1160.00,0.0489
1159.00,0.0489
1158.00,0.0498
1157.00,0.0518
1156.00,0.0551
1155.00,0.0602
1154.00,0.0670
1153.00,0.0754
1152.00,0.0844
1151.00,0.0920
1150.00,0.0959
1149.00,0.0944
1148.00,0.0878
1147.00,0.0777
1146.00,0.0666
1145.00,0.0565
1144.00,0.0484
1143.00,0.0423
1142.00,0.0380
1141.00,0.0352
1140.00,0.0334
1139.00,0.0325
1138.00,0.0324
1137.00,0.0326
1136.00,0.0330
1135.00,0.0334
1134.00,0.0333
1133.00,0.0328
1132.00,0.0318
1131.00,0.0305
1130.00,0.0290
1129.00,0.0275
1128.00,0.0261
1127.00,0.0248
1126.00,0.0238
1125.00,0.0229
1124.00,0.0222
1123.00,0.0216
1122.00,0.0213
1121.00,0.0211
1120.00,0.0210
1119.00,0.0211
1118.00,0.0214
1117.00,0.0218
1116.00,0.0224
1115.00,0.0232
1114.00,0.0241
1113.00,0.0251
1112.00,0.0259
1111.00,0.0267
1110.00,0.0275
1109.00,0.0281
1108.00,0.0287
1107.00,0.0294
1106.00,0.0302
1105.00,0.0311
1104.00,0.0321
1103.00,0.0332
1102.00,0.0344
1101.00,0.0357
1100.00,0.0370
1099.00,0.0380
1098.00,0.0385
1097.00,0.0386
1096.00,0.0380
1095.00,0.0369
1094.00,0.0354
1093.00,0.0337
1092.00,0.0319
1091.00,0.0302
1090.00,0.0289
1089.00,0.0279
1088.00,0.0274
1087.00,0.0274
1086.00,0.0278
1085.00,0.0285
1084.00,0.0294
1083.00,0.0304
1082.00,0.0315
1081.00,0.0325
1080.00,0.0330
1079.00,0.0331
1078.00,0.0327
1077.00,0.0319
1076.00,0.0309
1075.00,0.0298
1074.00,0.0289
1073.00,0.0280
1072.00,0.0273
1071.00,0.0268
1070.00,0.0265
1069.00,0.0263
1068.00,0.0262
1067.00,0.0263
1066.00,0.0266
1065.00,0.0272
1064.00,0.0280
1063.00,0.0292
1062.00,0.0309
1061.00,0.0334
1060.00,0.0368
1059.00,0.0415
1058.00,0.0479
1057.00,0.0564
1056.00,0.0670
1055.00,0.0792
1054.00,0.0915
1053.00,0.1018
1052.00,0.1078
1051.00,0.1081
1050.00,0.1029
1049.00,0.0939
1048.00,0.0832
1047.00,0.0730
1046.00,0.0645
1045.00,0.0584
1044.00,0.0546
1043.00,0.0529
1042.00,0.0527
1041.00,0.0537
1040.00,0.0557
1039.00,0.0587
1038.00,0.0630
1037.00,0.0688
1036.00,0.0763
1035.00,0.0858
1034.00,0.0970
1033.00,0.1096
1032.00,0.1230
1031.00,0.1366
1030.00,0.1498
1029.00,0.1623
1028.00,0.1735
1027.00,0.1828
1026.00,0.1895
1025.00,0.1931
1024.00,0.1938
1023.00,0.1923
1022.00,0.1901
1021.00,0.1882
1020.00,0.1872
1019.00,0.1864
1018.00,0.1845
1017.00,0.1803
1016.00,0.1736
1015.00,0.1648
1014.00,0.1549
1013.00,0.1450
1012.00,0.1361
1011.00,0.1289
1010.00,0.1234
1009.00,0.1193
1008.00,0.1161
1007.00,0.1130
1006.00,0.1098
1005.00,0.1061
1004.00,0.1021
1003.00,0.0981
1002.00,0.0942
1001.00,0.0904
1000.00,0.0868
999.00,0.0832
998.00,0.0795
997.00,0.0757
996.00,0.0721
995.00,0.0688
994.00,0.0661
993.00,0.0640
992.00,0.0627
991.00,0.0624
990.00,0.0629
989.00,0.0640
988.00,0.0652
987.00,0.0660
986.00,0.0660
985.00,0.0650
984.00,0.0630
983.00,0.0603
982.00,0.0571
981.00,0.0540
980.00,0.0513
979.00,0.0491
978.00,0.0476
977.00,0.0464
976.00,0.0454
975.00,0.0445
974.00,0.0437
973.00,0.0430
972.00,0.0426
971.00,0.0426
970.00,0.0430
969.00,0.0440
968.00,0.0454
967.00,0.0473
966.00,0.0497
965.00,0.0524
964.00,0.0555
963.00,0.0586
962.00,0.0614
961.00,0.0631
960.00,0.0633
959.00,0.0619
958.00,0.0590
957.00,0.0549
956.00,0.0502
955.00,0.0453
954.00,0.0406
953.00,0.0364
952.00,0.0328
951.00,0.0299
950.00,0.0277
949.00,0.0259
948.00,0.0247
947.00,0.0237
946.00,0.0230
945.00,0.0224
944.00,0.0219
943.00,0.0215
942.00,0.0211
941.00,0.0209
940.00,0.0207
939.00,0.0206
938.00,0.0206
937.00,0.0207
936.00,0.0210
935.00,0.0213
934.00,0.0218
933.00,0.0224
932.00,0.0231
931.00,0.0238
930.00,0.0245
929.00,0.0251
928.00,0.0256
927.00,0.0259
926.00,0.0261
925.00,0.0262
924.00,0.0263
923.00,0.0264
922.00,0.0267
921.00,0.0272
920.00,0.0280
919.00,0.0290
918.00,0.0303
917.00,0.0316
916.00,0.0329
915.00,0.0341
914.00,0.0350
913.00,0.0359
912.00,0.0369
911.00,0.0382
910.00,0.0402
909.00,0.0430
908.00,0.0467
907.00,0.0513
906.00,0.0568
905.00,0.0630
904.00,0.0695
903.00,0.0759
902.00,0.0819
901.00,0.0873
900.00,0.0925
899.00,0.0976
898.00,0.1029
897.00,0.1083
896.00,0.1134
895.00,0.1179
894.00,0.1219
893.00,0.1256
892.00,0.1292
891.00,0.1329
890.00,0.1365
889.00,0.1399
888.00,0.1428
887.00,0.1449
886.00,0.1457
885.00,0.1449
884.00,0.1416
883.00,0.1355
882.00,0.1264
881.00,0.1155
880.00,0.1039
879.00,0.0930
878.00,0.0839
877.00,0.0767
876.00,0.0714
875.00,0.0678
874.00,0.0657
873.00,0.0649
872.00,0.0652
871.00,0.0665
870.00,0.0687
869.00,0.0715
868.00,0.0745
867.00,0.0778
866.00,0.0812
865.00,0.0846
864.00,0.0874
863.00,0.0894
862.00,0.0901
861.00,0.0896
860.00,0.0881
859.00,0.0864
858.00,0.0849
857.00,0.0842
856.00,0.0844
855.00,0.0851
854.00,0.0863
853.00,0.0875
852.00,0.0885
851.00,0.0893
850.00,0.0895
849.00,0.0891
848.00,0.0882
847.00,0.0869
846.00,0.0857
845.00,0.0846
844.00,0.0838
843.00,0.0831
842.00,0.0826
841.00,0.0823
840.00,0.0824
839.00,0.0829
838.00,0.0840
837.00,0.0856
836.00,0.0877
835.00,0.0903
834.00,0.0931
833.00,0.0959
832.00,0.0985
831.00,0.1007
830.00,0.1020
829.00,0.1023
828.00,0.1015
827.00,0.0996
826.00,0.0966
825.00,0.0926
824.00,0.0879
823.00,0.0829
822.00,0.0779
821.00,0.0730
820.00,0.0684
819.00,0.0642
818.00,0.0605
817.00,0.0574
816.00,0.0550
815.00,0.0532
814.00,0.0518
813.00,0.0508
812.00,0.0499
811.00,0.0492
810.00,0.0489
809.00,0.0495
808.00,0.0516
807.00,0.0556
806.00,0.0611
805.00,0.0667
804.00,0.0706
803.00,0.0713
802.00,0.0686
801.00,0.0637
800.00,0.0583
799.00,0.0538
798.00,0.0506
797.00,0.0487
796.00,0.0476
795.00,0.0468
794.00,0.0459
793.00,0.0446
792.00,0.0429
791.00,0.0408
790.00,0.0388
789.00,0.0369
788.00,0.0354
787.00,0.0344
786.00,0.0337
785.00,0.0332
784.00,0.0326
783.00,0.0320
782.00,0.0314
781.00,0.0310
780.00,0.0308
779.00,0.0309
778.00,0.0313
777.00,0.0318
776.00,0.0324
775.00,0.0328
774.00,0.0331
773.00,0.0333
772.00,0.0334
771.00,0.0334
770.00,0.0332
769.00,0.0327
768.00,0.0320
767.00,0.0312
766.00,0.0303
765.00,0.0294
764.00,0.0287
763.00,0.0283
762.00,0.0281
761.00,0.0282
760.00,0.0285
759.00,0.0291
758.00,0.0299
757.00,0.0309
756.00,0.0323
755.00,0.0341
754.00,0.0363
753.00,0.0390
752.00,0.0418
751.00,0.0446
750.00,0.0469
749.00,0.0482
748.00,0.0480
747.00,0.0462
746.00,0.0433
745.00,0.0398
744.00,0.0366
743.00,0.0340
742.00,0.0322
741.00,0.0312
740.00,0.0307
739.00,0.0307
738.00,0.0311
737.00,0.0320
736.00,0.0333
735.00,0.0349
734.00,0.0368
733.00,0.0386
732.00,0.0403
731.00,0.0414
730.00,0.0418
729.00,0.0415
728.00,0.0408
727.00,0.0400
726.00,0.0392
725.00,0.0383
724.00,0.0372
723.00,0.0360
722.00,0.0347
721.00,0.0336
720.00,0.0327
719.00,0.0320
718.00,0.0314
717.00,0.0310
716.00,0.0307
715.00,0.0305
714.00,0.0304
713.00,0.0304
712.00,0.0305
711.00,0.0306
710.00,0.0306
709.00,0.0304
708.00,0.0301
707.00,0.0299
706.00,0.0296
705.00,0.0294
704.00,0.0293
703.00,0.0292
702.00,0.0292
701.00,0.0293
700.00,0.0294
699.00,0.0296
698.00,0.0297
697.00,0.0298
696.00,0.0300
695.00,0.0301
694.00,0.0304
693.00,0.0307
692.00,0.0310
691.00,0.0314
690.00,0.0318
689.00,0.0323
688.00,0.0329
687.00,0.0336
686.00,0.0344
685.00,0.0354
684.00,0.0366
683.00,0.0379
682.00,0.0393
681.00,0.0409
680.00,0.0427
679.00,0.0444
678.00,0.0461
677.00,0.0477
676.00,0.0490
675.00,0.0500
674.00,0.0507
673.00,0.0513
672.00,0.0518
671.00,0.0522
670.00,0.0526
669.00,0.0530
668.00,0.0534
667.00,0.0536
666.00,0.0535
665.00,0.0532
664.00,0.0529
663.00,0.0525
662.00,0.0520
661.00,0.0516
660.00,0.0513
659.00,0.0512
658.00,0.0512
657.00,0.0512
656.00,0.0512
655.00,0.0511
654.00,0.0510
653.00,0.0509
652.00,0.0508
651.00,0.0508
650.00,0.0507
649.00,0.0505
648.00,0.0502
647.00,0.0497
646.00,0.0490
645.00,0.0483
644.00,0.0476
643.00,0.0469
642.00,0.0462
641.00,0.0457
640.00,0.0453
639.00,0.0450
638.00,0.0448
637.00,0.0447
636.00,0.0446
635.00,0.0446
634.00,0.0446
633.00,0.0447
632.00,0.0449
631.00,0.0450
630.00,0.0453
629.00,0.0455
628.00,0.0458
627.00,0.0462
626.00,0.0466
625.00,0.0470
624.00,0.0473
623.00,0.0476
622.00,0.0479
621.00,0.0481
620.00,0.0481
619.00,0.0482
618.00,0.0483
617.00,0.0485
616.00,0.0489
615.00,0.0499
614.00,0.0513
613.00,0.0531
612.00,0.0552
611.00,0.0572
610.00,0.0589
609.00,0.0602
608.00,0.0612
607.00,0.0623
606.00,0.0637
605.00,0.0653
604.00,0.0670
603.00,0.0687
602.00,0.0704
601.00,0.0722
600.00,0.0740
599.00,0.0757
598.00,0.0770
597.00,0.0779
596.00,0.0783
595.00,0.0785
594.00,0.0785
593.00,0.0786
592.00,0.0785
591.00,0.0782
590.00,0.0779
589.00,0.0776
588.00,0.0772
587.00,0.0768
586.00,0.0764
585.00,0.0762
584.00,0.0762
583.00,0.0763
582.00,0.0766
581.00,0.0768
580.00,0.0769
579.00,0.0766
578.00,0.0759
577.00,0.0747
576.00,0.0733
575.00,0.0718
574.00,0.0705
573.00,0.0694
572.00,0.0684
571.00,0.0677
570.00,0.0672
569.00,0.0669
568.00,0.0668
567.00,0.0668
566.00,0.0671
565.00,0.0675
564.00,0.0680
563.00,0.0688
562.00,0.0699
561.00,0.0714
560.00,0.0732
559.00,0.0756
558.00,0.0785
557.00,0.0820
556.00,0.0860
555.00,0.0904
554.00,0.0947
553.00,0.0985
552.00,0.1015
551.00,0.1035
550.00,0.1043
549.00,0.1042
548.00,0.1037
547.00,0.1032
546.00,0.1027
545.00,0.1022
544.00,0.1019
543.00,0.1016
542.00,0.1015
541.00,0.1020
540.00,0.1033
539.00,0.1055
538.00,0.1085
537.00,0.1119
536.00,0.1153
535.00,0.1183
534.00,0.1206
533.00,0.1222
532.00,0.1232
531.00,0.1240
530.00,0.1248
529.00,0.1261
528.00,0.1282
527.00,0.1309
526.00,0.1339
525.00,0.1361
524.00,0.1369
523.00,0.1355
522.00,0.1320
521.00,0.1267
520.00,0.1203
519.00,0.1138
518.00,0.1080
517.00,0.1036
516.00,0.1006
515.00,0.0988
514.00,0.0977
513.00,0.0972
512.00,0.0971
511.00,0.0972
510.00,0.0975
509.00,0.0982
508.00,0.0992
507.00,0.1004
506.00,0.1017
505.00,0.1031
504.00,0.1048
503.00,0.1066
502.00,0.1085
501.00,0.1106
500.00,0.1127
499.00,0.1147
498.00,0.1165
497.00,0.1182
496.00,0.1199
495.00,0.1214
494.00,0.1227
493.00,0.1239
492.00,0.1250
491.00,0.1260
490.00,0.1267
489.00,0.1274
488.00,0.1282
487.00,0.1291
486.00,0.1300
485.00,0.1310
484.00,0.1321
483.00,0.1328
482.00,0.1330
481.00,0.1326
480.00,0.1318
479.00,0.1309
478.00,0.1299
477.00,0.1293
476.00,0.1291
475.00,0.1293
474.00,0.1296
473.00,0.1301
472.00,0.1310
471.00,0.1319
470.00,0.1327
469.00,0.1334
468.00,0.1342
467.00,0.1346
466.00,0.1342
465.00,0.1333
464.00,0.1324
463.00,0.1315
462.00,0.1306
461.00,0.1294
460.00,0.1279
459.00,0.1262
458.00,0.1243
457.00,0.1228
456.00,0.1219
455.00,0.1214
454.00,0.1209
453.00,0.1204
452.00,0.1200
451.00,0.1197
450.00,0.1194
449.00,0.1191
448.00,0.1188
447.00,0.1184
446.00,0.1177
445.00,0.1171
444.00,0.1168
443.00,0.1164
442.00,0.1158
441.00,0.1151
440.00,0.1146
439.00,0.1145
438.00,0.1146
437.00,0.1148
436.00,0.1149
435.00,0.1149
434.00,0.1145
433.00,0.1141
432.00,0.1139
431.00,0.1139
430.00,0.1139
429.00,0.1143
428.00,0.1152
427.00,0.1166
426.00,0.1181
425.00,0.1194
424.00,0.1205
423.00,0.1210
422.00,0.1206
421.00,0.1192
420.00,0.1174
419.00,0.1154
418.00,0.1134
417.00,0.1116
416.00,0.1097
415.00,0.1075
414.00,0.1054
413.00,0.1037
412.00,0.1030
411.00,0.1033
410.00,0.1042
409.00,0.1054
408.00,0.1065
407.00,0.1068
406.00,0.1062
405.00,0.1050
404.00,0.1037
403.00,0.1028
402.00,0.1025
401.00,0.1033
400.00,0.1048
