Created as New Dataset,Sample 120 By YargerLab Date Friday, August 15 2025
cm-1,A
4000.00,0.0015
3999.00,0.0015
3998.00,0.0015
3997.00,0.0015
3996.00,0.0015
3995.00,0.0015
3994.00,0.0015
3993.00,0.0015
3992.00,0.0015
3991.00,0.0015
3990.00,0.0015
3989.00,0.0015
3988.00,0.0015
3987.00,0.0015
3986.00,0.0015
3985.00,0.0015
3984.00,0.0015
3983.00,0.0015
3982.00,0.0015
3981.00,0.0015
3980.00,0.0015
3979.00,0.0015
3978.00,0.0015
3977.00,0.0015
3976.00,0.0015
3975.00,0.0015
3974.00,0.0015
3973.00,0.0015
3972.00,0.0015
3971.00,0.0015
3970.00,0.0015
3969.00,0.0015
3968.00,0.0015
3967.00,0.0015
3966.00,0.0015
3965.00,0.0015
3964.00,0.0015
3963.00,0.0015
3962.00,0.0015
3961.00,0.0015
3960.00,0.0015
3959.00,0.0015
3958.00,0.0015
3957.00,0.0015
3956.00,0.0015
3955.00,0.0015
3954.00,0.0015
3953.00,0.0014
3952.00,0.0014
3951.00,0.0014
3950.00,0.0014
3949.00,0.0014
3948.00,0.0014
3947.00,0.0014
3946.00,0.0014
3945.00,0.0014
3944.00,0.0014
3943.00,0.0014
3942.00,0.0014
3941.00,0.0014
3940.00,0.0014
3939.00,0.0014
3938.00,0.0014
3937.00,0.0014
3936.00,0.0014
3935.00,0.0014
3934.00,0.0014
3933.00,0.0014
3932.00,0.0013
3931.00,0.0013
3930.00,0.0013
3929.00,0.0013
3928.00,0.0014
3927.00,0.0014
3926.00,0.0014
3925.00,0.0014
3924.00,0.0014
3923.00,0.0014
3922.00,0.0013
3921.00,0.0013
3920.00,0.0013
3919.00,0.0013
3918.00,0.0013
3917.00,0.0013
3916.00,0.0013
3915.00,0.0013
3914.00,0.0013
3913.00,0.0013
3912.00,0.0014
3911.00,0.0014
3910.00,0.0014
3909.00,0.0014
3908.00,0.0014
3907.00,0.0014
3906.00,0.0014
3905.00,0.0014
3904.00,0.0014
3903.00,0.0013
3902.00,0.0013
3901.00,0.0012
3900.00,0.0012
3899.00,0.0012
3898.00,0.0012
3897.00,0.0013
3896.00,0.0013
3895.00,0.0014
3894.00,0.0014
3893.00,0.0014
3892.00,0.0014
3891.00,0.0014
3890.00,0.0014
3889.00,0.0014
3888.00,0.0014
3887.00,0.0013
3886.00,0.0013
3885.00,0.0013
3884.00,0.0014
3883.00,0.0013
3882.00,0.0013
3881.00,0.0013
3880.00,0.0012
3879.00,0.0013
3878.00,0.0013
3877.00,0.0013
3876.00,0.0013
3875.00,0.0013
3874.00,0.0013
3873.00,0.0013
3872.00,0.0013
3871.00,0.0013
3870.00,0.0013
3869.00,0.0013
3868.00,0.0013
3867.00,0.0013
3866.00,0.0013
3865.00,0.0012
3864.00,0.0012
3863.00,0.0012
3862.00,0.0012
3861.00,0.0013
3860.00,0.0013
3859.00,0.0014
3858.00,0.0014
3857.00,0.0014
3856.00,0.0014
3855.00,0.0013
3854.00,0.0013
3853.00,0.0013
3852.00,0.0013
3851.00,0.0013
3850.00,0.0012
3849.00,0.0013
3848.00,0.0013
3847.00,0.0013
3846.00,0.0013
3845.00,0.0014
3844.00,0.0014
3843.00,0.0014
3842.00,0.0014
3841.00,0.0014
3840.00,0.0013
3839.00,0.0013
3838.00,0.0013
3837.00,0.0013
3836.00,0.0013
3835.00,0.0013
3834.00,0.0013
3833.00,0.0013
3832.00,0.0013
3831.00,0.0013
3830.00,0.0014
3829.00,0.0014
3828.00,0.0014
3827.00,0.0014
3826.00,0.0014
3825.00,0.0014
3824.00,0.0014
3823.00,0.0014
3822.00,0.0014
3821.00,0.0014
3820.00,0.0014
3819.00,0.0014
3818.00,0.0014
3817.00,0.0013
3816.00,0.0013
3815.00,0.0013
3814.00,0.0014
3813.00,0.0013
3812.00,0.0014
3811.00,0.0014
3810.00,0.0014
3809.00,0.0014
3808.00,0.0013
3807.00,0.0013
3806.00,0.0014
3805.00,0.0014
3804.00,0.0014
3803.00,0.0013
3802.00,0.0012
3801.00,0.0012
3800.00,0.0013
3799.00,0.0013
3798.00,0.0013
3797.00,0.0013
3796.00,0.0013
3795.00,0.0013
3794.00,0.0014
3793.00,0.0014
3792.00,0.0014
3791.00,0.0014
3790.00,0.0014
3789.00,0.0014
3788.00,0.0014
3787.00,0.0014
3786.00,0.0014
3785.00,0.0014
3784.00,0.0014
3783.00,0.0014
3782.00,0.0014
3781.00,0.0014
3780.00,0.0014
3779.00,0.0014
3778.00,0.0014
3777.00,0.0014
3776.00,0.0013
3775.00,0.0013
3774.00,0.0013
3773.00,0.0014
3772.00,0.0014
3771.00,0.0014
3770.00,0.0014
3769.00,0.0014
3768.00,0.0013
3767.00,0.0013
3766.00,0.0013
3765.00,0.0013
3764.00,0.0013
3763.00,0.0013
3762.00,0.0013
3761.00,0.0013
3760.00,0.0013
3759.00,0.0013
3758.00,0.0013
3757.00,0.0013
3756.00,0.0013
3755.00,0.0013
3754.00,0.0014
3753.00,0.0014
3752.00,0.0013
3751.00,0.0013
3750.00,0.0012
3749.00,0.0012
3748.00,0.0012
3747.00,0.0012
3746.00,0.0012
3745.00,0.0012
3744.00,0.0012
3743.00,0.0013
3742.00,0.0013
3741.00,0.0013
3740.00,0.0013
3739.00,0.0013
3738.00,0.0013
3737.00,0.0013
3736.00,0.0012
3735.00,0.0012
3734.00,0.0012
3733.00,0.0011
3732.00,0.0011
3731.00,0.0012
3730.00,0.0012
3729.00,0.0012
3728.00,0.0012
3727.00,0.0012
3726.00,0.0013
3725.00,0.0013
3724.00,0.0013
3723.00,0.0013
3722.00,0.0013
3721.00,0.0013
3720.00,0.0013
3719.00,0.0012
3718.00,0.0013
3717.00,0.0013
3716.00,0.0014
3715.00,0.0014
3714.00,0.0014
3713.00,0.0014
3712.00,0.0014
3711.00,0.0013
3710.00,0.0013
3709.00,0.0013
3708.00,0.0013
3707.00,0.0013
3706.00,0.0013
3705.00,0.0013
3704.00,0.0013
3703.00,0.0014
3702.00,0.0014
3701.00,0.0014
3700.00,0.0014
3699.00,0.0014
3698.00,0.0014
3697.00,0.0015
3696.00,0.0015
3695.00,0.0015
3694.00,0.0016
3693.00,0.0016
3692.00,0.0016
3691.00,0.0017
3690.00,0.0017
3689.00,0.0018
3688.00,0.0018
3687.00,0.0019
3686.00,0.0019
3685.00,0.0020
3684.00,0.0020
3683.00,0.0021
3682.00,0.0021
3681.00,0.0022
3680.00,0.0022
3679.00,0.0023
3678.00,0.0023
3677.00,0.0023
3676.00,0.0024
3675.00,0.0024
3674.00,0.0024
3673.00,0.0024
3672.00,0.0023
3671.00,0.0023
3670.00,0.0023
3669.00,0.0024
3668.00,0.0025
3667.00,0.0025
3666.00,0.0025
3665.00,0.0026
3664.00,0.0026
3663.00,0.0027
3662.00,0.0027
3661.00,0.0027
3660.00,0.0028
3659.00,0.0028
3658.00,0.0029
3657.00,0.0030
3656.00,0.0030
3655.00,0.0031
3654.00,0.0031
3653.00,0.0032
3652.00,0.0032
3651.00,0.0033
3650.00,0.0034
3649.00,0.0034
3648.00,0.0035
3647.00,0.0035
3646.00,0.0036
3645.00,0.0037
3644.00,0.0038
3643.00,0.0038
3642.00,0.0039
3641.00,0.0040
3640.00,0.0041
3639.00,0.0041
3638.00,0.0042
3637.00,0.0043
3636.00,0.0044
3635.00,0.0045
3634.00,0.0045
3633.00,0.0046
3632.00,0.0047
3631.00,0.0047
3630.00,0.0048
3629.00,0.0050
3628.00,0.0051
3627.00,0.0052
3626.00,0.0053
3625.00,0.0053
3624.00,0.0054
3623.00,0.0055
3622.00,0.0056
3621.00,0.0057
3620.00,0.0058
3619.00,0.0059
3618.00,0.0060
3617.00,0.0062
3616.00,0.0063
3615.00,0.0064
3614.00,0.0065
3613.00,0.0066
3612.00,0.0068
3611.00,0.0069
3610.00,0.0070
3609.00,0.0071
3608.00,0.0072
3607.00,0.0073
3606.00,0.0074
3605.00,0.0075
3604.00,0.0077
3603.00,0.0078
3602.00,0.0079
3601.00,0.0081
3600.00,0.0082
3599.00,0.0083
3598.00,0.0085
3597.00,0.0086
3596.00,0.0088
3595.00,0.0090
3594.00,0.0091
3593.00,0.0093
3592.00,0.0094
3591.00,0.0094
3590.00,0.0095
3589.00,0.0097
3588.00,0.0099
3587.00,0.0101
3586.00,0.0103
3585.00,0.0105
3584.00,0.0106
3583.00,0.0107
3582.00,0.0109
3581.00,0.0111
3580.00,0.0112
3579.00,0.0114
3578.00,0.0116
3577.00,0.0118
3576.00,0.0119
3575.00,0.0121
3574.00,0.0123
3573.00,0.0124
3572.00,0.0126
3571.00,0.0127
3570.00,0.0128
3569.00,0.0130
3568.00,0.0132
3567.00,0.0134
3566.00,0.0136
3565.00,0.0138
3564.00,0.0140
3563.00,0.0141
3562.00,0.0143
3561.00,0.0144
3560.00,0.0146
3559.00,0.0147
3558.00,0.0149
3557.00,0.0150
3556.00,0.0152
3555.00,0.0153
3554.00,0.0154
3553.00,0.0156
3552.00,0.0158
3551.00,0.0160
3550.00,0.0161
3549.00,0.0162
3548.00,0.0164
3547.00,0.0165
3546.00,0.0167
3545.00,0.0169
3544.00,0.0171
3543.00,0.0172
3542.00,0.0173
3541.00,0.0174
3540.00,0.0175
3539.00,0.0177
3538.00,0.0178
3537.00,0.0180
3536.00,0.0182
3535.00,0.0183
3534.00,0.0184
3533.00,0.0186
3532.00,0.0187
3531.00,0.0188
3530.00,0.0189
3529.00,0.0190
3528.00,0.0192
3527.00,0.0194
3526.00,0.0196
3525.00,0.0198
3524.00,0.0200
3523.00,0.0201
3522.00,0.0203
3521.00,0.0204
3520.00,0.0205
3519.00,0.0206
3518.00,0.0208
3517.00,0.0209
3516.00,0.0211
3515.00,0.0212
3514.00,0.0214
3513.00,0.0215
3512.00,0.0216
3511.00,0.0217
3510.00,0.0219
3509.00,0.0220
3508.00,0.0222
3507.00,0.0223
3506.00,0.0225
3505.00,0.0226
3504.00,0.0228
3503.00,0.0230
3502.00,0.0232
3501.00,0.0233
3500.00,0.0235
3499.00,0.0236
3498.00,0.0237
3497.00,0.0239
3496.00,0.0240
3495.00,0.0242
3494.00,0.0243
3493.00,0.0244
3492.00,0.0245
3491.00,0.0246
3490.00,0.0248
3489.00,0.0249
3488.00,0.0251
3487.00,0.0253
3486.00,0.0254
3485.00,0.0255
3484.00,0.0256
3483.00,0.0258
3482.00,0.0259
3481.00,0.0261
3480.00,0.0262
3479.00,0.0263
3478.00,0.0264
3477.00,0.0266
3476.00,0.0267
3475.00,0.0269
3474.00,0.0270
3473.00,0.0271
3472.00,0.0273
3471.00,0.0274
3470.00,0.0275
3469.00,0.0277
3468.00,0.0278
3467.00,0.0279
3466.00,0.0280
3465.00,0.0281
3464.00,0.0282
3463.00,0.0283
3462.00,0.0284
3461.00,0.0286
3460.00,0.0287
3459.00,0.0287
3458.00,0.0288
3457.00,0.0289
3456.00,0.0290
3455.00,0.0291
3454.00,0.0292
3453.00,0.0293
3452.00,0.0294
3451.00,0.0295
3450.00,0.0296
3449.00,0.0297
3448.00,0.0298
3447.00,0.0299
3446.00,0.0300
3445.00,0.0301
3444.00,0.0302
3443.00,0.0303
3442.00,0.0304
3441.00,0.0305
3440.00,0.0306
3439.00,0.0307
3438.00,0.0308
3437.00,0.0309
3436.00,0.0310
3435.00,0.0311
3434.00,0.0312
3433.00,0.0312
3432.00,0.0313
3431.00,0.0314
3430.00,0.0315
3429.00,0.0316
3428.00,0.0317
3427.00,0.0317
3426.00,0.0318
3425.00,0.0319
3424.00,0.0319
3423.00,0.0320
3422.00,0.0321
3421.00,0.0322
3420.00,0.0324
3419.00,0.0325
3418.00,0.0325
3417.00,0.0326
3416.00,0.0327
3415.00,0.0328
3414.00,0.0329
3413.00,0.0330
3412.00,0.0331
3411.00,0.0331
3410.00,0.0332
3409.00,0.0333
3408.00,0.0334
3407.00,0.0334
3406.00,0.0335
3405.00,0.0336
3404.00,0.0337
3403.00,0.0338
3402.00,0.0338
3401.00,0.0339
3400.00,0.0340
3399.00,0.0341
3398.00,0.0342
3397.00,0.0343
3396.00,0.0344
3395.00,0.0345
3394.00,0.0345
3393.00,0.0346
3392.00,0.0347
3391.00,0.0348
3390.00,0.0349
3389.00,0.0351
3388.00,0.0352
3387.00,0.0353
3386.00,0.0354
3385.00,0.0355
3384.00,0.0356
3383.00,0.0357
3382.00,0.0357
3381.00,0.0358
3380.00,0.0359
3379.00,0.0359
3378.00,0.0360
3377.00,0.0361
3376.00,0.0362
3375.00,0.0363
3374.00,0.0363
3373.00,0.0363
3372.00,0.0363
3371.00,0.0363
3370.00,0.0362
3369.00,0.0363
3368.00,0.0364
3367.00,0.0366
3366.00,0.0368
3365.00,0.0369
3364.00,0.0371
3363.00,0.0371
3362.00,0.0372
3361.00,0.0372
3360.00,0.0373
3359.00,0.0374
3358.00,0.0376
3357.00,0.0377
3356.00,0.0377
3355.00,0.0377
3354.00,0.0377
3353.00,0.0376
3352.00,0.0375
3351.00,0.0376
3350.00,0.0377
3349.00,0.0379
3348.00,0.0381
3347.00,0.0382
3346.00,0.0382
3345.00,0.0382
3344.00,0.0381
3343.00,0.0381
3342.00,0.0381
3341.00,0.0381
3340.00,0.0381
3339.00,0.0381
3338.00,0.0382
3337.00,0.0384
3336.00,0.0386
3335.00,0.0388
3334.00,0.0389
3333.00,0.0390
3332.00,0.0390
3331.00,0.0391
3330.00,0.0390
3329.00,0.0390
3328.00,0.0389
3327.00,0.0389
3326.00,0.0389
3325.00,0.0390
3324.00,0.0391
3323.00,0.0393
3322.00,0.0395
3321.00,0.0396
3320.00,0.0397
3319.00,0.0397
3318.00,0.0398
3317.00,0.0398
3316.00,0.0399
3315.00,0.0399
3314.00,0.0399
3313.00,0.0398
3312.00,0.0397
3311.00,0.0395
3310.00,0.0393
3309.00,0.0392
3308.00,0.0391
3307.00,0.0391
3306.00,0.0392
3305.00,0.0394
3304.00,0.0396
3303.00,0.0399
3302.00,0.0401
3301.00,0.0403
3300.00,0.0403
3299.00,0.0402
3298.00,0.0401
3297.00,0.0400
3296.00,0.0399
3295.00,0.0399
3294.00,0.0399
3293.00,0.0399
3292.00,0.0400
3291.00,0.0402
3290.00,0.0404
3289.00,0.0405
3288.00,0.0406
3287.00,0.0407
3286.00,0.0407
3285.00,0.0407
3284.00,0.0407
3283.00,0.0406
3282.00,0.0406
3281.00,0.0406
3280.00,0.0406
3279.00,0.0405
3278.00,0.0404
3277.00,0.0404
3276.00,0.0403
3275.00,0.0402
3274.00,0.0401
3273.00,0.0400
3272.00,0.0399
3271.00,0.0399
3270.00,0.0399
3269.00,0.0400
3268.00,0.0401
3267.00,0.0401
3266.00,0.0402
3265.00,0.0402
3264.00,0.0402
3263.00,0.0402
3262.00,0.0401
3261.00,0.0401
3260.00,0.0400
3259.00,0.0400
3258.00,0.0399
3257.00,0.0398
3256.00,0.0397
3255.00,0.0397
3254.00,0.0396
3253.00,0.0396
3252.00,0.0396
3251.00,0.0395
3250.00,0.0394
3249.00,0.0393
3248.00,0.0392
3247.00,0.0392
3246.00,0.0392
3245.00,0.0392
3244.00,0.0392
3243.00,0.0392
3242.00,0.0391
3241.00,0.0390
3240.00,0.0390
3239.00,0.0389
3238.00,0.0388
3237.00,0.0388
3236.00,0.0386
3235.00,0.0385
3234.00,0.0385
3233.00,0.0384
3232.00,0.0384
3231.00,0.0383
3230.00,0.0383
3229.00,0.0382
3228.00,0.0381
3227.00,0.0381
3226.00,0.0380
3225.00,0.0379
3224.00,0.0378
3223.00,0.0377
3222.00,0.0376
3221.00,0.0376
3220.00,0.0375
3219.00,0.0374
3218.00,0.0373
3217.00,0.0372
3216.00,0.0372
3215.00,0.0371
3214.00,0.0370
3213.00,0.0370
3212.00,0.0369
3211.00,0.0369
3210.00,0.0369
3209.00,0.0368
3208.00,0.0367
3207.00,0.0366
3206.00,0.0366
3205.00,0.0365
3204.00,0.0364
3203.00,0.0364
3202.00,0.0363
3201.00,0.0362
3200.00,0.0361
3199.00,0.0360
3198.00,0.0359
3197.00,0.0358
3196.00,0.0357
3195.00,0.0356
3194.00,0.0355
3193.00,0.0354
3192.00,0.0353
3191.00,0.0352
3190.00,0.0351
3189.00,0.0349
3188.00,0.0348
3187.00,0.0347
3186.00,0.0346
3185.00,0.0345
3184.00,0.0344
3183.00,0.0343
3182.00,0.0342
3181.00,0.0340
3180.00,0.0339
3179.00,0.0337
3178.00,0.0336
3177.00,0.0335
3176.00,0.0334
3175.00,0.0332
3174.00,0.0331
3173.00,0.0330
3172.00,0.0328
3171.00,0.0327
3170.00,0.0326
3169.00,0.0324
3168.00,0.0323
3167.00,0.0321
3166.00,0.0320
3165.00,0.0318
3164.00,0.0317
3163.00,0.0316
3162.00,0.0314
3161.00,0.0313
3160.00,0.0311
3159.00,0.0310
3158.00,0.0308
3157.00,0.0307
3156.00,0.0305
3155.00,0.0303
3154.00,0.0302
3153.00,0.0300
3152.00,0.0299
3151.00,0.0297
3150.00,0.0296
3149.00,0.0295
3148.00,0.0293
3147.00,0.0292
3146.00,0.0291
3145.00,0.0290
3144.00,0.0288
3143.00,0.0287
3142.00,0.0286
3141.00,0.0285
3140.00,0.0284
3139.00,0.0282
3138.00,0.0281
3137.00,0.0280
3136.00,0.0279
3135.00,0.0278
3134.00,0.0277
3133.00,0.0276
3132.00,0.0275
3131.00,0.0274
3130.00,0.0273
3129.00,0.0272
3128.00,0.0271
3127.00,0.0270
3126.00,0.0269
3125.00,0.0268
3124.00,0.0267
3123.00,0.0266
3122.00,0.0265
3121.00,0.0264
3120.00,0.0262
3119.00,0.0261
3118.00,0.0259
3117.00,0.0258
3116.00,0.0257
3115.00,0.0255
3114.00,0.0254
3113.00,0.0252
3112.00,0.0251
3111.00,0.0249
3110.00,0.0248
3109.00,0.0246
3108.00,0.0245
3107.00,0.0243
3106.00,0.0242
3105.00,0.0240
3104.00,0.0239
3103.00,0.0237
3102.00,0.0236
3101.00,0.0234
3100.00,0.0233
3099.00,0.0231
3098.00,0.0230
3097.00,0.0228
3096.00,0.0227
3095.00,0.0225
3094.00,0.0224
3093.00,0.0223
3092.00,0.0221
3091.00,0.0220
3090.00,0.0218
3089.00,0.0217
3088.00,0.0215
3087.00,0.0214
3086.00,0.0213
3085.00,0.0212
3084.00,0.0211
3083.00,0.0209
3082.00,0.0208
3081.00,0.0207
3080.00,0.0206
3079.00,0.0205
3078.00,0.0204
3077.00,0.0203
3076.00,0.0202
3075.00,0.0201
3074.00,0.0200
3073.00,0.0199
3072.00,0.0197
3071.00,0.0196
3070.00,0.0195
3069.00,0.0194
3068.00,0.0194
3067.00,0.0193
3066.00,0.0192
3065.00,0.0192
3064.00,0.0191
3063.00,0.0190
3062.00,0.0190
3061.00,0.0189
3060.00,0.0189
3059.00,0.0188
3058.00,0.0188
3057.00,0.0187
3056.00,0.0187
3055.00,0.0186
3054.00,0.0186
3053.00,0.0185
3052.00,0.0184
3051.00,0.0183
3050.00,0.0183
3049.00,0.0182
3048.00,0.0181
3047.00,0.0180
3046.00,0.0179
3045.00,0.0178
3044.00,0.0178
3043.00,0.0177
3042.00,0.0176
3041.00,0.0176
3040.00,0.0175
3039.00,0.0175
3038.00,0.0175
3037.00,0.0175
3036.00,0.0174
3035.00,0.0174
3034.00,0.0174
3033.00,0.0174
3032.00,0.0174
3031.00,0.0174
3030.00,0.0174
3029.00,0.0174
3028.00,0.0174
3027.00,0.0175
3026.00,0.0175
3025.00,0.0175
3024.00,0.0175
3023.00,0.0175
3022.00,0.0175
3021.00,0.0175
3020.00,0.0176
3019.00,0.0176
3018.00,0.0176
3017.00,0.0177
3016.00,0.0178
3015.00,0.0179
3014.00,0.0181
3013.00,0.0183
3012.00,0.0185
3011.00,0.0188
3010.00,0.0190
3009.00,0.0194
3008.00,0.0197
3007.00,0.0201
3006.00,0.0205
3005.00,0.0209
3004.00,0.0214
3003.00,0.0219
3002.00,0.0225
3001.00,0.0231
3000.00,0.0238
2999.00,0.0245
2998.00,0.0252
2997.00,0.0260
2996.00,0.0269
2995.00,0.0277
2994.00,0.0286
2993.00,0.0295
2992.00,0.0304
2991.00,0.0313
2990.00,0.0323
2989.00,0.0332
2988.00,0.0341
2987.00,0.0350
2986.00,0.0359
2985.00,0.0367
2984.00,0.0375
2983.00,0.0382
2982.00,0.0389
2981.00,0.0396
2980.00,0.0403
2979.00,0.0409
2978.00,0.0415
2977.00,0.0422
2976.00,0.0429
2975.00,0.0436
2974.00,0.0443
2973.00,0.0450
2972.00,0.0457
2971.00,0.0465
2970.00,0.0474
2969.00,0.0483
2968.00,0.0492
2967.00,0.0502
2966.00,0.0512
2965.00,0.0522
2964.00,0.0532
2963.00,0.0542
2962.00,0.0551
2961.00,0.0559
2960.00,0.0567
2959.00,0.0573
2958.00,0.0578
2957.00,0.0582
2956.00,0.0585
2955.00,0.0587
2954.00,0.0588
2953.00,0.0587
2952.00,0.0586
2951.00,0.0584
2950.00,0.0581
2949.00,0.0578
2948.00,0.0575
2947.00,0.0572
2946.00,0.0570
2945.00,0.0569
2944.00,0.0569
2943.00,0.0570
2942.00,0.0572
2941.00,0.0576
2940.00,0.0581
2939.00,0.0587
2938.00,0.0594
2937.00,0.0602
2936.00,0.0611
2935.00,0.0620
2934.00,0.0629
2933.00,0.0639
2932.00,0.0647
2931.00,0.0656
2930.00,0.0664
2929.00,0.0671
2928.00,0.0678
2927.00,0.0684
2926.00,0.0688
2925.00,0.0691
2924.00,0.0694
2923.00,0.0695
2922.00,0.0695
2921.00,0.0693
2920.00,0.0690
2919.00,0.0686
2918.00,0.0680
2917.00,0.0674
2916.00,0.0667
2915.00,0.0658
2914.00,0.0650
2913.00,0.0640
2912.00,0.0630
2911.00,0.0620
2910.00,0.0610
2909.00,0.0599
2908.00,0.0589
2907.00,0.0579
2906.00,0.0569
2905.00,0.0561
2904.00,0.0553
2903.00,0.0547
2902.00,0.0540
2901.00,0.0535
2900.00,0.0530
2899.00,0.0526
2898.00,0.0522
2897.00,0.0518
2896.00,0.0515
2895.00,0.0513
2894.00,0.0510
2893.00,0.0507
2892.00,0.0505
2891.00,0.0502
2890.00,0.0499
2889.00,0.0495
2888.00,0.0492
2887.00,0.0489
2886.00,0.0486
2885.00,0.0484
2884.00,0.0481
2883.00,0.0479
2882.00,0.0478
2881.00,0.0476
2880.00,0.0475
2879.00,0.0474
2878.00,0.0474
2877.00,0.0473
2876.00,0.0473
2875.00,0.0472
2874.00,0.0472
2873.00,0.0472
2872.00,0.0472
2871.00,0.0472
2870.00,0.0471
2869.00,0.0469
2868.00,0.0467
2867.00,0.0466
2866.00,0.0465
2865.00,0.0464
2864.00,0.0465
2863.00,0.0466
2862.00,0.0467
2861.00,0.0469
2860.00,0.0472
2859.00,0.0473
2858.00,0.0474
2857.00,0.0473
2856.00,0.0470
2855.00,0.0465
2854.00,0.0457
2853.00,0.0448
2852.00,0.0438
2851.00,0.0426
2850.00,0.0413
2849.00,0.0400
2848.00,0.0387
2847.00,0.0374
2846.00,0.0363
2845.00,0.0352
2844.00,0.0341
2843.00,0.0330
2842.00,0.0319
2841.00,0.0308
2840.00,0.0298
2839.00,0.0290
2838.00,0.0282
2837.00,0.0276
2836.00,0.0270
2835.00,0.0265
2834.00,0.0260
2833.00,0.0255
2832.00,0.0250
2831.00,0.0246
2830.00,0.0242
2829.00,0.0237
2828.00,0.0233
2827.00,0.0229
2826.00,0.0224
2825.00,0.0220
2824.00,0.0215
2823.00,0.0211
2822.00,0.0206
2821.00,0.0201
2820.00,0.0197
2819.00,0.0192
2818.00,0.0188
2817.00,0.0184
2816.00,0.0179
2815.00,0.0175
2814.00,0.0171
2813.00,0.0167
2812.00,0.0163
2811.00,0.0159
2810.00,0.0156
2809.00,0.0153
2808.00,0.0150
2807.00,0.0147
2806.00,0.0144
2805.00,0.0141
2804.00,0.0138
2803.00,0.0136
2802.00,0.0133
2801.00,0.0131
2800.00,0.0129
2799.00,0.0127
2798.00,0.0125
2797.00,0.0124
2796.00,0.0122
2795.00,0.0121
2794.00,0.0119
2793.00,0.0118
2792.00,0.0116
2791.00,0.0115
2790.00,0.0114
2789.00,0.0113
2788.00,0.0112
2787.00,0.0111
2786.00,0.0110
2785.00,0.0109
2784.00,0.0108
2783.00,0.0107
2782.00,0.0106
2781.00,0.0105
2780.00,0.0105
2779.00,0.0104
2778.00,0.0103
2777.00,0.0102
2776.00,0.0101
2775.00,0.0100
2774.00,0.0100
2773.00,0.0099
2772.00,0.0098
2771.00,0.0098
2770.00,0.0097
2769.00,0.0096
2768.00,0.0096
2767.00,0.0095
2766.00,0.0095
2765.00,0.0095
2764.00,0.0094
2763.00,0.0094
2762.00,0.0093
2761.00,0.0093
2760.00,0.0093
2759.00,0.0093
2758.00,0.0093
2757.00,0.0092
2756.00,0.0092
2755.00,0.0092
2754.00,0.0092
2753.00,0.0092
2752.00,0.0092
2751.00,0.0092
2750.00,0.0092
2749.00,0.0091
2748.00,0.0091
2747.00,0.0092
2746.00,0.0092
2745.00,0.0093
2744.00,0.0093
2743.00,0.0093
2742.00,0.0093
2741.00,0.0093
2740.00,0.0093
2739.00,0.0093
2738.00,0.0094
2737.00,0.0094
2736.00,0.0094
2735.00,0.0094
2734.00,0.0094
2733.00,0.0094
2732.00,0.0094
2731.00,0.0094
2730.00,0.0094
2729.00,0.0094
2728.00,0.0094
2727.00,0.0094
2726.00,0.0094
2725.00,0.0093
2724.00,0.0093
2723.00,0.0093
2722.00,0.0093
2721.00,0.0092
2720.00,0.0092
2719.00,0.0092
2718.00,0.0092
2717.00,0.0092
2716.00,0.0091
2715.00,0.0091
2714.00,0.0090
2713.00,0.0090
2712.00,0.0089
2711.00,0.0089
2710.00,0.0089
2709.00,0.0088
2708.00,0.0088
2707.00,0.0088
2706.00,0.0088
2705.00,0.0088
2704.00,0.0087
2703.00,0.0087
2702.00,0.0087
2701.00,0.0087
2700.00,0.0086
2699.00,0.0086
2698.00,0.0086
2697.00,0.0086
2696.00,0.0085
2695.00,0.0085
2694.00,0.0084
2693.00,0.0084
2692.00,0.0084
2691.00,0.0084
2690.00,0.0084
2689.00,0.0083
2688.00,0.0083
2687.00,0.0083
2686.00,0.0082
2685.00,0.0082
2684.00,0.0082
2683.00,0.0082
2682.00,0.0081
2681.00,0.0081
2680.00,0.0080
2679.00,0.0080
2678.00,0.0080
2677.00,0.0080
2676.00,0.0079
2675.00,0.0079
2674.00,0.0079
2673.00,0.0079
2672.00,0.0078
2671.00,0.0078
2670.00,0.0078
2669.00,0.0078
2668.00,0.0078
2667.00,0.0078
2666.00,0.0078
2665.00,0.0078
2664.00,0.0078
2663.00,0.0078
2662.00,0.0078
2661.00,0.0078
2660.00,0.0078
2659.00,0.0078
2658.00,0.0077
2657.00,0.0077
2656.00,0.0077
2655.00,0.0076
2654.00,0.0076
2653.00,0.0076
2652.00,0.0076
2651.00,0.0075
2650.00,0.0075
2649.00,0.0075
2648.00,0.0074
2647.00,0.0074
2646.00,0.0073
2645.00,0.0073
2644.00,0.0072
2643.00,0.0072
2642.00,0.0071
2641.00,0.0071
2640.00,0.0071
2639.00,0.0070
2638.00,0.0070
2637.00,0.0070
2636.00,0.0070
2635.00,0.0069
2634.00,0.0069
2633.00,0.0068
2632.00,0.0068
2631.00,0.0068
2630.00,0.0067
2629.00,0.0067
2628.00,0.0067
2627.00,0.0066
2626.00,0.0066
2625.00,0.0065
2624.00,0.0065
2623.00,0.0065
2622.00,0.0064
2621.00,0.0064
2620.00,0.0063
2619.00,0.0063
2618.00,0.0062
2617.00,0.0062
2616.00,0.0062
2615.00,0.0062
2614.00,0.0062
2613.00,0.0061
2612.00,0.0061
2611.00,0.0061
2610.00,0.0061
2609.00,0.0061
2608.00,0.0061
2607.00,0.0060
2606.00,0.0060
2605.00,0.0060
2604.00,0.0060
2603.00,0.0059
2602.00,0.0059
2601.00,0.0059
2600.00,0.0059
2599.00,0.0059
2598.00,0.0059
2597.00,0.0059
2596.00,0.0059
2595.00,0.0059
2594.00,0.0060
2593.00,0.0060
2592.00,0.0060
2591.00,0.0060
2590.00,0.0060
2589.00,0.0059
2588.00,0.0059
2587.00,0.0059
2586.00,0.0059
2585.00,0.0059
2584.00,0.0059
2583.00,0.0058
2582.00,0.0058
2581.00,0.0058
2580.00,0.0058
2579.00,0.0058
2578.00,0.0058
2577.00,0.0057
2576.00,0.0057
2575.00,0.0057
2574.00,0.0056
2573.00,0.0056
2572.00,0.0055
2571.00,0.0055
2570.00,0.0055
2569.00,0.0055
2568.00,0.0055
2567.00,0.0055
2566.00,0.0054
2565.00,0.0054
2564.00,0.0054
2563.00,0.0054
2562.00,0.0053
2561.00,0.0053
2560.00,0.0053
2559.00,0.0053
2558.00,0.0052
2557.00,0.0052
2556.00,0.0052
2555.00,0.0052
2554.00,0.0051
2553.00,0.0051
2552.00,0.0051
2551.00,0.0051
2550.00,0.0051
2549.00,0.0051
2548.00,0.0051
2547.00,0.0050
2546.00,0.0050
2545.00,0.0049
2544.00,0.0049
2543.00,0.0049
2542.00,0.0049
2541.00,0.0049
2540.00,0.0049
2539.00,0.0049
2538.00,0.0049
2537.00,0.0049
2536.00,0.0049
2535.00,0.0048
2534.00,0.0048
2533.00,0.0048
2532.00,0.0048
2531.00,0.0049
2530.00,0.0049
2529.00,0.0048
2528.00,0.0048
2527.00,0.0048
2526.00,0.0047
2525.00,0.0047
2524.00,0.0047
2523.00,0.0047
2522.00,0.0046
2521.00,0.0046
2520.00,0.0046
2519.00,0.0046
2518.00,0.0046
2517.00,0.0045
2516.00,0.0045
2515.00,0.0045
2514.00,0.0044
2513.00,0.0044
2512.00,0.0044
2511.00,0.0043
2510.00,0.0043
2509.00,0.0043
2508.00,0.0043
2507.00,0.0043
2506.00,0.0043
2505.00,0.0043
2504.00,0.0043
2503.00,0.0043
2502.00,0.0043
2501.00,0.0043
2500.00,0.0043
2499.00,0.0043
2498.00,0.0043
2497.00,0.0043
2496.00,0.0042
2495.00,0.0042
2494.00,0.0041
2493.00,0.0041
2492.00,0.0041
2491.00,0.0041
2490.00,0.0040
2489.00,0.0040
2488.00,0.0040
2487.00,0.0039
2486.00,0.0039
2485.00,0.0039
2484.00,0.0039
2483.00,0.0039
2482.00,0.0039
2481.00,0.0039
2480.00,0.0039
2479.00,0.0039
2478.00,0.0038
2477.00,0.0037
2476.00,0.0037
2475.00,0.0037
2474.00,0.0037
2473.00,0.0037
2472.00,0.0037
2471.00,0.0037
2470.00,0.0036
2469.00,0.0036
2468.00,0.0036
2467.00,0.0036
2466.00,0.0036
2465.00,0.0036
2464.00,0.0036
2463.00,0.0036
2462.00,0.0036
2461.00,0.0036
2460.00,0.0036
2459.00,0.0037
2458.00,0.0037
2457.00,0.0037
2456.00,0.0037
2455.00,0.0037
2454.00,0.0037
2453.00,0.0037
2452.00,0.0036
2451.00,0.0036
2450.00,0.0036
2449.00,0.0035
2448.00,0.0036
2447.00,0.0036
2446.00,0.0035
2445.00,0.0035
2444.00,0.0035
2443.00,0.0035
2442.00,0.0034
2441.00,0.0034
2440.00,0.0034
2439.00,0.0034
2438.00,0.0034
2437.00,0.0034
2436.00,0.0034
2435.00,0.0034
2434.00,0.0034
2433.00,0.0033
2432.00,0.0033
2431.00,0.0033
2430.00,0.0033
2429.00,0.0033
2428.00,0.0033
2427.00,0.0033
2426.00,0.0033
2425.00,0.0033
2424.00,0.0034
2423.00,0.0034
2422.00,0.0033
2421.00,0.0033
2420.00,0.0033
2419.00,0.0033
2418.00,0.0033
2417.00,0.0033
2416.00,0.0034
2415.00,0.0033
2414.00,0.0033
2413.00,0.0034
2412.00,0.0034
2411.00,0.0034
2410.00,0.0034
2409.00,0.0034
2408.00,0.0034
2407.00,0.0033
2406.00,0.0033
2405.00,0.0033
2404.00,0.0034
2403.00,0.0034
2402.00,0.0034
2401.00,0.0035
2400.00,0.0035
2399.00,0.0034
2398.00,0.0034
2397.00,0.0033
2396.00,0.0033
2395.00,0.0033
2394.00,0.0033
2393.00,0.0033
2392.00,0.0033
2391.00,0.0032
2390.00,0.0032
2389.00,0.0032
2388.00,0.0031
2387.00,0.0031
2386.00,0.0031
2385.00,0.0031
2384.00,0.0030
2383.00,0.0030
2382.00,0.0030
2381.00,0.0029
2380.00,0.0029
2379.00,0.0029
2378.00,0.0029
2377.00,0.0028
2376.00,0.0028
2375.00,0.0029
2374.00,0.0029
2373.00,0.0029
2372.00,0.0029
2371.00,0.0028
2370.00,0.0028
2369.00,0.0027
2368.00,0.0027
2367.00,0.0028
2366.00,0.0028
2365.00,0.0028
2364.00,0.0028
2363.00,0.0028
2362.00,0.0029
2361.00,0.0029
2360.00,0.0030
2359.00,0.0030
2358.00,0.0030
2357.00,0.0030
2356.00,0.0030
2355.00,0.0030
2354.00,0.0029
2353.00,0.0029
2352.00,0.0029
2351.00,0.0030
2350.00,0.0030
2349.00,0.0030
2348.00,0.0030
2347.00,0.0031
2346.00,0.0031
2345.00,0.0031
2344.00,0.0031
2343.00,0.0031
2342.00,0.0031
2341.00,0.0031
2340.00,0.0032
2339.00,0.0033
2338.00,0.0033
2337.00,0.0033
2336.00,0.0033
2335.00,0.0033
2334.00,0.0033
2333.00,0.0033
2332.00,0.0033
2331.00,0.0033
2330.00,0.0033
2329.00,0.0035
2328.00,0.0038
2327.00,0.0041
2326.00,0.0044
2325.00,0.0045
2324.00,0.0044
2323.00,0.0043
2322.00,0.0041
2321.00,0.0040
2320.00,0.0039
2319.00,0.0039
2318.00,0.0038
2317.00,0.0037
2316.00,0.0037
2315.00,0.0037
2314.00,0.0036
2313.00,0.0036
2312.00,0.0036
2311.00,0.0036
2310.00,0.0036
2309.00,0.0036
2308.00,0.0036
2307.00,0.0036
2306.00,0.0036
2305.00,0.0036
2304.00,0.0036
2303.00,0.0036
2302.00,0.0036
2301.00,0.0036
2300.00,0.0036
2299.00,0.0036
2298.00,0.0036
2297.00,0.0036
2296.00,0.0036
2295.00,0.0037
2294.00,0.0037
2293.00,0.0037
2292.00,0.0038
2291.00,0.0038
2290.00,0.0039
2289.00,0.0040
2288.00,0.0040
2287.00,0.0040
2286.00,0.0039
2285.00,0.0039
2284.00,0.0038
2283.00,0.0038
2282.00,0.0037
2281.00,0.0036
2280.00,0.0036
2279.00,0.0036
2278.00,0.0036
2277.00,0.0036
2276.00,0.0036
2275.00,0.0036
2274.00,0.0036
2273.00,0.0036
2272.00,0.0035
2271.00,0.0034
2270.00,0.0033
2269.00,0.0033
2268.00,0.0033
2267.00,0.0033
2266.00,0.0033
2265.00,0.0032
2264.00,0.0032
2263.00,0.0032
2262.00,0.0032
2261.00,0.0033
2260.00,0.0033
2259.00,0.0033
2258.00,0.0032
2257.00,0.0030
2256.00,0.0029
2255.00,0.0029
2254.00,0.0029
2253.00,0.0030
2252.00,0.0031
2251.00,0.0031
2250.00,0.0031
2249.00,0.0032
2248.00,0.0032
2247.00,0.0032
2246.00,0.0031
2245.00,0.0032
2244.00,0.0032
2243.00,0.0033
2242.00,0.0033
2241.00,0.0033
2240.00,0.0033
2239.00,0.0033
2238.00,0.0033
2237.00,0.0034
2236.00,0.0034
2235.00,0.0034
2234.00,0.0034
2233.00,0.0034
2232.00,0.0034
2231.00,0.0033
2230.00,0.0032
2229.00,0.0032
2228.00,0.0031
2227.00,0.0031
2226.00,0.0031
2225.00,0.0032
2224.00,0.0033
2223.00,0.0033
2222.00,0.0034
2221.00,0.0034
2220.00,0.0034
2219.00,0.0033
2218.00,0.0032
2217.00,0.0032
2216.00,0.0033
2215.00,0.0034
2214.00,0.0034
2213.00,0.0034
2212.00,0.0033
2211.00,0.0033
2210.00,0.0032
2209.00,0.0032
2208.00,0.0033
2207.00,0.0034
2206.00,0.0034
2205.00,0.0035
2204.00,0.0035
2203.00,0.0035
2202.00,0.0035
2201.00,0.0034
2200.00,0.0033
2199.00,0.0032
2198.00,0.0032
2197.00,0.0032
2196.00,0.0033
2195.00,0.0034
2194.00,0.0033
2193.00,0.0034
2192.00,0.0035
2191.00,0.0035
2190.00,0.0036
2189.00,0.0036
2188.00,0.0037
2187.00,0.0037
2186.00,0.0035
2185.00,0.0032
2184.00,0.0029
2183.00,0.0027
2182.00,0.0026
2181.00,0.0027
2180.00,0.0030
2179.00,0.0032
2178.00,0.0031
2177.00,0.0028
2176.00,0.0026
2175.00,0.0024
2174.00,0.0024
2173.00,0.0026
2172.00,0.0029
2171.00,0.0032
2170.00,0.0034
2169.00,0.0036
2168.00,0.0038
2167.00,0.0038
2166.00,0.0037
2165.00,0.0037
2164.00,0.0039
2163.00,0.0039
2162.00,0.0035
2161.00,0.0027
2160.00,0.0016
2159.00,0.0006
2158.00,0.0000
2157.00,0.0000
2156.00,0.0003
2155.00,0.0006
2154.00,0.0007
2153.00,0.0009
2152.00,0.0012
2151.00,0.0014
2150.00,0.0015
2149.00,0.0016
2148.00,0.0017
2147.00,0.0017
2146.00,0.0016
2145.00,0.0016
2144.00,0.0016
2143.00,0.0016
2142.00,0.0015
2141.00,0.0016
2140.00,0.0017
2139.00,0.0018
2138.00,0.0017
2137.00,0.0015
2136.00,0.0013
2135.00,0.0011
2134.00,0.0010
2133.00,0.0011
2132.00,0.0014
2131.00,0.0017
2130.00,0.0018
2129.00,0.0019
2128.00,0.0021
2127.00,0.0022
2126.00,0.0022
2125.00,0.0022
2124.00,0.0023
2123.00,0.0023
2122.00,0.0024
2121.00,0.0024
2120.00,0.0026
2119.00,0.0027
2118.00,0.0027
2117.00,0.0028
2116.00,0.0029
2115.00,0.0030
2114.00,0.0030
2113.00,0.0031
2112.00,0.0031
2111.00,0.0030
2110.00,0.0029
2109.00,0.0028
2108.00,0.0027
2107.00,0.0026
2106.00,0.0025
2105.00,0.0025
2104.00,0.0025
2103.00,0.0024
2102.00,0.0024
2101.00,0.0024
2100.00,0.0024
2099.00,0.0025
2098.00,0.0024
2097.00,0.0023
2096.00,0.0021
2095.00,0.0020
2094.00,0.0020
2093.00,0.0020
2092.00,0.0021
2091.00,0.0022
2090.00,0.0023
2089.00,0.0023
2088.00,0.0024
2087.00,0.0025
2086.00,0.0024
2085.00,0.0024
2084.00,0.0024
2083.00,0.0024
2082.00,0.0024
2081.00,0.0024
2080.00,0.0024
2079.00,0.0024
2078.00,0.0024
2077.00,0.0024
2076.00,0.0024
2075.00,0.0024
2074.00,0.0023
2073.00,0.0022
2072.00,0.0022
2071.00,0.0022
2070.00,0.0021
2069.00,0.0022
2068.00,0.0022
2067.00,0.0023
2066.00,0.0022
2065.00,0.0022
2064.00,0.0021
2063.00,0.0021
2062.00,0.0020
2061.00,0.0020
2060.00,0.0021
2059.00,0.0022
2058.00,0.0022
2057.00,0.0022
2056.00,0.0022
2055.00,0.0022
2054.00,0.0024
2053.00,0.0027
2052.00,0.0031
2051.00,0.0030
2050.00,0.0027
2049.00,0.0024
2048.00,0.0022
2047.00,0.0022
2046.00,0.0022
2045.00,0.0022
2044.00,0.0024
2043.00,0.0025
2042.00,0.0023
2041.00,0.0021
2040.00,0.0020
2039.00,0.0021
2038.00,0.0021
2037.00,0.0021
2036.00,0.0021
2035.00,0.0017
2034.00,0.0013
2033.00,0.0011
2032.00,0.0012
2031.00,0.0013
2030.00,0.0013
2029.00,0.0014
2028.00,0.0016
2027.00,0.0017
2026.00,0.0017
2025.00,0.0017
2024.00,0.0017
2023.00,0.0016
2022.00,0.0014
2021.00,0.0013
2020.00,0.0015
2019.00,0.0016
2018.00,0.0015
2017.00,0.0014
2016.00,0.0013
2015.00,0.0013
2014.00,0.0013
2013.00,0.0014
2012.00,0.0015
2011.00,0.0015
2010.00,0.0014
2009.00,0.0012
2008.00,0.0010
2007.00,0.0007
2006.00,0.0005
2005.00,0.0006
2004.00,0.0010
2003.00,0.0012
2002.00,0.0013
2001.00,0.0012
2000.00,0.0013
1999.00,0.0014
1998.00,0.0014
1997.00,0.0015
1996.00,0.0017
1995.00,0.0019
1994.00,0.0019
1993.00,0.0018
1992.00,0.0019
1991.00,0.0019
1990.00,0.0019
1989.00,0.0019
1988.00,0.0020
1987.00,0.0020
1986.00,0.0020
1985.00,0.0021
1984.00,0.0024
1983.00,0.0027
1982.00,0.0029
1981.00,0.0029
1980.00,0.0028
1979.00,0.0023
1978.00,0.0015
1977.00,0.0009
1976.00,0.0007
1975.00,0.0007
1974.00,0.0006
1973.00,0.0008
1972.00,0.0011
1971.00,0.0013
1970.00,0.0014
1969.00,0.0014
1968.00,0.0014
1967.00,0.0013
1966.00,0.0010
1965.00,0.0009
1964.00,0.0010
1963.00,0.0011
1962.00,0.0010
1961.00,0.0009
1960.00,0.0009
1959.00,0.0009
1958.00,0.0010
1957.00,0.0011
1956.00,0.0014
1955.00,0.0015
1954.00,0.0015
1953.00,0.0014
1952.00,0.0014
1951.00,0.0015
1950.00,0.0015
1949.00,0.0015
1948.00,0.0016
1947.00,0.0017
1946.00,0.0015
1945.00,0.0015
1944.00,0.0014
1943.00,0.0014
1942.00,0.0013
1941.00,0.0014
1940.00,0.0015
1939.00,0.0016
1938.00,0.0015
1937.00,0.0015
1936.00,0.0016
1935.00,0.0017
1934.00,0.0017
1933.00,0.0017
1932.00,0.0018
1931.00,0.0018
1930.00,0.0017
1929.00,0.0016
1928.00,0.0016
1927.00,0.0017
1926.00,0.0017
1925.00,0.0018
1924.00,0.0020
1923.00,0.0021
1922.00,0.0020
1921.00,0.0020
1920.00,0.0021
1919.00,0.0022
1918.00,0.0022
1917.00,0.0022
1916.00,0.0023
1915.00,0.0023
1914.00,0.0022
1913.00,0.0021
1912.00,0.0022
1911.00,0.0022
1910.00,0.0022
1909.00,0.0023
1908.00,0.0023
1907.00,0.0024
1906.00,0.0023
1905.00,0.0022
1904.00,0.0022
1903.00,0.0022
1902.00,0.0021
1901.00,0.0021
1900.00,0.0022
1899.00,0.0022
1898.00,0.0022
1897.00,0.0022
1896.00,0.0022
1895.00,0.0022
1894.00,0.0021
1893.00,0.0021
1892.00,0.0022
1891.00,0.0022
1890.00,0.0022
1889.00,0.0022
1888.00,0.0022
1887.00,0.0022
1886.00,0.0022
1885.00,0.0022
1884.00,0.0023
1883.00,0.0023
1882.00,0.0022
1881.00,0.0022
1880.00,0.0023
1879.00,0.0023
1878.00,0.0023
1877.00,0.0023
1876.00,0.0023
1875.00,0.0023
1874.00,0.0023
1873.00,0.0023
1872.00,0.0024
1871.00,0.0025
1870.00,0.0025
1869.00,0.0025
1868.00,0.0026
1867.00,0.0025
1866.00,0.0025
1865.00,0.0025
1864.00,0.0025
1863.00,0.0026
1862.00,0.0026
1861.00,0.0025
1860.00,0.0025
1859.00,0.0025
1858.00,0.0024
1857.00,0.0024
1856.00,0.0025
1855.00,0.0025
1854.00,0.0025
1853.00,0.0026
1852.00,0.0026
1851.00,0.0027
1850.00,0.0027
1849.00,0.0027
1848.00,0.0028
1847.00,0.0027
1846.00,0.0026
1845.00,0.0026
1844.00,0.0026
1843.00,0.0027
1842.00,0.0027
1841.00,0.0027
1840.00,0.0029
1839.00,0.0030
1838.00,0.0030
1837.00,0.0030
1836.00,0.0029
1835.00,0.0029
1834.00,0.0029
1833.00,0.0029
1832.00,0.0030
1831.00,0.0031
1830.00,0.0030
1829.00,0.0030
1828.00,0.0030
1827.00,0.0030
1826.00,0.0030
1825.00,0.0030
1824.00,0.0031
1823.00,0.0030
1822.00,0.0030
1821.00,0.0030
1820.00,0.0030
1819.00,0.0029
1818.00,0.0028
1817.00,0.0027
1816.00,0.0028
1815.00,0.0029
1814.00,0.0029
1813.00,0.0030
1812.00,0.0031
1811.00,0.0031
1810.00,0.0031
1809.00,0.0031
1808.00,0.0032
1807.00,0.0032
1806.00,0.0032
1805.00,0.0033
1804.00,0.0034
1803.00,0.0034
1802.00,0.0034
1801.00,0.0033
1800.00,0.0034
1799.00,0.0034
1798.00,0.0034
1797.00,0.0035
1796.00,0.0035
1795.00,0.0035
1794.00,0.0034
1793.00,0.0034
1792.00,0.0035
1791.00,0.0036
1790.00,0.0036
1789.00,0.0036
1788.00,0.0037
1787.00,0.0038
1786.00,0.0038
1785.00,0.0038
1784.00,0.0039
1783.00,0.0040
1782.00,0.0041
1781.00,0.0042
1780.00,0.0043
1779.00,0.0043
1778.00,0.0043
1777.00,0.0043
1776.00,0.0043
1775.00,0.0044
1774.00,0.0043
1773.00,0.0044
1772.00,0.0045
1771.00,0.0047
1770.00,0.0047
1769.00,0.0048
1768.00,0.0049
1767.00,0.0050
1766.00,0.0050
1765.00,0.0050
1764.00,0.0051
1763.00,0.0051
1762.00,0.0051
1761.00,0.0052
1760.00,0.0054
1759.00,0.0055
1758.00,0.0056
1757.00,0.0056
1756.00,0.0058
1755.00,0.0059
1754.00,0.0059
1753.00,0.0060
1752.00,0.0062
1751.00,0.0065
1750.00,0.0067
1749.00,0.0068
1748.00,0.0070
1747.00,0.0072
1746.00,0.0072
1745.00,0.0074
1744.00,0.0075
1743.00,0.0076
1742.00,0.0075
1741.00,0.0076
1740.00,0.0078
1739.00,0.0081
1738.00,0.0081
1737.00,0.0081
1736.00,0.0082
1735.00,0.0086
1734.00,0.0089
1733.00,0.0094
1732.00,0.0100
1731.00,0.0104
1730.00,0.0106
1729.00,0.0109
1728.00,0.0112
1727.00,0.0116
1726.00,0.0120
1725.00,0.0124
1724.00,0.0129
1723.00,0.0134
1722.00,0.0136
1721.00,0.0138
1720.00,0.0143
1719.00,0.0150
1718.00,0.0157
1717.00,0.0166
1716.00,0.0177
1715.00,0.0187
1714.00,0.0195
1713.00,0.0204
1712.00,0.0216
1711.00,0.0228
1710.00,0.0239
1709.00,0.0252
1708.00,0.0269
1707.00,0.0289
1706.00,0.0311
1705.00,0.0336
1704.00,0.0359
1703.00,0.0377
1702.00,0.0399
1701.00,0.0444
1700.00,0.0510
1699.00,0.0569
1698.00,0.0614
1697.00,0.0668
1696.00,0.0748
1695.00,0.0839
1694.00,0.0915
1693.00,0.0980
1692.00,0.1048
1691.00,0.1127
1690.00,0.1215
1689.00,0.1303
1688.00,0.1380
1687.00,0.1444
1686.00,0.1511
1685.00,0.1612
1684.00,0.1745
1683.00,0.1855
1682.00,0.1920
1681.00,0.1970
1680.00,0.2019
1679.00,0.2066
1678.00,0.2104
1677.00,0.2144
1676.00,0.2201
1675.00,0.2269
1674.00,0.2325
1673.00,0.2365
1672.00,0.2401
1671.00,0.2452
1670.00,0.2525
1669.00,0.2610
1668.00,0.2686
1667.00,0.2743
1666.00,0.2786
1665.00,0.2832
1664.00,0.2897
1663.00,0.2980
1662.00,0.3064
1661.00,0.3130
1660.00,0.3180
1659.00,0.3220
1658.00,0.3250
1657.00,0.3265
1656.00,0.3269
1655.00,0.3276
1654.00,0.3311
1653.00,0.3367
1652.00,0.3385
1651.00,0.3352
1650.00,0.3295
1649.00,0.3231
1648.00,0.3162
1647.00,0.3081
1646.00,0.2983
1645.00,0.2875
1644.00,0.2764
1643.00,0.2649
1642.00,0.2529
1641.00,0.2406
1640.00,0.2285
1639.00,0.2169
1638.00,0.2055
1637.00,0.1938
1636.00,0.1815
1635.00,0.1699
1634.00,0.1603
1633.00,0.1521
1632.00,0.1447
1631.00,0.1377
1630.00,0.1312
1629.00,0.1253
1628.00,0.1200
1627.00,0.1156
1626.00,0.1118
1625.00,0.1086
1624.00,0.1060
1623.00,0.1038
1622.00,0.1018
1621.00,0.0998
1620.00,0.0976
1619.00,0.0954
1618.00,0.0930
1617.00,0.0906
1616.00,0.0880
1615.00,0.0854
1614.00,0.0827
1613.00,0.0799
1612.00,0.0771
1611.00,0.0745
1610.00,0.0724
1609.00,0.0707
1608.00,0.0696
1607.00,0.0693
1606.00,0.0696
1605.00,0.0706
1604.00,0.0722
1603.00,0.0742
1602.00,0.0763
1601.00,0.0782
1600.00,0.0796
1599.00,0.0802
1598.00,0.0800
1597.00,0.0790
1596.00,0.0772
1595.00,0.0747
1594.00,0.0719
1593.00,0.0688
1592.00,0.0658
1591.00,0.0630
1590.00,0.0603
1589.00,0.0578
1588.00,0.0556
1587.00,0.0535
1586.00,0.0515
1585.00,0.0495
1584.00,0.0476
1583.00,0.0456
1582.00,0.0438
1581.00,0.0420
1580.00,0.0402
1579.00,0.0386
1578.00,0.0370
1577.00,0.0355
1576.00,0.0340
1575.00,0.0328
1574.00,0.0319
1573.00,0.0311
1572.00,0.0302
1571.00,0.0295
1570.00,0.0288
1569.00,0.0281
1568.00,0.0275
1567.00,0.0270
1566.00,0.0266
1565.00,0.0261
1564.00,0.0255
1563.00,0.0248
1562.00,0.0241
1561.00,0.0235
1560.00,0.0232
1559.00,0.0230
1558.00,0.0229
1557.00,0.0229
1556.00,0.0229
1555.00,0.0229
1554.00,0.0228
1553.00,0.0228
1552.00,0.0228
1551.00,0.0227
1550.00,0.0227
1549.00,0.0226
1548.00,0.0225
1547.00,0.0225
1546.00,0.0226
1545.00,0.0227
1544.00,0.0227
1543.00,0.0225
1542.00,0.0225
1541.00,0.0225
1540.00,0.0225
1539.00,0.0225
1538.00,0.0226
1537.00,0.0226
1536.00,0.0225
1535.00,0.0223
1534.00,0.0222
1533.00,0.0221
1532.00,0.0219
1531.00,0.0218
1530.00,0.0217
1529.00,0.0216
1528.00,0.0216
1527.00,0.0216
1526.00,0.0216
1525.00,0.0215
1524.00,0.0215
1523.00,0.0216
1522.00,0.0217
1521.00,0.0220
1520.00,0.0223
1519.00,0.0225
1518.00,0.0228
1517.00,0.0230
1516.00,0.0232
1515.00,0.0232
1514.00,0.0233
1513.00,0.0236
1512.00,0.0240
1511.00,0.0244
1510.00,0.0249
1509.00,0.0254
1508.00,0.0263
1507.00,0.0279
1506.00,0.0300
1505.00,0.0321
1504.00,0.0342
1503.00,0.0363
1502.00,0.0386
1501.00,0.0413
1500.00,0.0444
1499.00,0.0478
1498.00,0.0515
1497.00,0.0554
1496.00,0.0587
1495.00,0.0608
1494.00,0.0619
1493.00,0.0619
1492.00,0.0611
1491.00,0.0593
1490.00,0.0566
1489.00,0.0534
1488.00,0.0499
1487.00,0.0464
1486.00,0.0433
1485.00,0.0408
1484.00,0.0387
1483.00,0.0370
1482.00,0.0357
1481.00,0.0349
1480.00,0.0345
1479.00,0.0345
1478.00,0.0349
1477.00,0.0359
1476.00,0.0372
1475.00,0.0389
1474.00,0.0415
1473.00,0.0458
1472.00,0.0514
1471.00,0.0573
1470.00,0.0630
1469.00,0.0691
1468.00,0.0757
1467.00,0.0831
1466.00,0.0921
1465.00,0.1024
1464.00,0.1120
1463.00,0.1190
1462.00,0.1232
1461.00,0.1252
1460.00,0.1256
1459.00,0.1240
1458.00,0.1203
1457.00,0.1149
1456.00,0.1093
1455.00,0.1047
1454.00,0.1015
1453.00,0.0992
1452.00,0.0980
1451.00,0.0980
1450.00,0.0994
1449.00,0.1026
1448.00,0.1075
1447.00,0.1135
1446.00,0.1198
1445.00,0.1264
1444.00,0.1332
1443.00,0.1402
1442.00,0.1469
1441.00,0.1532
1440.00,0.1584
1439.00,0.1628
1438.00,0.1675
1437.00,0.1734
1436.00,0.1796
1435.00,0.1843
1434.00,0.1878
1433.00,0.1913
1432.00,0.1953
1431.00,0.1995
1430.00,0.2039
1429.00,0.2080
1428.00,0.2114
1427.00,0.2140
1426.00,0.2163
1425.00,0.2190
1424.00,0.2212
1423.00,0.2216
1422.00,0.2195
1421.00,0.2150
1420.00,0.2070
1419.00,0.1948
1418.00,0.1806
1417.00,0.1666
1416.00,0.1533
1415.00,0.1406
1414.00,0.1288
1413.00,0.1183
1412.00,0.1089
1411.00,0.1007
1410.00,0.0940
1409.00,0.0886
1408.00,0.0841
1407.00,0.0804
1406.00,0.0774
1405.00,0.0749
1404.00,0.0727
1403.00,0.0710
1402.00,0.0697
1401.00,0.0687
1400.00,0.0679
1399.00,0.0672
1398.00,0.0668
1397.00,0.0665
1396.00,0.0662
1395.00,0.0661
1394.00,0.0663
1393.00,0.0666
1392.00,0.0669
1391.00,0.0674
1390.00,0.0681
1389.00,0.0692
1388.00,0.0706
1387.00,0.0725
1386.00,0.0745
1385.00,0.0765
1384.00,0.0784
1383.00,0.0804
1382.00,0.0824
1381.00,0.0844
1380.00,0.0861
1379.00,0.0877
1378.00,0.0891
1377.00,0.0902
1376.00,0.0906
1375.00,0.0904
1374.00,0.0896
1373.00,0.0881
1372.00,0.0862
1371.00,0.0842
1370.00,0.0821
1369.00,0.0798
1368.00,0.0774
1367.00,0.0750
1366.00,0.0726
1365.00,0.0703
1364.00,0.0679
1363.00,0.0656
1362.00,0.0634
1361.00,0.0614
1360.00,0.0598
1359.00,0.0586
1358.00,0.0576
1357.00,0.0569
1356.00,0.0563
1355.00,0.0558
1354.00,0.0553
1353.00,0.0548
1352.00,0.0543
1351.00,0.0536
1350.00,0.0529
1349.00,0.0521
1348.00,0.0513
1347.00,0.0504
1346.00,0.0497
1345.00,0.0490
1344.00,0.0485
1343.00,0.0481
1342.00,0.0480
1341.00,0.0481
1340.00,0.0482
1339.00,0.0484
1338.00,0.0488
1337.00,0.0492
1336.00,0.0497
1335.00,0.0504
1334.00,0.0512
1333.00,0.0522
1332.00,0.0534
1331.00,0.0549
1330.00,0.0565
1329.00,0.0585
1328.00,0.0606
1327.00,0.0629
1326.00,0.0655
1325.00,0.0683
1324.00,0.0710
1323.00,0.0737
1322.00,0.0763
1321.00,0.0786
1320.00,0.0804
1319.00,0.0817
1318.00,0.0823
1317.00,0.0824
1316.00,0.0817
1315.00,0.0805
1314.00,0.0790
1313.00,0.0772
1312.00,0.0752
1311.00,0.0734
1310.00,0.0718
1309.00,0.0705
1308.00,0.0696
1307.00,0.0692
1306.00,0.0694
1305.00,0.0703
1304.00,0.0721
1303.00,0.0747
1302.00,0.0785
1301.00,0.0836
1300.00,0.0901
1299.00,0.0983
1298.00,0.1082
1297.00,0.1199
1296.00,0.1330
1295.00,0.1472
1294.00,0.1618
1293.00,0.1761
1292.00,0.1893
1291.00,0.2010
1290.00,0.2106
1289.00,0.2179
1288.00,0.2226
1287.00,0.2245
1286.00,0.2239
1285.00,0.2208
1284.00,0.2159
1283.00,0.2098
1282.00,0.2033
1281.00,0.1973
1280.00,0.1924
1279.00,0.1891
1278.00,0.1874
1277.00,0.1872
1276.00,0.1880
1275.00,0.1892
1274.00,0.1902
1273.00,0.1906
1272.00,0.1898
1271.00,0.1875
1270.00,0.1837
1269.00,0.1786
1268.00,0.1723
1267.00,0.1652
1266.00,0.1577
1265.00,0.1501
1264.00,0.1426
1263.00,0.1354
1262.00,0.1287
1261.00,0.1223
1260.00,0.1163
1259.00,0.1107
1258.00,0.1055
1257.00,0.1007
1256.00,0.0963
1255.00,0.0921
1254.00,0.0884
1253.00,0.0850
1252.00,0.0818
1251.00,0.0789
1250.00,0.0764
1249.00,0.0742
1248.00,0.0723
1247.00,0.0708
1246.00,0.0696
1245.00,0.0687
1244.00,0.0682
1243.00,0.0680
1242.00,0.0683
1241.00,0.0689
1240.00,0.0698
1239.00,0.0712
1238.00,0.0730
1237.00,0.0752
1236.00,0.0777
1235.00,0.0805
1234.00,0.0835
1233.00,0.0865
1232.00,0.0893
1231.00,0.0918
1230.00,0.0939
1229.00,0.0954
1228.00,0.0963
1227.00,0.0967
1226.00,0.0967
1225.00,0.0964
1224.00,0.0958
1223.00,0.0952
1222.00,0.0945
1221.00,0.0936
1220.00,0.0925
1219.00,0.0911
1218.00,0.0895
1217.00,0.0875
1216.00,0.0853
1215.00,0.0830
1214.00,0.0806
1213.00,0.0782
1212.00,0.0758
1211.00,0.0735
1210.00,0.0714
1209.00,0.0696
1208.00,0.0678
1207.00,0.0663
1206.00,0.0649
1205.00,0.0636
1204.00,0.0624
1203.00,0.0612
1202.00,0.0601
1201.00,0.0590
1200.00,0.0579
1199.00,0.0568
1198.00,0.0558
1197.00,0.0549
1196.00,0.0540
1195.00,0.0532
1194.00,0.0525
1193.00,0.0519
1192.00,0.0514
1191.00,0.0509
1190.00,0.0506
1189.00,0.0503
1188.00,0.0501
1187.00,0.0499
1186.00,0.0498
1185.00,0.0499
1184.00,0.0499
1183.00,0.0501
1182.00,0.0505
1181.00,0.0510
1180.00,0.0518
1179.00,0.0528
1178.00,0.0542
1177.00,0.0558
1176.00,0.0575
1175.00,0.0596
1174.00,0.0618
1173.00,0.0642
1172.00,0.0666
1171.00,0.0689
1170.00,0.0710
1169.00,0.0729
1168.00,0.0744
1167.00,0.0754
1166.00,0.0758
1165.00,0.0757
1164.00,0.0748
1163.00,0.0734
1162.00,0.0715
1161.00,0.0694
1160.00,0.0671
1159.00,0.0647
1158.00,0.0625
1157.00,0.0604
1156.00,0.0583
1155.00,0.0562
1154.00,0.0543
1153.00,0.0524
1152.00,0.0505
1151.00,0.0487
1150.00,0.0470
1149.00,0.0454
1148.00,0.0437
1147.00,0.0421
1146.00,0.0407
1145.00,0.0393
1144.00,0.0380
1143.00,0.0369
1142.00,0.0359
1141.00,0.0351
1140.00,0.0343
1139.00,0.0336
1138.00,0.0329
1137.00,0.0323
1136.00,0.0316
1135.00,0.0311
1134.00,0.0307
1133.00,0.0304
1132.00,0.0302
1131.00,0.0300
1130.00,0.0301
1129.00,0.0302
1128.00,0.0303
1127.00,0.0305
1126.00,0.0307
1125.00,0.0310
1124.00,0.0312
1123.00,0.0316
1122.00,0.0319
1121.00,0.0324
1120.00,0.0328
1119.00,0.0333
1118.00,0.0339
1117.00,0.0346
1116.00,0.0353
1115.00,0.0361
1114.00,0.0371
1113.00,0.0380
1112.00,0.0389
1111.00,0.0397
1110.00,0.0404
1109.00,0.0410
1108.00,0.0413
1107.00,0.0416
1106.00,0.0417
1105.00,0.0418
1104.00,0.0418
1103.00,0.0418
1102.00,0.0420
1101.00,0.0422
1100.00,0.0426
1099.00,0.0431
1098.00,0.0437
1097.00,0.0444
1096.00,0.0449
1095.00,0.0454
1094.00,0.0458
1093.00,0.0461
1092.00,0.0462
1091.00,0.0464
1090.00,0.0468
1089.00,0.0474
1088.00,0.0480
1087.00,0.0489
1086.00,0.0499
1085.00,0.0508
1084.00,0.0514
1083.00,0.0519
1082.00,0.0521
1081.00,0.0520
1080.00,0.0517
1079.00,0.0512
1078.00,0.0507
1077.00,0.0502
1076.00,0.0496
1075.00,0.0490
1074.00,0.0483
1073.00,0.0476
1072.00,0.0468
1071.00,0.0460
1070.00,0.0453
1069.00,0.0447
1068.00,0.0441
1067.00,0.0437
1066.00,0.0436
1065.00,0.0436
1064.00,0.0438
1063.00,0.0443
1062.00,0.0452
1061.00,0.0466
1060.00,0.0483
1059.00,0.0507
1058.00,0.0539
1057.00,0.0581
1056.00,0.0631
1055.00,0.0691
1054.00,0.0758
1053.00,0.0827
1052.00,0.0892
1051.00,0.0948
1050.00,0.0988
1049.00,0.1011
1048.00,0.1017
1047.00,0.1010
1046.00,0.0997
1045.00,0.0981
1044.00,0.0966
1043.00,0.0956
1042.00,0.0951
1041.00,0.0950
1040.00,0.0952
1039.00,0.0955
1038.00,0.0959
1037.00,0.0961
1036.00,0.0960
1035.00,0.0956
1034.00,0.0950
1033.00,0.0940
1032.00,0.0926
1031.00,0.0911
1030.00,0.0893
1029.00,0.0875
1028.00,0.0855
1027.00,0.0835
1026.00,0.0816
1025.00,0.0799
1024.00,0.0782
1023.00,0.0766
1022.00,0.0753
1021.00,0.0741
1020.00,0.0728
1019.00,0.0715
1018.00,0.0699
1017.00,0.0680
1016.00,0.0655
1015.00,0.0626
1014.00,0.0594
1013.00,0.0561
1012.00,0.0529
1011.00,0.0501
1010.00,0.0479
1009.00,0.0464
1008.00,0.0454
1007.00,0.0453
1006.00,0.0457
1005.00,0.0465
1004.00,0.0474
1003.00,0.0479
1002.00,0.0480
1001.00,0.0474
1000.00,0.0463
999.00,0.0449
998.00,0.0435
997.00,0.0421
996.00,0.0407
995.00,0.0396
994.00,0.0387
993.00,0.0380
992.00,0.0375
991.00,0.0372
990.00,0.0370
989.00,0.0370
988.00,0.0369
987.00,0.0369
986.00,0.0367
985.00,0.0364
984.00,0.0358
983.00,0.0350
982.00,0.0343
981.00,0.0335
980.00,0.0327
979.00,0.0320
978.00,0.0314
977.00,0.0308
976.00,0.0303
975.00,0.0297
974.00,0.0292
973.00,0.0287
972.00,0.0281
971.00,0.0275
970.00,0.0270
969.00,0.0264
968.00,0.0258
967.00,0.0252
966.00,0.0248
965.00,0.0243
964.00,0.0239
963.00,0.0234
962.00,0.0231
961.00,0.0227
960.00,0.0222
959.00,0.0218
958.00,0.0215
957.00,0.0211
956.00,0.0207
955.00,0.0203
954.00,0.0201
953.00,0.0199
952.00,0.0196
951.00,0.0194
950.00,0.0193
949.00,0.0192
948.00,0.0191
947.00,0.0190
946.00,0.0191
945.00,0.0193
944.00,0.0194
943.00,0.0197
942.00,0.0201
941.00,0.0207
940.00,0.0214
939.00,0.0223
938.00,0.0235
937.00,0.0249
936.00,0.0262
935.00,0.0274
934.00,0.0284
933.00,0.0289
932.00,0.0287
931.00,0.0281
930.00,0.0273
929.00,0.0265
928.00,0.0259
927.00,0.0255
926.00,0.0253
925.00,0.0252
924.00,0.0252
923.00,0.0252
922.00,0.0253
921.00,0.0255
920.00,0.0256
919.00,0.0258
918.00,0.0261
917.00,0.0265
916.00,0.0267
915.00,0.0270
914.00,0.0274
913.00,0.0278
912.00,0.0282
911.00,0.0286
910.00,0.0290
909.00,0.0294
908.00,0.0297
907.00,0.0300
906.00,0.0302
905.00,0.0304
904.00,0.0305
903.00,0.0307
902.00,0.0309
901.00,0.0311
900.00,0.0314
899.00,0.0317
898.00,0.0320
897.00,0.0323
896.00,0.0324
895.00,0.0323
894.00,0.0322
893.00,0.0319
892.00,0.0315
891.00,0.0311
890.00,0.0308
889.00,0.0304
888.00,0.0300
887.00,0.0297
886.00,0.0296
885.00,0.0295
884.00,0.0295
883.00,0.0296
882.00,0.0297
881.00,0.0299
880.00,0.0300
879.00,0.0302
878.00,0.0305
877.00,0.0308
876.00,0.0310
875.00,0.0313
874.00,0.0316
873.00,0.0320
872.00,0.0323
871.00,0.0327
870.00,0.0332
869.00,0.0338
868.00,0.0344
867.00,0.0351
866.00,0.0360
865.00,0.0370
864.00,0.0380
863.00,0.0392
862.00,0.0406
861.00,0.0421
860.00,0.0436
859.00,0.0452
858.00,0.0470
857.00,0.0489
856.00,0.0508
855.00,0.0528
854.00,0.0549
853.00,0.0570
852.00,0.0590
851.00,0.0609
850.00,0.0628
849.00,0.0644
848.00,0.0659
847.00,0.0672
846.00,0.0684
845.00,0.0694
844.00,0.0701
843.00,0.0707
842.00,0.0712
841.00,0.0716
840.00,0.0719
839.00,0.0722
838.00,0.0725
837.00,0.0727
836.00,0.0729
835.00,0.0731
834.00,0.0733
833.00,0.0734
832.00,0.0733
831.00,0.0730
830.00,0.0727
829.00,0.0722
828.00,0.0712
827.00,0.0700
826.00,0.0686
825.00,0.0669
824.00,0.0650
823.00,0.0630
822.00,0.0610
821.00,0.0591
820.00,0.0573
819.00,0.0555
818.00,0.0540
817.00,0.0526
816.00,0.0514
815.00,0.0503
814.00,0.0495
813.00,0.0488
812.00,0.0481
811.00,0.0476
810.00,0.0472
809.00,0.0469
808.00,0.0466
807.00,0.0463
806.00,0.0462
805.00,0.0461
804.00,0.0459
803.00,0.0458
802.00,0.0459
801.00,0.0460
800.00,0.0461
799.00,0.0462
798.00,0.0465
797.00,0.0468
796.00,0.0470
795.00,0.0472
794.00,0.0474
793.00,0.0476
792.00,0.0475
791.00,0.0475
790.00,0.0475
789.00,0.0475
788.00,0.0475
787.00,0.0476
786.00,0.0478
785.00,0.0480
784.00,0.0482
783.00,0.0484
782.00,0.0488
781.00,0.0491
780.00,0.0493
779.00,0.0496
778.00,0.0498
777.00,0.0500
776.00,0.0501
775.00,0.0502
774.00,0.0504
773.00,0.0506
772.00,0.0507
771.00,0.0509
770.00,0.0511
769.00,0.0514
768.00,0.0517
767.00,0.0521
766.00,0.0527
765.00,0.0534
764.00,0.0540
763.00,0.0548
762.00,0.0558
761.00,0.0568
760.00,0.0579
759.00,0.0591
758.00,0.0603
757.00,0.0617
756.00,0.0629
755.00,0.0642
754.00,0.0656
753.00,0.0669
752.00,0.0682
751.00,0.0696
750.00,0.0710
749.00,0.0724
748.00,0.0737
747.00,0.0750
746.00,0.0763
745.00,0.0775
744.00,0.0786
743.00,0.0796
742.00,0.0807
741.00,0.0817
740.00,0.0826
739.00,0.0835
738.00,0.0843
737.00,0.0850
736.00,0.0854
735.00,0.0854
734.00,0.0852
733.00,0.0847
732.00,0.0836
731.00,0.0823
730.00,0.0808
729.00,0.0791
728.00,0.0772
727.00,0.0754
726.00,0.0737
725.00,0.0721
724.00,0.0706
723.00,0.0693
722.00,0.0683
721.00,0.0674
720.00,0.0665
719.00,0.0658
718.00,0.0653
717.00,0.0649
716.00,0.0645
715.00,0.0643
714.00,0.0642
713.00,0.0642
712.00,0.0641
711.00,0.0642
710.00,0.0644
709.00,0.0645
708.00,0.0646
707.00,0.0647
706.00,0.0650
705.00,0.0652
704.00,0.0654
703.00,0.0656
702.00,0.0660
701.00,0.0664
700.00,0.0667
699.00,0.0670
698.00,0.0675
697.00,0.0680
696.00,0.0685
695.00,0.0691
694.00,0.0697
693.00,0.0703
692.00,0.0709
691.00,0.0715
690.00,0.0723
689.00,0.0731
688.00,0.0740
687.00,0.0748
686.00,0.0759
685.00,0.0769
684.00,0.0779
683.00,0.0788
682.00,0.0798
681.00,0.0808
680.00,0.0816
679.00,0.0824
678.00,0.0832
677.00,0.0840
676.00,0.0848
675.00,0.0857
674.00,0.0867
673.00,0.0878
672.00,0.0887
671.00,0.0894
670.00,0.0903
669.00,0.0917
668.00,0.0936
667.00,0.0956
666.00,0.0973
665.00,0.0986
664.00,0.0999
663.00,0.1015
662.00,0.1034
661.00,0.1053
660.00,0.1073
659.00,0.1094
658.00,0.1117
657.00,0.1139
656.00,0.1161
655.00,0.1183
654.00,0.1204
653.00,0.1225
652.00,0.1242
651.00,0.1256
650.00,0.1268
649.00,0.1275
648.00,0.1277
647.00,0.1274
646.00,0.1267
645.00,0.1256
644.00,0.1240
643.00,0.1221
642.00,0.1201
641.00,0.1179
640.00,0.1155
639.00,0.1132
638.00,0.1112
637.00,0.1093
636.00,0.1074
635.00,0.1056
634.00,0.1040
633.00,0.1025
632.00,0.1009
631.00,0.0996
630.00,0.0984
629.00,0.0974
628.00,0.0963
627.00,0.0952
626.00,0.0943
625.00,0.0935
624.00,0.0926
623.00,0.0920
622.00,0.0916
621.00,0.0913
620.00,0.0909
619.00,0.0907
618.00,0.0907
617.00,0.0907
616.00,0.0906
615.00,0.0905
614.00,0.0906
613.00,0.0907
612.00,0.0907
611.00,0.0909
610.00,0.0913
609.00,0.0918
608.00,0.0921
607.00,0.0925
606.00,0.0931
605.00,0.0938
604.00,0.0943
603.00,0.0949
602.00,0.0955
601.00,0.0961
600.00,0.0964
599.00,0.0967
598.00,0.0973
597.00,0.0981
596.00,0.0988
595.00,0.0996
594.00,0.1006
593.00,0.1017
592.00,0.1027
591.00,0.1038
590.00,0.1052
589.00,0.1065
588.00,0.1078
587.00,0.1094
586.00,0.1114
585.00,0.1135
584.00,0.1156
583.00,0.1177
582.00,0.1200
581.00,0.1222
580.00,0.1241
579.00,0.1257
578.00,0.1271
577.00,0.1282
576.00,0.1288
575.00,0.1291
574.00,0.1293
573.00,0.1291
572.00,0.1287
571.00,0.1281
570.00,0.1277
569.00,0.1270
568.00,0.1260
567.00,0.1249
566.00,0.1237
565.00,0.1224
564.00,0.1207
563.00,0.1189
562.00,0.1172
561.00,0.1154
560.00,0.1133
559.00,0.1114
558.00,0.1097
557.00,0.1081
556.00,0.1064
555.00,0.1049
554.00,0.1038
553.00,0.1027
552.00,0.1015
551.00,0.1004
550.00,0.0996
549.00,0.0988
548.00,0.0978
547.00,0.0969
546.00,0.0963
545.00,0.0958
544.00,0.0952
543.00,0.0946
542.00,0.0944
541.00,0.0941
540.00,0.0935
539.00,0.0931
538.00,0.0929
537.00,0.0926
536.00,0.0922
535.00,0.0918
534.00,0.0917
533.00,0.0917
532.00,0.0915
531.00,0.0913
530.00,0.0914
529.00,0.0915
528.00,0.0913
527.00,0.0909
526.00,0.0908
525.00,0.0905
524.00,0.0898
523.00,0.0892
522.00,0.0890
521.00,0.0888
520.00,0.0885
519.00,0.0882
518.00,0.0882
517.00,0.0882
516.00,0.0877
515.00,0.0872
514.00,0.0870
513.00,0.0868
512.00,0.0863
511.00,0.0859
510.00,0.0857
509.00,0.0855
508.00,0.0850
507.00,0.0847
506.00,0.0847
505.00,0.0849
504.00,0.0848
503.00,0.0847
502.00,0.0849
501.00,0.0849
500.00,0.0846
499.00,0.0845
498.00,0.0848
497.00,0.0851
496.00,0.0850
495.00,0.0851
494.00,0.0855
493.00,0.0858
492.00,0.0858
491.00,0.0858
490.00,0.0863
489.00,0.0866
488.00,0.0865
487.00,0.0863
486.00,0.0864
485.00,0.0865
484.00,0.0862
483.00,0.0862
482.00,0.0867
481.00,0.0872
480.00,0.0872
479.00,0.0872
478.00,0.0878
477.00,0.0883
476.00,0.0883
475.00,0.0883
474.00,0.0885
473.00,0.0885
472.00,0.0879
471.00,0.0876
470.00,0.0878
469.00,0.0878
468.00,0.0870
467.00,0.0861
466.00,0.0857
465.00,0.0855
464.00,0.0848
463.00,0.0844
462.00,0.0849
461.00,0.0854
460.00,0.0855
459.00,0.0855
458.00,0.0859
457.00,0.0858
456.00,0.0850
455.00,0.0845
454.00,0.0849
453.00,0.0852
452.00,0.0848
451.00,0.0843
450.00,0.0845
449.00,0.0845
448.00,0.0837
447.00,0.0828
446.00,0.0824
445.00,0.0821
444.00,0.0812
443.00,0.0804
442.00,0.0803
441.00,0.0800
440.00,0.0791
439.00,0.0784
438.00,0.0783
437.00,0.0782
436.00,0.0773
435.00,0.0766
434.00,0.0769
433.00,0.0771
432.00,0.0764
431.00,0.0756
430.00,0.0753
429.00,0.0750
428.00,0.0742
427.00,0.0736
426.00,0.0740
425.00,0.0745
424.00,0.0741
423.00,0.0740
422.00,0.0749
421.00,0.0756
420.00,0.0747
419.00,0.0735
418.00,0.0736
417.00,0.0737
416.00,0.0728
415.00,0.0722
414.00,0.0727
413.00,0.0733
412.00,0.0728
411.00,0.0726
410.00,0.0740
409.00,0.0752
408.00,0.0748
407.00,0.0744
406.00,0.0756
405.00,0.0771
404.00,0.0771
403.00,0.0772
402.00,0.0789
401.00,0.0804
400.00,0.0794
