Created as New Dataset,Sample 1070 By YargerLab Date Tuesday, August 05 2025
cm-1,A
4000.00,0.0007
3999.00,0.0007
3998.00,0.0007
3997.00,0.0007
3996.00,0.0007
3995.00,0.0007
3994.00,0.0007
3993.00,0.0007
3992.00,0.0007
3991.00,0.0007
3990.00,0.0007
3989.00,0.0006
3988.00,0.0006
3987.00,0.0006
3986.00,0.0007
3985.00,0.0007
3984.00,0.0007
3983.00,0.0007
3982.00,0.0007
3981.00,0.0007
3980.00,0.0007
3979.00,0.0007
3978.00,0.0007
3977.00,0.0007
3976.00,0.0007
3975.00,0.0007
3974.00,0.0007
3973.00,0.0006
3972.00,0.0007
3971.00,0.0007
3970.00,0.0007
3969.00,0.0007
3968.00,0.0007
3967.00,0.0007
3966.00,0.0006
3965.00,0.0006
3964.00,0.0006
3963.00,0.0007
3962.00,0.0007
3961.00,0.0007
3960.00,0.0007
3959.00,0.0007
3958.00,0.0007
3957.00,0.0006
3956.00,0.0006
3955.00,0.0007
3954.00,0.0007
3953.00,0.0007
3952.00,0.0006
3951.00,0.0006
3950.00,0.0006
3949.00,0.0006
3948.00,0.0006
3947.00,0.0006
3946.00,0.0006
3945.00,0.0006
3944.00,0.0006
3943.00,0.0006
3942.00,0.0006
3941.00,0.0006
3940.00,0.0006
3939.00,0.0006
3938.00,0.0006
3937.00,0.0006
3936.00,0.0007
3935.00,0.0007
3934.00,0.0007
3933.00,0.0007
3932.00,0.0006
3931.00,0.0006
3930.00,0.0006
3929.00,0.0006
3928.00,0.0006
3927.00,0.0006
3926.00,0.0006
3925.00,0.0006
3924.00,0.0006
3923.00,0.0006
3922.00,0.0006
3921.00,0.0006
3920.00,0.0006
3919.00,0.0006
3918.00,0.0006
3917.00,0.0006
3916.00,0.0006
3915.00,0.0006
3914.00,0.0006
3913.00,0.0006
3912.00,0.0006
3911.00,0.0006
3910.00,0.0006
3909.00,0.0006
3908.00,0.0006
3907.00,0.0006
3906.00,0.0005
3905.00,0.0005
3904.00,0.0004
3903.00,0.0004
3902.00,0.0004
3901.00,0.0004
3900.00,0.0004
3899.00,0.0004
3898.00,0.0005
3897.00,0.0005
3896.00,0.0005
3895.00,0.0005
3894.00,0.0005
3893.00,0.0005
3892.00,0.0005
3891.00,0.0005
3890.00,0.0005
3889.00,0.0005
3888.00,0.0005
3887.00,0.0005
3886.00,0.0005
3885.00,0.0005
3884.00,0.0005
3883.00,0.0005
3882.00,0.0005
3881.00,0.0005
3880.00,0.0005
3879.00,0.0005
3878.00,0.0005
3877.00,0.0005
3876.00,0.0005
3875.00,0.0005
3874.00,0.0005
3873.00,0.0005
3872.00,0.0005
3871.00,0.0005
3870.00,0.0005
3869.00,0.0005
3868.00,0.0005
3867.00,0.0005
3866.00,0.0005
3865.00,0.0005
3864.00,0.0005
3863.00,0.0005
3862.00,0.0004
3861.00,0.0005
3860.00,0.0005
3859.00,0.0005
3858.00,0.0004
3857.00,0.0004
3856.00,0.0003
3855.00,0.0003
3854.00,0.0003
3853.00,0.0003
3852.00,0.0003
3851.00,0.0003
3850.00,0.0003
3849.00,0.0004
3848.00,0.0004
3847.00,0.0005
3846.00,0.0005
3845.00,0.0005
3844.00,0.0005
3843.00,0.0005
3842.00,0.0005
3841.00,0.0005
3840.00,0.0005
3839.00,0.0004
3838.00,0.0004
3837.00,0.0004
3836.00,0.0004
3835.00,0.0004
3834.00,0.0004
3833.00,0.0005
3832.00,0.0005
3831.00,0.0005
3830.00,0.0006
3829.00,0.0006
3828.00,0.0006
3827.00,0.0006
3826.00,0.0006
3825.00,0.0006
3824.00,0.0006
3823.00,0.0006
3822.00,0.0005
3821.00,0.0005
3820.00,0.0004
3819.00,0.0004
3818.00,0.0004
3817.00,0.0004
3816.00,0.0005
3815.00,0.0005
3814.00,0.0005
3813.00,0.0005
3812.00,0.0005
3811.00,0.0005
3810.00,0.0006
3809.00,0.0006
3808.00,0.0006
3807.00,0.0006
3806.00,0.0006
3805.00,0.0005
3804.00,0.0005
3803.00,0.0005
3802.00,0.0005
3801.00,0.0005
3800.00,0.0005
3799.00,0.0005
3798.00,0.0005
3797.00,0.0005
3796.00,0.0005
3795.00,0.0006
3794.00,0.0006
3793.00,0.0006
3792.00,0.0006
3791.00,0.0007
3790.00,0.0007
3789.00,0.0007
3788.00,0.0007
3787.00,0.0007
3786.00,0.0007
3785.00,0.0006
3784.00,0.0006
3783.00,0.0006
3782.00,0.0006
3781.00,0.0006
3780.00,0.0006
3779.00,0.0006
3778.00,0.0006
3777.00,0.0006
3776.00,0.0006
3775.00,0.0006
3774.00,0.0006
3773.00,0.0006
3772.00,0.0006
3771.00,0.0006
3770.00,0.0006
3769.00,0.0006
3768.00,0.0006
3767.00,0.0006
3766.00,0.0006
3765.00,0.0006
3764.00,0.0006
3763.00,0.0006
3762.00,0.0006
3761.00,0.0006
3760.00,0.0006
3759.00,0.0006
3758.00,0.0006
3757.00,0.0006
3756.00,0.0006
3755.00,0.0005
3754.00,0.0005
3753.00,0.0005
3752.00,0.0004
3751.00,0.0004
3750.00,0.0004
3749.00,0.0004
3748.00,0.0004
3747.00,0.0004
3746.00,0.0004
3745.00,0.0004
3744.00,0.0004
3743.00,0.0004
3742.00,0.0004
3741.00,0.0004
3740.00,0.0004
3739.00,0.0004
3738.00,0.0004
3737.00,0.0004
3736.00,0.0004
3735.00,0.0004
3734.00,0.0004
3733.00,0.0004
3732.00,0.0004
3731.00,0.0004
3730.00,0.0004
3729.00,0.0004
3728.00,0.0005
3727.00,0.0005
3726.00,0.0005
3725.00,0.0005
3724.00,0.0005
3723.00,0.0005
3722.00,0.0005
3721.00,0.0005
3720.00,0.0005
3719.00,0.0005
3718.00,0.0005
3717.00,0.0005
3716.00,0.0005
3715.00,0.0005
3714.00,0.0005
3713.00,0.0005
3712.00,0.0005
3711.00,0.0004
3710.00,0.0004
3709.00,0.0004
3708.00,0.0005
3707.00,0.0005
3706.00,0.0005
3705.00,0.0005
3704.00,0.0005
3703.00,0.0005
3702.00,0.0006
3701.00,0.0006
3700.00,0.0006
3699.00,0.0006
3698.00,0.0006
3697.00,0.0006
3696.00,0.0006
3695.00,0.0006
3694.00,0.0006
3693.00,0.0006
3692.00,0.0006
3691.00,0.0006
3690.00,0.0006
3689.00,0.0007
3688.00,0.0007
3687.00,0.0008
3686.00,0.0008
3685.00,0.0009
3684.00,0.0010
3683.00,0.0010
3682.00,0.0011
3681.00,0.0011
3680.00,0.0011
3679.00,0.0010
3678.00,0.0010
3677.00,0.0010
3676.00,0.0010
3675.00,0.0010
3674.00,0.0010
3673.00,0.0010
3672.00,0.0010
3671.00,0.0011
3670.00,0.0011
3669.00,0.0011
3668.00,0.0012
3667.00,0.0012
3666.00,0.0012
3665.00,0.0013
3664.00,0.0013
3663.00,0.0014
3662.00,0.0014
3661.00,0.0014
3660.00,0.0014
3659.00,0.0014
3658.00,0.0014
3657.00,0.0014
3656.00,0.0015
3655.00,0.0015
3654.00,0.0016
3653.00,0.0016
3652.00,0.0015
3651.00,0.0016
3650.00,0.0016
3649.00,0.0017
3648.00,0.0017
3647.00,0.0018
3646.00,0.0018
3645.00,0.0019
3644.00,0.0019
3643.00,0.0020
3642.00,0.0021
3641.00,0.0021
3640.00,0.0022
3639.00,0.0022
3638.00,0.0022
3637.00,0.0022
3636.00,0.0022
3635.00,0.0023
3634.00,0.0023
3633.00,0.0023
3632.00,0.0023
3631.00,0.0022
3630.00,0.0023
3629.00,0.0024
3628.00,0.0025
3627.00,0.0026
3626.00,0.0027
3625.00,0.0027
3624.00,0.0028
3623.00,0.0028
3622.00,0.0028
3621.00,0.0029
3620.00,0.0030
3619.00,0.0031
3618.00,0.0032
3617.00,0.0032
3616.00,0.0032
3615.00,0.0032
3614.00,0.0033
3613.00,0.0033
3612.00,0.0034
3611.00,0.0034
3610.00,0.0035
3609.00,0.0036
3608.00,0.0037
3607.00,0.0038
3606.00,0.0039
3605.00,0.0039
3604.00,0.0040
3603.00,0.0040
3602.00,0.0041
3601.00,0.0042
3600.00,0.0043
3599.00,0.0044
3598.00,0.0044
3597.00,0.0045
3596.00,0.0046
3595.00,0.0047
3594.00,0.0048
3593.00,0.0048
3592.00,0.0048
3591.00,0.0048
3590.00,0.0049
3589.00,0.0050
3588.00,0.0051
3587.00,0.0053
3586.00,0.0054
3585.00,0.0055
3584.00,0.0056
3583.00,0.0056
3582.00,0.0056
3581.00,0.0057
3580.00,0.0058
3579.00,0.0059
3578.00,0.0060
3577.00,0.0061
3576.00,0.0062
3575.00,0.0063
3574.00,0.0064
3573.00,0.0064
3572.00,0.0064
3571.00,0.0064
3570.00,0.0064
3569.00,0.0065
3568.00,0.0067
3567.00,0.0069
3566.00,0.0070
3565.00,0.0072
3564.00,0.0073
3563.00,0.0073
3562.00,0.0074
3561.00,0.0074
3560.00,0.0075
3559.00,0.0076
3558.00,0.0077
3557.00,0.0077
3556.00,0.0078
3555.00,0.0078
3554.00,0.0079
3553.00,0.0080
3552.00,0.0081
3551.00,0.0082
3550.00,0.0083
3549.00,0.0083
3548.00,0.0083
3547.00,0.0084
3546.00,0.0085
3545.00,0.0086
3544.00,0.0087
3543.00,0.0088
3542.00,0.0088
3541.00,0.0088
3540.00,0.0089
3539.00,0.0089
3538.00,0.0090
3537.00,0.0091
3536.00,0.0091
3535.00,0.0092
3534.00,0.0092
3533.00,0.0092
3532.00,0.0092
3531.00,0.0092
3530.00,0.0093
3529.00,0.0094
3528.00,0.0094
3527.00,0.0095
3526.00,0.0096
3525.00,0.0096
3524.00,0.0097
3523.00,0.0097
3522.00,0.0098
3521.00,0.0098
3520.00,0.0098
3519.00,0.0099
3518.00,0.0100
3517.00,0.0100
3516.00,0.0100
3515.00,0.0101
3514.00,0.0101
3513.00,0.0101
3512.00,0.0102
3511.00,0.0102
3510.00,0.0103
3509.00,0.0103
3508.00,0.0104
3507.00,0.0104
3506.00,0.0104
3505.00,0.0104
3504.00,0.0105
3503.00,0.0106
3502.00,0.0107
3501.00,0.0107
3500.00,0.0108
3499.00,0.0108
3498.00,0.0108
3497.00,0.0108
3496.00,0.0109
3495.00,0.0110
3494.00,0.0110
3493.00,0.0111
3492.00,0.0111
3491.00,0.0111
3490.00,0.0112
3489.00,0.0112
3488.00,0.0113
3487.00,0.0113
3486.00,0.0113
3485.00,0.0114
3484.00,0.0114
3483.00,0.0114
3482.00,0.0115
3481.00,0.0116
3480.00,0.0116
3479.00,0.0116
3478.00,0.0116
3477.00,0.0117
3476.00,0.0117
3475.00,0.0117
3474.00,0.0118
3473.00,0.0118
3472.00,0.0118
3471.00,0.0119
3470.00,0.0119
3469.00,0.0119
3468.00,0.0120
3467.00,0.0120
3466.00,0.0120
3465.00,0.0120
3464.00,0.0120
3463.00,0.0121
3462.00,0.0121
3461.00,0.0121
3460.00,0.0121
3459.00,0.0121
3458.00,0.0121
3457.00,0.0121
3456.00,0.0121
3455.00,0.0121
3454.00,0.0122
3453.00,0.0122
3452.00,0.0122
3451.00,0.0123
3450.00,0.0123
3449.00,0.0123
3448.00,0.0123
3447.00,0.0123
3446.00,0.0124
3445.00,0.0124
3444.00,0.0124
3443.00,0.0124
3442.00,0.0124
3441.00,0.0124
3440.00,0.0124
3439.00,0.0124
3438.00,0.0124
3437.00,0.0124
3436.00,0.0123
3435.00,0.0123
3434.00,0.0123
3433.00,0.0124
3432.00,0.0124
3431.00,0.0124
3430.00,0.0124
3429.00,0.0124
3428.00,0.0123
3427.00,0.0123
3426.00,0.0123
3425.00,0.0123
3424.00,0.0123
3423.00,0.0123
3422.00,0.0123
3421.00,0.0123
3420.00,0.0123
3419.00,0.0123
3418.00,0.0123
3417.00,0.0123
3416.00,0.0123
3415.00,0.0123
3414.00,0.0123
3413.00,0.0123
3412.00,0.0123
3411.00,0.0123
3410.00,0.0123
3409.00,0.0123
3408.00,0.0123
3407.00,0.0123
3406.00,0.0122
3405.00,0.0122
3404.00,0.0122
3403.00,0.0121
3402.00,0.0121
3401.00,0.0121
3400.00,0.0121
3399.00,0.0121
3398.00,0.0121
3397.00,0.0121
3396.00,0.0121
3395.00,0.0121
3394.00,0.0120
3393.00,0.0120
3392.00,0.0120
3391.00,0.0121
3390.00,0.0121
3389.00,0.0121
3388.00,0.0121
3387.00,0.0121
3386.00,0.0121
3385.00,0.0121
3384.00,0.0121
3383.00,0.0121
3382.00,0.0121
3381.00,0.0120
3380.00,0.0120
3379.00,0.0120
3378.00,0.0120
3377.00,0.0120
3376.00,0.0120
3375.00,0.0120
3374.00,0.0119
3373.00,0.0118
3372.00,0.0117
3371.00,0.0116
3370.00,0.0115
3369.00,0.0114
3368.00,0.0115
3367.00,0.0116
3366.00,0.0117
3365.00,0.0118
3364.00,0.0119
3363.00,0.0118
3362.00,0.0118
3361.00,0.0118
3360.00,0.0118
3359.00,0.0118
3358.00,0.0118
3357.00,0.0118
3356.00,0.0118
3355.00,0.0118
3354.00,0.0117
3353.00,0.0116
3352.00,0.0115
3351.00,0.0114
3350.00,0.0115
3349.00,0.0116
3348.00,0.0117
3347.00,0.0117
3346.00,0.0116
3345.00,0.0116
3344.00,0.0116
3343.00,0.0115
3342.00,0.0115
3341.00,0.0114
3340.00,0.0113
3339.00,0.0113
3338.00,0.0113
3337.00,0.0114
3336.00,0.0115
3335.00,0.0116
3334.00,0.0116
3333.00,0.0116
3332.00,0.0116
3331.00,0.0116
3330.00,0.0116
3329.00,0.0115
3328.00,0.0114
3327.00,0.0113
3326.00,0.0113
3325.00,0.0113
3324.00,0.0113
3323.00,0.0114
3322.00,0.0114
3321.00,0.0115
3320.00,0.0115
3319.00,0.0115
3318.00,0.0115
3317.00,0.0115
3316.00,0.0115
3315.00,0.0114
3314.00,0.0114
3313.00,0.0113
3312.00,0.0112
3311.00,0.0110
3310.00,0.0108
3309.00,0.0107
3308.00,0.0106
3307.00,0.0105
3306.00,0.0106
3305.00,0.0107
3304.00,0.0109
3303.00,0.0110
3302.00,0.0112
3301.00,0.0112
3300.00,0.0112
3299.00,0.0111
3298.00,0.0110
3297.00,0.0109
3296.00,0.0108
3295.00,0.0108
3294.00,0.0108
3293.00,0.0108
3292.00,0.0108
3291.00,0.0109
3290.00,0.0110
3289.00,0.0111
3288.00,0.0111
3287.00,0.0111
3286.00,0.0111
3285.00,0.0111
3284.00,0.0110
3283.00,0.0110
3282.00,0.0110
3281.00,0.0110
3280.00,0.0110
3279.00,0.0109
3278.00,0.0108
3277.00,0.0107
3276.00,0.0107
3275.00,0.0106
3274.00,0.0106
3273.00,0.0105
3272.00,0.0104
3271.00,0.0104
3270.00,0.0104
3269.00,0.0105
3268.00,0.0105
3267.00,0.0106
3266.00,0.0106
3265.00,0.0106
3264.00,0.0105
3263.00,0.0105
3262.00,0.0105
3261.00,0.0104
3260.00,0.0104
3259.00,0.0104
3258.00,0.0103
3257.00,0.0103
3256.00,0.0103
3255.00,0.0103
3254.00,0.0103
3253.00,0.0103
3252.00,0.0103
3251.00,0.0102
3250.00,0.0102
3249.00,0.0101
3248.00,0.0101
3247.00,0.0101
3246.00,0.0101
3245.00,0.0101
3244.00,0.0102
3243.00,0.0102
3242.00,0.0102
3241.00,0.0101
3240.00,0.0101
3239.00,0.0101
3238.00,0.0100
3237.00,0.0100
3236.00,0.0100
3235.00,0.0099
3234.00,0.0099
3233.00,0.0099
3232.00,0.0099
3231.00,0.0099
3230.00,0.0099
3229.00,0.0099
3228.00,0.0099
3227.00,0.0099
3226.00,0.0098
3225.00,0.0098
3224.00,0.0098
3223.00,0.0098
3222.00,0.0098
3221.00,0.0097
3220.00,0.0097
3219.00,0.0097
3218.00,0.0096
3217.00,0.0096
3216.00,0.0096
3215.00,0.0096
3214.00,0.0096
3213.00,0.0096
3212.00,0.0095
3211.00,0.0095
3210.00,0.0095
3209.00,0.0094
3208.00,0.0094
3207.00,0.0093
3206.00,0.0093
3205.00,0.0093
3204.00,0.0092
3203.00,0.0092
3202.00,0.0092
3201.00,0.0092
3200.00,0.0091
3199.00,0.0091
3198.00,0.0091
3197.00,0.0091
3196.00,0.0090
3195.00,0.0090
3194.00,0.0090
3193.00,0.0090
3192.00,0.0089
3191.00,0.0089
3190.00,0.0089
3189.00,0.0089
3188.00,0.0089
3187.00,0.0088
3186.00,0.0088
3185.00,0.0088
3184.00,0.0088
3183.00,0.0088
3182.00,0.0088
3181.00,0.0087
3180.00,0.0087
3179.00,0.0087
3178.00,0.0088
3177.00,0.0088
3176.00,0.0088
3175.00,0.0088
3174.00,0.0087
3173.00,0.0087
3172.00,0.0087
3171.00,0.0087
3170.00,0.0086
3169.00,0.0086
3168.00,0.0086
3167.00,0.0086
3166.00,0.0086
3165.00,0.0085
3164.00,0.0085
3163.00,0.0085
3162.00,0.0085
3161.00,0.0084
3160.00,0.0084
3159.00,0.0084
3158.00,0.0083
3157.00,0.0083
3156.00,0.0082
3155.00,0.0082
3154.00,0.0081
3153.00,0.0081
3152.00,0.0081
3151.00,0.0081
3150.00,0.0081
3149.00,0.0081
3148.00,0.0081
3147.00,0.0081
3146.00,0.0081
3145.00,0.0081
3144.00,0.0080
3143.00,0.0080
3142.00,0.0080
3141.00,0.0079
3140.00,0.0079
3139.00,0.0079
3138.00,0.0078
3137.00,0.0078
3136.00,0.0078
3135.00,0.0078
3134.00,0.0078
3133.00,0.0078
3132.00,0.0078
3131.00,0.0078
3130.00,0.0078
3129.00,0.0078
3128.00,0.0078
3127.00,0.0078
3126.00,0.0078
3125.00,0.0077
3124.00,0.0077
3123.00,0.0077
3122.00,0.0077
3121.00,0.0077
3120.00,0.0076
3119.00,0.0076
3118.00,0.0076
3117.00,0.0076
3116.00,0.0076
3115.00,0.0076
3114.00,0.0076
3113.00,0.0076
3112.00,0.0075
3111.00,0.0075
3110.00,0.0075
3109.00,0.0074
3108.00,0.0074
3107.00,0.0073
3106.00,0.0073
3105.00,0.0073
3104.00,0.0073
3103.00,0.0073
3102.00,0.0073
3101.00,0.0073
3100.00,0.0073
3099.00,0.0073
3098.00,0.0073
3097.00,0.0073
3096.00,0.0072
3095.00,0.0072
3094.00,0.0072
3093.00,0.0072
3092.00,0.0071
3091.00,0.0071
3090.00,0.0072
3089.00,0.0072
3088.00,0.0072
3087.00,0.0072
3086.00,0.0072
3085.00,0.0072
3084.00,0.0072
3083.00,0.0072
3082.00,0.0072
3081.00,0.0072
3080.00,0.0072
3079.00,0.0072
3078.00,0.0072
3077.00,0.0071
3076.00,0.0071
3075.00,0.0071
3074.00,0.0071
3073.00,0.0071
3072.00,0.0071
3071.00,0.0071
3070.00,0.0071
3069.00,0.0070
3068.00,0.0070
3067.00,0.0070
3066.00,0.0070
3065.00,0.0070
3064.00,0.0069
3063.00,0.0069
3062.00,0.0069
3061.00,0.0069
3060.00,0.0068
3059.00,0.0068
3058.00,0.0068
3057.00,0.0068
3056.00,0.0068
3055.00,0.0068
3054.00,0.0068
3053.00,0.0068
3052.00,0.0067
3051.00,0.0067
3050.00,0.0067
3049.00,0.0066
3048.00,0.0066
3047.00,0.0066
3046.00,0.0067
3045.00,0.0066
3044.00,0.0066
3043.00,0.0066
3042.00,0.0066
3041.00,0.0066
3040.00,0.0066
3039.00,0.0066
3038.00,0.0066
3037.00,0.0066
3036.00,0.0066
3035.00,0.0066
3034.00,0.0066
3033.00,0.0066
3032.00,0.0066
3031.00,0.0066
3030.00,0.0066
3029.00,0.0066
3028.00,0.0066
3027.00,0.0066
3026.00,0.0066
3025.00,0.0066
3024.00,0.0066
3023.00,0.0066
3022.00,0.0066
3021.00,0.0066
3020.00,0.0066
3019.00,0.0066
3018.00,0.0066
3017.00,0.0067
3016.00,0.0067
3015.00,0.0068
3014.00,0.0068
3013.00,0.0069
3012.00,0.0070
3011.00,0.0072
3010.00,0.0073
3009.00,0.0075
3008.00,0.0077
3007.00,0.0078
3006.00,0.0080
3005.00,0.0082
3004.00,0.0084
3003.00,0.0087
3002.00,0.0089
3001.00,0.0092
3000.00,0.0095
2999.00,0.0098
2998.00,0.0102
2997.00,0.0105
2996.00,0.0109
2995.00,0.0113
2994.00,0.0117
2993.00,0.0122
2992.00,0.0126
2991.00,0.0131
2990.00,0.0136
2989.00,0.0141
2988.00,0.0145
2987.00,0.0149
2986.00,0.0154
2985.00,0.0158
2984.00,0.0161
2983.00,0.0165
2982.00,0.0168
2981.00,0.0171
2980.00,0.0174
2979.00,0.0176
2978.00,0.0179
2977.00,0.0181
2976.00,0.0183
2975.00,0.0185
2974.00,0.0187
2973.00,0.0188
2972.00,0.0190
2971.00,0.0192
2970.00,0.0194
2969.00,0.0197
2968.00,0.0200
2967.00,0.0203
2966.00,0.0206
2965.00,0.0209
2964.00,0.0212
2963.00,0.0215
2962.00,0.0219
2961.00,0.0222
2960.00,0.0225
2959.00,0.0228
2958.00,0.0231
2957.00,0.0233
2956.00,0.0235
2955.00,0.0237
2954.00,0.0238
2953.00,0.0239
2952.00,0.0239
2951.00,0.0238
2950.00,0.0237
2949.00,0.0236
2948.00,0.0235
2947.00,0.0234
2946.00,0.0233
2945.00,0.0233
2944.00,0.0232
2943.00,0.0231
2942.00,0.0231
2941.00,0.0232
2940.00,0.0232
2939.00,0.0233
2938.00,0.0235
2937.00,0.0237
2936.00,0.0239
2935.00,0.0241
2934.00,0.0243
2933.00,0.0245
2932.00,0.0247
2931.00,0.0248
2930.00,0.0250
2929.00,0.0252
2928.00,0.0254
2927.00,0.0255
2926.00,0.0256
2925.00,0.0256
2924.00,0.0256
2923.00,0.0255
2922.00,0.0253
2921.00,0.0251
2920.00,0.0248
2919.00,0.0245
2918.00,0.0241
2917.00,0.0237
2916.00,0.0233
2915.00,0.0228
2914.00,0.0224
2913.00,0.0220
2912.00,0.0216
2911.00,0.0212
2910.00,0.0208
2909.00,0.0205
2908.00,0.0201
2907.00,0.0197
2906.00,0.0194
2905.00,0.0192
2904.00,0.0189
2903.00,0.0188
2902.00,0.0186
2901.00,0.0185
2900.00,0.0184
2899.00,0.0184
2898.00,0.0183
2897.00,0.0183
2896.00,0.0183
2895.00,0.0183
2894.00,0.0183
2893.00,0.0183
2892.00,0.0183
2891.00,0.0182
2890.00,0.0182
2889.00,0.0182
2888.00,0.0182
2887.00,0.0181
2886.00,0.0181
2885.00,0.0181
2884.00,0.0182
2883.00,0.0182
2882.00,0.0182
2881.00,0.0182
2880.00,0.0182
2879.00,0.0183
2878.00,0.0183
2877.00,0.0184
2876.00,0.0184
2875.00,0.0184
2874.00,0.0185
2873.00,0.0186
2872.00,0.0186
2871.00,0.0187
2870.00,0.0187
2869.00,0.0186
2868.00,0.0185
2867.00,0.0184
2866.00,0.0184
2865.00,0.0183
2864.00,0.0183
2863.00,0.0183
2862.00,0.0182
2861.00,0.0182
2860.00,0.0182
2859.00,0.0182
2858.00,0.0181
2857.00,0.0179
2856.00,0.0177
2855.00,0.0174
2854.00,0.0170
2853.00,0.0165
2852.00,0.0160
2851.00,0.0155
2850.00,0.0149
2849.00,0.0144
2848.00,0.0139
2847.00,0.0134
2846.00,0.0131
2845.00,0.0127
2844.00,0.0123
2843.00,0.0119
2842.00,0.0115
2841.00,0.0111
2840.00,0.0107
2839.00,0.0103
2838.00,0.0101
2837.00,0.0099
2836.00,0.0097
2835.00,0.0095
2834.00,0.0093
2833.00,0.0091
2832.00,0.0090
2831.00,0.0088
2830.00,0.0086
2829.00,0.0084
2828.00,0.0083
2827.00,0.0081
2826.00,0.0079
2825.00,0.0078
2824.00,0.0076
2823.00,0.0075
2822.00,0.0073
2821.00,0.0072
2820.00,0.0071
2819.00,0.0069
2818.00,0.0068
2817.00,0.0067
2816.00,0.0066
2815.00,0.0064
2814.00,0.0063
2813.00,0.0062
2812.00,0.0061
2811.00,0.0060
2810.00,0.0059
2809.00,0.0059
2808.00,0.0058
2807.00,0.0057
2806.00,0.0056
2805.00,0.0055
2804.00,0.0055
2803.00,0.0054
2802.00,0.0053
2801.00,0.0053
2800.00,0.0052
2799.00,0.0051
2798.00,0.0051
2797.00,0.0050
2796.00,0.0050
2795.00,0.0049
2794.00,0.0049
2793.00,0.0048
2792.00,0.0048
2791.00,0.0047
2790.00,0.0046
2789.00,0.0046
2788.00,0.0046
2787.00,0.0046
2786.00,0.0045
2785.00,0.0045
2784.00,0.0045
2783.00,0.0045
2782.00,0.0044
2781.00,0.0044
2780.00,0.0044
2779.00,0.0043
2778.00,0.0043
2777.00,0.0042
2776.00,0.0042
2775.00,0.0042
2774.00,0.0041
2773.00,0.0041
2772.00,0.0041
2771.00,0.0040
2770.00,0.0040
2769.00,0.0040
2768.00,0.0040
2767.00,0.0040
2766.00,0.0040
2765.00,0.0040
2764.00,0.0040
2763.00,0.0039
2762.00,0.0039
2761.00,0.0039
2760.00,0.0039
2759.00,0.0039
2758.00,0.0039
2757.00,0.0039
2756.00,0.0039
2755.00,0.0039
2754.00,0.0039
2753.00,0.0039
2752.00,0.0039
2751.00,0.0039
2750.00,0.0039
2749.00,0.0039
2748.00,0.0039
2747.00,0.0039
2746.00,0.0039
2745.00,0.0040
2744.00,0.0040
2743.00,0.0040
2742.00,0.0040
2741.00,0.0040
2740.00,0.0040
2739.00,0.0040
2738.00,0.0040
2737.00,0.0040
2736.00,0.0040
2735.00,0.0040
2734.00,0.0040
2733.00,0.0040
2732.00,0.0040
2731.00,0.0040
2730.00,0.0039
2729.00,0.0039
2728.00,0.0039
2727.00,0.0038
2726.00,0.0038
2725.00,0.0038
2724.00,0.0038
2723.00,0.0038
2722.00,0.0038
2721.00,0.0038
2720.00,0.0038
2719.00,0.0038
2718.00,0.0038
2717.00,0.0037
2716.00,0.0037
2715.00,0.0037
2714.00,0.0037
2713.00,0.0036
2712.00,0.0036
2711.00,0.0036
2710.00,0.0036
2709.00,0.0036
2708.00,0.0035
2707.00,0.0035
2706.00,0.0035
2705.00,0.0035
2704.00,0.0035
2703.00,0.0035
2702.00,0.0035
2701.00,0.0034
2700.00,0.0034
2699.00,0.0034
2698.00,0.0034
2697.00,0.0034
2696.00,0.0034
2695.00,0.0033
2694.00,0.0033
2693.00,0.0033
2692.00,0.0033
2691.00,0.0033
2690.00,0.0032
2689.00,0.0032
2688.00,0.0032
2687.00,0.0032
2686.00,0.0032
2685.00,0.0032
2684.00,0.0032
2683.00,0.0032
2682.00,0.0032
2681.00,0.0032
2680.00,0.0031
2679.00,0.0031
2678.00,0.0031
2677.00,0.0031
2676.00,0.0032
2675.00,0.0032
2674.00,0.0031
2673.00,0.0031
2672.00,0.0031
2671.00,0.0031
2670.00,0.0031
2669.00,0.0031
2668.00,0.0031
2667.00,0.0031
2666.00,0.0032
2665.00,0.0032
2664.00,0.0033
2663.00,0.0033
2662.00,0.0033
2661.00,0.0033
2660.00,0.0033
2659.00,0.0033
2658.00,0.0033
2657.00,0.0033
2656.00,0.0033
2655.00,0.0033
2654.00,0.0033
2653.00,0.0033
2652.00,0.0034
2651.00,0.0034
2650.00,0.0034
2649.00,0.0033
2648.00,0.0033
2647.00,0.0033
2646.00,0.0033
2645.00,0.0033
2644.00,0.0033
2643.00,0.0033
2642.00,0.0032
2641.00,0.0032
2640.00,0.0032
2639.00,0.0032
2638.00,0.0032
2637.00,0.0032
2636.00,0.0032
2635.00,0.0031
2634.00,0.0031
2633.00,0.0031
2632.00,0.0031
2631.00,0.0031
2630.00,0.0031
2629.00,0.0030
2628.00,0.0030
2627.00,0.0030
2626.00,0.0030
2625.00,0.0030
2624.00,0.0030
2623.00,0.0030
2622.00,0.0030
2621.00,0.0029
2620.00,0.0029
2619.00,0.0029
2618.00,0.0029
2617.00,0.0029
2616.00,0.0029
2615.00,0.0029
2614.00,0.0029
2613.00,0.0029
2612.00,0.0028
2611.00,0.0028
2610.00,0.0028
2609.00,0.0028
2608.00,0.0028
2607.00,0.0028
2606.00,0.0028
2605.00,0.0028
2604.00,0.0028
2603.00,0.0027
2602.00,0.0027
2601.00,0.0027
2600.00,0.0026
2599.00,0.0026
2598.00,0.0026
2597.00,0.0026
2596.00,0.0026
2595.00,0.0026
2594.00,0.0026
2593.00,0.0027
2592.00,0.0027
2591.00,0.0026
2590.00,0.0026
2589.00,0.0026
2588.00,0.0027
2587.00,0.0027
2586.00,0.0027
2585.00,0.0026
2584.00,0.0026
2583.00,0.0026
2582.00,0.0026
2581.00,0.0027
2580.00,0.0027
2579.00,0.0027
2578.00,0.0027
2577.00,0.0027
2576.00,0.0027
2575.00,0.0027
2574.00,0.0026
2573.00,0.0026
2572.00,0.0026
2571.00,0.0026
2570.00,0.0025
2569.00,0.0025
2568.00,0.0025
2567.00,0.0024
2566.00,0.0024
2565.00,0.0024
2564.00,0.0024
2563.00,0.0024
2562.00,0.0024
2561.00,0.0023
2560.00,0.0023
2559.00,0.0023
2558.00,0.0023
2557.00,0.0023
2556.00,0.0022
2555.00,0.0022
2554.00,0.0022
2553.00,0.0022
2552.00,0.0022
2551.00,0.0022
2550.00,0.0022
2549.00,0.0022
2548.00,0.0022
2547.00,0.0022
2546.00,0.0022
2545.00,0.0022
2544.00,0.0021
2543.00,0.0021
2542.00,0.0021
2541.00,0.0020
2540.00,0.0020
2539.00,0.0020
2538.00,0.0020
2537.00,0.0020
2536.00,0.0020
2535.00,0.0020
2534.00,0.0020
2533.00,0.0020
2532.00,0.0020
2531.00,0.0019
2530.00,0.0019
2529.00,0.0018
2528.00,0.0018
2527.00,0.0018
2526.00,0.0018
2525.00,0.0018
2524.00,0.0018
2523.00,0.0017
2522.00,0.0017
2521.00,0.0017
2520.00,0.0017
2519.00,0.0017
2518.00,0.0017
2517.00,0.0017
2516.00,0.0017
2515.00,0.0016
2514.00,0.0016
2513.00,0.0016
2512.00,0.0016
2511.00,0.0016
2510.00,0.0015
2509.00,0.0015
2508.00,0.0015
2507.00,0.0015
2506.00,0.0015
2505.00,0.0015
2504.00,0.0015
2503.00,0.0015
2502.00,0.0015
2501.00,0.0015
2500.00,0.0015
2499.00,0.0015
2498.00,0.0015
2497.00,0.0015
2496.00,0.0014
2495.00,0.0014
2494.00,0.0014
2493.00,0.0014
2492.00,0.0014
2491.00,0.0014
2490.00,0.0014
2489.00,0.0014
2488.00,0.0014
2487.00,0.0014
2486.00,0.0014
2485.00,0.0014
2484.00,0.0014
2483.00,0.0014
2482.00,0.0014
2481.00,0.0014
2480.00,0.0014
2479.00,0.0013
2478.00,0.0013
2477.00,0.0013
2476.00,0.0013
2475.00,0.0013
2474.00,0.0013
2473.00,0.0013
2472.00,0.0013
2471.00,0.0013
2470.00,0.0013
2469.00,0.0013
2468.00,0.0013
2467.00,0.0013
2466.00,0.0013
2465.00,0.0013
2464.00,0.0013
2463.00,0.0013
2462.00,0.0013
2461.00,0.0013
2460.00,0.0014
2459.00,0.0014
2458.00,0.0014
2457.00,0.0014
2456.00,0.0014
2455.00,0.0014
2454.00,0.0015
2453.00,0.0015
2452.00,0.0014
2451.00,0.0014
2450.00,0.0014
2449.00,0.0013
2448.00,0.0014
2447.00,0.0014
2446.00,0.0014
2445.00,0.0014
2444.00,0.0013
2443.00,0.0013
2442.00,0.0013
2441.00,0.0013
2440.00,0.0013
2439.00,0.0012
2438.00,0.0012
2437.00,0.0012
2436.00,0.0012
2435.00,0.0012
2434.00,0.0012
2433.00,0.0012
2432.00,0.0013
2431.00,0.0012
2430.00,0.0012
2429.00,0.0012
2428.00,0.0012
2427.00,0.0012
2426.00,0.0012
2425.00,0.0012
2424.00,0.0012
2423.00,0.0012
2422.00,0.0012
2421.00,0.0012
2420.00,0.0013
2419.00,0.0012
2418.00,0.0012
2417.00,0.0012
2416.00,0.0011
2415.00,0.0011
2414.00,0.0011
2413.00,0.0011
2412.00,0.0011
2411.00,0.0012
2410.00,0.0012
2409.00,0.0011
2408.00,0.0011
2407.00,0.0011
2406.00,0.0010
2405.00,0.0010
2404.00,0.0010
2403.00,0.0010
2402.00,0.0010
2401.00,0.0010
2400.00,0.0010
2399.00,0.0010
2398.00,0.0010
2397.00,0.0010
2396.00,0.0010
2395.00,0.0010
2394.00,0.0010
2393.00,0.0010
2392.00,0.0010
2391.00,0.0010
2390.00,0.0009
2389.00,0.0009
2388.00,0.0008
2387.00,0.0008
2386.00,0.0007
2385.00,0.0007
2384.00,0.0007
2383.00,0.0006
2382.00,0.0006
2381.00,0.0005
2380.00,0.0005
2379.00,0.0005
2378.00,0.0005
2377.00,0.0006
2376.00,0.0006
2375.00,0.0006
2374.00,0.0006
2373.00,0.0006
2372.00,0.0005
2371.00,0.0005
2370.00,0.0004
2369.00,0.0004
2368.00,0.0003
2367.00,0.0003
2366.00,0.0003
2365.00,0.0004
2364.00,0.0004
2363.00,0.0005
2362.00,0.0005
2361.00,0.0006
2360.00,0.0006
2359.00,0.0006
2358.00,0.0007
2357.00,0.0007
2356.00,0.0007
2355.00,0.0007
2354.00,0.0007
2353.00,0.0006
2352.00,0.0006
2351.00,0.0006
2350.00,0.0007
2349.00,0.0007
2348.00,0.0008
2347.00,0.0009
2346.00,0.0009
2345.00,0.0009
2344.00,0.0009
2343.00,0.0009
2342.00,0.0009
2341.00,0.0010
2340.00,0.0011
2339.00,0.0011
2338.00,0.0011
2337.00,0.0011
2336.00,0.0011
2335.00,0.0012
2334.00,0.0011
2333.00,0.0011
2332.00,0.0010
2331.00,0.0010
2330.00,0.0010
2329.00,0.0012
2328.00,0.0015
2327.00,0.0019
2326.00,0.0022
2325.00,0.0024
2324.00,0.0023
2323.00,0.0021
2322.00,0.0019
2321.00,0.0018
2320.00,0.0017
2319.00,0.0016
2318.00,0.0016
2317.00,0.0016
2316.00,0.0015
2315.00,0.0015
2314.00,0.0014
2313.00,0.0014
2312.00,0.0014
2311.00,0.0014
2310.00,0.0013
2309.00,0.0013
2308.00,0.0013
2307.00,0.0013
2306.00,0.0014
2305.00,0.0014
2304.00,0.0015
2303.00,0.0015
2302.00,0.0015
2301.00,0.0015
2300.00,0.0015
2299.00,0.0016
2298.00,0.0016
2297.00,0.0017
2296.00,0.0018
2295.00,0.0018
2294.00,0.0019
2293.00,0.0020
2292.00,0.0020
2291.00,0.0021
2290.00,0.0021
2289.00,0.0021
2288.00,0.0022
2287.00,0.0022
2286.00,0.0022
2285.00,0.0021
2284.00,0.0020
2283.00,0.0020
2282.00,0.0020
2281.00,0.0019
2280.00,0.0019
2279.00,0.0019
2278.00,0.0018
2277.00,0.0018
2276.00,0.0018
2275.00,0.0017
2274.00,0.0017
2273.00,0.0016
2272.00,0.0016
2271.00,0.0016
2270.00,0.0016
2269.00,0.0016
2268.00,0.0016
2267.00,0.0015
2266.00,0.0015
2265.00,0.0014
2264.00,0.0014
2263.00,0.0014
2262.00,0.0014
2261.00,0.0015
2260.00,0.0015
2259.00,0.0015
2258.00,0.0015
2257.00,0.0014
2256.00,0.0013
2255.00,0.0012
2254.00,0.0011
2253.00,0.0011
2252.00,0.0012
2251.00,0.0011
2250.00,0.0012
2249.00,0.0012
2248.00,0.0013
2247.00,0.0013
2246.00,0.0013
2245.00,0.0014
2244.00,0.0014
2243.00,0.0014
2242.00,0.0014
2241.00,0.0014
2240.00,0.0014
2239.00,0.0014
2238.00,0.0013
2237.00,0.0013
2236.00,0.0013
2235.00,0.0013
2234.00,0.0013
2233.00,0.0014
2232.00,0.0014
2231.00,0.0014
2230.00,0.0013
2229.00,0.0012
2228.00,0.0013
2227.00,0.0013
2226.00,0.0013
2225.00,0.0013
2224.00,0.0013
2223.00,0.0012
2222.00,0.0012
2221.00,0.0012
2220.00,0.0012
2219.00,0.0012
2218.00,0.0013
2217.00,0.0014
2216.00,0.0015
2215.00,0.0015
2214.00,0.0014
2213.00,0.0013
2212.00,0.0012
2211.00,0.0011
2210.00,0.0010
2209.00,0.0010
2208.00,0.0011
2207.00,0.0011
2206.00,0.0010
2205.00,0.0010
2204.00,0.0011
2203.00,0.0011
2202.00,0.0011
2201.00,0.0012
2200.00,0.0012
2199.00,0.0012
2198.00,0.0012
2197.00,0.0013
2196.00,0.0015
2195.00,0.0016
2194.00,0.0016
2193.00,0.0017
2192.00,0.0018
2191.00,0.0018
2190.00,0.0018
2189.00,0.0017
2188.00,0.0016
2187.00,0.0014
2186.00,0.0013
2185.00,0.0012
2184.00,0.0011
2183.00,0.0009
2182.00,0.0007
2181.00,0.0007
2180.00,0.0008
2179.00,0.0008
2178.00,0.0008
2177.00,0.0007
2176.00,0.0007
2175.00,0.0007
2174.00,0.0008
2173.00,0.0010
2172.00,0.0012
2171.00,0.0014
2170.00,0.0016
2169.00,0.0018
2168.00,0.0021
2167.00,0.0022
2166.00,0.0023
2165.00,0.0025
2164.00,0.0027
2163.00,0.0026
2162.00,0.0020
2161.00,0.0009
2160.00,-0.0005
2159.00,-0.0016
2158.00,-0.0021
2157.00,-0.0020
2156.00,-0.0017
2155.00,-0.0013
2154.00,-0.0010
2153.00,-0.0007
2152.00,-0.0004
2151.00,-0.0003
2150.00,-0.0003
2149.00,-0.0004
2148.00,-0.0005
2147.00,-0.0005
2146.00,-0.0005
2145.00,-0.0004
2144.00,-0.0003
2143.00,-0.0003
2142.00,-0.0003
2141.00,-0.0003
2140.00,-0.0003
2139.00,-0.0004
2138.00,-0.0006
2137.00,-0.0008
2136.00,-0.0009
2135.00,-0.0010
2134.00,-0.0010
2133.00,-0.0010
2132.00,-0.0008
2131.00,-0.0006
2130.00,-0.0005
2129.00,-0.0003
2128.00,-0.0001
2127.00,0.0000
2126.00,0.0001
2125.00,0.0002
2124.00,0.0003
2123.00,0.0004
2122.00,0.0004
2121.00,0.0004
2120.00,0.0005
2119.00,0.0006
2118.00,0.0007
2117.00,0.0007
2116.00,0.0008
2115.00,0.0009
2114.00,0.0008
2113.00,0.0009
2112.00,0.0009
2111.00,0.0010
2110.00,0.0010
2109.00,0.0010
2108.00,0.0010
2107.00,0.0010
2106.00,0.0010
2105.00,0.0010
2104.00,0.0010
2103.00,0.0010
2102.00,0.0009
2101.00,0.0009
2100.00,0.0009
2099.00,0.0008
2098.00,0.0007
2097.00,0.0006
2096.00,0.0005
2095.00,0.0004
2094.00,0.0003
2093.00,0.0004
2092.00,0.0006
2091.00,0.0007
2090.00,0.0008
2089.00,0.0008
2088.00,0.0009
2087.00,0.0010
2086.00,0.0011
2085.00,0.0011
2084.00,0.0011
2083.00,0.0011
2082.00,0.0011
2081.00,0.0011
2080.00,0.0012
2079.00,0.0012
2078.00,0.0011
2077.00,0.0011
2076.00,0.0011
2075.00,0.0011
2074.00,0.0011
2073.00,0.0011
2072.00,0.0011
2071.00,0.0010
2070.00,0.0009
2069.00,0.0008
2068.00,0.0008
2067.00,0.0009
2066.00,0.0009
2065.00,0.0010
2064.00,0.0009
2063.00,0.0008
2062.00,0.0007
2061.00,0.0006
2060.00,0.0007
2059.00,0.0007
2058.00,0.0007
2057.00,0.0008
2056.00,0.0008
2055.00,0.0009
2054.00,0.0011
2053.00,0.0015
2052.00,0.0018
2051.00,0.0018
2050.00,0.0016
2049.00,0.0013
2048.00,0.0011
2047.00,0.0010
2046.00,0.0009
2045.00,0.0009
2044.00,0.0008
2043.00,0.0008
2042.00,0.0007
2041.00,0.0007
2040.00,0.0007
2039.00,0.0007
2038.00,0.0007
2037.00,0.0007
2036.00,0.0007
2035.00,0.0005
2034.00,0.0003
2033.00,0.0001
2032.00,0.0001
2031.00,0.0001
2030.00,0.0001
2029.00,0.0002
2028.00,0.0003
2027.00,0.0002
2026.00,0.0001
2025.00,0.0001
2024.00,0.0001
2023.00,-0.0000
2022.00,-0.0002
2021.00,-0.0003
2020.00,-0.0003
2019.00,-0.0003
2018.00,-0.0003
2017.00,-0.0001
2016.00,0.0000
2015.00,0.0001
2014.00,0.0001
2013.00,0.0001
2012.00,0.0001
2011.00,-0.0000
2010.00,-0.0002
2009.00,-0.0003
2008.00,-0.0004
2007.00,-0.0005
2006.00,-0.0006
2005.00,-0.0006
2004.00,-0.0004
2003.00,-0.0002
2002.00,-0.0002
2001.00,-0.0002
2000.00,-0.0001
1999.00,-0.0001
1998.00,-0.0002
1997.00,-0.0001
1996.00,0.0001
1995.00,0.0003
1994.00,0.0004
1993.00,0.0006
1992.00,0.0007
1991.00,0.0007
1990.00,0.0006
1989.00,0.0007
1988.00,0.0008
1987.00,0.0010
1986.00,0.0011
1985.00,0.0013
1984.00,0.0016
1983.00,0.0018
1982.00,0.0019
1981.00,0.0019
1980.00,0.0016
1979.00,0.0010
1978.00,0.0003
1977.00,-0.0002
1976.00,-0.0004
1975.00,-0.0004
1974.00,-0.0005
1973.00,-0.0005
1972.00,-0.0004
1971.00,-0.0004
1970.00,-0.0004
1969.00,-0.0004
1968.00,-0.0004
1967.00,-0.0004
1966.00,-0.0005
1965.00,-0.0005
1964.00,-0.0004
1963.00,-0.0005
1962.00,-0.0007
1961.00,-0.0009
1960.00,-0.0009
1959.00,-0.0008
1958.00,-0.0006
1957.00,-0.0003
1956.00,-0.0001
1955.00,-0.0001
1954.00,-0.0002
1953.00,-0.0002
1952.00,-0.0001
1951.00,0.0000
1950.00,0.0001
1949.00,0.0001
1948.00,0.0001
1947.00,-0.0000
1946.00,-0.0001
1945.00,-0.0000
1944.00,0.0001
1943.00,0.0001
1942.00,0.0000
1941.00,0.0000
1940.00,0.0000
1939.00,0.0000
1938.00,0.0000
1937.00,0.0000
1936.00,0.0001
1935.00,0.0002
1934.00,0.0001
1933.00,0.0002
1932.00,0.0002
1931.00,0.0002
1930.00,0.0001
1929.00,0.0001
1928.00,0.0001
1927.00,0.0001
1926.00,0.0002
1925.00,0.0002
1924.00,0.0004
1923.00,0.0005
1922.00,0.0005
1921.00,0.0006
1920.00,0.0006
1919.00,0.0006
1918.00,0.0005
1917.00,0.0005
1916.00,0.0005
1915.00,0.0005
1914.00,0.0006
1913.00,0.0006
1912.00,0.0007
1911.00,0.0007
1910.00,0.0007
1909.00,0.0006
1908.00,0.0006
1907.00,0.0005
1906.00,0.0005
1905.00,0.0004
1904.00,0.0005
1903.00,0.0005
1902.00,0.0005
1901.00,0.0005
1900.00,0.0005
1899.00,0.0006
1898.00,0.0006
1897.00,0.0006
1896.00,0.0007
1895.00,0.0006
1894.00,0.0006
1893.00,0.0006
1892.00,0.0006
1891.00,0.0006
1890.00,0.0006
1889.00,0.0006
1888.00,0.0006
1887.00,0.0006
1886.00,0.0005
1885.00,0.0005
1884.00,0.0006
1883.00,0.0005
1882.00,0.0005
1881.00,0.0005
1880.00,0.0005
1879.00,0.0005
1878.00,0.0005
1877.00,0.0005
1876.00,0.0005
1875.00,0.0006
1874.00,0.0006
1873.00,0.0006
1872.00,0.0006
1871.00,0.0006
1870.00,0.0006
1869.00,0.0007
1868.00,0.0007
1867.00,0.0007
1866.00,0.0007
1865.00,0.0007
1864.00,0.0007
1863.00,0.0007
1862.00,0.0007
1861.00,0.0008
1860.00,0.0008
1859.00,0.0008
1858.00,0.0008
1857.00,0.0008
1856.00,0.0008
1855.00,0.0009
1854.00,0.0008
1853.00,0.0009
1852.00,0.0009
1851.00,0.0009
1850.00,0.0009
1849.00,0.0009
1848.00,0.0010
1847.00,0.0010
1846.00,0.0009
1845.00,0.0008
1844.00,0.0008
1843.00,0.0007
1842.00,0.0007
1841.00,0.0008
1840.00,0.0009
1839.00,0.0009
1838.00,0.0010
1837.00,0.0010
1836.00,0.0010
1835.00,0.0010
1834.00,0.0009
1833.00,0.0010
1832.00,0.0011
1831.00,0.0011
1830.00,0.0011
1829.00,0.0010
1828.00,0.0010
1827.00,0.0010
1826.00,0.0010
1825.00,0.0010
1824.00,0.0010
1823.00,0.0010
1822.00,0.0010
1821.00,0.0010
1820.00,0.0010
1819.00,0.0009
1818.00,0.0008
1817.00,0.0007
1816.00,0.0008
1815.00,0.0008
1814.00,0.0009
1813.00,0.0010
1812.00,0.0011
1811.00,0.0011
1810.00,0.0011
1809.00,0.0011
1808.00,0.0011
1807.00,0.0012
1806.00,0.0011
1805.00,0.0011
1804.00,0.0012
1803.00,0.0012
1802.00,0.0013
1801.00,0.0013
1800.00,0.0013
1799.00,0.0013
1798.00,0.0013
1797.00,0.0013
1796.00,0.0014
1795.00,0.0014
1794.00,0.0014
1793.00,0.0014
1792.00,0.0014
1791.00,0.0013
1790.00,0.0013
1789.00,0.0013
1788.00,0.0014
1787.00,0.0014
1786.00,0.0014
1785.00,0.0014
1784.00,0.0015
1783.00,0.0015
1782.00,0.0016
1781.00,0.0016
1780.00,0.0016
1779.00,0.0016
1778.00,0.0016
1777.00,0.0016
1776.00,0.0017
1775.00,0.0018
1774.00,0.0018
1773.00,0.0019
1772.00,0.0019
1771.00,0.0019
1770.00,0.0019
1769.00,0.0018
1768.00,0.0019
1767.00,0.0019
1766.00,0.0019
1765.00,0.0020
1764.00,0.0021
1763.00,0.0021
1762.00,0.0021
1761.00,0.0021
1760.00,0.0021
1759.00,0.0022
1758.00,0.0022
1757.00,0.0022
1756.00,0.0023
1755.00,0.0023
1754.00,0.0023
1753.00,0.0024
1752.00,0.0025
1751.00,0.0026
1750.00,0.0027
1749.00,0.0028
1748.00,0.0029
1747.00,0.0029
1746.00,0.0029
1745.00,0.0030
1744.00,0.0031
1743.00,0.0031
1742.00,0.0031
1741.00,0.0031
1740.00,0.0032
1739.00,0.0033
1738.00,0.0033
1737.00,0.0034
1736.00,0.0034
1735.00,0.0035
1734.00,0.0036
1733.00,0.0037
1732.00,0.0039
1731.00,0.0041
1730.00,0.0042
1729.00,0.0043
1728.00,0.0045
1727.00,0.0046
1726.00,0.0048
1725.00,0.0049
1724.00,0.0052
1723.00,0.0054
1722.00,0.0055
1721.00,0.0057
1720.00,0.0059
1719.00,0.0062
1718.00,0.0065
1717.00,0.0069
1716.00,0.0073
1715.00,0.0077
1714.00,0.0081
1713.00,0.0085
1712.00,0.0091
1711.00,0.0096
1710.00,0.0102
1709.00,0.0109
1708.00,0.0119
1707.00,0.0129
1706.00,0.0142
1705.00,0.0157
1704.00,0.0169
1703.00,0.0179
1702.00,0.0192
1701.00,0.0220
1700.00,0.0259
1699.00,0.0291
1698.00,0.0314
1697.00,0.0343
1696.00,0.0387
1695.00,0.0435
1694.00,0.0474
1693.00,0.0503
1692.00,0.0533
1691.00,0.0568
1690.00,0.0609
1689.00,0.0649
1688.00,0.0680
1687.00,0.0702
1686.00,0.0728
1685.00,0.0780
1684.00,0.0855
1683.00,0.0914
1682.00,0.0942
1681.00,0.0957
1680.00,0.0972
1679.00,0.0986
1678.00,0.0995
1677.00,0.1006
1676.00,0.1029
1675.00,0.1062
1674.00,0.1086
1673.00,0.1092
1672.00,0.1092
1671.00,0.1101
1670.00,0.1124
1669.00,0.1153
1668.00,0.1174
1667.00,0.1179
1666.00,0.1174
1665.00,0.1170
1664.00,0.1177
1663.00,0.1197
1662.00,0.1219
1661.00,0.1232
1660.00,0.1234
1659.00,0.1230
1658.00,0.1222
1657.00,0.1205
1656.00,0.1181
1655.00,0.1162
1654.00,0.1174
1653.00,0.1219
1652.00,0.1243
1651.00,0.1223
1650.00,0.1182
1649.00,0.1139
1648.00,0.1109
1647.00,0.1091
1646.00,0.1075
1645.00,0.1049
1644.00,0.1012
1643.00,0.0971
1642.00,0.0929
1641.00,0.0889
1640.00,0.0849
1639.00,0.0810
1638.00,0.0771
1637.00,0.0736
1636.00,0.0707
1635.00,0.0682
1634.00,0.0655
1633.00,0.0626
1632.00,0.0595
1631.00,0.0567
1630.00,0.0543
1629.00,0.0523
1628.00,0.0509
1627.00,0.0498
1626.00,0.0489
1625.00,0.0485
1624.00,0.0488
1623.00,0.0497
1622.00,0.0505
1621.00,0.0508
1620.00,0.0505
1619.00,0.0499
1618.00,0.0493
1617.00,0.0489
1616.00,0.0484
1615.00,0.0475
1614.00,0.0462
1613.00,0.0447
1612.00,0.0434
1611.00,0.0424
1610.00,0.0414
1609.00,0.0401
1608.00,0.0387
1607.00,0.0370
1606.00,0.0351
1605.00,0.0330
1604.00,0.0309
1603.00,0.0290
1602.00,0.0272
1601.00,0.0256
1600.00,0.0242
1599.00,0.0231
1598.00,0.0222
1597.00,0.0215
1596.00,0.0211
1595.00,0.0211
1594.00,0.0214
1593.00,0.0221
1592.00,0.0230
1591.00,0.0243
1590.00,0.0259
1589.00,0.0274
1588.00,0.0289
1587.00,0.0300
1586.00,0.0306
1585.00,0.0307
1584.00,0.0302
1583.00,0.0293
1582.00,0.0280
1581.00,0.0265
1580.00,0.0250
1579.00,0.0235
1578.00,0.0221
1577.00,0.0209
1576.00,0.0199
1575.00,0.0191
1574.00,0.0185
1573.00,0.0178
1572.00,0.0172
1571.00,0.0166
1570.00,0.0161
1569.00,0.0157
1568.00,0.0152
1567.00,0.0148
1566.00,0.0144
1565.00,0.0139
1564.00,0.0135
1563.00,0.0131
1562.00,0.0125
1561.00,0.0121
1560.00,0.0119
1559.00,0.0118
1558.00,0.0117
1557.00,0.0115
1556.00,0.0113
1555.00,0.0111
1554.00,0.0109
1553.00,0.0108
1552.00,0.0107
1551.00,0.0106
1550.00,0.0105
1549.00,0.0103
1548.00,0.0101
1547.00,0.0100
1546.00,0.0099
1545.00,0.0099
1544.00,0.0098
1543.00,0.0098
1542.00,0.0097
1541.00,0.0097
1540.00,0.0096
1539.00,0.0095
1538.00,0.0094
1537.00,0.0094
1536.00,0.0094
1535.00,0.0094
1534.00,0.0095
1533.00,0.0095
1532.00,0.0095
1531.00,0.0096
1530.00,0.0096
1529.00,0.0097
1528.00,0.0098
1527.00,0.0099
1526.00,0.0100
1525.00,0.0102
1524.00,0.0103
1523.00,0.0104
1522.00,0.0107
1521.00,0.0110
1520.00,0.0114
1519.00,0.0117
1518.00,0.0120
1517.00,0.0122
1516.00,0.0125
1515.00,0.0126
1514.00,0.0127
1513.00,0.0128
1512.00,0.0130
1511.00,0.0131
1510.00,0.0133
1509.00,0.0135
1508.00,0.0140
1507.00,0.0148
1506.00,0.0157
1505.00,0.0167
1504.00,0.0176
1503.00,0.0186
1502.00,0.0198
1501.00,0.0212
1500.00,0.0229
1499.00,0.0248
1498.00,0.0268
1497.00,0.0288
1496.00,0.0304
1495.00,0.0313
1494.00,0.0315
1493.00,0.0311
1492.00,0.0304
1491.00,0.0294
1490.00,0.0282
1489.00,0.0268
1488.00,0.0250
1487.00,0.0232
1486.00,0.0215
1485.00,0.0200
1484.00,0.0187
1483.00,0.0177
1482.00,0.0168
1481.00,0.0163
1480.00,0.0159
1479.00,0.0157
1478.00,0.0157
1477.00,0.0161
1476.00,0.0166
1475.00,0.0173
1474.00,0.0185
1473.00,0.0204
1472.00,0.0230
1471.00,0.0256
1470.00,0.0281
1469.00,0.0307
1468.00,0.0334
1467.00,0.0365
1466.00,0.0403
1465.00,0.0448
1464.00,0.0490
1463.00,0.0520
1462.00,0.0537
1461.00,0.0544
1460.00,0.0543
1459.00,0.0536
1458.00,0.0524
1457.00,0.0507
1456.00,0.0485
1455.00,0.0461
1454.00,0.0438
1453.00,0.0419
1452.00,0.0405
1451.00,0.0397
1450.00,0.0396
1449.00,0.0404
1448.00,0.0420
1447.00,0.0440
1446.00,0.0462
1445.00,0.0484
1444.00,0.0508
1443.00,0.0533
1442.00,0.0559
1441.00,0.0582
1440.00,0.0600
1439.00,0.0615
1438.00,0.0634
1437.00,0.0662
1436.00,0.0692
1435.00,0.0710
1434.00,0.0716
1433.00,0.0718
1432.00,0.0721
1431.00,0.0727
1430.00,0.0738
1429.00,0.0752
1428.00,0.0767
1427.00,0.0783
1426.00,0.0801
1425.00,0.0826
1424.00,0.0851
1423.00,0.0866
1422.00,0.0868
1421.00,0.0857
1420.00,0.0839
1419.00,0.0813
1418.00,0.0776
1417.00,0.0731
1416.00,0.0681
1415.00,0.0631
1414.00,0.0585
1413.00,0.0545
1412.00,0.0512
1411.00,0.0484
1410.00,0.0463
1409.00,0.0448
1408.00,0.0436
1407.00,0.0429
1406.00,0.0426
1405.00,0.0425
1404.00,0.0424
1403.00,0.0421
1402.00,0.0416
1401.00,0.0407
1400.00,0.0396
1399.00,0.0382
1398.00,0.0365
1397.00,0.0347
1396.00,0.0328
1395.00,0.0309
1394.00,0.0293
1393.00,0.0279
1392.00,0.0268
1391.00,0.0260
1390.00,0.0255
1389.00,0.0252
1388.00,0.0254
1387.00,0.0259
1386.00,0.0266
1385.00,0.0274
1384.00,0.0283
1383.00,0.0292
1382.00,0.0303
1381.00,0.0313
1380.00,0.0322
1379.00,0.0329
1378.00,0.0334
1377.00,0.0337
1376.00,0.0338
1375.00,0.0339
1374.00,0.0339
1373.00,0.0337
1372.00,0.0333
1371.00,0.0328
1370.00,0.0322
1369.00,0.0317
1368.00,0.0311
1367.00,0.0306
1366.00,0.0302
1365.00,0.0299
1364.00,0.0298
1363.00,0.0299
1362.00,0.0299
1361.00,0.0296
1360.00,0.0290
1359.00,0.0280
1358.00,0.0268
1357.00,0.0254
1356.00,0.0239
1355.00,0.0226
1354.00,0.0216
1353.00,0.0208
1352.00,0.0202
1351.00,0.0198
1350.00,0.0195
1349.00,0.0192
1348.00,0.0190
1347.00,0.0189
1346.00,0.0188
1345.00,0.0188
1344.00,0.0187
1343.00,0.0188
1342.00,0.0189
1341.00,0.0190
1340.00,0.0192
1339.00,0.0195
1338.00,0.0198
1337.00,0.0202
1336.00,0.0206
1335.00,0.0210
1334.00,0.0215
1333.00,0.0220
1332.00,0.0226
1331.00,0.0232
1330.00,0.0239
1329.00,0.0247
1328.00,0.0255
1327.00,0.0264
1326.00,0.0274
1325.00,0.0285
1324.00,0.0296
1323.00,0.0306
1322.00,0.0316
1321.00,0.0326
1320.00,0.0333
1319.00,0.0339
1318.00,0.0342
1317.00,0.0341
1316.00,0.0338
1315.00,0.0333
1314.00,0.0326
1313.00,0.0319
1312.00,0.0311
1311.00,0.0305
1310.00,0.0300
1309.00,0.0297
1308.00,0.0297
1307.00,0.0298
1306.00,0.0303
1305.00,0.0309
1304.00,0.0318
1303.00,0.0330
1302.00,0.0347
1301.00,0.0367
1300.00,0.0393
1299.00,0.0425
1298.00,0.0463
1297.00,0.0508
1296.00,0.0558
1295.00,0.0612
1294.00,0.0669
1293.00,0.0725
1292.00,0.0779
1291.00,0.0829
1290.00,0.0873
1289.00,0.0910
1288.00,0.0939
1287.00,0.0959
1286.00,0.0969
1285.00,0.0968
1284.00,0.0958
1283.00,0.0941
1282.00,0.0920
1281.00,0.0898
1280.00,0.0878
1279.00,0.0862
1278.00,0.0851
1277.00,0.0847
1276.00,0.0847
1275.00,0.0850
1274.00,0.0853
1273.00,0.0855
1272.00,0.0854
1271.00,0.0847
1270.00,0.0834
1269.00,0.0815
1268.00,0.0790
1267.00,0.0761
1266.00,0.0728
1265.00,0.0694
1264.00,0.0659
1263.00,0.0624
1262.00,0.0591
1261.00,0.0559
1260.00,0.0530
1259.00,0.0502
1258.00,0.0477
1257.00,0.0454
1256.00,0.0433
1255.00,0.0415
1254.00,0.0398
1253.00,0.0385
1252.00,0.0373
1251.00,0.0364
1250.00,0.0358
1249.00,0.0355
1248.00,0.0354
1247.00,0.0355
1246.00,0.0359
1245.00,0.0365
1244.00,0.0373
1243.00,0.0381
1242.00,0.0389
1241.00,0.0397
1240.00,0.0404
1239.00,0.0410
1238.00,0.0416
1237.00,0.0421
1236.00,0.0426
1235.00,0.0431
1234.00,0.0435
1233.00,0.0438
1232.00,0.0439
1231.00,0.0440
1230.00,0.0439
1229.00,0.0438
1228.00,0.0436
1227.00,0.0433
1226.00,0.0431
1225.00,0.0429
1224.00,0.0428
1223.00,0.0427
1222.00,0.0426
1221.00,0.0426
1220.00,0.0425
1219.00,0.0423
1218.00,0.0419
1217.00,0.0413
1216.00,0.0404
1215.00,0.0393
1214.00,0.0380
1213.00,0.0367
1212.00,0.0352
1211.00,0.0338
1210.00,0.0325
1209.00,0.0313
1208.00,0.0303
1207.00,0.0295
1206.00,0.0289
1205.00,0.0284
1204.00,0.0282
1203.00,0.0282
1202.00,0.0284
1201.00,0.0288
1200.00,0.0294
1199.00,0.0301
1198.00,0.0308
1197.00,0.0316
1196.00,0.0323
1195.00,0.0327
1194.00,0.0329
1193.00,0.0327
1192.00,0.0322
1191.00,0.0313
1190.00,0.0301
1189.00,0.0289
1188.00,0.0277
1187.00,0.0265
1186.00,0.0255
1185.00,0.0247
1184.00,0.0241
1183.00,0.0236
1182.00,0.0232
1181.00,0.0230
1180.00,0.0229
1179.00,0.0229
1178.00,0.0231
1177.00,0.0233
1176.00,0.0236
1175.00,0.0239
1174.00,0.0244
1173.00,0.0248
1172.00,0.0251
1171.00,0.0255
1170.00,0.0257
1169.00,0.0258
1168.00,0.0259
1167.00,0.0259
1166.00,0.0259
1165.00,0.0260
1164.00,0.0262
1163.00,0.0266
1162.00,0.0271
1161.00,0.0278
1160.00,0.0285
1159.00,0.0292
1158.00,0.0298
1157.00,0.0300
1156.00,0.0299
1155.00,0.0295
1154.00,0.0287
1153.00,0.0277
1152.00,0.0265
1151.00,0.0252
1150.00,0.0239
1149.00,0.0226
1148.00,0.0213
1147.00,0.0201
1146.00,0.0191
1145.00,0.0182
1144.00,0.0175
1143.00,0.0169
1142.00,0.0165
1141.00,0.0163
1140.00,0.0161
1139.00,0.0162
1138.00,0.0165
1137.00,0.0171
1136.00,0.0181
1135.00,0.0193
1134.00,0.0209
1133.00,0.0227
1132.00,0.0244
1131.00,0.0258
1130.00,0.0267
1129.00,0.0268
1128.00,0.0262
1127.00,0.0250
1126.00,0.0234
1125.00,0.0218
1124.00,0.0204
1123.00,0.0192
1122.00,0.0184
1121.00,0.0177
1120.00,0.0172
1119.00,0.0169
1118.00,0.0166
1117.00,0.0165
1116.00,0.0164
1115.00,0.0164
1114.00,0.0165
1113.00,0.0166
1112.00,0.0167
1111.00,0.0169
1110.00,0.0171
1109.00,0.0172
1108.00,0.0175
1107.00,0.0178
1106.00,0.0182
1105.00,0.0187
1104.00,0.0193
1103.00,0.0199
1102.00,0.0204
1101.00,0.0208
1100.00,0.0209
1099.00,0.0208
1098.00,0.0205
1097.00,0.0200
1096.00,0.0194
1095.00,0.0188
1094.00,0.0183
1093.00,0.0177
1092.00,0.0173
1091.00,0.0169
1090.00,0.0166
1089.00,0.0164
1088.00,0.0162
1087.00,0.0160
1086.00,0.0159
1085.00,0.0160
1084.00,0.0160
1083.00,0.0161
1082.00,0.0163
1081.00,0.0165
1080.00,0.0168
1079.00,0.0172
1078.00,0.0176
1077.00,0.0181
1076.00,0.0186
1075.00,0.0191
1074.00,0.0197
1073.00,0.0202
1072.00,0.0208
1071.00,0.0215
1070.00,0.0224
1069.00,0.0235
1068.00,0.0248
1067.00,0.0264
1066.00,0.0282
1065.00,0.0302
1064.00,0.0323
1063.00,0.0346
1062.00,0.0369
1061.00,0.0391
1060.00,0.0409
1059.00,0.0422
1058.00,0.0428
1057.00,0.0425
1056.00,0.0415
1055.00,0.0398
1054.00,0.0376
1053.00,0.0352
1052.00,0.0327
1051.00,0.0304
1050.00,0.0285
1049.00,0.0271
1048.00,0.0261
1047.00,0.0255
1046.00,0.0253
1045.00,0.0253
1044.00,0.0255
1043.00,0.0259
1042.00,0.0262
1041.00,0.0267
1040.00,0.0271
1039.00,0.0275
1038.00,0.0279
1037.00,0.0283
1036.00,0.0286
1035.00,0.0289
1034.00,0.0293
1033.00,0.0295
1032.00,0.0297
1031.00,0.0296
1030.00,0.0294
1029.00,0.0289
1028.00,0.0282
1027.00,0.0273
1026.00,0.0265
1025.00,0.0257
1024.00,0.0252
1023.00,0.0248
1022.00,0.0247
1021.00,0.0247
1020.00,0.0247
1019.00,0.0247
1018.00,0.0246
1017.00,0.0244
1016.00,0.0239
1015.00,0.0233
1014.00,0.0224
1013.00,0.0215
1012.00,0.0206
1011.00,0.0199
1010.00,0.0194
1009.00,0.0192
1008.00,0.0194
1007.00,0.0198
1006.00,0.0205
1005.00,0.0213
1004.00,0.0220
1003.00,0.0224
1002.00,0.0226
1001.00,0.0224
1000.00,0.0218
999.00,0.0211
998.00,0.0204
997.00,0.0196
996.00,0.0189
995.00,0.0183
994.00,0.0177
993.00,0.0172
992.00,0.0167
991.00,0.0163
990.00,0.0158
989.00,0.0154
988.00,0.0149
987.00,0.0145
986.00,0.0142
985.00,0.0139
984.00,0.0137
983.00,0.0135
982.00,0.0133
981.00,0.0132
980.00,0.0131
979.00,0.0131
978.00,0.0132
977.00,0.0132
976.00,0.0132
975.00,0.0131
974.00,0.0130
973.00,0.0128
972.00,0.0126
971.00,0.0124
970.00,0.0123
969.00,0.0121
968.00,0.0119
967.00,0.0118
966.00,0.0117
965.00,0.0115
964.00,0.0114
963.00,0.0112
962.00,0.0111
961.00,0.0109
960.00,0.0108
959.00,0.0106
958.00,0.0105
957.00,0.0104
956.00,0.0103
955.00,0.0101
954.00,0.0100
953.00,0.0100
952.00,0.0100
951.00,0.0100
950.00,0.0101
949.00,0.0101
948.00,0.0102
947.00,0.0103
946.00,0.0104
945.00,0.0106
944.00,0.0107
943.00,0.0110
942.00,0.0113
941.00,0.0118
940.00,0.0124
939.00,0.0131
938.00,0.0140
937.00,0.0148
936.00,0.0157
935.00,0.0165
934.00,0.0171
933.00,0.0174
932.00,0.0174
931.00,0.0172
930.00,0.0169
929.00,0.0166
928.00,0.0163
927.00,0.0161
926.00,0.0160
925.00,0.0158
924.00,0.0156
923.00,0.0154
922.00,0.0151
921.00,0.0148
920.00,0.0145
919.00,0.0142
918.00,0.0139
917.00,0.0136
916.00,0.0134
915.00,0.0132
914.00,0.0130
913.00,0.0128
912.00,0.0128
911.00,0.0127
910.00,0.0128
909.00,0.0130
908.00,0.0132
907.00,0.0135
906.00,0.0140
905.00,0.0144
904.00,0.0149
903.00,0.0156
902.00,0.0162
901.00,0.0169
900.00,0.0175
899.00,0.0181
898.00,0.0184
897.00,0.0187
896.00,0.0187
895.00,0.0186
894.00,0.0184
893.00,0.0180
892.00,0.0175
891.00,0.0170
890.00,0.0166
889.00,0.0162
888.00,0.0160
887.00,0.0159
886.00,0.0159
885.00,0.0159
884.00,0.0161
883.00,0.0162
882.00,0.0165
881.00,0.0168
880.00,0.0172
879.00,0.0178
878.00,0.0184
877.00,0.0191
876.00,0.0198
875.00,0.0205
874.00,0.0213
873.00,0.0219
872.00,0.0224
871.00,0.0228
870.00,0.0231
869.00,0.0232
868.00,0.0233
867.00,0.0234
866.00,0.0234
865.00,0.0235
864.00,0.0237
863.00,0.0240
862.00,0.0242
861.00,0.0244
860.00,0.0247
859.00,0.0251
858.00,0.0255
857.00,0.0260
856.00,0.0266
855.00,0.0272
854.00,0.0279
853.00,0.0287
852.00,0.0295
851.00,0.0302
850.00,0.0309
849.00,0.0316
848.00,0.0321
847.00,0.0325
846.00,0.0329
845.00,0.0332
844.00,0.0334
843.00,0.0334
842.00,0.0334
841.00,0.0333
840.00,0.0332
839.00,0.0330
838.00,0.0329
837.00,0.0328
836.00,0.0327
835.00,0.0326
834.00,0.0325
833.00,0.0324
832.00,0.0322
831.00,0.0320
830.00,0.0319
829.00,0.0316
828.00,0.0314
827.00,0.0311
826.00,0.0307
825.00,0.0304
824.00,0.0302
823.00,0.0300
822.00,0.0300
821.00,0.0299
820.00,0.0299
819.00,0.0298
818.00,0.0297
817.00,0.0295
816.00,0.0293
815.00,0.0291
814.00,0.0288
813.00,0.0283
812.00,0.0276
811.00,0.0267
810.00,0.0256
809.00,0.0244
808.00,0.0231
807.00,0.0218
806.00,0.0207
805.00,0.0198
804.00,0.0190
803.00,0.0184
802.00,0.0180
801.00,0.0177
800.00,0.0175
799.00,0.0174
798.00,0.0174
797.00,0.0174
796.00,0.0174
795.00,0.0174
794.00,0.0175
793.00,0.0175
792.00,0.0176
791.00,0.0176
790.00,0.0177
789.00,0.0178
788.00,0.0178
787.00,0.0178
786.00,0.0178
785.00,0.0179
784.00,0.0180
783.00,0.0181
782.00,0.0184
781.00,0.0186
780.00,0.0189
779.00,0.0193
778.00,0.0195
777.00,0.0196
776.00,0.0196
775.00,0.0195
774.00,0.0194
773.00,0.0194
772.00,0.0194
771.00,0.0195
770.00,0.0197
769.00,0.0199
768.00,0.0202
767.00,0.0205
766.00,0.0209
765.00,0.0214
764.00,0.0218
763.00,0.0223
762.00,0.0227
761.00,0.0232
760.00,0.0238
759.00,0.0243
758.00,0.0249
757.00,0.0255
756.00,0.0260
755.00,0.0266
754.00,0.0271
753.00,0.0276
752.00,0.0281
751.00,0.0287
750.00,0.0292
749.00,0.0298
748.00,0.0304
747.00,0.0309
746.00,0.0316
745.00,0.0322
744.00,0.0329
743.00,0.0337
742.00,0.0346
741.00,0.0356
740.00,0.0367
739.00,0.0377
738.00,0.0386
737.00,0.0392
736.00,0.0394
735.00,0.0392
734.00,0.0388
733.00,0.0382
732.00,0.0374
731.00,0.0366
730.00,0.0356
729.00,0.0347
728.00,0.0337
727.00,0.0328
726.00,0.0320
725.00,0.0312
724.00,0.0305
723.00,0.0298
722.00,0.0292
721.00,0.0287
720.00,0.0283
719.00,0.0281
718.00,0.0279
717.00,0.0278
716.00,0.0277
715.00,0.0277
714.00,0.0276
713.00,0.0276
712.00,0.0275
711.00,0.0273
710.00,0.0272
709.00,0.0271
708.00,0.0270
707.00,0.0270
706.00,0.0270
705.00,0.0271
704.00,0.0273
703.00,0.0274
702.00,0.0275
701.00,0.0275
700.00,0.0277
699.00,0.0279
698.00,0.0283
697.00,0.0289
696.00,0.0295
695.00,0.0302
694.00,0.0309
693.00,0.0315
692.00,0.0321
691.00,0.0326
690.00,0.0331
689.00,0.0334
688.00,0.0337
687.00,0.0338
686.00,0.0340
685.00,0.0341
684.00,0.0343
683.00,0.0345
682.00,0.0346
681.00,0.0348
680.00,0.0350
679.00,0.0353
678.00,0.0355
677.00,0.0358
676.00,0.0361
675.00,0.0366
674.00,0.0371
673.00,0.0377
672.00,0.0382
671.00,0.0386
670.00,0.0391
669.00,0.0400
668.00,0.0415
667.00,0.0429
666.00,0.0437
665.00,0.0442
664.00,0.0448
663.00,0.0457
662.00,0.0467
661.00,0.0477
660.00,0.0489
659.00,0.0501
658.00,0.0513
657.00,0.0526
656.00,0.0538
655.00,0.0550
654.00,0.0562
653.00,0.0572
652.00,0.0581
651.00,0.0589
650.00,0.0595
649.00,0.0600
648.00,0.0604
647.00,0.0605
646.00,0.0602
645.00,0.0597
644.00,0.0590
643.00,0.0582
642.00,0.0573
641.00,0.0563
640.00,0.0553
639.00,0.0543
638.00,0.0533
637.00,0.0524
636.00,0.0516
635.00,0.0509
634.00,0.0503
633.00,0.0496
632.00,0.0489
631.00,0.0484
630.00,0.0480
629.00,0.0477
628.00,0.0475
627.00,0.0473
626.00,0.0471
625.00,0.0470
624.00,0.0468
623.00,0.0465
622.00,0.0463
621.00,0.0461
620.00,0.0460
619.00,0.0458
618.00,0.0457
617.00,0.0456
616.00,0.0455
615.00,0.0455
614.00,0.0455
613.00,0.0455
612.00,0.0456
611.00,0.0457
610.00,0.0459
609.00,0.0461
608.00,0.0464
607.00,0.0466
606.00,0.0469
605.00,0.0472
604.00,0.0474
603.00,0.0477
602.00,0.0480
601.00,0.0483
600.00,0.0485
599.00,0.0486
598.00,0.0487
597.00,0.0487
596.00,0.0488
595.00,0.0489
594.00,0.0491
593.00,0.0493
592.00,0.0497
591.00,0.0503
590.00,0.0510
589.00,0.0520
588.00,0.0533
587.00,0.0548
586.00,0.0565
585.00,0.0582
584.00,0.0598
583.00,0.0613
582.00,0.0625
581.00,0.0635
580.00,0.0643
579.00,0.0649
578.00,0.0654
577.00,0.0657
576.00,0.0659
575.00,0.0662
574.00,0.0665
573.00,0.0666
572.00,0.0667
571.00,0.0667
570.00,0.0666
569.00,0.0664
568.00,0.0663
567.00,0.0661
566.00,0.0658
565.00,0.0652
564.00,0.0645
563.00,0.0637
562.00,0.0628
561.00,0.0620
560.00,0.0613
559.00,0.0607
558.00,0.0602
557.00,0.0596
556.00,0.0589
555.00,0.0583
554.00,0.0577
553.00,0.0571
552.00,0.0565
551.00,0.0560
550.00,0.0556
549.00,0.0552
548.00,0.0549
547.00,0.0545
546.00,0.0541
545.00,0.0535
544.00,0.0530
543.00,0.0526
542.00,0.0522
541.00,0.0519
540.00,0.0517
539.00,0.0516
538.00,0.0518
537.00,0.0520
536.00,0.0523
535.00,0.0527
534.00,0.0531
533.00,0.0536
532.00,0.0539
531.00,0.0541
530.00,0.0540
529.00,0.0537
528.00,0.0534
527.00,0.0530
526.00,0.0524
525.00,0.0518
524.00,0.0513
523.00,0.0509
522.00,0.0506
521.00,0.0505
520.00,0.0503
519.00,0.0499
518.00,0.0496
517.00,0.0494
516.00,0.0493
515.00,0.0492
514.00,0.0491
513.00,0.0491
512.00,0.0493
511.00,0.0495
510.00,0.0498
509.00,0.0500
508.00,0.0502
507.00,0.0502
506.00,0.0499
505.00,0.0496
504.00,0.0493
503.00,0.0493
502.00,0.0493
501.00,0.0493
500.00,0.0491
499.00,0.0489
498.00,0.0487
497.00,0.0486
496.00,0.0486
495.00,0.0487
494.00,0.0488
493.00,0.0491
492.00,0.0493
491.00,0.0495
490.00,0.0496
489.00,0.0495
488.00,0.0494
487.00,0.0493
486.00,0.0494
485.00,0.0494
484.00,0.0496
483.00,0.0497
482.00,0.0498
481.00,0.0497
480.00,0.0494
479.00,0.0491
478.00,0.0489
477.00,0.0489
476.00,0.0490
475.00,0.0493
474.00,0.0497
473.00,0.0501
472.00,0.0503
471.00,0.0503
470.00,0.0502
469.00,0.0501
468.00,0.0501
467.00,0.0501
466.00,0.0500
465.00,0.0497
464.00,0.0495
463.00,0.0495
462.00,0.0498
461.00,0.0500
460.00,0.0500
459.00,0.0500
458.00,0.0499
457.00,0.0501
456.00,0.0501
455.00,0.0499
454.00,0.0495
453.00,0.0493
452.00,0.0491
451.00,0.0490
450.00,0.0489
449.00,0.0487
448.00,0.0484
447.00,0.0481
446.00,0.0478
445.00,0.0475
444.00,0.0472
443.00,0.0470
442.00,0.0471
441.00,0.0474
440.00,0.0477
439.00,0.0479
438.00,0.0478
437.00,0.0475
436.00,0.0470
435.00,0.0466
434.00,0.0465
433.00,0.0467
432.00,0.0468
431.00,0.0468
430.00,0.0468
429.00,0.0469
428.00,0.0471
427.00,0.0471
426.00,0.0469
425.00,0.0465
424.00,0.0462
423.00,0.0462
422.00,0.0461
421.00,0.0459
420.00,0.0455
419.00,0.0452
418.00,0.0452
417.00,0.0455
416.00,0.0463
415.00,0.0475
414.00,0.0486
413.00,0.0491
412.00,0.0490
411.00,0.0487
410.00,0.0485
409.00,0.0482
408.00,0.0475
407.00,0.0465
406.00,0.0457
405.00,0.0453
404.00,0.0452
403.00,0.0454
402.00,0.0455
401.00,0.0454
400.00,0.0455
