Created as New Dataset,Sample 823 By YargerLab Date Tuesday, July 15 2025
cm-1,A
4000.00,0.0041
3999.00,0.0041
3998.00,0.0041
3997.00,0.0041
3996.00,0.0041
3995.00,0.0041
3994.00,0.0041
3993.00,0.0041
3992.00,0.0041
3991.00,0.0041
3990.00,0.0041
3989.00,0.0041
3988.00,0.0041
3987.00,0.0040
3986.00,0.0040
3985.00,0.0041
3984.00,0.0041
3983.00,0.0041
3982.00,0.0041
3981.00,0.0041
3980.00,0.0041
3979.00,0.0041
3978.00,0.0041
3977.00,0.0041
3976.00,0.0041
3975.00,0.0041
3974.00,0.0041
3973.00,0.0041
3972.00,0.0041
3971.00,0.0041
3970.00,0.0041
3969.00,0.0040
3968.00,0.0040
3967.00,0.0040
3966.00,0.0040
3965.00,0.0040
3964.00,0.0040
3963.00,0.0040
3962.00,0.0040
3961.00,0.0040
3960.00,0.0040
3959.00,0.0040
3958.00,0.0040
3957.00,0.0040
3956.00,0.0041
3955.00,0.0040
3954.00,0.0040
3953.00,0.0040
3952.00,0.0040
3951.00,0.0040
3950.00,0.0040
3949.00,0.0040
3948.00,0.0040
3947.00,0.0040
3946.00,0.0040
3945.00,0.0040
3944.00,0.0040
3943.00,0.0040
3942.00,0.0040
3941.00,0.0040
3940.00,0.0040
3939.00,0.0040
3938.00,0.0040
3937.00,0.0040
3936.00,0.0040
3935.00,0.0040
3934.00,0.0040
3933.00,0.0040
3932.00,0.0040
3931.00,0.0039
3930.00,0.0040
3929.00,0.0040
3928.00,0.0040
3927.00,0.0040
3926.00,0.0040
3925.00,0.0040
3924.00,0.0040
3923.00,0.0040
3922.00,0.0040
3921.00,0.0040
3920.00,0.0040
3919.00,0.0040
3918.00,0.0040
3917.00,0.0040
3916.00,0.0040
3915.00,0.0040
3914.00,0.0040
3913.00,0.0040
3912.00,0.0041
3911.00,0.0041
3910.00,0.0041
3909.00,0.0041
3908.00,0.0040
3907.00,0.0040
3906.00,0.0040
3905.00,0.0040
3904.00,0.0040
3903.00,0.0039
3902.00,0.0039
3901.00,0.0039
3900.00,0.0039
3899.00,0.0039
3898.00,0.0039
3897.00,0.0039
3896.00,0.0039
3895.00,0.0039
3894.00,0.0039
3893.00,0.0039
3892.00,0.0039
3891.00,0.0039
3890.00,0.0039
3889.00,0.0039
3888.00,0.0039
3887.00,0.0039
3886.00,0.0039
3885.00,0.0039
3884.00,0.0039
3883.00,0.0039
3882.00,0.0039
3881.00,0.0040
3880.00,0.0040
3879.00,0.0040
3878.00,0.0040
3877.00,0.0039
3876.00,0.0039
3875.00,0.0039
3874.00,0.0040
3873.00,0.0040
3872.00,0.0039
3871.00,0.0039
3870.00,0.0039
3869.00,0.0039
3868.00,0.0039
3867.00,0.0039
3866.00,0.0039
3865.00,0.0039
3864.00,0.0039
3863.00,0.0039
3862.00,0.0039
3861.00,0.0040
3860.00,0.0040
3859.00,0.0040
3858.00,0.0039
3857.00,0.0039
3856.00,0.0038
3855.00,0.0038
3854.00,0.0038
3853.00,0.0038
3852.00,0.0038
3851.00,0.0038
3850.00,0.0038
3849.00,0.0039
3848.00,0.0039
3847.00,0.0040
3846.00,0.0040
3845.00,0.0040
3844.00,0.0040
3843.00,0.0040
3842.00,0.0039
3841.00,0.0039
3840.00,0.0039
3839.00,0.0039
3838.00,0.0039
3837.00,0.0039
3836.00,0.0039
3835.00,0.0039
3834.00,0.0039
3833.00,0.0039
3832.00,0.0040
3831.00,0.0040
3830.00,0.0040
3829.00,0.0040
3828.00,0.0040
3827.00,0.0040
3826.00,0.0040
3825.00,0.0040
3824.00,0.0039
3823.00,0.0039
3822.00,0.0039
3821.00,0.0039
3820.00,0.0039
3819.00,0.0039
3818.00,0.0039
3817.00,0.0039
3816.00,0.0039
3815.00,0.0039
3814.00,0.0039
3813.00,0.0039
3812.00,0.0040
3811.00,0.0040
3810.00,0.0040
3809.00,0.0040
3808.00,0.0041
3807.00,0.0041
3806.00,0.0040
3805.00,0.0040
3804.00,0.0039
3803.00,0.0039
3802.00,0.0039
3801.00,0.0039
3800.00,0.0039
3799.00,0.0039
3798.00,0.0039
3797.00,0.0039
3796.00,0.0039
3795.00,0.0039
3794.00,0.0039
3793.00,0.0040
3792.00,0.0040
3791.00,0.0040
3790.00,0.0041
3789.00,0.0041
3788.00,0.0041
3787.00,0.0041
3786.00,0.0040
3785.00,0.0040
3784.00,0.0040
3783.00,0.0040
3782.00,0.0040
3781.00,0.0039
3780.00,0.0040
3779.00,0.0040
3778.00,0.0040
3777.00,0.0040
3776.00,0.0040
3775.00,0.0040
3774.00,0.0040
3773.00,0.0040
3772.00,0.0040
3771.00,0.0040
3770.00,0.0040
3769.00,0.0040
3768.00,0.0040
3767.00,0.0040
3766.00,0.0040
3765.00,0.0039
3764.00,0.0039
3763.00,0.0039
3762.00,0.0040
3761.00,0.0040
3760.00,0.0040
3759.00,0.0040
3758.00,0.0040
3757.00,0.0040
3756.00,0.0040
3755.00,0.0040
3754.00,0.0040
3753.00,0.0039
3752.00,0.0039
3751.00,0.0038
3750.00,0.0038
3749.00,0.0038
3748.00,0.0038
3747.00,0.0037
3746.00,0.0037
3745.00,0.0038
3744.00,0.0038
3743.00,0.0038
3742.00,0.0038
3741.00,0.0038
3740.00,0.0038
3739.00,0.0038
3738.00,0.0038
3737.00,0.0038
3736.00,0.0038
3735.00,0.0037
3734.00,0.0037
3733.00,0.0037
3732.00,0.0037
3731.00,0.0038
3730.00,0.0038
3729.00,0.0038
3728.00,0.0038
3727.00,0.0038
3726.00,0.0038
3725.00,0.0038
3724.00,0.0039
3723.00,0.0039
3722.00,0.0039
3721.00,0.0039
3720.00,0.0039
3719.00,0.0039
3718.00,0.0039
3717.00,0.0039
3716.00,0.0039
3715.00,0.0039
3714.00,0.0039
3713.00,0.0039
3712.00,0.0038
3711.00,0.0038
3710.00,0.0038
3709.00,0.0038
3708.00,0.0038
3707.00,0.0038
3706.00,0.0038
3705.00,0.0038
3704.00,0.0039
3703.00,0.0039
3702.00,0.0039
3701.00,0.0039
3700.00,0.0039
3699.00,0.0039
3698.00,0.0039
3697.00,0.0039
3696.00,0.0039
3695.00,0.0039
3694.00,0.0040
3693.00,0.0040
3692.00,0.0040
3691.00,0.0040
3690.00,0.0040
3689.00,0.0040
3688.00,0.0040
3687.00,0.0040
3686.00,0.0040
3685.00,0.0041
3684.00,0.0042
3683.00,0.0043
3682.00,0.0044
3681.00,0.0044
3680.00,0.0044
3679.00,0.0044
3678.00,0.0044
3677.00,0.0043
3676.00,0.0043
3675.00,0.0043
3674.00,0.0043
3673.00,0.0043
3672.00,0.0043
3671.00,0.0043
3670.00,0.0044
3669.00,0.0044
3668.00,0.0045
3667.00,0.0045
3666.00,0.0045
3665.00,0.0046
3664.00,0.0046
3663.00,0.0046
3662.00,0.0047
3661.00,0.0047
3660.00,0.0047
3659.00,0.0047
3658.00,0.0047
3657.00,0.0047
3656.00,0.0047
3655.00,0.0047
3654.00,0.0047
3653.00,0.0047
3652.00,0.0047
3651.00,0.0048
3650.00,0.0048
3649.00,0.0048
3648.00,0.0048
3647.00,0.0048
3646.00,0.0048
3645.00,0.0049
3644.00,0.0050
3643.00,0.0051
3642.00,0.0052
3641.00,0.0052
3640.00,0.0052
3639.00,0.0053
3638.00,0.0053
3637.00,0.0053
3636.00,0.0053
3635.00,0.0054
3634.00,0.0054
3633.00,0.0055
3632.00,0.0054
3631.00,0.0054
3630.00,0.0054
3629.00,0.0055
3628.00,0.0055
3627.00,0.0056
3626.00,0.0057
3625.00,0.0058
3624.00,0.0058
3623.00,0.0059
3622.00,0.0060
3621.00,0.0060
3620.00,0.0060
3619.00,0.0061
3618.00,0.0062
3617.00,0.0063
3616.00,0.0064
3615.00,0.0064
3614.00,0.0064
3613.00,0.0065
3612.00,0.0065
3611.00,0.0065
3610.00,0.0066
3609.00,0.0067
3608.00,0.0068
3607.00,0.0069
3606.00,0.0069
3605.00,0.0070
3604.00,0.0070
3603.00,0.0070
3602.00,0.0071
3601.00,0.0071
3600.00,0.0072
3599.00,0.0073
3598.00,0.0073
3597.00,0.0073
3596.00,0.0074
3595.00,0.0074
3594.00,0.0075
3593.00,0.0075
3592.00,0.0076
3591.00,0.0076
3590.00,0.0076
3589.00,0.0077
3588.00,0.0077
3587.00,0.0078
3586.00,0.0079
3585.00,0.0080
3584.00,0.0081
3583.00,0.0082
3582.00,0.0083
3581.00,0.0084
3580.00,0.0085
3579.00,0.0086
3578.00,0.0086
3577.00,0.0087
3576.00,0.0088
3575.00,0.0089
3574.00,0.0090
3573.00,0.0090
3572.00,0.0091
3571.00,0.0091
3570.00,0.0091
3569.00,0.0092
3568.00,0.0092
3567.00,0.0093
3566.00,0.0094
3565.00,0.0095
3564.00,0.0096
3563.00,0.0097
3562.00,0.0098
3561.00,0.0099
3560.00,0.0100
3559.00,0.0100
3558.00,0.0101
3557.00,0.0102
3556.00,0.0102
3555.00,0.0103
3554.00,0.0104
3553.00,0.0105
3552.00,0.0105
3551.00,0.0106
3550.00,0.0107
3549.00,0.0107
3548.00,0.0108
3547.00,0.0109
3546.00,0.0109
3545.00,0.0110
3544.00,0.0110
3543.00,0.0111
3542.00,0.0112
3541.00,0.0112
3540.00,0.0113
3539.00,0.0114
3538.00,0.0115
3537.00,0.0115
3536.00,0.0116
3535.00,0.0116
3534.00,0.0117
3533.00,0.0118
3532.00,0.0118
3531.00,0.0119
3530.00,0.0119
3529.00,0.0120
3528.00,0.0120
3527.00,0.0120
3526.00,0.0121
3525.00,0.0122
3524.00,0.0122
3523.00,0.0123
3522.00,0.0124
3521.00,0.0124
3520.00,0.0125
3519.00,0.0126
3518.00,0.0127
3517.00,0.0127
3516.00,0.0128
3515.00,0.0128
3514.00,0.0129
3513.00,0.0129
3512.00,0.0130
3511.00,0.0130
3510.00,0.0131
3509.00,0.0131
3508.00,0.0132
3507.00,0.0133
3506.00,0.0133
3505.00,0.0134
3504.00,0.0134
3503.00,0.0135
3502.00,0.0136
3501.00,0.0136
3500.00,0.0137
3499.00,0.0138
3498.00,0.0138
3497.00,0.0139
3496.00,0.0140
3495.00,0.0140
3494.00,0.0141
3493.00,0.0141
3492.00,0.0142
3491.00,0.0143
3490.00,0.0143
3489.00,0.0144
3488.00,0.0144
3487.00,0.0144
3486.00,0.0145
3485.00,0.0145
3484.00,0.0146
3483.00,0.0147
3482.00,0.0148
3481.00,0.0148
3480.00,0.0149
3479.00,0.0150
3478.00,0.0150
3477.00,0.0151
3476.00,0.0151
3475.00,0.0152
3474.00,0.0153
3473.00,0.0153
3472.00,0.0154
3471.00,0.0155
3470.00,0.0155
3469.00,0.0156
3468.00,0.0156
3467.00,0.0157
3466.00,0.0157
3465.00,0.0158
3464.00,0.0158
3463.00,0.0159
3462.00,0.0159
3461.00,0.0160
3460.00,0.0160
3459.00,0.0161
3458.00,0.0161
3457.00,0.0162
3456.00,0.0162
3455.00,0.0162
3454.00,0.0162
3453.00,0.0163
3452.00,0.0163
3451.00,0.0164
3450.00,0.0165
3449.00,0.0165
3448.00,0.0166
3447.00,0.0166
3446.00,0.0166
3445.00,0.0166
3444.00,0.0167
3443.00,0.0167
3442.00,0.0168
3441.00,0.0168
3440.00,0.0168
3439.00,0.0168
3438.00,0.0169
3437.00,0.0169
3436.00,0.0170
3435.00,0.0170
3434.00,0.0170
3433.00,0.0170
3432.00,0.0170
3431.00,0.0171
3430.00,0.0171
3429.00,0.0171
3428.00,0.0171
3427.00,0.0171
3426.00,0.0171
3425.00,0.0171
3424.00,0.0171
3423.00,0.0171
3422.00,0.0172
3421.00,0.0172
3420.00,0.0172
3419.00,0.0172
3418.00,0.0172
3417.00,0.0172
3416.00,0.0172
3415.00,0.0173
3414.00,0.0173
3413.00,0.0173
3412.00,0.0173
3411.00,0.0173
3410.00,0.0174
3409.00,0.0174
3408.00,0.0174
3407.00,0.0174
3406.00,0.0174
3405.00,0.0174
3404.00,0.0174
3403.00,0.0175
3402.00,0.0175
3401.00,0.0175
3400.00,0.0175
3399.00,0.0175
3398.00,0.0175
3397.00,0.0175
3396.00,0.0176
3395.00,0.0176
3394.00,0.0176
3393.00,0.0176
3392.00,0.0176
3391.00,0.0176
3390.00,0.0177
3389.00,0.0177
3388.00,0.0177
3387.00,0.0178
3386.00,0.0178
3385.00,0.0178
3384.00,0.0178
3383.00,0.0178
3382.00,0.0178
3381.00,0.0179
3380.00,0.0179
3379.00,0.0179
3378.00,0.0179
3377.00,0.0179
3376.00,0.0179
3375.00,0.0179
3374.00,0.0179
3373.00,0.0179
3372.00,0.0179
3371.00,0.0179
3370.00,0.0178
3369.00,0.0178
3368.00,0.0178
3367.00,0.0179
3366.00,0.0179
3365.00,0.0180
3364.00,0.0180
3363.00,0.0181
3362.00,0.0181
3361.00,0.0181
3360.00,0.0182
3359.00,0.0182
3358.00,0.0182
3357.00,0.0182
3356.00,0.0182
3355.00,0.0182
3354.00,0.0182
3353.00,0.0181
3352.00,0.0181
3351.00,0.0181
3350.00,0.0181
3349.00,0.0182
3348.00,0.0183
3347.00,0.0183
3346.00,0.0183
3345.00,0.0183
3344.00,0.0183
3343.00,0.0182
3342.00,0.0182
3341.00,0.0182
3340.00,0.0182
3339.00,0.0182
3338.00,0.0182
3337.00,0.0183
3336.00,0.0184
3335.00,0.0185
3334.00,0.0186
3333.00,0.0186
3332.00,0.0186
3331.00,0.0186
3330.00,0.0185
3329.00,0.0185
3328.00,0.0184
3327.00,0.0184
3326.00,0.0184
3325.00,0.0184
3324.00,0.0185
3323.00,0.0186
3322.00,0.0186
3321.00,0.0187
3320.00,0.0187
3319.00,0.0188
3318.00,0.0188
3317.00,0.0188
3316.00,0.0187
3315.00,0.0187
3314.00,0.0187
3313.00,0.0187
3312.00,0.0187
3311.00,0.0186
3310.00,0.0185
3309.00,0.0183
3308.00,0.0183
3307.00,0.0182
3306.00,0.0183
3305.00,0.0184
3304.00,0.0185
3303.00,0.0186
3302.00,0.0187
3301.00,0.0188
3300.00,0.0188
3299.00,0.0188
3298.00,0.0187
3297.00,0.0187
3296.00,0.0186
3295.00,0.0185
3294.00,0.0185
3293.00,0.0185
3292.00,0.0186
3291.00,0.0186
3290.00,0.0187
3289.00,0.0188
3288.00,0.0189
3287.00,0.0189
3286.00,0.0190
3285.00,0.0190
3284.00,0.0190
3283.00,0.0189
3282.00,0.0189
3281.00,0.0189
3280.00,0.0189
3279.00,0.0189
3278.00,0.0188
3277.00,0.0188
3276.00,0.0187
3275.00,0.0186
3274.00,0.0186
3273.00,0.0185
3272.00,0.0185
3271.00,0.0185
3270.00,0.0185
3269.00,0.0186
3268.00,0.0186
3267.00,0.0187
3266.00,0.0187
3265.00,0.0187
3264.00,0.0187
3263.00,0.0186
3262.00,0.0186
3261.00,0.0186
3260.00,0.0186
3259.00,0.0186
3258.00,0.0185
3257.00,0.0185
3256.00,0.0185
3255.00,0.0184
3254.00,0.0184
3253.00,0.0184
3252.00,0.0184
3251.00,0.0184
3250.00,0.0184
3249.00,0.0183
3248.00,0.0183
3247.00,0.0183
3246.00,0.0183
3245.00,0.0183
3244.00,0.0183
3243.00,0.0183
3242.00,0.0182
3241.00,0.0182
3240.00,0.0182
3239.00,0.0182
3238.00,0.0182
3237.00,0.0181
3236.00,0.0181
3235.00,0.0181
3234.00,0.0180
3233.00,0.0180
3232.00,0.0180
3231.00,0.0180
3230.00,0.0180
3229.00,0.0180
3228.00,0.0180
3227.00,0.0180
3226.00,0.0179
3225.00,0.0179
3224.00,0.0179
3223.00,0.0178
3222.00,0.0178
3221.00,0.0178
3220.00,0.0177
3219.00,0.0177
3218.00,0.0177
3217.00,0.0177
3216.00,0.0177
3215.00,0.0177
3214.00,0.0176
3213.00,0.0176
3212.00,0.0175
3211.00,0.0175
3210.00,0.0175
3209.00,0.0174
3208.00,0.0174
3207.00,0.0174
3206.00,0.0174
3205.00,0.0174
3204.00,0.0173
3203.00,0.0173
3202.00,0.0173
3201.00,0.0173
3200.00,0.0172
3199.00,0.0172
3198.00,0.0172
3197.00,0.0172
3196.00,0.0171
3195.00,0.0171
3194.00,0.0171
3193.00,0.0171
3192.00,0.0170
3191.00,0.0170
3190.00,0.0170
3189.00,0.0169
3188.00,0.0169
3187.00,0.0169
3186.00,0.0168
3185.00,0.0168
3184.00,0.0167
3183.00,0.0167
3182.00,0.0167
3181.00,0.0166
3180.00,0.0166
3179.00,0.0165
3178.00,0.0165
3177.00,0.0165
3176.00,0.0164
3175.00,0.0164
3174.00,0.0163
3173.00,0.0163
3172.00,0.0162
3171.00,0.0162
3170.00,0.0161
3169.00,0.0161
3168.00,0.0161
3167.00,0.0160
3166.00,0.0160
3165.00,0.0159
3164.00,0.0158
3163.00,0.0158
3162.00,0.0157
3161.00,0.0157
3160.00,0.0156
3159.00,0.0156
3158.00,0.0155
3157.00,0.0155
3156.00,0.0154
3155.00,0.0153
3154.00,0.0153
3153.00,0.0152
3152.00,0.0152
3151.00,0.0151
3150.00,0.0151
3149.00,0.0150
3148.00,0.0150
3147.00,0.0149
3146.00,0.0148
3145.00,0.0148
3144.00,0.0147
3143.00,0.0147
3142.00,0.0147
3141.00,0.0147
3140.00,0.0146
3139.00,0.0146
3138.00,0.0145
3137.00,0.0145
3136.00,0.0144
3135.00,0.0144
3134.00,0.0143
3133.00,0.0143
3132.00,0.0142
3131.00,0.0142
3130.00,0.0142
3129.00,0.0141
3128.00,0.0141
3127.00,0.0140
3126.00,0.0139
3125.00,0.0139
3124.00,0.0139
3123.00,0.0138
3122.00,0.0138
3121.00,0.0138
3120.00,0.0137
3119.00,0.0137
3118.00,0.0137
3117.00,0.0136
3116.00,0.0136
3115.00,0.0135
3114.00,0.0135
3113.00,0.0134
3112.00,0.0134
3111.00,0.0133
3110.00,0.0133
3109.00,0.0132
3108.00,0.0132
3107.00,0.0131
3106.00,0.0131
3105.00,0.0130
3104.00,0.0130
3103.00,0.0129
3102.00,0.0129
3101.00,0.0128
3100.00,0.0128
3099.00,0.0128
3098.00,0.0127
3097.00,0.0127
3096.00,0.0127
3095.00,0.0127
3094.00,0.0126
3093.00,0.0126
3092.00,0.0125
3091.00,0.0125
3090.00,0.0125
3089.00,0.0124
3088.00,0.0124
3087.00,0.0123
3086.00,0.0123
3085.00,0.0123
3084.00,0.0123
3083.00,0.0123
3082.00,0.0123
3081.00,0.0123
3080.00,0.0123
3079.00,0.0123
3078.00,0.0123
3077.00,0.0122
3076.00,0.0122
3075.00,0.0122
3074.00,0.0122
3073.00,0.0122
3072.00,0.0121
3071.00,0.0121
3070.00,0.0121
3069.00,0.0120
3068.00,0.0120
3067.00,0.0119
3066.00,0.0118
3065.00,0.0117
3064.00,0.0116
3063.00,0.0115
3062.00,0.0114
3061.00,0.0114
3060.00,0.0113
3059.00,0.0112
3058.00,0.0111
3057.00,0.0110
3056.00,0.0110
3055.00,0.0109
3054.00,0.0109
3053.00,0.0109
3052.00,0.0108
3051.00,0.0108
3050.00,0.0107
3049.00,0.0107
3048.00,0.0106
3047.00,0.0106
3046.00,0.0106
3045.00,0.0106
3044.00,0.0105
3043.00,0.0105
3042.00,0.0105
3041.00,0.0104
3040.00,0.0104
3039.00,0.0104
3038.00,0.0103
3037.00,0.0103
3036.00,0.0103
3035.00,0.0102
3034.00,0.0102
3033.00,0.0102
3032.00,0.0102
3031.00,0.0102
3030.00,0.0102
3029.00,0.0102
3028.00,0.0102
3027.00,0.0102
3026.00,0.0102
3025.00,0.0102
3024.00,0.0102
3023.00,0.0102
3022.00,0.0102
3021.00,0.0103
3020.00,0.0103
3019.00,0.0104
3018.00,0.0104
3017.00,0.0105
3016.00,0.0105
3015.00,0.0106
3014.00,0.0106
3013.00,0.0107
3012.00,0.0108
3011.00,0.0109
3010.00,0.0110
3009.00,0.0112
3008.00,0.0113
3007.00,0.0114
3006.00,0.0116
3005.00,0.0117
3004.00,0.0119
3003.00,0.0121
3002.00,0.0123
3001.00,0.0125
3000.00,0.0127
2999.00,0.0130
2998.00,0.0132
2997.00,0.0135
2996.00,0.0138
2995.00,0.0141
2994.00,0.0145
2993.00,0.0148
2992.00,0.0151
2991.00,0.0154
2990.00,0.0158
2989.00,0.0161
2988.00,0.0165
2987.00,0.0168
2986.00,0.0171
2985.00,0.0174
2984.00,0.0177
2983.00,0.0180
2982.00,0.0183
2981.00,0.0187
2980.00,0.0190
2979.00,0.0193
2978.00,0.0197
2977.00,0.0200
2976.00,0.0204
2975.00,0.0207
2974.00,0.0210
2973.00,0.0214
2972.00,0.0218
2971.00,0.0222
2970.00,0.0226
2969.00,0.0230
2968.00,0.0234
2967.00,0.0239
2966.00,0.0244
2965.00,0.0248
2964.00,0.0253
2963.00,0.0257
2962.00,0.0261
2961.00,0.0265
2960.00,0.0268
2959.00,0.0271
2958.00,0.0274
2957.00,0.0276
2956.00,0.0277
2955.00,0.0279
2954.00,0.0279
2953.00,0.0279
2952.00,0.0279
2951.00,0.0279
2950.00,0.0278
2949.00,0.0277
2948.00,0.0276
2947.00,0.0276
2946.00,0.0275
2945.00,0.0275
2944.00,0.0275
2943.00,0.0275
2942.00,0.0276
2941.00,0.0278
2940.00,0.0280
2939.00,0.0282
2938.00,0.0285
2937.00,0.0288
2936.00,0.0292
2935.00,0.0295
2934.00,0.0299
2933.00,0.0303
2932.00,0.0306
2931.00,0.0310
2930.00,0.0313
2929.00,0.0317
2928.00,0.0320
2927.00,0.0322
2926.00,0.0324
2925.00,0.0325
2924.00,0.0326
2923.00,0.0327
2922.00,0.0327
2921.00,0.0326
2920.00,0.0325
2919.00,0.0323
2918.00,0.0320
2917.00,0.0317
2916.00,0.0314
2915.00,0.0310
2914.00,0.0305
2913.00,0.0301
2912.00,0.0297
2911.00,0.0293
2910.00,0.0288
2909.00,0.0284
2908.00,0.0280
2907.00,0.0276
2906.00,0.0272
2905.00,0.0269
2904.00,0.0266
2903.00,0.0263
2902.00,0.0260
2901.00,0.0258
2900.00,0.0256
2899.00,0.0255
2898.00,0.0254
2897.00,0.0252
2896.00,0.0251
2895.00,0.0250
2894.00,0.0249
2893.00,0.0248
2892.00,0.0247
2891.00,0.0246
2890.00,0.0245
2889.00,0.0244
2888.00,0.0243
2887.00,0.0243
2886.00,0.0242
2885.00,0.0241
2884.00,0.0241
2883.00,0.0240
2882.00,0.0240
2881.00,0.0240
2880.00,0.0239
2879.00,0.0239
2878.00,0.0239
2877.00,0.0239
2876.00,0.0239
2875.00,0.0239
2874.00,0.0239
2873.00,0.0239
2872.00,0.0239
2871.00,0.0239
2870.00,0.0239
2869.00,0.0238
2868.00,0.0238
2867.00,0.0237
2866.00,0.0236
2865.00,0.0235
2864.00,0.0235
2863.00,0.0236
2862.00,0.0236
2861.00,0.0237
2860.00,0.0237
2859.00,0.0238
2858.00,0.0238
2857.00,0.0238
2856.00,0.0236
2855.00,0.0234
2854.00,0.0232
2853.00,0.0228
2852.00,0.0224
2851.00,0.0218
2850.00,0.0212
2849.00,0.0206
2848.00,0.0200
2847.00,0.0194
2846.00,0.0188
2845.00,0.0182
2844.00,0.0176
2843.00,0.0171
2842.00,0.0167
2841.00,0.0162
2840.00,0.0158
2839.00,0.0155
2838.00,0.0153
2837.00,0.0151
2836.00,0.0149
2835.00,0.0148
2834.00,0.0147
2833.00,0.0145
2832.00,0.0144
2831.00,0.0142
2830.00,0.0141
2829.00,0.0138
2828.00,0.0136
2827.00,0.0133
2826.00,0.0130
2825.00,0.0127
2824.00,0.0124
2823.00,0.0120
2822.00,0.0117
2821.00,0.0115
2820.00,0.0112
2819.00,0.0109
2818.00,0.0107
2817.00,0.0105
2816.00,0.0103
2815.00,0.0101
2814.00,0.0100
2813.00,0.0098
2812.00,0.0097
2811.00,0.0095
2810.00,0.0094
2809.00,0.0094
2808.00,0.0093
2807.00,0.0092
2806.00,0.0091
2805.00,0.0091
2804.00,0.0090
2803.00,0.0090
2802.00,0.0089
2801.00,0.0088
2800.00,0.0087
2799.00,0.0087
2798.00,0.0087
2797.00,0.0086
2796.00,0.0086
2795.00,0.0086
2794.00,0.0085
2793.00,0.0085
2792.00,0.0084
2791.00,0.0084
2790.00,0.0083
2789.00,0.0083
2788.00,0.0083
2787.00,0.0083
2786.00,0.0083
2785.00,0.0082
2784.00,0.0082
2783.00,0.0081
2782.00,0.0081
2781.00,0.0081
2780.00,0.0081
2779.00,0.0081
2778.00,0.0080
2777.00,0.0080
2776.00,0.0080
2775.00,0.0079
2774.00,0.0079
2773.00,0.0079
2772.00,0.0079
2771.00,0.0078
2770.00,0.0078
2769.00,0.0078
2768.00,0.0077
2767.00,0.0077
2766.00,0.0077
2765.00,0.0077
2764.00,0.0077
2763.00,0.0077
2762.00,0.0077
2761.00,0.0077
2760.00,0.0077
2759.00,0.0077
2758.00,0.0077
2757.00,0.0077
2756.00,0.0077
2755.00,0.0077
2754.00,0.0077
2753.00,0.0077
2752.00,0.0077
2751.00,0.0077
2750.00,0.0077
2749.00,0.0076
2748.00,0.0076
2747.00,0.0076
2746.00,0.0077
2745.00,0.0077
2744.00,0.0077
2743.00,0.0077
2742.00,0.0077
2741.00,0.0077
2740.00,0.0077
2739.00,0.0077
2738.00,0.0077
2737.00,0.0077
2736.00,0.0077
2735.00,0.0077
2734.00,0.0077
2733.00,0.0077
2732.00,0.0078
2731.00,0.0078
2730.00,0.0078
2729.00,0.0078
2728.00,0.0078
2727.00,0.0078
2726.00,0.0078
2725.00,0.0078
2724.00,0.0077
2723.00,0.0077
2722.00,0.0077
2721.00,0.0077
2720.00,0.0077
2719.00,0.0077
2718.00,0.0077
2717.00,0.0077
2716.00,0.0077
2715.00,0.0076
2714.00,0.0076
2713.00,0.0076
2712.00,0.0076
2711.00,0.0075
2710.00,0.0075
2709.00,0.0075
2708.00,0.0075
2707.00,0.0075
2706.00,0.0075
2705.00,0.0075
2704.00,0.0074
2703.00,0.0074
2702.00,0.0074
2701.00,0.0074
2700.00,0.0074
2699.00,0.0074
2698.00,0.0074
2697.00,0.0074
2696.00,0.0073
2695.00,0.0073
2694.00,0.0073
2693.00,0.0073
2692.00,0.0074
2691.00,0.0074
2690.00,0.0074
2689.00,0.0074
2688.00,0.0073
2687.00,0.0073
2686.00,0.0073
2685.00,0.0073
2684.00,0.0073
2683.00,0.0073
2682.00,0.0073
2681.00,0.0073
2680.00,0.0073
2679.00,0.0073
2678.00,0.0073
2677.00,0.0072
2676.00,0.0072
2675.00,0.0072
2674.00,0.0072
2673.00,0.0072
2672.00,0.0072
2671.00,0.0072
2670.00,0.0072
2669.00,0.0072
2668.00,0.0072
2667.00,0.0072
2666.00,0.0073
2665.00,0.0073
2664.00,0.0074
2663.00,0.0074
2662.00,0.0074
2661.00,0.0075
2660.00,0.0075
2659.00,0.0075
2658.00,0.0075
2657.00,0.0075
2656.00,0.0075
2655.00,0.0075
2654.00,0.0075
2653.00,0.0074
2652.00,0.0074
2651.00,0.0074
2650.00,0.0074
2649.00,0.0074
2648.00,0.0074
2647.00,0.0074
2646.00,0.0074
2645.00,0.0074
2644.00,0.0074
2643.00,0.0074
2642.00,0.0074
2641.00,0.0073
2640.00,0.0073
2639.00,0.0073
2638.00,0.0073
2637.00,0.0073
2636.00,0.0073
2635.00,0.0073
2634.00,0.0072
2633.00,0.0072
2632.00,0.0072
2631.00,0.0072
2630.00,0.0072
2629.00,0.0071
2628.00,0.0071
2627.00,0.0071
2626.00,0.0071
2625.00,0.0071
2624.00,0.0071
2623.00,0.0071
2622.00,0.0070
2621.00,0.0070
2620.00,0.0070
2619.00,0.0069
2618.00,0.0069
2617.00,0.0069
2616.00,0.0069
2615.00,0.0069
2614.00,0.0069
2613.00,0.0068
2612.00,0.0068
2611.00,0.0068
2610.00,0.0068
2609.00,0.0067
2608.00,0.0067
2607.00,0.0067
2606.00,0.0067
2605.00,0.0067
2604.00,0.0067
2603.00,0.0067
2602.00,0.0067
2601.00,0.0067
2600.00,0.0067
2599.00,0.0067
2598.00,0.0066
2597.00,0.0066
2596.00,0.0066
2595.00,0.0066
2594.00,0.0066
2593.00,0.0065
2592.00,0.0065
2591.00,0.0065
2590.00,0.0065
2589.00,0.0065
2588.00,0.0066
2587.00,0.0066
2586.00,0.0065
2585.00,0.0065
2584.00,0.0065
2583.00,0.0065
2582.00,0.0065
2581.00,0.0065
2580.00,0.0065
2579.00,0.0065
2578.00,0.0064
2577.00,0.0064
2576.00,0.0064
2575.00,0.0063
2574.00,0.0063
2573.00,0.0064
2572.00,0.0064
2571.00,0.0064
2570.00,0.0064
2569.00,0.0063
2568.00,0.0063
2567.00,0.0063
2566.00,0.0063
2565.00,0.0063
2564.00,0.0063
2563.00,0.0063
2562.00,0.0063
2561.00,0.0063
2560.00,0.0062
2559.00,0.0062
2558.00,0.0061
2557.00,0.0061
2556.00,0.0061
2555.00,0.0061
2554.00,0.0061
2553.00,0.0061
2552.00,0.0061
2551.00,0.0061
2550.00,0.0061
2549.00,0.0061
2548.00,0.0061
2547.00,0.0061
2546.00,0.0060
2545.00,0.0060
2544.00,0.0060
2543.00,0.0060
2542.00,0.0059
2541.00,0.0059
2540.00,0.0059
2539.00,0.0059
2538.00,0.0059
2537.00,0.0058
2536.00,0.0058
2535.00,0.0058
2534.00,0.0058
2533.00,0.0058
2532.00,0.0058
2531.00,0.0058
2530.00,0.0058
2529.00,0.0058
2528.00,0.0058
2527.00,0.0058
2526.00,0.0057
2525.00,0.0057
2524.00,0.0057
2523.00,0.0057
2522.00,0.0057
2521.00,0.0057
2520.00,0.0057
2519.00,0.0056
2518.00,0.0056
2517.00,0.0056
2516.00,0.0056
2515.00,0.0056
2514.00,0.0056
2513.00,0.0056
2512.00,0.0056
2511.00,0.0056
2510.00,0.0056
2509.00,0.0056
2508.00,0.0056
2507.00,0.0056
2506.00,0.0056
2505.00,0.0056
2504.00,0.0056
2503.00,0.0056
2502.00,0.0056
2501.00,0.0055
2500.00,0.0055
2499.00,0.0055
2498.00,0.0055
2497.00,0.0055
2496.00,0.0055
2495.00,0.0055
2494.00,0.0055
2493.00,0.0055
2492.00,0.0055
2491.00,0.0055
2490.00,0.0055
2489.00,0.0055
2488.00,0.0055
2487.00,0.0054
2486.00,0.0054
2485.00,0.0054
2484.00,0.0054
2483.00,0.0054
2482.00,0.0054
2481.00,0.0054
2480.00,0.0054
2479.00,0.0054
2478.00,0.0054
2477.00,0.0053
2476.00,0.0053
2475.00,0.0052
2474.00,0.0052
2473.00,0.0052
2472.00,0.0053
2471.00,0.0053
2470.00,0.0053
2469.00,0.0053
2468.00,0.0052
2467.00,0.0052
2466.00,0.0052
2465.00,0.0052
2464.00,0.0053
2463.00,0.0053
2462.00,0.0053
2461.00,0.0053
2460.00,0.0053
2459.00,0.0054
2458.00,0.0054
2457.00,0.0054
2456.00,0.0055
2455.00,0.0054
2454.00,0.0054
2453.00,0.0054
2452.00,0.0053
2451.00,0.0053
2450.00,0.0053
2449.00,0.0053
2448.00,0.0053
2447.00,0.0053
2446.00,0.0053
2445.00,0.0052
2444.00,0.0052
2443.00,0.0053
2442.00,0.0053
2441.00,0.0053
2440.00,0.0052
2439.00,0.0052
2438.00,0.0052
2437.00,0.0051
2436.00,0.0051
2435.00,0.0051
2434.00,0.0051
2433.00,0.0051
2432.00,0.0051
2431.00,0.0050
2430.00,0.0050
2429.00,0.0050
2428.00,0.0050
2427.00,0.0050
2426.00,0.0050
2425.00,0.0050
2424.00,0.0050
2423.00,0.0050
2422.00,0.0050
2421.00,0.0050
2420.00,0.0050
2419.00,0.0051
2418.00,0.0050
2417.00,0.0050
2416.00,0.0050
2415.00,0.0050
2414.00,0.0050
2413.00,0.0050
2412.00,0.0050
2411.00,0.0051
2410.00,0.0051
2409.00,0.0050
2408.00,0.0049
2407.00,0.0049
2406.00,0.0048
2405.00,0.0048
2404.00,0.0048
2403.00,0.0048
2402.00,0.0048
2401.00,0.0049
2400.00,0.0049
2399.00,0.0049
2398.00,0.0049
2397.00,0.0049
2396.00,0.0048
2395.00,0.0048
2394.00,0.0048
2393.00,0.0048
2392.00,0.0048
2391.00,0.0048
2390.00,0.0048
2389.00,0.0047
2388.00,0.0047
2387.00,0.0046
2386.00,0.0046
2385.00,0.0045
2384.00,0.0044
2383.00,0.0043
2382.00,0.0042
2381.00,0.0042
2380.00,0.0041
2379.00,0.0041
2378.00,0.0040
2377.00,0.0040
2376.00,0.0040
2375.00,0.0040
2374.00,0.0040
2373.00,0.0040
2372.00,0.0040
2371.00,0.0040
2370.00,0.0039
2369.00,0.0039
2368.00,0.0040
2367.00,0.0040
2366.00,0.0041
2365.00,0.0041
2364.00,0.0042
2363.00,0.0042
2362.00,0.0042
2361.00,0.0042
2360.00,0.0041
2359.00,0.0041
2358.00,0.0042
2357.00,0.0043
2356.00,0.0043
2355.00,0.0044
2354.00,0.0044
2353.00,0.0043
2352.00,0.0043
2351.00,0.0043
2350.00,0.0043
2349.00,0.0044
2348.00,0.0044
2347.00,0.0045
2346.00,0.0045
2345.00,0.0045
2344.00,0.0045
2343.00,0.0045
2342.00,0.0046
2341.00,0.0046
2340.00,0.0047
2339.00,0.0047
2338.00,0.0047
2337.00,0.0047
2336.00,0.0048
2335.00,0.0048
2334.00,0.0047
2333.00,0.0047
2332.00,0.0046
2331.00,0.0046
2330.00,0.0047
2329.00,0.0049
2328.00,0.0053
2327.00,0.0057
2326.00,0.0060
2325.00,0.0061
2324.00,0.0060
2323.00,0.0057
2322.00,0.0055
2321.00,0.0053
2320.00,0.0052
2319.00,0.0052
2318.00,0.0052
2317.00,0.0052
2316.00,0.0051
2315.00,0.0051
2314.00,0.0050
2313.00,0.0050
2312.00,0.0049
2311.00,0.0049
2310.00,0.0049
2309.00,0.0049
2308.00,0.0049
2307.00,0.0049
2306.00,0.0050
2305.00,0.0050
2304.00,0.0050
2303.00,0.0051
2302.00,0.0051
2301.00,0.0051
2300.00,0.0052
2299.00,0.0053
2298.00,0.0053
2297.00,0.0055
2296.00,0.0056
2295.00,0.0057
2294.00,0.0057
2293.00,0.0058
2292.00,0.0058
2291.00,0.0059
2290.00,0.0060
2289.00,0.0061
2288.00,0.0062
2287.00,0.0063
2286.00,0.0062
2285.00,0.0062
2284.00,0.0061
2283.00,0.0060
2282.00,0.0059
2281.00,0.0058
2280.00,0.0058
2279.00,0.0058
2278.00,0.0057
2277.00,0.0057
2276.00,0.0057
2275.00,0.0057
2274.00,0.0056
2273.00,0.0056
2272.00,0.0056
2271.00,0.0056
2270.00,0.0056
2269.00,0.0055
2268.00,0.0055
2267.00,0.0054
2266.00,0.0054
2265.00,0.0053
2264.00,0.0054
2263.00,0.0054
2262.00,0.0055
2261.00,0.0056
2260.00,0.0057
2259.00,0.0057
2258.00,0.0055
2257.00,0.0054
2256.00,0.0052
2255.00,0.0051
2254.00,0.0050
2253.00,0.0050
2252.00,0.0051
2251.00,0.0051
2250.00,0.0052
2249.00,0.0052
2248.00,0.0052
2247.00,0.0052
2246.00,0.0052
2245.00,0.0052
2244.00,0.0052
2243.00,0.0052
2242.00,0.0052
2241.00,0.0052
2240.00,0.0052
2239.00,0.0052
2238.00,0.0052
2237.00,0.0052
2236.00,0.0052
2235.00,0.0052
2234.00,0.0052
2233.00,0.0052
2232.00,0.0053
2231.00,0.0053
2230.00,0.0053
2229.00,0.0053
2228.00,0.0054
2227.00,0.0054
2226.00,0.0053
2225.00,0.0054
2224.00,0.0054
2223.00,0.0054
2222.00,0.0054
2221.00,0.0053
2220.00,0.0053
2219.00,0.0052
2218.00,0.0051
2217.00,0.0050
2216.00,0.0050
2215.00,0.0050
2214.00,0.0051
2213.00,0.0051
2212.00,0.0052
2211.00,0.0052
2210.00,0.0052
2209.00,0.0053
2208.00,0.0054
2207.00,0.0054
2206.00,0.0054
2205.00,0.0054
2204.00,0.0054
2203.00,0.0054
2202.00,0.0053
2201.00,0.0053
2200.00,0.0053
2199.00,0.0053
2198.00,0.0053
2197.00,0.0053
2196.00,0.0053
2195.00,0.0054
2194.00,0.0055
2193.00,0.0056
2192.00,0.0058
2191.00,0.0059
2190.00,0.0060
2189.00,0.0060
2188.00,0.0059
2187.00,0.0059
2186.00,0.0058
2185.00,0.0056
2184.00,0.0053
2183.00,0.0051
2182.00,0.0049
2181.00,0.0050
2180.00,0.0052
2179.00,0.0052
2178.00,0.0050
2177.00,0.0047
2176.00,0.0045
2175.00,0.0045
2174.00,0.0047
2173.00,0.0050
2172.00,0.0055
2171.00,0.0058
2170.00,0.0061
2169.00,0.0062
2168.00,0.0063
2167.00,0.0062
2166.00,0.0062
2165.00,0.0063
2164.00,0.0065
2163.00,0.0064
2162.00,0.0058
2161.00,0.0045
2160.00,0.0030
2159.00,0.0018
2158.00,0.0012
2157.00,0.0012
2156.00,0.0017
2155.00,0.0021
2154.00,0.0024
2153.00,0.0027
2152.00,0.0029
2151.00,0.0030
2150.00,0.0029
2149.00,0.0029
2148.00,0.0030
2147.00,0.0031
2146.00,0.0033
2145.00,0.0034
2144.00,0.0034
2143.00,0.0033
2142.00,0.0032
2141.00,0.0032
2140.00,0.0033
2139.00,0.0033
2138.00,0.0032
2137.00,0.0030
2136.00,0.0028
2135.00,0.0026
2134.00,0.0026
2133.00,0.0027
2132.00,0.0030
2131.00,0.0032
2130.00,0.0035
2129.00,0.0036
2128.00,0.0037
2127.00,0.0037
2126.00,0.0038
2125.00,0.0038
2124.00,0.0039
2123.00,0.0040
2122.00,0.0041
2121.00,0.0042
2120.00,0.0043
2119.00,0.0044
2118.00,0.0045
2117.00,0.0046
2116.00,0.0047
2115.00,0.0048
2114.00,0.0048
2113.00,0.0049
2112.00,0.0049
2111.00,0.0048
2110.00,0.0048
2109.00,0.0048
2108.00,0.0048
2107.00,0.0048
2106.00,0.0049
2105.00,0.0049
2104.00,0.0050
2103.00,0.0050
2102.00,0.0049
2101.00,0.0049
2100.00,0.0048
2099.00,0.0048
2098.00,0.0046
2097.00,0.0045
2096.00,0.0043
2095.00,0.0041
2094.00,0.0040
2093.00,0.0041
2092.00,0.0043
2091.00,0.0044
2090.00,0.0046
2089.00,0.0046
2088.00,0.0047
2087.00,0.0048
2086.00,0.0049
2085.00,0.0050
2084.00,0.0051
2083.00,0.0052
2082.00,0.0051
2081.00,0.0051
2080.00,0.0050
2079.00,0.0049
2078.00,0.0049
2077.00,0.0049
2076.00,0.0049
2075.00,0.0048
2074.00,0.0047
2073.00,0.0046
2072.00,0.0046
2071.00,0.0046
2070.00,0.0046
2069.00,0.0046
2068.00,0.0045
2067.00,0.0045
2066.00,0.0044
2065.00,0.0044
2064.00,0.0044
2063.00,0.0044
2062.00,0.0044
2061.00,0.0044
2060.00,0.0046
2059.00,0.0047
2058.00,0.0047
2057.00,0.0047
2056.00,0.0046
2055.00,0.0047
2054.00,0.0049
2053.00,0.0054
2052.00,0.0058
2051.00,0.0058
2050.00,0.0055
2049.00,0.0050
2048.00,0.0047
2047.00,0.0046
2046.00,0.0046
2045.00,0.0046
2044.00,0.0048
2043.00,0.0048
2042.00,0.0048
2041.00,0.0048
2040.00,0.0048
2039.00,0.0049
2038.00,0.0048
2037.00,0.0048
2036.00,0.0047
2035.00,0.0044
2034.00,0.0040
2033.00,0.0037
2032.00,0.0035
2031.00,0.0035
2030.00,0.0036
2029.00,0.0037
2028.00,0.0038
2027.00,0.0038
2026.00,0.0037
2025.00,0.0037
2024.00,0.0039
2023.00,0.0039
2022.00,0.0039
2021.00,0.0038
2020.00,0.0038
2019.00,0.0037
2018.00,0.0036
2017.00,0.0036
2016.00,0.0037
2015.00,0.0038
2014.00,0.0038
2013.00,0.0039
2012.00,0.0040
2011.00,0.0040
2010.00,0.0039
2009.00,0.0037
2008.00,0.0035
2007.00,0.0033
2006.00,0.0030
2005.00,0.0030
2004.00,0.0032
2003.00,0.0033
2002.00,0.0034
2001.00,0.0035
2000.00,0.0037
1999.00,0.0038
1998.00,0.0040
1997.00,0.0041
1996.00,0.0042
1995.00,0.0042
1994.00,0.0041
1993.00,0.0041
1992.00,0.0042
1991.00,0.0042
1990.00,0.0042
1989.00,0.0043
1988.00,0.0044
1987.00,0.0045
1986.00,0.0046
1985.00,0.0049
1984.00,0.0052
1983.00,0.0055
1982.00,0.0057
1981.00,0.0057
1980.00,0.0054
1979.00,0.0048
1978.00,0.0041
1977.00,0.0035
1976.00,0.0032
1975.00,0.0031
1974.00,0.0030
1973.00,0.0030
1972.00,0.0031
1971.00,0.0032
1970.00,0.0031
1969.00,0.0031
1968.00,0.0032
1967.00,0.0032
1966.00,0.0032
1965.00,0.0032
1964.00,0.0033
1963.00,0.0033
1962.00,0.0031
1961.00,0.0030
1960.00,0.0028
1959.00,0.0027
1958.00,0.0027
1957.00,0.0028
1956.00,0.0030
1955.00,0.0032
1954.00,0.0032
1953.00,0.0032
1952.00,0.0033
1951.00,0.0034
1950.00,0.0033
1949.00,0.0033
1948.00,0.0034
1947.00,0.0034
1946.00,0.0033
1945.00,0.0033
1944.00,0.0034
1943.00,0.0034
1942.00,0.0033
1941.00,0.0033
1940.00,0.0033
1939.00,0.0033
1938.00,0.0033
1937.00,0.0032
1936.00,0.0032
1935.00,0.0032
1934.00,0.0032
1933.00,0.0032
1932.00,0.0033
1931.00,0.0033
1930.00,0.0033
1929.00,0.0034
1928.00,0.0034
1927.00,0.0034
1926.00,0.0034
1925.00,0.0035
1924.00,0.0036
1923.00,0.0036
1922.00,0.0036
1921.00,0.0036
1920.00,0.0036
1919.00,0.0036
1918.00,0.0036
1917.00,0.0036
1916.00,0.0036
1915.00,0.0037
1914.00,0.0037
1913.00,0.0037
1912.00,0.0038
1911.00,0.0038
1910.00,0.0038
1909.00,0.0038
1908.00,0.0038
1907.00,0.0038
1906.00,0.0037
1905.00,0.0037
1904.00,0.0038
1903.00,0.0038
1902.00,0.0038
1901.00,0.0037
1900.00,0.0037
1899.00,0.0037
1898.00,0.0037
1897.00,0.0037
1896.00,0.0037
1895.00,0.0037
1894.00,0.0037
1893.00,0.0037
1892.00,0.0038
1891.00,0.0038
1890.00,0.0038
1889.00,0.0038
1888.00,0.0039
1887.00,0.0039
1886.00,0.0039
1885.00,0.0039
1884.00,0.0038
1883.00,0.0038
1882.00,0.0037
1881.00,0.0037
1880.00,0.0038
1879.00,0.0038
1878.00,0.0038
1877.00,0.0038
1876.00,0.0038
1875.00,0.0038
1874.00,0.0037
1873.00,0.0037
1872.00,0.0037
1871.00,0.0038
1870.00,0.0038
1869.00,0.0038
1868.00,0.0038
1867.00,0.0038
1866.00,0.0038
1865.00,0.0038
1864.00,0.0038
1863.00,0.0038
1862.00,0.0038
1861.00,0.0039
1860.00,0.0039
1859.00,0.0039
1858.00,0.0038
1857.00,0.0038
1856.00,0.0038
1855.00,0.0038
1854.00,0.0038
1853.00,0.0039
1852.00,0.0039
1851.00,0.0039
1850.00,0.0039
1849.00,0.0039
1848.00,0.0039
1847.00,0.0039
1846.00,0.0039
1845.00,0.0039
1844.00,0.0039
1843.00,0.0039
1842.00,0.0039
1841.00,0.0039
1840.00,0.0039
1839.00,0.0039
1838.00,0.0038
1837.00,0.0038
1836.00,0.0039
1835.00,0.0039
1834.00,0.0039
1833.00,0.0039
1832.00,0.0040
1831.00,0.0040
1830.00,0.0040
1829.00,0.0039
1828.00,0.0040
1827.00,0.0040
1826.00,0.0040
1825.00,0.0039
1824.00,0.0039
1823.00,0.0039
1822.00,0.0039
1821.00,0.0039
1820.00,0.0038
1819.00,0.0038
1818.00,0.0036
1817.00,0.0036
1816.00,0.0036
1815.00,0.0037
1814.00,0.0038
1813.00,0.0038
1812.00,0.0039
1811.00,0.0039
1810.00,0.0039
1809.00,0.0039
1808.00,0.0039
1807.00,0.0039
1806.00,0.0039
1805.00,0.0040
1804.00,0.0040
1803.00,0.0040
1802.00,0.0040
1801.00,0.0039
1800.00,0.0040
1799.00,0.0040
1798.00,0.0040
1797.00,0.0040
1796.00,0.0040
1795.00,0.0040
1794.00,0.0040
1793.00,0.0040
1792.00,0.0041
1791.00,0.0041
1790.00,0.0040
1789.00,0.0040
1788.00,0.0041
1787.00,0.0041
1786.00,0.0041
1785.00,0.0041
1784.00,0.0041
1783.00,0.0042
1782.00,0.0042
1781.00,0.0042
1780.00,0.0041
1779.00,0.0041
1778.00,0.0041
1777.00,0.0041
1776.00,0.0041
1775.00,0.0042
1774.00,0.0042
1773.00,0.0043
1772.00,0.0043
1771.00,0.0043
1770.00,0.0043
1769.00,0.0043
1768.00,0.0044
1767.00,0.0044
1766.00,0.0043
1765.00,0.0043
1764.00,0.0044
1763.00,0.0045
1762.00,0.0044
1761.00,0.0044
1760.00,0.0045
1759.00,0.0046
1758.00,0.0046
1757.00,0.0046
1756.00,0.0046
1755.00,0.0046
1754.00,0.0046
1753.00,0.0047
1752.00,0.0048
1751.00,0.0048
1750.00,0.0048
1749.00,0.0048
1748.00,0.0048
1747.00,0.0048
1746.00,0.0049
1745.00,0.0049
1744.00,0.0050
1743.00,0.0050
1742.00,0.0049
1741.00,0.0049
1740.00,0.0050
1739.00,0.0050
1738.00,0.0050
1737.00,0.0050
1736.00,0.0052
1735.00,0.0054
1734.00,0.0054
1733.00,0.0054
1732.00,0.0056
1731.00,0.0057
1730.00,0.0057
1729.00,0.0057
1728.00,0.0059
1727.00,0.0060
1726.00,0.0061
1725.00,0.0062
1724.00,0.0064
1723.00,0.0065
1722.00,0.0066
1721.00,0.0067
1720.00,0.0069
1719.00,0.0072
1718.00,0.0074
1717.00,0.0076
1716.00,0.0080
1715.00,0.0083
1714.00,0.0086
1713.00,0.0089
1712.00,0.0094
1711.00,0.0100
1710.00,0.0104
1709.00,0.0110
1708.00,0.0118
1707.00,0.0127
1706.00,0.0137
1705.00,0.0148
1704.00,0.0160
1703.00,0.0171
1702.00,0.0183
1701.00,0.0206
1700.00,0.0238
1699.00,0.0267
1698.00,0.0289
1697.00,0.0315
1696.00,0.0353
1695.00,0.0395
1694.00,0.0430
1693.00,0.0460
1692.00,0.0491
1691.00,0.0525
1690.00,0.0563
1689.00,0.0600
1688.00,0.0634
1687.00,0.0662
1686.00,0.0690
1685.00,0.0729
1684.00,0.0780
1683.00,0.0825
1682.00,0.0852
1681.00,0.0873
1680.00,0.0892
1679.00,0.0910
1678.00,0.0926
1677.00,0.0940
1676.00,0.0960
1675.00,0.0984
1674.00,0.1005
1673.00,0.1021
1672.00,0.1034
1671.00,0.1048
1670.00,0.1069
1669.00,0.1094
1668.00,0.1118
1667.00,0.1136
1666.00,0.1149
1665.00,0.1160
1664.00,0.1176
1663.00,0.1196
1662.00,0.1218
1661.00,0.1236
1660.00,0.1250
1659.00,0.1259
1658.00,0.1265
1657.00,0.1267
1656.00,0.1266
1655.00,0.1262
1654.00,0.1262
1653.00,0.1270
1652.00,0.1278
1651.00,0.1273
1650.00,0.1258
1649.00,0.1237
1648.00,0.1212
1647.00,0.1186
1646.00,0.1160
1645.00,0.1134
1644.00,0.1105
1643.00,0.1074
1642.00,0.1039
1641.00,0.1001
1640.00,0.0964
1639.00,0.0927
1638.00,0.0890
1637.00,0.0849
1636.00,0.0804
1635.00,0.0764
1634.00,0.0731
1633.00,0.0703
1632.00,0.0678
1631.00,0.0653
1630.00,0.0630
1629.00,0.0609
1628.00,0.0590
1627.00,0.0575
1626.00,0.0561
1625.00,0.0549
1624.00,0.0538
1623.00,0.0529
1622.00,0.0522
1621.00,0.0514
1620.00,0.0506
1619.00,0.0497
1618.00,0.0487
1617.00,0.0476
1616.00,0.0464
1615.00,0.0452
1614.00,0.0439
1613.00,0.0424
1612.00,0.0408
1611.00,0.0391
1610.00,0.0375
1609.00,0.0360
1608.00,0.0345
1607.00,0.0333
1606.00,0.0323
1605.00,0.0314
1604.00,0.0308
1603.00,0.0304
1602.00,0.0303
1601.00,0.0305
1600.00,0.0308
1599.00,0.0313
1598.00,0.0320
1597.00,0.0326
1596.00,0.0333
1595.00,0.0339
1594.00,0.0343
1593.00,0.0346
1592.00,0.0346
1591.00,0.0345
1590.00,0.0343
1589.00,0.0339
1588.00,0.0334
1587.00,0.0328
1586.00,0.0322
1585.00,0.0314
1584.00,0.0306
1583.00,0.0297
1582.00,0.0287
1581.00,0.0277
1580.00,0.0267
1579.00,0.0258
1578.00,0.0249
1577.00,0.0239
1576.00,0.0228
1575.00,0.0219
1574.00,0.0211
1573.00,0.0205
1572.00,0.0199
1571.00,0.0192
1570.00,0.0186
1569.00,0.0181
1568.00,0.0177
1567.00,0.0173
1566.00,0.0170
1565.00,0.0166
1564.00,0.0162
1563.00,0.0158
1562.00,0.0154
1561.00,0.0151
1560.00,0.0149
1559.00,0.0145
1558.00,0.0144
1557.00,0.0143
1556.00,0.0143
1555.00,0.0142
1554.00,0.0141
1553.00,0.0140
1552.00,0.0139
1551.00,0.0138
1550.00,0.0137
1549.00,0.0136
1548.00,0.0135
1547.00,0.0134
1546.00,0.0133
1545.00,0.0132
1544.00,0.0131
1543.00,0.0131
1542.00,0.0131
1541.00,0.0131
1540.00,0.0131
1539.00,0.0130
1538.00,0.0131
1537.00,0.0130
1536.00,0.0130
1535.00,0.0130
1534.00,0.0130
1533.00,0.0129
1532.00,0.0129
1531.00,0.0129
1530.00,0.0129
1529.00,0.0129
1528.00,0.0130
1527.00,0.0130
1526.00,0.0130
1525.00,0.0130
1524.00,0.0131
1523.00,0.0131
1522.00,0.0132
1521.00,0.0132
1520.00,0.0132
1519.00,0.0133
1518.00,0.0134
1517.00,0.0134
1516.00,0.0135
1515.00,0.0135
1514.00,0.0135
1513.00,0.0136
1512.00,0.0137
1511.00,0.0139
1510.00,0.0141
1509.00,0.0143
1508.00,0.0147
1507.00,0.0154
1506.00,0.0164
1505.00,0.0174
1504.00,0.0182
1503.00,0.0191
1502.00,0.0201
1501.00,0.0212
1500.00,0.0225
1499.00,0.0239
1498.00,0.0254
1497.00,0.0270
1496.00,0.0282
1495.00,0.0290
1494.00,0.0293
1493.00,0.0293
1492.00,0.0289
1491.00,0.0281
1490.00,0.0270
1489.00,0.0256
1488.00,0.0242
1487.00,0.0228
1486.00,0.0215
1485.00,0.0204
1484.00,0.0194
1483.00,0.0186
1482.00,0.0180
1481.00,0.0176
1480.00,0.0174
1479.00,0.0174
1478.00,0.0176
1477.00,0.0180
1476.00,0.0187
1475.00,0.0195
1474.00,0.0208
1473.00,0.0227
1472.00,0.0251
1471.00,0.0277
1470.00,0.0302
1469.00,0.0328
1468.00,0.0355
1467.00,0.0384
1466.00,0.0418
1465.00,0.0455
1464.00,0.0490
1463.00,0.0514
1462.00,0.0528
1461.00,0.0535
1460.00,0.0535
1459.00,0.0528
1458.00,0.0514
1457.00,0.0496
1456.00,0.0478
1455.00,0.0465
1454.00,0.0455
1453.00,0.0449
1452.00,0.0446
1451.00,0.0447
1450.00,0.0453
1449.00,0.0465
1448.00,0.0483
1447.00,0.0505
1446.00,0.0527
1445.00,0.0550
1444.00,0.0574
1443.00,0.0599
1442.00,0.0623
1441.00,0.0646
1440.00,0.0666
1439.00,0.0683
1438.00,0.0700
1437.00,0.0722
1436.00,0.0744
1435.00,0.0762
1434.00,0.0775
1433.00,0.0787
1432.00,0.0801
1431.00,0.0818
1430.00,0.0837
1429.00,0.0857
1428.00,0.0876
1427.00,0.0890
1426.00,0.0903
1425.00,0.0915
1424.00,0.0925
1423.00,0.0928
1422.00,0.0923
1421.00,0.0907
1420.00,0.0879
1419.00,0.0835
1418.00,0.0785
1417.00,0.0735
1416.00,0.0685
1415.00,0.0635
1414.00,0.0587
1413.00,0.0544
1412.00,0.0504
1411.00,0.0469
1410.00,0.0440
1409.00,0.0415
1408.00,0.0395
1407.00,0.0378
1406.00,0.0363
1405.00,0.0351
1404.00,0.0341
1403.00,0.0332
1402.00,0.0326
1401.00,0.0320
1400.00,0.0316
1399.00,0.0312
1398.00,0.0310
1397.00,0.0308
1396.00,0.0306
1395.00,0.0305
1394.00,0.0305
1393.00,0.0307
1392.00,0.0308
1391.00,0.0309
1390.00,0.0312
1389.00,0.0315
1388.00,0.0320
1387.00,0.0327
1386.00,0.0334
1385.00,0.0342
1384.00,0.0351
1383.00,0.0360
1382.00,0.0372
1381.00,0.0384
1380.00,0.0395
1379.00,0.0407
1378.00,0.0418
1377.00,0.0427
1376.00,0.0433
1375.00,0.0437
1374.00,0.0437
1373.00,0.0433
1372.00,0.0428
1371.00,0.0421
1370.00,0.0413
1369.00,0.0405
1368.00,0.0396
1367.00,0.0387
1366.00,0.0378
1365.00,0.0368
1364.00,0.0358
1363.00,0.0347
1362.00,0.0336
1361.00,0.0327
1360.00,0.0318
1359.00,0.0310
1358.00,0.0304
1357.00,0.0298
1356.00,0.0293
1355.00,0.0287
1354.00,0.0283
1353.00,0.0278
1352.00,0.0274
1351.00,0.0270
1350.00,0.0266
1349.00,0.0263
1348.00,0.0260
1347.00,0.0257
1346.00,0.0254
1345.00,0.0253
1344.00,0.0251
1343.00,0.0249
1342.00,0.0249
1341.00,0.0249
1340.00,0.0249
1339.00,0.0249
1338.00,0.0250
1337.00,0.0251
1336.00,0.0252
1335.00,0.0254
1334.00,0.0256
1333.00,0.0259
1332.00,0.0262
1331.00,0.0266
1330.00,0.0271
1329.00,0.0278
1328.00,0.0285
1327.00,0.0294
1326.00,0.0305
1325.00,0.0316
1324.00,0.0328
1323.00,0.0341
1322.00,0.0353
1321.00,0.0365
1320.00,0.0376
1319.00,0.0384
1318.00,0.0390
1317.00,0.0393
1316.00,0.0393
1315.00,0.0390
1314.00,0.0385
1313.00,0.0379
1312.00,0.0371
1311.00,0.0364
1310.00,0.0357
1309.00,0.0351
1308.00,0.0347
1307.00,0.0344
1306.00,0.0344
1305.00,0.0346
1304.00,0.0352
1303.00,0.0361
1302.00,0.0374
1301.00,0.0392
1300.00,0.0415
1299.00,0.0445
1298.00,0.0481
1297.00,0.0523
1296.00,0.0570
1295.00,0.0620
1294.00,0.0672
1293.00,0.0723
1292.00,0.0772
1291.00,0.0815
1290.00,0.0852
1289.00,0.0881
1288.00,0.0901
1287.00,0.0913
1286.00,0.0914
1285.00,0.0908
1284.00,0.0894
1283.00,0.0875
1282.00,0.0853
1281.00,0.0832
1280.00,0.0814
1279.00,0.0801
1278.00,0.0793
1277.00,0.0791
1276.00,0.0793
1275.00,0.0797
1274.00,0.0803
1273.00,0.0807
1272.00,0.0807
1271.00,0.0803
1270.00,0.0794
1269.00,0.0780
1268.00,0.0761
1267.00,0.0739
1266.00,0.0714
1265.00,0.0688
1264.00,0.0662
1263.00,0.0637
1262.00,0.0615
1261.00,0.0596
1260.00,0.0581
1259.00,0.0569
1258.00,0.0561
1257.00,0.0556
1256.00,0.0553
1255.00,0.0551
1254.00,0.0549
1253.00,0.0547
1252.00,0.0545
1251.00,0.0542
1250.00,0.0538
1249.00,0.0533
1248.00,0.0528
1247.00,0.0522
1246.00,0.0515
1245.00,0.0508
1244.00,0.0500
1243.00,0.0492
1242.00,0.0485
1241.00,0.0478
1240.00,0.0472
1239.00,0.0467
1238.00,0.0464
1237.00,0.0461
1236.00,0.0460
1235.00,0.0459
1234.00,0.0459
1233.00,0.0460
1232.00,0.0460
1231.00,0.0461
1230.00,0.0461
1229.00,0.0461
1228.00,0.0461
1227.00,0.0460
1226.00,0.0460
1225.00,0.0459
1224.00,0.0457
1223.00,0.0454
1222.00,0.0451
1221.00,0.0448
1220.00,0.0445
1219.00,0.0441
1218.00,0.0437
1217.00,0.0432
1216.00,0.0427
1215.00,0.0421
1214.00,0.0415
1213.00,0.0408
1212.00,0.0401
1211.00,0.0394
1210.00,0.0387
1209.00,0.0380
1208.00,0.0374
1207.00,0.0368
1206.00,0.0364
1205.00,0.0360
1204.00,0.0357
1203.00,0.0353
1202.00,0.0349
1201.00,0.0344
1200.00,0.0339
1199.00,0.0333
1198.00,0.0328
1197.00,0.0324
1196.00,0.0319
1195.00,0.0316
1194.00,0.0314
1193.00,0.0312
1192.00,0.0310
1191.00,0.0309
1190.00,0.0308
1189.00,0.0307
1188.00,0.0306
1187.00,0.0304
1186.00,0.0302
1185.00,0.0300
1184.00,0.0298
1183.00,0.0297
1182.00,0.0296
1181.00,0.0296
1180.00,0.0298
1179.00,0.0300
1178.00,0.0305
1177.00,0.0310
1176.00,0.0317
1175.00,0.0324
1174.00,0.0331
1173.00,0.0337
1172.00,0.0341
1171.00,0.0343
1170.00,0.0343
1169.00,0.0341
1168.00,0.0337
1167.00,0.0331
1166.00,0.0325
1165.00,0.0318
1164.00,0.0311
1163.00,0.0304
1162.00,0.0299
1161.00,0.0295
1160.00,0.0294
1159.00,0.0295
1158.00,0.0298
1157.00,0.0304
1156.00,0.0310
1155.00,0.0316
1154.00,0.0320
1153.00,0.0322
1152.00,0.0319
1151.00,0.0313
1150.00,0.0305
1149.00,0.0294
1148.00,0.0283
1147.00,0.0271
1146.00,0.0260
1145.00,0.0250
1144.00,0.0241
1143.00,0.0233
1142.00,0.0227
1141.00,0.0223
1140.00,0.0219
1139.00,0.0215
1138.00,0.0213
1137.00,0.0212
1136.00,0.0210
1135.00,0.0208
1134.00,0.0206
1133.00,0.0203
1132.00,0.0200
1131.00,0.0198
1130.00,0.0195
1129.00,0.0194
1128.00,0.0192
1127.00,0.0191
1126.00,0.0190
1125.00,0.0189
1124.00,0.0189
1123.00,0.0190
1122.00,0.0190
1121.00,0.0191
1120.00,0.0191
1119.00,0.0191
1118.00,0.0191
1117.00,0.0192
1116.00,0.0192
1115.00,0.0193
1114.00,0.0194
1113.00,0.0195
1112.00,0.0196
1111.00,0.0196
1110.00,0.0196
1109.00,0.0197
1108.00,0.0197
1107.00,0.0197
1106.00,0.0197
1105.00,0.0197
1104.00,0.0198
1103.00,0.0199
1102.00,0.0200
1101.00,0.0202
1100.00,0.0204
1099.00,0.0205
1098.00,0.0206
1097.00,0.0207
1096.00,0.0207
1095.00,0.0206
1094.00,0.0205
1093.00,0.0204
1092.00,0.0202
1091.00,0.0200
1090.00,0.0198
1089.00,0.0196
1088.00,0.0195
1087.00,0.0194
1086.00,0.0194
1085.00,0.0195
1084.00,0.0196
1083.00,0.0198
1082.00,0.0200
1081.00,0.0203
1080.00,0.0206
1079.00,0.0209
1078.00,0.0213
1077.00,0.0215
1076.00,0.0216
1075.00,0.0215
1074.00,0.0214
1073.00,0.0212
1072.00,0.0209
1071.00,0.0206
1070.00,0.0203
1069.00,0.0201
1068.00,0.0199
1067.00,0.0198
1066.00,0.0199
1065.00,0.0201
1064.00,0.0205
1063.00,0.0211
1062.00,0.0221
1061.00,0.0235
1060.00,0.0252
1059.00,0.0271
1058.00,0.0290
1057.00,0.0306
1056.00,0.0315
1055.00,0.0317
1054.00,0.0311
1053.00,0.0298
1052.00,0.0282
1051.00,0.0266
1050.00,0.0250
1049.00,0.0238
1048.00,0.0228
1047.00,0.0223
1046.00,0.0221
1045.00,0.0222
1044.00,0.0225
1043.00,0.0230
1042.00,0.0238
1041.00,0.0249
1040.00,0.0261
1039.00,0.0277
1038.00,0.0295
1037.00,0.0316
1036.00,0.0338
1035.00,0.0360
1034.00,0.0380
1033.00,0.0397
1032.00,0.0408
1031.00,0.0413
1030.00,0.0411
1029.00,0.0404
1028.00,0.0393
1027.00,0.0378
1026.00,0.0363
1025.00,0.0349
1024.00,0.0336
1023.00,0.0326
1022.00,0.0319
1021.00,0.0315
1020.00,0.0311
1019.00,0.0307
1018.00,0.0302
1017.00,0.0297
1016.00,0.0289
1015.00,0.0280
1014.00,0.0271
1013.00,0.0261
1012.00,0.0251
1011.00,0.0243
1010.00,0.0238
1009.00,0.0234
1008.00,0.0232
1007.00,0.0232
1006.00,0.0233
1005.00,0.0234
1004.00,0.0235
1003.00,0.0236
1002.00,0.0236
1001.00,0.0235
1000.00,0.0232
999.00,0.0229
998.00,0.0224
997.00,0.0219
996.00,0.0214
995.00,0.0210
994.00,0.0207
993.00,0.0204
992.00,0.0202
991.00,0.0201
990.00,0.0201
989.00,0.0201
988.00,0.0200
987.00,0.0199
986.00,0.0197
985.00,0.0195
984.00,0.0192
983.00,0.0189
982.00,0.0186
981.00,0.0183
980.00,0.0180
979.00,0.0178
978.00,0.0177
977.00,0.0176
976.00,0.0175
975.00,0.0174
974.00,0.0173
973.00,0.0173
972.00,0.0172
971.00,0.0172
970.00,0.0171
969.00,0.0171
968.00,0.0171
967.00,0.0171
966.00,0.0171
965.00,0.0171
964.00,0.0170
963.00,0.0169
962.00,0.0168
961.00,0.0166
960.00,0.0164
959.00,0.0162
958.00,0.0159
957.00,0.0156
956.00,0.0153
955.00,0.0150
954.00,0.0147
953.00,0.0145
952.00,0.0142
951.00,0.0140
950.00,0.0139
949.00,0.0138
948.00,0.0137
947.00,0.0136
946.00,0.0136
945.00,0.0137
944.00,0.0138
943.00,0.0139
942.00,0.0141
941.00,0.0145
940.00,0.0149
939.00,0.0154
938.00,0.0159
937.00,0.0165
936.00,0.0171
935.00,0.0176
934.00,0.0180
933.00,0.0182
932.00,0.0183
931.00,0.0181
930.00,0.0178
929.00,0.0175
928.00,0.0172
927.00,0.0169
926.00,0.0167
925.00,0.0165
924.00,0.0163
923.00,0.0162
922.00,0.0161
921.00,0.0160
920.00,0.0161
919.00,0.0161
918.00,0.0162
917.00,0.0163
916.00,0.0164
915.00,0.0166
914.00,0.0167
913.00,0.0168
912.00,0.0170
911.00,0.0172
910.00,0.0175
909.00,0.0178
908.00,0.0182
907.00,0.0187
906.00,0.0192
905.00,0.0197
904.00,0.0203
903.00,0.0209
902.00,0.0215
901.00,0.0222
900.00,0.0227
899.00,0.0233
898.00,0.0237
897.00,0.0241
896.00,0.0243
895.00,0.0246
894.00,0.0248
893.00,0.0250
892.00,0.0252
891.00,0.0253
890.00,0.0254
889.00,0.0255
888.00,0.0257
887.00,0.0258
886.00,0.0259
885.00,0.0260
884.00,0.0260
883.00,0.0260
882.00,0.0259
881.00,0.0258
880.00,0.0256
879.00,0.0253
878.00,0.0250
877.00,0.0246
876.00,0.0242
875.00,0.0238
874.00,0.0234
873.00,0.0231
872.00,0.0227
871.00,0.0225
870.00,0.0224
869.00,0.0223
868.00,0.0223
867.00,0.0224
866.00,0.0226
865.00,0.0229
864.00,0.0232
863.00,0.0235
862.00,0.0240
861.00,0.0245
860.00,0.0251
859.00,0.0258
858.00,0.0266
857.00,0.0273
856.00,0.0281
855.00,0.0290
854.00,0.0298
853.00,0.0306
852.00,0.0313
851.00,0.0319
850.00,0.0324
849.00,0.0329
848.00,0.0334
847.00,0.0337
846.00,0.0339
845.00,0.0340
844.00,0.0341
843.00,0.0340
842.00,0.0339
841.00,0.0338
840.00,0.0338
839.00,0.0337
838.00,0.0336
837.00,0.0336
836.00,0.0335
835.00,0.0335
834.00,0.0336
833.00,0.0336
832.00,0.0336
831.00,0.0334
830.00,0.0332
829.00,0.0329
828.00,0.0324
827.00,0.0318
826.00,0.0311
825.00,0.0303
824.00,0.0295
823.00,0.0287
822.00,0.0279
821.00,0.0271
820.00,0.0264
819.00,0.0257
818.00,0.0251
817.00,0.0245
816.00,0.0241
815.00,0.0238
814.00,0.0235
813.00,0.0233
812.00,0.0232
811.00,0.0231
810.00,0.0231
809.00,0.0231
808.00,0.0232
807.00,0.0233
806.00,0.0234
805.00,0.0234
804.00,0.0233
803.00,0.0231
802.00,0.0228
801.00,0.0225
800.00,0.0222
799.00,0.0221
798.00,0.0221
797.00,0.0222
796.00,0.0223
795.00,0.0224
794.00,0.0225
793.00,0.0226
792.00,0.0226
791.00,0.0225
790.00,0.0225
789.00,0.0224
788.00,0.0222
787.00,0.0221
786.00,0.0219
785.00,0.0218
784.00,0.0218
783.00,0.0219
782.00,0.0220
781.00,0.0222
780.00,0.0225
779.00,0.0227
778.00,0.0231
777.00,0.0234
776.00,0.0238
775.00,0.0241
774.00,0.0244
773.00,0.0246
772.00,0.0248
771.00,0.0249
770.00,0.0250
769.00,0.0252
768.00,0.0253
767.00,0.0255
766.00,0.0257
765.00,0.0259
764.00,0.0262
763.00,0.0265
762.00,0.0269
761.00,0.0272
760.00,0.0277
759.00,0.0282
758.00,0.0286
757.00,0.0291
756.00,0.0294
755.00,0.0296
754.00,0.0298
753.00,0.0299
752.00,0.0299
751.00,0.0301
750.00,0.0302
749.00,0.0305
748.00,0.0308
747.00,0.0312
746.00,0.0316
745.00,0.0320
744.00,0.0325
743.00,0.0329
742.00,0.0333
741.00,0.0337
740.00,0.0342
739.00,0.0348
738.00,0.0353
737.00,0.0358
736.00,0.0362
735.00,0.0364
734.00,0.0366
733.00,0.0367
732.00,0.0366
731.00,0.0363
730.00,0.0359
729.00,0.0353
728.00,0.0346
727.00,0.0340
726.00,0.0334
725.00,0.0328
724.00,0.0322
723.00,0.0317
722.00,0.0312
721.00,0.0307
720.00,0.0303
719.00,0.0300
718.00,0.0298
717.00,0.0297
716.00,0.0295
715.00,0.0294
714.00,0.0293
713.00,0.0293
712.00,0.0293
711.00,0.0293
710.00,0.0293
709.00,0.0293
708.00,0.0293
707.00,0.0293
706.00,0.0293
705.00,0.0294
704.00,0.0295
703.00,0.0297
702.00,0.0298
701.00,0.0299
700.00,0.0300
699.00,0.0302
698.00,0.0304
697.00,0.0306
696.00,0.0308
695.00,0.0311
694.00,0.0313
693.00,0.0316
692.00,0.0318
691.00,0.0321
690.00,0.0323
689.00,0.0327
688.00,0.0330
687.00,0.0335
686.00,0.0339
685.00,0.0343
684.00,0.0348
683.00,0.0352
682.00,0.0356
681.00,0.0361
680.00,0.0365
679.00,0.0369
678.00,0.0373
677.00,0.0377
676.00,0.0381
675.00,0.0385
674.00,0.0390
673.00,0.0394
672.00,0.0397
671.00,0.0400
670.00,0.0404
669.00,0.0409
668.00,0.0419
667.00,0.0429
666.00,0.0436
665.00,0.0441
664.00,0.0446
663.00,0.0452
662.00,0.0459
661.00,0.0466
660.00,0.0475
659.00,0.0484
658.00,0.0493
657.00,0.0502
656.00,0.0511
655.00,0.0519
654.00,0.0528
653.00,0.0535
652.00,0.0541
651.00,0.0547
650.00,0.0551
649.00,0.0553
648.00,0.0555
647.00,0.0554
646.00,0.0552
645.00,0.0548
644.00,0.0542
643.00,0.0536
642.00,0.0529
641.00,0.0522
640.00,0.0514
639.00,0.0507
638.00,0.0499
637.00,0.0491
636.00,0.0484
635.00,0.0477
634.00,0.0469
633.00,0.0462
632.00,0.0456
631.00,0.0450
630.00,0.0444
629.00,0.0440
628.00,0.0435
627.00,0.0432
626.00,0.0429
625.00,0.0426
624.00,0.0424
623.00,0.0422
622.00,0.0421
621.00,0.0420
620.00,0.0420
619.00,0.0420
618.00,0.0420
617.00,0.0420
616.00,0.0420
615.00,0.0420
614.00,0.0421
613.00,0.0424
612.00,0.0427
611.00,0.0431
610.00,0.0434
609.00,0.0434
608.00,0.0432
607.00,0.0431
606.00,0.0430
605.00,0.0431
604.00,0.0432
603.00,0.0434
602.00,0.0436
601.00,0.0437
600.00,0.0438
599.00,0.0440
598.00,0.0442
597.00,0.0445
596.00,0.0447
595.00,0.0450
594.00,0.0452
593.00,0.0455
592.00,0.0459
591.00,0.0462
590.00,0.0467
589.00,0.0472
588.00,0.0478
587.00,0.0485
586.00,0.0493
585.00,0.0502
584.00,0.0511
583.00,0.0522
582.00,0.0532
581.00,0.0542
580.00,0.0550
579.00,0.0556
578.00,0.0563
577.00,0.0568
576.00,0.0572
575.00,0.0574
574.00,0.0575
573.00,0.0574
572.00,0.0572
571.00,0.0569
570.00,0.0566
569.00,0.0563
568.00,0.0558
567.00,0.0552
566.00,0.0546
565.00,0.0541
564.00,0.0535
563.00,0.0530
562.00,0.0525
561.00,0.0521
560.00,0.0518
559.00,0.0515
558.00,0.0514
557.00,0.0513
556.00,0.0512
555.00,0.0511
554.00,0.0511
553.00,0.0510
552.00,0.0510
551.00,0.0508
550.00,0.0505
549.00,0.0502
548.00,0.0500
547.00,0.0496
546.00,0.0492
545.00,0.0487
544.00,0.0483
543.00,0.0478
542.00,0.0475
541.00,0.0472
540.00,0.0470
539.00,0.0469
538.00,0.0469
537.00,0.0469
536.00,0.0468
535.00,0.0467
534.00,0.0467
533.00,0.0466
532.00,0.0466
531.00,0.0465
530.00,0.0464
529.00,0.0465
528.00,0.0468
527.00,0.0472
526.00,0.0477
525.00,0.0480
524.00,0.0482
523.00,0.0481
522.00,0.0480
521.00,0.0476
520.00,0.0471
519.00,0.0466
518.00,0.0463
517.00,0.0460
516.00,0.0458
515.00,0.0456
514.00,0.0453
513.00,0.0450
512.00,0.0446
511.00,0.0443
510.00,0.0440
509.00,0.0437
508.00,0.0435
507.00,0.0433
506.00,0.0432
505.00,0.0432
504.00,0.0433
503.00,0.0435
502.00,0.0438
501.00,0.0441
500.00,0.0442
499.00,0.0441
498.00,0.0439
497.00,0.0439
496.00,0.0440
495.00,0.0443
494.00,0.0446
493.00,0.0447
492.00,0.0446
491.00,0.0445
490.00,0.0446
489.00,0.0448
488.00,0.0450
487.00,0.0451
486.00,0.0453
485.00,0.0455
484.00,0.0456
483.00,0.0456
482.00,0.0457
481.00,0.0458
480.00,0.0459
479.00,0.0458
478.00,0.0457
477.00,0.0455
476.00,0.0454
475.00,0.0453
474.00,0.0455
473.00,0.0459
472.00,0.0463
471.00,0.0464
470.00,0.0463
469.00,0.0463
468.00,0.0464
467.00,0.0465
466.00,0.0465
465.00,0.0464
464.00,0.0461
463.00,0.0460
462.00,0.0458
461.00,0.0457
460.00,0.0454
459.00,0.0450
458.00,0.0447
457.00,0.0446
456.00,0.0445
455.00,0.0444
454.00,0.0441
453.00,0.0436
452.00,0.0431
451.00,0.0427
450.00,0.0427
449.00,0.0429
448.00,0.0431
447.00,0.0432
446.00,0.0433
445.00,0.0432
444.00,0.0430
443.00,0.0427
442.00,0.0424
441.00,0.0421
440.00,0.0418
439.00,0.0415
438.00,0.0413
437.00,0.0412
436.00,0.0411
435.00,0.0412
434.00,0.0414
433.00,0.0417
432.00,0.0417
431.00,0.0416
430.00,0.0416
429.00,0.0420
428.00,0.0425
427.00,0.0429
426.00,0.0430
425.00,0.0428
424.00,0.0423
423.00,0.0419
422.00,0.0416
421.00,0.0416
420.00,0.0420
419.00,0.0427
418.00,0.0431
417.00,0.0428
416.00,0.0421
415.00,0.0413
414.00,0.0409
413.00,0.0407
412.00,0.0407
411.00,0.0410
410.00,0.0416
409.00,0.0424
408.00,0.0429
407.00,0.0426
406.00,0.0418
405.00,0.0408
404.00,0.0403
403.00,0.0404
402.00,0.0410
401.00,0.0415
400.00,0.0418
