Created as New Dataset,Sample 123 By YargerLab Date Friday, August 15 2025
cm-1,A
4000.00,0.0050
3999.00,0.0050
3998.00,0.0049
3997.00,0.0049
3996.00,0.0049
3995.00,0.0049
3994.00,0.0049
3993.00,0.0049
3992.00,0.0049
3991.00,0.0049
3990.00,0.0050
3989.00,0.0050
3988.00,0.0050
3987.00,0.0050
3986.00,0.0050
3985.00,0.0050
3984.00,0.0050
3983.00,0.0050
3982.00,0.0050
3981.00,0.0050
3980.00,0.0049
3979.00,0.0049
3978.00,0.0049
3977.00,0.0049
3976.00,0.0049
3975.00,0.0049
3974.00,0.0049
3973.00,0.0049
3972.00,0.0049
3971.00,0.0049
3970.00,0.0049
3969.00,0.0049
3968.00,0.0049
3967.00,0.0049
3966.00,0.0049
3965.00,0.0049
3964.00,0.0050
3963.00,0.0050
3962.00,0.0050
3961.00,0.0050
3960.00,0.0049
3959.00,0.0049
3958.00,0.0050
3957.00,0.0050
3956.00,0.0050
3955.00,0.0050
3954.00,0.0050
3953.00,0.0050
3952.00,0.0050
3951.00,0.0049
3950.00,0.0049
3949.00,0.0049
3948.00,0.0049
3947.00,0.0049
3946.00,0.0049
3945.00,0.0049
3944.00,0.0049
3943.00,0.0049
3942.00,0.0049
3941.00,0.0049
3940.00,0.0049
3939.00,0.0049
3938.00,0.0049
3937.00,0.0049
3936.00,0.0049
3935.00,0.0049
3934.00,0.0049
3933.00,0.0049
3932.00,0.0049
3931.00,0.0048
3930.00,0.0048
3929.00,0.0049
3928.00,0.0049
3927.00,0.0049
3926.00,0.0049
3925.00,0.0049
3924.00,0.0049
3923.00,0.0049
3922.00,0.0049
3921.00,0.0049
3920.00,0.0049
3919.00,0.0049
3918.00,0.0049
3917.00,0.0049
3916.00,0.0049
3915.00,0.0049
3914.00,0.0049
3913.00,0.0049
3912.00,0.0049
3911.00,0.0049
3910.00,0.0049
3909.00,0.0050
3908.00,0.0050
3907.00,0.0050
3906.00,0.0050
3905.00,0.0050
3904.00,0.0050
3903.00,0.0050
3902.00,0.0050
3901.00,0.0049
3900.00,0.0049
3899.00,0.0049
3898.00,0.0049
3897.00,0.0049
3896.00,0.0049
3895.00,0.0049
3894.00,0.0049
3893.00,0.0049
3892.00,0.0049
3891.00,0.0050
3890.00,0.0050
3889.00,0.0051
3888.00,0.0050
3887.00,0.0050
3886.00,0.0049
3885.00,0.0049
3884.00,0.0049
3883.00,0.0049
3882.00,0.0049
3881.00,0.0048
3880.00,0.0048
3879.00,0.0049
3878.00,0.0049
3877.00,0.0049
3876.00,0.0048
3875.00,0.0048
3874.00,0.0049
3873.00,0.0049
3872.00,0.0050
3871.00,0.0049
3870.00,0.0049
3869.00,0.0050
3868.00,0.0050
3867.00,0.0050
3866.00,0.0049
3865.00,0.0048
3864.00,0.0048
3863.00,0.0048
3862.00,0.0049
3861.00,0.0049
3860.00,0.0049
3859.00,0.0050
3858.00,0.0050
3857.00,0.0051
3856.00,0.0051
3855.00,0.0050
3854.00,0.0050
3853.00,0.0050
3852.00,0.0050
3851.00,0.0049
3850.00,0.0049
3849.00,0.0049
3848.00,0.0049
3847.00,0.0049
3846.00,0.0049
3845.00,0.0049
3844.00,0.0049
3843.00,0.0049
3842.00,0.0050
3841.00,0.0050
3840.00,0.0050
3839.00,0.0050
3838.00,0.0050
3837.00,0.0050
3836.00,0.0050
3835.00,0.0050
3834.00,0.0049
3833.00,0.0049
3832.00,0.0049
3831.00,0.0049
3830.00,0.0049
3829.00,0.0049
3828.00,0.0049
3827.00,0.0049
3826.00,0.0050
3825.00,0.0050
3824.00,0.0050
3823.00,0.0050
3822.00,0.0050
3821.00,0.0050
3820.00,0.0050
3819.00,0.0050
3818.00,0.0050
3817.00,0.0049
3816.00,0.0050
3815.00,0.0050
3814.00,0.0050
3813.00,0.0050
3812.00,0.0049
3811.00,0.0050
3810.00,0.0050
3809.00,0.0050
3808.00,0.0050
3807.00,0.0050
3806.00,0.0051
3805.00,0.0051
3804.00,0.0050
3803.00,0.0050
3802.00,0.0050
3801.00,0.0050
3800.00,0.0050
3799.00,0.0050
3798.00,0.0049
3797.00,0.0049
3796.00,0.0048
3795.00,0.0049
3794.00,0.0049
3793.00,0.0048
3792.00,0.0048
3791.00,0.0048
3790.00,0.0049
3789.00,0.0049
3788.00,0.0049
3787.00,0.0049
3786.00,0.0049
3785.00,0.0049
3784.00,0.0049
3783.00,0.0050
3782.00,0.0050
3781.00,0.0049
3780.00,0.0049
3779.00,0.0049
3778.00,0.0049
3777.00,0.0049
3776.00,0.0049
3775.00,0.0049
3774.00,0.0049
3773.00,0.0049
3772.00,0.0049
3771.00,0.0049
3770.00,0.0049
3769.00,0.0049
3768.00,0.0049
3767.00,0.0049
3766.00,0.0049
3765.00,0.0049
3764.00,0.0049
3763.00,0.0049
3762.00,0.0049
3761.00,0.0049
3760.00,0.0050
3759.00,0.0050
3758.00,0.0050
3757.00,0.0051
3756.00,0.0051
3755.00,0.0051
3754.00,0.0051
3753.00,0.0051
3752.00,0.0051
3751.00,0.0051
3750.00,0.0051
3749.00,0.0051
3748.00,0.0051
3747.00,0.0051
3746.00,0.0050
3745.00,0.0049
3744.00,0.0049
3743.00,0.0049
3742.00,0.0049
3741.00,0.0048
3740.00,0.0048
3739.00,0.0048
3738.00,0.0049
3737.00,0.0049
3736.00,0.0049
3735.00,0.0049
3734.00,0.0049
3733.00,0.0048
3732.00,0.0048
3731.00,0.0048
3730.00,0.0048
3729.00,0.0048
3728.00,0.0048
3727.00,0.0048
3726.00,0.0048
3725.00,0.0048
3724.00,0.0048
3723.00,0.0048
3722.00,0.0048
3721.00,0.0048
3720.00,0.0048
3719.00,0.0048
3718.00,0.0048
3717.00,0.0048
3716.00,0.0049
3715.00,0.0049
3714.00,0.0049
3713.00,0.0049
3712.00,0.0049
3711.00,0.0049
3710.00,0.0049
3709.00,0.0049
3708.00,0.0048
3707.00,0.0048
3706.00,0.0049
3705.00,0.0049
3704.00,0.0049
3703.00,0.0048
3702.00,0.0048
3701.00,0.0048
3700.00,0.0048
3699.00,0.0048
3698.00,0.0048
3697.00,0.0049
3696.00,0.0049
3695.00,0.0050
3694.00,0.0051
3693.00,0.0052
3692.00,0.0052
3691.00,0.0052
3690.00,0.0052
3689.00,0.0052
3688.00,0.0052
3687.00,0.0053
3686.00,0.0053
3685.00,0.0054
3684.00,0.0054
3683.00,0.0055
3682.00,0.0055
3681.00,0.0056
3680.00,0.0056
3679.00,0.0057
3678.00,0.0057
3677.00,0.0057
3676.00,0.0057
3675.00,0.0057
3674.00,0.0058
3673.00,0.0058
3672.00,0.0058
3671.00,0.0058
3670.00,0.0058
3669.00,0.0058
3668.00,0.0058
3667.00,0.0058
3666.00,0.0058
3665.00,0.0058
3664.00,0.0059
3663.00,0.0060
3662.00,0.0060
3661.00,0.0061
3660.00,0.0062
3659.00,0.0062
3658.00,0.0062
3657.00,0.0063
3656.00,0.0063
3655.00,0.0064
3654.00,0.0064
3653.00,0.0064
3652.00,0.0064
3651.00,0.0065
3650.00,0.0065
3649.00,0.0065
3648.00,0.0066
3647.00,0.0066
3646.00,0.0067
3645.00,0.0068
3644.00,0.0068
3643.00,0.0069
3642.00,0.0070
3641.00,0.0071
3640.00,0.0072
3639.00,0.0072
3638.00,0.0073
3637.00,0.0073
3636.00,0.0074
3635.00,0.0075
3634.00,0.0076
3633.00,0.0077
3632.00,0.0078
3631.00,0.0079
3630.00,0.0079
3629.00,0.0080
3628.00,0.0081
3627.00,0.0081
3626.00,0.0082
3625.00,0.0082
3624.00,0.0083
3623.00,0.0084
3622.00,0.0085
3621.00,0.0086
3620.00,0.0087
3619.00,0.0088
3618.00,0.0089
3617.00,0.0090
3616.00,0.0091
3615.00,0.0092
3614.00,0.0092
3613.00,0.0093
3612.00,0.0094
3611.00,0.0095
3610.00,0.0096
3609.00,0.0097
3608.00,0.0098
3607.00,0.0099
3606.00,0.0100
3605.00,0.0101
3604.00,0.0101
3603.00,0.0102
3602.00,0.0103
3601.00,0.0104
3600.00,0.0105
3599.00,0.0106
3598.00,0.0107
3597.00,0.0108
3596.00,0.0110
3595.00,0.0111
3594.00,0.0112
3593.00,0.0113
3592.00,0.0115
3591.00,0.0116
3590.00,0.0117
3589.00,0.0118
3588.00,0.0120
3587.00,0.0121
3586.00,0.0122
3585.00,0.0123
3584.00,0.0124
3583.00,0.0125
3582.00,0.0126
3581.00,0.0127
3580.00,0.0128
3579.00,0.0130
3578.00,0.0131
3577.00,0.0132
3576.00,0.0134
3575.00,0.0135
3574.00,0.0136
3573.00,0.0137
3572.00,0.0139
3571.00,0.0140
3570.00,0.0141
3569.00,0.0143
3568.00,0.0144
3567.00,0.0145
3566.00,0.0147
3565.00,0.0148
3564.00,0.0150
3563.00,0.0151
3562.00,0.0152
3561.00,0.0154
3560.00,0.0155
3559.00,0.0156
3558.00,0.0157
3557.00,0.0158
3556.00,0.0159
3555.00,0.0161
3554.00,0.0162
3553.00,0.0164
3552.00,0.0165
3551.00,0.0166
3550.00,0.0167
3549.00,0.0168
3548.00,0.0170
3547.00,0.0171
3546.00,0.0172
3545.00,0.0174
3544.00,0.0175
3543.00,0.0175
3542.00,0.0176
3541.00,0.0177
3540.00,0.0179
3539.00,0.0180
3538.00,0.0181
3537.00,0.0182
3536.00,0.0183
3535.00,0.0184
3534.00,0.0186
3533.00,0.0187
3532.00,0.0188
3531.00,0.0189
3530.00,0.0190
3529.00,0.0191
3528.00,0.0192
3527.00,0.0193
3526.00,0.0194
3525.00,0.0195
3524.00,0.0196
3523.00,0.0197
3522.00,0.0198
3521.00,0.0199
3520.00,0.0200
3519.00,0.0200
3518.00,0.0202
3517.00,0.0203
3516.00,0.0204
3515.00,0.0205
3514.00,0.0206
3513.00,0.0208
3512.00,0.0208
3511.00,0.0209
3510.00,0.0210
3509.00,0.0211
3508.00,0.0212
3507.00,0.0213
3506.00,0.0214
3505.00,0.0215
3504.00,0.0216
3503.00,0.0217
3502.00,0.0217
3501.00,0.0218
3500.00,0.0219
3499.00,0.0220
3498.00,0.0221
3497.00,0.0222
3496.00,0.0222
3495.00,0.0223
3494.00,0.0224
3493.00,0.0224
3492.00,0.0225
3491.00,0.0226
3490.00,0.0227
3489.00,0.0228
3488.00,0.0229
3487.00,0.0230
3486.00,0.0230
3485.00,0.0231
3484.00,0.0232
3483.00,0.0233
3482.00,0.0234
3481.00,0.0235
3480.00,0.0236
3479.00,0.0237
3478.00,0.0237
3477.00,0.0238
3476.00,0.0239
3475.00,0.0239
3474.00,0.0240
3473.00,0.0241
3472.00,0.0241
3471.00,0.0242
3470.00,0.0243
3469.00,0.0244
3468.00,0.0245
3467.00,0.0245
3466.00,0.0246
3465.00,0.0246
3464.00,0.0247
3463.00,0.0247
3462.00,0.0248
3461.00,0.0249
3460.00,0.0249
3459.00,0.0250
3458.00,0.0250
3457.00,0.0251
3456.00,0.0251
3455.00,0.0251
3454.00,0.0252
3453.00,0.0253
3452.00,0.0254
3451.00,0.0254
3450.00,0.0255
3449.00,0.0256
3448.00,0.0256
3447.00,0.0257
3446.00,0.0257
3445.00,0.0258
3444.00,0.0258
3443.00,0.0259
3442.00,0.0260
3441.00,0.0260
3440.00,0.0261
3439.00,0.0261
3438.00,0.0262
3437.00,0.0262
3436.00,0.0263
3435.00,0.0263
3434.00,0.0263
3433.00,0.0264
3432.00,0.0264
3431.00,0.0265
3430.00,0.0266
3429.00,0.0266
3428.00,0.0267
3427.00,0.0267
3426.00,0.0268
3425.00,0.0268
3424.00,0.0269
3423.00,0.0269
3422.00,0.0270
3421.00,0.0270
3420.00,0.0270
3419.00,0.0271
3418.00,0.0271
3417.00,0.0271
3416.00,0.0272
3415.00,0.0272
3414.00,0.0273
3413.00,0.0274
3412.00,0.0274
3411.00,0.0275
3410.00,0.0275
3409.00,0.0276
3408.00,0.0276
3407.00,0.0276
3406.00,0.0277
3405.00,0.0277
3404.00,0.0278
3403.00,0.0278
3402.00,0.0278
3401.00,0.0279
3400.00,0.0280
3399.00,0.0280
3398.00,0.0280
3397.00,0.0281
3396.00,0.0281
3395.00,0.0281
3394.00,0.0281
3393.00,0.0281
3392.00,0.0282
3391.00,0.0282
3390.00,0.0283
3389.00,0.0284
3388.00,0.0284
3387.00,0.0285
3386.00,0.0285
3385.00,0.0285
3384.00,0.0286
3383.00,0.0286
3382.00,0.0287
3381.00,0.0287
3380.00,0.0287
3379.00,0.0288
3378.00,0.0288
3377.00,0.0288
3376.00,0.0288
3375.00,0.0288
3374.00,0.0289
3373.00,0.0289
3372.00,0.0288
3371.00,0.0288
3370.00,0.0287
3369.00,0.0287
3368.00,0.0288
3367.00,0.0289
3366.00,0.0290
3365.00,0.0291
3364.00,0.0291
3363.00,0.0292
3362.00,0.0292
3361.00,0.0293
3360.00,0.0293
3359.00,0.0294
3358.00,0.0294
3357.00,0.0295
3356.00,0.0295
3355.00,0.0295
3354.00,0.0295
3353.00,0.0294
3352.00,0.0294
3351.00,0.0294
3350.00,0.0294
3349.00,0.0295
3348.00,0.0296
3347.00,0.0297
3346.00,0.0297
3345.00,0.0297
3344.00,0.0297
3343.00,0.0297
3342.00,0.0297
3341.00,0.0297
3340.00,0.0297
3339.00,0.0297
3338.00,0.0297
3337.00,0.0298
3336.00,0.0300
3335.00,0.0301
3334.00,0.0302
3333.00,0.0302
3332.00,0.0302
3331.00,0.0302
3330.00,0.0302
3329.00,0.0302
3328.00,0.0302
3327.00,0.0301
3326.00,0.0301
3325.00,0.0302
3324.00,0.0303
3323.00,0.0304
3322.00,0.0305
3321.00,0.0305
3320.00,0.0306
3319.00,0.0306
3318.00,0.0307
3317.00,0.0307
3316.00,0.0307
3315.00,0.0307
3314.00,0.0307
3313.00,0.0307
3312.00,0.0306
3311.00,0.0305
3310.00,0.0304
3309.00,0.0303
3308.00,0.0302
3307.00,0.0302
3306.00,0.0302
3305.00,0.0304
3304.00,0.0305
3303.00,0.0308
3302.00,0.0309
3301.00,0.0310
3300.00,0.0310
3299.00,0.0310
3298.00,0.0309
3297.00,0.0309
3296.00,0.0308
3295.00,0.0308
3294.00,0.0308
3293.00,0.0308
3292.00,0.0309
3291.00,0.0310
3290.00,0.0312
3289.00,0.0313
3288.00,0.0313
3287.00,0.0314
3286.00,0.0314
3285.00,0.0314
3284.00,0.0314
3283.00,0.0314
3282.00,0.0314
3281.00,0.0314
3280.00,0.0314
3279.00,0.0313
3278.00,0.0313
3277.00,0.0312
3276.00,0.0311
3275.00,0.0310
3274.00,0.0310
3273.00,0.0309
3272.00,0.0309
3271.00,0.0309
3270.00,0.0309
3269.00,0.0310
3268.00,0.0311
3267.00,0.0311
3266.00,0.0312
3265.00,0.0312
3264.00,0.0312
3263.00,0.0311
3262.00,0.0311
3261.00,0.0311
3260.00,0.0311
3259.00,0.0310
3258.00,0.0310
3257.00,0.0309
3256.00,0.0309
3255.00,0.0309
3254.00,0.0309
3253.00,0.0309
3252.00,0.0309
3251.00,0.0308
3250.00,0.0307
3249.00,0.0307
3248.00,0.0306
3247.00,0.0306
3246.00,0.0306
3245.00,0.0306
3244.00,0.0306
3243.00,0.0306
3242.00,0.0306
3241.00,0.0306
3240.00,0.0306
3239.00,0.0306
3238.00,0.0305
3237.00,0.0304
3236.00,0.0303
3235.00,0.0302
3234.00,0.0302
3233.00,0.0301
3232.00,0.0301
3231.00,0.0301
3230.00,0.0301
3229.00,0.0301
3228.00,0.0300
3227.00,0.0300
3226.00,0.0300
3225.00,0.0299
3224.00,0.0299
3223.00,0.0298
3222.00,0.0297
3221.00,0.0296
3220.00,0.0296
3219.00,0.0295
3218.00,0.0295
3217.00,0.0294
3216.00,0.0294
3215.00,0.0294
3214.00,0.0293
3213.00,0.0293
3212.00,0.0292
3211.00,0.0292
3210.00,0.0292
3209.00,0.0291
3208.00,0.0290
3207.00,0.0290
3206.00,0.0289
3205.00,0.0289
3204.00,0.0289
3203.00,0.0288
3202.00,0.0288
3201.00,0.0288
3200.00,0.0288
3199.00,0.0288
3198.00,0.0287
3197.00,0.0287
3196.00,0.0286
3195.00,0.0286
3194.00,0.0285
3193.00,0.0284
3192.00,0.0283
3191.00,0.0282
3190.00,0.0282
3189.00,0.0281
3188.00,0.0280
3187.00,0.0280
3186.00,0.0279
3185.00,0.0278
3184.00,0.0277
3183.00,0.0277
3182.00,0.0276
3181.00,0.0275
3180.00,0.0274
3179.00,0.0273
3178.00,0.0273
3177.00,0.0272
3176.00,0.0271
3175.00,0.0270
3174.00,0.0269
3173.00,0.0268
3172.00,0.0267
3171.00,0.0267
3170.00,0.0266
3169.00,0.0265
3168.00,0.0265
3167.00,0.0264
3166.00,0.0263
3165.00,0.0261
3164.00,0.0261
3163.00,0.0260
3162.00,0.0259
3161.00,0.0258
3160.00,0.0257
3159.00,0.0256
3158.00,0.0255
3157.00,0.0254
3156.00,0.0253
3155.00,0.0252
3154.00,0.0251
3153.00,0.0250
3152.00,0.0249
3151.00,0.0248
3150.00,0.0248
3149.00,0.0247
3148.00,0.0246
3147.00,0.0245
3146.00,0.0244
3145.00,0.0243
3144.00,0.0242
3143.00,0.0241
3142.00,0.0241
3141.00,0.0240
3140.00,0.0239
3139.00,0.0239
3138.00,0.0238
3137.00,0.0237
3136.00,0.0236
3135.00,0.0236
3134.00,0.0235
3133.00,0.0235
3132.00,0.0234
3131.00,0.0234
3130.00,0.0233
3129.00,0.0232
3128.00,0.0231
3127.00,0.0231
3126.00,0.0230
3125.00,0.0229
3124.00,0.0228
3123.00,0.0228
3122.00,0.0227
3121.00,0.0226
3120.00,0.0225
3119.00,0.0224
3118.00,0.0223
3117.00,0.0223
3116.00,0.0222
3115.00,0.0221
3114.00,0.0220
3113.00,0.0219
3112.00,0.0218
3111.00,0.0217
3110.00,0.0216
3109.00,0.0215
3108.00,0.0214
3107.00,0.0214
3106.00,0.0213
3105.00,0.0212
3104.00,0.0210
3103.00,0.0209
3102.00,0.0208
3101.00,0.0207
3100.00,0.0206
3099.00,0.0205
3098.00,0.0204
3097.00,0.0204
3096.00,0.0203
3095.00,0.0202
3094.00,0.0201
3093.00,0.0199
3092.00,0.0198
3091.00,0.0197
3090.00,0.0197
3089.00,0.0196
3088.00,0.0195
3087.00,0.0194
3086.00,0.0193
3085.00,0.0192
3084.00,0.0191
3083.00,0.0191
3082.00,0.0190
3081.00,0.0189
3080.00,0.0188
3079.00,0.0188
3078.00,0.0187
3077.00,0.0186
3076.00,0.0185
3075.00,0.0184
3074.00,0.0184
3073.00,0.0183
3072.00,0.0182
3071.00,0.0182
3070.00,0.0181
3069.00,0.0180
3068.00,0.0180
3067.00,0.0179
3066.00,0.0179
3065.00,0.0178
3064.00,0.0177
3063.00,0.0177
3062.00,0.0176
3061.00,0.0176
3060.00,0.0176
3059.00,0.0175
3058.00,0.0174
3057.00,0.0174
3056.00,0.0173
3055.00,0.0173
3054.00,0.0172
3053.00,0.0172
3052.00,0.0171
3051.00,0.0171
3050.00,0.0170
3049.00,0.0170
3048.00,0.0169
3047.00,0.0169
3046.00,0.0168
3045.00,0.0167
3044.00,0.0167
3043.00,0.0166
3042.00,0.0166
3041.00,0.0165
3040.00,0.0165
3039.00,0.0164
3038.00,0.0164
3037.00,0.0164
3036.00,0.0163
3035.00,0.0163
3034.00,0.0163
3033.00,0.0163
3032.00,0.0162
3031.00,0.0162
3030.00,0.0162
3029.00,0.0162
3028.00,0.0162
3027.00,0.0162
3026.00,0.0162
3025.00,0.0162
3024.00,0.0161
3023.00,0.0162
3022.00,0.0162
3021.00,0.0162
3020.00,0.0162
3019.00,0.0162
3018.00,0.0162
3017.00,0.0162
3016.00,0.0162
3015.00,0.0162
3014.00,0.0163
3013.00,0.0164
3012.00,0.0165
3011.00,0.0166
3010.00,0.0167
3009.00,0.0169
3008.00,0.0170
3007.00,0.0172
3006.00,0.0174
3005.00,0.0176
3004.00,0.0178
3003.00,0.0181
3002.00,0.0184
3001.00,0.0188
3000.00,0.0191
2999.00,0.0195
2998.00,0.0199
2997.00,0.0204
2996.00,0.0209
2995.00,0.0213
2994.00,0.0219
2993.00,0.0224
2992.00,0.0230
2991.00,0.0235
2990.00,0.0241
2989.00,0.0246
2988.00,0.0252
2987.00,0.0257
2986.00,0.0261
2985.00,0.0265
2984.00,0.0269
2983.00,0.0272
2982.00,0.0275
2981.00,0.0279
2980.00,0.0284
2979.00,0.0289
2978.00,0.0293
2977.00,0.0298
2976.00,0.0303
2975.00,0.0307
2974.00,0.0312
2973.00,0.0317
2972.00,0.0322
2971.00,0.0328
2970.00,0.0335
2969.00,0.0341
2968.00,0.0349
2967.00,0.0356
2966.00,0.0363
2965.00,0.0370
2964.00,0.0376
2963.00,0.0383
2962.00,0.0389
2961.00,0.0394
2960.00,0.0399
2959.00,0.0403
2958.00,0.0406
2957.00,0.0408
2956.00,0.0410
2955.00,0.0410
2954.00,0.0411
2953.00,0.0410
2952.00,0.0409
2951.00,0.0407
2950.00,0.0405
2949.00,0.0403
2948.00,0.0401
2947.00,0.0399
2946.00,0.0398
2945.00,0.0397
2944.00,0.0396
2943.00,0.0397
2942.00,0.0398
2941.00,0.0400
2940.00,0.0403
2939.00,0.0407
2938.00,0.0411
2937.00,0.0416
2936.00,0.0421
2935.00,0.0427
2934.00,0.0432
2933.00,0.0438
2932.00,0.0444
2931.00,0.0449
2930.00,0.0454
2929.00,0.0459
2928.00,0.0463
2927.00,0.0467
2926.00,0.0470
2925.00,0.0472
2924.00,0.0473
2923.00,0.0474
2922.00,0.0475
2921.00,0.0474
2920.00,0.0473
2919.00,0.0471
2918.00,0.0468
2917.00,0.0465
2916.00,0.0461
2915.00,0.0456
2914.00,0.0451
2913.00,0.0446
2912.00,0.0440
2911.00,0.0434
2910.00,0.0428
2909.00,0.0422
2908.00,0.0416
2907.00,0.0410
2906.00,0.0404
2905.00,0.0399
2904.00,0.0394
2903.00,0.0390
2902.00,0.0386
2901.00,0.0383
2900.00,0.0380
2899.00,0.0378
2898.00,0.0375
2897.00,0.0373
2896.00,0.0372
2895.00,0.0370
2894.00,0.0368
2893.00,0.0367
2892.00,0.0365
2891.00,0.0363
2890.00,0.0361
2889.00,0.0359
2888.00,0.0357
2887.00,0.0355
2886.00,0.0353
2885.00,0.0351
2884.00,0.0350
2883.00,0.0349
2882.00,0.0348
2881.00,0.0348
2880.00,0.0347
2879.00,0.0347
2878.00,0.0347
2877.00,0.0347
2876.00,0.0347
2875.00,0.0347
2874.00,0.0347
2873.00,0.0348
2872.00,0.0348
2871.00,0.0348
2870.00,0.0348
2869.00,0.0347
2868.00,0.0346
2867.00,0.0345
2866.00,0.0345
2865.00,0.0345
2864.00,0.0345
2863.00,0.0346
2862.00,0.0347
2861.00,0.0348
2860.00,0.0350
2859.00,0.0351
2858.00,0.0352
2857.00,0.0352
2856.00,0.0350
2855.00,0.0347
2854.00,0.0343
2853.00,0.0338
2852.00,0.0332
2851.00,0.0325
2850.00,0.0317
2849.00,0.0309
2848.00,0.0301
2847.00,0.0294
2846.00,0.0287
2845.00,0.0279
2844.00,0.0272
2843.00,0.0265
2842.00,0.0257
2841.00,0.0250
2840.00,0.0243
2839.00,0.0237
2838.00,0.0232
2837.00,0.0227
2836.00,0.0223
2835.00,0.0218
2834.00,0.0214
2833.00,0.0210
2832.00,0.0206
2831.00,0.0203
2830.00,0.0199
2829.00,0.0195
2828.00,0.0192
2827.00,0.0188
2826.00,0.0184
2825.00,0.0180
2824.00,0.0177
2823.00,0.0173
2822.00,0.0170
2821.00,0.0167
2820.00,0.0164
2819.00,0.0161
2818.00,0.0158
2817.00,0.0156
2816.00,0.0154
2815.00,0.0151
2814.00,0.0149
2813.00,0.0147
2812.00,0.0145
2811.00,0.0144
2810.00,0.0142
2809.00,0.0141
2808.00,0.0140
2807.00,0.0139
2806.00,0.0138
2805.00,0.0137
2804.00,0.0136
2803.00,0.0135
2802.00,0.0133
2801.00,0.0132
2800.00,0.0131
2799.00,0.0130
2798.00,0.0129
2797.00,0.0128
2796.00,0.0128
2795.00,0.0127
2794.00,0.0127
2793.00,0.0126
2792.00,0.0125
2791.00,0.0125
2790.00,0.0124
2789.00,0.0124
2788.00,0.0123
2787.00,0.0123
2786.00,0.0122
2785.00,0.0122
2784.00,0.0122
2783.00,0.0121
2782.00,0.0121
2781.00,0.0120
2780.00,0.0120
2779.00,0.0119
2778.00,0.0119
2777.00,0.0119
2776.00,0.0118
2775.00,0.0117
2774.00,0.0117
2773.00,0.0117
2772.00,0.0116
2771.00,0.0116
2770.00,0.0116
2769.00,0.0115
2768.00,0.0115
2767.00,0.0115
2766.00,0.0114
2765.00,0.0114
2764.00,0.0114
2763.00,0.0114
2762.00,0.0114
2761.00,0.0114
2760.00,0.0114
2759.00,0.0114
2758.00,0.0114
2757.00,0.0114
2756.00,0.0114
2755.00,0.0114
2754.00,0.0113
2753.00,0.0114
2752.00,0.0114
2751.00,0.0114
2750.00,0.0114
2749.00,0.0114
2748.00,0.0114
2747.00,0.0114
2746.00,0.0114
2745.00,0.0114
2744.00,0.0114
2743.00,0.0115
2742.00,0.0115
2741.00,0.0115
2740.00,0.0115
2739.00,0.0115
2738.00,0.0115
2737.00,0.0115
2736.00,0.0115
2735.00,0.0115
2734.00,0.0116
2733.00,0.0116
2732.00,0.0116
2731.00,0.0116
2730.00,0.0116
2729.00,0.0116
2728.00,0.0116
2727.00,0.0116
2726.00,0.0116
2725.00,0.0116
2724.00,0.0116
2723.00,0.0116
2722.00,0.0115
2721.00,0.0115
2720.00,0.0115
2719.00,0.0115
2718.00,0.0115
2717.00,0.0115
2716.00,0.0115
2715.00,0.0114
2714.00,0.0114
2713.00,0.0114
2712.00,0.0114
2711.00,0.0113
2710.00,0.0113
2709.00,0.0113
2708.00,0.0112
2707.00,0.0112
2706.00,0.0112
2705.00,0.0112
2704.00,0.0112
2703.00,0.0112
2702.00,0.0112
2701.00,0.0112
2700.00,0.0111
2699.00,0.0111
2698.00,0.0111
2697.00,0.0111
2696.00,0.0111
2695.00,0.0110
2694.00,0.0110
2693.00,0.0110
2692.00,0.0110
2691.00,0.0110
2690.00,0.0110
2689.00,0.0109
2688.00,0.0109
2687.00,0.0109
2686.00,0.0109
2685.00,0.0108
2684.00,0.0108
2683.00,0.0108
2682.00,0.0108
2681.00,0.0107
2680.00,0.0107
2679.00,0.0107
2678.00,0.0107
2677.00,0.0106
2676.00,0.0106
2675.00,0.0106
2674.00,0.0106
2673.00,0.0106
2672.00,0.0106
2671.00,0.0105
2670.00,0.0105
2669.00,0.0105
2668.00,0.0105
2667.00,0.0105
2666.00,0.0105
2665.00,0.0105
2664.00,0.0105
2663.00,0.0106
2662.00,0.0106
2661.00,0.0106
2660.00,0.0106
2659.00,0.0106
2658.00,0.0106
2657.00,0.0105
2656.00,0.0105
2655.00,0.0105
2654.00,0.0105
2653.00,0.0105
2652.00,0.0104
2651.00,0.0104
2650.00,0.0104
2649.00,0.0103
2648.00,0.0103
2647.00,0.0102
2646.00,0.0102
2645.00,0.0102
2644.00,0.0102
2643.00,0.0102
2642.00,0.0102
2641.00,0.0101
2640.00,0.0101
2639.00,0.0101
2638.00,0.0100
2637.00,0.0100
2636.00,0.0100
2635.00,0.0099
2634.00,0.0099
2633.00,0.0099
2632.00,0.0098
2631.00,0.0098
2630.00,0.0098
2629.00,0.0097
2628.00,0.0097
2627.00,0.0097
2626.00,0.0097
2625.00,0.0096
2624.00,0.0096
2623.00,0.0095
2622.00,0.0095
2621.00,0.0095
2620.00,0.0095
2619.00,0.0094
2618.00,0.0094
2617.00,0.0094
2616.00,0.0094
2615.00,0.0094
2614.00,0.0093
2613.00,0.0093
2612.00,0.0092
2611.00,0.0092
2610.00,0.0092
2609.00,0.0092
2608.00,0.0092
2607.00,0.0092
2606.00,0.0092
2605.00,0.0092
2604.00,0.0092
2603.00,0.0092
2602.00,0.0091
2601.00,0.0091
2600.00,0.0091
2599.00,0.0091
2598.00,0.0091
2597.00,0.0091
2596.00,0.0091
2595.00,0.0091
2594.00,0.0091
2593.00,0.0091
2592.00,0.0091
2591.00,0.0091
2590.00,0.0091
2589.00,0.0090
2588.00,0.0090
2587.00,0.0090
2586.00,0.0090
2585.00,0.0090
2584.00,0.0090
2583.00,0.0090
2582.00,0.0090
2581.00,0.0090
2580.00,0.0090
2579.00,0.0090
2578.00,0.0089
2577.00,0.0089
2576.00,0.0089
2575.00,0.0089
2574.00,0.0089
2573.00,0.0088
2572.00,0.0088
2571.00,0.0088
2570.00,0.0088
2569.00,0.0088
2568.00,0.0088
2567.00,0.0088
2566.00,0.0087
2565.00,0.0087
2564.00,0.0087
2563.00,0.0087
2562.00,0.0087
2561.00,0.0086
2560.00,0.0086
2559.00,0.0086
2558.00,0.0086
2557.00,0.0086
2556.00,0.0086
2555.00,0.0086
2554.00,0.0086
2553.00,0.0086
2552.00,0.0085
2551.00,0.0085
2550.00,0.0084
2549.00,0.0084
2548.00,0.0084
2547.00,0.0084
2546.00,0.0084
2545.00,0.0084
2544.00,0.0084
2543.00,0.0084
2542.00,0.0084
2541.00,0.0084
2540.00,0.0083
2539.00,0.0083
2538.00,0.0083
2537.00,0.0083
2536.00,0.0083
2535.00,0.0083
2534.00,0.0083
2533.00,0.0083
2532.00,0.0082
2531.00,0.0082
2530.00,0.0082
2529.00,0.0081
2528.00,0.0081
2527.00,0.0081
2526.00,0.0081
2525.00,0.0081
2524.00,0.0080
2523.00,0.0080
2522.00,0.0080
2521.00,0.0080
2520.00,0.0080
2519.00,0.0080
2518.00,0.0080
2517.00,0.0080
2516.00,0.0080
2515.00,0.0080
2514.00,0.0080
2513.00,0.0080
2512.00,0.0079
2511.00,0.0079
2510.00,0.0079
2509.00,0.0079
2508.00,0.0079
2507.00,0.0079
2506.00,0.0078
2505.00,0.0078
2504.00,0.0078
2503.00,0.0078
2502.00,0.0078
2501.00,0.0078
2500.00,0.0078
2499.00,0.0078
2498.00,0.0078
2497.00,0.0078
2496.00,0.0078
2495.00,0.0077
2494.00,0.0077
2493.00,0.0077
2492.00,0.0077
2491.00,0.0077
2490.00,0.0077
2489.00,0.0077
2488.00,0.0076
2487.00,0.0076
2486.00,0.0076
2485.00,0.0077
2484.00,0.0077
2483.00,0.0077
2482.00,0.0077
2481.00,0.0076
2480.00,0.0076
2479.00,0.0076
2478.00,0.0075
2477.00,0.0075
2476.00,0.0075
2475.00,0.0075
2474.00,0.0075
2473.00,0.0075
2472.00,0.0075
2471.00,0.0075
2470.00,0.0075
2469.00,0.0075
2468.00,0.0075
2467.00,0.0075
2466.00,0.0075
2465.00,0.0075
2464.00,0.0075
2463.00,0.0075
2462.00,0.0075
2461.00,0.0075
2460.00,0.0075
2459.00,0.0076
2458.00,0.0075
2457.00,0.0075
2456.00,0.0075
2455.00,0.0075
2454.00,0.0075
2453.00,0.0075
2452.00,0.0075
2451.00,0.0075
2450.00,0.0075
2449.00,0.0074
2448.00,0.0074
2447.00,0.0074
2446.00,0.0074
2445.00,0.0074
2444.00,0.0074
2443.00,0.0074
2442.00,0.0074
2441.00,0.0074
2440.00,0.0074
2439.00,0.0074
2438.00,0.0073
2437.00,0.0072
2436.00,0.0072
2435.00,0.0072
2434.00,0.0073
2433.00,0.0073
2432.00,0.0073
2431.00,0.0073
2430.00,0.0073
2429.00,0.0073
2428.00,0.0073
2427.00,0.0073
2426.00,0.0073
2425.00,0.0073
2424.00,0.0073
2423.00,0.0073
2422.00,0.0072
2421.00,0.0072
2420.00,0.0072
2419.00,0.0073
2418.00,0.0073
2417.00,0.0073
2416.00,0.0073
2415.00,0.0072
2414.00,0.0073
2413.00,0.0073
2412.00,0.0074
2411.00,0.0074
2410.00,0.0074
2409.00,0.0074
2408.00,0.0073
2407.00,0.0073
2406.00,0.0073
2405.00,0.0073
2404.00,0.0073
2403.00,0.0073
2402.00,0.0072
2401.00,0.0072
2400.00,0.0072
2399.00,0.0072
2398.00,0.0073
2397.00,0.0073
2396.00,0.0073
2395.00,0.0073
2394.00,0.0073
2393.00,0.0073
2392.00,0.0072
2391.00,0.0072
2390.00,0.0072
2389.00,0.0072
2388.00,0.0072
2387.00,0.0071
2386.00,0.0070
2385.00,0.0069
2384.00,0.0069
2383.00,0.0068
2382.00,0.0067
2381.00,0.0066
2380.00,0.0065
2379.00,0.0065
2378.00,0.0065
2377.00,0.0065
2376.00,0.0066
2375.00,0.0066
2374.00,0.0066
2373.00,0.0066
2372.00,0.0066
2371.00,0.0066
2370.00,0.0066
2369.00,0.0065
2368.00,0.0065
2367.00,0.0065
2366.00,0.0065
2365.00,0.0065
2364.00,0.0065
2363.00,0.0065
2362.00,0.0065
2361.00,0.0065
2360.00,0.0065
2359.00,0.0065
2358.00,0.0065
2357.00,0.0065
2356.00,0.0066
2355.00,0.0066
2354.00,0.0066
2353.00,0.0066
2352.00,0.0065
2351.00,0.0064
2350.00,0.0063
2349.00,0.0063
2348.00,0.0064
2347.00,0.0066
2346.00,0.0067
2345.00,0.0068
2344.00,0.0068
2343.00,0.0068
2342.00,0.0068
2341.00,0.0069
2340.00,0.0069
2339.00,0.0069
2338.00,0.0069
2337.00,0.0070
2336.00,0.0070
2335.00,0.0070
2334.00,0.0069
2333.00,0.0069
2332.00,0.0070
2331.00,0.0070
2330.00,0.0070
2329.00,0.0072
2328.00,0.0074
2327.00,0.0077
2326.00,0.0078
2325.00,0.0079
2324.00,0.0078
2323.00,0.0077
2322.00,0.0075
2321.00,0.0074
2320.00,0.0074
2319.00,0.0073
2318.00,0.0073
2317.00,0.0073
2316.00,0.0073
2315.00,0.0073
2314.00,0.0072
2313.00,0.0071
2312.00,0.0071
2311.00,0.0071
2310.00,0.0071
2309.00,0.0071
2308.00,0.0071
2307.00,0.0071
2306.00,0.0072
2305.00,0.0072
2304.00,0.0072
2303.00,0.0072
2302.00,0.0072
2301.00,0.0073
2300.00,0.0073
2299.00,0.0073
2298.00,0.0074
2297.00,0.0075
2296.00,0.0076
2295.00,0.0076
2294.00,0.0077
2293.00,0.0077
2292.00,0.0078
2291.00,0.0078
2290.00,0.0079
2289.00,0.0080
2288.00,0.0080
2287.00,0.0080
2286.00,0.0079
2285.00,0.0078
2284.00,0.0078
2283.00,0.0077
2282.00,0.0076
2281.00,0.0076
2280.00,0.0076
2279.00,0.0076
2278.00,0.0076
2277.00,0.0075
2276.00,0.0075
2275.00,0.0075
2274.00,0.0075
2273.00,0.0075
2272.00,0.0075
2271.00,0.0075
2270.00,0.0074
2269.00,0.0074
2268.00,0.0074
2267.00,0.0073
2266.00,0.0073
2265.00,0.0072
2264.00,0.0072
2263.00,0.0072
2262.00,0.0072
2261.00,0.0072
2260.00,0.0073
2259.00,0.0074
2258.00,0.0074
2257.00,0.0073
2256.00,0.0073
2255.00,0.0072
2254.00,0.0072
2253.00,0.0072
2252.00,0.0072
2251.00,0.0072
2250.00,0.0072
2249.00,0.0072
2248.00,0.0072
2247.00,0.0072
2246.00,0.0072
2245.00,0.0073
2244.00,0.0073
2243.00,0.0074
2242.00,0.0074
2241.00,0.0073
2240.00,0.0073
2239.00,0.0073
2238.00,0.0073
2237.00,0.0073
2236.00,0.0073
2235.00,0.0073
2234.00,0.0073
2233.00,0.0073
2232.00,0.0073
2231.00,0.0073
2230.00,0.0072
2229.00,0.0071
2228.00,0.0072
2227.00,0.0073
2226.00,0.0073
2225.00,0.0074
2224.00,0.0075
2223.00,0.0075
2222.00,0.0074
2221.00,0.0074
2220.00,0.0074
2219.00,0.0074
2218.00,0.0074
2217.00,0.0073
2216.00,0.0072
2215.00,0.0071
2214.00,0.0071
2213.00,0.0071
2212.00,0.0072
2211.00,0.0072
2210.00,0.0072
2209.00,0.0072
2208.00,0.0072
2207.00,0.0072
2206.00,0.0073
2205.00,0.0073
2204.00,0.0074
2203.00,0.0074
2202.00,0.0073
2201.00,0.0073
2200.00,0.0074
2199.00,0.0074
2198.00,0.0074
2197.00,0.0074
2196.00,0.0074
2195.00,0.0075
2194.00,0.0075
2193.00,0.0075
2192.00,0.0075
2191.00,0.0075
2190.00,0.0076
2189.00,0.0076
2188.00,0.0077
2187.00,0.0077
2186.00,0.0076
2185.00,0.0074
2184.00,0.0072
2183.00,0.0070
2182.00,0.0068
2181.00,0.0068
2180.00,0.0069
2179.00,0.0071
2178.00,0.0070
2177.00,0.0070
2176.00,0.0069
2175.00,0.0069
2174.00,0.0069
2173.00,0.0070
2172.00,0.0072
2171.00,0.0075
2170.00,0.0076
2169.00,0.0077
2168.00,0.0078
2167.00,0.0078
2166.00,0.0077
2165.00,0.0077
2164.00,0.0077
2163.00,0.0075
2162.00,0.0071
2161.00,0.0064
2160.00,0.0056
2159.00,0.0050
2158.00,0.0048
2157.00,0.0050
2156.00,0.0053
2155.00,0.0055
2154.00,0.0056
2153.00,0.0057
2152.00,0.0059
2151.00,0.0058
2150.00,0.0057
2149.00,0.0056
2148.00,0.0056
2147.00,0.0056
2146.00,0.0057
2145.00,0.0058
2144.00,0.0059
2143.00,0.0059
2142.00,0.0059
2141.00,0.0059
2140.00,0.0059
2139.00,0.0059
2138.00,0.0059
2137.00,0.0058
2136.00,0.0058
2135.00,0.0057
2134.00,0.0057
2133.00,0.0057
2132.00,0.0058
2131.00,0.0059
2130.00,0.0059
2129.00,0.0060
2128.00,0.0061
2127.00,0.0063
2126.00,0.0064
2125.00,0.0065
2124.00,0.0066
2123.00,0.0067
2122.00,0.0067
2121.00,0.0068
2120.00,0.0068
2119.00,0.0069
2118.00,0.0070
2117.00,0.0071
2116.00,0.0072
2115.00,0.0073
2114.00,0.0072
2113.00,0.0072
2112.00,0.0071
2111.00,0.0071
2110.00,0.0070
2109.00,0.0071
2108.00,0.0072
2107.00,0.0072
2106.00,0.0072
2105.00,0.0071
2104.00,0.0070
2103.00,0.0070
2102.00,0.0069
2101.00,0.0069
2100.00,0.0069
2099.00,0.0069
2098.00,0.0068
2097.00,0.0067
2096.00,0.0066
2095.00,0.0066
2094.00,0.0065
2093.00,0.0065
2092.00,0.0066
2091.00,0.0066
2090.00,0.0066
2089.00,0.0067
2088.00,0.0067
2087.00,0.0068
2086.00,0.0068
2085.00,0.0068
2084.00,0.0068
2083.00,0.0068
2082.00,0.0068
2081.00,0.0068
2080.00,0.0068
2079.00,0.0069
2078.00,0.0069
2077.00,0.0068
2076.00,0.0068
2075.00,0.0068
2074.00,0.0067
2073.00,0.0066
2072.00,0.0065
2071.00,0.0065
2070.00,0.0065
2069.00,0.0066
2068.00,0.0066
2067.00,0.0067
2066.00,0.0066
2065.00,0.0066
2064.00,0.0066
2063.00,0.0065
2062.00,0.0065
2061.00,0.0064
2060.00,0.0064
2059.00,0.0064
2058.00,0.0064
2057.00,0.0064
2056.00,0.0064
2055.00,0.0065
2054.00,0.0067
2053.00,0.0070
2052.00,0.0073
2051.00,0.0072
2050.00,0.0069
2049.00,0.0066
2048.00,0.0065
2047.00,0.0065
2046.00,0.0065
2045.00,0.0065
2044.00,0.0065
2043.00,0.0066
2042.00,0.0065
2041.00,0.0064
2040.00,0.0063
2039.00,0.0063
2038.00,0.0061
2037.00,0.0060
2036.00,0.0059
2035.00,0.0057
2034.00,0.0056
2033.00,0.0057
2032.00,0.0058
2031.00,0.0059
2030.00,0.0058
2029.00,0.0058
2028.00,0.0058
2027.00,0.0058
2026.00,0.0056
2025.00,0.0055
2024.00,0.0056
2023.00,0.0056
2022.00,0.0056
2021.00,0.0057
2020.00,0.0059
2019.00,0.0059
2018.00,0.0058
2017.00,0.0057
2016.00,0.0057
2015.00,0.0056
2014.00,0.0055
2013.00,0.0055
2012.00,0.0056
2011.00,0.0058
2010.00,0.0059
2009.00,0.0058
2008.00,0.0056
2007.00,0.0054
2006.00,0.0053
2005.00,0.0054
2004.00,0.0055
2003.00,0.0056
2002.00,0.0056
2001.00,0.0056
2000.00,0.0056
1999.00,0.0056
1998.00,0.0057
1997.00,0.0058
1996.00,0.0060
1995.00,0.0061
1994.00,0.0061
1993.00,0.0060
1992.00,0.0059
1991.00,0.0059
1990.00,0.0059
1989.00,0.0060
1988.00,0.0061
1987.00,0.0063
1986.00,0.0064
1985.00,0.0066
1984.00,0.0069
1983.00,0.0071
1982.00,0.0071
1981.00,0.0071
1980.00,0.0070
1979.00,0.0065
1978.00,0.0057
1977.00,0.0051
1976.00,0.0049
1975.00,0.0049
1974.00,0.0048
1973.00,0.0049
1972.00,0.0051
1971.00,0.0052
1970.00,0.0053
1969.00,0.0053
1968.00,0.0055
1967.00,0.0055
1966.00,0.0055
1965.00,0.0054
1964.00,0.0055
1963.00,0.0055
1962.00,0.0053
1961.00,0.0052
1960.00,0.0052
1959.00,0.0052
1958.00,0.0053
1957.00,0.0055
1956.00,0.0057
1955.00,0.0057
1954.00,0.0056
1953.00,0.0055
1952.00,0.0055
1951.00,0.0055
1950.00,0.0054
1949.00,0.0055
1948.00,0.0056
1947.00,0.0057
1946.00,0.0057
1945.00,0.0057
1944.00,0.0057
1943.00,0.0057
1942.00,0.0056
1941.00,0.0056
1940.00,0.0057
1939.00,0.0057
1938.00,0.0057
1937.00,0.0057
1936.00,0.0058
1935.00,0.0058
1934.00,0.0058
1933.00,0.0058
1932.00,0.0058
1931.00,0.0057
1930.00,0.0057
1929.00,0.0057
1928.00,0.0059
1927.00,0.0059
1926.00,0.0059
1925.00,0.0059
1924.00,0.0059
1923.00,0.0060
1922.00,0.0059
1921.00,0.0059
1920.00,0.0060
1919.00,0.0060
1918.00,0.0059
1917.00,0.0059
1916.00,0.0060
1915.00,0.0060
1914.00,0.0060
1913.00,0.0060
1912.00,0.0060
1911.00,0.0061
1910.00,0.0061
1909.00,0.0062
1908.00,0.0062
1907.00,0.0062
1906.00,0.0061
1905.00,0.0061
1904.00,0.0061
1903.00,0.0061
1902.00,0.0060
1901.00,0.0059
1900.00,0.0060
1899.00,0.0060
1898.00,0.0060
1897.00,0.0060
1896.00,0.0061
1895.00,0.0061
1894.00,0.0061
1893.00,0.0061
1892.00,0.0061
1891.00,0.0061
1890.00,0.0061
1889.00,0.0061
1888.00,0.0061
1887.00,0.0061
1886.00,0.0060
1885.00,0.0060
1884.00,0.0061
1883.00,0.0061
1882.00,0.0061
1881.00,0.0061
1880.00,0.0061
1879.00,0.0061
1878.00,0.0061
1877.00,0.0061
1876.00,0.0061
1875.00,0.0061
1874.00,0.0061
1873.00,0.0061
1872.00,0.0061
1871.00,0.0062
1870.00,0.0062
1869.00,0.0062
1868.00,0.0063
1867.00,0.0062
1866.00,0.0061
1865.00,0.0061
1864.00,0.0061
1863.00,0.0061
1862.00,0.0061
1861.00,0.0060
1860.00,0.0061
1859.00,0.0061
1858.00,0.0061
1857.00,0.0061
1856.00,0.0061
1855.00,0.0061
1854.00,0.0061
1853.00,0.0061
1852.00,0.0062
1851.00,0.0062
1850.00,0.0062
1849.00,0.0062
1848.00,0.0062
1847.00,0.0062
1846.00,0.0061
1845.00,0.0060
1844.00,0.0061
1843.00,0.0061
1842.00,0.0061
1841.00,0.0061
1840.00,0.0062
1839.00,0.0063
1838.00,0.0063
1837.00,0.0063
1836.00,0.0063
1835.00,0.0063
1834.00,0.0062
1833.00,0.0062
1832.00,0.0062
1831.00,0.0063
1830.00,0.0063
1829.00,0.0062
1828.00,0.0063
1827.00,0.0063
1826.00,0.0063
1825.00,0.0063
1824.00,0.0063
1823.00,0.0063
1822.00,0.0062
1821.00,0.0061
1820.00,0.0061
1819.00,0.0061
1818.00,0.0060
1817.00,0.0060
1816.00,0.0060
1815.00,0.0061
1814.00,0.0061
1813.00,0.0062
1812.00,0.0062
1811.00,0.0063
1810.00,0.0062
1809.00,0.0062
1808.00,0.0062
1807.00,0.0062
1806.00,0.0062
1805.00,0.0062
1804.00,0.0063
1803.00,0.0063
1802.00,0.0063
1801.00,0.0062
1800.00,0.0062
1799.00,0.0062
1798.00,0.0063
1797.00,0.0063
1796.00,0.0063
1795.00,0.0063
1794.00,0.0062
1793.00,0.0062
1792.00,0.0062
1791.00,0.0062
1790.00,0.0062
1789.00,0.0063
1788.00,0.0064
1787.00,0.0064
1786.00,0.0064
1785.00,0.0064
1784.00,0.0065
1783.00,0.0065
1782.00,0.0065
1781.00,0.0065
1780.00,0.0065
1779.00,0.0065
1778.00,0.0065
1777.00,0.0065
1776.00,0.0066
1775.00,0.0066
1774.00,0.0065
1773.00,0.0065
1772.00,0.0065
1771.00,0.0066
1770.00,0.0066
1769.00,0.0066
1768.00,0.0067
1767.00,0.0068
1766.00,0.0068
1765.00,0.0068
1764.00,0.0068
1763.00,0.0068
1762.00,0.0068
1761.00,0.0068
1760.00,0.0069
1759.00,0.0070
1758.00,0.0070
1757.00,0.0070
1756.00,0.0070
1755.00,0.0071
1754.00,0.0070
1753.00,0.0071
1752.00,0.0072
1751.00,0.0073
1750.00,0.0074
1749.00,0.0074
1748.00,0.0075
1747.00,0.0076
1746.00,0.0076
1745.00,0.0077
1744.00,0.0078
1743.00,0.0078
1742.00,0.0078
1741.00,0.0077
1740.00,0.0079
1739.00,0.0080
1738.00,0.0080
1737.00,0.0080
1736.00,0.0081
1735.00,0.0082
1734.00,0.0084
1733.00,0.0086
1732.00,0.0089
1731.00,0.0092
1730.00,0.0093
1729.00,0.0094
1728.00,0.0096
1727.00,0.0098
1726.00,0.0100
1725.00,0.0102
1724.00,0.0105
1723.00,0.0108
1722.00,0.0109
1721.00,0.0111
1720.00,0.0114
1719.00,0.0118
1718.00,0.0121
1717.00,0.0125
1716.00,0.0131
1715.00,0.0137
1714.00,0.0141
1713.00,0.0147
1712.00,0.0153
1711.00,0.0160
1710.00,0.0167
1709.00,0.0175
1708.00,0.0186
1707.00,0.0198
1706.00,0.0212
1705.00,0.0226
1704.00,0.0241
1703.00,0.0252
1702.00,0.0266
1701.00,0.0293
1700.00,0.0333
1699.00,0.0369
1698.00,0.0398
1697.00,0.0431
1696.00,0.0478
1695.00,0.0532
1694.00,0.0578
1693.00,0.0619
1692.00,0.0662
1691.00,0.0711
1690.00,0.0765
1689.00,0.0819
1688.00,0.0867
1687.00,0.0908
1686.00,0.0951
1685.00,0.1011
1684.00,0.1087
1683.00,0.1150
1682.00,0.1192
1681.00,0.1227
1680.00,0.1263
1679.00,0.1297
1678.00,0.1326
1677.00,0.1357
1676.00,0.1396
1675.00,0.1440
1674.00,0.1479
1673.00,0.1510
1672.00,0.1541
1671.00,0.1579
1670.00,0.1625
1669.00,0.1675
1668.00,0.1722
1667.00,0.1762
1666.00,0.1796
1665.00,0.1832
1664.00,0.1877
1663.00,0.1928
1662.00,0.1977
1661.00,0.2018
1660.00,0.2054
1659.00,0.2086
1658.00,0.2113
1657.00,0.2134
1656.00,0.2152
1655.00,0.2171
1654.00,0.2194
1653.00,0.2212
1652.00,0.2215
1651.00,0.2207
1650.00,0.2194
1649.00,0.2178
1648.00,0.2155
1647.00,0.2116
1646.00,0.2062
1645.00,0.2006
1644.00,0.1954
1643.00,0.1900
1642.00,0.1842
1641.00,0.1779
1640.00,0.1715
1639.00,0.1653
1638.00,0.1591
1637.00,0.1521
1636.00,0.1438
1635.00,0.1355
1634.00,0.1287
1633.00,0.1234
1632.00,0.1187
1631.00,0.1142
1630.00,0.1097
1629.00,0.1054
1628.00,0.1014
1627.00,0.0979
1626.00,0.0950
1625.00,0.0925
1624.00,0.0903
1623.00,0.0884
1622.00,0.0867
1621.00,0.0851
1620.00,0.0836
1619.00,0.0820
1618.00,0.0801
1617.00,0.0779
1616.00,0.0756
1615.00,0.0734
1614.00,0.0713
1613.00,0.0692
1612.00,0.0671
1611.00,0.0651
1610.00,0.0633
1609.00,0.0618
1608.00,0.0607
1607.00,0.0600
1606.00,0.0598
1605.00,0.0600
1604.00,0.0607
1603.00,0.0617
1602.00,0.0629
1601.00,0.0639
1600.00,0.0646
1599.00,0.0650
1598.00,0.0649
1597.00,0.0643
1596.00,0.0632
1595.00,0.0617
1594.00,0.0599
1593.00,0.0579
1592.00,0.0561
1591.00,0.0543
1590.00,0.0527
1589.00,0.0511
1588.00,0.0497
1587.00,0.0483
1586.00,0.0469
1585.00,0.0455
1584.00,0.0441
1583.00,0.0427
1582.00,0.0412
1581.00,0.0398
1580.00,0.0385
1579.00,0.0372
1578.00,0.0360
1577.00,0.0347
1576.00,0.0335
1575.00,0.0325
1574.00,0.0317
1573.00,0.0311
1572.00,0.0304
1571.00,0.0297
1570.00,0.0290
1569.00,0.0284
1568.00,0.0279
1567.00,0.0274
1566.00,0.0270
1565.00,0.0266
1564.00,0.0261
1563.00,0.0256
1562.00,0.0250
1561.00,0.0244
1560.00,0.0241
1559.00,0.0239
1558.00,0.0237
1557.00,0.0237
1556.00,0.0236
1555.00,0.0235
1554.00,0.0234
1553.00,0.0233
1552.00,0.0232
1551.00,0.0232
1550.00,0.0231
1549.00,0.0229
1548.00,0.0228
1547.00,0.0228
1546.00,0.0228
1545.00,0.0228
1544.00,0.0227
1543.00,0.0226
1542.00,0.0226
1541.00,0.0226
1540.00,0.0225
1539.00,0.0225
1538.00,0.0225
1537.00,0.0225
1536.00,0.0224
1535.00,0.0222
1534.00,0.0220
1533.00,0.0219
1532.00,0.0217
1531.00,0.0216
1530.00,0.0216
1529.00,0.0215
1528.00,0.0214
1527.00,0.0214
1526.00,0.0214
1525.00,0.0214
1524.00,0.0214
1523.00,0.0213
1522.00,0.0214
1521.00,0.0214
1520.00,0.0216
1519.00,0.0217
1518.00,0.0219
1517.00,0.0219
1516.00,0.0220
1515.00,0.0220
1514.00,0.0220
1513.00,0.0221
1512.00,0.0223
1511.00,0.0226
1510.00,0.0228
1509.00,0.0232
1508.00,0.0237
1507.00,0.0245
1506.00,0.0257
1505.00,0.0271
1504.00,0.0285
1503.00,0.0299
1502.00,0.0314
1501.00,0.0333
1500.00,0.0355
1499.00,0.0378
1498.00,0.0404
1497.00,0.0430
1496.00,0.0453
1495.00,0.0468
1494.00,0.0477
1493.00,0.0479
1492.00,0.0474
1491.00,0.0463
1490.00,0.0444
1489.00,0.0421
1488.00,0.0396
1487.00,0.0371
1486.00,0.0349
1485.00,0.0331
1484.00,0.0315
1483.00,0.0302
1482.00,0.0292
1481.00,0.0285
1480.00,0.0280
1479.00,0.0279
1478.00,0.0280
1477.00,0.0285
1476.00,0.0294
1475.00,0.0304
1474.00,0.0320
1473.00,0.0348
1472.00,0.0385
1471.00,0.0424
1470.00,0.0464
1469.00,0.0506
1468.00,0.0553
1467.00,0.0604
1466.00,0.0664
1465.00,0.0732
1464.00,0.0795
1463.00,0.0841
1462.00,0.0870
1461.00,0.0887
1460.00,0.0891
1459.00,0.0882
1458.00,0.0856
1457.00,0.0816
1456.00,0.0775
1455.00,0.0745
1454.00,0.0725
1453.00,0.0712
1452.00,0.0705
1451.00,0.0705
1450.00,0.0714
1449.00,0.0735
1448.00,0.0767
1447.00,0.0805
1446.00,0.0847
1445.00,0.0891
1444.00,0.0938
1443.00,0.0985
1442.00,0.1031
1441.00,0.1074
1440.00,0.1111
1439.00,0.1143
1438.00,0.1174
1437.00,0.1210
1436.00,0.1247
1435.00,0.1276
1434.00,0.1298
1433.00,0.1321
1432.00,0.1347
1431.00,0.1373
1430.00,0.1400
1429.00,0.1425
1428.00,0.1449
1427.00,0.1468
1426.00,0.1487
1425.00,0.1508
1424.00,0.1526
1423.00,0.1532
1422.00,0.1524
1421.00,0.1500
1420.00,0.1453
1419.00,0.1376
1418.00,0.1285
1417.00,0.1196
1416.00,0.1112
1415.00,0.1029
1414.00,0.0952
1413.00,0.0883
1412.00,0.0820
1411.00,0.0765
1410.00,0.0719
1409.00,0.0682
1408.00,0.0651
1407.00,0.0625
1406.00,0.0604
1405.00,0.0586
1404.00,0.0571
1403.00,0.0558
1402.00,0.0549
1401.00,0.0541
1400.00,0.0534
1399.00,0.0528
1398.00,0.0523
1397.00,0.0520
1396.00,0.0516
1395.00,0.0514
1394.00,0.0513
1393.00,0.0514
1392.00,0.0516
1391.00,0.0519
1390.00,0.0523
1389.00,0.0530
1388.00,0.0540
1387.00,0.0552
1386.00,0.0566
1385.00,0.0580
1384.00,0.0594
1383.00,0.0608
1382.00,0.0622
1381.00,0.0636
1380.00,0.0649
1379.00,0.0661
1378.00,0.0671
1377.00,0.0678
1376.00,0.0682
1375.00,0.0682
1374.00,0.0677
1373.00,0.0667
1372.00,0.0656
1371.00,0.0643
1370.00,0.0630
1369.00,0.0616
1368.00,0.0601
1367.00,0.0586
1366.00,0.0571
1365.00,0.0556
1364.00,0.0541
1363.00,0.0526
1362.00,0.0512
1361.00,0.0499
1360.00,0.0488
1359.00,0.0479
1358.00,0.0472
1357.00,0.0466
1356.00,0.0461
1355.00,0.0457
1354.00,0.0453
1353.00,0.0449
1352.00,0.0446
1351.00,0.0441
1350.00,0.0436
1349.00,0.0431
1348.00,0.0425
1347.00,0.0419
1346.00,0.0413
1345.00,0.0408
1344.00,0.0404
1343.00,0.0401
1342.00,0.0399
1341.00,0.0399
1340.00,0.0399
1339.00,0.0400
1338.00,0.0401
1337.00,0.0403
1336.00,0.0405
1335.00,0.0408
1334.00,0.0413
1333.00,0.0419
1332.00,0.0426
1331.00,0.0435
1330.00,0.0445
1329.00,0.0458
1328.00,0.0472
1327.00,0.0487
1326.00,0.0505
1325.00,0.0523
1324.00,0.0543
1323.00,0.0562
1322.00,0.0580
1321.00,0.0596
1320.00,0.0610
1319.00,0.0620
1318.00,0.0625
1317.00,0.0627
1316.00,0.0623
1315.00,0.0616
1314.00,0.0606
1313.00,0.0594
1312.00,0.0581
1311.00,0.0569
1310.00,0.0557
1309.00,0.0548
1308.00,0.0541
1307.00,0.0537
1306.00,0.0537
1305.00,0.0542
1304.00,0.0553
1303.00,0.0569
1302.00,0.0593
1301.00,0.0625
1300.00,0.0667
1299.00,0.0719
1298.00,0.0784
1297.00,0.0859
1296.00,0.0944
1295.00,0.1036
1294.00,0.1131
1293.00,0.1223
1292.00,0.1310
1291.00,0.1386
1290.00,0.1448
1289.00,0.1495
1288.00,0.1526
1287.00,0.1539
1286.00,0.1537
1285.00,0.1520
1284.00,0.1492
1283.00,0.1456
1282.00,0.1418
1281.00,0.1383
1280.00,0.1354
1279.00,0.1335
1278.00,0.1326
1277.00,0.1325
1276.00,0.1331
1275.00,0.1339
1274.00,0.1347
1273.00,0.1351
1272.00,0.1348
1271.00,0.1338
1270.00,0.1318
1269.00,0.1291
1268.00,0.1258
1267.00,0.1220
1266.00,0.1180
1265.00,0.1139
1264.00,0.1098
1263.00,0.1056
1262.00,0.1014
1261.00,0.0974
1260.00,0.0934
1259.00,0.0895
1258.00,0.0858
1257.00,0.0823
1256.00,0.0789
1255.00,0.0758
1254.00,0.0729
1253.00,0.0702
1252.00,0.0678
1251.00,0.0657
1250.00,0.0639
1249.00,0.0623
1248.00,0.0609
1247.00,0.0598
1246.00,0.0589
1245.00,0.0582
1244.00,0.0578
1243.00,0.0576
1242.00,0.0576
1241.00,0.0579
1240.00,0.0585
1239.00,0.0593
1238.00,0.0604
1237.00,0.0617
1236.00,0.0633
1235.00,0.0651
1234.00,0.0670
1233.00,0.0690
1232.00,0.0709
1231.00,0.0726
1230.00,0.0741
1229.00,0.0752
1228.00,0.0759
1227.00,0.0763
1226.00,0.0765
1225.00,0.0765
1224.00,0.0763
1223.00,0.0761
1222.00,0.0758
1221.00,0.0754
1220.00,0.0749
1219.00,0.0742
1218.00,0.0733
1217.00,0.0722
1216.00,0.0710
1215.00,0.0696
1214.00,0.0681
1213.00,0.0666
1212.00,0.0651
1211.00,0.0637
1210.00,0.0624
1209.00,0.0612
1208.00,0.0601
1207.00,0.0590
1206.00,0.0581
1205.00,0.0573
1204.00,0.0565
1203.00,0.0558
1202.00,0.0551
1201.00,0.0544
1200.00,0.0537
1199.00,0.0531
1198.00,0.0524
1197.00,0.0518
1196.00,0.0511
1195.00,0.0505
1194.00,0.0500
1193.00,0.0496
1192.00,0.0492
1191.00,0.0488
1190.00,0.0486
1189.00,0.0483
1188.00,0.0481
1187.00,0.0479
1186.00,0.0478
1185.00,0.0477
1184.00,0.0477
1183.00,0.0478
1182.00,0.0480
1181.00,0.0483
1180.00,0.0488
1179.00,0.0495
1178.00,0.0503
1177.00,0.0513
1176.00,0.0524
1175.00,0.0537
1174.00,0.0552
1173.00,0.0568
1172.00,0.0584
1171.00,0.0599
1170.00,0.0614
1169.00,0.0628
1168.00,0.0639
1167.00,0.0647
1166.00,0.0652
1165.00,0.0653
1164.00,0.0649
1163.00,0.0643
1162.00,0.0633
1161.00,0.0622
1160.00,0.0609
1159.00,0.0596
1158.00,0.0582
1157.00,0.0570
1156.00,0.0557
1155.00,0.0544
1154.00,0.0531
1153.00,0.0519
1152.00,0.0506
1151.00,0.0494
1150.00,0.0483
1149.00,0.0472
1148.00,0.0461
1147.00,0.0450
1146.00,0.0440
1145.00,0.0431
1144.00,0.0423
1143.00,0.0416
1142.00,0.0409
1141.00,0.0404
1140.00,0.0399
1139.00,0.0394
1138.00,0.0390
1137.00,0.0387
1136.00,0.0384
1135.00,0.0382
1134.00,0.0380
1133.00,0.0379
1132.00,0.0378
1131.00,0.0378
1130.00,0.0378
1129.00,0.0379
1128.00,0.0380
1127.00,0.0381
1126.00,0.0382
1125.00,0.0384
1124.00,0.0385
1123.00,0.0387
1122.00,0.0389
1121.00,0.0392
1120.00,0.0395
1119.00,0.0398
1118.00,0.0403
1117.00,0.0408
1116.00,0.0413
1115.00,0.0419
1114.00,0.0426
1113.00,0.0433
1112.00,0.0440
1111.00,0.0447
1110.00,0.0453
1109.00,0.0458
1108.00,0.0461
1107.00,0.0464
1106.00,0.0466
1105.00,0.0467
1104.00,0.0468
1103.00,0.0469
1102.00,0.0470
1101.00,0.0472
1100.00,0.0475
1099.00,0.0478
1098.00,0.0481
1097.00,0.0485
1096.00,0.0488
1095.00,0.0490
1094.00,0.0492
1093.00,0.0493
1092.00,0.0494
1091.00,0.0495
1090.00,0.0496
1089.00,0.0499
1088.00,0.0503
1087.00,0.0507
1086.00,0.0512
1085.00,0.0517
1084.00,0.0521
1083.00,0.0524
1082.00,0.0524
1081.00,0.0523
1080.00,0.0520
1079.00,0.0517
1078.00,0.0513
1077.00,0.0509
1076.00,0.0505
1075.00,0.0500
1074.00,0.0494
1073.00,0.0488
1072.00,0.0482
1071.00,0.0475
1070.00,0.0469
1069.00,0.0463
1068.00,0.0459
1067.00,0.0455
1066.00,0.0454
1065.00,0.0453
1064.00,0.0454
1063.00,0.0457
1062.00,0.0463
1061.00,0.0471
1060.00,0.0482
1059.00,0.0497
1058.00,0.0517
1057.00,0.0542
1056.00,0.0573
1055.00,0.0611
1054.00,0.0653
1053.00,0.0697
1052.00,0.0739
1051.00,0.0774
1050.00,0.0799
1049.00,0.0812
1048.00,0.0811
1047.00,0.0799
1046.00,0.0779
1045.00,0.0755
1044.00,0.0731
1043.00,0.0707
1042.00,0.0687
1041.00,0.0670
1040.00,0.0656
1039.00,0.0645
1038.00,0.0635
1037.00,0.0627
1036.00,0.0619
1035.00,0.0612
1034.00,0.0606
1033.00,0.0600
1032.00,0.0594
1031.00,0.0588
1030.00,0.0583
1029.00,0.0578
1028.00,0.0574
1027.00,0.0570
1026.00,0.0567
1025.00,0.0566
1024.00,0.0565
1023.00,0.0565
1022.00,0.0565
1021.00,0.0565
1020.00,0.0564
1019.00,0.0562
1018.00,0.0557
1017.00,0.0550
1016.00,0.0539
1015.00,0.0524
1014.00,0.0507
1013.00,0.0488
1012.00,0.0469
1011.00,0.0453
1010.00,0.0439
1009.00,0.0429
1008.00,0.0423
1007.00,0.0420
1006.00,0.0422
1005.00,0.0426
1004.00,0.0430
1003.00,0.0432
1002.00,0.0432
1001.00,0.0428
1000.00,0.0421
999.00,0.0412
998.00,0.0402
997.00,0.0392
996.00,0.0384
995.00,0.0376
994.00,0.0370
993.00,0.0365
992.00,0.0361
991.00,0.0359
990.00,0.0359
989.00,0.0358
988.00,0.0358
987.00,0.0357
986.00,0.0355
985.00,0.0353
984.00,0.0349
983.00,0.0345
982.00,0.0340
981.00,0.0335
980.00,0.0330
979.00,0.0325
978.00,0.0320
977.00,0.0316
976.00,0.0312
975.00,0.0307
974.00,0.0303
973.00,0.0299
972.00,0.0294
971.00,0.0290
970.00,0.0286
969.00,0.0282
968.00,0.0277
967.00,0.0273
966.00,0.0270
965.00,0.0266
964.00,0.0263
963.00,0.0260
962.00,0.0257
961.00,0.0254
960.00,0.0251
959.00,0.0247
958.00,0.0244
957.00,0.0242
956.00,0.0239
955.00,0.0237
954.00,0.0235
953.00,0.0233
952.00,0.0231
951.00,0.0229
950.00,0.0228
949.00,0.0228
948.00,0.0227
947.00,0.0227
946.00,0.0228
945.00,0.0228
944.00,0.0229
943.00,0.0231
942.00,0.0233
941.00,0.0237
940.00,0.0242
939.00,0.0248
938.00,0.0256
937.00,0.0265
936.00,0.0274
935.00,0.0282
934.00,0.0288
933.00,0.0292
932.00,0.0292
931.00,0.0288
930.00,0.0283
929.00,0.0279
928.00,0.0275
927.00,0.0273
926.00,0.0272
925.00,0.0272
924.00,0.0273
923.00,0.0273
922.00,0.0274
921.00,0.0275
920.00,0.0276
919.00,0.0277
918.00,0.0279
917.00,0.0282
916.00,0.0284
915.00,0.0286
914.00,0.0288
913.00,0.0290
912.00,0.0293
911.00,0.0296
910.00,0.0299
909.00,0.0302
908.00,0.0305
907.00,0.0307
906.00,0.0308
905.00,0.0309
904.00,0.0310
903.00,0.0311
902.00,0.0312
901.00,0.0313
900.00,0.0315
899.00,0.0318
898.00,0.0320
897.00,0.0322
896.00,0.0323
895.00,0.0323
894.00,0.0322
893.00,0.0320
892.00,0.0318
891.00,0.0315
890.00,0.0312
889.00,0.0310
888.00,0.0308
887.00,0.0306
886.00,0.0306
885.00,0.0305
884.00,0.0305
883.00,0.0305
882.00,0.0306
881.00,0.0307
880.00,0.0309
879.00,0.0311
878.00,0.0313
877.00,0.0316
876.00,0.0318
875.00,0.0320
874.00,0.0323
873.00,0.0325
872.00,0.0328
871.00,0.0331
870.00,0.0334
869.00,0.0338
868.00,0.0343
867.00,0.0348
866.00,0.0354
865.00,0.0361
864.00,0.0369
863.00,0.0377
862.00,0.0386
861.00,0.0395
860.00,0.0405
859.00,0.0416
858.00,0.0427
857.00,0.0440
856.00,0.0453
855.00,0.0467
854.00,0.0481
853.00,0.0496
852.00,0.0510
851.00,0.0523
850.00,0.0535
849.00,0.0547
848.00,0.0557
847.00,0.0567
846.00,0.0575
845.00,0.0583
844.00,0.0589
843.00,0.0593
842.00,0.0596
841.00,0.0599
840.00,0.0602
839.00,0.0604
838.00,0.0607
837.00,0.0609
836.00,0.0612
835.00,0.0615
834.00,0.0617
833.00,0.0619
832.00,0.0620
831.00,0.0621
830.00,0.0621
829.00,0.0620
828.00,0.0617
827.00,0.0612
826.00,0.0606
825.00,0.0599
824.00,0.0590
823.00,0.0580
822.00,0.0570
821.00,0.0559
820.00,0.0548
819.00,0.0538
818.00,0.0529
817.00,0.0521
816.00,0.0514
815.00,0.0507
814.00,0.0502
813.00,0.0499
812.00,0.0496
811.00,0.0494
810.00,0.0493
809.00,0.0491
808.00,0.0489
807.00,0.0488
806.00,0.0487
805.00,0.0486
804.00,0.0486
803.00,0.0486
802.00,0.0487
801.00,0.0487
800.00,0.0487
799.00,0.0487
798.00,0.0487
797.00,0.0487
796.00,0.0487
795.00,0.0487
794.00,0.0486
793.00,0.0485
792.00,0.0482
791.00,0.0479
790.00,0.0477
789.00,0.0474
788.00,0.0472
787.00,0.0470
786.00,0.0469
785.00,0.0468
784.00,0.0467
783.00,0.0466
782.00,0.0466
781.00,0.0465
780.00,0.0465
779.00,0.0466
778.00,0.0467
777.00,0.0467
776.00,0.0468
775.00,0.0468
774.00,0.0468
773.00,0.0468
772.00,0.0468
771.00,0.0468
770.00,0.0469
769.00,0.0470
768.00,0.0473
767.00,0.0476
766.00,0.0479
765.00,0.0482
764.00,0.0486
763.00,0.0491
762.00,0.0496
761.00,0.0504
760.00,0.0511
759.00,0.0520
758.00,0.0528
757.00,0.0537
756.00,0.0546
755.00,0.0555
754.00,0.0565
753.00,0.0574
752.00,0.0584
751.00,0.0594
750.00,0.0603
749.00,0.0613
748.00,0.0622
747.00,0.0631
746.00,0.0640
745.00,0.0649
744.00,0.0658
743.00,0.0666
742.00,0.0674
741.00,0.0682
740.00,0.0689
739.00,0.0696
738.00,0.0703
737.00,0.0708
736.00,0.0711
735.00,0.0712
734.00,0.0712
733.00,0.0709
732.00,0.0704
731.00,0.0696
730.00,0.0687
729.00,0.0676
728.00,0.0664
727.00,0.0651
726.00,0.0640
725.00,0.0629
724.00,0.0619
723.00,0.0611
722.00,0.0603
721.00,0.0597
720.00,0.0591
719.00,0.0585
718.00,0.0581
717.00,0.0579
716.00,0.0577
715.00,0.0576
714.00,0.0575
713.00,0.0575
712.00,0.0575
711.00,0.0576
710.00,0.0576
709.00,0.0577
708.00,0.0578
707.00,0.0579
706.00,0.0581
705.00,0.0584
704.00,0.0586
703.00,0.0587
702.00,0.0588
701.00,0.0590
700.00,0.0593
699.00,0.0596
698.00,0.0599
697.00,0.0602
696.00,0.0605
695.00,0.0609
694.00,0.0612
693.00,0.0616
692.00,0.0620
691.00,0.0625
690.00,0.0630
689.00,0.0635
688.00,0.0642
687.00,0.0648
686.00,0.0656
685.00,0.0663
684.00,0.0669
683.00,0.0676
682.00,0.0682
681.00,0.0687
680.00,0.0693
679.00,0.0699
678.00,0.0705
677.00,0.0712
676.00,0.0719
675.00,0.0726
674.00,0.0733
673.00,0.0740
672.00,0.0746
671.00,0.0752
670.00,0.0759
669.00,0.0770
668.00,0.0785
667.00,0.0799
666.00,0.0810
665.00,0.0818
664.00,0.0828
663.00,0.0840
662.00,0.0852
661.00,0.0866
660.00,0.0880
659.00,0.0895
658.00,0.0910
657.00,0.0924
656.00,0.0939
655.00,0.0953
654.00,0.0968
653.00,0.0981
652.00,0.0993
651.00,0.1004
650.00,0.1012
649.00,0.1017
648.00,0.1019
647.00,0.1018
646.00,0.1015
645.00,0.1009
644.00,0.1000
643.00,0.0990
642.00,0.0978
641.00,0.0965
640.00,0.0952
639.00,0.0938
638.00,0.0926
637.00,0.0914
636.00,0.0902
635.00,0.0891
634.00,0.0880
633.00,0.0870
632.00,0.0861
631.00,0.0852
630.00,0.0844
629.00,0.0836
628.00,0.0828
627.00,0.0822
626.00,0.0816
625.00,0.0812
624.00,0.0807
623.00,0.0803
622.00,0.0799
621.00,0.0796
620.00,0.0793
619.00,0.0792
618.00,0.0791
617.00,0.0791
616.00,0.0791
615.00,0.0791
614.00,0.0791
613.00,0.0792
612.00,0.0795
611.00,0.0799
610.00,0.0802
609.00,0.0804
608.00,0.0805
607.00,0.0807
606.00,0.0811
605.00,0.0815
604.00,0.0820
603.00,0.0824
602.00,0.0828
601.00,0.0832
600.00,0.0836
599.00,0.0840
598.00,0.0845
597.00,0.0849
596.00,0.0854
595.00,0.0859
594.00,0.0865
593.00,0.0873
592.00,0.0882
591.00,0.0890
590.00,0.0898
589.00,0.0907
588.00,0.0916
587.00,0.0928
586.00,0.0942
585.00,0.0958
584.00,0.0973
583.00,0.0988
582.00,0.1003
581.00,0.1017
580.00,0.1030
579.00,0.1042
578.00,0.1053
577.00,0.1061
576.00,0.1066
575.00,0.1070
574.00,0.1071
573.00,0.1072
572.00,0.1072
571.00,0.1071
570.00,0.1067
569.00,0.1062
568.00,0.1056
567.00,0.1048
566.00,0.1040
565.00,0.1031
564.00,0.1021
563.00,0.1009
562.00,0.0997
561.00,0.0985
560.00,0.0975
559.00,0.0964
558.00,0.0954
557.00,0.0945
556.00,0.0937
555.00,0.0928
554.00,0.0919
553.00,0.0911
552.00,0.0905
551.00,0.0900
550.00,0.0894
549.00,0.0888
548.00,0.0882
547.00,0.0877
546.00,0.0872
545.00,0.0869
544.00,0.0866
543.00,0.0863
542.00,0.0861
541.00,0.0859
540.00,0.0857
539.00,0.0855
538.00,0.0852
537.00,0.0850
536.00,0.0849
535.00,0.0848
534.00,0.0847
533.00,0.0847
532.00,0.0847
531.00,0.0846
530.00,0.0845
529.00,0.0844
528.00,0.0843
527.00,0.0843
526.00,0.0842
525.00,0.0841
524.00,0.0838
523.00,0.0835
522.00,0.0833
521.00,0.0831
520.00,0.0829
519.00,0.0826
518.00,0.0823
517.00,0.0821
516.00,0.0819
515.00,0.0817
514.00,0.0816
513.00,0.0814
512.00,0.0814
511.00,0.0813
510.00,0.0812
509.00,0.0810
508.00,0.0808
507.00,0.0806
506.00,0.0805
505.00,0.0805
504.00,0.0806
503.00,0.0808
502.00,0.0811
501.00,0.0813
500.00,0.0814
499.00,0.0814
498.00,0.0813
497.00,0.0811
496.00,0.0811
495.00,0.0813
494.00,0.0816
493.00,0.0819
492.00,0.0820
491.00,0.0821
490.00,0.0822
489.00,0.0823
488.00,0.0824
487.00,0.0825
486.00,0.0827
485.00,0.0829
484.00,0.0831
483.00,0.0832
482.00,0.0831
481.00,0.0831
480.00,0.0831
479.00,0.0833
478.00,0.0835
477.00,0.0837
476.00,0.0840
475.00,0.0843
474.00,0.0846
473.00,0.0848
472.00,0.0848
471.00,0.0847
470.00,0.0846
469.00,0.0845
468.00,0.0843
467.00,0.0841
466.00,0.0840
465.00,0.0841
464.00,0.0840
463.00,0.0838
462.00,0.0836
461.00,0.0834
460.00,0.0832
459.00,0.0830
458.00,0.0831
457.00,0.0833
456.00,0.0834
455.00,0.0834
454.00,0.0832
453.00,0.0830
452.00,0.0827
451.00,0.0824
450.00,0.0821
449.00,0.0819
448.00,0.0816
447.00,0.0812
446.00,0.0806
445.00,0.0802
444.00,0.0800
443.00,0.0800
442.00,0.0798
441.00,0.0795
440.00,0.0788
439.00,0.0781
438.00,0.0775
437.00,0.0771
436.00,0.0767
435.00,0.0762
434.00,0.0757
433.00,0.0753
432.00,0.0750
431.00,0.0749
430.00,0.0748
429.00,0.0749
428.00,0.0750
427.00,0.0750
426.00,0.0748
425.00,0.0743
424.00,0.0739
423.00,0.0735
422.00,0.0733
421.00,0.0730
420.00,0.0727
419.00,0.0725
418.00,0.0727
417.00,0.0730
416.00,0.0734
415.00,0.0739
414.00,0.0745
413.00,0.0746
412.00,0.0742
411.00,0.0735
410.00,0.0729
409.00,0.0727
408.00,0.0731
407.00,0.0743
406.00,0.0757
405.00,0.0766
404.00,0.0769
403.00,0.0771
402.00,0.0775
401.00,0.0777
400.00,0.0771
