Created as New Dataset,Sample 578 By YargerLab Date Thursday, June 05 2025
cm-1,A
4000.00,0.0004
3999.00,0.0004
3998.00,0.0004
3997.00,0.0004
3996.00,0.0004
3995.00,0.0004
3994.00,0.0004
3993.00,0.0004
3992.00,0.0004
3991.00,0.0003
3990.00,0.0003
3989.00,0.0003
3988.00,0.0004
3987.00,0.0004
3986.00,0.0004
3985.00,0.0004
3984.00,0.0004
3983.00,0.0004
3982.00,0.0004
3981.00,0.0004
3980.00,0.0004
3979.00,0.0004
3978.00,0.0004
3977.00,0.0004
3976.00,0.0004
3975.00,0.0004
3974.00,0.0004
3973.00,0.0004
3972.00,0.0004
3971.00,0.0004
3970.00,0.0004
3969.00,0.0003
3968.00,0.0003
3967.00,0.0003
3966.00,0.0004
3965.00,0.0004
3964.00,0.0004
3963.00,0.0004
3962.00,0.0004
3961.00,0.0004
3960.00,0.0004
3959.00,0.0004
3958.00,0.0004
3957.00,0.0004
3956.00,0.0003
3955.00,0.0003
3954.00,0.0003
3953.00,0.0003
3952.00,0.0004
3951.00,0.0004
3950.00,0.0004
3949.00,0.0004
3948.00,0.0004
3947.00,0.0004
3946.00,0.0004
3945.00,0.0004
3944.00,0.0004
3943.00,0.0004
3942.00,0.0003
3941.00,0.0003
3940.00,0.0003
3939.00,0.0003
3938.00,0.0003
3937.00,0.0003
3936.00,0.0003
3935.00,0.0003
3934.00,0.0003
3933.00,0.0003
3932.00,0.0003
3931.00,0.0003
3930.00,0.0003
3929.00,0.0003
3928.00,0.0003
3927.00,0.0004
3926.00,0.0004
3925.00,0.0004
3924.00,0.0004
3923.00,0.0003
3922.00,0.0003
3921.00,0.0003
3920.00,0.0003
3919.00,0.0003
3918.00,0.0003
3917.00,0.0003
3916.00,0.0003
3915.00,0.0004
3914.00,0.0004
3913.00,0.0004
3912.00,0.0004
3911.00,0.0004
3910.00,0.0003
3909.00,0.0003
3908.00,0.0003
3907.00,0.0003
3906.00,0.0003
3905.00,0.0003
3904.00,0.0003
3903.00,0.0003
3902.00,0.0002
3901.00,0.0003
3900.00,0.0003
3899.00,0.0003
3898.00,0.0003
3897.00,0.0003
3896.00,0.0003
3895.00,0.0003
3894.00,0.0003
3893.00,0.0003
3892.00,0.0003
3891.00,0.0003
3890.00,0.0004
3889.00,0.0004
3888.00,0.0003
3887.00,0.0003
3886.00,0.0003
3885.00,0.0002
3884.00,0.0002
3883.00,0.0003
3882.00,0.0003
3881.00,0.0003
3880.00,0.0003
3879.00,0.0003
3878.00,0.0003
3877.00,0.0003
3876.00,0.0002
3875.00,0.0002
3874.00,0.0002
3873.00,0.0002
3872.00,0.0003
3871.00,0.0003
3870.00,0.0003
3869.00,0.0003
3868.00,0.0003
3867.00,0.0003
3866.00,0.0003
3865.00,0.0003
3864.00,0.0003
3863.00,0.0003
3862.00,0.0004
3861.00,0.0004
3860.00,0.0004
3859.00,0.0004
3858.00,0.0004
3857.00,0.0004
3856.00,0.0004
3855.00,0.0004
3854.00,0.0004
3853.00,0.0003
3852.00,0.0003
3851.00,0.0004
3850.00,0.0003
3849.00,0.0003
3848.00,0.0003
3847.00,0.0003
3846.00,0.0003
3845.00,0.0003
3844.00,0.0003
3843.00,0.0003
3842.00,0.0003
3841.00,0.0003
3840.00,0.0003
3839.00,0.0003
3838.00,0.0003
3837.00,0.0003
3836.00,0.0003
3835.00,0.0003
3834.00,0.0003
3833.00,0.0003
3832.00,0.0003
3831.00,0.0003
3830.00,0.0004
3829.00,0.0004
3828.00,0.0004
3827.00,0.0003
3826.00,0.0003
3825.00,0.0003
3824.00,0.0003
3823.00,0.0003
3822.00,0.0003
3821.00,0.0003
3820.00,0.0003
3819.00,0.0003
3818.00,0.0003
3817.00,0.0003
3816.00,0.0003
3815.00,0.0003
3814.00,0.0003
3813.00,0.0004
3812.00,0.0004
3811.00,0.0004
3810.00,0.0004
3809.00,0.0004
3808.00,0.0004
3807.00,0.0004
3806.00,0.0004
3805.00,0.0004
3804.00,0.0004
3803.00,0.0004
3802.00,0.0004
3801.00,0.0004
3800.00,0.0004
3799.00,0.0004
3798.00,0.0003
3797.00,0.0003
3796.00,0.0004
3795.00,0.0004
3794.00,0.0004
3793.00,0.0004
3792.00,0.0004
3791.00,0.0004
3790.00,0.0004
3789.00,0.0004
3788.00,0.0004
3787.00,0.0004
3786.00,0.0004
3785.00,0.0004
3784.00,0.0004
3783.00,0.0004
3782.00,0.0005
3781.00,0.0005
3780.00,0.0004
3779.00,0.0004
3778.00,0.0004
3777.00,0.0004
3776.00,0.0004
3775.00,0.0004
3774.00,0.0004
3773.00,0.0004
3772.00,0.0004
3771.00,0.0004
3770.00,0.0004
3769.00,0.0004
3768.00,0.0004
3767.00,0.0004
3766.00,0.0004
3765.00,0.0004
3764.00,0.0004
3763.00,0.0004
3762.00,0.0004
3761.00,0.0004
3760.00,0.0004
3759.00,0.0004
3758.00,0.0004
3757.00,0.0004
3756.00,0.0004
3755.00,0.0004
3754.00,0.0005
3753.00,0.0005
3752.00,0.0005
3751.00,0.0005
3750.00,0.0005
3749.00,0.0005
3748.00,0.0005
3747.00,0.0005
3746.00,0.0005
3745.00,0.0004
3744.00,0.0004
3743.00,0.0003
3742.00,0.0003
3741.00,0.0003
3740.00,0.0003
3739.00,0.0003
3738.00,0.0003
3737.00,0.0003
3736.00,0.0003
3735.00,0.0003
3734.00,0.0003
3733.00,0.0003
3732.00,0.0002
3731.00,0.0002
3730.00,0.0002
3729.00,0.0002
3728.00,0.0003
3727.00,0.0003
3726.00,0.0003
3725.00,0.0003
3724.00,0.0003
3723.00,0.0004
3722.00,0.0004
3721.00,0.0004
3720.00,0.0004
3719.00,0.0004
3718.00,0.0004
3717.00,0.0004
3716.00,0.0004
3715.00,0.0004
3714.00,0.0004
3713.00,0.0004
3712.00,0.0004
3711.00,0.0004
3710.00,0.0004
3709.00,0.0004
3708.00,0.0004
3707.00,0.0005
3706.00,0.0005
3705.00,0.0005
3704.00,0.0005
3703.00,0.0005
3702.00,0.0005
3701.00,0.0005
3700.00,0.0005
3699.00,0.0005
3698.00,0.0005
3697.00,0.0005
3696.00,0.0005
3695.00,0.0006
3694.00,0.0006
3693.00,0.0006
3692.00,0.0006
3691.00,0.0006
3690.00,0.0006
3689.00,0.0006
3688.00,0.0007
3687.00,0.0007
3686.00,0.0007
3685.00,0.0007
3684.00,0.0008
3683.00,0.0008
3682.00,0.0008
3681.00,0.0008
3680.00,0.0008
3679.00,0.0009
3678.00,0.0009
3677.00,0.0009
3676.00,0.0010
3675.00,0.0010
3674.00,0.0011
3673.00,0.0011
3672.00,0.0011
3671.00,0.0011
3670.00,0.0012
3669.00,0.0013
3668.00,0.0013
3667.00,0.0014
3666.00,0.0014
3665.00,0.0014
3664.00,0.0014
3663.00,0.0015
3662.00,0.0015
3661.00,0.0016
3660.00,0.0016
3659.00,0.0017
3658.00,0.0017
3657.00,0.0018
3656.00,0.0018
3655.00,0.0018
3654.00,0.0019
3653.00,0.0019
3652.00,0.0019
3651.00,0.0019
3650.00,0.0020
3649.00,0.0021
3648.00,0.0022
3647.00,0.0023
3646.00,0.0023
3645.00,0.0024
3644.00,0.0024
3643.00,0.0024
3642.00,0.0025
3641.00,0.0025
3640.00,0.0026
3639.00,0.0026
3638.00,0.0027
3637.00,0.0028
3636.00,0.0028
3635.00,0.0029
3634.00,0.0030
3633.00,0.0030
3632.00,0.0031
3631.00,0.0031
3630.00,0.0031
3629.00,0.0032
3628.00,0.0033
3627.00,0.0034
3626.00,0.0034
3625.00,0.0034
3624.00,0.0035
3623.00,0.0035
3622.00,0.0036
3621.00,0.0037
3620.00,0.0037
3619.00,0.0038
3618.00,0.0039
3617.00,0.0039
3616.00,0.0040
3615.00,0.0041
3614.00,0.0042
3613.00,0.0043
3612.00,0.0044
3611.00,0.0044
3610.00,0.0045
3609.00,0.0046
3608.00,0.0046
3607.00,0.0047
3606.00,0.0048
3605.00,0.0049
3604.00,0.0049
3603.00,0.0049
3602.00,0.0050
3601.00,0.0050
3600.00,0.0051
3599.00,0.0052
3598.00,0.0052
3597.00,0.0053
3596.00,0.0053
3595.00,0.0054
3594.00,0.0055
3593.00,0.0056
3592.00,0.0056
3591.00,0.0057
3590.00,0.0057
3589.00,0.0058
3588.00,0.0059
3587.00,0.0060
3586.00,0.0061
3585.00,0.0062
3584.00,0.0063
3583.00,0.0063
3582.00,0.0064
3581.00,0.0065
3580.00,0.0066
3579.00,0.0067
3578.00,0.0068
3577.00,0.0069
3576.00,0.0069
3575.00,0.0070
3574.00,0.0071
3573.00,0.0072
3572.00,0.0072
3571.00,0.0072
3570.00,0.0073
3569.00,0.0073
3568.00,0.0074
3567.00,0.0075
3566.00,0.0076
3565.00,0.0077
3564.00,0.0078
3563.00,0.0079
3562.00,0.0080
3561.00,0.0081
3560.00,0.0082
3559.00,0.0083
3558.00,0.0084
3557.00,0.0085
3556.00,0.0086
3555.00,0.0086
3554.00,0.0087
3553.00,0.0087
3552.00,0.0088
3551.00,0.0089
3550.00,0.0090
3549.00,0.0090
3548.00,0.0091
3547.00,0.0092
3546.00,0.0093
3545.00,0.0094
3544.00,0.0094
3543.00,0.0095
3542.00,0.0096
3541.00,0.0097
3540.00,0.0097
3539.00,0.0098
3538.00,0.0099
3537.00,0.0099
3536.00,0.0100
3535.00,0.0101
3534.00,0.0102
3533.00,0.0102
3532.00,0.0103
3531.00,0.0104
3530.00,0.0104
3529.00,0.0105
3528.00,0.0106
3527.00,0.0106
3526.00,0.0107
3525.00,0.0108
3524.00,0.0109
3523.00,0.0110
3522.00,0.0111
3521.00,0.0112
3520.00,0.0112
3519.00,0.0113
3518.00,0.0114
3517.00,0.0114
3516.00,0.0115
3515.00,0.0116
3514.00,0.0117
3513.00,0.0118
3512.00,0.0119
3511.00,0.0119
3510.00,0.0119
3509.00,0.0120
3508.00,0.0121
3507.00,0.0121
3506.00,0.0122
3505.00,0.0122
3504.00,0.0123
3503.00,0.0125
3502.00,0.0126
3501.00,0.0127
3500.00,0.0127
3499.00,0.0127
3498.00,0.0128
3497.00,0.0129
3496.00,0.0130
3495.00,0.0130
3494.00,0.0131
3493.00,0.0132
3492.00,0.0133
3491.00,0.0134
3490.00,0.0134
3489.00,0.0135
3488.00,0.0135
3487.00,0.0136
3486.00,0.0137
3485.00,0.0138
3484.00,0.0138
3483.00,0.0139
3482.00,0.0140
3481.00,0.0141
3480.00,0.0142
3479.00,0.0143
3478.00,0.0144
3477.00,0.0144
3476.00,0.0145
3475.00,0.0146
3474.00,0.0147
3473.00,0.0147
3472.00,0.0148
3471.00,0.0149
3470.00,0.0150
3469.00,0.0151
3468.00,0.0152
3467.00,0.0153
3466.00,0.0153
3465.00,0.0154
3464.00,0.0155
3463.00,0.0155
3462.00,0.0156
3461.00,0.0157
3460.00,0.0158
3459.00,0.0158
3458.00,0.0159
3457.00,0.0160
3456.00,0.0161
3455.00,0.0161
3454.00,0.0162
3453.00,0.0163
3452.00,0.0164
3451.00,0.0164
3450.00,0.0165
3449.00,0.0165
3448.00,0.0166
3447.00,0.0167
3446.00,0.0168
3445.00,0.0169
3444.00,0.0170
3443.00,0.0171
3442.00,0.0172
3441.00,0.0172
3440.00,0.0173
3439.00,0.0173
3438.00,0.0174
3437.00,0.0175
3436.00,0.0176
3435.00,0.0177
3434.00,0.0178
3433.00,0.0179
3432.00,0.0180
3431.00,0.0181
3430.00,0.0181
3429.00,0.0182
3428.00,0.0183
3427.00,0.0184
3426.00,0.0184
3425.00,0.0185
3424.00,0.0186
3423.00,0.0187
3422.00,0.0188
3421.00,0.0189
3420.00,0.0189
3419.00,0.0190
3418.00,0.0191
3417.00,0.0192
3416.00,0.0193
3415.00,0.0194
3414.00,0.0195
3413.00,0.0195
3412.00,0.0196
3411.00,0.0197
3410.00,0.0197
3409.00,0.0198
3408.00,0.0199
3407.00,0.0200
3406.00,0.0200
3405.00,0.0201
3404.00,0.0202
3403.00,0.0202
3402.00,0.0203
3401.00,0.0204
3400.00,0.0205
3399.00,0.0206
3398.00,0.0206
3397.00,0.0207
3396.00,0.0208
3395.00,0.0209
3394.00,0.0209
3393.00,0.0210
3392.00,0.0211
3391.00,0.0212
3390.00,0.0213
3389.00,0.0214
3388.00,0.0215
3387.00,0.0216
3386.00,0.0217
3385.00,0.0217
3384.00,0.0218
3383.00,0.0219
3382.00,0.0220
3381.00,0.0221
3380.00,0.0222
3379.00,0.0223
3378.00,0.0224
3377.00,0.0224
3376.00,0.0225
3375.00,0.0226
3374.00,0.0227
3373.00,0.0228
3372.00,0.0229
3371.00,0.0230
3370.00,0.0231
3369.00,0.0232
3368.00,0.0233
3367.00,0.0234
3366.00,0.0236
3365.00,0.0237
3364.00,0.0238
3363.00,0.0239
3362.00,0.0241
3361.00,0.0242
3360.00,0.0243
3359.00,0.0245
3358.00,0.0246
3357.00,0.0247
3356.00,0.0249
3355.00,0.0250
3354.00,0.0251
3353.00,0.0252
3352.00,0.0253
3351.00,0.0254
3350.00,0.0255
3349.00,0.0256
3348.00,0.0258
3347.00,0.0260
3346.00,0.0261
3345.00,0.0262
3344.00,0.0264
3343.00,0.0265
3342.00,0.0266
3341.00,0.0268
3340.00,0.0269
3339.00,0.0270
3338.00,0.0272
3337.00,0.0274
3336.00,0.0276
3335.00,0.0278
3334.00,0.0280
3333.00,0.0281
3332.00,0.0283
3331.00,0.0285
3330.00,0.0286
3329.00,0.0288
3328.00,0.0289
3327.00,0.0291
3326.00,0.0292
3325.00,0.0294
3324.00,0.0296
3323.00,0.0299
3322.00,0.0301
3321.00,0.0303
3320.00,0.0305
3319.00,0.0307
3318.00,0.0309
3317.00,0.0311
3316.00,0.0313
3315.00,0.0315
3314.00,0.0317
3313.00,0.0319
3312.00,0.0322
3311.00,0.0324
3310.00,0.0326
3309.00,0.0327
3308.00,0.0330
3307.00,0.0332
3306.00,0.0334
3305.00,0.0336
3304.00,0.0339
3303.00,0.0342
3302.00,0.0345
3301.00,0.0348
3300.00,0.0350
3299.00,0.0352
3298.00,0.0354
3297.00,0.0356
3296.00,0.0358
3295.00,0.0360
3294.00,0.0362
3293.00,0.0364
3292.00,0.0367
3291.00,0.0369
3290.00,0.0372
3289.00,0.0374
3288.00,0.0376
3287.00,0.0377
3286.00,0.0379
3285.00,0.0381
3284.00,0.0383
3283.00,0.0384
3282.00,0.0385
3281.00,0.0387
3280.00,0.0388
3279.00,0.0388
3278.00,0.0389
3277.00,0.0390
3276.00,0.0390
3275.00,0.0390
3274.00,0.0390
3273.00,0.0390
3272.00,0.0389
3271.00,0.0389
3270.00,0.0389
3269.00,0.0389
3268.00,0.0388
3267.00,0.0387
3266.00,0.0386
3265.00,0.0385
3264.00,0.0384
3263.00,0.0382
3262.00,0.0381
3261.00,0.0379
3260.00,0.0377
3259.00,0.0375
3258.00,0.0372
3257.00,0.0370
3256.00,0.0368
3255.00,0.0366
3254.00,0.0364
3253.00,0.0362
3252.00,0.0360
3251.00,0.0358
3250.00,0.0355
3249.00,0.0352
3248.00,0.0350
3247.00,0.0348
3246.00,0.0346
3245.00,0.0344
3244.00,0.0343
3243.00,0.0341
3242.00,0.0339
3241.00,0.0337
3240.00,0.0335
3239.00,0.0333
3238.00,0.0331
3237.00,0.0328
3236.00,0.0326
3235.00,0.0323
3234.00,0.0321
3233.00,0.0320
3232.00,0.0319
3231.00,0.0318
3230.00,0.0317
3229.00,0.0315
3228.00,0.0313
3227.00,0.0312
3226.00,0.0310
3225.00,0.0309
3224.00,0.0307
3223.00,0.0305
3222.00,0.0304
3221.00,0.0302
3220.00,0.0300
3219.00,0.0299
3218.00,0.0298
3217.00,0.0296
3216.00,0.0295
3215.00,0.0293
3214.00,0.0292
3213.00,0.0291
3212.00,0.0289
3211.00,0.0288
3210.00,0.0287
3209.00,0.0285
3208.00,0.0284
3207.00,0.0282
3206.00,0.0281
3205.00,0.0279
3204.00,0.0278
3203.00,0.0277
3202.00,0.0275
3201.00,0.0274
3200.00,0.0272
3199.00,0.0271
3198.00,0.0270
3197.00,0.0268
3196.00,0.0267
3195.00,0.0266
3194.00,0.0264
3193.00,0.0263
3192.00,0.0262
3191.00,0.0260
3190.00,0.0259
3189.00,0.0257
3188.00,0.0256
3187.00,0.0255
3186.00,0.0253
3185.00,0.0252
3184.00,0.0251
3183.00,0.0249
3182.00,0.0248
3181.00,0.0247
3180.00,0.0246
3179.00,0.0245
3178.00,0.0243
3177.00,0.0242
3176.00,0.0241
3175.00,0.0240
3174.00,0.0238
3173.00,0.0237
3172.00,0.0235
3171.00,0.0234
3170.00,0.0233
3169.00,0.0232
3168.00,0.0231
3167.00,0.0230
3166.00,0.0229
3165.00,0.0228
3164.00,0.0226
3163.00,0.0225
3162.00,0.0224
3161.00,0.0223
3160.00,0.0222
3159.00,0.0220
3158.00,0.0219
3157.00,0.0218
3156.00,0.0217
3155.00,0.0216
3154.00,0.0215
3153.00,0.0214
3152.00,0.0213
3151.00,0.0213
3150.00,0.0212
3149.00,0.0211
3148.00,0.0210
3147.00,0.0209
3146.00,0.0208
3145.00,0.0207
3144.00,0.0206
3143.00,0.0205
3142.00,0.0204
3141.00,0.0203
3140.00,0.0203
3139.00,0.0202
3138.00,0.0202
3137.00,0.0201
3136.00,0.0201
3135.00,0.0200
3134.00,0.0200
3133.00,0.0199
3132.00,0.0198
3131.00,0.0197
3130.00,0.0197
3129.00,0.0196
3128.00,0.0196
3127.00,0.0196
3126.00,0.0195
3125.00,0.0195
3124.00,0.0194
3123.00,0.0193
3122.00,0.0193
3121.00,0.0192
3120.00,0.0192
3119.00,0.0192
3118.00,0.0192
3117.00,0.0192
3116.00,0.0192
3115.00,0.0192
3114.00,0.0192
3113.00,0.0192
3112.00,0.0192
3111.00,0.0192
3110.00,0.0193
3109.00,0.0193
3108.00,0.0193
3107.00,0.0193
3106.00,0.0194
3105.00,0.0194
3104.00,0.0194
3103.00,0.0194
3102.00,0.0194
3101.00,0.0194
3100.00,0.0195
3099.00,0.0195
3098.00,0.0196
3097.00,0.0196
3096.00,0.0197
3095.00,0.0197
3094.00,0.0198
3093.00,0.0198
3092.00,0.0198
3091.00,0.0198
3090.00,0.0198
3089.00,0.0198
3088.00,0.0198
3087.00,0.0198
3086.00,0.0198
3085.00,0.0198
3084.00,0.0198
3083.00,0.0198
3082.00,0.0198
3081.00,0.0198
3080.00,0.0198
3079.00,0.0198
3078.00,0.0199
3077.00,0.0199
3076.00,0.0199
3075.00,0.0200
3074.00,0.0200
3073.00,0.0199
3072.00,0.0199
3071.00,0.0199
3070.00,0.0198
3069.00,0.0197
3068.00,0.0196
3067.00,0.0196
3066.00,0.0195
3065.00,0.0195
3064.00,0.0195
3063.00,0.0195
3062.00,0.0194
3061.00,0.0193
3060.00,0.0192
3059.00,0.0191
3058.00,0.0190
3057.00,0.0189
3056.00,0.0188
3055.00,0.0187
3054.00,0.0186
3053.00,0.0185
3052.00,0.0184
3051.00,0.0183
3050.00,0.0182
3049.00,0.0181
3048.00,0.0180
3047.00,0.0178
3046.00,0.0177
3045.00,0.0175
3044.00,0.0174
3043.00,0.0173
3042.00,0.0172
3041.00,0.0172
3040.00,0.0172
3039.00,0.0171
3038.00,0.0170
3037.00,0.0169
3036.00,0.0168
3035.00,0.0167
3034.00,0.0167
3033.00,0.0166
3032.00,0.0165
3031.00,0.0165
3030.00,0.0164
3029.00,0.0164
3028.00,0.0163
3027.00,0.0162
3026.00,0.0161
3025.00,0.0160
3024.00,0.0159
3023.00,0.0158
3022.00,0.0157
3021.00,0.0156
3020.00,0.0155
3019.00,0.0154
3018.00,0.0153
3017.00,0.0152
3016.00,0.0152
3015.00,0.0151
3014.00,0.0150
3013.00,0.0149
3012.00,0.0149
3011.00,0.0149
3010.00,0.0149
3009.00,0.0149
3008.00,0.0149
3007.00,0.0149
3006.00,0.0149
3005.00,0.0149
3004.00,0.0149
3003.00,0.0149
3002.00,0.0149
3001.00,0.0149
3000.00,0.0149
2999.00,0.0149
2998.00,0.0150
2997.00,0.0150
2996.00,0.0151
2995.00,0.0152
2994.00,0.0153
2993.00,0.0154
2992.00,0.0155
2991.00,0.0157
2990.00,0.0159
2989.00,0.0160
2988.00,0.0162
2987.00,0.0164
2986.00,0.0166
2985.00,0.0168
2984.00,0.0170
2983.00,0.0172
2982.00,0.0174
2981.00,0.0176
2980.00,0.0179
2979.00,0.0181
2978.00,0.0184
2977.00,0.0186
2976.00,0.0189
2975.00,0.0191
2974.00,0.0194
2973.00,0.0196
2972.00,0.0199
2971.00,0.0201
2970.00,0.0204
2969.00,0.0206
2968.00,0.0208
2967.00,0.0210
2966.00,0.0211
2965.00,0.0213
2964.00,0.0214
2963.00,0.0215
2962.00,0.0215
2961.00,0.0215
2960.00,0.0215
2959.00,0.0214
2958.00,0.0214
2957.00,0.0212
2956.00,0.0211
2955.00,0.0209
2954.00,0.0208
2953.00,0.0206
2952.00,0.0205
2951.00,0.0204
2950.00,0.0203
2949.00,0.0203
2948.00,0.0202
2947.00,0.0203
2946.00,0.0203
2945.00,0.0204
2944.00,0.0206
2943.00,0.0208
2942.00,0.0210
2941.00,0.0212
2940.00,0.0214
2939.00,0.0216
2938.00,0.0218
2937.00,0.0220
2936.00,0.0222
2935.00,0.0223
2934.00,0.0224
2933.00,0.0225
2932.00,0.0226
2931.00,0.0226
2930.00,0.0226
2929.00,0.0226
2928.00,0.0226
2927.00,0.0226
2926.00,0.0225
2925.00,0.0224
2924.00,0.0222
2923.00,0.0220
2922.00,0.0218
2921.00,0.0216
2920.00,0.0213
2919.00,0.0211
2918.00,0.0208
2917.00,0.0204
2916.00,0.0201
2915.00,0.0198
2914.00,0.0195
2913.00,0.0193
2912.00,0.0190
2911.00,0.0187
2910.00,0.0185
2909.00,0.0182
2908.00,0.0180
2907.00,0.0178
2906.00,0.0176
2905.00,0.0174
2904.00,0.0172
2903.00,0.0171
2902.00,0.0170
2901.00,0.0168
2900.00,0.0167
2899.00,0.0165
2898.00,0.0164
2897.00,0.0163
2896.00,0.0162
2895.00,0.0161
2894.00,0.0160
2893.00,0.0159
2892.00,0.0158
2891.00,0.0158
2890.00,0.0157
2889.00,0.0157
2888.00,0.0157
2887.00,0.0157
2886.00,0.0157
2885.00,0.0157
2884.00,0.0157
2883.00,0.0158
2882.00,0.0159
2881.00,0.0160
2880.00,0.0160
2879.00,0.0161
2878.00,0.0161
2877.00,0.0161
2876.00,0.0162
2875.00,0.0162
2874.00,0.0161
2873.00,0.0161
2872.00,0.0160
2871.00,0.0159
2870.00,0.0158
2869.00,0.0156
2868.00,0.0154
2867.00,0.0153
2866.00,0.0151
2865.00,0.0150
2864.00,0.0149
2863.00,0.0148
2862.00,0.0147
2861.00,0.0146
2860.00,0.0146
2859.00,0.0145
2858.00,0.0145
2857.00,0.0145
2856.00,0.0145
2855.00,0.0144
2854.00,0.0143
2853.00,0.0142
2852.00,0.0140
2851.00,0.0138
2850.00,0.0136
2849.00,0.0133
2848.00,0.0131
2847.00,0.0128
2846.00,0.0126
2845.00,0.0123
2844.00,0.0121
2843.00,0.0119
2842.00,0.0117
2841.00,0.0115
2840.00,0.0114
2839.00,0.0112
2838.00,0.0111
2837.00,0.0110
2836.00,0.0109
2835.00,0.0109
2834.00,0.0108
2833.00,0.0107
2832.00,0.0107
2831.00,0.0106
2830.00,0.0106
2829.00,0.0105
2828.00,0.0105
2827.00,0.0104
2826.00,0.0103
2825.00,0.0103
2824.00,0.0103
2823.00,0.0102
2822.00,0.0102
2821.00,0.0101
2820.00,0.0101
2819.00,0.0101
2818.00,0.0100
2817.00,0.0100
2816.00,0.0100
2815.00,0.0099
2814.00,0.0099
2813.00,0.0099
2812.00,0.0098
2811.00,0.0098
2810.00,0.0097
2809.00,0.0097
2808.00,0.0097
2807.00,0.0097
2806.00,0.0096
2805.00,0.0096
2804.00,0.0096
2803.00,0.0095
2802.00,0.0095
2801.00,0.0094
2800.00,0.0094
2799.00,0.0094
2798.00,0.0093
2797.00,0.0093
2796.00,0.0093
2795.00,0.0092
2794.00,0.0092
2793.00,0.0091
2792.00,0.0091
2791.00,0.0090
2790.00,0.0090
2789.00,0.0090
2788.00,0.0090
2787.00,0.0090
2786.00,0.0090
2785.00,0.0089
2784.00,0.0089
2783.00,0.0088
2782.00,0.0088
2781.00,0.0088
2780.00,0.0087
2779.00,0.0087
2778.00,0.0087
2777.00,0.0087
2776.00,0.0086
2775.00,0.0085
2774.00,0.0085
2773.00,0.0085
2772.00,0.0084
2771.00,0.0084
2770.00,0.0084
2769.00,0.0084
2768.00,0.0083
2767.00,0.0083
2766.00,0.0083
2765.00,0.0082
2764.00,0.0082
2763.00,0.0082
2762.00,0.0081
2761.00,0.0081
2760.00,0.0080
2759.00,0.0080
2758.00,0.0080
2757.00,0.0080
2756.00,0.0079
2755.00,0.0079
2754.00,0.0079
2753.00,0.0078
2752.00,0.0078
2751.00,0.0078
2750.00,0.0078
2749.00,0.0077
2748.00,0.0077
2747.00,0.0077
2746.00,0.0076
2745.00,0.0076
2744.00,0.0076
2743.00,0.0075
2742.00,0.0075
2741.00,0.0074
2740.00,0.0074
2739.00,0.0074
2738.00,0.0074
2737.00,0.0074
2736.00,0.0073
2735.00,0.0073
2734.00,0.0073
2733.00,0.0072
2732.00,0.0072
2731.00,0.0072
2730.00,0.0071
2729.00,0.0071
2728.00,0.0071
2727.00,0.0071
2726.00,0.0070
2725.00,0.0070
2724.00,0.0070
2723.00,0.0070
2722.00,0.0069
2721.00,0.0069
2720.00,0.0069
2719.00,0.0068
2718.00,0.0068
2717.00,0.0068
2716.00,0.0067
2715.00,0.0067
2714.00,0.0067
2713.00,0.0066
2712.00,0.0066
2711.00,0.0066
2710.00,0.0065
2709.00,0.0065
2708.00,0.0065
2707.00,0.0065
2706.00,0.0065
2705.00,0.0065
2704.00,0.0065
2703.00,0.0064
2702.00,0.0064
2701.00,0.0064
2700.00,0.0064
2699.00,0.0064
2698.00,0.0064
2697.00,0.0064
2696.00,0.0064
2695.00,0.0063
2694.00,0.0063
2693.00,0.0063
2692.00,0.0063
2691.00,0.0063
2690.00,0.0062
2689.00,0.0062
2688.00,0.0062
2687.00,0.0062
2686.00,0.0062
2685.00,0.0062
2684.00,0.0062
2683.00,0.0062
2682.00,0.0061
2681.00,0.0061
2680.00,0.0061
2679.00,0.0061
2678.00,0.0061
2677.00,0.0060
2676.00,0.0060
2675.00,0.0060
2674.00,0.0060
2673.00,0.0060
2672.00,0.0060
2671.00,0.0060
2670.00,0.0060
2669.00,0.0060
2668.00,0.0061
2667.00,0.0061
2666.00,0.0061
2665.00,0.0062
2664.00,0.0062
2663.00,0.0062
2662.00,0.0062
2661.00,0.0063
2660.00,0.0063
2659.00,0.0064
2658.00,0.0064
2657.00,0.0064
2656.00,0.0065
2655.00,0.0065
2654.00,0.0065
2653.00,0.0065
2652.00,0.0064
2651.00,0.0064
2650.00,0.0064
2649.00,0.0064
2648.00,0.0064
2647.00,0.0064
2646.00,0.0064
2645.00,0.0064
2644.00,0.0064
2643.00,0.0063
2642.00,0.0063
2641.00,0.0063
2640.00,0.0063
2639.00,0.0063
2638.00,0.0062
2637.00,0.0062
2636.00,0.0062
2635.00,0.0062
2634.00,0.0062
2633.00,0.0062
2632.00,0.0062
2631.00,0.0062
2630.00,0.0062
2629.00,0.0061
2628.00,0.0061
2627.00,0.0061
2626.00,0.0061
2625.00,0.0061
2624.00,0.0061
2623.00,0.0061
2622.00,0.0060
2621.00,0.0060
2620.00,0.0060
2619.00,0.0060
2618.00,0.0059
2617.00,0.0059
2616.00,0.0059
2615.00,0.0058
2614.00,0.0058
2613.00,0.0058
2612.00,0.0058
2611.00,0.0058
2610.00,0.0058
2609.00,0.0058
2608.00,0.0057
2607.00,0.0057
2606.00,0.0056
2605.00,0.0056
2604.00,0.0056
2603.00,0.0056
2602.00,0.0056
2601.00,0.0055
2600.00,0.0055
2599.00,0.0055
2598.00,0.0055
2597.00,0.0055
2596.00,0.0055
2595.00,0.0055
2594.00,0.0054
2593.00,0.0054
2592.00,0.0054
2591.00,0.0053
2590.00,0.0053
2589.00,0.0053
2588.00,0.0053
2587.00,0.0053
2586.00,0.0052
2585.00,0.0052
2584.00,0.0052
2583.00,0.0052
2582.00,0.0052
2581.00,0.0052
2580.00,0.0051
2579.00,0.0051
2578.00,0.0051
2577.00,0.0051
2576.00,0.0050
2575.00,0.0050
2574.00,0.0050
2573.00,0.0050
2572.00,0.0050
2571.00,0.0049
2570.00,0.0049
2569.00,0.0049
2568.00,0.0049
2567.00,0.0049
2566.00,0.0049
2565.00,0.0049
2564.00,0.0049
2563.00,0.0048
2562.00,0.0048
2561.00,0.0048
2560.00,0.0047
2559.00,0.0047
2558.00,0.0047
2557.00,0.0046
2556.00,0.0046
2555.00,0.0046
2554.00,0.0046
2553.00,0.0046
2552.00,0.0046
2551.00,0.0046
2550.00,0.0046
2549.00,0.0046
2548.00,0.0046
2547.00,0.0045
2546.00,0.0045
2545.00,0.0045
2544.00,0.0044
2543.00,0.0044
2542.00,0.0044
2541.00,0.0044
2540.00,0.0044
2539.00,0.0044
2538.00,0.0044
2537.00,0.0044
2536.00,0.0043
2535.00,0.0044
2534.00,0.0044
2533.00,0.0043
2532.00,0.0043
2531.00,0.0043
2530.00,0.0043
2529.00,0.0042
2528.00,0.0042
2527.00,0.0042
2526.00,0.0041
2525.00,0.0041
2524.00,0.0042
2523.00,0.0042
2522.00,0.0041
2521.00,0.0042
2520.00,0.0042
2519.00,0.0042
2518.00,0.0041
2517.00,0.0041
2516.00,0.0041
2515.00,0.0041
2514.00,0.0041
2513.00,0.0041
2512.00,0.0041
2511.00,0.0040
2510.00,0.0040
2509.00,0.0040
2508.00,0.0040
2507.00,0.0040
2506.00,0.0040
2505.00,0.0040
2504.00,0.0040
2503.00,0.0040
2502.00,0.0040
2501.00,0.0039
2500.00,0.0039
2499.00,0.0039
2498.00,0.0039
2497.00,0.0038
2496.00,0.0039
2495.00,0.0039
2494.00,0.0039
2493.00,0.0039
2492.00,0.0038
2491.00,0.0038
2490.00,0.0038
2489.00,0.0038
2488.00,0.0038
2487.00,0.0038
2486.00,0.0037
2485.00,0.0037
2484.00,0.0037
2483.00,0.0037
2482.00,0.0036
2481.00,0.0036
2480.00,0.0037
2479.00,0.0037
2478.00,0.0037
2477.00,0.0037
2476.00,0.0037
2475.00,0.0036
2474.00,0.0036
2473.00,0.0036
2472.00,0.0036
2471.00,0.0036
2470.00,0.0036
2469.00,0.0036
2468.00,0.0036
2467.00,0.0036
2466.00,0.0035
2465.00,0.0035
2464.00,0.0035
2463.00,0.0035
2462.00,0.0036
2461.00,0.0036
2460.00,0.0036
2459.00,0.0036
2458.00,0.0035
2457.00,0.0035
2456.00,0.0036
2455.00,0.0035
2454.00,0.0035
2453.00,0.0035
2452.00,0.0035
2451.00,0.0035
2450.00,0.0034
2449.00,0.0034
2448.00,0.0034
2447.00,0.0034
2446.00,0.0034
2445.00,0.0034
2444.00,0.0034
2443.00,0.0033
2442.00,0.0033
2441.00,0.0032
2440.00,0.0032
2439.00,0.0031
2438.00,0.0031
2437.00,0.0030
2436.00,0.0030
2435.00,0.0030
2434.00,0.0030
2433.00,0.0030
2432.00,0.0030
2431.00,0.0030
2430.00,0.0030
2429.00,0.0030
2428.00,0.0030
2427.00,0.0030
2426.00,0.0029
2425.00,0.0029
2424.00,0.0029
2423.00,0.0029
2422.00,0.0028
2421.00,0.0028
2420.00,0.0028
2419.00,0.0028
2418.00,0.0028
2417.00,0.0028
2416.00,0.0028
2415.00,0.0028
2414.00,0.0028
2413.00,0.0028
2412.00,0.0028
2411.00,0.0027
2410.00,0.0026
2409.00,0.0025
2408.00,0.0025
2407.00,0.0024
2406.00,0.0024
2405.00,0.0024
2404.00,0.0024
2403.00,0.0024
2402.00,0.0024
2401.00,0.0024
2400.00,0.0024
2399.00,0.0024
2398.00,0.0024
2397.00,0.0024
2396.00,0.0024
2395.00,0.0024
2394.00,0.0023
2393.00,0.0024
2392.00,0.0023
2391.00,0.0023
2390.00,0.0023
2389.00,0.0023
2388.00,0.0022
2387.00,0.0022
2386.00,0.0021
2385.00,0.0020
2384.00,0.0019
2383.00,0.0018
2382.00,0.0017
2381.00,0.0016
2380.00,0.0015
2379.00,0.0015
2378.00,0.0015
2377.00,0.0015
2376.00,0.0015
2375.00,0.0015
2374.00,0.0015
2373.00,0.0014
2372.00,0.0014
2371.00,0.0013
2370.00,0.0012
2369.00,0.0012
2368.00,0.0011
2367.00,0.0011
2366.00,0.0011
2365.00,0.0012
2364.00,0.0012
2363.00,0.0012
2362.00,0.0012
2361.00,0.0013
2360.00,0.0013
2359.00,0.0013
2358.00,0.0013
2357.00,0.0013
2356.00,0.0013
2355.00,0.0013
2354.00,0.0013
2353.00,0.0013
2352.00,0.0013
2351.00,0.0013
2350.00,0.0013
2349.00,0.0014
2348.00,0.0014
2347.00,0.0015
2346.00,0.0015
2345.00,0.0016
2344.00,0.0016
2343.00,0.0016
2342.00,0.0016
2341.00,0.0016
2340.00,0.0017
2339.00,0.0017
2338.00,0.0018
2337.00,0.0018
2336.00,0.0019
2335.00,0.0019
2334.00,0.0019
2333.00,0.0019
2332.00,0.0019
2331.00,0.0018
2330.00,0.0019
2329.00,0.0021
2328.00,0.0025
2327.00,0.0030
2326.00,0.0034
2325.00,0.0035
2324.00,0.0033
2323.00,0.0030
2322.00,0.0028
2321.00,0.0026
2320.00,0.0025
2319.00,0.0025
2318.00,0.0025
2317.00,0.0024
2316.00,0.0024
2315.00,0.0024
2314.00,0.0023
2313.00,0.0022
2312.00,0.0022
2311.00,0.0022
2310.00,0.0022
2309.00,0.0021
2308.00,0.0021
2307.00,0.0021
2306.00,0.0022
2305.00,0.0022
2304.00,0.0023
2303.00,0.0024
2302.00,0.0024
2301.00,0.0024
2300.00,0.0024
2299.00,0.0024
2298.00,0.0025
2297.00,0.0026
2296.00,0.0027
2295.00,0.0028
2294.00,0.0030
2293.00,0.0031
2292.00,0.0032
2291.00,0.0033
2290.00,0.0034
2289.00,0.0034
2288.00,0.0035
2287.00,0.0035
2286.00,0.0035
2285.00,0.0035
2284.00,0.0034
2283.00,0.0033
2282.00,0.0032
2281.00,0.0031
2280.00,0.0030
2279.00,0.0030
2278.00,0.0030
2277.00,0.0029
2276.00,0.0030
2275.00,0.0030
2274.00,0.0029
2273.00,0.0029
2272.00,0.0029
2271.00,0.0029
2270.00,0.0029
2269.00,0.0029
2268.00,0.0029
2267.00,0.0028
2266.00,0.0026
2265.00,0.0025
2264.00,0.0025
2263.00,0.0025
2262.00,0.0026
2261.00,0.0027
2260.00,0.0027
2259.00,0.0027
2258.00,0.0025
2257.00,0.0024
2256.00,0.0023
2255.00,0.0022
2254.00,0.0023
2253.00,0.0023
2252.00,0.0023
2251.00,0.0024
2250.00,0.0024
2249.00,0.0024
2248.00,0.0025
2247.00,0.0025
2246.00,0.0025
2245.00,0.0025
2244.00,0.0024
2243.00,0.0024
2242.00,0.0023
2241.00,0.0023
2240.00,0.0023
2239.00,0.0024
2238.00,0.0024
2237.00,0.0025
2236.00,0.0025
2235.00,0.0025
2234.00,0.0025
2233.00,0.0024
2232.00,0.0024
2231.00,0.0023
2230.00,0.0023
2229.00,0.0023
2228.00,0.0023
2227.00,0.0023
2226.00,0.0024
2225.00,0.0024
2224.00,0.0024
2223.00,0.0023
2222.00,0.0023
2221.00,0.0022
2220.00,0.0022
2219.00,0.0022
2218.00,0.0022
2217.00,0.0023
2216.00,0.0023
2215.00,0.0023
2214.00,0.0023
2213.00,0.0022
2212.00,0.0023
2211.00,0.0022
2210.00,0.0022
2209.00,0.0022
2208.00,0.0021
2207.00,0.0021
2206.00,0.0021
2205.00,0.0021
2204.00,0.0021
2203.00,0.0021
2202.00,0.0021
2201.00,0.0021
2200.00,0.0021
2199.00,0.0021
2198.00,0.0021
2197.00,0.0021
2196.00,0.0022
2195.00,0.0022
2194.00,0.0023
2193.00,0.0024
2192.00,0.0026
2191.00,0.0027
2190.00,0.0027
2189.00,0.0027
2188.00,0.0027
2187.00,0.0028
2186.00,0.0027
2185.00,0.0025
2184.00,0.0023
2183.00,0.0020
2182.00,0.0018
2181.00,0.0018
2180.00,0.0020
2179.00,0.0020
2178.00,0.0020
2177.00,0.0017
2176.00,0.0016
2175.00,0.0016
2174.00,0.0018
2173.00,0.0020
2172.00,0.0023
2171.00,0.0025
2170.00,0.0026
2169.00,0.0028
2168.00,0.0030
2167.00,0.0032
2166.00,0.0034
2165.00,0.0037
2164.00,0.0040
2163.00,0.0038
2162.00,0.0030
2161.00,0.0015
2160.00,-0.0002
2159.00,-0.0015
2158.00,-0.0022
2157.00,-0.0021
2156.00,-0.0018
2155.00,-0.0015
2154.00,-0.0012
2153.00,-0.0010
2152.00,-0.0007
2151.00,-0.0005
2150.00,-0.0004
2149.00,-0.0004
2148.00,-0.0004
2147.00,-0.0003
2146.00,-0.0003
2145.00,-0.0003
2144.00,-0.0003
2143.00,-0.0003
2142.00,-0.0003
2141.00,-0.0002
2140.00,-0.0001
2139.00,-0.0001
2138.00,-0.0002
2137.00,-0.0003
2136.00,-0.0005
2135.00,-0.0007
2134.00,-0.0007
2133.00,-0.0005
2132.00,-0.0003
2131.00,-0.0001
2130.00,0.0001
2129.00,0.0003
2128.00,0.0005
2127.00,0.0007
2126.00,0.0008
2125.00,0.0009
2124.00,0.0010
2123.00,0.0011
2122.00,0.0012
2121.00,0.0014
2120.00,0.0015
2119.00,0.0017
2118.00,0.0018
2117.00,0.0019
2116.00,0.0020
2115.00,0.0021
2114.00,0.0021
2113.00,0.0021
2112.00,0.0021
2111.00,0.0021
2110.00,0.0020
2109.00,0.0020
2108.00,0.0020
2107.00,0.0021
2106.00,0.0021
2105.00,0.0021
2104.00,0.0021
2103.00,0.0021
2102.00,0.0021
2101.00,0.0020
2100.00,0.0020
2099.00,0.0018
2098.00,0.0016
2097.00,0.0014
2096.00,0.0013
2095.00,0.0012
2094.00,0.0013
2093.00,0.0014
2092.00,0.0015
2091.00,0.0016
2090.00,0.0017
2089.00,0.0019
2088.00,0.0021
2087.00,0.0022
2086.00,0.0022
2085.00,0.0022
2084.00,0.0022
2083.00,0.0023
2082.00,0.0023
2081.00,0.0023
2080.00,0.0023
2079.00,0.0023
2078.00,0.0023
2077.00,0.0023
2076.00,0.0023
2075.00,0.0022
2074.00,0.0021
2073.00,0.0020
2072.00,0.0020
2071.00,0.0019
2070.00,0.0019
2069.00,0.0019
2068.00,0.0019
2067.00,0.0019
2066.00,0.0019
2065.00,0.0018
2064.00,0.0018
2063.00,0.0018
2062.00,0.0018
2061.00,0.0018
2060.00,0.0018
2059.00,0.0018
2058.00,0.0018
2057.00,0.0019
2056.00,0.0020
2055.00,0.0021
2054.00,0.0025
2053.00,0.0029
2052.00,0.0033
2051.00,0.0031
2050.00,0.0027
2049.00,0.0022
2048.00,0.0020
2047.00,0.0019
2046.00,0.0019
2045.00,0.0020
2044.00,0.0020
2043.00,0.0021
2042.00,0.0021
2041.00,0.0022
2040.00,0.0023
2039.00,0.0023
2038.00,0.0022
2037.00,0.0021
2036.00,0.0018
2035.00,0.0015
2034.00,0.0012
2033.00,0.0011
2032.00,0.0011
2031.00,0.0010
2030.00,0.0010
2029.00,0.0009
2028.00,0.0008
2027.00,0.0008
2026.00,0.0007
2025.00,0.0007
2024.00,0.0008
2023.00,0.0008
2022.00,0.0008
2021.00,0.0009
2020.00,0.0010
2019.00,0.0010
2018.00,0.0009
2017.00,0.0009
2016.00,0.0010
2015.00,0.0011
2014.00,0.0011
2013.00,0.0011
2012.00,0.0012
2011.00,0.0012
2010.00,0.0010
2009.00,0.0008
2008.00,0.0004
2007.00,0.0001
2006.00,-0.0000
2005.00,0.0000
2004.00,0.0002
2003.00,0.0004
2002.00,0.0005
2001.00,0.0006
2000.00,0.0007
1999.00,0.0008
1998.00,0.0009
1997.00,0.0010
1996.00,0.0011
1995.00,0.0013
1994.00,0.0015
1993.00,0.0016
1992.00,0.0018
1991.00,0.0019
1990.00,0.0018
1989.00,0.0018
1988.00,0.0018
1987.00,0.0018
1986.00,0.0018
1985.00,0.0020
1984.00,0.0022
1983.00,0.0025
1982.00,0.0027
1981.00,0.0027
1980.00,0.0024
1979.00,0.0018
1978.00,0.0012
1977.00,0.0007
1976.00,0.0005
1975.00,0.0004
1974.00,0.0003
1973.00,0.0003
1972.00,0.0003
1971.00,0.0003
1970.00,0.0003
1969.00,0.0004
1968.00,0.0006
1967.00,0.0008
1966.00,0.0007
1965.00,0.0006
1964.00,0.0006
1963.00,0.0004
1962.00,0.0003
1961.00,0.0001
1960.00,-0.0000
1959.00,-0.0001
1958.00,0.0000
1957.00,0.0003
1956.00,0.0006
1955.00,0.0008
1954.00,0.0008
1953.00,0.0008
1952.00,0.0007
1951.00,0.0007
1950.00,0.0006
1949.00,0.0006
1948.00,0.0006
1947.00,0.0006
1946.00,0.0006
1945.00,0.0006
1944.00,0.0006
1943.00,0.0007
1942.00,0.0006
1941.00,0.0005
1940.00,0.0005
1939.00,0.0005
1938.00,0.0005
1937.00,0.0006
1936.00,0.0007
1935.00,0.0007
1934.00,0.0007
1933.00,0.0007
1932.00,0.0008
1931.00,0.0009
1930.00,0.0009
1929.00,0.0009
1928.00,0.0009
1927.00,0.0009
1926.00,0.0008
1925.00,0.0008
1924.00,0.0009
1923.00,0.0009
1922.00,0.0010
1921.00,0.0010
1920.00,0.0011
1919.00,0.0011
1918.00,0.0011
1917.00,0.0010
1916.00,0.0010
1915.00,0.0010
1914.00,0.0011
1913.00,0.0011
1912.00,0.0012
1911.00,0.0012
1910.00,0.0012
1909.00,0.0012
1908.00,0.0012
1907.00,0.0012
1906.00,0.0011
1905.00,0.0011
1904.00,0.0012
1903.00,0.0012
1902.00,0.0012
1901.00,0.0012
1900.00,0.0012
1899.00,0.0012
1898.00,0.0012
1897.00,0.0013
1896.00,0.0013
1895.00,0.0013
1894.00,0.0013
1893.00,0.0014
1892.00,0.0014
1891.00,0.0014
1890.00,0.0013
1889.00,0.0013
1888.00,0.0013
1887.00,0.0013
1886.00,0.0014
1885.00,0.0014
1884.00,0.0014
1883.00,0.0014
1882.00,0.0013
1881.00,0.0013
1880.00,0.0013
1879.00,0.0013
1878.00,0.0014
1877.00,0.0014
1876.00,0.0014
1875.00,0.0014
1874.00,0.0014
1873.00,0.0015
1872.00,0.0015
1871.00,0.0015
1870.00,0.0015
1869.00,0.0014
1868.00,0.0014
1867.00,0.0014
1866.00,0.0014
1865.00,0.0014
1864.00,0.0014
1863.00,0.0014
1862.00,0.0014
1861.00,0.0014
1860.00,0.0015
1859.00,0.0015
1858.00,0.0015
1857.00,0.0015
1856.00,0.0016
1855.00,0.0016
1854.00,0.0016
1853.00,0.0016
1852.00,0.0016
1851.00,0.0016
1850.00,0.0016
1849.00,0.0016
1848.00,0.0016
1847.00,0.0016
1846.00,0.0016
1845.00,0.0016
1844.00,0.0015
1843.00,0.0014
1842.00,0.0013
1841.00,0.0014
1840.00,0.0015
1839.00,0.0016
1838.00,0.0016
1837.00,0.0016
1836.00,0.0016
1835.00,0.0016
1834.00,0.0017
1833.00,0.0017
1832.00,0.0018
1831.00,0.0019
1830.00,0.0019
1829.00,0.0018
1828.00,0.0018
1827.00,0.0018
1826.00,0.0018
1825.00,0.0018
1824.00,0.0018
1823.00,0.0018
1822.00,0.0018
1821.00,0.0018
1820.00,0.0017
1819.00,0.0016
1818.00,0.0015
1817.00,0.0015
1816.00,0.0016
1815.00,0.0017
1814.00,0.0018
1813.00,0.0019
1812.00,0.0020
1811.00,0.0021
1810.00,0.0021
1809.00,0.0021
1808.00,0.0021
1807.00,0.0021
1806.00,0.0022
1805.00,0.0022
1804.00,0.0023
1803.00,0.0023
1802.00,0.0023
1801.00,0.0023
1800.00,0.0023
1799.00,0.0023
1798.00,0.0022
1797.00,0.0023
1796.00,0.0023
1795.00,0.0024
1794.00,0.0025
1793.00,0.0025
1792.00,0.0025
1791.00,0.0024
1790.00,0.0024
1789.00,0.0025
1788.00,0.0026
1787.00,0.0027
1786.00,0.0028
1785.00,0.0027
1784.00,0.0028
1783.00,0.0028
1782.00,0.0028
1781.00,0.0029
1780.00,0.0029
1779.00,0.0029
1778.00,0.0029
1777.00,0.0029
1776.00,0.0030
1775.00,0.0031
1774.00,0.0031
1773.00,0.0031
1772.00,0.0031
1771.00,0.0031
1770.00,0.0032
1769.00,0.0033
1768.00,0.0034
1767.00,0.0034
1766.00,0.0035
1765.00,0.0036
1764.00,0.0038
1763.00,0.0039
1762.00,0.0040
1761.00,0.0040
1760.00,0.0041
1759.00,0.0043
1758.00,0.0044
1757.00,0.0046
1756.00,0.0047
1755.00,0.0049
1754.00,0.0050
1753.00,0.0051
1752.00,0.0053
1751.00,0.0054
1750.00,0.0056
1749.00,0.0059
1748.00,0.0062
1747.00,0.0065
1746.00,0.0067
1745.00,0.0069
1744.00,0.0072
1743.00,0.0075
1742.00,0.0078
1741.00,0.0081
1740.00,0.0085
1739.00,0.0087
1738.00,0.0089
1737.00,0.0091
1736.00,0.0093
1735.00,0.0095
1734.00,0.0097
1733.00,0.0098
1732.00,0.0101
1731.00,0.0105
1730.00,0.0110
1729.00,0.0113
1728.00,0.0116
1727.00,0.0119
1726.00,0.0121
1725.00,0.0123
1724.00,0.0126
1723.00,0.0129
1722.00,0.0131
1721.00,0.0133
1720.00,0.0136
1719.00,0.0137
1718.00,0.0138
1717.00,0.0140
1716.00,0.0142
1715.00,0.0146
1714.00,0.0150
1713.00,0.0154
1712.00,0.0158
1711.00,0.0163
1710.00,0.0167
1709.00,0.0172
1708.00,0.0178
1707.00,0.0186
1706.00,0.0195
1705.00,0.0205
1704.00,0.0214
1703.00,0.0222
1702.00,0.0233
1701.00,0.0251
1700.00,0.0274
1699.00,0.0292
1698.00,0.0303
1697.00,0.0314
1696.00,0.0328
1695.00,0.0340
1694.00,0.0348
1693.00,0.0354
1692.00,0.0360
1691.00,0.0367
1690.00,0.0375
1689.00,0.0382
1688.00,0.0389
1687.00,0.0393
1686.00,0.0398
1685.00,0.0409
1684.00,0.0427
1683.00,0.0442
1682.00,0.0451
1681.00,0.0460
1680.00,0.0468
1679.00,0.0477
1678.00,0.0484
1677.00,0.0492
1676.00,0.0503
1675.00,0.0517
1674.00,0.0528
1673.00,0.0536
1672.00,0.0544
1671.00,0.0554
1670.00,0.0568
1669.00,0.0582
1668.00,0.0595
1667.00,0.0603
1666.00,0.0610
1665.00,0.0617
1664.00,0.0627
1663.00,0.0641
1662.00,0.0654
1661.00,0.0665
1660.00,0.0675
1659.00,0.0683
1658.00,0.0689
1657.00,0.0694
1656.00,0.0696
1655.00,0.0698
1654.00,0.0711
1653.00,0.0735
1652.00,0.0752
1651.00,0.0755
1650.00,0.0755
1649.00,0.0755
1648.00,0.0760
1647.00,0.0770
1646.00,0.0780
1645.00,0.0786
1644.00,0.0789
1643.00,0.0791
1642.00,0.0794
1641.00,0.0797
1640.00,0.0801
1639.00,0.0804
1638.00,0.0807
1637.00,0.0814
1636.00,0.0832
1635.00,0.0852
1634.00,0.0866
1633.00,0.0873
1632.00,0.0880
1631.00,0.0888
1630.00,0.0898
1629.00,0.0911
1628.00,0.0927
1627.00,0.0941
1626.00,0.0952
1625.00,0.0962
1624.00,0.0974
1623.00,0.0988
1622.00,0.0998
1621.00,0.0999
1620.00,0.0995
1619.00,0.0988
1618.00,0.0981
1617.00,0.0974
1616.00,0.0966
1615.00,0.0953
1614.00,0.0935
1613.00,0.0914
1612.00,0.0891
1611.00,0.0867
1610.00,0.0841
1609.00,0.0815
1608.00,0.0789
1607.00,0.0763
1606.00,0.0738
1605.00,0.0713
1604.00,0.0690
1603.00,0.0668
1602.00,0.0647
1601.00,0.0628
1600.00,0.0609
1599.00,0.0592
1598.00,0.0577
1597.00,0.0562
1596.00,0.0548
1595.00,0.0536
1594.00,0.0525
1593.00,0.0514
1592.00,0.0504
1591.00,0.0494
1590.00,0.0487
1589.00,0.0480
1588.00,0.0473
1587.00,0.0468
1586.00,0.0464
1585.00,0.0461
1584.00,0.0458
1583.00,0.0456
1582.00,0.0456
1581.00,0.0456
1580.00,0.0456
1579.00,0.0455
1578.00,0.0455
1577.00,0.0459
1576.00,0.0465
1575.00,0.0472
1574.00,0.0477
1573.00,0.0482
1572.00,0.0485
1571.00,0.0491
1570.00,0.0501
1569.00,0.0512
1568.00,0.0520
1567.00,0.0527
1566.00,0.0534
1565.00,0.0543
1564.00,0.0550
1563.00,0.0555
1562.00,0.0556
1561.00,0.0558
1560.00,0.0568
1559.00,0.0594
1558.00,0.0618
1557.00,0.0629
1556.00,0.0634
1555.00,0.0642
1554.00,0.0652
1553.00,0.0662
1552.00,0.0670
1551.00,0.0679
1550.00,0.0690
1549.00,0.0700
1548.00,0.0708
1547.00,0.0713
1546.00,0.0719
1545.00,0.0726
1544.00,0.0734
1543.00,0.0740
1542.00,0.0746
1541.00,0.0758
1540.00,0.0775
1539.00,0.0790
1538.00,0.0797
1537.00,0.0799
1536.00,0.0799
1535.00,0.0803
1534.00,0.0812
1533.00,0.0824
1532.00,0.0831
1531.00,0.0834
1530.00,0.0835
1529.00,0.0836
1528.00,0.0839
1527.00,0.0843
1526.00,0.0847
1525.00,0.0849
1524.00,0.0848
1523.00,0.0848
1522.00,0.0853
1521.00,0.0861
1520.00,0.0865
1519.00,0.0866
1518.00,0.0868
1517.00,0.0870
1516.00,0.0872
1515.00,0.0868
1514.00,0.0861
1513.00,0.0850
1512.00,0.0839
1511.00,0.0826
1510.00,0.0811
1509.00,0.0795
1508.00,0.0780
1507.00,0.0770
1506.00,0.0760
1505.00,0.0746
1504.00,0.0730
1503.00,0.0714
1502.00,0.0699
1501.00,0.0683
1500.00,0.0668
1499.00,0.0653
1498.00,0.0639
1497.00,0.0623
1496.00,0.0608
1495.00,0.0593
1494.00,0.0578
1493.00,0.0563
1492.00,0.0548
1491.00,0.0533
1490.00,0.0520
1489.00,0.0506
1488.00,0.0494
1487.00,0.0482
1486.00,0.0471
1485.00,0.0460
1484.00,0.0450
1483.00,0.0442
1482.00,0.0434
1481.00,0.0428
1480.00,0.0422
1479.00,0.0418
1478.00,0.0415
1477.00,0.0414
1476.00,0.0414
1475.00,0.0415
1474.00,0.0418
1473.00,0.0423
1472.00,0.0431
1471.00,0.0438
1470.00,0.0441
1469.00,0.0443
1468.00,0.0444
1467.00,0.0445
1466.00,0.0446
1465.00,0.0448
1464.00,0.0451
1463.00,0.0452
1462.00,0.0453
1461.00,0.0453
1460.00,0.0453
1459.00,0.0455
1458.00,0.0460
1457.00,0.0469
1456.00,0.0477
1455.00,0.0481
1454.00,0.0483
1453.00,0.0484
1452.00,0.0484
1451.00,0.0484
1450.00,0.0484
1449.00,0.0484
1448.00,0.0484
1447.00,0.0484
1446.00,0.0483
1445.00,0.0481
1444.00,0.0479
1443.00,0.0477
1442.00,0.0474
1441.00,0.0471
1440.00,0.0468
1439.00,0.0463
1438.00,0.0459
1437.00,0.0455
1436.00,0.0452
1435.00,0.0447
1434.00,0.0441
1433.00,0.0436
1432.00,0.0430
1431.00,0.0426
1430.00,0.0422
1429.00,0.0418
1428.00,0.0415
1427.00,0.0413
1426.00,0.0411
1425.00,0.0411
1424.00,0.0412
1423.00,0.0413
1422.00,0.0413
1421.00,0.0414
1420.00,0.0416
1419.00,0.0422
1418.00,0.0428
1417.00,0.0432
1416.00,0.0436
1415.00,0.0440
1414.00,0.0443
1413.00,0.0446
1412.00,0.0450
1411.00,0.0454
1410.00,0.0457
1409.00,0.0459
1408.00,0.0461
1407.00,0.0463
1406.00,0.0465
1405.00,0.0467
1404.00,0.0470
1403.00,0.0471
1402.00,0.0472
1401.00,0.0472
1400.00,0.0473
1399.00,0.0474
1398.00,0.0475
1397.00,0.0476
1396.00,0.0476
1395.00,0.0478
1394.00,0.0479
1393.00,0.0480
1392.00,0.0480
1391.00,0.0480
1390.00,0.0479
1389.00,0.0479
1388.00,0.0478
1387.00,0.0477
1386.00,0.0475
1385.00,0.0472
1384.00,0.0468
1383.00,0.0464
1382.00,0.0460
1381.00,0.0455
1380.00,0.0451
1379.00,0.0447
1378.00,0.0443
1377.00,0.0440
1376.00,0.0436
1375.00,0.0434
1374.00,0.0432
1373.00,0.0430
1372.00,0.0429
1371.00,0.0427
1370.00,0.0425
1369.00,0.0423
1368.00,0.0419
1367.00,0.0415
1366.00,0.0411
1365.00,0.0406
1364.00,0.0401
1363.00,0.0398
1362.00,0.0395
1361.00,0.0392
1360.00,0.0389
1359.00,0.0387
1358.00,0.0385
1357.00,0.0383
1356.00,0.0381
1355.00,0.0381
1354.00,0.0380
1353.00,0.0379
1352.00,0.0379
1351.00,0.0378
1350.00,0.0378
1349.00,0.0378
1348.00,0.0377
1347.00,0.0377
1346.00,0.0377
1345.00,0.0377
1344.00,0.0376
1343.00,0.0376
1342.00,0.0375
1341.00,0.0374
1340.00,0.0373
1339.00,0.0373
1338.00,0.0373
1337.00,0.0372
1336.00,0.0371
1335.00,0.0370
1334.00,0.0369
1333.00,0.0368
1332.00,0.0367
1331.00,0.0366
1330.00,0.0366
1329.00,0.0365
1328.00,0.0365
1327.00,0.0365
1326.00,0.0365
1325.00,0.0365
1324.00,0.0365
1323.00,0.0366
1322.00,0.0366
1321.00,0.0366
1320.00,0.0367
1319.00,0.0368
1318.00,0.0369
1317.00,0.0369
1316.00,0.0370
1315.00,0.0370
1314.00,0.0371
1313.00,0.0371
1312.00,0.0371
1311.00,0.0371
1310.00,0.0370
1309.00,0.0370
1308.00,0.0369
1307.00,0.0369
1306.00,0.0369
1305.00,0.0369
1304.00,0.0368
1303.00,0.0368
1302.00,0.0369
1301.00,0.0369
1300.00,0.0369
1299.00,0.0369
1298.00,0.0370
1297.00,0.0371
1296.00,0.0372
1295.00,0.0374
1294.00,0.0375
1293.00,0.0377
1292.00,0.0378
1291.00,0.0380
1290.00,0.0381
1289.00,0.0382
1288.00,0.0383
1287.00,0.0385
1286.00,0.0387
1285.00,0.0388
1284.00,0.0390
1283.00,0.0391
1282.00,0.0392
1281.00,0.0393
1280.00,0.0394
1279.00,0.0395
1278.00,0.0396
1277.00,0.0397
1276.00,0.0397
1275.00,0.0397
1274.00,0.0398
1273.00,0.0399
1272.00,0.0400
1271.00,0.0401
1270.00,0.0403
1269.00,0.0405
1268.00,0.0407
1267.00,0.0409
1266.00,0.0411
1265.00,0.0414
1264.00,0.0417
1263.00,0.0420
1262.00,0.0424
1261.00,0.0427
1260.00,0.0431
1259.00,0.0435
1258.00,0.0439
1257.00,0.0442
1256.00,0.0446
1255.00,0.0450
1254.00,0.0454
1253.00,0.0458
1252.00,0.0462
1251.00,0.0466
1250.00,0.0469
1249.00,0.0473
1248.00,0.0477
1247.00,0.0481
1246.00,0.0485
1245.00,0.0489
1244.00,0.0493
1243.00,0.0496
1242.00,0.0500
1241.00,0.0503
1240.00,0.0507
1239.00,0.0510
1238.00,0.0514
1237.00,0.0516
1236.00,0.0519
1235.00,0.0521
1234.00,0.0523
1233.00,0.0525
1232.00,0.0526
1231.00,0.0527
1230.00,0.0527
1229.00,0.0527
1228.00,0.0527
1227.00,0.0526
1226.00,0.0526
1225.00,0.0525
1224.00,0.0523
1223.00,0.0522
1222.00,0.0520
1221.00,0.0518
1220.00,0.0515
1219.00,0.0512
1218.00,0.0508
1217.00,0.0505
1216.00,0.0500
1215.00,0.0496
1214.00,0.0491
1213.00,0.0487
1212.00,0.0482
1211.00,0.0477
1210.00,0.0472
1209.00,0.0467
1208.00,0.0462
1207.00,0.0457
1206.00,0.0452
1205.00,0.0448
1204.00,0.0443
1203.00,0.0439
1202.00,0.0435
1201.00,0.0431
1200.00,0.0428
1199.00,0.0424
1198.00,0.0421
1197.00,0.0419
1196.00,0.0416
1195.00,0.0413
1194.00,0.0410
1193.00,0.0408
1192.00,0.0406
1191.00,0.0404
1190.00,0.0402
1189.00,0.0401
1188.00,0.0399
1187.00,0.0398
1186.00,0.0397
1185.00,0.0396
1184.00,0.0395
1183.00,0.0394
1182.00,0.0394
1181.00,0.0395
1180.00,0.0396
1179.00,0.0398
1178.00,0.0400
1177.00,0.0402
1176.00,0.0404
1175.00,0.0407
1174.00,0.0410
1173.00,0.0412
1172.00,0.0414
1171.00,0.0416
1170.00,0.0417
1169.00,0.0419
1168.00,0.0419
1167.00,0.0421
1166.00,0.0422
1165.00,0.0424
1164.00,0.0425
1163.00,0.0427
1162.00,0.0429
1161.00,0.0431
1160.00,0.0432
1159.00,0.0434
1158.00,0.0435
1157.00,0.0436
1156.00,0.0436
1155.00,0.0435
1154.00,0.0434
1153.00,0.0433
1152.00,0.0430
1151.00,0.0428
1150.00,0.0425
1149.00,0.0421
1148.00,0.0417
1147.00,0.0413
1146.00,0.0409
1145.00,0.0405
1144.00,0.0401
1143.00,0.0398
1142.00,0.0395
1141.00,0.0392
1140.00,0.0390
1139.00,0.0387
1138.00,0.0385
1137.00,0.0383
1136.00,0.0382
1135.00,0.0381
1134.00,0.0382
1133.00,0.0382
1132.00,0.0382
1131.00,0.0383
1130.00,0.0385
1129.00,0.0386
1128.00,0.0387
1127.00,0.0389
1126.00,0.0391
1125.00,0.0393
1124.00,0.0394
1123.00,0.0396
1122.00,0.0397
1121.00,0.0399
1120.00,0.0400
1119.00,0.0401
1118.00,0.0402
1117.00,0.0403
1116.00,0.0405
1115.00,0.0406
1114.00,0.0407
1113.00,0.0409
1112.00,0.0409
1111.00,0.0410
1110.00,0.0412
1109.00,0.0413
1108.00,0.0414
1107.00,0.0416
1106.00,0.0417
1105.00,0.0418
1104.00,0.0420
1103.00,0.0422
1102.00,0.0424
1101.00,0.0426
1100.00,0.0428
1099.00,0.0430
1098.00,0.0433
1097.00,0.0436
1096.00,0.0439
1095.00,0.0442
1094.00,0.0446
1093.00,0.0450
1092.00,0.0455
1091.00,0.0460
1090.00,0.0465
1089.00,0.0471
1088.00,0.0476
1087.00,0.0482
1086.00,0.0489
1085.00,0.0496
1084.00,0.0502
1083.00,0.0508
1082.00,0.0514
1081.00,0.0519
1080.00,0.0523
1079.00,0.0526
1078.00,0.0529
1077.00,0.0530
1076.00,0.0530
1075.00,0.0531
1074.00,0.0531
1073.00,0.0531
1072.00,0.0530
1071.00,0.0530
1070.00,0.0530
1069.00,0.0530
1068.00,0.0531
1067.00,0.0531
1066.00,0.0533
1065.00,0.0535
1064.00,0.0537
1063.00,0.0539
1062.00,0.0541
1061.00,0.0544
1060.00,0.0545
1059.00,0.0547
1058.00,0.0548
1057.00,0.0549
1056.00,0.0549
1055.00,0.0549
1054.00,0.0549
1053.00,0.0549
1052.00,0.0548
1051.00,0.0547
1050.00,0.0547
1049.00,0.0546
1048.00,0.0544
1047.00,0.0543
1046.00,0.0542
1045.00,0.0541
1044.00,0.0539
1043.00,0.0538
1042.00,0.0537
1041.00,0.0535
1040.00,0.0533
1039.00,0.0530
1038.00,0.0529
1037.00,0.0527
1036.00,0.0525
1035.00,0.0524
1034.00,0.0523
1033.00,0.0523
1032.00,0.0522
1031.00,0.0521
1030.00,0.0521
1029.00,0.0521
1028.00,0.0519
1027.00,0.0517
1026.00,0.0515
1025.00,0.0512
1024.00,0.0510
1023.00,0.0507
1022.00,0.0504
1021.00,0.0500
1020.00,0.0496
1019.00,0.0491
1018.00,0.0487
1017.00,0.0482
1016.00,0.0477
1015.00,0.0472
1014.00,0.0468
1013.00,0.0463
1012.00,0.0458
1011.00,0.0453
1010.00,0.0449
1009.00,0.0444
1008.00,0.0438
1007.00,0.0433
1006.00,0.0429
1005.00,0.0425
1004.00,0.0420
1003.00,0.0416
1002.00,0.0412
1001.00,0.0407
1000.00,0.0402
999.00,0.0398
998.00,0.0394
997.00,0.0389
996.00,0.0385
995.00,0.0379
994.00,0.0374
993.00,0.0369
992.00,0.0363
991.00,0.0357
990.00,0.0352
989.00,0.0347
988.00,0.0342
987.00,0.0338
986.00,0.0334
985.00,0.0331
984.00,0.0327
983.00,0.0324
982.00,0.0322
981.00,0.0320
980.00,0.0318
979.00,0.0317
978.00,0.0317
977.00,0.0317
976.00,0.0317
975.00,0.0316
974.00,0.0317
973.00,0.0317
972.00,0.0317
971.00,0.0318
970.00,0.0319
969.00,0.0319
968.00,0.0319
967.00,0.0319
966.00,0.0319
965.00,0.0319
964.00,0.0319
963.00,0.0319
962.00,0.0319
961.00,0.0319
960.00,0.0317
959.00,0.0316
958.00,0.0315
957.00,0.0315
956.00,0.0313
955.00,0.0313
954.00,0.0312
953.00,0.0312
952.00,0.0311
951.00,0.0311
950.00,0.0311
949.00,0.0312
948.00,0.0312
947.00,0.0312
946.00,0.0313
945.00,0.0314
944.00,0.0314
943.00,0.0315
942.00,0.0317
941.00,0.0318
940.00,0.0319
939.00,0.0320
938.00,0.0322
937.00,0.0324
936.00,0.0325
935.00,0.0326
934.00,0.0326
933.00,0.0327
932.00,0.0326
931.00,0.0326
930.00,0.0327
929.00,0.0327
928.00,0.0326
927.00,0.0326
926.00,0.0325
925.00,0.0324
924.00,0.0323
923.00,0.0321
922.00,0.0321
921.00,0.0320
920.00,0.0318
919.00,0.0317
918.00,0.0316
917.00,0.0315
916.00,0.0313
915.00,0.0312
914.00,0.0311
913.00,0.0310
912.00,0.0308
911.00,0.0307
910.00,0.0306
909.00,0.0305
908.00,0.0304
907.00,0.0303
906.00,0.0302
905.00,0.0302
904.00,0.0301
903.00,0.0301
902.00,0.0300
901.00,0.0299
900.00,0.0298
899.00,0.0297
898.00,0.0297
897.00,0.0296
896.00,0.0296
895.00,0.0295
894.00,0.0295
893.00,0.0295
892.00,0.0295
891.00,0.0295
890.00,0.0296
889.00,0.0295
888.00,0.0294
887.00,0.0294
886.00,0.0293
885.00,0.0293
884.00,0.0293
883.00,0.0292
882.00,0.0293
881.00,0.0292
880.00,0.0292
879.00,0.0291
878.00,0.0291
877.00,0.0291
876.00,0.0291
875.00,0.0290
874.00,0.0290
873.00,0.0290
872.00,0.0289
871.00,0.0288
870.00,0.0288
869.00,0.0288
868.00,0.0288
867.00,0.0289
866.00,0.0290
865.00,0.0291
864.00,0.0292
863.00,0.0293
862.00,0.0295
861.00,0.0296
860.00,0.0297
859.00,0.0299
858.00,0.0301
857.00,0.0304
856.00,0.0305
855.00,0.0307
854.00,0.0309
853.00,0.0311
852.00,0.0312
851.00,0.0313
850.00,0.0314
849.00,0.0314
848.00,0.0314
847.00,0.0314
846.00,0.0315
845.00,0.0316
844.00,0.0316
843.00,0.0318
842.00,0.0320
841.00,0.0321
840.00,0.0323
839.00,0.0325
838.00,0.0328
837.00,0.0331
836.00,0.0333
835.00,0.0335
834.00,0.0337
833.00,0.0339
832.00,0.0341
831.00,0.0343
830.00,0.0346
829.00,0.0348
828.00,0.0348
827.00,0.0349
826.00,0.0350
825.00,0.0352
824.00,0.0352
823.00,0.0353
822.00,0.0354
821.00,0.0356
820.00,0.0357
819.00,0.0358
818.00,0.0360
817.00,0.0362
816.00,0.0363
815.00,0.0364
814.00,0.0366
813.00,0.0368
812.00,0.0370
811.00,0.0372
810.00,0.0373
809.00,0.0375
808.00,0.0376
807.00,0.0377
806.00,0.0379
805.00,0.0381
804.00,0.0383
803.00,0.0384
802.00,0.0387
801.00,0.0389
800.00,0.0391
799.00,0.0393
798.00,0.0397
797.00,0.0400
796.00,0.0403
795.00,0.0405
794.00,0.0409
793.00,0.0412
792.00,0.0415
791.00,0.0419
790.00,0.0423
789.00,0.0427
788.00,0.0431
787.00,0.0435
786.00,0.0439
785.00,0.0442
784.00,0.0445
783.00,0.0447
782.00,0.0450
781.00,0.0453
780.00,0.0454
779.00,0.0456
778.00,0.0458
777.00,0.0459
776.00,0.0460
775.00,0.0461
774.00,0.0462
773.00,0.0464
772.00,0.0465
771.00,0.0467
770.00,0.0469
769.00,0.0471
768.00,0.0473
767.00,0.0474
766.00,0.0477
765.00,0.0479
764.00,0.0480
763.00,0.0482
762.00,0.0485
761.00,0.0487
760.00,0.0488
759.00,0.0490
758.00,0.0492
757.00,0.0495
756.00,0.0497
755.00,0.0499
754.00,0.0502
753.00,0.0505
752.00,0.0507
751.00,0.0510
750.00,0.0514
749.00,0.0517
748.00,0.0520
747.00,0.0523
746.00,0.0526
745.00,0.0528
744.00,0.0530
743.00,0.0532
742.00,0.0534
741.00,0.0537
740.00,0.0538
739.00,0.0540
738.00,0.0543
737.00,0.0546
736.00,0.0548
735.00,0.0551
734.00,0.0554
733.00,0.0557
732.00,0.0560
731.00,0.0564
730.00,0.0569
729.00,0.0575
728.00,0.0581
727.00,0.0586
726.00,0.0593
725.00,0.0598
724.00,0.0604
723.00,0.0609
722.00,0.0615
721.00,0.0621
720.00,0.0627
719.00,0.0633
718.00,0.0639
717.00,0.0645
716.00,0.0649
715.00,0.0653
714.00,0.0658
713.00,0.0663
712.00,0.0668
711.00,0.0673
710.00,0.0679
709.00,0.0685
708.00,0.0690
707.00,0.0696
706.00,0.0703
705.00,0.0711
704.00,0.0717
703.00,0.0723
702.00,0.0730
701.00,0.0736
700.00,0.0739
699.00,0.0741
698.00,0.0743
697.00,0.0744
696.00,0.0744
695.00,0.0743
694.00,0.0744
693.00,0.0744
692.00,0.0743
691.00,0.0743
690.00,0.0744
689.00,0.0745
688.00,0.0746
687.00,0.0747
686.00,0.0749
685.00,0.0750
684.00,0.0751
683.00,0.0752
682.00,0.0753
681.00,0.0755
680.00,0.0755
679.00,0.0756
678.00,0.0758
677.00,0.0760
676.00,0.0762
675.00,0.0763
674.00,0.0765
673.00,0.0766
672.00,0.0766
671.00,0.0765
670.00,0.0766
669.00,0.0770
668.00,0.0779
667.00,0.0788
666.00,0.0790
665.00,0.0787
664.00,0.0785
663.00,0.0785
662.00,0.0787
661.00,0.0789
660.00,0.0790
659.00,0.0792
658.00,0.0794
657.00,0.0796
656.00,0.0797
655.00,0.0799
654.00,0.0801
653.00,0.0803
652.00,0.0804
651.00,0.0806
650.00,0.0808
649.00,0.0810
648.00,0.0811
647.00,0.0812
646.00,0.0815
645.00,0.0818
644.00,0.0819
643.00,0.0821
642.00,0.0824
641.00,0.0827
640.00,0.0829
639.00,0.0831
638.00,0.0833
637.00,0.0836
636.00,0.0837
635.00,0.0839
634.00,0.0843
633.00,0.0847
632.00,0.0849
631.00,0.0851
630.00,0.0853
629.00,0.0856
628.00,0.0857
627.00,0.0858
626.00,0.0861
625.00,0.0863
624.00,0.0864
623.00,0.0864
622.00,0.0866
621.00,0.0868
620.00,0.0869
619.00,0.0870
618.00,0.0871
617.00,0.0873
616.00,0.0873
615.00,0.0874
614.00,0.0876
613.00,0.0877
612.00,0.0878
611.00,0.0878
610.00,0.0879
609.00,0.0879
608.00,0.0878
607.00,0.0878
606.00,0.0879
605.00,0.0881
604.00,0.0881
603.00,0.0882
602.00,0.0884
601.00,0.0885
600.00,0.0886
599.00,0.0888
598.00,0.0890
597.00,0.0892
596.00,0.0893
595.00,0.0894
594.00,0.0895
593.00,0.0896
592.00,0.0896
591.00,0.0897
590.00,0.0899
589.00,0.0901
588.00,0.0902
587.00,0.0904
586.00,0.0908
585.00,0.0912
584.00,0.0914
583.00,0.0916
582.00,0.0919
581.00,0.0922
580.00,0.0925
579.00,0.0927
578.00,0.0929
577.00,0.0931
576.00,0.0932
575.00,0.0935
574.00,0.0939
573.00,0.0942
572.00,0.0943
571.00,0.0944
570.00,0.0947
569.00,0.0950
568.00,0.0951
567.00,0.0952
566.00,0.0955
565.00,0.0958
564.00,0.0959
563.00,0.0960
562.00,0.0963
561.00,0.0965
560.00,0.0966
559.00,0.0968
558.00,0.0971
557.00,0.0973
556.00,0.0973
555.00,0.0975
554.00,0.0979
553.00,0.0982
552.00,0.0984
551.00,0.0985
550.00,0.0987
549.00,0.0989
548.00,0.0989
547.00,0.0991
546.00,0.0996
545.00,0.1002
544.00,0.1004
543.00,0.1006
542.00,0.1008
541.00,0.1009
540.00,0.1009
539.00,0.1010
538.00,0.1012
537.00,0.1013
536.00,0.1014
535.00,0.1015
534.00,0.1018
533.00,0.1020
532.00,0.1020
531.00,0.1020
530.00,0.1024
529.00,0.1026
528.00,0.1025
527.00,0.1026
526.00,0.1029
525.00,0.1032
524.00,0.1033
523.00,0.1034
522.00,0.1037
521.00,0.1039
520.00,0.1039
519.00,0.1038
518.00,0.1041
517.00,0.1043
516.00,0.1043
515.00,0.1044
514.00,0.1047
513.00,0.1048
512.00,0.1047
511.00,0.1047
510.00,0.1050
509.00,0.1052
508.00,0.1050
507.00,0.1048
506.00,0.1049
505.00,0.1049
504.00,0.1047
503.00,0.1045
502.00,0.1048
501.00,0.1052
500.00,0.1053
499.00,0.1054
498.00,0.1056
497.00,0.1057
496.00,0.1054
495.00,0.1051
494.00,0.1052
493.00,0.1054
492.00,0.1053
491.00,0.1052
490.00,0.1054
489.00,0.1056
488.00,0.1056
487.00,0.1055
486.00,0.1055
485.00,0.1055
484.00,0.1051
483.00,0.1049
482.00,0.1050
481.00,0.1050
480.00,0.1049
479.00,0.1050
478.00,0.1054
477.00,0.1057
476.00,0.1055
475.00,0.1052
474.00,0.1053
473.00,0.1054
472.00,0.1051
471.00,0.1051
470.00,0.1056
469.00,0.1060
468.00,0.1060
467.00,0.1060
466.00,0.1062
465.00,0.1061
464.00,0.1057
463.00,0.1056
462.00,0.1061
461.00,0.1066
460.00,0.1063
459.00,0.1059
458.00,0.1060
457.00,0.1060
456.00,0.1056
455.00,0.1052
454.00,0.1054
453.00,0.1054
452.00,0.1048
451.00,0.1043
450.00,0.1043
449.00,0.1044
448.00,0.1042
447.00,0.1043
446.00,0.1047
445.00,0.1048
444.00,0.1041
443.00,0.1036
442.00,0.1038
441.00,0.1039
440.00,0.1033
439.00,0.1027
438.00,0.1027
437.00,0.1030
436.00,0.1030
435.00,0.1030
434.00,0.1035
433.00,0.1038
432.00,0.1034
431.00,0.1029
430.00,0.1030
429.00,0.1030
428.00,0.1027
427.00,0.1024
426.00,0.1025
425.00,0.1024
424.00,0.1018
423.00,0.1015
422.00,0.1019
421.00,0.1020
420.00,0.1012
419.00,0.1008
418.00,0.1017
417.00,0.1019
416.00,0.1009
415.00,0.1003
414.00,0.1012
413.00,0.1024
412.00,0.1026
411.00,0.1026
410.00,0.1029
409.00,0.1024
408.00,0.1004
407.00,0.0991
406.00,0.0996
405.00,0.1003
404.00,0.0993
403.00,0.0981
402.00,0.0987
401.00,0.0997
400.00,0.0996
