Created as New Dataset,Sample 1065 By YargerLab Date Monday, August 04 2025
cm-1,A
4000.00,0.0010
3999.00,0.0010
3998.00,0.0011
3997.00,0.0011
3996.00,0.0011
3995.00,0.0011
3994.00,0.0011
3993.00,0.0011
3992.00,0.0011
3991.00,0.0011
3990.00,0.0010
3989.00,0.0010
3988.00,0.0010
3987.00,0.0010
3986.00,0.0010
3985.00,0.0010
3984.00,0.0010
3983.00,0.0010
3982.00,0.0010
3981.00,0.0010
3980.00,0.0010
3979.00,0.0010
3978.00,0.0010
3977.00,0.0010
3976.00,0.0010
3975.00,0.0010
3974.00,0.0010
3973.00,0.0010
3972.00,0.0010
3971.00,0.0010
3970.00,0.0010
3969.00,0.0010
3968.00,0.0010
3967.00,0.0010
3966.00,0.0010
3965.00,0.0010
3964.00,0.0010
3963.00,0.0010
3962.00,0.0010
3961.00,0.0010
3960.00,0.0010
3959.00,0.0010
3958.00,0.0010
3957.00,0.0010
3956.00,0.0010
3955.00,0.0010
3954.00,0.0009
3953.00,0.0010
3952.00,0.0010
3951.00,0.0010
3950.00,0.0010
3949.00,0.0010
3948.00,0.0010
3947.00,0.0010
3946.00,0.0010
3945.00,0.0010
3944.00,0.0010
3943.00,0.0010
3942.00,0.0010
3941.00,0.0010
3940.00,0.0010
3939.00,0.0010
3938.00,0.0010
3937.00,0.0010
3936.00,0.0010
3935.00,0.0010
3934.00,0.0010
3933.00,0.0010
3932.00,0.0010
3931.00,0.0010
3930.00,0.0010
3929.00,0.0010
3928.00,0.0010
3927.00,0.0010
3926.00,0.0010
3925.00,0.0010
3924.00,0.0010
3923.00,0.0010
3922.00,0.0010
3921.00,0.0010
3920.00,0.0010
3919.00,0.0011
3918.00,0.0011
3917.00,0.0011
3916.00,0.0010
3915.00,0.0010
3914.00,0.0010
3913.00,0.0010
3912.00,0.0010
3911.00,0.0010
3910.00,0.0010
3909.00,0.0010
3908.00,0.0010
3907.00,0.0010
3906.00,0.0010
3905.00,0.0010
3904.00,0.0010
3903.00,0.0011
3902.00,0.0011
3901.00,0.0011
3900.00,0.0011
3899.00,0.0011
3898.00,0.0011
3897.00,0.0010
3896.00,0.0010
3895.00,0.0010
3894.00,0.0010
3893.00,0.0010
3892.00,0.0010
3891.00,0.0010
3890.00,0.0010
3889.00,0.0010
3888.00,0.0011
3887.00,0.0011
3886.00,0.0011
3885.00,0.0011
3884.00,0.0011
3883.00,0.0011
3882.00,0.0011
3881.00,0.0011
3880.00,0.0010
3879.00,0.0010
3878.00,0.0010
3877.00,0.0011
3876.00,0.0011
3875.00,0.0011
3874.00,0.0011
3873.00,0.0010
3872.00,0.0010
3871.00,0.0010
3870.00,0.0010
3869.00,0.0010
3868.00,0.0010
3867.00,0.0011
3866.00,0.0011
3865.00,0.0012
3864.00,0.0012
3863.00,0.0011
3862.00,0.0011
3861.00,0.0011
3860.00,0.0011
3859.00,0.0010
3858.00,0.0010
3857.00,0.0009
3856.00,0.0009
3855.00,0.0009
3854.00,0.0009
3853.00,0.0010
3852.00,0.0010
3851.00,0.0010
3850.00,0.0011
3849.00,0.0011
3848.00,0.0011
3847.00,0.0011
3846.00,0.0012
3845.00,0.0012
3844.00,0.0012
3843.00,0.0012
3842.00,0.0012
3841.00,0.0012
3840.00,0.0012
3839.00,0.0012
3838.00,0.0012
3837.00,0.0012
3836.00,0.0012
3835.00,0.0011
3834.00,0.0011
3833.00,0.0011
3832.00,0.0012
3831.00,0.0012
3830.00,0.0012
3829.00,0.0012
3828.00,0.0011
3827.00,0.0011
3826.00,0.0011
3825.00,0.0011
3824.00,0.0011
3823.00,0.0012
3822.00,0.0012
3821.00,0.0012
3820.00,0.0012
3819.00,0.0011
3818.00,0.0012
3817.00,0.0012
3816.00,0.0012
3815.00,0.0011
3814.00,0.0011
3813.00,0.0011
3812.00,0.0011
3811.00,0.0011
3810.00,0.0011
3809.00,0.0011
3808.00,0.0011
3807.00,0.0011
3806.00,0.0011
3805.00,0.0011
3804.00,0.0012
3803.00,0.0012
3802.00,0.0012
3801.00,0.0012
3800.00,0.0012
3799.00,0.0012
3798.00,0.0012
3797.00,0.0012
3796.00,0.0012
3795.00,0.0011
3794.00,0.0011
3793.00,0.0011
3792.00,0.0010
3791.00,0.0010
3790.00,0.0010
3789.00,0.0010
3788.00,0.0010
3787.00,0.0011
3786.00,0.0011
3785.00,0.0011
3784.00,0.0011
3783.00,0.0012
3782.00,0.0012
3781.00,0.0012
3780.00,0.0012
3779.00,0.0011
3778.00,0.0011
3777.00,0.0011
3776.00,0.0011
3775.00,0.0011
3774.00,0.0011
3773.00,0.0011
3772.00,0.0011
3771.00,0.0011
3770.00,0.0011
3769.00,0.0011
3768.00,0.0011
3767.00,0.0012
3766.00,0.0012
3765.00,0.0012
3764.00,0.0012
3763.00,0.0012
3762.00,0.0012
3761.00,0.0012
3760.00,0.0012
3759.00,0.0012
3758.00,0.0012
3757.00,0.0012
3756.00,0.0012
3755.00,0.0012
3754.00,0.0013
3753.00,0.0013
3752.00,0.0013
3751.00,0.0014
3750.00,0.0014
3749.00,0.0014
3748.00,0.0014
3747.00,0.0014
3746.00,0.0014
3745.00,0.0014
3744.00,0.0013
3743.00,0.0013
3742.00,0.0013
3741.00,0.0013
3740.00,0.0014
3739.00,0.0014
3738.00,0.0014
3737.00,0.0015
3736.00,0.0015
3735.00,0.0015
3734.00,0.0015
3733.00,0.0014
3732.00,0.0014
3731.00,0.0014
3730.00,0.0014
3729.00,0.0014
3728.00,0.0014
3727.00,0.0014
3726.00,0.0014
3725.00,0.0014
3724.00,0.0014
3723.00,0.0014
3722.00,0.0013
3721.00,0.0013
3720.00,0.0012
3719.00,0.0012
3718.00,0.0012
3717.00,0.0012
3716.00,0.0012
3715.00,0.0012
3714.00,0.0012
3713.00,0.0013
3712.00,0.0013
3711.00,0.0014
3710.00,0.0014
3709.00,0.0014
3708.00,0.0014
3707.00,0.0014
3706.00,0.0014
3705.00,0.0014
3704.00,0.0013
3703.00,0.0013
3702.00,0.0013
3701.00,0.0013
3700.00,0.0013
3699.00,0.0013
3698.00,0.0014
3697.00,0.0014
3696.00,0.0014
3695.00,0.0014
3694.00,0.0015
3693.00,0.0015
3692.00,0.0016
3691.00,0.0016
3690.00,0.0016
3689.00,0.0017
3688.00,0.0017
3687.00,0.0017
3686.00,0.0018
3685.00,0.0019
3684.00,0.0019
3683.00,0.0020
3682.00,0.0021
3681.00,0.0021
3680.00,0.0022
3679.00,0.0022
3678.00,0.0022
3677.00,0.0023
3676.00,0.0023
3675.00,0.0023
3674.00,0.0024
3673.00,0.0024
3672.00,0.0024
3671.00,0.0025
3670.00,0.0024
3669.00,0.0025
3668.00,0.0025
3667.00,0.0026
3666.00,0.0026
3665.00,0.0027
3664.00,0.0027
3663.00,0.0028
3662.00,0.0028
3661.00,0.0029
3660.00,0.0029
3659.00,0.0030
3658.00,0.0030
3657.00,0.0031
3656.00,0.0032
3655.00,0.0033
3654.00,0.0033
3653.00,0.0034
3652.00,0.0035
3651.00,0.0036
3650.00,0.0036
3649.00,0.0037
3648.00,0.0038
3647.00,0.0039
3646.00,0.0039
3645.00,0.0040
3644.00,0.0040
3643.00,0.0041
3642.00,0.0042
3641.00,0.0042
3640.00,0.0043
3639.00,0.0043
3638.00,0.0044
3637.00,0.0045
3636.00,0.0046
3635.00,0.0047
3634.00,0.0048
3633.00,0.0048
3632.00,0.0049
3631.00,0.0050
3630.00,0.0051
3629.00,0.0052
3628.00,0.0053
3627.00,0.0054
3626.00,0.0055
3625.00,0.0056
3624.00,0.0057
3623.00,0.0057
3622.00,0.0058
3621.00,0.0058
3620.00,0.0059
3619.00,0.0060
3618.00,0.0062
3617.00,0.0063
3616.00,0.0064
3615.00,0.0066
3614.00,0.0067
3613.00,0.0067
3612.00,0.0069
3611.00,0.0070
3610.00,0.0071
3609.00,0.0072
3608.00,0.0073
3607.00,0.0074
3606.00,0.0075
3605.00,0.0076
3604.00,0.0077
3603.00,0.0078
3602.00,0.0079
3601.00,0.0080
3600.00,0.0081
3599.00,0.0083
3598.00,0.0085
3597.00,0.0086
3596.00,0.0087
3595.00,0.0089
3594.00,0.0090
3593.00,0.0091
3592.00,0.0093
3591.00,0.0094
3590.00,0.0095
3589.00,0.0097
3588.00,0.0098
3587.00,0.0099
3586.00,0.0101
3585.00,0.0102
3584.00,0.0104
3583.00,0.0105
3582.00,0.0107
3581.00,0.0108
3580.00,0.0109
3579.00,0.0110
3578.00,0.0112
3577.00,0.0113
3576.00,0.0115
3575.00,0.0117
3574.00,0.0118
3573.00,0.0120
3572.00,0.0122
3571.00,0.0124
3570.00,0.0126
3569.00,0.0127
3568.00,0.0129
3567.00,0.0131
3566.00,0.0132
3565.00,0.0134
3564.00,0.0135
3563.00,0.0137
3562.00,0.0138
3561.00,0.0139
3560.00,0.0140
3559.00,0.0142
3558.00,0.0143
3557.00,0.0145
3556.00,0.0146
3555.00,0.0148
3554.00,0.0149
3553.00,0.0151
3552.00,0.0152
3551.00,0.0154
3550.00,0.0155
3549.00,0.0157
3548.00,0.0158
3547.00,0.0159
3546.00,0.0160
3545.00,0.0162
3544.00,0.0163
3543.00,0.0164
3542.00,0.0165
3541.00,0.0166
3540.00,0.0167
3539.00,0.0168
3538.00,0.0169
3537.00,0.0171
3536.00,0.0172
3535.00,0.0173
3534.00,0.0174
3533.00,0.0176
3532.00,0.0177
3531.00,0.0178
3530.00,0.0179
3529.00,0.0180
3528.00,0.0181
3527.00,0.0183
3526.00,0.0184
3525.00,0.0185
3524.00,0.0186
3523.00,0.0187
3522.00,0.0188
3521.00,0.0188
3520.00,0.0189
3519.00,0.0190
3518.00,0.0191
3517.00,0.0192
3516.00,0.0193
3515.00,0.0194
3514.00,0.0194
3513.00,0.0195
3512.00,0.0196
3511.00,0.0197
3510.00,0.0198
3509.00,0.0199
3508.00,0.0200
3507.00,0.0201
3506.00,0.0202
3505.00,0.0202
3504.00,0.0203
3503.00,0.0204
3502.00,0.0205
3501.00,0.0206
3500.00,0.0207
3499.00,0.0207
3498.00,0.0208
3497.00,0.0209
3496.00,0.0210
3495.00,0.0210
3494.00,0.0211
3493.00,0.0212
3492.00,0.0213
3491.00,0.0213
3490.00,0.0214
3489.00,0.0215
3488.00,0.0215
3487.00,0.0216
3486.00,0.0216
3485.00,0.0217
3484.00,0.0217
3483.00,0.0218
3482.00,0.0219
3481.00,0.0219
3480.00,0.0220
3479.00,0.0221
3478.00,0.0221
3477.00,0.0222
3476.00,0.0223
3475.00,0.0223
3474.00,0.0224
3473.00,0.0224
3472.00,0.0225
3471.00,0.0226
3470.00,0.0226
3469.00,0.0227
3468.00,0.0228
3467.00,0.0228
3466.00,0.0228
3465.00,0.0229
3464.00,0.0229
3463.00,0.0229
3462.00,0.0230
3461.00,0.0230
3460.00,0.0231
3459.00,0.0231
3458.00,0.0231
3457.00,0.0232
3456.00,0.0232
3455.00,0.0233
3454.00,0.0233
3453.00,0.0233
3452.00,0.0234
3451.00,0.0234
3450.00,0.0235
3449.00,0.0235
3448.00,0.0235
3447.00,0.0235
3446.00,0.0235
3445.00,0.0236
3444.00,0.0236
3443.00,0.0236
3442.00,0.0237
3441.00,0.0237
3440.00,0.0237
3439.00,0.0238
3438.00,0.0238
3437.00,0.0238
3436.00,0.0238
3435.00,0.0239
3434.00,0.0239
3433.00,0.0239
3432.00,0.0239
3431.00,0.0239
3430.00,0.0239
3429.00,0.0239
3428.00,0.0239
3427.00,0.0239
3426.00,0.0239
3425.00,0.0239
3424.00,0.0239
3423.00,0.0239
3422.00,0.0239
3421.00,0.0239
3420.00,0.0239
3419.00,0.0239
3418.00,0.0240
3417.00,0.0240
3416.00,0.0240
3415.00,0.0240
3414.00,0.0240
3413.00,0.0239
3412.00,0.0239
3411.00,0.0239
3410.00,0.0239
3409.00,0.0239
3408.00,0.0239
3407.00,0.0239
3406.00,0.0239
3405.00,0.0238
3404.00,0.0238
3403.00,0.0238
3402.00,0.0238
3401.00,0.0238
3400.00,0.0237
3399.00,0.0237
3398.00,0.0236
3397.00,0.0236
3396.00,0.0235
3395.00,0.0235
3394.00,0.0235
3393.00,0.0234
3392.00,0.0234
3391.00,0.0234
3390.00,0.0234
3389.00,0.0234
3388.00,0.0234
3387.00,0.0233
3386.00,0.0233
3385.00,0.0232
3384.00,0.0232
3383.00,0.0231
3382.00,0.0231
3381.00,0.0231
3380.00,0.0230
3379.00,0.0230
3378.00,0.0229
3377.00,0.0229
3376.00,0.0228
3375.00,0.0228
3374.00,0.0227
3373.00,0.0226
3372.00,0.0225
3371.00,0.0224
3370.00,0.0223
3369.00,0.0222
3368.00,0.0222
3367.00,0.0221
3366.00,0.0222
3365.00,0.0222
3364.00,0.0222
3363.00,0.0222
3362.00,0.0221
3361.00,0.0220
3360.00,0.0220
3359.00,0.0219
3358.00,0.0219
3357.00,0.0219
3356.00,0.0219
3355.00,0.0218
3354.00,0.0217
3353.00,0.0216
3352.00,0.0215
3351.00,0.0214
3350.00,0.0214
3349.00,0.0214
3348.00,0.0215
3347.00,0.0215
3346.00,0.0214
3345.00,0.0213
3344.00,0.0212
3343.00,0.0211
3342.00,0.0210
3341.00,0.0209
3340.00,0.0209
3339.00,0.0208
3338.00,0.0208
3337.00,0.0209
3336.00,0.0209
3335.00,0.0209
3334.00,0.0209
3333.00,0.0209
3332.00,0.0209
3331.00,0.0209
3330.00,0.0208
3329.00,0.0208
3328.00,0.0207
3327.00,0.0206
3326.00,0.0205
3325.00,0.0205
3324.00,0.0205
3323.00,0.0206
3322.00,0.0206
3321.00,0.0206
3320.00,0.0206
3319.00,0.0206
3318.00,0.0206
3317.00,0.0205
3316.00,0.0205
3315.00,0.0205
3314.00,0.0205
3313.00,0.0205
3312.00,0.0204
3311.00,0.0203
3310.00,0.0201
3309.00,0.0199
3308.00,0.0197
3307.00,0.0196
3306.00,0.0196
3305.00,0.0197
3304.00,0.0199
3303.00,0.0201
3302.00,0.0202
3301.00,0.0202
3300.00,0.0202
3299.00,0.0201
3298.00,0.0200
3297.00,0.0199
3296.00,0.0198
3295.00,0.0198
3294.00,0.0198
3293.00,0.0198
3292.00,0.0198
3291.00,0.0199
3290.00,0.0200
3289.00,0.0201
3288.00,0.0201
3287.00,0.0201
3286.00,0.0201
3285.00,0.0200
3284.00,0.0200
3283.00,0.0200
3282.00,0.0199
3281.00,0.0199
3280.00,0.0199
3279.00,0.0198
3278.00,0.0198
3277.00,0.0197
3276.00,0.0196
3275.00,0.0195
3274.00,0.0194
3273.00,0.0193
3272.00,0.0192
3271.00,0.0191
3270.00,0.0192
3269.00,0.0192
3268.00,0.0193
3267.00,0.0193
3266.00,0.0193
3265.00,0.0192
3264.00,0.0192
3263.00,0.0191
3262.00,0.0191
3261.00,0.0190
3260.00,0.0190
3259.00,0.0189
3258.00,0.0188
3257.00,0.0188
3256.00,0.0187
3255.00,0.0187
3254.00,0.0187
3253.00,0.0186
3252.00,0.0186
3251.00,0.0186
3250.00,0.0185
3249.00,0.0184
3248.00,0.0183
3247.00,0.0182
3246.00,0.0182
3245.00,0.0182
3244.00,0.0182
3243.00,0.0181
3242.00,0.0181
3241.00,0.0181
3240.00,0.0180
3239.00,0.0180
3238.00,0.0179
3237.00,0.0178
3236.00,0.0177
3235.00,0.0176
3234.00,0.0175
3233.00,0.0175
3232.00,0.0175
3231.00,0.0175
3230.00,0.0175
3229.00,0.0174
3228.00,0.0174
3227.00,0.0173
3226.00,0.0173
3225.00,0.0172
3224.00,0.0172
3223.00,0.0171
3222.00,0.0170
3221.00,0.0169
3220.00,0.0169
3219.00,0.0168
3218.00,0.0168
3217.00,0.0167
3216.00,0.0167
3215.00,0.0166
3214.00,0.0165
3213.00,0.0165
3212.00,0.0164
3211.00,0.0163
3210.00,0.0162
3209.00,0.0161
3208.00,0.0161
3207.00,0.0160
3206.00,0.0159
3205.00,0.0159
3204.00,0.0158
3203.00,0.0157
3202.00,0.0157
3201.00,0.0156
3200.00,0.0156
3199.00,0.0155
3198.00,0.0154
3197.00,0.0153
3196.00,0.0153
3195.00,0.0152
3194.00,0.0152
3193.00,0.0151
3192.00,0.0151
3191.00,0.0150
3190.00,0.0149
3189.00,0.0149
3188.00,0.0148
3187.00,0.0148
3186.00,0.0147
3185.00,0.0147
3184.00,0.0146
3183.00,0.0145
3182.00,0.0145
3181.00,0.0144
3180.00,0.0144
3179.00,0.0144
3178.00,0.0144
3177.00,0.0143
3176.00,0.0143
3175.00,0.0142
3174.00,0.0142
3173.00,0.0141
3172.00,0.0141
3171.00,0.0140
3170.00,0.0140
3169.00,0.0139
3168.00,0.0138
3167.00,0.0138
3166.00,0.0137
3165.00,0.0136
3164.00,0.0136
3163.00,0.0136
3162.00,0.0135
3161.00,0.0135
3160.00,0.0135
3159.00,0.0134
3158.00,0.0133
3157.00,0.0133
3156.00,0.0132
3155.00,0.0131
3154.00,0.0131
3153.00,0.0130
3152.00,0.0130
3151.00,0.0129
3150.00,0.0129
3149.00,0.0128
3148.00,0.0128
3147.00,0.0127
3146.00,0.0127
3145.00,0.0126
3144.00,0.0126
3143.00,0.0126
3142.00,0.0125
3141.00,0.0124
3140.00,0.0124
3139.00,0.0123
3138.00,0.0123
3137.00,0.0123
3136.00,0.0123
3135.00,0.0122
3134.00,0.0122
3133.00,0.0121
3132.00,0.0121
3131.00,0.0121
3130.00,0.0120
3129.00,0.0120
3128.00,0.0119
3127.00,0.0119
3126.00,0.0119
3125.00,0.0118
3124.00,0.0118
3123.00,0.0118
3122.00,0.0118
3121.00,0.0117
3120.00,0.0117
3119.00,0.0117
3118.00,0.0116
3117.00,0.0116
3116.00,0.0116
3115.00,0.0116
3114.00,0.0115
3113.00,0.0115
3112.00,0.0114
3111.00,0.0114
3110.00,0.0113
3109.00,0.0113
3108.00,0.0112
3107.00,0.0112
3106.00,0.0111
3105.00,0.0111
3104.00,0.0111
3103.00,0.0110
3102.00,0.0110
3101.00,0.0110
3100.00,0.0110
3099.00,0.0109
3098.00,0.0109
3097.00,0.0109
3096.00,0.0108
3095.00,0.0108
3094.00,0.0108
3093.00,0.0108
3092.00,0.0108
3091.00,0.0108
3090.00,0.0107
3089.00,0.0107
3088.00,0.0107
3087.00,0.0107
3086.00,0.0107
3085.00,0.0106
3084.00,0.0106
3083.00,0.0106
3082.00,0.0106
3081.00,0.0106
3080.00,0.0106
3079.00,0.0106
3078.00,0.0106
3077.00,0.0106
3076.00,0.0106
3075.00,0.0105
3074.00,0.0105
3073.00,0.0104
3072.00,0.0104
3071.00,0.0103
3070.00,0.0103
3069.00,0.0103
3068.00,0.0102
3067.00,0.0102
3066.00,0.0102
3065.00,0.0102
3064.00,0.0101
3063.00,0.0101
3062.00,0.0100
3061.00,0.0100
3060.00,0.0100
3059.00,0.0099
3058.00,0.0099
3057.00,0.0099
3056.00,0.0098
3055.00,0.0098
3054.00,0.0098
3053.00,0.0098
3052.00,0.0097
3051.00,0.0097
3050.00,0.0097
3049.00,0.0097
3048.00,0.0096
3047.00,0.0096
3046.00,0.0096
3045.00,0.0096
3044.00,0.0096
3043.00,0.0095
3042.00,0.0095
3041.00,0.0095
3040.00,0.0094
3039.00,0.0094
3038.00,0.0094
3037.00,0.0093
3036.00,0.0093
3035.00,0.0093
3034.00,0.0093
3033.00,0.0093
3032.00,0.0093
3031.00,0.0093
3030.00,0.0093
3029.00,0.0093
3028.00,0.0092
3027.00,0.0092
3026.00,0.0092
3025.00,0.0092
3024.00,0.0092
3023.00,0.0092
3022.00,0.0092
3021.00,0.0092
3020.00,0.0092
3019.00,0.0093
3018.00,0.0093
3017.00,0.0093
3016.00,0.0094
3015.00,0.0094
3014.00,0.0095
3013.00,0.0096
3012.00,0.0097
3011.00,0.0099
3010.00,0.0100
3009.00,0.0102
3008.00,0.0104
3007.00,0.0106
3006.00,0.0108
3005.00,0.0111
3004.00,0.0114
3003.00,0.0117
3002.00,0.0120
3001.00,0.0123
3000.00,0.0127
2999.00,0.0131
2998.00,0.0135
2997.00,0.0140
2996.00,0.0144
2995.00,0.0149
2994.00,0.0155
2993.00,0.0160
2992.00,0.0165
2991.00,0.0171
2990.00,0.0176
2989.00,0.0181
2988.00,0.0186
2987.00,0.0191
2986.00,0.0196
2985.00,0.0201
2984.00,0.0205
2983.00,0.0210
2982.00,0.0214
2981.00,0.0217
2980.00,0.0220
2979.00,0.0223
2978.00,0.0225
2977.00,0.0228
2976.00,0.0230
2975.00,0.0232
2974.00,0.0235
2973.00,0.0237
2972.00,0.0240
2971.00,0.0242
2970.00,0.0245
2969.00,0.0248
2968.00,0.0251
2967.00,0.0254
2966.00,0.0258
2965.00,0.0262
2964.00,0.0266
2963.00,0.0270
2962.00,0.0274
2961.00,0.0278
2960.00,0.0281
2959.00,0.0285
2958.00,0.0287
2957.00,0.0290
2956.00,0.0292
2955.00,0.0293
2954.00,0.0294
2953.00,0.0295
2952.00,0.0295
2951.00,0.0294
2950.00,0.0293
2949.00,0.0292
2948.00,0.0290
2947.00,0.0288
2946.00,0.0286
2945.00,0.0285
2944.00,0.0283
2943.00,0.0282
2942.00,0.0281
2941.00,0.0281
2940.00,0.0282
2939.00,0.0283
2938.00,0.0284
2937.00,0.0286
2936.00,0.0288
2935.00,0.0290
2934.00,0.0293
2933.00,0.0295
2932.00,0.0297
2931.00,0.0299
2930.00,0.0301
2929.00,0.0303
2928.00,0.0304
2927.00,0.0305
2926.00,0.0305
2925.00,0.0305
2924.00,0.0305
2923.00,0.0303
2922.00,0.0301
2921.00,0.0298
2920.00,0.0294
2919.00,0.0290
2918.00,0.0285
2917.00,0.0280
2916.00,0.0275
2915.00,0.0270
2914.00,0.0265
2913.00,0.0261
2912.00,0.0256
2911.00,0.0252
2910.00,0.0247
2909.00,0.0243
2908.00,0.0239
2907.00,0.0236
2906.00,0.0232
2905.00,0.0230
2904.00,0.0227
2903.00,0.0226
2902.00,0.0224
2901.00,0.0223
2900.00,0.0223
2899.00,0.0222
2898.00,0.0222
2897.00,0.0222
2896.00,0.0222
2895.00,0.0223
2894.00,0.0223
2893.00,0.0223
2892.00,0.0223
2891.00,0.0222
2890.00,0.0222
2889.00,0.0221
2888.00,0.0221
2887.00,0.0221
2886.00,0.0221
2885.00,0.0220
2884.00,0.0220
2883.00,0.0220
2882.00,0.0220
2881.00,0.0221
2880.00,0.0221
2879.00,0.0221
2878.00,0.0222
2877.00,0.0222
2876.00,0.0223
2875.00,0.0223
2874.00,0.0223
2873.00,0.0224
2872.00,0.0224
2871.00,0.0224
2870.00,0.0224
2869.00,0.0224
2868.00,0.0223
2867.00,0.0222
2866.00,0.0221
2865.00,0.0221
2864.00,0.0221
2863.00,0.0220
2862.00,0.0220
2861.00,0.0219
2860.00,0.0219
2859.00,0.0218
2858.00,0.0217
2857.00,0.0215
2856.00,0.0211
2855.00,0.0207
2854.00,0.0202
2853.00,0.0196
2852.00,0.0190
2851.00,0.0183
2850.00,0.0176
2849.00,0.0169
2848.00,0.0163
2847.00,0.0158
2846.00,0.0153
2845.00,0.0148
2844.00,0.0143
2843.00,0.0138
2842.00,0.0133
2841.00,0.0129
2840.00,0.0124
2839.00,0.0120
2838.00,0.0117
2837.00,0.0114
2836.00,0.0112
2835.00,0.0109
2834.00,0.0107
2833.00,0.0104
2832.00,0.0102
2831.00,0.0099
2830.00,0.0097
2829.00,0.0095
2828.00,0.0093
2827.00,0.0091
2826.00,0.0089
2825.00,0.0087
2824.00,0.0085
2823.00,0.0083
2822.00,0.0081
2821.00,0.0079
2820.00,0.0078
2819.00,0.0076
2818.00,0.0075
2817.00,0.0074
2816.00,0.0073
2815.00,0.0072
2814.00,0.0071
2813.00,0.0070
2812.00,0.0069
2811.00,0.0068
2810.00,0.0067
2809.00,0.0067
2808.00,0.0066
2807.00,0.0066
2806.00,0.0065
2805.00,0.0064
2804.00,0.0064
2803.00,0.0063
2802.00,0.0063
2801.00,0.0062
2800.00,0.0062
2799.00,0.0061
2798.00,0.0061
2797.00,0.0060
2796.00,0.0060
2795.00,0.0060
2794.00,0.0059
2793.00,0.0059
2792.00,0.0059
2791.00,0.0058
2790.00,0.0058
2789.00,0.0057
2788.00,0.0057
2787.00,0.0057
2786.00,0.0056
2785.00,0.0056
2784.00,0.0056
2783.00,0.0055
2782.00,0.0055
2781.00,0.0055
2780.00,0.0055
2779.00,0.0054
2778.00,0.0054
2777.00,0.0054
2776.00,0.0053
2775.00,0.0053
2774.00,0.0053
2773.00,0.0053
2772.00,0.0052
2771.00,0.0052
2770.00,0.0052
2769.00,0.0052
2768.00,0.0052
2767.00,0.0052
2766.00,0.0052
2765.00,0.0052
2764.00,0.0052
2763.00,0.0052
2762.00,0.0051
2761.00,0.0051
2760.00,0.0051
2759.00,0.0051
2758.00,0.0051
2757.00,0.0051
2756.00,0.0051
2755.00,0.0051
2754.00,0.0051
2753.00,0.0052
2752.00,0.0052
2751.00,0.0052
2750.00,0.0052
2749.00,0.0052
2748.00,0.0052
2747.00,0.0052
2746.00,0.0052
2745.00,0.0052
2744.00,0.0053
2743.00,0.0053
2742.00,0.0053
2741.00,0.0053
2740.00,0.0053
2739.00,0.0053
2738.00,0.0053
2737.00,0.0053
2736.00,0.0053
2735.00,0.0053
2734.00,0.0053
2733.00,0.0053
2732.00,0.0053
2731.00,0.0053
2730.00,0.0053
2729.00,0.0052
2728.00,0.0052
2727.00,0.0052
2726.00,0.0052
2725.00,0.0051
2724.00,0.0051
2723.00,0.0051
2722.00,0.0051
2721.00,0.0051
2720.00,0.0051
2719.00,0.0051
2718.00,0.0051
2717.00,0.0050
2716.00,0.0050
2715.00,0.0050
2714.00,0.0050
2713.00,0.0049
2712.00,0.0049
2711.00,0.0049
2710.00,0.0049
2709.00,0.0048
2708.00,0.0048
2707.00,0.0048
2706.00,0.0048
2705.00,0.0048
2704.00,0.0047
2703.00,0.0047
2702.00,0.0047
2701.00,0.0047
2700.00,0.0047
2699.00,0.0046
2698.00,0.0046
2697.00,0.0046
2696.00,0.0046
2695.00,0.0046
2694.00,0.0045
2693.00,0.0045
2692.00,0.0045
2691.00,0.0045
2690.00,0.0045
2689.00,0.0044
2688.00,0.0044
2687.00,0.0044
2686.00,0.0044
2685.00,0.0043
2684.00,0.0043
2683.00,0.0043
2682.00,0.0043
2681.00,0.0043
2680.00,0.0043
2679.00,0.0043
2678.00,0.0043
2677.00,0.0043
2676.00,0.0043
2675.00,0.0043
2674.00,0.0043
2673.00,0.0042
2672.00,0.0042
2671.00,0.0042
2670.00,0.0042
2669.00,0.0042
2668.00,0.0042
2667.00,0.0042
2666.00,0.0043
2665.00,0.0043
2664.00,0.0043
2663.00,0.0043
2662.00,0.0044
2661.00,0.0044
2660.00,0.0045
2659.00,0.0045
2658.00,0.0045
2657.00,0.0045
2656.00,0.0045
2655.00,0.0044
2654.00,0.0044
2653.00,0.0044
2652.00,0.0044
2651.00,0.0044
2650.00,0.0044
2649.00,0.0044
2648.00,0.0044
2647.00,0.0044
2646.00,0.0044
2645.00,0.0043
2644.00,0.0043
2643.00,0.0043
2642.00,0.0043
2641.00,0.0043
2640.00,0.0043
2639.00,0.0043
2638.00,0.0043
2637.00,0.0042
2636.00,0.0042
2635.00,0.0042
2634.00,0.0042
2633.00,0.0042
2632.00,0.0042
2631.00,0.0042
2630.00,0.0041
2629.00,0.0041
2628.00,0.0041
2627.00,0.0041
2626.00,0.0040
2625.00,0.0040
2624.00,0.0040
2623.00,0.0040
2622.00,0.0040
2621.00,0.0040
2620.00,0.0039
2619.00,0.0039
2618.00,0.0039
2617.00,0.0039
2616.00,0.0039
2615.00,0.0039
2614.00,0.0039
2613.00,0.0039
2612.00,0.0039
2611.00,0.0039
2610.00,0.0039
2609.00,0.0039
2608.00,0.0038
2607.00,0.0038
2606.00,0.0038
2605.00,0.0038
2604.00,0.0037
2603.00,0.0037
2602.00,0.0037
2601.00,0.0038
2600.00,0.0038
2599.00,0.0038
2598.00,0.0038
2597.00,0.0037
2596.00,0.0037
2595.00,0.0037
2594.00,0.0037
2593.00,0.0037
2592.00,0.0036
2591.00,0.0036
2590.00,0.0036
2589.00,0.0036
2588.00,0.0036
2587.00,0.0036
2586.00,0.0036
2585.00,0.0036
2584.00,0.0037
2583.00,0.0037
2582.00,0.0037
2581.00,0.0037
2580.00,0.0037
2579.00,0.0036
2578.00,0.0036
2577.00,0.0036
2576.00,0.0036
2575.00,0.0036
2574.00,0.0036
2573.00,0.0036
2572.00,0.0036
2571.00,0.0036
2570.00,0.0036
2569.00,0.0036
2568.00,0.0036
2567.00,0.0035
2566.00,0.0035
2565.00,0.0034
2564.00,0.0034
2563.00,0.0033
2562.00,0.0033
2561.00,0.0033
2560.00,0.0032
2559.00,0.0032
2558.00,0.0032
2557.00,0.0032
2556.00,0.0032
2555.00,0.0032
2554.00,0.0033
2553.00,0.0033
2552.00,0.0033
2551.00,0.0033
2550.00,0.0032
2549.00,0.0032
2548.00,0.0032
2547.00,0.0031
2546.00,0.0031
2545.00,0.0031
2544.00,0.0031
2543.00,0.0031
2542.00,0.0031
2541.00,0.0030
2540.00,0.0030
2539.00,0.0030
2538.00,0.0029
2537.00,0.0029
2536.00,0.0029
2535.00,0.0029
2534.00,0.0028
2533.00,0.0028
2532.00,0.0028
2531.00,0.0027
2530.00,0.0027
2529.00,0.0027
2528.00,0.0027
2527.00,0.0028
2526.00,0.0027
2525.00,0.0027
2524.00,0.0027
2523.00,0.0026
2522.00,0.0026
2521.00,0.0025
2520.00,0.0025
2519.00,0.0025
2518.00,0.0025
2517.00,0.0025
2516.00,0.0025
2515.00,0.0025
2514.00,0.0024
2513.00,0.0024
2512.00,0.0025
2511.00,0.0025
2510.00,0.0024
2509.00,0.0024
2508.00,0.0024
2507.00,0.0023
2506.00,0.0023
2505.00,0.0024
2504.00,0.0024
2503.00,0.0023
2502.00,0.0023
2501.00,0.0023
2500.00,0.0023
2499.00,0.0023
2498.00,0.0024
2497.00,0.0024
2496.00,0.0024
2495.00,0.0024
2494.00,0.0023
2493.00,0.0023
2492.00,0.0023
2491.00,0.0022
2490.00,0.0022
2489.00,0.0022
2488.00,0.0022
2487.00,0.0022
2486.00,0.0023
2485.00,0.0023
2484.00,0.0023
2483.00,0.0023
2482.00,0.0023
2481.00,0.0022
2480.00,0.0022
2479.00,0.0022
2478.00,0.0022
2477.00,0.0022
2476.00,0.0022
2475.00,0.0022
2474.00,0.0022
2473.00,0.0022
2472.00,0.0022
2471.00,0.0022
2470.00,0.0021
2469.00,0.0021
2468.00,0.0022
2467.00,0.0022
2466.00,0.0022
2465.00,0.0023
2464.00,0.0023
2463.00,0.0023
2462.00,0.0023
2461.00,0.0023
2460.00,0.0023
2459.00,0.0022
2458.00,0.0022
2457.00,0.0022
2456.00,0.0022
2455.00,0.0022
2454.00,0.0022
2453.00,0.0022
2452.00,0.0022
2451.00,0.0022
2450.00,0.0022
2449.00,0.0022
2448.00,0.0022
2447.00,0.0022
2446.00,0.0022
2445.00,0.0022
2444.00,0.0022
2443.00,0.0022
2442.00,0.0022
2441.00,0.0021
2440.00,0.0021
2439.00,0.0021
2438.00,0.0021
2437.00,0.0020
2436.00,0.0020
2435.00,0.0020
2434.00,0.0020
2433.00,0.0020
2432.00,0.0020
2431.00,0.0020
2430.00,0.0020
2429.00,0.0020
2428.00,0.0021
2427.00,0.0021
2426.00,0.0021
2425.00,0.0020
2424.00,0.0020
2423.00,0.0020
2422.00,0.0020
2421.00,0.0020
2420.00,0.0020
2419.00,0.0021
2418.00,0.0021
2417.00,0.0021
2416.00,0.0021
2415.00,0.0021
2414.00,0.0020
2413.00,0.0020
2412.00,0.0020
2411.00,0.0020
2410.00,0.0020
2409.00,0.0020
2408.00,0.0020
2407.00,0.0020
2406.00,0.0020
2405.00,0.0019
2404.00,0.0019
2403.00,0.0019
2402.00,0.0019
2401.00,0.0019
2400.00,0.0019
2399.00,0.0019
2398.00,0.0019
2397.00,0.0019
2396.00,0.0019
2395.00,0.0019
2394.00,0.0019
2393.00,0.0019
2392.00,0.0019
2391.00,0.0019
2390.00,0.0019
2389.00,0.0018
2388.00,0.0018
2387.00,0.0018
2386.00,0.0018
2385.00,0.0018
2384.00,0.0018
2383.00,0.0018
2382.00,0.0018
2381.00,0.0018
2380.00,0.0018
2379.00,0.0018
2378.00,0.0018
2377.00,0.0018
2376.00,0.0018
2375.00,0.0018
2374.00,0.0017
2373.00,0.0017
2372.00,0.0016
2371.00,0.0016
2370.00,0.0016
2369.00,0.0016
2368.00,0.0016
2367.00,0.0016
2366.00,0.0017
2365.00,0.0018
2364.00,0.0018
2363.00,0.0019
2362.00,0.0019
2361.00,0.0019
2360.00,0.0019
2359.00,0.0019
2358.00,0.0020
2357.00,0.0020
2356.00,0.0020
2355.00,0.0019
2354.00,0.0019
2353.00,0.0019
2352.00,0.0019
2351.00,0.0019
2350.00,0.0020
2349.00,0.0021
2348.00,0.0022
2347.00,0.0024
2346.00,0.0024
2345.00,0.0024
2344.00,0.0023
2343.00,0.0023
2342.00,0.0023
2341.00,0.0023
2340.00,0.0023
2339.00,0.0023
2338.00,0.0023
2337.00,0.0023
2336.00,0.0023
2335.00,0.0022
2334.00,0.0021
2333.00,0.0021
2332.00,0.0021
2331.00,0.0021
2330.00,0.0022
2329.00,0.0024
2328.00,0.0027
2327.00,0.0031
2326.00,0.0033
2325.00,0.0034
2324.00,0.0034
2323.00,0.0032
2322.00,0.0030
2321.00,0.0029
2320.00,0.0029
2319.00,0.0028
2318.00,0.0028
2317.00,0.0028
2316.00,0.0028
2315.00,0.0028
2314.00,0.0027
2313.00,0.0027
2312.00,0.0026
2311.00,0.0026
2310.00,0.0026
2309.00,0.0026
2308.00,0.0026
2307.00,0.0026
2306.00,0.0026
2305.00,0.0026
2304.00,0.0026
2303.00,0.0026
2302.00,0.0027
2301.00,0.0027
2300.00,0.0027
2299.00,0.0028
2298.00,0.0028
2297.00,0.0029
2296.00,0.0029
2295.00,0.0029
2294.00,0.0030
2293.00,0.0030
2292.00,0.0031
2291.00,0.0031
2290.00,0.0032
2289.00,0.0032
2288.00,0.0032
2287.00,0.0032
2286.00,0.0032
2285.00,0.0031
2284.00,0.0031
2283.00,0.0031
2282.00,0.0030
2281.00,0.0029
2280.00,0.0029
2279.00,0.0028
2278.00,0.0028
2277.00,0.0028
2276.00,0.0029
2275.00,0.0028
2274.00,0.0028
2273.00,0.0028
2272.00,0.0027
2271.00,0.0027
2270.00,0.0026
2269.00,0.0025
2268.00,0.0025
2267.00,0.0025
2266.00,0.0024
2265.00,0.0024
2264.00,0.0023
2263.00,0.0023
2262.00,0.0024
2261.00,0.0024
2260.00,0.0025
2259.00,0.0025
2258.00,0.0025
2257.00,0.0024
2256.00,0.0024
2255.00,0.0023
2254.00,0.0023
2253.00,0.0023
2252.00,0.0023
2251.00,0.0023
2250.00,0.0024
2249.00,0.0024
2248.00,0.0025
2247.00,0.0025
2246.00,0.0025
2245.00,0.0025
2244.00,0.0025
2243.00,0.0025
2242.00,0.0024
2241.00,0.0024
2240.00,0.0025
2239.00,0.0025
2238.00,0.0026
2237.00,0.0026
2236.00,0.0027
2235.00,0.0027
2234.00,0.0027
2233.00,0.0026
2232.00,0.0026
2231.00,0.0025
2230.00,0.0025
2229.00,0.0025
2228.00,0.0025
2227.00,0.0024
2226.00,0.0024
2225.00,0.0024
2224.00,0.0024
2223.00,0.0025
2222.00,0.0025
2221.00,0.0025
2220.00,0.0025
2219.00,0.0024
2218.00,0.0024
2217.00,0.0024
2216.00,0.0025
2215.00,0.0025
2214.00,0.0025
2213.00,0.0025
2212.00,0.0024
2211.00,0.0024
2210.00,0.0024
2209.00,0.0024
2208.00,0.0025
2207.00,0.0025
2206.00,0.0026
2205.00,0.0026
2204.00,0.0026
2203.00,0.0027
2202.00,0.0028
2201.00,0.0028
2200.00,0.0027
2199.00,0.0027
2198.00,0.0026
2197.00,0.0027
2196.00,0.0027
2195.00,0.0028
2194.00,0.0027
2193.00,0.0027
2192.00,0.0027
2191.00,0.0028
2190.00,0.0028
2189.00,0.0029
2188.00,0.0029
2187.00,0.0028
2186.00,0.0027
2185.00,0.0025
2184.00,0.0024
2183.00,0.0022
2182.00,0.0021
2181.00,0.0021
2180.00,0.0022
2179.00,0.0023
2178.00,0.0022
2177.00,0.0022
2176.00,0.0022
2175.00,0.0024
2174.00,0.0026
2173.00,0.0028
2172.00,0.0030
2171.00,0.0032
2170.00,0.0033
2169.00,0.0033
2168.00,0.0034
2167.00,0.0034
2166.00,0.0035
2165.00,0.0037
2164.00,0.0039
2163.00,0.0039
2162.00,0.0035
2161.00,0.0026
2160.00,0.0015
2159.00,0.0004
2158.00,-0.0002
2157.00,-0.0004
2156.00,-0.0002
2155.00,0.0001
2154.00,0.0004
2153.00,0.0007
2152.00,0.0010
2151.00,0.0012
2150.00,0.0012
2149.00,0.0012
2148.00,0.0011
2147.00,0.0010
2146.00,0.0009
2145.00,0.0010
2144.00,0.0010
2143.00,0.0011
2142.00,0.0010
2141.00,0.0010
2140.00,0.0011
2139.00,0.0011
2138.00,0.0011
2137.00,0.0010
2136.00,0.0009
2135.00,0.0008
2134.00,0.0007
2133.00,0.0007
2132.00,0.0008
2131.00,0.0009
2130.00,0.0011
2129.00,0.0012
2128.00,0.0014
2127.00,0.0015
2126.00,0.0016
2125.00,0.0016
2124.00,0.0017
2123.00,0.0018
2122.00,0.0019
2121.00,0.0019
2120.00,0.0020
2119.00,0.0020
2118.00,0.0021
2117.00,0.0022
2116.00,0.0022
2115.00,0.0023
2114.00,0.0023
2113.00,0.0023
2112.00,0.0023
2111.00,0.0023
2110.00,0.0023
2109.00,0.0022
2108.00,0.0022
2107.00,0.0022
2106.00,0.0023
2105.00,0.0024
2104.00,0.0026
2103.00,0.0026
2102.00,0.0026
2101.00,0.0025
2100.00,0.0025
2099.00,0.0024
2098.00,0.0023
2097.00,0.0021
2096.00,0.0020
2095.00,0.0019
2094.00,0.0020
2093.00,0.0021
2092.00,0.0022
2091.00,0.0023
2090.00,0.0023
2089.00,0.0023
2088.00,0.0023
2087.00,0.0024
2086.00,0.0024
2085.00,0.0024
2084.00,0.0024
2083.00,0.0025
2082.00,0.0025
2081.00,0.0025
2080.00,0.0025
2079.00,0.0025
2078.00,0.0025
2077.00,0.0025
2076.00,0.0025
2075.00,0.0025
2074.00,0.0025
2073.00,0.0024
2072.00,0.0023
2071.00,0.0022
2070.00,0.0022
2069.00,0.0021
2068.00,0.0021
2067.00,0.0021
2066.00,0.0020
2065.00,0.0019
2064.00,0.0019
2063.00,0.0019
2062.00,0.0020
2061.00,0.0020
2060.00,0.0021
2059.00,0.0022
2058.00,0.0022
2057.00,0.0022
2056.00,0.0021
2055.00,0.0021
2054.00,0.0023
2053.00,0.0025
2052.00,0.0029
2051.00,0.0030
2050.00,0.0028
2049.00,0.0026
2048.00,0.0024
2047.00,0.0023
2046.00,0.0022
2045.00,0.0021
2044.00,0.0021
2043.00,0.0021
2042.00,0.0021
2041.00,0.0021
2040.00,0.0022
2039.00,0.0022
2038.00,0.0022
2037.00,0.0020
2036.00,0.0019
2035.00,0.0018
2034.00,0.0017
2033.00,0.0016
2032.00,0.0016
2031.00,0.0015
2030.00,0.0013
2029.00,0.0011
2028.00,0.0011
2027.00,0.0011
2026.00,0.0011
2025.00,0.0011
2024.00,0.0012
2023.00,0.0013
2022.00,0.0013
2021.00,0.0014
2020.00,0.0014
2019.00,0.0013
2018.00,0.0013
2017.00,0.0012
2016.00,0.0012
2015.00,0.0011
2014.00,0.0012
2013.00,0.0012
2012.00,0.0013
2011.00,0.0013
2010.00,0.0011
2009.00,0.0009
2008.00,0.0009
2007.00,0.0009
2006.00,0.0007
2005.00,0.0006
2004.00,0.0006
2003.00,0.0007
2002.00,0.0008
2001.00,0.0009
2000.00,0.0010
1999.00,0.0011
1998.00,0.0011
1997.00,0.0011
1996.00,0.0013
1995.00,0.0014
1994.00,0.0014
1993.00,0.0013
1992.00,0.0014
1991.00,0.0015
1990.00,0.0015
1989.00,0.0016
1988.00,0.0018
1987.00,0.0019
1986.00,0.0020
1985.00,0.0021
1984.00,0.0023
1983.00,0.0026
1982.00,0.0028
1981.00,0.0028
1980.00,0.0024
1979.00,0.0018
1978.00,0.0012
1977.00,0.0008
1976.00,0.0008
1975.00,0.0009
1974.00,0.0008
1973.00,0.0008
1972.00,0.0009
1971.00,0.0009
1970.00,0.0009
1969.00,0.0010
1968.00,0.0010
1967.00,0.0011
1966.00,0.0011
1965.00,0.0010
1964.00,0.0010
1963.00,0.0011
1962.00,0.0010
1961.00,0.0008
1960.00,0.0006
1959.00,0.0005
1958.00,0.0004
1957.00,0.0005
1956.00,0.0008
1955.00,0.0010
1954.00,0.0011
1953.00,0.0011
1952.00,0.0011
1951.00,0.0011
1950.00,0.0009
1949.00,0.0008
1948.00,0.0008
1947.00,0.0008
1946.00,0.0008
1945.00,0.0008
1944.00,0.0009
1943.00,0.0010
1942.00,0.0010
1941.00,0.0010
1940.00,0.0010
1939.00,0.0010
1938.00,0.0010
1937.00,0.0010
1936.00,0.0011
1935.00,0.0011
1934.00,0.0011
1933.00,0.0011
1932.00,0.0011
1931.00,0.0012
1930.00,0.0012
1929.00,0.0012
1928.00,0.0012
1927.00,0.0012
1926.00,0.0012
1925.00,0.0013
1924.00,0.0014
1923.00,0.0015
1922.00,0.0015
1921.00,0.0014
1920.00,0.0014
1919.00,0.0014
1918.00,0.0014
1917.00,0.0013
1916.00,0.0014
1915.00,0.0014
1914.00,0.0014
1913.00,0.0015
1912.00,0.0015
1911.00,0.0016
1910.00,0.0016
1909.00,0.0016
1908.00,0.0016
1907.00,0.0015
1906.00,0.0015
1905.00,0.0014
1904.00,0.0015
1903.00,0.0015
1902.00,0.0015
1901.00,0.0015
1900.00,0.0015
1899.00,0.0015
1898.00,0.0015
1897.00,0.0015
1896.00,0.0016
1895.00,0.0016
1894.00,0.0016
1893.00,0.0016
1892.00,0.0016
1891.00,0.0016
1890.00,0.0017
1889.00,0.0017
1888.00,0.0017
1887.00,0.0018
1886.00,0.0017
1885.00,0.0017
1884.00,0.0016
1883.00,0.0016
1882.00,0.0016
1881.00,0.0016
1880.00,0.0016
1879.00,0.0016
1878.00,0.0016
1877.00,0.0016
1876.00,0.0016
1875.00,0.0016
1874.00,0.0016
1873.00,0.0016
1872.00,0.0016
1871.00,0.0016
1870.00,0.0016
1869.00,0.0016
1868.00,0.0017
1867.00,0.0017
1866.00,0.0017
1865.00,0.0017
1864.00,0.0017
1863.00,0.0018
1862.00,0.0018
1861.00,0.0018
1860.00,0.0019
1859.00,0.0019
1858.00,0.0019
1857.00,0.0018
1856.00,0.0019
1855.00,0.0019
1854.00,0.0019
1853.00,0.0019
1852.00,0.0019
1851.00,0.0019
1850.00,0.0019
1849.00,0.0020
1848.00,0.0019
1847.00,0.0019
1846.00,0.0018
1845.00,0.0018
1844.00,0.0018
1843.00,0.0018
1842.00,0.0018
1841.00,0.0018
1840.00,0.0019
1839.00,0.0019
1838.00,0.0019
1837.00,0.0019
1836.00,0.0019
1835.00,0.0019
1834.00,0.0019
1833.00,0.0019
1832.00,0.0019
1831.00,0.0019
1830.00,0.0019
1829.00,0.0018
1828.00,0.0019
1827.00,0.0019
1826.00,0.0020
1825.00,0.0020
1824.00,0.0020
1823.00,0.0020
1822.00,0.0020
1821.00,0.0019
1820.00,0.0019
1819.00,0.0019
1818.00,0.0018
1817.00,0.0018
1816.00,0.0018
1815.00,0.0019
1814.00,0.0019
1813.00,0.0020
1812.00,0.0020
1811.00,0.0020
1810.00,0.0020
1809.00,0.0021
1808.00,0.0021
1807.00,0.0021
1806.00,0.0021
1805.00,0.0021
1804.00,0.0022
1803.00,0.0022
1802.00,0.0022
1801.00,0.0023
1800.00,0.0023
1799.00,0.0023
1798.00,0.0024
1797.00,0.0024
1796.00,0.0024
1795.00,0.0023
1794.00,0.0023
1793.00,0.0023
1792.00,0.0023
1791.00,0.0024
1790.00,0.0024
1789.00,0.0024
1788.00,0.0025
1787.00,0.0025
1786.00,0.0026
1785.00,0.0026
1784.00,0.0027
1783.00,0.0027
1782.00,0.0027
1781.00,0.0028
1780.00,0.0028
1779.00,0.0029
1778.00,0.0028
1777.00,0.0028
1776.00,0.0028
1775.00,0.0028
1774.00,0.0028
1773.00,0.0028
1772.00,0.0029
1771.00,0.0029
1770.00,0.0030
1769.00,0.0030
1768.00,0.0032
1767.00,0.0032
1766.00,0.0032
1765.00,0.0033
1764.00,0.0033
1763.00,0.0034
1762.00,0.0034
1761.00,0.0034
1760.00,0.0035
1759.00,0.0036
1758.00,0.0036
1757.00,0.0037
1756.00,0.0037
1755.00,0.0038
1754.00,0.0038
1753.00,0.0039
1752.00,0.0041
1751.00,0.0043
1750.00,0.0043
1749.00,0.0044
1748.00,0.0046
1747.00,0.0047
1746.00,0.0047
1745.00,0.0047
1744.00,0.0048
1743.00,0.0048
1742.00,0.0047
1741.00,0.0047
1740.00,0.0048
1739.00,0.0050
1738.00,0.0050
1737.00,0.0050
1736.00,0.0051
1735.00,0.0053
1734.00,0.0055
1733.00,0.0058
1732.00,0.0061
1731.00,0.0064
1730.00,0.0065
1729.00,0.0067
1728.00,0.0069
1727.00,0.0071
1726.00,0.0073
1725.00,0.0075
1724.00,0.0078
1723.00,0.0080
1722.00,0.0081
1721.00,0.0082
1720.00,0.0084
1719.00,0.0087
1718.00,0.0091
1717.00,0.0095
1716.00,0.0100
1715.00,0.0105
1714.00,0.0110
1713.00,0.0114
1712.00,0.0120
1711.00,0.0126
1710.00,0.0132
1709.00,0.0138
1708.00,0.0145
1707.00,0.0155
1706.00,0.0165
1705.00,0.0177
1704.00,0.0188
1703.00,0.0198
1702.00,0.0210
1701.00,0.0230
1700.00,0.0260
1699.00,0.0289
1698.00,0.0313
1697.00,0.0341
1696.00,0.0378
1695.00,0.0419
1694.00,0.0457
1693.00,0.0491
1692.00,0.0528
1691.00,0.0569
1690.00,0.0613
1689.00,0.0657
1688.00,0.0698
1687.00,0.0736
1686.00,0.0773
1685.00,0.0821
1684.00,0.0880
1683.00,0.0932
1682.00,0.0973
1681.00,0.1010
1680.00,0.1047
1679.00,0.1082
1678.00,0.1113
1677.00,0.1144
1676.00,0.1178
1675.00,0.1214
1674.00,0.1248
1673.00,0.1277
1672.00,0.1307
1671.00,0.1337
1670.00,0.1368
1669.00,0.1401
1668.00,0.1435
1667.00,0.1465
1666.00,0.1493
1665.00,0.1521
1664.00,0.1550
1663.00,0.1579
1662.00,0.1607
1661.00,0.1632
1660.00,0.1657
1659.00,0.1679
1658.00,0.1697
1657.00,0.1713
1656.00,0.1727
1655.00,0.1738
1654.00,0.1740
1653.00,0.1730
1652.00,0.1723
1651.00,0.1723
1650.00,0.1723
1649.00,0.1718
1648.00,0.1702
1647.00,0.1672
1646.00,0.1633
1645.00,0.1598
1644.00,0.1566
1643.00,0.1534
1642.00,0.1497
1641.00,0.1455
1640.00,0.1411
1639.00,0.1368
1638.00,0.1322
1637.00,0.1269
1636.00,0.1205
1635.00,0.1140
1634.00,0.1087
1633.00,0.1045
1632.00,0.1007
1631.00,0.0970
1630.00,0.0932
1629.00,0.0894
1628.00,0.0859
1627.00,0.0831
1626.00,0.0810
1625.00,0.0794
1624.00,0.0785
1623.00,0.0780
1622.00,0.0779
1621.00,0.0778
1620.00,0.0777
1619.00,0.0772
1618.00,0.0762
1617.00,0.0744
1616.00,0.0723
1615.00,0.0702
1614.00,0.0684
1613.00,0.0666
1612.00,0.0649
1611.00,0.0633
1610.00,0.0616
1609.00,0.0597
1608.00,0.0576
1607.00,0.0552
1606.00,0.0526
1605.00,0.0498
1604.00,0.0469
1603.00,0.0442
1602.00,0.0415
1601.00,0.0392
1600.00,0.0371
1599.00,0.0353
1598.00,0.0339
1597.00,0.0328
1596.00,0.0320
1595.00,0.0315
1594.00,0.0315
1593.00,0.0319
1592.00,0.0327
1591.00,0.0340
1590.00,0.0356
1589.00,0.0374
1588.00,0.0390
1587.00,0.0404
1586.00,0.0412
1585.00,0.0412
1584.00,0.0406
1583.00,0.0395
1582.00,0.0378
1581.00,0.0359
1580.00,0.0340
1579.00,0.0322
1578.00,0.0306
1577.00,0.0289
1576.00,0.0272
1575.00,0.0259
1574.00,0.0250
1573.00,0.0243
1572.00,0.0236
1571.00,0.0228
1570.00,0.0221
1569.00,0.0214
1568.00,0.0207
1567.00,0.0203
1566.00,0.0198
1565.00,0.0193
1564.00,0.0187
1563.00,0.0182
1562.00,0.0176
1561.00,0.0169
1560.00,0.0163
1559.00,0.0159
1558.00,0.0154
1557.00,0.0153
1556.00,0.0153
1555.00,0.0153
1554.00,0.0152
1553.00,0.0150
1552.00,0.0149
1551.00,0.0147
1550.00,0.0146
1549.00,0.0144
1548.00,0.0141
1547.00,0.0139
1546.00,0.0138
1545.00,0.0136
1544.00,0.0134
1543.00,0.0131
1542.00,0.0128
1541.00,0.0127
1540.00,0.0126
1539.00,0.0126
1538.00,0.0127
1537.00,0.0127
1536.00,0.0128
1535.00,0.0127
1534.00,0.0128
1533.00,0.0128
1532.00,0.0128
1531.00,0.0129
1530.00,0.0130
1529.00,0.0131
1528.00,0.0132
1527.00,0.0133
1526.00,0.0134
1525.00,0.0135
1524.00,0.0136
1523.00,0.0138
1522.00,0.0142
1521.00,0.0146
1520.00,0.0149
1519.00,0.0152
1518.00,0.0157
1517.00,0.0161
1516.00,0.0164
1515.00,0.0166
1514.00,0.0168
1513.00,0.0170
1512.00,0.0172
1511.00,0.0174
1510.00,0.0176
1509.00,0.0180
1508.00,0.0184
1507.00,0.0192
1506.00,0.0202
1505.00,0.0214
1504.00,0.0228
1503.00,0.0243
1502.00,0.0261
1501.00,0.0282
1500.00,0.0305
1499.00,0.0330
1498.00,0.0357
1497.00,0.0383
1496.00,0.0402
1495.00,0.0414
1494.00,0.0418
1493.00,0.0416
1492.00,0.0408
1491.00,0.0393
1490.00,0.0373
1489.00,0.0348
1488.00,0.0323
1487.00,0.0299
1486.00,0.0277
1485.00,0.0259
1484.00,0.0243
1483.00,0.0230
1482.00,0.0220
1481.00,0.0212
1480.00,0.0208
1479.00,0.0205
1478.00,0.0206
1477.00,0.0210
1476.00,0.0217
1475.00,0.0227
1474.00,0.0243
1473.00,0.0268
1472.00,0.0300
1471.00,0.0336
1470.00,0.0372
1469.00,0.0411
1468.00,0.0454
1467.00,0.0499
1466.00,0.0552
1465.00,0.0609
1464.00,0.0663
1463.00,0.0704
1462.00,0.0731
1461.00,0.0747
1460.00,0.0751
1459.00,0.0740
1458.00,0.0713
1457.00,0.0669
1456.00,0.0624
1455.00,0.0589
1454.00,0.0564
1453.00,0.0546
1452.00,0.0533
1451.00,0.0528
1450.00,0.0533
1449.00,0.0548
1448.00,0.0572
1447.00,0.0604
1446.00,0.0639
1445.00,0.0676
1444.00,0.0714
1443.00,0.0752
1442.00,0.0788
1441.00,0.0820
1440.00,0.0846
1439.00,0.0866
1438.00,0.0882
1437.00,0.0896
1436.00,0.0907
1435.00,0.0912
1434.00,0.0914
1433.00,0.0915
1432.00,0.0915
1431.00,0.0917
1430.00,0.0923
1429.00,0.0937
1428.00,0.0958
1427.00,0.0984
1426.00,0.1015
1425.00,0.1048
1424.00,0.1078
1423.00,0.1097
1422.00,0.1102
1421.00,0.1091
1420.00,0.1058
1419.00,0.1003
1418.00,0.0936
1417.00,0.0872
1416.00,0.0811
1415.00,0.0751
1414.00,0.0697
1413.00,0.0650
1412.00,0.0610
1411.00,0.0578
1410.00,0.0553
1409.00,0.0536
1408.00,0.0525
1407.00,0.0517
1406.00,0.0513
1405.00,0.0511
1404.00,0.0509
1403.00,0.0507
1402.00,0.0502
1401.00,0.0494
1400.00,0.0481
1399.00,0.0464
1398.00,0.0443
1397.00,0.0422
1396.00,0.0400
1395.00,0.0377
1394.00,0.0356
1393.00,0.0340
1392.00,0.0329
1391.00,0.0320
1390.00,0.0316
1389.00,0.0314
1388.00,0.0316
1387.00,0.0321
1386.00,0.0329
1385.00,0.0339
1384.00,0.0350
1383.00,0.0363
1382.00,0.0377
1381.00,0.0390
1380.00,0.0402
1379.00,0.0411
1378.00,0.0417
1377.00,0.0422
1376.00,0.0423
1375.00,0.0423
1374.00,0.0421
1373.00,0.0417
1372.00,0.0411
1371.00,0.0404
1370.00,0.0397
1369.00,0.0390
1368.00,0.0382
1367.00,0.0374
1366.00,0.0369
1365.00,0.0367
1364.00,0.0365
1363.00,0.0366
1362.00,0.0365
1361.00,0.0363
1360.00,0.0356
1359.00,0.0346
1358.00,0.0332
1357.00,0.0316
1356.00,0.0300
1355.00,0.0285
1354.00,0.0273
1353.00,0.0263
1352.00,0.0256
1351.00,0.0251
1350.00,0.0248
1349.00,0.0246
1348.00,0.0244
1347.00,0.0243
1346.00,0.0243
1345.00,0.0243
1344.00,0.0243
1343.00,0.0243
1342.00,0.0245
1341.00,0.0248
1340.00,0.0251
1339.00,0.0255
1338.00,0.0259
1337.00,0.0264
1336.00,0.0269
1335.00,0.0276
1334.00,0.0283
1333.00,0.0290
1332.00,0.0298
1331.00,0.0307
1330.00,0.0316
1329.00,0.0327
1328.00,0.0338
1327.00,0.0350
1326.00,0.0363
1325.00,0.0378
1324.00,0.0393
1323.00,0.0408
1322.00,0.0422
1321.00,0.0435
1320.00,0.0445
1319.00,0.0451
1318.00,0.0454
1317.00,0.0453
1316.00,0.0448
1315.00,0.0440
1314.00,0.0431
1313.00,0.0420
1312.00,0.0409
1311.00,0.0400
1310.00,0.0394
1309.00,0.0390
1308.00,0.0389
1307.00,0.0391
1306.00,0.0397
1305.00,0.0407
1304.00,0.0421
1303.00,0.0439
1302.00,0.0463
1301.00,0.0494
1300.00,0.0532
1299.00,0.0579
1298.00,0.0636
1297.00,0.0702
1296.00,0.0775
1295.00,0.0853
1294.00,0.0933
1293.00,0.1010
1292.00,0.1081
1291.00,0.1144
1290.00,0.1196
1289.00,0.1235
1288.00,0.1261
1287.00,0.1273
1286.00,0.1273
1285.00,0.1261
1284.00,0.1239
1283.00,0.1212
1282.00,0.1183
1281.00,0.1155
1280.00,0.1132
1279.00,0.1116
1278.00,0.1106
1277.00,0.1103
1276.00,0.1103
1275.00,0.1104
1274.00,0.1104
1273.00,0.1100
1272.00,0.1090
1271.00,0.1072
1270.00,0.1047
1269.00,0.1014
1268.00,0.0976
1267.00,0.0934
1266.00,0.0889
1265.00,0.0843
1264.00,0.0798
1263.00,0.0755
1262.00,0.0715
1261.00,0.0677
1260.00,0.0642
1259.00,0.0610
1258.00,0.0581
1257.00,0.0555
1256.00,0.0531
1255.00,0.0510
1254.00,0.0492
1253.00,0.0476
1252.00,0.0463
1251.00,0.0452
1250.00,0.0445
1249.00,0.0441
1248.00,0.0440
1247.00,0.0442
1246.00,0.0447
1245.00,0.0455
1244.00,0.0464
1243.00,0.0474
1242.00,0.0484
1241.00,0.0494
1240.00,0.0502
1239.00,0.0510
1238.00,0.0517
1237.00,0.0524
1236.00,0.0531
1235.00,0.0537
1234.00,0.0542
1233.00,0.0546
1232.00,0.0549
1231.00,0.0550
1230.00,0.0549
1229.00,0.0548
1228.00,0.0546
1227.00,0.0543
1226.00,0.0542
1225.00,0.0540
1224.00,0.0540
1223.00,0.0541
1222.00,0.0543
1221.00,0.0544
1220.00,0.0545
1219.00,0.0545
1218.00,0.0543
1217.00,0.0537
1216.00,0.0527
1215.00,0.0514
1214.00,0.0499
1213.00,0.0481
1212.00,0.0463
1211.00,0.0445
1210.00,0.0429
1209.00,0.0414
1208.00,0.0401
1207.00,0.0390
1206.00,0.0382
1205.00,0.0376
1204.00,0.0372
1203.00,0.0371
1202.00,0.0373
1201.00,0.0377
1200.00,0.0384
1199.00,0.0392
1198.00,0.0401
1197.00,0.0411
1196.00,0.0419
1195.00,0.0425
1194.00,0.0427
1193.00,0.0425
1192.00,0.0418
1191.00,0.0407
1190.00,0.0393
1189.00,0.0378
1188.00,0.0364
1187.00,0.0350
1186.00,0.0338
1185.00,0.0329
1184.00,0.0321
1183.00,0.0315
1182.00,0.0312
1181.00,0.0310
1180.00,0.0309
1179.00,0.0310
1178.00,0.0312
1177.00,0.0316
1176.00,0.0320
1175.00,0.0325
1174.00,0.0331
1173.00,0.0336
1172.00,0.0340
1171.00,0.0343
1170.00,0.0345
1169.00,0.0346
1168.00,0.0345
1167.00,0.0343
1166.00,0.0342
1165.00,0.0341
1164.00,0.0342
1163.00,0.0345
1162.00,0.0351
1161.00,0.0359
1160.00,0.0368
1159.00,0.0378
1158.00,0.0387
1157.00,0.0391
1156.00,0.0391
1155.00,0.0386
1154.00,0.0378
1153.00,0.0365
1152.00,0.0350
1151.00,0.0334
1150.00,0.0318
1149.00,0.0301
1148.00,0.0286
1147.00,0.0271
1146.00,0.0259
1145.00,0.0248
1144.00,0.0239
1143.00,0.0232
1142.00,0.0226
1141.00,0.0223
1140.00,0.0221
1139.00,0.0222
1138.00,0.0226
1137.00,0.0233
1136.00,0.0244
1135.00,0.0260
1134.00,0.0280
1133.00,0.0302
1132.00,0.0325
1131.00,0.0344
1130.00,0.0357
1129.00,0.0360
1128.00,0.0353
1127.00,0.0339
1126.00,0.0320
1125.00,0.0300
1124.00,0.0280
1123.00,0.0265
1122.00,0.0253
1121.00,0.0244
1120.00,0.0238
1119.00,0.0233
1118.00,0.0231
1117.00,0.0229
1116.00,0.0228
1115.00,0.0228
1114.00,0.0229
1113.00,0.0230
1112.00,0.0231
1111.00,0.0233
1110.00,0.0235
1109.00,0.0238
1108.00,0.0241
1107.00,0.0245
1106.00,0.0250
1105.00,0.0257
1104.00,0.0264
1103.00,0.0271
1102.00,0.0279
1101.00,0.0285
1100.00,0.0288
1099.00,0.0288
1098.00,0.0285
1097.00,0.0280
1096.00,0.0273
1095.00,0.0266
1094.00,0.0259
1093.00,0.0253
1092.00,0.0248
1091.00,0.0243
1090.00,0.0239
1089.00,0.0237
1088.00,0.0235
1087.00,0.0234
1086.00,0.0234
1085.00,0.0235
1084.00,0.0236
1083.00,0.0238
1082.00,0.0241
1081.00,0.0245
1080.00,0.0249
1079.00,0.0254
1078.00,0.0261
1077.00,0.0267
1076.00,0.0274
1075.00,0.0280
1074.00,0.0287
1073.00,0.0295
1072.00,0.0302
1071.00,0.0311
1070.00,0.0322
1069.00,0.0336
1068.00,0.0352
1067.00,0.0371
1066.00,0.0394
1065.00,0.0420
1064.00,0.0447
1063.00,0.0477
1062.00,0.0506
1061.00,0.0534
1060.00,0.0557
1059.00,0.0573
1058.00,0.0580
1057.00,0.0577
1056.00,0.0563
1055.00,0.0539
1054.00,0.0509
1053.00,0.0475
1052.00,0.0440
1051.00,0.0407
1050.00,0.0378
1049.00,0.0353
1048.00,0.0332
1047.00,0.0315
1046.00,0.0303
1045.00,0.0294
1044.00,0.0287
1043.00,0.0282
1042.00,0.0278
1041.00,0.0276
1040.00,0.0274
1039.00,0.0273
1038.00,0.0274
1037.00,0.0275
1036.00,0.0277
1035.00,0.0280
1034.00,0.0285
1033.00,0.0292
1032.00,0.0297
1031.00,0.0302
1030.00,0.0305
1029.00,0.0305
1028.00,0.0302
1027.00,0.0297
1026.00,0.0293
1025.00,0.0290
1024.00,0.0288
1023.00,0.0288
1022.00,0.0291
1021.00,0.0294
1020.00,0.0298
1019.00,0.0301
1018.00,0.0304
1017.00,0.0303
1016.00,0.0299
1015.00,0.0291
1014.00,0.0283
1013.00,0.0273
1012.00,0.0263
1011.00,0.0256
1010.00,0.0253
1009.00,0.0254
1008.00,0.0258
1007.00,0.0265
1006.00,0.0276
1005.00,0.0288
1004.00,0.0298
1003.00,0.0305
1002.00,0.0308
1001.00,0.0305
1000.00,0.0299
999.00,0.0290
998.00,0.0280
997.00,0.0271
996.00,0.0263
995.00,0.0256
994.00,0.0249
993.00,0.0244
992.00,0.0238
991.00,0.0232
990.00,0.0227
989.00,0.0221
988.00,0.0216
987.00,0.0211
986.00,0.0207
985.00,0.0203
984.00,0.0200
983.00,0.0197
982.00,0.0195
981.00,0.0194
980.00,0.0193
979.00,0.0193
978.00,0.0193
977.00,0.0193
976.00,0.0193
975.00,0.0192
974.00,0.0191
973.00,0.0190
972.00,0.0188
971.00,0.0185
970.00,0.0183
969.00,0.0181
968.00,0.0179
967.00,0.0177
966.00,0.0176
965.00,0.0175
964.00,0.0174
963.00,0.0172
962.00,0.0171
961.00,0.0169
960.00,0.0167
959.00,0.0166
958.00,0.0165
957.00,0.0164
956.00,0.0163
955.00,0.0162
954.00,0.0161
953.00,0.0161
952.00,0.0160
951.00,0.0160
950.00,0.0160
949.00,0.0161
948.00,0.0162
947.00,0.0163
946.00,0.0165
945.00,0.0167
944.00,0.0169
943.00,0.0173
942.00,0.0178
941.00,0.0185
940.00,0.0192
939.00,0.0201
938.00,0.0211
937.00,0.0222
936.00,0.0233
935.00,0.0242
934.00,0.0248
933.00,0.0251
932.00,0.0250
931.00,0.0246
930.00,0.0242
929.00,0.0238
928.00,0.0235
927.00,0.0233
926.00,0.0232
925.00,0.0230
924.00,0.0228
923.00,0.0225
922.00,0.0222
921.00,0.0219
920.00,0.0216
919.00,0.0212
918.00,0.0210
917.00,0.0207
916.00,0.0204
915.00,0.0201
914.00,0.0199
913.00,0.0197
912.00,0.0196
911.00,0.0195
910.00,0.0196
909.00,0.0198
908.00,0.0201
907.00,0.0204
906.00,0.0209
905.00,0.0215
904.00,0.0221
903.00,0.0229
902.00,0.0237
901.00,0.0246
900.00,0.0253
899.00,0.0260
898.00,0.0265
897.00,0.0268
896.00,0.0268
895.00,0.0266
894.00,0.0263
893.00,0.0258
892.00,0.0253
891.00,0.0248
890.00,0.0243
889.00,0.0239
888.00,0.0235
887.00,0.0233
886.00,0.0233
885.00,0.0233
884.00,0.0234
883.00,0.0236
882.00,0.0239
881.00,0.0244
880.00,0.0249
879.00,0.0255
878.00,0.0263
877.00,0.0272
876.00,0.0280
875.00,0.0289
874.00,0.0298
873.00,0.0305
872.00,0.0311
871.00,0.0316
870.00,0.0320
869.00,0.0323
868.00,0.0324
867.00,0.0325
866.00,0.0327
865.00,0.0328
864.00,0.0329
863.00,0.0331
862.00,0.0334
861.00,0.0337
860.00,0.0341
859.00,0.0346
858.00,0.0352
857.00,0.0358
856.00,0.0365
855.00,0.0372
854.00,0.0380
853.00,0.0388
852.00,0.0397
851.00,0.0405
850.00,0.0413
849.00,0.0420
848.00,0.0426
847.00,0.0431
846.00,0.0435
845.00,0.0438
844.00,0.0439
843.00,0.0440
842.00,0.0440
841.00,0.0440
840.00,0.0439
839.00,0.0437
838.00,0.0436
837.00,0.0435
836.00,0.0434
835.00,0.0432
834.00,0.0432
833.00,0.0431
832.00,0.0430
831.00,0.0429
830.00,0.0428
829.00,0.0426
828.00,0.0423
827.00,0.0420
826.00,0.0417
825.00,0.0414
824.00,0.0412
823.00,0.0410
822.00,0.0409
821.00,0.0409
820.00,0.0409
819.00,0.0408
818.00,0.0409
817.00,0.0408
816.00,0.0406
815.00,0.0404
814.00,0.0400
813.00,0.0395
812.00,0.0388
811.00,0.0378
810.00,0.0367
809.00,0.0355
808.00,0.0341
807.00,0.0327
806.00,0.0315
805.00,0.0306
804.00,0.0297
803.00,0.0291
802.00,0.0287
801.00,0.0285
800.00,0.0284
799.00,0.0283
798.00,0.0283
797.00,0.0284
796.00,0.0284
795.00,0.0285
794.00,0.0288
793.00,0.0290
792.00,0.0291
791.00,0.0292
790.00,0.0294
789.00,0.0296
788.00,0.0297
787.00,0.0299
786.00,0.0301
785.00,0.0303
784.00,0.0304
783.00,0.0306
782.00,0.0309
781.00,0.0312
780.00,0.0316
779.00,0.0319
778.00,0.0323
777.00,0.0326
776.00,0.0327
775.00,0.0327
774.00,0.0328
773.00,0.0329
772.00,0.0330
771.00,0.0332
770.00,0.0336
769.00,0.0339
768.00,0.0342
767.00,0.0347
766.00,0.0352
765.00,0.0359
764.00,0.0365
763.00,0.0371
762.00,0.0378
761.00,0.0386
760.00,0.0393
759.00,0.0400
758.00,0.0409
757.00,0.0417
756.00,0.0424
755.00,0.0431
754.00,0.0439
753.00,0.0446
752.00,0.0454
751.00,0.0461
750.00,0.0470
749.00,0.0478
748.00,0.0485
747.00,0.0493
746.00,0.0501
745.00,0.0510
744.00,0.0519
743.00,0.0529
742.00,0.0541
741.00,0.0554
740.00,0.0567
739.00,0.0581
738.00,0.0593
737.00,0.0601
736.00,0.0605
735.00,0.0605
734.00,0.0602
733.00,0.0596
732.00,0.0588
731.00,0.0577
730.00,0.0566
729.00,0.0555
728.00,0.0543
727.00,0.0532
726.00,0.0523
725.00,0.0515
724.00,0.0507
723.00,0.0500
722.00,0.0495
721.00,0.0490
720.00,0.0485
719.00,0.0482
718.00,0.0481
717.00,0.0481
716.00,0.0480
715.00,0.0479
714.00,0.0480
713.00,0.0481
712.00,0.0480
711.00,0.0479
710.00,0.0478
709.00,0.0477
708.00,0.0475
707.00,0.0475
706.00,0.0477
705.00,0.0480
704.00,0.0481
703.00,0.0483
702.00,0.0485
701.00,0.0487
700.00,0.0489
699.00,0.0493
698.00,0.0498
697.00,0.0505
696.00,0.0512
695.00,0.0521
694.00,0.0530
693.00,0.0539
692.00,0.0547
691.00,0.0553
690.00,0.0559
689.00,0.0565
688.00,0.0570
687.00,0.0573
686.00,0.0577
685.00,0.0579
684.00,0.0580
683.00,0.0581
682.00,0.0584
681.00,0.0587
680.00,0.0589
679.00,0.0592
678.00,0.0595
677.00,0.0599
676.00,0.0603
675.00,0.0608
674.00,0.0616
673.00,0.0623
672.00,0.0630
671.00,0.0635
670.00,0.0642
669.00,0.0650
668.00,0.0660
667.00,0.0672
666.00,0.0685
665.00,0.0697
664.00,0.0709
663.00,0.0721
662.00,0.0735
661.00,0.0750
660.00,0.0764
659.00,0.0779
658.00,0.0795
657.00,0.0810
656.00,0.0825
655.00,0.0840
654.00,0.0854
653.00,0.0868
652.00,0.0880
651.00,0.0890
650.00,0.0899
649.00,0.0904
648.00,0.0907
647.00,0.0908
646.00,0.0907
645.00,0.0903
644.00,0.0897
643.00,0.0889
642.00,0.0880
641.00,0.0870
640.00,0.0859
639.00,0.0847
638.00,0.0837
637.00,0.0827
636.00,0.0817
635.00,0.0808
634.00,0.0801
633.00,0.0795
632.00,0.0789
631.00,0.0783
630.00,0.0780
629.00,0.0776
628.00,0.0772
627.00,0.0769
626.00,0.0767
625.00,0.0765
624.00,0.0763
623.00,0.0762
622.00,0.0761
621.00,0.0761
620.00,0.0758
619.00,0.0755
618.00,0.0754
617.00,0.0753
616.00,0.0751
615.00,0.0749
614.00,0.0750
613.00,0.0751
612.00,0.0752
611.00,0.0753
610.00,0.0757
609.00,0.0761
608.00,0.0763
607.00,0.0764
606.00,0.0767
605.00,0.0771
604.00,0.0773
603.00,0.0776
602.00,0.0780
601.00,0.0784
600.00,0.0786
599.00,0.0788
598.00,0.0790
597.00,0.0792
596.00,0.0792
595.00,0.0793
594.00,0.0797
593.00,0.0801
592.00,0.0805
591.00,0.0810
590.00,0.0819
589.00,0.0831
588.00,0.0846
587.00,0.0864
586.00,0.0887
585.00,0.0910
584.00,0.0930
583.00,0.0949
582.00,0.0965
581.00,0.0979
580.00,0.0988
579.00,0.0995
578.00,0.1000
577.00,0.1004
576.00,0.1006
575.00,0.1008
574.00,0.1010
573.00,0.1011
572.00,0.1010
571.00,0.1009
570.00,0.1010
569.00,0.1010
568.00,0.1006
567.00,0.1001
566.00,0.0997
565.00,0.0993
564.00,0.0986
563.00,0.0978
562.00,0.0970
561.00,0.0961
560.00,0.0952
559.00,0.0945
558.00,0.0941
557.00,0.0938
556.00,0.0932
555.00,0.0926
554.00,0.0921
553.00,0.0915
552.00,0.0908
551.00,0.0903
550.00,0.0900
549.00,0.0898
548.00,0.0894
547.00,0.0889
546.00,0.0885
545.00,0.0880
544.00,0.0873
543.00,0.0867
542.00,0.0864
541.00,0.0861
540.00,0.0856
539.00,0.0854
538.00,0.0856
537.00,0.0860
536.00,0.0863
535.00,0.0868
534.00,0.0875
533.00,0.0883
532.00,0.0888
531.00,0.0890
530.00,0.0891
529.00,0.0889
528.00,0.0883
527.00,0.0877
526.00,0.0873
525.00,0.0868
524.00,0.0862
523.00,0.0857
522.00,0.0854
521.00,0.0851
520.00,0.0846
519.00,0.0842
518.00,0.0842
517.00,0.0841
516.00,0.0838
515.00,0.0836
514.00,0.0837
513.00,0.0837
512.00,0.0836
511.00,0.0836
510.00,0.0841
509.00,0.0846
508.00,0.0847
507.00,0.0846
506.00,0.0845
505.00,0.0845
504.00,0.0841
503.00,0.0839
502.00,0.0839
501.00,0.0838
500.00,0.0833
499.00,0.0830
498.00,0.0830
497.00,0.0831
496.00,0.0831
495.00,0.0831
494.00,0.0834
493.00,0.0838
492.00,0.0838
491.00,0.0840
490.00,0.0844
489.00,0.0847
488.00,0.0847
487.00,0.0848
486.00,0.0852
485.00,0.0855
484.00,0.0854
483.00,0.0853
482.00,0.0854
481.00,0.0856
480.00,0.0854
479.00,0.0854
478.00,0.0857
477.00,0.0858
476.00,0.0853
475.00,0.0849
474.00,0.0852
473.00,0.0856
472.00,0.0855
471.00,0.0853
470.00,0.0855
469.00,0.0855
468.00,0.0850
467.00,0.0846
466.00,0.0848
465.00,0.0851
464.00,0.0848
463.00,0.0845
462.00,0.0844
461.00,0.0841
460.00,0.0831
459.00,0.0823
458.00,0.0823
457.00,0.0827
456.00,0.0825
455.00,0.0821
454.00,0.0821
453.00,0.0819
452.00,0.0812
451.00,0.0805
450.00,0.0803
449.00,0.0801
448.00,0.0794
447.00,0.0786
446.00,0.0784
445.00,0.0783
444.00,0.0778
443.00,0.0774
442.00,0.0775
441.00,0.0775
440.00,0.0771
439.00,0.0766
438.00,0.0766
437.00,0.0766
436.00,0.0761
435.00,0.0757
434.00,0.0758
433.00,0.0757
432.00,0.0751
431.00,0.0747
430.00,0.0751
429.00,0.0753
428.00,0.0746
427.00,0.0738
426.00,0.0738
425.00,0.0737
424.00,0.0729
423.00,0.0723
422.00,0.0726
421.00,0.0729
420.00,0.0724
419.00,0.0720
418.00,0.0731
417.00,0.0739
416.00,0.0736
415.00,0.0736
414.00,0.0747
413.00,0.0759
412.00,0.0760
411.00,0.0759
410.00,0.0765
409.00,0.0767
408.00,0.0758
407.00,0.0750
406.00,0.0755
405.00,0.0757
404.00,0.0744
403.00,0.0733
402.00,0.0737
401.00,0.0742
400.00,0.0734
