Created as New Dataset,Sample 822 By YargerLab Date Tuesday, July 15 2025
cm-1,A
4000.00,0.0041
3999.00,0.0041
3998.00,0.0041
3997.00,0.0040
3996.00,0.0040
3995.00,0.0040
3994.00,0.0040
3993.00,0.0040
3992.00,0.0040
3991.00,0.0040
3990.00,0.0040
3989.00,0.0040
3988.00,0.0040
3987.00,0.0040
3986.00,0.0040
3985.00,0.0040
3984.00,0.0041
3983.00,0.0041
3982.00,0.0041
3981.00,0.0041
3980.00,0.0041
3979.00,0.0041
3978.00,0.0041
3977.00,0.0040
3976.00,0.0040
3975.00,0.0040
3974.00,0.0040
3973.00,0.0040
3972.00,0.0040
3971.00,0.0040
3970.00,0.0040
3969.00,0.0040
3968.00,0.0040
3967.00,0.0040
3966.00,0.0040
3965.00,0.0040
3964.00,0.0040
3963.00,0.0040
3962.00,0.0040
3961.00,0.0040
3960.00,0.0040
3959.00,0.0040
3958.00,0.0040
3957.00,0.0040
3956.00,0.0040
3955.00,0.0040
3954.00,0.0040
3953.00,0.0040
3952.00,0.0040
3951.00,0.0040
3950.00,0.0040
3949.00,0.0040
3948.00,0.0040
3947.00,0.0040
3946.00,0.0040
3945.00,0.0040
3944.00,0.0040
3943.00,0.0040
3942.00,0.0040
3941.00,0.0040
3940.00,0.0040
3939.00,0.0040
3938.00,0.0040
3937.00,0.0040
3936.00,0.0040
3935.00,0.0040
3934.00,0.0040
3933.00,0.0040
3932.00,0.0040
3931.00,0.0040
3930.00,0.0040
3929.00,0.0040
3928.00,0.0040
3927.00,0.0040
3926.00,0.0040
3925.00,0.0040
3924.00,0.0039
3923.00,0.0039
3922.00,0.0039
3921.00,0.0039
3920.00,0.0039
3919.00,0.0039
3918.00,0.0039
3917.00,0.0039
3916.00,0.0040
3915.00,0.0040
3914.00,0.0040
3913.00,0.0040
3912.00,0.0040
3911.00,0.0040
3910.00,0.0040
3909.00,0.0040
3908.00,0.0039
3907.00,0.0039
3906.00,0.0039
3905.00,0.0038
3904.00,0.0038
3903.00,0.0038
3902.00,0.0038
3901.00,0.0038
3900.00,0.0038
3899.00,0.0039
3898.00,0.0039
3897.00,0.0039
3896.00,0.0039
3895.00,0.0039
3894.00,0.0039
3893.00,0.0039
3892.00,0.0039
3891.00,0.0039
3890.00,0.0039
3889.00,0.0039
3888.00,0.0039
3887.00,0.0039
3886.00,0.0039
3885.00,0.0039
3884.00,0.0038
3883.00,0.0038
3882.00,0.0039
3881.00,0.0039
3880.00,0.0039
3879.00,0.0039
3878.00,0.0039
3877.00,0.0039
3876.00,0.0039
3875.00,0.0039
3874.00,0.0039
3873.00,0.0039
3872.00,0.0039
3871.00,0.0039
3870.00,0.0039
3869.00,0.0039
3868.00,0.0038
3867.00,0.0038
3866.00,0.0038
3865.00,0.0038
3864.00,0.0038
3863.00,0.0038
3862.00,0.0039
3861.00,0.0039
3860.00,0.0039
3859.00,0.0039
3858.00,0.0039
3857.00,0.0039
3856.00,0.0039
3855.00,0.0039
3854.00,0.0039
3853.00,0.0039
3852.00,0.0038
3851.00,0.0038
3850.00,0.0039
3849.00,0.0039
3848.00,0.0039
3847.00,0.0040
3846.00,0.0040
3845.00,0.0039
3844.00,0.0039
3843.00,0.0039
3842.00,0.0039
3841.00,0.0039
3840.00,0.0039
3839.00,0.0038
3838.00,0.0038
3837.00,0.0038
3836.00,0.0038
3835.00,0.0038
3834.00,0.0038
3833.00,0.0038
3832.00,0.0039
3831.00,0.0039
3830.00,0.0039
3829.00,0.0039
3828.00,0.0039
3827.00,0.0039
3826.00,0.0039
3825.00,0.0039
3824.00,0.0039
3823.00,0.0039
3822.00,0.0039
3821.00,0.0038
3820.00,0.0038
3819.00,0.0038
3818.00,0.0038
3817.00,0.0038
3816.00,0.0038
3815.00,0.0039
3814.00,0.0039
3813.00,0.0039
3812.00,0.0039
3811.00,0.0040
3810.00,0.0040
3809.00,0.0040
3808.00,0.0039
3807.00,0.0039
3806.00,0.0039
3805.00,0.0039
3804.00,0.0039
3803.00,0.0038
3802.00,0.0038
3801.00,0.0038
3800.00,0.0038
3799.00,0.0038
3798.00,0.0038
3797.00,0.0039
3796.00,0.0039
3795.00,0.0039
3794.00,0.0039
3793.00,0.0039
3792.00,0.0039
3791.00,0.0039
3790.00,0.0040
3789.00,0.0040
3788.00,0.0040
3787.00,0.0040
3786.00,0.0040
3785.00,0.0040
3784.00,0.0040
3783.00,0.0039
3782.00,0.0039
3781.00,0.0039
3780.00,0.0040
3779.00,0.0040
3778.00,0.0040
3777.00,0.0040
3776.00,0.0040
3775.00,0.0040
3774.00,0.0040
3773.00,0.0040
3772.00,0.0039
3771.00,0.0039
3770.00,0.0039
3769.00,0.0039
3768.00,0.0039
3767.00,0.0039
3766.00,0.0039
3765.00,0.0039
3764.00,0.0039
3763.00,0.0039
3762.00,0.0039
3761.00,0.0039
3760.00,0.0039
3759.00,0.0039
3758.00,0.0039
3757.00,0.0039
3756.00,0.0039
3755.00,0.0039
3754.00,0.0039
3753.00,0.0039
3752.00,0.0039
3751.00,0.0038
3750.00,0.0038
3749.00,0.0038
3748.00,0.0038
3747.00,0.0038
3746.00,0.0038
3745.00,0.0038
3744.00,0.0038
3743.00,0.0038
3742.00,0.0037
3741.00,0.0037
3740.00,0.0037
3739.00,0.0037
3738.00,0.0037
3737.00,0.0037
3736.00,0.0037
3735.00,0.0037
3734.00,0.0037
3733.00,0.0037
3732.00,0.0037
3731.00,0.0037
3730.00,0.0037
3729.00,0.0037
3728.00,0.0037
3727.00,0.0038
3726.00,0.0038
3725.00,0.0038
3724.00,0.0038
3723.00,0.0038
3722.00,0.0038
3721.00,0.0038
3720.00,0.0038
3719.00,0.0038
3718.00,0.0038
3717.00,0.0038
3716.00,0.0038
3715.00,0.0038
3714.00,0.0038
3713.00,0.0038
3712.00,0.0037
3711.00,0.0037
3710.00,0.0037
3709.00,0.0037
3708.00,0.0037
3707.00,0.0038
3706.00,0.0038
3705.00,0.0038
3704.00,0.0038
3703.00,0.0039
3702.00,0.0039
3701.00,0.0039
3700.00,0.0039
3699.00,0.0039
3698.00,0.0039
3697.00,0.0039
3696.00,0.0039
3695.00,0.0039
3694.00,0.0039
3693.00,0.0039
3692.00,0.0039
3691.00,0.0039
3690.00,0.0039
3689.00,0.0039
3688.00,0.0039
3687.00,0.0040
3686.00,0.0040
3685.00,0.0040
3684.00,0.0041
3683.00,0.0042
3682.00,0.0042
3681.00,0.0042
3680.00,0.0042
3679.00,0.0042
3678.00,0.0042
3677.00,0.0042
3676.00,0.0042
3675.00,0.0041
3674.00,0.0041
3673.00,0.0041
3672.00,0.0041
3671.00,0.0041
3670.00,0.0041
3669.00,0.0042
3668.00,0.0042
3667.00,0.0043
3666.00,0.0044
3665.00,0.0044
3664.00,0.0044
3663.00,0.0045
3662.00,0.0045
3661.00,0.0045
3660.00,0.0045
3659.00,0.0045
3658.00,0.0045
3657.00,0.0045
3656.00,0.0045
3655.00,0.0045
3654.00,0.0044
3653.00,0.0044
3652.00,0.0044
3651.00,0.0044
3650.00,0.0044
3649.00,0.0044
3648.00,0.0044
3647.00,0.0045
3646.00,0.0045
3645.00,0.0046
3644.00,0.0047
3643.00,0.0048
3642.00,0.0048
3641.00,0.0049
3640.00,0.0049
3639.00,0.0049
3638.00,0.0050
3637.00,0.0050
3636.00,0.0050
3635.00,0.0050
3634.00,0.0050
3633.00,0.0050
3632.00,0.0050
3631.00,0.0050
3630.00,0.0050
3629.00,0.0050
3628.00,0.0051
3627.00,0.0051
3626.00,0.0052
3625.00,0.0053
3624.00,0.0054
3623.00,0.0054
3622.00,0.0054
3621.00,0.0054
3620.00,0.0054
3619.00,0.0055
3618.00,0.0055
3617.00,0.0056
3616.00,0.0057
3615.00,0.0057
3614.00,0.0057
3613.00,0.0058
3612.00,0.0058
3611.00,0.0058
3610.00,0.0059
3609.00,0.0060
3608.00,0.0061
3607.00,0.0061
3606.00,0.0062
3605.00,0.0062
3604.00,0.0063
3603.00,0.0063
3602.00,0.0064
3601.00,0.0064
3600.00,0.0064
3599.00,0.0065
3598.00,0.0065
3597.00,0.0065
3596.00,0.0065
3595.00,0.0066
3594.00,0.0066
3593.00,0.0067
3592.00,0.0068
3591.00,0.0068
3590.00,0.0068
3589.00,0.0068
3588.00,0.0068
3587.00,0.0069
3586.00,0.0070
3585.00,0.0071
3584.00,0.0071
3583.00,0.0072
3582.00,0.0073
3581.00,0.0074
3580.00,0.0075
3579.00,0.0075
3578.00,0.0076
3577.00,0.0077
3576.00,0.0077
3575.00,0.0078
3574.00,0.0078
3573.00,0.0079
3572.00,0.0079
3571.00,0.0079
3570.00,0.0079
3569.00,0.0079
3568.00,0.0079
3567.00,0.0080
3566.00,0.0080
3565.00,0.0081
3564.00,0.0082
3563.00,0.0083
3562.00,0.0084
3561.00,0.0085
3560.00,0.0086
3559.00,0.0087
3558.00,0.0087
3557.00,0.0088
3556.00,0.0088
3555.00,0.0089
3554.00,0.0089
3553.00,0.0090
3552.00,0.0090
3551.00,0.0091
3550.00,0.0091
3549.00,0.0092
3548.00,0.0093
3547.00,0.0093
3546.00,0.0094
3545.00,0.0094
3544.00,0.0094
3543.00,0.0095
3542.00,0.0096
3541.00,0.0097
3540.00,0.0097
3539.00,0.0098
3538.00,0.0099
3537.00,0.0099
3536.00,0.0099
3535.00,0.0100
3534.00,0.0100
3533.00,0.0101
3532.00,0.0101
3531.00,0.0101
3530.00,0.0102
3529.00,0.0102
3528.00,0.0102
3527.00,0.0103
3526.00,0.0103
3525.00,0.0103
3524.00,0.0104
3523.00,0.0104
3522.00,0.0105
3521.00,0.0106
3520.00,0.0106
3519.00,0.0107
3518.00,0.0108
3517.00,0.0108
3516.00,0.0109
3515.00,0.0110
3514.00,0.0110
3513.00,0.0111
3512.00,0.0111
3511.00,0.0111
3510.00,0.0112
3509.00,0.0112
3508.00,0.0113
3507.00,0.0113
3506.00,0.0114
3505.00,0.0114
3504.00,0.0115
3503.00,0.0115
3502.00,0.0115
3501.00,0.0116
3500.00,0.0117
3499.00,0.0117
3498.00,0.0118
3497.00,0.0119
3496.00,0.0119
3495.00,0.0120
3494.00,0.0120
3493.00,0.0121
3492.00,0.0121
3491.00,0.0121
3490.00,0.0122
3489.00,0.0122
3488.00,0.0123
3487.00,0.0123
3486.00,0.0124
3485.00,0.0124
3484.00,0.0125
3483.00,0.0125
3482.00,0.0126
3481.00,0.0126
3480.00,0.0127
3479.00,0.0127
3478.00,0.0128
3477.00,0.0128
3476.00,0.0129
3475.00,0.0129
3474.00,0.0130
3473.00,0.0130
3472.00,0.0131
3471.00,0.0132
3470.00,0.0132
3469.00,0.0133
3468.00,0.0133
3467.00,0.0133
3466.00,0.0134
3465.00,0.0134
3464.00,0.0135
3463.00,0.0135
3462.00,0.0136
3461.00,0.0136
3460.00,0.0137
3459.00,0.0137
3458.00,0.0137
3457.00,0.0138
3456.00,0.0138
3455.00,0.0139
3454.00,0.0139
3453.00,0.0139
3452.00,0.0140
3451.00,0.0140
3450.00,0.0141
3449.00,0.0141
3448.00,0.0141
3447.00,0.0141
3446.00,0.0142
3445.00,0.0142
3444.00,0.0142
3443.00,0.0142
3442.00,0.0142
3441.00,0.0143
3440.00,0.0143
3439.00,0.0144
3438.00,0.0144
3437.00,0.0144
3436.00,0.0145
3435.00,0.0145
3434.00,0.0145
3433.00,0.0145
3432.00,0.0145
3431.00,0.0146
3430.00,0.0146
3429.00,0.0146
3428.00,0.0146
3427.00,0.0146
3426.00,0.0147
3425.00,0.0147
3424.00,0.0147
3423.00,0.0147
3422.00,0.0147
3421.00,0.0147
3420.00,0.0147
3419.00,0.0147
3418.00,0.0147
3417.00,0.0148
3416.00,0.0148
3415.00,0.0148
3414.00,0.0148
3413.00,0.0148
3412.00,0.0149
3411.00,0.0149
3410.00,0.0149
3409.00,0.0149
3408.00,0.0149
3407.00,0.0149
3406.00,0.0149
3405.00,0.0150
3404.00,0.0150
3403.00,0.0150
3402.00,0.0150
3401.00,0.0150
3400.00,0.0151
3399.00,0.0151
3398.00,0.0151
3397.00,0.0151
3396.00,0.0151
3395.00,0.0151
3394.00,0.0151
3393.00,0.0151
3392.00,0.0151
3391.00,0.0151
3390.00,0.0152
3389.00,0.0152
3388.00,0.0153
3387.00,0.0153
3386.00,0.0153
3385.00,0.0154
3384.00,0.0154
3383.00,0.0154
3382.00,0.0154
3381.00,0.0154
3380.00,0.0154
3379.00,0.0154
3378.00,0.0154
3377.00,0.0155
3376.00,0.0155
3375.00,0.0155
3374.00,0.0155
3373.00,0.0155
3372.00,0.0155
3371.00,0.0155
3370.00,0.0154
3369.00,0.0154
3368.00,0.0155
3367.00,0.0155
3366.00,0.0156
3365.00,0.0156
3364.00,0.0157
3363.00,0.0157
3362.00,0.0157
3361.00,0.0158
3360.00,0.0158
3359.00,0.0158
3358.00,0.0159
3357.00,0.0159
3356.00,0.0159
3355.00,0.0158
3354.00,0.0158
3353.00,0.0157
3352.00,0.0157
3351.00,0.0157
3350.00,0.0158
3349.00,0.0158
3348.00,0.0159
3347.00,0.0159
3346.00,0.0159
3345.00,0.0159
3344.00,0.0159
3343.00,0.0159
3342.00,0.0159
3341.00,0.0159
3340.00,0.0158
3339.00,0.0158
3338.00,0.0159
3337.00,0.0159
3336.00,0.0160
3335.00,0.0161
3334.00,0.0162
3333.00,0.0162
3332.00,0.0163
3331.00,0.0163
3330.00,0.0162
3329.00,0.0162
3328.00,0.0162
3327.00,0.0161
3326.00,0.0161
3325.00,0.0161
3324.00,0.0162
3323.00,0.0162
3322.00,0.0163
3321.00,0.0164
3320.00,0.0164
3319.00,0.0164
3318.00,0.0165
3317.00,0.0165
3316.00,0.0165
3315.00,0.0165
3314.00,0.0164
3313.00,0.0164
3312.00,0.0164
3311.00,0.0163
3310.00,0.0162
3309.00,0.0162
3308.00,0.0161
3307.00,0.0160
3306.00,0.0160
3305.00,0.0161
3304.00,0.0162
3303.00,0.0163
3302.00,0.0164
3301.00,0.0165
3300.00,0.0166
3299.00,0.0165
3298.00,0.0165
3297.00,0.0164
3296.00,0.0163
3295.00,0.0163
3294.00,0.0163
3293.00,0.0163
3292.00,0.0163
3291.00,0.0164
3290.00,0.0165
3289.00,0.0165
3288.00,0.0166
3287.00,0.0166
3286.00,0.0166
3285.00,0.0166
3284.00,0.0166
3283.00,0.0166
3282.00,0.0167
3281.00,0.0166
3280.00,0.0166
3279.00,0.0166
3278.00,0.0165
3277.00,0.0165
3276.00,0.0164
3275.00,0.0164
3274.00,0.0163
3273.00,0.0163
3272.00,0.0162
3271.00,0.0162
3270.00,0.0163
3269.00,0.0164
3268.00,0.0164
3267.00,0.0165
3266.00,0.0165
3265.00,0.0165
3264.00,0.0165
3263.00,0.0165
3262.00,0.0165
3261.00,0.0164
3260.00,0.0164
3259.00,0.0164
3258.00,0.0164
3257.00,0.0163
3256.00,0.0163
3255.00,0.0163
3254.00,0.0163
3253.00,0.0163
3252.00,0.0163
3251.00,0.0163
3250.00,0.0162
3249.00,0.0162
3248.00,0.0162
3247.00,0.0161
3246.00,0.0161
3245.00,0.0161
3244.00,0.0161
3243.00,0.0162
3242.00,0.0162
3241.00,0.0162
3240.00,0.0162
3239.00,0.0162
3238.00,0.0161
3237.00,0.0161
3236.00,0.0161
3235.00,0.0160
3234.00,0.0160
3233.00,0.0160
3232.00,0.0159
3231.00,0.0159
3230.00,0.0159
3229.00,0.0159
3228.00,0.0159
3227.00,0.0159
3226.00,0.0159
3225.00,0.0159
3224.00,0.0159
3223.00,0.0159
3222.00,0.0158
3221.00,0.0158
3220.00,0.0157
3219.00,0.0157
3218.00,0.0157
3217.00,0.0157
3216.00,0.0157
3215.00,0.0156
3214.00,0.0156
3213.00,0.0156
3212.00,0.0155
3211.00,0.0155
3210.00,0.0155
3209.00,0.0155
3208.00,0.0155
3207.00,0.0155
3206.00,0.0155
3205.00,0.0155
3204.00,0.0154
3203.00,0.0154
3202.00,0.0154
3201.00,0.0154
3200.00,0.0154
3199.00,0.0154
3198.00,0.0154
3197.00,0.0153
3196.00,0.0153
3195.00,0.0153
3194.00,0.0153
3193.00,0.0153
3192.00,0.0152
3191.00,0.0152
3190.00,0.0152
3189.00,0.0151
3188.00,0.0151
3187.00,0.0151
3186.00,0.0150
3185.00,0.0150
3184.00,0.0149
3183.00,0.0149
3182.00,0.0149
3181.00,0.0149
3180.00,0.0148
3179.00,0.0148
3178.00,0.0148
3177.00,0.0148
3176.00,0.0147
3175.00,0.0147
3174.00,0.0147
3173.00,0.0146
3172.00,0.0146
3171.00,0.0145
3170.00,0.0145
3169.00,0.0144
3168.00,0.0144
3167.00,0.0144
3166.00,0.0143
3165.00,0.0143
3164.00,0.0142
3163.00,0.0142
3162.00,0.0141
3161.00,0.0141
3160.00,0.0140
3159.00,0.0140
3158.00,0.0139
3157.00,0.0139
3156.00,0.0139
3155.00,0.0138
3154.00,0.0137
3153.00,0.0137
3152.00,0.0136
3151.00,0.0136
3150.00,0.0135
3149.00,0.0135
3148.00,0.0134
3147.00,0.0134
3146.00,0.0134
3145.00,0.0133
3144.00,0.0133
3143.00,0.0132
3142.00,0.0132
3141.00,0.0132
3140.00,0.0131
3139.00,0.0131
3138.00,0.0130
3137.00,0.0130
3136.00,0.0130
3135.00,0.0130
3134.00,0.0129
3133.00,0.0129
3132.00,0.0129
3131.00,0.0128
3130.00,0.0128
3129.00,0.0128
3128.00,0.0127
3127.00,0.0127
3126.00,0.0126
3125.00,0.0126
3124.00,0.0126
3123.00,0.0125
3122.00,0.0125
3121.00,0.0125
3120.00,0.0124
3119.00,0.0124
3118.00,0.0124
3117.00,0.0123
3116.00,0.0123
3115.00,0.0122
3114.00,0.0122
3113.00,0.0122
3112.00,0.0121
3111.00,0.0121
3110.00,0.0121
3109.00,0.0120
3108.00,0.0120
3107.00,0.0119
3106.00,0.0119
3105.00,0.0118
3104.00,0.0118
3103.00,0.0118
3102.00,0.0117
3101.00,0.0117
3100.00,0.0117
3099.00,0.0117
3098.00,0.0116
3097.00,0.0116
3096.00,0.0115
3095.00,0.0115
3094.00,0.0114
3093.00,0.0114
3092.00,0.0113
3091.00,0.0113
3090.00,0.0113
3089.00,0.0113
3088.00,0.0113
3087.00,0.0112
3086.00,0.0112
3085.00,0.0112
3084.00,0.0112
3083.00,0.0112
3082.00,0.0112
3081.00,0.0112
3080.00,0.0112
3079.00,0.0112
3078.00,0.0112
3077.00,0.0111
3076.00,0.0111
3075.00,0.0111
3074.00,0.0111
3073.00,0.0111
3072.00,0.0111
3071.00,0.0110
3070.00,0.0110
3069.00,0.0109
3068.00,0.0109
3067.00,0.0108
3066.00,0.0107
3065.00,0.0106
3064.00,0.0106
3063.00,0.0105
3062.00,0.0104
3061.00,0.0104
3060.00,0.0103
3059.00,0.0102
3058.00,0.0102
3057.00,0.0101
3056.00,0.0100
3055.00,0.0100
3054.00,0.0099
3053.00,0.0099
3052.00,0.0099
3051.00,0.0099
3050.00,0.0099
3049.00,0.0098
3048.00,0.0098
3047.00,0.0098
3046.00,0.0097
3045.00,0.0097
3044.00,0.0096
3043.00,0.0096
3042.00,0.0096
3041.00,0.0095
3040.00,0.0095
3039.00,0.0095
3038.00,0.0095
3037.00,0.0095
3036.00,0.0094
3035.00,0.0094
3034.00,0.0094
3033.00,0.0094
3032.00,0.0094
3031.00,0.0094
3030.00,0.0093
3029.00,0.0093
3028.00,0.0093
3027.00,0.0093
3026.00,0.0093
3025.00,0.0093
3024.00,0.0093
3023.00,0.0093
3022.00,0.0093
3021.00,0.0094
3020.00,0.0094
3019.00,0.0094
3018.00,0.0095
3017.00,0.0095
3016.00,0.0095
3015.00,0.0096
3014.00,0.0096
3013.00,0.0097
3012.00,0.0097
3011.00,0.0098
3010.00,0.0100
3009.00,0.0101
3008.00,0.0102
3007.00,0.0103
3006.00,0.0104
3005.00,0.0105
3004.00,0.0107
3003.00,0.0109
3002.00,0.0110
3001.00,0.0112
3000.00,0.0114
2999.00,0.0116
2998.00,0.0118
2997.00,0.0120
2996.00,0.0122
2995.00,0.0125
2994.00,0.0127
2993.00,0.0130
2992.00,0.0133
2991.00,0.0136
2990.00,0.0139
2989.00,0.0142
2988.00,0.0145
2987.00,0.0148
2986.00,0.0150
2985.00,0.0153
2984.00,0.0155
2983.00,0.0158
2982.00,0.0160
2981.00,0.0163
2980.00,0.0166
2979.00,0.0168
2978.00,0.0171
2977.00,0.0174
2976.00,0.0177
2975.00,0.0180
2974.00,0.0183
2973.00,0.0186
2972.00,0.0190
2971.00,0.0193
2970.00,0.0197
2969.00,0.0200
2968.00,0.0204
2967.00,0.0208
2966.00,0.0212
2965.00,0.0216
2964.00,0.0220
2963.00,0.0224
2962.00,0.0227
2961.00,0.0230
2960.00,0.0233
2959.00,0.0236
2958.00,0.0238
2957.00,0.0240
2956.00,0.0241
2955.00,0.0242
2954.00,0.0243
2953.00,0.0243
2952.00,0.0243
2951.00,0.0243
2950.00,0.0242
2949.00,0.0241
2948.00,0.0240
2947.00,0.0240
2946.00,0.0239
2945.00,0.0239
2944.00,0.0239
2943.00,0.0239
2942.00,0.0240
2941.00,0.0242
2940.00,0.0244
2939.00,0.0246
2938.00,0.0248
2937.00,0.0251
2936.00,0.0254
2935.00,0.0257
2934.00,0.0261
2933.00,0.0264
2932.00,0.0268
2931.00,0.0271
2930.00,0.0274
2929.00,0.0277
2928.00,0.0280
2927.00,0.0282
2926.00,0.0284
2925.00,0.0285
2924.00,0.0286
2923.00,0.0287
2922.00,0.0287
2921.00,0.0287
2920.00,0.0286
2919.00,0.0284
2918.00,0.0282
2917.00,0.0279
2916.00,0.0276
2915.00,0.0273
2914.00,0.0269
2913.00,0.0266
2912.00,0.0262
2911.00,0.0258
2910.00,0.0254
2909.00,0.0250
2908.00,0.0247
2907.00,0.0243
2906.00,0.0240
2905.00,0.0237
2904.00,0.0235
2903.00,0.0232
2902.00,0.0230
2901.00,0.0228
2900.00,0.0226
2899.00,0.0225
2898.00,0.0223
2897.00,0.0222
2896.00,0.0221
2895.00,0.0220
2894.00,0.0220
2893.00,0.0219
2892.00,0.0218
2891.00,0.0217
2890.00,0.0216
2889.00,0.0215
2888.00,0.0214
2887.00,0.0214
2886.00,0.0213
2885.00,0.0212
2884.00,0.0212
2883.00,0.0212
2882.00,0.0211
2881.00,0.0211
2880.00,0.0211
2879.00,0.0211
2878.00,0.0211
2877.00,0.0211
2876.00,0.0211
2875.00,0.0211
2874.00,0.0211
2873.00,0.0211
2872.00,0.0211
2871.00,0.0211
2870.00,0.0211
2869.00,0.0211
2868.00,0.0210
2867.00,0.0210
2866.00,0.0209
2865.00,0.0209
2864.00,0.0209
2863.00,0.0209
2862.00,0.0209
2861.00,0.0210
2860.00,0.0211
2859.00,0.0212
2858.00,0.0212
2857.00,0.0212
2856.00,0.0211
2855.00,0.0210
2854.00,0.0208
2853.00,0.0205
2852.00,0.0201
2851.00,0.0196
2850.00,0.0191
2849.00,0.0186
2848.00,0.0181
2847.00,0.0175
2846.00,0.0170
2845.00,0.0165
2844.00,0.0160
2843.00,0.0155
2842.00,0.0151
2841.00,0.0147
2840.00,0.0144
2839.00,0.0141
2838.00,0.0139
2837.00,0.0137
2836.00,0.0136
2835.00,0.0135
2834.00,0.0134
2833.00,0.0133
2832.00,0.0131
2831.00,0.0130
2830.00,0.0129
2829.00,0.0127
2828.00,0.0125
2827.00,0.0123
2826.00,0.0120
2825.00,0.0117
2824.00,0.0114
2823.00,0.0112
2822.00,0.0109
2821.00,0.0106
2820.00,0.0104
2819.00,0.0102
2818.00,0.0100
2817.00,0.0098
2816.00,0.0096
2815.00,0.0095
2814.00,0.0093
2813.00,0.0092
2812.00,0.0091
2811.00,0.0090
2810.00,0.0089
2809.00,0.0088
2808.00,0.0087
2807.00,0.0087
2806.00,0.0086
2805.00,0.0085
2804.00,0.0085
2803.00,0.0084
2802.00,0.0084
2801.00,0.0083
2800.00,0.0083
2799.00,0.0082
2798.00,0.0082
2797.00,0.0082
2796.00,0.0081
2795.00,0.0081
2794.00,0.0080
2793.00,0.0080
2792.00,0.0080
2791.00,0.0079
2790.00,0.0079
2789.00,0.0079
2788.00,0.0079
2787.00,0.0079
2786.00,0.0079
2785.00,0.0078
2784.00,0.0078
2783.00,0.0077
2782.00,0.0077
2781.00,0.0077
2780.00,0.0077
2779.00,0.0076
2778.00,0.0076
2777.00,0.0076
2776.00,0.0076
2775.00,0.0075
2774.00,0.0075
2773.00,0.0075
2772.00,0.0075
2771.00,0.0075
2770.00,0.0074
2769.00,0.0074
2768.00,0.0074
2767.00,0.0074
2766.00,0.0074
2765.00,0.0074
2764.00,0.0074
2763.00,0.0074
2762.00,0.0074
2761.00,0.0074
2760.00,0.0074
2759.00,0.0074
2758.00,0.0073
2757.00,0.0073
2756.00,0.0073
2755.00,0.0073
2754.00,0.0073
2753.00,0.0073
2752.00,0.0073
2751.00,0.0072
2750.00,0.0072
2749.00,0.0072
2748.00,0.0073
2747.00,0.0073
2746.00,0.0073
2745.00,0.0073
2744.00,0.0073
2743.00,0.0073
2742.00,0.0073
2741.00,0.0073
2740.00,0.0073
2739.00,0.0073
2738.00,0.0073
2737.00,0.0073
2736.00,0.0073
2735.00,0.0073
2734.00,0.0073
2733.00,0.0073
2732.00,0.0073
2731.00,0.0074
2730.00,0.0074
2729.00,0.0074
2728.00,0.0074
2727.00,0.0074
2726.00,0.0074
2725.00,0.0074
2724.00,0.0074
2723.00,0.0074
2722.00,0.0074
2721.00,0.0074
2720.00,0.0074
2719.00,0.0074
2718.00,0.0073
2717.00,0.0073
2716.00,0.0073
2715.00,0.0073
2714.00,0.0073
2713.00,0.0072
2712.00,0.0072
2711.00,0.0072
2710.00,0.0072
2709.00,0.0072
2708.00,0.0072
2707.00,0.0071
2706.00,0.0071
2705.00,0.0071
2704.00,0.0071
2703.00,0.0071
2702.00,0.0071
2701.00,0.0071
2700.00,0.0071
2699.00,0.0071
2698.00,0.0071
2697.00,0.0071
2696.00,0.0070
2695.00,0.0070
2694.00,0.0070
2693.00,0.0070
2692.00,0.0070
2691.00,0.0070
2690.00,0.0070
2689.00,0.0070
2688.00,0.0070
2687.00,0.0070
2686.00,0.0070
2685.00,0.0070
2684.00,0.0070
2683.00,0.0070
2682.00,0.0070
2681.00,0.0070
2680.00,0.0070
2679.00,0.0070
2678.00,0.0069
2677.00,0.0069
2676.00,0.0069
2675.00,0.0069
2674.00,0.0069
2673.00,0.0069
2672.00,0.0069
2671.00,0.0069
2670.00,0.0069
2669.00,0.0069
2668.00,0.0069
2667.00,0.0069
2666.00,0.0070
2665.00,0.0070
2664.00,0.0071
2663.00,0.0071
2662.00,0.0071
2661.00,0.0072
2660.00,0.0072
2659.00,0.0072
2658.00,0.0072
2657.00,0.0072
2656.00,0.0072
2655.00,0.0072
2654.00,0.0072
2653.00,0.0072
2652.00,0.0072
2651.00,0.0071
2650.00,0.0071
2649.00,0.0071
2648.00,0.0071
2647.00,0.0071
2646.00,0.0071
2645.00,0.0071
2644.00,0.0071
2643.00,0.0070
2642.00,0.0070
2641.00,0.0070
2640.00,0.0070
2639.00,0.0070
2638.00,0.0071
2637.00,0.0071
2636.00,0.0070
2635.00,0.0070
2634.00,0.0070
2633.00,0.0070
2632.00,0.0069
2631.00,0.0069
2630.00,0.0069
2629.00,0.0069
2628.00,0.0068
2627.00,0.0068
2626.00,0.0068
2625.00,0.0068
2624.00,0.0068
2623.00,0.0067
2622.00,0.0067
2621.00,0.0067
2620.00,0.0067
2619.00,0.0067
2618.00,0.0067
2617.00,0.0067
2616.00,0.0067
2615.00,0.0066
2614.00,0.0066
2613.00,0.0066
2612.00,0.0066
2611.00,0.0066
2610.00,0.0066
2609.00,0.0065
2608.00,0.0065
2607.00,0.0065
2606.00,0.0065
2605.00,0.0065
2604.00,0.0065
2603.00,0.0065
2602.00,0.0065
2601.00,0.0064
2600.00,0.0064
2599.00,0.0064
2598.00,0.0064
2597.00,0.0064
2596.00,0.0064
2595.00,0.0063
2594.00,0.0063
2593.00,0.0063
2592.00,0.0063
2591.00,0.0063
2590.00,0.0063
2589.00,0.0063
2588.00,0.0063
2587.00,0.0063
2586.00,0.0063
2585.00,0.0063
2584.00,0.0063
2583.00,0.0063
2582.00,0.0063
2581.00,0.0063
2580.00,0.0063
2579.00,0.0063
2578.00,0.0063
2577.00,0.0062
2576.00,0.0062
2575.00,0.0062
2574.00,0.0062
2573.00,0.0062
2572.00,0.0062
2571.00,0.0062
2570.00,0.0061
2569.00,0.0061
2568.00,0.0061
2567.00,0.0061
2566.00,0.0061
2565.00,0.0062
2564.00,0.0062
2563.00,0.0062
2562.00,0.0062
2561.00,0.0061
2560.00,0.0061
2559.00,0.0060
2558.00,0.0060
2557.00,0.0059
2556.00,0.0059
2555.00,0.0059
2554.00,0.0059
2553.00,0.0059
2552.00,0.0060
2551.00,0.0060
2550.00,0.0059
2549.00,0.0059
2548.00,0.0059
2547.00,0.0059
2546.00,0.0059
2545.00,0.0059
2544.00,0.0059
2543.00,0.0058
2542.00,0.0058
2541.00,0.0058
2540.00,0.0057
2539.00,0.0057
2538.00,0.0058
2537.00,0.0058
2536.00,0.0058
2535.00,0.0058
2534.00,0.0057
2533.00,0.0057
2532.00,0.0057
2531.00,0.0057
2530.00,0.0057
2529.00,0.0056
2528.00,0.0056
2527.00,0.0056
2526.00,0.0056
2525.00,0.0056
2524.00,0.0056
2523.00,0.0056
2522.00,0.0056
2521.00,0.0056
2520.00,0.0056
2519.00,0.0055
2518.00,0.0055
2517.00,0.0055
2516.00,0.0055
2515.00,0.0055
2514.00,0.0055
2513.00,0.0055
2512.00,0.0055
2511.00,0.0055
2510.00,0.0054
2509.00,0.0054
2508.00,0.0054
2507.00,0.0054
2506.00,0.0054
2505.00,0.0054
2504.00,0.0055
2503.00,0.0055
2502.00,0.0055
2501.00,0.0055
2500.00,0.0055
2499.00,0.0055
2498.00,0.0054
2497.00,0.0054
2496.00,0.0054
2495.00,0.0053
2494.00,0.0053
2493.00,0.0053
2492.00,0.0054
2491.00,0.0054
2490.00,0.0054
2489.00,0.0054
2488.00,0.0054
2487.00,0.0053
2486.00,0.0053
2485.00,0.0053
2484.00,0.0052
2483.00,0.0052
2482.00,0.0052
2481.00,0.0052
2480.00,0.0052
2479.00,0.0052
2478.00,0.0052
2477.00,0.0052
2476.00,0.0052
2475.00,0.0052
2474.00,0.0052
2473.00,0.0052
2472.00,0.0052
2471.00,0.0052
2470.00,0.0052
2469.00,0.0052
2468.00,0.0052
2467.00,0.0052
2466.00,0.0052
2465.00,0.0051
2464.00,0.0052
2463.00,0.0052
2462.00,0.0052
2461.00,0.0052
2460.00,0.0052
2459.00,0.0053
2458.00,0.0053
2457.00,0.0053
2456.00,0.0053
2455.00,0.0053
2454.00,0.0053
2453.00,0.0053
2452.00,0.0053
2451.00,0.0052
2450.00,0.0052
2449.00,0.0052
2448.00,0.0051
2447.00,0.0051
2446.00,0.0051
2445.00,0.0052
2444.00,0.0052
2443.00,0.0052
2442.00,0.0052
2441.00,0.0052
2440.00,0.0052
2439.00,0.0051
2438.00,0.0051
2437.00,0.0051
2436.00,0.0050
2435.00,0.0050
2434.00,0.0050
2433.00,0.0050
2432.00,0.0050
2431.00,0.0049
2430.00,0.0049
2429.00,0.0049
2428.00,0.0049
2427.00,0.0049
2426.00,0.0050
2425.00,0.0050
2424.00,0.0050
2423.00,0.0050
2422.00,0.0049
2421.00,0.0049
2420.00,0.0049
2419.00,0.0049
2418.00,0.0049
2417.00,0.0049
2416.00,0.0049
2415.00,0.0049
2414.00,0.0049
2413.00,0.0049
2412.00,0.0049
2411.00,0.0050
2410.00,0.0050
2409.00,0.0049
2408.00,0.0049
2407.00,0.0048
2406.00,0.0048
2405.00,0.0047
2404.00,0.0047
2403.00,0.0048
2402.00,0.0048
2401.00,0.0048
2400.00,0.0049
2399.00,0.0049
2398.00,0.0048
2397.00,0.0048
2396.00,0.0048
2395.00,0.0048
2394.00,0.0048
2393.00,0.0047
2392.00,0.0047
2391.00,0.0048
2390.00,0.0048
2389.00,0.0047
2388.00,0.0047
2387.00,0.0047
2386.00,0.0046
2385.00,0.0046
2384.00,0.0045
2383.00,0.0045
2382.00,0.0045
2381.00,0.0044
2380.00,0.0044
2379.00,0.0044
2378.00,0.0044
2377.00,0.0044
2376.00,0.0044
2375.00,0.0044
2374.00,0.0044
2373.00,0.0043
2372.00,0.0043
2371.00,0.0043
2370.00,0.0043
2369.00,0.0043
2368.00,0.0043
2367.00,0.0044
2366.00,0.0044
2365.00,0.0045
2364.00,0.0045
2363.00,0.0045
2362.00,0.0045
2361.00,0.0045
2360.00,0.0044
2359.00,0.0044
2358.00,0.0045
2357.00,0.0045
2356.00,0.0046
2355.00,0.0046
2354.00,0.0046
2353.00,0.0046
2352.00,0.0046
2351.00,0.0046
2350.00,0.0046
2349.00,0.0046
2348.00,0.0046
2347.00,0.0047
2346.00,0.0047
2345.00,0.0047
2344.00,0.0048
2343.00,0.0048
2342.00,0.0048
2341.00,0.0049
2340.00,0.0049
2339.00,0.0049
2338.00,0.0049
2337.00,0.0049
2336.00,0.0049
2335.00,0.0049
2334.00,0.0048
2333.00,0.0048
2332.00,0.0048
2331.00,0.0048
2330.00,0.0049
2329.00,0.0051
2328.00,0.0055
2327.00,0.0059
2326.00,0.0062
2325.00,0.0063
2324.00,0.0061
2323.00,0.0059
2322.00,0.0057
2321.00,0.0056
2320.00,0.0055
2319.00,0.0055
2318.00,0.0055
2317.00,0.0055
2316.00,0.0054
2315.00,0.0054
2314.00,0.0054
2313.00,0.0053
2312.00,0.0053
2311.00,0.0053
2310.00,0.0053
2309.00,0.0052
2308.00,0.0052
2307.00,0.0052
2306.00,0.0053
2305.00,0.0053
2304.00,0.0053
2303.00,0.0053
2302.00,0.0053
2301.00,0.0054
2300.00,0.0054
2299.00,0.0054
2298.00,0.0055
2297.00,0.0055
2296.00,0.0056
2295.00,0.0057
2294.00,0.0057
2293.00,0.0058
2292.00,0.0058
2291.00,0.0059
2290.00,0.0059
2289.00,0.0060
2288.00,0.0061
2287.00,0.0061
2286.00,0.0061
2285.00,0.0060
2284.00,0.0059
2283.00,0.0058
2282.00,0.0058
2281.00,0.0057
2280.00,0.0057
2279.00,0.0057
2278.00,0.0056
2277.00,0.0056
2276.00,0.0055
2275.00,0.0054
2274.00,0.0054
2273.00,0.0055
2272.00,0.0055
2271.00,0.0056
2270.00,0.0056
2269.00,0.0055
2268.00,0.0054
2267.00,0.0053
2266.00,0.0052
2265.00,0.0052
2264.00,0.0052
2263.00,0.0052
2262.00,0.0052
2261.00,0.0052
2260.00,0.0053
2259.00,0.0053
2258.00,0.0053
2257.00,0.0052
2256.00,0.0051
2255.00,0.0050
2254.00,0.0050
2253.00,0.0050
2252.00,0.0051
2251.00,0.0052
2250.00,0.0051
2249.00,0.0051
2248.00,0.0051
2247.00,0.0051
2246.00,0.0051
2245.00,0.0052
2244.00,0.0052
2243.00,0.0052
2242.00,0.0052
2241.00,0.0052
2240.00,0.0052
2239.00,0.0052
2238.00,0.0052
2237.00,0.0051
2236.00,0.0051
2235.00,0.0051
2234.00,0.0051
2233.00,0.0052
2232.00,0.0052
2231.00,0.0052
2230.00,0.0052
2229.00,0.0052
2228.00,0.0052
2227.00,0.0051
2226.00,0.0050
2225.00,0.0050
2224.00,0.0051
2223.00,0.0051
2222.00,0.0052
2221.00,0.0052
2220.00,0.0052
2219.00,0.0051
2218.00,0.0050
2217.00,0.0049
2216.00,0.0049
2215.00,0.0049
2214.00,0.0049
2213.00,0.0049
2212.00,0.0050
2211.00,0.0050
2210.00,0.0051
2209.00,0.0051
2208.00,0.0052
2207.00,0.0052
2206.00,0.0052
2205.00,0.0052
2204.00,0.0052
2203.00,0.0052
2202.00,0.0052
2201.00,0.0052
2200.00,0.0052
2199.00,0.0052
2198.00,0.0052
2197.00,0.0051
2196.00,0.0052
2195.00,0.0052
2194.00,0.0053
2193.00,0.0053
2192.00,0.0055
2191.00,0.0056
2190.00,0.0056
2189.00,0.0056
2188.00,0.0056
2187.00,0.0057
2186.00,0.0057
2185.00,0.0056
2184.00,0.0054
2183.00,0.0052
2182.00,0.0050
2181.00,0.0050
2180.00,0.0051
2179.00,0.0051
2178.00,0.0050
2177.00,0.0048
2176.00,0.0047
2175.00,0.0047
2174.00,0.0047
2173.00,0.0049
2172.00,0.0052
2171.00,0.0054
2170.00,0.0056
2169.00,0.0057
2168.00,0.0058
2167.00,0.0059
2166.00,0.0060
2165.00,0.0061
2164.00,0.0061
2163.00,0.0060
2162.00,0.0054
2161.00,0.0043
2160.00,0.0030
2159.00,0.0019
2158.00,0.0014
2157.00,0.0014
2156.00,0.0018
2155.00,0.0022
2154.00,0.0027
2153.00,0.0030
2152.00,0.0032
2151.00,0.0033
2150.00,0.0033
2149.00,0.0033
2148.00,0.0033
2147.00,0.0033
2146.00,0.0033
2145.00,0.0032
2144.00,0.0033
2143.00,0.0033
2142.00,0.0033
2141.00,0.0033
2140.00,0.0034
2139.00,0.0033
2138.00,0.0032
2137.00,0.0030
2136.00,0.0029
2135.00,0.0028
2134.00,0.0028
2133.00,0.0028
2132.00,0.0030
2131.00,0.0033
2130.00,0.0035
2129.00,0.0036
2128.00,0.0037
2127.00,0.0038
2126.00,0.0039
2125.00,0.0040
2124.00,0.0040
2123.00,0.0040
2122.00,0.0041
2121.00,0.0041
2120.00,0.0042
2119.00,0.0043
2118.00,0.0044
2117.00,0.0045
2116.00,0.0046
2115.00,0.0046
2114.00,0.0047
2113.00,0.0047
2112.00,0.0048
2111.00,0.0048
2110.00,0.0047
2109.00,0.0047
2108.00,0.0047
2107.00,0.0047
2106.00,0.0048
2105.00,0.0048
2104.00,0.0047
2103.00,0.0047
2102.00,0.0047
2101.00,0.0047
2100.00,0.0047
2099.00,0.0047
2098.00,0.0046
2097.00,0.0044
2096.00,0.0043
2095.00,0.0041
2094.00,0.0041
2093.00,0.0042
2092.00,0.0043
2091.00,0.0045
2090.00,0.0046
2089.00,0.0046
2088.00,0.0047
2087.00,0.0047
2086.00,0.0047
2085.00,0.0048
2084.00,0.0049
2083.00,0.0050
2082.00,0.0050
2081.00,0.0049
2080.00,0.0048
2079.00,0.0048
2078.00,0.0047
2077.00,0.0047
2076.00,0.0047
2075.00,0.0047
2074.00,0.0046
2073.00,0.0045
2072.00,0.0045
2071.00,0.0044
2070.00,0.0044
2069.00,0.0044
2068.00,0.0045
2067.00,0.0045
2066.00,0.0045
2065.00,0.0045
2064.00,0.0045
2063.00,0.0044
2062.00,0.0043
2061.00,0.0044
2060.00,0.0044
2059.00,0.0045
2058.00,0.0046
2057.00,0.0046
2056.00,0.0046
2055.00,0.0046
2054.00,0.0049
2053.00,0.0053
2052.00,0.0057
2051.00,0.0058
2050.00,0.0054
2049.00,0.0050
2048.00,0.0047
2047.00,0.0046
2046.00,0.0045
2045.00,0.0045
2044.00,0.0046
2043.00,0.0046
2042.00,0.0046
2041.00,0.0046
2040.00,0.0047
2039.00,0.0047
2038.00,0.0048
2037.00,0.0047
2036.00,0.0046
2035.00,0.0044
2034.00,0.0041
2033.00,0.0038
2032.00,0.0038
2031.00,0.0039
2030.00,0.0041
2029.00,0.0042
2028.00,0.0041
2027.00,0.0040
2026.00,0.0038
2025.00,0.0037
2024.00,0.0038
2023.00,0.0038
2022.00,0.0038
2021.00,0.0037
2020.00,0.0037
2019.00,0.0036
2018.00,0.0035
2017.00,0.0035
2016.00,0.0036
2015.00,0.0036
2014.00,0.0037
2013.00,0.0037
2012.00,0.0039
2011.00,0.0040
2010.00,0.0040
2009.00,0.0039
2008.00,0.0037
2007.00,0.0034
2006.00,0.0033
2005.00,0.0034
2004.00,0.0036
2003.00,0.0038
2002.00,0.0039
2001.00,0.0039
2000.00,0.0039
1999.00,0.0039
1998.00,0.0038
1997.00,0.0038
1996.00,0.0039
1995.00,0.0040
1994.00,0.0040
1993.00,0.0041
1992.00,0.0041
1991.00,0.0041
1990.00,0.0041
1989.00,0.0041
1988.00,0.0042
1987.00,0.0043
1986.00,0.0044
1985.00,0.0047
1984.00,0.0050
1983.00,0.0054
1982.00,0.0057
1981.00,0.0058
1980.00,0.0057
1979.00,0.0051
1978.00,0.0043
1977.00,0.0035
1976.00,0.0030
1975.00,0.0029
1974.00,0.0029
1973.00,0.0030
1972.00,0.0031
1971.00,0.0032
1970.00,0.0031
1969.00,0.0031
1968.00,0.0031
1967.00,0.0032
1966.00,0.0032
1965.00,0.0032
1964.00,0.0033
1963.00,0.0034
1962.00,0.0033
1961.00,0.0031
1960.00,0.0029
1959.00,0.0028
1958.00,0.0029
1957.00,0.0030
1956.00,0.0032
1955.00,0.0033
1954.00,0.0033
1953.00,0.0033
1952.00,0.0034
1951.00,0.0034
1950.00,0.0033
1949.00,0.0032
1948.00,0.0032
1947.00,0.0031
1946.00,0.0031
1945.00,0.0032
1944.00,0.0033
1943.00,0.0033
1942.00,0.0033
1941.00,0.0032
1940.00,0.0033
1939.00,0.0033
1938.00,0.0032
1937.00,0.0032
1936.00,0.0032
1935.00,0.0033
1934.00,0.0033
1933.00,0.0033
1932.00,0.0034
1931.00,0.0034
1930.00,0.0033
1929.00,0.0034
1928.00,0.0034
1927.00,0.0034
1926.00,0.0034
1925.00,0.0034
1924.00,0.0035
1923.00,0.0036
1922.00,0.0036
1921.00,0.0035
1920.00,0.0036
1919.00,0.0036
1918.00,0.0036
1917.00,0.0036
1916.00,0.0036
1915.00,0.0037
1914.00,0.0037
1913.00,0.0037
1912.00,0.0037
1911.00,0.0037
1910.00,0.0037
1909.00,0.0036
1908.00,0.0037
1907.00,0.0037
1906.00,0.0037
1905.00,0.0037
1904.00,0.0037
1903.00,0.0036
1902.00,0.0036
1901.00,0.0036
1900.00,0.0036
1899.00,0.0036
1898.00,0.0036
1897.00,0.0036
1896.00,0.0037
1895.00,0.0037
1894.00,0.0037
1893.00,0.0037
1892.00,0.0037
1891.00,0.0037
1890.00,0.0037
1889.00,0.0038
1888.00,0.0038
1887.00,0.0038
1886.00,0.0038
1885.00,0.0037
1884.00,0.0037
1883.00,0.0037
1882.00,0.0037
1881.00,0.0036
1880.00,0.0036
1879.00,0.0036
1878.00,0.0036
1877.00,0.0037
1876.00,0.0037
1875.00,0.0037
1874.00,0.0037
1873.00,0.0036
1872.00,0.0036
1871.00,0.0036
1870.00,0.0036
1869.00,0.0036
1868.00,0.0037
1867.00,0.0037
1866.00,0.0037
1865.00,0.0037
1864.00,0.0037
1863.00,0.0037
1862.00,0.0037
1861.00,0.0037
1860.00,0.0037
1859.00,0.0037
1858.00,0.0037
1857.00,0.0037
1856.00,0.0037
1855.00,0.0037
1854.00,0.0037
1853.00,0.0037
1852.00,0.0038
1851.00,0.0038
1850.00,0.0038
1849.00,0.0038
1848.00,0.0038
1847.00,0.0038
1846.00,0.0038
1845.00,0.0038
1844.00,0.0038
1843.00,0.0038
1842.00,0.0038
1841.00,0.0038
1840.00,0.0038
1839.00,0.0038
1838.00,0.0038
1837.00,0.0038
1836.00,0.0038
1835.00,0.0038
1834.00,0.0038
1833.00,0.0037
1832.00,0.0037
1831.00,0.0037
1830.00,0.0037
1829.00,0.0037
1828.00,0.0038
1827.00,0.0038
1826.00,0.0038
1825.00,0.0038
1824.00,0.0038
1823.00,0.0038
1822.00,0.0038
1821.00,0.0037
1820.00,0.0037
1819.00,0.0036
1818.00,0.0035
1817.00,0.0035
1816.00,0.0035
1815.00,0.0036
1814.00,0.0036
1813.00,0.0036
1812.00,0.0037
1811.00,0.0037
1810.00,0.0037
1809.00,0.0037
1808.00,0.0038
1807.00,0.0038
1806.00,0.0038
1805.00,0.0038
1804.00,0.0038
1803.00,0.0039
1802.00,0.0038
1801.00,0.0038
1800.00,0.0039
1799.00,0.0039
1798.00,0.0039
1797.00,0.0039
1796.00,0.0039
1795.00,0.0039
1794.00,0.0039
1793.00,0.0039
1792.00,0.0039
1791.00,0.0039
1790.00,0.0039
1789.00,0.0039
1788.00,0.0039
1787.00,0.0040
1786.00,0.0039
1785.00,0.0039
1784.00,0.0040
1783.00,0.0040
1782.00,0.0040
1781.00,0.0039
1780.00,0.0039
1779.00,0.0039
1778.00,0.0039
1777.00,0.0039
1776.00,0.0039
1775.00,0.0040
1774.00,0.0040
1773.00,0.0040
1772.00,0.0040
1771.00,0.0040
1770.00,0.0039
1769.00,0.0039
1768.00,0.0040
1767.00,0.0041
1766.00,0.0041
1765.00,0.0041
1764.00,0.0041
1763.00,0.0042
1762.00,0.0041
1761.00,0.0041
1760.00,0.0042
1759.00,0.0042
1758.00,0.0042
1757.00,0.0042
1756.00,0.0042
1755.00,0.0042
1754.00,0.0042
1753.00,0.0043
1752.00,0.0044
1751.00,0.0044
1750.00,0.0044
1749.00,0.0044
1748.00,0.0044
1747.00,0.0045
1746.00,0.0045
1745.00,0.0045
1744.00,0.0046
1743.00,0.0046
1742.00,0.0045
1741.00,0.0045
1740.00,0.0046
1739.00,0.0046
1738.00,0.0046
1737.00,0.0046
1736.00,0.0047
1735.00,0.0048
1734.00,0.0048
1733.00,0.0049
1732.00,0.0050
1731.00,0.0051
1730.00,0.0051
1729.00,0.0052
1728.00,0.0053
1727.00,0.0054
1726.00,0.0055
1725.00,0.0056
1724.00,0.0057
1723.00,0.0058
1722.00,0.0058
1721.00,0.0059
1720.00,0.0061
1719.00,0.0064
1718.00,0.0065
1717.00,0.0066
1716.00,0.0069
1715.00,0.0071
1714.00,0.0074
1713.00,0.0077
1712.00,0.0081
1711.00,0.0085
1710.00,0.0090
1709.00,0.0094
1708.00,0.0100
1707.00,0.0108
1706.00,0.0116
1705.00,0.0125
1704.00,0.0135
1703.00,0.0145
1702.00,0.0156
1701.00,0.0174
1700.00,0.0199
1699.00,0.0223
1698.00,0.0242
1697.00,0.0265
1696.00,0.0296
1695.00,0.0330
1694.00,0.0360
1693.00,0.0387
1692.00,0.0415
1691.00,0.0445
1690.00,0.0477
1689.00,0.0509
1688.00,0.0538
1687.00,0.0564
1686.00,0.0589
1685.00,0.0619
1684.00,0.0656
1683.00,0.0689
1682.00,0.0712
1681.00,0.0731
1680.00,0.0749
1679.00,0.0766
1678.00,0.0781
1677.00,0.0794
1676.00,0.0809
1675.00,0.0826
1674.00,0.0841
1673.00,0.0855
1672.00,0.0868
1671.00,0.0882
1670.00,0.0897
1669.00,0.0914
1668.00,0.0932
1667.00,0.0949
1666.00,0.0963
1665.00,0.0976
1664.00,0.0990
1663.00,0.1005
1662.00,0.1021
1661.00,0.1035
1660.00,0.1047
1659.00,0.1057
1658.00,0.1065
1657.00,0.1071
1656.00,0.1076
1655.00,0.1077
1654.00,0.1072
1653.00,0.1064
1652.00,0.1059
1651.00,0.1056
1650.00,0.1050
1649.00,0.1039
1648.00,0.1020
1647.00,0.0993
1646.00,0.0964
1645.00,0.0939
1644.00,0.0917
1643.00,0.0893
1642.00,0.0866
1641.00,0.0836
1640.00,0.0806
1639.00,0.0777
1638.00,0.0747
1637.00,0.0713
1636.00,0.0672
1635.00,0.0633
1634.00,0.0604
1633.00,0.0582
1632.00,0.0564
1631.00,0.0546
1630.00,0.0528
1629.00,0.0511
1628.00,0.0496
1627.00,0.0483
1626.00,0.0473
1625.00,0.0464
1624.00,0.0455
1623.00,0.0446
1622.00,0.0440
1621.00,0.0434
1620.00,0.0429
1619.00,0.0424
1618.00,0.0416
1617.00,0.0406
1616.00,0.0395
1615.00,0.0385
1614.00,0.0374
1613.00,0.0363
1612.00,0.0350
1611.00,0.0336
1610.00,0.0323
1609.00,0.0310
1608.00,0.0298
1607.00,0.0287
1606.00,0.0279
1605.00,0.0272
1604.00,0.0267
1603.00,0.0264
1602.00,0.0264
1601.00,0.0265
1600.00,0.0268
1599.00,0.0273
1598.00,0.0279
1597.00,0.0285
1596.00,0.0291
1595.00,0.0297
1594.00,0.0301
1593.00,0.0304
1592.00,0.0304
1591.00,0.0303
1590.00,0.0301
1589.00,0.0298
1588.00,0.0294
1587.00,0.0289
1586.00,0.0283
1585.00,0.0277
1584.00,0.0270
1583.00,0.0262
1582.00,0.0254
1581.00,0.0245
1580.00,0.0237
1579.00,0.0229
1578.00,0.0222
1577.00,0.0213
1576.00,0.0203
1575.00,0.0194
1574.00,0.0188
1573.00,0.0183
1572.00,0.0178
1571.00,0.0173
1570.00,0.0167
1569.00,0.0162
1568.00,0.0158
1567.00,0.0155
1566.00,0.0153
1565.00,0.0149
1564.00,0.0146
1563.00,0.0143
1562.00,0.0140
1561.00,0.0138
1560.00,0.0135
1559.00,0.0132
1558.00,0.0130
1557.00,0.0129
1556.00,0.0129
1555.00,0.0128
1554.00,0.0128
1553.00,0.0127
1552.00,0.0126
1551.00,0.0125
1550.00,0.0124
1549.00,0.0123
1548.00,0.0122
1547.00,0.0121
1546.00,0.0121
1545.00,0.0120
1544.00,0.0119
1543.00,0.0119
1542.00,0.0118
1541.00,0.0118
1540.00,0.0118
1539.00,0.0118
1538.00,0.0118
1537.00,0.0118
1536.00,0.0117
1535.00,0.0117
1534.00,0.0117
1533.00,0.0117
1532.00,0.0117
1531.00,0.0117
1530.00,0.0117
1529.00,0.0117
1528.00,0.0117
1527.00,0.0117
1526.00,0.0117
1525.00,0.0117
1524.00,0.0118
1523.00,0.0118
1522.00,0.0118
1521.00,0.0119
1520.00,0.0119
1519.00,0.0119
1518.00,0.0120
1517.00,0.0121
1516.00,0.0121
1515.00,0.0121
1514.00,0.0121
1513.00,0.0122
1512.00,0.0123
1511.00,0.0124
1510.00,0.0125
1509.00,0.0127
1508.00,0.0130
1507.00,0.0135
1506.00,0.0142
1505.00,0.0149
1504.00,0.0157
1503.00,0.0164
1502.00,0.0173
1501.00,0.0183
1500.00,0.0194
1499.00,0.0206
1498.00,0.0218
1497.00,0.0231
1496.00,0.0241
1495.00,0.0248
1494.00,0.0251
1493.00,0.0252
1492.00,0.0249
1491.00,0.0243
1490.00,0.0233
1489.00,0.0221
1488.00,0.0208
1487.00,0.0196
1486.00,0.0185
1485.00,0.0176
1484.00,0.0169
1483.00,0.0162
1482.00,0.0157
1481.00,0.0153
1480.00,0.0152
1479.00,0.0151
1478.00,0.0153
1477.00,0.0156
1476.00,0.0161
1475.00,0.0168
1474.00,0.0178
1473.00,0.0193
1472.00,0.0212
1471.00,0.0234
1470.00,0.0255
1469.00,0.0277
1468.00,0.0301
1467.00,0.0327
1466.00,0.0355
1465.00,0.0386
1464.00,0.0415
1463.00,0.0436
1462.00,0.0449
1461.00,0.0456
1460.00,0.0458
1459.00,0.0453
1458.00,0.0441
1457.00,0.0422
1456.00,0.0405
1455.00,0.0393
1454.00,0.0386
1453.00,0.0382
1452.00,0.0380
1451.00,0.0382
1450.00,0.0387
1449.00,0.0397
1448.00,0.0412
1447.00,0.0429
1446.00,0.0447
1445.00,0.0467
1444.00,0.0488
1443.00,0.0509
1442.00,0.0530
1441.00,0.0550
1440.00,0.0568
1439.00,0.0583
1438.00,0.0598
1437.00,0.0614
1436.00,0.0630
1435.00,0.0644
1434.00,0.0656
1433.00,0.0668
1432.00,0.0682
1431.00,0.0697
1430.00,0.0713
1429.00,0.0729
1428.00,0.0745
1427.00,0.0758
1426.00,0.0770
1425.00,0.0780
1424.00,0.0788
1423.00,0.0790
1422.00,0.0786
1421.00,0.0775
1420.00,0.0750
1419.00,0.0711
1418.00,0.0666
1417.00,0.0624
1416.00,0.0582
1415.00,0.0542
1414.00,0.0503
1413.00,0.0466
1412.00,0.0433
1411.00,0.0404
1410.00,0.0379
1409.00,0.0359
1408.00,0.0343
1407.00,0.0329
1406.00,0.0317
1405.00,0.0307
1404.00,0.0298
1403.00,0.0291
1402.00,0.0286
1401.00,0.0282
1400.00,0.0278
1399.00,0.0274
1398.00,0.0272
1397.00,0.0270
1396.00,0.0269
1395.00,0.0268
1394.00,0.0268
1393.00,0.0269
1392.00,0.0270
1391.00,0.0272
1390.00,0.0274
1389.00,0.0277
1388.00,0.0281
1387.00,0.0285
1386.00,0.0291
1385.00,0.0298
1384.00,0.0305
1383.00,0.0313
1382.00,0.0323
1381.00,0.0333
1380.00,0.0343
1379.00,0.0354
1378.00,0.0363
1377.00,0.0371
1376.00,0.0377
1375.00,0.0379
1374.00,0.0379
1373.00,0.0376
1372.00,0.0371
1371.00,0.0365
1370.00,0.0359
1369.00,0.0351
1368.00,0.0344
1367.00,0.0336
1366.00,0.0329
1365.00,0.0321
1364.00,0.0313
1363.00,0.0304
1362.00,0.0294
1361.00,0.0286
1360.00,0.0279
1359.00,0.0272
1358.00,0.0267
1357.00,0.0262
1356.00,0.0258
1355.00,0.0254
1354.00,0.0250
1353.00,0.0246
1352.00,0.0242
1351.00,0.0239
1350.00,0.0235
1349.00,0.0232
1348.00,0.0230
1347.00,0.0227
1346.00,0.0225
1345.00,0.0224
1344.00,0.0222
1343.00,0.0221
1342.00,0.0220
1341.00,0.0220
1340.00,0.0220
1339.00,0.0220
1338.00,0.0220
1337.00,0.0221
1336.00,0.0222
1335.00,0.0224
1334.00,0.0225
1333.00,0.0227
1332.00,0.0230
1331.00,0.0233
1330.00,0.0237
1329.00,0.0242
1328.00,0.0248
1327.00,0.0256
1326.00,0.0264
1325.00,0.0274
1324.00,0.0284
1323.00,0.0294
1322.00,0.0305
1321.00,0.0315
1320.00,0.0324
1319.00,0.0331
1318.00,0.0335
1317.00,0.0338
1316.00,0.0337
1315.00,0.0335
1314.00,0.0331
1313.00,0.0325
1312.00,0.0319
1311.00,0.0312
1310.00,0.0306
1309.00,0.0302
1308.00,0.0298
1307.00,0.0296
1306.00,0.0295
1305.00,0.0297
1304.00,0.0301
1303.00,0.0308
1302.00,0.0319
1301.00,0.0333
1300.00,0.0353
1299.00,0.0377
1298.00,0.0407
1297.00,0.0443
1296.00,0.0482
1295.00,0.0525
1294.00,0.0569
1293.00,0.0613
1292.00,0.0654
1291.00,0.0691
1290.00,0.0722
1289.00,0.0746
1288.00,0.0763
1287.00,0.0772
1286.00,0.0774
1285.00,0.0768
1284.00,0.0756
1283.00,0.0740
1282.00,0.0722
1281.00,0.0704
1280.00,0.0688
1279.00,0.0677
1278.00,0.0670
1277.00,0.0668
1276.00,0.0670
1275.00,0.0674
1274.00,0.0679
1273.00,0.0682
1272.00,0.0683
1271.00,0.0679
1270.00,0.0672
1269.00,0.0660
1268.00,0.0644
1267.00,0.0626
1266.00,0.0605
1265.00,0.0583
1264.00,0.0561
1263.00,0.0541
1262.00,0.0523
1261.00,0.0507
1260.00,0.0494
1259.00,0.0485
1258.00,0.0478
1257.00,0.0475
1256.00,0.0473
1255.00,0.0472
1254.00,0.0472
1253.00,0.0471
1252.00,0.0470
1251.00,0.0468
1250.00,0.0465
1249.00,0.0461
1248.00,0.0457
1247.00,0.0452
1246.00,0.0446
1245.00,0.0440
1244.00,0.0433
1243.00,0.0426
1242.00,0.0420
1241.00,0.0414
1240.00,0.0409
1239.00,0.0404
1238.00,0.0401
1237.00,0.0398
1236.00,0.0397
1235.00,0.0396
1234.00,0.0396
1233.00,0.0396
1232.00,0.0396
1231.00,0.0396
1230.00,0.0396
1229.00,0.0396
1228.00,0.0396
1227.00,0.0396
1226.00,0.0395
1225.00,0.0394
1224.00,0.0393
1223.00,0.0391
1222.00,0.0389
1221.00,0.0386
1220.00,0.0383
1219.00,0.0380
1218.00,0.0376
1217.00,0.0372
1216.00,0.0367
1215.00,0.0363
1214.00,0.0358
1213.00,0.0352
1212.00,0.0346
1211.00,0.0340
1210.00,0.0334
1209.00,0.0329
1208.00,0.0323
1207.00,0.0319
1206.00,0.0316
1205.00,0.0313
1204.00,0.0310
1203.00,0.0307
1202.00,0.0303
1201.00,0.0299
1200.00,0.0295
1199.00,0.0290
1198.00,0.0286
1197.00,0.0282
1196.00,0.0279
1195.00,0.0276
1194.00,0.0274
1193.00,0.0272
1192.00,0.0271
1191.00,0.0271
1190.00,0.0270
1189.00,0.0269
1188.00,0.0268
1187.00,0.0266
1186.00,0.0264
1185.00,0.0262
1184.00,0.0261
1183.00,0.0259
1182.00,0.0259
1181.00,0.0259
1180.00,0.0260
1179.00,0.0262
1178.00,0.0265
1177.00,0.0270
1176.00,0.0276
1175.00,0.0282
1174.00,0.0288
1173.00,0.0293
1172.00,0.0297
1171.00,0.0298
1170.00,0.0298
1169.00,0.0296
1168.00,0.0293
1167.00,0.0288
1166.00,0.0282
1165.00,0.0276
1164.00,0.0270
1163.00,0.0264
1162.00,0.0260
1161.00,0.0256
1160.00,0.0255
1159.00,0.0256
1158.00,0.0259
1157.00,0.0264
1156.00,0.0270
1155.00,0.0276
1154.00,0.0280
1153.00,0.0282
1152.00,0.0280
1151.00,0.0275
1150.00,0.0268
1149.00,0.0259
1148.00,0.0249
1147.00,0.0239
1146.00,0.0229
1145.00,0.0221
1144.00,0.0213
1143.00,0.0207
1142.00,0.0202
1141.00,0.0198
1140.00,0.0194
1139.00,0.0192
1138.00,0.0190
1137.00,0.0189
1136.00,0.0187
1135.00,0.0185
1134.00,0.0183
1133.00,0.0180
1132.00,0.0178
1131.00,0.0176
1130.00,0.0174
1129.00,0.0173
1128.00,0.0172
1127.00,0.0171
1126.00,0.0170
1125.00,0.0170
1124.00,0.0170
1123.00,0.0170
1122.00,0.0170
1121.00,0.0171
1120.00,0.0171
1119.00,0.0171
1118.00,0.0171
1117.00,0.0172
1116.00,0.0172
1115.00,0.0173
1114.00,0.0174
1113.00,0.0175
1112.00,0.0175
1111.00,0.0175
1110.00,0.0176
1109.00,0.0176
1108.00,0.0176
1107.00,0.0176
1106.00,0.0176
1105.00,0.0176
1104.00,0.0176
1103.00,0.0177
1102.00,0.0178
1101.00,0.0180
1100.00,0.0181
1099.00,0.0183
1098.00,0.0184
1097.00,0.0185
1096.00,0.0185
1095.00,0.0185
1094.00,0.0184
1093.00,0.0183
1092.00,0.0181
1091.00,0.0179
1090.00,0.0177
1089.00,0.0175
1088.00,0.0174
1087.00,0.0173
1086.00,0.0173
1085.00,0.0174
1084.00,0.0175
1083.00,0.0177
1082.00,0.0179
1081.00,0.0181
1080.00,0.0183
1079.00,0.0186
1078.00,0.0189
1077.00,0.0191
1076.00,0.0192
1075.00,0.0192
1074.00,0.0191
1073.00,0.0190
1072.00,0.0187
1071.00,0.0184
1070.00,0.0182
1069.00,0.0179
1068.00,0.0177
1067.00,0.0176
1066.00,0.0177
1065.00,0.0179
1064.00,0.0182
1063.00,0.0187
1062.00,0.0196
1061.00,0.0207
1060.00,0.0222
1059.00,0.0238
1058.00,0.0255
1057.00,0.0269
1056.00,0.0278
1055.00,0.0280
1054.00,0.0275
1053.00,0.0265
1052.00,0.0251
1051.00,0.0236
1050.00,0.0223
1049.00,0.0212
1048.00,0.0204
1047.00,0.0199
1046.00,0.0197
1045.00,0.0197
1044.00,0.0199
1043.00,0.0204
1042.00,0.0210
1041.00,0.0219
1040.00,0.0230
1039.00,0.0243
1038.00,0.0259
1037.00,0.0277
1036.00,0.0296
1035.00,0.0316
1034.00,0.0334
1033.00,0.0349
1032.00,0.0359
1031.00,0.0364
1030.00,0.0363
1029.00,0.0357
1028.00,0.0347
1027.00,0.0334
1026.00,0.0321
1025.00,0.0308
1024.00,0.0297
1023.00,0.0288
1022.00,0.0281
1021.00,0.0277
1020.00,0.0274
1019.00,0.0271
1018.00,0.0267
1017.00,0.0261
1016.00,0.0255
1015.00,0.0247
1014.00,0.0239
1013.00,0.0231
1012.00,0.0223
1011.00,0.0216
1010.00,0.0211
1009.00,0.0208
1008.00,0.0206
1007.00,0.0205
1006.00,0.0206
1005.00,0.0207
1004.00,0.0208
1003.00,0.0209
1002.00,0.0209
1001.00,0.0209
1000.00,0.0207
999.00,0.0204
998.00,0.0200
997.00,0.0196
996.00,0.0192
995.00,0.0188
994.00,0.0185
993.00,0.0183
992.00,0.0181
991.00,0.0180
990.00,0.0180
989.00,0.0180
988.00,0.0180
987.00,0.0179
986.00,0.0177
985.00,0.0175
984.00,0.0172
983.00,0.0170
982.00,0.0167
981.00,0.0165
980.00,0.0162
979.00,0.0161
978.00,0.0160
977.00,0.0159
976.00,0.0158
975.00,0.0157
974.00,0.0157
973.00,0.0156
972.00,0.0156
971.00,0.0155
970.00,0.0155
969.00,0.0154
968.00,0.0154
967.00,0.0155
966.00,0.0155
965.00,0.0155
964.00,0.0154
963.00,0.0154
962.00,0.0153
961.00,0.0152
960.00,0.0150
959.00,0.0147
958.00,0.0145
957.00,0.0142
956.00,0.0139
955.00,0.0136
954.00,0.0134
953.00,0.0131
952.00,0.0129
951.00,0.0128
950.00,0.0127
949.00,0.0126
948.00,0.0125
947.00,0.0125
946.00,0.0124
945.00,0.0125
944.00,0.0125
943.00,0.0126
942.00,0.0128
941.00,0.0131
940.00,0.0134
939.00,0.0137
938.00,0.0142
937.00,0.0146
936.00,0.0151
935.00,0.0155
934.00,0.0159
933.00,0.0162
932.00,0.0162
931.00,0.0161
930.00,0.0159
929.00,0.0156
928.00,0.0154
927.00,0.0151
926.00,0.0150
925.00,0.0148
924.00,0.0146
923.00,0.0145
922.00,0.0144
921.00,0.0144
920.00,0.0144
919.00,0.0144
918.00,0.0145
917.00,0.0145
916.00,0.0146
915.00,0.0147
914.00,0.0149
913.00,0.0150
912.00,0.0151
911.00,0.0153
910.00,0.0155
909.00,0.0158
908.00,0.0161
907.00,0.0165
906.00,0.0169
905.00,0.0174
904.00,0.0179
903.00,0.0185
902.00,0.0190
901.00,0.0196
900.00,0.0201
899.00,0.0205
898.00,0.0209
897.00,0.0212
896.00,0.0214
895.00,0.0216
894.00,0.0218
893.00,0.0220
892.00,0.0221
891.00,0.0223
890.00,0.0224
889.00,0.0226
888.00,0.0227
887.00,0.0228
886.00,0.0229
885.00,0.0230
884.00,0.0231
883.00,0.0231
882.00,0.0230
881.00,0.0229
880.00,0.0227
879.00,0.0225
878.00,0.0222
877.00,0.0219
876.00,0.0215
875.00,0.0212
874.00,0.0208
873.00,0.0205
872.00,0.0202
871.00,0.0200
870.00,0.0198
869.00,0.0198
868.00,0.0197
867.00,0.0198
866.00,0.0199
865.00,0.0201
864.00,0.0204
863.00,0.0206
862.00,0.0209
861.00,0.0214
860.00,0.0219
859.00,0.0225
858.00,0.0232
857.00,0.0238
856.00,0.0245
855.00,0.0252
854.00,0.0260
853.00,0.0266
852.00,0.0272
851.00,0.0278
850.00,0.0282
849.00,0.0287
848.00,0.0290
847.00,0.0293
846.00,0.0295
845.00,0.0296
844.00,0.0297
843.00,0.0297
842.00,0.0296
841.00,0.0296
840.00,0.0295
839.00,0.0294
838.00,0.0293
837.00,0.0293
836.00,0.0293
835.00,0.0293
834.00,0.0294
833.00,0.0294
832.00,0.0295
831.00,0.0294
830.00,0.0292
829.00,0.0290
828.00,0.0286
827.00,0.0280
826.00,0.0274
825.00,0.0268
824.00,0.0261
823.00,0.0254
822.00,0.0247
821.00,0.0240
820.00,0.0233
819.00,0.0227
818.00,0.0221
817.00,0.0216
816.00,0.0212
815.00,0.0209
814.00,0.0207
813.00,0.0206
812.00,0.0205
811.00,0.0204
810.00,0.0204
809.00,0.0204
808.00,0.0205
807.00,0.0206
806.00,0.0207
805.00,0.0208
804.00,0.0207
803.00,0.0205
802.00,0.0203
801.00,0.0199
800.00,0.0197
799.00,0.0196
798.00,0.0196
797.00,0.0196
796.00,0.0198
795.00,0.0199
794.00,0.0200
793.00,0.0200
792.00,0.0200
791.00,0.0199
790.00,0.0198
789.00,0.0197
788.00,0.0196
787.00,0.0195
786.00,0.0193
785.00,0.0192
784.00,0.0192
783.00,0.0192
782.00,0.0193
781.00,0.0195
780.00,0.0197
779.00,0.0200
778.00,0.0203
777.00,0.0206
776.00,0.0209
775.00,0.0212
774.00,0.0214
773.00,0.0216
772.00,0.0218
771.00,0.0219
770.00,0.0219
769.00,0.0220
768.00,0.0221
767.00,0.0222
766.00,0.0224
765.00,0.0227
764.00,0.0229
763.00,0.0232
762.00,0.0235
761.00,0.0238
760.00,0.0242
759.00,0.0246
758.00,0.0250
757.00,0.0254
756.00,0.0256
755.00,0.0258
754.00,0.0259
753.00,0.0260
752.00,0.0260
751.00,0.0261
750.00,0.0262
749.00,0.0263
748.00,0.0266
747.00,0.0269
746.00,0.0272
745.00,0.0276
744.00,0.0280
743.00,0.0284
742.00,0.0288
741.00,0.0292
740.00,0.0297
739.00,0.0301
738.00,0.0305
737.00,0.0309
736.00,0.0312
735.00,0.0315
734.00,0.0317
733.00,0.0318
732.00,0.0317
731.00,0.0314
730.00,0.0310
729.00,0.0305
728.00,0.0300
727.00,0.0294
726.00,0.0289
725.00,0.0284
724.00,0.0279
723.00,0.0275
722.00,0.0271
721.00,0.0268
720.00,0.0264
719.00,0.0261
718.00,0.0259
717.00,0.0258
716.00,0.0256
715.00,0.0255
714.00,0.0254
713.00,0.0254
712.00,0.0254
711.00,0.0255
710.00,0.0254
709.00,0.0254
708.00,0.0254
707.00,0.0254
706.00,0.0255
705.00,0.0256
704.00,0.0257
703.00,0.0258
702.00,0.0258
701.00,0.0259
700.00,0.0260
699.00,0.0261
698.00,0.0263
697.00,0.0265
696.00,0.0268
695.00,0.0270
694.00,0.0271
693.00,0.0273
692.00,0.0275
691.00,0.0277
690.00,0.0280
689.00,0.0283
688.00,0.0287
687.00,0.0290
686.00,0.0294
685.00,0.0297
684.00,0.0300
683.00,0.0303
682.00,0.0306
681.00,0.0309
680.00,0.0313
679.00,0.0316
678.00,0.0320
677.00,0.0323
676.00,0.0327
675.00,0.0331
674.00,0.0335
673.00,0.0339
672.00,0.0343
671.00,0.0345
670.00,0.0348
669.00,0.0351
668.00,0.0357
667.00,0.0364
666.00,0.0371
665.00,0.0376
664.00,0.0381
663.00,0.0387
662.00,0.0393
661.00,0.0399
660.00,0.0406
659.00,0.0414
658.00,0.0421
657.00,0.0429
656.00,0.0436
655.00,0.0444
654.00,0.0450
653.00,0.0457
652.00,0.0462
651.00,0.0467
650.00,0.0470
649.00,0.0473
648.00,0.0473
647.00,0.0473
646.00,0.0471
645.00,0.0467
644.00,0.0462
643.00,0.0457
642.00,0.0451
641.00,0.0445
640.00,0.0439
639.00,0.0432
638.00,0.0425
637.00,0.0419
636.00,0.0412
635.00,0.0406
634.00,0.0399
633.00,0.0394
632.00,0.0389
631.00,0.0383
630.00,0.0378
629.00,0.0374
628.00,0.0370
627.00,0.0367
626.00,0.0364
625.00,0.0362
624.00,0.0360
623.00,0.0358
622.00,0.0356
621.00,0.0356
620.00,0.0357
619.00,0.0358
618.00,0.0358
617.00,0.0357
616.00,0.0357
615.00,0.0358
614.00,0.0359
613.00,0.0361
612.00,0.0364
611.00,0.0368
610.00,0.0371
609.00,0.0371
608.00,0.0368
607.00,0.0366
606.00,0.0366
605.00,0.0367
604.00,0.0369
603.00,0.0370
602.00,0.0371
601.00,0.0372
600.00,0.0373
599.00,0.0374
598.00,0.0376
597.00,0.0377
596.00,0.0379
595.00,0.0381
594.00,0.0384
593.00,0.0387
592.00,0.0390
591.00,0.0394
590.00,0.0399
589.00,0.0403
588.00,0.0407
587.00,0.0413
586.00,0.0419
585.00,0.0426
584.00,0.0433
583.00,0.0441
582.00,0.0450
581.00,0.0459
580.00,0.0466
579.00,0.0472
578.00,0.0476
577.00,0.0479
576.00,0.0482
575.00,0.0485
574.00,0.0486
573.00,0.0485
572.00,0.0483
571.00,0.0480
570.00,0.0477
569.00,0.0474
568.00,0.0470
567.00,0.0465
566.00,0.0461
565.00,0.0457
564.00,0.0452
563.00,0.0447
562.00,0.0443
561.00,0.0439
560.00,0.0437
559.00,0.0435
558.00,0.0434
557.00,0.0434
556.00,0.0435
555.00,0.0436
554.00,0.0436
553.00,0.0436
552.00,0.0434
551.00,0.0430
550.00,0.0426
549.00,0.0423
548.00,0.0420
547.00,0.0417
546.00,0.0414
545.00,0.0411
544.00,0.0408
543.00,0.0405
542.00,0.0402
541.00,0.0400
540.00,0.0398
539.00,0.0397
538.00,0.0396
537.00,0.0397
536.00,0.0397
535.00,0.0397
534.00,0.0397
533.00,0.0397
532.00,0.0396
531.00,0.0395
530.00,0.0394
529.00,0.0394
528.00,0.0395
527.00,0.0399
526.00,0.0404
525.00,0.0407
524.00,0.0409
523.00,0.0409
522.00,0.0406
521.00,0.0403
520.00,0.0399
519.00,0.0395
518.00,0.0392
517.00,0.0390
516.00,0.0388
515.00,0.0385
514.00,0.0382
513.00,0.0378
512.00,0.0375
511.00,0.0372
510.00,0.0371
509.00,0.0370
508.00,0.0370
507.00,0.0368
506.00,0.0366
505.00,0.0364
504.00,0.0364
503.00,0.0364
502.00,0.0366
501.00,0.0368
500.00,0.0370
499.00,0.0372
498.00,0.0373
497.00,0.0374
496.00,0.0374
495.00,0.0375
494.00,0.0376
493.00,0.0376
492.00,0.0376
491.00,0.0377
490.00,0.0378
489.00,0.0380
488.00,0.0382
487.00,0.0382
486.00,0.0383
485.00,0.0385
484.00,0.0386
483.00,0.0387
482.00,0.0387
481.00,0.0387
480.00,0.0386
479.00,0.0384
478.00,0.0381
477.00,0.0379
476.00,0.0378
475.00,0.0379
474.00,0.0382
473.00,0.0387
472.00,0.0391
471.00,0.0393
470.00,0.0393
469.00,0.0392
468.00,0.0390
467.00,0.0389
466.00,0.0389
465.00,0.0388
464.00,0.0387
463.00,0.0385
462.00,0.0384
461.00,0.0383
460.00,0.0381
459.00,0.0378
458.00,0.0376
457.00,0.0374
456.00,0.0372
455.00,0.0372
454.00,0.0372
453.00,0.0372
452.00,0.0371
451.00,0.0369
450.00,0.0367
449.00,0.0365
448.00,0.0362
447.00,0.0360
446.00,0.0358
445.00,0.0359
444.00,0.0358
443.00,0.0356
442.00,0.0352
441.00,0.0347
440.00,0.0344
439.00,0.0342
438.00,0.0342
437.00,0.0342
436.00,0.0343
435.00,0.0343
434.00,0.0346
433.00,0.0348
432.00,0.0350
431.00,0.0352
430.00,0.0354
429.00,0.0355
428.00,0.0354
427.00,0.0352
426.00,0.0352
425.00,0.0351
424.00,0.0351
423.00,0.0351
422.00,0.0352
421.00,0.0354
420.00,0.0358
419.00,0.0363
418.00,0.0368
417.00,0.0369
416.00,0.0366
415.00,0.0360
414.00,0.0355
413.00,0.0354
412.00,0.0357
411.00,0.0363
410.00,0.0369
409.00,0.0369
408.00,0.0363
407.00,0.0356
406.00,0.0353
405.00,0.0358
404.00,0.0367
403.00,0.0378
402.00,0.0389
401.00,0.0395
400.00,0.0394
