Created as New Dataset,Sample 628 By YargerLab Date Friday, June 06 2025
cm-1,A
4000.00,0.0073
3999.00,0.0073
3998.00,0.0073
3997.00,0.0073
3996.00,0.0073
3995.00,0.0073
3994.00,0.0073
3993.00,0.0073
3992.00,0.0073
3991.00,0.0073
3990.00,0.0073
3989.00,0.0073
3988.00,0.0073
3987.00,0.0073
3986.00,0.0073
3985.00,0.0073
3984.00,0.0073
3983.00,0.0073
3982.00,0.0073
3981.00,0.0073
3980.00,0.0073
3979.00,0.0073
3978.00,0.0073
3977.00,0.0074
3976.00,0.0074
3975.00,0.0073
3974.00,0.0073
3973.00,0.0073
3972.00,0.0073
3971.00,0.0073
3970.00,0.0073
3969.00,0.0073
3968.00,0.0073
3967.00,0.0073
3966.00,0.0073
3965.00,0.0074
3964.00,0.0074
3963.00,0.0074
3962.00,0.0073
3961.00,0.0073
3960.00,0.0073
3959.00,0.0073
3958.00,0.0073
3957.00,0.0074
3956.00,0.0073
3955.00,0.0073
3954.00,0.0073
3953.00,0.0073
3952.00,0.0073
3951.00,0.0073
3950.00,0.0073
3949.00,0.0073
3948.00,0.0073
3947.00,0.0073
3946.00,0.0073
3945.00,0.0073
3944.00,0.0073
3943.00,0.0073
3942.00,0.0073
3941.00,0.0073
3940.00,0.0073
3939.00,0.0074
3938.00,0.0074
3937.00,0.0073
3936.00,0.0073
3935.00,0.0073
3934.00,0.0073
3933.00,0.0073
3932.00,0.0073
3931.00,0.0073
3930.00,0.0073
3929.00,0.0073
3928.00,0.0073
3927.00,0.0073
3926.00,0.0073
3925.00,0.0073
3924.00,0.0073
3923.00,0.0073
3922.00,0.0072
3921.00,0.0072
3920.00,0.0072
3919.00,0.0073
3918.00,0.0073
3917.00,0.0073
3916.00,0.0073
3915.00,0.0073
3914.00,0.0072
3913.00,0.0072
3912.00,0.0072
3911.00,0.0072
3910.00,0.0072
3909.00,0.0072
3908.00,0.0072
3907.00,0.0072
3906.00,0.0072
3905.00,0.0072
3904.00,0.0072
3903.00,0.0072
3902.00,0.0072
3901.00,0.0072
3900.00,0.0073
3899.00,0.0073
3898.00,0.0072
3897.00,0.0072
3896.00,0.0072
3895.00,0.0072
3894.00,0.0071
3893.00,0.0071
3892.00,0.0071
3891.00,0.0071
3890.00,0.0070
3889.00,0.0070
3888.00,0.0071
3887.00,0.0071
3886.00,0.0071
3885.00,0.0071
3884.00,0.0071
3883.00,0.0071
3882.00,0.0071
3881.00,0.0071
3880.00,0.0071
3879.00,0.0071
3878.00,0.0071
3877.00,0.0071
3876.00,0.0071
3875.00,0.0071
3874.00,0.0071
3873.00,0.0071
3872.00,0.0071
3871.00,0.0071
3870.00,0.0070
3869.00,0.0069
3868.00,0.0070
3867.00,0.0070
3866.00,0.0070
3865.00,0.0071
3864.00,0.0071
3863.00,0.0071
3862.00,0.0071
3861.00,0.0071
3860.00,0.0070
3859.00,0.0070
3858.00,0.0070
3857.00,0.0070
3856.00,0.0070
3855.00,0.0070
3854.00,0.0071
3853.00,0.0071
3852.00,0.0071
3851.00,0.0071
3850.00,0.0071
3849.00,0.0071
3848.00,0.0071
3847.00,0.0070
3846.00,0.0070
3845.00,0.0070
3844.00,0.0070
3843.00,0.0070
3842.00,0.0070
3841.00,0.0070
3840.00,0.0070
3839.00,0.0070
3838.00,0.0070
3837.00,0.0070
3836.00,0.0070
3835.00,0.0070
3834.00,0.0071
3833.00,0.0071
3832.00,0.0070
3831.00,0.0070
3830.00,0.0070
3829.00,0.0070
3828.00,0.0070
3827.00,0.0070
3826.00,0.0070
3825.00,0.0069
3824.00,0.0070
3823.00,0.0070
3822.00,0.0070
3821.00,0.0070
3820.00,0.0070
3819.00,0.0070
3818.00,0.0070
3817.00,0.0070
3816.00,0.0070
3815.00,0.0069
3814.00,0.0070
3813.00,0.0070
3812.00,0.0069
3811.00,0.0069
3810.00,0.0069
3809.00,0.0069
3808.00,0.0070
3807.00,0.0070
3806.00,0.0069
3805.00,0.0069
3804.00,0.0069
3803.00,0.0070
3802.00,0.0070
3801.00,0.0069
3800.00,0.0069
3799.00,0.0069
3798.00,0.0069
3797.00,0.0069
3796.00,0.0069
3795.00,0.0069
3794.00,0.0069
3793.00,0.0070
3792.00,0.0070
3791.00,0.0070
3790.00,0.0069
3789.00,0.0070
3788.00,0.0070
3787.00,0.0070
3786.00,0.0070
3785.00,0.0070
3784.00,0.0070
3783.00,0.0069
3782.00,0.0069
3781.00,0.0070
3780.00,0.0070
3779.00,0.0070
3778.00,0.0070
3777.00,0.0070
3776.00,0.0070
3775.00,0.0070
3774.00,0.0070
3773.00,0.0070
3772.00,0.0070
3771.00,0.0070
3770.00,0.0070
3769.00,0.0070
3768.00,0.0070
3767.00,0.0070
3766.00,0.0070
3765.00,0.0070
3764.00,0.0070
3763.00,0.0069
3762.00,0.0069
3761.00,0.0069
3760.00,0.0070
3759.00,0.0070
3758.00,0.0070
3757.00,0.0070
3756.00,0.0070
3755.00,0.0070
3754.00,0.0070
3753.00,0.0069
3752.00,0.0069
3751.00,0.0069
3750.00,0.0069
3749.00,0.0069
3748.00,0.0069
3747.00,0.0069
3746.00,0.0069
3745.00,0.0069
3744.00,0.0069
3743.00,0.0069
3742.00,0.0069
3741.00,0.0069
3740.00,0.0068
3739.00,0.0068
3738.00,0.0068
3737.00,0.0068
3736.00,0.0068
3735.00,0.0068
3734.00,0.0068
3733.00,0.0068
3732.00,0.0068
3731.00,0.0068
3730.00,0.0068
3729.00,0.0068
3728.00,0.0069
3727.00,0.0069
3726.00,0.0068
3725.00,0.0068
3724.00,0.0068
3723.00,0.0068
3722.00,0.0068
3721.00,0.0067
3720.00,0.0067
3719.00,0.0067
3718.00,0.0067
3717.00,0.0067
3716.00,0.0067
3715.00,0.0067
3714.00,0.0067
3713.00,0.0068
3712.00,0.0068
3711.00,0.0068
3710.00,0.0068
3709.00,0.0068
3708.00,0.0068
3707.00,0.0068
3706.00,0.0068
3705.00,0.0067
3704.00,0.0067
3703.00,0.0067
3702.00,0.0067
3701.00,0.0067
3700.00,0.0067
3699.00,0.0067
3698.00,0.0067
3697.00,0.0066
3696.00,0.0066
3695.00,0.0066
3694.00,0.0065
3693.00,0.0065
3692.00,0.0065
3691.00,0.0064
3690.00,0.0064
3689.00,0.0064
3688.00,0.0063
3687.00,0.0063
3686.00,0.0063
3685.00,0.0063
3684.00,0.0063
3683.00,0.0062
3682.00,0.0061
3681.00,0.0060
3680.00,0.0059
3679.00,0.0058
3678.00,0.0058
3677.00,0.0057
3676.00,0.0057
3675.00,0.0056
3674.00,0.0056
3673.00,0.0056
3672.00,0.0056
3671.00,0.0055
3670.00,0.0055
3669.00,0.0055
3668.00,0.0055
3667.00,0.0055
3666.00,0.0055
3665.00,0.0054
3664.00,0.0054
3663.00,0.0053
3662.00,0.0053
3661.00,0.0053
3660.00,0.0053
3659.00,0.0053
3658.00,0.0053
3657.00,0.0053
3656.00,0.0053
3655.00,0.0053
3654.00,0.0053
3653.00,0.0053
3652.00,0.0054
3651.00,0.0054
3650.00,0.0054
3649.00,0.0053
3648.00,0.0053
3647.00,0.0053
3646.00,0.0054
3645.00,0.0054
3644.00,0.0055
3643.00,0.0055
3642.00,0.0055
3641.00,0.0056
3640.00,0.0056
3639.00,0.0056
3638.00,0.0056
3637.00,0.0056
3636.00,0.0057
3635.00,0.0058
3634.00,0.0059
3633.00,0.0060
3632.00,0.0060
3631.00,0.0061
3630.00,0.0062
3629.00,0.0063
3628.00,0.0063
3627.00,0.0063
3626.00,0.0063
3625.00,0.0063
3624.00,0.0062
3623.00,0.0062
3622.00,0.0062
3621.00,0.0062
3620.00,0.0062
3619.00,0.0062
3618.00,0.0063
3617.00,0.0063
3616.00,0.0064
3615.00,0.0064
3614.00,0.0064
3613.00,0.0064
3612.00,0.0064
3611.00,0.0064
3610.00,0.0064
3609.00,0.0064
3608.00,0.0064
3607.00,0.0064
3606.00,0.0064
3605.00,0.0064
3604.00,0.0064
3603.00,0.0064
3602.00,0.0064
3601.00,0.0064
3600.00,0.0064
3599.00,0.0064
3598.00,0.0064
3597.00,0.0064
3596.00,0.0064
3595.00,0.0064
3594.00,0.0064
3593.00,0.0064
3592.00,0.0064
3591.00,0.0063
3590.00,0.0063
3589.00,0.0063
3588.00,0.0063
3587.00,0.0063
3586.00,0.0063
3585.00,0.0063
3584.00,0.0064
3583.00,0.0064
3582.00,0.0064
3581.00,0.0064
3580.00,0.0064
3579.00,0.0064
3578.00,0.0064
3577.00,0.0064
3576.00,0.0063
3575.00,0.0063
3574.00,0.0063
3573.00,0.0063
3572.00,0.0063
3571.00,0.0063
3570.00,0.0063
3569.00,0.0064
3568.00,0.0063
3567.00,0.0063
3566.00,0.0063
3565.00,0.0063
3564.00,0.0063
3563.00,0.0063
3562.00,0.0063
3561.00,0.0063
3560.00,0.0063
3559.00,0.0063
3558.00,0.0063
3557.00,0.0063
3556.00,0.0064
3555.00,0.0064
3554.00,0.0063
3553.00,0.0063
3552.00,0.0063
3551.00,0.0063
3550.00,0.0063
3549.00,0.0063
3548.00,0.0064
3547.00,0.0064
3546.00,0.0064
3545.00,0.0063
3544.00,0.0064
3543.00,0.0064
3542.00,0.0064
3541.00,0.0064
3540.00,0.0064
3539.00,0.0064
3538.00,0.0064
3537.00,0.0064
3536.00,0.0064
3535.00,0.0064
3534.00,0.0064
3533.00,0.0064
3532.00,0.0063
3531.00,0.0063
3530.00,0.0063
3529.00,0.0063
3528.00,0.0063
3527.00,0.0063
3526.00,0.0063
3525.00,0.0063
3524.00,0.0063
3523.00,0.0063
3522.00,0.0063
3521.00,0.0064
3520.00,0.0064
3519.00,0.0064
3518.00,0.0064
3517.00,0.0064
3516.00,0.0064
3515.00,0.0063
3514.00,0.0063
3513.00,0.0063
3512.00,0.0063
3511.00,0.0063
3510.00,0.0063
3509.00,0.0063
3508.00,0.0063
3507.00,0.0063
3506.00,0.0063
3505.00,0.0063
3504.00,0.0063
3503.00,0.0063
3502.00,0.0063
3501.00,0.0063
3500.00,0.0063
3499.00,0.0062
3498.00,0.0062
3497.00,0.0063
3496.00,0.0063
3495.00,0.0063
3494.00,0.0063
3493.00,0.0063
3492.00,0.0063
3491.00,0.0062
3490.00,0.0062
3489.00,0.0063
3488.00,0.0063
3487.00,0.0063
3486.00,0.0063
3485.00,0.0063
3484.00,0.0063
3483.00,0.0063
3482.00,0.0063
3481.00,0.0063
3480.00,0.0062
3479.00,0.0062
3478.00,0.0062
3477.00,0.0063
3476.00,0.0063
3475.00,0.0063
3474.00,0.0063
3473.00,0.0062
3472.00,0.0062
3471.00,0.0063
3470.00,0.0063
3469.00,0.0063
3468.00,0.0063
3467.00,0.0063
3466.00,0.0063
3465.00,0.0062
3464.00,0.0062
3463.00,0.0062
3462.00,0.0062
3461.00,0.0062
3460.00,0.0062
3459.00,0.0062
3458.00,0.0062
3457.00,0.0062
3456.00,0.0062
3455.00,0.0063
3454.00,0.0063
3453.00,0.0063
3452.00,0.0063
3451.00,0.0063
3450.00,0.0063
3449.00,0.0063
3448.00,0.0063
3447.00,0.0063
3446.00,0.0063
3445.00,0.0063
3444.00,0.0063
3443.00,0.0063
3442.00,0.0063
3441.00,0.0063
3440.00,0.0063
3439.00,0.0063
3438.00,0.0063
3437.00,0.0063
3436.00,0.0063
3435.00,0.0064
3434.00,0.0064
3433.00,0.0064
3432.00,0.0064
3431.00,0.0065
3430.00,0.0065
3429.00,0.0065
3428.00,0.0065
3427.00,0.0065
3426.00,0.0065
3425.00,0.0065
3424.00,0.0066
3423.00,0.0066
3422.00,0.0067
3421.00,0.0067
3420.00,0.0068
3419.00,0.0068
3418.00,0.0068
3417.00,0.0068
3416.00,0.0068
3415.00,0.0068
3414.00,0.0069
3413.00,0.0069
3412.00,0.0069
3411.00,0.0070
3410.00,0.0070
3409.00,0.0071
3408.00,0.0072
3407.00,0.0072
3406.00,0.0073
3405.00,0.0073
3404.00,0.0073
3403.00,0.0074
3402.00,0.0074
3401.00,0.0075
3400.00,0.0076
3399.00,0.0077
3398.00,0.0078
3397.00,0.0079
3396.00,0.0080
3395.00,0.0081
3394.00,0.0082
3393.00,0.0083
3392.00,0.0084
3391.00,0.0086
3390.00,0.0088
3389.00,0.0090
3388.00,0.0092
3387.00,0.0094
3386.00,0.0096
3385.00,0.0098
3384.00,0.0100
3383.00,0.0102
3382.00,0.0104
3381.00,0.0105
3380.00,0.0107
3379.00,0.0109
3378.00,0.0112
3377.00,0.0114
3376.00,0.0117
3375.00,0.0119
3374.00,0.0121
3373.00,0.0123
3372.00,0.0124
3371.00,0.0125
3370.00,0.0127
3369.00,0.0130
3368.00,0.0133
3367.00,0.0138
3366.00,0.0143
3365.00,0.0149
3364.00,0.0154
3363.00,0.0159
3362.00,0.0164
3361.00,0.0170
3360.00,0.0176
3359.00,0.0183
3358.00,0.0191
3357.00,0.0198
3356.00,0.0206
3355.00,0.0214
3354.00,0.0221
3353.00,0.0229
3352.00,0.0238
3351.00,0.0248
3350.00,0.0260
3349.00,0.0273
3348.00,0.0288
3347.00,0.0303
3346.00,0.0318
3345.00,0.0335
3344.00,0.0353
3343.00,0.0373
3342.00,0.0395
3341.00,0.0417
3340.00,0.0441
3339.00,0.0466
3338.00,0.0491
3337.00,0.0516
3336.00,0.0539
3335.00,0.0561
3334.00,0.0579
3333.00,0.0593
3332.00,0.0604
3331.00,0.0612
3330.00,0.0617
3329.00,0.0619
3328.00,0.0620
3327.00,0.0619
3326.00,0.0617
3325.00,0.0615
3324.00,0.0612
3323.00,0.0607
3322.00,0.0602
3321.00,0.0594
3320.00,0.0585
3319.00,0.0574
3318.00,0.0561
3317.00,0.0547
3316.00,0.0532
3315.00,0.0516
3314.00,0.0500
3313.00,0.0484
3312.00,0.0468
3311.00,0.0452
3310.00,0.0436
3309.00,0.0421
3308.00,0.0408
3307.00,0.0395
3306.00,0.0384
3305.00,0.0374
3304.00,0.0365
3303.00,0.0357
3302.00,0.0349
3301.00,0.0342
3300.00,0.0335
3299.00,0.0328
3298.00,0.0322
3297.00,0.0316
3296.00,0.0311
3295.00,0.0306
3294.00,0.0302
3293.00,0.0298
3292.00,0.0294
3291.00,0.0290
3290.00,0.0287
3289.00,0.0282
3288.00,0.0278
3287.00,0.0272
3286.00,0.0267
3285.00,0.0262
3284.00,0.0257
3283.00,0.0252
3282.00,0.0248
3281.00,0.0244
3280.00,0.0240
3279.00,0.0237
3278.00,0.0234
3277.00,0.0232
3276.00,0.0230
3275.00,0.0228
3274.00,0.0227
3273.00,0.0226
3272.00,0.0225
3271.00,0.0225
3270.00,0.0225
3269.00,0.0225
3268.00,0.0226
3267.00,0.0226
3266.00,0.0226
3265.00,0.0225
3264.00,0.0225
3263.00,0.0225
3262.00,0.0224
3261.00,0.0223
3260.00,0.0222
3259.00,0.0220
3258.00,0.0219
3257.00,0.0217
3256.00,0.0216
3255.00,0.0216
3254.00,0.0215
3253.00,0.0214
3252.00,0.0214
3251.00,0.0213
3250.00,0.0212
3249.00,0.0211
3248.00,0.0211
3247.00,0.0211
3246.00,0.0211
3245.00,0.0211
3244.00,0.0212
3243.00,0.0212
3242.00,0.0212
3241.00,0.0212
3240.00,0.0211
3239.00,0.0210
3238.00,0.0208
3237.00,0.0206
3236.00,0.0204
3235.00,0.0201
3234.00,0.0198
3233.00,0.0196
3232.00,0.0193
3231.00,0.0191
3230.00,0.0188
3229.00,0.0185
3228.00,0.0181
3227.00,0.0178
3226.00,0.0175
3225.00,0.0172
3224.00,0.0168
3223.00,0.0165
3222.00,0.0162
3221.00,0.0160
3220.00,0.0157
3219.00,0.0155
3218.00,0.0153
3217.00,0.0150
3216.00,0.0148
3215.00,0.0146
3214.00,0.0144
3213.00,0.0142
3212.00,0.0141
3211.00,0.0139
3210.00,0.0138
3209.00,0.0137
3208.00,0.0135
3207.00,0.0134
3206.00,0.0132
3205.00,0.0131
3204.00,0.0130
3203.00,0.0129
3202.00,0.0127
3201.00,0.0126
3200.00,0.0125
3199.00,0.0123
3198.00,0.0122
3197.00,0.0121
3196.00,0.0120
3195.00,0.0119
3194.00,0.0119
3193.00,0.0118
3192.00,0.0117
3191.00,0.0116
3190.00,0.0116
3189.00,0.0115
3188.00,0.0115
3187.00,0.0115
3186.00,0.0114
3185.00,0.0114
3184.00,0.0114
3183.00,0.0114
3182.00,0.0114
3181.00,0.0114
3180.00,0.0114
3179.00,0.0113
3178.00,0.0113
3177.00,0.0113
3176.00,0.0112
3175.00,0.0112
3174.00,0.0112
3173.00,0.0111
3172.00,0.0111
3171.00,0.0111
3170.00,0.0110
3169.00,0.0110
3168.00,0.0110
3167.00,0.0110
3166.00,0.0110
3165.00,0.0109
3164.00,0.0109
3163.00,0.0109
3162.00,0.0109
3161.00,0.0109
3160.00,0.0109
3159.00,0.0108
3158.00,0.0108
3157.00,0.0108
3156.00,0.0108
3155.00,0.0108
3154.00,0.0108
3153.00,0.0109
3152.00,0.0109
3151.00,0.0110
3150.00,0.0111
3149.00,0.0111
3148.00,0.0112
3147.00,0.0112
3146.00,0.0112
3145.00,0.0112
3144.00,0.0113
3143.00,0.0113
3142.00,0.0113
3141.00,0.0113
3140.00,0.0113
3139.00,0.0114
3138.00,0.0114
3137.00,0.0114
3136.00,0.0115
3135.00,0.0115
3134.00,0.0116
3133.00,0.0117
3132.00,0.0118
3131.00,0.0119
3130.00,0.0120
3129.00,0.0120
3128.00,0.0121
3127.00,0.0122
3126.00,0.0123
3125.00,0.0124
3124.00,0.0125
3123.00,0.0127
3122.00,0.0128
3121.00,0.0129
3120.00,0.0131
3119.00,0.0133
3118.00,0.0135
3117.00,0.0137
3116.00,0.0139
3115.00,0.0142
3114.00,0.0145
3113.00,0.0147
3112.00,0.0150
3111.00,0.0153
3110.00,0.0156
3109.00,0.0159
3108.00,0.0162
3107.00,0.0164
3106.00,0.0167
3105.00,0.0168
3104.00,0.0170
3103.00,0.0170
3102.00,0.0170
3101.00,0.0170
3100.00,0.0169
3099.00,0.0167
3098.00,0.0165
3097.00,0.0163
3096.00,0.0161
3095.00,0.0158
3094.00,0.0156
3093.00,0.0153
3092.00,0.0152
3091.00,0.0150
3090.00,0.0149
3089.00,0.0148
3088.00,0.0148
3087.00,0.0149
3086.00,0.0149
3085.00,0.0150
3084.00,0.0151
3083.00,0.0151
3082.00,0.0151
3081.00,0.0150
3080.00,0.0150
3079.00,0.0149
3078.00,0.0148
3077.00,0.0147
3076.00,0.0144
3075.00,0.0141
3074.00,0.0137
3073.00,0.0134
3072.00,0.0130
3071.00,0.0128
3070.00,0.0126
3069.00,0.0125
3068.00,0.0124
3067.00,0.0125
3066.00,0.0127
3065.00,0.0128
3064.00,0.0130
3063.00,0.0130
3062.00,0.0130
3061.00,0.0129
3060.00,0.0128
3059.00,0.0126
3058.00,0.0124
3057.00,0.0122
3056.00,0.0120
3055.00,0.0119
3054.00,0.0118
3053.00,0.0118
3052.00,0.0117
3051.00,0.0117
3050.00,0.0117
3049.00,0.0117
3048.00,0.0117
3047.00,0.0117
3046.00,0.0116
3045.00,0.0116
3044.00,0.0116
3043.00,0.0117
3042.00,0.0118
3041.00,0.0120
3040.00,0.0122
3039.00,0.0124
3038.00,0.0126
3037.00,0.0127
3036.00,0.0128
3035.00,0.0128
3034.00,0.0129
3033.00,0.0131
3032.00,0.0132
3031.00,0.0134
3030.00,0.0135
3029.00,0.0136
3028.00,0.0137
3027.00,0.0136
3026.00,0.0136
3025.00,0.0135
3024.00,0.0133
3023.00,0.0132
3022.00,0.0130
3021.00,0.0129
3020.00,0.0127
3019.00,0.0126
3018.00,0.0124
3017.00,0.0123
3016.00,0.0122
3015.00,0.0122
3014.00,0.0121
3013.00,0.0121
3012.00,0.0122
3011.00,0.0123
3010.00,0.0125
3009.00,0.0127
3008.00,0.0130
3007.00,0.0132
3006.00,0.0135
3005.00,0.0138
3004.00,0.0140
3003.00,0.0142
3002.00,0.0144
3001.00,0.0146
3000.00,0.0146
2999.00,0.0146
2998.00,0.0145
2997.00,0.0143
2996.00,0.0138
2995.00,0.0132
2994.00,0.0124
2993.00,0.0116
2992.00,0.0107
2991.00,0.0100
2990.00,0.0094
2989.00,0.0088
2988.00,0.0083
2987.00,0.0077
2986.00,0.0069
2985.00,0.0058
2984.00,0.0046
2983.00,0.0033
2982.00,0.0024
2981.00,0.0020
2980.00,0.0021
2979.00,0.0027
2978.00,0.0033
2977.00,0.0038
2976.00,0.0043
2975.00,0.0045
2974.00,0.0046
2973.00,0.0046
2972.00,0.0047
2971.00,0.0050
2970.00,0.0056
2969.00,0.0064
2968.00,0.0073
2967.00,0.0081
2966.00,0.0091
2965.00,0.0101
2964.00,0.0113
2963.00,0.0127
2962.00,0.0142
2961.00,0.0159
2960.00,0.0176
2959.00,0.0193
2958.00,0.0209
2957.00,0.0223
2956.00,0.0234
2955.00,0.0242
2954.00,0.0245
2953.00,0.0244
2952.00,0.0240
2951.00,0.0232
2950.00,0.0221
2949.00,0.0209
2948.00,0.0197
2947.00,0.0186
2946.00,0.0177
2945.00,0.0169
2944.00,0.0163
2943.00,0.0158
2942.00,0.0153
2941.00,0.0150
2940.00,0.0148
2939.00,0.0146
2938.00,0.0144
2937.00,0.0143
2936.00,0.0143
2935.00,0.0142
2934.00,0.0142
2933.00,0.0141
2932.00,0.0140
2931.00,0.0139
2930.00,0.0138
2929.00,0.0137
2928.00,0.0136
2927.00,0.0135
2926.00,0.0133
2925.00,0.0131
2924.00,0.0129
2923.00,0.0127
2922.00,0.0125
2921.00,0.0123
2920.00,0.0121
2919.00,0.0118
2918.00,0.0116
2917.00,0.0114
2916.00,0.0113
2915.00,0.0112
2914.00,0.0111
2913.00,0.0110
2912.00,0.0109
2911.00,0.0109
2910.00,0.0107
2909.00,0.0106
2908.00,0.0105
2907.00,0.0103
2906.00,0.0101
2905.00,0.0100
2904.00,0.0099
2903.00,0.0098
2902.00,0.0097
2901.00,0.0096
2900.00,0.0095
2899.00,0.0094
2898.00,0.0092
2897.00,0.0090
2896.00,0.0088
2895.00,0.0087
2894.00,0.0086
2893.00,0.0085
2892.00,0.0084
2891.00,0.0083
2890.00,0.0083
2889.00,0.0083
2888.00,0.0084
2887.00,0.0085
2886.00,0.0085
2885.00,0.0086
2884.00,0.0087
2883.00,0.0088
2882.00,0.0090
2881.00,0.0092
2880.00,0.0095
2879.00,0.0097
2878.00,0.0099
2877.00,0.0101
2876.00,0.0103
2875.00,0.0104
2874.00,0.0106
2873.00,0.0108
2872.00,0.0110
2871.00,0.0112
2870.00,0.0114
2869.00,0.0114
2868.00,0.0114
2867.00,0.0114
2866.00,0.0113
2865.00,0.0112
2864.00,0.0111
2863.00,0.0110
2862.00,0.0109
2861.00,0.0108
2860.00,0.0108
2859.00,0.0108
2858.00,0.0108
2857.00,0.0108
2856.00,0.0109
2855.00,0.0109
2854.00,0.0109
2853.00,0.0110
2852.00,0.0111
2851.00,0.0113
2850.00,0.0115
2849.00,0.0118
2848.00,0.0121
2847.00,0.0125
2846.00,0.0129
2845.00,0.0133
2844.00,0.0135
2843.00,0.0136
2842.00,0.0135
2841.00,0.0132
2840.00,0.0129
2839.00,0.0125
2838.00,0.0122
2837.00,0.0118
2836.00,0.0115
2835.00,0.0113
2834.00,0.0111
2833.00,0.0109
2832.00,0.0108
2831.00,0.0107
2830.00,0.0106
2829.00,0.0105
2828.00,0.0105
2827.00,0.0104
2826.00,0.0104
2825.00,0.0104
2824.00,0.0104
2823.00,0.0104
2822.00,0.0104
2821.00,0.0104
2820.00,0.0104
2819.00,0.0104
2818.00,0.0104
2817.00,0.0105
2816.00,0.0105
2815.00,0.0105
2814.00,0.0106
2813.00,0.0106
2812.00,0.0106
2811.00,0.0106
2810.00,0.0106
2809.00,0.0106
2808.00,0.0106
2807.00,0.0106
2806.00,0.0106
2805.00,0.0105
2804.00,0.0105
2803.00,0.0104
2802.00,0.0103
2801.00,0.0103
2800.00,0.0102
2799.00,0.0101
2798.00,0.0100
2797.00,0.0099
2796.00,0.0098
2795.00,0.0097
2794.00,0.0096
2793.00,0.0095
2792.00,0.0094
2791.00,0.0093
2790.00,0.0092
2789.00,0.0091
2788.00,0.0091
2787.00,0.0090
2786.00,0.0089
2785.00,0.0088
2784.00,0.0088
2783.00,0.0087
2782.00,0.0087
2781.00,0.0087
2780.00,0.0086
2779.00,0.0086
2778.00,0.0086
2777.00,0.0086
2776.00,0.0086
2775.00,0.0086
2774.00,0.0086
2773.00,0.0086
2772.00,0.0086
2771.00,0.0086
2770.00,0.0085
2769.00,0.0085
2768.00,0.0085
2767.00,0.0086
2766.00,0.0085
2765.00,0.0086
2764.00,0.0086
2763.00,0.0085
2762.00,0.0085
2761.00,0.0085
2760.00,0.0085
2759.00,0.0085
2758.00,0.0085
2757.00,0.0084
2756.00,0.0084
2755.00,0.0084
2754.00,0.0084
2753.00,0.0084
2752.00,0.0084
2751.00,0.0084
2750.00,0.0084
2749.00,0.0083
2748.00,0.0083
2747.00,0.0083
2746.00,0.0083
2745.00,0.0083
2744.00,0.0083
2743.00,0.0083
2742.00,0.0083
2741.00,0.0083
2740.00,0.0083
2739.00,0.0083
2738.00,0.0083
2737.00,0.0083
2736.00,0.0082
2735.00,0.0082
2734.00,0.0082
2733.00,0.0082
2732.00,0.0082
2731.00,0.0082
2730.00,0.0082
2729.00,0.0082
2728.00,0.0082
2727.00,0.0083
2726.00,0.0083
2725.00,0.0083
2724.00,0.0083
2723.00,0.0083
2722.00,0.0084
2721.00,0.0084
2720.00,0.0084
2719.00,0.0084
2718.00,0.0084
2717.00,0.0084
2716.00,0.0084
2715.00,0.0083
2714.00,0.0083
2713.00,0.0083
2712.00,0.0083
2711.00,0.0083
2710.00,0.0083
2709.00,0.0083
2708.00,0.0083
2707.00,0.0083
2706.00,0.0083
2705.00,0.0082
2704.00,0.0082
2703.00,0.0082
2702.00,0.0083
2701.00,0.0083
2700.00,0.0083
2699.00,0.0082
2698.00,0.0082
2697.00,0.0082
2696.00,0.0083
2695.00,0.0083
2694.00,0.0083
2693.00,0.0082
2692.00,0.0082
2691.00,0.0082
2690.00,0.0082
2689.00,0.0082
2688.00,0.0082
2687.00,0.0081
2686.00,0.0081
2685.00,0.0081
2684.00,0.0081
2683.00,0.0081
2682.00,0.0080
2681.00,0.0080
2680.00,0.0081
2679.00,0.0081
2678.00,0.0081
2677.00,0.0081
2676.00,0.0081
2675.00,0.0081
2674.00,0.0081
2673.00,0.0081
2672.00,0.0081
2671.00,0.0081
2670.00,0.0081
2669.00,0.0080
2668.00,0.0080
2667.00,0.0080
2666.00,0.0080
2665.00,0.0081
2664.00,0.0081
2663.00,0.0082
2662.00,0.0082
2661.00,0.0082
2660.00,0.0082
2659.00,0.0082
2658.00,0.0082
2657.00,0.0083
2656.00,0.0083
2655.00,0.0083
2654.00,0.0083
2653.00,0.0083
2652.00,0.0083
2651.00,0.0083
2650.00,0.0083
2649.00,0.0084
2648.00,0.0084
2647.00,0.0084
2646.00,0.0084
2645.00,0.0084
2644.00,0.0084
2643.00,0.0084
2642.00,0.0083
2641.00,0.0083
2640.00,0.0083
2639.00,0.0083
2638.00,0.0083
2637.00,0.0083
2636.00,0.0083
2635.00,0.0083
2634.00,0.0083
2633.00,0.0083
2632.00,0.0083
2631.00,0.0083
2630.00,0.0083
2629.00,0.0083
2628.00,0.0084
2627.00,0.0084
2626.00,0.0084
2625.00,0.0085
2624.00,0.0085
2623.00,0.0085
2622.00,0.0085
2621.00,0.0085
2620.00,0.0085
2619.00,0.0085
2618.00,0.0085
2617.00,0.0086
2616.00,0.0086
2615.00,0.0085
2614.00,0.0085
2613.00,0.0084
2612.00,0.0084
2611.00,0.0083
2610.00,0.0083
2609.00,0.0083
2608.00,0.0083
2607.00,0.0083
2606.00,0.0082
2605.00,0.0082
2604.00,0.0082
2603.00,0.0082
2602.00,0.0081
2601.00,0.0081
2600.00,0.0081
2599.00,0.0080
2598.00,0.0080
2597.00,0.0080
2596.00,0.0080
2595.00,0.0080
2594.00,0.0079
2593.00,0.0079
2592.00,0.0079
2591.00,0.0078
2590.00,0.0078
2589.00,0.0078
2588.00,0.0078
2587.00,0.0078
2586.00,0.0078
2585.00,0.0078
2584.00,0.0078
2583.00,0.0078
2582.00,0.0078
2581.00,0.0078
2580.00,0.0078
2579.00,0.0077
2578.00,0.0077
2577.00,0.0077
2576.00,0.0076
2575.00,0.0076
2574.00,0.0075
2573.00,0.0075
2572.00,0.0075
2571.00,0.0075
2570.00,0.0075
2569.00,0.0074
2568.00,0.0074
2567.00,0.0074
2566.00,0.0073
2565.00,0.0073
2564.00,0.0073
2563.00,0.0073
2562.00,0.0073
2561.00,0.0073
2560.00,0.0074
2559.00,0.0074
2558.00,0.0074
2557.00,0.0074
2556.00,0.0074
2555.00,0.0074
2554.00,0.0074
2553.00,0.0073
2552.00,0.0074
2551.00,0.0074
2550.00,0.0074
2549.00,0.0074
2548.00,0.0074
2547.00,0.0074
2546.00,0.0075
2545.00,0.0075
2544.00,0.0075
2543.00,0.0075
2542.00,0.0075
2541.00,0.0075
2540.00,0.0075
2539.00,0.0075
2538.00,0.0075
2537.00,0.0076
2536.00,0.0076
2535.00,0.0076
2534.00,0.0075
2533.00,0.0075
2532.00,0.0075
2531.00,0.0075
2530.00,0.0075
2529.00,0.0074
2528.00,0.0074
2527.00,0.0074
2526.00,0.0073
2525.00,0.0073
2524.00,0.0072
2523.00,0.0072
2522.00,0.0072
2521.00,0.0072
2520.00,0.0072
2519.00,0.0072
2518.00,0.0072
2517.00,0.0072
2516.00,0.0072
2515.00,0.0072
2514.00,0.0072
2513.00,0.0072
2512.00,0.0071
2511.00,0.0071
2510.00,0.0071
2509.00,0.0071
2508.00,0.0070
2507.00,0.0070
2506.00,0.0070
2505.00,0.0070
2504.00,0.0070
2503.00,0.0070
2502.00,0.0070
2501.00,0.0070
2500.00,0.0070
2499.00,0.0070
2498.00,0.0070
2497.00,0.0070
2496.00,0.0070
2495.00,0.0070
2494.00,0.0071
2493.00,0.0071
2492.00,0.0072
2491.00,0.0072
2490.00,0.0072
2489.00,0.0072
2488.00,0.0073
2487.00,0.0073
2486.00,0.0073
2485.00,0.0073
2484.00,0.0072
2483.00,0.0071
2482.00,0.0071
2481.00,0.0070
2480.00,0.0070
2479.00,0.0070
2478.00,0.0069
2477.00,0.0069
2476.00,0.0070
2475.00,0.0070
2474.00,0.0070
2473.00,0.0070
2472.00,0.0070
2471.00,0.0070
2470.00,0.0070
2469.00,0.0070
2468.00,0.0070
2467.00,0.0070
2466.00,0.0070
2465.00,0.0070
2464.00,0.0071
2463.00,0.0071
2462.00,0.0072
2461.00,0.0072
2460.00,0.0073
2459.00,0.0073
2458.00,0.0073
2457.00,0.0073
2456.00,0.0074
2455.00,0.0075
2454.00,0.0075
2453.00,0.0074
2452.00,0.0074
2451.00,0.0074
2450.00,0.0074
2449.00,0.0074
2448.00,0.0074
2447.00,0.0073
2446.00,0.0073
2445.00,0.0072
2444.00,0.0072
2443.00,0.0071
2442.00,0.0071
2441.00,0.0070
2440.00,0.0070
2439.00,0.0070
2438.00,0.0069
2437.00,0.0069
2436.00,0.0069
2435.00,0.0068
2434.00,0.0068
2433.00,0.0068
2432.00,0.0068
2431.00,0.0068
2430.00,0.0068
2429.00,0.0068
2428.00,0.0068
2427.00,0.0068
2426.00,0.0068
2425.00,0.0069
2424.00,0.0069
2423.00,0.0069
2422.00,0.0069
2421.00,0.0069
2420.00,0.0068
2419.00,0.0068
2418.00,0.0067
2417.00,0.0067
2416.00,0.0067
2415.00,0.0067
2414.00,0.0067
2413.00,0.0067
2412.00,0.0067
2411.00,0.0067
2410.00,0.0066
2409.00,0.0066
2408.00,0.0065
2407.00,0.0065
2406.00,0.0065
2405.00,0.0065
2404.00,0.0065
2403.00,0.0065
2402.00,0.0065
2401.00,0.0065
2400.00,0.0064
2399.00,0.0064
2398.00,0.0065
2397.00,0.0065
2396.00,0.0065
2395.00,0.0064
2394.00,0.0064
2393.00,0.0063
2392.00,0.0063
2391.00,0.0063
2390.00,0.0064
2389.00,0.0064
2388.00,0.0064
2387.00,0.0064
2386.00,0.0064
2385.00,0.0064
2384.00,0.0063
2383.00,0.0063
2382.00,0.0062
2381.00,0.0062
2380.00,0.0062
2379.00,0.0063
2378.00,0.0063
2377.00,0.0063
2376.00,0.0063
2375.00,0.0063
2374.00,0.0062
2373.00,0.0062
2372.00,0.0062
2371.00,0.0061
2370.00,0.0061
2369.00,0.0060
2368.00,0.0060
2367.00,0.0060
2366.00,0.0061
2365.00,0.0061
2364.00,0.0062
2363.00,0.0063
2362.00,0.0063
2361.00,0.0064
2360.00,0.0063
2359.00,0.0063
2358.00,0.0062
2357.00,0.0062
2356.00,0.0062
2355.00,0.0063
2354.00,0.0063
2353.00,0.0062
2352.00,0.0061
2351.00,0.0061
2350.00,0.0062
2349.00,0.0063
2348.00,0.0064
2347.00,0.0066
2346.00,0.0066
2345.00,0.0065
2344.00,0.0065
2343.00,0.0064
2342.00,0.0064
2341.00,0.0064
2340.00,0.0065
2339.00,0.0065
2338.00,0.0065
2337.00,0.0065
2336.00,0.0065
2335.00,0.0065
2334.00,0.0065
2333.00,0.0065
2332.00,0.0064
2331.00,0.0063
2330.00,0.0063
2329.00,0.0065
2328.00,0.0068
2327.00,0.0071
2326.00,0.0074
2325.00,0.0075
2324.00,0.0074
2323.00,0.0072
2322.00,0.0070
2321.00,0.0068
2320.00,0.0067
2319.00,0.0066
2318.00,0.0065
2317.00,0.0064
2316.00,0.0064
2315.00,0.0064
2314.00,0.0063
2313.00,0.0063
2312.00,0.0062
2311.00,0.0061
2310.00,0.0060
2309.00,0.0059
2308.00,0.0059
2307.00,0.0059
2306.00,0.0059
2305.00,0.0059
2304.00,0.0060
2303.00,0.0060
2302.00,0.0060
2301.00,0.0060
2300.00,0.0061
2299.00,0.0061
2298.00,0.0062
2297.00,0.0063
2296.00,0.0064
2295.00,0.0065
2294.00,0.0066
2293.00,0.0067
2292.00,0.0068
2291.00,0.0070
2290.00,0.0071
2289.00,0.0072
2288.00,0.0073
2287.00,0.0073
2286.00,0.0072
2285.00,0.0072
2284.00,0.0071
2283.00,0.0070
2282.00,0.0070
2281.00,0.0069
2280.00,0.0068
2279.00,0.0067
2278.00,0.0067
2277.00,0.0066
2276.00,0.0066
2275.00,0.0066
2274.00,0.0066
2273.00,0.0066
2272.00,0.0066
2271.00,0.0065
2270.00,0.0065
2269.00,0.0064
2268.00,0.0064
2267.00,0.0063
2266.00,0.0062
2265.00,0.0062
2264.00,0.0062
2263.00,0.0061
2262.00,0.0061
2261.00,0.0061
2260.00,0.0061
2259.00,0.0061
2258.00,0.0060
2257.00,0.0059
2256.00,0.0058
2255.00,0.0056
2254.00,0.0055
2253.00,0.0055
2252.00,0.0056
2251.00,0.0056
2250.00,0.0056
2249.00,0.0055
2248.00,0.0056
2247.00,0.0056
2246.00,0.0056
2245.00,0.0056
2244.00,0.0055
2243.00,0.0055
2242.00,0.0054
2241.00,0.0053
2240.00,0.0052
2239.00,0.0052
2238.00,0.0051
2237.00,0.0051
2236.00,0.0050
2235.00,0.0049
2234.00,0.0049
2233.00,0.0049
2232.00,0.0050
2231.00,0.0050
2230.00,0.0050
2229.00,0.0049
2228.00,0.0049
2227.00,0.0049
2226.00,0.0048
2225.00,0.0049
2224.00,0.0049
2223.00,0.0050
2222.00,0.0050
2221.00,0.0050
2220.00,0.0051
2219.00,0.0052
2218.00,0.0051
2217.00,0.0051
2216.00,0.0051
2215.00,0.0050
2214.00,0.0049
2213.00,0.0049
2212.00,0.0050
2211.00,0.0050
2210.00,0.0050
2209.00,0.0049
2208.00,0.0048
2207.00,0.0047
2206.00,0.0046
2205.00,0.0046
2204.00,0.0046
2203.00,0.0046
2202.00,0.0046
2201.00,0.0046
2200.00,0.0046
2199.00,0.0047
2198.00,0.0048
2197.00,0.0048
2196.00,0.0049
2195.00,0.0049
2194.00,0.0048
2193.00,0.0047
2192.00,0.0047
2191.00,0.0047
2190.00,0.0048
2189.00,0.0049
2188.00,0.0050
2187.00,0.0049
2186.00,0.0048
2185.00,0.0047
2184.00,0.0045
2183.00,0.0043
2182.00,0.0041
2181.00,0.0041
2180.00,0.0043
2179.00,0.0045
2178.00,0.0044
2177.00,0.0043
2176.00,0.0043
2175.00,0.0043
2174.00,0.0045
2173.00,0.0047
2172.00,0.0051
2171.00,0.0054
2170.00,0.0057
2169.00,0.0059
2168.00,0.0061
2167.00,0.0061
2166.00,0.0060
2165.00,0.0061
2164.00,0.0063
2163.00,0.0063
2162.00,0.0057
2161.00,0.0046
2160.00,0.0033
2159.00,0.0023
2158.00,0.0019
2157.00,0.0021
2156.00,0.0024
2155.00,0.0028
2154.00,0.0029
2153.00,0.0030
2152.00,0.0032
2151.00,0.0032
2150.00,0.0033
2149.00,0.0035
2148.00,0.0037
2147.00,0.0037
2146.00,0.0036
2145.00,0.0035
2144.00,0.0034
2143.00,0.0034
2142.00,0.0034
2141.00,0.0034
2140.00,0.0035
2139.00,0.0035
2138.00,0.0034
2137.00,0.0032
2136.00,0.0030
2135.00,0.0028
2134.00,0.0027
2133.00,0.0028
2132.00,0.0030
2131.00,0.0033
2130.00,0.0035
2129.00,0.0036
2128.00,0.0038
2127.00,0.0039
2126.00,0.0040
2125.00,0.0042
2124.00,0.0043
2123.00,0.0043
2122.00,0.0043
2121.00,0.0043
2120.00,0.0044
2119.00,0.0044
2118.00,0.0045
2117.00,0.0046
2116.00,0.0047
2115.00,0.0048
2114.00,0.0048
2113.00,0.0047
2112.00,0.0047
2111.00,0.0047
2110.00,0.0046
2109.00,0.0046
2108.00,0.0047
2107.00,0.0047
2106.00,0.0047
2105.00,0.0047
2104.00,0.0048
2103.00,0.0049
2102.00,0.0049
2101.00,0.0049
2100.00,0.0049
2099.00,0.0048
2098.00,0.0046
2097.00,0.0045
2096.00,0.0044
2095.00,0.0043
2094.00,0.0044
2093.00,0.0045
2092.00,0.0047
2091.00,0.0048
2090.00,0.0049
2089.00,0.0049
2088.00,0.0050
2087.00,0.0051
2086.00,0.0051
2085.00,0.0051
2084.00,0.0051
2083.00,0.0051
2082.00,0.0051
2081.00,0.0052
2080.00,0.0053
2079.00,0.0054
2078.00,0.0053
2077.00,0.0052
2076.00,0.0051
2075.00,0.0050
2074.00,0.0049
2073.00,0.0049
2072.00,0.0049
2071.00,0.0049
2070.00,0.0049
2069.00,0.0048
2068.00,0.0048
2067.00,0.0048
2066.00,0.0047
2065.00,0.0046
2064.00,0.0046
2063.00,0.0045
2062.00,0.0045
2061.00,0.0045
2060.00,0.0045
2059.00,0.0045
2058.00,0.0044
2057.00,0.0043
2056.00,0.0042
2055.00,0.0041
2054.00,0.0043
2053.00,0.0047
2052.00,0.0051
2051.00,0.0050
2050.00,0.0046
2049.00,0.0040
2048.00,0.0037
2047.00,0.0034
2046.00,0.0032
2045.00,0.0031
2044.00,0.0031
2043.00,0.0031
2042.00,0.0029
2041.00,0.0029
2040.00,0.0029
2039.00,0.0029
2038.00,0.0028
2037.00,0.0027
2036.00,0.0026
2035.00,0.0024
2034.00,0.0022
2033.00,0.0021
2032.00,0.0022
2031.00,0.0023
2030.00,0.0023
2029.00,0.0024
2028.00,0.0026
2027.00,0.0027
2026.00,0.0027
2025.00,0.0027
2024.00,0.0028
2023.00,0.0029
2022.00,0.0029
2021.00,0.0029
2020.00,0.0031
2019.00,0.0031
2018.00,0.0031
2017.00,0.0031
2016.00,0.0033
2015.00,0.0034
2014.00,0.0033
2013.00,0.0033
2012.00,0.0034
2011.00,0.0035
2010.00,0.0035
2009.00,0.0035
2008.00,0.0035
2007.00,0.0035
2006.00,0.0036
2005.00,0.0040
2004.00,0.0044
2003.00,0.0047
2002.00,0.0047
2001.00,0.0047
2000.00,0.0047
1999.00,0.0046
1998.00,0.0044
1997.00,0.0044
1996.00,0.0046
1995.00,0.0046
1994.00,0.0046
1993.00,0.0046
1992.00,0.0046
1991.00,0.0045
1990.00,0.0044
1989.00,0.0043
1988.00,0.0044
1987.00,0.0044
1986.00,0.0045
1985.00,0.0046
1984.00,0.0049
1983.00,0.0052
1982.00,0.0054
1981.00,0.0054
1980.00,0.0053
1979.00,0.0047
1978.00,0.0041
1977.00,0.0037
1976.00,0.0036
1975.00,0.0035
1974.00,0.0033
1973.00,0.0033
1972.00,0.0034
1971.00,0.0035
1970.00,0.0034
1969.00,0.0034
1968.00,0.0035
1967.00,0.0036
1966.00,0.0037
1965.00,0.0039
1964.00,0.0040
1963.00,0.0040
1962.00,0.0038
1961.00,0.0036
1960.00,0.0035
1959.00,0.0035
1958.00,0.0035
1957.00,0.0036
1956.00,0.0037
1955.00,0.0038
1954.00,0.0037
1953.00,0.0037
1952.00,0.0037
1951.00,0.0036
1950.00,0.0036
1949.00,0.0036
1948.00,0.0037
1947.00,0.0038
1946.00,0.0039
1945.00,0.0040
1944.00,0.0042
1943.00,0.0043
1942.00,0.0042
1941.00,0.0040
1940.00,0.0040
1939.00,0.0041
1938.00,0.0042
1937.00,0.0043
1936.00,0.0044
1935.00,0.0045
1934.00,0.0045
1933.00,0.0046
1932.00,0.0048
1931.00,0.0050
1930.00,0.0050
1929.00,0.0050
1928.00,0.0049
1927.00,0.0049
1926.00,0.0048
1925.00,0.0049
1924.00,0.0050
1923.00,0.0051
1922.00,0.0051
1921.00,0.0051
1920.00,0.0051
1919.00,0.0051
1918.00,0.0050
1917.00,0.0049
1916.00,0.0048
1915.00,0.0047
1914.00,0.0046
1913.00,0.0045
1912.00,0.0045
1911.00,0.0046
1910.00,0.0045
1909.00,0.0045
1908.00,0.0045
1907.00,0.0044
1906.00,0.0043
1905.00,0.0042
1904.00,0.0042
1903.00,0.0041
1902.00,0.0040
1901.00,0.0040
1900.00,0.0040
1899.00,0.0041
1898.00,0.0042
1897.00,0.0043
1896.00,0.0043
1895.00,0.0043
1894.00,0.0043
1893.00,0.0043
1892.00,0.0044
1891.00,0.0045
1890.00,0.0045
1889.00,0.0045
1888.00,0.0045
1887.00,0.0044
1886.00,0.0043
1885.00,0.0043
1884.00,0.0043
1883.00,0.0042
1882.00,0.0041
1881.00,0.0040
1880.00,0.0040
1879.00,0.0039
1878.00,0.0039
1877.00,0.0038
1876.00,0.0039
1875.00,0.0039
1874.00,0.0039
1873.00,0.0040
1872.00,0.0042
1871.00,0.0044
1870.00,0.0046
1869.00,0.0046
1868.00,0.0045
1867.00,0.0044
1866.00,0.0042
1865.00,0.0041
1864.00,0.0041
1863.00,0.0041
1862.00,0.0041
1861.00,0.0041
1860.00,0.0042
1859.00,0.0042
1858.00,0.0042
1857.00,0.0043
1856.00,0.0044
1855.00,0.0046
1854.00,0.0047
1853.00,0.0048
1852.00,0.0049
1851.00,0.0050
1850.00,0.0051
1849.00,0.0051
1848.00,0.0052
1847.00,0.0052
1846.00,0.0051
1845.00,0.0050
1844.00,0.0047
1843.00,0.0045
1842.00,0.0043
1841.00,0.0042
1840.00,0.0041
1839.00,0.0041
1838.00,0.0041
1837.00,0.0042
1836.00,0.0042
1835.00,0.0042
1834.00,0.0042
1833.00,0.0043
1832.00,0.0045
1831.00,0.0046
1830.00,0.0046
1829.00,0.0046
1828.00,0.0046
1827.00,0.0046
1826.00,0.0046
1825.00,0.0045
1824.00,0.0044
1823.00,0.0043
1822.00,0.0041
1821.00,0.0040
1820.00,0.0040
1819.00,0.0039
1818.00,0.0039
1817.00,0.0039
1816.00,0.0039
1815.00,0.0040
1814.00,0.0041
1813.00,0.0042
1812.00,0.0044
1811.00,0.0045
1810.00,0.0045
1809.00,0.0044
1808.00,0.0045
1807.00,0.0045
1806.00,0.0045
1805.00,0.0046
1804.00,0.0048
1803.00,0.0050
1802.00,0.0052
1801.00,0.0052
1800.00,0.0052
1799.00,0.0051
1798.00,0.0051
1797.00,0.0051
1796.00,0.0052
1795.00,0.0054
1794.00,0.0054
1793.00,0.0054
1792.00,0.0054
1791.00,0.0053
1790.00,0.0052
1789.00,0.0050
1788.00,0.0050
1787.00,0.0050
1786.00,0.0051
1785.00,0.0051
1784.00,0.0052
1783.00,0.0053
1782.00,0.0053
1781.00,0.0053
1780.00,0.0053
1779.00,0.0054
1778.00,0.0053
1777.00,0.0054
1776.00,0.0056
1775.00,0.0056
1774.00,0.0055
1773.00,0.0054
1772.00,0.0054
1771.00,0.0056
1770.00,0.0058
1769.00,0.0060
1768.00,0.0060
1767.00,0.0059
1766.00,0.0058
1765.00,0.0059
1764.00,0.0061
1763.00,0.0063
1762.00,0.0063
1761.00,0.0064
1760.00,0.0065
1759.00,0.0067
1758.00,0.0068
1757.00,0.0068
1756.00,0.0069
1755.00,0.0069
1754.00,0.0069
1753.00,0.0070
1752.00,0.0072
1751.00,0.0074
1750.00,0.0076
1749.00,0.0077
1748.00,0.0078
1747.00,0.0078
1746.00,0.0078
1745.00,0.0079
1744.00,0.0081
1743.00,0.0083
1742.00,0.0083
1741.00,0.0083
1740.00,0.0084
1739.00,0.0086
1738.00,0.0088
1737.00,0.0091
1736.00,0.0093
1735.00,0.0093
1734.00,0.0091
1733.00,0.0092
1732.00,0.0097
1731.00,0.0102
1730.00,0.0104
1729.00,0.0105
1728.00,0.0106
1727.00,0.0107
1726.00,0.0108
1725.00,0.0109
1724.00,0.0112
1723.00,0.0115
1722.00,0.0119
1721.00,0.0124
1720.00,0.0130
1719.00,0.0136
1718.00,0.0140
1717.00,0.0149
1716.00,0.0163
1715.00,0.0179
1714.00,0.0193
1713.00,0.0207
1712.00,0.0223
1711.00,0.0239
1710.00,0.0256
1709.00,0.0274
1708.00,0.0295
1707.00,0.0316
1706.00,0.0336
1705.00,0.0356
1704.00,0.0375
1703.00,0.0391
1702.00,0.0406
1701.00,0.0428
1700.00,0.0456
1699.00,0.0483
1698.00,0.0511
1697.00,0.0554
1696.00,0.0628
1695.00,0.0730
1694.00,0.0841
1693.00,0.0960
1692.00,0.1092
1691.00,0.1235
1690.00,0.1373
1689.00,0.1482
1688.00,0.1547
1687.00,0.1570
1686.00,0.1569
1685.00,0.1569
1684.00,0.1595
1683.00,0.1648
1682.00,0.1713
1681.00,0.1789
1680.00,0.1872
1679.00,0.1946
1678.00,0.1991
1677.00,0.1995
1676.00,0.1949
1675.00,0.1854
1674.00,0.1735
1673.00,0.1615
1672.00,0.1497
1671.00,0.1372
1670.00,0.1240
1669.00,0.1116
1668.00,0.1016
1667.00,0.0941
1666.00,0.0883
1665.00,0.0834
1664.00,0.0787
1663.00,0.0742
1662.00,0.0703
1661.00,0.0673
1660.00,0.0648
1659.00,0.0629
1658.00,0.0618
1657.00,0.0612
1656.00,0.0611
1655.00,0.0616
1654.00,0.0644
1653.00,0.0703
1652.00,0.0769
1651.00,0.0824
1650.00,0.0872
1649.00,0.0915
1648.00,0.0948
1647.00,0.0962
1646.00,0.0952
1645.00,0.0920
1644.00,0.0877
1643.00,0.0828
1642.00,0.0776
1641.00,0.0724
1640.00,0.0680
1639.00,0.0643
1638.00,0.0615
1637.00,0.0594
1636.00,0.0583
1635.00,0.0585
1634.00,0.0599
1633.00,0.0620
1632.00,0.0646
1631.00,0.0675
1630.00,0.0705
1629.00,0.0734
1628.00,0.0757
1627.00,0.0772
1626.00,0.0781
1625.00,0.0785
1624.00,0.0786
1623.00,0.0787
1622.00,0.0787
1621.00,0.0786
1620.00,0.0783
1619.00,0.0775
1618.00,0.0761
1617.00,0.0741
1616.00,0.0718
1615.00,0.0696
1614.00,0.0674
1613.00,0.0650
1612.00,0.0622
1611.00,0.0596
1610.00,0.0576
1609.00,0.0563
1608.00,0.0562
1607.00,0.0572
1606.00,0.0590
1605.00,0.0609
1604.00,0.0617
1603.00,0.0607
1602.00,0.0577
1601.00,0.0533
1600.00,0.0486
1599.00,0.0442
1598.00,0.0405
1597.00,0.0375
1596.00,0.0351
1595.00,0.0331
1594.00,0.0314
1593.00,0.0299
1592.00,0.0285
1591.00,0.0272
1590.00,0.0260
1589.00,0.0249
1588.00,0.0239
1587.00,0.0230
1586.00,0.0223
1585.00,0.0217
1584.00,0.0212
1583.00,0.0209
1582.00,0.0209
1581.00,0.0212
1580.00,0.0218
1579.00,0.0225
1578.00,0.0235
1577.00,0.0249
1576.00,0.0266
1575.00,0.0279
1574.00,0.0284
1573.00,0.0280
1572.00,0.0269
1571.00,0.0252
1570.00,0.0235
1569.00,0.0219
1568.00,0.0208
1567.00,0.0200
1566.00,0.0195
1565.00,0.0191
1564.00,0.0188
1563.00,0.0186
1562.00,0.0185
1561.00,0.0186
1560.00,0.0186
1559.00,0.0182
1558.00,0.0180
1557.00,0.0182
1556.00,0.0182
1555.00,0.0182
1554.00,0.0182
1553.00,0.0184
1552.00,0.0188
1551.00,0.0193
1550.00,0.0198
1549.00,0.0203
1548.00,0.0209
1547.00,0.0216
1546.00,0.0226
1545.00,0.0239
1544.00,0.0252
1543.00,0.0262
1542.00,0.0275
1541.00,0.0295
1540.00,0.0327
1539.00,0.0372
1538.00,0.0425
1537.00,0.0484
1536.00,0.0554
1535.00,0.0650
1534.00,0.0790
1533.00,0.0960
1532.00,0.1123
1531.00,0.1264
1530.00,0.1391
1529.00,0.1506
1528.00,0.1596
1527.00,0.1648
1526.00,0.1654
1525.00,0.1619
1524.00,0.1556
1523.00,0.1472
1522.00,0.1364
1521.00,0.1245
1520.00,0.1143
1519.00,0.1066
1518.00,0.1000
1517.00,0.0931
1516.00,0.0866
1515.00,0.0814
1514.00,0.0772
1513.00,0.0735
1512.00,0.0706
1511.00,0.0687
1510.00,0.0679
1509.00,0.0679
1508.00,0.0693
1507.00,0.0733
1506.00,0.0793
1505.00,0.0855
1504.00,0.0917
1503.00,0.0985
1502.00,0.1062
1501.00,0.1146
1500.00,0.1233
1499.00,0.1318
1498.00,0.1397
1497.00,0.1463
1496.00,0.1510
1495.00,0.1537
1494.00,0.1548
1493.00,0.1547
1492.00,0.1535
1491.00,0.1513
1490.00,0.1482
1489.00,0.1440
1488.00,0.1390
1487.00,0.1338
1486.00,0.1286
1485.00,0.1235
1484.00,0.1186
1483.00,0.1138
1482.00,0.1092
1481.00,0.1050
1480.00,0.1012
1479.00,0.0980
1478.00,0.0951
1477.00,0.0922
1476.00,0.0891
1475.00,0.0859
1474.00,0.0826
1473.00,0.0794
1472.00,0.0766
1471.00,0.0744
1470.00,0.0730
1469.00,0.0721
1468.00,0.0714
1467.00,0.0709
1466.00,0.0703
1465.00,0.0694
1464.00,0.0682
1463.00,0.0670
1462.00,0.0660
1461.00,0.0653
1460.00,0.0647
1459.00,0.0640
1458.00,0.0633
1457.00,0.0625
1456.00,0.0616
1455.00,0.0609
1454.00,0.0606
1453.00,0.0603
1452.00,0.0603
1451.00,0.0606
1450.00,0.0616
1449.00,0.0633
1448.00,0.0658
1447.00,0.0690
1446.00,0.0726
1445.00,0.0760
1444.00,0.0788
1443.00,0.0810
1442.00,0.0827
1441.00,0.0845
1440.00,0.0872
1439.00,0.0913
1438.00,0.0981
1437.00,0.1080
1436.00,0.1196
1435.00,0.1301
1434.00,0.1390
1433.00,0.1465
1432.00,0.1515
1431.00,0.1520
1430.00,0.1475
1429.00,0.1392
1428.00,0.1294
1427.00,0.1195
1426.00,0.1104
1425.00,0.1020
1424.00,0.0942
1423.00,0.0876
1422.00,0.0821
1421.00,0.0774
1420.00,0.0728
1419.00,0.0680
1418.00,0.0636
1417.00,0.0599
1416.00,0.0565
1415.00,0.0534
1414.00,0.0506
1413.00,0.0481
1412.00,0.0457
1411.00,0.0436
1410.00,0.0417
1409.00,0.0399
1408.00,0.0384
1407.00,0.0370
1406.00,0.0358
1405.00,0.0346
1404.00,0.0333
1403.00,0.0322
1402.00,0.0314
1401.00,0.0307
1400.00,0.0302
1399.00,0.0297
1398.00,0.0294
1397.00,0.0291
1396.00,0.0290
1395.00,0.0292
1394.00,0.0297
1393.00,0.0304
1392.00,0.0315
1391.00,0.0330
1390.00,0.0349
1389.00,0.0368
1388.00,0.0388
1387.00,0.0405
1386.00,0.0419
1385.00,0.0432
1384.00,0.0446
1383.00,0.0466
1382.00,0.0490
1381.00,0.0513
1380.00,0.0530
1379.00,0.0535
1378.00,0.0526
1377.00,0.0503
1376.00,0.0472
1375.00,0.0437
1374.00,0.0402
1373.00,0.0372
1372.00,0.0349
1371.00,0.0333
1370.00,0.0323
1369.00,0.0317
1368.00,0.0316
1367.00,0.0319
1366.00,0.0328
1365.00,0.0343
1364.00,0.0363
1363.00,0.0389
1362.00,0.0418
1361.00,0.0449
1360.00,0.0482
1359.00,0.0519
1358.00,0.0563
1357.00,0.0616
1356.00,0.0683
1355.00,0.0769
1354.00,0.0877
1353.00,0.1009
1352.00,0.1158
1351.00,0.1307
1350.00,0.1433
1349.00,0.1510
1348.00,0.1527
1347.00,0.1493
1346.00,0.1432
1345.00,0.1369
1344.00,0.1321
1343.00,0.1294
1342.00,0.1282
1341.00,0.1272
1340.00,0.1252
1339.00,0.1217
1338.00,0.1164
1337.00,0.1099
1336.00,0.1027
1335.00,0.0953
1334.00,0.0882
1333.00,0.0817
1332.00,0.0760
1331.00,0.0716
1330.00,0.0684
1329.00,0.0663
1328.00,0.0654
1327.00,0.0655
1326.00,0.0670
1325.00,0.0700
1324.00,0.0748
1323.00,0.0811
1322.00,0.0883
1321.00,0.0954
1320.00,0.1016
1319.00,0.1067
1318.00,0.1109
1317.00,0.1147
1316.00,0.1188
1315.00,0.1235
1314.00,0.1284
1313.00,0.1331
1312.00,0.1372
1311.00,0.1403
1310.00,0.1421
1309.00,0.1422
1308.00,0.1402
1307.00,0.1363
1306.00,0.1309
1305.00,0.1248
1304.00,0.1184
1303.00,0.1122
1302.00,0.1064
1301.00,0.1011
1300.00,0.0963
1299.00,0.0922
1298.00,0.0887
1297.00,0.0859
1296.00,0.0840
1295.00,0.0829
1294.00,0.0828
1293.00,0.0833
1292.00,0.0841
1291.00,0.0846
1290.00,0.0843
1289.00,0.0831
1288.00,0.0811
1287.00,0.0788
1286.00,0.0765
1285.00,0.0743
1284.00,0.0725
1283.00,0.0708
1282.00,0.0695
1281.00,0.0683
1280.00,0.0674
1279.00,0.0668
1278.00,0.0664
1277.00,0.0662
1276.00,0.0663
1275.00,0.0666
1274.00,0.0671
1273.00,0.0678
1272.00,0.0685
1271.00,0.0690
1270.00,0.0689
1269.00,0.0677
1268.00,0.0655
1267.00,0.0624
1266.00,0.0587
1265.00,0.0549
1264.00,0.0513
1263.00,0.0482
1262.00,0.0455
1261.00,0.0433
1260.00,0.0416
1259.00,0.0402
1258.00,0.0392
1257.00,0.0385
1256.00,0.0380
1255.00,0.0378
1254.00,0.0379
1253.00,0.0381
1252.00,0.0385
1251.00,0.0390
1250.00,0.0397
1249.00,0.0406
1248.00,0.0416
1247.00,0.0428
1246.00,0.0443
1245.00,0.0462
1244.00,0.0487
1243.00,0.0519
1242.00,0.0562
1241.00,0.0617
1240.00,0.0681
1239.00,0.0751
1238.00,0.0820
1237.00,0.0889
1236.00,0.0964
1235.00,0.1056
1234.00,0.1170
1233.00,0.1308
1232.00,0.1465
1231.00,0.1637
1230.00,0.1817
1229.00,0.1998
1228.00,0.2173
1227.00,0.2330
1226.00,0.2456
1225.00,0.2539
1224.00,0.2577
1223.00,0.2570
1222.00,0.2529
1221.00,0.2463
1220.00,0.2384
1219.00,0.2297
1218.00,0.2209
1217.00,0.2122
1216.00,0.2037
1215.00,0.1954
1214.00,0.1871
1213.00,0.1788
1212.00,0.1706
1211.00,0.1624
1210.00,0.1544
1209.00,0.1466
1208.00,0.1392
1207.00,0.1321
1206.00,0.1254
1205.00,0.1192
1204.00,0.1134
1203.00,0.1081
1202.00,0.1034
1201.00,0.0996
1200.00,0.0968
1199.00,0.0955
1198.00,0.0961
1197.00,0.0990
1196.00,0.1046
1195.00,0.1131
1194.00,0.1243
1193.00,0.1370
1192.00,0.1497
1191.00,0.1603
1190.00,0.1671
1189.00,0.1689
1188.00,0.1658
1187.00,0.1590
1186.00,0.1500
1185.00,0.1404
1184.00,0.1310
1183.00,0.1223
1182.00,0.1142
1181.00,0.1066
1180.00,0.0994
1179.00,0.0928
1178.00,0.0868
1177.00,0.0817
1176.00,0.0774
1175.00,0.0739
1174.00,0.0712
1173.00,0.0692
1172.00,0.0680
1171.00,0.0679
1170.00,0.0690
1169.00,0.0717
1168.00,0.0760
1167.00,0.0815
1166.00,0.0871
1165.00,0.0915
1164.00,0.0930
1163.00,0.0911
1162.00,0.0862
1161.00,0.0797
1160.00,0.0732
1159.00,0.0681
1158.00,0.0652
1157.00,0.0655
1156.00,0.0692
1155.00,0.0762
1154.00,0.0852
1153.00,0.0935
1152.00,0.0983
1151.00,0.0979
1150.00,0.0932
1149.00,0.0861
1148.00,0.0787
1147.00,0.0722
1146.00,0.0668
1145.00,0.0623
1144.00,0.0585
1143.00,0.0555
1142.00,0.0533
1141.00,0.0520
1140.00,0.0516
1139.00,0.0519
1138.00,0.0527
1137.00,0.0537
1136.00,0.0547
1135.00,0.0556
1134.00,0.0565
1133.00,0.0578
1132.00,0.0598
1131.00,0.0630
1130.00,0.0679
1129.00,0.0749
1128.00,0.0847
1127.00,0.0975
1126.00,0.1134
1125.00,0.1319
1124.00,0.1518
1123.00,0.1711
1122.00,0.1879
1121.00,0.2003
1120.00,0.2072
1119.00,0.2085
1118.00,0.2052
1117.00,0.1984
1116.00,0.1894
1115.00,0.1794
1114.00,0.1691
1113.00,0.1593
1112.00,0.1505
1111.00,0.1433
1110.00,0.1380
1109.00,0.1352
1108.00,0.1350
1107.00,0.1378
1106.00,0.1433
1105.00,0.1510
1104.00,0.1596
1103.00,0.1677
1102.00,0.1735
1101.00,0.1758
1100.00,0.1744
1099.00,0.1696
1098.00,0.1625
1097.00,0.1542
1096.00,0.1454
1095.00,0.1367
1094.00,0.1283
1093.00,0.1204
1092.00,0.1129
1091.00,0.1059
1090.00,0.0995
1089.00,0.0936
1088.00,0.0883
1087.00,0.0836
1086.00,0.0794
1085.00,0.0758
1084.00,0.0725
1083.00,0.0696
1082.00,0.0671
1081.00,0.0649
1080.00,0.0629
1079.00,0.0612
1078.00,0.0598
1077.00,0.0587
1076.00,0.0578
1075.00,0.0574
1074.00,0.0574
1073.00,0.0579
1072.00,0.0584
1071.00,0.0586
1070.00,0.0581
1069.00,0.0570
1068.00,0.0553
1067.00,0.0538
1066.00,0.0527
1065.00,0.0522
1064.00,0.0527
1063.00,0.0542
1062.00,0.0571
1061.00,0.0614
1060.00,0.0673
1059.00,0.0746
1058.00,0.0827
1057.00,0.0905
1056.00,0.0969
1055.00,0.1008
1054.00,0.1021
1053.00,0.1010
1052.00,0.0984
1051.00,0.0953
1050.00,0.0922
1049.00,0.0891
1048.00,0.0856
1047.00,0.0820
1046.00,0.0784
1045.00,0.0753
1044.00,0.0729
1043.00,0.0712
1042.00,0.0702
1041.00,0.0698
1040.00,0.0698
1039.00,0.0702
1038.00,0.0709
1037.00,0.0717
1036.00,0.0726
1035.00,0.0737
1034.00,0.0750
1033.00,0.0767
1032.00,0.0790
1031.00,0.0821
1030.00,0.0864
1029.00,0.0921
1028.00,0.0991
1027.00,0.1074
1026.00,0.1167
1025.00,0.1263
1024.00,0.1353
1023.00,0.1427
1022.00,0.1476
1021.00,0.1495
1020.00,0.1483
1019.00,0.1444
1018.00,0.1387
1017.00,0.1317
1016.00,0.1241
1015.00,0.1165
1014.00,0.1092
1013.00,0.1023
1012.00,0.0959
1011.00,0.0901
1010.00,0.0850
1009.00,0.0805
1008.00,0.0765
1007.00,0.0730
1006.00,0.0701
1005.00,0.0678
1004.00,0.0660
1003.00,0.0646
1002.00,0.0632
1001.00,0.0616
1000.00,0.0596
999.00,0.0574
998.00,0.0554
997.00,0.0536
996.00,0.0520
995.00,0.0506
994.00,0.0494
993.00,0.0483
992.00,0.0473
991.00,0.0463
990.00,0.0454
989.00,0.0446
988.00,0.0438
987.00,0.0431
986.00,0.0424
985.00,0.0418
984.00,0.0412
983.00,0.0406
982.00,0.0401
981.00,0.0396
980.00,0.0390
979.00,0.0385
978.00,0.0380
977.00,0.0375
976.00,0.0369
975.00,0.0364
974.00,0.0361
973.00,0.0361
972.00,0.0364
971.00,0.0369
970.00,0.0374
969.00,0.0375
968.00,0.0372
967.00,0.0367
966.00,0.0368
965.00,0.0378
964.00,0.0394
963.00,0.0409
962.00,0.0416
961.00,0.0411
960.00,0.0399
959.00,0.0392
958.00,0.0396
957.00,0.0411
956.00,0.0431
955.00,0.0447
954.00,0.0451
953.00,0.0443
952.00,0.0425
951.00,0.0403
950.00,0.0383
949.00,0.0366
948.00,0.0351
947.00,0.0338
946.00,0.0327
945.00,0.0318
944.00,0.0309
943.00,0.0301
942.00,0.0296
941.00,0.0291
940.00,0.0286
939.00,0.0283
938.00,0.0280
937.00,0.0278
936.00,0.0275
935.00,0.0273
934.00,0.0272
933.00,0.0271
932.00,0.0269
931.00,0.0268
930.00,0.0268
929.00,0.0267
928.00,0.0266
927.00,0.0265
926.00,0.0264
925.00,0.0264
924.00,0.0263
923.00,0.0261
922.00,0.0261
921.00,0.0259
920.00,0.0258
919.00,0.0256
918.00,0.0255
917.00,0.0254
916.00,0.0253
915.00,0.0251
914.00,0.0249
913.00,0.0248
912.00,0.0246
911.00,0.0244
910.00,0.0242
909.00,0.0241
908.00,0.0239
907.00,0.0238
906.00,0.0237
905.00,0.0236
904.00,0.0235
903.00,0.0233
902.00,0.0232
901.00,0.0230
900.00,0.0228
899.00,0.0227
898.00,0.0225
897.00,0.0224
896.00,0.0223
895.00,0.0221
894.00,0.0221
893.00,0.0220
892.00,0.0219
891.00,0.0218
890.00,0.0218
889.00,0.0218
888.00,0.0220
887.00,0.0223
886.00,0.0229
885.00,0.0237
884.00,0.0242
883.00,0.0243
882.00,0.0237
881.00,0.0229
880.00,0.0220
879.00,0.0212
878.00,0.0208
877.00,0.0205
876.00,0.0202
875.00,0.0200
874.00,0.0199
873.00,0.0198
872.00,0.0197
871.00,0.0196
870.00,0.0196
869.00,0.0197
868.00,0.0198
867.00,0.0200
866.00,0.0205
865.00,0.0215
864.00,0.0234
863.00,0.0276
862.00,0.0356
861.00,0.0482
860.00,0.0628
859.00,0.0734
858.00,0.0749
857.00,0.0669
856.00,0.0547
855.00,0.0437
854.00,0.0360
853.00,0.0312
852.00,0.0283
851.00,0.0265
850.00,0.0254
849.00,0.0246
848.00,0.0239
847.00,0.0234
846.00,0.0232
845.00,0.0231
844.00,0.0230
843.00,0.0233
842.00,0.0242
841.00,0.0257
840.00,0.0284
839.00,0.0333
838.00,0.0407
837.00,0.0506
836.00,0.0615
835.00,0.0721
834.00,0.0817
833.00,0.0908
832.00,0.1002
831.00,0.1098
830.00,0.1174
829.00,0.1205
828.00,0.1180
827.00,0.1109
826.00,0.1012
825.00,0.0906
824.00,0.0806
823.00,0.0718
822.00,0.0644
821.00,0.0579
820.00,0.0521
819.00,0.0470
818.00,0.0427
817.00,0.0389
816.00,0.0357
815.00,0.0333
814.00,0.0316
813.00,0.0305
812.00,0.0302
811.00,0.0308
810.00,0.0322
809.00,0.0339
808.00,0.0357
807.00,0.0368
806.00,0.0368
805.00,0.0354
804.00,0.0332
803.00,0.0313
802.00,0.0303
801.00,0.0308
800.00,0.0335
799.00,0.0400
798.00,0.0522
797.00,0.0714
796.00,0.0959
795.00,0.1200
794.00,0.1356
793.00,0.1378
792.00,0.1286
791.00,0.1145
790.00,0.1008
789.00,0.0892
788.00,0.0791
787.00,0.0703
786.00,0.0628
785.00,0.0568
784.00,0.0521
783.00,0.0487
782.00,0.0463
781.00,0.0442
780.00,0.0424
779.00,0.0410
778.00,0.0400
777.00,0.0398
776.00,0.0407
775.00,0.0429
774.00,0.0460
773.00,0.0486
772.00,0.0492
771.00,0.0478
770.00,0.0458
769.00,0.0450
768.00,0.0475
767.00,0.0548
766.00,0.0672
765.00,0.0829
764.00,0.0979
763.00,0.1075
762.00,0.1087
761.00,0.1024
760.00,0.0922
759.00,0.0818
758.00,0.0731
757.00,0.0664
756.00,0.0614
755.00,0.0578
754.00,0.0555
753.00,0.0546
752.00,0.0553
751.00,0.0586
750.00,0.0652
749.00,0.0759
748.00,0.0907
747.00,0.1076
746.00,0.1228
745.00,0.1316
744.00,0.1316
743.00,0.1240
742.00,0.1123
741.00,0.0993
740.00,0.0872
739.00,0.0766
738.00,0.0676
737.00,0.0602
736.00,0.0541
735.00,0.0492
734.00,0.0453
733.00,0.0422
732.00,0.0396
731.00,0.0377
730.00,0.0361
729.00,0.0349
728.00,0.0338
727.00,0.0331
726.00,0.0327
725.00,0.0324
724.00,0.0324
723.00,0.0327
722.00,0.0336
721.00,0.0352
720.00,0.0379
719.00,0.0423
718.00,0.0498
717.00,0.0615
716.00,0.0787
715.00,0.1006
714.00,0.1234
713.00,0.1406
712.00,0.1467
711.00,0.1411
710.00,0.1275
709.00,0.1112
708.00,0.0957
707.00,0.0831
706.00,0.0735
705.00,0.0665
704.00,0.0613
703.00,0.0575
702.00,0.0549
701.00,0.0532
700.00,0.0521
699.00,0.0518
698.00,0.0522
697.00,0.0534
696.00,0.0553
695.00,0.0581
694.00,0.0621
693.00,0.0674
692.00,0.0738
691.00,0.0813
690.00,0.0894
689.00,0.0972
688.00,0.1033
687.00,0.1065
686.00,0.1059
685.00,0.1015
684.00,0.0946
683.00,0.0869
682.00,0.0801
681.00,0.0750
680.00,0.0718
679.00,0.0708
678.00,0.0721
677.00,0.0752
676.00,0.0792
675.00,0.0829
674.00,0.0852
673.00,0.0849
672.00,0.0821
671.00,0.0783
670.00,0.0746
669.00,0.0714
668.00,0.0694
667.00,0.0689
666.00,0.0693
665.00,0.0699
664.00,0.0704
663.00,0.0706
662.00,0.0702
661.00,0.0691
660.00,0.0672
659.00,0.0650
658.00,0.0625
657.00,0.0600
656.00,0.0574
655.00,0.0549
654.00,0.0526
653.00,0.0504
652.00,0.0483
651.00,0.0463
650.00,0.0445
649.00,0.0427
648.00,0.0410
647.00,0.0396
646.00,0.0384
645.00,0.0373
644.00,0.0361
643.00,0.0350
642.00,0.0341
641.00,0.0332
640.00,0.0322
639.00,0.0314
638.00,0.0309
637.00,0.0306
636.00,0.0303
635.00,0.0303
634.00,0.0307
633.00,0.0315
632.00,0.0328
631.00,0.0350
630.00,0.0387
629.00,0.0440
628.00,0.0510
627.00,0.0598
626.00,0.0695
625.00,0.0784
624.00,0.0846
623.00,0.0871
622.00,0.0860
621.00,0.0821
620.00,0.0767
619.00,0.0708
618.00,0.0654
617.00,0.0608
616.00,0.0570
615.00,0.0543
614.00,0.0529
613.00,0.0525
612.00,0.0529
611.00,0.0544
610.00,0.0564
609.00,0.0581
608.00,0.0586
607.00,0.0576
606.00,0.0553
605.00,0.0520
604.00,0.0485
603.00,0.0454
602.00,0.0431
601.00,0.0413
600.00,0.0399
599.00,0.0389
598.00,0.0385
597.00,0.0386
596.00,0.0391
595.00,0.0406
594.00,0.0435
593.00,0.0474
592.00,0.0513
591.00,0.0542
590.00,0.0552
589.00,0.0545
588.00,0.0534
587.00,0.0535
586.00,0.0553
585.00,0.0573
584.00,0.0578
583.00,0.0561
582.00,0.0528
581.00,0.0487
580.00,0.0449
579.00,0.0421
578.00,0.0402
577.00,0.0388
576.00,0.0376
575.00,0.0368
574.00,0.0365
573.00,0.0366
572.00,0.0370
571.00,0.0379
570.00,0.0394
569.00,0.0410
568.00,0.0425
567.00,0.0439
566.00,0.0454
565.00,0.0467
564.00,0.0472
563.00,0.0466
562.00,0.0452
561.00,0.0430
560.00,0.0403
559.00,0.0379
558.00,0.0361
557.00,0.0346
556.00,0.0334
555.00,0.0323
554.00,0.0316
553.00,0.0308
552.00,0.0300
551.00,0.0294
550.00,0.0292
549.00,0.0290
548.00,0.0287
547.00,0.0283
546.00,0.0281
545.00,0.0278
544.00,0.0273
543.00,0.0269
542.00,0.0267
541.00,0.0265
540.00,0.0262
539.00,0.0259
538.00,0.0258
537.00,0.0257
536.00,0.0253
535.00,0.0250
534.00,0.0249
533.00,0.0248
532.00,0.0245
531.00,0.0242
530.00,0.0243
529.00,0.0243
528.00,0.0242
527.00,0.0240
526.00,0.0241
525.00,0.0239
524.00,0.0234
523.00,0.0230
522.00,0.0230
521.00,0.0231
520.00,0.0230
519.00,0.0232
518.00,0.0236
517.00,0.0242
516.00,0.0246
515.00,0.0255
514.00,0.0269
513.00,0.0280
512.00,0.0282
511.00,0.0277
510.00,0.0269
509.00,0.0259
508.00,0.0247
507.00,0.0240
506.00,0.0238
505.00,0.0237
504.00,0.0234
503.00,0.0231
502.00,0.0231
501.00,0.0228
500.00,0.0221
499.00,0.0216
498.00,0.0215
497.00,0.0214
496.00,0.0211
495.00,0.0209
494.00,0.0211
493.00,0.0214
492.00,0.0213
491.00,0.0212
490.00,0.0214
489.00,0.0217
488.00,0.0218
487.00,0.0220
486.00,0.0225
485.00,0.0228
484.00,0.0227
483.00,0.0227
482.00,0.0232
481.00,0.0239
480.00,0.0245
479.00,0.0255
478.00,0.0271
477.00,0.0288
476.00,0.0302
475.00,0.0323
474.00,0.0355
473.00,0.0395
472.00,0.0433
471.00,0.0470
470.00,0.0505
469.00,0.0534
468.00,0.0547
467.00,0.0549
466.00,0.0541
465.00,0.0524
464.00,0.0499
463.00,0.0471
462.00,0.0448
461.00,0.0425
460.00,0.0402
459.00,0.0382
458.00,0.0367
457.00,0.0350
456.00,0.0329
455.00,0.0314
454.00,0.0310
453.00,0.0307
452.00,0.0298
451.00,0.0288
450.00,0.0281
449.00,0.0276
448.00,0.0267
447.00,0.0262
446.00,0.0263
445.00,0.0262
444.00,0.0255
443.00,0.0247
442.00,0.0245
441.00,0.0243
440.00,0.0237
439.00,0.0236
438.00,0.0241
437.00,0.0244
436.00,0.0241
435.00,0.0238
434.00,0.0240
433.00,0.0238
432.00,0.0231
431.00,0.0227
430.00,0.0233
429.00,0.0240
428.00,0.0237
427.00,0.0235
426.00,0.0244
425.00,0.0255
424.00,0.0262
423.00,0.0272
422.00,0.0292
421.00,0.0314
420.00,0.0330
419.00,0.0351
418.00,0.0386
417.00,0.0419
416.00,0.0441
415.00,0.0466
414.00,0.0500
413.00,0.0525
412.00,0.0531
411.00,0.0531
410.00,0.0539
409.00,0.0544
408.00,0.0535
407.00,0.0520
406.00,0.0504
405.00,0.0473
404.00,0.0426
403.00,0.0390
402.00,0.0381
401.00,0.0381
400.00,0.0368
