Created as New Dataset,Sample 733 By YargerLab Date Thursday, June 26 2025
cm-1,A
4000.00,0.0003
3999.00,0.0003
3998.00,0.0003
3997.00,0.0003
3996.00,0.0003
3995.00,0.0003
3994.00,0.0003
3993.00,0.0003
3992.00,0.0003
3991.00,0.0003
3990.00,0.0003
3989.00,0.0003
3988.00,0.0003
3987.00,0.0003
3986.00,0.0003
3985.00,0.0003
3984.00,0.0003
3983.00,0.0003
3982.00,0.0003
3981.00,0.0003
3980.00,0.0003
3979.00,0.0003
3978.00,0.0003
3977.00,0.0003
3976.00,0.0003
3975.00,0.0003
3974.00,0.0003
3973.00,0.0003
3972.00,0.0003
3971.00,0.0003
3970.00,0.0003
3969.00,0.0003
3968.00,0.0003
3967.00,0.0003
3966.00,0.0003
3965.00,0.0003
3964.00,0.0003
3963.00,0.0003
3962.00,0.0003
3961.00,0.0003
3960.00,0.0003
3959.00,0.0003
3958.00,0.0003
3957.00,0.0003
3956.00,0.0002
3955.00,0.0002
3954.00,0.0002
3953.00,0.0002
3952.00,0.0002
3951.00,0.0002
3950.00,0.0002
3949.00,0.0002
3948.00,0.0002
3947.00,0.0002
3946.00,0.0002
3945.00,0.0002
3944.00,0.0002
3943.00,0.0003
3942.00,0.0003
3941.00,0.0003
3940.00,0.0003
3939.00,0.0003
3938.00,0.0003
3937.00,0.0003
3936.00,0.0002
3935.00,0.0002
3934.00,0.0002
3933.00,0.0003
3932.00,0.0003
3931.00,0.0003
3930.00,0.0003
3929.00,0.0003
3928.00,0.0002
3927.00,0.0002
3926.00,0.0002
3925.00,0.0002
3924.00,0.0002
3923.00,0.0002
3922.00,0.0002
3921.00,0.0002
3920.00,0.0003
3919.00,0.0003
3918.00,0.0003
3917.00,0.0003
3916.00,0.0003
3915.00,0.0003
3914.00,0.0002
3913.00,0.0002
3912.00,0.0002
3911.00,0.0002
3910.00,0.0002
3909.00,0.0002
3908.00,0.0001
3907.00,0.0001
3906.00,0.0001
3905.00,0.0001
3904.00,0.0001
3903.00,0.0001
3902.00,0.0001
3901.00,0.0001
3900.00,0.0001
3899.00,0.0001
3898.00,0.0002
3897.00,0.0002
3896.00,0.0002
3895.00,0.0002
3894.00,0.0001
3893.00,0.0001
3892.00,0.0002
3891.00,0.0002
3890.00,0.0002
3889.00,0.0002
3888.00,0.0002
3887.00,0.0002
3886.00,0.0002
3885.00,0.0002
3884.00,0.0002
3883.00,0.0002
3882.00,0.0002
3881.00,0.0002
3880.00,0.0002
3879.00,0.0002
3878.00,0.0002
3877.00,0.0002
3876.00,0.0001
3875.00,0.0001
3874.00,0.0001
3873.00,0.0001
3872.00,0.0001
3871.00,0.0001
3870.00,0.0001
3869.00,0.0001
3868.00,0.0001
3867.00,0.0001
3866.00,0.0001
3865.00,0.0001
3864.00,0.0001
3863.00,0.0002
3862.00,0.0002
3861.00,0.0001
3860.00,0.0001
3859.00,0.0001
3858.00,0.0001
3857.00,0.0000
3856.00,-0.0000
3855.00,-0.0000
3854.00,-0.0000
3853.00,-0.0000
3852.00,-0.0000
3851.00,-0.0000
3850.00,0.0000
3849.00,0.0001
3848.00,0.0001
3847.00,0.0001
3846.00,0.0002
3845.00,0.0002
3844.00,0.0001
3843.00,0.0001
3842.00,0.0001
3841.00,0.0000
3840.00,0.0000
3839.00,0.0000
3838.00,0.0000
3837.00,0.0001
3836.00,0.0001
3835.00,0.0001
3834.00,0.0001
3833.00,0.0001
3832.00,0.0001
3831.00,0.0002
3830.00,0.0002
3829.00,0.0002
3828.00,0.0002
3827.00,0.0002
3826.00,0.0002
3825.00,0.0002
3824.00,0.0002
3823.00,0.0001
3822.00,0.0001
3821.00,0.0001
3820.00,0.0001
3819.00,0.0001
3818.00,0.0001
3817.00,0.0001
3816.00,0.0001
3815.00,0.0001
3814.00,0.0001
3813.00,0.0001
3812.00,0.0002
3811.00,0.0002
3810.00,0.0002
3809.00,0.0002
3808.00,0.0002
3807.00,0.0002
3806.00,0.0001
3805.00,0.0001
3804.00,0.0001
3803.00,0.0000
3802.00,0.0001
3801.00,0.0001
3800.00,0.0001
3799.00,0.0002
3798.00,0.0002
3797.00,0.0002
3796.00,0.0002
3795.00,0.0002
3794.00,0.0003
3793.00,0.0003
3792.00,0.0003
3791.00,0.0003
3790.00,0.0003
3789.00,0.0003
3788.00,0.0003
3787.00,0.0003
3786.00,0.0003
3785.00,0.0002
3784.00,0.0002
3783.00,0.0002
3782.00,0.0002
3781.00,0.0002
3780.00,0.0002
3779.00,0.0002
3778.00,0.0002
3777.00,0.0002
3776.00,0.0002
3775.00,0.0002
3774.00,0.0003
3773.00,0.0003
3772.00,0.0003
3771.00,0.0003
3770.00,0.0003
3769.00,0.0003
3768.00,0.0003
3767.00,0.0002
3766.00,0.0003
3765.00,0.0003
3764.00,0.0003
3763.00,0.0003
3762.00,0.0003
3761.00,0.0003
3760.00,0.0003
3759.00,0.0003
3758.00,0.0003
3757.00,0.0003
3756.00,0.0002
3755.00,0.0002
3754.00,0.0002
3753.00,0.0001
3752.00,0.0001
3751.00,0.0001
3750.00,0.0001
3749.00,0.0001
3748.00,0.0001
3747.00,0.0001
3746.00,0.0001
3745.00,0.0001
3744.00,0.0001
3743.00,0.0001
3742.00,0.0001
3741.00,0.0001
3740.00,0.0001
3739.00,0.0001
3738.00,0.0001
3737.00,0.0001
3736.00,0.0001
3735.00,0.0000
3734.00,0.0000
3733.00,0.0000
3732.00,0.0001
3731.00,0.0001
3730.00,0.0001
3729.00,0.0001
3728.00,0.0002
3727.00,0.0002
3726.00,0.0002
3725.00,0.0002
3724.00,0.0002
3723.00,0.0002
3722.00,0.0002
3721.00,0.0002
3720.00,0.0002
3719.00,0.0002
3718.00,0.0002
3717.00,0.0002
3716.00,0.0002
3715.00,0.0002
3714.00,0.0002
3713.00,0.0001
3712.00,0.0002
3711.00,0.0002
3710.00,0.0002
3709.00,0.0002
3708.00,0.0002
3707.00,0.0002
3706.00,0.0002
3705.00,0.0002
3704.00,0.0002
3703.00,0.0002
3702.00,0.0002
3701.00,0.0003
3700.00,0.0003
3699.00,0.0003
3698.00,0.0003
3697.00,0.0003
3696.00,0.0002
3695.00,0.0002
3694.00,0.0002
3693.00,0.0002
3692.00,0.0002
3691.00,0.0002
3690.00,0.0002
3689.00,0.0002
3688.00,0.0002
3687.00,0.0002
3686.00,0.0003
3685.00,0.0004
3684.00,0.0004
3683.00,0.0004
3682.00,0.0004
3681.00,0.0004
3680.00,0.0004
3679.00,0.0004
3678.00,0.0003
3677.00,0.0003
3676.00,0.0003
3675.00,0.0004
3674.00,0.0004
3673.00,0.0004
3672.00,0.0004
3671.00,0.0004
3670.00,0.0005
3669.00,0.0006
3668.00,0.0006
3667.00,0.0006
3666.00,0.0007
3665.00,0.0007
3664.00,0.0008
3663.00,0.0008
3662.00,0.0008
3661.00,0.0008
3660.00,0.0008
3659.00,0.0008
3658.00,0.0008
3657.00,0.0009
3656.00,0.0009
3655.00,0.0009
3654.00,0.0009
3653.00,0.0009
3652.00,0.0010
3651.00,0.0010
3650.00,0.0010
3649.00,0.0010
3648.00,0.0011
3647.00,0.0011
3646.00,0.0011
3645.00,0.0011
3644.00,0.0012
3643.00,0.0013
3642.00,0.0014
3641.00,0.0014
3640.00,0.0015
3639.00,0.0015
3638.00,0.0016
3637.00,0.0016
3636.00,0.0016
3635.00,0.0017
3634.00,0.0017
3633.00,0.0017
3632.00,0.0017
3631.00,0.0017
3630.00,0.0017
3629.00,0.0017
3628.00,0.0017
3627.00,0.0018
3626.00,0.0018
3625.00,0.0019
3624.00,0.0020
3623.00,0.0020
3622.00,0.0021
3621.00,0.0021
3620.00,0.0022
3619.00,0.0022
3618.00,0.0022
3617.00,0.0022
3616.00,0.0023
3615.00,0.0023
3614.00,0.0024
3613.00,0.0025
3612.00,0.0025
3611.00,0.0026
3610.00,0.0026
3609.00,0.0026
3608.00,0.0027
3607.00,0.0027
3606.00,0.0028
3605.00,0.0028
3604.00,0.0029
3603.00,0.0029
3602.00,0.0030
3601.00,0.0030
3600.00,0.0031
3599.00,0.0031
3598.00,0.0032
3597.00,0.0032
3596.00,0.0033
3595.00,0.0033
3594.00,0.0033
3593.00,0.0034
3592.00,0.0034
3591.00,0.0035
3590.00,0.0035
3589.00,0.0036
3588.00,0.0036
3587.00,0.0036
3586.00,0.0036
3585.00,0.0037
3584.00,0.0037
3583.00,0.0038
3582.00,0.0039
3581.00,0.0040
3580.00,0.0040
3579.00,0.0041
3578.00,0.0041
3577.00,0.0041
3576.00,0.0042
3575.00,0.0042
3574.00,0.0043
3573.00,0.0044
3572.00,0.0044
3571.00,0.0045
3570.00,0.0045
3569.00,0.0046
3568.00,0.0046
3567.00,0.0046
3566.00,0.0045
3565.00,0.0046
3564.00,0.0046
3563.00,0.0047
3562.00,0.0048
3561.00,0.0049
3560.00,0.0050
3559.00,0.0051
3558.00,0.0051
3557.00,0.0052
3556.00,0.0053
3555.00,0.0053
3554.00,0.0054
3553.00,0.0054
3552.00,0.0054
3551.00,0.0055
3550.00,0.0055
3549.00,0.0056
3548.00,0.0056
3547.00,0.0057
3546.00,0.0057
3545.00,0.0057
3544.00,0.0058
3543.00,0.0058
3542.00,0.0059
3541.00,0.0060
3540.00,0.0061
3539.00,0.0061
3538.00,0.0062
3537.00,0.0062
3536.00,0.0062
3535.00,0.0063
3534.00,0.0063
3533.00,0.0064
3532.00,0.0064
3531.00,0.0065
3530.00,0.0065
3529.00,0.0066
3528.00,0.0066
3527.00,0.0067
3526.00,0.0067
3525.00,0.0068
3524.00,0.0068
3523.00,0.0069
3522.00,0.0069
3521.00,0.0069
3520.00,0.0070
3519.00,0.0070
3518.00,0.0071
3517.00,0.0071
3516.00,0.0072
3515.00,0.0073
3514.00,0.0073
3513.00,0.0074
3512.00,0.0074
3511.00,0.0074
3510.00,0.0075
3509.00,0.0075
3508.00,0.0075
3507.00,0.0076
3506.00,0.0077
3505.00,0.0077
3504.00,0.0078
3503.00,0.0078
3502.00,0.0078
3501.00,0.0079
3500.00,0.0079
3499.00,0.0080
3498.00,0.0080
3497.00,0.0081
3496.00,0.0081
3495.00,0.0082
3494.00,0.0083
3493.00,0.0084
3492.00,0.0084
3491.00,0.0084
3490.00,0.0085
3489.00,0.0085
3488.00,0.0086
3487.00,0.0087
3486.00,0.0087
3485.00,0.0088
3484.00,0.0088
3483.00,0.0089
3482.00,0.0089
3481.00,0.0090
3480.00,0.0090
3479.00,0.0091
3478.00,0.0091
3477.00,0.0092
3476.00,0.0092
3475.00,0.0093
3474.00,0.0093
3473.00,0.0094
3472.00,0.0094
3471.00,0.0095
3470.00,0.0095
3469.00,0.0096
3468.00,0.0097
3467.00,0.0097
3466.00,0.0098
3465.00,0.0098
3464.00,0.0099
3463.00,0.0099
3462.00,0.0099
3461.00,0.0100
3460.00,0.0100
3459.00,0.0101
3458.00,0.0101
3457.00,0.0102
3456.00,0.0102
3455.00,0.0103
3454.00,0.0104
3453.00,0.0104
3452.00,0.0105
3451.00,0.0105
3450.00,0.0106
3449.00,0.0107
3448.00,0.0107
3447.00,0.0107
3446.00,0.0108
3445.00,0.0108
3444.00,0.0109
3443.00,0.0109
3442.00,0.0110
3441.00,0.0111
3440.00,0.0111
3439.00,0.0112
3438.00,0.0113
3437.00,0.0113
3436.00,0.0114
3435.00,0.0114
3434.00,0.0115
3433.00,0.0115
3432.00,0.0116
3431.00,0.0116
3430.00,0.0117
3429.00,0.0117
3428.00,0.0118
3427.00,0.0119
3426.00,0.0119
3425.00,0.0120
3424.00,0.0120
3423.00,0.0121
3422.00,0.0121
3421.00,0.0122
3420.00,0.0122
3419.00,0.0123
3418.00,0.0123
3417.00,0.0124
3416.00,0.0125
3415.00,0.0125
3414.00,0.0126
3413.00,0.0127
3412.00,0.0127
3411.00,0.0128
3410.00,0.0129
3409.00,0.0129
3408.00,0.0130
3407.00,0.0130
3406.00,0.0131
3405.00,0.0131
3404.00,0.0132
3403.00,0.0132
3402.00,0.0133
3401.00,0.0133
3400.00,0.0134
3399.00,0.0134
3398.00,0.0135
3397.00,0.0135
3396.00,0.0136
3395.00,0.0136
3394.00,0.0137
3393.00,0.0137
3392.00,0.0137
3391.00,0.0138
3390.00,0.0138
3389.00,0.0139
3388.00,0.0139
3387.00,0.0140
3386.00,0.0140
3385.00,0.0141
3384.00,0.0142
3383.00,0.0143
3382.00,0.0144
3381.00,0.0145
3380.00,0.0146
3379.00,0.0146
3378.00,0.0147
3377.00,0.0147
3376.00,0.0148
3375.00,0.0149
3374.00,0.0149
3373.00,0.0150
3372.00,0.0151
3371.00,0.0151
3370.00,0.0152
3369.00,0.0153
3368.00,0.0153
3367.00,0.0154
3366.00,0.0155
3365.00,0.0156
3364.00,0.0157
3363.00,0.0158
3362.00,0.0159
3361.00,0.0160
3360.00,0.0160
3359.00,0.0161
3358.00,0.0163
3357.00,0.0164
3356.00,0.0165
3355.00,0.0165
3354.00,0.0166
3353.00,0.0167
3352.00,0.0167
3351.00,0.0168
3350.00,0.0169
3349.00,0.0170
3348.00,0.0171
3347.00,0.0172
3346.00,0.0173
3345.00,0.0174
3344.00,0.0175
3343.00,0.0177
3342.00,0.0178
3341.00,0.0179
3340.00,0.0180
3339.00,0.0181
3338.00,0.0182
3337.00,0.0183
3336.00,0.0184
3335.00,0.0185
3334.00,0.0186
3333.00,0.0188
3332.00,0.0189
3331.00,0.0190
3330.00,0.0191
3329.00,0.0193
3328.00,0.0194
3327.00,0.0195
3326.00,0.0196
3325.00,0.0198
3324.00,0.0199
3323.00,0.0201
3322.00,0.0202
3321.00,0.0204
3320.00,0.0205
3319.00,0.0207
3318.00,0.0208
3317.00,0.0210
3316.00,0.0211
3315.00,0.0213
3314.00,0.0214
3313.00,0.0216
3312.00,0.0217
3311.00,0.0219
3310.00,0.0220
3309.00,0.0222
3308.00,0.0224
3307.00,0.0225
3306.00,0.0227
3305.00,0.0229
3304.00,0.0231
3303.00,0.0233
3302.00,0.0235
3301.00,0.0237
3300.00,0.0239
3299.00,0.0241
3298.00,0.0242
3297.00,0.0243
3296.00,0.0245
3295.00,0.0247
3294.00,0.0249
3293.00,0.0251
3292.00,0.0252
3291.00,0.0254
3290.00,0.0255
3289.00,0.0257
3288.00,0.0259
3287.00,0.0261
3286.00,0.0262
3285.00,0.0264
3284.00,0.0265
3283.00,0.0267
3282.00,0.0268
3281.00,0.0269
3280.00,0.0270
3279.00,0.0270
3278.00,0.0271
3277.00,0.0271
3276.00,0.0272
3275.00,0.0272
3274.00,0.0272
3273.00,0.0271
3272.00,0.0271
3271.00,0.0271
3270.00,0.0271
3269.00,0.0270
3268.00,0.0270
3267.00,0.0270
3266.00,0.0269
3265.00,0.0268
3264.00,0.0267
3263.00,0.0266
3262.00,0.0265
3261.00,0.0263
3260.00,0.0262
3259.00,0.0260
3258.00,0.0259
3257.00,0.0257
3256.00,0.0255
3255.00,0.0254
3254.00,0.0252
3253.00,0.0250
3252.00,0.0249
3251.00,0.0247
3250.00,0.0245
3249.00,0.0244
3248.00,0.0242
3247.00,0.0241
3246.00,0.0239
3245.00,0.0238
3244.00,0.0236
3243.00,0.0235
3242.00,0.0233
3241.00,0.0232
3240.00,0.0230
3239.00,0.0229
3238.00,0.0227
3237.00,0.0225
3236.00,0.0224
3235.00,0.0222
3234.00,0.0220
3233.00,0.0219
3232.00,0.0218
3231.00,0.0217
3230.00,0.0216
3229.00,0.0215
3228.00,0.0214
3227.00,0.0212
3226.00,0.0211
3225.00,0.0210
3224.00,0.0209
3223.00,0.0208
3222.00,0.0207
3221.00,0.0206
3220.00,0.0205
3219.00,0.0203
3218.00,0.0202
3217.00,0.0201
3216.00,0.0200
3215.00,0.0199
3214.00,0.0198
3213.00,0.0197
3212.00,0.0196
3211.00,0.0195
3210.00,0.0194
3209.00,0.0193
3208.00,0.0192
3207.00,0.0191
3206.00,0.0190
3205.00,0.0189
3204.00,0.0189
3203.00,0.0188
3202.00,0.0187
3201.00,0.0186
3200.00,0.0185
3199.00,0.0184
3198.00,0.0183
3197.00,0.0182
3196.00,0.0181
3195.00,0.0180
3194.00,0.0179
3193.00,0.0179
3192.00,0.0178
3191.00,0.0177
3190.00,0.0176
3189.00,0.0175
3188.00,0.0174
3187.00,0.0173
3186.00,0.0172
3185.00,0.0171
3184.00,0.0170
3183.00,0.0169
3182.00,0.0168
3181.00,0.0168
3180.00,0.0167
3179.00,0.0166
3178.00,0.0165
3177.00,0.0164
3176.00,0.0163
3175.00,0.0162
3174.00,0.0161
3173.00,0.0160
3172.00,0.0160
3171.00,0.0159
3170.00,0.0158
3169.00,0.0157
3168.00,0.0156
3167.00,0.0156
3166.00,0.0155
3165.00,0.0154
3164.00,0.0153
3163.00,0.0153
3162.00,0.0152
3161.00,0.0151
3160.00,0.0150
3159.00,0.0149
3158.00,0.0149
3157.00,0.0148
3156.00,0.0147
3155.00,0.0146
3154.00,0.0146
3153.00,0.0145
3152.00,0.0145
3151.00,0.0144
3150.00,0.0143
3149.00,0.0143
3148.00,0.0142
3147.00,0.0142
3146.00,0.0141
3145.00,0.0141
3144.00,0.0140
3143.00,0.0139
3142.00,0.0138
3141.00,0.0137
3140.00,0.0137
3139.00,0.0137
3138.00,0.0136
3137.00,0.0136
3136.00,0.0136
3135.00,0.0135
3134.00,0.0135
3133.00,0.0135
3132.00,0.0134
3131.00,0.0134
3130.00,0.0134
3129.00,0.0133
3128.00,0.0133
3127.00,0.0133
3126.00,0.0132
3125.00,0.0132
3124.00,0.0131
3123.00,0.0131
3122.00,0.0131
3121.00,0.0130
3120.00,0.0130
3119.00,0.0130
3118.00,0.0130
3117.00,0.0130
3116.00,0.0130
3115.00,0.0130
3114.00,0.0131
3113.00,0.0131
3112.00,0.0131
3111.00,0.0131
3110.00,0.0131
3109.00,0.0131
3108.00,0.0131
3107.00,0.0131
3106.00,0.0131
3105.00,0.0132
3104.00,0.0132
3103.00,0.0132
3102.00,0.0132
3101.00,0.0133
3100.00,0.0133
3099.00,0.0133
3098.00,0.0133
3097.00,0.0134
3096.00,0.0134
3095.00,0.0135
3094.00,0.0135
3093.00,0.0135
3092.00,0.0135
3091.00,0.0135
3090.00,0.0136
3089.00,0.0136
3088.00,0.0136
3087.00,0.0136
3086.00,0.0136
3085.00,0.0136
3084.00,0.0136
3083.00,0.0136
3082.00,0.0136
3081.00,0.0136
3080.00,0.0136
3079.00,0.0136
3078.00,0.0136
3077.00,0.0136
3076.00,0.0137
3075.00,0.0137
3074.00,0.0137
3073.00,0.0137
3072.00,0.0137
3071.00,0.0137
3070.00,0.0136
3069.00,0.0136
3068.00,0.0135
3067.00,0.0135
3066.00,0.0134
3065.00,0.0134
3064.00,0.0134
3063.00,0.0133
3062.00,0.0133
3061.00,0.0133
3060.00,0.0132
3059.00,0.0132
3058.00,0.0131
3057.00,0.0130
3056.00,0.0129
3055.00,0.0128
3054.00,0.0127
3053.00,0.0126
3052.00,0.0126
3051.00,0.0125
3050.00,0.0124
3049.00,0.0124
3048.00,0.0123
3047.00,0.0122
3046.00,0.0122
3045.00,0.0121
3044.00,0.0120
3043.00,0.0119
3042.00,0.0119
3041.00,0.0119
3040.00,0.0118
3039.00,0.0118
3038.00,0.0117
3037.00,0.0116
3036.00,0.0115
3035.00,0.0115
3034.00,0.0114
3033.00,0.0114
3032.00,0.0113
3031.00,0.0113
3030.00,0.0113
3029.00,0.0112
3028.00,0.0111
3027.00,0.0111
3026.00,0.0110
3025.00,0.0109
3024.00,0.0109
3023.00,0.0108
3022.00,0.0108
3021.00,0.0108
3020.00,0.0107
3019.00,0.0106
3018.00,0.0106
3017.00,0.0105
3016.00,0.0104
3015.00,0.0104
3014.00,0.0103
3013.00,0.0103
3012.00,0.0103
3011.00,0.0102
3010.00,0.0102
3009.00,0.0102
3008.00,0.0101
3007.00,0.0101
3006.00,0.0101
3005.00,0.0100
3004.00,0.0100
3003.00,0.0100
3002.00,0.0100
3001.00,0.0100
3000.00,0.0100
2999.00,0.0100
2998.00,0.0100
2997.00,0.0101
2996.00,0.0101
2995.00,0.0101
2994.00,0.0102
2993.00,0.0102
2992.00,0.0103
2991.00,0.0104
2990.00,0.0105
2989.00,0.0106
2988.00,0.0107
2987.00,0.0108
2986.00,0.0109
2985.00,0.0110
2984.00,0.0111
2983.00,0.0112
2982.00,0.0113
2981.00,0.0115
2980.00,0.0116
2979.00,0.0119
2978.00,0.0121
2977.00,0.0123
2976.00,0.0125
2975.00,0.0127
2974.00,0.0129
2973.00,0.0131
2972.00,0.0133
2971.00,0.0134
2970.00,0.0136
2969.00,0.0138
2968.00,0.0140
2967.00,0.0142
2966.00,0.0143
2965.00,0.0144
2964.00,0.0145
2963.00,0.0146
2962.00,0.0147
2961.00,0.0147
2960.00,0.0147
2959.00,0.0147
2958.00,0.0146
2957.00,0.0145
2956.00,0.0144
2955.00,0.0143
2954.00,0.0142
2953.00,0.0140
2952.00,0.0139
2951.00,0.0138
2950.00,0.0137
2949.00,0.0137
2948.00,0.0136
2947.00,0.0136
2946.00,0.0137
2945.00,0.0137
2944.00,0.0138
2943.00,0.0139
2942.00,0.0140
2941.00,0.0142
2940.00,0.0143
2939.00,0.0145
2938.00,0.0146
2937.00,0.0147
2936.00,0.0149
2935.00,0.0150
2934.00,0.0151
2933.00,0.0152
2932.00,0.0152
2931.00,0.0153
2930.00,0.0153
2929.00,0.0154
2928.00,0.0154
2927.00,0.0154
2926.00,0.0153
2925.00,0.0153
2924.00,0.0152
2923.00,0.0150
2922.00,0.0149
2921.00,0.0148
2920.00,0.0146
2919.00,0.0145
2918.00,0.0143
2917.00,0.0141
2916.00,0.0139
2915.00,0.0137
2914.00,0.0135
2913.00,0.0133
2912.00,0.0131
2911.00,0.0129
2910.00,0.0127
2909.00,0.0126
2908.00,0.0124
2907.00,0.0122
2906.00,0.0120
2905.00,0.0119
2904.00,0.0118
2903.00,0.0117
2902.00,0.0116
2901.00,0.0115
2900.00,0.0114
2899.00,0.0113
2898.00,0.0112
2897.00,0.0111
2896.00,0.0111
2895.00,0.0110
2894.00,0.0109
2893.00,0.0108
2892.00,0.0107
2891.00,0.0107
2890.00,0.0107
2889.00,0.0106
2888.00,0.0106
2887.00,0.0106
2886.00,0.0106
2885.00,0.0106
2884.00,0.0107
2883.00,0.0107
2882.00,0.0108
2881.00,0.0108
2880.00,0.0109
2879.00,0.0110
2878.00,0.0111
2877.00,0.0111
2876.00,0.0112
2875.00,0.0112
2874.00,0.0112
2873.00,0.0111
2872.00,0.0111
2871.00,0.0110
2870.00,0.0109
2869.00,0.0108
2868.00,0.0107
2867.00,0.0106
2866.00,0.0104
2865.00,0.0103
2864.00,0.0102
2863.00,0.0101
2862.00,0.0101
2861.00,0.0100
2860.00,0.0100
2859.00,0.0100
2858.00,0.0100
2857.00,0.0100
2856.00,0.0099
2855.00,0.0099
2854.00,0.0099
2853.00,0.0098
2852.00,0.0098
2851.00,0.0097
2850.00,0.0095
2849.00,0.0094
2848.00,0.0092
2847.00,0.0090
2846.00,0.0088
2845.00,0.0086
2844.00,0.0084
2843.00,0.0083
2842.00,0.0081
2841.00,0.0080
2840.00,0.0079
2839.00,0.0078
2838.00,0.0077
2837.00,0.0077
2836.00,0.0076
2835.00,0.0075
2834.00,0.0075
2833.00,0.0074
2832.00,0.0074
2831.00,0.0073
2830.00,0.0073
2829.00,0.0073
2828.00,0.0073
2827.00,0.0072
2826.00,0.0072
2825.00,0.0072
2824.00,0.0072
2823.00,0.0071
2822.00,0.0071
2821.00,0.0071
2820.00,0.0070
2819.00,0.0070
2818.00,0.0070
2817.00,0.0070
2816.00,0.0069
2815.00,0.0069
2814.00,0.0069
2813.00,0.0069
2812.00,0.0069
2811.00,0.0068
2810.00,0.0068
2809.00,0.0068
2808.00,0.0068
2807.00,0.0067
2806.00,0.0067
2805.00,0.0067
2804.00,0.0067
2803.00,0.0066
2802.00,0.0066
2801.00,0.0066
2800.00,0.0066
2799.00,0.0065
2798.00,0.0065
2797.00,0.0065
2796.00,0.0065
2795.00,0.0065
2794.00,0.0064
2793.00,0.0064
2792.00,0.0064
2791.00,0.0064
2790.00,0.0064
2789.00,0.0063
2788.00,0.0063
2787.00,0.0063
2786.00,0.0062
2785.00,0.0062
2784.00,0.0062
2783.00,0.0062
2782.00,0.0062
2781.00,0.0062
2780.00,0.0062
2779.00,0.0061
2778.00,0.0061
2777.00,0.0060
2776.00,0.0060
2775.00,0.0060
2774.00,0.0060
2773.00,0.0060
2772.00,0.0060
2771.00,0.0059
2770.00,0.0059
2769.00,0.0059
2768.00,0.0058
2767.00,0.0058
2766.00,0.0058
2765.00,0.0057
2764.00,0.0057
2763.00,0.0057
2762.00,0.0057
2761.00,0.0057
2760.00,0.0057
2759.00,0.0056
2758.00,0.0056
2757.00,0.0056
2756.00,0.0055
2755.00,0.0055
2754.00,0.0055
2753.00,0.0055
2752.00,0.0055
2751.00,0.0055
2750.00,0.0055
2749.00,0.0054
2748.00,0.0054
2747.00,0.0054
2746.00,0.0054
2745.00,0.0053
2744.00,0.0053
2743.00,0.0053
2742.00,0.0053
2741.00,0.0053
2740.00,0.0052
2739.00,0.0052
2738.00,0.0052
2737.00,0.0052
2736.00,0.0051
2735.00,0.0051
2734.00,0.0051
2733.00,0.0051
2732.00,0.0051
2731.00,0.0050
2730.00,0.0050
2729.00,0.0050
2728.00,0.0050
2727.00,0.0050
2726.00,0.0050
2725.00,0.0049
2724.00,0.0049
2723.00,0.0049
2722.00,0.0048
2721.00,0.0048
2720.00,0.0048
2719.00,0.0048
2718.00,0.0048
2717.00,0.0048
2716.00,0.0048
2715.00,0.0047
2714.00,0.0047
2713.00,0.0047
2712.00,0.0046
2711.00,0.0046
2710.00,0.0046
2709.00,0.0046
2708.00,0.0046
2707.00,0.0046
2706.00,0.0046
2705.00,0.0046
2704.00,0.0046
2703.00,0.0045
2702.00,0.0045
2701.00,0.0045
2700.00,0.0045
2699.00,0.0045
2698.00,0.0045
2697.00,0.0045
2696.00,0.0045
2695.00,0.0044
2694.00,0.0044
2693.00,0.0044
2692.00,0.0044
2691.00,0.0044
2690.00,0.0044
2689.00,0.0044
2688.00,0.0044
2687.00,0.0044
2686.00,0.0044
2685.00,0.0044
2684.00,0.0044
2683.00,0.0043
2682.00,0.0043
2681.00,0.0043
2680.00,0.0043
2679.00,0.0043
2678.00,0.0043
2677.00,0.0043
2676.00,0.0043
2675.00,0.0043
2674.00,0.0043
2673.00,0.0043
2672.00,0.0043
2671.00,0.0043
2670.00,0.0043
2669.00,0.0043
2668.00,0.0043
2667.00,0.0043
2666.00,0.0043
2665.00,0.0043
2664.00,0.0044
2663.00,0.0044
2662.00,0.0045
2661.00,0.0045
2660.00,0.0045
2659.00,0.0045
2658.00,0.0046
2657.00,0.0046
2656.00,0.0046
2655.00,0.0046
2654.00,0.0046
2653.00,0.0046
2652.00,0.0046
2651.00,0.0046
2650.00,0.0046
2649.00,0.0045
2648.00,0.0045
2647.00,0.0045
2646.00,0.0045
2645.00,0.0045
2644.00,0.0045
2643.00,0.0045
2642.00,0.0045
2641.00,0.0045
2640.00,0.0045
2639.00,0.0045
2638.00,0.0044
2637.00,0.0044
2636.00,0.0044
2635.00,0.0044
2634.00,0.0044
2633.00,0.0044
2632.00,0.0044
2631.00,0.0044
2630.00,0.0043
2629.00,0.0043
2628.00,0.0043
2627.00,0.0043
2626.00,0.0043
2625.00,0.0042
2624.00,0.0042
2623.00,0.0042
2622.00,0.0042
2621.00,0.0042
2620.00,0.0042
2619.00,0.0042
2618.00,0.0041
2617.00,0.0041
2616.00,0.0041
2615.00,0.0041
2614.00,0.0041
2613.00,0.0041
2612.00,0.0041
2611.00,0.0040
2610.00,0.0040
2609.00,0.0040
2608.00,0.0039
2607.00,0.0039
2606.00,0.0039
2605.00,0.0038
2604.00,0.0038
2603.00,0.0038
2602.00,0.0038
2601.00,0.0038
2600.00,0.0038
2599.00,0.0038
2598.00,0.0038
2597.00,0.0037
2596.00,0.0037
2595.00,0.0037
2594.00,0.0037
2593.00,0.0037
2592.00,0.0037
2591.00,0.0037
2590.00,0.0037
2589.00,0.0036
2588.00,0.0036
2587.00,0.0036
2586.00,0.0036
2585.00,0.0036
2584.00,0.0035
2583.00,0.0035
2582.00,0.0035
2581.00,0.0035
2580.00,0.0035
2579.00,0.0034
2578.00,0.0034
2577.00,0.0034
2576.00,0.0035
2575.00,0.0035
2574.00,0.0035
2573.00,0.0035
2572.00,0.0034
2571.00,0.0034
2570.00,0.0034
2569.00,0.0033
2568.00,0.0033
2567.00,0.0033
2566.00,0.0033
2565.00,0.0033
2564.00,0.0033
2563.00,0.0033
2562.00,0.0033
2561.00,0.0033
2560.00,0.0033
2559.00,0.0033
2558.00,0.0033
2557.00,0.0032
2556.00,0.0032
2555.00,0.0032
2554.00,0.0032
2553.00,0.0032
2552.00,0.0031
2551.00,0.0031
2550.00,0.0031
2549.00,0.0030
2548.00,0.0030
2547.00,0.0030
2546.00,0.0030
2545.00,0.0030
2544.00,0.0030
2543.00,0.0030
2542.00,0.0030
2541.00,0.0031
2540.00,0.0030
2539.00,0.0030
2538.00,0.0030
2537.00,0.0030
2536.00,0.0031
2535.00,0.0031
2534.00,0.0030
2533.00,0.0030
2532.00,0.0029
2531.00,0.0029
2530.00,0.0029
2529.00,0.0029
2528.00,0.0029
2527.00,0.0029
2526.00,0.0029
2525.00,0.0029
2524.00,0.0029
2523.00,0.0028
2522.00,0.0028
2521.00,0.0029
2520.00,0.0029
2519.00,0.0029
2518.00,0.0029
2517.00,0.0029
2516.00,0.0028
2515.00,0.0028
2514.00,0.0028
2513.00,0.0028
2512.00,0.0028
2511.00,0.0028
2510.00,0.0028
2509.00,0.0028
2508.00,0.0028
2507.00,0.0027
2506.00,0.0027
2505.00,0.0027
2504.00,0.0027
2503.00,0.0027
2502.00,0.0027
2501.00,0.0027
2500.00,0.0027
2499.00,0.0027
2498.00,0.0027
2497.00,0.0027
2496.00,0.0026
2495.00,0.0026
2494.00,0.0026
2493.00,0.0026
2492.00,0.0026
2491.00,0.0026
2490.00,0.0026
2489.00,0.0026
2488.00,0.0025
2487.00,0.0025
2486.00,0.0025
2485.00,0.0025
2484.00,0.0025
2483.00,0.0026
2482.00,0.0026
2481.00,0.0026
2480.00,0.0026
2479.00,0.0025
2478.00,0.0025
2477.00,0.0025
2476.00,0.0024
2475.00,0.0024
2474.00,0.0024
2473.00,0.0024
2472.00,0.0024
2471.00,0.0024
2470.00,0.0024
2469.00,0.0024
2468.00,0.0024
2467.00,0.0024
2466.00,0.0024
2465.00,0.0024
2464.00,0.0024
2463.00,0.0024
2462.00,0.0024
2461.00,0.0024
2460.00,0.0024
2459.00,0.0025
2458.00,0.0025
2457.00,0.0025
2456.00,0.0025
2455.00,0.0025
2454.00,0.0024
2453.00,0.0024
2452.00,0.0024
2451.00,0.0023
2450.00,0.0023
2449.00,0.0023
2448.00,0.0023
2447.00,0.0023
2446.00,0.0023
2445.00,0.0023
2444.00,0.0023
2443.00,0.0023
2442.00,0.0022
2441.00,0.0022
2440.00,0.0022
2439.00,0.0022
2438.00,0.0022
2437.00,0.0022
2436.00,0.0022
2435.00,0.0021
2434.00,0.0021
2433.00,0.0021
2432.00,0.0021
2431.00,0.0020
2430.00,0.0020
2429.00,0.0020
2428.00,0.0020
2427.00,0.0020
2426.00,0.0020
2425.00,0.0019
2424.00,0.0019
2423.00,0.0019
2422.00,0.0019
2421.00,0.0020
2420.00,0.0019
2419.00,0.0019
2418.00,0.0018
2417.00,0.0018
2416.00,0.0018
2415.00,0.0018
2414.00,0.0018
2413.00,0.0018
2412.00,0.0018
2411.00,0.0018
2410.00,0.0018
2409.00,0.0018
2408.00,0.0017
2407.00,0.0017
2406.00,0.0017
2405.00,0.0016
2404.00,0.0016
2403.00,0.0016
2402.00,0.0016
2401.00,0.0016
2400.00,0.0016
2399.00,0.0016
2398.00,0.0016
2397.00,0.0016
2396.00,0.0016
2395.00,0.0016
2394.00,0.0016
2393.00,0.0015
2392.00,0.0015
2391.00,0.0015
2390.00,0.0015
2389.00,0.0015
2388.00,0.0015
2387.00,0.0015
2386.00,0.0015
2385.00,0.0015
2384.00,0.0015
2383.00,0.0014
2382.00,0.0014
2381.00,0.0014
2380.00,0.0014
2379.00,0.0014
2378.00,0.0014
2377.00,0.0014
2376.00,0.0014
2375.00,0.0014
2374.00,0.0014
2373.00,0.0015
2372.00,0.0015
2371.00,0.0016
2370.00,0.0016
2369.00,0.0016
2368.00,0.0016
2367.00,0.0015
2366.00,0.0015
2365.00,0.0015
2364.00,0.0015
2363.00,0.0016
2362.00,0.0016
2361.00,0.0016
2360.00,0.0017
2359.00,0.0017
2358.00,0.0016
2357.00,0.0015
2356.00,0.0014
2355.00,0.0014
2354.00,0.0013
2353.00,0.0012
2352.00,0.0012
2351.00,0.0013
2350.00,0.0015
2349.00,0.0017
2348.00,0.0017
2347.00,0.0017
2346.00,0.0016
2345.00,0.0016
2344.00,0.0017
2343.00,0.0018
2342.00,0.0018
2341.00,0.0019
2340.00,0.0019
2339.00,0.0019
2338.00,0.0019
2337.00,0.0019
2336.00,0.0019
2335.00,0.0019
2334.00,0.0019
2333.00,0.0019
2332.00,0.0019
2331.00,0.0019
2330.00,0.0019
2329.00,0.0021
2328.00,0.0024
2327.00,0.0028
2326.00,0.0031
2325.00,0.0032
2324.00,0.0031
2323.00,0.0029
2322.00,0.0027
2321.00,0.0026
2320.00,0.0025
2319.00,0.0024
2318.00,0.0024
2317.00,0.0023
2316.00,0.0023
2315.00,0.0022
2314.00,0.0021
2313.00,0.0020
2312.00,0.0019
2311.00,0.0019
2310.00,0.0019
2309.00,0.0019
2308.00,0.0019
2307.00,0.0019
2306.00,0.0020
2305.00,0.0020
2304.00,0.0020
2303.00,0.0020
2302.00,0.0020
2301.00,0.0021
2300.00,0.0021
2299.00,0.0021
2298.00,0.0021
2297.00,0.0022
2296.00,0.0022
2295.00,0.0023
2294.00,0.0023
2293.00,0.0024
2292.00,0.0025
2291.00,0.0025
2290.00,0.0026
2289.00,0.0026
2288.00,0.0026
2287.00,0.0027
2286.00,0.0027
2285.00,0.0026
2284.00,0.0026
2283.00,0.0025
2282.00,0.0024
2281.00,0.0023
2280.00,0.0022
2279.00,0.0022
2278.00,0.0022
2277.00,0.0021
2276.00,0.0021
2275.00,0.0020
2274.00,0.0020
2273.00,0.0020
2272.00,0.0021
2271.00,0.0021
2270.00,0.0021
2269.00,0.0021
2268.00,0.0020
2267.00,0.0018
2266.00,0.0017
2265.00,0.0017
2264.00,0.0017
2263.00,0.0017
2262.00,0.0018
2261.00,0.0019
2260.00,0.0019
2259.00,0.0019
2258.00,0.0019
2257.00,0.0018
2256.00,0.0018
2255.00,0.0017
2254.00,0.0016
2253.00,0.0016
2252.00,0.0017
2251.00,0.0017
2250.00,0.0017
2249.00,0.0017
2248.00,0.0017
2247.00,0.0017
2246.00,0.0016
2245.00,0.0015
2244.00,0.0014
2243.00,0.0015
2242.00,0.0015
2241.00,0.0016
2240.00,0.0016
2239.00,0.0016
2238.00,0.0016
2237.00,0.0016
2236.00,0.0016
2235.00,0.0016
2234.00,0.0016
2233.00,0.0016
2232.00,0.0016
2231.00,0.0016
2230.00,0.0016
2229.00,0.0016
2228.00,0.0015
2227.00,0.0015
2226.00,0.0015
2225.00,0.0014
2224.00,0.0015
2223.00,0.0015
2222.00,0.0016
2221.00,0.0016
2220.00,0.0016
2219.00,0.0016
2218.00,0.0015
2217.00,0.0015
2216.00,0.0015
2215.00,0.0015
2214.00,0.0016
2213.00,0.0016
2212.00,0.0016
2211.00,0.0015
2210.00,0.0015
2209.00,0.0015
2208.00,0.0016
2207.00,0.0016
2206.00,0.0016
2205.00,0.0016
2204.00,0.0015
2203.00,0.0014
2202.00,0.0013
2201.00,0.0014
2200.00,0.0014
2199.00,0.0014
2198.00,0.0013
2197.00,0.0014
2196.00,0.0014
2195.00,0.0014
2194.00,0.0013
2193.00,0.0014
2192.00,0.0015
2191.00,0.0016
2190.00,0.0018
2189.00,0.0019
2188.00,0.0019
2187.00,0.0019
2186.00,0.0018
2185.00,0.0016
2184.00,0.0014
2183.00,0.0013
2182.00,0.0012
2181.00,0.0013
2180.00,0.0014
2179.00,0.0014
2178.00,0.0012
2177.00,0.0011
2176.00,0.0010
2175.00,0.0010
2174.00,0.0011
2173.00,0.0012
2172.00,0.0014
2171.00,0.0017
2170.00,0.0021
2169.00,0.0024
2168.00,0.0025
2167.00,0.0025
2166.00,0.0024
2165.00,0.0023
2164.00,0.0025
2163.00,0.0026
2162.00,0.0023
2161.00,0.0014
2160.00,0.0002
2159.00,-0.0009
2158.00,-0.0015
2157.00,-0.0014
2156.00,-0.0012
2155.00,-0.0009
2154.00,-0.0007
2153.00,-0.0005
2152.00,-0.0004
2151.00,-0.0002
2150.00,-0.0000
2149.00,0.0000
2148.00,-0.0000
2147.00,-0.0002
2146.00,-0.0003
2145.00,-0.0003
2144.00,-0.0003
2143.00,-0.0002
2142.00,-0.0002
2141.00,-0.0001
2140.00,-0.0001
2139.00,-0.0001
2138.00,-0.0002
2137.00,-0.0003
2136.00,-0.0005
2135.00,-0.0006
2134.00,-0.0007
2133.00,-0.0006
2132.00,-0.0005
2131.00,-0.0003
2130.00,-0.0002
2129.00,-0.0001
2128.00,0.0000
2127.00,0.0001
2126.00,0.0002
2125.00,0.0004
2124.00,0.0006
2123.00,0.0006
2122.00,0.0007
2121.00,0.0007
2120.00,0.0008
2119.00,0.0009
2118.00,0.0010
2117.00,0.0011
2116.00,0.0012
2115.00,0.0012
2114.00,0.0012
2113.00,0.0013
2112.00,0.0012
2111.00,0.0012
2110.00,0.0012
2109.00,0.0011
2108.00,0.0011
2107.00,0.0011
2106.00,0.0010
2105.00,0.0010
2104.00,0.0011
2103.00,0.0011
2102.00,0.0012
2101.00,0.0012
2100.00,0.0012
2099.00,0.0012
2098.00,0.0012
2097.00,0.0011
2096.00,0.0009
2095.00,0.0008
2094.00,0.0007
2093.00,0.0008
2092.00,0.0009
2091.00,0.0011
2090.00,0.0012
2089.00,0.0013
2088.00,0.0014
2087.00,0.0014
2086.00,0.0014
2085.00,0.0014
2084.00,0.0015
2083.00,0.0016
2082.00,0.0016
2081.00,0.0015
2080.00,0.0015
2079.00,0.0015
2078.00,0.0015
2077.00,0.0015
2076.00,0.0014
2075.00,0.0014
2074.00,0.0013
2073.00,0.0013
2072.00,0.0014
2071.00,0.0014
2070.00,0.0014
2069.00,0.0014
2068.00,0.0013
2067.00,0.0012
2066.00,0.0012
2065.00,0.0012
2064.00,0.0012
2063.00,0.0013
2062.00,0.0013
2061.00,0.0013
2060.00,0.0014
2059.00,0.0015
2058.00,0.0015
2057.00,0.0015
2056.00,0.0015
2055.00,0.0015
2054.00,0.0017
2053.00,0.0020
2052.00,0.0023
2051.00,0.0023
2050.00,0.0021
2049.00,0.0018
2048.00,0.0015
2047.00,0.0014
2046.00,0.0014
2045.00,0.0015
2044.00,0.0016
2043.00,0.0016
2042.00,0.0015
2041.00,0.0014
2040.00,0.0014
2039.00,0.0015
2038.00,0.0016
2037.00,0.0016
2036.00,0.0015
2035.00,0.0013
2034.00,0.0010
2033.00,0.0008
2032.00,0.0007
2031.00,0.0006
2030.00,0.0005
2029.00,0.0005
2028.00,0.0005
2027.00,0.0004
2026.00,0.0003
2025.00,0.0003
2024.00,0.0003
2023.00,0.0004
2022.00,0.0005
2021.00,0.0005
2020.00,0.0005
2019.00,0.0004
2018.00,0.0004
2017.00,0.0004
2016.00,0.0004
2015.00,0.0004
2014.00,0.0003
2013.00,0.0004
2012.00,0.0006
2011.00,0.0007
2010.00,0.0008
2009.00,0.0007
2008.00,0.0005
2007.00,0.0003
2006.00,0.0001
2005.00,0.0001
2004.00,0.0002
2003.00,0.0003
2002.00,0.0005
2001.00,0.0006
2000.00,0.0008
1999.00,0.0009
1998.00,0.0008
1997.00,0.0008
1996.00,0.0008
1995.00,0.0008
1994.00,0.0009
1993.00,0.0010
1992.00,0.0011
1991.00,0.0011
1990.00,0.0012
1989.00,0.0013
1988.00,0.0014
1987.00,0.0015
1986.00,0.0016
1985.00,0.0016
1984.00,0.0018
1983.00,0.0020
1982.00,0.0022
1981.00,0.0023
1980.00,0.0021
1979.00,0.0015
1978.00,0.0009
1977.00,0.0005
1976.00,0.0003
1975.00,0.0002
1974.00,0.0001
1973.00,0.0001
1972.00,0.0000
1971.00,-0.0000
1970.00,-0.0000
1969.00,-0.0000
1968.00,0.0001
1967.00,0.0001
1966.00,0.0001
1965.00,0.0001
1964.00,0.0001
1963.00,0.0000
1962.00,-0.0001
1961.00,-0.0002
1960.00,-0.0002
1959.00,-0.0003
1958.00,-0.0002
1957.00,-0.0001
1956.00,0.0001
1955.00,0.0001
1954.00,0.0001
1953.00,0.0001
1952.00,0.0002
1951.00,0.0002
1950.00,0.0003
1949.00,0.0003
1948.00,0.0003
1947.00,0.0002
1946.00,0.0001
1945.00,-0.0000
1944.00,-0.0001
1943.00,-0.0001
1942.00,0.0000
1941.00,0.0002
1940.00,0.0004
1939.00,0.0004
1938.00,0.0004
1937.00,0.0005
1936.00,0.0006
1935.00,0.0006
1934.00,0.0006
1933.00,0.0005
1932.00,0.0004
1931.00,0.0004
1930.00,0.0004
1929.00,0.0004
1928.00,0.0004
1927.00,0.0004
1926.00,0.0004
1925.00,0.0003
1924.00,0.0003
1923.00,0.0003
1922.00,0.0004
1921.00,0.0006
1920.00,0.0007
1919.00,0.0007
1918.00,0.0008
1917.00,0.0009
1916.00,0.0010
1915.00,0.0009
1914.00,0.0008
1913.00,0.0008
1912.00,0.0008
1911.00,0.0007
1910.00,0.0007
1909.00,0.0007
1908.00,0.0008
1907.00,0.0008
1906.00,0.0008
1905.00,0.0008
1904.00,0.0009
1903.00,0.0009
1902.00,0.0009
1901.00,0.0009
1900.00,0.0009
1899.00,0.0009
1898.00,0.0008
1897.00,0.0008
1896.00,0.0008
1895.00,0.0008
1894.00,0.0008
1893.00,0.0008
1892.00,0.0008
1891.00,0.0007
1890.00,0.0007
1889.00,0.0008
1888.00,0.0009
1887.00,0.0009
1886.00,0.0009
1885.00,0.0010
1884.00,0.0010
1883.00,0.0010
1882.00,0.0010
1881.00,0.0009
1880.00,0.0009
1879.00,0.0009
1878.00,0.0009
1877.00,0.0010
1876.00,0.0010
1875.00,0.0010
1874.00,0.0010
1873.00,0.0009
1872.00,0.0009
1871.00,0.0008
1870.00,0.0008
1869.00,0.0007
1868.00,0.0008
1867.00,0.0008
1866.00,0.0008
1865.00,0.0009
1864.00,0.0009
1863.00,0.0010
1862.00,0.0010
1861.00,0.0010
1860.00,0.0010
1859.00,0.0010
1858.00,0.0010
1857.00,0.0010
1856.00,0.0010
1855.00,0.0010
1854.00,0.0010
1853.00,0.0010
1852.00,0.0010
1851.00,0.0010
1850.00,0.0010
1849.00,0.0010
1848.00,0.0009
1847.00,0.0009
1846.00,0.0009
1845.00,0.0010
1844.00,0.0012
1843.00,0.0014
1842.00,0.0014
1841.00,0.0013
1840.00,0.0012
1839.00,0.0011
1838.00,0.0011
1837.00,0.0011
1836.00,0.0011
1835.00,0.0012
1834.00,0.0012
1833.00,0.0011
1832.00,0.0011
1831.00,0.0009
1830.00,0.0009
1829.00,0.0010
1828.00,0.0011
1827.00,0.0012
1826.00,0.0013
1825.00,0.0014
1824.00,0.0015
1823.00,0.0015
1822.00,0.0014
1821.00,0.0013
1820.00,0.0012
1819.00,0.0011
1818.00,0.0011
1817.00,0.0011
1816.00,0.0011
1815.00,0.0012
1814.00,0.0012
1813.00,0.0012
1812.00,0.0012
1811.00,0.0012
1810.00,0.0013
1809.00,0.0014
1808.00,0.0015
1807.00,0.0015
1806.00,0.0015
1805.00,0.0015
1804.00,0.0015
1803.00,0.0016
1802.00,0.0016
1801.00,0.0016
1800.00,0.0017
1799.00,0.0017
1798.00,0.0017
1797.00,0.0016
1796.00,0.0016
1795.00,0.0016
1794.00,0.0016
1793.00,0.0017
1792.00,0.0019
1791.00,0.0021
1790.00,0.0022
1789.00,0.0022
1788.00,0.0021
1787.00,0.0021
1786.00,0.0021
1785.00,0.0022
1784.00,0.0023
1783.00,0.0022
1782.00,0.0021
1781.00,0.0021
1780.00,0.0021
1779.00,0.0022
1778.00,0.0021
1777.00,0.0021
1776.00,0.0020
1775.00,0.0020
1774.00,0.0019
1773.00,0.0019
1772.00,0.0022
1771.00,0.0026
1770.00,0.0028
1769.00,0.0030
1768.00,0.0032
1767.00,0.0033
1766.00,0.0032
1765.00,0.0032
1764.00,0.0031
1763.00,0.0032
1762.00,0.0035
1761.00,0.0037
1760.00,0.0039
1759.00,0.0039
1758.00,0.0040
1757.00,0.0042
1756.00,0.0044
1755.00,0.0045
1754.00,0.0046
1753.00,0.0046
1752.00,0.0048
1751.00,0.0050
1750.00,0.0050
1749.00,0.0051
1748.00,0.0052
1747.00,0.0054
1746.00,0.0056
1745.00,0.0057
1744.00,0.0059
1743.00,0.0061
1742.00,0.0063
1741.00,0.0065
1740.00,0.0068
1739.00,0.0071
1738.00,0.0072
1737.00,0.0074
1736.00,0.0075
1735.00,0.0078
1734.00,0.0082
1733.00,0.0086
1732.00,0.0087
1731.00,0.0086
1730.00,0.0086
1729.00,0.0088
1728.00,0.0090
1727.00,0.0092
1726.00,0.0094
1725.00,0.0095
1724.00,0.0097
1723.00,0.0098
1722.00,0.0100
1721.00,0.0101
1720.00,0.0102
1719.00,0.0103
1718.00,0.0104
1717.00,0.0106
1716.00,0.0111
1715.00,0.0115
1714.00,0.0118
1713.00,0.0120
1712.00,0.0122
1711.00,0.0125
1710.00,0.0127
1709.00,0.0130
1708.00,0.0134
1707.00,0.0139
1706.00,0.0144
1705.00,0.0153
1704.00,0.0163
1703.00,0.0174
1702.00,0.0187
1701.00,0.0204
1700.00,0.0221
1699.00,0.0235
1698.00,0.0244
1697.00,0.0253
1696.00,0.0265
1695.00,0.0277
1694.00,0.0286
1693.00,0.0290
1692.00,0.0294
1691.00,0.0299
1690.00,0.0304
1689.00,0.0311
1688.00,0.0318
1687.00,0.0326
1686.00,0.0334
1685.00,0.0342
1684.00,0.0350
1683.00,0.0360
1682.00,0.0368
1681.00,0.0376
1680.00,0.0385
1679.00,0.0395
1678.00,0.0406
1677.00,0.0416
1676.00,0.0427
1675.00,0.0435
1674.00,0.0442
1673.00,0.0449
1672.00,0.0458
1671.00,0.0467
1670.00,0.0475
1669.00,0.0484
1668.00,0.0494
1667.00,0.0504
1666.00,0.0514
1665.00,0.0525
1664.00,0.0535
1663.00,0.0544
1662.00,0.0553
1661.00,0.0562
1660.00,0.0572
1659.00,0.0582
1658.00,0.0593
1657.00,0.0605
1656.00,0.0619
1655.00,0.0632
1654.00,0.0636
1653.00,0.0632
1652.00,0.0632
1651.00,0.0636
1650.00,0.0642
1649.00,0.0650
1648.00,0.0656
1647.00,0.0657
1646.00,0.0658
1645.00,0.0662
1644.00,0.0667
1643.00,0.0673
1642.00,0.0679
1641.00,0.0685
1640.00,0.0692
1639.00,0.0699
1638.00,0.0707
1637.00,0.0713
1636.00,0.0717
1635.00,0.0721
1634.00,0.0728
1633.00,0.0738
1632.00,0.0752
1631.00,0.0766
1630.00,0.0779
1629.00,0.0791
1628.00,0.0802
1627.00,0.0814
1626.00,0.0826
1625.00,0.0837
1624.00,0.0845
1623.00,0.0848
1622.00,0.0849
1621.00,0.0851
1620.00,0.0855
1619.00,0.0858
1618.00,0.0851
1617.00,0.0833
1616.00,0.0810
1615.00,0.0790
1614.00,0.0774
1613.00,0.0760
1612.00,0.0742
1611.00,0.0720
1610.00,0.0696
1609.00,0.0670
1608.00,0.0645
1607.00,0.0621
1606.00,0.0598
1605.00,0.0577
1604.00,0.0557
1603.00,0.0537
1602.00,0.0519
1601.00,0.0503
1600.00,0.0488
1599.00,0.0474
1598.00,0.0461
1597.00,0.0449
1596.00,0.0438
1595.00,0.0427
1594.00,0.0418
1593.00,0.0409
1592.00,0.0402
1591.00,0.0395
1590.00,0.0388
1589.00,0.0383
1588.00,0.0378
1587.00,0.0374
1586.00,0.0371
1585.00,0.0369
1584.00,0.0368
1583.00,0.0367
1582.00,0.0366
1581.00,0.0366
1580.00,0.0367
1579.00,0.0369
1578.00,0.0371
1577.00,0.0373
1576.00,0.0376
1575.00,0.0380
1574.00,0.0385
1573.00,0.0392
1572.00,0.0398
1571.00,0.0404
1570.00,0.0410
1569.00,0.0417
1568.00,0.0425
1567.00,0.0432
1566.00,0.0440
1565.00,0.0447
1564.00,0.0456
1563.00,0.0466
1562.00,0.0479
1561.00,0.0493
1560.00,0.0501
1559.00,0.0503
1558.00,0.0509
1557.00,0.0520
1556.00,0.0529
1555.00,0.0540
1554.00,0.0550
1553.00,0.0561
1552.00,0.0570
1551.00,0.0579
1550.00,0.0588
1549.00,0.0598
1548.00,0.0608
1547.00,0.0619
1546.00,0.0628
1545.00,0.0637
1544.00,0.0643
1543.00,0.0650
1542.00,0.0656
1541.00,0.0659
1540.00,0.0660
1539.00,0.0664
1538.00,0.0671
1537.00,0.0681
1536.00,0.0691
1535.00,0.0700
1534.00,0.0705
1533.00,0.0707
1532.00,0.0710
1531.00,0.0715
1530.00,0.0721
1529.00,0.0726
1528.00,0.0730
1527.00,0.0732
1526.00,0.0733
1525.00,0.0734
1524.00,0.0736
1523.00,0.0738
1522.00,0.0736
1521.00,0.0733
1520.00,0.0731
1519.00,0.0732
1518.00,0.0733
1517.00,0.0732
1516.00,0.0729
1515.00,0.0727
1514.00,0.0724
1513.00,0.0719
1512.00,0.0711
1511.00,0.0701
1510.00,0.0692
1509.00,0.0682
1508.00,0.0665
1507.00,0.0640
1506.00,0.0618
1505.00,0.0603
1504.00,0.0592
1503.00,0.0582
1502.00,0.0574
1501.00,0.0564
1500.00,0.0553
1499.00,0.0541
1498.00,0.0527
1497.00,0.0512
1496.00,0.0497
1495.00,0.0483
1494.00,0.0471
1493.00,0.0460
1492.00,0.0448
1491.00,0.0435
1490.00,0.0419
1489.00,0.0405
1488.00,0.0394
1487.00,0.0385
1486.00,0.0377
1485.00,0.0369
1484.00,0.0362
1483.00,0.0356
1482.00,0.0349
1481.00,0.0344
1480.00,0.0340
1479.00,0.0338
1478.00,0.0337
1477.00,0.0337
1476.00,0.0337
1475.00,0.0339
1474.00,0.0341
1473.00,0.0344
1472.00,0.0349
1471.00,0.0354
1470.00,0.0358
1469.00,0.0361
1468.00,0.0363
1467.00,0.0365
1466.00,0.0366
1465.00,0.0366
1464.00,0.0367
1463.00,0.0368
1462.00,0.0369
1461.00,0.0371
1460.00,0.0375
1459.00,0.0379
1458.00,0.0383
1457.00,0.0388
1456.00,0.0393
1455.00,0.0395
1454.00,0.0395
1453.00,0.0396
1452.00,0.0397
1451.00,0.0398
1450.00,0.0399
1449.00,0.0399
1448.00,0.0398
1447.00,0.0396
1446.00,0.0395
1445.00,0.0394
1444.00,0.0393
1443.00,0.0392
1442.00,0.0390
1441.00,0.0389
1440.00,0.0388
1439.00,0.0388
1438.00,0.0387
1437.00,0.0384
1436.00,0.0377
1435.00,0.0370
1434.00,0.0363
1433.00,0.0358
1432.00,0.0353
1431.00,0.0348
1430.00,0.0344
1429.00,0.0341
1428.00,0.0339
1427.00,0.0338
1426.00,0.0337
1425.00,0.0336
1424.00,0.0335
1423.00,0.0337
1422.00,0.0340
1421.00,0.0344
1420.00,0.0348
1419.00,0.0351
1418.00,0.0353
1417.00,0.0356
1416.00,0.0359
1415.00,0.0362
1414.00,0.0365
1413.00,0.0369
1412.00,0.0372
1411.00,0.0375
1410.00,0.0377
1409.00,0.0380
1408.00,0.0383
1407.00,0.0385
1406.00,0.0387
1405.00,0.0389
1404.00,0.0391
1403.00,0.0392
1402.00,0.0394
1401.00,0.0396
1400.00,0.0397
1399.00,0.0397
1398.00,0.0398
1397.00,0.0398
1396.00,0.0400
1395.00,0.0401
1394.00,0.0402
1393.00,0.0403
1392.00,0.0404
1391.00,0.0404
1390.00,0.0406
1389.00,0.0406
1388.00,0.0406
1387.00,0.0404
1386.00,0.0401
1385.00,0.0398
1384.00,0.0394
1383.00,0.0390
1382.00,0.0386
1381.00,0.0382
1380.00,0.0378
1379.00,0.0374
1378.00,0.0371
1377.00,0.0367
1376.00,0.0363
1375.00,0.0360
1374.00,0.0357
1373.00,0.0356
1372.00,0.0355
1371.00,0.0355
1370.00,0.0354
1369.00,0.0352
1368.00,0.0349
1367.00,0.0346
1366.00,0.0342
1365.00,0.0338
1364.00,0.0334
1363.00,0.0330
1362.00,0.0327
1361.00,0.0324
1360.00,0.0322
1359.00,0.0321
1358.00,0.0319
1357.00,0.0317
1356.00,0.0316
1355.00,0.0315
1354.00,0.0314
1353.00,0.0313
1352.00,0.0313
1351.00,0.0313
1350.00,0.0312
1349.00,0.0312
1348.00,0.0312
1347.00,0.0312
1346.00,0.0312
1345.00,0.0312
1344.00,0.0312
1343.00,0.0312
1342.00,0.0312
1341.00,0.0312
1340.00,0.0311
1339.00,0.0310
1338.00,0.0310
1337.00,0.0310
1336.00,0.0309
1335.00,0.0308
1334.00,0.0307
1333.00,0.0306
1332.00,0.0306
1331.00,0.0305
1330.00,0.0304
1329.00,0.0304
1328.00,0.0304
1327.00,0.0305
1326.00,0.0305
1325.00,0.0306
1324.00,0.0306
1323.00,0.0307
1322.00,0.0307
1321.00,0.0308
1320.00,0.0308
1319.00,0.0309
1318.00,0.0310
1317.00,0.0311
1316.00,0.0312
1315.00,0.0313
1314.00,0.0313
1313.00,0.0313
1312.00,0.0314
1311.00,0.0314
1310.00,0.0314
1309.00,0.0314
1308.00,0.0314
1307.00,0.0314
1306.00,0.0313
1305.00,0.0313
1304.00,0.0313
1303.00,0.0314
1302.00,0.0314
1301.00,0.0314
1300.00,0.0315
1299.00,0.0315
1298.00,0.0316
1297.00,0.0317
1296.00,0.0318
1295.00,0.0319
1294.00,0.0321
1293.00,0.0322
1292.00,0.0324
1291.00,0.0326
1290.00,0.0327
1289.00,0.0329
1288.00,0.0330
1287.00,0.0332
1286.00,0.0333
1285.00,0.0335
1284.00,0.0336
1283.00,0.0337
1282.00,0.0338
1281.00,0.0340
1280.00,0.0341
1279.00,0.0342
1278.00,0.0342
1277.00,0.0343
1276.00,0.0344
1275.00,0.0344
1274.00,0.0345
1273.00,0.0346
1272.00,0.0347
1271.00,0.0348
1270.00,0.0349
1269.00,0.0351
1268.00,0.0353
1267.00,0.0356
1266.00,0.0358
1265.00,0.0361
1264.00,0.0364
1263.00,0.0368
1262.00,0.0371
1261.00,0.0374
1260.00,0.0378
1259.00,0.0381
1258.00,0.0385
1257.00,0.0388
1256.00,0.0392
1255.00,0.0395
1254.00,0.0399
1253.00,0.0402
1252.00,0.0406
1251.00,0.0410
1250.00,0.0414
1249.00,0.0418
1248.00,0.0421
1247.00,0.0425
1246.00,0.0428
1245.00,0.0432
1244.00,0.0435
1243.00,0.0438
1242.00,0.0441
1241.00,0.0445
1240.00,0.0448
1239.00,0.0451
1238.00,0.0454
1237.00,0.0456
1236.00,0.0459
1235.00,0.0461
1234.00,0.0462
1233.00,0.0463
1232.00,0.0465
1231.00,0.0466
1230.00,0.0466
1229.00,0.0466
1228.00,0.0466
1227.00,0.0466
1226.00,0.0464
1225.00,0.0463
1224.00,0.0462
1223.00,0.0460
1222.00,0.0458
1221.00,0.0455
1220.00,0.0453
1219.00,0.0450
1218.00,0.0447
1217.00,0.0443
1216.00,0.0439
1215.00,0.0435
1214.00,0.0431
1213.00,0.0426
1212.00,0.0421
1211.00,0.0416
1210.00,0.0411
1209.00,0.0407
1208.00,0.0402
1207.00,0.0397
1206.00,0.0393
1205.00,0.0389
1204.00,0.0385
1203.00,0.0382
1202.00,0.0378
1201.00,0.0374
1200.00,0.0371
1199.00,0.0367
1198.00,0.0364
1197.00,0.0362
1196.00,0.0359
1195.00,0.0357
1194.00,0.0355
1193.00,0.0353
1192.00,0.0351
1191.00,0.0349
1190.00,0.0347
1189.00,0.0345
1188.00,0.0345
1187.00,0.0344
1186.00,0.0343
1185.00,0.0343
1184.00,0.0343
1183.00,0.0342
1182.00,0.0342
1181.00,0.0342
1180.00,0.0343
1179.00,0.0344
1178.00,0.0346
1177.00,0.0348
1176.00,0.0351
1175.00,0.0353
1174.00,0.0356
1173.00,0.0358
1172.00,0.0360
1171.00,0.0361
1170.00,0.0362
1169.00,0.0363
1168.00,0.0363
1167.00,0.0363
1166.00,0.0364
1165.00,0.0364
1164.00,0.0365
1163.00,0.0365
1162.00,0.0366
1161.00,0.0366
1160.00,0.0367
1159.00,0.0368
1158.00,0.0368
1157.00,0.0368
1156.00,0.0367
1155.00,0.0366
1154.00,0.0364
1153.00,0.0363
1152.00,0.0361
1151.00,0.0358
1150.00,0.0356
1149.00,0.0353
1148.00,0.0350
1147.00,0.0347
1146.00,0.0343
1145.00,0.0340
1144.00,0.0337
1143.00,0.0334
1142.00,0.0331
1141.00,0.0329
1140.00,0.0327
1139.00,0.0326
1138.00,0.0324
1137.00,0.0323
1136.00,0.0323
1135.00,0.0323
1134.00,0.0323
1133.00,0.0324
1132.00,0.0326
1131.00,0.0327
1130.00,0.0328
1129.00,0.0330
1128.00,0.0332
1127.00,0.0334
1126.00,0.0335
1125.00,0.0337
1124.00,0.0338
1123.00,0.0340
1122.00,0.0341
1121.00,0.0343
1120.00,0.0345
1119.00,0.0346
1118.00,0.0347
1117.00,0.0349
1116.00,0.0350
1115.00,0.0351
1114.00,0.0352
1113.00,0.0353
1112.00,0.0354
1111.00,0.0354
1110.00,0.0355
1109.00,0.0355
1108.00,0.0356
1107.00,0.0358
1106.00,0.0359
1105.00,0.0360
1104.00,0.0362
1103.00,0.0363
1102.00,0.0365
1101.00,0.0367
1100.00,0.0369
1099.00,0.0371
1098.00,0.0373
1097.00,0.0375
1096.00,0.0377
1095.00,0.0380
1094.00,0.0383
1093.00,0.0387
1092.00,0.0391
1091.00,0.0396
1090.00,0.0400
1089.00,0.0405
1088.00,0.0410
1087.00,0.0416
1086.00,0.0421
1085.00,0.0426
1084.00,0.0431
1083.00,0.0436
1082.00,0.0441
1081.00,0.0446
1080.00,0.0450
1079.00,0.0454
1078.00,0.0456
1077.00,0.0458
1076.00,0.0460
1075.00,0.0460
1074.00,0.0461
1073.00,0.0461
1072.00,0.0462
1071.00,0.0462
1070.00,0.0462
1069.00,0.0462
1068.00,0.0463
1067.00,0.0464
1066.00,0.0464
1065.00,0.0464
1064.00,0.0465
1063.00,0.0466
1062.00,0.0467
1061.00,0.0468
1060.00,0.0470
1059.00,0.0471
1058.00,0.0472
1057.00,0.0472
1056.00,0.0472
1055.00,0.0471
1054.00,0.0470
1053.00,0.0469
1052.00,0.0468
1051.00,0.0467
1050.00,0.0466
1049.00,0.0464
1048.00,0.0463
1047.00,0.0461
1046.00,0.0460
1045.00,0.0459
1044.00,0.0458
1043.00,0.0456
1042.00,0.0453
1041.00,0.0451
1040.00,0.0449
1039.00,0.0447
1038.00,0.0444
1037.00,0.0442
1036.00,0.0441
1035.00,0.0439
1034.00,0.0438
1033.00,0.0437
1032.00,0.0436
1031.00,0.0434
1030.00,0.0433
1029.00,0.0432
1028.00,0.0431
1027.00,0.0429
1026.00,0.0427
1025.00,0.0424
1024.00,0.0422
1023.00,0.0420
1022.00,0.0416
1021.00,0.0413
1020.00,0.0410
1019.00,0.0406
1018.00,0.0402
1017.00,0.0398
1016.00,0.0394
1015.00,0.0390
1014.00,0.0386
1013.00,0.0382
1012.00,0.0378
1011.00,0.0373
1010.00,0.0368
1009.00,0.0364
1008.00,0.0360
1007.00,0.0356
1006.00,0.0352
1005.00,0.0348
1004.00,0.0344
1003.00,0.0340
1002.00,0.0336
1001.00,0.0333
1000.00,0.0330
999.00,0.0327
998.00,0.0323
997.00,0.0320
996.00,0.0316
995.00,0.0313
994.00,0.0309
993.00,0.0305
992.00,0.0302
991.00,0.0299
990.00,0.0295
989.00,0.0292
988.00,0.0289
987.00,0.0286
986.00,0.0283
985.00,0.0281
984.00,0.0279
983.00,0.0277
982.00,0.0275
981.00,0.0274
980.00,0.0274
979.00,0.0274
978.00,0.0274
977.00,0.0274
976.00,0.0274
975.00,0.0275
974.00,0.0275
973.00,0.0275
972.00,0.0276
971.00,0.0277
970.00,0.0278
969.00,0.0278
968.00,0.0279
967.00,0.0280
966.00,0.0280
965.00,0.0280
964.00,0.0280
963.00,0.0280
962.00,0.0280
961.00,0.0280
960.00,0.0280
959.00,0.0279
958.00,0.0278
957.00,0.0278
956.00,0.0277
955.00,0.0276
954.00,0.0275
953.00,0.0274
952.00,0.0274
951.00,0.0274
950.00,0.0274
949.00,0.0274
948.00,0.0274
947.00,0.0275
946.00,0.0275
945.00,0.0276
944.00,0.0277
943.00,0.0278
942.00,0.0279
941.00,0.0280
940.00,0.0281
939.00,0.0282
938.00,0.0283
937.00,0.0284
936.00,0.0285
935.00,0.0287
934.00,0.0287
933.00,0.0288
932.00,0.0288
931.00,0.0289
930.00,0.0289
929.00,0.0289
928.00,0.0289
927.00,0.0288
926.00,0.0287
925.00,0.0286
924.00,0.0285
923.00,0.0285
922.00,0.0284
921.00,0.0283
920.00,0.0282
919.00,0.0281
918.00,0.0280
917.00,0.0278
916.00,0.0277
915.00,0.0276
914.00,0.0274
913.00,0.0273
912.00,0.0273
911.00,0.0273
910.00,0.0272
909.00,0.0271
908.00,0.0270
907.00,0.0270
906.00,0.0269
905.00,0.0268
904.00,0.0267
903.00,0.0267
902.00,0.0266
901.00,0.0265
900.00,0.0265
899.00,0.0264
898.00,0.0264
897.00,0.0263
896.00,0.0263
895.00,0.0262
894.00,0.0262
893.00,0.0262
892.00,0.0262
891.00,0.0261
890.00,0.0261
889.00,0.0261
888.00,0.0261
887.00,0.0262
886.00,0.0262
885.00,0.0262
884.00,0.0262
883.00,0.0263
882.00,0.0262
881.00,0.0262
880.00,0.0262
879.00,0.0262
878.00,0.0262
877.00,0.0261
876.00,0.0261
875.00,0.0260
874.00,0.0259
873.00,0.0258
872.00,0.0258
871.00,0.0258
870.00,0.0258
869.00,0.0258
868.00,0.0259
867.00,0.0260
866.00,0.0260
865.00,0.0260
864.00,0.0261
863.00,0.0262
862.00,0.0263
861.00,0.0264
860.00,0.0266
859.00,0.0268
858.00,0.0270
857.00,0.0271
856.00,0.0273
855.00,0.0275
854.00,0.0277
853.00,0.0278
852.00,0.0280
851.00,0.0281
850.00,0.0282
849.00,0.0282
848.00,0.0283
847.00,0.0283
846.00,0.0283
845.00,0.0284
844.00,0.0285
843.00,0.0286
842.00,0.0287
841.00,0.0289
840.00,0.0291
839.00,0.0293
838.00,0.0295
837.00,0.0298
836.00,0.0301
835.00,0.0303
834.00,0.0306
833.00,0.0308
832.00,0.0311
831.00,0.0313
830.00,0.0315
829.00,0.0316
828.00,0.0318
827.00,0.0319
826.00,0.0320
825.00,0.0321
824.00,0.0322
823.00,0.0323
822.00,0.0322
821.00,0.0322
820.00,0.0323
819.00,0.0324
818.00,0.0325
817.00,0.0326
816.00,0.0328
815.00,0.0330
814.00,0.0331
813.00,0.0333
812.00,0.0336
811.00,0.0338
810.00,0.0340
809.00,0.0341
808.00,0.0344
807.00,0.0346
806.00,0.0347
805.00,0.0349
804.00,0.0351
803.00,0.0352
802.00,0.0354
801.00,0.0357
800.00,0.0360
799.00,0.0364
798.00,0.0366
797.00,0.0368
796.00,0.0371
795.00,0.0374
794.00,0.0376
793.00,0.0379
792.00,0.0383
791.00,0.0388
790.00,0.0391
789.00,0.0394
788.00,0.0398
787.00,0.0402
786.00,0.0406
785.00,0.0410
784.00,0.0414
783.00,0.0418
782.00,0.0420
781.00,0.0422
780.00,0.0424
779.00,0.0425
778.00,0.0426
777.00,0.0426
776.00,0.0428
775.00,0.0430
774.00,0.0431
773.00,0.0433
772.00,0.0434
771.00,0.0436
770.00,0.0437
769.00,0.0438
768.00,0.0439
767.00,0.0440
766.00,0.0441
765.00,0.0442
764.00,0.0443
763.00,0.0445
762.00,0.0447
761.00,0.0449
760.00,0.0451
759.00,0.0453
758.00,0.0455
757.00,0.0456
756.00,0.0459
755.00,0.0462
754.00,0.0465
753.00,0.0468
752.00,0.0472
751.00,0.0475
750.00,0.0478
749.00,0.0481
748.00,0.0485
747.00,0.0489
746.00,0.0492
745.00,0.0494
744.00,0.0497
743.00,0.0500
742.00,0.0502
741.00,0.0504
740.00,0.0507
739.00,0.0509
738.00,0.0511
737.00,0.0514
736.00,0.0517
735.00,0.0520
734.00,0.0522
733.00,0.0526
732.00,0.0531
731.00,0.0536
730.00,0.0541
729.00,0.0546
728.00,0.0552
727.00,0.0559
726.00,0.0564
725.00,0.0571
724.00,0.0578
723.00,0.0586
722.00,0.0592
721.00,0.0598
720.00,0.0605
719.00,0.0611
718.00,0.0616
717.00,0.0621
716.00,0.0626
715.00,0.0632
714.00,0.0637
713.00,0.0642
712.00,0.0648
711.00,0.0653
710.00,0.0657
709.00,0.0662
708.00,0.0668
707.00,0.0675
706.00,0.0682
705.00,0.0689
704.00,0.0696
703.00,0.0703
702.00,0.0709
701.00,0.0714
700.00,0.0720
699.00,0.0724
698.00,0.0726
697.00,0.0726
696.00,0.0727
695.00,0.0728
694.00,0.0727
693.00,0.0725
692.00,0.0725
691.00,0.0724
690.00,0.0723
689.00,0.0723
688.00,0.0724
687.00,0.0726
686.00,0.0726
685.00,0.0726
684.00,0.0727
683.00,0.0729
682.00,0.0729
681.00,0.0731
680.00,0.0732
679.00,0.0734
678.00,0.0735
677.00,0.0736
676.00,0.0738
675.00,0.0739
674.00,0.0740
673.00,0.0741
672.00,0.0744
671.00,0.0748
670.00,0.0751
669.00,0.0753
668.00,0.0753
667.00,0.0752
666.00,0.0751
665.00,0.0752
664.00,0.0755
663.00,0.0758
662.00,0.0759
661.00,0.0761
660.00,0.0764
659.00,0.0766
658.00,0.0768
657.00,0.0769
656.00,0.0771
655.00,0.0772
654.00,0.0772
653.00,0.0773
652.00,0.0775
651.00,0.0778
650.00,0.0779
649.00,0.0780
648.00,0.0782
647.00,0.0784
646.00,0.0785
645.00,0.0786
644.00,0.0789
643.00,0.0792
642.00,0.0793
641.00,0.0795
640.00,0.0797
639.00,0.0800
638.00,0.0801
637.00,0.0803
636.00,0.0806
635.00,0.0809
634.00,0.0810
633.00,0.0813
632.00,0.0817
631.00,0.0820
630.00,0.0822
629.00,0.0824
628.00,0.0826
627.00,0.0828
626.00,0.0828
625.00,0.0829
624.00,0.0831
623.00,0.0833
622.00,0.0834
621.00,0.0835
620.00,0.0836
619.00,0.0837
618.00,0.0837
617.00,0.0837
616.00,0.0838
615.00,0.0839
614.00,0.0839
613.00,0.0839
612.00,0.0841
611.00,0.0843
610.00,0.0843
609.00,0.0843
608.00,0.0845
607.00,0.0846
606.00,0.0845
605.00,0.0846
604.00,0.0848
603.00,0.0850
602.00,0.0851
601.00,0.0851
600.00,0.0852
599.00,0.0853
598.00,0.0853
597.00,0.0854
596.00,0.0857
595.00,0.0860
594.00,0.0860
593.00,0.0861
592.00,0.0863
591.00,0.0864
590.00,0.0864
589.00,0.0865
588.00,0.0868
587.00,0.0870
586.00,0.0871
585.00,0.0873
584.00,0.0876
583.00,0.0879
582.00,0.0880
581.00,0.0882
580.00,0.0885
579.00,0.0888
578.00,0.0889
577.00,0.0891
576.00,0.0896
575.00,0.0899
574.00,0.0900
573.00,0.0901
572.00,0.0904
571.00,0.0905
570.00,0.0905
569.00,0.0907
568.00,0.0910
567.00,0.0914
566.00,0.0916
565.00,0.0917
564.00,0.0920
563.00,0.0923
562.00,0.0924
561.00,0.0926
560.00,0.0931
559.00,0.0935
558.00,0.0937
557.00,0.0940
556.00,0.0944
555.00,0.0948
554.00,0.0950
553.00,0.0951
552.00,0.0953
551.00,0.0955
550.00,0.0955
549.00,0.0957
548.00,0.0961
547.00,0.0964
546.00,0.0964
545.00,0.0964
544.00,0.0967
543.00,0.0971
542.00,0.0974
541.00,0.0977
540.00,0.0983
539.00,0.0988
538.00,0.0990
537.00,0.0992
536.00,0.0996
535.00,0.0998
534.00,0.0997
533.00,0.0997
532.00,0.1000
531.00,0.1003
530.00,0.1004
529.00,0.1005
528.00,0.1009
527.00,0.1012
526.00,0.1012
525.00,0.1012
524.00,0.1014
523.00,0.1017
522.00,0.1020
521.00,0.1023
520.00,0.1029
519.00,0.1033
518.00,0.1033
517.00,0.1033
516.00,0.1035
515.00,0.1037
514.00,0.1036
513.00,0.1036
512.00,0.1038
511.00,0.1041
510.00,0.1041
509.00,0.1043
508.00,0.1047
507.00,0.1052
506.00,0.1053
505.00,0.1054
504.00,0.1056
503.00,0.1055
502.00,0.1051
501.00,0.1047
500.00,0.1050
499.00,0.1055
498.00,0.1056
497.00,0.1057
496.00,0.1059
495.00,0.1059
494.00,0.1057
493.00,0.1058
492.00,0.1064
491.00,0.1069
490.00,0.1069
489.00,0.1068
488.00,0.1071
487.00,0.1071
486.00,0.1068
485.00,0.1066
484.00,0.1068
483.00,0.1071
482.00,0.1069
481.00,0.1067
480.00,0.1067
479.00,0.1066
478.00,0.1063
477.00,0.1062
476.00,0.1066
475.00,0.1069
474.00,0.1066
473.00,0.1065
472.00,0.1069
471.00,0.1072
470.00,0.1071
469.00,0.1072
468.00,0.1077
467.00,0.1079
466.00,0.1075
465.00,0.1072
464.00,0.1074
463.00,0.1075
462.00,0.1072
461.00,0.1071
460.00,0.1075
459.00,0.1078
458.00,0.1073
457.00,0.1068
456.00,0.1071
455.00,0.1073
454.00,0.1072
453.00,0.1071
452.00,0.1075
451.00,0.1075
450.00,0.1069
449.00,0.1063
448.00,0.1062
447.00,0.1060
446.00,0.1053
445.00,0.1048
444.00,0.1051
443.00,0.1052
442.00,0.1046
441.00,0.1041
440.00,0.1043
439.00,0.1046
438.00,0.1043
437.00,0.1039
436.00,0.1040
435.00,0.1037
434.00,0.1027
433.00,0.1022
432.00,0.1026
431.00,0.1032
430.00,0.1030
429.00,0.1028
428.00,0.1030
427.00,0.1030
426.00,0.1022
425.00,0.1016
424.00,0.1020
423.00,0.1023
422.00,0.1020
421.00,0.1022
420.00,0.1035
419.00,0.1041
418.00,0.1031
417.00,0.1021
416.00,0.1022
415.00,0.1020
414.00,0.1008
413.00,0.1001
412.00,0.1008
411.00,0.1016
410.00,0.1011
409.00,0.1008
408.00,0.1018
407.00,0.1026
406.00,0.1019
405.00,0.1010
404.00,0.1011
403.00,0.1008
402.00,0.0991
401.00,0.0983
400.00,0.0998
