Created as New Dataset,Sample 909 By YargerLab Date Thursday, July 24 2025
cm-1,A
4000.00,0.0038
3999.00,0.0038
3998.00,0.0038
3997.00,0.0038
3996.00,0.0038
3995.00,0.0038
3994.00,0.0038
3993.00,0.0037
3992.00,0.0037
3991.00,0.0037
3990.00,0.0038
3989.00,0.0038
3988.00,0.0038
3987.00,0.0038
3986.00,0.0038
3985.00,0.0038
3984.00,0.0038
3983.00,0.0038
3982.00,0.0038
3981.00,0.0038
3980.00,0.0038
3979.00,0.0038
3978.00,0.0038
3977.00,0.0038
3976.00,0.0039
3975.00,0.0039
3974.00,0.0039
3973.00,0.0038
3972.00,0.0038
3971.00,0.0038
3970.00,0.0038
3969.00,0.0038
3968.00,0.0038
3967.00,0.0038
3966.00,0.0038
3965.00,0.0038
3964.00,0.0038
3963.00,0.0039
3962.00,0.0039
3961.00,0.0039
3960.00,0.0039
3959.00,0.0039
3958.00,0.0039
3957.00,0.0039
3956.00,0.0039
3955.00,0.0039
3954.00,0.0039
3953.00,0.0038
3952.00,0.0038
3951.00,0.0038
3950.00,0.0038
3949.00,0.0038
3948.00,0.0038
3947.00,0.0038
3946.00,0.0038
3945.00,0.0039
3944.00,0.0039
3943.00,0.0039
3942.00,0.0039
3941.00,0.0039
3940.00,0.0039
3939.00,0.0039
3938.00,0.0039
3937.00,0.0039
3936.00,0.0039
3935.00,0.0039
3934.00,0.0038
3933.00,0.0038
3932.00,0.0038
3931.00,0.0038
3930.00,0.0039
3929.00,0.0039
3928.00,0.0039
3927.00,0.0039
3926.00,0.0039
3925.00,0.0039
3924.00,0.0039
3923.00,0.0039
3922.00,0.0039
3921.00,0.0039
3920.00,0.0039
3919.00,0.0039
3918.00,0.0039
3917.00,0.0039
3916.00,0.0039
3915.00,0.0039
3914.00,0.0039
3913.00,0.0039
3912.00,0.0039
3911.00,0.0039
3910.00,0.0038
3909.00,0.0038
3908.00,0.0038
3907.00,0.0038
3906.00,0.0038
3905.00,0.0038
3904.00,0.0038
3903.00,0.0037
3902.00,0.0036
3901.00,0.0036
3900.00,0.0036
3899.00,0.0036
3898.00,0.0036
3897.00,0.0037
3896.00,0.0037
3895.00,0.0037
3894.00,0.0038
3893.00,0.0038
3892.00,0.0038
3891.00,0.0038
3890.00,0.0038
3889.00,0.0037
3888.00,0.0037
3887.00,0.0037
3886.00,0.0037
3885.00,0.0037
3884.00,0.0037
3883.00,0.0036
3882.00,0.0036
3881.00,0.0036
3880.00,0.0037
3879.00,0.0037
3878.00,0.0037
3877.00,0.0037
3876.00,0.0037
3875.00,0.0037
3874.00,0.0037
3873.00,0.0037
3872.00,0.0037
3871.00,0.0037
3870.00,0.0036
3869.00,0.0036
3868.00,0.0035
3867.00,0.0035
3866.00,0.0035
3865.00,0.0035
3864.00,0.0035
3863.00,0.0036
3862.00,0.0036
3861.00,0.0036
3860.00,0.0037
3859.00,0.0037
3858.00,0.0037
3857.00,0.0038
3856.00,0.0038
3855.00,0.0037
3854.00,0.0036
3853.00,0.0035
3852.00,0.0035
3851.00,0.0035
3850.00,0.0035
3849.00,0.0035
3848.00,0.0035
3847.00,0.0036
3846.00,0.0036
3845.00,0.0036
3844.00,0.0036
3843.00,0.0036
3842.00,0.0036
3841.00,0.0036
3840.00,0.0036
3839.00,0.0036
3838.00,0.0036
3837.00,0.0035
3836.00,0.0035
3835.00,0.0035
3834.00,0.0035
3833.00,0.0035
3832.00,0.0035
3831.00,0.0036
3830.00,0.0036
3829.00,0.0036
3828.00,0.0036
3827.00,0.0036
3826.00,0.0036
3825.00,0.0036
3824.00,0.0036
3823.00,0.0035
3822.00,0.0035
3821.00,0.0035
3820.00,0.0035
3819.00,0.0035
3818.00,0.0035
3817.00,0.0035
3816.00,0.0035
3815.00,0.0035
3814.00,0.0036
3813.00,0.0036
3812.00,0.0036
3811.00,0.0037
3810.00,0.0037
3809.00,0.0036
3808.00,0.0036
3807.00,0.0035
3806.00,0.0035
3805.00,0.0035
3804.00,0.0034
3803.00,0.0034
3802.00,0.0034
3801.00,0.0035
3800.00,0.0035
3799.00,0.0035
3798.00,0.0035
3797.00,0.0035
3796.00,0.0036
3795.00,0.0036
3794.00,0.0036
3793.00,0.0036
3792.00,0.0036
3791.00,0.0036
3790.00,0.0037
3789.00,0.0037
3788.00,0.0037
3787.00,0.0037
3786.00,0.0037
3785.00,0.0037
3784.00,0.0037
3783.00,0.0036
3782.00,0.0036
3781.00,0.0036
3780.00,0.0036
3779.00,0.0036
3778.00,0.0036
3777.00,0.0036
3776.00,0.0036
3775.00,0.0036
3774.00,0.0036
3773.00,0.0036
3772.00,0.0036
3771.00,0.0036
3770.00,0.0036
3769.00,0.0036
3768.00,0.0036
3767.00,0.0036
3766.00,0.0036
3765.00,0.0036
3764.00,0.0036
3763.00,0.0036
3762.00,0.0035
3761.00,0.0035
3760.00,0.0035
3759.00,0.0035
3758.00,0.0035
3757.00,0.0035
3756.00,0.0035
3755.00,0.0035
3754.00,0.0035
3753.00,0.0035
3752.00,0.0034
3751.00,0.0034
3750.00,0.0033
3749.00,0.0033
3748.00,0.0033
3747.00,0.0033
3746.00,0.0033
3745.00,0.0033
3744.00,0.0032
3743.00,0.0033
3742.00,0.0033
3741.00,0.0033
3740.00,0.0032
3739.00,0.0032
3738.00,0.0032
3737.00,0.0032
3736.00,0.0032
3735.00,0.0032
3734.00,0.0033
3733.00,0.0033
3732.00,0.0033
3731.00,0.0033
3730.00,0.0033
3729.00,0.0034
3728.00,0.0034
3727.00,0.0034
3726.00,0.0034
3725.00,0.0034
3724.00,0.0034
3723.00,0.0034
3722.00,0.0034
3721.00,0.0034
3720.00,0.0034
3719.00,0.0034
3718.00,0.0034
3717.00,0.0034
3716.00,0.0034
3715.00,0.0034
3714.00,0.0034
3713.00,0.0033
3712.00,0.0033
3711.00,0.0033
3710.00,0.0033
3709.00,0.0033
3708.00,0.0033
3707.00,0.0033
3706.00,0.0033
3705.00,0.0033
3704.00,0.0033
3703.00,0.0033
3702.00,0.0033
3701.00,0.0033
3700.00,0.0033
3699.00,0.0033
3698.00,0.0033
3697.00,0.0033
3696.00,0.0034
3695.00,0.0034
3694.00,0.0034
3693.00,0.0033
3692.00,0.0033
3691.00,0.0033
3690.00,0.0033
3689.00,0.0033
3688.00,0.0032
3687.00,0.0032
3686.00,0.0033
3685.00,0.0033
3684.00,0.0033
3683.00,0.0033
3682.00,0.0033
3681.00,0.0033
3680.00,0.0033
3679.00,0.0033
3678.00,0.0033
3677.00,0.0033
3676.00,0.0032
3675.00,0.0032
3674.00,0.0032
3673.00,0.0032
3672.00,0.0032
3671.00,0.0032
3670.00,0.0032
3669.00,0.0033
3668.00,0.0033
3667.00,0.0033
3666.00,0.0034
3665.00,0.0034
3664.00,0.0034
3663.00,0.0034
3662.00,0.0034
3661.00,0.0034
3660.00,0.0034
3659.00,0.0033
3658.00,0.0033
3657.00,0.0033
3656.00,0.0032
3655.00,0.0032
3654.00,0.0032
3653.00,0.0031
3652.00,0.0031
3651.00,0.0031
3650.00,0.0031
3649.00,0.0031
3648.00,0.0031
3647.00,0.0031
3646.00,0.0031
3645.00,0.0031
3644.00,0.0031
3643.00,0.0031
3642.00,0.0032
3641.00,0.0032
3640.00,0.0032
3639.00,0.0032
3638.00,0.0032
3637.00,0.0032
3636.00,0.0032
3635.00,0.0032
3634.00,0.0031
3633.00,0.0031
3632.00,0.0031
3631.00,0.0031
3630.00,0.0031
3629.00,0.0031
3628.00,0.0031
3627.00,0.0031
3626.00,0.0031
3625.00,0.0031
3624.00,0.0031
3623.00,0.0031
3622.00,0.0031
3621.00,0.0031
3620.00,0.0032
3619.00,0.0032
3618.00,0.0032
3617.00,0.0031
3616.00,0.0031
3615.00,0.0031
3614.00,0.0031
3613.00,0.0031
3612.00,0.0032
3611.00,0.0032
3610.00,0.0032
3609.00,0.0032
3608.00,0.0032
3607.00,0.0032
3606.00,0.0032
3605.00,0.0032
3604.00,0.0032
3603.00,0.0032
3602.00,0.0032
3601.00,0.0033
3600.00,0.0033
3599.00,0.0032
3598.00,0.0032
3597.00,0.0032
3596.00,0.0032
3595.00,0.0032
3594.00,0.0032
3593.00,0.0032
3592.00,0.0032
3591.00,0.0032
3590.00,0.0032
3589.00,0.0032
3588.00,0.0032
3587.00,0.0033
3586.00,0.0033
3585.00,0.0033
3584.00,0.0033
3583.00,0.0033
3582.00,0.0034
3581.00,0.0034
3580.00,0.0035
3579.00,0.0035
3578.00,0.0035
3577.00,0.0035
3576.00,0.0036
3575.00,0.0036
3574.00,0.0036
3573.00,0.0036
3572.00,0.0036
3571.00,0.0036
3570.00,0.0035
3569.00,0.0035
3568.00,0.0035
3567.00,0.0036
3566.00,0.0036
3565.00,0.0037
3564.00,0.0037
3563.00,0.0037
3562.00,0.0038
3561.00,0.0039
3560.00,0.0040
3559.00,0.0041
3558.00,0.0041
3557.00,0.0042
3556.00,0.0042
3555.00,0.0043
3554.00,0.0044
3553.00,0.0044
3552.00,0.0045
3551.00,0.0047
3550.00,0.0048
3549.00,0.0048
3548.00,0.0049
3547.00,0.0050
3546.00,0.0051
3545.00,0.0053
3544.00,0.0055
3543.00,0.0057
3542.00,0.0059
3541.00,0.0062
3540.00,0.0064
3539.00,0.0067
3538.00,0.0071
3537.00,0.0074
3536.00,0.0079
3535.00,0.0083
3534.00,0.0088
3533.00,0.0094
3532.00,0.0102
3531.00,0.0111
3530.00,0.0121
3529.00,0.0132
3528.00,0.0145
3527.00,0.0159
3526.00,0.0174
3525.00,0.0189
3524.00,0.0203
3523.00,0.0216
3522.00,0.0226
3521.00,0.0234
3520.00,0.0239
3519.00,0.0241
3518.00,0.0241
3517.00,0.0237
3516.00,0.0232
3515.00,0.0225
3514.00,0.0216
3513.00,0.0207
3512.00,0.0197
3511.00,0.0188
3510.00,0.0178
3509.00,0.0169
3508.00,0.0161
3507.00,0.0154
3506.00,0.0147
3505.00,0.0142
3504.00,0.0137
3503.00,0.0133
3502.00,0.0129
3501.00,0.0126
3500.00,0.0124
3499.00,0.0122
3498.00,0.0121
3497.00,0.0120
3496.00,0.0119
3495.00,0.0119
3494.00,0.0119
3493.00,0.0119
3492.00,0.0120
3491.00,0.0120
3490.00,0.0120
3489.00,0.0121
3488.00,0.0122
3487.00,0.0123
3486.00,0.0124
3485.00,0.0124
3484.00,0.0126
3483.00,0.0127
3482.00,0.0128
3481.00,0.0130
3480.00,0.0132
3479.00,0.0134
3478.00,0.0136
3477.00,0.0138
3476.00,0.0140
3475.00,0.0142
3474.00,0.0145
3473.00,0.0147
3472.00,0.0149
3471.00,0.0152
3470.00,0.0155
3469.00,0.0158
3468.00,0.0161
3467.00,0.0164
3466.00,0.0166
3465.00,0.0169
3464.00,0.0172
3463.00,0.0175
3462.00,0.0178
3461.00,0.0182
3460.00,0.0185
3459.00,0.0188
3458.00,0.0191
3457.00,0.0195
3456.00,0.0198
3455.00,0.0201
3454.00,0.0203
3453.00,0.0206
3452.00,0.0210
3451.00,0.0213
3450.00,0.0216
3449.00,0.0220
3448.00,0.0223
3447.00,0.0226
3446.00,0.0229
3445.00,0.0231
3444.00,0.0234
3443.00,0.0237
3442.00,0.0240
3441.00,0.0243
3440.00,0.0246
3439.00,0.0249
3438.00,0.0252
3437.00,0.0255
3436.00,0.0258
3435.00,0.0260
3434.00,0.0263
3433.00,0.0265
3432.00,0.0268
3431.00,0.0270
3430.00,0.0273
3429.00,0.0276
3428.00,0.0278
3427.00,0.0281
3426.00,0.0284
3425.00,0.0287
3424.00,0.0291
3423.00,0.0294
3422.00,0.0298
3421.00,0.0302
3420.00,0.0306
3419.00,0.0311
3418.00,0.0315
3417.00,0.0320
3416.00,0.0325
3415.00,0.0330
3414.00,0.0334
3413.00,0.0339
3412.00,0.0343
3411.00,0.0346
3410.00,0.0349
3409.00,0.0352
3408.00,0.0354
3407.00,0.0354
3406.00,0.0353
3405.00,0.0351
3404.00,0.0348
3403.00,0.0344
3402.00,0.0339
3401.00,0.0333
3400.00,0.0326
3399.00,0.0318
3398.00,0.0309
3397.00,0.0300
3396.00,0.0291
3395.00,0.0281
3394.00,0.0272
3393.00,0.0263
3392.00,0.0254
3391.00,0.0246
3390.00,0.0238
3389.00,0.0230
3388.00,0.0222
3387.00,0.0215
3386.00,0.0209
3385.00,0.0202
3384.00,0.0197
3383.00,0.0191
3382.00,0.0186
3381.00,0.0181
3380.00,0.0177
3379.00,0.0172
3378.00,0.0168
3377.00,0.0164
3376.00,0.0161
3375.00,0.0157
3374.00,0.0154
3373.00,0.0151
3372.00,0.0147
3371.00,0.0144
3370.00,0.0141
3369.00,0.0139
3368.00,0.0136
3367.00,0.0134
3366.00,0.0131
3365.00,0.0128
3364.00,0.0126
3363.00,0.0124
3362.00,0.0122
3361.00,0.0120
3360.00,0.0118
3359.00,0.0116
3358.00,0.0114
3357.00,0.0112
3356.00,0.0110
3355.00,0.0108
3354.00,0.0107
3353.00,0.0105
3352.00,0.0103
3351.00,0.0102
3350.00,0.0100
3349.00,0.0099
3348.00,0.0098
3347.00,0.0096
3346.00,0.0095
3345.00,0.0094
3344.00,0.0093
3343.00,0.0092
3342.00,0.0090
3341.00,0.0089
3340.00,0.0088
3339.00,0.0087
3338.00,0.0086
3337.00,0.0085
3336.00,0.0084
3335.00,0.0083
3334.00,0.0082
3333.00,0.0081
3332.00,0.0080
3331.00,0.0080
3330.00,0.0079
3329.00,0.0078
3328.00,0.0077
3327.00,0.0076
3326.00,0.0076
3325.00,0.0075
3324.00,0.0074
3323.00,0.0074
3322.00,0.0073
3321.00,0.0072
3320.00,0.0072
3319.00,0.0071
3318.00,0.0070
3317.00,0.0070
3316.00,0.0070
3315.00,0.0069
3314.00,0.0069
3313.00,0.0068
3312.00,0.0068
3311.00,0.0067
3310.00,0.0067
3309.00,0.0066
3308.00,0.0066
3307.00,0.0065
3306.00,0.0065
3305.00,0.0064
3304.00,0.0064
3303.00,0.0063
3302.00,0.0062
3301.00,0.0062
3300.00,0.0061
3299.00,0.0061
3298.00,0.0060
3297.00,0.0060
3296.00,0.0060
3295.00,0.0059
3294.00,0.0059
3293.00,0.0058
3292.00,0.0058
3291.00,0.0058
3290.00,0.0058
3289.00,0.0057
3288.00,0.0057
3287.00,0.0057
3286.00,0.0057
3285.00,0.0056
3284.00,0.0056
3283.00,0.0055
3282.00,0.0055
3281.00,0.0055
3280.00,0.0054
3279.00,0.0054
3278.00,0.0054
3277.00,0.0054
3276.00,0.0054
3275.00,0.0053
3274.00,0.0053
3273.00,0.0053
3272.00,0.0052
3271.00,0.0052
3270.00,0.0052
3269.00,0.0052
3268.00,0.0052
3267.00,0.0052
3266.00,0.0052
3265.00,0.0052
3264.00,0.0052
3263.00,0.0052
3262.00,0.0052
3261.00,0.0052
3260.00,0.0052
3259.00,0.0051
3258.00,0.0051
3257.00,0.0051
3256.00,0.0050
3255.00,0.0050
3254.00,0.0050
3253.00,0.0051
3252.00,0.0051
3251.00,0.0051
3250.00,0.0050
3249.00,0.0050
3248.00,0.0050
3247.00,0.0050
3246.00,0.0050
3245.00,0.0050
3244.00,0.0050
3243.00,0.0050
3242.00,0.0050
3241.00,0.0050
3240.00,0.0049
3239.00,0.0049
3238.00,0.0049
3237.00,0.0048
3236.00,0.0048
3235.00,0.0047
3234.00,0.0047
3233.00,0.0047
3232.00,0.0047
3231.00,0.0047
3230.00,0.0046
3229.00,0.0046
3228.00,0.0046
3227.00,0.0046
3226.00,0.0046
3225.00,0.0046
3224.00,0.0046
3223.00,0.0046
3222.00,0.0045
3221.00,0.0045
3220.00,0.0045
3219.00,0.0045
3218.00,0.0045
3217.00,0.0046
3216.00,0.0046
3215.00,0.0046
3214.00,0.0046
3213.00,0.0046
3212.00,0.0045
3211.00,0.0045
3210.00,0.0045
3209.00,0.0045
3208.00,0.0045
3207.00,0.0045
3206.00,0.0045
3205.00,0.0045
3204.00,0.0046
3203.00,0.0046
3202.00,0.0046
3201.00,0.0045
3200.00,0.0045
3199.00,0.0045
3198.00,0.0045
3197.00,0.0045
3196.00,0.0045
3195.00,0.0045
3194.00,0.0045
3193.00,0.0045
3192.00,0.0045
3191.00,0.0045
3190.00,0.0045
3189.00,0.0044
3188.00,0.0044
3187.00,0.0044
3186.00,0.0044
3185.00,0.0044
3184.00,0.0045
3183.00,0.0045
3182.00,0.0045
3181.00,0.0045
3180.00,0.0045
3179.00,0.0045
3178.00,0.0045
3177.00,0.0045
3176.00,0.0045
3175.00,0.0045
3174.00,0.0045
3173.00,0.0045
3172.00,0.0046
3171.00,0.0046
3170.00,0.0046
3169.00,0.0046
3168.00,0.0046
3167.00,0.0046
3166.00,0.0046
3165.00,0.0046
3164.00,0.0046
3163.00,0.0046
3162.00,0.0046
3161.00,0.0046
3160.00,0.0046
3159.00,0.0046
3158.00,0.0046
3157.00,0.0045
3156.00,0.0045
3155.00,0.0044
3154.00,0.0044
3153.00,0.0044
3152.00,0.0044
3151.00,0.0044
3150.00,0.0044
3149.00,0.0045
3148.00,0.0045
3147.00,0.0045
3146.00,0.0045
3145.00,0.0045
3144.00,0.0044
3143.00,0.0044
3142.00,0.0044
3141.00,0.0043
3140.00,0.0043
3139.00,0.0043
3138.00,0.0043
3137.00,0.0043
3136.00,0.0043
3135.00,0.0044
3134.00,0.0043
3133.00,0.0043
3132.00,0.0043
3131.00,0.0043
3130.00,0.0043
3129.00,0.0043
3128.00,0.0044
3127.00,0.0044
3126.00,0.0044
3125.00,0.0044
3124.00,0.0044
3123.00,0.0044
3122.00,0.0043
3121.00,0.0043
3120.00,0.0043
3119.00,0.0043
3118.00,0.0043
3117.00,0.0043
3116.00,0.0043
3115.00,0.0043
3114.00,0.0043
3113.00,0.0043
3112.00,0.0043
3111.00,0.0043
3110.00,0.0043
3109.00,0.0043
3108.00,0.0043
3107.00,0.0043
3106.00,0.0043
3105.00,0.0043
3104.00,0.0043
3103.00,0.0043
3102.00,0.0044
3101.00,0.0044
3100.00,0.0044
3099.00,0.0044
3098.00,0.0044
3097.00,0.0044
3096.00,0.0044
3095.00,0.0044
3094.00,0.0044
3093.00,0.0044
3092.00,0.0045
3091.00,0.0045
3090.00,0.0045
3089.00,0.0046
3088.00,0.0046
3087.00,0.0047
3086.00,0.0048
3085.00,0.0049
3084.00,0.0050
3083.00,0.0052
3082.00,0.0055
3081.00,0.0058
3080.00,0.0063
3079.00,0.0068
3078.00,0.0074
3077.00,0.0080
3076.00,0.0086
3075.00,0.0089
3074.00,0.0089
3073.00,0.0087
3072.00,0.0083
3071.00,0.0077
3070.00,0.0072
3069.00,0.0066
3068.00,0.0062
3067.00,0.0059
3066.00,0.0057
3065.00,0.0055
3064.00,0.0053
3063.00,0.0052
3062.00,0.0051
3061.00,0.0050
3060.00,0.0050
3059.00,0.0049
3058.00,0.0048
3057.00,0.0048
3056.00,0.0048
3055.00,0.0048
3054.00,0.0048
3053.00,0.0048
3052.00,0.0048
3051.00,0.0048
3050.00,0.0048
3049.00,0.0049
3048.00,0.0049
3047.00,0.0050
3046.00,0.0050
3045.00,0.0051
3044.00,0.0051
3043.00,0.0052
3042.00,0.0053
3041.00,0.0054
3040.00,0.0054
3039.00,0.0055
3038.00,0.0055
3037.00,0.0056
3036.00,0.0057
3035.00,0.0058
3034.00,0.0059
3033.00,0.0059
3032.00,0.0060
3031.00,0.0059
3030.00,0.0059
3029.00,0.0058
3028.00,0.0057
3027.00,0.0056
3026.00,0.0055
3025.00,0.0054
3024.00,0.0054
3023.00,0.0053
3022.00,0.0053
3021.00,0.0053
3020.00,0.0053
3019.00,0.0052
3018.00,0.0052
3017.00,0.0052
3016.00,0.0053
3015.00,0.0053
3014.00,0.0053
3013.00,0.0054
3012.00,0.0054
3011.00,0.0054
3010.00,0.0055
3009.00,0.0056
3008.00,0.0056
3007.00,0.0057
3006.00,0.0058
3005.00,0.0058
3004.00,0.0059
3003.00,0.0060
3002.00,0.0060
3001.00,0.0061
3000.00,0.0062
2999.00,0.0063
2998.00,0.0064
2997.00,0.0065
2996.00,0.0066
2995.00,0.0067
2994.00,0.0068
2993.00,0.0070
2992.00,0.0072
2991.00,0.0074
2990.00,0.0075
2989.00,0.0077
2988.00,0.0079
2987.00,0.0080
2986.00,0.0081
2985.00,0.0083
2984.00,0.0085
2983.00,0.0087
2982.00,0.0090
2981.00,0.0093
2980.00,0.0097
2979.00,0.0101
2978.00,0.0107
2977.00,0.0114
2976.00,0.0121
2975.00,0.0130
2974.00,0.0140
2973.00,0.0151
2972.00,0.0162
2971.00,0.0173
2970.00,0.0185
2969.00,0.0195
2968.00,0.0205
2967.00,0.0212
2966.00,0.0217
2965.00,0.0220
2964.00,0.0221
2963.00,0.0221
2962.00,0.0219
2961.00,0.0217
2960.00,0.0213
2959.00,0.0209
2958.00,0.0204
2957.00,0.0198
2956.00,0.0192
2955.00,0.0186
2954.00,0.0180
2953.00,0.0175
2952.00,0.0171
2951.00,0.0169
2950.00,0.0169
2949.00,0.0171
2948.00,0.0175
2947.00,0.0181
2946.00,0.0189
2945.00,0.0198
2944.00,0.0208
2943.00,0.0217
2942.00,0.0227
2941.00,0.0235
2940.00,0.0243
2939.00,0.0251
2938.00,0.0259
2937.00,0.0268
2936.00,0.0277
2935.00,0.0288
2934.00,0.0298
2933.00,0.0310
2932.00,0.0321
2931.00,0.0332
2930.00,0.0344
2929.00,0.0355
2928.00,0.0365
2927.00,0.0373
2926.00,0.0380
2925.00,0.0384
2924.00,0.0385
2923.00,0.0385
2922.00,0.0383
2921.00,0.0380
2920.00,0.0376
2919.00,0.0373
2918.00,0.0371
2917.00,0.0368
2916.00,0.0365
2915.00,0.0360
2914.00,0.0355
2913.00,0.0348
2912.00,0.0340
2911.00,0.0331
2910.00,0.0320
2909.00,0.0310
2908.00,0.0299
2907.00,0.0289
2906.00,0.0279
2905.00,0.0271
2904.00,0.0263
2903.00,0.0256
2902.00,0.0251
2901.00,0.0245
2900.00,0.0240
2899.00,0.0234
2898.00,0.0228
2897.00,0.0221
2896.00,0.0215
2895.00,0.0208
2894.00,0.0202
2893.00,0.0196
2892.00,0.0191
2891.00,0.0187
2890.00,0.0183
2889.00,0.0181
2888.00,0.0179
2887.00,0.0177
2886.00,0.0176
2885.00,0.0175
2884.00,0.0175
2883.00,0.0175
2882.00,0.0175
2881.00,0.0175
2880.00,0.0176
2879.00,0.0177
2878.00,0.0179
2877.00,0.0182
2876.00,0.0185
2875.00,0.0188
2874.00,0.0191
2873.00,0.0193
2872.00,0.0195
2871.00,0.0196
2870.00,0.0196
2869.00,0.0194
2868.00,0.0192
2867.00,0.0190
2866.00,0.0190
2865.00,0.0191
2864.00,0.0196
2863.00,0.0203
2862.00,0.0213
2861.00,0.0226
2860.00,0.0241
2859.00,0.0258
2858.00,0.0274
2857.00,0.0287
2856.00,0.0296
2855.00,0.0297
2854.00,0.0292
2853.00,0.0280
2852.00,0.0265
2851.00,0.0248
2850.00,0.0230
2849.00,0.0212
2848.00,0.0196
2847.00,0.0182
2846.00,0.0169
2845.00,0.0158
2844.00,0.0148
2843.00,0.0140
2842.00,0.0133
2841.00,0.0128
2840.00,0.0124
2839.00,0.0121
2838.00,0.0120
2837.00,0.0121
2836.00,0.0123
2835.00,0.0128
2834.00,0.0134
2833.00,0.0143
2832.00,0.0152
2831.00,0.0162
2830.00,0.0169
2829.00,0.0172
2828.00,0.0170
2827.00,0.0163
2826.00,0.0153
2825.00,0.0141
2824.00,0.0129
2823.00,0.0119
2822.00,0.0110
2821.00,0.0103
2820.00,0.0098
2819.00,0.0093
2818.00,0.0089
2817.00,0.0086
2816.00,0.0084
2815.00,0.0082
2814.00,0.0080
2813.00,0.0078
2812.00,0.0077
2811.00,0.0076
2810.00,0.0074
2809.00,0.0073
2808.00,0.0072
2807.00,0.0071
2806.00,0.0070
2805.00,0.0070
2804.00,0.0069
2803.00,0.0068
2802.00,0.0067
2801.00,0.0067
2800.00,0.0066
2799.00,0.0066
2798.00,0.0065
2797.00,0.0064
2796.00,0.0064
2795.00,0.0063
2794.00,0.0062
2793.00,0.0062
2792.00,0.0061
2791.00,0.0061
2790.00,0.0061
2789.00,0.0060
2788.00,0.0060
2787.00,0.0059
2786.00,0.0059
2785.00,0.0058
2784.00,0.0058
2783.00,0.0058
2782.00,0.0057
2781.00,0.0057
2780.00,0.0057
2779.00,0.0056
2778.00,0.0056
2777.00,0.0056
2776.00,0.0056
2775.00,0.0055
2774.00,0.0055
2773.00,0.0055
2772.00,0.0055
2771.00,0.0055
2770.00,0.0055
2769.00,0.0054
2768.00,0.0054
2767.00,0.0054
2766.00,0.0053
2765.00,0.0053
2764.00,0.0053
2763.00,0.0053
2762.00,0.0053
2761.00,0.0053
2760.00,0.0053
2759.00,0.0053
2758.00,0.0053
2757.00,0.0053
2756.00,0.0053
2755.00,0.0052
2754.00,0.0052
2753.00,0.0052
2752.00,0.0052
2751.00,0.0052
2750.00,0.0052
2749.00,0.0052
2748.00,0.0052
2747.00,0.0052
2746.00,0.0052
2745.00,0.0052
2744.00,0.0053
2743.00,0.0053
2742.00,0.0053
2741.00,0.0053
2740.00,0.0053
2739.00,0.0053
2738.00,0.0054
2737.00,0.0054
2736.00,0.0055
2735.00,0.0056
2734.00,0.0056
2733.00,0.0057
2732.00,0.0058
2731.00,0.0059
2730.00,0.0060
2729.00,0.0060
2728.00,0.0060
2727.00,0.0060
2726.00,0.0060
2725.00,0.0059
2724.00,0.0058
2723.00,0.0057
2722.00,0.0056
2721.00,0.0055
2720.00,0.0055
2719.00,0.0054
2718.00,0.0053
2717.00,0.0053
2716.00,0.0053
2715.00,0.0052
2714.00,0.0052
2713.00,0.0052
2712.00,0.0051
2711.00,0.0051
2710.00,0.0051
2709.00,0.0051
2708.00,0.0051
2707.00,0.0050
2706.00,0.0050
2705.00,0.0050
2704.00,0.0050
2703.00,0.0049
2702.00,0.0049
2701.00,0.0049
2700.00,0.0049
2699.00,0.0049
2698.00,0.0049
2697.00,0.0049
2696.00,0.0049
2695.00,0.0049
2694.00,0.0049
2693.00,0.0049
2692.00,0.0049
2691.00,0.0049
2690.00,0.0049
2689.00,0.0049
2688.00,0.0049
2687.00,0.0049
2686.00,0.0049
2685.00,0.0050
2684.00,0.0050
2683.00,0.0050
2682.00,0.0050
2681.00,0.0050
2680.00,0.0050
2679.00,0.0050
2678.00,0.0050
2677.00,0.0051
2676.00,0.0051
2675.00,0.0052
2674.00,0.0052
2673.00,0.0052
2672.00,0.0052
2671.00,0.0052
2670.00,0.0052
2669.00,0.0053
2668.00,0.0053
2667.00,0.0053
2666.00,0.0053
2665.00,0.0054
2664.00,0.0054
2663.00,0.0055
2662.00,0.0055
2661.00,0.0055
2660.00,0.0055
2659.00,0.0055
2658.00,0.0055
2657.00,0.0056
2656.00,0.0055
2655.00,0.0055
2654.00,0.0055
2653.00,0.0055
2652.00,0.0055
2651.00,0.0055
2650.00,0.0055
2649.00,0.0055
2648.00,0.0055
2647.00,0.0054
2646.00,0.0054
2645.00,0.0054
2644.00,0.0053
2643.00,0.0053
2642.00,0.0053
2641.00,0.0054
2640.00,0.0054
2639.00,0.0053
2638.00,0.0053
2637.00,0.0053
2636.00,0.0053
2635.00,0.0053
2634.00,0.0053
2633.00,0.0053
2632.00,0.0053
2631.00,0.0053
2630.00,0.0053
2629.00,0.0053
2628.00,0.0052
2627.00,0.0052
2626.00,0.0052
2625.00,0.0052
2624.00,0.0052
2623.00,0.0052
2622.00,0.0052
2621.00,0.0052
2620.00,0.0052
2619.00,0.0052
2618.00,0.0052
2617.00,0.0052
2616.00,0.0052
2615.00,0.0052
2614.00,0.0052
2613.00,0.0052
2612.00,0.0052
2611.00,0.0052
2610.00,0.0052
2609.00,0.0052
2608.00,0.0052
2607.00,0.0051
2606.00,0.0051
2605.00,0.0051
2604.00,0.0051
2603.00,0.0051
2602.00,0.0051
2601.00,0.0051
2600.00,0.0051
2599.00,0.0051
2598.00,0.0051
2597.00,0.0050
2596.00,0.0050
2595.00,0.0050
2594.00,0.0050
2593.00,0.0050
2592.00,0.0049
2591.00,0.0049
2590.00,0.0049
2589.00,0.0049
2588.00,0.0049
2587.00,0.0049
2586.00,0.0049
2585.00,0.0049
2584.00,0.0049
2583.00,0.0049
2582.00,0.0049
2581.00,0.0049
2580.00,0.0049
2579.00,0.0049
2578.00,0.0049
2577.00,0.0048
2576.00,0.0048
2575.00,0.0048
2574.00,0.0048
2573.00,0.0048
2572.00,0.0048
2571.00,0.0048
2570.00,0.0048
2569.00,0.0047
2568.00,0.0047
2567.00,0.0047
2566.00,0.0047
2565.00,0.0047
2564.00,0.0048
2563.00,0.0048
2562.00,0.0048
2561.00,0.0047
2560.00,0.0047
2559.00,0.0047
2558.00,0.0047
2557.00,0.0047
2556.00,0.0047
2555.00,0.0048
2554.00,0.0048
2553.00,0.0048
2552.00,0.0048
2551.00,0.0048
2550.00,0.0048
2549.00,0.0048
2548.00,0.0047
2547.00,0.0047
2546.00,0.0047
2545.00,0.0047
2544.00,0.0046
2543.00,0.0046
2542.00,0.0046
2541.00,0.0047
2540.00,0.0047
2539.00,0.0047
2538.00,0.0047
2537.00,0.0046
2536.00,0.0046
2535.00,0.0046
2534.00,0.0046
2533.00,0.0046
2532.00,0.0046
2531.00,0.0046
2530.00,0.0046
2529.00,0.0046
2528.00,0.0046
2527.00,0.0046
2526.00,0.0046
2525.00,0.0046
2524.00,0.0046
2523.00,0.0046
2522.00,0.0046
2521.00,0.0046
2520.00,0.0046
2519.00,0.0046
2518.00,0.0046
2517.00,0.0046
2516.00,0.0045
2515.00,0.0045
2514.00,0.0045
2513.00,0.0045
2512.00,0.0046
2511.00,0.0046
2510.00,0.0046
2509.00,0.0046
2508.00,0.0045
2507.00,0.0045
2506.00,0.0045
2505.00,0.0046
2504.00,0.0046
2503.00,0.0046
2502.00,0.0046
2501.00,0.0046
2500.00,0.0045
2499.00,0.0045
2498.00,0.0045
2497.00,0.0045
2496.00,0.0045
2495.00,0.0045
2494.00,0.0045
2493.00,0.0045
2492.00,0.0046
2491.00,0.0046
2490.00,0.0046
2489.00,0.0046
2488.00,0.0046
2487.00,0.0046
2486.00,0.0046
2485.00,0.0046
2484.00,0.0046
2483.00,0.0046
2482.00,0.0046
2481.00,0.0046
2480.00,0.0046
2479.00,0.0046
2478.00,0.0046
2477.00,0.0046
2476.00,0.0046
2475.00,0.0046
2474.00,0.0046
2473.00,0.0046
2472.00,0.0046
2471.00,0.0046
2470.00,0.0046
2469.00,0.0046
2468.00,0.0046
2467.00,0.0046
2466.00,0.0046
2465.00,0.0046
2464.00,0.0046
2463.00,0.0046
2462.00,0.0046
2461.00,0.0047
2460.00,0.0047
2459.00,0.0047
2458.00,0.0047
2457.00,0.0048
2456.00,0.0048
2455.00,0.0048
2454.00,0.0048
2453.00,0.0048
2452.00,0.0047
2451.00,0.0047
2450.00,0.0047
2449.00,0.0047
2448.00,0.0047
2447.00,0.0047
2446.00,0.0047
2445.00,0.0046
2444.00,0.0045
2443.00,0.0045
2442.00,0.0045
2441.00,0.0045
2440.00,0.0045
2439.00,0.0045
2438.00,0.0045
2437.00,0.0045
2436.00,0.0044
2435.00,0.0044
2434.00,0.0043
2433.00,0.0042
2432.00,0.0042
2431.00,0.0041
2430.00,0.0041
2429.00,0.0041
2428.00,0.0041
2427.00,0.0041
2426.00,0.0042
2425.00,0.0042
2424.00,0.0042
2423.00,0.0042
2422.00,0.0041
2421.00,0.0041
2420.00,0.0040
2419.00,0.0040
2418.00,0.0040
2417.00,0.0040
2416.00,0.0040
2415.00,0.0040
2414.00,0.0040
2413.00,0.0040
2412.00,0.0040
2411.00,0.0040
2410.00,0.0040
2409.00,0.0040
2408.00,0.0040
2407.00,0.0039
2406.00,0.0039
2405.00,0.0039
2404.00,0.0039
2403.00,0.0039
2402.00,0.0039
2401.00,0.0039
2400.00,0.0038
2399.00,0.0038
2398.00,0.0038
2397.00,0.0038
2396.00,0.0038
2395.00,0.0037
2394.00,0.0037
2393.00,0.0037
2392.00,0.0038
2391.00,0.0038
2390.00,0.0038
2389.00,0.0038
2388.00,0.0037
2387.00,0.0037
2386.00,0.0037
2385.00,0.0036
2384.00,0.0036
2383.00,0.0035
2382.00,0.0034
2381.00,0.0034
2380.00,0.0033
2379.00,0.0033
2378.00,0.0033
2377.00,0.0033
2376.00,0.0034
2375.00,0.0034
2374.00,0.0034
2373.00,0.0033
2372.00,0.0033
2371.00,0.0033
2370.00,0.0032
2369.00,0.0032
2368.00,0.0032
2367.00,0.0032
2366.00,0.0032
2365.00,0.0032
2364.00,0.0033
2363.00,0.0033
2362.00,0.0033
2361.00,0.0033
2360.00,0.0033
2359.00,0.0033
2358.00,0.0033
2357.00,0.0033
2356.00,0.0033
2355.00,0.0033
2354.00,0.0033
2353.00,0.0033
2352.00,0.0034
2351.00,0.0034
2350.00,0.0033
2349.00,0.0033
2348.00,0.0034
2347.00,0.0036
2346.00,0.0037
2345.00,0.0038
2344.00,0.0038
2343.00,0.0037
2342.00,0.0036
2341.00,0.0036
2340.00,0.0036
2339.00,0.0037
2338.00,0.0037
2337.00,0.0037
2336.00,0.0037
2335.00,0.0036
2334.00,0.0036
2333.00,0.0036
2332.00,0.0036
2331.00,0.0036
2330.00,0.0036
2329.00,0.0037
2328.00,0.0040
2327.00,0.0043
2326.00,0.0046
2325.00,0.0048
2324.00,0.0048
2323.00,0.0046
2322.00,0.0044
2321.00,0.0042
2320.00,0.0041
2319.00,0.0040
2318.00,0.0039
2317.00,0.0039
2316.00,0.0039
2315.00,0.0039
2314.00,0.0039
2313.00,0.0038
2312.00,0.0038
2311.00,0.0037
2310.00,0.0036
2309.00,0.0036
2308.00,0.0036
2307.00,0.0036
2306.00,0.0037
2305.00,0.0037
2304.00,0.0038
2303.00,0.0038
2302.00,0.0038
2301.00,0.0039
2300.00,0.0039
2299.00,0.0040
2298.00,0.0041
2297.00,0.0041
2296.00,0.0042
2295.00,0.0043
2294.00,0.0043
2293.00,0.0044
2292.00,0.0045
2291.00,0.0046
2290.00,0.0047
2289.00,0.0048
2288.00,0.0049
2287.00,0.0049
2286.00,0.0049
2285.00,0.0049
2284.00,0.0048
2283.00,0.0048
2282.00,0.0047
2281.00,0.0047
2280.00,0.0046
2279.00,0.0046
2278.00,0.0046
2277.00,0.0046
2276.00,0.0045
2275.00,0.0045
2274.00,0.0044
2273.00,0.0044
2272.00,0.0043
2271.00,0.0043
2270.00,0.0042
2269.00,0.0042
2268.00,0.0042
2267.00,0.0041
2266.00,0.0041
2265.00,0.0041
2264.00,0.0041
2263.00,0.0041
2262.00,0.0042
2261.00,0.0042
2260.00,0.0043
2259.00,0.0042
2258.00,0.0042
2257.00,0.0041
2256.00,0.0040
2255.00,0.0040
2254.00,0.0039
2253.00,0.0039
2252.00,0.0040
2251.00,0.0041
2250.00,0.0042
2249.00,0.0042
2248.00,0.0042
2247.00,0.0041
2246.00,0.0041
2245.00,0.0041
2244.00,0.0041
2243.00,0.0041
2242.00,0.0041
2241.00,0.0042
2240.00,0.0043
2239.00,0.0043
2238.00,0.0042
2237.00,0.0042
2236.00,0.0041
2235.00,0.0041
2234.00,0.0041
2233.00,0.0041
2232.00,0.0041
2231.00,0.0041
2230.00,0.0040
2229.00,0.0040
2228.00,0.0040
2227.00,0.0040
2226.00,0.0040
2225.00,0.0041
2224.00,0.0041
2223.00,0.0041
2222.00,0.0041
2221.00,0.0041
2220.00,0.0042
2219.00,0.0042
2218.00,0.0042
2217.00,0.0041
2216.00,0.0041
2215.00,0.0040
2214.00,0.0040
2213.00,0.0040
2212.00,0.0041
2211.00,0.0041
2210.00,0.0042
2209.00,0.0042
2208.00,0.0041
2207.00,0.0040
2206.00,0.0039
2205.00,0.0039
2204.00,0.0039
2203.00,0.0039
2202.00,0.0039
2201.00,0.0038
2200.00,0.0038
2199.00,0.0039
2198.00,0.0040
2197.00,0.0041
2196.00,0.0042
2195.00,0.0043
2194.00,0.0043
2193.00,0.0042
2192.00,0.0041
2191.00,0.0041
2190.00,0.0042
2189.00,0.0043
2188.00,0.0044
2187.00,0.0044
2186.00,0.0044
2185.00,0.0043
2184.00,0.0041
2183.00,0.0039
2182.00,0.0038
2181.00,0.0037
2180.00,0.0038
2179.00,0.0038
2178.00,0.0037
2177.00,0.0035
2176.00,0.0034
2175.00,0.0034
2174.00,0.0036
2173.00,0.0038
2172.00,0.0040
2171.00,0.0042
2170.00,0.0044
2169.00,0.0046
2168.00,0.0048
2167.00,0.0048
2166.00,0.0048
2165.00,0.0048
2164.00,0.0050
2163.00,0.0050
2162.00,0.0046
2161.00,0.0036
2160.00,0.0023
2159.00,0.0011
2158.00,0.0005
2157.00,0.0005
2156.00,0.0008
2155.00,0.0012
2154.00,0.0015
2153.00,0.0017
2152.00,0.0019
2151.00,0.0020
2150.00,0.0022
2149.00,0.0023
2148.00,0.0024
2147.00,0.0023
2146.00,0.0022
2145.00,0.0021
2144.00,0.0021
2143.00,0.0021
2142.00,0.0021
2141.00,0.0022
2140.00,0.0022
2139.00,0.0022
2138.00,0.0020
2137.00,0.0019
2136.00,0.0017
2135.00,0.0016
2134.00,0.0015
2133.00,0.0016
2132.00,0.0017
2131.00,0.0018
2130.00,0.0020
2129.00,0.0021
2128.00,0.0022
2127.00,0.0024
2126.00,0.0024
2125.00,0.0026
2124.00,0.0027
2123.00,0.0029
2122.00,0.0030
2121.00,0.0031
2120.00,0.0032
2119.00,0.0033
2118.00,0.0034
2117.00,0.0035
2116.00,0.0036
2115.00,0.0036
2114.00,0.0035
2113.00,0.0035
2112.00,0.0035
2111.00,0.0035
2110.00,0.0035
2109.00,0.0034
2108.00,0.0034
2107.00,0.0033
2106.00,0.0032
2105.00,0.0032
2104.00,0.0032
2103.00,0.0032
2102.00,0.0033
2101.00,0.0033
2100.00,0.0033
2099.00,0.0033
2098.00,0.0032
2097.00,0.0031
2096.00,0.0030
2095.00,0.0029
2094.00,0.0029
2093.00,0.0030
2092.00,0.0032
2091.00,0.0032
2090.00,0.0032
2089.00,0.0033
2088.00,0.0033
2087.00,0.0033
2086.00,0.0033
2085.00,0.0034
2084.00,0.0034
2083.00,0.0035
2082.00,0.0035
2081.00,0.0036
2080.00,0.0036
2079.00,0.0036
2078.00,0.0035
2077.00,0.0035
2076.00,0.0035
2075.00,0.0035
2074.00,0.0035
2073.00,0.0034
2072.00,0.0034
2071.00,0.0034
2070.00,0.0034
2069.00,0.0033
2068.00,0.0032
2067.00,0.0031
2066.00,0.0031
2065.00,0.0030
2064.00,0.0031
2063.00,0.0032
2062.00,0.0032
2061.00,0.0032
2060.00,0.0032
2059.00,0.0032
2058.00,0.0032
2057.00,0.0032
2056.00,0.0032
2055.00,0.0033
2054.00,0.0036
2053.00,0.0039
2052.00,0.0043
2051.00,0.0043
2050.00,0.0040
2049.00,0.0037
2048.00,0.0034
2047.00,0.0032
2046.00,0.0031
2045.00,0.0030
2044.00,0.0030
2043.00,0.0030
2042.00,0.0029
2041.00,0.0028
2040.00,0.0028
2039.00,0.0027
2038.00,0.0027
2037.00,0.0028
2036.00,0.0027
2035.00,0.0026
2034.00,0.0024
2033.00,0.0023
2032.00,0.0023
2031.00,0.0024
2030.00,0.0025
2029.00,0.0026
2028.00,0.0026
2027.00,0.0025
2026.00,0.0024
2025.00,0.0024
2024.00,0.0025
2023.00,0.0025
2022.00,0.0025
2021.00,0.0023
2020.00,0.0023
2019.00,0.0023
2018.00,0.0023
2017.00,0.0025
2016.00,0.0027
2015.00,0.0028
2014.00,0.0027
2013.00,0.0027
2012.00,0.0027
2011.00,0.0026
2010.00,0.0024
2009.00,0.0020
2008.00,0.0017
2007.00,0.0014
2006.00,0.0014
2005.00,0.0016
2004.00,0.0018
2003.00,0.0019
2002.00,0.0019
2001.00,0.0020
2000.00,0.0021
1999.00,0.0023
1998.00,0.0025
1997.00,0.0026
1996.00,0.0027
1995.00,0.0028
1994.00,0.0028
1993.00,0.0029
1992.00,0.0030
1991.00,0.0031
1990.00,0.0031
1989.00,0.0031
1988.00,0.0031
1987.00,0.0031
1986.00,0.0033
1985.00,0.0035
1984.00,0.0037
1983.00,0.0040
1982.00,0.0042
1981.00,0.0043
1980.00,0.0040
1979.00,0.0035
1978.00,0.0030
1977.00,0.0025
1976.00,0.0024
1975.00,0.0023
1974.00,0.0023
1973.00,0.0022
1972.00,0.0020
1971.00,0.0020
1970.00,0.0020
1969.00,0.0021
1968.00,0.0022
1967.00,0.0022
1966.00,0.0022
1965.00,0.0021
1964.00,0.0021
1963.00,0.0021
1962.00,0.0020
1961.00,0.0020
1960.00,0.0020
1959.00,0.0020
1958.00,0.0021
1957.00,0.0021
1956.00,0.0022
1955.00,0.0023
1954.00,0.0024
1953.00,0.0024
1952.00,0.0024
1951.00,0.0023
1950.00,0.0023
1949.00,0.0024
1948.00,0.0024
1947.00,0.0024
1946.00,0.0023
1945.00,0.0023
1944.00,0.0024
1943.00,0.0024
1942.00,0.0024
1941.00,0.0023
1940.00,0.0023
1939.00,0.0022
1938.00,0.0022
1937.00,0.0022
1936.00,0.0022
1935.00,0.0023
1934.00,0.0023
1933.00,0.0023
1932.00,0.0024
1931.00,0.0024
1930.00,0.0025
1929.00,0.0025
1928.00,0.0025
1927.00,0.0025
1926.00,0.0025
1925.00,0.0026
1924.00,0.0026
1923.00,0.0028
1922.00,0.0028
1921.00,0.0029
1920.00,0.0029
1919.00,0.0029
1918.00,0.0028
1917.00,0.0028
1916.00,0.0028
1915.00,0.0028
1914.00,0.0028
1913.00,0.0028
1912.00,0.0029
1911.00,0.0030
1910.00,0.0030
1909.00,0.0030
1908.00,0.0031
1907.00,0.0031
1906.00,0.0030
1905.00,0.0030
1904.00,0.0030
1903.00,0.0030
1902.00,0.0029
1901.00,0.0029
1900.00,0.0029
1899.00,0.0029
1898.00,0.0029
1897.00,0.0030
1896.00,0.0030
1895.00,0.0030
1894.00,0.0030
1893.00,0.0030
1892.00,0.0030
1891.00,0.0030
1890.00,0.0030
1889.00,0.0030
1888.00,0.0030
1887.00,0.0030
1886.00,0.0030
1885.00,0.0030
1884.00,0.0031
1883.00,0.0031
1882.00,0.0031
1881.00,0.0031
1880.00,0.0032
1879.00,0.0032
1878.00,0.0032
1877.00,0.0032
1876.00,0.0032
1875.00,0.0031
1874.00,0.0031
1873.00,0.0031
1872.00,0.0031
1871.00,0.0031
1870.00,0.0030
1869.00,0.0030
1868.00,0.0031
1867.00,0.0032
1866.00,0.0032
1865.00,0.0032
1864.00,0.0032
1863.00,0.0032
1862.00,0.0032
1861.00,0.0032
1860.00,0.0032
1859.00,0.0031
1858.00,0.0031
1857.00,0.0031
1856.00,0.0031
1855.00,0.0030
1854.00,0.0030
1853.00,0.0031
1852.00,0.0031
1851.00,0.0031
1850.00,0.0031
1849.00,0.0031
1848.00,0.0031
1847.00,0.0031
1846.00,0.0031
1845.00,0.0031
1844.00,0.0031
1843.00,0.0031
1842.00,0.0031
1841.00,0.0031
1840.00,0.0031
1839.00,0.0031
1838.00,0.0031
1837.00,0.0031
1836.00,0.0032
1835.00,0.0032
1834.00,0.0032
1833.00,0.0032
1832.00,0.0032
1831.00,0.0032
1830.00,0.0032
1829.00,0.0032
1828.00,0.0033
1827.00,0.0033
1826.00,0.0033
1825.00,0.0033
1824.00,0.0034
1823.00,0.0034
1822.00,0.0034
1821.00,0.0034
1820.00,0.0033
1819.00,0.0032
1818.00,0.0031
1817.00,0.0031
1816.00,0.0031
1815.00,0.0032
1814.00,0.0033
1813.00,0.0033
1812.00,0.0034
1811.00,0.0035
1810.00,0.0036
1809.00,0.0037
1808.00,0.0038
1807.00,0.0038
1806.00,0.0038
1805.00,0.0038
1804.00,0.0038
1803.00,0.0038
1802.00,0.0038
1801.00,0.0039
1800.00,0.0039
1799.00,0.0039
1798.00,0.0039
1797.00,0.0039
1796.00,0.0038
1795.00,0.0038
1794.00,0.0037
1793.00,0.0037
1792.00,0.0037
1791.00,0.0037
1790.00,0.0037
1789.00,0.0037
1788.00,0.0036
1787.00,0.0036
1786.00,0.0036
1785.00,0.0037
1784.00,0.0037
1783.00,0.0037
1782.00,0.0037
1781.00,0.0037
1780.00,0.0038
1779.00,0.0038
1778.00,0.0038
1777.00,0.0038
1776.00,0.0039
1775.00,0.0039
1774.00,0.0040
1773.00,0.0041
1772.00,0.0041
1771.00,0.0042
1770.00,0.0042
1769.00,0.0041
1768.00,0.0040
1767.00,0.0040
1766.00,0.0039
1765.00,0.0038
1764.00,0.0038
1763.00,0.0038
1762.00,0.0037
1761.00,0.0037
1760.00,0.0037
1759.00,0.0037
1758.00,0.0037
1757.00,0.0037
1756.00,0.0037
1755.00,0.0037
1754.00,0.0036
1753.00,0.0036
1752.00,0.0036
1751.00,0.0035
1750.00,0.0036
1749.00,0.0036
1748.00,0.0036
1747.00,0.0036
1746.00,0.0036
1745.00,0.0036
1744.00,0.0036
1743.00,0.0036
1742.00,0.0037
1741.00,0.0037
1740.00,0.0037
1739.00,0.0037
1738.00,0.0037
1737.00,0.0037
1736.00,0.0037
1735.00,0.0037
1734.00,0.0037
1733.00,0.0037
1732.00,0.0037
1731.00,0.0037
1730.00,0.0037
1729.00,0.0038
1728.00,0.0038
1727.00,0.0038
1726.00,0.0038
1725.00,0.0039
1724.00,0.0039
1723.00,0.0039
1722.00,0.0039
1721.00,0.0039
1720.00,0.0039
1719.00,0.0039
1718.00,0.0039
1717.00,0.0039
1716.00,0.0040
1715.00,0.0040
1714.00,0.0040
1713.00,0.0040
1712.00,0.0041
1711.00,0.0041
1710.00,0.0041
1709.00,0.0041
1708.00,0.0041
1707.00,0.0042
1706.00,0.0042
1705.00,0.0042
1704.00,0.0043
1703.00,0.0043
1702.00,0.0043
1701.00,0.0043
1700.00,0.0042
1699.00,0.0042
1698.00,0.0042
1697.00,0.0042
1696.00,0.0043
1695.00,0.0042
1694.00,0.0041
1693.00,0.0040
1692.00,0.0039
1691.00,0.0039
1690.00,0.0038
1689.00,0.0038
1688.00,0.0038
1687.00,0.0038
1686.00,0.0038
1685.00,0.0038
1684.00,0.0038
1683.00,0.0038
1682.00,0.0037
1681.00,0.0037
1680.00,0.0038
1679.00,0.0038
1678.00,0.0039
1677.00,0.0039
1676.00,0.0040
1675.00,0.0041
1674.00,0.0042
1673.00,0.0042
1672.00,0.0043
1671.00,0.0044
1670.00,0.0046
1669.00,0.0048
1668.00,0.0050
1667.00,0.0051
1666.00,0.0053
1665.00,0.0055
1664.00,0.0056
1663.00,0.0058
1662.00,0.0059
1661.00,0.0060
1660.00,0.0060
1659.00,0.0060
1658.00,0.0060
1657.00,0.0060
1656.00,0.0062
1655.00,0.0064
1654.00,0.0068
1653.00,0.0073
1652.00,0.0079
1651.00,0.0084
1650.00,0.0089
1649.00,0.0099
1648.00,0.0114
1647.00,0.0138
1646.00,0.0164
1645.00,0.0186
1644.00,0.0200
1643.00,0.0205
1642.00,0.0202
1641.00,0.0195
1640.00,0.0188
1639.00,0.0185
1638.00,0.0187
1637.00,0.0196
1636.00,0.0214
1635.00,0.0237
1634.00,0.0259
1633.00,0.0277
1632.00,0.0293
1631.00,0.0306
1630.00,0.0317
1629.00,0.0325
1628.00,0.0335
1627.00,0.0347
1626.00,0.0362
1625.00,0.0379
1624.00,0.0393
1623.00,0.0400
1622.00,0.0394
1621.00,0.0379
1620.00,0.0358
1619.00,0.0332
1618.00,0.0301
1617.00,0.0265
1616.00,0.0232
1615.00,0.0206
1614.00,0.0188
1613.00,0.0175
1612.00,0.0163
1611.00,0.0152
1610.00,0.0142
1609.00,0.0134
1608.00,0.0127
1607.00,0.0121
1606.00,0.0117
1605.00,0.0114
1604.00,0.0111
1603.00,0.0110
1602.00,0.0109
1601.00,0.0110
1600.00,0.0111
1599.00,0.0114
1598.00,0.0118
1597.00,0.0124
1596.00,0.0131
1595.00,0.0141
1594.00,0.0154
1593.00,0.0171
1592.00,0.0193
1591.00,0.0221
1590.00,0.0253
1589.00,0.0289
1588.00,0.0327
1587.00,0.0363
1586.00,0.0397
1585.00,0.0426
1584.00,0.0452
1583.00,0.0472
1582.00,0.0483
1581.00,0.0485
1580.00,0.0477
1579.00,0.0462
1578.00,0.0438
1577.00,0.0402
1576.00,0.0359
1575.00,0.0319
1574.00,0.0288
1573.00,0.0266
1572.00,0.0248
1571.00,0.0228
1570.00,0.0206
1569.00,0.0185
1568.00,0.0168
1567.00,0.0155
1566.00,0.0144
1565.00,0.0134
1564.00,0.0125
1563.00,0.0119
1562.00,0.0114
1561.00,0.0110
1560.00,0.0105
1559.00,0.0098
1558.00,0.0094
1557.00,0.0091
1556.00,0.0089
1555.00,0.0087
1554.00,0.0085
1553.00,0.0083
1552.00,0.0081
1551.00,0.0079
1550.00,0.0077
1549.00,0.0076
1548.00,0.0075
1547.00,0.0074
1546.00,0.0073
1545.00,0.0072
1544.00,0.0071
1543.00,0.0071
1542.00,0.0071
1541.00,0.0070
1540.00,0.0070
1539.00,0.0070
1538.00,0.0069
1537.00,0.0069
1536.00,0.0069
1535.00,0.0069
1534.00,0.0069
1533.00,0.0069
1532.00,0.0069
1531.00,0.0069
1530.00,0.0069
1529.00,0.0070
1528.00,0.0070
1527.00,0.0072
1526.00,0.0073
1525.00,0.0075
1524.00,0.0078
1523.00,0.0081
1522.00,0.0087
1521.00,0.0096
1520.00,0.0104
1519.00,0.0113
1518.00,0.0121
1517.00,0.0129
1516.00,0.0137
1515.00,0.0142
1514.00,0.0144
1513.00,0.0143
1512.00,0.0139
1511.00,0.0133
1510.00,0.0127
1509.00,0.0121
1508.00,0.0114
1507.00,0.0108
1506.00,0.0103
1505.00,0.0099
1504.00,0.0096
1503.00,0.0095
1502.00,0.0094
1501.00,0.0092
1500.00,0.0091
1499.00,0.0089
1498.00,0.0087
1497.00,0.0084
1496.00,0.0081
1495.00,0.0078
1494.00,0.0075
1493.00,0.0073
1492.00,0.0071
1491.00,0.0070
1490.00,0.0068
1489.00,0.0067
1488.00,0.0066
1487.00,0.0066
1486.00,0.0066
1485.00,0.0066
1484.00,0.0066
1483.00,0.0066
1482.00,0.0066
1481.00,0.0067
1480.00,0.0068
1479.00,0.0069
1478.00,0.0070
1477.00,0.0072
1476.00,0.0074
1475.00,0.0077
1474.00,0.0081
1473.00,0.0087
1472.00,0.0096
1471.00,0.0108
1470.00,0.0122
1469.00,0.0138
1468.00,0.0154
1467.00,0.0169
1466.00,0.0179
1465.00,0.0187
1464.00,0.0192
1463.00,0.0198
1462.00,0.0205
1461.00,0.0212
1460.00,0.0219
1459.00,0.0225
1458.00,0.0230
1457.00,0.0236
1456.00,0.0245
1455.00,0.0256
1454.00,0.0272
1453.00,0.0293
1452.00,0.0319
1451.00,0.0349
1450.00,0.0383
1449.00,0.0421
1448.00,0.0460
1447.00,0.0497
1446.00,0.0529
1445.00,0.0553
1444.00,0.0570
1443.00,0.0577
1442.00,0.0578
1441.00,0.0576
1440.00,0.0571
1439.00,0.0565
1438.00,0.0554
1437.00,0.0538
1436.00,0.0517
1435.00,0.0496
1434.00,0.0479
1433.00,0.0463
1432.00,0.0445
1431.00,0.0422
1430.00,0.0394
1429.00,0.0362
1428.00,0.0328
1427.00,0.0295
1426.00,0.0263
1425.00,0.0234
1424.00,0.0207
1423.00,0.0186
1422.00,0.0171
1421.00,0.0159
1420.00,0.0147
1419.00,0.0137
1418.00,0.0128
1417.00,0.0122
1416.00,0.0117
1415.00,0.0113
1414.00,0.0110
1413.00,0.0107
1412.00,0.0104
1411.00,0.0101
1410.00,0.0099
1409.00,0.0097
1408.00,0.0095
1407.00,0.0094
1406.00,0.0094
1405.00,0.0093
1404.00,0.0092
1403.00,0.0091
1402.00,0.0090
1401.00,0.0089
1400.00,0.0088
1399.00,0.0087
1398.00,0.0087
1397.00,0.0087
1396.00,0.0086
1395.00,0.0086
1394.00,0.0086
1393.00,0.0085
1392.00,0.0084
1391.00,0.0084
1390.00,0.0085
1389.00,0.0085
1388.00,0.0087
1387.00,0.0089
1386.00,0.0092
1385.00,0.0097
1384.00,0.0103
1383.00,0.0112
1382.00,0.0124
1381.00,0.0140
1380.00,0.0161
1379.00,0.0187
1378.00,0.0215
1377.00,0.0242
1376.00,0.0263
1375.00,0.0274
1374.00,0.0273
1373.00,0.0262
1372.00,0.0247
1371.00,0.0232
1370.00,0.0217
1369.00,0.0203
1368.00,0.0191
1367.00,0.0181
1366.00,0.0173
1365.00,0.0165
1364.00,0.0157
1363.00,0.0149
1362.00,0.0143
1361.00,0.0138
1360.00,0.0134
1359.00,0.0132
1358.00,0.0130
1357.00,0.0128
1356.00,0.0128
1355.00,0.0128
1354.00,0.0128
1353.00,0.0129
1352.00,0.0130
1351.00,0.0131
1350.00,0.0132
1349.00,0.0135
1348.00,0.0138
1347.00,0.0141
1346.00,0.0145
1345.00,0.0149
1344.00,0.0152
1343.00,0.0155
1342.00,0.0157
1341.00,0.0156
1340.00,0.0153
1339.00,0.0149
1338.00,0.0144
1337.00,0.0140
1336.00,0.0137
1335.00,0.0136
1334.00,0.0137
1333.00,0.0140
1332.00,0.0145
1331.00,0.0150
1330.00,0.0156
1329.00,0.0162
1328.00,0.0168
1327.00,0.0173
1326.00,0.0179
1325.00,0.0184
1324.00,0.0187
1323.00,0.0187
1322.00,0.0183
1321.00,0.0176
1320.00,0.0170
1319.00,0.0166
1318.00,0.0167
1317.00,0.0174
1316.00,0.0186
1315.00,0.0203
1314.00,0.0222
1313.00,0.0241
1312.00,0.0255
1311.00,0.0262
1310.00,0.0262
1309.00,0.0256
1308.00,0.0250
1307.00,0.0245
1306.00,0.0244
1305.00,0.0246
1304.00,0.0252
1303.00,0.0258
1302.00,0.0262
1301.00,0.0264
1300.00,0.0264
1299.00,0.0262
1298.00,0.0259
1297.00,0.0254
1296.00,0.0248
1295.00,0.0241
1294.00,0.0234
1293.00,0.0227
1292.00,0.0220
1291.00,0.0213
1290.00,0.0208
1289.00,0.0204
1288.00,0.0203
1287.00,0.0206
1286.00,0.0212
1285.00,0.0220
1284.00,0.0230
1283.00,0.0241
1282.00,0.0251
1281.00,0.0260
1280.00,0.0266
1279.00,0.0270
1278.00,0.0271
1277.00,0.0269
1276.00,0.0264
1275.00,0.0256
1274.00,0.0246
1273.00,0.0234
1272.00,0.0220
1271.00,0.0205
1270.00,0.0189
1269.00,0.0174
1268.00,0.0160
1267.00,0.0148
1266.00,0.0139
1265.00,0.0130
1264.00,0.0124
1263.00,0.0118
1262.00,0.0114
1261.00,0.0110
1260.00,0.0107
1259.00,0.0104
1258.00,0.0102
1257.00,0.0101
1256.00,0.0100
1255.00,0.0100
1254.00,0.0102
1253.00,0.0105
1252.00,0.0110
1251.00,0.0116
1250.00,0.0123
1249.00,0.0129
1248.00,0.0133
1247.00,0.0137
1246.00,0.0140
1245.00,0.0145
1244.00,0.0154
1243.00,0.0169
1242.00,0.0188
1241.00,0.0212
1240.00,0.0240
1239.00,0.0266
1238.00,0.0289
1237.00,0.0305
1236.00,0.0313
1235.00,0.0313
1234.00,0.0309
1233.00,0.0302
1232.00,0.0292
1231.00,0.0282
1230.00,0.0273
1229.00,0.0270
1228.00,0.0276
1227.00,0.0290
1226.00,0.0310
1225.00,0.0334
1224.00,0.0359
1223.00,0.0385
1222.00,0.0414
1221.00,0.0448
1220.00,0.0488
1219.00,0.0534
1218.00,0.0584
1217.00,0.0632
1216.00,0.0673
1215.00,0.0700
1214.00,0.0709
1213.00,0.0701
1212.00,0.0679
1211.00,0.0646
1210.00,0.0608
1209.00,0.0568
1208.00,0.0531
1207.00,0.0496
1206.00,0.0466
1205.00,0.0437
1204.00,0.0409
1203.00,0.0380
1202.00,0.0351
1201.00,0.0323
1200.00,0.0296
1199.00,0.0271
1198.00,0.0250
1197.00,0.0233
1196.00,0.0220
1195.00,0.0209
1194.00,0.0202
1193.00,0.0198
1192.00,0.0197
1191.00,0.0198
1190.00,0.0201
1189.00,0.0205
1188.00,0.0210
1187.00,0.0215
1186.00,0.0220
1185.00,0.0225
1184.00,0.0231
1183.00,0.0236
1182.00,0.0241
1181.00,0.0244
1180.00,0.0246
1179.00,0.0249
1178.00,0.0251
1177.00,0.0253
1176.00,0.0255
1175.00,0.0261
1174.00,0.0270
1173.00,0.0281
1172.00,0.0287
1171.00,0.0284
1170.00,0.0269
1169.00,0.0245
1168.00,0.0219
1167.00,0.0195
1166.00,0.0176
1165.00,0.0161
1164.00,0.0150
1163.00,0.0142
1162.00,0.0136
1161.00,0.0132
1160.00,0.0130
1159.00,0.0130
1158.00,0.0132
1157.00,0.0137
1156.00,0.0147
1155.00,0.0164
1154.00,0.0189
1153.00,0.0222
1152.00,0.0257
1151.00,0.0284
1150.00,0.0293
1149.00,0.0281
1148.00,0.0252
1147.00,0.0217
1146.00,0.0185
1145.00,0.0161
1144.00,0.0144
1143.00,0.0133
1142.00,0.0126
1141.00,0.0122
1140.00,0.0120
1139.00,0.0120
1138.00,0.0122
1137.00,0.0125
1136.00,0.0127
1135.00,0.0129
1134.00,0.0129
1133.00,0.0126
1132.00,0.0122
1131.00,0.0117
1130.00,0.0111
1129.00,0.0105
1128.00,0.0101
1127.00,0.0097
1126.00,0.0095
1125.00,0.0092
1124.00,0.0091
1123.00,0.0089
1122.00,0.0088
1121.00,0.0088
1120.00,0.0088
1119.00,0.0088
1118.00,0.0088
1117.00,0.0089
1116.00,0.0090
1115.00,0.0091
1114.00,0.0092
1113.00,0.0093
1112.00,0.0094
1111.00,0.0096
1110.00,0.0098
1109.00,0.0101
1108.00,0.0104
1107.00,0.0108
1106.00,0.0113
1105.00,0.0118
1104.00,0.0124
1103.00,0.0130
1102.00,0.0137
1101.00,0.0145
1100.00,0.0152
1099.00,0.0157
1098.00,0.0157
1097.00,0.0153
1096.00,0.0145
1095.00,0.0136
1094.00,0.0127
1093.00,0.0121
1092.00,0.0116
1091.00,0.0112
1090.00,0.0109
1089.00,0.0106
1088.00,0.0105
1087.00,0.0105
1086.00,0.0106
1085.00,0.0111
1084.00,0.0117
1083.00,0.0127
1082.00,0.0139
1081.00,0.0149
1080.00,0.0157
1079.00,0.0160
1078.00,0.0158
1077.00,0.0152
1076.00,0.0143
1075.00,0.0134
1074.00,0.0126
1073.00,0.0121
1072.00,0.0116
1071.00,0.0112
1070.00,0.0109
1069.00,0.0107
1068.00,0.0105
1067.00,0.0104
1066.00,0.0104
1065.00,0.0105
1064.00,0.0107
1063.00,0.0109
1062.00,0.0112
1061.00,0.0117
1060.00,0.0124
1059.00,0.0136
1058.00,0.0152
1057.00,0.0175
1056.00,0.0205
1055.00,0.0241
1054.00,0.0276
1053.00,0.0304
1052.00,0.0323
1051.00,0.0330
1050.00,0.0327
1049.00,0.0314
1048.00,0.0291
1047.00,0.0264
1046.00,0.0237
1045.00,0.0216
1044.00,0.0202
1043.00,0.0195
1042.00,0.0194
1041.00,0.0197
1040.00,0.0202
1039.00,0.0211
1038.00,0.0223
1037.00,0.0242
1036.00,0.0266
1035.00,0.0296
1034.00,0.0327
1033.00,0.0354
1032.00,0.0369
1031.00,0.0371
1030.00,0.0359
1029.00,0.0340
1028.00,0.0319
1027.00,0.0304
1026.00,0.0296
1025.00,0.0299
1024.00,0.0314
1023.00,0.0340
1022.00,0.0374
1021.00,0.0412
1020.00,0.0444
1019.00,0.0464
1018.00,0.0465
1017.00,0.0450
1016.00,0.0424
1015.00,0.0393
1014.00,0.0362
1013.00,0.0334
1012.00,0.0309
1011.00,0.0292
1010.00,0.0281
1009.00,0.0277
1008.00,0.0278
1007.00,0.0283
1006.00,0.0293
1005.00,0.0307
1004.00,0.0321
1003.00,0.0332
1002.00,0.0338
1001.00,0.0335
1000.00,0.0323
999.00,0.0303
998.00,0.0278
997.00,0.0253
996.00,0.0229
995.00,0.0210
994.00,0.0196
993.00,0.0187
992.00,0.0182
991.00,0.0181
990.00,0.0184
989.00,0.0189
988.00,0.0194
987.00,0.0200
986.00,0.0205
985.00,0.0207
984.00,0.0205
983.00,0.0199
982.00,0.0191
981.00,0.0181
980.00,0.0172
979.00,0.0166
978.00,0.0161
977.00,0.0158
976.00,0.0155
975.00,0.0153
974.00,0.0151
973.00,0.0150
972.00,0.0152
971.00,0.0154
970.00,0.0159
969.00,0.0164
968.00,0.0171
967.00,0.0178
966.00,0.0187
965.00,0.0198
964.00,0.0210
963.00,0.0223
962.00,0.0233
961.00,0.0238
960.00,0.0234
959.00,0.0223
958.00,0.0207
957.00,0.0189
956.00,0.0172
955.00,0.0157
954.00,0.0146
953.00,0.0137
952.00,0.0130
951.00,0.0125
950.00,0.0122
949.00,0.0118
948.00,0.0115
947.00,0.0113
946.00,0.0111
945.00,0.0110
944.00,0.0108
943.00,0.0107
942.00,0.0106
941.00,0.0105
940.00,0.0104
939.00,0.0103
938.00,0.0103
937.00,0.0102
936.00,0.0103
935.00,0.0104
934.00,0.0105
933.00,0.0107
932.00,0.0108
931.00,0.0110
930.00,0.0112
929.00,0.0113
928.00,0.0114
927.00,0.0114
926.00,0.0114
925.00,0.0113
924.00,0.0113
923.00,0.0112
922.00,0.0112
921.00,0.0113
920.00,0.0115
919.00,0.0118
918.00,0.0122
917.00,0.0127
916.00,0.0131
915.00,0.0133
914.00,0.0134
913.00,0.0133
912.00,0.0131
911.00,0.0131
910.00,0.0133
909.00,0.0137
908.00,0.0145
907.00,0.0155
906.00,0.0168
905.00,0.0184
904.00,0.0202
903.00,0.0222
902.00,0.0247
901.00,0.0278
900.00,0.0318
899.00,0.0363
898.00,0.0408
897.00,0.0441
896.00,0.0455
895.00,0.0445
894.00,0.0418
893.00,0.0382
892.00,0.0347
891.00,0.0318
890.00,0.0300
889.00,0.0296
888.00,0.0309
887.00,0.0341
886.00,0.0389
885.00,0.0445
884.00,0.0493
883.00,0.0517
882.00,0.0508
881.00,0.0470
880.00,0.0416
879.00,0.0362
878.00,0.0315
877.00,0.0280
876.00,0.0255
875.00,0.0240
874.00,0.0234
873.00,0.0234
872.00,0.0241
871.00,0.0250
870.00,0.0257
869.00,0.0258
868.00,0.0255
867.00,0.0251
866.00,0.0251
865.00,0.0260
864.00,0.0276
863.00,0.0294
862.00,0.0309
861.00,0.0317
860.00,0.0318
859.00,0.0315
858.00,0.0313
857.00,0.0315
856.00,0.0322
855.00,0.0331
854.00,0.0340
853.00,0.0348
852.00,0.0355
851.00,0.0358
850.00,0.0356
849.00,0.0349
848.00,0.0338
847.00,0.0325
846.00,0.0314
845.00,0.0306
844.00,0.0300
843.00,0.0295
842.00,0.0289
841.00,0.0283
840.00,0.0277
839.00,0.0273
838.00,0.0271
837.00,0.0273
836.00,0.0278
835.00,0.0285
834.00,0.0295
833.00,0.0307
832.00,0.0319
831.00,0.0331
830.00,0.0342
829.00,0.0351
828.00,0.0357
827.00,0.0358
826.00,0.0352
825.00,0.0340
824.00,0.0322
823.00,0.0301
822.00,0.0279
821.00,0.0257
820.00,0.0236
819.00,0.0217
818.00,0.0201
817.00,0.0188
816.00,0.0179
815.00,0.0172
814.00,0.0168
813.00,0.0164
812.00,0.0161
811.00,0.0161
810.00,0.0165
809.00,0.0175
808.00,0.0195
807.00,0.0225
806.00,0.0260
805.00,0.0288
804.00,0.0300
803.00,0.0293
802.00,0.0272
801.00,0.0247
800.00,0.0223
799.00,0.0203
798.00,0.0187
797.00,0.0175
796.00,0.0167
795.00,0.0161
794.00,0.0158
793.00,0.0156
792.00,0.0155
791.00,0.0154
790.00,0.0152
789.00,0.0151
788.00,0.0151
787.00,0.0152
786.00,0.0153
785.00,0.0153
784.00,0.0151
783.00,0.0147
782.00,0.0142
781.00,0.0139
780.00,0.0138
779.00,0.0137
778.00,0.0136
777.00,0.0135
776.00,0.0134
775.00,0.0132
774.00,0.0131
773.00,0.0130
772.00,0.0131
771.00,0.0132
770.00,0.0132
769.00,0.0130
768.00,0.0128
767.00,0.0125
766.00,0.0121
765.00,0.0117
764.00,0.0113
763.00,0.0111
762.00,0.0109
761.00,0.0108
760.00,0.0108
759.00,0.0108
758.00,0.0110
757.00,0.0112
756.00,0.0117
755.00,0.0124
754.00,0.0133
753.00,0.0144
752.00,0.0153
751.00,0.0160
750.00,0.0164
749.00,0.0166
748.00,0.0165
747.00,0.0159
746.00,0.0149
745.00,0.0139
744.00,0.0130
743.00,0.0123
742.00,0.0118
741.00,0.0114
740.00,0.0112
739.00,0.0111
738.00,0.0111
737.00,0.0113
736.00,0.0116
735.00,0.0122
734.00,0.0130
733.00,0.0140
732.00,0.0150
731.00,0.0156
730.00,0.0157
729.00,0.0152
728.00,0.0145
727.00,0.0138
726.00,0.0133
725.00,0.0129
724.00,0.0127
723.00,0.0124
722.00,0.0122
721.00,0.0121
720.00,0.0120
719.00,0.0118
718.00,0.0116
717.00,0.0113
716.00,0.0110
715.00,0.0106
714.00,0.0104
713.00,0.0103
712.00,0.0102
711.00,0.0102
710.00,0.0101
709.00,0.0100
708.00,0.0099
707.00,0.0098
706.00,0.0096
705.00,0.0094
704.00,0.0093
703.00,0.0091
702.00,0.0091
701.00,0.0091
700.00,0.0090
699.00,0.0090
698.00,0.0090
697.00,0.0089
696.00,0.0090
695.00,0.0090
694.00,0.0090
693.00,0.0090
692.00,0.0089
691.00,0.0090
690.00,0.0090
689.00,0.0090
688.00,0.0091
687.00,0.0092
686.00,0.0093
685.00,0.0094
684.00,0.0095
683.00,0.0095
682.00,0.0096
681.00,0.0097
680.00,0.0099
679.00,0.0101
678.00,0.0103
677.00,0.0105
676.00,0.0108
675.00,0.0111
674.00,0.0116
673.00,0.0121
672.00,0.0127
671.00,0.0134
670.00,0.0142
669.00,0.0149
668.00,0.0155
667.00,0.0159
666.00,0.0160
665.00,0.0161
664.00,0.0163
663.00,0.0165
662.00,0.0166
661.00,0.0167
660.00,0.0167
659.00,0.0168
658.00,0.0167
657.00,0.0166
656.00,0.0164
655.00,0.0163
654.00,0.0162
653.00,0.0163
652.00,0.0167
651.00,0.0172
650.00,0.0177
649.00,0.0181
648.00,0.0181
647.00,0.0178
646.00,0.0172
645.00,0.0165
644.00,0.0158
643.00,0.0151
642.00,0.0146
641.00,0.0141
640.00,0.0137
639.00,0.0135
638.00,0.0133
637.00,0.0132
636.00,0.0133
635.00,0.0135
634.00,0.0137
633.00,0.0140
632.00,0.0143
631.00,0.0146
630.00,0.0149
629.00,0.0152
628.00,0.0155
627.00,0.0159
626.00,0.0162
625.00,0.0166
624.00,0.0168
623.00,0.0168
622.00,0.0167
621.00,0.0162
620.00,0.0155
619.00,0.0147
618.00,0.0138
617.00,0.0133
616.00,0.0132
615.00,0.0137
614.00,0.0149
613.00,0.0164
612.00,0.0179
611.00,0.0189
610.00,0.0192
609.00,0.0189
608.00,0.0184
607.00,0.0181
606.00,0.0181
605.00,0.0183
604.00,0.0187
603.00,0.0191
602.00,0.0196
601.00,0.0202
600.00,0.0208
599.00,0.0215
598.00,0.0219
597.00,0.0220
596.00,0.0219
595.00,0.0218
594.00,0.0220
593.00,0.0225
592.00,0.0234
591.00,0.0245
590.00,0.0258
589.00,0.0270
588.00,0.0279
587.00,0.0286
586.00,0.0287
585.00,0.0284
584.00,0.0277
583.00,0.0268
582.00,0.0256
581.00,0.0245
580.00,0.0233
579.00,0.0224
578.00,0.0217
577.00,0.0214
576.00,0.0212
575.00,0.0213
574.00,0.0216
573.00,0.0219
572.00,0.0223
571.00,0.0227
570.00,0.0230
569.00,0.0232
568.00,0.0234
567.00,0.0237
566.00,0.0239
565.00,0.0241
564.00,0.0242
563.00,0.0242
562.00,0.0242
561.00,0.0242
560.00,0.0242
559.00,0.0241
558.00,0.0240
557.00,0.0239
556.00,0.0238
555.00,0.0240
554.00,0.0243
553.00,0.0248
552.00,0.0253
551.00,0.0260
550.00,0.0267
549.00,0.0273
548.00,0.0277
547.00,0.0281
546.00,0.0287
545.00,0.0294
544.00,0.0300
543.00,0.0305
542.00,0.0309
541.00,0.0315
540.00,0.0325
539.00,0.0339
538.00,0.0356
537.00,0.0374
536.00,0.0386
535.00,0.0390
534.00,0.0386
533.00,0.0378
532.00,0.0370
531.00,0.0363
530.00,0.0358
529.00,0.0355
528.00,0.0358
527.00,0.0367
526.00,0.0384
525.00,0.0406
524.00,0.0430
523.00,0.0452
522.00,0.0467
521.00,0.0466
520.00,0.0447
519.00,0.0415
518.00,0.0378
517.00,0.0346
516.00,0.0323
515.00,0.0309
514.00,0.0300
513.00,0.0296
512.00,0.0295
511.00,0.0297
510.00,0.0302
509.00,0.0311
508.00,0.0321
507.00,0.0334
506.00,0.0348
505.00,0.0363
504.00,0.0379
503.00,0.0397
502.00,0.0416
501.00,0.0436
500.00,0.0454
499.00,0.0469
498.00,0.0481
497.00,0.0491
496.00,0.0499
495.00,0.0503
494.00,0.0504
493.00,0.0503
492.00,0.0501
491.00,0.0499
490.00,0.0496
489.00,0.0493
488.00,0.0491
487.00,0.0490
486.00,0.0488
485.00,0.0486
484.00,0.0484
483.00,0.0481
482.00,0.0473
481.00,0.0463
480.00,0.0451
479.00,0.0439
478.00,0.0430
477.00,0.0425
476.00,0.0422
475.00,0.0422
474.00,0.0424
473.00,0.0428
472.00,0.0434
471.00,0.0442
470.00,0.0452
469.00,0.0462
468.00,0.0470
467.00,0.0472
466.00,0.0468
465.00,0.0462
464.00,0.0458
463.00,0.0456
462.00,0.0456
461.00,0.0456
460.00,0.0456
459.00,0.0455
458.00,0.0451
457.00,0.0447
456.00,0.0445
455.00,0.0443
454.00,0.0441
453.00,0.0437
452.00,0.0432
451.00,0.0428
450.00,0.0424
449.00,0.0419
448.00,0.0415
447.00,0.0412
446.00,0.0408
445.00,0.0404
444.00,0.0399
443.00,0.0392
442.00,0.0386
441.00,0.0382
440.00,0.0379
439.00,0.0378
438.00,0.0377
437.00,0.0380
436.00,0.0383
435.00,0.0384
434.00,0.0381
433.00,0.0377
432.00,0.0377
431.00,0.0382
430.00,0.0395
429.00,0.0414
428.00,0.0438
427.00,0.0459
426.00,0.0473
425.00,0.0481
424.00,0.0484
423.00,0.0483
422.00,0.0480
421.00,0.0475
420.00,0.0469
419.00,0.0458
418.00,0.0445
417.00,0.0437
416.00,0.0436
415.00,0.0441
414.00,0.0448
413.00,0.0456
412.00,0.0464
411.00,0.0471
410.00,0.0475
409.00,0.0481
408.00,0.0490
407.00,0.0505
406.00,0.0524
405.00,0.0545
404.00,0.0560
403.00,0.0563
402.00,0.0553
401.00,0.0541
400.00,0.0540
