Created as New Dataset,Sample 926 By YargerLab Date Saturday, July 26 2025
cm-1,A
4000.00,0.0041
3999.00,0.0041
3998.00,0.0041
3997.00,0.0041
3996.00,0.0041
3995.00,0.0041
3994.00,0.0041
3993.00,0.0041
3992.00,0.0041
3991.00,0.0041
3990.00,0.0041
3989.00,0.0041
3988.00,0.0041
3987.00,0.0041
3986.00,0.0041
3985.00,0.0041
3984.00,0.0041
3983.00,0.0041
3982.00,0.0041
3981.00,0.0041
3980.00,0.0041
3979.00,0.0040
3978.00,0.0040
3977.00,0.0040
3976.00,0.0040
3975.00,0.0040
3974.00,0.0040
3973.00,0.0040
3972.00,0.0040
3971.00,0.0040
3970.00,0.0040
3969.00,0.0040
3968.00,0.0041
3967.00,0.0041
3966.00,0.0041
3965.00,0.0040
3964.00,0.0040
3963.00,0.0040
3962.00,0.0040
3961.00,0.0040
3960.00,0.0040
3959.00,0.0040
3958.00,0.0040
3957.00,0.0040
3956.00,0.0040
3955.00,0.0040
3954.00,0.0040
3953.00,0.0040
3952.00,0.0040
3951.00,0.0040
3950.00,0.0040
3949.00,0.0040
3948.00,0.0040
3947.00,0.0040
3946.00,0.0040
3945.00,0.0040
3944.00,0.0041
3943.00,0.0041
3942.00,0.0041
3941.00,0.0040
3940.00,0.0040
3939.00,0.0040
3938.00,0.0040
3937.00,0.0040
3936.00,0.0040
3935.00,0.0040
3934.00,0.0040
3933.00,0.0040
3932.00,0.0040
3931.00,0.0040
3930.00,0.0040
3929.00,0.0040
3928.00,0.0040
3927.00,0.0040
3926.00,0.0040
3925.00,0.0041
3924.00,0.0041
3923.00,0.0040
3922.00,0.0040
3921.00,0.0040
3920.00,0.0040
3919.00,0.0040
3918.00,0.0040
3917.00,0.0040
3916.00,0.0040
3915.00,0.0041
3914.00,0.0041
3913.00,0.0041
3912.00,0.0041
3911.00,0.0041
3910.00,0.0041
3909.00,0.0041
3908.00,0.0041
3907.00,0.0040
3906.00,0.0040
3905.00,0.0040
3904.00,0.0040
3903.00,0.0040
3902.00,0.0040
3901.00,0.0040
3900.00,0.0040
3899.00,0.0040
3898.00,0.0040
3897.00,0.0040
3896.00,0.0040
3895.00,0.0040
3894.00,0.0040
3893.00,0.0040
3892.00,0.0040
3891.00,0.0041
3890.00,0.0041
3889.00,0.0040
3888.00,0.0040
3887.00,0.0040
3886.00,0.0040
3885.00,0.0040
3884.00,0.0040
3883.00,0.0040
3882.00,0.0039
3881.00,0.0040
3880.00,0.0040
3879.00,0.0040
3878.00,0.0040
3877.00,0.0040
3876.00,0.0040
3875.00,0.0040
3874.00,0.0040
3873.00,0.0040
3872.00,0.0039
3871.00,0.0039
3870.00,0.0040
3869.00,0.0040
3868.00,0.0040
3867.00,0.0039
3866.00,0.0039
3865.00,0.0039
3864.00,0.0040
3863.00,0.0040
3862.00,0.0040
3861.00,0.0040
3860.00,0.0040
3859.00,0.0040
3858.00,0.0041
3857.00,0.0041
3856.00,0.0040
3855.00,0.0040
3854.00,0.0040
3853.00,0.0040
3852.00,0.0039
3851.00,0.0038
3850.00,0.0038
3849.00,0.0039
3848.00,0.0039
3847.00,0.0039
3846.00,0.0040
3845.00,0.0040
3844.00,0.0040
3843.00,0.0040
3842.00,0.0039
3841.00,0.0039
3840.00,0.0039
3839.00,0.0039
3838.00,0.0039
3837.00,0.0039
3836.00,0.0039
3835.00,0.0039
3834.00,0.0039
3833.00,0.0040
3832.00,0.0040
3831.00,0.0040
3830.00,0.0040
3829.00,0.0040
3828.00,0.0040
3827.00,0.0040
3826.00,0.0041
3825.00,0.0041
3824.00,0.0041
3823.00,0.0040
3822.00,0.0040
3821.00,0.0041
3820.00,0.0040
3819.00,0.0040
3818.00,0.0040
3817.00,0.0040
3816.00,0.0041
3815.00,0.0041
3814.00,0.0041
3813.00,0.0041
3812.00,0.0041
3811.00,0.0041
3810.00,0.0041
3809.00,0.0040
3808.00,0.0040
3807.00,0.0040
3806.00,0.0040
3805.00,0.0040
3804.00,0.0039
3803.00,0.0039
3802.00,0.0040
3801.00,0.0040
3800.00,0.0040
3799.00,0.0039
3798.00,0.0040
3797.00,0.0040
3796.00,0.0041
3795.00,0.0041
3794.00,0.0041
3793.00,0.0041
3792.00,0.0041
3791.00,0.0041
3790.00,0.0041
3789.00,0.0041
3788.00,0.0041
3787.00,0.0041
3786.00,0.0041
3785.00,0.0041
3784.00,0.0041
3783.00,0.0041
3782.00,0.0041
3781.00,0.0041
3780.00,0.0041
3779.00,0.0041
3778.00,0.0041
3777.00,0.0041
3776.00,0.0041
3775.00,0.0041
3774.00,0.0041
3773.00,0.0041
3772.00,0.0041
3771.00,0.0041
3770.00,0.0041
3769.00,0.0041
3768.00,0.0041
3767.00,0.0041
3766.00,0.0041
3765.00,0.0041
3764.00,0.0041
3763.00,0.0040
3762.00,0.0040
3761.00,0.0040
3760.00,0.0041
3759.00,0.0041
3758.00,0.0041
3757.00,0.0041
3756.00,0.0040
3755.00,0.0040
3754.00,0.0040
3753.00,0.0040
3752.00,0.0041
3751.00,0.0041
3750.00,0.0041
3749.00,0.0040
3748.00,0.0040
3747.00,0.0040
3746.00,0.0040
3745.00,0.0040
3744.00,0.0040
3743.00,0.0040
3742.00,0.0039
3741.00,0.0039
3740.00,0.0039
3739.00,0.0039
3738.00,0.0039
3737.00,0.0038
3736.00,0.0038
3735.00,0.0038
3734.00,0.0039
3733.00,0.0039
3732.00,0.0039
3731.00,0.0039
3730.00,0.0039
3729.00,0.0039
3728.00,0.0039
3727.00,0.0039
3726.00,0.0039
3725.00,0.0039
3724.00,0.0039
3723.00,0.0039
3722.00,0.0039
3721.00,0.0039
3720.00,0.0039
3719.00,0.0039
3718.00,0.0040
3717.00,0.0040
3716.00,0.0040
3715.00,0.0040
3714.00,0.0040
3713.00,0.0040
3712.00,0.0040
3711.00,0.0039
3710.00,0.0039
3709.00,0.0039
3708.00,0.0039
3707.00,0.0039
3706.00,0.0039
3705.00,0.0040
3704.00,0.0040
3703.00,0.0040
3702.00,0.0040
3701.00,0.0040
3700.00,0.0040
3699.00,0.0040
3698.00,0.0040
3697.00,0.0040
3696.00,0.0040
3695.00,0.0040
3694.00,0.0040
3693.00,0.0040
3692.00,0.0040
3691.00,0.0040
3690.00,0.0040
3689.00,0.0041
3688.00,0.0041
3687.00,0.0041
3686.00,0.0042
3685.00,0.0042
3684.00,0.0043
3683.00,0.0043
3682.00,0.0043
3681.00,0.0043
3680.00,0.0043
3679.00,0.0042
3678.00,0.0042
3677.00,0.0042
3676.00,0.0043
3675.00,0.0043
3674.00,0.0044
3673.00,0.0044
3672.00,0.0044
3671.00,0.0044
3670.00,0.0045
3669.00,0.0045
3668.00,0.0045
3667.00,0.0045
3666.00,0.0046
3665.00,0.0046
3664.00,0.0047
3663.00,0.0047
3662.00,0.0047
3661.00,0.0047
3660.00,0.0047
3659.00,0.0048
3658.00,0.0048
3657.00,0.0048
3656.00,0.0049
3655.00,0.0049
3654.00,0.0049
3653.00,0.0049
3652.00,0.0049
3651.00,0.0049
3650.00,0.0049
3649.00,0.0049
3648.00,0.0049
3647.00,0.0050
3646.00,0.0051
3645.00,0.0052
3644.00,0.0052
3643.00,0.0053
3642.00,0.0054
3641.00,0.0054
3640.00,0.0055
3639.00,0.0055
3638.00,0.0056
3637.00,0.0057
3636.00,0.0057
3635.00,0.0058
3634.00,0.0059
3633.00,0.0059
3632.00,0.0059
3631.00,0.0059
3630.00,0.0060
3629.00,0.0060
3628.00,0.0061
3627.00,0.0061
3626.00,0.0062
3625.00,0.0063
3624.00,0.0064
3623.00,0.0064
3622.00,0.0065
3621.00,0.0065
3620.00,0.0066
3619.00,0.0067
3618.00,0.0067
3617.00,0.0068
3616.00,0.0069
3615.00,0.0070
3614.00,0.0071
3613.00,0.0072
3612.00,0.0073
3611.00,0.0074
3610.00,0.0075
3609.00,0.0075
3608.00,0.0076
3607.00,0.0077
3606.00,0.0078
3605.00,0.0078
3604.00,0.0079
3603.00,0.0080
3602.00,0.0081
3601.00,0.0082
3600.00,0.0083
3599.00,0.0084
3598.00,0.0085
3597.00,0.0086
3596.00,0.0086
3595.00,0.0087
3594.00,0.0088
3593.00,0.0089
3592.00,0.0091
3591.00,0.0092
3590.00,0.0093
3589.00,0.0094
3588.00,0.0095
3587.00,0.0096
3586.00,0.0097
3585.00,0.0098
3584.00,0.0099
3583.00,0.0100
3582.00,0.0101
3581.00,0.0103
3580.00,0.0104
3579.00,0.0105
3578.00,0.0107
3577.00,0.0108
3576.00,0.0109
3575.00,0.0111
3574.00,0.0112
3573.00,0.0113
3572.00,0.0114
3571.00,0.0115
3570.00,0.0116
3569.00,0.0117
3568.00,0.0118
3567.00,0.0119
3566.00,0.0120
3565.00,0.0121
3564.00,0.0123
3563.00,0.0124
3562.00,0.0126
3561.00,0.0127
3560.00,0.0129
3559.00,0.0130
3558.00,0.0131
3557.00,0.0132
3556.00,0.0133
3555.00,0.0135
3554.00,0.0136
3553.00,0.0137
3552.00,0.0138
3551.00,0.0139
3550.00,0.0140
3549.00,0.0141
3548.00,0.0142
3547.00,0.0143
3546.00,0.0144
3545.00,0.0145
3544.00,0.0146
3543.00,0.0147
3542.00,0.0148
3541.00,0.0149
3540.00,0.0150
3539.00,0.0151
3538.00,0.0153
3537.00,0.0154
3536.00,0.0154
3535.00,0.0155
3534.00,0.0156
3533.00,0.0157
3532.00,0.0158
3531.00,0.0159
3530.00,0.0160
3529.00,0.0161
3528.00,0.0162
3527.00,0.0163
3526.00,0.0163
3525.00,0.0164
3524.00,0.0164
3523.00,0.0165
3522.00,0.0166
3521.00,0.0167
3520.00,0.0168
3519.00,0.0168
3518.00,0.0169
3517.00,0.0170
3516.00,0.0171
3515.00,0.0171
3514.00,0.0172
3513.00,0.0172
3512.00,0.0173
3511.00,0.0174
3510.00,0.0174
3509.00,0.0175
3508.00,0.0175
3507.00,0.0176
3506.00,0.0177
3505.00,0.0177
3504.00,0.0177
3503.00,0.0178
3502.00,0.0178
3501.00,0.0179
3500.00,0.0179
3499.00,0.0180
3498.00,0.0181
3497.00,0.0182
3496.00,0.0182
3495.00,0.0182
3494.00,0.0183
3493.00,0.0183
3492.00,0.0184
3491.00,0.0184
3490.00,0.0185
3489.00,0.0185
3488.00,0.0185
3487.00,0.0186
3486.00,0.0186
3485.00,0.0187
3484.00,0.0187
3483.00,0.0188
3482.00,0.0189
3481.00,0.0189
3480.00,0.0190
3479.00,0.0191
3478.00,0.0191
3477.00,0.0192
3476.00,0.0192
3475.00,0.0192
3474.00,0.0193
3473.00,0.0193
3472.00,0.0194
3471.00,0.0195
3470.00,0.0196
3469.00,0.0197
3468.00,0.0197
3467.00,0.0198
3466.00,0.0198
3465.00,0.0198
3464.00,0.0199
3463.00,0.0199
3462.00,0.0200
3461.00,0.0200
3460.00,0.0200
3459.00,0.0201
3458.00,0.0201
3457.00,0.0202
3456.00,0.0202
3455.00,0.0203
3454.00,0.0203
3453.00,0.0204
3452.00,0.0204
3451.00,0.0204
3450.00,0.0205
3449.00,0.0205
3448.00,0.0205
3447.00,0.0205
3446.00,0.0206
3445.00,0.0206
3444.00,0.0207
3443.00,0.0207
3442.00,0.0208
3441.00,0.0208
3440.00,0.0209
3439.00,0.0209
3438.00,0.0210
3437.00,0.0210
3436.00,0.0211
3435.00,0.0211
3434.00,0.0211
3433.00,0.0211
3432.00,0.0212
3431.00,0.0212
3430.00,0.0212
3429.00,0.0213
3428.00,0.0213
3427.00,0.0214
3426.00,0.0214
3425.00,0.0214
3424.00,0.0214
3423.00,0.0215
3422.00,0.0215
3421.00,0.0215
3420.00,0.0215
3419.00,0.0216
3418.00,0.0216
3417.00,0.0216
3416.00,0.0217
3415.00,0.0217
3414.00,0.0217
3413.00,0.0218
3412.00,0.0218
3411.00,0.0219
3410.00,0.0219
3409.00,0.0219
3408.00,0.0219
3407.00,0.0219
3406.00,0.0219
3405.00,0.0219
3404.00,0.0219
3403.00,0.0218
3402.00,0.0218
3401.00,0.0218
3400.00,0.0218
3399.00,0.0218
3398.00,0.0217
3397.00,0.0217
3396.00,0.0217
3395.00,0.0216
3394.00,0.0216
3393.00,0.0215
3392.00,0.0215
3391.00,0.0214
3390.00,0.0214
3389.00,0.0213
3388.00,0.0213
3387.00,0.0212
3386.00,0.0212
3385.00,0.0211
3384.00,0.0210
3383.00,0.0210
3382.00,0.0209
3381.00,0.0209
3380.00,0.0208
3379.00,0.0207
3378.00,0.0206
3377.00,0.0206
3376.00,0.0205
3375.00,0.0204
3374.00,0.0203
3373.00,0.0202
3372.00,0.0201
3371.00,0.0200
3370.00,0.0199
3369.00,0.0199
3368.00,0.0198
3367.00,0.0198
3366.00,0.0197
3365.00,0.0197
3364.00,0.0196
3363.00,0.0195
3362.00,0.0195
3361.00,0.0194
3360.00,0.0194
3359.00,0.0193
3358.00,0.0193
3357.00,0.0193
3356.00,0.0192
3355.00,0.0191
3354.00,0.0190
3353.00,0.0189
3352.00,0.0188
3351.00,0.0188
3350.00,0.0188
3349.00,0.0188
3348.00,0.0188
3347.00,0.0187
3346.00,0.0187
3345.00,0.0186
3344.00,0.0185
3343.00,0.0185
3342.00,0.0184
3341.00,0.0183
3340.00,0.0183
3339.00,0.0182
3338.00,0.0182
3337.00,0.0182
3336.00,0.0182
3335.00,0.0182
3334.00,0.0182
3333.00,0.0182
3332.00,0.0181
3331.00,0.0181
3330.00,0.0180
3329.00,0.0180
3328.00,0.0179
3327.00,0.0179
3326.00,0.0178
3325.00,0.0178
3324.00,0.0179
3323.00,0.0179
3322.00,0.0179
3321.00,0.0179
3320.00,0.0179
3319.00,0.0179
3318.00,0.0179
3317.00,0.0179
3316.00,0.0179
3315.00,0.0179
3314.00,0.0178
3313.00,0.0177
3312.00,0.0177
3311.00,0.0175
3310.00,0.0174
3309.00,0.0173
3308.00,0.0173
3307.00,0.0172
3306.00,0.0172
3305.00,0.0173
3304.00,0.0174
3303.00,0.0175
3302.00,0.0176
3301.00,0.0176
3300.00,0.0176
3299.00,0.0176
3298.00,0.0175
3297.00,0.0175
3296.00,0.0174
3295.00,0.0174
3294.00,0.0174
3293.00,0.0174
3292.00,0.0174
3291.00,0.0175
3290.00,0.0175
3289.00,0.0176
3288.00,0.0176
3287.00,0.0176
3286.00,0.0176
3285.00,0.0176
3284.00,0.0176
3283.00,0.0176
3282.00,0.0176
3281.00,0.0175
3280.00,0.0175
3279.00,0.0175
3278.00,0.0174
3277.00,0.0174
3276.00,0.0173
3275.00,0.0172
3274.00,0.0172
3273.00,0.0171
3272.00,0.0171
3271.00,0.0170
3270.00,0.0170
3269.00,0.0171
3268.00,0.0171
3267.00,0.0171
3266.00,0.0171
3265.00,0.0171
3264.00,0.0171
3263.00,0.0170
3262.00,0.0170
3261.00,0.0170
3260.00,0.0170
3259.00,0.0169
3258.00,0.0169
3257.00,0.0168
3256.00,0.0167
3255.00,0.0167
3254.00,0.0167
3253.00,0.0166
3252.00,0.0166
3251.00,0.0166
3250.00,0.0165
3249.00,0.0165
3248.00,0.0164
3247.00,0.0164
3246.00,0.0163
3245.00,0.0163
3244.00,0.0163
3243.00,0.0162
3242.00,0.0162
3241.00,0.0161
3240.00,0.0161
3239.00,0.0160
3238.00,0.0160
3237.00,0.0159
3236.00,0.0159
3235.00,0.0158
3234.00,0.0157
3233.00,0.0157
3232.00,0.0156
3231.00,0.0156
3230.00,0.0155
3229.00,0.0155
3228.00,0.0154
3227.00,0.0154
3226.00,0.0153
3225.00,0.0153
3224.00,0.0152
3223.00,0.0151
3222.00,0.0150
3221.00,0.0149
3220.00,0.0149
3219.00,0.0148
3218.00,0.0148
3217.00,0.0147
3216.00,0.0147
3215.00,0.0146
3214.00,0.0145
3213.00,0.0145
3212.00,0.0144
3211.00,0.0144
3210.00,0.0143
3209.00,0.0142
3208.00,0.0141
3207.00,0.0140
3206.00,0.0139
3205.00,0.0139
3204.00,0.0138
3203.00,0.0138
3202.00,0.0137
3201.00,0.0136
3200.00,0.0136
3199.00,0.0135
3198.00,0.0134
3197.00,0.0133
3196.00,0.0132
3195.00,0.0131
3194.00,0.0131
3193.00,0.0130
3192.00,0.0129
3191.00,0.0128
3190.00,0.0128
3189.00,0.0127
3188.00,0.0126
3187.00,0.0125
3186.00,0.0125
3185.00,0.0124
3184.00,0.0124
3183.00,0.0123
3182.00,0.0122
3181.00,0.0122
3180.00,0.0121
3179.00,0.0120
3178.00,0.0119
3177.00,0.0118
3176.00,0.0118
3175.00,0.0117
3174.00,0.0116
3173.00,0.0116
3172.00,0.0115
3171.00,0.0115
3170.00,0.0114
3169.00,0.0114
3168.00,0.0113
3167.00,0.0112
3166.00,0.0111
3165.00,0.0111
3164.00,0.0110
3163.00,0.0109
3162.00,0.0109
3161.00,0.0108
3160.00,0.0107
3159.00,0.0107
3158.00,0.0106
3157.00,0.0106
3156.00,0.0105
3155.00,0.0105
3154.00,0.0104
3153.00,0.0104
3152.00,0.0103
3151.00,0.0102
3150.00,0.0102
3149.00,0.0101
3148.00,0.0100
3147.00,0.0100
3146.00,0.0099
3145.00,0.0099
3144.00,0.0099
3143.00,0.0098
3142.00,0.0098
3141.00,0.0097
3140.00,0.0097
3139.00,0.0096
3138.00,0.0096
3137.00,0.0096
3136.00,0.0095
3135.00,0.0095
3134.00,0.0094
3133.00,0.0094
3132.00,0.0093
3131.00,0.0093
3130.00,0.0093
3129.00,0.0092
3128.00,0.0092
3127.00,0.0092
3126.00,0.0091
3125.00,0.0091
3124.00,0.0090
3123.00,0.0090
3122.00,0.0089
3121.00,0.0089
3120.00,0.0089
3119.00,0.0088
3118.00,0.0088
3117.00,0.0088
3116.00,0.0087
3115.00,0.0087
3114.00,0.0087
3113.00,0.0087
3112.00,0.0086
3111.00,0.0086
3110.00,0.0085
3109.00,0.0085
3108.00,0.0085
3107.00,0.0085
3106.00,0.0084
3105.00,0.0084
3104.00,0.0083
3103.00,0.0083
3102.00,0.0082
3101.00,0.0082
3100.00,0.0082
3099.00,0.0081
3098.00,0.0081
3097.00,0.0081
3096.00,0.0081
3095.00,0.0081
3094.00,0.0080
3093.00,0.0080
3092.00,0.0080
3091.00,0.0080
3090.00,0.0080
3089.00,0.0080
3088.00,0.0080
3087.00,0.0080
3086.00,0.0079
3085.00,0.0079
3084.00,0.0079
3083.00,0.0079
3082.00,0.0078
3081.00,0.0078
3080.00,0.0077
3079.00,0.0077
3078.00,0.0077
3077.00,0.0077
3076.00,0.0077
3075.00,0.0076
3074.00,0.0076
3073.00,0.0076
3072.00,0.0076
3071.00,0.0076
3070.00,0.0076
3069.00,0.0075
3068.00,0.0075
3067.00,0.0075
3066.00,0.0075
3065.00,0.0075
3064.00,0.0075
3063.00,0.0075
3062.00,0.0075
3061.00,0.0075
3060.00,0.0075
3059.00,0.0075
3058.00,0.0075
3057.00,0.0075
3056.00,0.0075
3055.00,0.0074
3054.00,0.0074
3053.00,0.0074
3052.00,0.0074
3051.00,0.0074
3050.00,0.0074
3049.00,0.0074
3048.00,0.0074
3047.00,0.0073
3046.00,0.0073
3045.00,0.0073
3044.00,0.0073
3043.00,0.0073
3042.00,0.0073
3041.00,0.0073
3040.00,0.0073
3039.00,0.0073
3038.00,0.0073
3037.00,0.0073
3036.00,0.0074
3035.00,0.0074
3034.00,0.0074
3033.00,0.0074
3032.00,0.0074
3031.00,0.0074
3030.00,0.0074
3029.00,0.0074
3028.00,0.0074
3027.00,0.0074
3026.00,0.0074
3025.00,0.0074
3024.00,0.0074
3023.00,0.0074
3022.00,0.0074
3021.00,0.0074
3020.00,0.0075
3019.00,0.0075
3018.00,0.0076
3017.00,0.0076
3016.00,0.0077
3015.00,0.0077
3014.00,0.0078
3013.00,0.0078
3012.00,0.0079
3011.00,0.0080
3010.00,0.0081
3009.00,0.0083
3008.00,0.0084
3007.00,0.0085
3006.00,0.0087
3005.00,0.0089
3004.00,0.0091
3003.00,0.0093
3002.00,0.0095
3001.00,0.0098
3000.00,0.0100
2999.00,0.0103
2998.00,0.0106
2997.00,0.0109
2996.00,0.0112
2995.00,0.0115
2994.00,0.0118
2993.00,0.0121
2992.00,0.0124
2991.00,0.0127
2990.00,0.0129
2989.00,0.0132
2988.00,0.0135
2987.00,0.0138
2986.00,0.0141
2985.00,0.0143
2984.00,0.0146
2983.00,0.0149
2982.00,0.0152
2981.00,0.0155
2980.00,0.0159
2979.00,0.0162
2978.00,0.0164
2977.00,0.0166
2976.00,0.0168
2975.00,0.0170
2974.00,0.0172
2973.00,0.0175
2972.00,0.0179
2971.00,0.0182
2970.00,0.0186
2969.00,0.0189
2968.00,0.0191
2967.00,0.0194
2966.00,0.0196
2965.00,0.0199
2964.00,0.0202
2963.00,0.0204
2962.00,0.0207
2961.00,0.0210
2960.00,0.0212
2959.00,0.0213
2958.00,0.0214
2957.00,0.0215
2956.00,0.0214
2955.00,0.0214
2954.00,0.0213
2953.00,0.0212
2952.00,0.0210
2951.00,0.0209
2950.00,0.0208
2949.00,0.0207
2948.00,0.0207
2947.00,0.0206
2946.00,0.0205
2945.00,0.0205
2944.00,0.0204
2943.00,0.0204
2942.00,0.0205
2941.00,0.0205
2940.00,0.0206
2939.00,0.0207
2938.00,0.0208
2937.00,0.0209
2936.00,0.0212
2935.00,0.0214
2934.00,0.0217
2933.00,0.0221
2932.00,0.0224
2931.00,0.0228
2930.00,0.0232
2929.00,0.0235
2928.00,0.0238
2927.00,0.0240
2926.00,0.0242
2925.00,0.0242
2924.00,0.0242
2923.00,0.0240
2922.00,0.0238
2921.00,0.0236
2920.00,0.0234
2919.00,0.0231
2918.00,0.0227
2917.00,0.0224
2916.00,0.0220
2915.00,0.0216
2914.00,0.0213
2913.00,0.0209
2912.00,0.0206
2911.00,0.0203
2910.00,0.0200
2909.00,0.0197
2908.00,0.0195
2907.00,0.0192
2906.00,0.0190
2905.00,0.0188
2904.00,0.0186
2903.00,0.0185
2902.00,0.0183
2901.00,0.0183
2900.00,0.0182
2899.00,0.0181
2898.00,0.0181
2897.00,0.0180
2896.00,0.0180
2895.00,0.0180
2894.00,0.0180
2893.00,0.0179
2892.00,0.0179
2891.00,0.0179
2890.00,0.0178
2889.00,0.0178
2888.00,0.0177
2887.00,0.0177
2886.00,0.0177
2885.00,0.0176
2884.00,0.0176
2883.00,0.0176
2882.00,0.0175
2881.00,0.0175
2880.00,0.0175
2879.00,0.0175
2878.00,0.0176
2877.00,0.0176
2876.00,0.0176
2875.00,0.0176
2874.00,0.0177
2873.00,0.0177
2872.00,0.0176
2871.00,0.0176
2870.00,0.0175
2869.00,0.0175
2868.00,0.0174
2867.00,0.0173
2866.00,0.0172
2865.00,0.0172
2864.00,0.0172
2863.00,0.0172
2862.00,0.0173
2861.00,0.0174
2860.00,0.0176
2859.00,0.0177
2858.00,0.0178
2857.00,0.0179
2856.00,0.0179
2855.00,0.0178
2854.00,0.0176
2853.00,0.0174
2852.00,0.0171
2851.00,0.0168
2850.00,0.0164
2849.00,0.0159
2848.00,0.0155
2847.00,0.0150
2846.00,0.0145
2845.00,0.0141
2844.00,0.0137
2843.00,0.0133
2842.00,0.0129
2841.00,0.0125
2840.00,0.0122
2839.00,0.0119
2838.00,0.0116
2837.00,0.0114
2836.00,0.0113
2835.00,0.0111
2834.00,0.0109
2833.00,0.0107
2832.00,0.0105
2831.00,0.0104
2830.00,0.0102
2829.00,0.0100
2828.00,0.0099
2827.00,0.0097
2826.00,0.0096
2825.00,0.0094
2824.00,0.0093
2823.00,0.0091
2822.00,0.0090
2821.00,0.0089
2820.00,0.0088
2819.00,0.0087
2818.00,0.0086
2817.00,0.0086
2816.00,0.0085
2815.00,0.0084
2814.00,0.0083
2813.00,0.0083
2812.00,0.0082
2811.00,0.0082
2810.00,0.0081
2809.00,0.0080
2808.00,0.0080
2807.00,0.0079
2806.00,0.0079
2805.00,0.0078
2804.00,0.0078
2803.00,0.0078
2802.00,0.0077
2801.00,0.0077
2800.00,0.0076
2799.00,0.0076
2798.00,0.0076
2797.00,0.0075
2796.00,0.0075
2795.00,0.0075
2794.00,0.0075
2793.00,0.0074
2792.00,0.0074
2791.00,0.0074
2790.00,0.0073
2789.00,0.0073
2788.00,0.0073
2787.00,0.0073
2786.00,0.0073
2785.00,0.0072
2784.00,0.0072
2783.00,0.0072
2782.00,0.0072
2781.00,0.0071
2780.00,0.0071
2779.00,0.0071
2778.00,0.0071
2777.00,0.0070
2776.00,0.0070
2775.00,0.0070
2774.00,0.0070
2773.00,0.0070
2772.00,0.0070
2771.00,0.0070
2770.00,0.0069
2769.00,0.0069
2768.00,0.0069
2767.00,0.0069
2766.00,0.0069
2765.00,0.0069
2764.00,0.0069
2763.00,0.0069
2762.00,0.0068
2761.00,0.0068
2760.00,0.0068
2759.00,0.0068
2758.00,0.0068
2757.00,0.0068
2756.00,0.0068
2755.00,0.0068
2754.00,0.0068
2753.00,0.0068
2752.00,0.0068
2751.00,0.0068
2750.00,0.0068
2749.00,0.0067
2748.00,0.0067
2747.00,0.0067
2746.00,0.0067
2745.00,0.0067
2744.00,0.0067
2743.00,0.0067
2742.00,0.0067
2741.00,0.0067
2740.00,0.0068
2739.00,0.0068
2738.00,0.0068
2737.00,0.0068
2736.00,0.0068
2735.00,0.0068
2734.00,0.0068
2733.00,0.0068
2732.00,0.0068
2731.00,0.0068
2730.00,0.0068
2729.00,0.0068
2728.00,0.0068
2727.00,0.0068
2726.00,0.0068
2725.00,0.0067
2724.00,0.0067
2723.00,0.0067
2722.00,0.0067
2721.00,0.0067
2720.00,0.0067
2719.00,0.0066
2718.00,0.0066
2717.00,0.0066
2716.00,0.0066
2715.00,0.0066
2714.00,0.0066
2713.00,0.0066
2712.00,0.0066
2711.00,0.0066
2710.00,0.0066
2709.00,0.0066
2708.00,0.0066
2707.00,0.0066
2706.00,0.0066
2705.00,0.0066
2704.00,0.0066
2703.00,0.0066
2702.00,0.0065
2701.00,0.0065
2700.00,0.0065
2699.00,0.0065
2698.00,0.0065
2697.00,0.0064
2696.00,0.0064
2695.00,0.0064
2694.00,0.0064
2693.00,0.0064
2692.00,0.0064
2691.00,0.0064
2690.00,0.0064
2689.00,0.0064
2688.00,0.0064
2687.00,0.0064
2686.00,0.0064
2685.00,0.0064
2684.00,0.0064
2683.00,0.0064
2682.00,0.0064
2681.00,0.0063
2680.00,0.0063
2679.00,0.0063
2678.00,0.0063
2677.00,0.0063
2676.00,0.0063
2675.00,0.0063
2674.00,0.0063
2673.00,0.0063
2672.00,0.0063
2671.00,0.0063
2670.00,0.0063
2669.00,0.0064
2668.00,0.0064
2667.00,0.0064
2666.00,0.0065
2665.00,0.0065
2664.00,0.0066
2663.00,0.0066
2662.00,0.0066
2661.00,0.0067
2660.00,0.0067
2659.00,0.0068
2658.00,0.0068
2657.00,0.0068
2656.00,0.0068
2655.00,0.0068
2654.00,0.0068
2653.00,0.0068
2652.00,0.0068
2651.00,0.0068
2650.00,0.0068
2649.00,0.0068
2648.00,0.0068
2647.00,0.0068
2646.00,0.0068
2645.00,0.0068
2644.00,0.0069
2643.00,0.0069
2642.00,0.0068
2641.00,0.0068
2640.00,0.0068
2639.00,0.0068
2638.00,0.0067
2637.00,0.0067
2636.00,0.0067
2635.00,0.0067
2634.00,0.0067
2633.00,0.0066
2632.00,0.0066
2631.00,0.0066
2630.00,0.0066
2629.00,0.0066
2628.00,0.0065
2627.00,0.0065
2626.00,0.0066
2625.00,0.0066
2624.00,0.0065
2623.00,0.0065
2622.00,0.0065
2621.00,0.0065
2620.00,0.0065
2619.00,0.0065
2618.00,0.0065
2617.00,0.0065
2616.00,0.0065
2615.00,0.0065
2614.00,0.0065
2613.00,0.0065
2612.00,0.0065
2611.00,0.0065
2610.00,0.0064
2609.00,0.0064
2608.00,0.0064
2607.00,0.0063
2606.00,0.0063
2605.00,0.0063
2604.00,0.0063
2603.00,0.0063
2602.00,0.0063
2601.00,0.0063
2600.00,0.0063
2599.00,0.0064
2598.00,0.0064
2597.00,0.0064
2596.00,0.0064
2595.00,0.0064
2594.00,0.0064
2593.00,0.0064
2592.00,0.0064
2591.00,0.0064
2590.00,0.0064
2589.00,0.0064
2588.00,0.0064
2587.00,0.0064
2586.00,0.0064
2585.00,0.0064
2584.00,0.0064
2583.00,0.0064
2582.00,0.0064
2581.00,0.0064
2580.00,0.0063
2579.00,0.0063
2578.00,0.0063
2577.00,0.0063
2576.00,0.0063
2575.00,0.0063
2574.00,0.0063
2573.00,0.0063
2572.00,0.0063
2571.00,0.0063
2570.00,0.0063
2569.00,0.0063
2568.00,0.0063
2567.00,0.0063
2566.00,0.0063
2565.00,0.0063
2564.00,0.0063
2563.00,0.0063
2562.00,0.0062
2561.00,0.0062
2560.00,0.0062
2559.00,0.0061
2558.00,0.0061
2557.00,0.0061
2556.00,0.0061
2555.00,0.0061
2554.00,0.0061
2553.00,0.0061
2552.00,0.0061
2551.00,0.0060
2550.00,0.0060
2549.00,0.0060
2548.00,0.0060
2547.00,0.0060
2546.00,0.0060
2545.00,0.0060
2544.00,0.0061
2543.00,0.0061
2542.00,0.0061
2541.00,0.0061
2540.00,0.0061
2539.00,0.0061
2538.00,0.0060
2537.00,0.0060
2536.00,0.0060
2535.00,0.0060
2534.00,0.0060
2533.00,0.0059
2532.00,0.0060
2531.00,0.0060
2530.00,0.0059
2529.00,0.0059
2528.00,0.0059
2527.00,0.0059
2526.00,0.0059
2525.00,0.0059
2524.00,0.0059
2523.00,0.0058
2522.00,0.0058
2521.00,0.0057
2520.00,0.0057
2519.00,0.0057
2518.00,0.0057
2517.00,0.0057
2516.00,0.0058
2515.00,0.0058
2514.00,0.0058
2513.00,0.0058
2512.00,0.0058
2511.00,0.0058
2510.00,0.0057
2509.00,0.0057
2508.00,0.0057
2507.00,0.0057
2506.00,0.0057
2505.00,0.0057
2504.00,0.0057
2503.00,0.0057
2502.00,0.0057
2501.00,0.0057
2500.00,0.0057
2499.00,0.0057
2498.00,0.0057
2497.00,0.0058
2496.00,0.0058
2495.00,0.0058
2494.00,0.0057
2493.00,0.0057
2492.00,0.0057
2491.00,0.0057
2490.00,0.0057
2489.00,0.0057
2488.00,0.0057
2487.00,0.0058
2486.00,0.0058
2485.00,0.0058
2484.00,0.0057
2483.00,0.0057
2482.00,0.0056
2481.00,0.0056
2480.00,0.0056
2479.00,0.0056
2478.00,0.0056
2477.00,0.0056
2476.00,0.0056
2475.00,0.0056
2474.00,0.0056
2473.00,0.0056
2472.00,0.0056
2471.00,0.0056
2470.00,0.0056
2469.00,0.0056
2468.00,0.0056
2467.00,0.0056
2466.00,0.0056
2465.00,0.0056
2464.00,0.0056
2463.00,0.0056
2462.00,0.0056
2461.00,0.0057
2460.00,0.0057
2459.00,0.0058
2458.00,0.0058
2457.00,0.0058
2456.00,0.0058
2455.00,0.0058
2454.00,0.0058
2453.00,0.0058
2452.00,0.0058
2451.00,0.0058
2450.00,0.0058
2449.00,0.0058
2448.00,0.0058
2447.00,0.0057
2446.00,0.0057
2445.00,0.0057
2444.00,0.0058
2443.00,0.0058
2442.00,0.0057
2441.00,0.0057
2440.00,0.0057
2439.00,0.0056
2438.00,0.0056
2437.00,0.0056
2436.00,0.0056
2435.00,0.0056
2434.00,0.0056
2433.00,0.0056
2432.00,0.0055
2431.00,0.0055
2430.00,0.0055
2429.00,0.0055
2428.00,0.0055
2427.00,0.0055
2426.00,0.0055
2425.00,0.0055
2424.00,0.0056
2423.00,0.0056
2422.00,0.0055
2421.00,0.0055
2420.00,0.0055
2419.00,0.0055
2418.00,0.0056
2417.00,0.0056
2416.00,0.0056
2415.00,0.0056
2414.00,0.0056
2413.00,0.0056
2412.00,0.0056
2411.00,0.0056
2410.00,0.0056
2409.00,0.0055
2408.00,0.0055
2407.00,0.0055
2406.00,0.0055
2405.00,0.0055
2404.00,0.0054
2403.00,0.0054
2402.00,0.0054
2401.00,0.0054
2400.00,0.0054
2399.00,0.0055
2398.00,0.0055
2397.00,0.0054
2396.00,0.0055
2395.00,0.0055
2394.00,0.0055
2393.00,0.0055
2392.00,0.0055
2391.00,0.0054
2390.00,0.0054
2389.00,0.0054
2388.00,0.0054
2387.00,0.0053
2386.00,0.0053
2385.00,0.0053
2384.00,0.0052
2383.00,0.0052
2382.00,0.0052
2381.00,0.0052
2380.00,0.0051
2379.00,0.0051
2378.00,0.0051
2377.00,0.0051
2376.00,0.0051
2375.00,0.0051
2374.00,0.0051
2373.00,0.0051
2372.00,0.0051
2371.00,0.0050
2370.00,0.0050
2369.00,0.0049
2368.00,0.0049
2367.00,0.0049
2366.00,0.0050
2365.00,0.0050
2364.00,0.0051
2363.00,0.0051
2362.00,0.0051
2361.00,0.0051
2360.00,0.0051
2359.00,0.0051
2358.00,0.0051
2357.00,0.0051
2356.00,0.0052
2355.00,0.0052
2354.00,0.0052
2353.00,0.0052
2352.00,0.0052
2351.00,0.0052
2350.00,0.0052
2349.00,0.0053
2348.00,0.0054
2347.00,0.0054
2346.00,0.0054
2345.00,0.0054
2344.00,0.0054
2343.00,0.0054
2342.00,0.0055
2341.00,0.0055
2340.00,0.0056
2339.00,0.0056
2338.00,0.0056
2337.00,0.0056
2336.00,0.0056
2335.00,0.0056
2334.00,0.0056
2333.00,0.0055
2332.00,0.0055
2331.00,0.0056
2330.00,0.0057
2329.00,0.0059
2328.00,0.0062
2327.00,0.0066
2326.00,0.0069
2325.00,0.0071
2324.00,0.0070
2323.00,0.0068
2322.00,0.0066
2321.00,0.0064
2320.00,0.0062
2319.00,0.0062
2318.00,0.0062
2317.00,0.0062
2316.00,0.0062
2315.00,0.0063
2314.00,0.0062
2313.00,0.0062
2312.00,0.0061
2311.00,0.0060
2310.00,0.0060
2309.00,0.0060
2308.00,0.0060
2307.00,0.0060
2306.00,0.0060
2305.00,0.0060
2304.00,0.0060
2303.00,0.0060
2302.00,0.0060
2301.00,0.0061
2300.00,0.0061
2299.00,0.0062
2298.00,0.0062
2297.00,0.0063
2296.00,0.0063
2295.00,0.0063
2294.00,0.0064
2293.00,0.0065
2292.00,0.0066
2291.00,0.0067
2290.00,0.0067
2289.00,0.0068
2288.00,0.0068
2287.00,0.0068
2286.00,0.0068
2285.00,0.0067
2284.00,0.0066
2283.00,0.0066
2282.00,0.0066
2281.00,0.0066
2280.00,0.0066
2279.00,0.0065
2278.00,0.0064
2277.00,0.0064
2276.00,0.0063
2275.00,0.0063
2274.00,0.0063
2273.00,0.0063
2272.00,0.0063
2271.00,0.0063
2270.00,0.0062
2269.00,0.0061
2268.00,0.0060
2267.00,0.0060
2266.00,0.0060
2265.00,0.0060
2264.00,0.0060
2263.00,0.0060
2262.00,0.0061
2261.00,0.0062
2260.00,0.0062
2259.00,0.0062
2258.00,0.0061
2257.00,0.0060
2256.00,0.0059
2255.00,0.0058
2254.00,0.0058
2253.00,0.0059
2252.00,0.0059
2251.00,0.0060
2250.00,0.0060
2249.00,0.0060
2248.00,0.0060
2247.00,0.0060
2246.00,0.0060
2245.00,0.0059
2244.00,0.0059
2243.00,0.0059
2242.00,0.0059
2241.00,0.0059
2240.00,0.0059
2239.00,0.0059
2238.00,0.0059
2237.00,0.0059
2236.00,0.0058
2235.00,0.0058
2234.00,0.0058
2233.00,0.0059
2232.00,0.0059
2231.00,0.0060
2230.00,0.0060
2229.00,0.0059
2228.00,0.0059
2227.00,0.0059
2226.00,0.0060
2225.00,0.0060
2224.00,0.0061
2223.00,0.0061
2222.00,0.0061
2221.00,0.0060
2220.00,0.0060
2219.00,0.0060
2218.00,0.0060
2217.00,0.0059
2216.00,0.0059
2215.00,0.0058
2214.00,0.0058
2213.00,0.0058
2212.00,0.0058
2211.00,0.0059
2210.00,0.0059
2209.00,0.0059
2208.00,0.0059
2207.00,0.0059
2206.00,0.0059
2205.00,0.0059
2204.00,0.0059
2203.00,0.0059
2202.00,0.0059
2201.00,0.0059
2200.00,0.0060
2199.00,0.0061
2198.00,0.0062
2197.00,0.0062
2196.00,0.0062
2195.00,0.0062
2194.00,0.0061
2193.00,0.0062
2192.00,0.0062
2191.00,0.0062
2190.00,0.0062
2189.00,0.0061
2188.00,0.0062
2187.00,0.0064
2186.00,0.0065
2185.00,0.0064
2184.00,0.0062
2183.00,0.0059
2182.00,0.0056
2181.00,0.0056
2180.00,0.0057
2179.00,0.0058
2178.00,0.0058
2177.00,0.0056
2176.00,0.0054
2175.00,0.0054
2174.00,0.0055
2173.00,0.0058
2172.00,0.0061
2171.00,0.0065
2170.00,0.0067
2169.00,0.0068
2168.00,0.0069
2167.00,0.0070
2166.00,0.0071
2165.00,0.0073
2164.00,0.0075
2163.00,0.0074
2162.00,0.0069
2161.00,0.0058
2160.00,0.0044
2159.00,0.0032
2158.00,0.0026
2157.00,0.0025
2156.00,0.0028
2155.00,0.0032
2154.00,0.0036
2153.00,0.0038
2152.00,0.0039
2151.00,0.0040
2150.00,0.0039
2149.00,0.0039
2148.00,0.0040
2147.00,0.0041
2146.00,0.0041
2145.00,0.0042
2144.00,0.0042
2143.00,0.0042
2142.00,0.0043
2141.00,0.0043
2140.00,0.0044
2139.00,0.0044
2138.00,0.0043
2137.00,0.0041
2136.00,0.0039
2135.00,0.0037
2134.00,0.0037
2133.00,0.0039
2132.00,0.0041
2131.00,0.0043
2130.00,0.0044
2129.00,0.0045
2128.00,0.0046
2127.00,0.0048
2126.00,0.0049
2125.00,0.0050
2124.00,0.0051
2123.00,0.0052
2122.00,0.0053
2121.00,0.0055
2120.00,0.0056
2119.00,0.0058
2118.00,0.0058
2117.00,0.0058
2116.00,0.0059
2115.00,0.0060
2114.00,0.0060
2113.00,0.0060
2112.00,0.0059
2111.00,0.0059
2110.00,0.0058
2109.00,0.0058
2108.00,0.0058
2107.00,0.0058
2106.00,0.0058
2105.00,0.0058
2104.00,0.0058
2103.00,0.0057
2102.00,0.0057
2101.00,0.0057
2100.00,0.0058
2099.00,0.0058
2098.00,0.0057
2097.00,0.0055
2096.00,0.0053
2095.00,0.0052
2094.00,0.0052
2093.00,0.0053
2092.00,0.0054
2091.00,0.0055
2090.00,0.0056
2089.00,0.0056
2088.00,0.0057
2087.00,0.0057
2086.00,0.0057
2085.00,0.0058
2084.00,0.0058
2083.00,0.0059
2082.00,0.0059
2081.00,0.0059
2080.00,0.0059
2079.00,0.0060
2078.00,0.0060
2077.00,0.0060
2076.00,0.0060
2075.00,0.0060
2074.00,0.0059
2073.00,0.0059
2072.00,0.0058
2071.00,0.0057
2070.00,0.0056
2069.00,0.0055
2068.00,0.0055
2067.00,0.0055
2066.00,0.0054
2065.00,0.0054
2064.00,0.0054
2063.00,0.0054
2062.00,0.0054
2061.00,0.0054
2060.00,0.0054
2059.00,0.0054
2058.00,0.0054
2057.00,0.0054
2056.00,0.0054
2055.00,0.0055
2054.00,0.0056
2053.00,0.0059
2052.00,0.0062
2051.00,0.0062
2050.00,0.0059
2049.00,0.0056
2048.00,0.0055
2047.00,0.0053
2046.00,0.0053
2045.00,0.0053
2044.00,0.0055
2043.00,0.0056
2042.00,0.0056
2041.00,0.0056
2040.00,0.0055
2039.00,0.0054
2038.00,0.0053
2037.00,0.0052
2036.00,0.0051
2035.00,0.0050
2034.00,0.0049
2033.00,0.0049
2032.00,0.0049
2031.00,0.0048
2030.00,0.0048
2029.00,0.0048
2028.00,0.0048
2027.00,0.0047
2026.00,0.0046
2025.00,0.0045
2024.00,0.0046
2023.00,0.0047
2022.00,0.0047
2021.00,0.0048
2020.00,0.0048
2019.00,0.0047
2018.00,0.0045
2017.00,0.0043
2016.00,0.0042
2015.00,0.0042
2014.00,0.0042
2013.00,0.0043
2012.00,0.0044
2011.00,0.0045
2010.00,0.0045
2009.00,0.0044
2008.00,0.0041
2007.00,0.0038
2006.00,0.0036
2005.00,0.0036
2004.00,0.0037
2003.00,0.0039
2002.00,0.0041
2001.00,0.0042
2000.00,0.0044
1999.00,0.0045
1998.00,0.0046
1997.00,0.0047
1996.00,0.0049
1995.00,0.0050
1994.00,0.0049
1993.00,0.0049
1992.00,0.0050
1991.00,0.0051
1990.00,0.0051
1989.00,0.0052
1988.00,0.0053
1987.00,0.0052
1986.00,0.0052
1985.00,0.0052
1984.00,0.0054
1983.00,0.0056
1982.00,0.0057
1981.00,0.0058
1980.00,0.0057
1979.00,0.0052
1978.00,0.0045
1977.00,0.0041
1976.00,0.0039
1975.00,0.0039
1974.00,0.0040
1973.00,0.0039
1972.00,0.0040
1971.00,0.0040
1970.00,0.0041
1969.00,0.0042
1968.00,0.0042
1967.00,0.0041
1966.00,0.0040
1965.00,0.0038
1964.00,0.0038
1963.00,0.0038
1962.00,0.0037
1961.00,0.0036
1960.00,0.0035
1959.00,0.0035
1958.00,0.0036
1957.00,0.0037
1956.00,0.0038
1955.00,0.0039
1954.00,0.0040
1953.00,0.0040
1952.00,0.0041
1951.00,0.0042
1950.00,0.0043
1949.00,0.0043
1948.00,0.0043
1947.00,0.0043
1946.00,0.0042
1945.00,0.0041
1944.00,0.0041
1943.00,0.0041
1942.00,0.0041
1941.00,0.0042
1940.00,0.0042
1939.00,0.0043
1938.00,0.0043
1937.00,0.0043
1936.00,0.0043
1935.00,0.0043
1934.00,0.0042
1933.00,0.0042
1932.00,0.0042
1931.00,0.0043
1930.00,0.0044
1929.00,0.0044
1928.00,0.0044
1927.00,0.0043
1926.00,0.0043
1925.00,0.0043
1924.00,0.0043
1923.00,0.0044
1922.00,0.0044
1921.00,0.0044
1920.00,0.0044
1919.00,0.0045
1918.00,0.0045
1917.00,0.0046
1916.00,0.0047
1915.00,0.0047
1914.00,0.0047
1913.00,0.0047
1912.00,0.0047
1911.00,0.0047
1910.00,0.0047
1909.00,0.0047
1908.00,0.0047
1907.00,0.0047
1906.00,0.0047
1905.00,0.0047
1904.00,0.0048
1903.00,0.0047
1902.00,0.0047
1901.00,0.0046
1900.00,0.0046
1899.00,0.0046
1898.00,0.0046
1897.00,0.0046
1896.00,0.0047
1895.00,0.0047
1894.00,0.0047
1893.00,0.0047
1892.00,0.0047
1891.00,0.0047
1890.00,0.0046
1889.00,0.0046
1888.00,0.0045
1887.00,0.0045
1886.00,0.0045
1885.00,0.0045
1884.00,0.0046
1883.00,0.0046
1882.00,0.0046
1881.00,0.0046
1880.00,0.0047
1879.00,0.0047
1878.00,0.0046
1877.00,0.0046
1876.00,0.0046
1875.00,0.0046
1874.00,0.0046
1873.00,0.0046
1872.00,0.0046
1871.00,0.0046
1870.00,0.0046
1869.00,0.0047
1868.00,0.0047
1867.00,0.0047
1866.00,0.0046
1865.00,0.0046
1864.00,0.0046
1863.00,0.0046
1862.00,0.0047
1861.00,0.0047
1860.00,0.0047
1859.00,0.0047
1858.00,0.0047
1857.00,0.0046
1856.00,0.0046
1855.00,0.0046
1854.00,0.0046
1853.00,0.0046
1852.00,0.0046
1851.00,0.0046
1850.00,0.0046
1849.00,0.0047
1848.00,0.0047
1847.00,0.0046
1846.00,0.0046
1845.00,0.0046
1844.00,0.0047
1843.00,0.0047
1842.00,0.0047
1841.00,0.0047
1840.00,0.0047
1839.00,0.0047
1838.00,0.0047
1837.00,0.0047
1836.00,0.0047
1835.00,0.0047
1834.00,0.0046
1833.00,0.0046
1832.00,0.0045
1831.00,0.0045
1830.00,0.0045
1829.00,0.0046
1828.00,0.0046
1827.00,0.0046
1826.00,0.0047
1825.00,0.0047
1824.00,0.0047
1823.00,0.0047
1822.00,0.0047
1821.00,0.0046
1820.00,0.0046
1819.00,0.0045
1818.00,0.0044
1817.00,0.0043
1816.00,0.0044
1815.00,0.0045
1814.00,0.0045
1813.00,0.0046
1812.00,0.0046
1811.00,0.0046
1810.00,0.0047
1809.00,0.0047
1808.00,0.0047
1807.00,0.0047
1806.00,0.0047
1805.00,0.0047
1804.00,0.0047
1803.00,0.0047
1802.00,0.0046
1801.00,0.0046
1800.00,0.0047
1799.00,0.0048
1798.00,0.0048
1797.00,0.0049
1796.00,0.0048
1795.00,0.0048
1794.00,0.0047
1793.00,0.0047
1792.00,0.0047
1791.00,0.0048
1790.00,0.0048
1789.00,0.0048
1788.00,0.0048
1787.00,0.0048
1786.00,0.0048
1785.00,0.0048
1784.00,0.0048
1783.00,0.0048
1782.00,0.0048
1781.00,0.0048
1780.00,0.0048
1779.00,0.0049
1778.00,0.0048
1777.00,0.0049
1776.00,0.0049
1775.00,0.0049
1774.00,0.0049
1773.00,0.0049
1772.00,0.0050
1771.00,0.0050
1770.00,0.0051
1769.00,0.0051
1768.00,0.0051
1767.00,0.0052
1766.00,0.0051
1765.00,0.0051
1764.00,0.0051
1763.00,0.0051
1762.00,0.0051
1761.00,0.0052
1760.00,0.0052
1759.00,0.0052
1758.00,0.0052
1757.00,0.0052
1756.00,0.0053
1755.00,0.0053
1754.00,0.0053
1753.00,0.0054
1752.00,0.0055
1751.00,0.0055
1750.00,0.0055
1749.00,0.0056
1748.00,0.0057
1747.00,0.0057
1746.00,0.0058
1745.00,0.0058
1744.00,0.0058
1743.00,0.0058
1742.00,0.0057
1741.00,0.0057
1740.00,0.0058
1739.00,0.0059
1738.00,0.0060
1737.00,0.0060
1736.00,0.0060
1735.00,0.0061
1734.00,0.0063
1733.00,0.0064
1732.00,0.0065
1731.00,0.0066
1730.00,0.0067
1729.00,0.0067
1728.00,0.0068
1727.00,0.0070
1726.00,0.0071
1725.00,0.0072
1724.00,0.0074
1723.00,0.0075
1722.00,0.0076
1721.00,0.0077
1720.00,0.0079
1719.00,0.0082
1718.00,0.0085
1717.00,0.0087
1716.00,0.0090
1715.00,0.0092
1714.00,0.0095
1713.00,0.0098
1712.00,0.0102
1711.00,0.0107
1710.00,0.0111
1709.00,0.0116
1708.00,0.0121
1707.00,0.0127
1706.00,0.0135
1705.00,0.0142
1704.00,0.0150
1703.00,0.0156
1702.00,0.0163
1701.00,0.0176
1700.00,0.0195
1699.00,0.0213
1698.00,0.0227
1697.00,0.0242
1696.00,0.0261
1695.00,0.0282
1694.00,0.0302
1693.00,0.0321
1692.00,0.0341
1691.00,0.0363
1690.00,0.0386
1689.00,0.0410
1688.00,0.0432
1687.00,0.0453
1686.00,0.0474
1685.00,0.0499
1684.00,0.0528
1683.00,0.0555
1682.00,0.0579
1681.00,0.0601
1680.00,0.0623
1679.00,0.0644
1678.00,0.0664
1677.00,0.0683
1676.00,0.0705
1675.00,0.0727
1674.00,0.0748
1673.00,0.0767
1672.00,0.0786
1671.00,0.0804
1670.00,0.0821
1669.00,0.0839
1668.00,0.0856
1667.00,0.0873
1666.00,0.0888
1665.00,0.0903
1664.00,0.0919
1663.00,0.0934
1662.00,0.0948
1661.00,0.0961
1660.00,0.0975
1659.00,0.0988
1658.00,0.0999
1657.00,0.1011
1656.00,0.1022
1655.00,0.1031
1654.00,0.1034
1653.00,0.1031
1652.00,0.1028
1651.00,0.1031
1650.00,0.1036
1649.00,0.1040
1648.00,0.1037
1647.00,0.1027
1646.00,0.1013
1645.00,0.1000
1644.00,0.0990
1643.00,0.0979
1642.00,0.0967
1641.00,0.0951
1640.00,0.0934
1639.00,0.0917
1638.00,0.0898
1637.00,0.0874
1636.00,0.0844
1635.00,0.0813
1634.00,0.0788
1633.00,0.0769
1632.00,0.0754
1631.00,0.0738
1630.00,0.0722
1629.00,0.0706
1628.00,0.0691
1627.00,0.0678
1626.00,0.0667
1625.00,0.0656
1624.00,0.0643
1623.00,0.0629
1622.00,0.0614
1621.00,0.0601
1620.00,0.0589
1619.00,0.0575
1618.00,0.0556
1617.00,0.0532
1616.00,0.0507
1615.00,0.0488
1614.00,0.0475
1613.00,0.0465
1612.00,0.0455
1611.00,0.0445
1610.00,0.0434
1609.00,0.0423
1608.00,0.0410
1607.00,0.0396
1606.00,0.0382
1605.00,0.0368
1604.00,0.0355
1603.00,0.0342
1602.00,0.0329
1601.00,0.0318
1600.00,0.0307
1599.00,0.0298
1598.00,0.0290
1597.00,0.0282
1596.00,0.0276
1595.00,0.0270
1594.00,0.0266
1593.00,0.0263
1592.00,0.0261
1591.00,0.0261
1590.00,0.0261
1589.00,0.0263
1588.00,0.0265
1587.00,0.0267
1586.00,0.0268
1585.00,0.0269
1584.00,0.0268
1583.00,0.0265
1582.00,0.0262
1581.00,0.0258
1580.00,0.0253
1579.00,0.0249
1578.00,0.0243
1577.00,0.0236
1576.00,0.0228
1575.00,0.0220
1574.00,0.0214
1573.00,0.0210
1572.00,0.0206
1571.00,0.0202
1570.00,0.0198
1569.00,0.0195
1568.00,0.0192
1567.00,0.0189
1566.00,0.0186
1565.00,0.0182
1564.00,0.0178
1563.00,0.0173
1562.00,0.0168
1561.00,0.0162
1560.00,0.0158
1559.00,0.0153
1558.00,0.0150
1557.00,0.0149
1556.00,0.0149
1555.00,0.0149
1554.00,0.0148
1553.00,0.0147
1552.00,0.0146
1551.00,0.0145
1550.00,0.0144
1549.00,0.0142
1548.00,0.0141
1547.00,0.0139
1546.00,0.0139
1545.00,0.0137
1544.00,0.0135
1543.00,0.0133
1542.00,0.0131
1541.00,0.0130
1540.00,0.0129
1539.00,0.0129
1538.00,0.0129
1537.00,0.0128
1536.00,0.0127
1535.00,0.0126
1534.00,0.0126
1533.00,0.0125
1532.00,0.0125
1531.00,0.0125
1530.00,0.0124
1529.00,0.0124
1528.00,0.0124
1527.00,0.0124
1526.00,0.0124
1525.00,0.0123
1524.00,0.0123
1523.00,0.0124
1522.00,0.0124
1521.00,0.0124
1520.00,0.0124
1519.00,0.0125
1518.00,0.0126
1517.00,0.0128
1516.00,0.0130
1515.00,0.0131
1514.00,0.0134
1513.00,0.0136
1512.00,0.0139
1511.00,0.0143
1510.00,0.0147
1509.00,0.0150
1508.00,0.0154
1507.00,0.0157
1506.00,0.0164
1505.00,0.0173
1504.00,0.0183
1503.00,0.0193
1502.00,0.0203
1501.00,0.0216
1500.00,0.0230
1499.00,0.0246
1498.00,0.0263
1497.00,0.0280
1496.00,0.0293
1495.00,0.0300
1494.00,0.0303
1493.00,0.0302
1492.00,0.0298
1491.00,0.0289
1490.00,0.0278
1489.00,0.0264
1488.00,0.0249
1487.00,0.0235
1486.00,0.0222
1485.00,0.0211
1484.00,0.0202
1483.00,0.0193
1482.00,0.0186
1481.00,0.0180
1480.00,0.0177
1479.00,0.0175
1478.00,0.0175
1477.00,0.0178
1476.00,0.0182
1475.00,0.0188
1474.00,0.0198
1473.00,0.0211
1472.00,0.0230
1471.00,0.0252
1470.00,0.0276
1469.00,0.0303
1468.00,0.0331
1467.00,0.0361
1466.00,0.0392
1465.00,0.0422
1464.00,0.0447
1463.00,0.0466
1462.00,0.0478
1461.00,0.0485
1460.00,0.0487
1459.00,0.0482
1458.00,0.0468
1457.00,0.0444
1456.00,0.0419
1455.00,0.0400
1454.00,0.0386
1453.00,0.0376
1452.00,0.0369
1451.00,0.0365
1450.00,0.0366
1449.00,0.0373
1448.00,0.0384
1447.00,0.0399
1446.00,0.0417
1445.00,0.0437
1444.00,0.0459
1443.00,0.0483
1442.00,0.0506
1441.00,0.0527
1440.00,0.0547
1439.00,0.0563
1438.00,0.0577
1437.00,0.0589
1436.00,0.0599
1435.00,0.0606
1434.00,0.0612
1433.00,0.0617
1432.00,0.0622
1431.00,0.0627
1430.00,0.0635
1429.00,0.0645
1428.00,0.0659
1427.00,0.0676
1426.00,0.0694
1425.00,0.0711
1424.00,0.0727
1423.00,0.0737
1422.00,0.0741
1421.00,0.0739
1420.00,0.0727
1419.00,0.0702
1418.00,0.0670
1417.00,0.0636
1416.00,0.0601
1415.00,0.0565
1414.00,0.0529
1413.00,0.0495
1412.00,0.0463
1411.00,0.0434
1410.00,0.0408
1409.00,0.0388
1408.00,0.0371
1407.00,0.0358
1406.00,0.0347
1405.00,0.0339
1404.00,0.0332
1403.00,0.0327
1402.00,0.0323
1401.00,0.0320
1400.00,0.0315
1399.00,0.0310
1398.00,0.0303
1397.00,0.0296
1396.00,0.0289
1395.00,0.0280
1394.00,0.0272
1393.00,0.0267
1392.00,0.0263
1391.00,0.0260
1390.00,0.0260
1389.00,0.0262
1388.00,0.0267
1387.00,0.0272
1386.00,0.0277
1385.00,0.0281
1384.00,0.0284
1383.00,0.0287
1382.00,0.0292
1381.00,0.0299
1380.00,0.0305
1379.00,0.0312
1378.00,0.0317
1377.00,0.0321
1376.00,0.0324
1375.00,0.0324
1374.00,0.0322
1373.00,0.0319
1372.00,0.0317
1371.00,0.0314
1370.00,0.0313
1369.00,0.0311
1368.00,0.0310
1367.00,0.0310
1366.00,0.0309
1365.00,0.0306
1364.00,0.0302
1363.00,0.0296
1362.00,0.0291
1361.00,0.0288
1360.00,0.0286
1359.00,0.0282
1358.00,0.0275
1357.00,0.0267
1356.00,0.0258
1355.00,0.0250
1354.00,0.0243
1353.00,0.0239
1352.00,0.0235
1351.00,0.0232
1350.00,0.0230
1349.00,0.0228
1348.00,0.0227
1347.00,0.0226
1346.00,0.0225
1345.00,0.0224
1344.00,0.0222
1343.00,0.0221
1342.00,0.0219
1341.00,0.0217
1340.00,0.0215
1339.00,0.0213
1338.00,0.0211
1337.00,0.0211
1336.00,0.0211
1335.00,0.0213
1334.00,0.0217
1333.00,0.0221
1332.00,0.0227
1331.00,0.0233
1330.00,0.0239
1329.00,0.0246
1328.00,0.0253
1327.00,0.0261
1326.00,0.0269
1325.00,0.0277
1324.00,0.0286
1323.00,0.0296
1322.00,0.0305
1321.00,0.0314
1320.00,0.0321
1319.00,0.0327
1318.00,0.0330
1317.00,0.0332
1316.00,0.0331
1315.00,0.0328
1314.00,0.0324
1313.00,0.0319
1312.00,0.0313
1311.00,0.0308
1310.00,0.0304
1309.00,0.0302
1308.00,0.0301
1307.00,0.0303
1306.00,0.0307
1305.00,0.0315
1304.00,0.0326
1303.00,0.0340
1302.00,0.0357
1301.00,0.0376
1300.00,0.0397
1299.00,0.0420
1298.00,0.0446
1297.00,0.0476
1296.00,0.0510
1295.00,0.0547
1294.00,0.0585
1293.00,0.0623
1292.00,0.0660
1291.00,0.0693
1290.00,0.0722
1289.00,0.0748
1288.00,0.0769
1287.00,0.0784
1286.00,0.0795
1285.00,0.0799
1284.00,0.0798
1283.00,0.0791
1282.00,0.0781
1281.00,0.0768
1280.00,0.0755
1279.00,0.0744
1278.00,0.0735
1277.00,0.0731
1276.00,0.0730
1275.00,0.0731
1274.00,0.0733
1273.00,0.0734
1272.00,0.0734
1271.00,0.0731
1270.00,0.0724
1269.00,0.0714
1268.00,0.0701
1267.00,0.0684
1266.00,0.0665
1265.00,0.0644
1264.00,0.0622
1263.00,0.0599
1262.00,0.0576
1261.00,0.0554
1260.00,0.0532
1259.00,0.0512
1258.00,0.0494
1257.00,0.0477
1256.00,0.0461
1255.00,0.0447
1254.00,0.0435
1253.00,0.0424
1252.00,0.0414
1251.00,0.0406
1250.00,0.0400
1249.00,0.0396
1248.00,0.0393
1247.00,0.0391
1246.00,0.0391
1245.00,0.0391
1244.00,0.0393
1243.00,0.0394
1242.00,0.0396
1241.00,0.0399
1240.00,0.0402
1239.00,0.0406
1238.00,0.0412
1237.00,0.0419
1236.00,0.0427
1235.00,0.0434
1234.00,0.0441
1233.00,0.0446
1232.00,0.0448
1231.00,0.0448
1230.00,0.0446
1229.00,0.0443
1228.00,0.0439
1227.00,0.0435
1226.00,0.0430
1225.00,0.0426
1224.00,0.0421
1223.00,0.0418
1222.00,0.0415
1221.00,0.0413
1220.00,0.0411
1219.00,0.0411
1218.00,0.0410
1217.00,0.0410
1216.00,0.0409
1215.00,0.0407
1214.00,0.0403
1213.00,0.0398
1212.00,0.0392
1211.00,0.0383
1210.00,0.0374
1209.00,0.0365
1208.00,0.0357
1207.00,0.0349
1206.00,0.0343
1205.00,0.0338
1204.00,0.0335
1203.00,0.0333
1202.00,0.0333
1201.00,0.0334
1200.00,0.0335
1199.00,0.0337
1198.00,0.0340
1197.00,0.0344
1196.00,0.0347
1195.00,0.0349
1194.00,0.0349
1193.00,0.0348
1192.00,0.0344
1191.00,0.0338
1190.00,0.0331
1189.00,0.0324
1188.00,0.0317
1187.00,0.0310
1186.00,0.0304
1185.00,0.0298
1184.00,0.0294
1183.00,0.0290
1182.00,0.0288
1181.00,0.0286
1180.00,0.0285
1179.00,0.0286
1178.00,0.0287
1177.00,0.0288
1176.00,0.0290
1175.00,0.0292
1174.00,0.0295
1173.00,0.0297
1172.00,0.0300
1171.00,0.0302
1170.00,0.0303
1169.00,0.0304
1168.00,0.0304
1167.00,0.0303
1166.00,0.0302
1165.00,0.0299
1164.00,0.0297
1163.00,0.0294
1162.00,0.0292
1161.00,0.0292
1160.00,0.0293
1159.00,0.0296
1158.00,0.0300
1157.00,0.0306
1156.00,0.0312
1155.00,0.0315
1154.00,0.0315
1153.00,0.0309
1152.00,0.0300
1151.00,0.0287
1150.00,0.0274
1149.00,0.0262
1148.00,0.0251
1147.00,0.0243
1146.00,0.0237
1145.00,0.0232
1144.00,0.0228
1143.00,0.0224
1142.00,0.0221
1141.00,0.0218
1140.00,0.0216
1139.00,0.0215
1138.00,0.0214
1137.00,0.0215
1136.00,0.0217
1135.00,0.0222
1134.00,0.0229
1133.00,0.0238
1132.00,0.0250
1131.00,0.0262
1130.00,0.0274
1129.00,0.0282
1128.00,0.0287
1127.00,0.0289
1126.00,0.0288
1125.00,0.0284
1124.00,0.0278
1123.00,0.0271
1122.00,0.0263
1121.00,0.0256
1120.00,0.0250
1119.00,0.0245
1118.00,0.0241
1117.00,0.0239
1116.00,0.0237
1115.00,0.0236
1114.00,0.0236
1113.00,0.0236
1112.00,0.0235
1111.00,0.0233
1110.00,0.0232
1109.00,0.0231
1108.00,0.0230
1107.00,0.0229
1106.00,0.0230
1105.00,0.0232
1104.00,0.0236
1103.00,0.0242
1102.00,0.0250
1101.00,0.0257
1100.00,0.0263
1099.00,0.0266
1098.00,0.0266
1097.00,0.0262
1096.00,0.0256
1095.00,0.0249
1094.00,0.0242
1093.00,0.0236
1092.00,0.0231
1091.00,0.0228
1090.00,0.0225
1089.00,0.0223
1088.00,0.0222
1087.00,0.0221
1086.00,0.0221
1085.00,0.0221
1084.00,0.0221
1083.00,0.0222
1082.00,0.0223
1081.00,0.0225
1080.00,0.0227
1079.00,0.0229
1078.00,0.0231
1077.00,0.0233
1076.00,0.0235
1075.00,0.0236
1074.00,0.0237
1073.00,0.0238
1072.00,0.0239
1071.00,0.0239
1070.00,0.0240
1069.00,0.0241
1068.00,0.0242
1067.00,0.0242
1066.00,0.0243
1065.00,0.0244
1064.00,0.0246
1063.00,0.0249
1062.00,0.0254
1061.00,0.0260
1060.00,0.0267
1059.00,0.0275
1058.00,0.0286
1057.00,0.0298
1056.00,0.0310
1055.00,0.0320
1054.00,0.0328
1053.00,0.0333
1052.00,0.0335
1051.00,0.0336
1050.00,0.0336
1049.00,0.0336
1048.00,0.0333
1047.00,0.0328
1046.00,0.0322
1045.00,0.0314
1044.00,0.0305
1043.00,0.0295
1042.00,0.0285
1041.00,0.0277
1040.00,0.0269
1039.00,0.0264
1038.00,0.0261
1037.00,0.0260
1036.00,0.0261
1035.00,0.0262
1034.00,0.0264
1033.00,0.0266
1032.00,0.0271
1031.00,0.0278
1030.00,0.0289
1029.00,0.0302
1028.00,0.0315
1027.00,0.0327
1026.00,0.0334
1025.00,0.0336
1024.00,0.0333
1023.00,0.0326
1022.00,0.0319
1021.00,0.0312
1020.00,0.0305
1019.00,0.0299
1018.00,0.0292
1017.00,0.0286
1016.00,0.0279
1015.00,0.0271
1014.00,0.0264
1013.00,0.0257
1012.00,0.0251
1011.00,0.0246
1010.00,0.0243
1009.00,0.0243
1008.00,0.0245
1007.00,0.0249
1006.00,0.0256
1005.00,0.0263
1004.00,0.0269
1003.00,0.0274
1002.00,0.0276
1001.00,0.0276
1000.00,0.0273
999.00,0.0269
998.00,0.0264
997.00,0.0259
996.00,0.0255
995.00,0.0251
994.00,0.0247
993.00,0.0242
992.00,0.0238
991.00,0.0233
990.00,0.0228
989.00,0.0223
988.00,0.0218
987.00,0.0215
986.00,0.0212
985.00,0.0209
984.00,0.0206
983.00,0.0203
982.00,0.0201
981.00,0.0199
980.00,0.0197
979.00,0.0196
978.00,0.0194
977.00,0.0193
976.00,0.0192
975.00,0.0191
974.00,0.0190
973.00,0.0188
972.00,0.0187
971.00,0.0186
970.00,0.0184
969.00,0.0183
968.00,0.0182
967.00,0.0181
966.00,0.0181
965.00,0.0181
964.00,0.0181
963.00,0.0181
962.00,0.0181
961.00,0.0180
960.00,0.0179
959.00,0.0176
958.00,0.0173
957.00,0.0171
956.00,0.0169
955.00,0.0167
954.00,0.0166
953.00,0.0165
952.00,0.0164
951.00,0.0164
950.00,0.0164
949.00,0.0165
948.00,0.0166
947.00,0.0166
946.00,0.0166
945.00,0.0167
944.00,0.0168
943.00,0.0170
942.00,0.0173
941.00,0.0177
940.00,0.0181
939.00,0.0186
938.00,0.0191
937.00,0.0196
936.00,0.0201
935.00,0.0205
934.00,0.0208
933.00,0.0209
932.00,0.0209
931.00,0.0207
930.00,0.0204
929.00,0.0200
928.00,0.0197
927.00,0.0195
926.00,0.0195
925.00,0.0195
924.00,0.0195
923.00,0.0196
922.00,0.0196
921.00,0.0196
920.00,0.0194
919.00,0.0190
918.00,0.0187
917.00,0.0183
916.00,0.0179
915.00,0.0176
914.00,0.0174
913.00,0.0172
912.00,0.0170
911.00,0.0169
910.00,0.0170
909.00,0.0170
908.00,0.0172
907.00,0.0173
906.00,0.0175
905.00,0.0178
904.00,0.0181
903.00,0.0185
902.00,0.0191
901.00,0.0198
900.00,0.0204
899.00,0.0209
898.00,0.0210
897.00,0.0210
896.00,0.0208
895.00,0.0205
894.00,0.0204
893.00,0.0204
892.00,0.0206
891.00,0.0208
890.00,0.0209
889.00,0.0208
888.00,0.0203
887.00,0.0197
886.00,0.0191
885.00,0.0186
884.00,0.0184
883.00,0.0182
882.00,0.0181
881.00,0.0180
880.00,0.0181
879.00,0.0183
878.00,0.0187
877.00,0.0192
876.00,0.0198
875.00,0.0206
874.00,0.0215
873.00,0.0225
872.00,0.0236
871.00,0.0244
870.00,0.0251
869.00,0.0254
868.00,0.0253
867.00,0.0250
866.00,0.0246
865.00,0.0242
864.00,0.0239
863.00,0.0235
862.00,0.0232
861.00,0.0230
860.00,0.0229
859.00,0.0230
858.00,0.0233
857.00,0.0239
856.00,0.0247
855.00,0.0257
854.00,0.0268
853.00,0.0278
852.00,0.0289
851.00,0.0300
850.00,0.0310
849.00,0.0318
848.00,0.0323
847.00,0.0323
846.00,0.0321
845.00,0.0316
844.00,0.0311
843.00,0.0306
842.00,0.0302
841.00,0.0298
840.00,0.0296
839.00,0.0296
838.00,0.0297
837.00,0.0300
836.00,0.0303
835.00,0.0306
834.00,0.0308
833.00,0.0307
832.00,0.0304
831.00,0.0298
830.00,0.0289
829.00,0.0279
828.00,0.0267
827.00,0.0256
826.00,0.0247
825.00,0.0242
824.00,0.0241
823.00,0.0247
822.00,0.0258
821.00,0.0272
820.00,0.0282
819.00,0.0287
818.00,0.0291
817.00,0.0296
816.00,0.0302
815.00,0.0303
814.00,0.0295
813.00,0.0279
812.00,0.0261
811.00,0.0245
810.00,0.0234
809.00,0.0226
808.00,0.0220
807.00,0.0216
806.00,0.0213
805.00,0.0211
804.00,0.0209
803.00,0.0207
802.00,0.0206
801.00,0.0205
800.00,0.0205
799.00,0.0205
798.00,0.0205
797.00,0.0204
796.00,0.0204
795.00,0.0204
794.00,0.0204
793.00,0.0204
792.00,0.0205
791.00,0.0206
790.00,0.0207
789.00,0.0208
788.00,0.0209
787.00,0.0210
786.00,0.0210
785.00,0.0210
784.00,0.0211
783.00,0.0212
782.00,0.0213
781.00,0.0214
780.00,0.0215
779.00,0.0216
778.00,0.0218
777.00,0.0222
776.00,0.0226
775.00,0.0231
774.00,0.0235
773.00,0.0236
772.00,0.0236
771.00,0.0235
770.00,0.0234
769.00,0.0234
768.00,0.0235
767.00,0.0237
766.00,0.0239
765.00,0.0242
764.00,0.0246
763.00,0.0250
762.00,0.0255
761.00,0.0260
760.00,0.0265
759.00,0.0270
758.00,0.0274
757.00,0.0277
756.00,0.0279
755.00,0.0282
754.00,0.0284
753.00,0.0287
752.00,0.0291
751.00,0.0295
750.00,0.0299
749.00,0.0303
748.00,0.0306
747.00,0.0310
746.00,0.0315
745.00,0.0319
744.00,0.0323
743.00,0.0328
742.00,0.0333
741.00,0.0339
740.00,0.0347
739.00,0.0355
738.00,0.0365
737.00,0.0375
736.00,0.0386
735.00,0.0394
734.00,0.0398
733.00,0.0397
732.00,0.0394
731.00,0.0390
730.00,0.0387
729.00,0.0385
728.00,0.0382
727.00,0.0377
726.00,0.0369
725.00,0.0360
724.00,0.0351
723.00,0.0343
722.00,0.0336
721.00,0.0332
720.00,0.0330
719.00,0.0330
718.00,0.0332
717.00,0.0334
716.00,0.0337
715.00,0.0339
714.00,0.0340
713.00,0.0339
712.00,0.0337
711.00,0.0336
710.00,0.0334
709.00,0.0334
708.00,0.0333
707.00,0.0333
706.00,0.0334
705.00,0.0335
704.00,0.0336
703.00,0.0338
702.00,0.0341
701.00,0.0343
700.00,0.0346
699.00,0.0350
698.00,0.0353
697.00,0.0355
696.00,0.0357
695.00,0.0358
694.00,0.0358
693.00,0.0359
692.00,0.0363
691.00,0.0367
690.00,0.0373
689.00,0.0379
688.00,0.0384
687.00,0.0386
686.00,0.0388
685.00,0.0388
684.00,0.0390
683.00,0.0391
682.00,0.0394
681.00,0.0397
680.00,0.0401
679.00,0.0404
678.00,0.0409
677.00,0.0414
676.00,0.0419
675.00,0.0426
674.00,0.0432
673.00,0.0439
672.00,0.0445
671.00,0.0452
670.00,0.0457
669.00,0.0462
668.00,0.0466
667.00,0.0470
666.00,0.0474
665.00,0.0479
664.00,0.0485
663.00,0.0493
662.00,0.0501
661.00,0.0508
660.00,0.0515
659.00,0.0521
658.00,0.0526
657.00,0.0530
656.00,0.0535
655.00,0.0540
654.00,0.0545
653.00,0.0551
652.00,0.0557
651.00,0.0562
650.00,0.0566
649.00,0.0569
648.00,0.0571
647.00,0.0571
646.00,0.0571
645.00,0.0569
644.00,0.0568
643.00,0.0565
642.00,0.0562
641.00,0.0558
640.00,0.0553
639.00,0.0549
638.00,0.0544
637.00,0.0540
636.00,0.0537
635.00,0.0534
634.00,0.0530
633.00,0.0526
632.00,0.0523
631.00,0.0520
630.00,0.0518
629.00,0.0516
628.00,0.0515
627.00,0.0514
626.00,0.0514
625.00,0.0515
624.00,0.0516
623.00,0.0517
622.00,0.0518
621.00,0.0518
620.00,0.0519
619.00,0.0520
618.00,0.0520
617.00,0.0519
616.00,0.0517
615.00,0.0513
614.00,0.0510
613.00,0.0507
612.00,0.0506
611.00,0.0506
610.00,0.0508
609.00,0.0511
608.00,0.0516
607.00,0.0521
606.00,0.0526
605.00,0.0531
604.00,0.0537
603.00,0.0542
602.00,0.0546
601.00,0.0550
600.00,0.0553
599.00,0.0555
598.00,0.0557
597.00,0.0559
596.00,0.0560
595.00,0.0562
594.00,0.0564
593.00,0.0567
592.00,0.0570
591.00,0.0573
590.00,0.0576
589.00,0.0578
588.00,0.0580
587.00,0.0583
586.00,0.0589
585.00,0.0595
584.00,0.0601
583.00,0.0607
582.00,0.0614
581.00,0.0621
580.00,0.0630
579.00,0.0640
578.00,0.0651
577.00,0.0662
576.00,0.0670
575.00,0.0673
574.00,0.0672
573.00,0.0669
572.00,0.0665
571.00,0.0662
570.00,0.0658
569.00,0.0654
568.00,0.0651
567.00,0.0647
566.00,0.0644
565.00,0.0642
564.00,0.0641
563.00,0.0641
562.00,0.0641
561.00,0.0641
560.00,0.0642
559.00,0.0642
558.00,0.0641
557.00,0.0638
556.00,0.0633
555.00,0.0628
554.00,0.0622
553.00,0.0618
552.00,0.0616
551.00,0.0616
550.00,0.0617
549.00,0.0619
548.00,0.0622
547.00,0.0625
546.00,0.0627
545.00,0.0627
544.00,0.0625
543.00,0.0621
542.00,0.0616
541.00,0.0610
540.00,0.0605
539.00,0.0601
538.00,0.0598
537.00,0.0596
536.00,0.0597
535.00,0.0598
534.00,0.0600
533.00,0.0604
532.00,0.0607
531.00,0.0609
530.00,0.0609
529.00,0.0608
528.00,0.0605
527.00,0.0600
526.00,0.0596
525.00,0.0591
524.00,0.0587
523.00,0.0585
522.00,0.0583
521.00,0.0582
520.00,0.0581
519.00,0.0580
518.00,0.0579
517.00,0.0577
516.00,0.0575
515.00,0.0574
514.00,0.0572
513.00,0.0572
512.00,0.0572
511.00,0.0572
510.00,0.0571
509.00,0.0572
508.00,0.0573
507.00,0.0576
506.00,0.0579
505.00,0.0579
504.00,0.0578
503.00,0.0576
502.00,0.0575
501.00,0.0574
500.00,0.0575
499.00,0.0574
498.00,0.0573
497.00,0.0572
496.00,0.0570
495.00,0.0570
494.00,0.0572
493.00,0.0576
492.00,0.0580
491.00,0.0583
490.00,0.0585
489.00,0.0586
488.00,0.0586
487.00,0.0585
486.00,0.0584
485.00,0.0583
484.00,0.0582
483.00,0.0579
482.00,0.0578
481.00,0.0578
480.00,0.0580
479.00,0.0581
478.00,0.0583
477.00,0.0584
476.00,0.0584
475.00,0.0584
474.00,0.0583
473.00,0.0583
472.00,0.0585
471.00,0.0587
470.00,0.0589
469.00,0.0591
468.00,0.0591
467.00,0.0590
466.00,0.0587
465.00,0.0584
464.00,0.0581
463.00,0.0578
462.00,0.0575
461.00,0.0571
460.00,0.0569
459.00,0.0569
458.00,0.0571
457.00,0.0572
456.00,0.0571
455.00,0.0568
454.00,0.0566
453.00,0.0563
452.00,0.0559
451.00,0.0552
450.00,0.0546
449.00,0.0543
448.00,0.0542
447.00,0.0545
446.00,0.0549
445.00,0.0553
444.00,0.0555
443.00,0.0554
442.00,0.0550
441.00,0.0546
440.00,0.0541
439.00,0.0538
438.00,0.0536
437.00,0.0535
436.00,0.0534
435.00,0.0533
434.00,0.0532
433.00,0.0530
432.00,0.0527
431.00,0.0523
430.00,0.0521
429.00,0.0519
428.00,0.0520
427.00,0.0521
426.00,0.0524
425.00,0.0526
424.00,0.0524
423.00,0.0519
422.00,0.0515
421.00,0.0516
420.00,0.0523
419.00,0.0531
418.00,0.0530
417.00,0.0522
416.00,0.0511
415.00,0.0503
414.00,0.0499
413.00,0.0501
412.00,0.0508
411.00,0.0516
410.00,0.0522
409.00,0.0523
408.00,0.0519
407.00,0.0512
406.00,0.0505
405.00,0.0503
404.00,0.0501
403.00,0.0499
402.00,0.0494
401.00,0.0493
400.00,0.0498
