Created as New Dataset,Sample 875 By YargerLab Date Monday, July 21 2025
cm-1,A
4000.00,0.0039
3999.00,0.0039
3998.00,0.0039
3997.00,0.0039
3996.00,0.0039
3995.00,0.0039
3994.00,0.0039
3993.00,0.0039
3992.00,0.0039
3991.00,0.0039
3990.00,0.0038
3989.00,0.0038
3988.00,0.0038
3987.00,0.0038
3986.00,0.0038
3985.00,0.0038
3984.00,0.0038
3983.00,0.0038
3982.00,0.0038
3981.00,0.0038
3980.00,0.0039
3979.00,0.0039
3978.00,0.0039
3977.00,0.0039
3976.00,0.0038
3975.00,0.0038
3974.00,0.0038
3973.00,0.0038
3972.00,0.0038
3971.00,0.0038
3970.00,0.0038
3969.00,0.0038
3968.00,0.0038
3967.00,0.0038
3966.00,0.0038
3965.00,0.0038
3964.00,0.0038
3963.00,0.0038
3962.00,0.0038
3961.00,0.0039
3960.00,0.0039
3959.00,0.0039
3958.00,0.0039
3957.00,0.0039
3956.00,0.0039
3955.00,0.0039
3954.00,0.0039
3953.00,0.0039
3952.00,0.0039
3951.00,0.0039
3950.00,0.0039
3949.00,0.0039
3948.00,0.0039
3947.00,0.0039
3946.00,0.0038
3945.00,0.0039
3944.00,0.0039
3943.00,0.0039
3942.00,0.0039
3941.00,0.0039
3940.00,0.0039
3939.00,0.0039
3938.00,0.0038
3937.00,0.0038
3936.00,0.0038
3935.00,0.0038
3934.00,0.0038
3933.00,0.0038
3932.00,0.0038
3931.00,0.0038
3930.00,0.0038
3929.00,0.0039
3928.00,0.0039
3927.00,0.0039
3926.00,0.0039
3925.00,0.0039
3924.00,0.0039
3923.00,0.0039
3922.00,0.0039
3921.00,0.0039
3920.00,0.0039
3919.00,0.0039
3918.00,0.0039
3917.00,0.0039
3916.00,0.0039
3915.00,0.0038
3914.00,0.0038
3913.00,0.0038
3912.00,0.0038
3911.00,0.0038
3910.00,0.0038
3909.00,0.0039
3908.00,0.0039
3907.00,0.0039
3906.00,0.0039
3905.00,0.0039
3904.00,0.0039
3903.00,0.0039
3902.00,0.0039
3901.00,0.0038
3900.00,0.0038
3899.00,0.0038
3898.00,0.0038
3897.00,0.0038
3896.00,0.0038
3895.00,0.0038
3894.00,0.0038
3893.00,0.0038
3892.00,0.0038
3891.00,0.0038
3890.00,0.0038
3889.00,0.0038
3888.00,0.0038
3887.00,0.0038
3886.00,0.0038
3885.00,0.0038
3884.00,0.0038
3883.00,0.0038
3882.00,0.0038
3881.00,0.0038
3880.00,0.0038
3879.00,0.0038
3878.00,0.0038
3877.00,0.0038
3876.00,0.0038
3875.00,0.0038
3874.00,0.0038
3873.00,0.0038
3872.00,0.0038
3871.00,0.0038
3870.00,0.0037
3869.00,0.0037
3868.00,0.0037
3867.00,0.0037
3866.00,0.0037
3865.00,0.0037
3864.00,0.0037
3863.00,0.0038
3862.00,0.0038
3861.00,0.0038
3860.00,0.0038
3859.00,0.0038
3858.00,0.0037
3857.00,0.0037
3856.00,0.0037
3855.00,0.0037
3854.00,0.0037
3853.00,0.0036
3852.00,0.0036
3851.00,0.0036
3850.00,0.0037
3849.00,0.0037
3848.00,0.0037
3847.00,0.0038
3846.00,0.0038
3845.00,0.0038
3844.00,0.0038
3843.00,0.0038
3842.00,0.0038
3841.00,0.0038
3840.00,0.0038
3839.00,0.0037
3838.00,0.0037
3837.00,0.0037
3836.00,0.0037
3835.00,0.0037
3834.00,0.0037
3833.00,0.0037
3832.00,0.0037
3831.00,0.0037
3830.00,0.0037
3829.00,0.0037
3828.00,0.0037
3827.00,0.0037
3826.00,0.0038
3825.00,0.0038
3824.00,0.0038
3823.00,0.0037
3822.00,0.0037
3821.00,0.0037
3820.00,0.0037
3819.00,0.0037
3818.00,0.0037
3817.00,0.0037
3816.00,0.0037
3815.00,0.0037
3814.00,0.0037
3813.00,0.0037
3812.00,0.0038
3811.00,0.0038
3810.00,0.0038
3809.00,0.0038
3808.00,0.0038
3807.00,0.0038
3806.00,0.0038
3805.00,0.0037
3804.00,0.0037
3803.00,0.0037
3802.00,0.0037
3801.00,0.0037
3800.00,0.0037
3799.00,0.0037
3798.00,0.0037
3797.00,0.0037
3796.00,0.0038
3795.00,0.0038
3794.00,0.0038
3793.00,0.0038
3792.00,0.0038
3791.00,0.0038
3790.00,0.0038
3789.00,0.0038
3788.00,0.0038
3787.00,0.0038
3786.00,0.0038
3785.00,0.0038
3784.00,0.0038
3783.00,0.0038
3782.00,0.0038
3781.00,0.0038
3780.00,0.0038
3779.00,0.0038
3778.00,0.0038
3777.00,0.0038
3776.00,0.0038
3775.00,0.0038
3774.00,0.0039
3773.00,0.0039
3772.00,0.0039
3771.00,0.0039
3770.00,0.0038
3769.00,0.0038
3768.00,0.0038
3767.00,0.0038
3766.00,0.0038
3765.00,0.0037
3764.00,0.0037
3763.00,0.0037
3762.00,0.0038
3761.00,0.0038
3760.00,0.0038
3759.00,0.0038
3758.00,0.0038
3757.00,0.0038
3756.00,0.0038
3755.00,0.0038
3754.00,0.0038
3753.00,0.0038
3752.00,0.0037
3751.00,0.0037
3750.00,0.0037
3749.00,0.0037
3748.00,0.0038
3747.00,0.0038
3746.00,0.0038
3745.00,0.0037
3744.00,0.0037
3743.00,0.0037
3742.00,0.0037
3741.00,0.0037
3740.00,0.0037
3739.00,0.0037
3738.00,0.0037
3737.00,0.0036
3736.00,0.0036
3735.00,0.0036
3734.00,0.0036
3733.00,0.0035
3732.00,0.0035
3731.00,0.0036
3730.00,0.0036
3729.00,0.0036
3728.00,0.0036
3727.00,0.0036
3726.00,0.0036
3725.00,0.0036
3724.00,0.0036
3723.00,0.0036
3722.00,0.0036
3721.00,0.0037
3720.00,0.0037
3719.00,0.0037
3718.00,0.0037
3717.00,0.0037
3716.00,0.0037
3715.00,0.0037
3714.00,0.0037
3713.00,0.0036
3712.00,0.0036
3711.00,0.0036
3710.00,0.0035
3709.00,0.0035
3708.00,0.0035
3707.00,0.0035
3706.00,0.0035
3705.00,0.0036
3704.00,0.0036
3703.00,0.0036
3702.00,0.0036
3701.00,0.0036
3700.00,0.0036
3699.00,0.0036
3698.00,0.0036
3697.00,0.0036
3696.00,0.0036
3695.00,0.0036
3694.00,0.0037
3693.00,0.0037
3692.00,0.0037
3691.00,0.0037
3690.00,0.0037
3689.00,0.0037
3688.00,0.0037
3687.00,0.0037
3686.00,0.0037
3685.00,0.0037
3684.00,0.0038
3683.00,0.0038
3682.00,0.0038
3681.00,0.0039
3680.00,0.0039
3679.00,0.0039
3678.00,0.0038
3677.00,0.0038
3676.00,0.0037
3675.00,0.0037
3674.00,0.0037
3673.00,0.0037
3672.00,0.0037
3671.00,0.0038
3670.00,0.0038
3669.00,0.0038
3668.00,0.0039
3667.00,0.0039
3666.00,0.0039
3665.00,0.0040
3664.00,0.0040
3663.00,0.0040
3662.00,0.0040
3661.00,0.0041
3660.00,0.0041
3659.00,0.0041
3658.00,0.0041
3657.00,0.0041
3656.00,0.0042
3655.00,0.0042
3654.00,0.0042
3653.00,0.0042
3652.00,0.0042
3651.00,0.0042
3650.00,0.0042
3649.00,0.0042
3648.00,0.0043
3647.00,0.0043
3646.00,0.0044
3645.00,0.0044
3644.00,0.0045
3643.00,0.0045
3642.00,0.0045
3641.00,0.0046
3640.00,0.0046
3639.00,0.0046
3638.00,0.0046
3637.00,0.0046
3636.00,0.0047
3635.00,0.0047
3634.00,0.0047
3633.00,0.0048
3632.00,0.0048
3631.00,0.0048
3630.00,0.0048
3629.00,0.0049
3628.00,0.0049
3627.00,0.0050
3626.00,0.0051
3625.00,0.0051
3624.00,0.0051
3623.00,0.0052
3622.00,0.0052
3621.00,0.0053
3620.00,0.0053
3619.00,0.0054
3618.00,0.0055
3617.00,0.0055
3616.00,0.0056
3615.00,0.0056
3614.00,0.0057
3613.00,0.0057
3612.00,0.0058
3611.00,0.0059
3610.00,0.0060
3609.00,0.0061
3608.00,0.0062
3607.00,0.0063
3606.00,0.0063
3605.00,0.0063
3604.00,0.0063
3603.00,0.0064
3602.00,0.0064
3601.00,0.0065
3600.00,0.0065
3599.00,0.0066
3598.00,0.0067
3597.00,0.0068
3596.00,0.0068
3595.00,0.0069
3594.00,0.0070
3593.00,0.0071
3592.00,0.0072
3591.00,0.0072
3590.00,0.0073
3589.00,0.0074
3588.00,0.0075
3587.00,0.0076
3586.00,0.0077
3585.00,0.0078
3584.00,0.0079
3583.00,0.0079
3582.00,0.0080
3581.00,0.0081
3580.00,0.0081
3579.00,0.0082
3578.00,0.0083
3577.00,0.0084
3576.00,0.0085
3575.00,0.0086
3574.00,0.0087
3573.00,0.0088
3572.00,0.0089
3571.00,0.0090
3570.00,0.0091
3569.00,0.0092
3568.00,0.0093
3567.00,0.0094
3566.00,0.0096
3565.00,0.0097
3564.00,0.0098
3563.00,0.0099
3562.00,0.0100
3561.00,0.0101
3560.00,0.0102
3559.00,0.0103
3558.00,0.0104
3557.00,0.0105
3556.00,0.0106
3555.00,0.0107
3554.00,0.0108
3553.00,0.0110
3552.00,0.0111
3551.00,0.0112
3550.00,0.0113
3549.00,0.0114
3548.00,0.0115
3547.00,0.0117
3546.00,0.0118
3545.00,0.0120
3544.00,0.0122
3543.00,0.0124
3542.00,0.0125
3541.00,0.0127
3540.00,0.0129
3539.00,0.0131
3538.00,0.0133
3537.00,0.0135
3536.00,0.0138
3535.00,0.0141
3534.00,0.0144
3533.00,0.0147
3532.00,0.0150
3531.00,0.0155
3530.00,0.0160
3529.00,0.0167
3528.00,0.0174
3527.00,0.0182
3526.00,0.0190
3525.00,0.0197
3524.00,0.0205
3523.00,0.0211
3522.00,0.0216
3521.00,0.0220
3520.00,0.0222
3519.00,0.0222
3518.00,0.0221
3517.00,0.0219
3516.00,0.0216
3515.00,0.0213
3514.00,0.0209
3513.00,0.0204
3512.00,0.0200
3511.00,0.0195
3510.00,0.0192
3509.00,0.0188
3508.00,0.0184
3507.00,0.0181
3506.00,0.0178
3505.00,0.0175
3504.00,0.0174
3503.00,0.0173
3502.00,0.0172
3501.00,0.0171
3500.00,0.0171
3499.00,0.0170
3498.00,0.0170
3497.00,0.0170
3496.00,0.0170
3495.00,0.0170
3494.00,0.0171
3493.00,0.0171
3492.00,0.0171
3491.00,0.0172
3490.00,0.0172
3489.00,0.0173
3488.00,0.0174
3487.00,0.0175
3486.00,0.0176
3485.00,0.0176
3484.00,0.0177
3483.00,0.0178
3482.00,0.0179
3481.00,0.0180
3480.00,0.0182
3479.00,0.0183
3478.00,0.0184
3477.00,0.0185
3476.00,0.0186
3475.00,0.0187
3474.00,0.0189
3473.00,0.0190
3472.00,0.0192
3471.00,0.0193
3470.00,0.0195
3469.00,0.0197
3468.00,0.0199
3467.00,0.0200
3466.00,0.0202
3465.00,0.0203
3464.00,0.0205
3463.00,0.0206
3462.00,0.0208
3461.00,0.0210
3460.00,0.0212
3459.00,0.0213
3458.00,0.0215
3457.00,0.0216
3456.00,0.0218
3455.00,0.0220
3454.00,0.0221
3453.00,0.0223
3452.00,0.0224
3451.00,0.0226
3450.00,0.0227
3449.00,0.0229
3448.00,0.0231
3447.00,0.0233
3446.00,0.0234
3445.00,0.0236
3444.00,0.0237
3443.00,0.0239
3442.00,0.0240
3441.00,0.0242
3440.00,0.0244
3439.00,0.0245
3438.00,0.0246
3437.00,0.0248
3436.00,0.0249
3435.00,0.0250
3434.00,0.0252
3433.00,0.0253
3432.00,0.0254
3431.00,0.0255
3430.00,0.0257
3429.00,0.0258
3428.00,0.0259
3427.00,0.0260
3426.00,0.0262
3425.00,0.0263
3424.00,0.0264
3423.00,0.0266
3422.00,0.0268
3421.00,0.0270
3420.00,0.0272
3419.00,0.0274
3418.00,0.0277
3417.00,0.0279
3416.00,0.0281
3415.00,0.0283
3414.00,0.0285
3413.00,0.0288
3412.00,0.0290
3411.00,0.0292
3410.00,0.0293
3409.00,0.0294
3408.00,0.0295
3407.00,0.0294
3406.00,0.0294
3405.00,0.0292
3404.00,0.0291
3403.00,0.0288
3402.00,0.0286
3401.00,0.0282
3400.00,0.0278
3399.00,0.0274
3398.00,0.0270
3397.00,0.0265
3396.00,0.0260
3395.00,0.0255
3394.00,0.0250
3393.00,0.0245
3392.00,0.0240
3391.00,0.0236
3390.00,0.0232
3389.00,0.0228
3388.00,0.0224
3387.00,0.0221
3386.00,0.0217
3385.00,0.0214
3384.00,0.0211
3383.00,0.0208
3382.00,0.0205
3381.00,0.0202
3380.00,0.0199
3379.00,0.0196
3378.00,0.0194
3377.00,0.0191
3376.00,0.0189
3375.00,0.0187
3374.00,0.0185
3373.00,0.0183
3372.00,0.0181
3371.00,0.0179
3370.00,0.0177
3369.00,0.0175
3368.00,0.0174
3367.00,0.0172
3366.00,0.0171
3365.00,0.0170
3364.00,0.0169
3363.00,0.0168
3362.00,0.0166
3361.00,0.0164
3360.00,0.0163
3359.00,0.0162
3358.00,0.0161
3357.00,0.0160
3356.00,0.0159
3355.00,0.0158
3354.00,0.0156
3353.00,0.0154
3352.00,0.0153
3351.00,0.0151
3350.00,0.0150
3349.00,0.0150
3348.00,0.0150
3347.00,0.0149
3346.00,0.0148
3345.00,0.0147
3344.00,0.0146
3343.00,0.0145
3342.00,0.0144
3341.00,0.0143
3340.00,0.0142
3339.00,0.0141
3338.00,0.0140
3337.00,0.0140
3336.00,0.0140
3335.00,0.0140
3334.00,0.0140
3333.00,0.0139
3332.00,0.0139
3331.00,0.0138
3330.00,0.0137
3329.00,0.0136
3328.00,0.0135
3327.00,0.0134
3326.00,0.0133
3325.00,0.0133
3324.00,0.0133
3323.00,0.0133
3322.00,0.0133
3321.00,0.0132
3320.00,0.0132
3319.00,0.0131
3318.00,0.0130
3317.00,0.0130
3316.00,0.0129
3315.00,0.0129
3314.00,0.0129
3313.00,0.0128
3312.00,0.0127
3311.00,0.0126
3310.00,0.0124
3309.00,0.0123
3308.00,0.0122
3307.00,0.0122
3306.00,0.0122
3305.00,0.0122
3304.00,0.0123
3303.00,0.0123
3302.00,0.0124
3301.00,0.0124
3300.00,0.0123
3299.00,0.0122
3298.00,0.0121
3297.00,0.0120
3296.00,0.0119
3295.00,0.0118
3294.00,0.0118
3293.00,0.0118
3292.00,0.0118
3291.00,0.0118
3290.00,0.0119
3289.00,0.0119
3288.00,0.0119
3287.00,0.0119
3286.00,0.0118
3285.00,0.0118
3284.00,0.0117
3283.00,0.0117
3282.00,0.0117
3281.00,0.0116
3280.00,0.0116
3279.00,0.0115
3278.00,0.0114
3277.00,0.0113
3276.00,0.0112
3275.00,0.0111
3274.00,0.0111
3273.00,0.0110
3272.00,0.0109
3271.00,0.0109
3270.00,0.0109
3269.00,0.0109
3268.00,0.0110
3267.00,0.0110
3266.00,0.0110
3265.00,0.0110
3264.00,0.0110
3263.00,0.0110
3262.00,0.0109
3261.00,0.0108
3260.00,0.0108
3259.00,0.0107
3258.00,0.0106
3257.00,0.0106
3256.00,0.0105
3255.00,0.0105
3254.00,0.0105
3253.00,0.0105
3252.00,0.0105
3251.00,0.0104
3250.00,0.0104
3249.00,0.0103
3248.00,0.0102
3247.00,0.0101
3246.00,0.0101
3245.00,0.0101
3244.00,0.0101
3243.00,0.0101
3242.00,0.0101
3241.00,0.0101
3240.00,0.0100
3239.00,0.0099
3238.00,0.0099
3237.00,0.0098
3236.00,0.0097
3235.00,0.0096
3234.00,0.0095
3233.00,0.0095
3232.00,0.0095
3231.00,0.0095
3230.00,0.0095
3229.00,0.0095
3228.00,0.0094
3227.00,0.0094
3226.00,0.0094
3225.00,0.0093
3224.00,0.0093
3223.00,0.0092
3222.00,0.0092
3221.00,0.0091
3220.00,0.0091
3219.00,0.0091
3218.00,0.0090
3217.00,0.0090
3216.00,0.0090
3215.00,0.0089
3214.00,0.0089
3213.00,0.0088
3212.00,0.0088
3211.00,0.0088
3210.00,0.0087
3209.00,0.0087
3208.00,0.0086
3207.00,0.0086
3206.00,0.0086
3205.00,0.0086
3204.00,0.0085
3203.00,0.0085
3202.00,0.0085
3201.00,0.0084
3200.00,0.0084
3199.00,0.0084
3198.00,0.0083
3197.00,0.0083
3196.00,0.0083
3195.00,0.0083
3194.00,0.0082
3193.00,0.0082
3192.00,0.0082
3191.00,0.0082
3190.00,0.0081
3189.00,0.0081
3188.00,0.0080
3187.00,0.0080
3186.00,0.0080
3185.00,0.0080
3184.00,0.0079
3183.00,0.0079
3182.00,0.0079
3181.00,0.0079
3180.00,0.0078
3179.00,0.0078
3178.00,0.0078
3177.00,0.0078
3176.00,0.0078
3175.00,0.0078
3174.00,0.0078
3173.00,0.0078
3172.00,0.0078
3171.00,0.0078
3170.00,0.0078
3169.00,0.0078
3168.00,0.0078
3167.00,0.0077
3166.00,0.0077
3165.00,0.0077
3164.00,0.0076
3163.00,0.0076
3162.00,0.0076
3161.00,0.0075
3160.00,0.0075
3159.00,0.0075
3158.00,0.0074
3157.00,0.0074
3156.00,0.0074
3155.00,0.0073
3154.00,0.0073
3153.00,0.0072
3152.00,0.0073
3151.00,0.0073
3150.00,0.0073
3149.00,0.0072
3148.00,0.0072
3147.00,0.0072
3146.00,0.0072
3145.00,0.0072
3144.00,0.0072
3143.00,0.0072
3142.00,0.0071
3141.00,0.0071
3140.00,0.0071
3139.00,0.0071
3138.00,0.0071
3137.00,0.0071
3136.00,0.0071
3135.00,0.0070
3134.00,0.0070
3133.00,0.0070
3132.00,0.0070
3131.00,0.0069
3130.00,0.0069
3129.00,0.0069
3128.00,0.0069
3127.00,0.0069
3126.00,0.0069
3125.00,0.0068
3124.00,0.0068
3123.00,0.0068
3122.00,0.0068
3121.00,0.0068
3120.00,0.0068
3119.00,0.0068
3118.00,0.0068
3117.00,0.0068
3116.00,0.0068
3115.00,0.0067
3114.00,0.0067
3113.00,0.0067
3112.00,0.0067
3111.00,0.0067
3110.00,0.0067
3109.00,0.0067
3108.00,0.0067
3107.00,0.0067
3106.00,0.0067
3105.00,0.0067
3104.00,0.0066
3103.00,0.0066
3102.00,0.0066
3101.00,0.0066
3100.00,0.0066
3099.00,0.0066
3098.00,0.0066
3097.00,0.0066
3096.00,0.0066
3095.00,0.0066
3094.00,0.0066
3093.00,0.0066
3092.00,0.0066
3091.00,0.0067
3090.00,0.0067
3089.00,0.0067
3088.00,0.0067
3087.00,0.0068
3086.00,0.0068
3085.00,0.0068
3084.00,0.0069
3083.00,0.0070
3082.00,0.0071
3081.00,0.0073
3080.00,0.0075
3079.00,0.0078
3078.00,0.0081
3077.00,0.0083
3076.00,0.0085
3075.00,0.0086
3074.00,0.0085
3073.00,0.0083
3072.00,0.0081
3071.00,0.0078
3070.00,0.0075
3069.00,0.0073
3068.00,0.0071
3067.00,0.0070
3066.00,0.0069
3065.00,0.0068
3064.00,0.0067
3063.00,0.0066
3062.00,0.0066
3061.00,0.0066
3060.00,0.0065
3059.00,0.0065
3058.00,0.0065
3057.00,0.0065
3056.00,0.0065
3055.00,0.0065
3054.00,0.0065
3053.00,0.0065
3052.00,0.0064
3051.00,0.0064
3050.00,0.0064
3049.00,0.0065
3048.00,0.0065
3047.00,0.0066
3046.00,0.0066
3045.00,0.0066
3044.00,0.0067
3043.00,0.0067
3042.00,0.0067
3041.00,0.0067
3040.00,0.0068
3039.00,0.0068
3038.00,0.0069
3037.00,0.0069
3036.00,0.0070
3035.00,0.0070
3034.00,0.0071
3033.00,0.0071
3032.00,0.0071
3031.00,0.0071
3030.00,0.0071
3029.00,0.0071
3028.00,0.0071
3027.00,0.0070
3026.00,0.0070
3025.00,0.0070
3024.00,0.0069
3023.00,0.0069
3022.00,0.0069
3021.00,0.0069
3020.00,0.0070
3019.00,0.0070
3018.00,0.0071
3017.00,0.0071
3016.00,0.0072
3015.00,0.0073
3014.00,0.0073
3013.00,0.0074
3012.00,0.0076
3011.00,0.0077
3010.00,0.0079
3009.00,0.0080
3008.00,0.0082
3007.00,0.0083
3006.00,0.0085
3005.00,0.0086
3004.00,0.0088
3003.00,0.0090
3002.00,0.0092
3001.00,0.0094
3000.00,0.0097
2999.00,0.0099
2998.00,0.0102
2997.00,0.0104
2996.00,0.0107
2995.00,0.0110
2994.00,0.0113
2993.00,0.0117
2992.00,0.0120
2991.00,0.0123
2990.00,0.0127
2989.00,0.0130
2988.00,0.0133
2987.00,0.0136
2986.00,0.0138
2985.00,0.0141
2984.00,0.0143
2983.00,0.0146
2982.00,0.0149
2981.00,0.0153
2980.00,0.0157
2979.00,0.0161
2978.00,0.0166
2977.00,0.0171
2976.00,0.0177
2975.00,0.0183
2974.00,0.0190
2973.00,0.0197
2972.00,0.0204
2971.00,0.0211
2970.00,0.0218
2969.00,0.0225
2968.00,0.0231
2967.00,0.0236
2966.00,0.0240
2965.00,0.0243
2964.00,0.0245
2963.00,0.0246
2962.00,0.0247
2961.00,0.0248
2960.00,0.0248
2959.00,0.0248
2958.00,0.0247
2957.00,0.0246
2956.00,0.0245
2955.00,0.0244
2954.00,0.0243
2953.00,0.0242
2952.00,0.0242
2951.00,0.0242
2950.00,0.0243
2949.00,0.0245
2948.00,0.0248
2947.00,0.0251
2946.00,0.0256
2945.00,0.0260
2944.00,0.0265
2943.00,0.0268
2942.00,0.0272
2941.00,0.0276
2940.00,0.0279
2939.00,0.0283
2938.00,0.0287
2937.00,0.0292
2936.00,0.0297
2935.00,0.0303
2934.00,0.0308
2933.00,0.0315
2932.00,0.0321
2931.00,0.0327
2930.00,0.0333
2929.00,0.0339
2928.00,0.0345
2927.00,0.0349
2926.00,0.0352
2925.00,0.0354
2924.00,0.0354
2923.00,0.0354
2922.00,0.0352
2921.00,0.0350
2920.00,0.0348
2919.00,0.0346
2918.00,0.0344
2917.00,0.0341
2916.00,0.0338
2915.00,0.0334
2914.00,0.0330
2913.00,0.0324
2912.00,0.0318
2911.00,0.0311
2910.00,0.0303
2909.00,0.0296
2908.00,0.0289
2907.00,0.0282
2906.00,0.0276
2905.00,0.0270
2904.00,0.0266
2903.00,0.0262
2902.00,0.0259
2901.00,0.0256
2900.00,0.0253
2899.00,0.0250
2898.00,0.0246
2897.00,0.0243
2896.00,0.0240
2895.00,0.0237
2894.00,0.0235
2893.00,0.0232
2892.00,0.0230
2891.00,0.0228
2890.00,0.0226
2889.00,0.0225
2888.00,0.0225
2887.00,0.0224
2886.00,0.0224
2885.00,0.0223
2884.00,0.0223
2883.00,0.0223
2882.00,0.0223
2881.00,0.0223
2880.00,0.0224
2879.00,0.0224
2878.00,0.0225
2877.00,0.0225
2876.00,0.0226
2875.00,0.0227
2874.00,0.0228
2873.00,0.0228
2872.00,0.0229
2871.00,0.0228
2870.00,0.0227
2869.00,0.0226
2868.00,0.0224
2867.00,0.0222
2866.00,0.0222
2865.00,0.0223
2864.00,0.0225
2863.00,0.0229
2862.00,0.0234
2861.00,0.0241
2860.00,0.0248
2859.00,0.0256
2858.00,0.0262
2857.00,0.0266
2856.00,0.0267
2855.00,0.0264
2854.00,0.0257
2853.00,0.0248
2852.00,0.0237
2851.00,0.0225
2850.00,0.0214
2849.00,0.0203
2848.00,0.0193
2847.00,0.0183
2846.00,0.0175
2845.00,0.0168
2844.00,0.0162
2843.00,0.0156
2842.00,0.0151
2841.00,0.0147
2840.00,0.0143
2839.00,0.0141
2838.00,0.0139
2837.00,0.0139
2836.00,0.0140
2835.00,0.0142
2834.00,0.0144
2833.00,0.0148
2832.00,0.0152
2831.00,0.0155
2830.00,0.0156
2829.00,0.0155
2828.00,0.0151
2827.00,0.0146
2826.00,0.0138
2825.00,0.0131
2824.00,0.0124
2823.00,0.0117
2822.00,0.0112
2821.00,0.0108
2820.00,0.0104
2819.00,0.0101
2818.00,0.0099
2817.00,0.0097
2816.00,0.0095
2815.00,0.0093
2814.00,0.0092
2813.00,0.0090
2812.00,0.0089
2811.00,0.0088
2810.00,0.0087
2809.00,0.0086
2808.00,0.0085
2807.00,0.0085
2806.00,0.0084
2805.00,0.0083
2804.00,0.0082
2803.00,0.0082
2802.00,0.0081
2801.00,0.0081
2800.00,0.0080
2799.00,0.0079
2798.00,0.0078
2797.00,0.0078
2796.00,0.0077
2795.00,0.0077
2794.00,0.0076
2793.00,0.0076
2792.00,0.0076
2791.00,0.0075
2790.00,0.0075
2789.00,0.0074
2788.00,0.0074
2787.00,0.0074
2786.00,0.0073
2785.00,0.0073
2784.00,0.0073
2783.00,0.0073
2782.00,0.0072
2781.00,0.0072
2780.00,0.0072
2779.00,0.0071
2778.00,0.0071
2777.00,0.0070
2776.00,0.0070
2775.00,0.0070
2774.00,0.0069
2773.00,0.0069
2772.00,0.0069
2771.00,0.0069
2770.00,0.0069
2769.00,0.0069
2768.00,0.0069
2767.00,0.0069
2766.00,0.0068
2765.00,0.0068
2764.00,0.0068
2763.00,0.0067
2762.00,0.0067
2761.00,0.0067
2760.00,0.0067
2759.00,0.0067
2758.00,0.0067
2757.00,0.0067
2756.00,0.0067
2755.00,0.0067
2754.00,0.0067
2753.00,0.0067
2752.00,0.0067
2751.00,0.0066
2750.00,0.0066
2749.00,0.0066
2748.00,0.0066
2747.00,0.0066
2746.00,0.0067
2745.00,0.0067
2744.00,0.0067
2743.00,0.0067
2742.00,0.0067
2741.00,0.0067
2740.00,0.0067
2739.00,0.0067
2738.00,0.0067
2737.00,0.0068
2736.00,0.0068
2735.00,0.0068
2734.00,0.0069
2733.00,0.0069
2732.00,0.0070
2731.00,0.0070
2730.00,0.0070
2729.00,0.0070
2728.00,0.0070
2727.00,0.0070
2726.00,0.0069
2725.00,0.0068
2724.00,0.0068
2723.00,0.0068
2722.00,0.0067
2721.00,0.0067
2720.00,0.0067
2719.00,0.0066
2718.00,0.0066
2717.00,0.0066
2716.00,0.0065
2715.00,0.0065
2714.00,0.0064
2713.00,0.0064
2712.00,0.0064
2711.00,0.0064
2710.00,0.0064
2709.00,0.0064
2708.00,0.0064
2707.00,0.0063
2706.00,0.0063
2705.00,0.0063
2704.00,0.0063
2703.00,0.0063
2702.00,0.0063
2701.00,0.0063
2700.00,0.0062
2699.00,0.0062
2698.00,0.0062
2697.00,0.0062
2696.00,0.0062
2695.00,0.0062
2694.00,0.0062
2693.00,0.0062
2692.00,0.0062
2691.00,0.0062
2690.00,0.0062
2689.00,0.0062
2688.00,0.0062
2687.00,0.0062
2686.00,0.0062
2685.00,0.0062
2684.00,0.0062
2683.00,0.0063
2682.00,0.0062
2681.00,0.0062
2680.00,0.0062
2679.00,0.0062
2678.00,0.0062
2677.00,0.0062
2676.00,0.0062
2675.00,0.0062
2674.00,0.0063
2673.00,0.0063
2672.00,0.0063
2671.00,0.0063
2670.00,0.0063
2669.00,0.0063
2668.00,0.0064
2667.00,0.0064
2666.00,0.0064
2665.00,0.0065
2664.00,0.0065
2663.00,0.0066
2662.00,0.0066
2661.00,0.0066
2660.00,0.0066
2659.00,0.0067
2658.00,0.0067
2657.00,0.0067
2656.00,0.0067
2655.00,0.0067
2654.00,0.0067
2653.00,0.0067
2652.00,0.0067
2651.00,0.0067
2650.00,0.0067
2649.00,0.0067
2648.00,0.0067
2647.00,0.0067
2646.00,0.0067
2645.00,0.0067
2644.00,0.0066
2643.00,0.0066
2642.00,0.0066
2641.00,0.0066
2640.00,0.0066
2639.00,0.0066
2638.00,0.0066
2637.00,0.0066
2636.00,0.0066
2635.00,0.0065
2634.00,0.0065
2633.00,0.0065
2632.00,0.0065
2631.00,0.0065
2630.00,0.0065
2629.00,0.0065
2628.00,0.0065
2627.00,0.0065
2626.00,0.0064
2625.00,0.0065
2624.00,0.0065
2623.00,0.0065
2622.00,0.0064
2621.00,0.0064
2620.00,0.0064
2619.00,0.0064
2618.00,0.0064
2617.00,0.0064
2616.00,0.0064
2615.00,0.0064
2614.00,0.0064
2613.00,0.0063
2612.00,0.0063
2611.00,0.0063
2610.00,0.0062
2609.00,0.0062
2608.00,0.0062
2607.00,0.0063
2606.00,0.0063
2605.00,0.0063
2604.00,0.0063
2603.00,0.0063
2602.00,0.0062
2601.00,0.0062
2600.00,0.0062
2599.00,0.0061
2598.00,0.0061
2597.00,0.0062
2596.00,0.0062
2595.00,0.0062
2594.00,0.0061
2593.00,0.0061
2592.00,0.0061
2591.00,0.0061
2590.00,0.0061
2589.00,0.0062
2588.00,0.0062
2587.00,0.0062
2586.00,0.0062
2585.00,0.0062
2584.00,0.0062
2583.00,0.0061
2582.00,0.0061
2581.00,0.0061
2580.00,0.0061
2579.00,0.0061
2578.00,0.0062
2577.00,0.0061
2576.00,0.0061
2575.00,0.0061
2574.00,0.0061
2573.00,0.0060
2572.00,0.0060
2571.00,0.0060
2570.00,0.0060
2569.00,0.0060
2568.00,0.0061
2567.00,0.0061
2566.00,0.0061
2565.00,0.0061
2564.00,0.0060
2563.00,0.0060
2562.00,0.0061
2561.00,0.0061
2560.00,0.0061
2559.00,0.0060
2558.00,0.0060
2557.00,0.0060
2556.00,0.0059
2555.00,0.0059
2554.00,0.0059
2553.00,0.0060
2552.00,0.0060
2551.00,0.0060
2550.00,0.0059
2549.00,0.0059
2548.00,0.0059
2547.00,0.0058
2546.00,0.0058
2545.00,0.0058
2544.00,0.0058
2543.00,0.0058
2542.00,0.0058
2541.00,0.0058
2540.00,0.0058
2539.00,0.0058
2538.00,0.0058
2537.00,0.0058
2536.00,0.0058
2535.00,0.0058
2534.00,0.0058
2533.00,0.0058
2532.00,0.0058
2531.00,0.0058
2530.00,0.0058
2529.00,0.0058
2528.00,0.0058
2527.00,0.0058
2526.00,0.0058
2525.00,0.0058
2524.00,0.0058
2523.00,0.0057
2522.00,0.0057
2521.00,0.0057
2520.00,0.0057
2519.00,0.0057
2518.00,0.0057
2517.00,0.0057
2516.00,0.0057
2515.00,0.0057
2514.00,0.0057
2513.00,0.0057
2512.00,0.0057
2511.00,0.0057
2510.00,0.0057
2509.00,0.0056
2508.00,0.0056
2507.00,0.0056
2506.00,0.0056
2505.00,0.0056
2504.00,0.0056
2503.00,0.0055
2502.00,0.0056
2501.00,0.0056
2500.00,0.0056
2499.00,0.0056
2498.00,0.0056
2497.00,0.0056
2496.00,0.0056
2495.00,0.0056
2494.00,0.0056
2493.00,0.0056
2492.00,0.0056
2491.00,0.0056
2490.00,0.0056
2489.00,0.0056
2488.00,0.0056
2487.00,0.0055
2486.00,0.0055
2485.00,0.0055
2484.00,0.0056
2483.00,0.0056
2482.00,0.0056
2481.00,0.0056
2480.00,0.0056
2479.00,0.0056
2478.00,0.0056
2477.00,0.0056
2476.00,0.0056
2475.00,0.0056
2474.00,0.0055
2473.00,0.0055
2472.00,0.0056
2471.00,0.0056
2470.00,0.0056
2469.00,0.0056
2468.00,0.0056
2467.00,0.0056
2466.00,0.0056
2465.00,0.0057
2464.00,0.0057
2463.00,0.0057
2462.00,0.0057
2461.00,0.0057
2460.00,0.0057
2459.00,0.0057
2458.00,0.0058
2457.00,0.0058
2456.00,0.0058
2455.00,0.0058
2454.00,0.0058
2453.00,0.0057
2452.00,0.0057
2451.00,0.0057
2450.00,0.0057
2449.00,0.0057
2448.00,0.0058
2447.00,0.0057
2446.00,0.0057
2445.00,0.0057
2444.00,0.0056
2443.00,0.0056
2442.00,0.0055
2441.00,0.0055
2440.00,0.0055
2439.00,0.0055
2438.00,0.0055
2437.00,0.0055
2436.00,0.0055
2435.00,0.0055
2434.00,0.0054
2433.00,0.0054
2432.00,0.0054
2431.00,0.0054
2430.00,0.0054
2429.00,0.0054
2428.00,0.0053
2427.00,0.0053
2426.00,0.0053
2425.00,0.0053
2424.00,0.0053
2423.00,0.0053
2422.00,0.0053
2421.00,0.0053
2420.00,0.0053
2419.00,0.0053
2418.00,0.0053
2417.00,0.0053
2416.00,0.0053
2415.00,0.0053
2414.00,0.0053
2413.00,0.0053
2412.00,0.0053
2411.00,0.0053
2410.00,0.0052
2409.00,0.0051
2408.00,0.0051
2407.00,0.0051
2406.00,0.0051
2405.00,0.0051
2404.00,0.0052
2403.00,0.0052
2402.00,0.0052
2401.00,0.0051
2400.00,0.0051
2399.00,0.0051
2398.00,0.0051
2397.00,0.0051
2396.00,0.0051
2395.00,0.0051
2394.00,0.0051
2393.00,0.0051
2392.00,0.0051
2391.00,0.0051
2390.00,0.0050
2389.00,0.0050
2388.00,0.0050
2387.00,0.0049
2386.00,0.0048
2385.00,0.0048
2384.00,0.0047
2383.00,0.0047
2382.00,0.0046
2381.00,0.0046
2380.00,0.0046
2379.00,0.0046
2378.00,0.0046
2377.00,0.0046
2376.00,0.0046
2375.00,0.0047
2374.00,0.0047
2373.00,0.0047
2372.00,0.0046
2371.00,0.0046
2370.00,0.0045
2369.00,0.0045
2368.00,0.0045
2367.00,0.0045
2366.00,0.0046
2365.00,0.0046
2364.00,0.0046
2363.00,0.0047
2362.00,0.0047
2361.00,0.0047
2360.00,0.0048
2359.00,0.0048
2358.00,0.0048
2357.00,0.0049
2356.00,0.0049
2355.00,0.0048
2354.00,0.0048
2353.00,0.0048
2352.00,0.0048
2351.00,0.0049
2350.00,0.0049
2349.00,0.0049
2348.00,0.0049
2347.00,0.0049
2346.00,0.0050
2345.00,0.0050
2344.00,0.0051
2343.00,0.0051
2342.00,0.0052
2341.00,0.0052
2340.00,0.0053
2339.00,0.0053
2338.00,0.0053
2337.00,0.0053
2336.00,0.0054
2335.00,0.0054
2334.00,0.0053
2333.00,0.0053
2332.00,0.0052
2331.00,0.0052
2330.00,0.0053
2329.00,0.0056
2328.00,0.0060
2327.00,0.0064
2326.00,0.0067
2325.00,0.0068
2324.00,0.0067
2323.00,0.0065
2322.00,0.0063
2321.00,0.0062
2320.00,0.0061
2319.00,0.0060
2318.00,0.0059
2317.00,0.0059
2316.00,0.0059
2315.00,0.0058
2314.00,0.0057
2313.00,0.0057
2312.00,0.0056
2311.00,0.0056
2310.00,0.0056
2309.00,0.0056
2308.00,0.0056
2307.00,0.0056
2306.00,0.0057
2305.00,0.0057
2304.00,0.0057
2303.00,0.0057
2302.00,0.0057
2301.00,0.0057
2300.00,0.0057
2299.00,0.0057
2298.00,0.0058
2297.00,0.0059
2296.00,0.0060
2295.00,0.0061
2294.00,0.0061
2293.00,0.0062
2292.00,0.0063
2291.00,0.0064
2290.00,0.0064
2289.00,0.0065
2288.00,0.0065
2287.00,0.0065
2286.00,0.0065
2285.00,0.0064
2284.00,0.0063
2283.00,0.0063
2282.00,0.0062
2281.00,0.0061
2280.00,0.0061
2279.00,0.0060
2278.00,0.0059
2277.00,0.0059
2276.00,0.0058
2275.00,0.0058
2274.00,0.0058
2273.00,0.0058
2272.00,0.0058
2271.00,0.0058
2270.00,0.0057
2269.00,0.0057
2268.00,0.0056
2267.00,0.0056
2266.00,0.0056
2265.00,0.0055
2264.00,0.0055
2263.00,0.0055
2262.00,0.0055
2261.00,0.0056
2260.00,0.0057
2259.00,0.0058
2258.00,0.0057
2257.00,0.0056
2256.00,0.0055
2255.00,0.0054
2254.00,0.0054
2253.00,0.0054
2252.00,0.0055
2251.00,0.0056
2250.00,0.0056
2249.00,0.0055
2248.00,0.0055
2247.00,0.0054
2246.00,0.0053
2245.00,0.0053
2244.00,0.0053
2243.00,0.0054
2242.00,0.0054
2241.00,0.0055
2240.00,0.0056
2239.00,0.0057
2238.00,0.0057
2237.00,0.0057
2236.00,0.0057
2235.00,0.0056
2234.00,0.0056
2233.00,0.0055
2232.00,0.0055
2231.00,0.0055
2230.00,0.0055
2229.00,0.0055
2228.00,0.0055
2227.00,0.0055
2226.00,0.0055
2225.00,0.0054
2224.00,0.0054
2223.00,0.0054
2222.00,0.0054
2221.00,0.0054
2220.00,0.0054
2219.00,0.0054
2218.00,0.0053
2217.00,0.0053
2216.00,0.0053
2215.00,0.0052
2214.00,0.0051
2213.00,0.0051
2212.00,0.0051
2211.00,0.0052
2210.00,0.0052
2209.00,0.0052
2208.00,0.0052
2207.00,0.0052
2206.00,0.0053
2205.00,0.0054
2204.00,0.0054
2203.00,0.0053
2202.00,0.0052
2201.00,0.0052
2200.00,0.0053
2199.00,0.0054
2198.00,0.0054
2197.00,0.0055
2196.00,0.0055
2195.00,0.0056
2194.00,0.0057
2193.00,0.0058
2192.00,0.0058
2191.00,0.0058
2190.00,0.0057
2189.00,0.0058
2188.00,0.0059
2187.00,0.0060
2186.00,0.0060
2185.00,0.0057
2184.00,0.0055
2183.00,0.0052
2182.00,0.0051
2181.00,0.0051
2180.00,0.0052
2179.00,0.0052
2178.00,0.0051
2177.00,0.0050
2176.00,0.0049
2175.00,0.0049
2174.00,0.0051
2173.00,0.0054
2172.00,0.0057
2171.00,0.0061
2170.00,0.0064
2169.00,0.0065
2168.00,0.0066
2167.00,0.0067
2166.00,0.0068
2165.00,0.0070
2164.00,0.0072
2163.00,0.0072
2162.00,0.0064
2161.00,0.0050
2160.00,0.0033
2159.00,0.0020
2158.00,0.0015
2157.00,0.0017
2156.00,0.0022
2155.00,0.0027
2154.00,0.0031
2153.00,0.0035
2152.00,0.0037
2151.00,0.0037
2150.00,0.0036
2149.00,0.0034
2148.00,0.0033
2147.00,0.0032
2146.00,0.0033
2145.00,0.0034
2144.00,0.0035
2143.00,0.0035
2142.00,0.0036
2141.00,0.0037
2140.00,0.0038
2139.00,0.0038
2138.00,0.0037
2137.00,0.0036
2136.00,0.0033
2135.00,0.0031
2134.00,0.0030
2133.00,0.0031
2132.00,0.0033
2131.00,0.0035
2130.00,0.0038
2129.00,0.0040
2128.00,0.0042
2127.00,0.0044
2126.00,0.0045
2125.00,0.0046
2124.00,0.0047
2123.00,0.0047
2122.00,0.0047
2121.00,0.0048
2120.00,0.0049
2119.00,0.0050
2118.00,0.0051
2117.00,0.0052
2116.00,0.0053
2115.00,0.0053
2114.00,0.0054
2113.00,0.0054
2112.00,0.0054
2111.00,0.0053
2110.00,0.0052
2109.00,0.0052
2108.00,0.0052
2107.00,0.0052
2106.00,0.0052
2105.00,0.0053
2104.00,0.0053
2103.00,0.0052
2102.00,0.0051
2101.00,0.0051
2100.00,0.0051
2099.00,0.0050
2098.00,0.0049
2097.00,0.0048
2096.00,0.0047
2095.00,0.0046
2094.00,0.0047
2093.00,0.0048
2092.00,0.0049
2091.00,0.0050
2090.00,0.0051
2089.00,0.0052
2088.00,0.0053
2087.00,0.0053
2086.00,0.0052
2085.00,0.0051
2084.00,0.0051
2083.00,0.0052
2082.00,0.0052
2081.00,0.0053
2080.00,0.0053
2079.00,0.0054
2078.00,0.0054
2077.00,0.0054
2076.00,0.0054
2075.00,0.0053
2074.00,0.0053
2073.00,0.0052
2072.00,0.0052
2071.00,0.0051
2070.00,0.0049
2069.00,0.0049
2068.00,0.0049
2067.00,0.0050
2066.00,0.0050
2065.00,0.0051
2064.00,0.0051
2063.00,0.0050
2062.00,0.0049
2061.00,0.0048
2060.00,0.0049
2059.00,0.0050
2058.00,0.0050
2057.00,0.0049
2056.00,0.0049
2055.00,0.0049
2054.00,0.0051
2053.00,0.0055
2052.00,0.0059
2051.00,0.0060
2050.00,0.0057
2049.00,0.0054
2048.00,0.0053
2047.00,0.0051
2046.00,0.0050
2045.00,0.0048
2044.00,0.0048
2043.00,0.0048
2042.00,0.0048
2041.00,0.0048
2040.00,0.0049
2039.00,0.0051
2038.00,0.0050
2037.00,0.0049
2036.00,0.0047
2035.00,0.0043
2034.00,0.0040
2033.00,0.0039
2032.00,0.0039
2031.00,0.0039
2030.00,0.0039
2029.00,0.0039
2028.00,0.0039
2027.00,0.0039
2026.00,0.0039
2025.00,0.0040
2024.00,0.0041
2023.00,0.0042
2022.00,0.0042
2021.00,0.0041
2020.00,0.0042
2019.00,0.0041
2018.00,0.0040
2017.00,0.0040
2016.00,0.0040
2015.00,0.0041
2014.00,0.0040
2013.00,0.0040
2012.00,0.0041
2011.00,0.0041
2010.00,0.0039
2009.00,0.0037
2008.00,0.0035
2007.00,0.0032
2006.00,0.0031
2005.00,0.0031
2004.00,0.0033
2003.00,0.0034
2002.00,0.0036
2001.00,0.0037
2000.00,0.0039
1999.00,0.0041
1998.00,0.0042
1997.00,0.0042
1996.00,0.0043
1995.00,0.0043
1994.00,0.0043
1993.00,0.0044
1992.00,0.0046
1991.00,0.0047
1990.00,0.0048
1989.00,0.0049
1988.00,0.0050
1987.00,0.0051
1986.00,0.0050
1985.00,0.0051
1984.00,0.0053
1983.00,0.0057
1982.00,0.0060
1981.00,0.0061
1980.00,0.0058
1979.00,0.0050
1978.00,0.0042
1977.00,0.0036
1976.00,0.0035
1975.00,0.0034
1974.00,0.0034
1973.00,0.0034
1972.00,0.0036
1971.00,0.0038
1970.00,0.0038
1969.00,0.0038
1968.00,0.0038
1967.00,0.0038
1966.00,0.0037
1965.00,0.0036
1964.00,0.0036
1963.00,0.0036
1962.00,0.0034
1961.00,0.0032
1960.00,0.0031
1959.00,0.0031
1958.00,0.0032
1957.00,0.0034
1956.00,0.0036
1955.00,0.0037
1954.00,0.0036
1953.00,0.0036
1952.00,0.0036
1951.00,0.0037
1950.00,0.0037
1949.00,0.0037
1948.00,0.0038
1947.00,0.0038
1946.00,0.0037
1945.00,0.0037
1944.00,0.0038
1943.00,0.0038
1942.00,0.0037
1941.00,0.0036
1940.00,0.0036
1939.00,0.0036
1938.00,0.0037
1937.00,0.0037
1936.00,0.0038
1935.00,0.0038
1934.00,0.0037
1933.00,0.0037
1932.00,0.0037
1931.00,0.0037
1930.00,0.0038
1929.00,0.0038
1928.00,0.0039
1927.00,0.0039
1926.00,0.0039
1925.00,0.0040
1924.00,0.0042
1923.00,0.0043
1922.00,0.0042
1921.00,0.0042
1920.00,0.0042
1919.00,0.0041
1918.00,0.0041
1917.00,0.0041
1916.00,0.0041
1915.00,0.0041
1914.00,0.0042
1913.00,0.0043
1912.00,0.0044
1911.00,0.0044
1910.00,0.0044
1909.00,0.0044
1908.00,0.0043
1907.00,0.0042
1906.00,0.0042
1905.00,0.0041
1904.00,0.0042
1903.00,0.0042
1902.00,0.0042
1901.00,0.0043
1900.00,0.0043
1899.00,0.0043
1898.00,0.0043
1897.00,0.0043
1896.00,0.0044
1895.00,0.0044
1894.00,0.0043
1893.00,0.0043
1892.00,0.0044
1891.00,0.0044
1890.00,0.0044
1889.00,0.0043
1888.00,0.0043
1887.00,0.0043
1886.00,0.0043
1885.00,0.0044
1884.00,0.0044
1883.00,0.0044
1882.00,0.0044
1881.00,0.0043
1880.00,0.0043
1879.00,0.0043
1878.00,0.0043
1877.00,0.0043
1876.00,0.0044
1875.00,0.0044
1874.00,0.0044
1873.00,0.0044
1872.00,0.0044
1871.00,0.0045
1870.00,0.0045
1869.00,0.0045
1868.00,0.0045
1867.00,0.0045
1866.00,0.0044
1865.00,0.0044
1864.00,0.0044
1863.00,0.0044
1862.00,0.0044
1861.00,0.0044
1860.00,0.0044
1859.00,0.0044
1858.00,0.0044
1857.00,0.0044
1856.00,0.0044
1855.00,0.0044
1854.00,0.0044
1853.00,0.0044
1852.00,0.0044
1851.00,0.0045
1850.00,0.0046
1849.00,0.0046
1848.00,0.0046
1847.00,0.0046
1846.00,0.0045
1845.00,0.0043
1844.00,0.0043
1843.00,0.0043
1842.00,0.0043
1841.00,0.0044
1840.00,0.0045
1839.00,0.0046
1838.00,0.0045
1837.00,0.0045
1836.00,0.0045
1835.00,0.0044
1834.00,0.0045
1833.00,0.0045
1832.00,0.0046
1831.00,0.0046
1830.00,0.0046
1829.00,0.0045
1828.00,0.0045
1827.00,0.0046
1826.00,0.0047
1825.00,0.0047
1824.00,0.0047
1823.00,0.0046
1822.00,0.0045
1821.00,0.0045
1820.00,0.0044
1819.00,0.0043
1818.00,0.0042
1817.00,0.0042
1816.00,0.0042
1815.00,0.0044
1814.00,0.0045
1813.00,0.0046
1812.00,0.0047
1811.00,0.0047
1810.00,0.0047
1809.00,0.0047
1808.00,0.0047
1807.00,0.0047
1806.00,0.0047
1805.00,0.0047
1804.00,0.0048
1803.00,0.0049
1802.00,0.0050
1801.00,0.0049
1800.00,0.0049
1799.00,0.0048
1798.00,0.0048
1797.00,0.0049
1796.00,0.0049
1795.00,0.0049
1794.00,0.0048
1793.00,0.0048
1792.00,0.0047
1791.00,0.0047
1790.00,0.0047
1789.00,0.0047
1788.00,0.0048
1787.00,0.0048
1786.00,0.0048
1785.00,0.0048
1784.00,0.0049
1783.00,0.0049
1782.00,0.0050
1781.00,0.0050
1780.00,0.0050
1779.00,0.0049
1778.00,0.0049
1777.00,0.0050
1776.00,0.0051
1775.00,0.0051
1774.00,0.0051
1773.00,0.0050
1772.00,0.0050
1771.00,0.0051
1770.00,0.0051
1769.00,0.0051
1768.00,0.0051
1767.00,0.0051
1766.00,0.0050
1765.00,0.0051
1764.00,0.0051
1763.00,0.0051
1762.00,0.0051
1761.00,0.0051
1760.00,0.0052
1759.00,0.0052
1758.00,0.0052
1757.00,0.0052
1756.00,0.0053
1755.00,0.0053
1754.00,0.0053
1753.00,0.0054
1752.00,0.0056
1751.00,0.0057
1750.00,0.0058
1749.00,0.0059
1748.00,0.0060
1747.00,0.0060
1746.00,0.0060
1745.00,0.0061
1744.00,0.0062
1743.00,0.0061
1742.00,0.0060
1741.00,0.0059
1740.00,0.0059
1739.00,0.0060
1738.00,0.0060
1737.00,0.0061
1736.00,0.0061
1735.00,0.0062
1734.00,0.0062
1733.00,0.0064
1732.00,0.0067
1731.00,0.0069
1730.00,0.0070
1729.00,0.0070
1728.00,0.0071
1727.00,0.0072
1726.00,0.0074
1725.00,0.0075
1724.00,0.0078
1723.00,0.0079
1722.00,0.0080
1721.00,0.0081
1720.00,0.0083
1719.00,0.0086
1718.00,0.0089
1717.00,0.0092
1716.00,0.0096
1715.00,0.0099
1714.00,0.0102
1713.00,0.0105
1712.00,0.0110
1711.00,0.0114
1710.00,0.0119
1709.00,0.0124
1708.00,0.0130
1707.00,0.0138
1706.00,0.0148
1705.00,0.0158
1704.00,0.0166
1703.00,0.0172
1702.00,0.0179
1701.00,0.0194
1700.00,0.0219
1699.00,0.0242
1698.00,0.0259
1697.00,0.0277
1696.00,0.0302
1695.00,0.0330
1694.00,0.0354
1693.00,0.0373
1692.00,0.0393
1691.00,0.0416
1690.00,0.0441
1689.00,0.0467
1688.00,0.0489
1687.00,0.0505
1686.00,0.0522
1685.00,0.0555
1684.00,0.0603
1683.00,0.0645
1682.00,0.0670
1681.00,0.0688
1680.00,0.0706
1679.00,0.0721
1678.00,0.0734
1677.00,0.0747
1676.00,0.0769
1675.00,0.0799
1674.00,0.0824
1673.00,0.0838
1672.00,0.0848
1671.00,0.0861
1670.00,0.0883
1669.00,0.0910
1668.00,0.0932
1667.00,0.0944
1666.00,0.0949
1665.00,0.0952
1664.00,0.0963
1663.00,0.0982
1662.00,0.1003
1661.00,0.1018
1660.00,0.1028
1659.00,0.1033
1658.00,0.1034
1657.00,0.1030
1656.00,0.1021
1655.00,0.1013
1654.00,0.1028
1653.00,0.1071
1652.00,0.1104
1651.00,0.1106
1650.00,0.1091
1649.00,0.1075
1648.00,0.1071
1647.00,0.1083
1646.00,0.1099
1645.00,0.1101
1644.00,0.1088
1643.00,0.1063
1642.00,0.1032
1641.00,0.1000
1640.00,0.0968
1639.00,0.0938
1638.00,0.0911
1637.00,0.0891
1636.00,0.0884
1635.00,0.0885
1634.00,0.0881
1633.00,0.0868
1632.00,0.0849
1631.00,0.0829
1630.00,0.0810
1629.00,0.0793
1628.00,0.0781
1627.00,0.0771
1626.00,0.0761
1625.00,0.0750
1624.00,0.0741
1623.00,0.0729
1622.00,0.0711
1621.00,0.0684
1620.00,0.0650
1619.00,0.0614
1618.00,0.0579
1617.00,0.0545
1616.00,0.0517
1615.00,0.0494
1614.00,0.0474
1613.00,0.0454
1612.00,0.0434
1611.00,0.0416
1610.00,0.0400
1609.00,0.0386
1608.00,0.0372
1607.00,0.0360
1606.00,0.0349
1605.00,0.0339
1604.00,0.0330
1603.00,0.0322
1602.00,0.0315
1601.00,0.0309
1600.00,0.0303
1599.00,0.0299
1598.00,0.0296
1597.00,0.0295
1596.00,0.0295
1595.00,0.0297
1594.00,0.0301
1593.00,0.0308
1592.00,0.0317
1591.00,0.0330
1590.00,0.0346
1589.00,0.0362
1588.00,0.0379
1587.00,0.0395
1586.00,0.0409
1585.00,0.0420
1584.00,0.0429
1583.00,0.0434
1582.00,0.0434
1581.00,0.0428
1580.00,0.0416
1579.00,0.0399
1578.00,0.0379
1577.00,0.0355
1576.00,0.0331
1575.00,0.0310
1574.00,0.0294
1573.00,0.0279
1572.00,0.0264
1571.00,0.0250
1570.00,0.0237
1569.00,0.0225
1568.00,0.0215
1567.00,0.0207
1566.00,0.0200
1565.00,0.0193
1564.00,0.0187
1563.00,0.0180
1562.00,0.0173
1561.00,0.0166
1560.00,0.0162
1559.00,0.0159
1558.00,0.0158
1557.00,0.0158
1556.00,0.0158
1555.00,0.0157
1554.00,0.0156
1553.00,0.0154
1552.00,0.0153
1551.00,0.0152
1550.00,0.0151
1549.00,0.0148
1548.00,0.0145
1547.00,0.0144
1546.00,0.0143
1545.00,0.0143
1544.00,0.0141
1543.00,0.0138
1542.00,0.0136
1541.00,0.0135
1540.00,0.0133
1539.00,0.0132
1538.00,0.0133
1537.00,0.0133
1536.00,0.0133
1535.00,0.0133
1534.00,0.0133
1533.00,0.0133
1532.00,0.0133
1531.00,0.0132
1530.00,0.0132
1529.00,0.0133
1528.00,0.0133
1527.00,0.0134
1526.00,0.0135
1525.00,0.0135
1524.00,0.0136
1523.00,0.0138
1522.00,0.0142
1521.00,0.0148
1520.00,0.0154
1519.00,0.0159
1518.00,0.0165
1517.00,0.0171
1516.00,0.0176
1515.00,0.0178
1514.00,0.0178
1513.00,0.0178
1512.00,0.0178
1511.00,0.0177
1510.00,0.0177
1509.00,0.0177
1508.00,0.0177
1507.00,0.0178
1506.00,0.0181
1505.00,0.0188
1504.00,0.0195
1503.00,0.0202
1502.00,0.0209
1501.00,0.0217
1500.00,0.0225
1499.00,0.0235
1498.00,0.0245
1497.00,0.0255
1496.00,0.0265
1495.00,0.0271
1494.00,0.0273
1493.00,0.0273
1492.00,0.0272
1491.00,0.0268
1490.00,0.0263
1489.00,0.0254
1488.00,0.0243
1487.00,0.0230
1486.00,0.0218
1485.00,0.0208
1484.00,0.0199
1483.00,0.0191
1482.00,0.0185
1481.00,0.0180
1480.00,0.0177
1479.00,0.0175
1478.00,0.0175
1477.00,0.0179
1476.00,0.0184
1475.00,0.0190
1474.00,0.0201
1473.00,0.0218
1472.00,0.0242
1471.00,0.0268
1470.00,0.0294
1469.00,0.0321
1468.00,0.0348
1467.00,0.0376
1466.00,0.0408
1465.00,0.0443
1464.00,0.0476
1463.00,0.0501
1462.00,0.0515
1461.00,0.0523
1460.00,0.0524
1459.00,0.0521
1458.00,0.0515
1457.00,0.0508
1456.00,0.0501
1455.00,0.0494
1454.00,0.0488
1453.00,0.0487
1452.00,0.0491
1451.00,0.0501
1450.00,0.0517
1449.00,0.0541
1448.00,0.0573
1447.00,0.0607
1446.00,0.0638
1445.00,0.0666
1444.00,0.0691
1443.00,0.0713
1442.00,0.0734
1441.00,0.0753
1440.00,0.0766
1439.00,0.0775
1438.00,0.0785
1437.00,0.0802
1436.00,0.0818
1435.00,0.0824
1434.00,0.0820
1433.00,0.0812
1432.00,0.0804
1431.00,0.0797
1430.00,0.0792
1429.00,0.0789
1428.00,0.0787
1427.00,0.0785
1426.00,0.0785
1425.00,0.0791
1424.00,0.0799
1423.00,0.0803
1422.00,0.0800
1421.00,0.0791
1420.00,0.0778
1419.00,0.0759
1418.00,0.0732
1417.00,0.0697
1416.00,0.0656
1415.00,0.0613
1414.00,0.0569
1413.00,0.0528
1412.00,0.0489
1411.00,0.0453
1410.00,0.0421
1409.00,0.0393
1408.00,0.0368
1407.00,0.0347
1406.00,0.0329
1405.00,0.0313
1404.00,0.0298
1403.00,0.0285
1402.00,0.0275
1401.00,0.0266
1400.00,0.0258
1399.00,0.0252
1398.00,0.0247
1397.00,0.0243
1396.00,0.0239
1395.00,0.0235
1394.00,0.0233
1393.00,0.0232
1392.00,0.0231
1391.00,0.0231
1390.00,0.0232
1389.00,0.0235
1388.00,0.0240
1387.00,0.0246
1386.00,0.0254
1385.00,0.0261
1384.00,0.0270
1383.00,0.0281
1382.00,0.0295
1381.00,0.0311
1380.00,0.0330
1379.00,0.0352
1378.00,0.0374
1377.00,0.0394
1376.00,0.0410
1375.00,0.0419
1374.00,0.0421
1373.00,0.0416
1372.00,0.0407
1371.00,0.0396
1370.00,0.0385
1369.00,0.0373
1368.00,0.0361
1367.00,0.0350
1366.00,0.0339
1365.00,0.0328
1364.00,0.0317
1363.00,0.0305
1362.00,0.0294
1361.00,0.0283
1360.00,0.0273
1359.00,0.0265
1358.00,0.0258
1357.00,0.0252
1356.00,0.0247
1355.00,0.0243
1354.00,0.0240
1353.00,0.0237
1352.00,0.0234
1351.00,0.0232
1350.00,0.0231
1349.00,0.0230
1348.00,0.0229
1347.00,0.0229
1346.00,0.0230
1345.00,0.0231
1344.00,0.0232
1343.00,0.0233
1342.00,0.0235
1341.00,0.0236
1340.00,0.0235
1339.00,0.0233
1338.00,0.0231
1337.00,0.0228
1336.00,0.0227
1335.00,0.0228
1334.00,0.0232
1333.00,0.0237
1332.00,0.0243
1331.00,0.0251
1330.00,0.0260
1329.00,0.0269
1328.00,0.0279
1327.00,0.0290
1326.00,0.0302
1325.00,0.0314
1324.00,0.0324
1323.00,0.0334
1322.00,0.0342
1321.00,0.0349
1320.00,0.0355
1319.00,0.0362
1318.00,0.0370
1317.00,0.0379
1316.00,0.0388
1315.00,0.0398
1314.00,0.0407
1313.00,0.0412
1312.00,0.0414
1311.00,0.0410
1310.00,0.0404
1309.00,0.0395
1308.00,0.0388
1307.00,0.0383
1306.00,0.0382
1305.00,0.0386
1304.00,0.0392
1303.00,0.0402
1302.00,0.0414
1301.00,0.0428
1300.00,0.0445
1299.00,0.0467
1298.00,0.0492
1297.00,0.0521
1296.00,0.0554
1295.00,0.0589
1294.00,0.0626
1293.00,0.0665
1292.00,0.0703
1291.00,0.0740
1290.00,0.0774
1289.00,0.0806
1288.00,0.0833
1287.00,0.0856
1286.00,0.0874
1285.00,0.0885
1284.00,0.0890
1283.00,0.0890
1282.00,0.0885
1281.00,0.0878
1280.00,0.0870
1279.00,0.0863
1278.00,0.0859
1277.00,0.0857
1276.00,0.0857
1275.00,0.0859
1274.00,0.0861
1273.00,0.0862
1272.00,0.0859
1271.00,0.0853
1270.00,0.0843
1269.00,0.0829
1268.00,0.0810
1267.00,0.0789
1266.00,0.0765
1265.00,0.0739
1264.00,0.0712
1263.00,0.0684
1262.00,0.0657
1261.00,0.0631
1260.00,0.0605
1259.00,0.0582
1258.00,0.0561
1257.00,0.0541
1256.00,0.0524
1255.00,0.0508
1254.00,0.0495
1253.00,0.0484
1252.00,0.0475
1251.00,0.0468
1250.00,0.0463
1249.00,0.0458
1248.00,0.0453
1247.00,0.0450
1246.00,0.0447
1245.00,0.0447
1244.00,0.0450
1243.00,0.0458
1242.00,0.0469
1241.00,0.0484
1240.00,0.0501
1239.00,0.0517
1238.00,0.0532
1237.00,0.0543
1236.00,0.0550
1235.00,0.0553
1234.00,0.0554
1233.00,0.0554
1232.00,0.0551
1231.00,0.0548
1230.00,0.0546
1229.00,0.0547
1228.00,0.0552
1227.00,0.0561
1226.00,0.0571
1225.00,0.0583
1224.00,0.0595
1223.00,0.0608
1222.00,0.0623
1221.00,0.0641
1220.00,0.0661
1219.00,0.0685
1218.00,0.0709
1217.00,0.0731
1216.00,0.0746
1215.00,0.0752
1214.00,0.0748
1213.00,0.0734
1212.00,0.0712
1211.00,0.0686
1210.00,0.0658
1209.00,0.0630
1208.00,0.0604
1207.00,0.0581
1206.00,0.0560
1205.00,0.0541
1204.00,0.0521
1203.00,0.0501
1202.00,0.0481
1201.00,0.0462
1200.00,0.0444
1199.00,0.0427
1198.00,0.0412
1197.00,0.0400
1196.00,0.0390
1195.00,0.0381
1194.00,0.0375
1193.00,0.0370
1192.00,0.0367
1191.00,0.0366
1190.00,0.0366
1189.00,0.0367
1188.00,0.0368
1187.00,0.0369
1186.00,0.0372
1185.00,0.0374
1184.00,0.0377
1183.00,0.0380
1182.00,0.0383
1181.00,0.0386
1180.00,0.0388
1179.00,0.0391
1178.00,0.0395
1177.00,0.0399
1176.00,0.0403
1175.00,0.0410
1174.00,0.0420
1173.00,0.0429
1172.00,0.0435
1171.00,0.0434
1170.00,0.0426
1169.00,0.0413
1168.00,0.0399
1167.00,0.0386
1166.00,0.0374
1165.00,0.0363
1164.00,0.0354
1163.00,0.0345
1162.00,0.0338
1161.00,0.0331
1160.00,0.0325
1159.00,0.0320
1158.00,0.0317
1157.00,0.0317
1156.00,0.0320
1155.00,0.0328
1154.00,0.0341
1153.00,0.0358
1152.00,0.0375
1151.00,0.0385
1150.00,0.0383
1149.00,0.0369
1148.00,0.0347
1147.00,0.0322
1146.00,0.0301
1145.00,0.0284
1144.00,0.0272
1143.00,0.0263
1142.00,0.0256
1141.00,0.0251
1140.00,0.0247
1139.00,0.0245
1138.00,0.0244
1137.00,0.0244
1136.00,0.0244
1135.00,0.0243
1134.00,0.0242
1133.00,0.0239
1132.00,0.0236
1131.00,0.0233
1130.00,0.0230
1129.00,0.0228
1128.00,0.0226
1127.00,0.0225
1126.00,0.0224
1125.00,0.0224
1124.00,0.0224
1123.00,0.0224
1122.00,0.0224
1121.00,0.0224
1120.00,0.0224
1119.00,0.0225
1118.00,0.0226
1117.00,0.0227
1116.00,0.0228
1115.00,0.0229
1114.00,0.0230
1113.00,0.0231
1112.00,0.0231
1111.00,0.0232
1110.00,0.0234
1109.00,0.0237
1108.00,0.0239
1107.00,0.0241
1106.00,0.0244
1105.00,0.0247
1104.00,0.0250
1103.00,0.0254
1102.00,0.0259
1101.00,0.0264
1100.00,0.0267
1099.00,0.0269
1098.00,0.0268
1097.00,0.0265
1096.00,0.0260
1095.00,0.0255
1094.00,0.0250
1093.00,0.0247
1092.00,0.0244
1091.00,0.0241
1090.00,0.0240
1089.00,0.0239
1088.00,0.0239
1087.00,0.0240
1086.00,0.0242
1085.00,0.0246
1084.00,0.0251
1083.00,0.0257
1082.00,0.0264
1081.00,0.0272
1080.00,0.0278
1079.00,0.0281
1078.00,0.0281
1077.00,0.0279
1076.00,0.0275
1075.00,0.0271
1074.00,0.0268
1073.00,0.0265
1072.00,0.0262
1071.00,0.0259
1070.00,0.0257
1069.00,0.0254
1068.00,0.0251
1067.00,0.0249
1066.00,0.0248
1065.00,0.0247
1064.00,0.0247
1063.00,0.0248
1062.00,0.0250
1061.00,0.0253
1060.00,0.0257
1059.00,0.0264
1058.00,0.0275
1057.00,0.0290
1056.00,0.0309
1055.00,0.0329
1054.00,0.0348
1053.00,0.0362
1052.00,0.0369
1051.00,0.0370
1050.00,0.0365
1049.00,0.0354
1048.00,0.0339
1047.00,0.0322
1046.00,0.0307
1045.00,0.0295
1044.00,0.0288
1043.00,0.0285
1042.00,0.0285
1041.00,0.0288
1040.00,0.0292
1039.00,0.0298
1038.00,0.0307
1037.00,0.0320
1036.00,0.0336
1035.00,0.0355
1034.00,0.0373
1033.00,0.0388
1032.00,0.0395
1031.00,0.0394
1030.00,0.0388
1029.00,0.0379
1028.00,0.0370
1027.00,0.0364
1026.00,0.0364
1025.00,0.0370
1024.00,0.0382
1023.00,0.0401
1022.00,0.0424
1021.00,0.0447
1020.00,0.0466
1019.00,0.0475
1018.00,0.0474
1017.00,0.0463
1016.00,0.0446
1015.00,0.0425
1014.00,0.0405
1013.00,0.0385
1012.00,0.0367
1011.00,0.0354
1010.00,0.0346
1009.00,0.0341
1008.00,0.0341
1007.00,0.0344
1006.00,0.0352
1005.00,0.0362
1004.00,0.0372
1003.00,0.0380
1002.00,0.0384
1001.00,0.0382
1000.00,0.0374
999.00,0.0361
998.00,0.0345
997.00,0.0328
996.00,0.0312
995.00,0.0298
994.00,0.0289
993.00,0.0281
992.00,0.0276
991.00,0.0274
990.00,0.0275
989.00,0.0276
988.00,0.0278
987.00,0.0279
986.00,0.0280
985.00,0.0279
984.00,0.0276
983.00,0.0271
982.00,0.0265
981.00,0.0258
980.00,0.0252
979.00,0.0247
978.00,0.0244
977.00,0.0241
976.00,0.0238
975.00,0.0235
974.00,0.0234
973.00,0.0232
972.00,0.0232
971.00,0.0232
970.00,0.0234
969.00,0.0237
968.00,0.0240
967.00,0.0243
966.00,0.0248
965.00,0.0253
964.00,0.0259
963.00,0.0264
962.00,0.0268
961.00,0.0268
960.00,0.0263
959.00,0.0254
958.00,0.0244
957.00,0.0234
956.00,0.0224
955.00,0.0215
954.00,0.0209
953.00,0.0204
952.00,0.0200
951.00,0.0198
950.00,0.0196
949.00,0.0194
948.00,0.0193
947.00,0.0192
946.00,0.0192
945.00,0.0193
944.00,0.0194
943.00,0.0195
942.00,0.0197
941.00,0.0199
940.00,0.0201
939.00,0.0205
938.00,0.0210
937.00,0.0215
936.00,0.0220
935.00,0.0225
934.00,0.0228
933.00,0.0230
932.00,0.0230
931.00,0.0229
930.00,0.0228
929.00,0.0226
928.00,0.0224
927.00,0.0222
926.00,0.0221
925.00,0.0220
924.00,0.0218
923.00,0.0216
922.00,0.0215
921.00,0.0214
920.00,0.0213
919.00,0.0214
918.00,0.0215
917.00,0.0217
916.00,0.0218
915.00,0.0218
914.00,0.0218
913.00,0.0217
912.00,0.0215
911.00,0.0215
910.00,0.0217
909.00,0.0221
908.00,0.0226
907.00,0.0233
906.00,0.0243
905.00,0.0255
904.00,0.0268
903.00,0.0283
902.00,0.0301
901.00,0.0324
900.00,0.0351
899.00,0.0379
898.00,0.0405
897.00,0.0422
896.00,0.0425
895.00,0.0416
894.00,0.0398
893.00,0.0377
892.00,0.0357
891.00,0.0341
890.00,0.0331
889.00,0.0329
888.00,0.0337
887.00,0.0356
886.00,0.0384
885.00,0.0415
884.00,0.0440
883.00,0.0450
882.00,0.0442
881.00,0.0418
880.00,0.0385
879.00,0.0353
878.00,0.0327
877.00,0.0307
876.00,0.0293
875.00,0.0284
874.00,0.0282
873.00,0.0283
872.00,0.0287
871.00,0.0292
870.00,0.0297
869.00,0.0298
868.00,0.0296
867.00,0.0295
866.00,0.0298
865.00,0.0306
864.00,0.0317
863.00,0.0329
862.00,0.0340
861.00,0.0347
860.00,0.0351
859.00,0.0354
858.00,0.0359
857.00,0.0366
856.00,0.0376
855.00,0.0387
854.00,0.0399
853.00,0.0410
852.00,0.0420
851.00,0.0428
850.00,0.0435
849.00,0.0437
848.00,0.0435
847.00,0.0432
846.00,0.0429
845.00,0.0427
844.00,0.0424
843.00,0.0421
842.00,0.0417
841.00,0.0411
840.00,0.0404
839.00,0.0398
838.00,0.0393
837.00,0.0391
836.00,0.0389
835.00,0.0389
834.00,0.0390
833.00,0.0392
832.00,0.0394
831.00,0.0395
830.00,0.0396
829.00,0.0397
828.00,0.0395
827.00,0.0391
826.00,0.0383
825.00,0.0372
824.00,0.0358
823.00,0.0343
822.00,0.0328
821.00,0.0314
820.00,0.0300
819.00,0.0287
818.00,0.0277
817.00,0.0269
816.00,0.0262
815.00,0.0257
814.00,0.0253
813.00,0.0250
812.00,0.0247
811.00,0.0245
810.00,0.0248
809.00,0.0255
808.00,0.0267
807.00,0.0284
806.00,0.0304
805.00,0.0317
804.00,0.0320
803.00,0.0312
802.00,0.0299
801.00,0.0284
800.00,0.0270
799.00,0.0259
798.00,0.0252
797.00,0.0247
796.00,0.0243
795.00,0.0241
794.00,0.0241
793.00,0.0241
792.00,0.0241
791.00,0.0240
790.00,0.0240
789.00,0.0241
788.00,0.0242
787.00,0.0243
786.00,0.0245
785.00,0.0245
784.00,0.0243
783.00,0.0241
782.00,0.0240
781.00,0.0239
780.00,0.0238
779.00,0.0239
778.00,0.0240
777.00,0.0241
776.00,0.0240
775.00,0.0241
774.00,0.0242
773.00,0.0245
772.00,0.0247
771.00,0.0249
770.00,0.0251
769.00,0.0252
768.00,0.0252
767.00,0.0252
766.00,0.0252
765.00,0.0253
764.00,0.0255
763.00,0.0257
762.00,0.0260
761.00,0.0264
760.00,0.0267
759.00,0.0271
758.00,0.0276
757.00,0.0282
756.00,0.0288
755.00,0.0296
754.00,0.0305
753.00,0.0315
752.00,0.0323
751.00,0.0330
750.00,0.0337
749.00,0.0343
748.00,0.0346
747.00,0.0346
746.00,0.0345
745.00,0.0344
744.00,0.0343
743.00,0.0343
742.00,0.0345
741.00,0.0347
740.00,0.0350
739.00,0.0354
738.00,0.0359
737.00,0.0364
736.00,0.0368
735.00,0.0373
734.00,0.0379
733.00,0.0385
732.00,0.0389
731.00,0.0390
730.00,0.0388
729.00,0.0381
728.00,0.0372
727.00,0.0363
726.00,0.0355
725.00,0.0349
724.00,0.0343
723.00,0.0338
722.00,0.0334
721.00,0.0330
720.00,0.0326
719.00,0.0322
718.00,0.0319
717.00,0.0316
716.00,0.0312
715.00,0.0310
714.00,0.0308
713.00,0.0308
712.00,0.0307
711.00,0.0306
710.00,0.0307
709.00,0.0307
708.00,0.0306
707.00,0.0306
706.00,0.0306
705.00,0.0307
704.00,0.0306
703.00,0.0306
702.00,0.0307
701.00,0.0308
700.00,0.0309
699.00,0.0311
698.00,0.0314
697.00,0.0317
696.00,0.0319
695.00,0.0320
694.00,0.0323
693.00,0.0326
692.00,0.0328
691.00,0.0331
690.00,0.0334
689.00,0.0338
688.00,0.0340
687.00,0.0344
686.00,0.0349
685.00,0.0353
684.00,0.0356
683.00,0.0359
682.00,0.0363
681.00,0.0368
680.00,0.0372
679.00,0.0376
678.00,0.0381
677.00,0.0386
676.00,0.0391
675.00,0.0396
674.00,0.0404
673.00,0.0412
672.00,0.0419
671.00,0.0426
670.00,0.0436
669.00,0.0449
668.00,0.0464
667.00,0.0475
666.00,0.0480
665.00,0.0484
664.00,0.0489
663.00,0.0496
662.00,0.0505
661.00,0.0514
660.00,0.0522
659.00,0.0531
658.00,0.0540
657.00,0.0548
656.00,0.0556
655.00,0.0564
654.00,0.0573
653.00,0.0583
652.00,0.0592
651.00,0.0600
650.00,0.0609
649.00,0.0615
648.00,0.0617
647.00,0.0616
646.00,0.0613
645.00,0.0608
644.00,0.0602
643.00,0.0594
642.00,0.0587
641.00,0.0580
640.00,0.0573
639.00,0.0567
638.00,0.0562
637.00,0.0558
636.00,0.0554
635.00,0.0549
634.00,0.0547
633.00,0.0544
632.00,0.0541
631.00,0.0539
630.00,0.0539
629.00,0.0539
628.00,0.0538
627.00,0.0537
626.00,0.0537
625.00,0.0536
624.00,0.0534
623.00,0.0532
622.00,0.0529
621.00,0.0526
620.00,0.0520
619.00,0.0515
618.00,0.0511
617.00,0.0509
616.00,0.0508
615.00,0.0511
614.00,0.0519
613.00,0.0529
612.00,0.0537
611.00,0.0542
610.00,0.0544
609.00,0.0544
608.00,0.0542
607.00,0.0542
606.00,0.0545
605.00,0.0548
604.00,0.0551
603.00,0.0554
602.00,0.0558
601.00,0.0563
600.00,0.0566
599.00,0.0569
598.00,0.0574
597.00,0.0577
596.00,0.0580
595.00,0.0583
594.00,0.0589
593.00,0.0597
592.00,0.0605
591.00,0.0616
590.00,0.0629
589.00,0.0642
588.00,0.0654
587.00,0.0664
586.00,0.0673
585.00,0.0680
584.00,0.0682
583.00,0.0683
582.00,0.0686
581.00,0.0690
580.00,0.0693
579.00,0.0696
578.00,0.0701
577.00,0.0707
576.00,0.0711
575.00,0.0716
574.00,0.0721
573.00,0.0726
572.00,0.0729
571.00,0.0731
570.00,0.0735
569.00,0.0737
568.00,0.0735
567.00,0.0731
566.00,0.0728
565.00,0.0724
564.00,0.0719
563.00,0.0714
562.00,0.0712
561.00,0.0708
560.00,0.0702
559.00,0.0696
558.00,0.0693
557.00,0.0691
556.00,0.0687
555.00,0.0685
554.00,0.0685
553.00,0.0686
552.00,0.0688
551.00,0.0691
550.00,0.0694
549.00,0.0696
548.00,0.0694
547.00,0.0693
546.00,0.0695
545.00,0.0696
544.00,0.0695
543.00,0.0695
542.00,0.0697
541.00,0.0700
540.00,0.0703
539.00,0.0709
538.00,0.0718
537.00,0.0728
536.00,0.0733
535.00,0.0734
534.00,0.0733
533.00,0.0730
532.00,0.0724
531.00,0.0720
530.00,0.0720
529.00,0.0722
528.00,0.0724
527.00,0.0731
526.00,0.0743
525.00,0.0758
524.00,0.0772
523.00,0.0784
522.00,0.0792
521.00,0.0791
520.00,0.0778
519.00,0.0759
518.00,0.0742
517.00,0.0726
516.00,0.0711
515.00,0.0700
514.00,0.0695
513.00,0.0691
512.00,0.0687
511.00,0.0687
510.00,0.0691
509.00,0.0698
508.00,0.0703
507.00,0.0709
506.00,0.0718
505.00,0.0729
504.00,0.0738
503.00,0.0750
502.00,0.0764
501.00,0.0775
500.00,0.0782
499.00,0.0789
498.00,0.0800
497.00,0.0810
496.00,0.0815
495.00,0.0817
494.00,0.0819
493.00,0.0818
492.00,0.0813
491.00,0.0810
490.00,0.0812
489.00,0.0814
488.00,0.0814
487.00,0.0814
486.00,0.0817
485.00,0.0818
484.00,0.0815
483.00,0.0812
482.00,0.0813
481.00,0.0810
480.00,0.0803
479.00,0.0796
478.00,0.0795
477.00,0.0798
476.00,0.0798
475.00,0.0800
474.00,0.0805
473.00,0.0811
472.00,0.0813
471.00,0.0816
470.00,0.0822
469.00,0.0827
468.00,0.0827
467.00,0.0827
466.00,0.0830
465.00,0.0833
464.00,0.0830
463.00,0.0827
462.00,0.0826
461.00,0.0822
460.00,0.0814
459.00,0.0807
458.00,0.0807
457.00,0.0807
456.00,0.0803
455.00,0.0802
454.00,0.0805
453.00,0.0805
452.00,0.0796
451.00,0.0786
450.00,0.0782
449.00,0.0778
448.00,0.0773
447.00,0.0769
446.00,0.0769
445.00,0.0765
444.00,0.0753
443.00,0.0742
442.00,0.0741
441.00,0.0743
440.00,0.0741
439.00,0.0740
438.00,0.0742
437.00,0.0743
436.00,0.0739
435.00,0.0735
434.00,0.0737
433.00,0.0735
432.00,0.0726
431.00,0.0721
430.00,0.0727
429.00,0.0738
428.00,0.0746
427.00,0.0757
426.00,0.0774
425.00,0.0789
424.00,0.0793
423.00,0.0792
422.00,0.0795
421.00,0.0795
420.00,0.0784
419.00,0.0774
418.00,0.0774
417.00,0.0772
416.00,0.0759
415.00,0.0751
414.00,0.0754
413.00,0.0758
412.00,0.0755
411.00,0.0758
410.00,0.0776
409.00,0.0793
408.00,0.0796
407.00,0.0797
406.00,0.0805
405.00,0.0804
404.00,0.0786
403.00,0.0775
402.00,0.0790
401.00,0.0814
400.00,0.0825
