Created as New Dataset,Sample 1061 By YargerLab Date Monday, August 04 2025
cm-1,A
4000.00,-0.0002
3999.00,-0.0002
3998.00,-0.0002
3997.00,-0.0002
3996.00,-0.0003
3995.00,-0.0003
3994.00,-0.0003
3993.00,-0.0003
3992.00,-0.0003
3991.00,-0.0003
3990.00,-0.0002
3989.00,-0.0002
3988.00,-0.0003
3987.00,-0.0003
3986.00,-0.0003
3985.00,-0.0003
3984.00,-0.0003
3983.00,-0.0003
3982.00,-0.0003
3981.00,-0.0003
3980.00,-0.0003
3979.00,-0.0003
3978.00,-0.0003
3977.00,-0.0003
3976.00,-0.0003
3975.00,-0.0003
3974.00,-0.0003
3973.00,-0.0003
3972.00,-0.0003
3971.00,-0.0003
3970.00,-0.0003
3969.00,-0.0003
3968.00,-0.0003
3967.00,-0.0002
3966.00,-0.0002
3965.00,-0.0002
3964.00,-0.0002
3963.00,-0.0002
3962.00,-0.0002
3961.00,-0.0003
3960.00,-0.0003
3959.00,-0.0003
3958.00,-0.0003
3957.00,-0.0003
3956.00,-0.0003
3955.00,-0.0003
3954.00,-0.0003
3953.00,-0.0003
3952.00,-0.0003
3951.00,-0.0003
3950.00,-0.0003
3949.00,-0.0003
3948.00,-0.0003
3947.00,-0.0003
3946.00,-0.0003
3945.00,-0.0003
3944.00,-0.0003
3943.00,-0.0003
3942.00,-0.0003
3941.00,-0.0003
3940.00,-0.0003
3939.00,-0.0003
3938.00,-0.0003
3937.00,-0.0003
3936.00,-0.0003
3935.00,-0.0003
3934.00,-0.0003
3933.00,-0.0003
3932.00,-0.0003
3931.00,-0.0003
3930.00,-0.0003
3929.00,-0.0003
3928.00,-0.0003
3927.00,-0.0003
3926.00,-0.0003
3925.00,-0.0003
3924.00,-0.0003
3923.00,-0.0003
3922.00,-0.0003
3921.00,-0.0003
3920.00,-0.0003
3919.00,-0.0003
3918.00,-0.0003
3917.00,-0.0003
3916.00,-0.0003
3915.00,-0.0003
3914.00,-0.0003
3913.00,-0.0003
3912.00,-0.0003
3911.00,-0.0003
3910.00,-0.0003
3909.00,-0.0003
3908.00,-0.0003
3907.00,-0.0003
3906.00,-0.0004
3905.00,-0.0004
3904.00,-0.0004
3903.00,-0.0004
3902.00,-0.0004
3901.00,-0.0003
3900.00,-0.0003
3899.00,-0.0003
3898.00,-0.0003
3897.00,-0.0003
3896.00,-0.0003
3895.00,-0.0003
3894.00,-0.0003
3893.00,-0.0003
3892.00,-0.0003
3891.00,-0.0003
3890.00,-0.0003
3889.00,-0.0003
3888.00,-0.0003
3887.00,-0.0003
3886.00,-0.0003
3885.00,-0.0003
3884.00,-0.0003
3883.00,-0.0003
3882.00,-0.0003
3881.00,-0.0003
3880.00,-0.0003
3879.00,-0.0003
3878.00,-0.0003
3877.00,-0.0003
3876.00,-0.0003
3875.00,-0.0003
3874.00,-0.0003
3873.00,-0.0003
3872.00,-0.0003
3871.00,-0.0003
3870.00,-0.0003
3869.00,-0.0003
3868.00,-0.0003
3867.00,-0.0003
3866.00,-0.0003
3865.00,-0.0003
3864.00,-0.0002
3863.00,-0.0002
3862.00,-0.0002
3861.00,-0.0002
3860.00,-0.0002
3859.00,-0.0003
3858.00,-0.0003
3857.00,-0.0003
3856.00,-0.0004
3855.00,-0.0004
3854.00,-0.0004
3853.00,-0.0004
3852.00,-0.0004
3851.00,-0.0004
3850.00,-0.0004
3849.00,-0.0004
3848.00,-0.0003
3847.00,-0.0003
3846.00,-0.0003
3845.00,-0.0003
3844.00,-0.0003
3843.00,-0.0003
3842.00,-0.0003
3841.00,-0.0003
3840.00,-0.0002
3839.00,-0.0002
3838.00,-0.0002
3837.00,-0.0002
3836.00,-0.0003
3835.00,-0.0003
3834.00,-0.0003
3833.00,-0.0003
3832.00,-0.0003
3831.00,-0.0003
3830.00,-0.0003
3829.00,-0.0003
3828.00,-0.0003
3827.00,-0.0003
3826.00,-0.0003
3825.00,-0.0004
3824.00,-0.0004
3823.00,-0.0004
3822.00,-0.0003
3821.00,-0.0003
3820.00,-0.0003
3819.00,-0.0003
3818.00,-0.0003
3817.00,-0.0003
3816.00,-0.0003
3815.00,-0.0003
3814.00,-0.0003
3813.00,-0.0003
3812.00,-0.0003
3811.00,-0.0003
3810.00,-0.0003
3809.00,-0.0003
3808.00,-0.0003
3807.00,-0.0003
3806.00,-0.0003
3805.00,-0.0003
3804.00,-0.0003
3803.00,-0.0003
3802.00,-0.0003
3801.00,-0.0003
3800.00,-0.0002
3799.00,-0.0002
3798.00,-0.0003
3797.00,-0.0003
3796.00,-0.0003
3795.00,-0.0003
3794.00,-0.0003
3793.00,-0.0003
3792.00,-0.0003
3791.00,-0.0003
3790.00,-0.0003
3789.00,-0.0003
3788.00,-0.0003
3787.00,-0.0003
3786.00,-0.0002
3785.00,-0.0002
3784.00,-0.0002
3783.00,-0.0002
3782.00,-0.0003
3781.00,-0.0003
3780.00,-0.0003
3779.00,-0.0002
3778.00,-0.0002
3777.00,-0.0002
3776.00,-0.0002
3775.00,-0.0002
3774.00,-0.0003
3773.00,-0.0003
3772.00,-0.0003
3771.00,-0.0002
3770.00,-0.0003
3769.00,-0.0003
3768.00,-0.0003
3767.00,-0.0003
3766.00,-0.0003
3765.00,-0.0003
3764.00,-0.0003
3763.00,-0.0003
3762.00,-0.0003
3761.00,-0.0003
3760.00,-0.0004
3759.00,-0.0004
3758.00,-0.0003
3757.00,-0.0003
3756.00,-0.0003
3755.00,-0.0003
3754.00,-0.0003
3753.00,-0.0003
3752.00,-0.0003
3751.00,-0.0003
3750.00,-0.0003
3749.00,-0.0003
3748.00,-0.0003
3747.00,-0.0003
3746.00,-0.0003
3745.00,-0.0003
3744.00,-0.0003
3743.00,-0.0003
3742.00,-0.0003
3741.00,-0.0003
3740.00,-0.0003
3739.00,-0.0003
3738.00,-0.0004
3737.00,-0.0004
3736.00,-0.0004
3735.00,-0.0004
3734.00,-0.0003
3733.00,-0.0004
3732.00,-0.0004
3731.00,-0.0004
3730.00,-0.0003
3729.00,-0.0003
3728.00,-0.0003
3727.00,-0.0003
3726.00,-0.0003
3725.00,-0.0003
3724.00,-0.0003
3723.00,-0.0003
3722.00,-0.0003
3721.00,-0.0003
3720.00,-0.0003
3719.00,-0.0003
3718.00,-0.0004
3717.00,-0.0004
3716.00,-0.0004
3715.00,-0.0004
3714.00,-0.0004
3713.00,-0.0004
3712.00,-0.0004
3711.00,-0.0003
3710.00,-0.0003
3709.00,-0.0003
3708.00,-0.0003
3707.00,-0.0003
3706.00,-0.0003
3705.00,-0.0003
3704.00,-0.0003
3703.00,-0.0004
3702.00,-0.0004
3701.00,-0.0004
3700.00,-0.0003
3699.00,-0.0003
3698.00,-0.0004
3697.00,-0.0003
3696.00,-0.0003
3695.00,-0.0003
3694.00,-0.0003
3693.00,-0.0003
3692.00,-0.0003
3691.00,-0.0003
3690.00,-0.0003
3689.00,-0.0003
3688.00,-0.0003
3687.00,-0.0003
3686.00,-0.0003
3685.00,-0.0002
3684.00,-0.0002
3683.00,-0.0001
3682.00,-0.0001
3681.00,-0.0001
3680.00,-0.0000
3679.00,-0.0000
3678.00,-0.0000
3677.00,-0.0000
3676.00,-0.0000
3675.00,-0.0001
3674.00,-0.0001
3673.00,-0.0001
3672.00,-0.0001
3671.00,-0.0001
3670.00,-0.0001
3669.00,-0.0001
3668.00,-0.0001
3667.00,-0.0001
3666.00,-0.0001
3665.00,-0.0000
3664.00,0.0000
3663.00,0.0001
3662.00,0.0001
3661.00,0.0002
3660.00,0.0002
3659.00,0.0002
3658.00,0.0002
3657.00,0.0002
3656.00,0.0002
3655.00,0.0002
3654.00,0.0002
3653.00,0.0002
3652.00,0.0003
3651.00,0.0003
3650.00,0.0003
3649.00,0.0003
3648.00,0.0002
3647.00,0.0002
3646.00,0.0002
3645.00,0.0003
3644.00,0.0003
3643.00,0.0004
3642.00,0.0004
3641.00,0.0004
3640.00,0.0004
3639.00,0.0005
3638.00,0.0005
3637.00,0.0005
3636.00,0.0005
3635.00,0.0005
3634.00,0.0006
3633.00,0.0006
3632.00,0.0006
3631.00,0.0006
3630.00,0.0006
3629.00,0.0006
3628.00,0.0006
3627.00,0.0006
3626.00,0.0006
3625.00,0.0006
3624.00,0.0007
3623.00,0.0007
3622.00,0.0008
3621.00,0.0008
3620.00,0.0008
3619.00,0.0008
3618.00,0.0008
3617.00,0.0008
3616.00,0.0009
3615.00,0.0009
3614.00,0.0009
3613.00,0.0009
3612.00,0.0010
3611.00,0.0010
3610.00,0.0010
3609.00,0.0010
3608.00,0.0010
3607.00,0.0010
3606.00,0.0011
3605.00,0.0011
3604.00,0.0012
3603.00,0.0012
3602.00,0.0012
3601.00,0.0012
3600.00,0.0013
3599.00,0.0013
3598.00,0.0014
3597.00,0.0014
3596.00,0.0014
3595.00,0.0014
3594.00,0.0015
3593.00,0.0015
3592.00,0.0016
3591.00,0.0016
3590.00,0.0017
3589.00,0.0017
3588.00,0.0016
3587.00,0.0016
3586.00,0.0015
3585.00,0.0016
3584.00,0.0017
3583.00,0.0017
3582.00,0.0018
3581.00,0.0019
3580.00,0.0019
3579.00,0.0020
3578.00,0.0020
3577.00,0.0020
3576.00,0.0021
3575.00,0.0021
3574.00,0.0022
3573.00,0.0022
3572.00,0.0023
3571.00,0.0024
3570.00,0.0024
3569.00,0.0025
3568.00,0.0025
3567.00,0.0025
3566.00,0.0024
3565.00,0.0024
3564.00,0.0024
3563.00,0.0024
3562.00,0.0025
3561.00,0.0025
3560.00,0.0026
3559.00,0.0027
3558.00,0.0027
3557.00,0.0027
3556.00,0.0028
3555.00,0.0028
3554.00,0.0029
3553.00,0.0029
3552.00,0.0029
3551.00,0.0029
3550.00,0.0030
3549.00,0.0030
3548.00,0.0031
3547.00,0.0031
3546.00,0.0031
3545.00,0.0031
3544.00,0.0032
3543.00,0.0032
3542.00,0.0032
3541.00,0.0032
3540.00,0.0032
3539.00,0.0033
3538.00,0.0033
3537.00,0.0033
3536.00,0.0033
3535.00,0.0034
3534.00,0.0034
3533.00,0.0034
3532.00,0.0035
3531.00,0.0035
3530.00,0.0036
3529.00,0.0036
3528.00,0.0036
3527.00,0.0036
3526.00,0.0036
3525.00,0.0036
3524.00,0.0036
3523.00,0.0036
3522.00,0.0037
3521.00,0.0037
3520.00,0.0038
3519.00,0.0038
3518.00,0.0038
3517.00,0.0038
3516.00,0.0038
3515.00,0.0039
3514.00,0.0039
3513.00,0.0039
3512.00,0.0039
3511.00,0.0039
3510.00,0.0039
3509.00,0.0039
3508.00,0.0039
3507.00,0.0040
3506.00,0.0040
3505.00,0.0041
3504.00,0.0041
3503.00,0.0041
3502.00,0.0041
3501.00,0.0041
3500.00,0.0042
3499.00,0.0042
3498.00,0.0042
3497.00,0.0042
3496.00,0.0042
3495.00,0.0043
3494.00,0.0043
3493.00,0.0043
3492.00,0.0043
3491.00,0.0044
3490.00,0.0044
3489.00,0.0044
3488.00,0.0044
3487.00,0.0044
3486.00,0.0044
3485.00,0.0045
3484.00,0.0045
3483.00,0.0045
3482.00,0.0045
3481.00,0.0045
3480.00,0.0045
3479.00,0.0045
3478.00,0.0045
3477.00,0.0045
3476.00,0.0046
3475.00,0.0046
3474.00,0.0046
3473.00,0.0046
3472.00,0.0046
3471.00,0.0047
3470.00,0.0047
3469.00,0.0047
3468.00,0.0048
3467.00,0.0048
3466.00,0.0048
3465.00,0.0048
3464.00,0.0048
3463.00,0.0047
3462.00,0.0047
3461.00,0.0047
3460.00,0.0048
3459.00,0.0048
3458.00,0.0048
3457.00,0.0048
3456.00,0.0048
3455.00,0.0048
3454.00,0.0049
3453.00,0.0049
3452.00,0.0049
3451.00,0.0049
3450.00,0.0049
3449.00,0.0049
3448.00,0.0049
3447.00,0.0049
3446.00,0.0049
3445.00,0.0049
3444.00,0.0049
3443.00,0.0049
3442.00,0.0049
3441.00,0.0049
3440.00,0.0049
3439.00,0.0049
3438.00,0.0049
3437.00,0.0049
3436.00,0.0049
3435.00,0.0049
3434.00,0.0049
3433.00,0.0049
3432.00,0.0049
3431.00,0.0049
3430.00,0.0049
3429.00,0.0049
3428.00,0.0049
3427.00,0.0049
3426.00,0.0049
3425.00,0.0049
3424.00,0.0050
3423.00,0.0050
3422.00,0.0050
3421.00,0.0050
3420.00,0.0049
3419.00,0.0049
3418.00,0.0049
3417.00,0.0049
3416.00,0.0049
3415.00,0.0049
3414.00,0.0049
3413.00,0.0049
3412.00,0.0050
3411.00,0.0050
3410.00,0.0050
3409.00,0.0050
3408.00,0.0050
3407.00,0.0049
3406.00,0.0049
3405.00,0.0049
3404.00,0.0049
3403.00,0.0049
3402.00,0.0049
3401.00,0.0049
3400.00,0.0050
3399.00,0.0049
3398.00,0.0049
3397.00,0.0049
3396.00,0.0049
3395.00,0.0049
3394.00,0.0049
3393.00,0.0049
3392.00,0.0049
3391.00,0.0049
3390.00,0.0049
3389.00,0.0049
3388.00,0.0049
3387.00,0.0049
3386.00,0.0049
3385.00,0.0049
3384.00,0.0049
3383.00,0.0049
3382.00,0.0049
3381.00,0.0049
3380.00,0.0049
3379.00,0.0049
3378.00,0.0049
3377.00,0.0049
3376.00,0.0049
3375.00,0.0049
3374.00,0.0049
3373.00,0.0048
3372.00,0.0048
3371.00,0.0048
3370.00,0.0047
3369.00,0.0047
3368.00,0.0047
3367.00,0.0048
3366.00,0.0048
3365.00,0.0048
3364.00,0.0048
3363.00,0.0048
3362.00,0.0048
3361.00,0.0048
3360.00,0.0048
3359.00,0.0048
3358.00,0.0048
3357.00,0.0048
3356.00,0.0048
3355.00,0.0048
3354.00,0.0048
3353.00,0.0048
3352.00,0.0048
3351.00,0.0048
3350.00,0.0048
3349.00,0.0048
3348.00,0.0048
3347.00,0.0048
3346.00,0.0048
3345.00,0.0048
3344.00,0.0048
3343.00,0.0047
3342.00,0.0047
3341.00,0.0047
3340.00,0.0047
3339.00,0.0047
3338.00,0.0047
3337.00,0.0047
3336.00,0.0048
3335.00,0.0048
3334.00,0.0048
3333.00,0.0048
3332.00,0.0048
3331.00,0.0048
3330.00,0.0048
3329.00,0.0048
3328.00,0.0048
3327.00,0.0048
3326.00,0.0047
3325.00,0.0047
3324.00,0.0047
3323.00,0.0048
3322.00,0.0048
3321.00,0.0048
3320.00,0.0048
3319.00,0.0048
3318.00,0.0048
3317.00,0.0048
3316.00,0.0048
3315.00,0.0049
3314.00,0.0049
3313.00,0.0049
3312.00,0.0049
3311.00,0.0048
3310.00,0.0048
3309.00,0.0047
3308.00,0.0047
3307.00,0.0047
3306.00,0.0047
3305.00,0.0047
3304.00,0.0048
3303.00,0.0048
3302.00,0.0049
3301.00,0.0049
3300.00,0.0049
3299.00,0.0049
3298.00,0.0049
3297.00,0.0048
3296.00,0.0048
3295.00,0.0048
3294.00,0.0048
3293.00,0.0048
3292.00,0.0048
3291.00,0.0048
3290.00,0.0049
3289.00,0.0049
3288.00,0.0049
3287.00,0.0049
3286.00,0.0049
3285.00,0.0049
3284.00,0.0049
3283.00,0.0049
3282.00,0.0049
3281.00,0.0049
3280.00,0.0050
3279.00,0.0050
3278.00,0.0050
3277.00,0.0050
3276.00,0.0050
3275.00,0.0050
3274.00,0.0049
3273.00,0.0049
3272.00,0.0049
3271.00,0.0049
3270.00,0.0049
3269.00,0.0049
3268.00,0.0049
3267.00,0.0049
3266.00,0.0049
3265.00,0.0049
3264.00,0.0049
3263.00,0.0049
3262.00,0.0049
3261.00,0.0049
3260.00,0.0049
3259.00,0.0049
3258.00,0.0049
3257.00,0.0049
3256.00,0.0049
3255.00,0.0049
3254.00,0.0049
3253.00,0.0049
3252.00,0.0049
3251.00,0.0049
3250.00,0.0049
3249.00,0.0049
3248.00,0.0048
3247.00,0.0048
3246.00,0.0048
3245.00,0.0049
3244.00,0.0049
3243.00,0.0049
3242.00,0.0049
3241.00,0.0049
3240.00,0.0049
3239.00,0.0049
3238.00,0.0049
3237.00,0.0049
3236.00,0.0048
3235.00,0.0048
3234.00,0.0048
3233.00,0.0048
3232.00,0.0049
3231.00,0.0048
3230.00,0.0048
3229.00,0.0048
3228.00,0.0048
3227.00,0.0048
3226.00,0.0048
3225.00,0.0049
3224.00,0.0049
3223.00,0.0049
3222.00,0.0048
3221.00,0.0048
3220.00,0.0048
3219.00,0.0048
3218.00,0.0048
3217.00,0.0048
3216.00,0.0048
3215.00,0.0048
3214.00,0.0048
3213.00,0.0048
3212.00,0.0047
3211.00,0.0047
3210.00,0.0047
3209.00,0.0047
3208.00,0.0047
3207.00,0.0047
3206.00,0.0047
3205.00,0.0047
3204.00,0.0047
3203.00,0.0047
3202.00,0.0047
3201.00,0.0047
3200.00,0.0046
3199.00,0.0046
3198.00,0.0046
3197.00,0.0046
3196.00,0.0046
3195.00,0.0046
3194.00,0.0045
3193.00,0.0045
3192.00,0.0045
3191.00,0.0045
3190.00,0.0045
3189.00,0.0045
3188.00,0.0045
3187.00,0.0045
3186.00,0.0045
3185.00,0.0045
3184.00,0.0045
3183.00,0.0044
3182.00,0.0044
3181.00,0.0044
3180.00,0.0044
3179.00,0.0044
3178.00,0.0044
3177.00,0.0044
3176.00,0.0044
3175.00,0.0044
3174.00,0.0044
3173.00,0.0044
3172.00,0.0045
3171.00,0.0044
3170.00,0.0044
3169.00,0.0044
3168.00,0.0044
3167.00,0.0044
3166.00,0.0044
3165.00,0.0044
3164.00,0.0044
3163.00,0.0044
3162.00,0.0044
3161.00,0.0044
3160.00,0.0044
3159.00,0.0043
3158.00,0.0043
3157.00,0.0043
3156.00,0.0043
3155.00,0.0043
3154.00,0.0043
3153.00,0.0042
3152.00,0.0042
3151.00,0.0042
3150.00,0.0042
3149.00,0.0042
3148.00,0.0042
3147.00,0.0042
3146.00,0.0042
3145.00,0.0042
3144.00,0.0042
3143.00,0.0042
3142.00,0.0042
3141.00,0.0042
3140.00,0.0042
3139.00,0.0041
3138.00,0.0041
3137.00,0.0041
3136.00,0.0041
3135.00,0.0041
3134.00,0.0040
3133.00,0.0040
3132.00,0.0040
3131.00,0.0040
3130.00,0.0040
3129.00,0.0040
3128.00,0.0040
3127.00,0.0040
3126.00,0.0040
3125.00,0.0040
3124.00,0.0040
3123.00,0.0040
3122.00,0.0040
3121.00,0.0040
3120.00,0.0040
3119.00,0.0040
3118.00,0.0040
3117.00,0.0040
3116.00,0.0040
3115.00,0.0040
3114.00,0.0040
3113.00,0.0040
3112.00,0.0039
3111.00,0.0039
3110.00,0.0039
3109.00,0.0039
3108.00,0.0039
3107.00,0.0039
3106.00,0.0038
3105.00,0.0038
3104.00,0.0038
3103.00,0.0038
3102.00,0.0039
3101.00,0.0039
3100.00,0.0039
3099.00,0.0038
3098.00,0.0038
3097.00,0.0038
3096.00,0.0038
3095.00,0.0038
3094.00,0.0038
3093.00,0.0038
3092.00,0.0038
3091.00,0.0037
3090.00,0.0037
3089.00,0.0037
3088.00,0.0037
3087.00,0.0037
3086.00,0.0038
3085.00,0.0038
3084.00,0.0038
3083.00,0.0038
3082.00,0.0038
3081.00,0.0038
3080.00,0.0038
3079.00,0.0038
3078.00,0.0038
3077.00,0.0038
3076.00,0.0038
3075.00,0.0038
3074.00,0.0037
3073.00,0.0037
3072.00,0.0037
3071.00,0.0037
3070.00,0.0037
3069.00,0.0037
3068.00,0.0037
3067.00,0.0037
3066.00,0.0037
3065.00,0.0036
3064.00,0.0036
3063.00,0.0036
3062.00,0.0036
3061.00,0.0036
3060.00,0.0036
3059.00,0.0036
3058.00,0.0036
3057.00,0.0035
3056.00,0.0035
3055.00,0.0035
3054.00,0.0035
3053.00,0.0034
3052.00,0.0034
3051.00,0.0034
3050.00,0.0034
3049.00,0.0034
3048.00,0.0034
3047.00,0.0034
3046.00,0.0034
3045.00,0.0034
3044.00,0.0034
3043.00,0.0034
3042.00,0.0034
3041.00,0.0034
3040.00,0.0034
3039.00,0.0033
3038.00,0.0033
3037.00,0.0033
3036.00,0.0033
3035.00,0.0034
3034.00,0.0034
3033.00,0.0034
3032.00,0.0034
3031.00,0.0034
3030.00,0.0034
3029.00,0.0033
3028.00,0.0033
3027.00,0.0033
3026.00,0.0032
3025.00,0.0032
3024.00,0.0032
3023.00,0.0033
3022.00,0.0033
3021.00,0.0033
3020.00,0.0033
3019.00,0.0033
3018.00,0.0033
3017.00,0.0033
3016.00,0.0032
3015.00,0.0033
3014.00,0.0033
3013.00,0.0034
3012.00,0.0034
3011.00,0.0035
3010.00,0.0035
3009.00,0.0035
3008.00,0.0036
3007.00,0.0036
3006.00,0.0037
3005.00,0.0038
3004.00,0.0039
3003.00,0.0040
3002.00,0.0042
3001.00,0.0043
3000.00,0.0044
2999.00,0.0046
2998.00,0.0047
2997.00,0.0049
2996.00,0.0051
2995.00,0.0053
2994.00,0.0055
2993.00,0.0058
2992.00,0.0060
2991.00,0.0062
2990.00,0.0064
2989.00,0.0066
2988.00,0.0068
2987.00,0.0071
2986.00,0.0073
2985.00,0.0076
2984.00,0.0079
2983.00,0.0081
2982.00,0.0082
2981.00,0.0084
2980.00,0.0085
2979.00,0.0086
2978.00,0.0087
2977.00,0.0088
2976.00,0.0089
2975.00,0.0090
2974.00,0.0091
2973.00,0.0092
2972.00,0.0093
2971.00,0.0094
2970.00,0.0095
2969.00,0.0096
2968.00,0.0097
2967.00,0.0098
2966.00,0.0099
2965.00,0.0100
2964.00,0.0102
2963.00,0.0103
2962.00,0.0105
2961.00,0.0106
2960.00,0.0108
2959.00,0.0109
2958.00,0.0110
2957.00,0.0112
2956.00,0.0113
2955.00,0.0113
2954.00,0.0114
2953.00,0.0114
2952.00,0.0115
2951.00,0.0114
2950.00,0.0114
2949.00,0.0114
2948.00,0.0113
2947.00,0.0113
2946.00,0.0112
2945.00,0.0111
2944.00,0.0111
2943.00,0.0110
2942.00,0.0110
2941.00,0.0111
2940.00,0.0111
2939.00,0.0112
2938.00,0.0112
2937.00,0.0113
2936.00,0.0114
2935.00,0.0116
2934.00,0.0117
2933.00,0.0118
2932.00,0.0120
2931.00,0.0121
2930.00,0.0122
2929.00,0.0123
2928.00,0.0123
2927.00,0.0124
2926.00,0.0125
2925.00,0.0125
2924.00,0.0125
2923.00,0.0124
2922.00,0.0123
2921.00,0.0122
2920.00,0.0121
2919.00,0.0119
2918.00,0.0118
2917.00,0.0116
2916.00,0.0113
2915.00,0.0111
2914.00,0.0109
2913.00,0.0107
2912.00,0.0104
2911.00,0.0102
2910.00,0.0100
2909.00,0.0098
2908.00,0.0096
2907.00,0.0094
2906.00,0.0093
2905.00,0.0091
2904.00,0.0090
2903.00,0.0089
2902.00,0.0088
2901.00,0.0087
2900.00,0.0086
2899.00,0.0086
2898.00,0.0085
2897.00,0.0085
2896.00,0.0085
2895.00,0.0085
2894.00,0.0085
2893.00,0.0085
2892.00,0.0085
2891.00,0.0085
2890.00,0.0084
2889.00,0.0084
2888.00,0.0084
2887.00,0.0084
2886.00,0.0084
2885.00,0.0084
2884.00,0.0084
2883.00,0.0084
2882.00,0.0084
2881.00,0.0084
2880.00,0.0085
2879.00,0.0085
2878.00,0.0085
2877.00,0.0086
2876.00,0.0086
2875.00,0.0087
2874.00,0.0087
2873.00,0.0088
2872.00,0.0089
2871.00,0.0089
2870.00,0.0089
2869.00,0.0089
2868.00,0.0089
2867.00,0.0089
2866.00,0.0089
2865.00,0.0089
2864.00,0.0089
2863.00,0.0089
2862.00,0.0089
2861.00,0.0089
2860.00,0.0089
2859.00,0.0089
2858.00,0.0088
2857.00,0.0088
2856.00,0.0087
2855.00,0.0086
2854.00,0.0084
2853.00,0.0082
2852.00,0.0080
2851.00,0.0077
2850.00,0.0074
2849.00,0.0071
2848.00,0.0068
2847.00,0.0066
2846.00,0.0063
2845.00,0.0061
2844.00,0.0059
2843.00,0.0057
2842.00,0.0054
2841.00,0.0052
2840.00,0.0050
2839.00,0.0048
2838.00,0.0046
2837.00,0.0045
2836.00,0.0043
2835.00,0.0042
2834.00,0.0041
2833.00,0.0040
2832.00,0.0038
2831.00,0.0037
2830.00,0.0036
2829.00,0.0035
2828.00,0.0034
2827.00,0.0033
2826.00,0.0032
2825.00,0.0031
2824.00,0.0031
2823.00,0.0030
2822.00,0.0029
2821.00,0.0029
2820.00,0.0028
2819.00,0.0027
2818.00,0.0026
2817.00,0.0025
2816.00,0.0025
2815.00,0.0024
2814.00,0.0024
2813.00,0.0024
2812.00,0.0024
2811.00,0.0023
2810.00,0.0023
2809.00,0.0023
2808.00,0.0022
2807.00,0.0022
2806.00,0.0022
2805.00,0.0022
2804.00,0.0021
2803.00,0.0021
2802.00,0.0021
2801.00,0.0021
2800.00,0.0020
2799.00,0.0020
2798.00,0.0020
2797.00,0.0020
2796.00,0.0020
2795.00,0.0020
2794.00,0.0019
2793.00,0.0019
2792.00,0.0019
2791.00,0.0019
2790.00,0.0019
2789.00,0.0019
2788.00,0.0019
2787.00,0.0018
2786.00,0.0018
2785.00,0.0018
2784.00,0.0018
2783.00,0.0017
2782.00,0.0017
2781.00,0.0017
2780.00,0.0017
2779.00,0.0017
2778.00,0.0017
2777.00,0.0017
2776.00,0.0017
2775.00,0.0017
2774.00,0.0017
2773.00,0.0017
2772.00,0.0017
2771.00,0.0017
2770.00,0.0016
2769.00,0.0016
2768.00,0.0016
2767.00,0.0016
2766.00,0.0016
2765.00,0.0016
2764.00,0.0016
2763.00,0.0016
2762.00,0.0016
2761.00,0.0016
2760.00,0.0016
2759.00,0.0016
2758.00,0.0016
2757.00,0.0016
2756.00,0.0016
2755.00,0.0016
2754.00,0.0016
2753.00,0.0016
2752.00,0.0016
2751.00,0.0016
2750.00,0.0017
2749.00,0.0017
2748.00,0.0017
2747.00,0.0017
2746.00,0.0017
2745.00,0.0017
2744.00,0.0017
2743.00,0.0017
2742.00,0.0017
2741.00,0.0017
2740.00,0.0017
2739.00,0.0017
2738.00,0.0017
2737.00,0.0017
2736.00,0.0017
2735.00,0.0017
2734.00,0.0017
2733.00,0.0017
2732.00,0.0017
2731.00,0.0017
2730.00,0.0017
2729.00,0.0017
2728.00,0.0017
2727.00,0.0017
2726.00,0.0017
2725.00,0.0017
2724.00,0.0017
2723.00,0.0017
2722.00,0.0016
2721.00,0.0016
2720.00,0.0016
2719.00,0.0016
2718.00,0.0016
2717.00,0.0016
2716.00,0.0016
2715.00,0.0016
2714.00,0.0016
2713.00,0.0016
2712.00,0.0016
2711.00,0.0016
2710.00,0.0016
2709.00,0.0016
2708.00,0.0015
2707.00,0.0015
2706.00,0.0015
2705.00,0.0015
2704.00,0.0015
2703.00,0.0015
2702.00,0.0015
2701.00,0.0015
2700.00,0.0015
2699.00,0.0014
2698.00,0.0014
2697.00,0.0014
2696.00,0.0014
2695.00,0.0014
2694.00,0.0014
2693.00,0.0014
2692.00,0.0014
2691.00,0.0014
2690.00,0.0014
2689.00,0.0014
2688.00,0.0013
2687.00,0.0013
2686.00,0.0013
2685.00,0.0013
2684.00,0.0013
2683.00,0.0013
2682.00,0.0013
2681.00,0.0013
2680.00,0.0013
2679.00,0.0013
2678.00,0.0013
2677.00,0.0013
2676.00,0.0013
2675.00,0.0013
2674.00,0.0013
2673.00,0.0013
2672.00,0.0013
2671.00,0.0013
2670.00,0.0013
2669.00,0.0013
2668.00,0.0013
2667.00,0.0013
2666.00,0.0013
2665.00,0.0014
2664.00,0.0014
2663.00,0.0014
2662.00,0.0014
2661.00,0.0015
2660.00,0.0015
2659.00,0.0015
2658.00,0.0015
2657.00,0.0015
2656.00,0.0015
2655.00,0.0015
2654.00,0.0015
2653.00,0.0015
2652.00,0.0015
2651.00,0.0015
2650.00,0.0015
2649.00,0.0015
2648.00,0.0015
2647.00,0.0015
2646.00,0.0015
2645.00,0.0015
2644.00,0.0014
2643.00,0.0014
2642.00,0.0014
2641.00,0.0014
2640.00,0.0014
2639.00,0.0014
2638.00,0.0014
2637.00,0.0014
2636.00,0.0013
2635.00,0.0013
2634.00,0.0013
2633.00,0.0013
2632.00,0.0014
2631.00,0.0014
2630.00,0.0013
2629.00,0.0013
2628.00,0.0013
2627.00,0.0013
2626.00,0.0013
2625.00,0.0013
2624.00,0.0012
2623.00,0.0012
2622.00,0.0012
2621.00,0.0012
2620.00,0.0012
2619.00,0.0011
2618.00,0.0011
2617.00,0.0012
2616.00,0.0011
2615.00,0.0011
2614.00,0.0011
2613.00,0.0011
2612.00,0.0011
2611.00,0.0012
2610.00,0.0011
2609.00,0.0011
2608.00,0.0011
2607.00,0.0011
2606.00,0.0011
2605.00,0.0011
2604.00,0.0010
2603.00,0.0010
2602.00,0.0010
2601.00,0.0010
2600.00,0.0010
2599.00,0.0010
2598.00,0.0010
2597.00,0.0009
2596.00,0.0009
2595.00,0.0009
2594.00,0.0009
2593.00,0.0009
2592.00,0.0009
2591.00,0.0009
2590.00,0.0009
2589.00,0.0009
2588.00,0.0009
2587.00,0.0009
2586.00,0.0009
2585.00,0.0009
2584.00,0.0009
2583.00,0.0009
2582.00,0.0009
2581.00,0.0009
2580.00,0.0008
2579.00,0.0008
2578.00,0.0008
2577.00,0.0008
2576.00,0.0008
2575.00,0.0008
2574.00,0.0008
2573.00,0.0008
2572.00,0.0008
2571.00,0.0008
2570.00,0.0008
2569.00,0.0008
2568.00,0.0007
2567.00,0.0007
2566.00,0.0007
2565.00,0.0007
2564.00,0.0007
2563.00,0.0007
2562.00,0.0007
2561.00,0.0006
2560.00,0.0006
2559.00,0.0006
2558.00,0.0006
2557.00,0.0005
2556.00,0.0005
2555.00,0.0006
2554.00,0.0006
2553.00,0.0006
2552.00,0.0006
2551.00,0.0006
2550.00,0.0006
2549.00,0.0006
2548.00,0.0006
2547.00,0.0006
2546.00,0.0006
2545.00,0.0005
2544.00,0.0005
2543.00,0.0005
2542.00,0.0005
2541.00,0.0005
2540.00,0.0005
2539.00,0.0005
2538.00,0.0005
2537.00,0.0004
2536.00,0.0004
2535.00,0.0004
2534.00,0.0004
2533.00,0.0005
2532.00,0.0004
2531.00,0.0004
2530.00,0.0004
2529.00,0.0004
2528.00,0.0004
2527.00,0.0004
2526.00,0.0004
2525.00,0.0003
2524.00,0.0003
2523.00,0.0002
2522.00,0.0002
2521.00,0.0002
2520.00,0.0002
2519.00,0.0002
2518.00,0.0002
2517.00,0.0002
2516.00,0.0002
2515.00,0.0002
2514.00,0.0002
2513.00,0.0002
2512.00,0.0002
2511.00,0.0002
2510.00,0.0002
2509.00,0.0002
2508.00,0.0001
2507.00,0.0001
2506.00,0.0001
2505.00,0.0001
2504.00,0.0001
2503.00,0.0001
2502.00,0.0001
2501.00,0.0001
2500.00,0.0001
2499.00,0.0001
2498.00,0.0001
2497.00,0.0001
2496.00,0.0001
2495.00,0.0001
2494.00,0.0001
2493.00,0.0001
2492.00,0.0001
2491.00,0.0001
2490.00,0.0000
2489.00,-0.0000
2488.00,-0.0000
2487.00,-0.0000
2486.00,0.0000
2485.00,0.0000
2484.00,0.0001
2483.00,0.0001
2482.00,0.0001
2481.00,0.0001
2480.00,0.0000
2479.00,0.0000
2478.00,0.0000
2477.00,0.0000
2476.00,0.0001
2475.00,0.0001
2474.00,0.0001
2473.00,0.0001
2472.00,0.0001
2471.00,0.0000
2470.00,0.0000
2469.00,-0.0000
2468.00,0.0000
2467.00,0.0000
2466.00,0.0000
2465.00,0.0001
2464.00,0.0001
2463.00,0.0001
2462.00,0.0001
2461.00,0.0001
2460.00,0.0001
2459.00,0.0001
2458.00,0.0001
2457.00,0.0001
2456.00,0.0001
2455.00,0.0001
2454.00,0.0001
2453.00,0.0001
2452.00,0.0001
2451.00,0.0001
2450.00,0.0001
2449.00,0.0001
2448.00,0.0001
2447.00,0.0001
2446.00,0.0000
2445.00,0.0000
2444.00,0.0000
2443.00,0.0000
2442.00,0.0000
2441.00,-0.0000
2440.00,-0.0001
2439.00,-0.0001
2438.00,-0.0001
2437.00,-0.0001
2436.00,-0.0001
2435.00,-0.0001
2434.00,-0.0001
2433.00,-0.0001
2432.00,-0.0002
2431.00,-0.0002
2430.00,-0.0002
2429.00,-0.0002
2428.00,-0.0001
2427.00,-0.0001
2426.00,-0.0001
2425.00,-0.0001
2424.00,-0.0001
2423.00,-0.0001
2422.00,-0.0001
2421.00,-0.0001
2420.00,-0.0001
2419.00,-0.0001
2418.00,-0.0001
2417.00,-0.0001
2416.00,-0.0001
2415.00,-0.0001
2414.00,-0.0001
2413.00,-0.0001
2412.00,-0.0001
2411.00,-0.0002
2410.00,-0.0002
2409.00,-0.0002
2408.00,-0.0002
2407.00,-0.0002
2406.00,-0.0002
2405.00,-0.0002
2404.00,-0.0002
2403.00,-0.0002
2402.00,-0.0002
2401.00,-0.0003
2400.00,-0.0003
2399.00,-0.0003
2398.00,-0.0003
2397.00,-0.0003
2396.00,-0.0003
2395.00,-0.0003
2394.00,-0.0003
2393.00,-0.0003
2392.00,-0.0003
2391.00,-0.0003
2390.00,-0.0003
2389.00,-0.0004
2388.00,-0.0004
2387.00,-0.0004
2386.00,-0.0004
2385.00,-0.0005
2384.00,-0.0005
2383.00,-0.0006
2382.00,-0.0006
2381.00,-0.0006
2380.00,-0.0006
2379.00,-0.0006
2378.00,-0.0006
2377.00,-0.0006
2376.00,-0.0006
2375.00,-0.0006
2374.00,-0.0006
2373.00,-0.0006
2372.00,-0.0006
2371.00,-0.0006
2370.00,-0.0006
2369.00,-0.0006
2368.00,-0.0006
2367.00,-0.0007
2366.00,-0.0007
2365.00,-0.0007
2364.00,-0.0006
2363.00,-0.0006
2362.00,-0.0006
2361.00,-0.0006
2360.00,-0.0006
2359.00,-0.0006
2358.00,-0.0006
2357.00,-0.0006
2356.00,-0.0006
2355.00,-0.0006
2354.00,-0.0006
2353.00,-0.0006
2352.00,-0.0006
2351.00,-0.0006
2350.00,-0.0006
2349.00,-0.0005
2348.00,-0.0005
2347.00,-0.0004
2346.00,-0.0003
2345.00,-0.0003
2344.00,-0.0004
2343.00,-0.0004
2342.00,-0.0004
2341.00,-0.0003
2340.00,-0.0002
2339.00,-0.0002
2338.00,-0.0001
2337.00,-0.0001
2336.00,-0.0002
2335.00,-0.0002
2334.00,-0.0002
2333.00,-0.0002
2332.00,-0.0002
2331.00,-0.0002
2330.00,-0.0002
2329.00,-0.0001
2328.00,0.0002
2327.00,0.0005
2326.00,0.0008
2325.00,0.0010
2324.00,0.0010
2323.00,0.0008
2322.00,0.0007
2321.00,0.0005
2320.00,0.0004
2319.00,0.0003
2318.00,0.0003
2317.00,0.0003
2316.00,0.0003
2315.00,0.0003
2314.00,0.0002
2313.00,0.0002
2312.00,0.0001
2311.00,0.0001
2310.00,0.0001
2309.00,0.0001
2308.00,0.0001
2307.00,0.0001
2306.00,0.0001
2305.00,0.0002
2304.00,0.0002
2303.00,0.0002
2302.00,0.0003
2301.00,0.0003
2300.00,0.0003
2299.00,0.0003
2298.00,0.0003
2297.00,0.0004
2296.00,0.0004
2295.00,0.0005
2294.00,0.0005
2293.00,0.0006
2292.00,0.0006
2291.00,0.0006
2290.00,0.0007
2289.00,0.0007
2288.00,0.0007
2287.00,0.0008
2286.00,0.0008
2285.00,0.0007
2284.00,0.0007
2283.00,0.0006
2282.00,0.0006
2281.00,0.0006
2280.00,0.0005
2279.00,0.0005
2278.00,0.0005
2277.00,0.0005
2276.00,0.0005
2275.00,0.0005
2274.00,0.0004
2273.00,0.0004
2272.00,0.0003
2271.00,0.0003
2270.00,0.0003
2269.00,0.0003
2268.00,0.0003
2267.00,0.0002
2266.00,0.0002
2265.00,0.0002
2264.00,0.0001
2263.00,0.0001
2262.00,0.0001
2261.00,0.0001
2260.00,0.0002
2259.00,0.0003
2258.00,0.0003
2257.00,0.0002
2256.00,0.0001
2255.00,0.0000
2254.00,-0.0000
2253.00,-0.0000
2252.00,-0.0000
2251.00,0.0000
2250.00,0.0001
2249.00,0.0001
2248.00,0.0001
2247.00,0.0001
2246.00,0.0001
2245.00,0.0001
2244.00,0.0001
2243.00,0.0001
2242.00,0.0001
2241.00,0.0001
2240.00,0.0001
2239.00,0.0001
2238.00,0.0002
2237.00,0.0001
2236.00,0.0001
2235.00,0.0001
2234.00,0.0000
2233.00,-0.0000
2232.00,-0.0000
2231.00,-0.0000
2230.00,-0.0000
2229.00,0.0000
2228.00,0.0001
2227.00,0.0001
2226.00,0.0001
2225.00,0.0001
2224.00,0.0001
2223.00,0.0001
2222.00,0.0000
2221.00,-0.0000
2220.00,-0.0000
2219.00,-0.0001
2218.00,-0.0001
2217.00,-0.0001
2216.00,-0.0001
2215.00,-0.0000
2214.00,-0.0001
2213.00,-0.0001
2212.00,-0.0001
2211.00,-0.0000
2210.00,0.0000
2209.00,0.0000
2208.00,-0.0000
2207.00,0.0000
2206.00,0.0001
2205.00,0.0001
2204.00,0.0001
2203.00,0.0001
2202.00,0.0001
2201.00,0.0001
2200.00,0.0001
2199.00,0.0002
2198.00,0.0002
2197.00,0.0001
2196.00,0.0001
2195.00,0.0001
2194.00,0.0001
2193.00,0.0001
2192.00,0.0002
2191.00,0.0003
2190.00,0.0005
2189.00,0.0004
2188.00,0.0003
2187.00,0.0001
2186.00,-0.0001
2185.00,-0.0002
2184.00,-0.0004
2183.00,-0.0006
2182.00,-0.0006
2181.00,-0.0006
2180.00,-0.0005
2179.00,-0.0004
2178.00,-0.0003
2177.00,-0.0003
2176.00,-0.0003
2175.00,-0.0002
2174.00,-0.0001
2173.00,0.0000
2172.00,0.0002
2171.00,0.0003
2170.00,0.0004
2169.00,0.0005
2168.00,0.0005
2167.00,0.0005
2166.00,0.0005
2165.00,0.0008
2164.00,0.0011
2163.00,0.0014
2162.00,0.0011
2161.00,0.0003
2160.00,-0.0008
2159.00,-0.0018
2158.00,-0.0025
2157.00,-0.0026
2156.00,-0.0025
2155.00,-0.0023
2154.00,-0.0020
2153.00,-0.0018
2152.00,-0.0017
2151.00,-0.0015
2150.00,-0.0015
2149.00,-0.0015
2148.00,-0.0016
2147.00,-0.0016
2146.00,-0.0017
2145.00,-0.0016
2144.00,-0.0015
2143.00,-0.0014
2142.00,-0.0015
2141.00,-0.0015
2140.00,-0.0015
2139.00,-0.0015
2138.00,-0.0015
2137.00,-0.0016
2136.00,-0.0017
2135.00,-0.0019
2134.00,-0.0020
2133.00,-0.0020
2132.00,-0.0019
2131.00,-0.0017
2130.00,-0.0015
2129.00,-0.0013
2128.00,-0.0012
2127.00,-0.0011
2126.00,-0.0011
2125.00,-0.0010
2124.00,-0.0009
2123.00,-0.0008
2122.00,-0.0007
2121.00,-0.0007
2120.00,-0.0006
2119.00,-0.0005
2118.00,-0.0004
2117.00,-0.0004
2116.00,-0.0003
2115.00,-0.0003
2114.00,-0.0003
2113.00,-0.0002
2112.00,-0.0002
2111.00,-0.0002
2110.00,-0.0002
2109.00,-0.0002
2108.00,-0.0002
2107.00,-0.0002
2106.00,-0.0002
2105.00,-0.0001
2104.00,-0.0000
2103.00,-0.0000
2102.00,-0.0001
2101.00,-0.0001
2100.00,-0.0002
2099.00,-0.0002
2098.00,-0.0003
2097.00,-0.0005
2096.00,-0.0006
2095.00,-0.0006
2094.00,-0.0006
2093.00,-0.0005
2092.00,-0.0004
2091.00,-0.0003
2090.00,-0.0003
2089.00,-0.0003
2088.00,-0.0002
2087.00,-0.0002
2086.00,-0.0002
2085.00,-0.0002
2084.00,-0.0002
2083.00,-0.0002
2082.00,-0.0001
2081.00,-0.0001
2080.00,-0.0001
2079.00,-0.0000
2078.00,-0.0000
2077.00,-0.0001
2076.00,-0.0001
2075.00,-0.0001
2074.00,-0.0001
2073.00,-0.0001
2072.00,-0.0001
2071.00,-0.0002
2070.00,-0.0002
2069.00,-0.0003
2068.00,-0.0003
2067.00,-0.0003
2066.00,-0.0003
2065.00,-0.0003
2064.00,-0.0002
2063.00,-0.0002
2062.00,-0.0002
2061.00,-0.0003
2060.00,-0.0002
2059.00,-0.0001
2058.00,0.0000
2057.00,0.0000
2056.00,-0.0001
2055.00,-0.0001
2054.00,-0.0001
2053.00,0.0001
2052.00,0.0004
2051.00,0.0006
2050.00,0.0004
2049.00,0.0002
2048.00,-0.0000
2047.00,-0.0001
2046.00,-0.0001
2045.00,-0.0000
2044.00,-0.0000
2043.00,-0.0000
2042.00,-0.0001
2041.00,-0.0002
2040.00,-0.0002
2039.00,-0.0001
2038.00,-0.0001
2037.00,-0.0002
2036.00,-0.0003
2035.00,-0.0003
2034.00,-0.0004
2033.00,-0.0004
2032.00,-0.0004
2031.00,-0.0004
2030.00,-0.0006
2029.00,-0.0009
2028.00,-0.0011
2027.00,-0.0012
2026.00,-0.0012
2025.00,-0.0012
2024.00,-0.0012
2023.00,-0.0011
2022.00,-0.0010
2021.00,-0.0009
2020.00,-0.0008
2019.00,-0.0007
2018.00,-0.0008
2017.00,-0.0008
2016.00,-0.0009
2015.00,-0.0009
2014.00,-0.0010
2013.00,-0.0009
2012.00,-0.0008
2011.00,-0.0008
2010.00,-0.0008
2009.00,-0.0009
2008.00,-0.0009
2007.00,-0.0009
2006.00,-0.0011
2005.00,-0.0012
2004.00,-0.0013
2003.00,-0.0013
2002.00,-0.0012
2001.00,-0.0012
2000.00,-0.0011
1999.00,-0.0010
1998.00,-0.0010
1997.00,-0.0009
1996.00,-0.0009
1995.00,-0.0008
1994.00,-0.0009
1993.00,-0.0009
1992.00,-0.0008
1991.00,-0.0006
1990.00,-0.0005
1989.00,-0.0003
1988.00,-0.0002
1987.00,0.0000
1986.00,0.0001
1985.00,0.0002
1984.00,0.0004
1983.00,0.0005
1982.00,0.0006
1981.00,0.0005
1980.00,0.0003
1979.00,-0.0002
1978.00,-0.0007
1977.00,-0.0011
1976.00,-0.0012
1975.00,-0.0012
1974.00,-0.0012
1973.00,-0.0012
1972.00,-0.0012
1971.00,-0.0012
1970.00,-0.0012
1969.00,-0.0012
1968.00,-0.0011
1967.00,-0.0010
1966.00,-0.0010
1965.00,-0.0010
1964.00,-0.0011
1963.00,-0.0012
1962.00,-0.0014
1961.00,-0.0015
1960.00,-0.0016
1959.00,-0.0017
1958.00,-0.0017
1957.00,-0.0015
1956.00,-0.0013
1955.00,-0.0012
1954.00,-0.0011
1953.00,-0.0010
1952.00,-0.0009
1951.00,-0.0009
1950.00,-0.0010
1949.00,-0.0011
1948.00,-0.0012
1947.00,-0.0012
1946.00,-0.0012
1945.00,-0.0012
1944.00,-0.0011
1943.00,-0.0011
1942.00,-0.0011
1941.00,-0.0011
1940.00,-0.0010
1939.00,-0.0010
1938.00,-0.0010
1937.00,-0.0010
1936.00,-0.0010
1935.00,-0.0009
1934.00,-0.0009
1933.00,-0.0009
1932.00,-0.0009
1931.00,-0.0009
1930.00,-0.0009
1929.00,-0.0010
1928.00,-0.0010
1927.00,-0.0009
1926.00,-0.0009
1925.00,-0.0009
1924.00,-0.0008
1923.00,-0.0007
1922.00,-0.0007
1921.00,-0.0007
1920.00,-0.0007
1919.00,-0.0007
1918.00,-0.0007
1917.00,-0.0008
1916.00,-0.0008
1915.00,-0.0008
1914.00,-0.0007
1913.00,-0.0007
1912.00,-0.0007
1911.00,-0.0006
1910.00,-0.0006
1909.00,-0.0006
1908.00,-0.0006
1907.00,-0.0006
1906.00,-0.0006
1905.00,-0.0007
1904.00,-0.0007
1903.00,-0.0007
1902.00,-0.0007
1901.00,-0.0006
1900.00,-0.0006
1899.00,-0.0006
1898.00,-0.0006
1897.00,-0.0006
1896.00,-0.0006
1895.00,-0.0006
1894.00,-0.0006
1893.00,-0.0006
1892.00,-0.0006
1891.00,-0.0006
1890.00,-0.0006
1889.00,-0.0005
1888.00,-0.0005
1887.00,-0.0004
1886.00,-0.0004
1885.00,-0.0005
1884.00,-0.0005
1883.00,-0.0006
1882.00,-0.0006
1881.00,-0.0006
1880.00,-0.0005
1879.00,-0.0005
1878.00,-0.0004
1877.00,-0.0005
1876.00,-0.0005
1875.00,-0.0005
1874.00,-0.0005
1873.00,-0.0005
1872.00,-0.0005
1871.00,-0.0005
1870.00,-0.0005
1869.00,-0.0004
1868.00,-0.0004
1867.00,-0.0003
1866.00,-0.0004
1865.00,-0.0004
1864.00,-0.0004
1863.00,-0.0004
1862.00,-0.0004
1861.00,-0.0004
1860.00,-0.0004
1859.00,-0.0003
1858.00,-0.0003
1857.00,-0.0003
1856.00,-0.0003
1855.00,-0.0003
1854.00,-0.0003
1853.00,-0.0003
1852.00,-0.0003
1851.00,-0.0003
1850.00,-0.0003
1849.00,-0.0003
1848.00,-0.0003
1847.00,-0.0003
1846.00,-0.0004
1845.00,-0.0004
1844.00,-0.0004
1843.00,-0.0003
1842.00,-0.0003
1841.00,-0.0003
1840.00,-0.0003
1839.00,-0.0004
1838.00,-0.0004
1837.00,-0.0004
1836.00,-0.0004
1835.00,-0.0003
1834.00,-0.0003
1833.00,-0.0003
1832.00,-0.0003
1831.00,-0.0003
1830.00,-0.0003
1829.00,-0.0003
1828.00,-0.0003
1827.00,-0.0003
1826.00,-0.0003
1825.00,-0.0002
1824.00,-0.0002
1823.00,-0.0001
1822.00,-0.0001
1821.00,-0.0002
1820.00,-0.0003
1819.00,-0.0003
1818.00,-0.0004
1817.00,-0.0004
1816.00,-0.0004
1815.00,-0.0003
1814.00,-0.0003
1813.00,-0.0003
1812.00,-0.0002
1811.00,-0.0002
1810.00,-0.0002
1809.00,-0.0002
1808.00,-0.0001
1807.00,-0.0001
1806.00,-0.0001
1805.00,-0.0001
1804.00,-0.0001
1803.00,-0.0000
1802.00,-0.0000
1801.00,0.0000
1800.00,0.0000
1799.00,0.0001
1798.00,0.0001
1797.00,0.0001
1796.00,0.0001
1795.00,0.0001
1794.00,0.0001
1793.00,0.0001
1792.00,0.0001
1791.00,0.0001
1790.00,0.0001
1789.00,0.0001
1788.00,0.0002
1787.00,0.0002
1786.00,0.0002
1785.00,0.0002
1784.00,0.0003
1783.00,0.0003
1782.00,0.0003
1781.00,0.0003
1780.00,0.0004
1779.00,0.0004
1778.00,0.0004
1777.00,0.0003
1776.00,0.0003
1775.00,0.0003
1774.00,0.0003
1773.00,0.0004
1772.00,0.0005
1771.00,0.0005
1770.00,0.0005
1769.00,0.0005
1768.00,0.0006
1767.00,0.0006
1766.00,0.0007
1765.00,0.0007
1764.00,0.0007
1763.00,0.0007
1762.00,0.0007
1761.00,0.0007
1760.00,0.0007
1759.00,0.0008
1758.00,0.0008
1757.00,0.0008
1756.00,0.0009
1755.00,0.0009
1754.00,0.0009
1753.00,0.0009
1752.00,0.0009
1751.00,0.0010
1750.00,0.0011
1749.00,0.0012
1748.00,0.0012
1747.00,0.0013
1746.00,0.0013
1745.00,0.0013
1744.00,0.0013
1743.00,0.0013
1742.00,0.0013
1741.00,0.0013
1740.00,0.0014
1739.00,0.0015
1738.00,0.0015
1737.00,0.0015
1736.00,0.0015
1735.00,0.0016
1734.00,0.0017
1733.00,0.0018
1732.00,0.0020
1731.00,0.0021
1730.00,0.0022
1729.00,0.0023
1728.00,0.0024
1727.00,0.0025
1726.00,0.0026
1725.00,0.0027
1724.00,0.0028
1723.00,0.0029
1722.00,0.0030
1721.00,0.0031
1720.00,0.0031
1719.00,0.0033
1718.00,0.0035
1717.00,0.0036
1716.00,0.0038
1715.00,0.0040
1714.00,0.0042
1713.00,0.0044
1712.00,0.0047
1711.00,0.0051
1710.00,0.0054
1709.00,0.0058
1708.00,0.0062
1707.00,0.0067
1706.00,0.0072
1705.00,0.0078
1704.00,0.0085
1703.00,0.0092
1702.00,0.0100
1701.00,0.0110
1700.00,0.0123
1699.00,0.0138
1698.00,0.0153
1697.00,0.0170
1696.00,0.0189
1695.00,0.0209
1694.00,0.0230
1693.00,0.0252
1692.00,0.0275
1691.00,0.0300
1690.00,0.0324
1689.00,0.0348
1688.00,0.0372
1687.00,0.0398
1686.00,0.0423
1685.00,0.0442
1684.00,0.0452
1683.00,0.0460
1682.00,0.0475
1681.00,0.0494
1680.00,0.0514
1679.00,0.0532
1678.00,0.0548
1677.00,0.0563
1676.00,0.0571
1675.00,0.0572
1674.00,0.0572
1673.00,0.0581
1672.00,0.0596
1671.00,0.0606
1670.00,0.0607
1669.00,0.0603
1668.00,0.0602
1667.00,0.0610
1666.00,0.0624
1665.00,0.0640
1664.00,0.0651
1663.00,0.0654
1662.00,0.0652
1661.00,0.0653
1660.00,0.0660
1659.00,0.0670
1658.00,0.0681
1657.00,0.0695
1656.00,0.0713
1655.00,0.0729
1654.00,0.0719
1653.00,0.0673
1652.00,0.0633
1651.00,0.0627
1650.00,0.0641
1649.00,0.0655
1648.00,0.0654
1647.00,0.0630
1646.00,0.0596
1645.00,0.0569
1644.00,0.0555
1643.00,0.0546
1642.00,0.0536
1641.00,0.0522
1640.00,0.0507
1639.00,0.0493
1638.00,0.0480
1637.00,0.0460
1636.00,0.0427
1635.00,0.0389
1634.00,0.0362
1633.00,0.0347
1632.00,0.0339
1631.00,0.0332
1630.00,0.0322
1629.00,0.0311
1628.00,0.0301
1627.00,0.0292
1626.00,0.0289
1625.00,0.0289
1624.00,0.0291
1623.00,0.0293
1622.00,0.0297
1621.00,0.0303
1620.00,0.0312
1619.00,0.0320
1618.00,0.0323
1617.00,0.0315
1616.00,0.0302
1615.00,0.0291
1614.00,0.0285
1613.00,0.0281
1612.00,0.0278
1611.00,0.0273
1610.00,0.0267
1609.00,0.0259
1608.00,0.0250
1607.00,0.0240
1606.00,0.0227
1605.00,0.0214
1604.00,0.0199
1603.00,0.0185
1602.00,0.0171
1601.00,0.0159
1600.00,0.0149
1599.00,0.0140
1598.00,0.0134
1597.00,0.0129
1596.00,0.0126
1595.00,0.0125
1594.00,0.0126
1593.00,0.0131
1592.00,0.0138
1591.00,0.0148
1590.00,0.0159
1589.00,0.0172
1588.00,0.0184
1587.00,0.0194
1586.00,0.0202
1585.00,0.0205
1584.00,0.0204
1583.00,0.0199
1582.00,0.0190
1581.00,0.0180
1580.00,0.0170
1579.00,0.0161
1578.00,0.0153
1577.00,0.0142
1576.00,0.0130
1575.00,0.0120
1574.00,0.0114
1573.00,0.0111
1572.00,0.0109
1571.00,0.0106
1570.00,0.0101
1569.00,0.0095
1568.00,0.0091
1567.00,0.0088
1566.00,0.0086
1565.00,0.0084
1564.00,0.0081
1563.00,0.0079
1562.00,0.0077
1561.00,0.0075
1560.00,0.0073
1559.00,0.0069
1558.00,0.0063
1557.00,0.0061
1556.00,0.0061
1555.00,0.0062
1554.00,0.0061
1553.00,0.0061
1552.00,0.0060
1551.00,0.0060
1550.00,0.0059
1549.00,0.0058
1548.00,0.0057
1547.00,0.0057
1546.00,0.0056
1545.00,0.0056
1544.00,0.0055
1543.00,0.0055
1542.00,0.0054
1541.00,0.0054
1540.00,0.0052
1539.00,0.0051
1538.00,0.0050
1537.00,0.0051
1536.00,0.0051
1535.00,0.0052
1534.00,0.0052
1533.00,0.0052
1532.00,0.0052
1531.00,0.0053
1530.00,0.0054
1529.00,0.0055
1528.00,0.0055
1527.00,0.0056
1526.00,0.0057
1525.00,0.0058
1524.00,0.0059
1523.00,0.0061
1522.00,0.0062
1521.00,0.0064
1520.00,0.0066
1519.00,0.0068
1518.00,0.0071
1517.00,0.0073
1516.00,0.0074
1515.00,0.0075
1514.00,0.0077
1513.00,0.0078
1512.00,0.0079
1511.00,0.0080
1510.00,0.0081
1509.00,0.0083
1508.00,0.0085
1507.00,0.0085
1506.00,0.0086
1505.00,0.0089
1504.00,0.0095
1503.00,0.0103
1502.00,0.0111
1501.00,0.0122
1500.00,0.0133
1499.00,0.0145
1498.00,0.0157
1497.00,0.0168
1496.00,0.0176
1495.00,0.0181
1494.00,0.0184
1493.00,0.0186
1492.00,0.0185
1491.00,0.0179
1490.00,0.0169
1489.00,0.0156
1488.00,0.0143
1487.00,0.0132
1486.00,0.0123
1485.00,0.0115
1484.00,0.0108
1483.00,0.0103
1482.00,0.0098
1481.00,0.0093
1480.00,0.0091
1479.00,0.0090
1478.00,0.0090
1477.00,0.0091
1476.00,0.0094
1475.00,0.0098
1474.00,0.0103
1473.00,0.0112
1472.00,0.0123
1471.00,0.0137
1470.00,0.0152
1469.00,0.0170
1468.00,0.0190
1467.00,0.0211
1466.00,0.0233
1465.00,0.0255
1464.00,0.0276
1463.00,0.0295
1462.00,0.0311
1461.00,0.0325
1460.00,0.0335
1459.00,0.0338
1458.00,0.0328
1457.00,0.0305
1456.00,0.0279
1455.00,0.0261
1454.00,0.0252
1453.00,0.0245
1452.00,0.0240
1451.00,0.0237
1450.00,0.0237
1449.00,0.0240
1448.00,0.0247
1447.00,0.0256
1446.00,0.0269
1445.00,0.0283
1444.00,0.0299
1443.00,0.0315
1442.00,0.0330
1441.00,0.0346
1440.00,0.0361
1439.00,0.0375
1438.00,0.0386
1437.00,0.0394
1436.00,0.0398
1435.00,0.0403
1434.00,0.0411
1433.00,0.0421
1432.00,0.0429
1431.00,0.0433
1430.00,0.0436
1429.00,0.0440
1428.00,0.0447
1427.00,0.0458
1426.00,0.0472
1425.00,0.0487
1424.00,0.0501
1423.00,0.0511
1422.00,0.0519
1421.00,0.0523
1420.00,0.0513
1419.00,0.0487
1418.00,0.0454
1417.00,0.0424
1416.00,0.0398
1415.00,0.0374
1414.00,0.0350
1413.00,0.0329
1412.00,0.0311
1411.00,0.0296
1410.00,0.0285
1409.00,0.0279
1408.00,0.0276
1407.00,0.0274
1406.00,0.0275
1405.00,0.0276
1404.00,0.0277
1403.00,0.0278
1402.00,0.0279
1401.00,0.0279
1400.00,0.0274
1399.00,0.0263
1398.00,0.0250
1397.00,0.0237
1396.00,0.0223
1395.00,0.0207
1394.00,0.0191
1393.00,0.0179
1392.00,0.0171
1391.00,0.0165
1390.00,0.0161
1389.00,0.0159
1388.00,0.0158
1387.00,0.0159
1386.00,0.0161
1385.00,0.0165
1384.00,0.0172
1383.00,0.0178
1382.00,0.0186
1381.00,0.0193
1380.00,0.0199
1379.00,0.0203
1378.00,0.0206
1377.00,0.0208
1376.00,0.0208
1375.00,0.0207
1374.00,0.0204
1373.00,0.0200
1372.00,0.0197
1371.00,0.0194
1370.00,0.0192
1369.00,0.0189
1368.00,0.0186
1367.00,0.0183
1366.00,0.0183
1365.00,0.0184
1364.00,0.0186
1363.00,0.0188
1362.00,0.0190
1361.00,0.0190
1360.00,0.0188
1359.00,0.0184
1358.00,0.0177
1357.00,0.0168
1356.00,0.0157
1355.00,0.0148
1354.00,0.0139
1353.00,0.0133
1352.00,0.0128
1351.00,0.0125
1350.00,0.0123
1349.00,0.0121
1348.00,0.0120
1347.00,0.0119
1346.00,0.0119
1345.00,0.0119
1344.00,0.0119
1343.00,0.0119
1342.00,0.0119
1341.00,0.0120
1340.00,0.0121
1339.00,0.0123
1338.00,0.0124
1337.00,0.0126
1336.00,0.0129
1335.00,0.0132
1334.00,0.0135
1333.00,0.0138
1332.00,0.0142
1331.00,0.0146
1330.00,0.0149
1329.00,0.0154
1328.00,0.0158
1327.00,0.0163
1326.00,0.0168
1325.00,0.0174
1324.00,0.0181
1323.00,0.0188
1322.00,0.0194
1321.00,0.0200
1320.00,0.0205
1319.00,0.0208
1318.00,0.0209
1317.00,0.0209
1316.00,0.0207
1315.00,0.0204
1314.00,0.0200
1313.00,0.0196
1312.00,0.0191
1311.00,0.0188
1310.00,0.0185
1309.00,0.0184
1308.00,0.0184
1307.00,0.0186
1306.00,0.0189
1305.00,0.0194
1304.00,0.0200
1303.00,0.0208
1302.00,0.0218
1301.00,0.0230
1300.00,0.0246
1299.00,0.0265
1298.00,0.0289
1297.00,0.0317
1296.00,0.0349
1295.00,0.0383
1294.00,0.0420
1293.00,0.0456
1292.00,0.0491
1291.00,0.0523
1290.00,0.0551
1289.00,0.0575
1288.00,0.0593
1287.00,0.0605
1286.00,0.0611
1285.00,0.0611
1284.00,0.0606
1283.00,0.0596
1282.00,0.0583
1281.00,0.0568
1280.00,0.0554
1279.00,0.0542
1278.00,0.0534
1277.00,0.0529
1276.00,0.0527
1275.00,0.0527
1274.00,0.0529
1273.00,0.0529
1272.00,0.0528
1271.00,0.0524
1270.00,0.0516
1269.00,0.0504
1268.00,0.0488
1267.00,0.0469
1266.00,0.0448
1265.00,0.0426
1264.00,0.0403
1263.00,0.0381
1262.00,0.0359
1261.00,0.0339
1260.00,0.0320
1259.00,0.0303
1258.00,0.0286
1257.00,0.0271
1256.00,0.0258
1255.00,0.0247
1254.00,0.0237
1253.00,0.0228
1252.00,0.0221
1251.00,0.0216
1250.00,0.0212
1249.00,0.0210
1248.00,0.0210
1247.00,0.0213
1246.00,0.0217
1245.00,0.0223
1244.00,0.0230
1243.00,0.0238
1242.00,0.0245
1241.00,0.0252
1240.00,0.0258
1239.00,0.0262
1238.00,0.0266
1237.00,0.0270
1236.00,0.0273
1235.00,0.0276
1234.00,0.0278
1233.00,0.0280
1232.00,0.0281
1231.00,0.0281
1230.00,0.0280
1229.00,0.0279
1228.00,0.0277
1227.00,0.0275
1226.00,0.0274
1225.00,0.0273
1224.00,0.0273
1223.00,0.0273
1222.00,0.0273
1221.00,0.0274
1220.00,0.0275
1219.00,0.0275
1218.00,0.0274
1217.00,0.0271
1216.00,0.0266
1215.00,0.0259
1214.00,0.0250
1213.00,0.0240
1212.00,0.0229
1211.00,0.0218
1210.00,0.0208
1209.00,0.0199
1208.00,0.0192
1207.00,0.0186
1206.00,0.0181
1205.00,0.0178
1204.00,0.0177
1203.00,0.0178
1202.00,0.0181
1201.00,0.0185
1200.00,0.0191
1199.00,0.0198
1198.00,0.0206
1197.00,0.0215
1196.00,0.0223
1195.00,0.0229
1194.00,0.0233
1193.00,0.0233
1192.00,0.0229
1191.00,0.0222
1190.00,0.0213
1189.00,0.0202
1188.00,0.0191
1187.00,0.0181
1186.00,0.0172
1185.00,0.0164
1184.00,0.0157
1183.00,0.0152
1182.00,0.0148
1181.00,0.0146
1180.00,0.0144
1179.00,0.0143
1178.00,0.0143
1177.00,0.0144
1176.00,0.0146
1175.00,0.0148
1174.00,0.0151
1173.00,0.0154
1172.00,0.0156
1171.00,0.0159
1170.00,0.0160
1169.00,0.0162
1168.00,0.0162
1167.00,0.0163
1166.00,0.0164
1165.00,0.0165
1164.00,0.0168
1163.00,0.0172
1162.00,0.0178
1161.00,0.0185
1160.00,0.0194
1159.00,0.0203
1158.00,0.0211
1157.00,0.0216
1156.00,0.0218
1155.00,0.0216
1154.00,0.0211
1153.00,0.0203
1152.00,0.0193
1151.00,0.0182
1150.00,0.0170
1149.00,0.0158
1148.00,0.0147
1147.00,0.0137
1146.00,0.0128
1145.00,0.0120
1144.00,0.0114
1143.00,0.0108
1142.00,0.0105
1141.00,0.0103
1140.00,0.0102
1139.00,0.0103
1138.00,0.0106
1137.00,0.0112
1136.00,0.0119
1135.00,0.0130
1134.00,0.0145
1133.00,0.0161
1132.00,0.0178
1131.00,0.0193
1130.00,0.0203
1129.00,0.0207
1128.00,0.0203
1127.00,0.0193
1126.00,0.0178
1125.00,0.0163
1124.00,0.0148
1123.00,0.0135
1122.00,0.0126
1121.00,0.0118
1120.00,0.0113
1119.00,0.0109
1118.00,0.0106
1117.00,0.0105
1116.00,0.0104
1115.00,0.0104
1114.00,0.0104
1113.00,0.0105
1112.00,0.0106
1111.00,0.0107
1110.00,0.0109
1109.00,0.0111
1108.00,0.0113
1107.00,0.0116
1106.00,0.0119
1105.00,0.0124
1104.00,0.0130
1103.00,0.0136
1102.00,0.0141
1101.00,0.0146
1100.00,0.0148
1099.00,0.0148
1098.00,0.0146
1097.00,0.0141
1096.00,0.0136
1095.00,0.0131
1094.00,0.0126
1093.00,0.0121
1092.00,0.0117
1091.00,0.0113
1090.00,0.0110
1089.00,0.0108
1088.00,0.0107
1087.00,0.0106
1086.00,0.0105
1085.00,0.0105
1084.00,0.0106
1083.00,0.0107
1082.00,0.0109
1081.00,0.0111
1080.00,0.0114
1079.00,0.0118
1078.00,0.0121
1077.00,0.0126
1076.00,0.0130
1075.00,0.0135
1074.00,0.0141
1073.00,0.0146
1072.00,0.0153
1071.00,0.0160
1070.00,0.0168
1069.00,0.0179
1068.00,0.0192
1067.00,0.0206
1066.00,0.0223
1065.00,0.0242
1064.00,0.0263
1063.00,0.0285
1062.00,0.0308
1061.00,0.0330
1060.00,0.0349
1059.00,0.0363
1058.00,0.0372
1057.00,0.0373
1056.00,0.0366
1055.00,0.0351
1054.00,0.0329
1053.00,0.0304
1052.00,0.0277
1051.00,0.0250
1050.00,0.0226
1049.00,0.0205
1048.00,0.0188
1047.00,0.0174
1046.00,0.0163
1045.00,0.0156
1044.00,0.0150
1043.00,0.0146
1042.00,0.0143
1041.00,0.0141
1040.00,0.0139
1039.00,0.0139
1038.00,0.0139
1037.00,0.0139
1036.00,0.0141
1035.00,0.0143
1034.00,0.0147
1033.00,0.0151
1032.00,0.0156
1031.00,0.0159
1030.00,0.0161
1029.00,0.0161
1028.00,0.0158
1027.00,0.0153
1026.00,0.0148
1025.00,0.0144
1024.00,0.0140
1023.00,0.0139
1022.00,0.0139
1021.00,0.0140
1020.00,0.0141
1019.00,0.0143
1018.00,0.0144
1017.00,0.0144
1016.00,0.0143
1015.00,0.0139
1014.00,0.0135
1013.00,0.0130
1012.00,0.0125
1011.00,0.0121
1010.00,0.0120
1009.00,0.0120
1008.00,0.0122
1007.00,0.0127
1006.00,0.0133
1005.00,0.0140
1004.00,0.0146
1003.00,0.0151
1002.00,0.0153
1001.00,0.0153
1000.00,0.0150
999.00,0.0145
998.00,0.0140
997.00,0.0135
996.00,0.0130
995.00,0.0126
994.00,0.0122
993.00,0.0118
992.00,0.0115
991.00,0.0111
990.00,0.0107
989.00,0.0103
988.00,0.0099
987.00,0.0096
986.00,0.0093
985.00,0.0091
984.00,0.0088
983.00,0.0087
982.00,0.0085
981.00,0.0085
980.00,0.0085
979.00,0.0085
978.00,0.0085
977.00,0.0086
976.00,0.0086
975.00,0.0086
974.00,0.0086
973.00,0.0085
972.00,0.0084
971.00,0.0082
970.00,0.0081
969.00,0.0079
968.00,0.0078
967.00,0.0077
966.00,0.0076
965.00,0.0075
964.00,0.0074
963.00,0.0073
962.00,0.0072
961.00,0.0071
960.00,0.0070
959.00,0.0069
958.00,0.0068
957.00,0.0067
956.00,0.0067
955.00,0.0066
954.00,0.0065
953.00,0.0065
952.00,0.0065
951.00,0.0065
950.00,0.0065
949.00,0.0065
948.00,0.0066
947.00,0.0067
946.00,0.0068
945.00,0.0069
944.00,0.0071
943.00,0.0073
942.00,0.0076
941.00,0.0080
940.00,0.0084
939.00,0.0090
938.00,0.0096
937.00,0.0102
936.00,0.0109
935.00,0.0115
934.00,0.0120
933.00,0.0123
932.00,0.0123
931.00,0.0122
930.00,0.0120
929.00,0.0118
928.00,0.0116
927.00,0.0115
926.00,0.0114
925.00,0.0114
924.00,0.0113
923.00,0.0112
922.00,0.0110
921.00,0.0107
920.00,0.0105
919.00,0.0102
918.00,0.0100
917.00,0.0098
916.00,0.0096
915.00,0.0094
914.00,0.0092
913.00,0.0090
912.00,0.0089
911.00,0.0089
910.00,0.0090
909.00,0.0091
908.00,0.0093
907.00,0.0095
906.00,0.0098
905.00,0.0102
904.00,0.0106
903.00,0.0112
902.00,0.0117
901.00,0.0123
900.00,0.0129
899.00,0.0134
898.00,0.0138
897.00,0.0139
896.00,0.0140
895.00,0.0138
894.00,0.0135
893.00,0.0132
892.00,0.0128
891.00,0.0124
890.00,0.0121
889.00,0.0118
888.00,0.0116
887.00,0.0115
886.00,0.0115
885.00,0.0116
884.00,0.0117
883.00,0.0120
882.00,0.0123
881.00,0.0126
880.00,0.0131
879.00,0.0136
878.00,0.0142
877.00,0.0149
876.00,0.0156
875.00,0.0164
874.00,0.0170
873.00,0.0176
872.00,0.0181
871.00,0.0184
870.00,0.0186
869.00,0.0188
868.00,0.0189
867.00,0.0189
866.00,0.0189
865.00,0.0190
864.00,0.0190
863.00,0.0191
862.00,0.0192
861.00,0.0193
860.00,0.0195
859.00,0.0196
858.00,0.0199
857.00,0.0202
856.00,0.0206
855.00,0.0210
854.00,0.0214
853.00,0.0219
852.00,0.0225
851.00,0.0230
850.00,0.0235
849.00,0.0239
848.00,0.0243
847.00,0.0246
846.00,0.0249
845.00,0.0251
844.00,0.0252
843.00,0.0252
842.00,0.0253
841.00,0.0253
840.00,0.0253
839.00,0.0252
838.00,0.0252
837.00,0.0252
836.00,0.0252
835.00,0.0253
834.00,0.0253
833.00,0.0253
832.00,0.0253
831.00,0.0253
830.00,0.0252
829.00,0.0251
828.00,0.0250
827.00,0.0249
826.00,0.0248
825.00,0.0247
824.00,0.0246
823.00,0.0246
822.00,0.0246
821.00,0.0246
820.00,0.0247
819.00,0.0249
818.00,0.0250
817.00,0.0251
816.00,0.0251
815.00,0.0250
814.00,0.0247
813.00,0.0244
812.00,0.0238
811.00,0.0231
810.00,0.0220
809.00,0.0209
808.00,0.0196
807.00,0.0184
806.00,0.0173
805.00,0.0163
804.00,0.0154
803.00,0.0147
802.00,0.0142
801.00,0.0139
800.00,0.0138
799.00,0.0137
798.00,0.0136
797.00,0.0136
796.00,0.0136
795.00,0.0136
794.00,0.0136
793.00,0.0136
792.00,0.0137
791.00,0.0138
790.00,0.0139
789.00,0.0139
788.00,0.0140
787.00,0.0140
786.00,0.0141
785.00,0.0141
784.00,0.0143
783.00,0.0144
782.00,0.0146
781.00,0.0148
780.00,0.0150
779.00,0.0153
778.00,0.0156
777.00,0.0157
776.00,0.0158
775.00,0.0157
774.00,0.0155
773.00,0.0154
772.00,0.0153
771.00,0.0154
770.00,0.0156
769.00,0.0157
768.00,0.0159
767.00,0.0162
766.00,0.0164
765.00,0.0168
764.00,0.0171
763.00,0.0175
762.00,0.0179
761.00,0.0183
760.00,0.0187
759.00,0.0191
758.00,0.0195
757.00,0.0200
756.00,0.0204
755.00,0.0208
754.00,0.0212
753.00,0.0216
752.00,0.0220
751.00,0.0225
750.00,0.0229
749.00,0.0234
748.00,0.0239
747.00,0.0244
746.00,0.0250
745.00,0.0255
744.00,0.0261
743.00,0.0268
742.00,0.0276
741.00,0.0286
740.00,0.0296
739.00,0.0305
738.00,0.0313
737.00,0.0319
736.00,0.0320
735.00,0.0319
734.00,0.0314
733.00,0.0309
732.00,0.0302
731.00,0.0294
730.00,0.0286
729.00,0.0277
728.00,0.0269
727.00,0.0262
726.00,0.0254
725.00,0.0248
724.00,0.0242
723.00,0.0236
722.00,0.0232
721.00,0.0228
720.00,0.0226
719.00,0.0224
718.00,0.0223
717.00,0.0222
716.00,0.0222
715.00,0.0221
714.00,0.0221
713.00,0.0221
712.00,0.0220
711.00,0.0219
710.00,0.0218
709.00,0.0216
708.00,0.0215
707.00,0.0215
706.00,0.0216
705.00,0.0217
704.00,0.0218
703.00,0.0219
702.00,0.0220
701.00,0.0220
700.00,0.0222
699.00,0.0224
698.00,0.0228
697.00,0.0232
696.00,0.0238
695.00,0.0246
694.00,0.0253
693.00,0.0260
692.00,0.0266
691.00,0.0270
690.00,0.0274
689.00,0.0278
688.00,0.0280
687.00,0.0281
686.00,0.0280
685.00,0.0279
684.00,0.0278
683.00,0.0278
682.00,0.0278
681.00,0.0278
680.00,0.0279
679.00,0.0281
678.00,0.0282
677.00,0.0285
676.00,0.0288
675.00,0.0292
674.00,0.0296
673.00,0.0301
672.00,0.0307
671.00,0.0312
670.00,0.0319
669.00,0.0325
668.00,0.0332
667.00,0.0339
666.00,0.0345
665.00,0.0351
664.00,0.0358
663.00,0.0366
662.00,0.0374
661.00,0.0382
660.00,0.0391
659.00,0.0401
658.00,0.0411
657.00,0.0420
656.00,0.0430
655.00,0.0439
654.00,0.0448
653.00,0.0456
652.00,0.0463
651.00,0.0469
650.00,0.0474
649.00,0.0477
648.00,0.0479
647.00,0.0480
646.00,0.0478
645.00,0.0475
644.00,0.0470
643.00,0.0465
642.00,0.0458
641.00,0.0450
640.00,0.0442
639.00,0.0433
638.00,0.0425
637.00,0.0417
636.00,0.0410
635.00,0.0404
634.00,0.0399
633.00,0.0394
632.00,0.0390
631.00,0.0387
630.00,0.0384
629.00,0.0382
628.00,0.0380
627.00,0.0378
626.00,0.0376
625.00,0.0375
624.00,0.0374
623.00,0.0373
622.00,0.0372
621.00,0.0371
620.00,0.0370
619.00,0.0369
618.00,0.0367
617.00,0.0366
616.00,0.0365
615.00,0.0364
614.00,0.0363
613.00,0.0363
612.00,0.0365
611.00,0.0367
610.00,0.0370
609.00,0.0373
608.00,0.0376
607.00,0.0378
606.00,0.0380
605.00,0.0383
604.00,0.0386
603.00,0.0389
602.00,0.0391
601.00,0.0392
600.00,0.0394
599.00,0.0395
598.00,0.0396
597.00,0.0396
596.00,0.0396
595.00,0.0396
594.00,0.0397
593.00,0.0399
592.00,0.0402
591.00,0.0406
590.00,0.0412
589.00,0.0421
588.00,0.0433
587.00,0.0449
586.00,0.0467
585.00,0.0485
584.00,0.0503
583.00,0.0517
582.00,0.0529
581.00,0.0538
580.00,0.0543
579.00,0.0546
578.00,0.0548
577.00,0.0549
576.00,0.0550
575.00,0.0551
574.00,0.0551
573.00,0.0550
572.00,0.0550
571.00,0.0550
570.00,0.0550
569.00,0.0550
568.00,0.0550
567.00,0.0548
566.00,0.0545
565.00,0.0542
564.00,0.0537
563.00,0.0532
562.00,0.0525
561.00,0.0519
560.00,0.0514
559.00,0.0510
558.00,0.0506
557.00,0.0502
556.00,0.0499
555.00,0.0495
554.00,0.0490
553.00,0.0485
552.00,0.0480
551.00,0.0476
550.00,0.0473
549.00,0.0470
548.00,0.0468
547.00,0.0465
546.00,0.0461
545.00,0.0457
544.00,0.0453
543.00,0.0449
542.00,0.0445
541.00,0.0442
540.00,0.0440
539.00,0.0440
538.00,0.0442
537.00,0.0447
536.00,0.0454
535.00,0.0461
534.00,0.0468
533.00,0.0475
532.00,0.0480
531.00,0.0483
530.00,0.0483
529.00,0.0480
528.00,0.0476
527.00,0.0471
526.00,0.0465
525.00,0.0460
524.00,0.0456
523.00,0.0452
522.00,0.0447
521.00,0.0443
520.00,0.0440
519.00,0.0438
518.00,0.0437
517.00,0.0436
516.00,0.0435
515.00,0.0435
514.00,0.0437
513.00,0.0438
512.00,0.0439
511.00,0.0441
510.00,0.0444
509.00,0.0447
508.00,0.0449
507.00,0.0449
506.00,0.0448
505.00,0.0447
504.00,0.0447
503.00,0.0445
502.00,0.0443
501.00,0.0442
500.00,0.0441
499.00,0.0441
498.00,0.0439
497.00,0.0438
496.00,0.0438
495.00,0.0439
494.00,0.0441
493.00,0.0445
492.00,0.0449
491.00,0.0450
490.00,0.0451
489.00,0.0451
488.00,0.0453
487.00,0.0454
486.00,0.0456
485.00,0.0457
484.00,0.0459
483.00,0.0462
482.00,0.0464
481.00,0.0466
480.00,0.0468
479.00,0.0470
478.00,0.0470
477.00,0.0467
476.00,0.0464
475.00,0.0463
474.00,0.0464
473.00,0.0467
472.00,0.0468
471.00,0.0467
470.00,0.0465
469.00,0.0464
468.00,0.0464
467.00,0.0465
466.00,0.0467
465.00,0.0471
464.00,0.0474
463.00,0.0474
462.00,0.0470
461.00,0.0463
460.00,0.0457
459.00,0.0453
458.00,0.0452
457.00,0.0454
456.00,0.0456
455.00,0.0457
454.00,0.0455
453.00,0.0453
452.00,0.0451
451.00,0.0449
450.00,0.0448
449.00,0.0447
448.00,0.0447
447.00,0.0445
446.00,0.0443
445.00,0.0442
444.00,0.0442
443.00,0.0445
442.00,0.0447
441.00,0.0448
440.00,0.0448
439.00,0.0446
438.00,0.0443
437.00,0.0440
436.00,0.0436
435.00,0.0432
434.00,0.0428
433.00,0.0425
432.00,0.0423
431.00,0.0425
430.00,0.0428
429.00,0.0432
428.00,0.0434
427.00,0.0433
426.00,0.0430
425.00,0.0428
424.00,0.0427
423.00,0.0426
422.00,0.0425
421.00,0.0426
420.00,0.0426
419.00,0.0426
418.00,0.0429
417.00,0.0437
416.00,0.0446
415.00,0.0454
414.00,0.0460
413.00,0.0464
412.00,0.0465
411.00,0.0464
410.00,0.0464
409.00,0.0469
408.00,0.0474
407.00,0.0476
406.00,0.0470
405.00,0.0462
404.00,0.0455
403.00,0.0451
402.00,0.0448
401.00,0.0447
400.00,0.0447
