Created as New Dataset,Sample 118 By YargerLab Date Friday, August 15 2025
cm-1,A
4000.00,0.0020
3999.00,0.0021
3998.00,0.0021
3997.00,0.0021
3996.00,0.0021
3995.00,0.0021
3994.00,0.0021
3993.00,0.0021
3992.00,0.0021
3991.00,0.0021
3990.00,0.0021
3989.00,0.0021
3988.00,0.0022
3987.00,0.0022
3986.00,0.0022
3985.00,0.0021
3984.00,0.0021
3983.00,0.0021
3982.00,0.0021
3981.00,0.0021
3980.00,0.0021
3979.00,0.0021
3978.00,0.0021
3977.00,0.0021
3976.00,0.0021
3975.00,0.0021
3974.00,0.0021
3973.00,0.0021
3972.00,0.0021
3971.00,0.0021
3970.00,0.0020
3969.00,0.0020
3968.00,0.0021
3967.00,0.0021
3966.00,0.0021
3965.00,0.0021
3964.00,0.0021
3963.00,0.0021
3962.00,0.0021
3961.00,0.0021
3960.00,0.0021
3959.00,0.0021
3958.00,0.0021
3957.00,0.0021
3956.00,0.0021
3955.00,0.0021
3954.00,0.0021
3953.00,0.0021
3952.00,0.0021
3951.00,0.0021
3950.00,0.0021
3949.00,0.0020
3948.00,0.0020
3947.00,0.0020
3946.00,0.0020
3945.00,0.0020
3944.00,0.0020
3943.00,0.0020
3942.00,0.0020
3941.00,0.0020
3940.00,0.0020
3939.00,0.0020
3938.00,0.0020
3937.00,0.0020
3936.00,0.0020
3935.00,0.0020
3934.00,0.0021
3933.00,0.0021
3932.00,0.0020
3931.00,0.0020
3930.00,0.0020
3929.00,0.0020
3928.00,0.0020
3927.00,0.0020
3926.00,0.0020
3925.00,0.0020
3924.00,0.0020
3923.00,0.0020
3922.00,0.0020
3921.00,0.0020
3920.00,0.0020
3919.00,0.0020
3918.00,0.0020
3917.00,0.0020
3916.00,0.0020
3915.00,0.0020
3914.00,0.0020
3913.00,0.0019
3912.00,0.0019
3911.00,0.0019
3910.00,0.0019
3909.00,0.0020
3908.00,0.0020
3907.00,0.0020
3906.00,0.0021
3905.00,0.0021
3904.00,0.0021
3903.00,0.0021
3902.00,0.0021
3901.00,0.0021
3900.00,0.0020
3899.00,0.0020
3898.00,0.0020
3897.00,0.0020
3896.00,0.0020
3895.00,0.0021
3894.00,0.0021
3893.00,0.0021
3892.00,0.0021
3891.00,0.0020
3890.00,0.0020
3889.00,0.0021
3888.00,0.0021
3887.00,0.0021
3886.00,0.0021
3885.00,0.0021
3884.00,0.0021
3883.00,0.0021
3882.00,0.0021
3881.00,0.0021
3880.00,0.0020
3879.00,0.0020
3878.00,0.0020
3877.00,0.0020
3876.00,0.0020
3875.00,0.0020
3874.00,0.0020
3873.00,0.0021
3872.00,0.0021
3871.00,0.0021
3870.00,0.0021
3869.00,0.0021
3868.00,0.0021
3867.00,0.0021
3866.00,0.0021
3865.00,0.0021
3864.00,0.0021
3863.00,0.0020
3862.00,0.0020
3861.00,0.0020
3860.00,0.0020
3859.00,0.0020
3858.00,0.0021
3857.00,0.0022
3856.00,0.0023
3855.00,0.0023
3854.00,0.0023
3853.00,0.0022
3852.00,0.0022
3851.00,0.0022
3850.00,0.0022
3849.00,0.0021
3848.00,0.0020
3847.00,0.0020
3846.00,0.0020
3845.00,0.0020
3844.00,0.0021
3843.00,0.0021
3842.00,0.0022
3841.00,0.0022
3840.00,0.0022
3839.00,0.0022
3838.00,0.0022
3837.00,0.0022
3836.00,0.0022
3835.00,0.0022
3834.00,0.0022
3833.00,0.0021
3832.00,0.0021
3831.00,0.0021
3830.00,0.0021
3829.00,0.0021
3828.00,0.0021
3827.00,0.0021
3826.00,0.0021
3825.00,0.0021
3824.00,0.0022
3823.00,0.0022
3822.00,0.0022
3821.00,0.0021
3820.00,0.0021
3819.00,0.0022
3818.00,0.0022
3817.00,0.0022
3816.00,0.0021
3815.00,0.0021
3814.00,0.0020
3813.00,0.0020
3812.00,0.0020
3811.00,0.0020
3810.00,0.0020
3809.00,0.0020
3808.00,0.0020
3807.00,0.0020
3806.00,0.0021
3805.00,0.0021
3804.00,0.0022
3803.00,0.0022
3802.00,0.0021
3801.00,0.0020
3800.00,0.0020
3799.00,0.0021
3798.00,0.0021
3797.00,0.0021
3796.00,0.0020
3795.00,0.0020
3794.00,0.0020
3793.00,0.0020
3792.00,0.0020
3791.00,0.0020
3790.00,0.0020
3789.00,0.0020
3788.00,0.0020
3787.00,0.0020
3786.00,0.0020
3785.00,0.0020
3784.00,0.0020
3783.00,0.0020
3782.00,0.0020
3781.00,0.0020
3780.00,0.0020
3779.00,0.0020
3778.00,0.0020
3777.00,0.0020
3776.00,0.0020
3775.00,0.0020
3774.00,0.0020
3773.00,0.0020
3772.00,0.0020
3771.00,0.0020
3770.00,0.0020
3769.00,0.0020
3768.00,0.0020
3767.00,0.0020
3766.00,0.0020
3765.00,0.0020
3764.00,0.0020
3763.00,0.0020
3762.00,0.0020
3761.00,0.0020
3760.00,0.0021
3759.00,0.0021
3758.00,0.0021
3757.00,0.0021
3756.00,0.0021
3755.00,0.0021
3754.00,0.0021
3753.00,0.0022
3752.00,0.0022
3751.00,0.0022
3750.00,0.0022
3749.00,0.0022
3748.00,0.0022
3747.00,0.0023
3746.00,0.0022
3745.00,0.0021
3744.00,0.0021
3743.00,0.0021
3742.00,0.0021
3741.00,0.0021
3740.00,0.0021
3739.00,0.0021
3738.00,0.0021
3737.00,0.0021
3736.00,0.0021
3735.00,0.0021
3734.00,0.0021
3733.00,0.0021
3732.00,0.0020
3731.00,0.0019
3730.00,0.0019
3729.00,0.0019
3728.00,0.0019
3727.00,0.0018
3726.00,0.0019
3725.00,0.0019
3724.00,0.0019
3723.00,0.0020
3722.00,0.0020
3721.00,0.0020
3720.00,0.0019
3719.00,0.0019
3718.00,0.0019
3717.00,0.0019
3716.00,0.0020
3715.00,0.0021
3714.00,0.0021
3713.00,0.0022
3712.00,0.0022
3711.00,0.0022
3710.00,0.0021
3709.00,0.0021
3708.00,0.0021
3707.00,0.0020
3706.00,0.0020
3705.00,0.0020
3704.00,0.0020
3703.00,0.0020
3702.00,0.0020
3701.00,0.0020
3700.00,0.0020
3699.00,0.0020
3698.00,0.0021
3697.00,0.0021
3696.00,0.0021
3695.00,0.0021
3694.00,0.0022
3693.00,0.0023
3692.00,0.0024
3691.00,0.0025
3690.00,0.0026
3689.00,0.0026
3688.00,0.0026
3687.00,0.0027
3686.00,0.0027
3685.00,0.0027
3684.00,0.0027
3683.00,0.0027
3682.00,0.0028
3681.00,0.0029
3680.00,0.0030
3679.00,0.0030
3678.00,0.0031
3677.00,0.0032
3676.00,0.0033
3675.00,0.0033
3674.00,0.0034
3673.00,0.0034
3672.00,0.0034
3671.00,0.0034
3670.00,0.0033
3669.00,0.0033
3668.00,0.0033
3667.00,0.0033
3666.00,0.0034
3665.00,0.0034
3664.00,0.0034
3663.00,0.0035
3662.00,0.0035
3661.00,0.0035
3660.00,0.0036
3659.00,0.0037
3658.00,0.0038
3657.00,0.0038
3656.00,0.0039
3655.00,0.0040
3654.00,0.0040
3653.00,0.0041
3652.00,0.0042
3651.00,0.0043
3650.00,0.0044
3649.00,0.0045
3648.00,0.0046
3647.00,0.0046
3646.00,0.0046
3645.00,0.0047
3644.00,0.0047
3643.00,0.0047
3642.00,0.0048
3641.00,0.0049
3640.00,0.0049
3639.00,0.0050
3638.00,0.0051
3637.00,0.0052
3636.00,0.0053
3635.00,0.0053
3634.00,0.0054
3633.00,0.0055
3632.00,0.0056
3631.00,0.0058
3630.00,0.0059
3629.00,0.0061
3628.00,0.0062
3627.00,0.0064
3626.00,0.0064
3625.00,0.0065
3624.00,0.0065
3623.00,0.0065
3622.00,0.0066
3621.00,0.0068
3620.00,0.0069
3619.00,0.0071
3618.00,0.0072
3617.00,0.0073
3616.00,0.0074
3615.00,0.0075
3614.00,0.0076
3613.00,0.0078
3612.00,0.0079
3611.00,0.0081
3610.00,0.0082
3609.00,0.0083
3608.00,0.0084
3607.00,0.0086
3606.00,0.0087
3605.00,0.0088
3604.00,0.0089
3603.00,0.0090
3602.00,0.0091
3601.00,0.0092
3600.00,0.0094
3599.00,0.0095
3598.00,0.0097
3597.00,0.0099
3596.00,0.0100
3595.00,0.0102
3594.00,0.0104
3593.00,0.0105
3592.00,0.0106
3591.00,0.0107
3590.00,0.0108
3589.00,0.0110
3588.00,0.0113
3587.00,0.0115
3586.00,0.0118
3585.00,0.0119
3584.00,0.0121
3583.00,0.0122
3582.00,0.0123
3581.00,0.0124
3580.00,0.0126
3579.00,0.0128
3578.00,0.0130
3577.00,0.0132
3576.00,0.0133
3575.00,0.0135
3574.00,0.0137
3573.00,0.0139
3572.00,0.0140
3571.00,0.0141
3570.00,0.0143
3569.00,0.0145
3568.00,0.0148
3567.00,0.0151
3566.00,0.0154
3565.00,0.0156
3564.00,0.0157
3563.00,0.0158
3562.00,0.0159
3561.00,0.0160
3560.00,0.0162
3559.00,0.0163
3558.00,0.0165
3557.00,0.0167
3556.00,0.0168
3555.00,0.0170
3554.00,0.0171
3553.00,0.0173
3552.00,0.0175
3551.00,0.0177
3550.00,0.0178
3549.00,0.0180
3548.00,0.0181
3547.00,0.0183
3546.00,0.0185
3545.00,0.0187
3544.00,0.0188
3543.00,0.0190
3542.00,0.0191
3541.00,0.0192
3540.00,0.0193
3539.00,0.0194
3538.00,0.0195
3537.00,0.0197
3536.00,0.0199
3535.00,0.0200
3534.00,0.0201
3533.00,0.0203
3532.00,0.0204
3531.00,0.0205
3530.00,0.0206
3529.00,0.0208
3528.00,0.0210
3527.00,0.0212
3526.00,0.0213
3525.00,0.0215
3524.00,0.0217
3523.00,0.0219
3522.00,0.0220
3521.00,0.0221
3520.00,0.0222
3519.00,0.0223
3518.00,0.0225
3517.00,0.0226
3516.00,0.0227
3515.00,0.0228
3514.00,0.0230
3513.00,0.0231
3512.00,0.0232
3511.00,0.0234
3510.00,0.0236
3509.00,0.0238
3508.00,0.0239
3507.00,0.0241
3506.00,0.0242
3505.00,0.0243
3504.00,0.0245
3503.00,0.0247
3502.00,0.0249
3501.00,0.0250
3500.00,0.0252
3499.00,0.0252
3498.00,0.0254
3497.00,0.0255
3496.00,0.0257
3495.00,0.0258
3494.00,0.0259
3493.00,0.0260
3492.00,0.0262
3491.00,0.0263
3490.00,0.0264
3489.00,0.0266
3488.00,0.0267
3487.00,0.0269
3486.00,0.0270
3485.00,0.0271
3484.00,0.0272
3483.00,0.0273
3482.00,0.0275
3481.00,0.0277
3480.00,0.0279
3479.00,0.0280
3478.00,0.0281
3477.00,0.0282
3476.00,0.0283
3475.00,0.0284
3474.00,0.0285
3473.00,0.0287
3472.00,0.0288
3471.00,0.0289
3470.00,0.0291
3469.00,0.0292
3468.00,0.0293
3467.00,0.0294
3466.00,0.0295
3465.00,0.0296
3464.00,0.0297
3463.00,0.0298
3462.00,0.0300
3461.00,0.0301
3460.00,0.0302
3459.00,0.0303
3458.00,0.0304
3457.00,0.0305
3456.00,0.0306
3455.00,0.0306
3454.00,0.0307
3453.00,0.0308
3452.00,0.0309
3451.00,0.0310
3450.00,0.0310
3449.00,0.0311
3448.00,0.0313
3447.00,0.0314
3446.00,0.0315
3445.00,0.0316
3444.00,0.0317
3443.00,0.0318
3442.00,0.0319
3441.00,0.0320
3440.00,0.0320
3439.00,0.0321
3438.00,0.0322
3437.00,0.0323
3436.00,0.0323
3435.00,0.0324
3434.00,0.0325
3433.00,0.0326
3432.00,0.0327
3431.00,0.0328
3430.00,0.0329
3429.00,0.0330
3428.00,0.0331
3427.00,0.0331
3426.00,0.0332
3425.00,0.0333
3424.00,0.0334
3423.00,0.0334
3422.00,0.0335
3421.00,0.0336
3420.00,0.0338
3419.00,0.0338
3418.00,0.0339
3417.00,0.0339
3416.00,0.0340
3415.00,0.0341
3414.00,0.0342
3413.00,0.0342
3412.00,0.0343
3411.00,0.0344
3410.00,0.0345
3409.00,0.0346
3408.00,0.0347
3407.00,0.0348
3406.00,0.0349
3405.00,0.0350
3404.00,0.0350
3403.00,0.0351
3402.00,0.0351
3401.00,0.0352
3400.00,0.0353
3399.00,0.0354
3398.00,0.0355
3397.00,0.0356
3396.00,0.0357
3395.00,0.0358
3394.00,0.0359
3393.00,0.0359
3392.00,0.0360
3391.00,0.0362
3390.00,0.0363
3389.00,0.0364
3388.00,0.0365
3387.00,0.0366
3386.00,0.0367
3385.00,0.0368
3384.00,0.0369
3383.00,0.0370
3382.00,0.0370
3381.00,0.0371
3380.00,0.0372
3379.00,0.0372
3378.00,0.0373
3377.00,0.0374
3376.00,0.0375
3375.00,0.0376
3374.00,0.0376
3373.00,0.0376
3372.00,0.0376
3371.00,0.0375
3370.00,0.0375
3369.00,0.0376
3368.00,0.0377
3367.00,0.0379
3366.00,0.0381
3365.00,0.0383
3364.00,0.0384
3363.00,0.0385
3362.00,0.0385
3361.00,0.0386
3360.00,0.0387
3359.00,0.0388
3358.00,0.0389
3357.00,0.0390
3356.00,0.0391
3355.00,0.0391
3354.00,0.0391
3353.00,0.0390
3352.00,0.0389
3351.00,0.0389
3350.00,0.0390
3349.00,0.0392
3348.00,0.0394
3347.00,0.0395
3346.00,0.0396
3345.00,0.0395
3344.00,0.0395
3343.00,0.0395
3342.00,0.0395
3341.00,0.0395
3340.00,0.0395
3339.00,0.0395
3338.00,0.0397
3337.00,0.0399
3336.00,0.0401
3335.00,0.0403
3334.00,0.0404
3333.00,0.0405
3332.00,0.0406
3331.00,0.0406
3330.00,0.0406
3329.00,0.0405
3328.00,0.0404
3327.00,0.0403
3326.00,0.0403
3325.00,0.0404
3324.00,0.0406
3323.00,0.0408
3322.00,0.0410
3321.00,0.0411
3320.00,0.0412
3319.00,0.0413
3318.00,0.0413
3317.00,0.0414
3316.00,0.0414
3315.00,0.0414
3314.00,0.0414
3313.00,0.0413
3312.00,0.0412
3311.00,0.0410
3310.00,0.0408
3309.00,0.0406
3308.00,0.0406
3307.00,0.0406
3306.00,0.0407
3305.00,0.0408
3304.00,0.0411
3303.00,0.0414
3302.00,0.0417
3301.00,0.0418
3300.00,0.0418
3299.00,0.0418
3298.00,0.0416
3297.00,0.0415
3296.00,0.0414
3295.00,0.0414
3294.00,0.0414
3293.00,0.0415
3292.00,0.0416
3291.00,0.0418
3290.00,0.0420
3289.00,0.0421
3288.00,0.0422
3287.00,0.0423
3286.00,0.0423
3285.00,0.0423
3284.00,0.0423
3283.00,0.0423
3282.00,0.0423
3281.00,0.0423
3280.00,0.0423
3279.00,0.0422
3278.00,0.0421
3277.00,0.0420
3276.00,0.0419
3275.00,0.0418
3274.00,0.0417
3273.00,0.0416
3272.00,0.0415
3271.00,0.0415
3270.00,0.0416
3269.00,0.0417
3268.00,0.0417
3267.00,0.0418
3266.00,0.0418
3265.00,0.0418
3264.00,0.0418
3263.00,0.0418
3262.00,0.0417
3261.00,0.0417
3260.00,0.0416
3259.00,0.0416
3258.00,0.0415
3257.00,0.0414
3256.00,0.0414
3255.00,0.0413
3254.00,0.0413
3253.00,0.0413
3252.00,0.0412
3251.00,0.0412
3250.00,0.0411
3249.00,0.0409
3248.00,0.0409
3247.00,0.0408
3246.00,0.0408
3245.00,0.0408
3244.00,0.0409
3243.00,0.0408
3242.00,0.0408
3241.00,0.0407
3240.00,0.0407
3239.00,0.0406
3238.00,0.0405
3237.00,0.0404
3236.00,0.0402
3235.00,0.0401
3234.00,0.0400
3233.00,0.0400
3232.00,0.0400
3231.00,0.0399
3230.00,0.0399
3229.00,0.0399
3228.00,0.0398
3227.00,0.0397
3226.00,0.0397
3225.00,0.0396
3224.00,0.0395
3223.00,0.0394
3222.00,0.0393
3221.00,0.0392
3220.00,0.0391
3219.00,0.0391
3218.00,0.0390
3217.00,0.0389
3216.00,0.0388
3215.00,0.0388
3214.00,0.0387
3213.00,0.0386
3212.00,0.0386
3211.00,0.0386
3210.00,0.0385
3209.00,0.0385
3208.00,0.0384
3207.00,0.0384
3206.00,0.0383
3205.00,0.0382
3204.00,0.0382
3203.00,0.0381
3202.00,0.0380
3201.00,0.0379
3200.00,0.0378
3199.00,0.0377
3198.00,0.0376
3197.00,0.0375
3196.00,0.0374
3195.00,0.0373
3194.00,0.0372
3193.00,0.0370
3192.00,0.0369
3191.00,0.0368
3190.00,0.0367
3189.00,0.0366
3188.00,0.0365
3187.00,0.0364
3186.00,0.0363
3185.00,0.0362
3184.00,0.0360
3183.00,0.0359
3182.00,0.0358
3181.00,0.0357
3180.00,0.0355
3179.00,0.0354
3178.00,0.0352
3177.00,0.0351
3176.00,0.0350
3175.00,0.0348
3174.00,0.0347
3173.00,0.0346
3172.00,0.0345
3171.00,0.0344
3170.00,0.0342
3169.00,0.0341
3168.00,0.0339
3167.00,0.0338
3166.00,0.0336
3165.00,0.0335
3164.00,0.0333
3163.00,0.0332
3162.00,0.0330
3161.00,0.0328
3160.00,0.0327
3159.00,0.0325
3158.00,0.0324
3157.00,0.0322
3156.00,0.0321
3155.00,0.0319
3154.00,0.0317
3153.00,0.0316
3152.00,0.0314
3151.00,0.0313
3150.00,0.0312
3149.00,0.0311
3148.00,0.0309
3147.00,0.0308
3146.00,0.0307
3145.00,0.0305
3144.00,0.0304
3143.00,0.0303
3142.00,0.0302
3141.00,0.0301
3140.00,0.0299
3139.00,0.0298
3138.00,0.0297
3137.00,0.0296
3136.00,0.0295
3135.00,0.0294
3134.00,0.0293
3133.00,0.0292
3132.00,0.0291
3131.00,0.0290
3130.00,0.0289
3129.00,0.0288
3128.00,0.0287
3127.00,0.0286
3126.00,0.0285
3125.00,0.0284
3124.00,0.0282
3123.00,0.0281
3122.00,0.0280
3121.00,0.0278
3120.00,0.0277
3119.00,0.0276
3118.00,0.0274
3117.00,0.0273
3116.00,0.0271
3115.00,0.0270
3114.00,0.0269
3113.00,0.0267
3112.00,0.0266
3111.00,0.0264
3110.00,0.0263
3109.00,0.0261
3108.00,0.0260
3107.00,0.0259
3106.00,0.0257
3105.00,0.0256
3104.00,0.0254
3103.00,0.0252
3102.00,0.0251
3101.00,0.0249
3100.00,0.0248
3099.00,0.0246
3098.00,0.0245
3097.00,0.0243
3096.00,0.0242
3095.00,0.0240
3094.00,0.0238
3093.00,0.0237
3092.00,0.0235
3091.00,0.0234
3090.00,0.0232
3089.00,0.0231
3088.00,0.0230
3087.00,0.0228
3086.00,0.0227
3085.00,0.0226
3084.00,0.0225
3083.00,0.0223
3082.00,0.0222
3081.00,0.0220
3080.00,0.0219
3079.00,0.0218
3078.00,0.0217
3077.00,0.0216
3076.00,0.0215
3075.00,0.0214
3074.00,0.0213
3073.00,0.0212
3072.00,0.0211
3071.00,0.0210
3070.00,0.0209
3069.00,0.0208
3068.00,0.0207
3067.00,0.0207
3066.00,0.0206
3065.00,0.0205
3064.00,0.0204
3063.00,0.0204
3062.00,0.0203
3061.00,0.0203
3060.00,0.0202
3059.00,0.0201
3058.00,0.0201
3057.00,0.0200
3056.00,0.0200
3055.00,0.0199
3054.00,0.0198
3053.00,0.0197
3052.00,0.0197
3051.00,0.0196
3050.00,0.0195
3049.00,0.0194
3048.00,0.0193
3047.00,0.0193
3046.00,0.0192
3045.00,0.0191
3044.00,0.0190
3043.00,0.0189
3042.00,0.0188
3041.00,0.0188
3040.00,0.0188
3039.00,0.0187
3038.00,0.0187
3037.00,0.0187
3036.00,0.0187
3035.00,0.0187
3034.00,0.0186
3033.00,0.0186
3032.00,0.0187
3031.00,0.0187
3030.00,0.0187
3029.00,0.0187
3028.00,0.0187
3027.00,0.0187
3026.00,0.0187
3025.00,0.0187
3024.00,0.0187
3023.00,0.0187
3022.00,0.0187
3021.00,0.0188
3020.00,0.0188
3019.00,0.0188
3018.00,0.0189
3017.00,0.0189
3016.00,0.0191
3015.00,0.0192
3014.00,0.0194
3013.00,0.0196
3012.00,0.0198
3011.00,0.0201
3010.00,0.0204
3009.00,0.0207
3008.00,0.0211
3007.00,0.0215
3006.00,0.0219
3005.00,0.0224
3004.00,0.0229
3003.00,0.0235
3002.00,0.0241
3001.00,0.0247
3000.00,0.0254
2999.00,0.0261
2998.00,0.0269
2997.00,0.0277
2996.00,0.0286
2995.00,0.0295
2994.00,0.0304
2993.00,0.0314
2992.00,0.0324
2991.00,0.0333
2990.00,0.0343
2989.00,0.0353
2988.00,0.0363
2987.00,0.0373
2986.00,0.0382
2985.00,0.0390
2984.00,0.0399
2983.00,0.0406
2982.00,0.0414
2981.00,0.0421
2980.00,0.0428
2979.00,0.0435
2978.00,0.0442
2977.00,0.0449
2976.00,0.0456
2975.00,0.0463
2974.00,0.0470
2973.00,0.0478
2972.00,0.0486
2971.00,0.0494
2970.00,0.0503
2969.00,0.0513
2968.00,0.0523
2967.00,0.0533
2966.00,0.0544
2965.00,0.0555
2964.00,0.0565
2963.00,0.0575
2962.00,0.0585
2961.00,0.0594
2960.00,0.0602
2959.00,0.0609
2958.00,0.0615
2957.00,0.0619
2956.00,0.0623
2955.00,0.0625
2954.00,0.0626
2953.00,0.0625
2952.00,0.0624
2951.00,0.0622
2950.00,0.0619
2949.00,0.0616
2948.00,0.0612
2947.00,0.0610
2946.00,0.0607
2945.00,0.0606
2944.00,0.0606
2943.00,0.0607
2942.00,0.0609
2941.00,0.0613
2940.00,0.0618
2939.00,0.0624
2938.00,0.0632
2937.00,0.0640
2936.00,0.0650
2935.00,0.0659
2934.00,0.0669
2933.00,0.0679
2932.00,0.0689
2931.00,0.0698
2930.00,0.0707
2929.00,0.0715
2928.00,0.0722
2927.00,0.0728
2926.00,0.0733
2925.00,0.0737
2924.00,0.0739
2923.00,0.0740
2922.00,0.0740
2921.00,0.0738
2920.00,0.0734
2919.00,0.0730
2918.00,0.0724
2917.00,0.0717
2916.00,0.0709
2915.00,0.0700
2914.00,0.0690
2913.00,0.0680
2912.00,0.0669
2911.00,0.0658
2910.00,0.0646
2909.00,0.0635
2908.00,0.0624
2907.00,0.0614
2906.00,0.0604
2905.00,0.0594
2904.00,0.0586
2903.00,0.0579
2902.00,0.0572
2901.00,0.0567
2900.00,0.0562
2899.00,0.0558
2898.00,0.0554
2897.00,0.0550
2896.00,0.0547
2895.00,0.0544
2894.00,0.0542
2893.00,0.0539
2892.00,0.0536
2891.00,0.0533
2890.00,0.0530
2889.00,0.0527
2888.00,0.0523
2887.00,0.0520
2886.00,0.0517
2885.00,0.0515
2884.00,0.0512
2883.00,0.0510
2882.00,0.0509
2881.00,0.0507
2880.00,0.0506
2879.00,0.0505
2878.00,0.0505
2877.00,0.0504
2876.00,0.0504
2875.00,0.0503
2874.00,0.0503
2873.00,0.0503
2872.00,0.0503
2871.00,0.0503
2870.00,0.0503
2869.00,0.0501
2868.00,0.0499
2867.00,0.0497
2866.00,0.0496
2865.00,0.0496
2864.00,0.0497
2863.00,0.0498
2862.00,0.0500
2861.00,0.0502
2860.00,0.0504
2859.00,0.0506
2858.00,0.0507
2857.00,0.0506
2856.00,0.0503
2855.00,0.0497
2854.00,0.0489
2853.00,0.0479
2852.00,0.0468
2851.00,0.0455
2850.00,0.0441
2849.00,0.0427
2848.00,0.0414
2847.00,0.0400
2846.00,0.0388
2845.00,0.0376
2844.00,0.0363
2843.00,0.0351
2842.00,0.0339
2841.00,0.0328
2840.00,0.0317
2839.00,0.0307
2838.00,0.0299
2837.00,0.0292
2836.00,0.0286
2835.00,0.0280
2834.00,0.0274
2833.00,0.0268
2832.00,0.0263
2831.00,0.0258
2830.00,0.0253
2829.00,0.0248
2828.00,0.0243
2827.00,0.0238
2826.00,0.0233
2825.00,0.0228
2824.00,0.0222
2823.00,0.0217
2822.00,0.0212
2821.00,0.0207
2820.00,0.0202
2819.00,0.0198
2818.00,0.0193
2817.00,0.0189
2816.00,0.0184
2815.00,0.0180
2814.00,0.0176
2813.00,0.0172
2812.00,0.0168
2811.00,0.0165
2810.00,0.0162
2809.00,0.0159
2808.00,0.0156
2807.00,0.0153
2806.00,0.0150
2805.00,0.0148
2804.00,0.0145
2803.00,0.0143
2802.00,0.0140
2801.00,0.0138
2800.00,0.0136
2799.00,0.0134
2798.00,0.0132
2797.00,0.0131
2796.00,0.0130
2795.00,0.0128
2794.00,0.0127
2793.00,0.0126
2792.00,0.0125
2791.00,0.0123
2790.00,0.0122
2789.00,0.0121
2788.00,0.0120
2787.00,0.0119
2786.00,0.0119
2785.00,0.0118
2784.00,0.0117
2783.00,0.0116
2782.00,0.0115
2781.00,0.0114
2780.00,0.0113
2779.00,0.0113
2778.00,0.0112
2777.00,0.0111
2776.00,0.0110
2775.00,0.0109
2774.00,0.0108
2773.00,0.0108
2772.00,0.0107
2771.00,0.0107
2770.00,0.0106
2769.00,0.0106
2768.00,0.0105
2767.00,0.0104
2766.00,0.0104
2765.00,0.0104
2764.00,0.0103
2763.00,0.0103
2762.00,0.0103
2761.00,0.0102
2760.00,0.0102
2759.00,0.0102
2758.00,0.0102
2757.00,0.0102
2756.00,0.0102
2755.00,0.0102
2754.00,0.0101
2753.00,0.0101
2752.00,0.0101
2751.00,0.0101
2750.00,0.0101
2749.00,0.0101
2748.00,0.0101
2747.00,0.0102
2746.00,0.0102
2745.00,0.0102
2744.00,0.0103
2743.00,0.0103
2742.00,0.0103
2741.00,0.0103
2740.00,0.0103
2739.00,0.0103
2738.00,0.0103
2737.00,0.0103
2736.00,0.0103
2735.00,0.0104
2734.00,0.0104
2733.00,0.0104
2732.00,0.0104
2731.00,0.0104
2730.00,0.0104
2729.00,0.0104
2728.00,0.0104
2727.00,0.0104
2726.00,0.0103
2725.00,0.0103
2724.00,0.0103
2723.00,0.0103
2722.00,0.0103
2721.00,0.0103
2720.00,0.0103
2719.00,0.0102
2718.00,0.0102
2717.00,0.0102
2716.00,0.0101
2715.00,0.0101
2714.00,0.0100
2713.00,0.0099
2712.00,0.0099
2711.00,0.0099
2710.00,0.0098
2709.00,0.0098
2708.00,0.0098
2707.00,0.0098
2706.00,0.0098
2705.00,0.0097
2704.00,0.0097
2703.00,0.0097
2702.00,0.0096
2701.00,0.0096
2700.00,0.0096
2699.00,0.0096
2698.00,0.0096
2697.00,0.0096
2696.00,0.0095
2695.00,0.0095
2694.00,0.0094
2693.00,0.0094
2692.00,0.0094
2691.00,0.0094
2690.00,0.0093
2689.00,0.0093
2688.00,0.0093
2687.00,0.0092
2686.00,0.0092
2685.00,0.0091
2684.00,0.0091
2683.00,0.0091
2682.00,0.0090
2681.00,0.0090
2680.00,0.0090
2679.00,0.0090
2678.00,0.0089
2677.00,0.0089
2676.00,0.0089
2675.00,0.0088
2674.00,0.0088
2673.00,0.0088
2672.00,0.0088
2671.00,0.0088
2670.00,0.0087
2669.00,0.0087
2668.00,0.0087
2667.00,0.0088
2666.00,0.0088
2665.00,0.0088
2664.00,0.0088
2663.00,0.0087
2662.00,0.0087
2661.00,0.0087
2660.00,0.0087
2659.00,0.0087
2658.00,0.0087
2657.00,0.0086
2656.00,0.0086
2655.00,0.0086
2654.00,0.0085
2653.00,0.0085
2652.00,0.0085
2651.00,0.0084
2650.00,0.0084
2649.00,0.0084
2648.00,0.0083
2647.00,0.0083
2646.00,0.0082
2645.00,0.0082
2644.00,0.0081
2643.00,0.0081
2642.00,0.0080
2641.00,0.0080
2640.00,0.0079
2639.00,0.0079
2638.00,0.0079
2637.00,0.0079
2636.00,0.0078
2635.00,0.0078
2634.00,0.0077
2633.00,0.0077
2632.00,0.0077
2631.00,0.0076
2630.00,0.0076
2629.00,0.0075
2628.00,0.0075
2627.00,0.0074
2626.00,0.0074
2625.00,0.0073
2624.00,0.0073
2623.00,0.0072
2622.00,0.0072
2621.00,0.0072
2620.00,0.0071
2619.00,0.0071
2618.00,0.0071
2617.00,0.0071
2616.00,0.0071
2615.00,0.0070
2614.00,0.0070
2613.00,0.0069
2612.00,0.0069
2611.00,0.0069
2610.00,0.0068
2609.00,0.0068
2608.00,0.0068
2607.00,0.0068
2606.00,0.0067
2605.00,0.0067
2604.00,0.0067
2603.00,0.0067
2602.00,0.0067
2601.00,0.0067
2600.00,0.0067
2599.00,0.0067
2598.00,0.0067
2597.00,0.0067
2596.00,0.0067
2595.00,0.0067
2594.00,0.0067
2593.00,0.0067
2592.00,0.0067
2591.00,0.0067
2590.00,0.0067
2589.00,0.0067
2588.00,0.0067
2587.00,0.0067
2586.00,0.0067
2585.00,0.0067
2584.00,0.0067
2583.00,0.0066
2582.00,0.0066
2581.00,0.0066
2580.00,0.0066
2579.00,0.0066
2578.00,0.0065
2577.00,0.0065
2576.00,0.0065
2575.00,0.0065
2574.00,0.0065
2573.00,0.0064
2572.00,0.0064
2571.00,0.0064
2570.00,0.0063
2569.00,0.0063
2568.00,0.0063
2567.00,0.0063
2566.00,0.0063
2565.00,0.0062
2564.00,0.0062
2563.00,0.0061
2562.00,0.0061
2561.00,0.0060
2560.00,0.0060
2559.00,0.0060
2558.00,0.0060
2557.00,0.0059
2556.00,0.0059
2555.00,0.0059
2554.00,0.0058
2553.00,0.0058
2552.00,0.0058
2551.00,0.0058
2550.00,0.0058
2549.00,0.0058
2548.00,0.0058
2547.00,0.0058
2546.00,0.0058
2545.00,0.0057
2544.00,0.0057
2543.00,0.0057
2542.00,0.0056
2541.00,0.0056
2540.00,0.0056
2539.00,0.0056
2538.00,0.0056
2537.00,0.0056
2536.00,0.0056
2535.00,0.0055
2534.00,0.0055
2533.00,0.0055
2532.00,0.0055
2531.00,0.0055
2530.00,0.0055
2529.00,0.0055
2528.00,0.0055
2527.00,0.0055
2526.00,0.0054
2525.00,0.0054
2524.00,0.0053
2523.00,0.0053
2522.00,0.0053
2521.00,0.0053
2520.00,0.0053
2519.00,0.0052
2518.00,0.0052
2517.00,0.0052
2516.00,0.0052
2515.00,0.0052
2514.00,0.0051
2513.00,0.0051
2512.00,0.0051
2511.00,0.0051
2510.00,0.0050
2509.00,0.0050
2508.00,0.0050
2507.00,0.0050
2506.00,0.0050
2505.00,0.0050
2504.00,0.0050
2503.00,0.0050
2502.00,0.0049
2501.00,0.0049
2500.00,0.0050
2499.00,0.0049
2498.00,0.0049
2497.00,0.0049
2496.00,0.0049
2495.00,0.0049
2494.00,0.0048
2493.00,0.0048
2492.00,0.0047
2491.00,0.0047
2490.00,0.0047
2489.00,0.0047
2488.00,0.0047
2487.00,0.0047
2486.00,0.0046
2485.00,0.0046
2484.00,0.0046
2483.00,0.0046
2482.00,0.0046
2481.00,0.0046
2480.00,0.0046
2479.00,0.0045
2478.00,0.0045
2477.00,0.0044
2476.00,0.0044
2475.00,0.0043
2474.00,0.0043
2473.00,0.0043
2472.00,0.0043
2471.00,0.0043
2470.00,0.0042
2469.00,0.0042
2468.00,0.0042
2467.00,0.0043
2466.00,0.0043
2465.00,0.0043
2464.00,0.0043
2463.00,0.0042
2462.00,0.0042
2461.00,0.0042
2460.00,0.0042
2459.00,0.0043
2458.00,0.0043
2457.00,0.0043
2456.00,0.0043
2455.00,0.0043
2454.00,0.0043
2453.00,0.0043
2452.00,0.0043
2451.00,0.0043
2450.00,0.0042
2449.00,0.0042
2448.00,0.0042
2447.00,0.0042
2446.00,0.0042
2445.00,0.0042
2444.00,0.0042
2443.00,0.0041
2442.00,0.0041
2441.00,0.0041
2440.00,0.0041
2439.00,0.0041
2438.00,0.0041
2437.00,0.0041
2436.00,0.0041
2435.00,0.0041
2434.00,0.0040
2433.00,0.0040
2432.00,0.0040
2431.00,0.0040
2430.00,0.0040
2429.00,0.0040
2428.00,0.0040
2427.00,0.0040
2426.00,0.0040
2425.00,0.0040
2424.00,0.0040
2423.00,0.0040
2422.00,0.0040
2421.00,0.0040
2420.00,0.0040
2419.00,0.0040
2418.00,0.0041
2417.00,0.0041
2416.00,0.0041
2415.00,0.0041
2414.00,0.0041
2413.00,0.0041
2412.00,0.0041
2411.00,0.0041
2410.00,0.0040
2409.00,0.0040
2408.00,0.0039
2407.00,0.0039
2406.00,0.0039
2405.00,0.0039
2404.00,0.0040
2403.00,0.0040
2402.00,0.0040
2401.00,0.0041
2400.00,0.0041
2399.00,0.0041
2398.00,0.0040
2397.00,0.0040
2396.00,0.0040
2395.00,0.0040
2394.00,0.0040
2393.00,0.0040
2392.00,0.0040
2391.00,0.0039
2390.00,0.0039
2389.00,0.0038
2388.00,0.0038
2387.00,0.0038
2386.00,0.0037
2385.00,0.0037
2384.00,0.0036
2383.00,0.0036
2382.00,0.0035
2381.00,0.0034
2380.00,0.0033
2379.00,0.0033
2378.00,0.0032
2377.00,0.0032
2376.00,0.0032
2375.00,0.0032
2374.00,0.0032
2373.00,0.0032
2372.00,0.0032
2371.00,0.0032
2370.00,0.0032
2369.00,0.0031
2368.00,0.0031
2367.00,0.0031
2366.00,0.0031
2365.00,0.0031
2364.00,0.0031
2363.00,0.0031
2362.00,0.0031
2361.00,0.0031
2360.00,0.0031
2359.00,0.0032
2358.00,0.0032
2357.00,0.0032
2356.00,0.0032
2355.00,0.0032
2354.00,0.0032
2353.00,0.0032
2352.00,0.0033
2351.00,0.0033
2350.00,0.0033
2349.00,0.0033
2348.00,0.0033
2347.00,0.0033
2346.00,0.0034
2345.00,0.0034
2344.00,0.0034
2343.00,0.0034
2342.00,0.0034
2341.00,0.0034
2340.00,0.0035
2339.00,0.0035
2338.00,0.0036
2337.00,0.0037
2336.00,0.0037
2335.00,0.0037
2334.00,0.0037
2333.00,0.0037
2332.00,0.0037
2331.00,0.0037
2330.00,0.0038
2329.00,0.0040
2328.00,0.0043
2327.00,0.0047
2326.00,0.0049
2325.00,0.0050
2324.00,0.0049
2323.00,0.0047
2322.00,0.0045
2321.00,0.0044
2320.00,0.0043
2319.00,0.0042
2318.00,0.0042
2317.00,0.0041
2316.00,0.0041
2315.00,0.0041
2314.00,0.0041
2313.00,0.0040
2312.00,0.0040
2311.00,0.0040
2310.00,0.0039
2309.00,0.0039
2308.00,0.0039
2307.00,0.0039
2306.00,0.0039
2305.00,0.0039
2304.00,0.0039
2303.00,0.0040
2302.00,0.0040
2301.00,0.0039
2300.00,0.0040
2299.00,0.0040
2298.00,0.0040
2297.00,0.0041
2296.00,0.0041
2295.00,0.0041
2294.00,0.0042
2293.00,0.0043
2292.00,0.0044
2291.00,0.0045
2290.00,0.0045
2289.00,0.0046
2288.00,0.0046
2287.00,0.0046
2286.00,0.0045
2285.00,0.0045
2284.00,0.0045
2283.00,0.0044
2282.00,0.0044
2281.00,0.0043
2280.00,0.0043
2279.00,0.0043
2278.00,0.0043
2277.00,0.0042
2276.00,0.0042
2275.00,0.0042
2274.00,0.0042
2273.00,0.0041
2272.00,0.0041
2271.00,0.0041
2270.00,0.0040
2269.00,0.0039
2268.00,0.0039
2267.00,0.0038
2266.00,0.0037
2265.00,0.0037
2264.00,0.0037
2263.00,0.0038
2262.00,0.0039
2261.00,0.0039
2260.00,0.0040
2259.00,0.0039
2258.00,0.0038
2257.00,0.0036
2256.00,0.0035
2255.00,0.0035
2254.00,0.0035
2253.00,0.0036
2252.00,0.0037
2251.00,0.0038
2250.00,0.0038
2249.00,0.0039
2248.00,0.0039
2247.00,0.0039
2246.00,0.0039
2245.00,0.0039
2244.00,0.0039
2243.00,0.0039
2242.00,0.0038
2241.00,0.0038
2240.00,0.0039
2239.00,0.0039
2238.00,0.0039
2237.00,0.0038
2236.00,0.0038
2235.00,0.0038
2234.00,0.0038
2233.00,0.0038
2232.00,0.0038
2231.00,0.0038
2230.00,0.0038
2229.00,0.0038
2228.00,0.0038
2227.00,0.0037
2226.00,0.0037
2225.00,0.0038
2224.00,0.0039
2223.00,0.0040
2222.00,0.0039
2221.00,0.0038
2220.00,0.0038
2219.00,0.0037
2218.00,0.0037
2217.00,0.0038
2216.00,0.0039
2215.00,0.0039
2214.00,0.0039
2213.00,0.0039
2212.00,0.0040
2211.00,0.0040
2210.00,0.0040
2209.00,0.0039
2208.00,0.0038
2207.00,0.0038
2206.00,0.0037
2205.00,0.0037
2204.00,0.0038
2203.00,0.0039
2202.00,0.0039
2201.00,0.0039
2200.00,0.0039
2199.00,0.0039
2198.00,0.0038
2197.00,0.0038
2196.00,0.0039
2195.00,0.0039
2194.00,0.0039
2193.00,0.0039
2192.00,0.0041
2191.00,0.0043
2190.00,0.0043
2189.00,0.0043
2188.00,0.0043
2187.00,0.0042
2186.00,0.0040
2185.00,0.0037
2184.00,0.0035
2183.00,0.0032
2182.00,0.0030
2181.00,0.0030
2180.00,0.0032
2179.00,0.0033
2178.00,0.0032
2177.00,0.0031
2176.00,0.0029
2175.00,0.0029
2174.00,0.0030
2173.00,0.0033
2172.00,0.0037
2171.00,0.0040
2170.00,0.0041
2169.00,0.0043
2168.00,0.0044
2167.00,0.0045
2166.00,0.0044
2165.00,0.0045
2164.00,0.0047
2163.00,0.0047
2162.00,0.0041
2161.00,0.0031
2160.00,0.0018
2159.00,0.0008
2158.00,0.0002
2157.00,0.0003
2156.00,0.0006
2155.00,0.0009
2154.00,0.0011
2153.00,0.0014
2152.00,0.0018
2151.00,0.0020
2150.00,0.0021
2149.00,0.0021
2148.00,0.0022
2147.00,0.0021
2146.00,0.0020
2145.00,0.0020
2144.00,0.0020
2143.00,0.0021
2142.00,0.0021
2141.00,0.0023
2140.00,0.0024
2139.00,0.0025
2138.00,0.0024
2137.00,0.0022
2136.00,0.0020
2135.00,0.0018
2134.00,0.0017
2133.00,0.0017
2132.00,0.0020
2131.00,0.0022
2130.00,0.0023
2129.00,0.0025
2128.00,0.0027
2127.00,0.0027
2126.00,0.0028
2125.00,0.0028
2124.00,0.0029
2123.00,0.0030
2122.00,0.0031
2121.00,0.0033
2120.00,0.0034
2119.00,0.0034
2118.00,0.0034
2117.00,0.0035
2116.00,0.0035
2115.00,0.0036
2114.00,0.0036
2113.00,0.0036
2112.00,0.0036
2111.00,0.0035
2110.00,0.0034
2109.00,0.0033
2108.00,0.0032
2107.00,0.0032
2106.00,0.0031
2105.00,0.0031
2104.00,0.0031
2103.00,0.0031
2102.00,0.0030
2101.00,0.0030
2100.00,0.0030
2099.00,0.0030
2098.00,0.0029
2097.00,0.0027
2096.00,0.0025
2095.00,0.0024
2094.00,0.0024
2093.00,0.0025
2092.00,0.0027
2091.00,0.0027
2090.00,0.0027
2089.00,0.0028
2088.00,0.0029
2087.00,0.0030
2086.00,0.0030
2085.00,0.0030
2084.00,0.0030
2083.00,0.0030
2082.00,0.0029
2081.00,0.0029
2080.00,0.0029
2079.00,0.0029
2078.00,0.0029
2077.00,0.0030
2076.00,0.0030
2075.00,0.0029
2074.00,0.0028
2073.00,0.0028
2072.00,0.0028
2071.00,0.0028
2070.00,0.0027
2069.00,0.0027
2068.00,0.0028
2067.00,0.0029
2066.00,0.0028
2065.00,0.0027
2064.00,0.0027
2063.00,0.0026
2062.00,0.0026
2061.00,0.0026
2060.00,0.0026
2059.00,0.0027
2058.00,0.0026
2057.00,0.0026
2056.00,0.0027
2055.00,0.0029
2054.00,0.0031
2053.00,0.0036
2052.00,0.0039
2051.00,0.0038
2050.00,0.0034
2049.00,0.0029
2048.00,0.0027
2047.00,0.0027
2046.00,0.0027
2045.00,0.0028
2044.00,0.0029
2043.00,0.0029
2042.00,0.0027
2041.00,0.0026
2040.00,0.0027
2039.00,0.0029
2038.00,0.0029
2037.00,0.0029
2036.00,0.0027
2035.00,0.0023
2034.00,0.0019
2033.00,0.0017
2032.00,0.0017
2031.00,0.0018
2030.00,0.0017
2029.00,0.0017
2028.00,0.0018
2027.00,0.0019
2026.00,0.0018
2025.00,0.0018
2024.00,0.0019
2023.00,0.0018
2022.00,0.0016
2021.00,0.0015
2020.00,0.0018
2019.00,0.0019
2018.00,0.0017
2017.00,0.0016
2016.00,0.0016
2015.00,0.0017
2014.00,0.0017
2013.00,0.0019
2012.00,0.0021
2011.00,0.0021
2010.00,0.0019
2009.00,0.0017
2008.00,0.0014
2007.00,0.0010
2006.00,0.0008
2005.00,0.0009
2004.00,0.0012
2003.00,0.0015
2002.00,0.0017
2001.00,0.0018
2000.00,0.0019
1999.00,0.0019
1998.00,0.0019
1997.00,0.0019
1996.00,0.0021
1995.00,0.0022
1994.00,0.0022
1993.00,0.0021
1992.00,0.0023
1991.00,0.0024
1990.00,0.0024
1989.00,0.0025
1988.00,0.0026
1987.00,0.0027
1986.00,0.0026
1985.00,0.0027
1984.00,0.0031
1983.00,0.0034
1982.00,0.0035
1981.00,0.0036
1980.00,0.0034
1979.00,0.0028
1978.00,0.0019
1977.00,0.0014
1976.00,0.0013
1975.00,0.0013
1974.00,0.0013
1973.00,0.0013
1972.00,0.0015
1971.00,0.0016
1970.00,0.0016
1969.00,0.0016
1968.00,0.0017
1967.00,0.0016
1966.00,0.0013
1965.00,0.0011
1964.00,0.0012
1963.00,0.0012
1962.00,0.0011
1961.00,0.0010
1960.00,0.0012
1959.00,0.0013
1958.00,0.0014
1957.00,0.0015
1956.00,0.0017
1955.00,0.0019
1954.00,0.0018
1953.00,0.0019
1952.00,0.0020
1951.00,0.0020
1950.00,0.0019
1949.00,0.0019
1948.00,0.0020
1947.00,0.0021
1946.00,0.0020
1945.00,0.0020
1944.00,0.0020
1943.00,0.0020
1942.00,0.0019
1941.00,0.0019
1940.00,0.0020
1939.00,0.0020
1938.00,0.0019
1937.00,0.0019
1936.00,0.0021
1935.00,0.0021
1934.00,0.0022
1933.00,0.0022
1932.00,0.0023
1931.00,0.0023
1930.00,0.0022
1929.00,0.0021
1928.00,0.0021
1927.00,0.0022
1926.00,0.0022
1925.00,0.0022
1924.00,0.0023
1923.00,0.0024
1922.00,0.0025
1921.00,0.0026
1920.00,0.0027
1919.00,0.0027
1918.00,0.0026
1917.00,0.0026
1916.00,0.0027
1915.00,0.0027
1914.00,0.0027
1913.00,0.0027
1912.00,0.0027
1911.00,0.0027
1910.00,0.0027
1909.00,0.0027
1908.00,0.0028
1907.00,0.0028
1906.00,0.0027
1905.00,0.0026
1904.00,0.0027
1903.00,0.0027
1902.00,0.0026
1901.00,0.0026
1900.00,0.0027
1899.00,0.0027
1898.00,0.0026
1897.00,0.0027
1896.00,0.0027
1895.00,0.0028
1894.00,0.0027
1893.00,0.0027
1892.00,0.0028
1891.00,0.0028
1890.00,0.0028
1889.00,0.0028
1888.00,0.0029
1887.00,0.0029
1886.00,0.0028
1885.00,0.0028
1884.00,0.0028
1883.00,0.0028
1882.00,0.0028
1881.00,0.0028
1880.00,0.0029
1879.00,0.0029
1878.00,0.0028
1877.00,0.0028
1876.00,0.0028
1875.00,0.0028
1874.00,0.0028
1873.00,0.0028
1872.00,0.0029
1871.00,0.0029
1870.00,0.0029
1869.00,0.0029
1868.00,0.0030
1867.00,0.0031
1866.00,0.0031
1865.00,0.0031
1864.00,0.0031
1863.00,0.0031
1862.00,0.0031
1861.00,0.0031
1860.00,0.0031
1859.00,0.0031
1858.00,0.0031
1857.00,0.0030
1856.00,0.0031
1855.00,0.0031
1854.00,0.0031
1853.00,0.0031
1852.00,0.0032
1851.00,0.0032
1850.00,0.0032
1849.00,0.0032
1848.00,0.0033
1847.00,0.0034
1846.00,0.0033
1845.00,0.0033
1844.00,0.0033
1843.00,0.0033
1842.00,0.0032
1841.00,0.0033
1840.00,0.0034
1839.00,0.0035
1838.00,0.0035
1837.00,0.0034
1836.00,0.0035
1835.00,0.0035
1834.00,0.0035
1833.00,0.0035
1832.00,0.0036
1831.00,0.0036
1830.00,0.0036
1829.00,0.0036
1828.00,0.0036
1827.00,0.0037
1826.00,0.0036
1825.00,0.0036
1824.00,0.0037
1823.00,0.0037
1822.00,0.0036
1821.00,0.0036
1820.00,0.0035
1819.00,0.0034
1818.00,0.0033
1817.00,0.0033
1816.00,0.0034
1815.00,0.0034
1814.00,0.0034
1813.00,0.0035
1812.00,0.0036
1811.00,0.0036
1810.00,0.0037
1809.00,0.0037
1808.00,0.0038
1807.00,0.0038
1806.00,0.0038
1805.00,0.0038
1804.00,0.0038
1803.00,0.0039
1802.00,0.0039
1801.00,0.0039
1800.00,0.0040
1799.00,0.0040
1798.00,0.0040
1797.00,0.0040
1796.00,0.0041
1795.00,0.0041
1794.00,0.0041
1793.00,0.0040
1792.00,0.0041
1791.00,0.0042
1790.00,0.0042
1789.00,0.0043
1788.00,0.0044
1787.00,0.0045
1786.00,0.0045
1785.00,0.0045
1784.00,0.0046
1783.00,0.0047
1782.00,0.0047
1781.00,0.0047
1780.00,0.0048
1779.00,0.0049
1778.00,0.0049
1777.00,0.0049
1776.00,0.0050
1775.00,0.0051
1774.00,0.0051
1773.00,0.0050
1772.00,0.0051
1771.00,0.0052
1770.00,0.0053
1769.00,0.0055
1768.00,0.0057
1767.00,0.0058
1766.00,0.0058
1765.00,0.0058
1764.00,0.0059
1763.00,0.0059
1762.00,0.0059
1761.00,0.0059
1760.00,0.0061
1759.00,0.0062
1758.00,0.0063
1757.00,0.0064
1756.00,0.0066
1755.00,0.0067
1754.00,0.0068
1753.00,0.0068
1752.00,0.0069
1751.00,0.0070
1750.00,0.0071
1749.00,0.0073
1748.00,0.0076
1747.00,0.0078
1746.00,0.0079
1745.00,0.0081
1744.00,0.0083
1743.00,0.0085
1742.00,0.0086
1741.00,0.0087
1740.00,0.0089
1739.00,0.0091
1738.00,0.0092
1737.00,0.0093
1736.00,0.0096
1735.00,0.0098
1734.00,0.0099
1733.00,0.0101
1732.00,0.0106
1731.00,0.0111
1730.00,0.0115
1729.00,0.0119
1728.00,0.0124
1727.00,0.0128
1726.00,0.0131
1725.00,0.0135
1724.00,0.0140
1723.00,0.0146
1722.00,0.0149
1721.00,0.0153
1720.00,0.0158
1719.00,0.0164
1718.00,0.0170
1717.00,0.0178
1716.00,0.0189
1715.00,0.0200
1714.00,0.0210
1713.00,0.0220
1712.00,0.0233
1711.00,0.0246
1710.00,0.0258
1709.00,0.0273
1708.00,0.0291
1707.00,0.0312
1706.00,0.0337
1705.00,0.0365
1704.00,0.0392
1703.00,0.0415
1702.00,0.0442
1701.00,0.0490
1700.00,0.0560
1699.00,0.0622
1698.00,0.0669
1697.00,0.0728
1696.00,0.0817
1695.00,0.0916
1694.00,0.0998
1693.00,0.1068
1692.00,0.1142
1691.00,0.1229
1690.00,0.1325
1689.00,0.1421
1688.00,0.1506
1687.00,0.1575
1686.00,0.1646
1685.00,0.1756
1684.00,0.1907
1683.00,0.2033
1682.00,0.2105
1681.00,0.2158
1680.00,0.2212
1679.00,0.2263
1678.00,0.2304
1677.00,0.2347
1676.00,0.2409
1675.00,0.2485
1674.00,0.2546
1673.00,0.2584
1672.00,0.2618
1671.00,0.2670
1670.00,0.2750
1669.00,0.2845
1668.00,0.2928
1667.00,0.2984
1666.00,0.3024
1665.00,0.3067
1664.00,0.3133
1663.00,0.3225
1662.00,0.3320
1661.00,0.3393
1660.00,0.3444
1659.00,0.3484
1658.00,0.3511
1657.00,0.3520
1656.00,0.3516
1655.00,0.3517
1654.00,0.3565
1653.00,0.3658
1652.00,0.3696
1651.00,0.3650
1650.00,0.3570
1649.00,0.3487
1648.00,0.3411
1647.00,0.3334
1646.00,0.3241
1645.00,0.3128
1644.00,0.3003
1643.00,0.2872
1642.00,0.2737
1641.00,0.2601
1640.00,0.2467
1639.00,0.2340
1638.00,0.2216
1637.00,0.2091
1636.00,0.1964
1635.00,0.1846
1634.00,0.1744
1633.00,0.1653
1632.00,0.1570
1631.00,0.1493
1630.00,0.1422
1629.00,0.1357
1628.00,0.1301
1627.00,0.1254
1626.00,0.1214
1625.00,0.1179
1624.00,0.1150
1623.00,0.1127
1622.00,0.1107
1621.00,0.1085
1620.00,0.1060
1619.00,0.1035
1618.00,0.1009
1617.00,0.0981
1616.00,0.0953
1615.00,0.0925
1614.00,0.0895
1613.00,0.0865
1612.00,0.0835
1611.00,0.0808
1610.00,0.0784
1609.00,0.0766
1608.00,0.0755
1607.00,0.0750
1606.00,0.0753
1605.00,0.0763
1604.00,0.0778
1603.00,0.0799
1602.00,0.0821
1601.00,0.0840
1600.00,0.0854
1599.00,0.0861
1598.00,0.0859
1597.00,0.0847
1596.00,0.0828
1595.00,0.0802
1594.00,0.0773
1593.00,0.0741
1592.00,0.0710
1591.00,0.0680
1590.00,0.0653
1589.00,0.0628
1588.00,0.0604
1587.00,0.0582
1586.00,0.0561
1585.00,0.0540
1584.00,0.0519
1583.00,0.0498
1582.00,0.0478
1581.00,0.0458
1580.00,0.0439
1579.00,0.0422
1578.00,0.0405
1577.00,0.0388
1576.00,0.0370
1575.00,0.0356
1574.00,0.0346
1573.00,0.0338
1572.00,0.0330
1571.00,0.0322
1570.00,0.0314
1569.00,0.0307
1568.00,0.0300
1567.00,0.0294
1566.00,0.0289
1565.00,0.0284
1564.00,0.0278
1563.00,0.0273
1562.00,0.0268
1561.00,0.0261
1560.00,0.0254
1559.00,0.0251
1558.00,0.0251
1557.00,0.0250
1556.00,0.0249
1555.00,0.0248
1554.00,0.0247
1553.00,0.0246
1552.00,0.0245
1551.00,0.0245
1550.00,0.0245
1549.00,0.0245
1548.00,0.0245
1547.00,0.0244
1546.00,0.0244
1545.00,0.0244
1544.00,0.0245
1543.00,0.0245
1542.00,0.0244
1541.00,0.0244
1540.00,0.0244
1539.00,0.0243
1538.00,0.0241
1537.00,0.0241
1536.00,0.0240
1535.00,0.0240
1534.00,0.0239
1533.00,0.0239
1532.00,0.0237
1531.00,0.0236
1530.00,0.0234
1529.00,0.0233
1528.00,0.0232
1527.00,0.0232
1526.00,0.0233
1525.00,0.0233
1524.00,0.0233
1523.00,0.0233
1522.00,0.0234
1521.00,0.0237
1520.00,0.0239
1519.00,0.0241
1518.00,0.0243
1517.00,0.0247
1516.00,0.0250
1515.00,0.0252
1514.00,0.0253
1513.00,0.0255
1512.00,0.0258
1511.00,0.0261
1510.00,0.0265
1509.00,0.0271
1508.00,0.0281
1507.00,0.0301
1506.00,0.0326
1505.00,0.0347
1504.00,0.0366
1503.00,0.0386
1502.00,0.0411
1501.00,0.0441
1500.00,0.0475
1499.00,0.0511
1498.00,0.0551
1497.00,0.0593
1496.00,0.0628
1495.00,0.0651
1494.00,0.0661
1493.00,0.0661
1492.00,0.0651
1491.00,0.0632
1490.00,0.0605
1489.00,0.0572
1488.00,0.0536
1487.00,0.0500
1486.00,0.0466
1485.00,0.0438
1484.00,0.0414
1483.00,0.0395
1482.00,0.0380
1481.00,0.0372
1480.00,0.0368
1479.00,0.0367
1478.00,0.0371
1477.00,0.0381
1476.00,0.0396
1475.00,0.0415
1474.00,0.0443
1473.00,0.0489
1472.00,0.0550
1471.00,0.0612
1470.00,0.0673
1469.00,0.0736
1468.00,0.0806
1467.00,0.0885
1466.00,0.0980
1465.00,0.1091
1464.00,0.1195
1463.00,0.1269
1462.00,0.1312
1461.00,0.1333
1460.00,0.1336
1459.00,0.1319
1458.00,0.1282
1457.00,0.1229
1456.00,0.1172
1455.00,0.1122
1454.00,0.1085
1453.00,0.1060
1452.00,0.1046
1451.00,0.1045
1450.00,0.1058
1449.00,0.1091
1448.00,0.1143
1447.00,0.1207
1446.00,0.1273
1445.00,0.1342
1444.00,0.1415
1443.00,0.1489
1442.00,0.1562
1441.00,0.1629
1440.00,0.1687
1439.00,0.1735
1438.00,0.1787
1437.00,0.1856
1436.00,0.1929
1435.00,0.1983
1434.00,0.2020
1433.00,0.2057
1432.00,0.2099
1431.00,0.2146
1430.00,0.2194
1429.00,0.2240
1428.00,0.2279
1427.00,0.2306
1426.00,0.2331
1425.00,0.2362
1424.00,0.2390
1423.00,0.2396
1422.00,0.2375
1421.00,0.2326
1420.00,0.2239
1419.00,0.2110
1418.00,0.1959
1417.00,0.1809
1416.00,0.1664
1415.00,0.1524
1414.00,0.1394
1413.00,0.1277
1412.00,0.1174
1411.00,0.1086
1410.00,0.1012
1409.00,0.0953
1408.00,0.0903
1407.00,0.0861
1406.00,0.0828
1405.00,0.0801
1404.00,0.0778
1403.00,0.0759
1402.00,0.0745
1401.00,0.0733
1400.00,0.0723
1399.00,0.0715
1398.00,0.0711
1397.00,0.0708
1396.00,0.0705
1395.00,0.0705
1394.00,0.0708
1393.00,0.0711
1392.00,0.0714
1391.00,0.0718
1390.00,0.0725
1389.00,0.0737
1388.00,0.0752
1387.00,0.0773
1386.00,0.0795
1385.00,0.0817
1384.00,0.0837
1383.00,0.0858
1382.00,0.0880
1381.00,0.0901
1380.00,0.0920
1379.00,0.0938
1378.00,0.0953
1377.00,0.0963
1376.00,0.0967
1375.00,0.0966
1374.00,0.0959
1373.00,0.0945
1372.00,0.0926
1371.00,0.0903
1370.00,0.0880
1369.00,0.0856
1368.00,0.0831
1367.00,0.0805
1366.00,0.0780
1365.00,0.0755
1364.00,0.0729
1363.00,0.0704
1362.00,0.0682
1361.00,0.0662
1360.00,0.0645
1359.00,0.0631
1358.00,0.0620
1357.00,0.0611
1356.00,0.0604
1355.00,0.0598
1354.00,0.0593
1353.00,0.0588
1352.00,0.0581
1351.00,0.0574
1350.00,0.0567
1349.00,0.0558
1348.00,0.0549
1347.00,0.0540
1346.00,0.0533
1345.00,0.0526
1344.00,0.0519
1343.00,0.0515
1342.00,0.0513
1341.00,0.0513
1340.00,0.0514
1339.00,0.0517
1338.00,0.0522
1337.00,0.0527
1336.00,0.0533
1335.00,0.0539
1334.00,0.0548
1333.00,0.0559
1332.00,0.0571
1331.00,0.0586
1330.00,0.0604
1329.00,0.0624
1328.00,0.0647
1327.00,0.0672
1326.00,0.0700
1325.00,0.0729
1324.00,0.0758
1323.00,0.0787
1322.00,0.0814
1321.00,0.0838
1320.00,0.0858
1319.00,0.0872
1318.00,0.0881
1317.00,0.0882
1316.00,0.0875
1315.00,0.0863
1314.00,0.0847
1313.00,0.0828
1312.00,0.0807
1311.00,0.0788
1310.00,0.0771
1309.00,0.0757
1308.00,0.0747
1307.00,0.0743
1306.00,0.0745
1305.00,0.0755
1304.00,0.0773
1303.00,0.0801
1302.00,0.0841
1301.00,0.0894
1300.00,0.0963
1299.00,0.1049
1298.00,0.1153
1297.00,0.1276
1296.00,0.1416
1295.00,0.1566
1294.00,0.1722
1293.00,0.1876
1292.00,0.2021
1291.00,0.2149
1290.00,0.2257
1289.00,0.2339
1288.00,0.2395
1287.00,0.2421
1286.00,0.2419
1285.00,0.2390
1284.00,0.2339
1283.00,0.2275
1282.00,0.2205
1281.00,0.2140
1280.00,0.2086
1279.00,0.2049
1278.00,0.2030
1277.00,0.2027
1276.00,0.2035
1275.00,0.2048
1274.00,0.2061
1273.00,0.2066
1272.00,0.2059
1271.00,0.2037
1270.00,0.1998
1269.00,0.1943
1268.00,0.1876
1267.00,0.1800
1266.00,0.1719
1265.00,0.1636
1264.00,0.1555
1263.00,0.1476
1262.00,0.1402
1261.00,0.1332
1260.00,0.1266
1259.00,0.1206
1258.00,0.1150
1257.00,0.1097
1256.00,0.1048
1255.00,0.1003
1254.00,0.0963
1253.00,0.0926
1252.00,0.0891
1251.00,0.0860
1250.00,0.0833
1249.00,0.0809
1248.00,0.0788
1247.00,0.0771
1246.00,0.0759
1245.00,0.0750
1244.00,0.0744
1243.00,0.0742
1242.00,0.0744
1241.00,0.0750
1240.00,0.0760
1239.00,0.0775
1238.00,0.0794
1237.00,0.0817
1236.00,0.0843
1235.00,0.0873
1234.00,0.0904
1233.00,0.0936
1232.00,0.0966
1231.00,0.0992
1230.00,0.1014
1229.00,0.1030
1228.00,0.1040
1227.00,0.1044
1226.00,0.1044
1225.00,0.1041
1224.00,0.1035
1223.00,0.1028
1222.00,0.1020
1221.00,0.1010
1220.00,0.0998
1219.00,0.0983
1218.00,0.0966
1217.00,0.0945
1216.00,0.0922
1215.00,0.0897
1214.00,0.0871
1213.00,0.0845
1212.00,0.0819
1211.00,0.0795
1210.00,0.0773
1209.00,0.0753
1208.00,0.0734
1207.00,0.0717
1206.00,0.0703
1205.00,0.0689
1204.00,0.0676
1203.00,0.0664
1202.00,0.0652
1201.00,0.0640
1200.00,0.0628
1199.00,0.0617
1198.00,0.0606
1197.00,0.0596
1196.00,0.0586
1195.00,0.0578
1194.00,0.0570
1193.00,0.0564
1192.00,0.0557
1191.00,0.0552
1190.00,0.0548
1189.00,0.0546
1188.00,0.0543
1187.00,0.0541
1186.00,0.0540
1185.00,0.0540
1184.00,0.0541
1183.00,0.0543
1182.00,0.0547
1181.00,0.0553
1180.00,0.0561
1179.00,0.0572
1178.00,0.0585
1177.00,0.0602
1176.00,0.0621
1175.00,0.0642
1174.00,0.0666
1173.00,0.0691
1172.00,0.0717
1171.00,0.0741
1170.00,0.0764
1169.00,0.0784
1168.00,0.0799
1167.00,0.0810
1166.00,0.0815
1165.00,0.0813
1164.00,0.0805
1163.00,0.0790
1162.00,0.0771
1161.00,0.0749
1160.00,0.0725
1159.00,0.0700
1158.00,0.0676
1157.00,0.0654
1156.00,0.0631
1155.00,0.0609
1154.00,0.0588
1153.00,0.0568
1152.00,0.0547
1151.00,0.0528
1150.00,0.0509
1149.00,0.0491
1148.00,0.0473
1147.00,0.0456
1146.00,0.0441
1145.00,0.0426
1144.00,0.0412
1143.00,0.0400
1142.00,0.0391
1141.00,0.0382
1140.00,0.0373
1139.00,0.0365
1138.00,0.0358
1137.00,0.0350
1136.00,0.0343
1135.00,0.0338
1134.00,0.0333
1133.00,0.0330
1132.00,0.0328
1131.00,0.0326
1130.00,0.0327
1129.00,0.0327
1128.00,0.0328
1127.00,0.0329
1126.00,0.0332
1125.00,0.0334
1124.00,0.0336
1123.00,0.0339
1122.00,0.0343
1121.00,0.0348
1120.00,0.0352
1119.00,0.0356
1118.00,0.0362
1117.00,0.0369
1116.00,0.0377
1115.00,0.0385
1114.00,0.0395
1113.00,0.0405
1112.00,0.0414
1111.00,0.0422
1110.00,0.0430
1109.00,0.0436
1108.00,0.0439
1107.00,0.0441
1106.00,0.0442
1105.00,0.0443
1104.00,0.0443
1103.00,0.0444
1102.00,0.0445
1101.00,0.0449
1100.00,0.0453
1099.00,0.0458
1098.00,0.0465
1097.00,0.0472
1096.00,0.0477
1095.00,0.0482
1094.00,0.0486
1093.00,0.0489
1092.00,0.0490
1091.00,0.0492
1090.00,0.0496
1089.00,0.0502
1088.00,0.0510
1087.00,0.0518
1086.00,0.0528
1085.00,0.0537
1084.00,0.0544
1083.00,0.0549
1082.00,0.0552
1081.00,0.0552
1080.00,0.0549
1079.00,0.0544
1078.00,0.0540
1077.00,0.0535
1076.00,0.0529
1075.00,0.0523
1074.00,0.0516
1073.00,0.0509
1072.00,0.0500
1071.00,0.0491
1070.00,0.0483
1069.00,0.0477
1068.00,0.0471
1067.00,0.0467
1066.00,0.0465
1065.00,0.0466
1064.00,0.0468
1063.00,0.0473
1062.00,0.0482
1061.00,0.0496
1060.00,0.0514
1059.00,0.0539
1058.00,0.0573
1057.00,0.0616
1056.00,0.0669
1055.00,0.0731
1054.00,0.0802
1053.00,0.0874
1052.00,0.0941
1051.00,0.0998
1050.00,0.1038
1049.00,0.1060
1048.00,0.1062
1047.00,0.1051
1046.00,0.1032
1045.00,0.1010
1044.00,0.0987
1043.00,0.0969
1042.00,0.0957
1041.00,0.0949
1040.00,0.0945
1039.00,0.0943
1038.00,0.0942
1037.00,0.0940
1036.00,0.0936
1035.00,0.0929
1034.00,0.0920
1033.00,0.0910
1032.00,0.0896
1031.00,0.0881
1030.00,0.0866
1029.00,0.0849
1028.00,0.0832
1027.00,0.0815
1026.00,0.0800
1025.00,0.0786
1024.00,0.0773
1023.00,0.0762
1022.00,0.0753
1021.00,0.0744
1020.00,0.0734
1019.00,0.0723
1018.00,0.0710
1017.00,0.0692
1016.00,0.0669
1015.00,0.0641
1014.00,0.0610
1013.00,0.0578
1012.00,0.0547
1011.00,0.0520
1010.00,0.0498
1009.00,0.0483
1008.00,0.0475
1007.00,0.0474
1006.00,0.0479
1005.00,0.0488
1004.00,0.0497
1003.00,0.0503
1002.00,0.0505
1001.00,0.0500
1000.00,0.0489
999.00,0.0476
998.00,0.0461
997.00,0.0446
996.00,0.0432
995.00,0.0420
994.00,0.0411
993.00,0.0405
992.00,0.0399
991.00,0.0396
990.00,0.0395
989.00,0.0394
988.00,0.0393
987.00,0.0392
986.00,0.0391
985.00,0.0387
984.00,0.0381
983.00,0.0373
982.00,0.0366
981.00,0.0358
980.00,0.0350
979.00,0.0342
978.00,0.0336
977.00,0.0329
976.00,0.0323
975.00,0.0317
974.00,0.0312
973.00,0.0307
972.00,0.0301
971.00,0.0295
970.00,0.0289
969.00,0.0283
968.00,0.0277
967.00,0.0271
966.00,0.0266
965.00,0.0262
964.00,0.0257
963.00,0.0252
962.00,0.0248
961.00,0.0244
960.00,0.0239
959.00,0.0235
958.00,0.0231
957.00,0.0227
956.00,0.0222
955.00,0.0219
954.00,0.0216
953.00,0.0214
952.00,0.0211
951.00,0.0209
950.00,0.0209
949.00,0.0208
948.00,0.0207
947.00,0.0207
946.00,0.0208
945.00,0.0209
944.00,0.0211
943.00,0.0213
942.00,0.0218
941.00,0.0224
940.00,0.0232
939.00,0.0242
938.00,0.0254
937.00,0.0268
936.00,0.0282
935.00,0.0295
934.00,0.0305
933.00,0.0310
932.00,0.0309
931.00,0.0302
930.00,0.0294
929.00,0.0286
928.00,0.0280
927.00,0.0276
926.00,0.0274
925.00,0.0273
924.00,0.0272
923.00,0.0272
922.00,0.0273
921.00,0.0275
920.00,0.0276
919.00,0.0279
918.00,0.0282
917.00,0.0286
916.00,0.0288
915.00,0.0291
914.00,0.0295
913.00,0.0300
912.00,0.0304
911.00,0.0308
910.00,0.0312
909.00,0.0317
908.00,0.0320
907.00,0.0322
906.00,0.0325
905.00,0.0327
904.00,0.0328
903.00,0.0330
902.00,0.0332
901.00,0.0335
900.00,0.0337
899.00,0.0340
898.00,0.0344
897.00,0.0347
896.00,0.0349
895.00,0.0349
894.00,0.0347
893.00,0.0345
892.00,0.0340
891.00,0.0336
890.00,0.0332
889.00,0.0328
888.00,0.0324
887.00,0.0321
886.00,0.0320
885.00,0.0319
884.00,0.0319
883.00,0.0319
882.00,0.0320
881.00,0.0322
880.00,0.0323
879.00,0.0325
878.00,0.0328
877.00,0.0331
876.00,0.0334
875.00,0.0337
874.00,0.0341
873.00,0.0345
872.00,0.0348
871.00,0.0353
870.00,0.0358
869.00,0.0364
868.00,0.0370
867.00,0.0377
866.00,0.0386
865.00,0.0397
864.00,0.0409
863.00,0.0422
862.00,0.0436
861.00,0.0452
860.00,0.0468
859.00,0.0486
858.00,0.0505
857.00,0.0525
856.00,0.0545
855.00,0.0566
854.00,0.0588
853.00,0.0610
852.00,0.0631
851.00,0.0651
850.00,0.0671
849.00,0.0689
848.00,0.0705
847.00,0.0719
846.00,0.0732
845.00,0.0743
844.00,0.0750
843.00,0.0756
842.00,0.0762
841.00,0.0766
840.00,0.0768
839.00,0.0771
838.00,0.0773
837.00,0.0776
836.00,0.0777
835.00,0.0779
834.00,0.0780
833.00,0.0781
832.00,0.0780
831.00,0.0778
830.00,0.0775
829.00,0.0768
828.00,0.0757
827.00,0.0744
826.00,0.0729
825.00,0.0712
824.00,0.0692
823.00,0.0671
822.00,0.0651
821.00,0.0631
820.00,0.0611
819.00,0.0592
818.00,0.0577
817.00,0.0563
816.00,0.0549
815.00,0.0538
814.00,0.0529
813.00,0.0521
812.00,0.0514
811.00,0.0508
810.00,0.0504
809.00,0.0500
808.00,0.0496
807.00,0.0493
806.00,0.0492
805.00,0.0490
804.00,0.0488
803.00,0.0487
802.00,0.0488
801.00,0.0489
800.00,0.0490
799.00,0.0492
798.00,0.0495
797.00,0.0498
796.00,0.0500
795.00,0.0501
794.00,0.0503
793.00,0.0504
792.00,0.0504
791.00,0.0504
790.00,0.0505
789.00,0.0505
788.00,0.0506
787.00,0.0506
786.00,0.0508
785.00,0.0510
784.00,0.0512
783.00,0.0514
782.00,0.0518
781.00,0.0521
780.00,0.0524
779.00,0.0527
778.00,0.0529
777.00,0.0532
776.00,0.0533
775.00,0.0534
774.00,0.0536
773.00,0.0538
772.00,0.0539
771.00,0.0541
770.00,0.0544
769.00,0.0547
768.00,0.0550
767.00,0.0555
766.00,0.0561
765.00,0.0567
764.00,0.0574
763.00,0.0582
762.00,0.0592
761.00,0.0603
760.00,0.0614
759.00,0.0626
758.00,0.0640
757.00,0.0654
756.00,0.0667
755.00,0.0680
754.00,0.0695
753.00,0.0709
752.00,0.0723
751.00,0.0738
750.00,0.0753
749.00,0.0768
748.00,0.0783
747.00,0.0796
746.00,0.0809
745.00,0.0822
744.00,0.0833
743.00,0.0844
742.00,0.0856
741.00,0.0867
740.00,0.0877
739.00,0.0886
738.00,0.0895
737.00,0.0902
736.00,0.0906
735.00,0.0907
734.00,0.0906
733.00,0.0901
732.00,0.0890
731.00,0.0876
730.00,0.0860
729.00,0.0842
728.00,0.0822
727.00,0.0802
726.00,0.0784
725.00,0.0768
724.00,0.0752
723.00,0.0739
722.00,0.0727
721.00,0.0716
720.00,0.0706
719.00,0.0698
718.00,0.0693
717.00,0.0689
716.00,0.0685
715.00,0.0682
714.00,0.0681
713.00,0.0681
712.00,0.0681
711.00,0.0682
710.00,0.0683
709.00,0.0685
708.00,0.0686
707.00,0.0687
706.00,0.0689
705.00,0.0692
704.00,0.0694
703.00,0.0696
702.00,0.0700
701.00,0.0704
700.00,0.0708
699.00,0.0712
698.00,0.0717
697.00,0.0722
696.00,0.0727
695.00,0.0732
694.00,0.0738
693.00,0.0745
692.00,0.0751
691.00,0.0758
690.00,0.0767
689.00,0.0776
688.00,0.0785
687.00,0.0795
686.00,0.0806
685.00,0.0817
684.00,0.0827
683.00,0.0837
682.00,0.0846
681.00,0.0855
680.00,0.0864
679.00,0.0872
678.00,0.0881
677.00,0.0890
676.00,0.0899
675.00,0.0908
674.00,0.0919
673.00,0.0930
672.00,0.0939
671.00,0.0947
670.00,0.0957
669.00,0.0974
668.00,0.0999
667.00,0.1024
666.00,0.1042
665.00,0.1053
664.00,0.1064
663.00,0.1081
662.00,0.1101
661.00,0.1122
660.00,0.1143
659.00,0.1165
658.00,0.1188
657.00,0.1212
656.00,0.1235
655.00,0.1258
654.00,0.1281
653.00,0.1303
652.00,0.1321
651.00,0.1337
650.00,0.1350
649.00,0.1358
648.00,0.1361
647.00,0.1358
646.00,0.1351
645.00,0.1339
644.00,0.1323
643.00,0.1302
642.00,0.1280
641.00,0.1256
640.00,0.1230
639.00,0.1207
638.00,0.1185
637.00,0.1165
636.00,0.1145
635.00,0.1126
634.00,0.1109
633.00,0.1092
632.00,0.1076
631.00,0.1061
630.00,0.1049
629.00,0.1038
628.00,0.1026
627.00,0.1015
626.00,0.1007
625.00,0.0998
624.00,0.0989
623.00,0.0982
622.00,0.0977
621.00,0.0973
620.00,0.0969
619.00,0.0965
618.00,0.0965
617.00,0.0964
616.00,0.0964
615.00,0.0964
614.00,0.0966
613.00,0.0968
612.00,0.0970
611.00,0.0974
610.00,0.0979
609.00,0.0983
608.00,0.0984
607.00,0.0985
606.00,0.0990
605.00,0.0997
604.00,0.1003
603.00,0.1009
602.00,0.1017
601.00,0.1024
600.00,0.1030
599.00,0.1035
598.00,0.1042
597.00,0.1049
596.00,0.1056
595.00,0.1064
594.00,0.1074
593.00,0.1085
592.00,0.1095
591.00,0.1106
590.00,0.1119
589.00,0.1134
588.00,0.1149
587.00,0.1168
586.00,0.1191
585.00,0.1216
584.00,0.1239
583.00,0.1262
582.00,0.1286
581.00,0.1308
580.00,0.1327
579.00,0.1344
578.00,0.1359
577.00,0.1371
576.00,0.1378
575.00,0.1382
574.00,0.1384
573.00,0.1384
572.00,0.1379
571.00,0.1373
570.00,0.1367
569.00,0.1359
568.00,0.1348
567.00,0.1336
566.00,0.1324
565.00,0.1309
564.00,0.1290
563.00,0.1271
562.00,0.1254
561.00,0.1235
560.00,0.1213
559.00,0.1192
558.00,0.1173
557.00,0.1156
556.00,0.1139
555.00,0.1124
554.00,0.1113
553.00,0.1102
552.00,0.1089
551.00,0.1076
550.00,0.1066
549.00,0.1056
548.00,0.1046
547.00,0.1037
546.00,0.1032
545.00,0.1029
544.00,0.1023
543.00,0.1018
542.00,0.1014
541.00,0.1010
540.00,0.1002
539.00,0.0996
538.00,0.0994
537.00,0.0991
536.00,0.0987
535.00,0.0984
534.00,0.0983
533.00,0.0983
532.00,0.0981
531.00,0.0979
530.00,0.0979
529.00,0.0978
528.00,0.0975
527.00,0.0971
526.00,0.0969
525.00,0.0966
524.00,0.0960
523.00,0.0954
522.00,0.0951
521.00,0.0950
520.00,0.0946
519.00,0.0944
518.00,0.0943
517.00,0.0941
516.00,0.0935
515.00,0.0931
514.00,0.0931
513.00,0.0930
512.00,0.0926
511.00,0.0921
510.00,0.0919
509.00,0.0916
508.00,0.0911
507.00,0.0907
506.00,0.0907
505.00,0.0908
504.00,0.0906
503.00,0.0904
502.00,0.0906
501.00,0.0907
500.00,0.0906
499.00,0.0907
498.00,0.0912
497.00,0.0916
496.00,0.0915
495.00,0.0915
494.00,0.0919
493.00,0.0923
492.00,0.0924
491.00,0.0924
490.00,0.0927
489.00,0.0929
488.00,0.0925
487.00,0.0923
486.00,0.0925
485.00,0.0928
484.00,0.0928
483.00,0.0929
482.00,0.0932
481.00,0.0934
480.00,0.0931
479.00,0.0931
478.00,0.0936
477.00,0.0941
476.00,0.0942
475.00,0.0943
474.00,0.0948
473.00,0.0950
472.00,0.0944
471.00,0.0938
470.00,0.0937
469.00,0.0935
468.00,0.0927
467.00,0.0921
466.00,0.0923
465.00,0.0924
464.00,0.0920
463.00,0.0917
462.00,0.0920
461.00,0.0923
460.00,0.0921
459.00,0.0919
458.00,0.0923
457.00,0.0924
456.00,0.0918
455.00,0.0914
454.00,0.0917
453.00,0.0918
452.00,0.0911
451.00,0.0904
450.00,0.0904
449.00,0.0903
448.00,0.0894
447.00,0.0885
446.00,0.0881
445.00,0.0879
444.00,0.0872
443.00,0.0866
442.00,0.0866
441.00,0.0864
440.00,0.0854
439.00,0.0846
438.00,0.0846
437.00,0.0847
436.00,0.0842
435.00,0.0836
434.00,0.0836
433.00,0.0834
432.00,0.0824
431.00,0.0815
430.00,0.0812
429.00,0.0809
428.00,0.0800
427.00,0.0797
426.00,0.0806
425.00,0.0816
424.00,0.0816
423.00,0.0814
422.00,0.0820
421.00,0.0823
420.00,0.0812
419.00,0.0798
418.00,0.0800
417.00,0.0805
416.00,0.0800
415.00,0.0797
414.00,0.0802
413.00,0.0804
412.00,0.0795
411.00,0.0790
410.00,0.0800
409.00,0.0810
408.00,0.0804
407.00,0.0800
406.00,0.0815
405.00,0.0830
404.00,0.0828
403.00,0.0825
402.00,0.0837
401.00,0.0841
400.00,0.0817
