Created as New Dataset,Sample 775 By YargerLab Date Monday, July 07 2025
cm-1,A
4000.00,0.0039
3999.00,0.0039
3998.00,0.0039
3997.00,0.0039
3996.00,0.0039
3995.00,0.0039
3994.00,0.0039
3993.00,0.0039
3992.00,0.0039
3991.00,0.0039
3990.00,0.0039
3989.00,0.0039
3988.00,0.0039
3987.00,0.0039
3986.00,0.0039
3985.00,0.0039
3984.00,0.0039
3983.00,0.0039
3982.00,0.0039
3981.00,0.0039
3980.00,0.0039
3979.00,0.0039
3978.00,0.0039
3977.00,0.0039
3976.00,0.0039
3975.00,0.0039
3974.00,0.0039
3973.00,0.0039
3972.00,0.0039
3971.00,0.0039
3970.00,0.0039
3969.00,0.0039
3968.00,0.0039
3967.00,0.0039
3966.00,0.0039
3965.00,0.0039
3964.00,0.0039
3963.00,0.0039
3962.00,0.0039
3961.00,0.0039
3960.00,0.0039
3959.00,0.0040
3958.00,0.0040
3957.00,0.0040
3956.00,0.0040
3955.00,0.0040
3954.00,0.0040
3953.00,0.0039
3952.00,0.0039
3951.00,0.0039
3950.00,0.0039
3949.00,0.0039
3948.00,0.0039
3947.00,0.0039
3946.00,0.0039
3945.00,0.0039
3944.00,0.0039
3943.00,0.0039
3942.00,0.0039
3941.00,0.0039
3940.00,0.0039
3939.00,0.0039
3938.00,0.0039
3937.00,0.0039
3936.00,0.0039
3935.00,0.0038
3934.00,0.0038
3933.00,0.0039
3932.00,0.0039
3931.00,0.0039
3930.00,0.0039
3929.00,0.0039
3928.00,0.0039
3927.00,0.0039
3926.00,0.0039
3925.00,0.0039
3924.00,0.0039
3923.00,0.0039
3922.00,0.0039
3921.00,0.0038
3920.00,0.0039
3919.00,0.0039
3918.00,0.0039
3917.00,0.0039
3916.00,0.0039
3915.00,0.0039
3914.00,0.0039
3913.00,0.0039
3912.00,0.0039
3911.00,0.0039
3910.00,0.0039
3909.00,0.0039
3908.00,0.0039
3907.00,0.0039
3906.00,0.0039
3905.00,0.0039
3904.00,0.0039
3903.00,0.0038
3902.00,0.0038
3901.00,0.0038
3900.00,0.0038
3899.00,0.0038
3898.00,0.0038
3897.00,0.0038
3896.00,0.0038
3895.00,0.0038
3894.00,0.0038
3893.00,0.0038
3892.00,0.0039
3891.00,0.0039
3890.00,0.0038
3889.00,0.0038
3888.00,0.0038
3887.00,0.0038
3886.00,0.0038
3885.00,0.0039
3884.00,0.0038
3883.00,0.0038
3882.00,0.0038
3881.00,0.0038
3880.00,0.0038
3879.00,0.0039
3878.00,0.0039
3877.00,0.0039
3876.00,0.0039
3875.00,0.0039
3874.00,0.0039
3873.00,0.0038
3872.00,0.0038
3871.00,0.0038
3870.00,0.0038
3869.00,0.0038
3868.00,0.0038
3867.00,0.0038
3866.00,0.0038
3865.00,0.0038
3864.00,0.0038
3863.00,0.0038
3862.00,0.0038
3861.00,0.0038
3860.00,0.0038
3859.00,0.0038
3858.00,0.0038
3857.00,0.0038
3856.00,0.0038
3855.00,0.0038
3854.00,0.0038
3853.00,0.0038
3852.00,0.0038
3851.00,0.0038
3850.00,0.0037
3849.00,0.0037
3848.00,0.0038
3847.00,0.0038
3846.00,0.0038
3845.00,0.0038
3844.00,0.0038
3843.00,0.0038
3842.00,0.0038
3841.00,0.0038
3840.00,0.0038
3839.00,0.0038
3838.00,0.0038
3837.00,0.0038
3836.00,0.0038
3835.00,0.0037
3834.00,0.0037
3833.00,0.0037
3832.00,0.0038
3831.00,0.0038
3830.00,0.0038
3829.00,0.0038
3828.00,0.0038
3827.00,0.0038
3826.00,0.0039
3825.00,0.0038
3824.00,0.0038
3823.00,0.0038
3822.00,0.0038
3821.00,0.0038
3820.00,0.0038
3819.00,0.0038
3818.00,0.0038
3817.00,0.0038
3816.00,0.0038
3815.00,0.0038
3814.00,0.0038
3813.00,0.0038
3812.00,0.0038
3811.00,0.0038
3810.00,0.0038
3809.00,0.0038
3808.00,0.0038
3807.00,0.0038
3806.00,0.0038
3805.00,0.0038
3804.00,0.0038
3803.00,0.0037
3802.00,0.0037
3801.00,0.0037
3800.00,0.0038
3799.00,0.0038
3798.00,0.0038
3797.00,0.0038
3796.00,0.0038
3795.00,0.0038
3794.00,0.0038
3793.00,0.0038
3792.00,0.0039
3791.00,0.0039
3790.00,0.0039
3789.00,0.0039
3788.00,0.0039
3787.00,0.0039
3786.00,0.0039
3785.00,0.0039
3784.00,0.0039
3783.00,0.0039
3782.00,0.0038
3781.00,0.0038
3780.00,0.0038
3779.00,0.0038
3778.00,0.0038
3777.00,0.0039
3776.00,0.0039
3775.00,0.0039
3774.00,0.0039
3773.00,0.0039
3772.00,0.0039
3771.00,0.0039
3770.00,0.0039
3769.00,0.0039
3768.00,0.0039
3767.00,0.0038
3766.00,0.0038
3765.00,0.0038
3764.00,0.0038
3763.00,0.0038
3762.00,0.0038
3761.00,0.0038
3760.00,0.0038
3759.00,0.0038
3758.00,0.0038
3757.00,0.0038
3756.00,0.0038
3755.00,0.0039
3754.00,0.0039
3753.00,0.0039
3752.00,0.0038
3751.00,0.0038
3750.00,0.0037
3749.00,0.0037
3748.00,0.0037
3747.00,0.0036
3746.00,0.0036
3745.00,0.0036
3744.00,0.0036
3743.00,0.0037
3742.00,0.0037
3741.00,0.0037
3740.00,0.0037
3739.00,0.0037
3738.00,0.0037
3737.00,0.0037
3736.00,0.0037
3735.00,0.0036
3734.00,0.0035
3733.00,0.0035
3732.00,0.0035
3731.00,0.0035
3730.00,0.0036
3729.00,0.0037
3728.00,0.0037
3727.00,0.0038
3726.00,0.0038
3725.00,0.0039
3724.00,0.0038
3723.00,0.0038
3722.00,0.0038
3721.00,0.0038
3720.00,0.0037
3719.00,0.0037
3718.00,0.0036
3717.00,0.0036
3716.00,0.0036
3715.00,0.0036
3714.00,0.0036
3713.00,0.0037
3712.00,0.0037
3711.00,0.0037
3710.00,0.0037
3709.00,0.0037
3708.00,0.0036
3707.00,0.0036
3706.00,0.0036
3705.00,0.0036
3704.00,0.0036
3703.00,0.0036
3702.00,0.0035
3701.00,0.0035
3700.00,0.0035
3699.00,0.0035
3698.00,0.0035
3697.00,0.0036
3696.00,0.0036
3695.00,0.0036
3694.00,0.0036
3693.00,0.0036
3692.00,0.0036
3691.00,0.0035
3690.00,0.0034
3689.00,0.0034
3688.00,0.0034
3687.00,0.0034
3686.00,0.0034
3685.00,0.0034
3684.00,0.0035
3683.00,0.0035
3682.00,0.0035
3681.00,0.0036
3680.00,0.0035
3679.00,0.0035
3678.00,0.0034
3677.00,0.0034
3676.00,0.0033
3675.00,0.0033
3674.00,0.0032
3673.00,0.0032
3672.00,0.0031
3671.00,0.0031
3670.00,0.0031
3669.00,0.0032
3668.00,0.0032
3667.00,0.0032
3666.00,0.0032
3665.00,0.0032
3664.00,0.0032
3663.00,0.0032
3662.00,0.0032
3661.00,0.0032
3660.00,0.0032
3659.00,0.0032
3658.00,0.0032
3657.00,0.0031
3656.00,0.0031
3655.00,0.0032
3654.00,0.0032
3653.00,0.0031
3652.00,0.0031
3651.00,0.0031
3650.00,0.0032
3649.00,0.0032
3648.00,0.0032
3647.00,0.0032
3646.00,0.0032
3645.00,0.0033
3644.00,0.0033
3643.00,0.0034
3642.00,0.0034
3641.00,0.0034
3640.00,0.0034
3639.00,0.0034
3638.00,0.0034
3637.00,0.0035
3636.00,0.0035
3635.00,0.0036
3634.00,0.0037
3633.00,0.0037
3632.00,0.0037
3631.00,0.0037
3630.00,0.0037
3629.00,0.0037
3628.00,0.0038
3627.00,0.0038
3626.00,0.0038
3625.00,0.0038
3624.00,0.0038
3623.00,0.0039
3622.00,0.0039
3621.00,0.0039
3620.00,0.0039
3619.00,0.0039
3618.00,0.0040
3617.00,0.0040
3616.00,0.0041
3615.00,0.0041
3614.00,0.0042
3613.00,0.0042
3612.00,0.0042
3611.00,0.0043
3610.00,0.0043
3609.00,0.0044
3608.00,0.0044
3607.00,0.0044
3606.00,0.0044
3605.00,0.0044
3604.00,0.0044
3603.00,0.0044
3602.00,0.0044
3601.00,0.0045
3600.00,0.0045
3599.00,0.0044
3598.00,0.0044
3597.00,0.0044
3596.00,0.0044
3595.00,0.0045
3594.00,0.0045
3593.00,0.0045
3592.00,0.0045
3591.00,0.0045
3590.00,0.0045
3589.00,0.0045
3588.00,0.0046
3587.00,0.0046
3586.00,0.0046
3585.00,0.0046
3584.00,0.0047
3583.00,0.0047
3582.00,0.0048
3581.00,0.0048
3580.00,0.0048
3579.00,0.0048
3578.00,0.0049
3577.00,0.0049
3576.00,0.0049
3575.00,0.0050
3574.00,0.0050
3573.00,0.0050
3572.00,0.0051
3571.00,0.0051
3570.00,0.0052
3569.00,0.0052
3568.00,0.0052
3567.00,0.0052
3566.00,0.0053
3565.00,0.0053
3564.00,0.0053
3563.00,0.0054
3562.00,0.0054
3561.00,0.0055
3560.00,0.0055
3559.00,0.0056
3558.00,0.0056
3557.00,0.0057
3556.00,0.0057
3555.00,0.0057
3554.00,0.0058
3553.00,0.0059
3552.00,0.0059
3551.00,0.0060
3550.00,0.0060
3549.00,0.0061
3548.00,0.0062
3547.00,0.0062
3546.00,0.0063
3545.00,0.0063
3544.00,0.0064
3543.00,0.0064
3542.00,0.0065
3541.00,0.0066
3540.00,0.0066
3539.00,0.0067
3538.00,0.0067
3537.00,0.0068
3536.00,0.0069
3535.00,0.0069
3534.00,0.0070
3533.00,0.0071
3532.00,0.0071
3531.00,0.0072
3530.00,0.0073
3529.00,0.0073
3528.00,0.0074
3527.00,0.0075
3526.00,0.0075
3525.00,0.0076
3524.00,0.0076
3523.00,0.0077
3522.00,0.0078
3521.00,0.0079
3520.00,0.0080
3519.00,0.0081
3518.00,0.0082
3517.00,0.0082
3516.00,0.0083
3515.00,0.0084
3514.00,0.0085
3513.00,0.0086
3512.00,0.0086
3511.00,0.0087
3510.00,0.0088
3509.00,0.0089
3508.00,0.0091
3507.00,0.0092
3506.00,0.0093
3505.00,0.0094
3504.00,0.0095
3503.00,0.0097
3502.00,0.0098
3501.00,0.0099
3500.00,0.0100
3499.00,0.0101
3498.00,0.0102
3497.00,0.0103
3496.00,0.0104
3495.00,0.0106
3494.00,0.0107
3493.00,0.0108
3492.00,0.0109
3491.00,0.0110
3490.00,0.0112
3489.00,0.0113
3488.00,0.0114
3487.00,0.0116
3486.00,0.0118
3485.00,0.0119
3484.00,0.0121
3483.00,0.0122
3482.00,0.0124
3481.00,0.0125
3480.00,0.0127
3479.00,0.0128
3478.00,0.0130
3477.00,0.0131
3476.00,0.0133
3475.00,0.0134
3474.00,0.0136
3473.00,0.0138
3472.00,0.0140
3471.00,0.0141
3470.00,0.0143
3469.00,0.0145
3468.00,0.0147
3467.00,0.0149
3466.00,0.0150
3465.00,0.0152
3464.00,0.0153
3463.00,0.0154
3462.00,0.0156
3461.00,0.0157
3460.00,0.0158
3459.00,0.0159
3458.00,0.0161
3457.00,0.0162
3456.00,0.0163
3455.00,0.0164
3454.00,0.0165
3453.00,0.0167
3452.00,0.0168
3451.00,0.0169
3450.00,0.0169
3449.00,0.0170
3448.00,0.0171
3447.00,0.0172
3446.00,0.0173
3445.00,0.0174
3444.00,0.0175
3443.00,0.0176
3442.00,0.0177
3441.00,0.0177
3440.00,0.0178
3439.00,0.0179
3438.00,0.0179
3437.00,0.0179
3436.00,0.0180
3435.00,0.0180
3434.00,0.0181
3433.00,0.0181
3432.00,0.0181
3431.00,0.0182
3430.00,0.0182
3429.00,0.0182
3428.00,0.0182
3427.00,0.0183
3426.00,0.0183
3425.00,0.0183
3424.00,0.0183
3423.00,0.0183
3422.00,0.0184
3421.00,0.0184
3420.00,0.0184
3419.00,0.0184
3418.00,0.0185
3417.00,0.0185
3416.00,0.0185
3415.00,0.0185
3414.00,0.0185
3413.00,0.0185
3412.00,0.0185
3411.00,0.0185
3410.00,0.0185
3409.00,0.0185
3408.00,0.0186
3407.00,0.0186
3406.00,0.0186
3405.00,0.0186
3404.00,0.0186
3403.00,0.0187
3402.00,0.0187
3401.00,0.0187
3400.00,0.0187
3399.00,0.0187
3398.00,0.0187
3397.00,0.0187
3396.00,0.0187
3395.00,0.0187
3394.00,0.0187
3393.00,0.0187
3392.00,0.0187
3391.00,0.0187
3390.00,0.0187
3389.00,0.0187
3388.00,0.0187
3387.00,0.0187
3386.00,0.0187
3385.00,0.0188
3384.00,0.0188
3383.00,0.0188
3382.00,0.0188
3381.00,0.0188
3380.00,0.0188
3379.00,0.0188
3378.00,0.0188
3377.00,0.0189
3376.00,0.0189
3375.00,0.0189
3374.00,0.0189
3373.00,0.0189
3372.00,0.0190
3371.00,0.0190
3370.00,0.0190
3369.00,0.0190
3368.00,0.0190
3367.00,0.0190
3366.00,0.0190
3365.00,0.0190
3364.00,0.0190
3363.00,0.0191
3362.00,0.0191
3361.00,0.0191
3360.00,0.0191
3359.00,0.0192
3358.00,0.0192
3357.00,0.0192
3356.00,0.0192
3355.00,0.0192
3354.00,0.0193
3353.00,0.0193
3352.00,0.0193
3351.00,0.0193
3350.00,0.0193
3349.00,0.0193
3348.00,0.0194
3347.00,0.0194
3346.00,0.0194
3345.00,0.0194
3344.00,0.0194
3343.00,0.0194
3342.00,0.0195
3341.00,0.0195
3340.00,0.0195
3339.00,0.0195
3338.00,0.0195
3337.00,0.0196
3336.00,0.0196
3335.00,0.0196
3334.00,0.0197
3333.00,0.0197
3332.00,0.0197
3331.00,0.0197
3330.00,0.0197
3329.00,0.0197
3328.00,0.0197
3327.00,0.0197
3326.00,0.0197
3325.00,0.0197
3324.00,0.0197
3323.00,0.0198
3322.00,0.0198
3321.00,0.0198
3320.00,0.0199
3319.00,0.0199
3318.00,0.0199
3317.00,0.0199
3316.00,0.0199
3315.00,0.0199
3314.00,0.0199
3313.00,0.0199
3312.00,0.0198
3311.00,0.0198
3310.00,0.0197
3309.00,0.0197
3308.00,0.0196
3307.00,0.0196
3306.00,0.0196
3305.00,0.0197
3304.00,0.0197
3303.00,0.0198
3302.00,0.0198
3301.00,0.0199
3300.00,0.0199
3299.00,0.0198
3298.00,0.0198
3297.00,0.0197
3296.00,0.0197
3295.00,0.0197
3294.00,0.0197
3293.00,0.0197
3292.00,0.0197
3291.00,0.0197
3290.00,0.0197
3289.00,0.0198
3288.00,0.0198
3287.00,0.0198
3286.00,0.0197
3285.00,0.0197
3284.00,0.0197
3283.00,0.0197
3282.00,0.0197
3281.00,0.0197
3280.00,0.0197
3279.00,0.0197
3278.00,0.0196
3277.00,0.0196
3276.00,0.0196
3275.00,0.0195
3274.00,0.0195
3273.00,0.0195
3272.00,0.0195
3271.00,0.0195
3270.00,0.0195
3269.00,0.0195
3268.00,0.0195
3267.00,0.0195
3266.00,0.0195
3265.00,0.0195
3264.00,0.0195
3263.00,0.0194
3262.00,0.0194
3261.00,0.0194
3260.00,0.0194
3259.00,0.0194
3258.00,0.0194
3257.00,0.0193
3256.00,0.0193
3255.00,0.0193
3254.00,0.0193
3253.00,0.0193
3252.00,0.0193
3251.00,0.0193
3250.00,0.0192
3249.00,0.0192
3248.00,0.0191
3247.00,0.0191
3246.00,0.0191
3245.00,0.0191
3244.00,0.0191
3243.00,0.0191
3242.00,0.0191
3241.00,0.0190
3240.00,0.0190
3239.00,0.0190
3238.00,0.0190
3237.00,0.0189
3236.00,0.0189
3235.00,0.0189
3234.00,0.0188
3233.00,0.0188
3232.00,0.0188
3231.00,0.0187
3230.00,0.0187
3229.00,0.0187
3228.00,0.0187
3227.00,0.0186
3226.00,0.0186
3225.00,0.0186
3224.00,0.0186
3223.00,0.0185
3222.00,0.0185
3221.00,0.0185
3220.00,0.0185
3219.00,0.0185
3218.00,0.0184
3217.00,0.0184
3216.00,0.0183
3215.00,0.0183
3214.00,0.0183
3213.00,0.0183
3212.00,0.0183
3211.00,0.0183
3210.00,0.0183
3209.00,0.0183
3208.00,0.0183
3207.00,0.0182
3206.00,0.0182
3205.00,0.0182
3204.00,0.0182
3203.00,0.0181
3202.00,0.0181
3201.00,0.0181
3200.00,0.0181
3199.00,0.0180
3198.00,0.0180
3197.00,0.0180
3196.00,0.0179
3195.00,0.0179
3194.00,0.0179
3193.00,0.0179
3192.00,0.0178
3191.00,0.0178
3190.00,0.0177
3189.00,0.0177
3188.00,0.0176
3187.00,0.0176
3186.00,0.0176
3185.00,0.0175
3184.00,0.0175
3183.00,0.0175
3182.00,0.0174
3181.00,0.0174
3180.00,0.0173
3179.00,0.0173
3178.00,0.0172
3177.00,0.0172
3176.00,0.0171
3175.00,0.0171
3174.00,0.0170
3173.00,0.0170
3172.00,0.0169
3171.00,0.0169
3170.00,0.0169
3169.00,0.0168
3168.00,0.0168
3167.00,0.0168
3166.00,0.0167
3165.00,0.0167
3164.00,0.0166
3163.00,0.0165
3162.00,0.0165
3161.00,0.0164
3160.00,0.0163
3159.00,0.0162
3158.00,0.0162
3157.00,0.0161
3156.00,0.0161
3155.00,0.0160
3154.00,0.0159
3153.00,0.0159
3152.00,0.0158
3151.00,0.0158
3150.00,0.0157
3149.00,0.0157
3148.00,0.0156
3147.00,0.0156
3146.00,0.0155
3145.00,0.0155
3144.00,0.0154
3143.00,0.0154
3142.00,0.0153
3141.00,0.0153
3140.00,0.0152
3139.00,0.0152
3138.00,0.0151
3137.00,0.0151
3136.00,0.0150
3135.00,0.0150
3134.00,0.0149
3133.00,0.0148
3132.00,0.0148
3131.00,0.0147
3130.00,0.0147
3129.00,0.0146
3128.00,0.0146
3127.00,0.0145
3126.00,0.0144
3125.00,0.0144
3124.00,0.0143
3123.00,0.0143
3122.00,0.0142
3121.00,0.0142
3120.00,0.0141
3119.00,0.0141
3118.00,0.0140
3117.00,0.0140
3116.00,0.0139
3115.00,0.0139
3114.00,0.0138
3113.00,0.0137
3112.00,0.0137
3111.00,0.0136
3110.00,0.0136
3109.00,0.0135
3108.00,0.0135
3107.00,0.0134
3106.00,0.0134
3105.00,0.0134
3104.00,0.0133
3103.00,0.0133
3102.00,0.0133
3101.00,0.0132
3100.00,0.0132
3099.00,0.0132
3098.00,0.0132
3097.00,0.0132
3096.00,0.0131
3095.00,0.0131
3094.00,0.0131
3093.00,0.0131
3092.00,0.0131
3091.00,0.0131
3090.00,0.0131
3089.00,0.0132
3088.00,0.0132
3087.00,0.0132
3086.00,0.0133
3085.00,0.0133
3084.00,0.0133
3083.00,0.0134
3082.00,0.0134
3081.00,0.0135
3080.00,0.0136
3079.00,0.0136
3078.00,0.0137
3077.00,0.0137
3076.00,0.0138
3075.00,0.0138
3074.00,0.0138
3073.00,0.0138
3072.00,0.0137
3071.00,0.0136
3070.00,0.0135
3069.00,0.0134
3068.00,0.0133
3067.00,0.0131
3066.00,0.0129
3065.00,0.0127
3064.00,0.0126
3063.00,0.0124
3062.00,0.0122
3061.00,0.0121
3060.00,0.0119
3059.00,0.0118
3058.00,0.0117
3057.00,0.0116
3056.00,0.0115
3055.00,0.0114
3054.00,0.0114
3053.00,0.0114
3052.00,0.0113
3051.00,0.0113
3050.00,0.0113
3049.00,0.0113
3048.00,0.0112
3047.00,0.0112
3046.00,0.0112
3045.00,0.0112
3044.00,0.0112
3043.00,0.0112
3042.00,0.0112
3041.00,0.0112
3040.00,0.0112
3039.00,0.0112
3038.00,0.0112
3037.00,0.0111
3036.00,0.0111
3035.00,0.0111
3034.00,0.0111
3033.00,0.0110
3032.00,0.0110
3031.00,0.0110
3030.00,0.0110
3029.00,0.0109
3028.00,0.0109
3027.00,0.0108
3026.00,0.0108
3025.00,0.0108
3024.00,0.0108
3023.00,0.0107
3022.00,0.0107
3021.00,0.0107
3020.00,0.0107
3019.00,0.0106
3018.00,0.0106
3017.00,0.0106
3016.00,0.0106
3015.00,0.0105
3014.00,0.0105
3013.00,0.0105
3012.00,0.0104
3011.00,0.0103
3010.00,0.0103
3009.00,0.0102
3008.00,0.0101
3007.00,0.0101
3006.00,0.0100
3005.00,0.0100
3004.00,0.0099
3003.00,0.0098
3002.00,0.0097
3001.00,0.0097
3000.00,0.0097
2999.00,0.0097
2998.00,0.0097
2997.00,0.0098
2996.00,0.0099
2995.00,0.0100
2994.00,0.0102
2993.00,0.0103
2992.00,0.0105
2991.00,0.0106
2990.00,0.0108
2989.00,0.0110
2988.00,0.0111
2987.00,0.0112
2986.00,0.0113
2985.00,0.0111
2984.00,0.0109
2983.00,0.0106
2982.00,0.0105
2981.00,0.0107
2980.00,0.0112
2979.00,0.0119
2978.00,0.0127
2977.00,0.0135
2976.00,0.0142
2975.00,0.0149
2974.00,0.0155
2973.00,0.0161
2972.00,0.0167
2971.00,0.0174
2970.00,0.0183
2969.00,0.0194
2968.00,0.0204
2967.00,0.0214
2966.00,0.0224
2965.00,0.0234
2964.00,0.0243
2963.00,0.0251
2962.00,0.0258
2961.00,0.0265
2960.00,0.0270
2959.00,0.0274
2958.00,0.0278
2957.00,0.0281
2956.00,0.0283
2955.00,0.0284
2954.00,0.0284
2953.00,0.0283
2952.00,0.0282
2951.00,0.0280
2950.00,0.0279
2949.00,0.0278
2948.00,0.0278
2947.00,0.0279
2946.00,0.0281
2945.00,0.0284
2944.00,0.0288
2943.00,0.0294
2942.00,0.0301
2941.00,0.0309
2940.00,0.0317
2939.00,0.0327
2938.00,0.0337
2937.00,0.0347
2936.00,0.0358
2935.00,0.0369
2934.00,0.0379
2933.00,0.0389
2932.00,0.0399
2931.00,0.0407
2930.00,0.0415
2929.00,0.0421
2928.00,0.0426
2927.00,0.0430
2926.00,0.0432
2925.00,0.0433
2924.00,0.0433
2923.00,0.0431
2922.00,0.0428
2921.00,0.0424
2920.00,0.0419
2919.00,0.0414
2918.00,0.0408
2917.00,0.0401
2916.00,0.0394
2915.00,0.0387
2914.00,0.0380
2913.00,0.0373
2912.00,0.0366
2911.00,0.0359
2910.00,0.0351
2909.00,0.0344
2908.00,0.0337
2907.00,0.0330
2906.00,0.0324
2905.00,0.0317
2904.00,0.0312
2903.00,0.0306
2902.00,0.0301
2901.00,0.0296
2900.00,0.0292
2899.00,0.0288
2898.00,0.0283
2897.00,0.0280
2896.00,0.0276
2895.00,0.0272
2894.00,0.0268
2893.00,0.0265
2892.00,0.0261
2891.00,0.0257
2890.00,0.0254
2889.00,0.0251
2888.00,0.0249
2887.00,0.0247
2886.00,0.0245
2885.00,0.0243
2884.00,0.0242
2883.00,0.0241
2882.00,0.0241
2881.00,0.0242
2880.00,0.0243
2879.00,0.0245
2878.00,0.0247
2877.00,0.0249
2876.00,0.0252
2875.00,0.0255
2874.00,0.0258
2873.00,0.0260
2872.00,0.0263
2871.00,0.0264
2870.00,0.0265
2869.00,0.0264
2868.00,0.0264
2867.00,0.0264
2866.00,0.0265
2865.00,0.0267
2864.00,0.0270
2863.00,0.0274
2862.00,0.0280
2861.00,0.0286
2860.00,0.0292
2859.00,0.0297
2858.00,0.0301
2857.00,0.0304
2856.00,0.0304
2855.00,0.0302
2854.00,0.0297
2853.00,0.0291
2852.00,0.0283
2851.00,0.0274
2850.00,0.0264
2849.00,0.0254
2848.00,0.0244
2847.00,0.0233
2846.00,0.0223
2845.00,0.0214
2844.00,0.0205
2843.00,0.0197
2842.00,0.0190
2841.00,0.0184
2840.00,0.0180
2839.00,0.0177
2838.00,0.0174
2837.00,0.0173
2836.00,0.0173
2835.00,0.0173
2834.00,0.0172
2833.00,0.0172
2832.00,0.0171
2831.00,0.0169
2830.00,0.0167
2829.00,0.0163
2828.00,0.0159
2827.00,0.0155
2826.00,0.0150
2825.00,0.0145
2824.00,0.0140
2823.00,0.0135
2822.00,0.0130
2821.00,0.0126
2820.00,0.0122
2819.00,0.0118
2818.00,0.0115
2817.00,0.0112
2816.00,0.0110
2815.00,0.0108
2814.00,0.0106
2813.00,0.0104
2812.00,0.0103
2811.00,0.0101
2810.00,0.0100
2809.00,0.0099
2808.00,0.0098
2807.00,0.0097
2806.00,0.0096
2805.00,0.0095
2804.00,0.0094
2803.00,0.0093
2802.00,0.0092
2801.00,0.0091
2800.00,0.0090
2799.00,0.0090
2798.00,0.0089
2797.00,0.0089
2796.00,0.0088
2795.00,0.0087
2794.00,0.0087
2793.00,0.0086
2792.00,0.0086
2791.00,0.0085
2790.00,0.0085
2789.00,0.0084
2788.00,0.0084
2787.00,0.0084
2786.00,0.0083
2785.00,0.0083
2784.00,0.0083
2783.00,0.0082
2782.00,0.0082
2781.00,0.0082
2780.00,0.0082
2779.00,0.0081
2778.00,0.0081
2777.00,0.0080
2776.00,0.0080
2775.00,0.0080
2774.00,0.0080
2773.00,0.0079
2772.00,0.0079
2771.00,0.0079
2770.00,0.0079
2769.00,0.0079
2768.00,0.0079
2767.00,0.0079
2766.00,0.0079
2765.00,0.0079
2764.00,0.0079
2763.00,0.0079
2762.00,0.0079
2761.00,0.0079
2760.00,0.0079
2759.00,0.0078
2758.00,0.0078
2757.00,0.0078
2756.00,0.0078
2755.00,0.0078
2754.00,0.0078
2753.00,0.0078
2752.00,0.0078
2751.00,0.0078
2750.00,0.0078
2749.00,0.0078
2748.00,0.0078
2747.00,0.0078
2746.00,0.0078
2745.00,0.0078
2744.00,0.0078
2743.00,0.0079
2742.00,0.0079
2741.00,0.0079
2740.00,0.0079
2739.00,0.0079
2738.00,0.0080
2737.00,0.0080
2736.00,0.0080
2735.00,0.0080
2734.00,0.0081
2733.00,0.0081
2732.00,0.0082
2731.00,0.0082
2730.00,0.0082
2729.00,0.0082
2728.00,0.0082
2727.00,0.0082
2726.00,0.0082
2725.00,0.0082
2724.00,0.0081
2723.00,0.0081
2722.00,0.0081
2721.00,0.0081
2720.00,0.0080
2719.00,0.0080
2718.00,0.0079
2717.00,0.0079
2716.00,0.0078
2715.00,0.0078
2714.00,0.0078
2713.00,0.0077
2712.00,0.0077
2711.00,0.0077
2710.00,0.0077
2709.00,0.0076
2708.00,0.0076
2707.00,0.0076
2706.00,0.0076
2705.00,0.0076
2704.00,0.0076
2703.00,0.0076
2702.00,0.0076
2701.00,0.0076
2700.00,0.0075
2699.00,0.0075
2698.00,0.0075
2697.00,0.0075
2696.00,0.0075
2695.00,0.0075
2694.00,0.0075
2693.00,0.0075
2692.00,0.0075
2691.00,0.0075
2690.00,0.0075
2689.00,0.0075
2688.00,0.0075
2687.00,0.0075
2686.00,0.0075
2685.00,0.0075
2684.00,0.0075
2683.00,0.0075
2682.00,0.0075
2681.00,0.0075
2680.00,0.0075
2679.00,0.0075
2678.00,0.0075
2677.00,0.0075
2676.00,0.0075
2675.00,0.0075
2674.00,0.0075
2673.00,0.0075
2672.00,0.0075
2671.00,0.0075
2670.00,0.0075
2669.00,0.0075
2668.00,0.0075
2667.00,0.0075
2666.00,0.0075
2665.00,0.0076
2664.00,0.0076
2663.00,0.0077
2662.00,0.0077
2661.00,0.0077
2660.00,0.0077
2659.00,0.0077
2658.00,0.0077
2657.00,0.0077
2656.00,0.0077
2655.00,0.0077
2654.00,0.0077
2653.00,0.0076
2652.00,0.0076
2651.00,0.0076
2650.00,0.0076
2649.00,0.0076
2648.00,0.0076
2647.00,0.0076
2646.00,0.0076
2645.00,0.0075
2644.00,0.0075
2643.00,0.0075
2642.00,0.0075
2641.00,0.0075
2640.00,0.0075
2639.00,0.0075
2638.00,0.0075
2637.00,0.0074
2636.00,0.0074
2635.00,0.0074
2634.00,0.0074
2633.00,0.0074
2632.00,0.0074
2631.00,0.0074
2630.00,0.0074
2629.00,0.0074
2628.00,0.0073
2627.00,0.0073
2626.00,0.0073
2625.00,0.0073
2624.00,0.0073
2623.00,0.0073
2622.00,0.0072
2621.00,0.0072
2620.00,0.0072
2619.00,0.0072
2618.00,0.0072
2617.00,0.0072
2616.00,0.0072
2615.00,0.0071
2614.00,0.0071
2613.00,0.0070
2612.00,0.0070
2611.00,0.0070
2610.00,0.0070
2609.00,0.0069
2608.00,0.0069
2607.00,0.0069
2606.00,0.0068
2605.00,0.0068
2604.00,0.0068
2603.00,0.0068
2602.00,0.0068
2601.00,0.0068
2600.00,0.0068
2599.00,0.0067
2598.00,0.0067
2597.00,0.0067
2596.00,0.0067
2595.00,0.0067
2594.00,0.0067
2593.00,0.0067
2592.00,0.0067
2591.00,0.0066
2590.00,0.0066
2589.00,0.0066
2588.00,0.0066
2587.00,0.0066
2586.00,0.0066
2585.00,0.0066
2584.00,0.0066
2583.00,0.0066
2582.00,0.0066
2581.00,0.0066
2580.00,0.0066
2579.00,0.0065
2578.00,0.0065
2577.00,0.0065
2576.00,0.0064
2575.00,0.0064
2574.00,0.0064
2573.00,0.0064
2572.00,0.0064
2571.00,0.0064
2570.00,0.0064
2569.00,0.0064
2568.00,0.0064
2567.00,0.0063
2566.00,0.0063
2565.00,0.0062
2564.00,0.0062
2563.00,0.0062
2562.00,0.0062
2561.00,0.0062
2560.00,0.0062
2559.00,0.0062
2558.00,0.0062
2557.00,0.0062
2556.00,0.0062
2555.00,0.0062
2554.00,0.0062
2553.00,0.0062
2552.00,0.0062
2551.00,0.0061
2550.00,0.0061
2549.00,0.0061
2548.00,0.0061
2547.00,0.0061
2546.00,0.0061
2545.00,0.0060
2544.00,0.0060
2543.00,0.0060
2542.00,0.0060
2541.00,0.0059
2540.00,0.0059
2539.00,0.0059
2538.00,0.0059
2537.00,0.0059
2536.00,0.0058
2535.00,0.0058
2534.00,0.0058
2533.00,0.0058
2532.00,0.0058
2531.00,0.0058
2530.00,0.0058
2529.00,0.0058
2528.00,0.0058
2527.00,0.0058
2526.00,0.0058
2525.00,0.0058
2524.00,0.0058
2523.00,0.0057
2522.00,0.0057
2521.00,0.0056
2520.00,0.0056
2519.00,0.0056
2518.00,0.0057
2517.00,0.0057
2516.00,0.0057
2515.00,0.0057
2514.00,0.0056
2513.00,0.0056
2512.00,0.0055
2511.00,0.0055
2510.00,0.0055
2509.00,0.0055
2508.00,0.0055
2507.00,0.0055
2506.00,0.0055
2505.00,0.0055
2504.00,0.0055
2503.00,0.0055
2502.00,0.0055
2501.00,0.0055
2500.00,0.0055
2499.00,0.0055
2498.00,0.0054
2497.00,0.0054
2496.00,0.0054
2495.00,0.0054
2494.00,0.0054
2493.00,0.0054
2492.00,0.0054
2491.00,0.0054
2490.00,0.0054
2489.00,0.0054
2488.00,0.0054
2487.00,0.0054
2486.00,0.0053
2485.00,0.0053
2484.00,0.0053
2483.00,0.0053
2482.00,0.0054
2481.00,0.0054
2480.00,0.0054
2479.00,0.0054
2478.00,0.0053
2477.00,0.0053
2476.00,0.0053
2475.00,0.0053
2474.00,0.0053
2473.00,0.0052
2472.00,0.0052
2471.00,0.0052
2470.00,0.0052
2469.00,0.0052
2468.00,0.0052
2467.00,0.0052
2466.00,0.0052
2465.00,0.0052
2464.00,0.0052
2463.00,0.0052
2462.00,0.0052
2461.00,0.0052
2460.00,0.0052
2459.00,0.0053
2458.00,0.0053
2457.00,0.0053
2456.00,0.0053
2455.00,0.0053
2454.00,0.0053
2453.00,0.0053
2452.00,0.0052
2451.00,0.0052
2450.00,0.0052
2449.00,0.0052
2448.00,0.0051
2447.00,0.0051
2446.00,0.0051
2445.00,0.0050
2444.00,0.0050
2443.00,0.0050
2442.00,0.0050
2441.00,0.0050
2440.00,0.0050
2439.00,0.0050
2438.00,0.0049
2437.00,0.0049
2436.00,0.0049
2435.00,0.0049
2434.00,0.0049
2433.00,0.0048
2432.00,0.0048
2431.00,0.0048
2430.00,0.0048
2429.00,0.0048
2428.00,0.0048
2427.00,0.0047
2426.00,0.0047
2425.00,0.0047
2424.00,0.0047
2423.00,0.0047
2422.00,0.0047
2421.00,0.0047
2420.00,0.0047
2419.00,0.0047
2418.00,0.0047
2417.00,0.0047
2416.00,0.0047
2415.00,0.0047
2414.00,0.0047
2413.00,0.0047
2412.00,0.0047
2411.00,0.0047
2410.00,0.0046
2409.00,0.0046
2408.00,0.0046
2407.00,0.0045
2406.00,0.0044
2405.00,0.0044
2404.00,0.0044
2403.00,0.0044
2402.00,0.0045
2401.00,0.0045
2400.00,0.0045
2399.00,0.0044
2398.00,0.0044
2397.00,0.0044
2396.00,0.0044
2395.00,0.0044
2394.00,0.0044
2393.00,0.0044
2392.00,0.0044
2391.00,0.0044
2390.00,0.0044
2389.00,0.0044
2388.00,0.0044
2387.00,0.0043
2386.00,0.0043
2385.00,0.0043
2384.00,0.0042
2383.00,0.0041
2382.00,0.0040
2381.00,0.0039
2380.00,0.0039
2379.00,0.0039
2378.00,0.0040
2377.00,0.0041
2376.00,0.0042
2375.00,0.0043
2374.00,0.0043
2373.00,0.0043
2372.00,0.0043
2371.00,0.0042
2370.00,0.0041
2369.00,0.0041
2368.00,0.0041
2367.00,0.0041
2366.00,0.0042
2365.00,0.0043
2364.00,0.0045
2363.00,0.0045
2362.00,0.0046
2361.00,0.0047
2360.00,0.0046
2359.00,0.0046
2358.00,0.0046
2357.00,0.0046
2356.00,0.0046
2355.00,0.0046
2354.00,0.0047
2353.00,0.0046
2352.00,0.0044
2351.00,0.0042
2350.00,0.0042
2349.00,0.0044
2348.00,0.0047
2347.00,0.0050
2346.00,0.0050
2345.00,0.0049
2344.00,0.0048
2343.00,0.0049
2342.00,0.0049
2341.00,0.0049
2340.00,0.0049
2339.00,0.0050
2338.00,0.0050
2337.00,0.0049
2336.00,0.0049
2335.00,0.0049
2334.00,0.0048
2333.00,0.0047
2332.00,0.0047
2331.00,0.0046
2330.00,0.0047
2329.00,0.0050
2328.00,0.0054
2327.00,0.0059
2326.00,0.0062
2325.00,0.0063
2324.00,0.0061
2323.00,0.0058
2322.00,0.0056
2321.00,0.0055
2320.00,0.0055
2319.00,0.0055
2318.00,0.0055
2317.00,0.0055
2316.00,0.0054
2315.00,0.0054
2314.00,0.0053
2313.00,0.0052
2312.00,0.0051
2311.00,0.0050
2310.00,0.0049
2309.00,0.0048
2308.00,0.0048
2307.00,0.0048
2306.00,0.0048
2305.00,0.0048
2304.00,0.0048
2303.00,0.0048
2302.00,0.0049
2301.00,0.0049
2300.00,0.0049
2299.00,0.0050
2298.00,0.0050
2297.00,0.0050
2296.00,0.0051
2295.00,0.0051
2294.00,0.0052
2293.00,0.0053
2292.00,0.0055
2291.00,0.0056
2290.00,0.0057
2289.00,0.0057
2288.00,0.0058
2287.00,0.0057
2286.00,0.0057
2285.00,0.0056
2284.00,0.0055
2283.00,0.0054
2282.00,0.0053
2281.00,0.0053
2280.00,0.0052
2279.00,0.0052
2278.00,0.0051
2277.00,0.0051
2276.00,0.0051
2275.00,0.0051
2274.00,0.0051
2273.00,0.0051
2272.00,0.0051
2271.00,0.0051
2270.00,0.0050
2269.00,0.0049
2268.00,0.0048
2267.00,0.0047
2266.00,0.0046
2265.00,0.0046
2264.00,0.0046
2263.00,0.0047
2262.00,0.0048
2261.00,0.0049
2260.00,0.0050
2259.00,0.0050
2258.00,0.0049
2257.00,0.0048
2256.00,0.0047
2255.00,0.0046
2254.00,0.0045
2253.00,0.0045
2252.00,0.0045
2251.00,0.0046
2250.00,0.0046
2249.00,0.0046
2248.00,0.0046
2247.00,0.0047
2246.00,0.0047
2245.00,0.0047
2244.00,0.0047
2243.00,0.0047
2242.00,0.0047
2241.00,0.0046
2240.00,0.0046
2239.00,0.0047
2238.00,0.0046
2237.00,0.0046
2236.00,0.0046
2235.00,0.0046
2234.00,0.0046
2233.00,0.0046
2232.00,0.0046
2231.00,0.0046
2230.00,0.0046
2229.00,0.0046
2228.00,0.0046
2227.00,0.0047
2226.00,0.0047
2225.00,0.0046
2224.00,0.0046
2223.00,0.0046
2222.00,0.0045
2221.00,0.0045
2220.00,0.0045
2219.00,0.0045
2218.00,0.0044
2217.00,0.0043
2216.00,0.0043
2215.00,0.0043
2214.00,0.0044
2213.00,0.0044
2212.00,0.0045
2211.00,0.0045
2210.00,0.0045
2209.00,0.0044
2208.00,0.0044
2207.00,0.0044
2206.00,0.0044
2205.00,0.0045
2204.00,0.0045
2203.00,0.0046
2202.00,0.0047
2201.00,0.0047
2200.00,0.0048
2199.00,0.0048
2198.00,0.0047
2197.00,0.0047
2196.00,0.0047
2195.00,0.0047
2194.00,0.0047
2193.00,0.0048
2192.00,0.0049
2191.00,0.0050
2190.00,0.0050
2189.00,0.0050
2188.00,0.0049
2187.00,0.0048
2186.00,0.0047
2185.00,0.0046
2184.00,0.0044
2183.00,0.0042
2182.00,0.0041
2181.00,0.0041
2180.00,0.0043
2179.00,0.0043
2178.00,0.0042
2177.00,0.0040
2176.00,0.0039
2175.00,0.0039
2174.00,0.0040
2173.00,0.0043
2172.00,0.0046
2171.00,0.0049
2170.00,0.0052
2169.00,0.0054
2168.00,0.0055
2167.00,0.0055
2166.00,0.0056
2165.00,0.0058
2164.00,0.0061
2163.00,0.0061
2162.00,0.0054
2161.00,0.0041
2160.00,0.0025
2159.00,0.0012
2158.00,0.0006
2157.00,0.0007
2156.00,0.0010
2155.00,0.0014
2154.00,0.0016
2153.00,0.0018
2152.00,0.0021
2151.00,0.0022
2150.00,0.0023
2149.00,0.0023
2148.00,0.0023
2147.00,0.0023
2146.00,0.0023
2145.00,0.0023
2144.00,0.0024
2143.00,0.0024
2142.00,0.0024
2141.00,0.0024
2140.00,0.0023
2139.00,0.0023
2138.00,0.0021
2137.00,0.0019
2136.00,0.0017
2135.00,0.0015
2134.00,0.0016
2133.00,0.0017
2132.00,0.0020
2131.00,0.0023
2130.00,0.0025
2129.00,0.0027
2128.00,0.0029
2127.00,0.0030
2126.00,0.0031
2125.00,0.0032
2124.00,0.0033
2123.00,0.0033
2122.00,0.0033
2121.00,0.0034
2120.00,0.0035
2119.00,0.0036
2118.00,0.0037
2117.00,0.0039
2116.00,0.0040
2115.00,0.0041
2114.00,0.0040
2113.00,0.0040
2112.00,0.0039
2111.00,0.0038
2110.00,0.0038
2109.00,0.0037
2108.00,0.0037
2107.00,0.0037
2106.00,0.0037
2105.00,0.0038
2104.00,0.0039
2103.00,0.0039
2102.00,0.0039
2101.00,0.0039
2100.00,0.0040
2099.00,0.0039
2098.00,0.0038
2097.00,0.0036
2096.00,0.0035
2095.00,0.0034
2094.00,0.0034
2093.00,0.0035
2092.00,0.0036
2091.00,0.0037
2090.00,0.0038
2089.00,0.0038
2088.00,0.0039
2087.00,0.0040
2086.00,0.0041
2085.00,0.0041
2084.00,0.0042
2083.00,0.0043
2082.00,0.0043
2081.00,0.0043
2080.00,0.0042
2079.00,0.0042
2078.00,0.0041
2077.00,0.0041
2076.00,0.0041
2075.00,0.0041
2074.00,0.0041
2073.00,0.0040
2072.00,0.0038
2071.00,0.0037
2070.00,0.0037
2069.00,0.0037
2068.00,0.0038
2067.00,0.0038
2066.00,0.0037
2065.00,0.0037
2064.00,0.0036
2063.00,0.0036
2062.00,0.0035
2061.00,0.0035
2060.00,0.0035
2059.00,0.0036
2058.00,0.0037
2057.00,0.0037
2056.00,0.0036
2055.00,0.0037
2054.00,0.0039
2053.00,0.0044
2052.00,0.0049
2051.00,0.0050
2050.00,0.0047
2049.00,0.0043
2048.00,0.0039
2047.00,0.0036
2046.00,0.0035
2045.00,0.0034
2044.00,0.0035
2043.00,0.0036
2042.00,0.0037
2041.00,0.0038
2040.00,0.0039
2039.00,0.0039
2038.00,0.0039
2037.00,0.0039
2036.00,0.0038
2035.00,0.0036
2034.00,0.0033
2033.00,0.0030
2032.00,0.0030
2031.00,0.0029
2030.00,0.0028
2029.00,0.0028
2028.00,0.0028
2027.00,0.0029
2026.00,0.0029
2025.00,0.0028
2024.00,0.0029
2023.00,0.0029
2022.00,0.0029
2021.00,0.0030
2020.00,0.0031
2019.00,0.0032
2018.00,0.0032
2017.00,0.0031
2016.00,0.0031
2015.00,0.0032
2014.00,0.0032
2013.00,0.0032
2012.00,0.0032
2011.00,0.0032
2010.00,0.0031
2009.00,0.0029
2008.00,0.0026
2007.00,0.0023
2006.00,0.0021
2005.00,0.0021
2004.00,0.0023
2003.00,0.0025
2002.00,0.0027
2001.00,0.0028
2000.00,0.0029
1999.00,0.0030
1998.00,0.0031
1997.00,0.0032
1996.00,0.0034
1995.00,0.0035
1994.00,0.0036
1993.00,0.0036
1992.00,0.0037
1991.00,0.0037
1990.00,0.0037
1989.00,0.0037
1988.00,0.0039
1987.00,0.0040
1986.00,0.0041
1985.00,0.0042
1984.00,0.0045
1983.00,0.0049
1982.00,0.0051
1981.00,0.0051
1980.00,0.0048
1979.00,0.0042
1978.00,0.0035
1977.00,0.0030
1976.00,0.0027
1975.00,0.0025
1974.00,0.0024
1973.00,0.0024
1972.00,0.0026
1971.00,0.0026
1970.00,0.0026
1969.00,0.0026
1968.00,0.0026
1967.00,0.0025
1966.00,0.0025
1965.00,0.0026
1964.00,0.0027
1963.00,0.0027
1962.00,0.0026
1961.00,0.0024
1960.00,0.0024
1959.00,0.0024
1958.00,0.0024
1957.00,0.0025
1956.00,0.0027
1955.00,0.0027
1954.00,0.0027
1953.00,0.0027
1952.00,0.0028
1951.00,0.0028
1950.00,0.0028
1949.00,0.0028
1948.00,0.0029
1947.00,0.0029
1946.00,0.0029
1945.00,0.0029
1944.00,0.0029
1943.00,0.0029
1942.00,0.0028
1941.00,0.0028
1940.00,0.0028
1939.00,0.0028
1938.00,0.0028
1937.00,0.0029
1936.00,0.0030
1935.00,0.0030
1934.00,0.0030
1933.00,0.0029
1932.00,0.0029
1931.00,0.0028
1930.00,0.0028
1929.00,0.0028
1928.00,0.0028
1927.00,0.0028
1926.00,0.0028
1925.00,0.0029
1924.00,0.0030
1923.00,0.0031
1922.00,0.0032
1921.00,0.0032
1920.00,0.0032
1919.00,0.0032
1918.00,0.0031
1917.00,0.0031
1916.00,0.0031
1915.00,0.0032
1914.00,0.0032
1913.00,0.0032
1912.00,0.0033
1911.00,0.0033
1910.00,0.0033
1909.00,0.0033
1908.00,0.0033
1907.00,0.0034
1906.00,0.0034
1905.00,0.0034
1904.00,0.0034
1903.00,0.0033
1902.00,0.0033
1901.00,0.0034
1900.00,0.0034
1899.00,0.0034
1898.00,0.0034
1897.00,0.0034
1896.00,0.0034
1895.00,0.0034
1894.00,0.0034
1893.00,0.0034
1892.00,0.0034
1891.00,0.0034
1890.00,0.0034
1889.00,0.0034
1888.00,0.0034
1887.00,0.0034
1886.00,0.0034
1885.00,0.0034
1884.00,0.0034
1883.00,0.0034
1882.00,0.0034
1881.00,0.0034
1880.00,0.0034
1879.00,0.0034
1878.00,0.0034
1877.00,0.0034
1876.00,0.0035
1875.00,0.0035
1874.00,0.0035
1873.00,0.0036
1872.00,0.0036
1871.00,0.0036
1870.00,0.0036
1869.00,0.0036
1868.00,0.0036
1867.00,0.0036
1866.00,0.0035
1865.00,0.0035
1864.00,0.0035
1863.00,0.0036
1862.00,0.0036
1861.00,0.0036
1860.00,0.0036
1859.00,0.0036
1858.00,0.0036
1857.00,0.0035
1856.00,0.0035
1855.00,0.0035
1854.00,0.0035
1853.00,0.0035
1852.00,0.0035
1851.00,0.0035
1850.00,0.0035
1849.00,0.0035
1848.00,0.0036
1847.00,0.0036
1846.00,0.0036
1845.00,0.0036
1844.00,0.0036
1843.00,0.0036
1842.00,0.0036
1841.00,0.0036
1840.00,0.0036
1839.00,0.0036
1838.00,0.0036
1837.00,0.0036
1836.00,0.0036
1835.00,0.0037
1834.00,0.0037
1833.00,0.0037
1832.00,0.0037
1831.00,0.0038
1830.00,0.0038
1829.00,0.0038
1828.00,0.0038
1827.00,0.0038
1826.00,0.0038
1825.00,0.0038
1824.00,0.0038
1823.00,0.0038
1822.00,0.0038
1821.00,0.0037
1820.00,0.0036
1819.00,0.0035
1818.00,0.0034
1817.00,0.0033
1816.00,0.0034
1815.00,0.0035
1814.00,0.0036
1813.00,0.0036
1812.00,0.0037
1811.00,0.0038
1810.00,0.0038
1809.00,0.0038
1808.00,0.0038
1807.00,0.0038
1806.00,0.0038
1805.00,0.0038
1804.00,0.0039
1803.00,0.0039
1802.00,0.0039
1801.00,0.0040
1800.00,0.0040
1799.00,0.0040
1798.00,0.0040
1797.00,0.0040
1796.00,0.0041
1795.00,0.0041
1794.00,0.0041
1793.00,0.0041
1792.00,0.0041
1791.00,0.0041
1790.00,0.0041
1789.00,0.0041
1788.00,0.0041
1787.00,0.0042
1786.00,0.0042
1785.00,0.0042
1784.00,0.0042
1783.00,0.0042
1782.00,0.0042
1781.00,0.0042
1780.00,0.0042
1779.00,0.0042
1778.00,0.0042
1777.00,0.0041
1776.00,0.0042
1775.00,0.0042
1774.00,0.0042
1773.00,0.0042
1772.00,0.0042
1771.00,0.0042
1770.00,0.0042
1769.00,0.0042
1768.00,0.0042
1767.00,0.0042
1766.00,0.0042
1765.00,0.0042
1764.00,0.0043
1763.00,0.0043
1762.00,0.0042
1761.00,0.0042
1760.00,0.0042
1759.00,0.0043
1758.00,0.0042
1757.00,0.0042
1756.00,0.0043
1755.00,0.0043
1754.00,0.0043
1753.00,0.0043
1752.00,0.0043
1751.00,0.0043
1750.00,0.0043
1749.00,0.0043
1748.00,0.0043
1747.00,0.0044
1746.00,0.0044
1745.00,0.0044
1744.00,0.0045
1743.00,0.0045
1742.00,0.0044
1741.00,0.0044
1740.00,0.0045
1739.00,0.0045
1738.00,0.0046
1737.00,0.0046
1736.00,0.0047
1735.00,0.0047
1734.00,0.0048
1733.00,0.0048
1732.00,0.0049
1731.00,0.0049
1730.00,0.0049
1729.00,0.0049
1728.00,0.0050
1727.00,0.0051
1726.00,0.0051
1725.00,0.0051
1724.00,0.0052
1723.00,0.0053
1722.00,0.0054
1721.00,0.0055
1720.00,0.0056
1719.00,0.0058
1718.00,0.0060
1717.00,0.0061
1716.00,0.0062
1715.00,0.0063
1714.00,0.0064
1713.00,0.0065
1712.00,0.0066
1711.00,0.0069
1710.00,0.0071
1709.00,0.0073
1708.00,0.0077
1707.00,0.0081
1706.00,0.0085
1705.00,0.0090
1704.00,0.0095
1703.00,0.0100
1702.00,0.0105
1701.00,0.0114
1700.00,0.0128
1699.00,0.0142
1698.00,0.0152
1697.00,0.0165
1696.00,0.0183
1695.00,0.0203
1694.00,0.0221
1693.00,0.0236
1692.00,0.0252
1691.00,0.0270
1690.00,0.0289
1689.00,0.0308
1688.00,0.0325
1687.00,0.0339
1686.00,0.0352
1685.00,0.0367
1684.00,0.0385
1683.00,0.0400
1682.00,0.0411
1681.00,0.0420
1680.00,0.0430
1679.00,0.0440
1678.00,0.0450
1677.00,0.0463
1676.00,0.0480
1675.00,0.0503
1674.00,0.0527
1673.00,0.0549
1672.00,0.0573
1671.00,0.0600
1670.00,0.0633
1669.00,0.0669
1668.00,0.0703
1667.00,0.0731
1666.00,0.0754
1665.00,0.0775
1664.00,0.0797
1663.00,0.0820
1662.00,0.0840
1661.00,0.0856
1660.00,0.0867
1659.00,0.0875
1658.00,0.0879
1657.00,0.0880
1656.00,0.0880
1655.00,0.0874
1654.00,0.0860
1653.00,0.0839
1652.00,0.0822
1651.00,0.0811
1650.00,0.0799
1649.00,0.0783
1648.00,0.0762
1647.00,0.0735
1646.00,0.0708
1645.00,0.0684
1644.00,0.0663
1643.00,0.0641
1642.00,0.0616
1641.00,0.0589
1640.00,0.0563
1639.00,0.0540
1638.00,0.0519
1637.00,0.0499
1636.00,0.0482
1635.00,0.0473
1634.00,0.0470
1633.00,0.0473
1632.00,0.0480
1631.00,0.0488
1630.00,0.0498
1629.00,0.0508
1628.00,0.0517
1627.00,0.0524
1626.00,0.0526
1625.00,0.0523
1624.00,0.0515
1623.00,0.0504
1622.00,0.0490
1621.00,0.0477
1620.00,0.0464
1619.00,0.0450
1618.00,0.0431
1617.00,0.0408
1616.00,0.0384
1615.00,0.0363
1614.00,0.0345
1613.00,0.0327
1612.00,0.0309
1611.00,0.0292
1610.00,0.0276
1609.00,0.0262
1608.00,0.0251
1607.00,0.0242
1606.00,0.0235
1605.00,0.0232
1604.00,0.0230
1603.00,0.0232
1602.00,0.0236
1601.00,0.0243
1600.00,0.0252
1599.00,0.0264
1598.00,0.0278
1597.00,0.0293
1596.00,0.0310
1595.00,0.0328
1594.00,0.0347
1593.00,0.0365
1592.00,0.0384
1591.00,0.0404
1590.00,0.0424
1589.00,0.0442
1588.00,0.0460
1587.00,0.0474
1586.00,0.0484
1585.00,0.0488
1584.00,0.0486
1583.00,0.0479
1582.00,0.0465
1581.00,0.0447
1580.00,0.0428
1579.00,0.0408
1578.00,0.0387
1577.00,0.0362
1576.00,0.0335
1575.00,0.0313
1574.00,0.0296
1573.00,0.0282
1572.00,0.0269
1571.00,0.0255
1570.00,0.0239
1569.00,0.0225
1568.00,0.0213
1567.00,0.0203
1566.00,0.0194
1565.00,0.0185
1564.00,0.0178
1563.00,0.0172
1562.00,0.0168
1561.00,0.0163
1560.00,0.0158
1559.00,0.0153
1558.00,0.0148
1557.00,0.0145
1556.00,0.0143
1555.00,0.0140
1554.00,0.0138
1553.00,0.0136
1552.00,0.0134
1551.00,0.0133
1550.00,0.0132
1549.00,0.0130
1548.00,0.0129
1547.00,0.0128
1546.00,0.0128
1545.00,0.0129
1544.00,0.0129
1543.00,0.0129
1542.00,0.0129
1541.00,0.0130
1540.00,0.0131
1539.00,0.0131
1538.00,0.0131
1537.00,0.0132
1536.00,0.0132
1535.00,0.0133
1534.00,0.0134
1533.00,0.0136
1532.00,0.0138
1531.00,0.0140
1530.00,0.0142
1529.00,0.0144
1528.00,0.0147
1527.00,0.0150
1526.00,0.0154
1525.00,0.0158
1524.00,0.0162
1523.00,0.0165
1522.00,0.0169
1521.00,0.0173
1520.00,0.0175
1519.00,0.0176
1518.00,0.0176
1517.00,0.0176
1516.00,0.0174
1515.00,0.0172
1514.00,0.0169
1513.00,0.0166
1512.00,0.0163
1511.00,0.0161
1510.00,0.0159
1509.00,0.0158
1508.00,0.0157
1507.00,0.0155
1506.00,0.0154
1505.00,0.0155
1504.00,0.0158
1503.00,0.0161
1502.00,0.0165
1501.00,0.0171
1500.00,0.0179
1499.00,0.0187
1498.00,0.0195
1497.00,0.0202
1496.00,0.0208
1495.00,0.0211
1494.00,0.0211
1493.00,0.0210
1492.00,0.0205
1491.00,0.0198
1490.00,0.0188
1489.00,0.0178
1488.00,0.0168
1487.00,0.0158
1486.00,0.0150
1485.00,0.0143
1484.00,0.0138
1483.00,0.0135
1482.00,0.0132
1481.00,0.0131
1480.00,0.0131
1479.00,0.0132
1478.00,0.0134
1477.00,0.0138
1476.00,0.0143
1475.00,0.0150
1474.00,0.0160
1473.00,0.0176
1472.00,0.0198
1471.00,0.0222
1470.00,0.0246
1469.00,0.0270
1468.00,0.0294
1467.00,0.0319
1466.00,0.0344
1465.00,0.0369
1464.00,0.0392
1463.00,0.0408
1462.00,0.0419
1461.00,0.0426
1460.00,0.0431
1459.00,0.0433
1458.00,0.0434
1457.00,0.0437
1456.00,0.0443
1455.00,0.0451
1454.00,0.0460
1453.00,0.0473
1452.00,0.0491
1451.00,0.0511
1450.00,0.0535
1449.00,0.0562
1448.00,0.0592
1447.00,0.0622
1446.00,0.0649
1445.00,0.0674
1444.00,0.0695
1443.00,0.0714
1442.00,0.0729
1441.00,0.0741
1440.00,0.0749
1439.00,0.0753
1438.00,0.0752
1437.00,0.0750
1436.00,0.0746
1435.00,0.0743
1434.00,0.0741
1433.00,0.0742
1432.00,0.0744
1431.00,0.0748
1430.00,0.0753
1429.00,0.0757
1428.00,0.0757
1427.00,0.0753
1426.00,0.0744
1425.00,0.0731
1424.00,0.0714
1423.00,0.0694
1422.00,0.0672
1421.00,0.0646
1420.00,0.0610
1419.00,0.0564
1418.00,0.0516
1417.00,0.0474
1416.00,0.0438
1415.00,0.0404
1414.00,0.0374
1413.00,0.0348
1412.00,0.0325
1411.00,0.0305
1410.00,0.0290
1409.00,0.0277
1408.00,0.0267
1407.00,0.0259
1406.00,0.0253
1405.00,0.0247
1404.00,0.0242
1403.00,0.0239
1402.00,0.0236
1401.00,0.0234
1400.00,0.0232
1399.00,0.0231
1398.00,0.0231
1397.00,0.0231
1396.00,0.0231
1395.00,0.0231
1394.00,0.0232
1393.00,0.0234
1392.00,0.0236
1391.00,0.0238
1390.00,0.0241
1389.00,0.0245
1388.00,0.0250
1387.00,0.0257
1386.00,0.0264
1385.00,0.0273
1384.00,0.0283
1383.00,0.0296
1382.00,0.0312
1381.00,0.0330
1380.00,0.0350
1379.00,0.0369
1378.00,0.0386
1377.00,0.0399
1376.00,0.0406
1375.00,0.0407
1374.00,0.0402
1373.00,0.0394
1372.00,0.0383
1371.00,0.0373
1370.00,0.0363
1369.00,0.0354
1368.00,0.0346
1367.00,0.0338
1366.00,0.0331
1365.00,0.0325
1364.00,0.0318
1363.00,0.0311
1362.00,0.0304
1361.00,0.0299
1360.00,0.0295
1359.00,0.0292
1358.00,0.0290
1357.00,0.0289
1356.00,0.0289
1355.00,0.0290
1354.00,0.0291
1353.00,0.0292
1352.00,0.0293
1351.00,0.0293
1350.00,0.0294
1349.00,0.0294
1348.00,0.0294
1347.00,0.0294
1346.00,0.0294
1345.00,0.0294
1344.00,0.0294
1343.00,0.0294
1342.00,0.0294
1341.00,0.0295
1340.00,0.0295
1339.00,0.0296
1338.00,0.0298
1337.00,0.0299
1336.00,0.0301
1335.00,0.0303
1334.00,0.0304
1333.00,0.0305
1332.00,0.0305
1331.00,0.0306
1330.00,0.0306
1329.00,0.0307
1328.00,0.0309
1327.00,0.0312
1326.00,0.0318
1325.00,0.0324
1324.00,0.0333
1323.00,0.0342
1322.00,0.0352
1321.00,0.0361
1320.00,0.0370
1319.00,0.0378
1318.00,0.0385
1317.00,0.0389
1316.00,0.0391
1315.00,0.0391
1314.00,0.0388
1313.00,0.0385
1312.00,0.0380
1311.00,0.0376
1310.00,0.0372
1309.00,0.0368
1308.00,0.0365
1307.00,0.0363
1306.00,0.0361
1305.00,0.0360
1304.00,0.0361
1303.00,0.0363
1302.00,0.0369
1301.00,0.0378
1300.00,0.0392
1299.00,0.0410
1298.00,0.0435
1297.00,0.0464
1296.00,0.0497
1295.00,0.0532
1294.00,0.0566
1293.00,0.0597
1292.00,0.0622
1291.00,0.0639
1290.00,0.0648
1289.00,0.0650
1288.00,0.0645
1287.00,0.0636
1286.00,0.0623
1285.00,0.0609
1284.00,0.0593
1283.00,0.0578
1282.00,0.0565
1281.00,0.0554
1280.00,0.0546
1279.00,0.0541
1278.00,0.0539
1277.00,0.0538
1276.00,0.0538
1275.00,0.0537
1274.00,0.0534
1273.00,0.0529
1272.00,0.0520
1271.00,0.0507
1270.00,0.0492
1269.00,0.0475
1268.00,0.0457
1267.00,0.0439
1266.00,0.0421
1265.00,0.0404
1264.00,0.0390
1263.00,0.0378
1262.00,0.0369
1261.00,0.0364
1260.00,0.0361
1259.00,0.0362
1258.00,0.0366
1257.00,0.0372
1256.00,0.0381
1255.00,0.0391
1254.00,0.0403
1253.00,0.0414
1252.00,0.0426
1251.00,0.0437
1250.00,0.0447
1249.00,0.0456
1248.00,0.0466
1247.00,0.0475
1246.00,0.0484
1245.00,0.0493
1244.00,0.0501
1243.00,0.0507
1242.00,0.0510
1241.00,0.0511
1240.00,0.0509
1239.00,0.0504
1238.00,0.0497
1237.00,0.0488
1236.00,0.0479
1235.00,0.0470
1234.00,0.0461
1233.00,0.0454
1232.00,0.0447
1231.00,0.0443
1230.00,0.0442
1229.00,0.0442
1228.00,0.0444
1227.00,0.0447
1226.00,0.0450
1225.00,0.0452
1224.00,0.0452
1223.00,0.0452
1222.00,0.0450
1221.00,0.0448
1220.00,0.0446
1219.00,0.0443
1218.00,0.0439
1217.00,0.0436
1216.00,0.0431
1215.00,0.0426
1214.00,0.0421
1213.00,0.0415
1212.00,0.0408
1211.00,0.0402
1210.00,0.0397
1209.00,0.0394
1208.00,0.0393
1207.00,0.0394
1206.00,0.0398
1205.00,0.0402
1204.00,0.0406
1203.00,0.0409
1202.00,0.0410
1201.00,0.0406
1200.00,0.0399
1199.00,0.0388
1198.00,0.0375
1197.00,0.0361
1196.00,0.0347
1195.00,0.0335
1194.00,0.0324
1193.00,0.0314
1192.00,0.0306
1191.00,0.0300
1190.00,0.0294
1189.00,0.0289
1188.00,0.0284
1187.00,0.0280
1186.00,0.0277
1185.00,0.0274
1184.00,0.0273
1183.00,0.0272
1182.00,0.0274
1181.00,0.0277
1180.00,0.0283
1179.00,0.0291
1178.00,0.0302
1177.00,0.0313
1176.00,0.0325
1175.00,0.0336
1174.00,0.0344
1173.00,0.0348
1172.00,0.0348
1171.00,0.0343
1170.00,0.0335
1169.00,0.0324
1168.00,0.0312
1167.00,0.0298
1166.00,0.0285
1165.00,0.0272
1164.00,0.0261
1163.00,0.0252
1162.00,0.0245
1161.00,0.0241
1160.00,0.0239
1159.00,0.0242
1158.00,0.0249
1157.00,0.0259
1156.00,0.0272
1155.00,0.0288
1154.00,0.0303
1153.00,0.0318
1152.00,0.0330
1151.00,0.0337
1150.00,0.0339
1149.00,0.0333
1148.00,0.0319
1147.00,0.0299
1146.00,0.0275
1145.00,0.0251
1144.00,0.0230
1143.00,0.0213
1142.00,0.0200
1141.00,0.0191
1140.00,0.0184
1139.00,0.0180
1138.00,0.0178
1137.00,0.0177
1136.00,0.0177
1135.00,0.0176
1134.00,0.0174
1133.00,0.0172
1132.00,0.0168
1131.00,0.0165
1130.00,0.0161
1129.00,0.0157
1128.00,0.0154
1127.00,0.0151
1126.00,0.0148
1125.00,0.0146
1124.00,0.0144
1123.00,0.0143
1122.00,0.0143
1121.00,0.0143
1120.00,0.0143
1119.00,0.0144
1118.00,0.0145
1117.00,0.0147
1116.00,0.0149
1115.00,0.0151
1114.00,0.0153
1113.00,0.0156
1112.00,0.0158
1111.00,0.0159
1110.00,0.0160
1109.00,0.0161
1108.00,0.0161
1107.00,0.0161
1106.00,0.0162
1105.00,0.0163
1104.00,0.0165
1103.00,0.0167
1102.00,0.0169
1101.00,0.0172
1100.00,0.0174
1099.00,0.0177
1098.00,0.0179
1097.00,0.0181
1096.00,0.0181
1095.00,0.0179
1094.00,0.0176
1093.00,0.0172
1092.00,0.0166
1091.00,0.0160
1090.00,0.0156
1089.00,0.0152
1088.00,0.0149
1087.00,0.0148
1086.00,0.0148
1085.00,0.0149
1084.00,0.0150
1083.00,0.0153
1082.00,0.0156
1081.00,0.0159
1080.00,0.0162
1079.00,0.0164
1078.00,0.0165
1077.00,0.0166
1076.00,0.0165
1075.00,0.0163
1074.00,0.0161
1073.00,0.0157
1072.00,0.0153
1071.00,0.0150
1070.00,0.0149
1069.00,0.0148
1068.00,0.0148
1067.00,0.0148
1066.00,0.0150
1065.00,0.0154
1064.00,0.0159
1063.00,0.0168
1062.00,0.0180
1061.00,0.0197
1060.00,0.0220
1059.00,0.0248
1058.00,0.0280
1057.00,0.0315
1056.00,0.0348
1055.00,0.0376
1054.00,0.0393
1053.00,0.0397
1052.00,0.0387
1051.00,0.0364
1050.00,0.0335
1049.00,0.0305
1048.00,0.0278
1047.00,0.0257
1046.00,0.0243
1045.00,0.0235
1044.00,0.0233
1043.00,0.0236
1042.00,0.0244
1041.00,0.0255
1040.00,0.0271
1039.00,0.0291
1038.00,0.0316
1037.00,0.0347
1036.00,0.0382
1035.00,0.0420
1034.00,0.0460
1033.00,0.0498
1032.00,0.0534
1031.00,0.0564
1030.00,0.0588
1029.00,0.0602
1028.00,0.0607
1027.00,0.0601
1026.00,0.0586
1025.00,0.0564
1024.00,0.0538
1023.00,0.0511
1022.00,0.0487
1021.00,0.0466
1020.00,0.0449
1019.00,0.0435
1018.00,0.0420
1017.00,0.0405
1016.00,0.0388
1015.00,0.0370
1014.00,0.0352
1013.00,0.0337
1012.00,0.0324
1011.00,0.0313
1010.00,0.0305
1009.00,0.0299
1008.00,0.0293
1007.00,0.0288
1006.00,0.0283
1005.00,0.0278
1004.00,0.0273
1003.00,0.0268
1002.00,0.0263
1001.00,0.0259
1000.00,0.0254
999.00,0.0251
998.00,0.0246
997.00,0.0242
996.00,0.0237
995.00,0.0232
994.00,0.0229
993.00,0.0226
992.00,0.0225
991.00,0.0226
990.00,0.0228
989.00,0.0231
988.00,0.0232
987.00,0.0233
986.00,0.0232
985.00,0.0229
984.00,0.0224
983.00,0.0217
982.00,0.0210
981.00,0.0204
980.00,0.0197
979.00,0.0192
978.00,0.0188
977.00,0.0185
976.00,0.0182
975.00,0.0180
974.00,0.0177
973.00,0.0175
972.00,0.0173
971.00,0.0171
970.00,0.0171
969.00,0.0171
968.00,0.0173
967.00,0.0175
966.00,0.0178
965.00,0.0181
964.00,0.0184
963.00,0.0187
962.00,0.0188
961.00,0.0187
960.00,0.0184
959.00,0.0179
958.00,0.0172
957.00,0.0164
956.00,0.0155
955.00,0.0146
954.00,0.0137
953.00,0.0129
952.00,0.0122
951.00,0.0117
950.00,0.0113
949.00,0.0110
948.00,0.0108
947.00,0.0106
946.00,0.0105
945.00,0.0104
944.00,0.0104
943.00,0.0104
942.00,0.0104
941.00,0.0106
940.00,0.0107
939.00,0.0110
938.00,0.0114
937.00,0.0118
936.00,0.0122
935.00,0.0127
934.00,0.0131
933.00,0.0134
932.00,0.0136
931.00,0.0138
930.00,0.0138
929.00,0.0137
928.00,0.0137
927.00,0.0136
926.00,0.0135
925.00,0.0134
924.00,0.0134
923.00,0.0134
922.00,0.0135
921.00,0.0136
920.00,0.0138
919.00,0.0141
918.00,0.0144
917.00,0.0148
916.00,0.0151
915.00,0.0154
914.00,0.0158
913.00,0.0161
912.00,0.0165
911.00,0.0169
910.00,0.0175
909.00,0.0181
908.00,0.0190
907.00,0.0199
906.00,0.0211
905.00,0.0224
904.00,0.0237
903.00,0.0249
902.00,0.0261
901.00,0.0272
900.00,0.0281
899.00,0.0289
898.00,0.0296
897.00,0.0303
896.00,0.0312
895.00,0.0321
894.00,0.0331
893.00,0.0341
892.00,0.0352
891.00,0.0363
890.00,0.0374
889.00,0.0384
888.00,0.0392
887.00,0.0399
886.00,0.0403
885.00,0.0404
884.00,0.0402
883.00,0.0396
882.00,0.0388
881.00,0.0377
880.00,0.0364
879.00,0.0350
878.00,0.0336
877.00,0.0322
876.00,0.0309
875.00,0.0297
874.00,0.0287
873.00,0.0279
872.00,0.0272
871.00,0.0268
870.00,0.0267
869.00,0.0267
868.00,0.0270
867.00,0.0274
866.00,0.0279
865.00,0.0284
864.00,0.0289
863.00,0.0292
862.00,0.0295
861.00,0.0297
860.00,0.0298
859.00,0.0300
858.00,0.0303
857.00,0.0307
856.00,0.0312
855.00,0.0318
854.00,0.0323
853.00,0.0328
852.00,0.0333
851.00,0.0336
850.00,0.0339
849.00,0.0342
848.00,0.0344
847.00,0.0345
846.00,0.0347
845.00,0.0347
844.00,0.0348
843.00,0.0348
842.00,0.0348
841.00,0.0349
840.00,0.0350
839.00,0.0352
838.00,0.0356
837.00,0.0360
836.00,0.0365
835.00,0.0371
834.00,0.0376
833.00,0.0381
832.00,0.0386
831.00,0.0388
830.00,0.0390
829.00,0.0389
828.00,0.0385
827.00,0.0379
826.00,0.0371
825.00,0.0361
824.00,0.0349
823.00,0.0337
822.00,0.0324
821.00,0.0312
820.00,0.0301
819.00,0.0290
818.00,0.0281
817.00,0.0273
816.00,0.0266
815.00,0.0259
814.00,0.0255
813.00,0.0251
812.00,0.0249
811.00,0.0248
810.00,0.0248
809.00,0.0249
808.00,0.0252
807.00,0.0258
806.00,0.0264
805.00,0.0270
804.00,0.0272
803.00,0.0270
802.00,0.0264
801.00,0.0255
800.00,0.0247
799.00,0.0241
798.00,0.0237
797.00,0.0237
796.00,0.0237
795.00,0.0238
794.00,0.0239
793.00,0.0238
792.00,0.0236
791.00,0.0233
790.00,0.0230
789.00,0.0225
788.00,0.0221
787.00,0.0217
786.00,0.0214
785.00,0.0212
784.00,0.0210
783.00,0.0209
782.00,0.0209
781.00,0.0209
780.00,0.0209
779.00,0.0212
778.00,0.0215
777.00,0.0219
776.00,0.0223
775.00,0.0227
774.00,0.0231
773.00,0.0233
772.00,0.0234
771.00,0.0235
770.00,0.0236
769.00,0.0236
768.00,0.0235
767.00,0.0235
766.00,0.0235
765.00,0.0236
764.00,0.0236
763.00,0.0238
762.00,0.0242
761.00,0.0246
760.00,0.0252
759.00,0.0258
758.00,0.0265
757.00,0.0271
756.00,0.0277
755.00,0.0281
754.00,0.0285
753.00,0.0287
752.00,0.0288
751.00,0.0287
750.00,0.0284
749.00,0.0281
748.00,0.0277
747.00,0.0273
746.00,0.0270
745.00,0.0268
744.00,0.0267
743.00,0.0267
742.00,0.0269
741.00,0.0271
740.00,0.0275
739.00,0.0278
738.00,0.0282
737.00,0.0286
736.00,0.0290
735.00,0.0294
734.00,0.0297
733.00,0.0300
732.00,0.0300
731.00,0.0300
730.00,0.0298
729.00,0.0295
728.00,0.0290
727.00,0.0285
726.00,0.0280
725.00,0.0275
724.00,0.0269
723.00,0.0264
722.00,0.0259
721.00,0.0254
720.00,0.0250
719.00,0.0248
718.00,0.0246
717.00,0.0245
716.00,0.0244
715.00,0.0243
714.00,0.0242
713.00,0.0241
712.00,0.0240
711.00,0.0241
710.00,0.0241
709.00,0.0241
708.00,0.0241
707.00,0.0240
706.00,0.0240
705.00,0.0239
704.00,0.0239
703.00,0.0240
702.00,0.0240
701.00,0.0241
700.00,0.0242
699.00,0.0243
698.00,0.0244
697.00,0.0245
696.00,0.0246
695.00,0.0247
694.00,0.0249
693.00,0.0251
692.00,0.0252
691.00,0.0253
690.00,0.0255
689.00,0.0257
688.00,0.0261
687.00,0.0265
686.00,0.0269
685.00,0.0273
684.00,0.0277
683.00,0.0282
682.00,0.0287
681.00,0.0292
680.00,0.0297
679.00,0.0302
678.00,0.0306
677.00,0.0310
676.00,0.0313
675.00,0.0316
674.00,0.0318
673.00,0.0319
672.00,0.0320
671.00,0.0319
670.00,0.0319
669.00,0.0320
668.00,0.0323
667.00,0.0328
666.00,0.0331
665.00,0.0334
664.00,0.0337
663.00,0.0341
662.00,0.0344
661.00,0.0347
660.00,0.0349
659.00,0.0353
658.00,0.0357
657.00,0.0360
656.00,0.0365
655.00,0.0369
654.00,0.0373
653.00,0.0377
652.00,0.0380
651.00,0.0382
650.00,0.0383
649.00,0.0382
648.00,0.0382
647.00,0.0380
646.00,0.0376
645.00,0.0372
644.00,0.0366
643.00,0.0360
642.00,0.0354
641.00,0.0347
640.00,0.0339
639.00,0.0332
638.00,0.0324
637.00,0.0318
636.00,0.0312
635.00,0.0308
634.00,0.0303
633.00,0.0298
632.00,0.0294
631.00,0.0290
630.00,0.0286
629.00,0.0282
628.00,0.0279
627.00,0.0276
626.00,0.0273
625.00,0.0270
624.00,0.0268
623.00,0.0267
622.00,0.0266
621.00,0.0266
620.00,0.0266
619.00,0.0266
618.00,0.0267
617.00,0.0269
616.00,0.0272
615.00,0.0275
614.00,0.0278
613.00,0.0284
612.00,0.0292
611.00,0.0303
610.00,0.0310
609.00,0.0311
608.00,0.0307
607.00,0.0302
606.00,0.0299
605.00,0.0300
604.00,0.0302
603.00,0.0304
602.00,0.0306
601.00,0.0308
600.00,0.0311
599.00,0.0312
598.00,0.0314
597.00,0.0315
596.00,0.0316
595.00,0.0316
594.00,0.0317
593.00,0.0318
592.00,0.0318
591.00,0.0317
590.00,0.0317
589.00,0.0317
588.00,0.0320
587.00,0.0323
586.00,0.0328
585.00,0.0334
584.00,0.0341
583.00,0.0349
582.00,0.0357
581.00,0.0364
580.00,0.0369
579.00,0.0371
578.00,0.0370
577.00,0.0367
576.00,0.0363
575.00,0.0359
574.00,0.0356
573.00,0.0352
572.00,0.0347
571.00,0.0343
570.00,0.0338
569.00,0.0334
568.00,0.0329
567.00,0.0324
566.00,0.0322
565.00,0.0320
564.00,0.0318
563.00,0.0317
562.00,0.0316
561.00,0.0317
560.00,0.0320
559.00,0.0325
558.00,0.0332
557.00,0.0342
556.00,0.0353
555.00,0.0365
554.00,0.0375
553.00,0.0383
552.00,0.0388
551.00,0.0390
550.00,0.0388
549.00,0.0384
548.00,0.0379
547.00,0.0374
546.00,0.0369
545.00,0.0364
544.00,0.0359
543.00,0.0355
542.00,0.0353
541.00,0.0352
540.00,0.0354
539.00,0.0356
538.00,0.0359
537.00,0.0363
536.00,0.0369
535.00,0.0374
534.00,0.0379
533.00,0.0382
532.00,0.0382
531.00,0.0379
530.00,0.0377
529.00,0.0378
528.00,0.0382
527.00,0.0391
526.00,0.0400
525.00,0.0406
524.00,0.0408
523.00,0.0403
522.00,0.0394
521.00,0.0381
520.00,0.0367
519.00,0.0353
518.00,0.0342
517.00,0.0334
516.00,0.0328
515.00,0.0324
514.00,0.0321
513.00,0.0317
512.00,0.0314
511.00,0.0311
510.00,0.0310
509.00,0.0309
508.00,0.0309
507.00,0.0310
506.00,0.0311
505.00,0.0311
504.00,0.0312
503.00,0.0313
502.00,0.0315
501.00,0.0318
500.00,0.0320
499.00,0.0322
498.00,0.0324
497.00,0.0326
496.00,0.0329
495.00,0.0333
494.00,0.0337
493.00,0.0341
492.00,0.0344
491.00,0.0348
490.00,0.0351
489.00,0.0354
488.00,0.0356
487.00,0.0359
486.00,0.0363
485.00,0.0367
484.00,0.0369
483.00,0.0369
482.00,0.0368
481.00,0.0367
480.00,0.0367
479.00,0.0367
478.00,0.0368
477.00,0.0369
476.00,0.0370
475.00,0.0372
474.00,0.0373
473.00,0.0375
472.00,0.0377
471.00,0.0378
470.00,0.0379
469.00,0.0382
468.00,0.0385
467.00,0.0386
466.00,0.0384
465.00,0.0380
464.00,0.0375
463.00,0.0373
462.00,0.0372
461.00,0.0372
460.00,0.0371
459.00,0.0367
458.00,0.0362
457.00,0.0358
456.00,0.0357
455.00,0.0357
454.00,0.0356
453.00,0.0355
452.00,0.0353
451.00,0.0352
450.00,0.0350
449.00,0.0347
448.00,0.0344
447.00,0.0343
446.00,0.0343
445.00,0.0344
444.00,0.0345
443.00,0.0344
442.00,0.0342
441.00,0.0340
440.00,0.0339
439.00,0.0339
438.00,0.0340
437.00,0.0341
436.00,0.0342
435.00,0.0342
434.00,0.0341
433.00,0.0340
432.00,0.0339
431.00,0.0339
430.00,0.0338
429.00,0.0339
428.00,0.0339
427.00,0.0340
426.00,0.0340
425.00,0.0342
424.00,0.0346
423.00,0.0352
422.00,0.0357
421.00,0.0357
420.00,0.0353
419.00,0.0346
418.00,0.0341
417.00,0.0339
416.00,0.0338
415.00,0.0338
414.00,0.0340
413.00,0.0344
412.00,0.0344
411.00,0.0340
410.00,0.0334
409.00,0.0327
408.00,0.0322
407.00,0.0320
406.00,0.0321
405.00,0.0326
404.00,0.0332
403.00,0.0335
402.00,0.0332
401.00,0.0322
400.00,0.0308
