Created as New Dataset,Sample 784 By YargerLab Date Monday, July 07 2025
cm-1,A
4000.00,0.0033
3999.00,0.0033
3998.00,0.0033
3997.00,0.0033
3996.00,0.0033
3995.00,0.0033
3994.00,0.0033
3993.00,0.0033
3992.00,0.0033
3991.00,0.0033
3990.00,0.0033
3989.00,0.0033
3988.00,0.0033
3987.00,0.0033
3986.00,0.0033
3985.00,0.0033
3984.00,0.0032
3983.00,0.0032
3982.00,0.0032
3981.00,0.0032
3980.00,0.0032
3979.00,0.0033
3978.00,0.0033
3977.00,0.0032
3976.00,0.0032
3975.00,0.0032
3974.00,0.0033
3973.00,0.0033
3972.00,0.0033
3971.00,0.0033
3970.00,0.0033
3969.00,0.0033
3968.00,0.0033
3967.00,0.0033
3966.00,0.0033
3965.00,0.0033
3964.00,0.0033
3963.00,0.0033
3962.00,0.0033
3961.00,0.0033
3960.00,0.0033
3959.00,0.0033
3958.00,0.0033
3957.00,0.0033
3956.00,0.0033
3955.00,0.0033
3954.00,0.0032
3953.00,0.0032
3952.00,0.0032
3951.00,0.0032
3950.00,0.0032
3949.00,0.0032
3948.00,0.0032
3947.00,0.0033
3946.00,0.0033
3945.00,0.0033
3944.00,0.0033
3943.00,0.0033
3942.00,0.0033
3941.00,0.0033
3940.00,0.0033
3939.00,0.0033
3938.00,0.0033
3937.00,0.0033
3936.00,0.0033
3935.00,0.0033
3934.00,0.0033
3933.00,0.0033
3932.00,0.0032
3931.00,0.0032
3930.00,0.0032
3929.00,0.0032
3928.00,0.0033
3927.00,0.0032
3926.00,0.0032
3925.00,0.0032
3924.00,0.0032
3923.00,0.0032
3922.00,0.0032
3921.00,0.0032
3920.00,0.0032
3919.00,0.0032
3918.00,0.0032
3917.00,0.0031
3916.00,0.0031
3915.00,0.0032
3914.00,0.0032
3913.00,0.0032
3912.00,0.0032
3911.00,0.0032
3910.00,0.0033
3909.00,0.0033
3908.00,0.0033
3907.00,0.0034
3906.00,0.0034
3905.00,0.0034
3904.00,0.0033
3903.00,0.0033
3902.00,0.0033
3901.00,0.0032
3900.00,0.0032
3899.00,0.0031
3898.00,0.0030
3897.00,0.0030
3896.00,0.0031
3895.00,0.0031
3894.00,0.0032
3893.00,0.0033
3892.00,0.0033
3891.00,0.0033
3890.00,0.0033
3889.00,0.0034
3888.00,0.0034
3887.00,0.0033
3886.00,0.0033
3885.00,0.0033
3884.00,0.0033
3883.00,0.0033
3882.00,0.0032
3881.00,0.0031
3880.00,0.0031
3879.00,0.0031
3878.00,0.0032
3877.00,0.0032
3876.00,0.0032
3875.00,0.0033
3874.00,0.0033
3873.00,0.0034
3872.00,0.0034
3871.00,0.0033
3870.00,0.0033
3869.00,0.0033
3868.00,0.0033
3867.00,0.0033
3866.00,0.0033
3865.00,0.0033
3864.00,0.0033
3863.00,0.0033
3862.00,0.0033
3861.00,0.0033
3860.00,0.0033
3859.00,0.0033
3858.00,0.0034
3857.00,0.0035
3856.00,0.0036
3855.00,0.0036
3854.00,0.0035
3853.00,0.0035
3852.00,0.0035
3851.00,0.0035
3850.00,0.0034
3849.00,0.0033
3848.00,0.0032
3847.00,0.0031
3846.00,0.0031
3845.00,0.0032
3844.00,0.0032
3843.00,0.0033
3842.00,0.0034
3841.00,0.0034
3840.00,0.0034
3839.00,0.0034
3838.00,0.0034
3837.00,0.0033
3836.00,0.0033
3835.00,0.0033
3834.00,0.0033
3833.00,0.0033
3832.00,0.0032
3831.00,0.0032
3830.00,0.0033
3829.00,0.0032
3828.00,0.0032
3827.00,0.0032
3826.00,0.0033
3825.00,0.0033
3824.00,0.0034
3823.00,0.0034
3822.00,0.0033
3821.00,0.0033
3820.00,0.0033
3819.00,0.0033
3818.00,0.0033
3817.00,0.0033
3816.00,0.0033
3815.00,0.0033
3814.00,0.0034
3813.00,0.0034
3812.00,0.0033
3811.00,0.0033
3810.00,0.0034
3809.00,0.0034
3808.00,0.0033
3807.00,0.0033
3806.00,0.0033
3805.00,0.0034
3804.00,0.0034
3803.00,0.0033
3802.00,0.0033
3801.00,0.0033
3800.00,0.0034
3799.00,0.0034
3798.00,0.0034
3797.00,0.0033
3796.00,0.0032
3795.00,0.0032
3794.00,0.0032
3793.00,0.0032
3792.00,0.0032
3791.00,0.0032
3790.00,0.0032
3789.00,0.0032
3788.00,0.0033
3787.00,0.0033
3786.00,0.0032
3785.00,0.0032
3784.00,0.0032
3783.00,0.0032
3782.00,0.0032
3781.00,0.0032
3780.00,0.0032
3779.00,0.0033
3778.00,0.0033
3777.00,0.0033
3776.00,0.0033
3775.00,0.0033
3774.00,0.0033
3773.00,0.0033
3772.00,0.0033
3771.00,0.0033
3770.00,0.0033
3769.00,0.0033
3768.00,0.0033
3767.00,0.0034
3766.00,0.0034
3765.00,0.0034
3764.00,0.0034
3763.00,0.0034
3762.00,0.0033
3761.00,0.0033
3760.00,0.0032
3759.00,0.0032
3758.00,0.0032
3757.00,0.0033
3756.00,0.0034
3755.00,0.0035
3754.00,0.0037
3753.00,0.0037
3752.00,0.0038
3751.00,0.0037
3750.00,0.0037
3749.00,0.0037
3748.00,0.0037
3747.00,0.0037
3746.00,0.0037
3745.00,0.0036
3744.00,0.0035
3743.00,0.0035
3742.00,0.0035
3741.00,0.0034
3740.00,0.0033
3739.00,0.0033
3738.00,0.0033
3737.00,0.0034
3736.00,0.0034
3735.00,0.0033
3734.00,0.0032
3733.00,0.0032
3732.00,0.0031
3731.00,0.0031
3730.00,0.0031
3729.00,0.0031
3728.00,0.0031
3727.00,0.0030
3726.00,0.0030
3725.00,0.0030
3724.00,0.0030
3723.00,0.0031
3722.00,0.0031
3721.00,0.0031
3720.00,0.0031
3719.00,0.0031
3718.00,0.0031
3717.00,0.0031
3716.00,0.0032
3715.00,0.0032
3714.00,0.0033
3713.00,0.0032
3712.00,0.0032
3711.00,0.0032
3710.00,0.0033
3709.00,0.0033
3708.00,0.0033
3707.00,0.0032
3706.00,0.0032
3705.00,0.0031
3704.00,0.0031
3703.00,0.0031
3702.00,0.0031
3701.00,0.0031
3700.00,0.0031
3699.00,0.0031
3698.00,0.0031
3697.00,0.0031
3696.00,0.0031
3695.00,0.0031
3694.00,0.0031
3693.00,0.0032
3692.00,0.0032
3691.00,0.0033
3690.00,0.0033
3689.00,0.0033
3688.00,0.0033
3687.00,0.0033
3686.00,0.0033
3685.00,0.0033
3684.00,0.0033
3683.00,0.0032
3682.00,0.0032
3681.00,0.0032
3680.00,0.0033
3679.00,0.0034
3678.00,0.0035
3677.00,0.0035
3676.00,0.0034
3675.00,0.0033
3674.00,0.0033
3673.00,0.0033
3672.00,0.0032
3671.00,0.0031
3670.00,0.0031
3669.00,0.0032
3668.00,0.0032
3667.00,0.0032
3666.00,0.0031
3665.00,0.0031
3664.00,0.0031
3663.00,0.0031
3662.00,0.0031
3661.00,0.0031
3660.00,0.0032
3659.00,0.0032
3658.00,0.0032
3657.00,0.0032
3656.00,0.0033
3655.00,0.0033
3654.00,0.0034
3653.00,0.0035
3652.00,0.0035
3651.00,0.0035
3650.00,0.0035
3649.00,0.0035
3648.00,0.0035
3647.00,0.0035
3646.00,0.0034
3645.00,0.0034
3644.00,0.0034
3643.00,0.0034
3642.00,0.0035
3641.00,0.0035
3640.00,0.0036
3639.00,0.0036
3638.00,0.0036
3637.00,0.0036
3636.00,0.0037
3635.00,0.0037
3634.00,0.0038
3633.00,0.0039
3632.00,0.0040
3631.00,0.0040
3630.00,0.0040
3629.00,0.0040
3628.00,0.0040
3627.00,0.0041
3626.00,0.0041
3625.00,0.0041
3624.00,0.0040
3623.00,0.0041
3622.00,0.0041
3621.00,0.0042
3620.00,0.0042
3619.00,0.0043
3618.00,0.0043
3617.00,0.0044
3616.00,0.0044
3615.00,0.0045
3614.00,0.0045
3613.00,0.0045
3612.00,0.0046
3611.00,0.0047
3610.00,0.0047
3609.00,0.0047
3608.00,0.0047
3607.00,0.0047
3606.00,0.0048
3605.00,0.0047
3604.00,0.0047
3603.00,0.0047
3602.00,0.0047
3601.00,0.0048
3600.00,0.0048
3599.00,0.0049
3598.00,0.0049
3597.00,0.0049
3596.00,0.0049
3595.00,0.0050
3594.00,0.0050
3593.00,0.0050
3592.00,0.0050
3591.00,0.0050
3590.00,0.0051
3589.00,0.0051
3588.00,0.0051
3587.00,0.0052
3586.00,0.0052
3585.00,0.0053
3584.00,0.0053
3583.00,0.0053
3582.00,0.0054
3581.00,0.0054
3580.00,0.0054
3579.00,0.0055
3578.00,0.0055
3577.00,0.0056
3576.00,0.0056
3575.00,0.0057
3574.00,0.0057
3573.00,0.0057
3572.00,0.0057
3571.00,0.0057
3570.00,0.0057
3569.00,0.0058
3568.00,0.0058
3567.00,0.0059
3566.00,0.0060
3565.00,0.0061
3564.00,0.0061
3563.00,0.0062
3562.00,0.0062
3561.00,0.0062
3560.00,0.0063
3559.00,0.0063
3558.00,0.0063
3557.00,0.0063
3556.00,0.0064
3555.00,0.0064
3554.00,0.0065
3553.00,0.0065
3552.00,0.0066
3551.00,0.0067
3550.00,0.0067
3549.00,0.0068
3548.00,0.0069
3547.00,0.0069
3546.00,0.0069
3545.00,0.0070
3544.00,0.0070
3543.00,0.0070
3542.00,0.0071
3541.00,0.0072
3540.00,0.0072
3539.00,0.0073
3538.00,0.0074
3537.00,0.0074
3536.00,0.0075
3535.00,0.0075
3534.00,0.0076
3533.00,0.0076
3532.00,0.0077
3531.00,0.0077
3530.00,0.0078
3529.00,0.0079
3528.00,0.0080
3527.00,0.0081
3526.00,0.0082
3525.00,0.0083
3524.00,0.0084
3523.00,0.0085
3522.00,0.0086
3521.00,0.0087
3520.00,0.0088
3519.00,0.0088
3518.00,0.0089
3517.00,0.0089
3516.00,0.0089
3515.00,0.0089
3514.00,0.0090
3513.00,0.0091
3512.00,0.0092
3511.00,0.0093
3510.00,0.0094
3509.00,0.0095
3508.00,0.0096
3507.00,0.0096
3506.00,0.0097
3505.00,0.0098
3504.00,0.0099
3503.00,0.0100
3502.00,0.0101
3501.00,0.0102
3500.00,0.0103
3499.00,0.0104
3498.00,0.0105
3497.00,0.0106
3496.00,0.0107
3495.00,0.0108
3494.00,0.0109
3493.00,0.0110
3492.00,0.0111
3491.00,0.0112
3490.00,0.0113
3489.00,0.0114
3488.00,0.0116
3487.00,0.0117
3486.00,0.0118
3485.00,0.0120
3484.00,0.0121
3483.00,0.0122
3482.00,0.0123
3481.00,0.0125
3480.00,0.0126
3479.00,0.0127
3478.00,0.0128
3477.00,0.0129
3476.00,0.0130
3475.00,0.0131
3474.00,0.0133
3473.00,0.0134
3472.00,0.0136
3471.00,0.0137
3470.00,0.0138
3469.00,0.0139
3468.00,0.0141
3467.00,0.0142
3466.00,0.0143
3465.00,0.0144
3464.00,0.0145
3463.00,0.0146
3462.00,0.0147
3461.00,0.0148
3460.00,0.0150
3459.00,0.0151
3458.00,0.0152
3457.00,0.0153
3456.00,0.0154
3455.00,0.0155
3454.00,0.0156
3453.00,0.0157
3452.00,0.0158
3451.00,0.0159
3450.00,0.0159
3449.00,0.0160
3448.00,0.0160
3447.00,0.0161
3446.00,0.0162
3445.00,0.0162
3444.00,0.0163
3443.00,0.0164
3442.00,0.0165
3441.00,0.0166
3440.00,0.0167
3439.00,0.0168
3438.00,0.0168
3437.00,0.0169
3436.00,0.0169
3435.00,0.0170
3434.00,0.0171
3433.00,0.0172
3432.00,0.0172
3431.00,0.0173
3430.00,0.0173
3429.00,0.0174
3428.00,0.0174
3427.00,0.0174
3426.00,0.0174
3425.00,0.0174
3424.00,0.0174
3423.00,0.0175
3422.00,0.0176
3421.00,0.0177
3420.00,0.0178
3419.00,0.0179
3418.00,0.0179
3417.00,0.0179
3416.00,0.0179
3415.00,0.0179
3414.00,0.0180
3413.00,0.0181
3412.00,0.0182
3411.00,0.0182
3410.00,0.0183
3409.00,0.0183
3408.00,0.0184
3407.00,0.0184
3406.00,0.0185
3405.00,0.0185
3404.00,0.0186
3403.00,0.0186
3402.00,0.0187
3401.00,0.0187
3400.00,0.0188
3399.00,0.0188
3398.00,0.0188
3397.00,0.0189
3396.00,0.0189
3395.00,0.0190
3394.00,0.0191
3393.00,0.0191
3392.00,0.0192
3391.00,0.0193
3390.00,0.0193
3389.00,0.0194
3388.00,0.0195
3387.00,0.0195
3386.00,0.0196
3385.00,0.0197
3384.00,0.0197
3383.00,0.0198
3382.00,0.0199
3381.00,0.0199
3380.00,0.0199
3379.00,0.0200
3378.00,0.0200
3377.00,0.0201
3376.00,0.0202
3375.00,0.0203
3374.00,0.0203
3373.00,0.0203
3372.00,0.0203
3371.00,0.0203
3370.00,0.0203
3369.00,0.0203
3368.00,0.0204
3367.00,0.0206
3366.00,0.0207
3365.00,0.0208
3364.00,0.0209
3363.00,0.0210
3362.00,0.0211
3361.00,0.0212
3360.00,0.0212
3359.00,0.0213
3358.00,0.0214
3357.00,0.0214
3356.00,0.0215
3355.00,0.0215
3354.00,0.0214
3353.00,0.0214
3352.00,0.0215
3351.00,0.0215
3350.00,0.0216
3349.00,0.0217
3348.00,0.0218
3347.00,0.0219
3346.00,0.0219
3345.00,0.0219
3344.00,0.0219
3343.00,0.0219
3342.00,0.0220
3341.00,0.0220
3340.00,0.0220
3339.00,0.0221
3338.00,0.0222
3337.00,0.0223
3336.00,0.0225
3335.00,0.0226
3334.00,0.0227
3333.00,0.0228
3332.00,0.0228
3331.00,0.0229
3330.00,0.0229
3329.00,0.0229
3328.00,0.0229
3327.00,0.0229
3326.00,0.0229
3325.00,0.0230
3324.00,0.0232
3323.00,0.0233
3322.00,0.0234
3321.00,0.0235
3320.00,0.0236
3319.00,0.0236
3318.00,0.0237
3317.00,0.0237
3316.00,0.0237
3315.00,0.0238
3314.00,0.0238
3313.00,0.0238
3312.00,0.0238
3311.00,0.0237
3310.00,0.0236
3309.00,0.0235
3308.00,0.0235
3307.00,0.0235
3306.00,0.0236
3305.00,0.0237
3304.00,0.0239
3303.00,0.0240
3302.00,0.0242
3301.00,0.0242
3300.00,0.0242
3299.00,0.0242
3298.00,0.0242
3297.00,0.0241
3296.00,0.0241
3295.00,0.0241
3294.00,0.0241
3293.00,0.0242
3292.00,0.0242
3291.00,0.0243
3290.00,0.0244
3289.00,0.0245
3288.00,0.0246
3287.00,0.0246
3286.00,0.0246
3285.00,0.0246
3284.00,0.0246
3283.00,0.0246
3282.00,0.0246
3281.00,0.0246
3280.00,0.0246
3279.00,0.0246
3278.00,0.0246
3277.00,0.0246
3276.00,0.0246
3275.00,0.0245
3274.00,0.0245
3273.00,0.0244
3272.00,0.0243
3271.00,0.0243
3270.00,0.0243
3269.00,0.0244
3268.00,0.0245
3267.00,0.0246
3266.00,0.0246
3265.00,0.0247
3264.00,0.0247
3263.00,0.0247
3262.00,0.0247
3261.00,0.0248
3260.00,0.0248
3259.00,0.0247
3258.00,0.0247
3257.00,0.0246
3256.00,0.0246
3255.00,0.0246
3254.00,0.0247
3253.00,0.0247
3252.00,0.0247
3251.00,0.0247
3250.00,0.0247
3249.00,0.0246
3248.00,0.0246
3247.00,0.0246
3246.00,0.0247
3245.00,0.0247
3244.00,0.0248
3243.00,0.0247
3242.00,0.0247
3241.00,0.0246
3240.00,0.0246
3239.00,0.0245
3238.00,0.0245
3237.00,0.0244
3236.00,0.0244
3235.00,0.0243
3234.00,0.0243
3233.00,0.0243
3232.00,0.0243
3231.00,0.0243
3230.00,0.0244
3229.00,0.0244
3228.00,0.0244
3227.00,0.0244
3226.00,0.0243
3225.00,0.0243
3224.00,0.0242
3223.00,0.0242
3222.00,0.0242
3221.00,0.0241
3220.00,0.0241
3219.00,0.0240
3218.00,0.0240
3217.00,0.0240
3216.00,0.0240
3215.00,0.0239
3214.00,0.0239
3213.00,0.0239
3212.00,0.0239
3211.00,0.0238
3210.00,0.0238
3209.00,0.0238
3208.00,0.0238
3207.00,0.0238
3206.00,0.0238
3205.00,0.0238
3204.00,0.0238
3203.00,0.0238
3202.00,0.0238
3201.00,0.0238
3200.00,0.0237
3199.00,0.0237
3198.00,0.0237
3197.00,0.0237
3196.00,0.0236
3195.00,0.0236
3194.00,0.0236
3193.00,0.0235
3192.00,0.0235
3191.00,0.0234
3190.00,0.0233
3189.00,0.0233
3188.00,0.0233
3187.00,0.0232
3186.00,0.0232
3185.00,0.0232
3184.00,0.0231
3183.00,0.0231
3182.00,0.0230
3181.00,0.0229
3180.00,0.0228
3179.00,0.0228
3178.00,0.0227
3177.00,0.0226
3176.00,0.0226
3175.00,0.0225
3174.00,0.0225
3173.00,0.0224
3172.00,0.0223
3171.00,0.0222
3170.00,0.0222
3169.00,0.0221
3168.00,0.0220
3167.00,0.0220
3166.00,0.0219
3165.00,0.0218
3164.00,0.0217
3163.00,0.0216
3162.00,0.0216
3161.00,0.0215
3160.00,0.0214
3159.00,0.0213
3158.00,0.0212
3157.00,0.0211
3156.00,0.0210
3155.00,0.0209
3154.00,0.0208
3153.00,0.0207
3152.00,0.0206
3151.00,0.0206
3150.00,0.0205
3149.00,0.0205
3148.00,0.0204
3147.00,0.0204
3146.00,0.0203
3145.00,0.0202
3144.00,0.0201
3143.00,0.0200
3142.00,0.0199
3141.00,0.0198
3140.00,0.0197
3139.00,0.0196
3138.00,0.0196
3137.00,0.0195
3136.00,0.0195
3135.00,0.0194
3134.00,0.0194
3133.00,0.0193
3132.00,0.0192
3131.00,0.0192
3130.00,0.0191
3129.00,0.0190
3128.00,0.0190
3127.00,0.0189
3126.00,0.0188
3125.00,0.0187
3124.00,0.0186
3123.00,0.0186
3122.00,0.0185
3121.00,0.0184
3120.00,0.0183
3119.00,0.0182
3118.00,0.0181
3117.00,0.0180
3116.00,0.0179
3115.00,0.0179
3114.00,0.0178
3113.00,0.0177
3112.00,0.0177
3111.00,0.0176
3110.00,0.0175
3109.00,0.0174
3108.00,0.0174
3107.00,0.0173
3106.00,0.0172
3105.00,0.0172
3104.00,0.0171
3103.00,0.0170
3102.00,0.0169
3101.00,0.0168
3100.00,0.0168
3099.00,0.0167
3098.00,0.0167
3097.00,0.0167
3096.00,0.0166
3095.00,0.0166
3094.00,0.0165
3093.00,0.0164
3092.00,0.0164
3091.00,0.0164
3090.00,0.0163
3089.00,0.0163
3088.00,0.0163
3087.00,0.0162
3086.00,0.0162
3085.00,0.0162
3084.00,0.0163
3083.00,0.0163
3082.00,0.0164
3081.00,0.0164
3080.00,0.0164
3079.00,0.0164
3078.00,0.0164
3077.00,0.0164
3076.00,0.0165
3075.00,0.0164
3074.00,0.0164
3073.00,0.0163
3072.00,0.0163
3071.00,0.0162
3070.00,0.0161
3069.00,0.0160
3068.00,0.0159
3067.00,0.0157
3066.00,0.0156
3065.00,0.0154
3064.00,0.0152
3063.00,0.0150
3062.00,0.0149
3061.00,0.0147
3060.00,0.0145
3059.00,0.0144
3058.00,0.0142
3057.00,0.0141
3056.00,0.0140
3055.00,0.0139
3054.00,0.0139
3053.00,0.0138
3052.00,0.0138
3051.00,0.0137
3050.00,0.0137
3049.00,0.0137
3048.00,0.0136
3047.00,0.0136
3046.00,0.0135
3045.00,0.0135
3044.00,0.0134
3043.00,0.0134
3042.00,0.0133
3041.00,0.0133
3040.00,0.0133
3039.00,0.0132
3038.00,0.0132
3037.00,0.0131
3036.00,0.0130
3035.00,0.0130
3034.00,0.0129
3033.00,0.0129
3032.00,0.0129
3031.00,0.0129
3030.00,0.0129
3029.00,0.0129
3028.00,0.0128
3027.00,0.0128
3026.00,0.0128
3025.00,0.0128
3024.00,0.0128
3023.00,0.0128
3022.00,0.0128
3021.00,0.0128
3020.00,0.0128
3019.00,0.0128
3018.00,0.0128
3017.00,0.0129
3016.00,0.0129
3015.00,0.0128
3014.00,0.0128
3013.00,0.0129
3012.00,0.0129
3011.00,0.0130
3010.00,0.0130
3009.00,0.0130
3008.00,0.0130
3007.00,0.0131
3006.00,0.0131
3005.00,0.0132
3004.00,0.0133
3003.00,0.0134
3002.00,0.0135
3001.00,0.0136
3000.00,0.0137
2999.00,0.0138
2998.00,0.0140
2997.00,0.0142
2996.00,0.0144
2995.00,0.0147
2994.00,0.0149
2993.00,0.0152
2992.00,0.0155
2991.00,0.0158
2990.00,0.0162
2989.00,0.0165
2988.00,0.0169
2987.00,0.0172
2986.00,0.0174
2985.00,0.0175
2984.00,0.0175
2983.00,0.0175
2982.00,0.0177
2981.00,0.0180
2980.00,0.0185
2979.00,0.0192
2978.00,0.0199
2977.00,0.0207
2976.00,0.0214
2975.00,0.0220
2974.00,0.0226
2973.00,0.0232
2972.00,0.0239
2971.00,0.0247
2970.00,0.0256
2969.00,0.0265
2968.00,0.0275
2967.00,0.0285
2966.00,0.0295
2965.00,0.0305
2964.00,0.0315
2963.00,0.0324
2962.00,0.0333
2961.00,0.0340
2960.00,0.0346
2959.00,0.0352
2958.00,0.0356
2957.00,0.0359
2956.00,0.0361
2955.00,0.0363
2954.00,0.0363
2953.00,0.0363
2952.00,0.0362
2951.00,0.0361
2950.00,0.0359
2949.00,0.0357
2948.00,0.0356
2947.00,0.0356
2946.00,0.0357
2945.00,0.0359
2944.00,0.0362
2943.00,0.0367
2942.00,0.0372
2941.00,0.0379
2940.00,0.0387
2939.00,0.0395
2938.00,0.0404
2937.00,0.0414
2936.00,0.0424
2935.00,0.0434
2934.00,0.0443
2933.00,0.0453
2932.00,0.0462
2931.00,0.0470
2930.00,0.0478
2929.00,0.0485
2928.00,0.0490
2927.00,0.0495
2926.00,0.0499
2925.00,0.0501
2924.00,0.0503
2923.00,0.0502
2922.00,0.0501
2921.00,0.0498
2920.00,0.0494
2919.00,0.0489
2918.00,0.0483
2917.00,0.0476
2916.00,0.0469
2915.00,0.0462
2914.00,0.0454
2913.00,0.0446
2912.00,0.0438
2911.00,0.0430
2910.00,0.0422
2909.00,0.0414
2908.00,0.0406
2907.00,0.0398
2906.00,0.0391
2905.00,0.0384
2904.00,0.0378
2903.00,0.0372
2902.00,0.0366
2901.00,0.0361
2900.00,0.0357
2899.00,0.0353
2898.00,0.0349
2897.00,0.0346
2896.00,0.0342
2895.00,0.0339
2894.00,0.0336
2893.00,0.0332
2892.00,0.0329
2891.00,0.0325
2890.00,0.0322
2889.00,0.0319
2888.00,0.0317
2887.00,0.0315
2886.00,0.0313
2885.00,0.0311
2884.00,0.0309
2883.00,0.0309
2882.00,0.0308
2881.00,0.0309
2880.00,0.0310
2879.00,0.0311
2878.00,0.0312
2877.00,0.0313
2876.00,0.0315
2875.00,0.0316
2874.00,0.0318
2873.00,0.0320
2872.00,0.0322
2871.00,0.0323
2870.00,0.0324
2869.00,0.0323
2868.00,0.0323
2867.00,0.0322
2866.00,0.0322
2865.00,0.0324
2864.00,0.0326
2863.00,0.0329
2862.00,0.0333
2861.00,0.0338
2860.00,0.0343
2859.00,0.0348
2858.00,0.0351
2857.00,0.0353
2856.00,0.0352
2855.00,0.0350
2854.00,0.0345
2853.00,0.0339
2852.00,0.0330
2851.00,0.0320
2850.00,0.0309
2849.00,0.0297
2848.00,0.0285
2847.00,0.0274
2846.00,0.0262
2845.00,0.0252
2844.00,0.0241
2843.00,0.0232
2842.00,0.0224
2841.00,0.0217
2840.00,0.0211
2839.00,0.0207
2838.00,0.0204
2837.00,0.0202
2836.00,0.0200
2835.00,0.0199
2834.00,0.0199
2833.00,0.0198
2832.00,0.0197
2831.00,0.0195
2830.00,0.0192
2829.00,0.0189
2828.00,0.0185
2827.00,0.0180
2826.00,0.0175
2825.00,0.0169
2824.00,0.0163
2823.00,0.0157
2822.00,0.0152
2821.00,0.0147
2820.00,0.0142
2819.00,0.0138
2818.00,0.0133
2817.00,0.0130
2816.00,0.0127
2815.00,0.0124
2814.00,0.0122
2813.00,0.0119
2812.00,0.0117
2811.00,0.0115
2810.00,0.0113
2809.00,0.0111
2808.00,0.0110
2807.00,0.0109
2806.00,0.0107
2805.00,0.0106
2804.00,0.0105
2803.00,0.0104
2802.00,0.0103
2801.00,0.0102
2800.00,0.0101
2799.00,0.0100
2798.00,0.0099
2797.00,0.0098
2796.00,0.0097
2795.00,0.0096
2794.00,0.0095
2793.00,0.0095
2792.00,0.0094
2791.00,0.0094
2790.00,0.0093
2789.00,0.0093
2788.00,0.0092
2787.00,0.0092
2786.00,0.0091
2785.00,0.0091
2784.00,0.0091
2783.00,0.0090
2782.00,0.0090
2781.00,0.0089
2780.00,0.0089
2779.00,0.0089
2778.00,0.0088
2777.00,0.0088
2776.00,0.0087
2775.00,0.0087
2774.00,0.0086
2773.00,0.0086
2772.00,0.0086
2771.00,0.0086
2770.00,0.0086
2769.00,0.0085
2768.00,0.0085
2767.00,0.0085
2766.00,0.0085
2765.00,0.0085
2764.00,0.0085
2763.00,0.0085
2762.00,0.0085
2761.00,0.0084
2760.00,0.0084
2759.00,0.0084
2758.00,0.0084
2757.00,0.0085
2756.00,0.0085
2755.00,0.0085
2754.00,0.0085
2753.00,0.0084
2752.00,0.0084
2751.00,0.0084
2750.00,0.0083
2749.00,0.0083
2748.00,0.0084
2747.00,0.0084
2746.00,0.0084
2745.00,0.0084
2744.00,0.0084
2743.00,0.0085
2742.00,0.0085
2741.00,0.0085
2740.00,0.0085
2739.00,0.0085
2738.00,0.0086
2737.00,0.0086
2736.00,0.0086
2735.00,0.0086
2734.00,0.0086
2733.00,0.0086
2732.00,0.0086
2731.00,0.0086
2730.00,0.0086
2729.00,0.0087
2728.00,0.0087
2727.00,0.0087
2726.00,0.0087
2725.00,0.0087
2724.00,0.0087
2723.00,0.0087
2722.00,0.0087
2721.00,0.0087
2720.00,0.0087
2719.00,0.0086
2718.00,0.0085
2717.00,0.0085
2716.00,0.0085
2715.00,0.0084
2714.00,0.0084
2713.00,0.0084
2712.00,0.0083
2711.00,0.0083
2710.00,0.0083
2709.00,0.0082
2708.00,0.0082
2707.00,0.0082
2706.00,0.0082
2705.00,0.0082
2704.00,0.0082
2703.00,0.0081
2702.00,0.0081
2701.00,0.0081
2700.00,0.0080
2699.00,0.0080
2698.00,0.0080
2697.00,0.0080
2696.00,0.0080
2695.00,0.0081
2694.00,0.0081
2693.00,0.0081
2692.00,0.0081
2691.00,0.0081
2690.00,0.0081
2689.00,0.0081
2688.00,0.0080
2687.00,0.0080
2686.00,0.0080
2685.00,0.0080
2684.00,0.0080
2683.00,0.0080
2682.00,0.0080
2681.00,0.0080
2680.00,0.0080
2679.00,0.0080
2678.00,0.0079
2677.00,0.0079
2676.00,0.0079
2675.00,0.0079
2674.00,0.0079
2673.00,0.0079
2672.00,0.0079
2671.00,0.0079
2670.00,0.0079
2669.00,0.0079
2668.00,0.0079
2667.00,0.0079
2666.00,0.0080
2665.00,0.0080
2664.00,0.0080
2663.00,0.0080
2662.00,0.0080
2661.00,0.0080
2660.00,0.0081
2659.00,0.0081
2658.00,0.0080
2657.00,0.0080
2656.00,0.0080
2655.00,0.0080
2654.00,0.0080
2653.00,0.0080
2652.00,0.0080
2651.00,0.0080
2650.00,0.0080
2649.00,0.0079
2648.00,0.0079
2647.00,0.0079
2646.00,0.0078
2645.00,0.0078
2644.00,0.0078
2643.00,0.0077
2642.00,0.0077
2641.00,0.0077
2640.00,0.0076
2639.00,0.0076
2638.00,0.0076
2637.00,0.0076
2636.00,0.0076
2635.00,0.0076
2634.00,0.0076
2633.00,0.0075
2632.00,0.0075
2631.00,0.0074
2630.00,0.0074
2629.00,0.0074
2628.00,0.0074
2627.00,0.0074
2626.00,0.0074
2625.00,0.0074
2624.00,0.0074
2623.00,0.0073
2622.00,0.0073
2621.00,0.0073
2620.00,0.0073
2619.00,0.0073
2618.00,0.0072
2617.00,0.0072
2616.00,0.0071
2615.00,0.0071
2614.00,0.0070
2613.00,0.0070
2612.00,0.0070
2611.00,0.0070
2610.00,0.0070
2609.00,0.0070
2608.00,0.0070
2607.00,0.0070
2606.00,0.0069
2605.00,0.0069
2604.00,0.0069
2603.00,0.0068
2602.00,0.0068
2601.00,0.0068
2600.00,0.0068
2599.00,0.0068
2598.00,0.0067
2597.00,0.0067
2596.00,0.0066
2595.00,0.0066
2594.00,0.0066
2593.00,0.0065
2592.00,0.0065
2591.00,0.0066
2590.00,0.0066
2589.00,0.0066
2588.00,0.0066
2587.00,0.0066
2586.00,0.0066
2585.00,0.0066
2584.00,0.0066
2583.00,0.0065
2582.00,0.0065
2581.00,0.0064
2580.00,0.0064
2579.00,0.0064
2578.00,0.0064
2577.00,0.0064
2576.00,0.0063
2575.00,0.0063
2574.00,0.0063
2573.00,0.0063
2572.00,0.0064
2571.00,0.0064
2570.00,0.0064
2569.00,0.0063
2568.00,0.0063
2567.00,0.0062
2566.00,0.0062
2565.00,0.0062
2564.00,0.0062
2563.00,0.0063
2562.00,0.0062
2561.00,0.0062
2560.00,0.0061
2559.00,0.0061
2558.00,0.0060
2557.00,0.0061
2556.00,0.0061
2555.00,0.0061
2554.00,0.0060
2553.00,0.0060
2552.00,0.0060
2551.00,0.0060
2550.00,0.0060
2549.00,0.0060
2548.00,0.0060
2547.00,0.0060
2546.00,0.0060
2545.00,0.0060
2544.00,0.0059
2543.00,0.0059
2542.00,0.0059
2541.00,0.0058
2540.00,0.0058
2539.00,0.0057
2538.00,0.0057
2537.00,0.0057
2536.00,0.0057
2535.00,0.0058
2534.00,0.0057
2533.00,0.0057
2532.00,0.0057
2531.00,0.0057
2530.00,0.0056
2529.00,0.0056
2528.00,0.0055
2527.00,0.0055
2526.00,0.0054
2525.00,0.0054
2524.00,0.0054
2523.00,0.0054
2522.00,0.0054
2521.00,0.0054
2520.00,0.0054
2519.00,0.0054
2518.00,0.0054
2517.00,0.0053
2516.00,0.0053
2515.00,0.0052
2514.00,0.0051
2513.00,0.0051
2512.00,0.0051
2511.00,0.0052
2510.00,0.0052
2509.00,0.0052
2508.00,0.0052
2507.00,0.0052
2506.00,0.0052
2505.00,0.0052
2504.00,0.0053
2503.00,0.0053
2502.00,0.0052
2501.00,0.0052
2500.00,0.0052
2499.00,0.0052
2498.00,0.0052
2497.00,0.0051
2496.00,0.0051
2495.00,0.0051
2494.00,0.0051
2493.00,0.0050
2492.00,0.0050
2491.00,0.0050
2490.00,0.0050
2489.00,0.0050
2488.00,0.0050
2487.00,0.0051
2486.00,0.0051
2485.00,0.0050
2484.00,0.0050
2483.00,0.0050
2482.00,0.0050
2481.00,0.0050
2480.00,0.0050
2479.00,0.0050
2478.00,0.0049
2477.00,0.0049
2476.00,0.0049
2475.00,0.0049
2474.00,0.0049
2473.00,0.0049
2472.00,0.0049
2471.00,0.0048
2470.00,0.0048
2469.00,0.0048
2468.00,0.0048
2467.00,0.0048
2466.00,0.0048
2465.00,0.0048
2464.00,0.0049
2463.00,0.0049
2462.00,0.0049
2461.00,0.0049
2460.00,0.0048
2459.00,0.0048
2458.00,0.0048
2457.00,0.0048
2456.00,0.0048
2455.00,0.0049
2454.00,0.0049
2453.00,0.0048
2452.00,0.0048
2451.00,0.0048
2450.00,0.0048
2449.00,0.0047
2448.00,0.0047
2447.00,0.0046
2446.00,0.0046
2445.00,0.0046
2444.00,0.0046
2443.00,0.0046
2442.00,0.0046
2441.00,0.0046
2440.00,0.0046
2439.00,0.0046
2438.00,0.0046
2437.00,0.0046
2436.00,0.0046
2435.00,0.0046
2434.00,0.0045
2433.00,0.0045
2432.00,0.0045
2431.00,0.0044
2430.00,0.0044
2429.00,0.0043
2428.00,0.0043
2427.00,0.0042
2426.00,0.0042
2425.00,0.0043
2424.00,0.0043
2423.00,0.0043
2422.00,0.0043
2421.00,0.0042
2420.00,0.0042
2419.00,0.0042
2418.00,0.0042
2417.00,0.0042
2416.00,0.0042
2415.00,0.0043
2414.00,0.0043
2413.00,0.0043
2412.00,0.0044
2411.00,0.0044
2410.00,0.0043
2409.00,0.0043
2408.00,0.0042
2407.00,0.0041
2406.00,0.0041
2405.00,0.0041
2404.00,0.0041
2403.00,0.0041
2402.00,0.0041
2401.00,0.0040
2400.00,0.0040
2399.00,0.0040
2398.00,0.0040
2397.00,0.0040
2396.00,0.0040
2395.00,0.0041
2394.00,0.0041
2393.00,0.0041
2392.00,0.0041
2391.00,0.0041
2390.00,0.0041
2389.00,0.0041
2388.00,0.0040
2387.00,0.0040
2386.00,0.0039
2385.00,0.0039
2384.00,0.0038
2383.00,0.0038
2382.00,0.0038
2381.00,0.0038
2380.00,0.0038
2379.00,0.0038
2378.00,0.0037
2377.00,0.0037
2376.00,0.0037
2375.00,0.0038
2374.00,0.0038
2373.00,0.0038
2372.00,0.0037
2371.00,0.0036
2370.00,0.0035
2369.00,0.0035
2368.00,0.0035
2367.00,0.0036
2366.00,0.0037
2365.00,0.0037
2364.00,0.0037
2363.00,0.0038
2362.00,0.0038
2361.00,0.0038
2360.00,0.0038
2359.00,0.0037
2358.00,0.0036
2357.00,0.0035
2356.00,0.0035
2355.00,0.0035
2354.00,0.0035
2353.00,0.0034
2352.00,0.0034
2351.00,0.0034
2350.00,0.0035
2349.00,0.0038
2348.00,0.0040
2347.00,0.0042
2346.00,0.0042
2345.00,0.0041
2344.00,0.0041
2343.00,0.0041
2342.00,0.0041
2341.00,0.0041
2340.00,0.0041
2339.00,0.0041
2338.00,0.0041
2337.00,0.0041
2336.00,0.0042
2335.00,0.0042
2334.00,0.0042
2333.00,0.0041
2332.00,0.0041
2331.00,0.0040
2330.00,0.0040
2329.00,0.0042
2328.00,0.0046
2327.00,0.0051
2326.00,0.0055
2325.00,0.0056
2324.00,0.0055
2323.00,0.0052
2322.00,0.0049
2321.00,0.0047
2320.00,0.0046
2319.00,0.0045
2318.00,0.0045
2317.00,0.0045
2316.00,0.0044
2315.00,0.0044
2314.00,0.0043
2313.00,0.0043
2312.00,0.0042
2311.00,0.0042
2310.00,0.0041
2309.00,0.0041
2308.00,0.0042
2307.00,0.0043
2306.00,0.0043
2305.00,0.0043
2304.00,0.0043
2303.00,0.0043
2302.00,0.0043
2301.00,0.0044
2300.00,0.0045
2299.00,0.0045
2298.00,0.0045
2297.00,0.0046
2296.00,0.0046
2295.00,0.0047
2294.00,0.0047
2293.00,0.0048
2292.00,0.0049
2291.00,0.0050
2290.00,0.0051
2289.00,0.0052
2288.00,0.0053
2287.00,0.0053
2286.00,0.0053
2285.00,0.0052
2284.00,0.0050
2283.00,0.0049
2282.00,0.0047
2281.00,0.0046
2280.00,0.0046
2279.00,0.0045
2278.00,0.0045
2277.00,0.0045
2276.00,0.0045
2275.00,0.0046
2274.00,0.0045
2273.00,0.0046
2272.00,0.0046
2271.00,0.0046
2270.00,0.0045
2269.00,0.0044
2268.00,0.0043
2267.00,0.0042
2266.00,0.0042
2265.00,0.0041
2264.00,0.0041
2263.00,0.0042
2262.00,0.0043
2261.00,0.0044
2260.00,0.0046
2259.00,0.0046
2258.00,0.0045
2257.00,0.0043
2256.00,0.0041
2255.00,0.0039
2254.00,0.0038
2253.00,0.0038
2252.00,0.0039
2251.00,0.0041
2250.00,0.0042
2249.00,0.0042
2248.00,0.0043
2247.00,0.0043
2246.00,0.0042
2245.00,0.0043
2244.00,0.0044
2243.00,0.0044
2242.00,0.0044
2241.00,0.0043
2240.00,0.0042
2239.00,0.0041
2238.00,0.0040
2237.00,0.0040
2236.00,0.0040
2235.00,0.0041
2234.00,0.0041
2233.00,0.0040
2232.00,0.0041
2231.00,0.0041
2230.00,0.0041
2229.00,0.0041
2228.00,0.0040
2227.00,0.0039
2226.00,0.0038
2225.00,0.0038
2224.00,0.0038
2223.00,0.0039
2222.00,0.0039
2221.00,0.0039
2220.00,0.0039
2219.00,0.0039
2218.00,0.0039
2217.00,0.0039
2216.00,0.0039
2215.00,0.0039
2214.00,0.0038
2213.00,0.0039
2212.00,0.0040
2211.00,0.0040
2210.00,0.0040
2209.00,0.0041
2208.00,0.0042
2207.00,0.0043
2206.00,0.0044
2205.00,0.0044
2204.00,0.0044
2203.00,0.0044
2202.00,0.0045
2201.00,0.0046
2200.00,0.0046
2199.00,0.0046
2198.00,0.0044
2197.00,0.0042
2196.00,0.0040
2195.00,0.0040
2194.00,0.0041
2193.00,0.0042
2192.00,0.0044
2191.00,0.0044
2190.00,0.0043
2189.00,0.0042
2188.00,0.0041
2187.00,0.0041
2186.00,0.0041
2185.00,0.0040
2184.00,0.0039
2183.00,0.0037
2182.00,0.0036
2181.00,0.0036
2180.00,0.0038
2179.00,0.0038
2178.00,0.0036
2177.00,0.0033
2176.00,0.0031
2175.00,0.0030
2174.00,0.0031
2173.00,0.0035
2172.00,0.0039
2171.00,0.0043
2170.00,0.0044
2169.00,0.0044
2168.00,0.0044
2167.00,0.0043
2166.00,0.0042
2165.00,0.0044
2164.00,0.0047
2163.00,0.0047
2162.00,0.0042
2161.00,0.0031
2160.00,0.0017
2159.00,0.0006
2158.00,0.0002
2157.00,0.0002
2156.00,0.0006
2155.00,0.0009
2154.00,0.0010
2153.00,0.0011
2152.00,0.0011
2151.00,0.0012
2150.00,0.0012
2149.00,0.0012
2148.00,0.0014
2147.00,0.0015
2146.00,0.0016
2145.00,0.0017
2144.00,0.0018
2143.00,0.0018
2142.00,0.0017
2141.00,0.0017
2140.00,0.0017
2139.00,0.0016
2138.00,0.0014
2137.00,0.0013
2136.00,0.0012
2135.00,0.0011
2134.00,0.0011
2133.00,0.0012
2132.00,0.0015
2131.00,0.0017
2130.00,0.0019
2129.00,0.0020
2128.00,0.0022
2127.00,0.0023
2126.00,0.0024
2125.00,0.0025
2124.00,0.0026
2123.00,0.0028
2122.00,0.0029
2121.00,0.0030
2120.00,0.0031
2119.00,0.0032
2118.00,0.0033
2117.00,0.0034
2116.00,0.0036
2115.00,0.0036
2114.00,0.0036
2113.00,0.0035
2112.00,0.0035
2111.00,0.0035
2110.00,0.0035
2109.00,0.0035
2108.00,0.0036
2107.00,0.0036
2106.00,0.0037
2105.00,0.0036
2104.00,0.0036
2103.00,0.0035
2102.00,0.0035
2101.00,0.0035
2100.00,0.0035
2099.00,0.0035
2098.00,0.0034
2097.00,0.0031
2096.00,0.0029
2095.00,0.0028
2094.00,0.0028
2093.00,0.0030
2092.00,0.0031
2091.00,0.0032
2090.00,0.0033
2089.00,0.0034
2088.00,0.0034
2087.00,0.0034
2086.00,0.0034
2085.00,0.0034
2084.00,0.0034
2083.00,0.0035
2082.00,0.0036
2081.00,0.0036
2080.00,0.0037
2079.00,0.0036
2078.00,0.0036
2077.00,0.0035
2076.00,0.0033
2075.00,0.0031
2074.00,0.0030
2073.00,0.0029
2072.00,0.0030
2071.00,0.0032
2070.00,0.0032
2069.00,0.0032
2068.00,0.0032
2067.00,0.0032
2066.00,0.0032
2065.00,0.0032
2064.00,0.0031
2063.00,0.0030
2062.00,0.0029
2061.00,0.0028
2060.00,0.0029
2059.00,0.0030
2058.00,0.0029
2057.00,0.0028
2056.00,0.0028
2055.00,0.0030
2054.00,0.0034
2053.00,0.0038
2052.00,0.0041
2051.00,0.0041
2050.00,0.0037
2049.00,0.0032
2048.00,0.0029
2047.00,0.0027
2046.00,0.0026
2045.00,0.0026
2044.00,0.0027
2043.00,0.0028
2042.00,0.0030
2041.00,0.0031
2040.00,0.0033
2039.00,0.0035
2038.00,0.0035
2037.00,0.0035
2036.00,0.0032
2035.00,0.0029
2034.00,0.0024
2033.00,0.0021
2032.00,0.0019
2031.00,0.0018
2030.00,0.0018
2029.00,0.0018
2028.00,0.0021
2027.00,0.0023
2026.00,0.0023
2025.00,0.0022
2024.00,0.0020
2023.00,0.0020
2022.00,0.0020
2021.00,0.0021
2020.00,0.0022
2019.00,0.0023
2018.00,0.0023
2017.00,0.0024
2016.00,0.0027
2015.00,0.0030
2014.00,0.0031
2013.00,0.0028
2012.00,0.0025
2011.00,0.0022
2010.00,0.0023
2009.00,0.0024
2008.00,0.0025
2007.00,0.0024
2006.00,0.0023
2005.00,0.0023
2004.00,0.0024
2003.00,0.0024
2002.00,0.0023
2001.00,0.0024
2000.00,0.0027
1999.00,0.0029
1998.00,0.0029
1997.00,0.0028
1996.00,0.0027
1995.00,0.0027
1994.00,0.0028
1993.00,0.0030
1992.00,0.0032
1991.00,0.0032
1990.00,0.0030
1989.00,0.0030
1988.00,0.0031
1987.00,0.0032
1986.00,0.0033
1985.00,0.0035
1984.00,0.0039
1983.00,0.0042
1982.00,0.0044
1981.00,0.0042
1980.00,0.0037
1979.00,0.0029
1978.00,0.0023
1977.00,0.0020
1976.00,0.0020
1975.00,0.0021
1974.00,0.0021
1973.00,0.0022
1972.00,0.0023
1971.00,0.0023
1970.00,0.0022
1969.00,0.0021
1968.00,0.0019
1967.00,0.0017
1966.00,0.0015
1965.00,0.0014
1964.00,0.0014
1963.00,0.0015
1962.00,0.0014
1961.00,0.0014
1960.00,0.0014
1959.00,0.0014
1958.00,0.0015
1957.00,0.0017
1956.00,0.0018
1955.00,0.0019
1954.00,0.0018
1953.00,0.0018
1952.00,0.0018
1951.00,0.0018
1950.00,0.0019
1949.00,0.0019
1948.00,0.0020
1947.00,0.0020
1946.00,0.0019
1945.00,0.0020
1944.00,0.0021
1943.00,0.0022
1942.00,0.0023
1941.00,0.0024
1940.00,0.0024
1939.00,0.0023
1938.00,0.0022
1937.00,0.0022
1936.00,0.0022
1935.00,0.0022
1934.00,0.0022
1933.00,0.0021
1932.00,0.0022
1931.00,0.0022
1930.00,0.0022
1929.00,0.0022
1928.00,0.0023
1927.00,0.0023
1926.00,0.0023
1925.00,0.0024
1924.00,0.0025
1923.00,0.0026
1922.00,0.0027
1921.00,0.0028
1920.00,0.0028
1919.00,0.0028
1918.00,0.0027
1917.00,0.0027
1916.00,0.0028
1915.00,0.0028
1914.00,0.0028
1913.00,0.0028
1912.00,0.0028
1911.00,0.0028
1910.00,0.0028
1909.00,0.0029
1908.00,0.0029
1907.00,0.0029
1906.00,0.0029
1905.00,0.0028
1904.00,0.0028
1903.00,0.0028
1902.00,0.0028
1901.00,0.0028
1900.00,0.0029
1899.00,0.0029
1898.00,0.0029
1897.00,0.0030
1896.00,0.0031
1895.00,0.0031
1894.00,0.0030
1893.00,0.0029
1892.00,0.0029
1891.00,0.0029
1890.00,0.0029
1889.00,0.0030
1888.00,0.0030
1887.00,0.0029
1886.00,0.0029
1885.00,0.0029
1884.00,0.0029
1883.00,0.0029
1882.00,0.0029
1881.00,0.0030
1880.00,0.0030
1879.00,0.0030
1878.00,0.0029
1877.00,0.0029
1876.00,0.0029
1875.00,0.0029
1874.00,0.0030
1873.00,0.0030
1872.00,0.0031
1871.00,0.0032
1870.00,0.0032
1869.00,0.0032
1868.00,0.0032
1867.00,0.0031
1866.00,0.0030
1865.00,0.0030
1864.00,0.0030
1863.00,0.0030
1862.00,0.0030
1861.00,0.0030
1860.00,0.0031
1859.00,0.0032
1858.00,0.0031
1857.00,0.0031
1856.00,0.0032
1855.00,0.0032
1854.00,0.0031
1853.00,0.0031
1852.00,0.0031
1851.00,0.0031
1850.00,0.0031
1849.00,0.0031
1848.00,0.0032
1847.00,0.0033
1846.00,0.0032
1845.00,0.0032
1844.00,0.0032
1843.00,0.0031
1842.00,0.0031
1841.00,0.0031
1840.00,0.0032
1839.00,0.0032
1838.00,0.0032
1837.00,0.0032
1836.00,0.0033
1835.00,0.0033
1834.00,0.0034
1833.00,0.0034
1832.00,0.0034
1831.00,0.0035
1830.00,0.0034
1829.00,0.0034
1828.00,0.0034
1827.00,0.0033
1826.00,0.0033
1825.00,0.0034
1824.00,0.0034
1823.00,0.0034
1822.00,0.0034
1821.00,0.0033
1820.00,0.0032
1819.00,0.0031
1818.00,0.0030
1817.00,0.0030
1816.00,0.0031
1815.00,0.0031
1814.00,0.0032
1813.00,0.0033
1812.00,0.0034
1811.00,0.0035
1810.00,0.0035
1809.00,0.0035
1808.00,0.0035
1807.00,0.0035
1806.00,0.0035
1805.00,0.0035
1804.00,0.0036
1803.00,0.0037
1802.00,0.0037
1801.00,0.0038
1800.00,0.0037
1799.00,0.0037
1798.00,0.0036
1797.00,0.0036
1796.00,0.0037
1795.00,0.0038
1794.00,0.0038
1793.00,0.0038
1792.00,0.0038
1791.00,0.0038
1790.00,0.0037
1789.00,0.0037
1788.00,0.0037
1787.00,0.0038
1786.00,0.0038
1785.00,0.0038
1784.00,0.0039
1783.00,0.0039
1782.00,0.0039
1781.00,0.0040
1780.00,0.0040
1779.00,0.0040
1778.00,0.0040
1777.00,0.0040
1776.00,0.0041
1775.00,0.0041
1774.00,0.0041
1773.00,0.0041
1772.00,0.0041
1771.00,0.0040
1770.00,0.0040
1769.00,0.0041
1768.00,0.0042
1767.00,0.0042
1766.00,0.0042
1765.00,0.0042
1764.00,0.0043
1763.00,0.0043
1762.00,0.0043
1761.00,0.0043
1760.00,0.0043
1759.00,0.0043
1758.00,0.0043
1757.00,0.0044
1756.00,0.0044
1755.00,0.0043
1754.00,0.0043
1753.00,0.0043
1752.00,0.0044
1751.00,0.0045
1750.00,0.0045
1749.00,0.0046
1748.00,0.0047
1747.00,0.0047
1746.00,0.0047
1745.00,0.0047
1744.00,0.0048
1743.00,0.0048
1742.00,0.0048
1741.00,0.0048
1740.00,0.0048
1739.00,0.0048
1738.00,0.0049
1737.00,0.0049
1736.00,0.0050
1735.00,0.0051
1734.00,0.0051
1733.00,0.0053
1732.00,0.0055
1731.00,0.0057
1730.00,0.0058
1729.00,0.0059
1728.00,0.0061
1727.00,0.0061
1726.00,0.0062
1725.00,0.0063
1724.00,0.0065
1723.00,0.0067
1722.00,0.0068
1721.00,0.0069
1720.00,0.0071
1719.00,0.0073
1718.00,0.0076
1717.00,0.0081
1716.00,0.0085
1715.00,0.0088
1714.00,0.0090
1713.00,0.0093
1712.00,0.0097
1711.00,0.0101
1710.00,0.0106
1709.00,0.0112
1708.00,0.0119
1707.00,0.0128
1706.00,0.0139
1705.00,0.0151
1704.00,0.0163
1703.00,0.0173
1702.00,0.0186
1701.00,0.0210
1700.00,0.0244
1699.00,0.0274
1698.00,0.0298
1697.00,0.0330
1696.00,0.0376
1695.00,0.0423
1694.00,0.0459
1693.00,0.0488
1692.00,0.0518
1691.00,0.0553
1690.00,0.0593
1689.00,0.0631
1688.00,0.0662
1687.00,0.0684
1686.00,0.0707
1685.00,0.0746
1684.00,0.0800
1683.00,0.0838
1682.00,0.0853
1681.00,0.0861
1680.00,0.0871
1679.00,0.0879
1678.00,0.0885
1677.00,0.0894
1676.00,0.0914
1675.00,0.0943
1674.00,0.0968
1673.00,0.0985
1672.00,0.1002
1671.00,0.1031
1670.00,0.1076
1669.00,0.1129
1668.00,0.1174
1667.00,0.1205
1666.00,0.1227
1665.00,0.1249
1664.00,0.1282
1663.00,0.1326
1662.00,0.1369
1661.00,0.1399
1660.00,0.1418
1659.00,0.1428
1658.00,0.1432
1657.00,0.1426
1656.00,0.1414
1655.00,0.1405
1654.00,0.1417
1653.00,0.1447
1652.00,0.1450
1651.00,0.1418
1650.00,0.1374
1649.00,0.1331
1648.00,0.1295
1647.00,0.1266
1646.00,0.1233
1645.00,0.1191
1644.00,0.1144
1643.00,0.1095
1642.00,0.1045
1641.00,0.0994
1640.00,0.0944
1639.00,0.0894
1638.00,0.0847
1637.00,0.0802
1636.00,0.0764
1635.00,0.0731
1634.00,0.0704
1633.00,0.0682
1632.00,0.0665
1631.00,0.0653
1630.00,0.0645
1629.00,0.0643
1628.00,0.0643
1627.00,0.0644
1626.00,0.0642
1625.00,0.0638
1624.00,0.0635
1623.00,0.0634
1622.00,0.0630
1621.00,0.0620
1620.00,0.0607
1619.00,0.0594
1618.00,0.0580
1617.00,0.0566
1616.00,0.0550
1615.00,0.0529
1614.00,0.0506
1613.00,0.0481
1612.00,0.0456
1611.00,0.0432
1610.00,0.0410
1609.00,0.0390
1608.00,0.0372
1607.00,0.0358
1606.00,0.0348
1605.00,0.0341
1604.00,0.0339
1603.00,0.0341
1602.00,0.0348
1601.00,0.0358
1600.00,0.0372
1599.00,0.0388
1598.00,0.0406
1597.00,0.0425
1596.00,0.0445
1595.00,0.0465
1594.00,0.0482
1593.00,0.0496
1592.00,0.0507
1591.00,0.0517
1590.00,0.0525
1589.00,0.0531
1588.00,0.0535
1587.00,0.0536
1586.00,0.0533
1585.00,0.0526
1584.00,0.0515
1583.00,0.0500
1582.00,0.0481
1581.00,0.0459
1580.00,0.0437
1579.00,0.0414
1578.00,0.0392
1577.00,0.0369
1576.00,0.0348
1575.00,0.0328
1574.00,0.0311
1573.00,0.0295
1572.00,0.0281
1571.00,0.0268
1570.00,0.0255
1569.00,0.0243
1568.00,0.0232
1567.00,0.0224
1566.00,0.0216
1565.00,0.0208
1564.00,0.0201
1563.00,0.0195
1562.00,0.0189
1561.00,0.0184
1560.00,0.0179
1559.00,0.0176
1558.00,0.0173
1557.00,0.0169
1556.00,0.0166
1555.00,0.0165
1554.00,0.0164
1553.00,0.0163
1552.00,0.0161
1551.00,0.0160
1550.00,0.0160
1549.00,0.0159
1548.00,0.0157
1547.00,0.0155
1546.00,0.0155
1545.00,0.0156
1544.00,0.0156
1543.00,0.0156
1542.00,0.0154
1541.00,0.0153
1540.00,0.0154
1539.00,0.0156
1538.00,0.0157
1537.00,0.0157
1536.00,0.0157
1535.00,0.0158
1534.00,0.0159
1533.00,0.0161
1532.00,0.0163
1531.00,0.0163
1530.00,0.0164
1529.00,0.0165
1528.00,0.0167
1527.00,0.0170
1526.00,0.0173
1525.00,0.0174
1524.00,0.0175
1523.00,0.0176
1522.00,0.0179
1521.00,0.0183
1520.00,0.0185
1519.00,0.0185
1518.00,0.0185
1517.00,0.0186
1516.00,0.0186
1515.00,0.0185
1514.00,0.0182
1513.00,0.0180
1512.00,0.0179
1511.00,0.0179
1510.00,0.0179
1509.00,0.0180
1508.00,0.0184
1507.00,0.0190
1506.00,0.0197
1505.00,0.0201
1504.00,0.0205
1503.00,0.0213
1502.00,0.0222
1501.00,0.0234
1500.00,0.0248
1499.00,0.0263
1498.00,0.0279
1497.00,0.0296
1496.00,0.0310
1495.00,0.0317
1494.00,0.0318
1493.00,0.0314
1492.00,0.0307
1491.00,0.0297
1490.00,0.0285
1489.00,0.0270
1488.00,0.0253
1487.00,0.0236
1486.00,0.0222
1485.00,0.0210
1484.00,0.0200
1483.00,0.0193
1482.00,0.0189
1481.00,0.0186
1480.00,0.0186
1479.00,0.0186
1478.00,0.0189
1477.00,0.0195
1476.00,0.0204
1475.00,0.0215
1474.00,0.0231
1473.00,0.0257
1472.00,0.0291
1471.00,0.0324
1470.00,0.0356
1469.00,0.0387
1468.00,0.0420
1467.00,0.0456
1466.00,0.0497
1465.00,0.0543
1464.00,0.0582
1463.00,0.0608
1462.00,0.0621
1461.00,0.0625
1460.00,0.0623
1459.00,0.0619
1458.00,0.0615
1457.00,0.0613
1456.00,0.0611
1455.00,0.0605
1454.00,0.0603
1453.00,0.0606
1452.00,0.0616
1451.00,0.0630
1450.00,0.0650
1449.00,0.0678
1448.00,0.0712
1447.00,0.0748
1446.00,0.0781
1445.00,0.0811
1444.00,0.0841
1443.00,0.0869
1442.00,0.0896
1441.00,0.0918
1440.00,0.0935
1439.00,0.0947
1438.00,0.0962
1437.00,0.0987
1436.00,0.1012
1435.00,0.1029
1434.00,0.1038
1433.00,0.1050
1432.00,0.1069
1431.00,0.1094
1430.00,0.1123
1429.00,0.1150
1428.00,0.1168
1427.00,0.1174
1426.00,0.1174
1425.00,0.1172
1424.00,0.1165
1423.00,0.1148
1422.00,0.1120
1421.00,0.1082
1420.00,0.1033
1419.00,0.0970
1418.00,0.0901
1417.00,0.0832
1416.00,0.0766
1415.00,0.0703
1414.00,0.0647
1413.00,0.0597
1412.00,0.0555
1411.00,0.0519
1410.00,0.0490
1409.00,0.0466
1408.00,0.0447
1407.00,0.0432
1406.00,0.0420
1405.00,0.0412
1404.00,0.0404
1403.00,0.0397
1402.00,0.0392
1401.00,0.0388
1400.00,0.0385
1399.00,0.0385
1398.00,0.0386
1397.00,0.0386
1396.00,0.0386
1395.00,0.0388
1394.00,0.0391
1393.00,0.0393
1392.00,0.0394
1391.00,0.0396
1390.00,0.0400
1389.00,0.0405
1388.00,0.0414
1387.00,0.0425
1386.00,0.0436
1385.00,0.0447
1384.00,0.0458
1383.00,0.0472
1382.00,0.0490
1381.00,0.0510
1380.00,0.0532
1379.00,0.0554
1378.00,0.0574
1377.00,0.0589
1376.00,0.0598
1375.00,0.0603
1374.00,0.0602
1373.00,0.0594
1372.00,0.0581
1371.00,0.0566
1370.00,0.0552
1369.00,0.0539
1368.00,0.0526
1367.00,0.0513
1366.00,0.0500
1365.00,0.0488
1364.00,0.0476
1363.00,0.0464
1362.00,0.0453
1361.00,0.0442
1360.00,0.0432
1359.00,0.0423
1358.00,0.0416
1357.00,0.0411
1356.00,0.0407
1355.00,0.0403
1354.00,0.0401
1353.00,0.0398
1352.00,0.0394
1351.00,0.0390
1350.00,0.0387
1349.00,0.0384
1348.00,0.0381
1347.00,0.0378
1346.00,0.0376
1345.00,0.0374
1344.00,0.0371
1343.00,0.0369
1342.00,0.0369
1341.00,0.0369
1340.00,0.0370
1339.00,0.0372
1338.00,0.0374
1337.00,0.0374
1336.00,0.0375
1335.00,0.0375
1334.00,0.0375
1333.00,0.0376
1332.00,0.0377
1331.00,0.0378
1330.00,0.0382
1329.00,0.0386
1328.00,0.0392
1327.00,0.0400
1326.00,0.0411
1325.00,0.0424
1324.00,0.0438
1323.00,0.0452
1322.00,0.0467
1321.00,0.0481
1320.00,0.0493
1319.00,0.0504
1318.00,0.0511
1317.00,0.0515
1316.00,0.0514
1315.00,0.0510
1314.00,0.0504
1313.00,0.0496
1312.00,0.0487
1311.00,0.0479
1310.00,0.0471
1309.00,0.0465
1308.00,0.0461
1307.00,0.0458
1306.00,0.0457
1305.00,0.0459
1304.00,0.0463
1303.00,0.0471
1302.00,0.0484
1301.00,0.0503
1300.00,0.0530
1299.00,0.0564
1298.00,0.0607
1297.00,0.0657
1296.00,0.0714
1295.00,0.0774
1294.00,0.0835
1293.00,0.0892
1292.00,0.0942
1291.00,0.0982
1290.00,0.1010
1289.00,0.1028
1288.00,0.1034
1287.00,0.1030
1286.00,0.1017
1285.00,0.0997
1284.00,0.0971
1283.00,0.0943
1282.00,0.0915
1281.00,0.0891
1280.00,0.0872
1279.00,0.0860
1278.00,0.0853
1277.00,0.0852
1276.00,0.0853
1275.00,0.0856
1274.00,0.0857
1273.00,0.0855
1272.00,0.0849
1271.00,0.0837
1270.00,0.0820
1269.00,0.0798
1268.00,0.0771
1267.00,0.0743
1266.00,0.0714
1265.00,0.0687
1264.00,0.0662
1263.00,0.0641
1262.00,0.0625
1261.00,0.0614
1260.00,0.0608
1259.00,0.0608
1258.00,0.0613
1257.00,0.0621
1256.00,0.0632
1255.00,0.0645
1254.00,0.0658
1253.00,0.0671
1252.00,0.0682
1251.00,0.0690
1250.00,0.0697
1249.00,0.0701
1248.00,0.0704
1247.00,0.0706
1246.00,0.0705
1245.00,0.0703
1244.00,0.0698
1243.00,0.0690
1242.00,0.0681
1241.00,0.0669
1240.00,0.0656
1239.00,0.0643
1238.00,0.0630
1237.00,0.0618
1236.00,0.0606
1235.00,0.0596
1234.00,0.0588
1233.00,0.0581
1232.00,0.0576
1231.00,0.0572
1230.00,0.0570
1229.00,0.0569
1228.00,0.0569
1227.00,0.0570
1226.00,0.0570
1225.00,0.0569
1224.00,0.0567
1223.00,0.0564
1222.00,0.0560
1221.00,0.0555
1220.00,0.0549
1219.00,0.0542
1218.00,0.0536
1217.00,0.0529
1216.00,0.0522
1215.00,0.0514
1214.00,0.0507
1213.00,0.0498
1212.00,0.0490
1211.00,0.0483
1210.00,0.0476
1209.00,0.0471
1208.00,0.0467
1207.00,0.0465
1206.00,0.0466
1205.00,0.0467
1204.00,0.0468
1203.00,0.0467
1202.00,0.0465
1201.00,0.0459
1200.00,0.0450
1199.00,0.0439
1198.00,0.0428
1197.00,0.0417
1196.00,0.0406
1195.00,0.0397
1194.00,0.0390
1193.00,0.0385
1192.00,0.0380
1191.00,0.0376
1190.00,0.0374
1189.00,0.0371
1188.00,0.0367
1187.00,0.0364
1186.00,0.0360
1185.00,0.0356
1184.00,0.0352
1183.00,0.0349
1182.00,0.0348
1181.00,0.0349
1180.00,0.0352
1179.00,0.0358
1178.00,0.0366
1177.00,0.0377
1176.00,0.0389
1175.00,0.0401
1174.00,0.0412
1173.00,0.0420
1172.00,0.0423
1171.00,0.0421
1170.00,0.0415
1169.00,0.0405
1168.00,0.0392
1167.00,0.0378
1166.00,0.0363
1165.00,0.0349
1164.00,0.0336
1163.00,0.0326
1162.00,0.0319
1161.00,0.0315
1160.00,0.0315
1159.00,0.0321
1158.00,0.0332
1157.00,0.0347
1156.00,0.0365
1155.00,0.0383
1154.00,0.0399
1153.00,0.0409
1152.00,0.0413
1151.00,0.0410
1150.00,0.0401
1149.00,0.0386
1148.00,0.0366
1147.00,0.0342
1146.00,0.0318
1145.00,0.0295
1144.00,0.0275
1143.00,0.0259
1142.00,0.0247
1141.00,0.0239
1140.00,0.0232
1139.00,0.0228
1138.00,0.0226
1137.00,0.0224
1136.00,0.0222
1135.00,0.0220
1134.00,0.0218
1133.00,0.0215
1132.00,0.0211
1131.00,0.0206
1130.00,0.0202
1129.00,0.0199
1128.00,0.0195
1127.00,0.0193
1126.00,0.0191
1125.00,0.0190
1124.00,0.0189
1123.00,0.0188
1122.00,0.0189
1121.00,0.0189
1120.00,0.0189
1119.00,0.0190
1118.00,0.0191
1117.00,0.0192
1116.00,0.0194
1115.00,0.0196
1114.00,0.0199
1113.00,0.0201
1112.00,0.0203
1111.00,0.0204
1110.00,0.0205
1109.00,0.0205
1108.00,0.0205
1107.00,0.0205
1106.00,0.0206
1105.00,0.0207
1104.00,0.0208
1103.00,0.0210
1102.00,0.0213
1101.00,0.0216
1100.00,0.0218
1099.00,0.0221
1098.00,0.0224
1097.00,0.0226
1096.00,0.0226
1095.00,0.0224
1094.00,0.0222
1093.00,0.0218
1092.00,0.0212
1091.00,0.0207
1090.00,0.0202
1089.00,0.0197
1088.00,0.0194
1087.00,0.0192
1086.00,0.0192
1085.00,0.0193
1084.00,0.0195
1083.00,0.0199
1082.00,0.0204
1081.00,0.0208
1080.00,0.0213
1079.00,0.0217
1078.00,0.0221
1077.00,0.0223
1076.00,0.0223
1075.00,0.0222
1074.00,0.0219
1073.00,0.0215
1072.00,0.0211
1071.00,0.0207
1070.00,0.0204
1069.00,0.0202
1068.00,0.0201
1067.00,0.0202
1066.00,0.0205
1065.00,0.0210
1064.00,0.0218
1063.00,0.0231
1062.00,0.0250
1061.00,0.0275
1060.00,0.0307
1059.00,0.0344
1058.00,0.0386
1057.00,0.0425
1056.00,0.0456
1055.00,0.0475
1054.00,0.0477
1053.00,0.0464
1052.00,0.0437
1051.00,0.0403
1050.00,0.0369
1049.00,0.0340
1048.00,0.0317
1047.00,0.0303
1046.00,0.0297
1045.00,0.0297
1044.00,0.0303
1043.00,0.0313
1042.00,0.0329
1041.00,0.0349
1040.00,0.0373
1039.00,0.0404
1038.00,0.0440
1037.00,0.0482
1036.00,0.0528
1035.00,0.0577
1034.00,0.0624
1033.00,0.0668
1032.00,0.0702
1031.00,0.0727
1030.00,0.0740
1029.00,0.0740
1028.00,0.0727
1027.00,0.0703
1026.00,0.0673
1025.00,0.0638
1024.00,0.0603
1023.00,0.0571
1022.00,0.0544
1021.00,0.0523
1020.00,0.0504
1019.00,0.0489
1018.00,0.0473
1017.00,0.0457
1016.00,0.0437
1015.00,0.0417
1014.00,0.0398
1013.00,0.0379
1012.00,0.0363
1011.00,0.0349
1010.00,0.0339
1009.00,0.0331
1008.00,0.0324
1007.00,0.0320
1006.00,0.0317
1005.00,0.0315
1004.00,0.0312
1003.00,0.0309
1002.00,0.0306
1001.00,0.0302
1000.00,0.0297
999.00,0.0291
998.00,0.0285
997.00,0.0278
996.00,0.0271
995.00,0.0265
994.00,0.0261
993.00,0.0258
992.00,0.0257
991.00,0.0257
990.00,0.0259
989.00,0.0260
988.00,0.0260
987.00,0.0259
986.00,0.0256
985.00,0.0252
984.00,0.0246
983.00,0.0239
982.00,0.0233
981.00,0.0226
980.00,0.0221
979.00,0.0217
978.00,0.0214
977.00,0.0211
976.00,0.0208
975.00,0.0206
974.00,0.0204
973.00,0.0203
972.00,0.0201
971.00,0.0200
970.00,0.0200
969.00,0.0201
968.00,0.0202
967.00,0.0203
966.00,0.0205
965.00,0.0206
964.00,0.0207
963.00,0.0207
962.00,0.0205
961.00,0.0202
960.00,0.0197
959.00,0.0191
958.00,0.0184
957.00,0.0176
956.00,0.0168
955.00,0.0160
954.00,0.0152
953.00,0.0145
952.00,0.0139
951.00,0.0135
950.00,0.0132
949.00,0.0130
948.00,0.0128
947.00,0.0126
946.00,0.0125
945.00,0.0125
944.00,0.0125
943.00,0.0126
942.00,0.0128
941.00,0.0131
940.00,0.0135
939.00,0.0140
938.00,0.0146
937.00,0.0153
936.00,0.0159
935.00,0.0166
934.00,0.0172
933.00,0.0177
932.00,0.0178
931.00,0.0178
930.00,0.0177
929.00,0.0174
928.00,0.0171
927.00,0.0169
926.00,0.0166
925.00,0.0165
924.00,0.0163
923.00,0.0162
922.00,0.0162
921.00,0.0164
920.00,0.0166
919.00,0.0169
918.00,0.0173
917.00,0.0177
916.00,0.0180
915.00,0.0183
914.00,0.0187
913.00,0.0191
912.00,0.0194
911.00,0.0197
910.00,0.0202
909.00,0.0209
908.00,0.0216
907.00,0.0226
906.00,0.0238
905.00,0.0251
904.00,0.0264
903.00,0.0277
902.00,0.0290
901.00,0.0301
900.00,0.0311
899.00,0.0319
898.00,0.0327
897.00,0.0335
896.00,0.0342
895.00,0.0350
894.00,0.0359
893.00,0.0368
892.00,0.0377
891.00,0.0386
890.00,0.0395
889.00,0.0404
888.00,0.0412
887.00,0.0420
886.00,0.0426
885.00,0.0431
884.00,0.0432
883.00,0.0431
882.00,0.0428
881.00,0.0423
880.00,0.0414
879.00,0.0404
878.00,0.0394
877.00,0.0381
876.00,0.0368
875.00,0.0354
874.00,0.0342
873.00,0.0332
872.00,0.0322
871.00,0.0316
870.00,0.0312
869.00,0.0310
868.00,0.0309
867.00,0.0311
866.00,0.0314
865.00,0.0318
864.00,0.0322
863.00,0.0326
862.00,0.0332
861.00,0.0338
860.00,0.0344
859.00,0.0352
858.00,0.0362
857.00,0.0372
856.00,0.0382
855.00,0.0393
854.00,0.0403
853.00,0.0412
852.00,0.0419
851.00,0.0425
850.00,0.0431
849.00,0.0436
848.00,0.0440
847.00,0.0442
846.00,0.0444
845.00,0.0446
844.00,0.0447
843.00,0.0448
842.00,0.0449
841.00,0.0451
840.00,0.0452
839.00,0.0454
838.00,0.0457
837.00,0.0460
836.00,0.0464
835.00,0.0469
834.00,0.0476
833.00,0.0482
832.00,0.0486
831.00,0.0488
830.00,0.0489
829.00,0.0487
828.00,0.0482
827.00,0.0474
826.00,0.0465
825.00,0.0453
824.00,0.0438
823.00,0.0422
822.00,0.0407
821.00,0.0391
820.00,0.0376
819.00,0.0363
818.00,0.0351
817.00,0.0341
816.00,0.0331
815.00,0.0323
814.00,0.0317
813.00,0.0312
812.00,0.0309
811.00,0.0308
810.00,0.0309
809.00,0.0311
808.00,0.0315
807.00,0.0320
806.00,0.0326
805.00,0.0329
804.00,0.0329
803.00,0.0325
802.00,0.0318
801.00,0.0309
800.00,0.0301
799.00,0.0296
798.00,0.0295
797.00,0.0296
796.00,0.0298
795.00,0.0301
794.00,0.0304
793.00,0.0305
792.00,0.0303
791.00,0.0300
790.00,0.0297
789.00,0.0293
788.00,0.0289
787.00,0.0284
786.00,0.0280
785.00,0.0277
784.00,0.0275
783.00,0.0274
782.00,0.0275
781.00,0.0277
780.00,0.0280
779.00,0.0284
778.00,0.0290
777.00,0.0297
776.00,0.0302
775.00,0.0308
774.00,0.0314
773.00,0.0319
772.00,0.0322
771.00,0.0325
770.00,0.0326
769.00,0.0327
768.00,0.0326
767.00,0.0326
766.00,0.0328
765.00,0.0330
764.00,0.0332
763.00,0.0336
762.00,0.0342
761.00,0.0349
760.00,0.0357
759.00,0.0365
758.00,0.0373
757.00,0.0379
756.00,0.0384
755.00,0.0387
754.00,0.0388
753.00,0.0387
752.00,0.0383
751.00,0.0379
750.00,0.0375
749.00,0.0373
748.00,0.0371
747.00,0.0371
746.00,0.0373
745.00,0.0376
744.00,0.0379
743.00,0.0384
742.00,0.0389
741.00,0.0395
740.00,0.0401
739.00,0.0407
738.00,0.0414
737.00,0.0420
736.00,0.0425
735.00,0.0429
734.00,0.0433
733.00,0.0436
732.00,0.0435
731.00,0.0432
730.00,0.0428
729.00,0.0421
728.00,0.0412
727.00,0.0404
726.00,0.0397
725.00,0.0390
724.00,0.0382
723.00,0.0375
722.00,0.0369
721.00,0.0364
720.00,0.0359
719.00,0.0355
718.00,0.0352
717.00,0.0350
716.00,0.0348
715.00,0.0347
714.00,0.0346
713.00,0.0345
712.00,0.0344
711.00,0.0342
710.00,0.0342
709.00,0.0342
708.00,0.0342
707.00,0.0342
706.00,0.0343
705.00,0.0345
704.00,0.0346
703.00,0.0346
702.00,0.0348
701.00,0.0349
700.00,0.0349
699.00,0.0350
698.00,0.0352
697.00,0.0355
696.00,0.0357
695.00,0.0359
694.00,0.0363
693.00,0.0367
692.00,0.0370
691.00,0.0373
690.00,0.0378
689.00,0.0383
688.00,0.0388
687.00,0.0392
686.00,0.0398
685.00,0.0405
684.00,0.0410
683.00,0.0415
682.00,0.0421
681.00,0.0427
680.00,0.0433
679.00,0.0438
678.00,0.0444
677.00,0.0450
676.00,0.0454
675.00,0.0458
674.00,0.0462
673.00,0.0466
672.00,0.0468
671.00,0.0469
670.00,0.0472
669.00,0.0478
668.00,0.0487
667.00,0.0498
666.00,0.0505
665.00,0.0509
664.00,0.0512
663.00,0.0516
662.00,0.0523
661.00,0.0530
660.00,0.0537
659.00,0.0544
658.00,0.0553
657.00,0.0563
656.00,0.0571
655.00,0.0580
654.00,0.0588
653.00,0.0596
652.00,0.0603
651.00,0.0607
650.00,0.0611
649.00,0.0613
648.00,0.0612
647.00,0.0608
646.00,0.0604
645.00,0.0597
644.00,0.0587
643.00,0.0577
642.00,0.0567
641.00,0.0556
640.00,0.0543
639.00,0.0531
638.00,0.0519
637.00,0.0507
636.00,0.0495
635.00,0.0484
634.00,0.0475
633.00,0.0467
632.00,0.0458
631.00,0.0450
630.00,0.0443
629.00,0.0436
628.00,0.0429
627.00,0.0423
626.00,0.0420
625.00,0.0417
624.00,0.0414
623.00,0.0412
622.00,0.0411
621.00,0.0411
620.00,0.0410
619.00,0.0409
618.00,0.0412
617.00,0.0414
616.00,0.0415
615.00,0.0417
614.00,0.0420
613.00,0.0423
612.00,0.0424
611.00,0.0424
610.00,0.0427
609.00,0.0430
608.00,0.0433
607.00,0.0436
606.00,0.0439
605.00,0.0442
604.00,0.0442
603.00,0.0442
602.00,0.0443
601.00,0.0445
600.00,0.0447
599.00,0.0448
598.00,0.0450
597.00,0.0451
596.00,0.0450
595.00,0.0451
594.00,0.0453
593.00,0.0455
592.00,0.0457
591.00,0.0459
590.00,0.0462
589.00,0.0466
588.00,0.0469
587.00,0.0474
586.00,0.0484
585.00,0.0496
584.00,0.0507
583.00,0.0520
582.00,0.0533
581.00,0.0545
580.00,0.0553
579.00,0.0558
578.00,0.0562
577.00,0.0563
576.00,0.0560
575.00,0.0556
574.00,0.0552
573.00,0.0547
572.00,0.0540
571.00,0.0532
570.00,0.0526
569.00,0.0520
568.00,0.0512
567.00,0.0504
566.00,0.0498
565.00,0.0493
564.00,0.0486
563.00,0.0481
562.00,0.0478
561.00,0.0476
560.00,0.0475
559.00,0.0478
558.00,0.0484
557.00,0.0489
556.00,0.0492
555.00,0.0495
554.00,0.0502
553.00,0.0511
552.00,0.0516
551.00,0.0518
550.00,0.0517
549.00,0.0513
548.00,0.0505
547.00,0.0498
546.00,0.0491
545.00,0.0484
544.00,0.0474
543.00,0.0465
542.00,0.0459
541.00,0.0455
540.00,0.0451
539.00,0.0451
538.00,0.0456
537.00,0.0460
536.00,0.0462
535.00,0.0462
534.00,0.0463
533.00,0.0464
532.00,0.0463
531.00,0.0462
530.00,0.0464
529.00,0.0468
528.00,0.0472
527.00,0.0480
526.00,0.0491
525.00,0.0499
524.00,0.0500
523.00,0.0497
522.00,0.0490
521.00,0.0480
520.00,0.0465
519.00,0.0449
518.00,0.0437
517.00,0.0426
516.00,0.0415
515.00,0.0406
514.00,0.0402
513.00,0.0399
512.00,0.0394
511.00,0.0390
510.00,0.0388
509.00,0.0386
508.00,0.0382
507.00,0.0379
506.00,0.0380
505.00,0.0380
504.00,0.0379
503.00,0.0379
502.00,0.0383
501.00,0.0385
500.00,0.0383
499.00,0.0382
498.00,0.0384
497.00,0.0387
496.00,0.0387
495.00,0.0390
494.00,0.0397
493.00,0.0404
492.00,0.0407
491.00,0.0407
490.00,0.0409
489.00,0.0411
488.00,0.0411
487.00,0.0414
486.00,0.0420
485.00,0.0425
484.00,0.0425
483.00,0.0425
482.00,0.0429
481.00,0.0429
480.00,0.0424
479.00,0.0417
478.00,0.0416
477.00,0.0415
476.00,0.0412
475.00,0.0410
474.00,0.0416
473.00,0.0423
472.00,0.0427
471.00,0.0431
470.00,0.0438
469.00,0.0441
468.00,0.0437
467.00,0.0431
466.00,0.0429
465.00,0.0427
464.00,0.0422
463.00,0.0418
462.00,0.0419
461.00,0.0418
460.00,0.0410
459.00,0.0403
458.00,0.0402
457.00,0.0400
456.00,0.0393
455.00,0.0390
454.00,0.0393
453.00,0.0394
452.00,0.0388
451.00,0.0384
450.00,0.0388
449.00,0.0393
448.00,0.0393
447.00,0.0392
446.00,0.0395
445.00,0.0396
444.00,0.0392
443.00,0.0390
442.00,0.0392
441.00,0.0392
440.00,0.0385
439.00,0.0383
438.00,0.0391
437.00,0.0400
436.00,0.0400
435.00,0.0399
434.00,0.0402
433.00,0.0404
432.00,0.0401
431.00,0.0402
430.00,0.0411
429.00,0.0421
428.00,0.0424
427.00,0.0425
426.00,0.0430
425.00,0.0431
424.00,0.0423
423.00,0.0415
422.00,0.0417
421.00,0.0419
420.00,0.0413
419.00,0.0413
418.00,0.0428
417.00,0.0436
416.00,0.0426
415.00,0.0413
414.00,0.0410
413.00,0.0408
412.00,0.0401
411.00,0.0397
410.00,0.0403
409.00,0.0408
408.00,0.0400
407.00,0.0398
406.00,0.0411
405.00,0.0422
404.00,0.0417
403.00,0.0410
402.00,0.0416
401.00,0.0422
400.00,0.0416
