Created as New Dataset,Sample 115 By YargerLab Date Friday, August 15 2025
cm-1,A
4000.00,0.0030
3999.00,0.0030
3998.00,0.0030
3997.00,0.0030
3996.00,0.0030
3995.00,0.0030
3994.00,0.0031
3993.00,0.0031
3992.00,0.0031
3991.00,0.0030
3990.00,0.0030
3989.00,0.0030
3988.00,0.0030
3987.00,0.0030
3986.00,0.0030
3985.00,0.0030
3984.00,0.0030
3983.00,0.0030
3982.00,0.0030
3981.00,0.0030
3980.00,0.0030
3979.00,0.0030
3978.00,0.0030
3977.00,0.0030
3976.00,0.0030
3975.00,0.0030
3974.00,0.0030
3973.00,0.0030
3972.00,0.0030
3971.00,0.0030
3970.00,0.0030
3969.00,0.0030
3968.00,0.0030
3967.00,0.0031
3966.00,0.0031
3965.00,0.0031
3964.00,0.0030
3963.00,0.0030
3962.00,0.0030
3961.00,0.0030
3960.00,0.0030
3959.00,0.0030
3958.00,0.0030
3957.00,0.0030
3956.00,0.0030
3955.00,0.0029
3954.00,0.0029
3953.00,0.0029
3952.00,0.0029
3951.00,0.0029
3950.00,0.0029
3949.00,0.0029
3948.00,0.0029
3947.00,0.0029
3946.00,0.0029
3945.00,0.0029
3944.00,0.0029
3943.00,0.0029
3942.00,0.0029
3941.00,0.0030
3940.00,0.0030
3939.00,0.0030
3938.00,0.0030
3937.00,0.0030
3936.00,0.0030
3935.00,0.0030
3934.00,0.0030
3933.00,0.0029
3932.00,0.0029
3931.00,0.0029
3930.00,0.0029
3929.00,0.0029
3928.00,0.0029
3927.00,0.0029
3926.00,0.0029
3925.00,0.0029
3924.00,0.0029
3923.00,0.0029
3922.00,0.0029
3921.00,0.0029
3920.00,0.0029
3919.00,0.0029
3918.00,0.0029
3917.00,0.0029
3916.00,0.0029
3915.00,0.0029
3914.00,0.0029
3913.00,0.0029
3912.00,0.0029
3911.00,0.0029
3910.00,0.0029
3909.00,0.0029
3908.00,0.0029
3907.00,0.0029
3906.00,0.0029
3905.00,0.0029
3904.00,0.0029
3903.00,0.0029
3902.00,0.0028
3901.00,0.0028
3900.00,0.0028
3899.00,0.0028
3898.00,0.0028
3897.00,0.0029
3896.00,0.0029
3895.00,0.0029
3894.00,0.0029
3893.00,0.0029
3892.00,0.0029
3891.00,0.0029
3890.00,0.0029
3889.00,0.0029
3888.00,0.0029
3887.00,0.0028
3886.00,0.0028
3885.00,0.0028
3884.00,0.0028
3883.00,0.0028
3882.00,0.0028
3881.00,0.0028
3880.00,0.0028
3879.00,0.0028
3878.00,0.0028
3877.00,0.0028
3876.00,0.0028
3875.00,0.0028
3874.00,0.0028
3873.00,0.0028
3872.00,0.0028
3871.00,0.0028
3870.00,0.0028
3869.00,0.0028
3868.00,0.0028
3867.00,0.0028
3866.00,0.0028
3865.00,0.0027
3864.00,0.0028
3863.00,0.0028
3862.00,0.0028
3861.00,0.0028
3860.00,0.0028
3859.00,0.0029
3858.00,0.0029
3857.00,0.0029
3856.00,0.0029
3855.00,0.0029
3854.00,0.0029
3853.00,0.0029
3852.00,0.0029
3851.00,0.0028
3850.00,0.0028
3849.00,0.0028
3848.00,0.0028
3847.00,0.0028
3846.00,0.0028
3845.00,0.0028
3844.00,0.0029
3843.00,0.0029
3842.00,0.0029
3841.00,0.0030
3840.00,0.0029
3839.00,0.0029
3838.00,0.0029
3837.00,0.0028
3836.00,0.0028
3835.00,0.0028
3834.00,0.0028
3833.00,0.0028
3832.00,0.0028
3831.00,0.0028
3830.00,0.0028
3829.00,0.0028
3828.00,0.0028
3827.00,0.0028
3826.00,0.0029
3825.00,0.0029
3824.00,0.0029
3823.00,0.0029
3822.00,0.0028
3821.00,0.0028
3820.00,0.0029
3819.00,0.0028
3818.00,0.0028
3817.00,0.0028
3816.00,0.0028
3815.00,0.0028
3814.00,0.0029
3813.00,0.0029
3812.00,0.0029
3811.00,0.0029
3810.00,0.0029
3809.00,0.0029
3808.00,0.0029
3807.00,0.0029
3806.00,0.0029
3805.00,0.0029
3804.00,0.0028
3803.00,0.0028
3802.00,0.0028
3801.00,0.0028
3800.00,0.0029
3799.00,0.0029
3798.00,0.0028
3797.00,0.0028
3796.00,0.0029
3795.00,0.0029
3794.00,0.0029
3793.00,0.0029
3792.00,0.0029
3791.00,0.0029
3790.00,0.0029
3789.00,0.0029
3788.00,0.0029
3787.00,0.0029
3786.00,0.0029
3785.00,0.0029
3784.00,0.0029
3783.00,0.0030
3782.00,0.0029
3781.00,0.0029
3780.00,0.0029
3779.00,0.0029
3778.00,0.0029
3777.00,0.0029
3776.00,0.0029
3775.00,0.0029
3774.00,0.0029
3773.00,0.0030
3772.00,0.0030
3771.00,0.0029
3770.00,0.0029
3769.00,0.0029
3768.00,0.0029
3767.00,0.0029
3766.00,0.0029
3765.00,0.0029
3764.00,0.0030
3763.00,0.0030
3762.00,0.0030
3761.00,0.0029
3760.00,0.0029
3759.00,0.0029
3758.00,0.0030
3757.00,0.0030
3756.00,0.0030
3755.00,0.0030
3754.00,0.0029
3753.00,0.0029
3752.00,0.0029
3751.00,0.0029
3750.00,0.0029
3749.00,0.0028
3748.00,0.0028
3747.00,0.0028
3746.00,0.0027
3745.00,0.0028
3744.00,0.0028
3743.00,0.0028
3742.00,0.0028
3741.00,0.0028
3740.00,0.0028
3739.00,0.0028
3738.00,0.0028
3737.00,0.0028
3736.00,0.0027
3735.00,0.0027
3734.00,0.0027
3733.00,0.0026
3732.00,0.0027
3731.00,0.0027
3730.00,0.0027
3729.00,0.0028
3728.00,0.0028
3727.00,0.0028
3726.00,0.0028
3725.00,0.0028
3724.00,0.0028
3723.00,0.0028
3722.00,0.0028
3721.00,0.0028
3720.00,0.0028
3719.00,0.0028
3718.00,0.0028
3717.00,0.0028
3716.00,0.0028
3715.00,0.0028
3714.00,0.0028
3713.00,0.0028
3712.00,0.0028
3711.00,0.0028
3710.00,0.0027
3709.00,0.0027
3708.00,0.0027
3707.00,0.0027
3706.00,0.0027
3705.00,0.0027
3704.00,0.0027
3703.00,0.0027
3702.00,0.0028
3701.00,0.0028
3700.00,0.0028
3699.00,0.0028
3698.00,0.0028
3697.00,0.0028
3696.00,0.0028
3695.00,0.0028
3694.00,0.0028
3693.00,0.0028
3692.00,0.0028
3691.00,0.0028
3690.00,0.0028
3689.00,0.0028
3688.00,0.0028
3687.00,0.0028
3686.00,0.0028
3685.00,0.0029
3684.00,0.0029
3683.00,0.0030
3682.00,0.0031
3681.00,0.0031
3680.00,0.0031
3679.00,0.0031
3678.00,0.0031
3677.00,0.0030
3676.00,0.0030
3675.00,0.0031
3674.00,0.0031
3673.00,0.0031
3672.00,0.0031
3671.00,0.0030
3670.00,0.0031
3669.00,0.0031
3668.00,0.0031
3667.00,0.0031
3666.00,0.0030
3665.00,0.0031
3664.00,0.0031
3663.00,0.0031
3662.00,0.0032
3661.00,0.0032
3660.00,0.0032
3659.00,0.0032
3658.00,0.0032
3657.00,0.0032
3656.00,0.0032
3655.00,0.0032
3654.00,0.0032
3653.00,0.0032
3652.00,0.0032
3651.00,0.0031
3650.00,0.0031
3649.00,0.0032
3648.00,0.0032
3647.00,0.0032
3646.00,0.0033
3645.00,0.0033
3644.00,0.0033
3643.00,0.0034
3642.00,0.0034
3641.00,0.0034
3640.00,0.0035
3639.00,0.0035
3638.00,0.0035
3637.00,0.0036
3636.00,0.0036
3635.00,0.0036
3634.00,0.0036
3633.00,0.0036
3632.00,0.0035
3631.00,0.0035
3630.00,0.0035
3629.00,0.0036
3628.00,0.0036
3627.00,0.0036
3626.00,0.0036
3625.00,0.0037
3624.00,0.0037
3623.00,0.0037
3622.00,0.0037
3621.00,0.0037
3620.00,0.0037
3619.00,0.0037
3618.00,0.0037
3617.00,0.0038
3616.00,0.0038
3615.00,0.0038
3614.00,0.0039
3613.00,0.0039
3612.00,0.0039
3611.00,0.0039
3610.00,0.0039
3609.00,0.0040
3608.00,0.0040
3607.00,0.0040
3606.00,0.0040
3605.00,0.0041
3604.00,0.0041
3603.00,0.0041
3602.00,0.0041
3601.00,0.0041
3600.00,0.0041
3599.00,0.0041
3598.00,0.0041
3597.00,0.0041
3596.00,0.0041
3595.00,0.0042
3594.00,0.0042
3593.00,0.0043
3592.00,0.0042
3591.00,0.0042
3590.00,0.0042
3589.00,0.0041
3588.00,0.0041
3587.00,0.0042
3586.00,0.0042
3585.00,0.0043
3584.00,0.0043
3583.00,0.0043
3582.00,0.0044
3581.00,0.0044
3580.00,0.0044
3579.00,0.0044
3578.00,0.0044
3577.00,0.0045
3576.00,0.0045
3575.00,0.0046
3574.00,0.0046
3573.00,0.0046
3572.00,0.0047
3571.00,0.0047
3570.00,0.0046
3569.00,0.0046
3568.00,0.0046
3567.00,0.0046
3566.00,0.0047
3565.00,0.0048
3564.00,0.0048
3563.00,0.0049
3562.00,0.0049
3561.00,0.0050
3560.00,0.0050
3559.00,0.0050
3558.00,0.0051
3557.00,0.0051
3556.00,0.0052
3555.00,0.0052
3554.00,0.0052
3553.00,0.0053
3552.00,0.0053
3551.00,0.0053
3550.00,0.0054
3549.00,0.0054
3548.00,0.0054
3547.00,0.0055
3546.00,0.0055
3545.00,0.0056
3544.00,0.0056
3543.00,0.0057
3542.00,0.0057
3541.00,0.0058
3540.00,0.0058
3539.00,0.0059
3538.00,0.0059
3537.00,0.0060
3536.00,0.0060
3535.00,0.0060
3534.00,0.0060
3533.00,0.0060
3532.00,0.0061
3531.00,0.0061
3530.00,0.0062
3529.00,0.0062
3528.00,0.0063
3527.00,0.0063
3526.00,0.0064
3525.00,0.0064
3524.00,0.0065
3523.00,0.0065
3522.00,0.0066
3521.00,0.0066
3520.00,0.0067
3519.00,0.0067
3518.00,0.0068
3517.00,0.0068
3516.00,0.0068
3515.00,0.0069
3514.00,0.0069
3513.00,0.0070
3512.00,0.0070
3511.00,0.0070
3510.00,0.0071
3509.00,0.0071
3508.00,0.0071
3507.00,0.0071
3506.00,0.0071
3505.00,0.0071
3504.00,0.0071
3503.00,0.0071
3502.00,0.0071
3501.00,0.0072
3500.00,0.0072
3499.00,0.0073
3498.00,0.0073
3497.00,0.0074
3496.00,0.0074
3495.00,0.0074
3494.00,0.0075
3493.00,0.0075
3492.00,0.0075
3491.00,0.0075
3490.00,0.0076
3489.00,0.0076
3488.00,0.0076
3487.00,0.0077
3486.00,0.0077
3485.00,0.0077
3484.00,0.0077
3483.00,0.0077
3482.00,0.0078
3481.00,0.0078
3480.00,0.0078
3479.00,0.0079
3478.00,0.0079
3477.00,0.0079
3476.00,0.0080
3475.00,0.0080
3474.00,0.0081
3473.00,0.0081
3472.00,0.0082
3471.00,0.0082
3470.00,0.0082
3469.00,0.0083
3468.00,0.0083
3467.00,0.0083
3466.00,0.0084
3465.00,0.0084
3464.00,0.0085
3463.00,0.0085
3462.00,0.0085
3461.00,0.0086
3460.00,0.0086
3459.00,0.0087
3458.00,0.0088
3457.00,0.0088
3456.00,0.0088
3455.00,0.0089
3454.00,0.0089
3453.00,0.0089
3452.00,0.0090
3451.00,0.0090
3450.00,0.0091
3449.00,0.0092
3448.00,0.0092
3447.00,0.0093
3446.00,0.0094
3445.00,0.0094
3444.00,0.0095
3443.00,0.0095
3442.00,0.0096
3441.00,0.0096
3440.00,0.0097
3439.00,0.0097
3438.00,0.0098
3437.00,0.0098
3436.00,0.0099
3435.00,0.0099
3434.00,0.0100
3433.00,0.0101
3432.00,0.0101
3431.00,0.0102
3430.00,0.0103
3429.00,0.0104
3428.00,0.0104
3427.00,0.0105
3426.00,0.0105
3425.00,0.0106
3424.00,0.0106
3423.00,0.0107
3422.00,0.0108
3421.00,0.0109
3420.00,0.0110
3419.00,0.0110
3418.00,0.0111
3417.00,0.0112
3416.00,0.0113
3415.00,0.0113
3414.00,0.0114
3413.00,0.0115
3412.00,0.0116
3411.00,0.0117
3410.00,0.0117
3409.00,0.0118
3408.00,0.0119
3407.00,0.0120
3406.00,0.0121
3405.00,0.0122
3404.00,0.0122
3403.00,0.0123
3402.00,0.0124
3401.00,0.0125
3400.00,0.0126
3399.00,0.0127
3398.00,0.0128
3397.00,0.0129
3396.00,0.0129
3395.00,0.0130
3394.00,0.0131
3393.00,0.0132
3392.00,0.0133
3391.00,0.0134
3390.00,0.0136
3389.00,0.0137
3388.00,0.0138
3387.00,0.0139
3386.00,0.0140
3385.00,0.0141
3384.00,0.0142
3383.00,0.0144
3382.00,0.0145
3381.00,0.0146
3380.00,0.0147
3379.00,0.0148
3378.00,0.0149
3377.00,0.0150
3376.00,0.0151
3375.00,0.0152
3374.00,0.0153
3373.00,0.0154
3372.00,0.0155
3371.00,0.0155
3370.00,0.0156
3369.00,0.0157
3368.00,0.0158
3367.00,0.0160
3366.00,0.0162
3365.00,0.0163
3364.00,0.0165
3363.00,0.0166
3362.00,0.0167
3361.00,0.0168
3360.00,0.0169
3359.00,0.0171
3358.00,0.0173
3357.00,0.0174
3356.00,0.0176
3355.00,0.0177
3354.00,0.0178
3353.00,0.0178
3352.00,0.0179
3351.00,0.0180
3350.00,0.0181
3349.00,0.0183
3348.00,0.0184
3347.00,0.0186
3346.00,0.0187
3345.00,0.0188
3344.00,0.0188
3343.00,0.0189
3342.00,0.0190
3341.00,0.0191
3340.00,0.0192
3339.00,0.0194
3338.00,0.0195
3337.00,0.0197
3336.00,0.0199
3335.00,0.0200
3334.00,0.0202
3333.00,0.0203
3332.00,0.0204
3331.00,0.0205
3330.00,0.0206
3329.00,0.0207
3328.00,0.0208
3327.00,0.0209
3326.00,0.0210
3325.00,0.0211
3324.00,0.0213
3323.00,0.0215
3322.00,0.0216
3321.00,0.0218
3320.00,0.0219
3319.00,0.0220
3318.00,0.0221
3317.00,0.0222
3316.00,0.0223
3315.00,0.0224
3314.00,0.0225
3313.00,0.0226
3312.00,0.0226
3311.00,0.0227
3310.00,0.0227
3309.00,0.0227
3308.00,0.0227
3307.00,0.0228
3306.00,0.0229
3305.00,0.0231
3304.00,0.0233
3303.00,0.0235
3302.00,0.0237
3301.00,0.0239
3300.00,0.0240
3299.00,0.0240
3298.00,0.0240
3297.00,0.0240
3296.00,0.0240
3295.00,0.0241
3294.00,0.0241
3293.00,0.0242
3292.00,0.0244
3291.00,0.0245
3290.00,0.0247
3289.00,0.0248
3288.00,0.0249
3287.00,0.0250
3286.00,0.0250
3285.00,0.0251
3284.00,0.0251
3283.00,0.0252
3282.00,0.0252
3281.00,0.0253
3280.00,0.0254
3279.00,0.0254
3278.00,0.0255
3277.00,0.0255
3276.00,0.0255
3275.00,0.0256
3274.00,0.0256
3273.00,0.0257
3272.00,0.0257
3271.00,0.0258
3270.00,0.0258
3269.00,0.0259
3268.00,0.0260
3267.00,0.0260
3266.00,0.0261
3265.00,0.0262
3264.00,0.0262
3263.00,0.0263
3262.00,0.0263
3261.00,0.0263
3260.00,0.0264
3259.00,0.0264
3258.00,0.0265
3257.00,0.0265
3256.00,0.0266
3255.00,0.0266
3254.00,0.0267
3253.00,0.0268
3252.00,0.0268
3251.00,0.0269
3250.00,0.0269
3249.00,0.0269
3248.00,0.0269
3247.00,0.0269
3246.00,0.0270
3245.00,0.0271
3244.00,0.0272
3243.00,0.0273
3242.00,0.0273
3241.00,0.0273
3240.00,0.0274
3239.00,0.0274
3238.00,0.0274
3237.00,0.0274
3236.00,0.0274
3235.00,0.0273
3234.00,0.0273
3233.00,0.0274
3232.00,0.0274
3231.00,0.0275
3230.00,0.0276
3229.00,0.0276
3228.00,0.0277
3227.00,0.0277
3226.00,0.0277
3225.00,0.0278
3224.00,0.0278
3223.00,0.0278
3222.00,0.0278
3221.00,0.0278
3220.00,0.0278
3219.00,0.0278
3218.00,0.0278
3217.00,0.0278
3216.00,0.0278
3215.00,0.0278
3214.00,0.0278
3213.00,0.0278
3212.00,0.0279
3211.00,0.0279
3210.00,0.0279
3209.00,0.0279
3208.00,0.0279
3207.00,0.0278
3206.00,0.0278
3205.00,0.0278
3204.00,0.0278
3203.00,0.0278
3202.00,0.0279
3201.00,0.0279
3200.00,0.0279
3199.00,0.0279
3198.00,0.0279
3197.00,0.0279
3196.00,0.0279
3195.00,0.0279
3194.00,0.0279
3193.00,0.0279
3192.00,0.0279
3191.00,0.0279
3190.00,0.0279
3189.00,0.0278
3188.00,0.0278
3187.00,0.0278
3186.00,0.0278
3185.00,0.0278
3184.00,0.0279
3183.00,0.0278
3182.00,0.0278
3181.00,0.0278
3180.00,0.0278
3179.00,0.0278
3178.00,0.0278
3177.00,0.0278
3176.00,0.0277
3175.00,0.0277
3174.00,0.0277
3173.00,0.0276
3172.00,0.0276
3171.00,0.0276
3170.00,0.0275
3169.00,0.0275
3168.00,0.0274
3167.00,0.0274
3166.00,0.0274
3165.00,0.0273
3164.00,0.0273
3163.00,0.0272
3162.00,0.0271
3161.00,0.0271
3160.00,0.0270
3159.00,0.0270
3158.00,0.0269
3157.00,0.0269
3156.00,0.0268
3155.00,0.0267
3154.00,0.0267
3153.00,0.0266
3152.00,0.0265
3151.00,0.0265
3150.00,0.0265
3149.00,0.0264
3148.00,0.0264
3147.00,0.0263
3146.00,0.0262
3145.00,0.0261
3144.00,0.0261
3143.00,0.0260
3142.00,0.0259
3141.00,0.0259
3140.00,0.0258
3139.00,0.0258
3138.00,0.0257
3137.00,0.0257
3136.00,0.0257
3135.00,0.0256
3134.00,0.0256
3133.00,0.0255
3132.00,0.0255
3131.00,0.0255
3130.00,0.0254
3129.00,0.0254
3128.00,0.0254
3127.00,0.0254
3126.00,0.0254
3125.00,0.0253
3124.00,0.0253
3123.00,0.0252
3122.00,0.0251
3121.00,0.0251
3120.00,0.0250
3119.00,0.0250
3118.00,0.0249
3117.00,0.0248
3116.00,0.0248
3115.00,0.0247
3114.00,0.0246
3113.00,0.0245
3112.00,0.0244
3111.00,0.0243
3110.00,0.0242
3109.00,0.0241
3108.00,0.0240
3107.00,0.0239
3106.00,0.0238
3105.00,0.0237
3104.00,0.0237
3103.00,0.0236
3102.00,0.0235
3101.00,0.0235
3100.00,0.0234
3099.00,0.0234
3098.00,0.0234
3097.00,0.0233
3096.00,0.0233
3095.00,0.0233
3094.00,0.0233
3093.00,0.0233
3092.00,0.0233
3091.00,0.0233
3090.00,0.0234
3089.00,0.0234
3088.00,0.0234
3087.00,0.0235
3086.00,0.0235
3085.00,0.0235
3084.00,0.0235
3083.00,0.0235
3082.00,0.0236
3081.00,0.0236
3080.00,0.0236
3079.00,0.0236
3078.00,0.0236
3077.00,0.0235
3076.00,0.0234
3075.00,0.0233
3074.00,0.0232
3073.00,0.0231
3072.00,0.0230
3071.00,0.0229
3070.00,0.0228
3069.00,0.0226
3068.00,0.0225
3067.00,0.0224
3066.00,0.0223
3065.00,0.0223
3064.00,0.0222
3063.00,0.0221
3062.00,0.0220
3061.00,0.0219
3060.00,0.0218
3059.00,0.0217
3058.00,0.0216
3057.00,0.0216
3056.00,0.0215
3055.00,0.0215
3054.00,0.0214
3053.00,0.0213
3052.00,0.0213
3051.00,0.0212
3050.00,0.0212
3049.00,0.0212
3048.00,0.0211
3047.00,0.0211
3046.00,0.0210
3045.00,0.0210
3044.00,0.0209
3043.00,0.0209
3042.00,0.0208
3041.00,0.0208
3040.00,0.0208
3039.00,0.0207
3038.00,0.0207
3037.00,0.0207
3036.00,0.0207
3035.00,0.0206
3034.00,0.0206
3033.00,0.0206
3032.00,0.0205
3031.00,0.0205
3030.00,0.0204
3029.00,0.0203
3028.00,0.0202
3027.00,0.0200
3026.00,0.0199
3025.00,0.0198
3024.00,0.0197
3023.00,0.0196
3022.00,0.0194
3021.00,0.0193
3020.00,0.0192
3019.00,0.0191
3018.00,0.0190
3017.00,0.0190
3016.00,0.0189
3015.00,0.0189
3014.00,0.0189
3013.00,0.0189
3012.00,0.0189
3011.00,0.0190
3010.00,0.0191
3009.00,0.0192
3008.00,0.0194
3007.00,0.0195
3006.00,0.0198
3005.00,0.0200
3004.00,0.0203
3003.00,0.0206
3002.00,0.0210
3001.00,0.0214
3000.00,0.0219
2999.00,0.0225
2998.00,0.0231
2997.00,0.0238
2996.00,0.0245
2995.00,0.0253
2994.00,0.0262
2993.00,0.0271
2992.00,0.0281
2991.00,0.0290
2990.00,0.0300
2989.00,0.0310
2988.00,0.0320
2987.00,0.0330
2986.00,0.0339
2985.00,0.0348
2984.00,0.0356
2983.00,0.0363
2982.00,0.0370
2981.00,0.0376
2980.00,0.0382
2979.00,0.0387
2978.00,0.0392
2977.00,0.0395
2976.00,0.0399
2975.00,0.0402
2974.00,0.0405
2973.00,0.0408
2972.00,0.0413
2971.00,0.0418
2970.00,0.0424
2969.00,0.0431
2968.00,0.0438
2967.00,0.0446
2966.00,0.0454
2965.00,0.0462
2964.00,0.0470
2963.00,0.0478
2962.00,0.0486
2961.00,0.0494
2960.00,0.0501
2959.00,0.0507
2958.00,0.0513
2957.00,0.0517
2956.00,0.0520
2955.00,0.0521
2954.00,0.0521
2953.00,0.0519
2952.00,0.0515
2951.00,0.0511
2950.00,0.0506
2949.00,0.0502
2948.00,0.0498
2947.00,0.0496
2946.00,0.0495
2945.00,0.0497
2944.00,0.0502
2943.00,0.0508
2942.00,0.0517
2941.00,0.0527
2940.00,0.0538
2939.00,0.0550
2938.00,0.0563
2937.00,0.0576
2936.00,0.0589
2935.00,0.0602
2934.00,0.0615
2933.00,0.0628
2932.00,0.0640
2931.00,0.0651
2930.00,0.0660
2929.00,0.0667
2928.00,0.0672
2927.00,0.0675
2926.00,0.0675
2925.00,0.0673
2924.00,0.0669
2923.00,0.0663
2922.00,0.0655
2921.00,0.0645
2920.00,0.0634
2919.00,0.0622
2918.00,0.0609
2917.00,0.0595
2916.00,0.0581
2915.00,0.0567
2914.00,0.0553
2913.00,0.0539
2912.00,0.0525
2911.00,0.0513
2910.00,0.0500
2909.00,0.0488
2908.00,0.0477
2907.00,0.0467
2906.00,0.0457
2905.00,0.0449
2904.00,0.0440
2903.00,0.0433
2902.00,0.0426
2901.00,0.0420
2900.00,0.0414
2899.00,0.0409
2898.00,0.0405
2897.00,0.0400
2896.00,0.0396
2895.00,0.0392
2894.00,0.0388
2893.00,0.0385
2892.00,0.0381
2891.00,0.0378
2890.00,0.0374
2889.00,0.0371
2888.00,0.0367
2887.00,0.0364
2886.00,0.0362
2885.00,0.0360
2884.00,0.0358
2883.00,0.0358
2882.00,0.0358
2881.00,0.0359
2880.00,0.0362
2879.00,0.0365
2878.00,0.0370
2877.00,0.0376
2876.00,0.0383
2875.00,0.0390
2874.00,0.0398
2873.00,0.0406
2872.00,0.0412
2871.00,0.0417
2870.00,0.0420
2869.00,0.0422
2868.00,0.0423
2867.00,0.0423
2866.00,0.0424
2865.00,0.0427
2864.00,0.0431
2863.00,0.0437
2862.00,0.0444
2861.00,0.0451
2860.00,0.0458
2859.00,0.0464
2858.00,0.0468
2857.00,0.0470
2856.00,0.0468
2855.00,0.0463
2854.00,0.0455
2853.00,0.0445
2852.00,0.0433
2851.00,0.0419
2850.00,0.0405
2849.00,0.0390
2848.00,0.0374
2847.00,0.0359
2846.00,0.0344
2845.00,0.0329
2844.00,0.0314
2843.00,0.0300
2842.00,0.0287
2841.00,0.0274
2840.00,0.0263
2839.00,0.0253
2838.00,0.0244
2837.00,0.0237
2836.00,0.0230
2835.00,0.0225
2834.00,0.0219
2833.00,0.0214
2832.00,0.0209
2831.00,0.0205
2830.00,0.0201
2829.00,0.0197
2828.00,0.0193
2827.00,0.0189
2826.00,0.0186
2825.00,0.0182
2824.00,0.0179
2823.00,0.0176
2822.00,0.0173
2821.00,0.0171
2820.00,0.0168
2819.00,0.0165
2818.00,0.0163
2817.00,0.0161
2816.00,0.0159
2815.00,0.0157
2814.00,0.0155
2813.00,0.0153
2812.00,0.0152
2811.00,0.0150
2810.00,0.0149
2809.00,0.0148
2808.00,0.0147
2807.00,0.0146
2806.00,0.0145
2805.00,0.0143
2804.00,0.0142
2803.00,0.0141
2802.00,0.0140
2801.00,0.0139
2800.00,0.0137
2799.00,0.0136
2798.00,0.0135
2797.00,0.0134
2796.00,0.0133
2795.00,0.0132
2794.00,0.0131
2793.00,0.0130
2792.00,0.0130
2791.00,0.0129
2790.00,0.0128
2789.00,0.0128
2788.00,0.0127
2787.00,0.0127
2786.00,0.0126
2785.00,0.0125
2784.00,0.0125
2783.00,0.0124
2782.00,0.0123
2781.00,0.0122
2780.00,0.0122
2779.00,0.0121
2778.00,0.0121
2777.00,0.0120
2776.00,0.0120
2775.00,0.0119
2774.00,0.0119
2773.00,0.0119
2772.00,0.0118
2771.00,0.0118
2770.00,0.0117
2769.00,0.0117
2768.00,0.0117
2767.00,0.0116
2766.00,0.0116
2765.00,0.0116
2764.00,0.0117
2763.00,0.0117
2762.00,0.0117
2761.00,0.0117
2760.00,0.0117
2759.00,0.0117
2758.00,0.0117
2757.00,0.0117
2756.00,0.0117
2755.00,0.0117
2754.00,0.0117
2753.00,0.0117
2752.00,0.0118
2751.00,0.0118
2750.00,0.0118
2749.00,0.0118
2748.00,0.0118
2747.00,0.0119
2746.00,0.0119
2745.00,0.0119
2744.00,0.0120
2743.00,0.0120
2742.00,0.0120
2741.00,0.0121
2740.00,0.0121
2739.00,0.0121
2738.00,0.0122
2737.00,0.0122
2736.00,0.0122
2735.00,0.0123
2734.00,0.0123
2733.00,0.0123
2732.00,0.0124
2731.00,0.0124
2730.00,0.0123
2729.00,0.0123
2728.00,0.0122
2727.00,0.0122
2726.00,0.0121
2725.00,0.0121
2724.00,0.0120
2723.00,0.0120
2722.00,0.0119
2721.00,0.0119
2720.00,0.0118
2719.00,0.0117
2718.00,0.0117
2717.00,0.0116
2716.00,0.0115
2715.00,0.0115
2714.00,0.0115
2713.00,0.0114
2712.00,0.0114
2711.00,0.0113
2710.00,0.0113
2709.00,0.0112
2708.00,0.0112
2707.00,0.0112
2706.00,0.0111
2705.00,0.0111
2704.00,0.0110
2703.00,0.0110
2702.00,0.0110
2701.00,0.0109
2700.00,0.0109
2699.00,0.0108
2698.00,0.0107
2697.00,0.0107
2696.00,0.0106
2695.00,0.0106
2694.00,0.0105
2693.00,0.0105
2692.00,0.0105
2691.00,0.0104
2690.00,0.0104
2689.00,0.0104
2688.00,0.0104
2687.00,0.0103
2686.00,0.0103
2685.00,0.0103
2684.00,0.0102
2683.00,0.0102
2682.00,0.0101
2681.00,0.0101
2680.00,0.0101
2679.00,0.0101
2678.00,0.0101
2677.00,0.0101
2676.00,0.0101
2675.00,0.0101
2674.00,0.0101
2673.00,0.0101
2672.00,0.0101
2671.00,0.0101
2670.00,0.0101
2669.00,0.0101
2668.00,0.0101
2667.00,0.0101
2666.00,0.0101
2665.00,0.0102
2664.00,0.0102
2663.00,0.0102
2662.00,0.0103
2661.00,0.0103
2660.00,0.0103
2659.00,0.0102
2658.00,0.0102
2657.00,0.0102
2656.00,0.0101
2655.00,0.0101
2654.00,0.0101
2653.00,0.0101
2652.00,0.0101
2651.00,0.0101
2650.00,0.0100
2649.00,0.0100
2648.00,0.0100
2647.00,0.0099
2646.00,0.0099
2645.00,0.0099
2644.00,0.0098
2643.00,0.0098
2642.00,0.0098
2641.00,0.0097
2640.00,0.0097
2639.00,0.0096
2638.00,0.0096
2637.00,0.0095
2636.00,0.0095
2635.00,0.0095
2634.00,0.0094
2633.00,0.0094
2632.00,0.0094
2631.00,0.0094
2630.00,0.0093
2629.00,0.0093
2628.00,0.0092
2627.00,0.0092
2626.00,0.0092
2625.00,0.0092
2624.00,0.0092
2623.00,0.0092
2622.00,0.0092
2621.00,0.0091
2620.00,0.0091
2619.00,0.0091
2618.00,0.0091
2617.00,0.0090
2616.00,0.0090
2615.00,0.0091
2614.00,0.0091
2613.00,0.0091
2612.00,0.0090
2611.00,0.0090
2610.00,0.0089
2609.00,0.0089
2608.00,0.0089
2607.00,0.0088
2606.00,0.0088
2605.00,0.0088
2604.00,0.0089
2603.00,0.0088
2602.00,0.0088
2601.00,0.0088
2600.00,0.0087
2599.00,0.0087
2598.00,0.0087
2597.00,0.0086
2596.00,0.0086
2595.00,0.0086
2594.00,0.0085
2593.00,0.0085
2592.00,0.0085
2591.00,0.0085
2590.00,0.0085
2589.00,0.0085
2588.00,0.0085
2587.00,0.0085
2586.00,0.0085
2585.00,0.0084
2584.00,0.0085
2583.00,0.0085
2582.00,0.0084
2581.00,0.0084
2580.00,0.0084
2579.00,0.0084
2578.00,0.0083
2577.00,0.0083
2576.00,0.0083
2575.00,0.0083
2574.00,0.0083
2573.00,0.0082
2572.00,0.0082
2571.00,0.0082
2570.00,0.0082
2569.00,0.0082
2568.00,0.0082
2567.00,0.0081
2566.00,0.0081
2565.00,0.0080
2564.00,0.0080
2563.00,0.0080
2562.00,0.0079
2561.00,0.0079
2560.00,0.0079
2559.00,0.0079
2558.00,0.0078
2557.00,0.0078
2556.00,0.0078
2555.00,0.0078
2554.00,0.0078
2553.00,0.0077
2552.00,0.0077
2551.00,0.0077
2550.00,0.0077
2549.00,0.0077
2548.00,0.0077
2547.00,0.0076
2546.00,0.0076
2545.00,0.0076
2544.00,0.0075
2543.00,0.0075
2542.00,0.0075
2541.00,0.0075
2540.00,0.0074
2539.00,0.0074
2538.00,0.0073
2537.00,0.0073
2536.00,0.0073
2535.00,0.0072
2534.00,0.0072
2533.00,0.0071
2532.00,0.0071
2531.00,0.0071
2530.00,0.0071
2529.00,0.0070
2528.00,0.0070
2527.00,0.0069
2526.00,0.0069
2525.00,0.0068
2524.00,0.0067
2523.00,0.0067
2522.00,0.0066
2521.00,0.0065
2520.00,0.0065
2519.00,0.0064
2518.00,0.0064
2517.00,0.0064
2516.00,0.0063
2515.00,0.0063
2514.00,0.0062
2513.00,0.0062
2512.00,0.0062
2511.00,0.0062
2510.00,0.0061
2509.00,0.0061
2508.00,0.0061
2507.00,0.0061
2506.00,0.0061
2505.00,0.0060
2504.00,0.0060
2503.00,0.0059
2502.00,0.0059
2501.00,0.0059
2500.00,0.0059
2499.00,0.0059
2498.00,0.0059
2497.00,0.0059
2496.00,0.0060
2495.00,0.0060
2494.00,0.0059
2493.00,0.0059
2492.00,0.0059
2491.00,0.0058
2490.00,0.0058
2489.00,0.0058
2488.00,0.0058
2487.00,0.0058
2486.00,0.0058
2485.00,0.0058
2484.00,0.0058
2483.00,0.0057
2482.00,0.0057
2481.00,0.0057
2480.00,0.0057
2479.00,0.0056
2478.00,0.0056
2477.00,0.0056
2476.00,0.0056
2475.00,0.0056
2474.00,0.0056
2473.00,0.0056
2472.00,0.0056
2471.00,0.0056
2470.00,0.0055
2469.00,0.0055
2468.00,0.0055
2467.00,0.0055
2466.00,0.0056
2465.00,0.0056
2464.00,0.0056
2463.00,0.0055
2462.00,0.0055
2461.00,0.0055
2460.00,0.0056
2459.00,0.0056
2458.00,0.0056
2457.00,0.0056
2456.00,0.0056
2455.00,0.0056
2454.00,0.0056
2453.00,0.0055
2452.00,0.0055
2451.00,0.0055
2450.00,0.0055
2449.00,0.0054
2448.00,0.0054
2447.00,0.0054
2446.00,0.0054
2445.00,0.0054
2444.00,0.0053
2443.00,0.0053
2442.00,0.0053
2441.00,0.0053
2440.00,0.0053
2439.00,0.0052
2438.00,0.0052
2437.00,0.0052
2436.00,0.0052
2435.00,0.0052
2434.00,0.0052
2433.00,0.0052
2432.00,0.0052
2431.00,0.0052
2430.00,0.0052
2429.00,0.0052
2428.00,0.0052
2427.00,0.0052
2426.00,0.0051
2425.00,0.0051
2424.00,0.0051
2423.00,0.0051
2422.00,0.0051
2421.00,0.0051
2420.00,0.0051
2419.00,0.0051
2418.00,0.0050
2417.00,0.0050
2416.00,0.0050
2415.00,0.0050
2414.00,0.0050
2413.00,0.0051
2412.00,0.0051
2411.00,0.0051
2410.00,0.0051
2409.00,0.0050
2408.00,0.0049
2407.00,0.0049
2406.00,0.0048
2405.00,0.0048
2404.00,0.0047
2403.00,0.0048
2402.00,0.0048
2401.00,0.0048
2400.00,0.0048
2399.00,0.0048
2398.00,0.0048
2397.00,0.0048
2396.00,0.0048
2395.00,0.0048
2394.00,0.0048
2393.00,0.0048
2392.00,0.0047
2391.00,0.0047
2390.00,0.0047
2389.00,0.0046
2388.00,0.0046
2387.00,0.0045
2386.00,0.0045
2385.00,0.0045
2384.00,0.0044
2383.00,0.0043
2382.00,0.0043
2381.00,0.0042
2380.00,0.0042
2379.00,0.0042
2378.00,0.0042
2377.00,0.0043
2376.00,0.0043
2375.00,0.0044
2374.00,0.0044
2373.00,0.0044
2372.00,0.0043
2371.00,0.0043
2370.00,0.0042
2369.00,0.0042
2368.00,0.0042
2367.00,0.0042
2366.00,0.0042
2365.00,0.0042
2364.00,0.0042
2363.00,0.0043
2362.00,0.0044
2361.00,0.0044
2360.00,0.0044
2359.00,0.0043
2358.00,0.0043
2357.00,0.0043
2356.00,0.0043
2355.00,0.0043
2354.00,0.0043
2353.00,0.0042
2352.00,0.0042
2351.00,0.0042
2350.00,0.0043
2349.00,0.0044
2348.00,0.0045
2347.00,0.0046
2346.00,0.0046
2345.00,0.0045
2344.00,0.0045
2343.00,0.0045
2342.00,0.0046
2341.00,0.0046
2340.00,0.0047
2339.00,0.0047
2338.00,0.0047
2337.00,0.0046
2336.00,0.0046
2335.00,0.0047
2334.00,0.0046
2333.00,0.0046
2332.00,0.0046
2331.00,0.0045
2330.00,0.0046
2329.00,0.0049
2328.00,0.0053
2327.00,0.0059
2326.00,0.0062
2325.00,0.0063
2324.00,0.0061
2323.00,0.0059
2322.00,0.0056
2321.00,0.0055
2320.00,0.0055
2319.00,0.0055
2318.00,0.0054
2317.00,0.0054
2316.00,0.0053
2315.00,0.0052
2314.00,0.0051
2313.00,0.0050
2312.00,0.0049
2311.00,0.0048
2310.00,0.0048
2309.00,0.0048
2308.00,0.0048
2307.00,0.0049
2306.00,0.0049
2305.00,0.0049
2304.00,0.0049
2303.00,0.0049
2302.00,0.0049
2301.00,0.0050
2300.00,0.0051
2299.00,0.0051
2298.00,0.0052
2297.00,0.0053
2296.00,0.0053
2295.00,0.0054
2294.00,0.0055
2293.00,0.0056
2292.00,0.0057
2291.00,0.0057
2290.00,0.0058
2289.00,0.0058
2288.00,0.0058
2287.00,0.0058
2286.00,0.0058
2285.00,0.0057
2284.00,0.0056
2283.00,0.0056
2282.00,0.0055
2281.00,0.0055
2280.00,0.0054
2279.00,0.0053
2278.00,0.0052
2277.00,0.0052
2276.00,0.0051
2275.00,0.0051
2274.00,0.0050
2273.00,0.0050
2272.00,0.0050
2271.00,0.0049
2270.00,0.0048
2269.00,0.0047
2268.00,0.0046
2267.00,0.0046
2266.00,0.0045
2265.00,0.0045
2264.00,0.0045
2263.00,0.0045
2262.00,0.0045
2261.00,0.0046
2260.00,0.0046
2259.00,0.0046
2258.00,0.0046
2257.00,0.0045
2256.00,0.0044
2255.00,0.0043
2254.00,0.0042
2253.00,0.0043
2252.00,0.0043
2251.00,0.0044
2250.00,0.0044
2249.00,0.0045
2248.00,0.0046
2247.00,0.0046
2246.00,0.0045
2245.00,0.0045
2244.00,0.0044
2243.00,0.0045
2242.00,0.0045
2241.00,0.0046
2240.00,0.0046
2239.00,0.0046
2238.00,0.0046
2237.00,0.0046
2236.00,0.0046
2235.00,0.0045
2234.00,0.0044
2233.00,0.0044
2232.00,0.0044
2231.00,0.0044
2230.00,0.0044
2229.00,0.0044
2228.00,0.0045
2227.00,0.0045
2226.00,0.0045
2225.00,0.0045
2224.00,0.0044
2223.00,0.0043
2222.00,0.0042
2221.00,0.0042
2220.00,0.0042
2219.00,0.0043
2218.00,0.0042
2217.00,0.0042
2216.00,0.0043
2215.00,0.0043
2214.00,0.0044
2213.00,0.0044
2212.00,0.0044
2211.00,0.0043
2210.00,0.0043
2209.00,0.0042
2208.00,0.0042
2207.00,0.0042
2206.00,0.0041
2205.00,0.0042
2204.00,0.0043
2203.00,0.0043
2202.00,0.0043
2201.00,0.0043
2200.00,0.0043
2199.00,0.0042
2198.00,0.0042
2197.00,0.0042
2196.00,0.0042
2195.00,0.0042
2194.00,0.0042
2193.00,0.0043
2192.00,0.0045
2191.00,0.0046
2190.00,0.0046
2189.00,0.0047
2188.00,0.0048
2187.00,0.0048
2186.00,0.0046
2185.00,0.0043
2184.00,0.0040
2183.00,0.0037
2182.00,0.0036
2181.00,0.0037
2180.00,0.0039
2179.00,0.0040
2178.00,0.0040
2177.00,0.0038
2176.00,0.0037
2175.00,0.0037
2174.00,0.0037
2173.00,0.0040
2172.00,0.0043
2171.00,0.0046
2170.00,0.0048
2169.00,0.0050
2168.00,0.0050
2167.00,0.0050
2166.00,0.0051
2165.00,0.0053
2164.00,0.0057
2163.00,0.0058
2162.00,0.0051
2161.00,0.0037
2160.00,0.0020
2159.00,0.0006
2158.00,0.0001
2157.00,0.0002
2156.00,0.0006
2155.00,0.0009
2154.00,0.0010
2153.00,0.0012
2152.00,0.0014
2151.00,0.0016
2150.00,0.0018
2149.00,0.0019
2148.00,0.0019
2147.00,0.0019
2146.00,0.0017
2145.00,0.0016
2144.00,0.0016
2143.00,0.0016
2142.00,0.0017
2141.00,0.0018
2140.00,0.0018
2139.00,0.0018
2138.00,0.0016
2137.00,0.0014
2136.00,0.0012
2135.00,0.0010
2134.00,0.0010
2133.00,0.0012
2132.00,0.0014
2131.00,0.0016
2130.00,0.0018
2129.00,0.0020
2128.00,0.0021
2127.00,0.0022
2126.00,0.0022
2125.00,0.0023
2124.00,0.0024
2123.00,0.0025
2122.00,0.0027
2121.00,0.0028
2120.00,0.0029
2119.00,0.0030
2118.00,0.0031
2117.00,0.0033
2116.00,0.0034
2115.00,0.0035
2114.00,0.0035
2113.00,0.0035
2112.00,0.0035
2111.00,0.0034
2110.00,0.0034
2109.00,0.0033
2108.00,0.0033
2107.00,0.0033
2106.00,0.0033
2105.00,0.0034
2104.00,0.0034
2103.00,0.0034
2102.00,0.0034
2101.00,0.0035
2100.00,0.0035
2099.00,0.0035
2098.00,0.0034
2097.00,0.0032
2096.00,0.0031
2095.00,0.0030
2094.00,0.0029
2093.00,0.0030
2092.00,0.0032
2091.00,0.0033
2090.00,0.0034
2089.00,0.0035
2088.00,0.0036
2087.00,0.0036
2086.00,0.0036
2085.00,0.0037
2084.00,0.0038
2083.00,0.0038
2082.00,0.0038
2081.00,0.0039
2080.00,0.0038
2079.00,0.0037
2078.00,0.0036
2077.00,0.0036
2076.00,0.0036
2075.00,0.0037
2074.00,0.0037
2073.00,0.0037
2072.00,0.0038
2071.00,0.0038
2070.00,0.0037
2069.00,0.0037
2068.00,0.0037
2067.00,0.0036
2066.00,0.0036
2065.00,0.0035
2064.00,0.0034
2063.00,0.0034
2062.00,0.0033
2061.00,0.0034
2060.00,0.0035
2059.00,0.0037
2058.00,0.0037
2057.00,0.0036
2056.00,0.0035
2055.00,0.0035
2054.00,0.0038
2053.00,0.0043
2052.00,0.0047
2051.00,0.0047
2050.00,0.0042
2049.00,0.0037
2048.00,0.0036
2047.00,0.0036
2046.00,0.0037
2045.00,0.0038
2044.00,0.0039
2043.00,0.0039
2042.00,0.0038
2041.00,0.0037
2040.00,0.0038
2039.00,0.0037
2038.00,0.0036
2037.00,0.0035
2036.00,0.0035
2035.00,0.0035
2034.00,0.0034
2033.00,0.0034
2032.00,0.0035
2031.00,0.0034
2030.00,0.0033
2029.00,0.0032
2028.00,0.0032
2027.00,0.0031
2026.00,0.0030
2025.00,0.0030
2024.00,0.0031
2023.00,0.0032
2022.00,0.0031
2021.00,0.0030
2020.00,0.0029
2019.00,0.0028
2018.00,0.0028
2017.00,0.0029
2016.00,0.0030
2015.00,0.0031
2014.00,0.0029
2013.00,0.0029
2012.00,0.0029
2011.00,0.0028
2010.00,0.0027
2009.00,0.0025
2008.00,0.0023
2007.00,0.0020
2006.00,0.0019
2005.00,0.0020
2004.00,0.0021
2003.00,0.0023
2002.00,0.0024
2001.00,0.0025
2000.00,0.0027
1999.00,0.0029
1998.00,0.0030
1997.00,0.0032
1996.00,0.0034
1995.00,0.0035
1994.00,0.0034
1993.00,0.0034
1992.00,0.0035
1991.00,0.0036
1990.00,0.0036
1989.00,0.0036
1988.00,0.0035
1987.00,0.0035
1986.00,0.0036
1985.00,0.0040
1984.00,0.0044
1983.00,0.0048
1982.00,0.0050
1981.00,0.0050
1980.00,0.0046
1979.00,0.0039
1978.00,0.0031
1977.00,0.0026
1976.00,0.0025
1975.00,0.0024
1974.00,0.0023
1973.00,0.0023
1972.00,0.0024
1971.00,0.0024
1970.00,0.0024
1969.00,0.0025
1968.00,0.0026
1967.00,0.0027
1966.00,0.0026
1965.00,0.0026
1964.00,0.0027
1963.00,0.0027
1962.00,0.0026
1961.00,0.0023
1960.00,0.0022
1959.00,0.0020
1958.00,0.0020
1957.00,0.0022
1956.00,0.0024
1955.00,0.0026
1954.00,0.0026
1953.00,0.0025
1952.00,0.0025
1951.00,0.0026
1950.00,0.0025
1949.00,0.0026
1948.00,0.0027
1947.00,0.0028
1946.00,0.0028
1945.00,0.0028
1944.00,0.0029
1943.00,0.0029
1942.00,0.0028
1941.00,0.0029
1940.00,0.0030
1939.00,0.0030
1938.00,0.0030
1937.00,0.0030
1936.00,0.0030
1935.00,0.0031
1934.00,0.0031
1933.00,0.0031
1932.00,0.0032
1931.00,0.0033
1930.00,0.0032
1929.00,0.0032
1928.00,0.0032
1927.00,0.0031
1926.00,0.0031
1925.00,0.0032
1924.00,0.0033
1923.00,0.0034
1922.00,0.0034
1921.00,0.0035
1920.00,0.0035
1919.00,0.0036
1918.00,0.0035
1917.00,0.0035
1916.00,0.0035
1915.00,0.0035
1914.00,0.0035
1913.00,0.0035
1912.00,0.0037
1911.00,0.0038
1910.00,0.0038
1909.00,0.0038
1908.00,0.0039
1907.00,0.0039
1906.00,0.0040
1905.00,0.0040
1904.00,0.0041
1903.00,0.0041
1902.00,0.0041
1901.00,0.0041
1900.00,0.0041
1899.00,0.0042
1898.00,0.0042
1897.00,0.0042
1896.00,0.0043
1895.00,0.0042
1894.00,0.0042
1893.00,0.0041
1892.00,0.0042
1891.00,0.0042
1890.00,0.0042
1889.00,0.0042
1888.00,0.0042
1887.00,0.0042
1886.00,0.0041
1885.00,0.0041
1884.00,0.0041
1883.00,0.0041
1882.00,0.0041
1881.00,0.0041
1880.00,0.0041
1879.00,0.0040
1878.00,0.0040
1877.00,0.0039
1876.00,0.0040
1875.00,0.0039
1874.00,0.0039
1873.00,0.0038
1872.00,0.0038
1871.00,0.0039
1870.00,0.0039
1869.00,0.0040
1868.00,0.0040
1867.00,0.0040
1866.00,0.0039
1865.00,0.0039
1864.00,0.0040
1863.00,0.0040
1862.00,0.0040
1861.00,0.0040
1860.00,0.0040
1859.00,0.0041
1858.00,0.0041
1857.00,0.0041
1856.00,0.0041
1855.00,0.0041
1854.00,0.0040
1853.00,0.0040
1852.00,0.0041
1851.00,0.0041
1850.00,0.0041
1849.00,0.0041
1848.00,0.0042
1847.00,0.0042
1846.00,0.0043
1845.00,0.0043
1844.00,0.0044
1843.00,0.0043
1842.00,0.0042
1841.00,0.0041
1840.00,0.0042
1839.00,0.0042
1838.00,0.0041
1837.00,0.0041
1836.00,0.0041
1835.00,0.0040
1834.00,0.0040
1833.00,0.0040
1832.00,0.0041
1831.00,0.0041
1830.00,0.0041
1829.00,0.0040
1828.00,0.0040
1827.00,0.0040
1826.00,0.0040
1825.00,0.0040
1824.00,0.0040
1823.00,0.0040
1822.00,0.0039
1821.00,0.0039
1820.00,0.0039
1819.00,0.0038
1818.00,0.0036
1817.00,0.0036
1816.00,0.0037
1815.00,0.0038
1814.00,0.0039
1813.00,0.0040
1812.00,0.0041
1811.00,0.0041
1810.00,0.0041
1809.00,0.0041
1808.00,0.0041
1807.00,0.0041
1806.00,0.0041
1805.00,0.0042
1804.00,0.0043
1803.00,0.0043
1802.00,0.0044
1801.00,0.0044
1800.00,0.0044
1799.00,0.0045
1798.00,0.0045
1797.00,0.0045
1796.00,0.0045
1795.00,0.0045
1794.00,0.0045
1793.00,0.0046
1792.00,0.0046
1791.00,0.0046
1790.00,0.0046
1789.00,0.0046
1788.00,0.0046
1787.00,0.0047
1786.00,0.0047
1785.00,0.0047
1784.00,0.0047
1783.00,0.0048
1782.00,0.0048
1781.00,0.0048
1780.00,0.0049
1779.00,0.0048
1778.00,0.0047
1777.00,0.0047
1776.00,0.0048
1775.00,0.0049
1774.00,0.0050
1773.00,0.0051
1772.00,0.0051
1771.00,0.0051
1770.00,0.0050
1769.00,0.0050
1768.00,0.0052
1767.00,0.0052
1766.00,0.0052
1765.00,0.0052
1764.00,0.0052
1763.00,0.0053
1762.00,0.0053
1761.00,0.0054
1760.00,0.0055
1759.00,0.0055
1758.00,0.0055
1757.00,0.0056
1756.00,0.0056
1755.00,0.0056
1754.00,0.0056
1753.00,0.0057
1752.00,0.0060
1751.00,0.0061
1750.00,0.0061
1749.00,0.0062
1748.00,0.0062
1747.00,0.0063
1746.00,0.0063
1745.00,0.0064
1744.00,0.0064
1743.00,0.0065
1742.00,0.0065
1741.00,0.0065
1740.00,0.0067
1739.00,0.0067
1738.00,0.0067
1737.00,0.0068
1736.00,0.0071
1735.00,0.0074
1734.00,0.0076
1733.00,0.0076
1732.00,0.0078
1731.00,0.0079
1730.00,0.0080
1729.00,0.0081
1728.00,0.0083
1727.00,0.0084
1726.00,0.0085
1725.00,0.0087
1724.00,0.0089
1723.00,0.0091
1722.00,0.0091
1721.00,0.0092
1720.00,0.0095
1719.00,0.0099
1718.00,0.0101
1717.00,0.0103
1716.00,0.0105
1715.00,0.0107
1714.00,0.0109
1713.00,0.0112
1712.00,0.0116
1711.00,0.0121
1710.00,0.0126
1709.00,0.0131
1708.00,0.0139
1707.00,0.0148
1706.00,0.0158
1705.00,0.0169
1704.00,0.0180
1703.00,0.0189
1702.00,0.0202
1701.00,0.0225
1700.00,0.0258
1699.00,0.0286
1698.00,0.0309
1697.00,0.0340
1696.00,0.0382
1695.00,0.0427
1694.00,0.0464
1693.00,0.0496
1692.00,0.0530
1691.00,0.0569
1690.00,0.0610
1689.00,0.0650
1688.00,0.0684
1687.00,0.0711
1686.00,0.0737
1685.00,0.0772
1684.00,0.0813
1683.00,0.0841
1682.00,0.0855
1681.00,0.0864
1680.00,0.0873
1679.00,0.0880
1678.00,0.0887
1677.00,0.0897
1676.00,0.0914
1675.00,0.0938
1674.00,0.0963
1673.00,0.0986
1672.00,0.1013
1671.00,0.1050
1670.00,0.1102
1669.00,0.1160
1668.00,0.1216
1667.00,0.1261
1666.00,0.1300
1665.00,0.1339
1664.00,0.1385
1663.00,0.1434
1662.00,0.1479
1661.00,0.1514
1660.00,0.1539
1659.00,0.1558
1658.00,0.1569
1657.00,0.1575
1656.00,0.1577
1655.00,0.1577
1654.00,0.1571
1653.00,0.1552
1652.00,0.1523
1651.00,0.1491
1650.00,0.1458
1649.00,0.1422
1648.00,0.1376
1647.00,0.1315
1646.00,0.1245
1645.00,0.1180
1644.00,0.1123
1643.00,0.1068
1642.00,0.1013
1641.00,0.0958
1640.00,0.0906
1639.00,0.0860
1638.00,0.0817
1637.00,0.0776
1636.00,0.0733
1635.00,0.0695
1634.00,0.0666
1633.00,0.0647
1632.00,0.0635
1631.00,0.0629
1630.00,0.0630
1629.00,0.0642
1628.00,0.0667
1627.00,0.0700
1626.00,0.0741
1625.00,0.0791
1624.00,0.0857
1623.00,0.0932
1622.00,0.0997
1621.00,0.1044
1620.00,0.1075
1619.00,0.1093
1618.00,0.1097
1617.00,0.1082
1616.00,0.1055
1615.00,0.1027
1614.00,0.1003
1613.00,0.0984
1612.00,0.0971
1611.00,0.0959
1610.00,0.0944
1609.00,0.0919
1608.00,0.0883
1607.00,0.0838
1606.00,0.0785
1605.00,0.0728
1604.00,0.0671
1603.00,0.0617
1602.00,0.0569
1601.00,0.0527
1600.00,0.0494
1599.00,0.0470
1598.00,0.0454
1597.00,0.0447
1596.00,0.0450
1595.00,0.0465
1594.00,0.0492
1593.00,0.0532
1592.00,0.0585
1591.00,0.0650
1590.00,0.0722
1589.00,0.0797
1588.00,0.0867
1587.00,0.0925
1586.00,0.0963
1585.00,0.0978
1584.00,0.0969
1583.00,0.0940
1582.00,0.0894
1581.00,0.0840
1580.00,0.0786
1579.00,0.0738
1578.00,0.0693
1577.00,0.0647
1576.00,0.0603
1575.00,0.0567
1574.00,0.0541
1573.00,0.0520
1572.00,0.0503
1571.00,0.0485
1570.00,0.0465
1569.00,0.0444
1568.00,0.0425
1567.00,0.0409
1566.00,0.0394
1565.00,0.0379
1564.00,0.0365
1563.00,0.0352
1562.00,0.0342
1561.00,0.0332
1560.00,0.0323
1559.00,0.0311
1558.00,0.0298
1557.00,0.0290
1556.00,0.0283
1555.00,0.0278
1554.00,0.0272
1553.00,0.0267
1552.00,0.0262
1551.00,0.0259
1550.00,0.0255
1549.00,0.0251
1548.00,0.0247
1547.00,0.0245
1546.00,0.0242
1545.00,0.0240
1544.00,0.0238
1543.00,0.0236
1542.00,0.0235
1541.00,0.0235
1540.00,0.0234
1539.00,0.0232
1538.00,0.0229
1537.00,0.0227
1536.00,0.0225
1535.00,0.0225
1534.00,0.0226
1533.00,0.0227
1532.00,0.0227
1531.00,0.0228
1530.00,0.0230
1529.00,0.0232
1528.00,0.0235
1527.00,0.0239
1526.00,0.0244
1525.00,0.0249
1524.00,0.0255
1523.00,0.0264
1522.00,0.0275
1521.00,0.0288
1520.00,0.0298
1519.00,0.0308
1518.00,0.0318
1517.00,0.0330
1516.00,0.0341
1515.00,0.0349
1514.00,0.0354
1513.00,0.0358
1512.00,0.0361
1511.00,0.0362
1510.00,0.0362
1509.00,0.0362
1508.00,0.0363
1507.00,0.0363
1506.00,0.0364
1505.00,0.0367
1504.00,0.0373
1503.00,0.0384
1502.00,0.0401
1501.00,0.0426
1500.00,0.0459
1499.00,0.0500
1498.00,0.0544
1497.00,0.0583
1496.00,0.0607
1495.00,0.0613
1494.00,0.0606
1493.00,0.0590
1492.00,0.0566
1491.00,0.0535
1490.00,0.0499
1489.00,0.0462
1488.00,0.0427
1487.00,0.0397
1486.00,0.0370
1485.00,0.0349
1484.00,0.0332
1483.00,0.0318
1482.00,0.0307
1481.00,0.0299
1480.00,0.0295
1479.00,0.0293
1478.00,0.0293
1477.00,0.0297
1476.00,0.0304
1475.00,0.0314
1474.00,0.0331
1473.00,0.0359
1472.00,0.0398
1471.00,0.0440
1470.00,0.0483
1469.00,0.0528
1468.00,0.0576
1467.00,0.0628
1466.00,0.0684
1465.00,0.0745
1464.00,0.0798
1463.00,0.0836
1462.00,0.0858
1461.00,0.0869
1460.00,0.0872
1459.00,0.0865
1458.00,0.0845
1457.00,0.0813
1456.00,0.0779
1455.00,0.0751
1454.00,0.0731
1453.00,0.0716
1452.00,0.0708
1451.00,0.0707
1450.00,0.0716
1449.00,0.0735
1448.00,0.0764
1447.00,0.0798
1446.00,0.0832
1445.00,0.0865
1444.00,0.0895
1443.00,0.0923
1442.00,0.0947
1441.00,0.0966
1440.00,0.0981
1439.00,0.0994
1438.00,0.1009
1437.00,0.1032
1436.00,0.1057
1435.00,0.1078
1434.00,0.1094
1433.00,0.1109
1432.00,0.1125
1431.00,0.1142
1430.00,0.1160
1429.00,0.1178
1428.00,0.1194
1427.00,0.1207
1426.00,0.1217
1425.00,0.1226
1424.00,0.1232
1423.00,0.1231
1422.00,0.1221
1421.00,0.1202
1420.00,0.1170
1419.00,0.1123
1418.00,0.1069
1417.00,0.1020
1416.00,0.0978
1415.00,0.0943
1414.00,0.0917
1413.00,0.0900
1412.00,0.0894
1411.00,0.0898
1410.00,0.0912
1409.00,0.0935
1408.00,0.0963
1407.00,0.0997
1406.00,0.1037
1405.00,0.1083
1404.00,0.1126
1403.00,0.1159
1402.00,0.1180
1401.00,0.1188
1400.00,0.1179
1399.00,0.1149
1398.00,0.1104
1397.00,0.1048
1396.00,0.0983
1395.00,0.0910
1394.00,0.0838
1393.00,0.0777
1392.00,0.0729
1391.00,0.0689
1390.00,0.0658
1389.00,0.0635
1388.00,0.0621
1387.00,0.0617
1386.00,0.0623
1385.00,0.0638
1384.00,0.0660
1383.00,0.0688
1382.00,0.0717
1381.00,0.0743
1380.00,0.0761
1379.00,0.0768
1378.00,0.0764
1377.00,0.0751
1376.00,0.0730
1375.00,0.0703
1374.00,0.0675
1373.00,0.0649
1372.00,0.0628
1371.00,0.0611
1370.00,0.0600
1369.00,0.0594
1368.00,0.0594
1367.00,0.0602
1366.00,0.0618
1365.00,0.0645
1364.00,0.0684
1363.00,0.0730
1362.00,0.0775
1361.00,0.0805
1360.00,0.0813
1359.00,0.0798
1358.00,0.0765
1357.00,0.0720
1356.00,0.0671
1355.00,0.0625
1354.00,0.0587
1353.00,0.0558
1352.00,0.0536
1351.00,0.0520
1350.00,0.0509
1349.00,0.0501
1348.00,0.0495
1347.00,0.0490
1346.00,0.0487
1345.00,0.0484
1344.00,0.0482
1343.00,0.0480
1342.00,0.0479
1341.00,0.0478
1340.00,0.0478
1339.00,0.0479
1338.00,0.0481
1337.00,0.0484
1336.00,0.0488
1335.00,0.0493
1334.00,0.0499
1333.00,0.0505
1332.00,0.0511
1331.00,0.0517
1330.00,0.0521
1329.00,0.0525
1328.00,0.0529
1327.00,0.0533
1326.00,0.0538
1325.00,0.0544
1324.00,0.0551
1323.00,0.0557
1322.00,0.0564
1321.00,0.0570
1320.00,0.0573
1319.00,0.0574
1318.00,0.0572
1317.00,0.0567
1316.00,0.0560
1315.00,0.0551
1314.00,0.0543
1313.00,0.0536
1312.00,0.0532
1311.00,0.0532
1310.00,0.0536
1309.00,0.0545
1308.00,0.0558
1307.00,0.0574
1306.00,0.0592
1305.00,0.0612
1304.00,0.0633
1303.00,0.0654
1302.00,0.0676
1301.00,0.0702
1300.00,0.0732
1299.00,0.0770
1298.00,0.0817
1297.00,0.0875
1296.00,0.0942
1295.00,0.1014
1294.00,0.1086
1293.00,0.1151
1292.00,0.1207
1291.00,0.1250
1290.00,0.1281
1289.00,0.1302
1288.00,0.1315
1287.00,0.1321
1286.00,0.1321
1285.00,0.1314
1284.00,0.1299
1283.00,0.1278
1282.00,0.1250
1281.00,0.1217
1280.00,0.1183
1279.00,0.1149
1278.00,0.1117
1277.00,0.1088
1276.00,0.1062
1275.00,0.1036
1274.00,0.1011
1273.00,0.0983
1272.00,0.0953
1271.00,0.0920
1270.00,0.0884
1269.00,0.0846
1268.00,0.0808
1267.00,0.0770
1266.00,0.0733
1265.00,0.0699
1264.00,0.0668
1263.00,0.0639
1262.00,0.0612
1261.00,0.0586
1260.00,0.0561
1259.00,0.0538
1258.00,0.0515
1257.00,0.0494
1256.00,0.0475
1255.00,0.0458
1254.00,0.0444
1253.00,0.0434
1252.00,0.0428
1251.00,0.0427
1250.00,0.0431
1249.00,0.0442
1248.00,0.0460
1247.00,0.0484
1246.00,0.0515
1245.00,0.0551
1244.00,0.0592
1243.00,0.0635
1242.00,0.0677
1241.00,0.0716
1240.00,0.0750
1239.00,0.0779
1238.00,0.0801
1237.00,0.0819
1236.00,0.0831
1235.00,0.0840
1234.00,0.0844
1233.00,0.0844
1232.00,0.0839
1231.00,0.0830
1230.00,0.0818
1229.00,0.0804
1228.00,0.0789
1227.00,0.0774
1226.00,0.0761
1225.00,0.0749
1224.00,0.0740
1223.00,0.0734
1222.00,0.0731
1221.00,0.0730
1220.00,0.0732
1219.00,0.0733
1218.00,0.0733
1217.00,0.0730
1216.00,0.0721
1215.00,0.0706
1214.00,0.0684
1213.00,0.0656
1212.00,0.0624
1211.00,0.0591
1210.00,0.0558
1209.00,0.0530
1208.00,0.0506
1207.00,0.0489
1206.00,0.0479
1205.00,0.0477
1204.00,0.0484
1203.00,0.0500
1202.00,0.0525
1201.00,0.0559
1200.00,0.0599
1199.00,0.0645
1198.00,0.0694
1197.00,0.0743
1196.00,0.0791
1195.00,0.0831
1194.00,0.0860
1193.00,0.0874
1192.00,0.0869
1191.00,0.0845
1190.00,0.0807
1189.00,0.0759
1188.00,0.0706
1187.00,0.0653
1186.00,0.0603
1185.00,0.0558
1184.00,0.0520
1183.00,0.0487
1182.00,0.0460
1181.00,0.0439
1180.00,0.0422
1179.00,0.0410
1178.00,0.0401
1177.00,0.0395
1176.00,0.0391
1175.00,0.0389
1174.00,0.0389
1173.00,0.0389
1172.00,0.0390
1171.00,0.0391
1170.00,0.0393
1169.00,0.0395
1168.00,0.0398
1167.00,0.0405
1166.00,0.0417
1165.00,0.0437
1164.00,0.0465
1163.00,0.0505
1162.00,0.0554
1161.00,0.0613
1160.00,0.0677
1159.00,0.0740
1158.00,0.0796
1157.00,0.0837
1156.00,0.0858
1155.00,0.0858
1154.00,0.0838
1153.00,0.0801
1152.00,0.0753
1151.00,0.0697
1150.00,0.0638
1149.00,0.0580
1148.00,0.0526
1147.00,0.0479
1146.00,0.0440
1145.00,0.0408
1144.00,0.0384
1143.00,0.0367
1142.00,0.0355
1141.00,0.0349
1140.00,0.0348
1139.00,0.0354
1138.00,0.0370
1137.00,0.0396
1136.00,0.0434
1135.00,0.0488
1134.00,0.0557
1133.00,0.0637
1132.00,0.0723
1131.00,0.0804
1130.00,0.0866
1129.00,0.0899
1128.00,0.0896
1127.00,0.0858
1126.00,0.0794
1125.00,0.0717
1124.00,0.0637
1123.00,0.0565
1122.00,0.0505
1121.00,0.0457
1120.00,0.0421
1119.00,0.0395
1118.00,0.0376
1117.00,0.0364
1116.00,0.0357
1115.00,0.0354
1114.00,0.0354
1113.00,0.0357
1112.00,0.0362
1111.00,0.0367
1110.00,0.0373
1109.00,0.0381
1108.00,0.0390
1107.00,0.0403
1106.00,0.0421
1105.00,0.0444
1104.00,0.0471
1103.00,0.0502
1102.00,0.0533
1101.00,0.0558
1100.00,0.0573
1099.00,0.0574
1098.00,0.0562
1097.00,0.0540
1096.00,0.0513
1095.00,0.0483
1094.00,0.0454
1093.00,0.0426
1092.00,0.0400
1091.00,0.0376
1090.00,0.0356
1089.00,0.0341
1088.00,0.0329
1087.00,0.0321
1086.00,0.0316
1085.00,0.0313
1084.00,0.0313
1083.00,0.0315
1082.00,0.0320
1081.00,0.0327
1080.00,0.0336
1079.00,0.0347
1078.00,0.0359
1077.00,0.0373
1076.00,0.0389
1075.00,0.0406
1074.00,0.0426
1073.00,0.0449
1072.00,0.0476
1071.00,0.0508
1070.00,0.0547
1069.00,0.0593
1068.00,0.0648
1067.00,0.0712
1066.00,0.0784
1065.00,0.0865
1064.00,0.0952
1063.00,0.1046
1062.00,0.1144
1061.00,0.1243
1060.00,0.1338
1059.00,0.1423
1058.00,0.1491
1057.00,0.1537
1056.00,0.1556
1055.00,0.1545
1054.00,0.1505
1053.00,0.1440
1052.00,0.1356
1051.00,0.1260
1050.00,0.1159
1049.00,0.1061
1048.00,0.0970
1047.00,0.0889
1046.00,0.0820
1045.00,0.0762
1044.00,0.0716
1043.00,0.0679
1042.00,0.0651
1041.00,0.0630
1040.00,0.0614
1039.00,0.0603
1038.00,0.0596
1037.00,0.0593
1036.00,0.0598
1035.00,0.0610
1034.00,0.0631
1033.00,0.0661
1032.00,0.0695
1031.00,0.0726
1030.00,0.0745
1029.00,0.0746
1028.00,0.0727
1027.00,0.0691
1026.00,0.0648
1025.00,0.0603
1024.00,0.0562
1023.00,0.0528
1022.00,0.0500
1021.00,0.0479
1020.00,0.0462
1019.00,0.0448
1018.00,0.0436
1017.00,0.0424
1016.00,0.0412
1015.00,0.0400
1014.00,0.0388
1013.00,0.0378
1012.00,0.0370
1011.00,0.0367
1010.00,0.0369
1009.00,0.0377
1008.00,0.0392
1007.00,0.0411
1006.00,0.0434
1005.00,0.0455
1004.00,0.0473
1003.00,0.0483
1002.00,0.0486
1001.00,0.0482
1000.00,0.0473
999.00,0.0462
998.00,0.0451
997.00,0.0441
996.00,0.0433
995.00,0.0425
994.00,0.0418
993.00,0.0410
992.00,0.0402
991.00,0.0393
990.00,0.0382
989.00,0.0370
988.00,0.0356
987.00,0.0342
986.00,0.0327
985.00,0.0314
984.00,0.0302
983.00,0.0294
982.00,0.0289
981.00,0.0287
980.00,0.0288
979.00,0.0291
978.00,0.0295
977.00,0.0300
976.00,0.0303
975.00,0.0304
974.00,0.0303
973.00,0.0300
972.00,0.0294
971.00,0.0288
970.00,0.0281
969.00,0.0273
968.00,0.0266
967.00,0.0259
966.00,0.0253
965.00,0.0248
964.00,0.0244
963.00,0.0240
962.00,0.0236
961.00,0.0232
960.00,0.0227
959.00,0.0223
958.00,0.0219
957.00,0.0214
956.00,0.0210
955.00,0.0206
954.00,0.0202
953.00,0.0199
952.00,0.0197
951.00,0.0195
950.00,0.0194
949.00,0.0194
948.00,0.0194
947.00,0.0195
946.00,0.0197
945.00,0.0200
944.00,0.0204
943.00,0.0210
942.00,0.0219
941.00,0.0231
940.00,0.0246
939.00,0.0263
938.00,0.0282
937.00,0.0301
936.00,0.0319
935.00,0.0333
934.00,0.0342
933.00,0.0346
932.00,0.0346
931.00,0.0343
930.00,0.0340
929.00,0.0340
928.00,0.0343
927.00,0.0349
926.00,0.0354
925.00,0.0358
924.00,0.0360
923.00,0.0358
922.00,0.0353
921.00,0.0346
920.00,0.0337
919.00,0.0327
918.00,0.0315
917.00,0.0303
916.00,0.0291
915.00,0.0278
914.00,0.0266
913.00,0.0257
912.00,0.0250
911.00,0.0245
910.00,0.0243
909.00,0.0243
908.00,0.0246
907.00,0.0252
906.00,0.0260
905.00,0.0271
904.00,0.0286
903.00,0.0304
902.00,0.0324
901.00,0.0346
900.00,0.0368
899.00,0.0389
898.00,0.0407
897.00,0.0418
896.00,0.0423
895.00,0.0420
894.00,0.0411
893.00,0.0396
892.00,0.0378
891.00,0.0359
890.00,0.0341
889.00,0.0327
888.00,0.0316
887.00,0.0311
886.00,0.0310
885.00,0.0314
884.00,0.0321
883.00,0.0333
882.00,0.0347
881.00,0.0365
880.00,0.0387
879.00,0.0413
878.00,0.0443
877.00,0.0475
876.00,0.0508
875.00,0.0542
874.00,0.0573
873.00,0.0602
872.00,0.0624
871.00,0.0640
870.00,0.0649
869.00,0.0650
868.00,0.0646
867.00,0.0638
866.00,0.0630
865.00,0.0622
864.00,0.0614
863.00,0.0605
862.00,0.0596
861.00,0.0587
860.00,0.0580
859.00,0.0575
858.00,0.0575
857.00,0.0577
856.00,0.0583
855.00,0.0590
854.00,0.0599
853.00,0.0609
852.00,0.0619
851.00,0.0629
850.00,0.0639
849.00,0.0647
848.00,0.0655
847.00,0.0661
846.00,0.0666
845.00,0.0670
844.00,0.0672
843.00,0.0673
842.00,0.0674
841.00,0.0674
840.00,0.0674
839.00,0.0673
838.00,0.0674
837.00,0.0676
836.00,0.0679
835.00,0.0683
834.00,0.0687
833.00,0.0692
832.00,0.0697
831.00,0.0700
830.00,0.0703
829.00,0.0705
828.00,0.0706
827.00,0.0709
826.00,0.0714
825.00,0.0724
824.00,0.0738
823.00,0.0758
822.00,0.0784
821.00,0.0814
820.00,0.0847
819.00,0.0881
818.00,0.0916
817.00,0.0950
816.00,0.0983
815.00,0.1012
814.00,0.1036
813.00,0.1052
812.00,0.1054
811.00,0.1039
810.00,0.1003
809.00,0.0949
808.00,0.0880
807.00,0.0804
806.00,0.0728
805.00,0.0658
804.00,0.0600
803.00,0.0554
802.00,0.0520
801.00,0.0495
800.00,0.0476
799.00,0.0463
798.00,0.0453
797.00,0.0446
796.00,0.0441
795.00,0.0438
794.00,0.0437
793.00,0.0437
792.00,0.0436
791.00,0.0435
790.00,0.0433
789.00,0.0430
788.00,0.0427
787.00,0.0424
786.00,0.0422
785.00,0.0421
784.00,0.0421
783.00,0.0423
782.00,0.0428
781.00,0.0435
780.00,0.0446
779.00,0.0460
778.00,0.0475
777.00,0.0486
776.00,0.0489
775.00,0.0481
774.00,0.0466
773.00,0.0448
772.00,0.0432
771.00,0.0420
770.00,0.0414
769.00,0.0412
768.00,0.0413
767.00,0.0414
766.00,0.0416
765.00,0.0419
764.00,0.0423
763.00,0.0427
762.00,0.0432
761.00,0.0438
760.00,0.0446
759.00,0.0454
758.00,0.0462
757.00,0.0470
756.00,0.0478
755.00,0.0485
754.00,0.0493
753.00,0.0502
752.00,0.0510
751.00,0.0519
750.00,0.0528
749.00,0.0537
748.00,0.0546
747.00,0.0556
746.00,0.0567
745.00,0.0580
744.00,0.0596
743.00,0.0616
742.00,0.0641
741.00,0.0673
740.00,0.0710
739.00,0.0750
738.00,0.0787
737.00,0.0815
736.00,0.0827
735.00,0.0820
734.00,0.0797
733.00,0.0763
732.00,0.0724
731.00,0.0686
730.00,0.0650
729.00,0.0620
728.00,0.0594
727.00,0.0573
726.00,0.0555
725.00,0.0540
724.00,0.0527
723.00,0.0515
722.00,0.0505
721.00,0.0498
720.00,0.0492
719.00,0.0489
718.00,0.0488
717.00,0.0489
716.00,0.0491
715.00,0.0493
714.00,0.0494
713.00,0.0493
712.00,0.0490
711.00,0.0484
710.00,0.0477
709.00,0.0470
708.00,0.0464
707.00,0.0460
706.00,0.0458
705.00,0.0458
704.00,0.0458
703.00,0.0459
702.00,0.0458
701.00,0.0458
700.00,0.0460
699.00,0.0466
698.00,0.0477
697.00,0.0494
696.00,0.0516
695.00,0.0541
694.00,0.0567
693.00,0.0592
692.00,0.0612
691.00,0.0628
690.00,0.0638
689.00,0.0641
688.00,0.0637
687.00,0.0627
686.00,0.0612
685.00,0.0595
684.00,0.0577
683.00,0.0560
682.00,0.0546
681.00,0.0535
680.00,0.0527
679.00,0.0522
678.00,0.0520
677.00,0.0520
676.00,0.0522
675.00,0.0526
674.00,0.0532
673.00,0.0541
672.00,0.0551
671.00,0.0561
670.00,0.0573
669.00,0.0586
668.00,0.0603
667.00,0.0617
666.00,0.0624
665.00,0.0628
664.00,0.0633
663.00,0.0641
662.00,0.0649
661.00,0.0659
660.00,0.0670
659.00,0.0681
658.00,0.0691
657.00,0.0699
656.00,0.0707
655.00,0.0713
654.00,0.0718
653.00,0.0722
652.00,0.0725
651.00,0.0726
650.00,0.0725
649.00,0.0721
648.00,0.0716
647.00,0.0708
646.00,0.0698
645.00,0.0685
644.00,0.0670
643.00,0.0654
642.00,0.0638
641.00,0.0622
640.00,0.0606
639.00,0.0590
638.00,0.0576
637.00,0.0562
636.00,0.0549
635.00,0.0538
634.00,0.0527
633.00,0.0518
632.00,0.0510
631.00,0.0504
630.00,0.0500
629.00,0.0499
628.00,0.0500
627.00,0.0503
626.00,0.0508
625.00,0.0514
624.00,0.0520
623.00,0.0524
622.00,0.0525
621.00,0.0524
620.00,0.0520
619.00,0.0515
618.00,0.0508
617.00,0.0501
616.00,0.0493
615.00,0.0486
614.00,0.0480
613.00,0.0475
612.00,0.0473
611.00,0.0473
610.00,0.0478
609.00,0.0485
608.00,0.0494
607.00,0.0503
606.00,0.0511
605.00,0.0519
604.00,0.0526
603.00,0.0532
602.00,0.0539
601.00,0.0546
600.00,0.0552
599.00,0.0554
598.00,0.0552
597.00,0.0545
596.00,0.0535
595.00,0.0523
594.00,0.0511
593.00,0.0502
592.00,0.0496
591.00,0.0494
590.00,0.0499
589.00,0.0513
588.00,0.0538
587.00,0.0576
586.00,0.0624
585.00,0.0678
584.00,0.0730
583.00,0.0772
582.00,0.0798
581.00,0.0809
580.00,0.0807
579.00,0.0794
578.00,0.0775
577.00,0.0752
576.00,0.0728
575.00,0.0704
574.00,0.0682
573.00,0.0663
572.00,0.0647
571.00,0.0635
570.00,0.0628
569.00,0.0624
568.00,0.0622
567.00,0.0622
566.00,0.0621
565.00,0.0618
564.00,0.0613
563.00,0.0606
562.00,0.0598
561.00,0.0590
560.00,0.0584
559.00,0.0579
558.00,0.0578
557.00,0.0576
556.00,0.0572
555.00,0.0564
554.00,0.0552
553.00,0.0539
552.00,0.0529
551.00,0.0522
550.00,0.0518
549.00,0.0514
548.00,0.0508
547.00,0.0498
546.00,0.0487
545.00,0.0475
544.00,0.0465
543.00,0.0456
542.00,0.0449
541.00,0.0445
540.00,0.0445
539.00,0.0451
538.00,0.0463
537.00,0.0482
536.00,0.0505
535.00,0.0532
534.00,0.0560
533.00,0.0584
532.00,0.0603
531.00,0.0613
530.00,0.0614
529.00,0.0604
528.00,0.0585
527.00,0.0558
526.00,0.0528
525.00,0.0499
524.00,0.0472
523.00,0.0449
522.00,0.0430
521.00,0.0413
520.00,0.0400
519.00,0.0391
518.00,0.0385
517.00,0.0380
516.00,0.0376
515.00,0.0372
514.00,0.0371
513.00,0.0374
512.00,0.0379
511.00,0.0387
510.00,0.0396
509.00,0.0406
508.00,0.0415
507.00,0.0422
506.00,0.0425
505.00,0.0423
504.00,0.0415
503.00,0.0402
502.00,0.0388
501.00,0.0376
500.00,0.0367
499.00,0.0362
498.00,0.0359
497.00,0.0357
496.00,0.0356
495.00,0.0357
494.00,0.0360
493.00,0.0364
492.00,0.0368
491.00,0.0370
490.00,0.0373
489.00,0.0375
488.00,0.0377
487.00,0.0378
486.00,0.0379
485.00,0.0380
484.00,0.0379
483.00,0.0377
482.00,0.0375
481.00,0.0371
480.00,0.0367
479.00,0.0362
478.00,0.0359
477.00,0.0356
476.00,0.0355
475.00,0.0355
474.00,0.0356
473.00,0.0356
472.00,0.0355
471.00,0.0353
470.00,0.0351
469.00,0.0348
468.00,0.0345
467.00,0.0344
466.00,0.0345
465.00,0.0347
464.00,0.0346
463.00,0.0344
462.00,0.0342
461.00,0.0340
460.00,0.0337
459.00,0.0334
458.00,0.0332
457.00,0.0331
456.00,0.0329
455.00,0.0328
454.00,0.0327
453.00,0.0326
452.00,0.0325
451.00,0.0325
450.00,0.0328
449.00,0.0330
448.00,0.0333
447.00,0.0334
446.00,0.0335
445.00,0.0334
444.00,0.0332
443.00,0.0330
442.00,0.0330
441.00,0.0330
440.00,0.0330
439.00,0.0329
438.00,0.0329
437.00,0.0327
436.00,0.0324
435.00,0.0322
434.00,0.0321
433.00,0.0321
432.00,0.0320
431.00,0.0318
430.00,0.0317
429.00,0.0318
428.00,0.0320
427.00,0.0323
426.00,0.0326
425.00,0.0329
424.00,0.0333
423.00,0.0338
422.00,0.0343
421.00,0.0346
420.00,0.0346
419.00,0.0351
418.00,0.0362
417.00,0.0375
416.00,0.0385
415.00,0.0396
414.00,0.0411
413.00,0.0427
412.00,0.0441
411.00,0.0449
410.00,0.0451
409.00,0.0446
408.00,0.0435
407.00,0.0420
406.00,0.0410
405.00,0.0405
404.00,0.0404
403.00,0.0405
402.00,0.0405
401.00,0.0402
400.00,0.0394
