Created as New Dataset,Sample 705 By YargerLab Date Wednesday, June 18 2025
cm-1,A
4000.00,0.0101
3999.00,0.0101
3998.00,0.0101
3997.00,0.0101
3996.00,0.0101
3995.00,0.0101
3994.00,0.0101
3993.00,0.0101
3992.00,0.0101
3991.00,0.0101
3990.00,0.0101
3989.00,0.0101
3988.00,0.0101
3987.00,0.0101
3986.00,0.0100
3985.00,0.0100
3984.00,0.0100
3983.00,0.0100
3982.00,0.0100
3981.00,0.0100
3980.00,0.0100
3979.00,0.0101
3978.00,0.0101
3977.00,0.0101
3976.00,0.0101
3975.00,0.0101
3974.00,0.0101
3973.00,0.0101
3972.00,0.0101
3971.00,0.0101
3970.00,0.0101
3969.00,0.0101
3968.00,0.0101
3967.00,0.0100
3966.00,0.0100
3965.00,0.0100
3964.00,0.0100
3963.00,0.0100
3962.00,0.0100
3961.00,0.0100
3960.00,0.0100
3959.00,0.0100
3958.00,0.0100
3957.00,0.0100
3956.00,0.0100
3955.00,0.0100
3954.00,0.0100
3953.00,0.0100
3952.00,0.0100
3951.00,0.0100
3950.00,0.0100
3949.00,0.0100
3948.00,0.0100
3947.00,0.0100
3946.00,0.0100
3945.00,0.0100
3944.00,0.0100
3943.00,0.0100
3942.00,0.0101
3941.00,0.0101
3940.00,0.0101
3939.00,0.0101
3938.00,0.0100
3937.00,0.0100
3936.00,0.0100
3935.00,0.0100
3934.00,0.0100
3933.00,0.0100
3932.00,0.0100
3931.00,0.0100
3930.00,0.0100
3929.00,0.0100
3928.00,0.0100
3927.00,0.0100
3926.00,0.0100
3925.00,0.0100
3924.00,0.0100
3923.00,0.0100
3922.00,0.0100
3921.00,0.0100
3920.00,0.0100
3919.00,0.0100
3918.00,0.0100
3917.00,0.0100
3916.00,0.0100
3915.00,0.0100
3914.00,0.0100
3913.00,0.0100
3912.00,0.0100
3911.00,0.0100
3910.00,0.0100
3909.00,0.0100
3908.00,0.0100
3907.00,0.0100
3906.00,0.0100
3905.00,0.0100
3904.00,0.0100
3903.00,0.0100
3902.00,0.0100
3901.00,0.0100
3900.00,0.0100
3899.00,0.0100
3898.00,0.0100
3897.00,0.0100
3896.00,0.0100
3895.00,0.0101
3894.00,0.0101
3893.00,0.0101
3892.00,0.0101
3891.00,0.0101
3890.00,0.0100
3889.00,0.0101
3888.00,0.0101
3887.00,0.0101
3886.00,0.0100
3885.00,0.0100
3884.00,0.0100
3883.00,0.0100
3882.00,0.0100
3881.00,0.0100
3880.00,0.0100
3879.00,0.0100
3878.00,0.0100
3877.00,0.0100
3876.00,0.0100
3875.00,0.0100
3874.00,0.0100
3873.00,0.0100
3872.00,0.0100
3871.00,0.0101
3870.00,0.0101
3869.00,0.0101
3868.00,0.0101
3867.00,0.0101
3866.00,0.0101
3865.00,0.0101
3864.00,0.0100
3863.00,0.0100
3862.00,0.0100
3861.00,0.0100
3860.00,0.0100
3859.00,0.0100
3858.00,0.0100
3857.00,0.0100
3856.00,0.0100
3855.00,0.0100
3854.00,0.0100
3853.00,0.0100
3852.00,0.0100
3851.00,0.0100
3850.00,0.0100
3849.00,0.0100
3848.00,0.0100
3847.00,0.0100
3846.00,0.0100
3845.00,0.0100
3844.00,0.0100
3843.00,0.0100
3842.00,0.0100
3841.00,0.0100
3840.00,0.0101
3839.00,0.0101
3838.00,0.0101
3837.00,0.0101
3836.00,0.0100
3835.00,0.0100
3834.00,0.0100
3833.00,0.0100
3832.00,0.0100
3831.00,0.0100
3830.00,0.0100
3829.00,0.0100
3828.00,0.0100
3827.00,0.0100
3826.00,0.0100
3825.00,0.0100
3824.00,0.0100
3823.00,0.0100
3822.00,0.0101
3821.00,0.0101
3820.00,0.0101
3819.00,0.0101
3818.00,0.0100
3817.00,0.0100
3816.00,0.0100
3815.00,0.0100
3814.00,0.0100
3813.00,0.0100
3812.00,0.0100
3811.00,0.0100
3810.00,0.0100
3809.00,0.0100
3808.00,0.0101
3807.00,0.0101
3806.00,0.0101
3805.00,0.0100
3804.00,0.0100
3803.00,0.0100
3802.00,0.0099
3801.00,0.0099
3800.00,0.0100
3799.00,0.0100
3798.00,0.0100
3797.00,0.0100
3796.00,0.0099
3795.00,0.0099
3794.00,0.0099
3793.00,0.0099
3792.00,0.0099
3791.00,0.0100
3790.00,0.0100
3789.00,0.0100
3788.00,0.0100
3787.00,0.0100
3786.00,0.0100
3785.00,0.0100
3784.00,0.0100
3783.00,0.0100
3782.00,0.0100
3781.00,0.0100
3780.00,0.0101
3779.00,0.0101
3778.00,0.0101
3777.00,0.0101
3776.00,0.0100
3775.00,0.0100
3774.00,0.0100
3773.00,0.0100
3772.00,0.0100
3771.00,0.0100
3770.00,0.0100
3769.00,0.0100
3768.00,0.0101
3767.00,0.0101
3766.00,0.0101
3765.00,0.0101
3764.00,0.0101
3763.00,0.0101
3762.00,0.0101
3761.00,0.0101
3760.00,0.0101
3759.00,0.0101
3758.00,0.0101
3757.00,0.0100
3756.00,0.0100
3755.00,0.0100
3754.00,0.0100
3753.00,0.0100
3752.00,0.0100
3751.00,0.0100
3750.00,0.0100
3749.00,0.0100
3748.00,0.0100
3747.00,0.0100
3746.00,0.0100
3745.00,0.0100
3744.00,0.0100
3743.00,0.0099
3742.00,0.0099
3741.00,0.0099
3740.00,0.0099
3739.00,0.0099
3738.00,0.0099
3737.00,0.0099
3736.00,0.0099
3735.00,0.0099
3734.00,0.0099
3733.00,0.0098
3732.00,0.0098
3731.00,0.0098
3730.00,0.0098
3729.00,0.0098
3728.00,0.0098
3727.00,0.0098
3726.00,0.0098
3725.00,0.0099
3724.00,0.0099
3723.00,0.0099
3722.00,0.0099
3721.00,0.0098
3720.00,0.0098
3719.00,0.0098
3718.00,0.0098
3717.00,0.0098
3716.00,0.0098
3715.00,0.0098
3714.00,0.0098
3713.00,0.0098
3712.00,0.0098
3711.00,0.0097
3710.00,0.0097
3709.00,0.0097
3708.00,0.0097
3707.00,0.0097
3706.00,0.0097
3705.00,0.0097
3704.00,0.0097
3703.00,0.0097
3702.00,0.0097
3701.00,0.0097
3700.00,0.0097
3699.00,0.0097
3698.00,0.0098
3697.00,0.0098
3696.00,0.0098
3695.00,0.0098
3694.00,0.0098
3693.00,0.0098
3692.00,0.0098
3691.00,0.0098
3690.00,0.0098
3689.00,0.0098
3688.00,0.0098
3687.00,0.0098
3686.00,0.0098
3685.00,0.0098
3684.00,0.0098
3683.00,0.0098
3682.00,0.0097
3681.00,0.0097
3680.00,0.0097
3679.00,0.0096
3678.00,0.0096
3677.00,0.0096
3676.00,0.0095
3675.00,0.0095
3674.00,0.0094
3673.00,0.0093
3672.00,0.0093
3671.00,0.0092
3670.00,0.0092
3669.00,0.0092
3668.00,0.0092
3667.00,0.0092
3666.00,0.0092
3665.00,0.0092
3664.00,0.0092
3663.00,0.0092
3662.00,0.0092
3661.00,0.0092
3660.00,0.0092
3659.00,0.0092
3658.00,0.0093
3657.00,0.0094
3656.00,0.0095
3655.00,0.0095
3654.00,0.0096
3653.00,0.0096
3652.00,0.0097
3651.00,0.0097
3650.00,0.0098
3649.00,0.0099
3648.00,0.0100
3647.00,0.0101
3646.00,0.0101
3645.00,0.0102
3644.00,0.0103
3643.00,0.0104
3642.00,0.0105
3641.00,0.0106
3640.00,0.0107
3639.00,0.0107
3638.00,0.0108
3637.00,0.0109
3636.00,0.0110
3635.00,0.0112
3634.00,0.0114
3633.00,0.0116
3632.00,0.0117
3631.00,0.0118
3630.00,0.0120
3629.00,0.0121
3628.00,0.0123
3627.00,0.0124
3626.00,0.0125
3625.00,0.0125
3624.00,0.0126
3623.00,0.0127
3622.00,0.0128
3621.00,0.0129
3620.00,0.0131
3619.00,0.0133
3618.00,0.0134
3617.00,0.0136
3616.00,0.0137
3615.00,0.0138
3614.00,0.0139
3613.00,0.0140
3612.00,0.0141
3611.00,0.0143
3610.00,0.0144
3609.00,0.0145
3608.00,0.0147
3607.00,0.0149
3606.00,0.0150
3605.00,0.0151
3604.00,0.0152
3603.00,0.0153
3602.00,0.0154
3601.00,0.0155
3600.00,0.0157
3599.00,0.0159
3598.00,0.0160
3597.00,0.0161
3596.00,0.0163
3595.00,0.0165
3594.00,0.0166
3593.00,0.0168
3592.00,0.0169
3591.00,0.0170
3590.00,0.0172
3589.00,0.0174
3588.00,0.0176
3587.00,0.0180
3586.00,0.0182
3585.00,0.0184
3584.00,0.0185
3583.00,0.0186
3582.00,0.0187
3581.00,0.0189
3580.00,0.0190
3579.00,0.0192
3578.00,0.0194
3577.00,0.0196
3576.00,0.0198
3575.00,0.0200
3574.00,0.0201
3573.00,0.0203
3572.00,0.0204
3571.00,0.0206
3570.00,0.0207
3569.00,0.0208
3568.00,0.0211
3567.00,0.0215
3566.00,0.0218
3565.00,0.0220
3564.00,0.0222
3563.00,0.0223
3562.00,0.0225
3561.00,0.0226
3560.00,0.0228
3559.00,0.0230
3558.00,0.0231
3557.00,0.0233
3556.00,0.0234
3555.00,0.0235
3554.00,0.0237
3553.00,0.0239
3552.00,0.0241
3551.00,0.0243
3550.00,0.0244
3549.00,0.0245
3548.00,0.0246
3547.00,0.0248
3546.00,0.0250
3545.00,0.0252
3544.00,0.0254
3543.00,0.0255
3542.00,0.0256
3541.00,0.0257
3540.00,0.0258
3539.00,0.0259
3538.00,0.0260
3537.00,0.0261
3536.00,0.0263
3535.00,0.0264
3534.00,0.0265
3533.00,0.0266
3532.00,0.0266
3531.00,0.0267
3530.00,0.0268
3529.00,0.0269
3528.00,0.0269
3527.00,0.0270
3526.00,0.0271
3525.00,0.0272
3524.00,0.0273
3523.00,0.0274
3522.00,0.0275
3521.00,0.0275
3520.00,0.0275
3519.00,0.0276
3518.00,0.0276
3517.00,0.0277
3516.00,0.0278
3515.00,0.0279
3514.00,0.0279
3513.00,0.0280
3512.00,0.0280
3511.00,0.0281
3510.00,0.0282
3509.00,0.0282
3508.00,0.0283
3507.00,0.0283
3506.00,0.0283
3505.00,0.0283
3504.00,0.0284
3503.00,0.0285
3502.00,0.0286
3501.00,0.0287
3500.00,0.0287
3499.00,0.0287
3498.00,0.0287
3497.00,0.0288
3496.00,0.0288
3495.00,0.0289
3494.00,0.0289
3493.00,0.0289
3492.00,0.0290
3491.00,0.0290
3490.00,0.0290
3489.00,0.0291
3488.00,0.0291
3487.00,0.0292
3486.00,0.0292
3485.00,0.0292
3484.00,0.0293
3483.00,0.0293
3482.00,0.0294
3481.00,0.0295
3480.00,0.0295
3479.00,0.0296
3478.00,0.0296
3477.00,0.0296
3476.00,0.0297
3475.00,0.0297
3474.00,0.0297
3473.00,0.0298
3472.00,0.0298
3471.00,0.0299
3470.00,0.0299
3469.00,0.0300
3468.00,0.0300
3467.00,0.0301
3466.00,0.0301
3465.00,0.0301
3464.00,0.0301
3463.00,0.0301
3462.00,0.0301
3461.00,0.0301
3460.00,0.0302
3459.00,0.0302
3458.00,0.0302
3457.00,0.0302
3456.00,0.0303
3455.00,0.0303
3454.00,0.0303
3453.00,0.0303
3452.00,0.0303
3451.00,0.0303
3450.00,0.0303
3449.00,0.0303
3448.00,0.0304
3447.00,0.0304
3446.00,0.0304
3445.00,0.0305
3444.00,0.0305
3443.00,0.0304
3442.00,0.0304
3441.00,0.0304
3440.00,0.0304
3439.00,0.0304
3438.00,0.0304
3437.00,0.0304
3436.00,0.0304
3435.00,0.0304
3434.00,0.0303
3433.00,0.0303
3432.00,0.0303
3431.00,0.0302
3430.00,0.0302
3429.00,0.0302
3428.00,0.0302
3427.00,0.0301
3426.00,0.0301
3425.00,0.0300
3424.00,0.0300
3423.00,0.0299
3422.00,0.0299
3421.00,0.0298
3420.00,0.0298
3419.00,0.0298
3418.00,0.0298
3417.00,0.0297
3416.00,0.0297
3415.00,0.0296
3414.00,0.0296
3413.00,0.0295
3412.00,0.0295
3411.00,0.0294
3410.00,0.0294
3409.00,0.0293
3408.00,0.0292
3407.00,0.0291
3406.00,0.0291
3405.00,0.0290
3404.00,0.0289
3403.00,0.0288
3402.00,0.0288
3401.00,0.0287
3400.00,0.0287
3399.00,0.0287
3398.00,0.0286
3397.00,0.0285
3396.00,0.0284
3395.00,0.0283
3394.00,0.0283
3393.00,0.0282
3392.00,0.0281
3391.00,0.0281
3390.00,0.0280
3389.00,0.0280
3388.00,0.0280
3387.00,0.0279
3386.00,0.0279
3385.00,0.0278
3384.00,0.0278
3383.00,0.0277
3382.00,0.0276
3381.00,0.0275
3380.00,0.0275
3379.00,0.0274
3378.00,0.0273
3377.00,0.0272
3376.00,0.0272
3375.00,0.0271
3374.00,0.0270
3373.00,0.0268
3372.00,0.0267
3371.00,0.0265
3370.00,0.0264
3369.00,0.0263
3368.00,0.0263
3367.00,0.0263
3366.00,0.0263
3365.00,0.0264
3364.00,0.0264
3363.00,0.0263
3362.00,0.0262
3361.00,0.0262
3360.00,0.0262
3359.00,0.0262
3358.00,0.0262
3357.00,0.0261
3356.00,0.0261
3355.00,0.0260
3354.00,0.0259
3353.00,0.0257
3352.00,0.0255
3351.00,0.0255
3350.00,0.0255
3349.00,0.0255
3348.00,0.0256
3347.00,0.0255
3346.00,0.0255
3345.00,0.0253
3344.00,0.0252
3343.00,0.0252
3342.00,0.0251
3341.00,0.0250
3340.00,0.0249
3339.00,0.0248
3338.00,0.0248
3337.00,0.0249
3336.00,0.0250
3335.00,0.0251
3334.00,0.0251
3333.00,0.0250
3332.00,0.0250
3331.00,0.0249
3330.00,0.0249
3329.00,0.0248
3328.00,0.0246
3327.00,0.0245
3326.00,0.0244
3325.00,0.0244
3324.00,0.0245
3323.00,0.0245
3322.00,0.0245
3321.00,0.0245
3320.00,0.0244
3319.00,0.0243
3318.00,0.0243
3317.00,0.0242
3316.00,0.0241
3315.00,0.0241
3314.00,0.0240
3313.00,0.0239
3312.00,0.0237
3311.00,0.0235
3310.00,0.0233
3309.00,0.0230
3308.00,0.0228
3307.00,0.0227
3306.00,0.0227
3305.00,0.0228
3304.00,0.0230
3303.00,0.0231
3302.00,0.0232
3301.00,0.0233
3300.00,0.0232
3299.00,0.0231
3298.00,0.0230
3297.00,0.0228
3296.00,0.0227
3295.00,0.0226
3294.00,0.0225
3293.00,0.0225
3292.00,0.0225
3291.00,0.0226
3290.00,0.0227
3289.00,0.0227
3288.00,0.0227
3287.00,0.0226
3286.00,0.0225
3285.00,0.0225
3284.00,0.0224
3283.00,0.0224
3282.00,0.0223
3281.00,0.0222
3280.00,0.0222
3279.00,0.0220
3278.00,0.0219
3277.00,0.0218
3276.00,0.0216
3275.00,0.0215
3274.00,0.0214
3273.00,0.0212
3272.00,0.0211
3271.00,0.0211
3270.00,0.0211
3269.00,0.0211
3268.00,0.0211
3267.00,0.0211
3266.00,0.0211
3265.00,0.0210
3264.00,0.0210
3263.00,0.0209
3262.00,0.0208
3261.00,0.0207
3260.00,0.0207
3259.00,0.0206
3258.00,0.0204
3257.00,0.0203
3256.00,0.0202
3255.00,0.0202
3254.00,0.0201
3253.00,0.0201
3252.00,0.0200
3251.00,0.0199
3250.00,0.0198
3249.00,0.0197
3248.00,0.0196
3247.00,0.0195
3246.00,0.0195
3245.00,0.0194
3244.00,0.0194
3243.00,0.0193
3242.00,0.0192
3241.00,0.0191
3240.00,0.0190
3239.00,0.0190
3238.00,0.0189
3237.00,0.0188
3236.00,0.0187
3235.00,0.0186
3234.00,0.0185
3233.00,0.0184
3232.00,0.0184
3231.00,0.0184
3230.00,0.0184
3229.00,0.0183
3228.00,0.0183
3227.00,0.0182
3226.00,0.0182
3225.00,0.0181
3224.00,0.0180
3223.00,0.0180
3222.00,0.0179
3221.00,0.0178
3220.00,0.0178
3219.00,0.0177
3218.00,0.0176
3217.00,0.0176
3216.00,0.0175
3215.00,0.0174
3214.00,0.0174
3213.00,0.0173
3212.00,0.0173
3211.00,0.0172
3210.00,0.0171
3209.00,0.0171
3208.00,0.0170
3207.00,0.0170
3206.00,0.0169
3205.00,0.0169
3204.00,0.0168
3203.00,0.0167
3202.00,0.0167
3201.00,0.0166
3200.00,0.0165
3199.00,0.0165
3198.00,0.0165
3197.00,0.0164
3196.00,0.0164
3195.00,0.0164
3194.00,0.0163
3193.00,0.0162
3192.00,0.0162
3191.00,0.0161
3190.00,0.0161
3189.00,0.0160
3188.00,0.0160
3187.00,0.0159
3186.00,0.0159
3185.00,0.0158
3184.00,0.0158
3183.00,0.0157
3182.00,0.0157
3181.00,0.0157
3180.00,0.0156
3179.00,0.0156
3178.00,0.0156
3177.00,0.0155
3176.00,0.0155
3175.00,0.0155
3174.00,0.0154
3173.00,0.0154
3172.00,0.0154
3171.00,0.0154
3170.00,0.0153
3169.00,0.0153
3168.00,0.0153
3167.00,0.0152
3166.00,0.0152
3165.00,0.0151
3164.00,0.0151
3163.00,0.0150
3162.00,0.0150
3161.00,0.0150
3160.00,0.0149
3159.00,0.0149
3158.00,0.0149
3157.00,0.0149
3156.00,0.0148
3155.00,0.0148
3154.00,0.0148
3153.00,0.0147
3152.00,0.0147
3151.00,0.0147
3150.00,0.0147
3149.00,0.0147
3148.00,0.0146
3147.00,0.0146
3146.00,0.0146
3145.00,0.0146
3144.00,0.0146
3143.00,0.0145
3142.00,0.0145
3141.00,0.0144
3140.00,0.0144
3139.00,0.0144
3138.00,0.0144
3137.00,0.0144
3136.00,0.0144
3135.00,0.0143
3134.00,0.0143
3133.00,0.0143
3132.00,0.0142
3131.00,0.0142
3130.00,0.0142
3129.00,0.0142
3128.00,0.0142
3127.00,0.0142
3126.00,0.0142
3125.00,0.0141
3124.00,0.0141
3123.00,0.0141
3122.00,0.0141
3121.00,0.0140
3120.00,0.0140
3119.00,0.0140
3118.00,0.0140
3117.00,0.0140
3116.00,0.0140
3115.00,0.0140
3114.00,0.0140
3113.00,0.0140
3112.00,0.0139
3111.00,0.0139
3110.00,0.0138
3109.00,0.0138
3108.00,0.0138
3107.00,0.0138
3106.00,0.0138
3105.00,0.0138
3104.00,0.0138
3103.00,0.0138
3102.00,0.0138
3101.00,0.0138
3100.00,0.0137
3099.00,0.0137
3098.00,0.0137
3097.00,0.0136
3096.00,0.0136
3095.00,0.0136
3094.00,0.0136
3093.00,0.0136
3092.00,0.0136
3091.00,0.0136
3090.00,0.0136
3089.00,0.0135
3088.00,0.0135
3087.00,0.0134
3086.00,0.0134
3085.00,0.0134
3084.00,0.0134
3083.00,0.0134
3082.00,0.0134
3081.00,0.0133
3080.00,0.0133
3079.00,0.0133
3078.00,0.0133
3077.00,0.0133
3076.00,0.0133
3075.00,0.0133
3074.00,0.0133
3073.00,0.0132
3072.00,0.0132
3071.00,0.0132
3070.00,0.0132
3069.00,0.0132
3068.00,0.0132
3067.00,0.0132
3066.00,0.0132
3065.00,0.0132
3064.00,0.0132
3063.00,0.0132
3062.00,0.0132
3061.00,0.0132
3060.00,0.0132
3059.00,0.0131
3058.00,0.0131
3057.00,0.0131
3056.00,0.0131
3055.00,0.0131
3054.00,0.0131
3053.00,0.0131
3052.00,0.0131
3051.00,0.0131
3050.00,0.0131
3049.00,0.0131
3048.00,0.0131
3047.00,0.0131
3046.00,0.0130
3045.00,0.0131
3044.00,0.0131
3043.00,0.0131
3042.00,0.0131
3041.00,0.0131
3040.00,0.0131
3039.00,0.0131
3038.00,0.0131
3037.00,0.0131
3036.00,0.0131
3035.00,0.0131
3034.00,0.0131
3033.00,0.0131
3032.00,0.0131
3031.00,0.0131
3030.00,0.0132
3029.00,0.0132
3028.00,0.0132
3027.00,0.0132
3026.00,0.0133
3025.00,0.0133
3024.00,0.0133
3023.00,0.0133
3022.00,0.0134
3021.00,0.0134
3020.00,0.0134
3019.00,0.0135
3018.00,0.0135
3017.00,0.0135
3016.00,0.0135
3015.00,0.0135
3014.00,0.0135
3013.00,0.0134
3012.00,0.0134
3011.00,0.0133
3010.00,0.0133
3009.00,0.0132
3008.00,0.0131
3007.00,0.0130
3006.00,0.0130
3005.00,0.0129
3004.00,0.0128
3003.00,0.0128
3002.00,0.0128
3001.00,0.0128
3000.00,0.0129
2999.00,0.0130
2998.00,0.0132
2997.00,0.0134
2996.00,0.0137
2995.00,0.0140
2994.00,0.0143
2993.00,0.0146
2992.00,0.0150
2991.00,0.0155
2990.00,0.0159
2989.00,0.0163
2988.00,0.0167
2987.00,0.0169
2986.00,0.0169
2985.00,0.0165
2984.00,0.0158
2983.00,0.0151
2982.00,0.0147
2981.00,0.0149
2980.00,0.0156
2979.00,0.0167
2978.00,0.0179
2977.00,0.0190
2976.00,0.0199
2975.00,0.0205
2974.00,0.0209
2973.00,0.0212
2972.00,0.0215
2971.00,0.0220
2970.00,0.0228
2969.00,0.0237
2968.00,0.0247
2967.00,0.0255
2966.00,0.0263
2965.00,0.0270
2964.00,0.0277
2963.00,0.0283
2962.00,0.0289
2961.00,0.0295
2960.00,0.0301
2959.00,0.0306
2958.00,0.0311
2957.00,0.0316
2956.00,0.0321
2955.00,0.0325
2954.00,0.0329
2953.00,0.0333
2952.00,0.0336
2951.00,0.0339
2950.00,0.0341
2949.00,0.0342
2948.00,0.0343
2947.00,0.0344
2946.00,0.0344
2945.00,0.0345
2944.00,0.0344
2943.00,0.0343
2942.00,0.0342
2941.00,0.0340
2940.00,0.0338
2939.00,0.0337
2938.00,0.0336
2937.00,0.0335
2936.00,0.0334
2935.00,0.0334
2934.00,0.0333
2933.00,0.0334
2932.00,0.0334
2931.00,0.0335
2930.00,0.0337
2929.00,0.0339
2928.00,0.0342
2927.00,0.0345
2926.00,0.0347
2925.00,0.0349
2924.00,0.0351
2923.00,0.0352
2922.00,0.0353
2921.00,0.0353
2920.00,0.0352
2919.00,0.0351
2918.00,0.0349
2917.00,0.0346
2916.00,0.0343
2915.00,0.0340
2914.00,0.0337
2913.00,0.0333
2912.00,0.0329
2911.00,0.0325
2910.00,0.0321
2909.00,0.0317
2908.00,0.0313
2907.00,0.0309
2906.00,0.0305
2905.00,0.0302
2904.00,0.0299
2903.00,0.0298
2902.00,0.0297
2901.00,0.0296
2900.00,0.0296
2899.00,0.0296
2898.00,0.0296
2897.00,0.0297
2896.00,0.0297
2895.00,0.0297
2894.00,0.0298
2893.00,0.0298
2892.00,0.0297
2891.00,0.0297
2890.00,0.0297
2889.00,0.0297
2888.00,0.0298
2887.00,0.0299
2886.00,0.0299
2885.00,0.0300
2884.00,0.0300
2883.00,0.0301
2882.00,0.0303
2881.00,0.0305
2880.00,0.0308
2879.00,0.0309
2878.00,0.0310
2877.00,0.0311
2876.00,0.0310
2875.00,0.0310
2874.00,0.0309
2873.00,0.0308
2872.00,0.0307
2871.00,0.0307
2870.00,0.0306
2869.00,0.0305
2868.00,0.0304
2867.00,0.0303
2866.00,0.0302
2865.00,0.0301
2864.00,0.0299
2863.00,0.0298
2862.00,0.0296
2861.00,0.0294
2860.00,0.0292
2859.00,0.0290
2858.00,0.0289
2857.00,0.0287
2856.00,0.0285
2855.00,0.0282
2854.00,0.0279
2853.00,0.0275
2852.00,0.0272
2851.00,0.0268
2850.00,0.0264
2849.00,0.0260
2848.00,0.0256
2847.00,0.0253
2846.00,0.0250
2845.00,0.0247
2844.00,0.0244
2843.00,0.0241
2842.00,0.0237
2841.00,0.0233
2840.00,0.0229
2839.00,0.0226
2838.00,0.0223
2837.00,0.0221
2836.00,0.0219
2835.00,0.0216
2834.00,0.0214
2833.00,0.0211
2832.00,0.0208
2831.00,0.0205
2830.00,0.0202
2829.00,0.0200
2828.00,0.0197
2827.00,0.0194
2826.00,0.0191
2825.00,0.0189
2824.00,0.0186
2823.00,0.0184
2822.00,0.0181
2821.00,0.0179
2820.00,0.0177
2819.00,0.0175
2818.00,0.0174
2817.00,0.0172
2816.00,0.0171
2815.00,0.0169
2814.00,0.0168
2813.00,0.0166
2812.00,0.0165
2811.00,0.0164
2810.00,0.0164
2809.00,0.0163
2808.00,0.0162
2807.00,0.0162
2806.00,0.0161
2805.00,0.0160
2804.00,0.0160
2803.00,0.0159
2802.00,0.0158
2801.00,0.0158
2800.00,0.0157
2799.00,0.0157
2798.00,0.0156
2797.00,0.0156
2796.00,0.0155
2795.00,0.0155
2794.00,0.0155
2793.00,0.0154
2792.00,0.0154
2791.00,0.0153
2790.00,0.0153
2789.00,0.0152
2788.00,0.0152
2787.00,0.0152
2786.00,0.0152
2785.00,0.0151
2784.00,0.0151
2783.00,0.0150
2782.00,0.0150
2781.00,0.0150
2780.00,0.0149
2779.00,0.0149
2778.00,0.0148
2777.00,0.0148
2776.00,0.0148
2775.00,0.0148
2774.00,0.0147
2773.00,0.0147
2772.00,0.0147
2771.00,0.0146
2770.00,0.0146
2769.00,0.0146
2768.00,0.0145
2767.00,0.0145
2766.00,0.0145
2765.00,0.0145
2764.00,0.0145
2763.00,0.0145
2762.00,0.0144
2761.00,0.0144
2760.00,0.0144
2759.00,0.0144
2758.00,0.0144
2757.00,0.0144
2756.00,0.0144
2755.00,0.0144
2754.00,0.0143
2753.00,0.0143
2752.00,0.0143
2751.00,0.0143
2750.00,0.0143
2749.00,0.0143
2748.00,0.0143
2747.00,0.0143
2746.00,0.0143
2745.00,0.0143
2744.00,0.0143
2743.00,0.0143
2742.00,0.0143
2741.00,0.0143
2740.00,0.0143
2739.00,0.0143
2738.00,0.0142
2737.00,0.0142
2736.00,0.0142
2735.00,0.0142
2734.00,0.0142
2733.00,0.0142
2732.00,0.0142
2731.00,0.0142
2730.00,0.0142
2729.00,0.0142
2728.00,0.0142
2727.00,0.0142
2726.00,0.0142
2725.00,0.0142
2724.00,0.0141
2723.00,0.0141
2722.00,0.0141
2721.00,0.0141
2720.00,0.0141
2719.00,0.0141
2718.00,0.0141
2717.00,0.0141
2716.00,0.0141
2715.00,0.0141
2714.00,0.0140
2713.00,0.0140
2712.00,0.0140
2711.00,0.0139
2710.00,0.0139
2709.00,0.0139
2708.00,0.0139
2707.00,0.0139
2706.00,0.0139
2705.00,0.0139
2704.00,0.0139
2703.00,0.0139
2702.00,0.0138
2701.00,0.0138
2700.00,0.0138
2699.00,0.0138
2698.00,0.0138
2697.00,0.0138
2696.00,0.0138
2695.00,0.0138
2694.00,0.0138
2693.00,0.0137
2692.00,0.0137
2691.00,0.0137
2690.00,0.0137
2689.00,0.0136
2688.00,0.0136
2687.00,0.0136
2686.00,0.0136
2685.00,0.0136
2684.00,0.0136
2683.00,0.0136
2682.00,0.0136
2681.00,0.0136
2680.00,0.0136
2679.00,0.0136
2678.00,0.0136
2677.00,0.0135
2676.00,0.0135
2675.00,0.0135
2674.00,0.0135
2673.00,0.0135
2672.00,0.0135
2671.00,0.0135
2670.00,0.0135
2669.00,0.0135
2668.00,0.0135
2667.00,0.0136
2666.00,0.0136
2665.00,0.0137
2664.00,0.0137
2663.00,0.0138
2662.00,0.0138
2661.00,0.0139
2660.00,0.0139
2659.00,0.0139
2658.00,0.0139
2657.00,0.0139
2656.00,0.0140
2655.00,0.0140
2654.00,0.0140
2653.00,0.0140
2652.00,0.0140
2651.00,0.0140
2650.00,0.0140
2649.00,0.0140
2648.00,0.0140
2647.00,0.0139
2646.00,0.0139
2645.00,0.0139
2644.00,0.0139
2643.00,0.0139
2642.00,0.0139
2641.00,0.0139
2640.00,0.0139
2639.00,0.0139
2638.00,0.0139
2637.00,0.0139
2636.00,0.0139
2635.00,0.0139
2634.00,0.0139
2633.00,0.0138
2632.00,0.0138
2631.00,0.0138
2630.00,0.0138
2629.00,0.0138
2628.00,0.0138
2627.00,0.0138
2626.00,0.0138
2625.00,0.0138
2624.00,0.0138
2623.00,0.0137
2622.00,0.0137
2621.00,0.0137
2620.00,0.0137
2619.00,0.0137
2618.00,0.0137
2617.00,0.0137
2616.00,0.0137
2615.00,0.0137
2614.00,0.0136
2613.00,0.0136
2612.00,0.0137
2611.00,0.0137
2610.00,0.0136
2609.00,0.0136
2608.00,0.0136
2607.00,0.0136
2606.00,0.0135
2605.00,0.0136
2604.00,0.0136
2603.00,0.0136
2602.00,0.0136
2601.00,0.0135
2600.00,0.0135
2599.00,0.0136
2598.00,0.0136
2597.00,0.0136
2596.00,0.0136
2595.00,0.0136
2594.00,0.0136
2593.00,0.0136
2592.00,0.0137
2591.00,0.0137
2590.00,0.0136
2589.00,0.0136
2588.00,0.0136
2587.00,0.0136
2586.00,0.0136
2585.00,0.0136
2584.00,0.0136
2583.00,0.0136
2582.00,0.0136
2581.00,0.0136
2580.00,0.0136
2579.00,0.0136
2578.00,0.0136
2577.00,0.0136
2576.00,0.0137
2575.00,0.0136
2574.00,0.0136
2573.00,0.0136
2572.00,0.0137
2571.00,0.0137
2570.00,0.0136
2569.00,0.0136
2568.00,0.0136
2567.00,0.0136
2566.00,0.0136
2565.00,0.0136
2564.00,0.0136
2563.00,0.0136
2562.00,0.0135
2561.00,0.0135
2560.00,0.0135
2559.00,0.0134
2558.00,0.0134
2557.00,0.0134
2556.00,0.0134
2555.00,0.0134
2554.00,0.0134
2553.00,0.0134
2552.00,0.0134
2551.00,0.0134
2550.00,0.0134
2549.00,0.0134
2548.00,0.0133
2547.00,0.0133
2546.00,0.0133
2545.00,0.0133
2544.00,0.0133
2543.00,0.0133
2542.00,0.0133
2541.00,0.0133
2540.00,0.0133
2539.00,0.0133
2538.00,0.0132
2537.00,0.0132
2536.00,0.0132
2535.00,0.0132
2534.00,0.0132
2533.00,0.0131
2532.00,0.0131
2531.00,0.0131
2530.00,0.0131
2529.00,0.0131
2528.00,0.0131
2527.00,0.0131
2526.00,0.0131
2525.00,0.0131
2524.00,0.0130
2523.00,0.0130
2522.00,0.0130
2521.00,0.0129
2520.00,0.0129
2519.00,0.0129
2518.00,0.0129
2517.00,0.0129
2516.00,0.0129
2515.00,0.0129
2514.00,0.0129
2513.00,0.0129
2512.00,0.0129
2511.00,0.0128
2510.00,0.0128
2509.00,0.0128
2508.00,0.0128
2507.00,0.0128
2506.00,0.0128
2505.00,0.0128
2504.00,0.0128
2503.00,0.0128
2502.00,0.0128
2501.00,0.0128
2500.00,0.0128
2499.00,0.0128
2498.00,0.0128
2497.00,0.0128
2496.00,0.0128
2495.00,0.0128
2494.00,0.0127
2493.00,0.0127
2492.00,0.0127
2491.00,0.0127
2490.00,0.0128
2489.00,0.0128
2488.00,0.0128
2487.00,0.0128
2486.00,0.0128
2485.00,0.0127
2484.00,0.0127
2483.00,0.0127
2482.00,0.0127
2481.00,0.0127
2480.00,0.0127
2479.00,0.0127
2478.00,0.0127
2477.00,0.0127
2476.00,0.0126
2475.00,0.0126
2474.00,0.0126
2473.00,0.0126
2472.00,0.0126
2471.00,0.0126
2470.00,0.0127
2469.00,0.0127
2468.00,0.0127
2467.00,0.0127
2466.00,0.0127
2465.00,0.0127
2464.00,0.0127
2463.00,0.0127
2462.00,0.0127
2461.00,0.0127
2460.00,0.0127
2459.00,0.0127
2458.00,0.0128
2457.00,0.0128
2456.00,0.0128
2455.00,0.0128
2454.00,0.0128
2453.00,0.0129
2452.00,0.0129
2451.00,0.0129
2450.00,0.0128
2449.00,0.0128
2448.00,0.0128
2447.00,0.0128
2446.00,0.0128
2445.00,0.0128
2444.00,0.0128
2443.00,0.0128
2442.00,0.0128
2441.00,0.0128
2440.00,0.0128
2439.00,0.0128
2438.00,0.0128
2437.00,0.0128
2436.00,0.0128
2435.00,0.0128
2434.00,0.0127
2433.00,0.0127
2432.00,0.0127
2431.00,0.0127
2430.00,0.0127
2429.00,0.0126
2428.00,0.0126
2427.00,0.0127
2426.00,0.0126
2425.00,0.0126
2424.00,0.0126
2423.00,0.0127
2422.00,0.0127
2421.00,0.0127
2420.00,0.0127
2419.00,0.0127
2418.00,0.0127
2417.00,0.0127
2416.00,0.0127
2415.00,0.0127
2414.00,0.0127
2413.00,0.0127
2412.00,0.0127
2411.00,0.0127
2410.00,0.0127
2409.00,0.0126
2408.00,0.0126
2407.00,0.0126
2406.00,0.0126
2405.00,0.0126
2404.00,0.0126
2403.00,0.0126
2402.00,0.0126
2401.00,0.0126
2400.00,0.0126
2399.00,0.0126
2398.00,0.0126
2397.00,0.0126
2396.00,0.0126
2395.00,0.0126
2394.00,0.0126
2393.00,0.0125
2392.00,0.0125
2391.00,0.0125
2390.00,0.0125
2389.00,0.0124
2388.00,0.0124
2387.00,0.0123
2386.00,0.0123
2385.00,0.0122
2384.00,0.0121
2383.00,0.0120
2382.00,0.0119
2381.00,0.0118
2380.00,0.0118
2379.00,0.0118
2378.00,0.0118
2377.00,0.0118
2376.00,0.0119
2375.00,0.0119
2374.00,0.0119
2373.00,0.0120
2372.00,0.0120
2371.00,0.0119
2370.00,0.0119
2369.00,0.0118
2368.00,0.0118
2367.00,0.0118
2366.00,0.0118
2365.00,0.0118
2364.00,0.0118
2363.00,0.0118
2362.00,0.0118
2361.00,0.0118
2360.00,0.0119
2359.00,0.0119
2358.00,0.0119
2357.00,0.0120
2356.00,0.0121
2355.00,0.0121
2354.00,0.0121
2353.00,0.0120
2352.00,0.0120
2351.00,0.0121
2350.00,0.0121
2349.00,0.0121
2348.00,0.0121
2347.00,0.0120
2346.00,0.0119
2345.00,0.0120
2344.00,0.0121
2343.00,0.0122
2342.00,0.0124
2341.00,0.0125
2340.00,0.0126
2339.00,0.0126
2338.00,0.0126
2337.00,0.0126
2336.00,0.0127
2335.00,0.0127
2334.00,0.0127
2333.00,0.0127
2332.00,0.0127
2331.00,0.0127
2330.00,0.0127
2329.00,0.0130
2328.00,0.0134
2327.00,0.0139
2326.00,0.0142
2325.00,0.0143
2324.00,0.0141
2323.00,0.0139
2322.00,0.0137
2321.00,0.0136
2320.00,0.0135
2319.00,0.0134
2318.00,0.0134
2317.00,0.0133
2316.00,0.0132
2315.00,0.0132
2314.00,0.0131
2313.00,0.0130
2312.00,0.0129
2311.00,0.0129
2310.00,0.0128
2309.00,0.0128
2308.00,0.0128
2307.00,0.0128
2306.00,0.0129
2305.00,0.0129
2304.00,0.0130
2303.00,0.0130
2302.00,0.0130
2301.00,0.0131
2300.00,0.0131
2299.00,0.0131
2298.00,0.0132
2297.00,0.0132
2296.00,0.0133
2295.00,0.0133
2294.00,0.0134
2293.00,0.0135
2292.00,0.0136
2291.00,0.0137
2290.00,0.0138
2289.00,0.0139
2288.00,0.0140
2287.00,0.0141
2286.00,0.0140
2285.00,0.0139
2284.00,0.0138
2283.00,0.0137
2282.00,0.0136
2281.00,0.0137
2280.00,0.0137
2279.00,0.0136
2278.00,0.0135
2277.00,0.0134
2276.00,0.0133
2275.00,0.0132
2274.00,0.0132
2273.00,0.0132
2272.00,0.0132
2271.00,0.0132
2270.00,0.0132
2269.00,0.0132
2268.00,0.0132
2267.00,0.0131
2266.00,0.0129
2265.00,0.0129
2264.00,0.0129
2263.00,0.0129
2262.00,0.0129
2261.00,0.0130
2260.00,0.0131
2259.00,0.0131
2258.00,0.0130
2257.00,0.0128
2256.00,0.0128
2255.00,0.0127
2254.00,0.0127
2253.00,0.0128
2252.00,0.0129
2251.00,0.0130
2250.00,0.0130
2249.00,0.0130
2248.00,0.0130
2247.00,0.0130
2246.00,0.0130
2245.00,0.0130
2244.00,0.0131
2243.00,0.0131
2242.00,0.0131
2241.00,0.0131
2240.00,0.0131
2239.00,0.0130
2238.00,0.0130
2237.00,0.0130
2236.00,0.0131
2235.00,0.0131
2234.00,0.0131
2233.00,0.0131
2232.00,0.0131
2231.00,0.0130
2230.00,0.0130
2229.00,0.0130
2228.00,0.0129
2227.00,0.0129
2226.00,0.0129
2225.00,0.0130
2224.00,0.0130
2223.00,0.0130
2222.00,0.0130
2221.00,0.0130
2220.00,0.0131
2219.00,0.0131
2218.00,0.0130
2217.00,0.0130
2216.00,0.0129
2215.00,0.0129
2214.00,0.0128
2213.00,0.0128
2212.00,0.0129
2211.00,0.0129
2210.00,0.0129
2209.00,0.0128
2208.00,0.0127
2207.00,0.0127
2206.00,0.0127
2205.00,0.0128
2204.00,0.0130
2203.00,0.0132
2202.00,0.0132
2201.00,0.0132
2200.00,0.0131
2199.00,0.0131
2198.00,0.0131
2197.00,0.0132
2196.00,0.0132
2195.00,0.0132
2194.00,0.0131
2193.00,0.0131
2192.00,0.0131
2191.00,0.0132
2190.00,0.0132
2189.00,0.0132
2188.00,0.0133
2187.00,0.0133
2186.00,0.0132
2185.00,0.0130
2184.00,0.0128
2183.00,0.0126
2182.00,0.0125
2181.00,0.0126
2180.00,0.0129
2179.00,0.0131
2178.00,0.0130
2177.00,0.0129
2176.00,0.0128
2175.00,0.0128
2174.00,0.0129
2173.00,0.0130
2172.00,0.0133
2171.00,0.0136
2170.00,0.0137
2169.00,0.0137
2168.00,0.0137
2167.00,0.0136
2166.00,0.0136
2165.00,0.0139
2164.00,0.0144
2163.00,0.0145
2162.00,0.0138
2161.00,0.0124
2160.00,0.0107
2159.00,0.0094
2158.00,0.0089
2157.00,0.0090
2156.00,0.0094
2155.00,0.0098
2154.00,0.0102
2153.00,0.0106
2152.00,0.0109
2151.00,0.0111
2150.00,0.0110
2149.00,0.0109
2148.00,0.0109
2147.00,0.0109
2146.00,0.0109
2145.00,0.0110
2144.00,0.0110
2143.00,0.0111
2142.00,0.0111
2141.00,0.0112
2140.00,0.0113
2139.00,0.0112
2138.00,0.0111
2137.00,0.0108
2136.00,0.0106
2135.00,0.0105
2134.00,0.0105
2133.00,0.0107
2132.00,0.0110
2131.00,0.0112
2130.00,0.0113
2129.00,0.0115
2128.00,0.0116
2127.00,0.0117
2126.00,0.0118
2125.00,0.0119
2124.00,0.0120
2123.00,0.0121
2122.00,0.0122
2121.00,0.0123
2120.00,0.0125
2119.00,0.0126
2118.00,0.0128
2117.00,0.0130
2116.00,0.0131
2115.00,0.0131
2114.00,0.0130
2113.00,0.0130
2112.00,0.0129
2111.00,0.0129
2110.00,0.0129
2109.00,0.0128
2108.00,0.0128
2107.00,0.0128
2106.00,0.0127
2105.00,0.0127
2104.00,0.0127
2103.00,0.0127
2102.00,0.0127
2101.00,0.0127
2100.00,0.0126
2099.00,0.0125
2098.00,0.0124
2097.00,0.0122
2096.00,0.0121
2095.00,0.0120
2094.00,0.0121
2093.00,0.0122
2092.00,0.0123
2091.00,0.0123
2090.00,0.0124
2089.00,0.0124
2088.00,0.0125
2087.00,0.0126
2086.00,0.0126
2085.00,0.0126
2084.00,0.0126
2083.00,0.0126
2082.00,0.0126
2081.00,0.0127
2080.00,0.0127
2079.00,0.0127
2078.00,0.0127
2077.00,0.0126
2076.00,0.0126
2075.00,0.0126
2074.00,0.0126
2073.00,0.0126
2072.00,0.0126
2071.00,0.0125
2070.00,0.0124
2069.00,0.0123
2068.00,0.0123
2067.00,0.0123
2066.00,0.0122
2065.00,0.0122
2064.00,0.0122
2063.00,0.0122
2062.00,0.0122
2061.00,0.0122
2060.00,0.0123
2059.00,0.0124
2058.00,0.0124
2057.00,0.0124
2056.00,0.0123
2055.00,0.0124
2054.00,0.0127
2053.00,0.0131
2052.00,0.0135
2051.00,0.0135
2050.00,0.0131
2049.00,0.0127
2048.00,0.0125
2047.00,0.0124
2046.00,0.0122
2045.00,0.0121
2044.00,0.0120
2043.00,0.0119
2042.00,0.0119
2041.00,0.0120
2040.00,0.0122
2039.00,0.0123
2038.00,0.0122
2037.00,0.0121
2036.00,0.0119
2035.00,0.0115
2034.00,0.0111
2033.00,0.0108
2032.00,0.0109
2031.00,0.0109
2030.00,0.0110
2029.00,0.0111
2028.00,0.0113
2027.00,0.0113
2026.00,0.0112
2025.00,0.0112
2024.00,0.0113
2023.00,0.0112
2022.00,0.0111
2021.00,0.0110
2020.00,0.0110
2019.00,0.0110
2018.00,0.0110
2017.00,0.0111
2016.00,0.0111
2015.00,0.0111
2014.00,0.0111
2013.00,0.0111
2012.00,0.0112
2011.00,0.0111
2010.00,0.0108
2009.00,0.0105
2008.00,0.0102
2007.00,0.0100
2006.00,0.0100
2005.00,0.0102
2004.00,0.0104
2003.00,0.0104
2002.00,0.0104
2001.00,0.0105
2000.00,0.0107
1999.00,0.0108
1998.00,0.0109
1997.00,0.0109
1996.00,0.0111
1995.00,0.0112
1994.00,0.0112
1993.00,0.0112
1992.00,0.0113
1991.00,0.0113
1990.00,0.0113
1989.00,0.0113
1988.00,0.0114
1987.00,0.0115
1986.00,0.0115
1985.00,0.0116
1984.00,0.0119
1983.00,0.0122
1982.00,0.0124
1981.00,0.0126
1980.00,0.0125
1979.00,0.0120
1978.00,0.0111
1977.00,0.0104
1976.00,0.0100
1975.00,0.0098
1974.00,0.0096
1973.00,0.0096
1972.00,0.0098
1971.00,0.0098
1970.00,0.0098
1969.00,0.0099
1968.00,0.0101
1967.00,0.0101
1966.00,0.0101
1965.00,0.0102
1964.00,0.0103
1963.00,0.0102
1962.00,0.0099
1961.00,0.0097
1960.00,0.0096
1959.00,0.0095
1958.00,0.0095
1957.00,0.0098
1956.00,0.0101
1955.00,0.0103
1954.00,0.0102
1953.00,0.0102
1952.00,0.0101
1951.00,0.0100
1950.00,0.0100
1949.00,0.0100
1948.00,0.0100
1947.00,0.0101
1946.00,0.0101
1945.00,0.0101
1944.00,0.0102
1943.00,0.0102
1942.00,0.0102
1941.00,0.0101
1940.00,0.0102
1939.00,0.0102
1938.00,0.0101
1937.00,0.0102
1936.00,0.0102
1935.00,0.0102
1934.00,0.0102
1933.00,0.0102
1932.00,0.0102
1931.00,0.0103
1930.00,0.0102
1929.00,0.0102
1928.00,0.0103
1927.00,0.0103
1926.00,0.0103
1925.00,0.0103
1924.00,0.0103
1923.00,0.0104
1922.00,0.0104
1921.00,0.0104
1920.00,0.0105
1919.00,0.0104
1918.00,0.0103
1917.00,0.0102
1916.00,0.0103
1915.00,0.0103
1914.00,0.0103
1913.00,0.0103
1912.00,0.0104
1911.00,0.0104
1910.00,0.0104
1909.00,0.0103
1908.00,0.0103
1907.00,0.0103
1906.00,0.0103
1905.00,0.0103
1904.00,0.0103
1903.00,0.0104
1902.00,0.0103
1901.00,0.0103
1900.00,0.0104
1899.00,0.0104
1898.00,0.0103
1897.00,0.0103
1896.00,0.0103
1895.00,0.0103
1894.00,0.0103
1893.00,0.0103
1892.00,0.0104
1891.00,0.0104
1890.00,0.0104
1889.00,0.0103
1888.00,0.0102
1887.00,0.0102
1886.00,0.0101
1885.00,0.0101
1884.00,0.0102
1883.00,0.0102
1882.00,0.0102
1881.00,0.0101
1880.00,0.0101
1879.00,0.0101
1878.00,0.0101
1877.00,0.0101
1876.00,0.0101
1875.00,0.0102
1874.00,0.0102
1873.00,0.0102
1872.00,0.0102
1871.00,0.0102
1870.00,0.0103
1869.00,0.0103
1868.00,0.0103
1867.00,0.0102
1866.00,0.0101
1865.00,0.0101
1864.00,0.0101
1863.00,0.0101
1862.00,0.0101
1861.00,0.0101
1860.00,0.0101
1859.00,0.0101
1858.00,0.0100
1857.00,0.0100
1856.00,0.0100
1855.00,0.0100
1854.00,0.0100
1853.00,0.0099
1852.00,0.0099
1851.00,0.0100
1850.00,0.0100
1849.00,0.0100
1848.00,0.0101
1847.00,0.0101
1846.00,0.0101
1845.00,0.0100
1844.00,0.0100
1843.00,0.0100
1842.00,0.0099
1841.00,0.0099
1840.00,0.0100
1839.00,0.0100
1838.00,0.0100
1837.00,0.0099
1836.00,0.0100
1835.00,0.0100
1834.00,0.0099
1833.00,0.0099
1832.00,0.0100
1831.00,0.0100
1830.00,0.0099
1829.00,0.0099
1828.00,0.0099
1827.00,0.0099
1826.00,0.0099
1825.00,0.0099
1824.00,0.0099
1823.00,0.0098
1822.00,0.0097
1821.00,0.0097
1820.00,0.0096
1819.00,0.0095
1818.00,0.0093
1817.00,0.0092
1816.00,0.0093
1815.00,0.0093
1814.00,0.0094
1813.00,0.0095
1812.00,0.0095
1811.00,0.0096
1810.00,0.0095
1809.00,0.0095
1808.00,0.0095
1807.00,0.0095
1806.00,0.0095
1805.00,0.0095
1804.00,0.0095
1803.00,0.0096
1802.00,0.0095
1801.00,0.0095
1800.00,0.0095
1799.00,0.0095
1798.00,0.0094
1797.00,0.0095
1796.00,0.0095
1795.00,0.0095
1794.00,0.0095
1793.00,0.0094
1792.00,0.0094
1791.00,0.0093
1790.00,0.0093
1789.00,0.0093
1788.00,0.0093
1787.00,0.0093
1786.00,0.0092
1785.00,0.0092
1784.00,0.0092
1783.00,0.0093
1782.00,0.0093
1781.00,0.0093
1780.00,0.0093
1779.00,0.0093
1778.00,0.0092
1777.00,0.0093
1776.00,0.0094
1775.00,0.0094
1774.00,0.0094
1773.00,0.0093
1772.00,0.0093
1771.00,0.0092
1770.00,0.0092
1769.00,0.0092
1768.00,0.0093
1767.00,0.0093
1766.00,0.0092
1765.00,0.0092
1764.00,0.0094
1763.00,0.0094
1762.00,0.0094
1761.00,0.0093
1760.00,0.0093
1759.00,0.0094
1758.00,0.0093
1757.00,0.0093
1756.00,0.0093
1755.00,0.0093
1754.00,0.0094
1753.00,0.0095
1752.00,0.0097
1751.00,0.0097
1750.00,0.0097
1749.00,0.0097
1748.00,0.0098
1747.00,0.0098
1746.00,0.0098
1745.00,0.0098
1744.00,0.0100
1743.00,0.0100
1742.00,0.0099
1741.00,0.0099
1740.00,0.0100
1739.00,0.0100
1738.00,0.0100
1737.00,0.0101
1736.00,0.0103
1735.00,0.0105
1734.00,0.0104
1733.00,0.0104
1732.00,0.0106
1731.00,0.0107
1730.00,0.0108
1729.00,0.0108
1728.00,0.0110
1727.00,0.0112
1726.00,0.0113
1725.00,0.0115
1724.00,0.0117
1723.00,0.0120
1722.00,0.0121
1721.00,0.0123
1720.00,0.0128
1719.00,0.0133
1718.00,0.0137
1717.00,0.0141
1716.00,0.0146
1715.00,0.0150
1714.00,0.0154
1713.00,0.0161
1712.00,0.0169
1711.00,0.0179
1710.00,0.0188
1709.00,0.0199
1708.00,0.0213
1707.00,0.0230
1706.00,0.0249
1705.00,0.0271
1704.00,0.0293
1703.00,0.0312
1702.00,0.0334
1701.00,0.0374
1700.00,0.0431
1699.00,0.0481
1698.00,0.0520
1697.00,0.0565
1696.00,0.0630
1695.00,0.0700
1694.00,0.0759
1693.00,0.0808
1692.00,0.0858
1691.00,0.0917
1690.00,0.0983
1689.00,0.1050
1688.00,0.1108
1687.00,0.1156
1686.00,0.1209
1685.00,0.1299
1684.00,0.1424
1683.00,0.1533
1682.00,0.1601
1681.00,0.1650
1680.00,0.1700
1679.00,0.1749
1678.00,0.1790
1677.00,0.1835
1676.00,0.1901
1675.00,0.1985
1674.00,0.2054
1673.00,0.2094
1672.00,0.2119
1671.00,0.2155
1670.00,0.2213
1669.00,0.2284
1668.00,0.2341
1667.00,0.2370
1666.00,0.2377
1665.00,0.2382
1664.00,0.2402
1663.00,0.2445
1662.00,0.2493
1661.00,0.2527
1660.00,0.2542
1659.00,0.2545
1658.00,0.2538
1657.00,0.2517
1656.00,0.2482
1655.00,0.2450
1654.00,0.2468
1653.00,0.2546
1652.00,0.2600
1651.00,0.2571
1650.00,0.2494
1649.00,0.2408
1648.00,0.2339
1647.00,0.2293
1646.00,0.2253
1645.00,0.2198
1644.00,0.2124
1643.00,0.2039
1642.00,0.1953
1641.00,0.1869
1640.00,0.1788
1639.00,0.1710
1638.00,0.1632
1637.00,0.1561
1636.00,0.1503
1635.00,0.1455
1634.00,0.1406
1633.00,0.1351
1632.00,0.1293
1631.00,0.1237
1630.00,0.1185
1629.00,0.1139
1628.00,0.1097
1627.00,0.1059
1626.00,0.1022
1625.00,0.0984
1624.00,0.0950
1623.00,0.0920
1622.00,0.0893
1621.00,0.0864
1620.00,0.0832
1619.00,0.0802
1618.00,0.0774
1617.00,0.0751
1616.00,0.0732
1615.00,0.0712
1614.00,0.0691
1613.00,0.0668
1612.00,0.0646
1611.00,0.0625
1610.00,0.0608
1609.00,0.0591
1608.00,0.0574
1607.00,0.0559
1606.00,0.0544
1605.00,0.0529
1604.00,0.0516
1603.00,0.0503
1602.00,0.0492
1601.00,0.0480
1600.00,0.0469
1599.00,0.0459
1598.00,0.0450
1597.00,0.0441
1596.00,0.0432
1595.00,0.0424
1594.00,0.0417
1593.00,0.0410
1592.00,0.0403
1591.00,0.0396
1590.00,0.0390
1589.00,0.0383
1588.00,0.0377
1587.00,0.0371
1586.00,0.0365
1585.00,0.0360
1584.00,0.0354
1583.00,0.0348
1582.00,0.0343
1581.00,0.0338
1580.00,0.0333
1579.00,0.0328
1578.00,0.0324
1577.00,0.0320
1576.00,0.0317
1575.00,0.0313
1574.00,0.0310
1573.00,0.0305
1572.00,0.0300
1571.00,0.0296
1570.00,0.0293
1569.00,0.0291
1568.00,0.0289
1567.00,0.0287
1566.00,0.0284
1565.00,0.0281
1564.00,0.0278
1563.00,0.0275
1562.00,0.0272
1561.00,0.0268
1560.00,0.0266
1559.00,0.0266
1558.00,0.0266
1557.00,0.0265
1556.00,0.0264
1555.00,0.0262
1554.00,0.0260
1553.00,0.0258
1552.00,0.0256
1551.00,0.0255
1550.00,0.0253
1549.00,0.0251
1548.00,0.0249
1547.00,0.0247
1546.00,0.0246
1545.00,0.0246
1544.00,0.0245
1543.00,0.0243
1542.00,0.0242
1541.00,0.0241
1540.00,0.0240
1539.00,0.0239
1538.00,0.0238
1537.00,0.0236
1536.00,0.0234
1535.00,0.0232
1534.00,0.0231
1533.00,0.0230
1532.00,0.0230
1531.00,0.0229
1530.00,0.0228
1529.00,0.0227
1528.00,0.0227
1527.00,0.0226
1526.00,0.0226
1525.00,0.0225
1524.00,0.0225
1523.00,0.0224
1522.00,0.0225
1521.00,0.0225
1520.00,0.0225
1519.00,0.0225
1518.00,0.0225
1517.00,0.0226
1516.00,0.0227
1515.00,0.0227
1514.00,0.0229
1513.00,0.0231
1512.00,0.0235
1511.00,0.0239
1510.00,0.0244
1509.00,0.0250
1508.00,0.0260
1507.00,0.0274
1506.00,0.0291
1505.00,0.0308
1504.00,0.0324
1503.00,0.0338
1502.00,0.0354
1501.00,0.0373
1500.00,0.0394
1499.00,0.0416
1498.00,0.0440
1497.00,0.0465
1496.00,0.0487
1495.00,0.0501
1494.00,0.0507
1493.00,0.0507
1492.00,0.0502
1491.00,0.0493
1490.00,0.0481
1489.00,0.0466
1488.00,0.0445
1487.00,0.0423
1486.00,0.0401
1485.00,0.0380
1484.00,0.0362
1483.00,0.0345
1482.00,0.0332
1481.00,0.0321
1480.00,0.0314
1479.00,0.0309
1478.00,0.0308
1477.00,0.0310
1476.00,0.0316
1475.00,0.0325
1474.00,0.0340
1473.00,0.0366
1472.00,0.0402
1471.00,0.0440
1470.00,0.0478
1469.00,0.0517
1468.00,0.0559
1467.00,0.0606
1466.00,0.0661
1465.00,0.0724
1464.00,0.0783
1463.00,0.0826
1462.00,0.0851
1461.00,0.0862
1460.00,0.0862
1459.00,0.0850
1458.00,0.0830
1457.00,0.0802
1456.00,0.0769
1455.00,0.0734
1454.00,0.0700
1453.00,0.0671
1452.00,0.0649
1451.00,0.0634
1450.00,0.0628
1449.00,0.0632
1448.00,0.0648
1447.00,0.0672
1446.00,0.0700
1445.00,0.0733
1444.00,0.0771
1443.00,0.0814
1442.00,0.0860
1441.00,0.0905
1440.00,0.0946
1439.00,0.0984
1438.00,0.1025
1437.00,0.1078
1436.00,0.1133
1435.00,0.1170
1434.00,0.1189
1433.00,0.1200
1432.00,0.1213
1431.00,0.1232
1430.00,0.1258
1429.00,0.1293
1428.00,0.1333
1427.00,0.1373
1426.00,0.1417
1425.00,0.1467
1424.00,0.1519
1423.00,0.1555
1422.00,0.1568
1421.00,0.1562
1420.00,0.1542
1419.00,0.1505
1418.00,0.1448
1417.00,0.1373
1416.00,0.1285
1415.00,0.1190
1414.00,0.1096
1413.00,0.1007
1412.00,0.0924
1411.00,0.0849
1410.00,0.0782
1409.00,0.0724
1408.00,0.0673
1407.00,0.0627
1406.00,0.0588
1405.00,0.0553
1404.00,0.0522
1403.00,0.0495
1402.00,0.0472
1401.00,0.0452
1400.00,0.0433
1399.00,0.0417
1398.00,0.0404
1397.00,0.0393
1396.00,0.0383
1395.00,0.0375
1394.00,0.0370
1393.00,0.0367
1392.00,0.0365
1391.00,0.0365
1390.00,0.0368
1389.00,0.0372
1388.00,0.0379
1387.00,0.0390
1386.00,0.0401
1385.00,0.0412
1384.00,0.0424
1383.00,0.0436
1382.00,0.0450
1381.00,0.0466
1380.00,0.0482
1379.00,0.0497
1378.00,0.0512
1377.00,0.0524
1376.00,0.0535
1375.00,0.0544
1374.00,0.0553
1373.00,0.0558
1372.00,0.0559
1371.00,0.0558
1370.00,0.0555
1369.00,0.0550
1368.00,0.0543
1367.00,0.0534
1366.00,0.0524
1365.00,0.0512
1364.00,0.0499
1363.00,0.0485
1362.00,0.0471
1361.00,0.0457
1360.00,0.0442
1359.00,0.0428
1358.00,0.0416
1357.00,0.0404
1356.00,0.0393
1355.00,0.0383
1354.00,0.0375
1353.00,0.0367
1352.00,0.0359
1351.00,0.0353
1350.00,0.0347
1349.00,0.0341
1348.00,0.0336
1347.00,0.0332
1346.00,0.0328
1345.00,0.0325
1344.00,0.0323
1343.00,0.0321
1342.00,0.0321
1341.00,0.0322
1340.00,0.0324
1339.00,0.0325
1338.00,0.0327
1337.00,0.0330
1336.00,0.0333
1335.00,0.0336
1334.00,0.0341
1333.00,0.0347
1332.00,0.0354
1331.00,0.0363
1330.00,0.0374
1329.00,0.0386
1328.00,0.0400
1327.00,0.0415
1326.00,0.0433
1325.00,0.0452
1324.00,0.0472
1323.00,0.0493
1322.00,0.0514
1321.00,0.0534
1320.00,0.0553
1319.00,0.0570
1318.00,0.0584
1317.00,0.0594
1316.00,0.0598
1315.00,0.0598
1314.00,0.0594
1313.00,0.0586
1312.00,0.0575
1311.00,0.0563
1310.00,0.0551
1309.00,0.0540
1308.00,0.0531
1307.00,0.0524
1306.00,0.0522
1305.00,0.0524
1304.00,0.0530
1303.00,0.0542
1302.00,0.0561
1301.00,0.0587
1300.00,0.0622
1299.00,0.0666
1298.00,0.0720
1297.00,0.0785
1296.00,0.0861
1295.00,0.0945
1294.00,0.1037
1293.00,0.1134
1292.00,0.1233
1291.00,0.1329
1290.00,0.1421
1289.00,0.1503
1288.00,0.1574
1287.00,0.1628
1286.00,0.1664
1285.00,0.1681
1284.00,0.1681
1283.00,0.1664
1282.00,0.1637
1281.00,0.1606
1280.00,0.1576
1279.00,0.1552
1278.00,0.1538
1277.00,0.1535
1276.00,0.1543
1275.00,0.1557
1274.00,0.1576
1273.00,0.1595
1272.00,0.1611
1271.00,0.1619
1270.00,0.1618
1269.00,0.1605
1268.00,0.1582
1267.00,0.1548
1266.00,0.1505
1265.00,0.1454
1264.00,0.1399
1263.00,0.1340
1262.00,0.1281
1261.00,0.1222
1260.00,0.1165
1259.00,0.1111
1258.00,0.1060
1257.00,0.1013
1256.00,0.0970
1255.00,0.0930
1254.00,0.0895
1253.00,0.0863
1252.00,0.0835
1251.00,0.0811
1250.00,0.0792
1249.00,0.0775
1248.00,0.0761
1247.00,0.0750
1246.00,0.0742
1245.00,0.0735
1244.00,0.0731
1243.00,0.0728
1242.00,0.0728
1241.00,0.0730
1240.00,0.0734
1239.00,0.0739
1238.00,0.0747
1237.00,0.0756
1236.00,0.0766
1235.00,0.0776
1234.00,0.0787
1233.00,0.0798
1232.00,0.0807
1231.00,0.0816
1230.00,0.0823
1229.00,0.0828
1228.00,0.0831
1227.00,0.0832
1226.00,0.0831
1225.00,0.0829
1224.00,0.0826
1223.00,0.0823
1222.00,0.0819
1221.00,0.0815
1220.00,0.0810
1219.00,0.0804
1218.00,0.0798
1217.00,0.0790
1216.00,0.0781
1215.00,0.0771
1214.00,0.0759
1213.00,0.0747
1212.00,0.0734
1211.00,0.0722
1210.00,0.0709
1209.00,0.0697
1208.00,0.0685
1207.00,0.0674
1206.00,0.0663
1205.00,0.0653
1204.00,0.0643
1203.00,0.0633
1202.00,0.0624
1201.00,0.0616
1200.00,0.0607
1199.00,0.0599
1198.00,0.0591
1197.00,0.0583
1196.00,0.0576
1195.00,0.0569
1194.00,0.0562
1193.00,0.0556
1192.00,0.0550
1191.00,0.0545
1190.00,0.0540
1189.00,0.0536
1188.00,0.0531
1187.00,0.0527
1186.00,0.0524
1185.00,0.0521
1184.00,0.0519
1183.00,0.0517
1182.00,0.0516
1181.00,0.0516
1180.00,0.0517
1179.00,0.0519
1178.00,0.0523
1177.00,0.0528
1176.00,0.0533
1175.00,0.0539
1174.00,0.0546
1173.00,0.0553
1172.00,0.0559
1171.00,0.0565
1170.00,0.0569
1169.00,0.0572
1168.00,0.0573
1167.00,0.0572
1166.00,0.0569
1165.00,0.0563
1164.00,0.0555
1163.00,0.0547
1162.00,0.0538
1161.00,0.0528
1160.00,0.0518
1159.00,0.0508
1158.00,0.0498
1157.00,0.0488
1156.00,0.0479
1155.00,0.0470
1154.00,0.0462
1153.00,0.0455
1152.00,0.0448
1151.00,0.0441
1150.00,0.0435
1149.00,0.0429
1148.00,0.0423
1147.00,0.0417
1146.00,0.0411
1145.00,0.0406
1144.00,0.0400
1143.00,0.0394
1142.00,0.0389
1141.00,0.0384
1140.00,0.0379
1139.00,0.0374
1138.00,0.0370
1137.00,0.0366
1136.00,0.0364
1135.00,0.0361
1134.00,0.0360
1133.00,0.0358
1132.00,0.0357
1131.00,0.0356
1130.00,0.0356
1129.00,0.0356
1128.00,0.0357
1127.00,0.0358
1126.00,0.0359
1125.00,0.0360
1124.00,0.0360
1123.00,0.0361
1122.00,0.0363
1121.00,0.0364
1120.00,0.0365
1119.00,0.0366
1118.00,0.0368
1117.00,0.0368
1116.00,0.0369
1115.00,0.0370
1114.00,0.0371
1113.00,0.0372
1112.00,0.0373
1111.00,0.0374
1110.00,0.0374
1109.00,0.0375
1108.00,0.0375
1107.00,0.0375
1106.00,0.0375
1105.00,0.0375
1104.00,0.0374
1103.00,0.0374
1102.00,0.0374
1101.00,0.0373
1100.00,0.0372
1099.00,0.0371
1098.00,0.0370
1097.00,0.0369
1096.00,0.0367
1095.00,0.0366
1094.00,0.0365
1093.00,0.0363
1092.00,0.0362
1091.00,0.0360
1090.00,0.0359
1089.00,0.0358
1088.00,0.0357
1087.00,0.0356
1086.00,0.0356
1085.00,0.0355
1084.00,0.0356
1083.00,0.0356
1082.00,0.0357
1081.00,0.0359
1080.00,0.0360
1079.00,0.0363
1078.00,0.0366
1077.00,0.0369
1076.00,0.0371
1075.00,0.0372
1074.00,0.0372
1073.00,0.0371
1072.00,0.0369
1071.00,0.0366
1070.00,0.0363
1069.00,0.0360
1068.00,0.0356
1067.00,0.0354
1066.00,0.0351
1065.00,0.0349
1064.00,0.0347
1063.00,0.0346
1062.00,0.0344
1061.00,0.0344
1060.00,0.0343
1059.00,0.0344
1058.00,0.0345
1057.00,0.0346
1056.00,0.0347
1055.00,0.0347
1054.00,0.0348
1053.00,0.0349
1052.00,0.0350
1051.00,0.0351
1050.00,0.0351
1049.00,0.0352
1048.00,0.0352
1047.00,0.0353
1046.00,0.0353
1045.00,0.0353
1044.00,0.0353
1043.00,0.0353
1042.00,0.0354
1041.00,0.0354
1040.00,0.0355
1039.00,0.0355
1038.00,0.0357
1037.00,0.0358
1036.00,0.0360
1035.00,0.0363
1034.00,0.0365
1033.00,0.0368
1032.00,0.0371
1031.00,0.0374
1030.00,0.0377
1029.00,0.0381
1028.00,0.0385
1027.00,0.0390
1026.00,0.0395
1025.00,0.0401
1024.00,0.0408
1023.00,0.0416
1022.00,0.0424
1021.00,0.0431
1020.00,0.0438
1019.00,0.0443
1018.00,0.0446
1017.00,0.0446
1016.00,0.0443
1015.00,0.0436
1014.00,0.0427
1013.00,0.0417
1012.00,0.0407
1011.00,0.0397
1010.00,0.0390
1009.00,0.0385
1008.00,0.0383
1007.00,0.0383
1006.00,0.0385
1005.00,0.0388
1004.00,0.0393
1003.00,0.0397
1002.00,0.0399
1001.00,0.0400
1000.00,0.0398
999.00,0.0394
998.00,0.0388
997.00,0.0381
996.00,0.0373
995.00,0.0366
994.00,0.0360
993.00,0.0354
992.00,0.0348
991.00,0.0344
990.00,0.0340
989.00,0.0337
988.00,0.0334
987.00,0.0331
986.00,0.0329
985.00,0.0326
984.00,0.0324
983.00,0.0320
982.00,0.0317
981.00,0.0314
980.00,0.0310
979.00,0.0306
978.00,0.0302
977.00,0.0298
976.00,0.0293
975.00,0.0289
974.00,0.0284
973.00,0.0280
972.00,0.0275
971.00,0.0271
970.00,0.0267
969.00,0.0264
968.00,0.0262
967.00,0.0259
966.00,0.0258
965.00,0.0257
964.00,0.0256
963.00,0.0255
962.00,0.0255
961.00,0.0253
960.00,0.0251
959.00,0.0249
958.00,0.0247
957.00,0.0245
956.00,0.0243
955.00,0.0242
954.00,0.0241
953.00,0.0241
952.00,0.0240
951.00,0.0240
950.00,0.0240
949.00,0.0241
948.00,0.0243
947.00,0.0244
946.00,0.0246
945.00,0.0248
944.00,0.0251
943.00,0.0255
942.00,0.0260
941.00,0.0267
940.00,0.0274
939.00,0.0284
938.00,0.0295
937.00,0.0307
936.00,0.0318
935.00,0.0329
934.00,0.0337
933.00,0.0343
932.00,0.0345
931.00,0.0343
930.00,0.0340
929.00,0.0337
928.00,0.0333
927.00,0.0330
926.00,0.0327
925.00,0.0325
924.00,0.0322
923.00,0.0320
922.00,0.0318
921.00,0.0315
920.00,0.0313
919.00,0.0311
918.00,0.0309
917.00,0.0308
916.00,0.0308
915.00,0.0307
914.00,0.0306
913.00,0.0305
912.00,0.0304
911.00,0.0305
910.00,0.0306
909.00,0.0307
908.00,0.0308
907.00,0.0310
906.00,0.0313
905.00,0.0316
904.00,0.0319
903.00,0.0323
902.00,0.0327
901.00,0.0331
900.00,0.0335
899.00,0.0338
898.00,0.0341
897.00,0.0342
896.00,0.0343
895.00,0.0343
894.00,0.0343
893.00,0.0341
892.00,0.0338
891.00,0.0334
890.00,0.0330
889.00,0.0326
888.00,0.0321
887.00,0.0316
886.00,0.0312
885.00,0.0309
884.00,0.0306
883.00,0.0303
882.00,0.0301
881.00,0.0300
880.00,0.0298
879.00,0.0296
878.00,0.0295
877.00,0.0294
876.00,0.0293
875.00,0.0293
874.00,0.0294
873.00,0.0295
872.00,0.0296
871.00,0.0297
870.00,0.0298
869.00,0.0300
868.00,0.0303
867.00,0.0306
866.00,0.0310
865.00,0.0315
864.00,0.0320
863.00,0.0325
862.00,0.0332
861.00,0.0339
860.00,0.0347
859.00,0.0357
858.00,0.0366
857.00,0.0377
856.00,0.0388
855.00,0.0400
854.00,0.0413
853.00,0.0426
852.00,0.0438
851.00,0.0451
850.00,0.0463
849.00,0.0473
848.00,0.0482
847.00,0.0489
846.00,0.0493
845.00,0.0496
844.00,0.0496
843.00,0.0494
842.00,0.0491
841.00,0.0486
840.00,0.0479
839.00,0.0472
838.00,0.0464
837.00,0.0455
836.00,0.0446
835.00,0.0436
834.00,0.0427
833.00,0.0417
832.00,0.0408
831.00,0.0398
830.00,0.0390
829.00,0.0381
828.00,0.0373
827.00,0.0365
826.00,0.0357
825.00,0.0350
824.00,0.0343
823.00,0.0337
822.00,0.0330
821.00,0.0325
820.00,0.0321
819.00,0.0316
818.00,0.0313
817.00,0.0308
816.00,0.0304
815.00,0.0301
814.00,0.0298
813.00,0.0295
812.00,0.0293
811.00,0.0290
810.00,0.0288
809.00,0.0287
808.00,0.0285
807.00,0.0284
806.00,0.0283
805.00,0.0282
804.00,0.0281
803.00,0.0280
802.00,0.0280
801.00,0.0279
800.00,0.0278
799.00,0.0278
798.00,0.0278
797.00,0.0278
796.00,0.0279
795.00,0.0279
794.00,0.0279
793.00,0.0279
792.00,0.0280
791.00,0.0280
790.00,0.0281
789.00,0.0282
788.00,0.0283
787.00,0.0284
786.00,0.0285
785.00,0.0286
784.00,0.0288
783.00,0.0289
782.00,0.0291
781.00,0.0292
780.00,0.0293
779.00,0.0295
778.00,0.0297
777.00,0.0299
776.00,0.0301
775.00,0.0303
774.00,0.0305
773.00,0.0307
772.00,0.0309
771.00,0.0312
770.00,0.0314
769.00,0.0317
768.00,0.0320
767.00,0.0324
766.00,0.0328
765.00,0.0332
764.00,0.0337
763.00,0.0341
762.00,0.0347
761.00,0.0352
760.00,0.0358
759.00,0.0364
758.00,0.0371
757.00,0.0377
756.00,0.0384
755.00,0.0391
754.00,0.0399
753.00,0.0405
752.00,0.0412
751.00,0.0419
750.00,0.0426
749.00,0.0433
748.00,0.0441
747.00,0.0448
746.00,0.0455
745.00,0.0462
744.00,0.0469
743.00,0.0477
742.00,0.0484
741.00,0.0492
740.00,0.0499
739.00,0.0506
738.00,0.0514
737.00,0.0520
736.00,0.0526
735.00,0.0530
734.00,0.0532
733.00,0.0531
732.00,0.0528
731.00,0.0522
730.00,0.0515
729.00,0.0505
728.00,0.0495
727.00,0.0485
726.00,0.0474
725.00,0.0464
724.00,0.0454
723.00,0.0445
722.00,0.0437
721.00,0.0430
720.00,0.0425
719.00,0.0421
718.00,0.0418
717.00,0.0415
716.00,0.0412
715.00,0.0410
714.00,0.0408
713.00,0.0406
712.00,0.0405
711.00,0.0404
710.00,0.0403
709.00,0.0403
708.00,0.0403
707.00,0.0404
706.00,0.0405
705.00,0.0406
704.00,0.0408
703.00,0.0410
702.00,0.0412
701.00,0.0415
700.00,0.0417
699.00,0.0420
698.00,0.0424
697.00,0.0428
696.00,0.0432
695.00,0.0436
694.00,0.0440
693.00,0.0444
692.00,0.0448
691.00,0.0453
690.00,0.0458
689.00,0.0463
688.00,0.0468
687.00,0.0474
686.00,0.0480
685.00,0.0486
684.00,0.0493
683.00,0.0501
682.00,0.0508
681.00,0.0515
680.00,0.0522
679.00,0.0529
678.00,0.0536
677.00,0.0543
676.00,0.0550
675.00,0.0557
674.00,0.0566
673.00,0.0574
672.00,0.0582
671.00,0.0589
670.00,0.0598
669.00,0.0614
668.00,0.0638
667.00,0.0659
666.00,0.0669
665.00,0.0675
664.00,0.0683
663.00,0.0695
662.00,0.0710
661.00,0.0726
660.00,0.0743
659.00,0.0760
658.00,0.0778
657.00,0.0796
656.00,0.0814
655.00,0.0832
654.00,0.0848
653.00,0.0863
652.00,0.0877
651.00,0.0888
650.00,0.0897
649.00,0.0903
648.00,0.0907
647.00,0.0909
646.00,0.0907
645.00,0.0902
644.00,0.0895
643.00,0.0885
642.00,0.0875
641.00,0.0864
640.00,0.0852
639.00,0.0841
638.00,0.0830
637.00,0.0819
636.00,0.0808
635.00,0.0798
634.00,0.0788
633.00,0.0780
632.00,0.0772
631.00,0.0765
630.00,0.0759
629.00,0.0752
628.00,0.0745
627.00,0.0739
626.00,0.0733
625.00,0.0728
624.00,0.0724
623.00,0.0721
622.00,0.0719
621.00,0.0716
620.00,0.0714
619.00,0.0712
618.00,0.0711
617.00,0.0712
616.00,0.0713
615.00,0.0714
614.00,0.0714
613.00,0.0715
612.00,0.0715
611.00,0.0717
610.00,0.0719
609.00,0.0721
608.00,0.0722
607.00,0.0723
606.00,0.0723
605.00,0.0724
604.00,0.0726
603.00,0.0728
602.00,0.0730
601.00,0.0734
600.00,0.0737
599.00,0.0741
598.00,0.0745
597.00,0.0750
596.00,0.0756
595.00,0.0763
594.00,0.0770
593.00,0.0778
592.00,0.0787
591.00,0.0797
590.00,0.0807
589.00,0.0817
588.00,0.0829
587.00,0.0842
586.00,0.0856
585.00,0.0872
584.00,0.0888
583.00,0.0906
582.00,0.0924
581.00,0.0941
580.00,0.0957
579.00,0.0971
578.00,0.0984
577.00,0.0997
576.00,0.1009
575.00,0.1018
574.00,0.1025
573.00,0.1028
572.00,0.1029
571.00,0.1030
570.00,0.1029
569.00,0.1028
568.00,0.1024
567.00,0.1018
566.00,0.1008
565.00,0.0998
564.00,0.0986
563.00,0.0974
562.00,0.0963
561.00,0.0952
560.00,0.0942
559.00,0.0933
558.00,0.0924
557.00,0.0916
556.00,0.0910
555.00,0.0904
554.00,0.0898
553.00,0.0892
552.00,0.0886
551.00,0.0880
550.00,0.0875
549.00,0.0869
548.00,0.0864
547.00,0.0858
546.00,0.0852
545.00,0.0848
544.00,0.0843
543.00,0.0838
542.00,0.0834
541.00,0.0830
540.00,0.0827
539.00,0.0825
538.00,0.0824
537.00,0.0824
536.00,0.0824
535.00,0.0823
534.00,0.0822
533.00,0.0820
532.00,0.0818
531.00,0.0818
530.00,0.0821
529.00,0.0823
528.00,0.0825
527.00,0.0825
526.00,0.0825
525.00,0.0825
524.00,0.0824
523.00,0.0823
522.00,0.0822
521.00,0.0820
520.00,0.0819
519.00,0.0818
518.00,0.0818
517.00,0.0819
516.00,0.0820
515.00,0.0821
514.00,0.0821
513.00,0.0821
512.00,0.0821
511.00,0.0820
510.00,0.0820
509.00,0.0821
508.00,0.0823
507.00,0.0824
506.00,0.0823
505.00,0.0821
504.00,0.0819
503.00,0.0821
502.00,0.0826
501.00,0.0831
500.00,0.0835
499.00,0.0837
498.00,0.0837
497.00,0.0838
496.00,0.0838
495.00,0.0839
494.00,0.0839
493.00,0.0839
492.00,0.0840
491.00,0.0843
490.00,0.0847
489.00,0.0850
488.00,0.0852
487.00,0.0853
486.00,0.0855
485.00,0.0858
484.00,0.0859
483.00,0.0860
482.00,0.0860
481.00,0.0860
480.00,0.0858
479.00,0.0857
478.00,0.0857
477.00,0.0858
476.00,0.0859
475.00,0.0859
474.00,0.0859
473.00,0.0860
472.00,0.0863
471.00,0.0869
470.00,0.0874
469.00,0.0877
468.00,0.0877
467.00,0.0875
466.00,0.0872
465.00,0.0870
464.00,0.0870
463.00,0.0872
462.00,0.0872
461.00,0.0869
460.00,0.0863
459.00,0.0859
458.00,0.0858
457.00,0.0858
456.00,0.0855
455.00,0.0850
454.00,0.0844
453.00,0.0839
452.00,0.0838
451.00,0.0837
450.00,0.0836
449.00,0.0831
448.00,0.0825
447.00,0.0819
446.00,0.0816
445.00,0.0813
444.00,0.0809
443.00,0.0805
442.00,0.0802
441.00,0.0799
440.00,0.0797
439.00,0.0793
438.00,0.0790
437.00,0.0786
436.00,0.0783
435.00,0.0780
434.00,0.0778
433.00,0.0774
432.00,0.0770
431.00,0.0767
430.00,0.0767
429.00,0.0766
428.00,0.0765
427.00,0.0764
426.00,0.0761
425.00,0.0756
424.00,0.0749
423.00,0.0743
422.00,0.0738
421.00,0.0734
420.00,0.0730
419.00,0.0731
418.00,0.0734
417.00,0.0733
416.00,0.0727
415.00,0.0721
414.00,0.0719
413.00,0.0721
412.00,0.0723
411.00,0.0725
410.00,0.0726
409.00,0.0725
408.00,0.0722
407.00,0.0717
406.00,0.0715
405.00,0.0715
404.00,0.0715
403.00,0.0718
402.00,0.0725
401.00,0.0735
400.00,0.0744
