Created as New Dataset,Sample 061 By YargerLab Date Wednesday, August 13 2025
cm-1,A
4000.00,0.0021
3999.00,0.0021
3998.00,0.0021
3997.00,0.0021
3996.00,0.0020
3995.00,0.0021
3994.00,0.0021
3993.00,0.0021
3992.00,0.0021
3991.00,0.0021
3990.00,0.0021
3989.00,0.0021
3988.00,0.0021
3987.00,0.0021
3986.00,0.0021
3985.00,0.0021
3984.00,0.0021
3983.00,0.0021
3982.00,0.0021
3981.00,0.0020
3980.00,0.0020
3979.00,0.0020
3978.00,0.0020
3977.00,0.0020
3976.00,0.0021
3975.00,0.0020
3974.00,0.0020
3973.00,0.0020
3972.00,0.0020
3971.00,0.0020
3970.00,0.0020
3969.00,0.0020
3968.00,0.0020
3967.00,0.0020
3966.00,0.0020
3965.00,0.0021
3964.00,0.0021
3963.00,0.0021
3962.00,0.0021
3961.00,0.0020
3960.00,0.0020
3959.00,0.0020
3958.00,0.0020
3957.00,0.0020
3956.00,0.0020
3955.00,0.0020
3954.00,0.0020
3953.00,0.0020
3952.00,0.0020
3951.00,0.0020
3950.00,0.0020
3949.00,0.0020
3948.00,0.0020
3947.00,0.0020
3946.00,0.0020
3945.00,0.0019
3944.00,0.0019
3943.00,0.0019
3942.00,0.0019
3941.00,0.0020
3940.00,0.0020
3939.00,0.0020
3938.00,0.0020
3937.00,0.0020
3936.00,0.0020
3935.00,0.0020
3934.00,0.0020
3933.00,0.0020
3932.00,0.0020
3931.00,0.0020
3930.00,0.0020
3929.00,0.0020
3928.00,0.0020
3927.00,0.0020
3926.00,0.0020
3925.00,0.0020
3924.00,0.0020
3923.00,0.0020
3922.00,0.0020
3921.00,0.0020
3920.00,0.0020
3919.00,0.0019
3918.00,0.0019
3917.00,0.0019
3916.00,0.0019
3915.00,0.0019
3914.00,0.0019
3913.00,0.0019
3912.00,0.0019
3911.00,0.0020
3910.00,0.0020
3909.00,0.0019
3908.00,0.0019
3907.00,0.0019
3906.00,0.0019
3905.00,0.0019
3904.00,0.0019
3903.00,0.0019
3902.00,0.0019
3901.00,0.0018
3900.00,0.0018
3899.00,0.0018
3898.00,0.0018
3897.00,0.0019
3896.00,0.0019
3895.00,0.0019
3894.00,0.0019
3893.00,0.0019
3892.00,0.0018
3891.00,0.0018
3890.00,0.0019
3889.00,0.0019
3888.00,0.0019
3887.00,0.0019
3886.00,0.0019
3885.00,0.0019
3884.00,0.0019
3883.00,0.0019
3882.00,0.0018
3881.00,0.0018
3880.00,0.0018
3879.00,0.0019
3878.00,0.0019
3877.00,0.0019
3876.00,0.0019
3875.00,0.0018
3874.00,0.0019
3873.00,0.0019
3872.00,0.0018
3871.00,0.0018
3870.00,0.0018
3869.00,0.0018
3868.00,0.0018
3867.00,0.0018
3866.00,0.0018
3865.00,0.0018
3864.00,0.0019
3863.00,0.0019
3862.00,0.0019
3861.00,0.0019
3860.00,0.0019
3859.00,0.0019
3858.00,0.0019
3857.00,0.0019
3856.00,0.0018
3855.00,0.0018
3854.00,0.0018
3853.00,0.0018
3852.00,0.0018
3851.00,0.0018
3850.00,0.0018
3849.00,0.0018
3848.00,0.0019
3847.00,0.0019
3846.00,0.0019
3845.00,0.0019
3844.00,0.0019
3843.00,0.0019
3842.00,0.0019
3841.00,0.0018
3840.00,0.0018
3839.00,0.0018
3838.00,0.0018
3837.00,0.0018
3836.00,0.0018
3835.00,0.0018
3834.00,0.0018
3833.00,0.0018
3832.00,0.0018
3831.00,0.0019
3830.00,0.0019
3829.00,0.0019
3828.00,0.0019
3827.00,0.0019
3826.00,0.0019
3825.00,0.0019
3824.00,0.0019
3823.00,0.0019
3822.00,0.0019
3821.00,0.0019
3820.00,0.0019
3819.00,0.0019
3818.00,0.0018
3817.00,0.0018
3816.00,0.0018
3815.00,0.0019
3814.00,0.0019
3813.00,0.0019
3812.00,0.0019
3811.00,0.0019
3810.00,0.0020
3809.00,0.0020
3808.00,0.0020
3807.00,0.0020
3806.00,0.0020
3805.00,0.0019
3804.00,0.0019
3803.00,0.0018
3802.00,0.0018
3801.00,0.0019
3800.00,0.0019
3799.00,0.0019
3798.00,0.0018
3797.00,0.0018
3796.00,0.0018
3795.00,0.0019
3794.00,0.0019
3793.00,0.0020
3792.00,0.0020
3791.00,0.0020
3790.00,0.0020
3789.00,0.0020
3788.00,0.0020
3787.00,0.0020
3786.00,0.0020
3785.00,0.0020
3784.00,0.0020
3783.00,0.0020
3782.00,0.0020
3781.00,0.0020
3780.00,0.0019
3779.00,0.0019
3778.00,0.0020
3777.00,0.0020
3776.00,0.0020
3775.00,0.0020
3774.00,0.0020
3773.00,0.0021
3772.00,0.0020
3771.00,0.0020
3770.00,0.0020
3769.00,0.0020
3768.00,0.0019
3767.00,0.0019
3766.00,0.0019
3765.00,0.0020
3764.00,0.0020
3763.00,0.0020
3762.00,0.0020
3761.00,0.0020
3760.00,0.0020
3759.00,0.0020
3758.00,0.0020
3757.00,0.0021
3756.00,0.0021
3755.00,0.0021
3754.00,0.0021
3753.00,0.0020
3752.00,0.0020
3751.00,0.0020
3750.00,0.0019
3749.00,0.0019
3748.00,0.0019
3747.00,0.0019
3746.00,0.0019
3745.00,0.0019
3744.00,0.0019
3743.00,0.0019
3742.00,0.0019
3741.00,0.0019
3740.00,0.0019
3739.00,0.0019
3738.00,0.0019
3737.00,0.0019
3736.00,0.0019
3735.00,0.0018
3734.00,0.0018
3733.00,0.0018
3732.00,0.0018
3731.00,0.0019
3730.00,0.0019
3729.00,0.0019
3728.00,0.0019
3727.00,0.0019
3726.00,0.0019
3725.00,0.0019
3724.00,0.0019
3723.00,0.0019
3722.00,0.0019
3721.00,0.0020
3720.00,0.0020
3719.00,0.0020
3718.00,0.0020
3717.00,0.0020
3716.00,0.0021
3715.00,0.0021
3714.00,0.0021
3713.00,0.0021
3712.00,0.0021
3711.00,0.0021
3710.00,0.0020
3709.00,0.0020
3708.00,0.0020
3707.00,0.0020
3706.00,0.0020
3705.00,0.0020
3704.00,0.0020
3703.00,0.0020
3702.00,0.0021
3701.00,0.0021
3700.00,0.0021
3699.00,0.0022
3698.00,0.0022
3697.00,0.0022
3696.00,0.0022
3695.00,0.0022
3694.00,0.0022
3693.00,0.0022
3692.00,0.0022
3691.00,0.0022
3690.00,0.0023
3689.00,0.0024
3688.00,0.0025
3687.00,0.0026
3686.00,0.0027
3685.00,0.0028
3684.00,0.0029
3683.00,0.0030
3682.00,0.0030
3681.00,0.0031
3680.00,0.0031
3679.00,0.0031
3678.00,0.0032
3677.00,0.0032
3676.00,0.0032
3675.00,0.0033
3674.00,0.0033
3673.00,0.0033
3672.00,0.0033
3671.00,0.0034
3670.00,0.0035
3669.00,0.0036
3668.00,0.0037
3667.00,0.0037
3666.00,0.0038
3665.00,0.0039
3664.00,0.0040
3663.00,0.0041
3662.00,0.0042
3661.00,0.0043
3660.00,0.0043
3659.00,0.0044
3658.00,0.0044
3657.00,0.0044
3656.00,0.0045
3655.00,0.0046
3654.00,0.0046
3653.00,0.0046
3652.00,0.0047
3651.00,0.0048
3650.00,0.0050
3649.00,0.0051
3648.00,0.0052
3647.00,0.0053
3646.00,0.0054
3645.00,0.0055
3644.00,0.0057
3643.00,0.0058
3642.00,0.0059
3641.00,0.0060
3640.00,0.0061
3639.00,0.0062
3638.00,0.0063
3637.00,0.0064
3636.00,0.0065
3635.00,0.0066
3634.00,0.0067
3633.00,0.0068
3632.00,0.0068
3631.00,0.0069
3630.00,0.0071
3629.00,0.0073
3628.00,0.0075
3627.00,0.0076
3626.00,0.0077
3625.00,0.0078
3624.00,0.0079
3623.00,0.0080
3622.00,0.0081
3621.00,0.0082
3620.00,0.0083
3619.00,0.0085
3618.00,0.0087
3617.00,0.0088
3616.00,0.0089
3615.00,0.0090
3614.00,0.0092
3613.00,0.0093
3612.00,0.0095
3611.00,0.0097
3610.00,0.0098
3609.00,0.0100
3608.00,0.0101
3607.00,0.0103
3606.00,0.0104
3605.00,0.0106
3604.00,0.0107
3603.00,0.0109
3602.00,0.0110
3601.00,0.0112
3600.00,0.0114
3599.00,0.0115
3598.00,0.0117
3597.00,0.0119
3596.00,0.0121
3595.00,0.0123
3594.00,0.0125
3593.00,0.0127
3592.00,0.0128
3591.00,0.0129
3590.00,0.0131
3589.00,0.0132
3588.00,0.0135
3587.00,0.0137
3586.00,0.0139
3585.00,0.0142
3584.00,0.0143
3583.00,0.0145
3582.00,0.0147
3581.00,0.0149
3580.00,0.0151
3579.00,0.0153
3578.00,0.0155
3577.00,0.0157
3576.00,0.0159
3575.00,0.0161
3574.00,0.0163
3573.00,0.0165
3572.00,0.0167
3571.00,0.0168
3570.00,0.0170
3569.00,0.0172
3568.00,0.0175
3567.00,0.0178
3566.00,0.0180
3565.00,0.0183
3564.00,0.0184
3563.00,0.0186
3562.00,0.0188
3561.00,0.0190
3560.00,0.0192
3559.00,0.0194
3558.00,0.0196
3557.00,0.0198
3556.00,0.0201
3555.00,0.0203
3554.00,0.0205
3553.00,0.0207
3552.00,0.0209
3551.00,0.0211
3550.00,0.0213
3549.00,0.0214
3548.00,0.0216
3547.00,0.0218
3546.00,0.0220
3545.00,0.0223
3544.00,0.0225
3543.00,0.0227
3542.00,0.0229
3541.00,0.0230
3540.00,0.0232
3539.00,0.0234
3538.00,0.0235
3537.00,0.0237
3536.00,0.0239
3535.00,0.0241
3534.00,0.0243
3533.00,0.0244
3532.00,0.0245
3531.00,0.0247
3530.00,0.0248
3529.00,0.0250
3528.00,0.0252
3527.00,0.0254
3526.00,0.0256
3525.00,0.0257
3524.00,0.0259
3523.00,0.0261
3522.00,0.0262
3521.00,0.0264
3520.00,0.0265
3519.00,0.0267
3518.00,0.0268
3517.00,0.0270
3516.00,0.0271
3515.00,0.0272
3514.00,0.0274
3513.00,0.0275
3512.00,0.0276
3511.00,0.0278
3510.00,0.0279
3509.00,0.0280
3508.00,0.0282
3507.00,0.0283
3506.00,0.0284
3505.00,0.0285
3504.00,0.0287
3503.00,0.0289
3502.00,0.0290
3501.00,0.0291
3500.00,0.0293
3499.00,0.0294
3498.00,0.0295
3497.00,0.0296
3496.00,0.0297
3495.00,0.0298
3494.00,0.0299
3493.00,0.0300
3492.00,0.0301
3491.00,0.0302
3490.00,0.0304
3489.00,0.0305
3488.00,0.0306
3487.00,0.0307
3486.00,0.0308
3485.00,0.0309
3484.00,0.0310
3483.00,0.0311
3482.00,0.0312
3481.00,0.0313
3480.00,0.0315
3479.00,0.0316
3478.00,0.0317
3477.00,0.0317
3476.00,0.0318
3475.00,0.0319
3474.00,0.0320
3473.00,0.0321
3472.00,0.0322
3471.00,0.0323
3470.00,0.0324
3469.00,0.0325
3468.00,0.0326
3467.00,0.0326
3466.00,0.0327
3465.00,0.0328
3464.00,0.0328
3463.00,0.0329
3462.00,0.0330
3461.00,0.0331
3460.00,0.0332
3459.00,0.0332
3458.00,0.0333
3457.00,0.0333
3456.00,0.0334
3455.00,0.0335
3454.00,0.0335
3453.00,0.0336
3452.00,0.0336
3451.00,0.0337
3450.00,0.0337
3449.00,0.0338
3448.00,0.0339
3447.00,0.0340
3446.00,0.0341
3445.00,0.0342
3444.00,0.0342
3443.00,0.0343
3442.00,0.0343
3441.00,0.0344
3440.00,0.0345
3439.00,0.0346
3438.00,0.0346
3437.00,0.0347
3436.00,0.0348
3435.00,0.0348
3434.00,0.0348
3433.00,0.0348
3432.00,0.0349
3431.00,0.0349
3430.00,0.0350
3429.00,0.0350
3428.00,0.0351
3427.00,0.0351
3426.00,0.0351
3425.00,0.0351
3424.00,0.0352
3423.00,0.0352
3422.00,0.0352
3421.00,0.0353
3420.00,0.0353
3419.00,0.0353
3418.00,0.0353
3417.00,0.0353
3416.00,0.0354
3415.00,0.0354
3414.00,0.0354
3413.00,0.0354
3412.00,0.0355
3411.00,0.0355
3410.00,0.0355
3409.00,0.0355
3408.00,0.0356
3407.00,0.0356
3406.00,0.0356
3405.00,0.0356
3404.00,0.0356
3403.00,0.0356
3402.00,0.0356
3401.00,0.0356
3400.00,0.0356
3399.00,0.0356
3398.00,0.0356
3397.00,0.0355
3396.00,0.0355
3395.00,0.0354
3394.00,0.0354
3393.00,0.0354
3392.00,0.0354
3391.00,0.0354
3390.00,0.0354
3389.00,0.0354
3388.00,0.0354
3387.00,0.0354
3386.00,0.0354
3385.00,0.0353
3384.00,0.0353
3383.00,0.0352
3382.00,0.0351
3381.00,0.0351
3380.00,0.0350
3379.00,0.0350
3378.00,0.0349
3377.00,0.0349
3376.00,0.0349
3375.00,0.0349
3374.00,0.0348
3373.00,0.0347
3372.00,0.0346
3371.00,0.0345
3370.00,0.0344
3369.00,0.0343
3368.00,0.0343
3367.00,0.0342
3366.00,0.0342
3365.00,0.0342
3364.00,0.0342
3363.00,0.0341
3362.00,0.0340
3361.00,0.0340
3360.00,0.0339
3359.00,0.0339
3358.00,0.0339
3357.00,0.0338
3356.00,0.0338
3355.00,0.0337
3354.00,0.0336
3353.00,0.0335
3352.00,0.0333
3351.00,0.0333
3350.00,0.0333
3349.00,0.0333
3348.00,0.0333
3347.00,0.0333
3346.00,0.0332
3345.00,0.0331
3344.00,0.0330
3343.00,0.0329
3342.00,0.0329
3341.00,0.0328
3340.00,0.0327
3339.00,0.0326
3338.00,0.0326
3337.00,0.0326
3336.00,0.0327
3335.00,0.0327
3334.00,0.0327
3333.00,0.0327
3332.00,0.0326
3331.00,0.0326
3330.00,0.0325
3329.00,0.0325
3328.00,0.0324
3327.00,0.0323
3326.00,0.0322
3325.00,0.0322
3324.00,0.0323
3323.00,0.0323
3322.00,0.0324
3321.00,0.0324
3320.00,0.0324
3319.00,0.0324
3318.00,0.0324
3317.00,0.0324
3316.00,0.0323
3315.00,0.0323
3314.00,0.0323
3313.00,0.0322
3312.00,0.0321
3311.00,0.0319
3310.00,0.0317
3309.00,0.0316
3308.00,0.0315
3307.00,0.0315
3306.00,0.0315
3305.00,0.0316
3304.00,0.0318
3303.00,0.0319
3302.00,0.0320
3301.00,0.0321
3300.00,0.0320
3299.00,0.0319
3298.00,0.0318
3297.00,0.0317
3296.00,0.0316
3295.00,0.0316
3294.00,0.0316
3293.00,0.0317
3292.00,0.0318
3291.00,0.0319
3290.00,0.0320
3289.00,0.0320
3288.00,0.0321
3287.00,0.0321
3286.00,0.0320
3285.00,0.0320
3284.00,0.0320
3283.00,0.0320
3282.00,0.0319
3281.00,0.0319
3280.00,0.0318
3279.00,0.0318
3278.00,0.0317
3277.00,0.0316
3276.00,0.0315
3275.00,0.0314
3274.00,0.0313
3273.00,0.0312
3272.00,0.0311
3271.00,0.0311
3270.00,0.0311
3269.00,0.0311
3268.00,0.0312
3267.00,0.0312
3266.00,0.0312
3265.00,0.0311
3264.00,0.0311
3263.00,0.0311
3262.00,0.0310
3261.00,0.0309
3260.00,0.0308
3259.00,0.0308
3258.00,0.0307
3257.00,0.0306
3256.00,0.0305
3255.00,0.0305
3254.00,0.0304
3253.00,0.0304
3252.00,0.0303
3251.00,0.0302
3250.00,0.0301
3249.00,0.0300
3248.00,0.0299
3247.00,0.0298
3246.00,0.0298
3245.00,0.0298
3244.00,0.0297
3243.00,0.0297
3242.00,0.0296
3241.00,0.0296
3240.00,0.0295
3239.00,0.0295
3238.00,0.0294
3237.00,0.0293
3236.00,0.0291
3235.00,0.0290
3234.00,0.0289
3233.00,0.0288
3232.00,0.0288
3231.00,0.0288
3230.00,0.0287
3229.00,0.0286
3228.00,0.0285
3227.00,0.0284
3226.00,0.0283
3225.00,0.0282
3224.00,0.0281
3223.00,0.0280
3222.00,0.0279
3221.00,0.0278
3220.00,0.0278
3219.00,0.0277
3218.00,0.0275
3217.00,0.0274
3216.00,0.0273
3215.00,0.0272
3214.00,0.0271
3213.00,0.0271
3212.00,0.0270
3211.00,0.0269
3210.00,0.0268
3209.00,0.0267
3208.00,0.0266
3207.00,0.0265
3206.00,0.0264
3205.00,0.0263
3204.00,0.0262
3203.00,0.0261
3202.00,0.0259
3201.00,0.0258
3200.00,0.0257
3199.00,0.0256
3198.00,0.0255
3197.00,0.0255
3196.00,0.0254
3195.00,0.0253
3194.00,0.0252
3193.00,0.0251
3192.00,0.0250
3191.00,0.0249
3190.00,0.0248
3189.00,0.0247
3188.00,0.0246
3187.00,0.0245
3186.00,0.0244
3185.00,0.0244
3184.00,0.0243
3183.00,0.0242
3182.00,0.0241
3181.00,0.0240
3180.00,0.0239
3179.00,0.0238
3178.00,0.0237
3177.00,0.0236
3176.00,0.0235
3175.00,0.0235
3174.00,0.0234
3173.00,0.0233
3172.00,0.0233
3171.00,0.0232
3170.00,0.0231
3169.00,0.0230
3168.00,0.0229
3167.00,0.0228
3166.00,0.0227
3165.00,0.0227
3164.00,0.0226
3163.00,0.0225
3162.00,0.0224
3161.00,0.0223
3160.00,0.0222
3159.00,0.0221
3158.00,0.0220
3157.00,0.0219
3156.00,0.0218
3155.00,0.0217
3154.00,0.0216
3153.00,0.0215
3152.00,0.0214
3151.00,0.0214
3150.00,0.0213
3149.00,0.0212
3148.00,0.0212
3147.00,0.0211
3146.00,0.0210
3145.00,0.0209
3144.00,0.0208
3143.00,0.0207
3142.00,0.0207
3141.00,0.0206
3140.00,0.0205
3139.00,0.0204
3138.00,0.0204
3137.00,0.0203
3136.00,0.0202
3135.00,0.0201
3134.00,0.0200
3133.00,0.0200
3132.00,0.0199
3131.00,0.0199
3130.00,0.0198
3129.00,0.0198
3128.00,0.0197
3127.00,0.0196
3126.00,0.0196
3125.00,0.0195
3124.00,0.0194
3123.00,0.0194
3122.00,0.0193
3121.00,0.0192
3120.00,0.0192
3119.00,0.0191
3118.00,0.0191
3117.00,0.0190
3116.00,0.0189
3115.00,0.0189
3114.00,0.0188
3113.00,0.0187
3112.00,0.0186
3111.00,0.0186
3110.00,0.0185
3109.00,0.0184
3108.00,0.0184
3107.00,0.0183
3106.00,0.0182
3105.00,0.0181
3104.00,0.0180
3103.00,0.0180
3102.00,0.0179
3101.00,0.0179
3100.00,0.0178
3099.00,0.0177
3098.00,0.0177
3097.00,0.0176
3096.00,0.0176
3095.00,0.0175
3094.00,0.0175
3093.00,0.0175
3092.00,0.0174
3091.00,0.0174
3090.00,0.0174
3089.00,0.0173
3088.00,0.0173
3087.00,0.0172
3086.00,0.0172
3085.00,0.0171
3084.00,0.0171
3083.00,0.0171
3082.00,0.0171
3081.00,0.0171
3080.00,0.0171
3079.00,0.0170
3078.00,0.0170
3077.00,0.0170
3076.00,0.0169
3075.00,0.0168
3074.00,0.0168
3073.00,0.0167
3072.00,0.0166
3071.00,0.0166
3070.00,0.0165
3069.00,0.0164
3068.00,0.0164
3067.00,0.0163
3066.00,0.0162
3065.00,0.0161
3064.00,0.0161
3063.00,0.0160
3062.00,0.0159
3061.00,0.0159
3060.00,0.0158
3059.00,0.0158
3058.00,0.0157
3057.00,0.0156
3056.00,0.0156
3055.00,0.0155
3054.00,0.0155
3053.00,0.0154
3052.00,0.0154
3051.00,0.0154
3050.00,0.0153
3049.00,0.0153
3048.00,0.0153
3047.00,0.0152
3046.00,0.0152
3045.00,0.0151
3044.00,0.0151
3043.00,0.0150
3042.00,0.0150
3041.00,0.0149
3040.00,0.0149
3039.00,0.0148
3038.00,0.0148
3037.00,0.0148
3036.00,0.0147
3035.00,0.0147
3034.00,0.0147
3033.00,0.0146
3032.00,0.0146
3031.00,0.0145
3030.00,0.0145
3029.00,0.0145
3028.00,0.0144
3027.00,0.0144
3026.00,0.0144
3025.00,0.0143
3024.00,0.0143
3023.00,0.0143
3022.00,0.0142
3021.00,0.0142
3020.00,0.0143
3019.00,0.0143
3018.00,0.0143
3017.00,0.0143
3016.00,0.0144
3015.00,0.0144
3014.00,0.0145
3013.00,0.0146
3012.00,0.0148
3011.00,0.0149
3010.00,0.0151
3009.00,0.0153
3008.00,0.0156
3007.00,0.0158
3006.00,0.0161
3005.00,0.0164
3004.00,0.0168
3003.00,0.0171
3002.00,0.0175
3001.00,0.0180
3000.00,0.0185
2999.00,0.0190
2998.00,0.0196
2997.00,0.0202
2996.00,0.0208
2995.00,0.0214
2994.00,0.0221
2993.00,0.0228
2992.00,0.0235
2991.00,0.0242
2990.00,0.0249
2989.00,0.0256
2988.00,0.0263
2987.00,0.0269
2986.00,0.0274
2985.00,0.0280
2984.00,0.0284
2983.00,0.0288
2982.00,0.0292
2981.00,0.0296
2980.00,0.0301
2979.00,0.0305
2978.00,0.0308
2977.00,0.0312
2976.00,0.0315
2975.00,0.0317
2974.00,0.0320
2973.00,0.0323
2972.00,0.0326
2971.00,0.0329
2970.00,0.0333
2969.00,0.0338
2968.00,0.0343
2967.00,0.0348
2966.00,0.0353
2965.00,0.0357
2964.00,0.0362
2963.00,0.0367
2962.00,0.0372
2961.00,0.0377
2960.00,0.0382
2959.00,0.0386
2958.00,0.0390
2957.00,0.0393
2956.00,0.0396
2955.00,0.0398
2954.00,0.0399
2953.00,0.0400
2952.00,0.0400
2951.00,0.0399
2950.00,0.0398
2949.00,0.0396
2948.00,0.0394
2947.00,0.0392
2946.00,0.0390
2945.00,0.0388
2944.00,0.0387
2943.00,0.0386
2942.00,0.0385
2941.00,0.0385
2940.00,0.0385
2939.00,0.0386
2938.00,0.0387
2937.00,0.0389
2936.00,0.0391
2935.00,0.0392
2934.00,0.0394
2933.00,0.0395
2932.00,0.0396
2931.00,0.0397
2930.00,0.0398
2929.00,0.0399
2928.00,0.0399
2927.00,0.0399
2926.00,0.0398
2925.00,0.0396
2924.00,0.0393
2923.00,0.0391
2922.00,0.0388
2921.00,0.0384
2920.00,0.0380
2919.00,0.0376
2918.00,0.0371
2917.00,0.0366
2916.00,0.0361
2915.00,0.0356
2914.00,0.0351
2913.00,0.0346
2912.00,0.0341
2911.00,0.0335
2910.00,0.0330
2909.00,0.0325
2908.00,0.0321
2907.00,0.0317
2906.00,0.0314
2905.00,0.0311
2904.00,0.0308
2903.00,0.0306
2902.00,0.0305
2901.00,0.0304
2900.00,0.0303
2899.00,0.0302
2898.00,0.0302
2897.00,0.0302
2896.00,0.0302
2895.00,0.0302
2894.00,0.0302
2893.00,0.0302
2892.00,0.0302
2891.00,0.0301
2890.00,0.0301
2889.00,0.0300
2888.00,0.0299
2887.00,0.0299
2886.00,0.0298
2885.00,0.0298
2884.00,0.0298
2883.00,0.0297
2882.00,0.0297
2881.00,0.0298
2880.00,0.0298
2879.00,0.0299
2878.00,0.0300
2877.00,0.0301
2876.00,0.0301
2875.00,0.0302
2874.00,0.0303
2873.00,0.0304
2872.00,0.0304
2871.00,0.0305
2870.00,0.0304
2869.00,0.0303
2868.00,0.0302
2867.00,0.0301
2866.00,0.0299
2865.00,0.0298
2864.00,0.0297
2863.00,0.0296
2862.00,0.0294
2861.00,0.0292
2860.00,0.0290
2859.00,0.0288
2858.00,0.0285
2857.00,0.0280
2856.00,0.0274
2855.00,0.0268
2854.00,0.0260
2853.00,0.0252
2852.00,0.0245
2851.00,0.0237
2850.00,0.0230
2849.00,0.0223
2848.00,0.0217
2847.00,0.0211
2846.00,0.0205
2845.00,0.0200
2844.00,0.0194
2843.00,0.0189
2842.00,0.0183
2841.00,0.0178
2840.00,0.0173
2839.00,0.0169
2838.00,0.0165
2837.00,0.0162
2836.00,0.0159
2835.00,0.0156
2834.00,0.0153
2833.00,0.0151
2832.00,0.0149
2831.00,0.0147
2830.00,0.0144
2829.00,0.0142
2828.00,0.0139
2827.00,0.0137
2826.00,0.0135
2825.00,0.0132
2824.00,0.0130
2823.00,0.0128
2822.00,0.0126
2821.00,0.0124
2820.00,0.0122
2819.00,0.0120
2818.00,0.0118
2817.00,0.0116
2816.00,0.0115
2815.00,0.0113
2814.00,0.0111
2813.00,0.0110
2812.00,0.0109
2811.00,0.0107
2810.00,0.0106
2809.00,0.0105
2808.00,0.0104
2807.00,0.0103
2806.00,0.0102
2805.00,0.0101
2804.00,0.0100
2803.00,0.0099
2802.00,0.0098
2801.00,0.0096
2800.00,0.0095
2799.00,0.0094
2798.00,0.0094
2797.00,0.0093
2796.00,0.0092
2795.00,0.0092
2794.00,0.0091
2793.00,0.0090
2792.00,0.0090
2791.00,0.0089
2790.00,0.0089
2789.00,0.0088
2788.00,0.0088
2787.00,0.0087
2786.00,0.0087
2785.00,0.0086
2784.00,0.0086
2783.00,0.0085
2782.00,0.0084
2781.00,0.0084
2780.00,0.0084
2779.00,0.0083
2778.00,0.0083
2777.00,0.0083
2776.00,0.0082
2775.00,0.0082
2774.00,0.0081
2773.00,0.0081
2772.00,0.0080
2771.00,0.0080
2770.00,0.0080
2769.00,0.0080
2768.00,0.0079
2767.00,0.0079
2766.00,0.0079
2765.00,0.0079
2764.00,0.0078
2763.00,0.0078
2762.00,0.0078
2761.00,0.0078
2760.00,0.0078
2759.00,0.0078
2758.00,0.0078
2757.00,0.0078
2756.00,0.0078
2755.00,0.0079
2754.00,0.0079
2753.00,0.0079
2752.00,0.0079
2751.00,0.0080
2750.00,0.0079
2749.00,0.0079
2748.00,0.0079
2747.00,0.0079
2746.00,0.0080
2745.00,0.0080
2744.00,0.0080
2743.00,0.0080
2742.00,0.0080
2741.00,0.0079
2740.00,0.0079
2739.00,0.0079
2738.00,0.0080
2737.00,0.0080
2736.00,0.0080
2735.00,0.0080
2734.00,0.0080
2733.00,0.0080
2732.00,0.0080
2731.00,0.0080
2730.00,0.0079
2729.00,0.0079
2728.00,0.0078
2727.00,0.0078
2726.00,0.0078
2725.00,0.0077
2724.00,0.0077
2723.00,0.0077
2722.00,0.0076
2721.00,0.0076
2720.00,0.0076
2719.00,0.0076
2718.00,0.0076
2717.00,0.0075
2716.00,0.0075
2715.00,0.0075
2714.00,0.0074
2713.00,0.0074
2712.00,0.0074
2711.00,0.0074
2710.00,0.0074
2709.00,0.0073
2708.00,0.0073
2707.00,0.0073
2706.00,0.0072
2705.00,0.0072
2704.00,0.0072
2703.00,0.0071
2702.00,0.0071
2701.00,0.0071
2700.00,0.0070
2699.00,0.0070
2698.00,0.0070
2697.00,0.0070
2696.00,0.0069
2695.00,0.0069
2694.00,0.0069
2693.00,0.0068
2692.00,0.0068
2691.00,0.0068
2690.00,0.0067
2689.00,0.0067
2688.00,0.0067
2687.00,0.0067
2686.00,0.0067
2685.00,0.0066
2684.00,0.0066
2683.00,0.0066
2682.00,0.0066
2681.00,0.0065
2680.00,0.0065
2679.00,0.0065
2678.00,0.0065
2677.00,0.0065
2676.00,0.0065
2675.00,0.0065
2674.00,0.0065
2673.00,0.0065
2672.00,0.0064
2671.00,0.0064
2670.00,0.0064
2669.00,0.0064
2668.00,0.0064
2667.00,0.0065
2666.00,0.0065
2665.00,0.0065
2664.00,0.0066
2663.00,0.0066
2662.00,0.0066
2661.00,0.0066
2660.00,0.0066
2659.00,0.0066
2658.00,0.0066
2657.00,0.0066
2656.00,0.0066
2655.00,0.0066
2654.00,0.0066
2653.00,0.0066
2652.00,0.0065
2651.00,0.0065
2650.00,0.0065
2649.00,0.0065
2648.00,0.0065
2647.00,0.0065
2646.00,0.0065
2645.00,0.0065
2644.00,0.0064
2643.00,0.0064
2642.00,0.0064
2641.00,0.0064
2640.00,0.0063
2639.00,0.0063
2638.00,0.0063
2637.00,0.0063
2636.00,0.0062
2635.00,0.0062
2634.00,0.0062
2633.00,0.0062
2632.00,0.0062
2631.00,0.0062
2630.00,0.0061
2629.00,0.0061
2628.00,0.0061
2627.00,0.0061
2626.00,0.0061
2625.00,0.0061
2624.00,0.0061
2623.00,0.0060
2622.00,0.0060
2621.00,0.0060
2620.00,0.0060
2619.00,0.0060
2618.00,0.0059
2617.00,0.0059
2616.00,0.0059
2615.00,0.0059
2614.00,0.0058
2613.00,0.0058
2612.00,0.0058
2611.00,0.0058
2610.00,0.0057
2609.00,0.0057
2608.00,0.0057
2607.00,0.0057
2606.00,0.0057
2605.00,0.0057
2604.00,0.0057
2603.00,0.0056
2602.00,0.0056
2601.00,0.0056
2600.00,0.0056
2599.00,0.0056
2598.00,0.0056
2597.00,0.0057
2596.00,0.0057
2595.00,0.0056
2594.00,0.0056
2593.00,0.0055
2592.00,0.0055
2591.00,0.0054
2590.00,0.0054
2589.00,0.0054
2588.00,0.0055
2587.00,0.0055
2586.00,0.0055
2585.00,0.0055
2584.00,0.0054
2583.00,0.0054
2582.00,0.0054
2581.00,0.0054
2580.00,0.0054
2579.00,0.0054
2578.00,0.0054
2577.00,0.0054
2576.00,0.0053
2575.00,0.0053
2574.00,0.0053
2573.00,0.0053
2572.00,0.0053
2571.00,0.0052
2570.00,0.0052
2569.00,0.0052
2568.00,0.0052
2567.00,0.0051
2566.00,0.0051
2565.00,0.0051
2564.00,0.0050
2563.00,0.0050
2562.00,0.0050
2561.00,0.0050
2560.00,0.0049
2559.00,0.0049
2558.00,0.0049
2557.00,0.0048
2556.00,0.0048
2555.00,0.0048
2554.00,0.0048
2553.00,0.0048
2552.00,0.0048
2551.00,0.0048
2550.00,0.0047
2549.00,0.0047
2548.00,0.0047
2547.00,0.0047
2546.00,0.0047
2545.00,0.0047
2544.00,0.0047
2543.00,0.0047
2542.00,0.0046
2541.00,0.0046
2540.00,0.0046
2539.00,0.0046
2538.00,0.0046
2537.00,0.0046
2536.00,0.0045
2535.00,0.0045
2534.00,0.0044
2533.00,0.0044
2532.00,0.0043
2531.00,0.0043
2530.00,0.0043
2529.00,0.0042
2528.00,0.0042
2527.00,0.0042
2526.00,0.0041
2525.00,0.0041
2524.00,0.0041
2523.00,0.0041
2522.00,0.0040
2521.00,0.0040
2520.00,0.0040
2519.00,0.0040
2518.00,0.0040
2517.00,0.0039
2516.00,0.0039
2515.00,0.0039
2514.00,0.0039
2513.00,0.0039
2512.00,0.0039
2511.00,0.0039
2510.00,0.0038
2509.00,0.0038
2508.00,0.0038
2507.00,0.0037
2506.00,0.0037
2505.00,0.0037
2504.00,0.0037
2503.00,0.0037
2502.00,0.0037
2501.00,0.0037
2500.00,0.0037
2499.00,0.0037
2498.00,0.0037
2497.00,0.0037
2496.00,0.0037
2495.00,0.0037
2494.00,0.0036
2493.00,0.0036
2492.00,0.0036
2491.00,0.0036
2490.00,0.0036
2489.00,0.0036
2488.00,0.0036
2487.00,0.0036
2486.00,0.0035
2485.00,0.0035
2484.00,0.0035
2483.00,0.0035
2482.00,0.0035
2481.00,0.0035
2480.00,0.0035
2479.00,0.0035
2478.00,0.0035
2477.00,0.0035
2476.00,0.0035
2475.00,0.0035
2474.00,0.0034
2473.00,0.0034
2472.00,0.0034
2471.00,0.0034
2470.00,0.0034
2469.00,0.0034
2468.00,0.0034
2467.00,0.0034
2466.00,0.0034
2465.00,0.0034
2464.00,0.0035
2463.00,0.0035
2462.00,0.0035
2461.00,0.0035
2460.00,0.0035
2459.00,0.0036
2458.00,0.0036
2457.00,0.0036
2456.00,0.0036
2455.00,0.0036
2454.00,0.0036
2453.00,0.0035
2452.00,0.0035
2451.00,0.0034
2450.00,0.0034
2449.00,0.0034
2448.00,0.0034
2447.00,0.0034
2446.00,0.0034
2445.00,0.0033
2444.00,0.0034
2443.00,0.0034
2442.00,0.0033
2441.00,0.0033
2440.00,0.0033
2439.00,0.0034
2438.00,0.0034
2437.00,0.0034
2436.00,0.0034
2435.00,0.0033
2434.00,0.0033
2433.00,0.0033
2432.00,0.0032
2431.00,0.0032
2430.00,0.0032
2429.00,0.0032
2428.00,0.0032
2427.00,0.0032
2426.00,0.0032
2425.00,0.0032
2424.00,0.0032
2423.00,0.0032
2422.00,0.0032
2421.00,0.0032
2420.00,0.0032
2419.00,0.0032
2418.00,0.0032
2417.00,0.0032
2416.00,0.0032
2415.00,0.0032
2414.00,0.0032
2413.00,0.0032
2412.00,0.0032
2411.00,0.0032
2410.00,0.0032
2409.00,0.0031
2408.00,0.0031
2407.00,0.0031
2406.00,0.0031
2405.00,0.0031
2404.00,0.0031
2403.00,0.0032
2402.00,0.0031
2401.00,0.0031
2400.00,0.0031
2399.00,0.0031
2398.00,0.0031
2397.00,0.0031
2396.00,0.0031
2395.00,0.0031
2394.00,0.0031
2393.00,0.0031
2392.00,0.0031
2391.00,0.0030
2390.00,0.0030
2389.00,0.0030
2388.00,0.0030
2387.00,0.0030
2386.00,0.0029
2385.00,0.0028
2384.00,0.0027
2383.00,0.0026
2382.00,0.0026
2381.00,0.0025
2380.00,0.0025
2379.00,0.0025
2378.00,0.0025
2377.00,0.0026
2376.00,0.0026
2375.00,0.0026
2374.00,0.0026
2373.00,0.0026
2372.00,0.0027
2371.00,0.0026
2370.00,0.0026
2369.00,0.0026
2368.00,0.0025
2367.00,0.0026
2366.00,0.0026
2365.00,0.0026
2364.00,0.0026
2363.00,0.0026
2362.00,0.0026
2361.00,0.0026
2360.00,0.0027
2359.00,0.0027
2358.00,0.0027
2357.00,0.0027
2356.00,0.0027
2355.00,0.0027
2354.00,0.0027
2353.00,0.0027
2352.00,0.0027
2351.00,0.0026
2350.00,0.0027
2349.00,0.0028
2348.00,0.0029
2347.00,0.0030
2346.00,0.0031
2345.00,0.0030
2344.00,0.0030
2343.00,0.0031
2342.00,0.0031
2341.00,0.0031
2340.00,0.0032
2339.00,0.0032
2338.00,0.0032
2337.00,0.0032
2336.00,0.0033
2335.00,0.0033
2334.00,0.0033
2333.00,0.0032
2332.00,0.0032
2331.00,0.0031
2330.00,0.0032
2329.00,0.0034
2328.00,0.0039
2327.00,0.0043
2326.00,0.0047
2325.00,0.0048
2324.00,0.0047
2323.00,0.0044
2322.00,0.0042
2321.00,0.0040
2320.00,0.0039
2319.00,0.0039
2318.00,0.0038
2317.00,0.0038
2316.00,0.0038
2315.00,0.0037
2314.00,0.0037
2313.00,0.0036
2312.00,0.0035
2311.00,0.0035
2310.00,0.0034
2309.00,0.0034
2308.00,0.0034
2307.00,0.0034
2306.00,0.0034
2305.00,0.0035
2304.00,0.0035
2303.00,0.0036
2302.00,0.0036
2301.00,0.0037
2300.00,0.0037
2299.00,0.0038
2298.00,0.0039
2297.00,0.0039
2296.00,0.0040
2295.00,0.0041
2294.00,0.0042
2293.00,0.0042
2292.00,0.0043
2291.00,0.0044
2290.00,0.0044
2289.00,0.0045
2288.00,0.0046
2287.00,0.0046
2286.00,0.0046
2285.00,0.0045
2284.00,0.0044
2283.00,0.0043
2282.00,0.0043
2281.00,0.0042
2280.00,0.0042
2279.00,0.0042
2278.00,0.0042
2277.00,0.0042
2276.00,0.0041
2275.00,0.0041
2274.00,0.0040
2273.00,0.0039
2272.00,0.0039
2271.00,0.0039
2270.00,0.0039
2269.00,0.0039
2268.00,0.0038
2267.00,0.0038
2266.00,0.0037
2265.00,0.0036
2264.00,0.0036
2263.00,0.0037
2262.00,0.0037
2261.00,0.0037
2260.00,0.0037
2259.00,0.0037
2258.00,0.0037
2257.00,0.0037
2256.00,0.0036
2255.00,0.0036
2254.00,0.0035
2253.00,0.0035
2252.00,0.0035
2251.00,0.0035
2250.00,0.0036
2249.00,0.0036
2248.00,0.0037
2247.00,0.0038
2246.00,0.0038
2245.00,0.0038
2244.00,0.0039
2243.00,0.0039
2242.00,0.0039
2241.00,0.0038
2240.00,0.0038
2239.00,0.0038
2238.00,0.0038
2237.00,0.0038
2236.00,0.0038
2235.00,0.0038
2234.00,0.0038
2233.00,0.0038
2232.00,0.0038
2231.00,0.0038
2230.00,0.0037
2229.00,0.0038
2228.00,0.0038
2227.00,0.0038
2226.00,0.0037
2225.00,0.0037
2224.00,0.0037
2223.00,0.0037
2222.00,0.0037
2221.00,0.0037
2220.00,0.0037
2219.00,0.0038
2218.00,0.0038
2217.00,0.0038
2216.00,0.0038
2215.00,0.0038
2214.00,0.0038
2213.00,0.0037
2212.00,0.0037
2211.00,0.0037
2210.00,0.0037
2209.00,0.0038
2208.00,0.0038
2207.00,0.0039
2206.00,0.0038
2205.00,0.0039
2204.00,0.0039
2203.00,0.0039
2202.00,0.0038
2201.00,0.0038
2200.00,0.0039
2199.00,0.0039
2198.00,0.0039
2197.00,0.0040
2196.00,0.0041
2195.00,0.0042
2194.00,0.0042
2193.00,0.0042
2192.00,0.0042
2191.00,0.0042
2190.00,0.0042
2189.00,0.0042
2188.00,0.0043
2187.00,0.0044
2186.00,0.0043
2185.00,0.0041
2184.00,0.0039
2183.00,0.0036
2182.00,0.0034
2181.00,0.0034
2180.00,0.0036
2179.00,0.0036
2178.00,0.0036
2177.00,0.0034
2176.00,0.0034
2175.00,0.0035
2174.00,0.0037
2173.00,0.0040
2172.00,0.0044
2171.00,0.0047
2170.00,0.0049
2169.00,0.0050
2168.00,0.0051
2167.00,0.0051
2166.00,0.0051
2165.00,0.0052
2164.00,0.0053
2163.00,0.0052
2162.00,0.0045
2161.00,0.0032
2160.00,0.0017
2159.00,0.0004
2158.00,-0.0002
2157.00,-0.0002
2156.00,0.0003
2155.00,0.0007
2154.00,0.0009
2153.00,0.0011
2152.00,0.0013
2151.00,0.0016
2150.00,0.0017
2149.00,0.0018
2148.00,0.0019
2147.00,0.0019
2146.00,0.0018
2145.00,0.0018
2144.00,0.0019
2143.00,0.0020
2142.00,0.0020
2141.00,0.0021
2140.00,0.0022
2139.00,0.0021
2138.00,0.0019
2137.00,0.0016
2136.00,0.0014
2135.00,0.0012
2134.00,0.0012
2133.00,0.0014
2132.00,0.0016
2131.00,0.0019
2130.00,0.0020
2129.00,0.0022
2128.00,0.0024
2127.00,0.0025
2126.00,0.0026
2125.00,0.0026
2124.00,0.0027
2123.00,0.0028
2122.00,0.0029
2121.00,0.0030
2120.00,0.0031
2119.00,0.0032
2118.00,0.0032
2117.00,0.0033
2116.00,0.0035
2115.00,0.0035
2114.00,0.0035
2113.00,0.0035
2112.00,0.0035
2111.00,0.0034
2110.00,0.0034
2109.00,0.0033
2108.00,0.0033
2107.00,0.0033
2106.00,0.0033
2105.00,0.0033
2104.00,0.0034
2103.00,0.0034
2102.00,0.0034
2101.00,0.0034
2100.00,0.0034
2099.00,0.0033
2098.00,0.0031
2097.00,0.0030
2096.00,0.0029
2095.00,0.0028
2094.00,0.0028
2093.00,0.0029
2092.00,0.0030
2091.00,0.0032
2090.00,0.0034
2089.00,0.0034
2088.00,0.0035
2087.00,0.0035
2086.00,0.0034
2085.00,0.0034
2084.00,0.0034
2083.00,0.0034
2082.00,0.0034
2081.00,0.0035
2080.00,0.0035
2079.00,0.0035
2078.00,0.0035
2077.00,0.0034
2076.00,0.0034
2075.00,0.0034
2074.00,0.0034
2073.00,0.0034
2072.00,0.0034
2071.00,0.0033
2070.00,0.0032
2069.00,0.0032
2068.00,0.0032
2067.00,0.0032
2066.00,0.0032
2065.00,0.0032
2064.00,0.0031
2063.00,0.0031
2062.00,0.0031
2061.00,0.0031
2060.00,0.0031
2059.00,0.0032
2058.00,0.0031
2057.00,0.0030
2056.00,0.0030
2055.00,0.0031
2054.00,0.0034
2053.00,0.0040
2052.00,0.0045
2051.00,0.0046
2050.00,0.0042
2049.00,0.0037
2048.00,0.0034
2047.00,0.0032
2046.00,0.0031
2045.00,0.0031
2044.00,0.0031
2043.00,0.0031
2042.00,0.0031
2041.00,0.0030
2040.00,0.0031
2039.00,0.0031
2038.00,0.0030
2037.00,0.0028
2036.00,0.0027
2035.00,0.0026
2034.00,0.0023
2033.00,0.0022
2032.00,0.0021
2031.00,0.0021
2030.00,0.0020
2029.00,0.0020
2028.00,0.0020
2027.00,0.0020
2026.00,0.0019
2025.00,0.0018
2024.00,0.0018
2023.00,0.0018
2022.00,0.0017
2021.00,0.0018
2020.00,0.0020
2019.00,0.0021
2018.00,0.0020
2017.00,0.0019
2016.00,0.0019
2015.00,0.0019
2014.00,0.0019
2013.00,0.0019
2012.00,0.0021
2011.00,0.0021
2010.00,0.0019
2009.00,0.0016
2008.00,0.0014
2007.00,0.0012
2006.00,0.0012
2005.00,0.0014
2004.00,0.0017
2003.00,0.0018
2002.00,0.0018
2001.00,0.0019
2000.00,0.0020
1999.00,0.0021
1998.00,0.0021
1997.00,0.0022
1996.00,0.0023
1995.00,0.0025
1994.00,0.0026
1993.00,0.0026
1992.00,0.0027
1991.00,0.0027
1990.00,0.0027
1989.00,0.0027
1988.00,0.0029
1987.00,0.0030
1986.00,0.0030
1985.00,0.0031
1984.00,0.0035
1983.00,0.0038
1982.00,0.0040
1981.00,0.0039
1980.00,0.0035
1979.00,0.0027
1978.00,0.0018
1977.00,0.0012
1976.00,0.0011
1975.00,0.0012
1974.00,0.0012
1973.00,0.0013
1972.00,0.0014
1971.00,0.0013
1970.00,0.0012
1969.00,0.0012
1968.00,0.0013
1967.00,0.0014
1966.00,0.0013
1965.00,0.0013
1964.00,0.0014
1963.00,0.0013
1962.00,0.0011
1961.00,0.0009
1960.00,0.0009
1959.00,0.0009
1958.00,0.0009
1957.00,0.0011
1956.00,0.0013
1955.00,0.0015
1954.00,0.0015
1953.00,0.0016
1952.00,0.0017
1951.00,0.0017
1950.00,0.0015
1949.00,0.0015
1948.00,0.0015
1947.00,0.0016
1946.00,0.0017
1945.00,0.0017
1944.00,0.0018
1943.00,0.0017
1942.00,0.0015
1941.00,0.0014
1940.00,0.0015
1939.00,0.0016
1938.00,0.0017
1937.00,0.0017
1936.00,0.0017
1935.00,0.0017
1934.00,0.0017
1933.00,0.0017
1932.00,0.0019
1931.00,0.0019
1930.00,0.0019
1929.00,0.0018
1928.00,0.0018
1927.00,0.0018
1926.00,0.0018
1925.00,0.0019
1924.00,0.0021
1923.00,0.0022
1922.00,0.0021
1921.00,0.0021
1920.00,0.0021
1919.00,0.0021
1918.00,0.0021
1917.00,0.0020
1916.00,0.0021
1915.00,0.0021
1914.00,0.0021
1913.00,0.0022
1912.00,0.0023
1911.00,0.0023
1910.00,0.0024
1909.00,0.0023
1908.00,0.0024
1907.00,0.0024
1906.00,0.0023
1905.00,0.0023
1904.00,0.0023
1903.00,0.0023
1902.00,0.0022
1901.00,0.0023
1900.00,0.0024
1899.00,0.0024
1898.00,0.0024
1897.00,0.0024
1896.00,0.0024
1895.00,0.0023
1894.00,0.0022
1893.00,0.0022
1892.00,0.0022
1891.00,0.0023
1890.00,0.0023
1889.00,0.0023
1888.00,0.0023
1887.00,0.0024
1886.00,0.0024
1885.00,0.0024
1884.00,0.0024
1883.00,0.0024
1882.00,0.0023
1881.00,0.0023
1880.00,0.0023
1879.00,0.0023
1878.00,0.0023
1877.00,0.0024
1876.00,0.0024
1875.00,0.0025
1874.00,0.0024
1873.00,0.0023
1872.00,0.0022
1871.00,0.0022
1870.00,0.0023
1869.00,0.0023
1868.00,0.0024
1867.00,0.0024
1866.00,0.0024
1865.00,0.0024
1864.00,0.0024
1863.00,0.0025
1862.00,0.0025
1861.00,0.0025
1860.00,0.0025
1859.00,0.0025
1858.00,0.0025
1857.00,0.0025
1856.00,0.0025
1855.00,0.0025
1854.00,0.0025
1853.00,0.0025
1852.00,0.0025
1851.00,0.0025
1850.00,0.0025
1849.00,0.0025
1848.00,0.0025
1847.00,0.0024
1846.00,0.0023
1845.00,0.0023
1844.00,0.0023
1843.00,0.0024
1842.00,0.0024
1841.00,0.0025
1840.00,0.0027
1839.00,0.0028
1838.00,0.0027
1837.00,0.0027
1836.00,0.0027
1835.00,0.0027
1834.00,0.0026
1833.00,0.0025
1832.00,0.0026
1831.00,0.0026
1830.00,0.0026
1829.00,0.0025
1828.00,0.0025
1827.00,0.0026
1826.00,0.0026
1825.00,0.0026
1824.00,0.0026
1823.00,0.0026
1822.00,0.0027
1821.00,0.0027
1820.00,0.0026
1819.00,0.0025
1818.00,0.0024
1817.00,0.0024
1816.00,0.0024
1815.00,0.0025
1814.00,0.0026
1813.00,0.0027
1812.00,0.0028
1811.00,0.0029
1810.00,0.0028
1809.00,0.0028
1808.00,0.0029
1807.00,0.0029
1806.00,0.0028
1805.00,0.0028
1804.00,0.0029
1803.00,0.0029
1802.00,0.0029
1801.00,0.0030
1800.00,0.0030
1799.00,0.0030
1798.00,0.0031
1797.00,0.0031
1796.00,0.0031
1795.00,0.0031
1794.00,0.0030
1793.00,0.0029
1792.00,0.0029
1791.00,0.0029
1790.00,0.0030
1789.00,0.0031
1788.00,0.0032
1787.00,0.0032
1786.00,0.0033
1785.00,0.0033
1784.00,0.0034
1783.00,0.0035
1782.00,0.0036
1781.00,0.0036
1780.00,0.0036
1779.00,0.0036
1778.00,0.0035
1777.00,0.0035
1776.00,0.0036
1775.00,0.0036
1774.00,0.0036
1773.00,0.0036
1772.00,0.0036
1771.00,0.0035
1770.00,0.0034
1769.00,0.0035
1768.00,0.0037
1767.00,0.0038
1766.00,0.0039
1765.00,0.0039
1764.00,0.0039
1763.00,0.0040
1762.00,0.0039
1761.00,0.0039
1760.00,0.0040
1759.00,0.0041
1758.00,0.0041
1757.00,0.0041
1756.00,0.0041
1755.00,0.0040
1754.00,0.0039
1753.00,0.0039
1752.00,0.0039
1751.00,0.0040
1750.00,0.0041
1749.00,0.0042
1748.00,0.0043
1747.00,0.0044
1746.00,0.0044
1745.00,0.0045
1744.00,0.0046
1743.00,0.0046
1742.00,0.0045
1741.00,0.0046
1740.00,0.0048
1739.00,0.0049
1738.00,0.0049
1737.00,0.0048
1736.00,0.0049
1735.00,0.0052
1734.00,0.0054
1733.00,0.0058
1732.00,0.0063
1731.00,0.0068
1730.00,0.0072
1729.00,0.0075
1728.00,0.0078
1727.00,0.0082
1726.00,0.0084
1725.00,0.0088
1724.00,0.0092
1723.00,0.0096
1722.00,0.0097
1721.00,0.0097
1720.00,0.0100
1719.00,0.0105
1718.00,0.0110
1717.00,0.0116
1716.00,0.0123
1715.00,0.0131
1714.00,0.0137
1713.00,0.0144
1712.00,0.0153
1711.00,0.0162
1710.00,0.0170
1709.00,0.0178
1708.00,0.0189
1707.00,0.0202
1706.00,0.0216
1705.00,0.0231
1704.00,0.0244
1703.00,0.0254
1702.00,0.0266
1701.00,0.0293
1700.00,0.0334
1699.00,0.0371
1698.00,0.0401
1697.00,0.0437
1696.00,0.0487
1695.00,0.0541
1694.00,0.0587
1693.00,0.0628
1692.00,0.0672
1691.00,0.0722
1690.00,0.0777
1689.00,0.0831
1688.00,0.0878
1687.00,0.0918
1686.00,0.0962
1685.00,0.1030
1684.00,0.1118
1683.00,0.1191
1682.00,0.1239
1681.00,0.1280
1680.00,0.1322
1679.00,0.1361
1678.00,0.1394
1677.00,0.1430
1676.00,0.1479
1675.00,0.1535
1674.00,0.1583
1673.00,0.1619
1672.00,0.1653
1671.00,0.1695
1670.00,0.1750
1669.00,0.1810
1668.00,0.1863
1667.00,0.1903
1666.00,0.1933
1665.00,0.1965
1664.00,0.2008
1663.00,0.2062
1662.00,0.2113
1661.00,0.2154
1660.00,0.2186
1659.00,0.2213
1658.00,0.2232
1657.00,0.2241
1656.00,0.2245
1655.00,0.2253
1654.00,0.2283
1653.00,0.2326
1652.00,0.2345
1651.00,0.2335
1650.00,0.2313
1649.00,0.2289
1648.00,0.2270
1647.00,0.2249
1646.00,0.2218
1645.00,0.2179
1644.00,0.2136
1643.00,0.2089
1642.00,0.2037
1641.00,0.1981
1640.00,0.1923
1639.00,0.1863
1638.00,0.1801
1637.00,0.1735
1636.00,0.1662
1635.00,0.1587
1634.00,0.1519
1633.00,0.1459
1632.00,0.1403
1631.00,0.1347
1630.00,0.1294
1629.00,0.1243
1628.00,0.1198
1627.00,0.1160
1626.00,0.1130
1625.00,0.1109
1624.00,0.1099
1623.00,0.1097
1622.00,0.1096
1621.00,0.1092
1620.00,0.1084
1619.00,0.1071
1618.00,0.1055
1617.00,0.1032
1616.00,0.1004
1615.00,0.0974
1614.00,0.0946
1613.00,0.0920
1612.00,0.0895
1611.00,0.0873
1610.00,0.0850
1609.00,0.0824
1608.00,0.0794
1607.00,0.0760
1606.00,0.0723
1605.00,0.0684
1604.00,0.0645
1603.00,0.0607
1602.00,0.0572
1601.00,0.0540
1600.00,0.0512
1599.00,0.0489
1598.00,0.0470
1597.00,0.0456
1596.00,0.0446
1595.00,0.0441
1594.00,0.0442
1593.00,0.0449
1592.00,0.0462
1591.00,0.0481
1590.00,0.0504
1589.00,0.0528
1588.00,0.0550
1587.00,0.0567
1586.00,0.0576
1585.00,0.0576
1584.00,0.0566
1583.00,0.0548
1582.00,0.0525
1581.00,0.0498
1580.00,0.0471
1579.00,0.0445
1578.00,0.0423
1577.00,0.0401
1576.00,0.0380
1575.00,0.0362
1574.00,0.0349
1573.00,0.0338
1572.00,0.0327
1571.00,0.0318
1570.00,0.0308
1569.00,0.0299
1568.00,0.0290
1567.00,0.0283
1566.00,0.0276
1565.00,0.0269
1564.00,0.0260
1563.00,0.0250
1562.00,0.0239
1561.00,0.0228
1560.00,0.0223
1559.00,0.0218
1558.00,0.0211
1557.00,0.0209
1556.00,0.0210
1555.00,0.0209
1554.00,0.0208
1553.00,0.0206
1552.00,0.0205
1551.00,0.0203
1550.00,0.0202
1549.00,0.0198
1548.00,0.0194
1547.00,0.0191
1546.00,0.0188
1545.00,0.0186
1544.00,0.0183
1543.00,0.0179
1542.00,0.0177
1541.00,0.0177
1540.00,0.0176
1539.00,0.0175
1538.00,0.0175
1537.00,0.0175
1536.00,0.0175
1535.00,0.0175
1534.00,0.0176
1533.00,0.0176
1532.00,0.0177
1531.00,0.0177
1530.00,0.0178
1529.00,0.0179
1528.00,0.0180
1527.00,0.0181
1526.00,0.0183
1525.00,0.0184
1524.00,0.0185
1523.00,0.0188
1522.00,0.0192
1521.00,0.0197
1520.00,0.0201
1519.00,0.0206
1518.00,0.0212
1517.00,0.0218
1516.00,0.0222
1515.00,0.0225
1514.00,0.0227
1513.00,0.0229
1512.00,0.0231
1511.00,0.0233
1510.00,0.0234
1509.00,0.0237
1508.00,0.0245
1507.00,0.0258
1506.00,0.0272
1505.00,0.0290
1504.00,0.0309
1503.00,0.0329
1502.00,0.0352
1501.00,0.0378
1500.00,0.0408
1499.00,0.0441
1498.00,0.0476
1497.00,0.0509
1496.00,0.0534
1495.00,0.0548
1494.00,0.0550
1493.00,0.0544
1492.00,0.0531
1491.00,0.0510
1490.00,0.0484
1489.00,0.0453
1488.00,0.0420
1487.00,0.0390
1486.00,0.0362
1485.00,0.0340
1484.00,0.0321
1483.00,0.0305
1482.00,0.0292
1481.00,0.0284
1480.00,0.0278
1479.00,0.0275
1478.00,0.0276
1477.00,0.0282
1476.00,0.0292
1475.00,0.0306
1474.00,0.0327
1473.00,0.0363
1472.00,0.0410
1471.00,0.0459
1470.00,0.0508
1469.00,0.0558
1468.00,0.0611
1467.00,0.0669
1466.00,0.0737
1465.00,0.0812
1464.00,0.0881
1463.00,0.0928
1462.00,0.0954
1461.00,0.0964
1460.00,0.0959
1459.00,0.0940
1458.00,0.0903
1457.00,0.0852
1456.00,0.0801
1455.00,0.0762
1454.00,0.0735
1453.00,0.0716
1452.00,0.0705
1451.00,0.0703
1450.00,0.0712
1449.00,0.0736
1448.00,0.0774
1447.00,0.0818
1446.00,0.0865
1445.00,0.0912
1444.00,0.0959
1443.00,0.1003
1442.00,0.1044
1441.00,0.1079
1440.00,0.1104
1439.00,0.1121
1438.00,0.1135
1437.00,0.1152
1436.00,0.1168
1435.00,0.1174
1434.00,0.1174
1433.00,0.1172
1432.00,0.1171
1431.00,0.1174
1430.00,0.1185
1429.00,0.1206
1428.00,0.1233
1427.00,0.1264
1426.00,0.1299
1425.00,0.1338
1424.00,0.1373
1423.00,0.1391
1422.00,0.1389
1421.00,0.1367
1420.00,0.1323
1419.00,0.1256
1418.00,0.1176
1417.00,0.1097
1416.00,0.1022
1415.00,0.0951
1414.00,0.0887
1413.00,0.0832
1412.00,0.0786
1411.00,0.0750
1410.00,0.0723
1409.00,0.0705
1408.00,0.0692
1407.00,0.0685
1406.00,0.0682
1405.00,0.0683
1404.00,0.0683
1403.00,0.0680
1402.00,0.0673
1401.00,0.0661
1400.00,0.0642
1399.00,0.0618
1398.00,0.0589
1397.00,0.0560
1396.00,0.0529
1395.00,0.0498
1394.00,0.0472
1393.00,0.0451
1392.00,0.0436
1391.00,0.0425
1390.00,0.0418
1389.00,0.0415
1388.00,0.0417
1387.00,0.0425
1386.00,0.0437
1385.00,0.0450
1384.00,0.0465
1383.00,0.0482
1382.00,0.0499
1381.00,0.0515
1380.00,0.0529
1379.00,0.0539
1378.00,0.0546
1377.00,0.0549
1376.00,0.0549
1375.00,0.0547
1374.00,0.0543
1373.00,0.0537
1372.00,0.0530
1371.00,0.0522
1370.00,0.0514
1369.00,0.0505
1368.00,0.0496
1367.00,0.0489
1366.00,0.0484
1365.00,0.0481
1364.00,0.0482
1363.00,0.0484
1362.00,0.0486
1361.00,0.0483
1360.00,0.0474
1359.00,0.0460
1358.00,0.0441
1357.00,0.0420
1356.00,0.0398
1355.00,0.0378
1354.00,0.0362
1353.00,0.0350
1352.00,0.0341
1351.00,0.0335
1350.00,0.0331
1349.00,0.0328
1348.00,0.0326
1347.00,0.0324
1346.00,0.0323
1345.00,0.0323
1344.00,0.0322
1343.00,0.0323
1342.00,0.0324
1341.00,0.0327
1340.00,0.0330
1339.00,0.0334
1338.00,0.0339
1337.00,0.0345
1336.00,0.0352
1335.00,0.0359
1334.00,0.0368
1333.00,0.0377
1332.00,0.0387
1331.00,0.0397
1330.00,0.0409
1329.00,0.0422
1328.00,0.0437
1327.00,0.0453
1326.00,0.0470
1325.00,0.0489
1324.00,0.0508
1323.00,0.0526
1322.00,0.0543
1321.00,0.0559
1320.00,0.0571
1319.00,0.0579
1318.00,0.0582
1317.00,0.0581
1316.00,0.0575
1315.00,0.0565
1314.00,0.0555
1313.00,0.0543
1312.00,0.0531
1311.00,0.0522
1310.00,0.0515
1309.00,0.0512
1308.00,0.0513
1307.00,0.0518
1306.00,0.0527
1305.00,0.0541
1304.00,0.0560
1303.00,0.0585
1302.00,0.0617
1301.00,0.0657
1300.00,0.0708
1299.00,0.0771
1298.00,0.0845
1297.00,0.0931
1296.00,0.1025
1295.00,0.1124
1294.00,0.1223
1293.00,0.1316
1292.00,0.1401
1291.00,0.1473
1290.00,0.1531
1289.00,0.1572
1288.00,0.1597
1287.00,0.1606
1286.00,0.1599
1285.00,0.1578
1284.00,0.1548
1283.00,0.1512
1282.00,0.1475
1281.00,0.1440
1280.00,0.1412
1279.00,0.1391
1278.00,0.1378
1277.00,0.1372
1276.00,0.1370
1275.00,0.1368
1274.00,0.1364
1273.00,0.1354
1272.00,0.1337
1271.00,0.1310
1270.00,0.1275
1269.00,0.1232
1268.00,0.1182
1267.00,0.1129
1266.00,0.1074
1265.00,0.1019
1264.00,0.0965
1263.00,0.0914
1262.00,0.0867
1261.00,0.0822
1260.00,0.0781
1259.00,0.0743
1258.00,0.0709
1257.00,0.0679
1256.00,0.0651
1255.00,0.0626
1254.00,0.0605
1253.00,0.0587
1252.00,0.0572
1251.00,0.0561
1250.00,0.0555
1249.00,0.0552
1248.00,0.0552
1247.00,0.0557
1246.00,0.0565
1245.00,0.0576
1244.00,0.0588
1243.00,0.0602
1242.00,0.0615
1241.00,0.0627
1240.00,0.0637
1239.00,0.0646
1238.00,0.0655
1237.00,0.0663
1236.00,0.0670
1235.00,0.0676
1234.00,0.0682
1233.00,0.0685
1232.00,0.0687
1231.00,0.0687
1230.00,0.0686
1229.00,0.0684
1228.00,0.0680
1227.00,0.0678
1226.00,0.0676
1225.00,0.0676
1224.00,0.0676
1223.00,0.0678
1222.00,0.0682
1221.00,0.0685
1220.00,0.0687
1219.00,0.0687
1218.00,0.0685
1217.00,0.0678
1216.00,0.0667
1215.00,0.0651
1214.00,0.0632
1213.00,0.0610
1212.00,0.0588
1211.00,0.0566
1210.00,0.0545
1209.00,0.0527
1208.00,0.0511
1207.00,0.0498
1206.00,0.0488
1205.00,0.0481
1204.00,0.0477
1203.00,0.0477
1202.00,0.0481
1201.00,0.0487
1200.00,0.0496
1199.00,0.0508
1198.00,0.0520
1197.00,0.0532
1196.00,0.0542
1195.00,0.0549
1194.00,0.0551
1193.00,0.0546
1192.00,0.0535
1191.00,0.0519
1190.00,0.0501
1189.00,0.0481
1188.00,0.0461
1187.00,0.0442
1186.00,0.0427
1185.00,0.0413
1184.00,0.0403
1183.00,0.0395
1182.00,0.0390
1181.00,0.0387
1180.00,0.0385
1179.00,0.0386
1178.00,0.0388
1177.00,0.0392
1176.00,0.0397
1175.00,0.0403
1174.00,0.0409
1173.00,0.0415
1172.00,0.0419
1171.00,0.0422
1170.00,0.0423
1169.00,0.0423
1168.00,0.0422
1167.00,0.0420
1166.00,0.0419
1165.00,0.0419
1164.00,0.0421
1163.00,0.0427
1162.00,0.0436
1161.00,0.0449
1160.00,0.0462
1159.00,0.0475
1158.00,0.0486
1157.00,0.0492
1156.00,0.0492
1155.00,0.0485
1154.00,0.0474
1153.00,0.0457
1152.00,0.0437
1151.00,0.0415
1150.00,0.0392
1149.00,0.0370
1148.00,0.0349
1147.00,0.0331
1146.00,0.0315
1145.00,0.0301
1144.00,0.0290
1143.00,0.0281
1142.00,0.0275
1141.00,0.0271
1140.00,0.0270
1139.00,0.0271
1138.00,0.0278
1137.00,0.0288
1136.00,0.0305
1135.00,0.0327
1134.00,0.0355
1133.00,0.0386
1132.00,0.0416
1131.00,0.0441
1130.00,0.0457
1129.00,0.0459
1128.00,0.0449
1127.00,0.0428
1126.00,0.0402
1125.00,0.0374
1124.00,0.0349
1123.00,0.0328
1122.00,0.0312
1121.00,0.0301
1120.00,0.0292
1119.00,0.0286
1118.00,0.0283
1117.00,0.0281
1116.00,0.0280
1115.00,0.0281
1114.00,0.0282
1113.00,0.0284
1112.00,0.0286
1111.00,0.0288
1110.00,0.0291
1109.00,0.0295
1108.00,0.0299
1107.00,0.0304
1106.00,0.0311
1105.00,0.0320
1104.00,0.0329
1103.00,0.0339
1102.00,0.0348
1101.00,0.0355
1100.00,0.0358
1099.00,0.0356
1098.00,0.0351
1097.00,0.0343
1096.00,0.0333
1095.00,0.0324
1094.00,0.0315
1093.00,0.0307
1092.00,0.0300
1091.00,0.0294
1090.00,0.0290
1089.00,0.0286
1088.00,0.0284
1087.00,0.0282
1086.00,0.0282
1085.00,0.0283
1084.00,0.0285
1083.00,0.0288
1082.00,0.0292
1081.00,0.0298
1080.00,0.0304
1079.00,0.0311
1078.00,0.0320
1077.00,0.0329
1076.00,0.0337
1075.00,0.0346
1074.00,0.0356
1073.00,0.0366
1072.00,0.0377
1071.00,0.0390
1070.00,0.0406
1069.00,0.0425
1068.00,0.0447
1067.00,0.0475
1066.00,0.0506
1065.00,0.0541
1064.00,0.0578
1063.00,0.0617
1062.00,0.0656
1061.00,0.0692
1060.00,0.0721
1059.00,0.0741
1058.00,0.0750
1057.00,0.0746
1056.00,0.0727
1055.00,0.0697
1054.00,0.0658
1053.00,0.0614
1052.00,0.0569
1051.00,0.0527
1050.00,0.0490
1049.00,0.0460
1048.00,0.0436
1047.00,0.0420
1046.00,0.0409
1045.00,0.0402
1044.00,0.0399
1043.00,0.0398
1042.00,0.0399
1041.00,0.0401
1040.00,0.0404
1039.00,0.0408
1038.00,0.0413
1037.00,0.0418
1036.00,0.0423
1035.00,0.0430
1034.00,0.0439
1033.00,0.0447
1032.00,0.0454
1031.00,0.0460
1030.00,0.0461
1029.00,0.0458
1028.00,0.0450
1027.00,0.0439
1026.00,0.0428
1025.00,0.0418
1024.00,0.0410
1023.00,0.0404
1022.00,0.0402
1021.00,0.0400
1020.00,0.0399
1019.00,0.0397
1018.00,0.0394
1017.00,0.0388
1016.00,0.0378
1015.00,0.0366
1014.00,0.0353
1013.00,0.0340
1012.00,0.0328
1011.00,0.0320
1010.00,0.0316
1009.00,0.0317
1008.00,0.0322
1007.00,0.0331
1006.00,0.0344
1005.00,0.0357
1004.00,0.0368
1003.00,0.0374
1002.00,0.0375
1001.00,0.0371
1000.00,0.0363
999.00,0.0353
998.00,0.0343
997.00,0.0334
996.00,0.0325
995.00,0.0317
994.00,0.0310
993.00,0.0303
992.00,0.0295
991.00,0.0288
990.00,0.0282
989.00,0.0275
988.00,0.0267
987.00,0.0260
986.00,0.0254
985.00,0.0248
984.00,0.0243
983.00,0.0239
982.00,0.0237
981.00,0.0235
980.00,0.0233
979.00,0.0232
978.00,0.0232
977.00,0.0232
976.00,0.0230
975.00,0.0228
974.00,0.0226
973.00,0.0223
972.00,0.0219
971.00,0.0215
970.00,0.0212
969.00,0.0210
968.00,0.0207
967.00,0.0204
966.00,0.0202
965.00,0.0200
964.00,0.0198
963.00,0.0195
962.00,0.0193
961.00,0.0192
960.00,0.0189
959.00,0.0187
958.00,0.0186
957.00,0.0184
956.00,0.0182
955.00,0.0180
954.00,0.0180
953.00,0.0179
952.00,0.0178
951.00,0.0178
950.00,0.0178
949.00,0.0179
948.00,0.0180
947.00,0.0182
946.00,0.0185
945.00,0.0188
944.00,0.0192
943.00,0.0197
942.00,0.0203
941.00,0.0211
940.00,0.0221
939.00,0.0232
938.00,0.0245
937.00,0.0258
936.00,0.0270
935.00,0.0279
934.00,0.0286
933.00,0.0288
932.00,0.0287
931.00,0.0283
930.00,0.0278
929.00,0.0274
928.00,0.0271
927.00,0.0269
926.00,0.0269
925.00,0.0268
924.00,0.0266
923.00,0.0263
922.00,0.0260
921.00,0.0256
920.00,0.0252
919.00,0.0249
918.00,0.0245
917.00,0.0242
916.00,0.0238
915.00,0.0234
914.00,0.0232
913.00,0.0230
912.00,0.0228
911.00,0.0228
910.00,0.0229
909.00,0.0232
908.00,0.0235
907.00,0.0239
906.00,0.0246
905.00,0.0253
904.00,0.0261
903.00,0.0270
902.00,0.0281
901.00,0.0291
900.00,0.0300
899.00,0.0308
898.00,0.0314
897.00,0.0317
896.00,0.0317
895.00,0.0314
894.00,0.0310
893.00,0.0304
892.00,0.0297
891.00,0.0290
890.00,0.0285
889.00,0.0281
888.00,0.0277
887.00,0.0275
886.00,0.0275
885.00,0.0276
884.00,0.0278
883.00,0.0282
882.00,0.0287
881.00,0.0294
880.00,0.0301
879.00,0.0310
878.00,0.0320
877.00,0.0331
876.00,0.0342
875.00,0.0353
874.00,0.0365
873.00,0.0375
872.00,0.0383
871.00,0.0389
870.00,0.0393
869.00,0.0396
868.00,0.0397
867.00,0.0398
866.00,0.0400
865.00,0.0402
864.00,0.0404
863.00,0.0407
862.00,0.0411
861.00,0.0414
860.00,0.0419
859.00,0.0424
858.00,0.0431
857.00,0.0438
856.00,0.0446
855.00,0.0454
854.00,0.0464
853.00,0.0473
852.00,0.0483
851.00,0.0492
850.00,0.0502
849.00,0.0510
848.00,0.0517
847.00,0.0522
846.00,0.0527
845.00,0.0530
844.00,0.0532
843.00,0.0533
842.00,0.0533
841.00,0.0533
840.00,0.0531
839.00,0.0529
838.00,0.0527
837.00,0.0527
836.00,0.0526
835.00,0.0525
834.00,0.0525
833.00,0.0525
832.00,0.0525
831.00,0.0524
830.00,0.0524
829.00,0.0523
828.00,0.0521
827.00,0.0518
826.00,0.0516
825.00,0.0515
824.00,0.0514
823.00,0.0513
822.00,0.0514
821.00,0.0516
820.00,0.0516
819.00,0.0516
818.00,0.0517
817.00,0.0517
816.00,0.0516
815.00,0.0513
814.00,0.0509
813.00,0.0503
812.00,0.0493
811.00,0.0481
810.00,0.0467
809.00,0.0451
808.00,0.0434
807.00,0.0417
806.00,0.0403
805.00,0.0391
804.00,0.0381
803.00,0.0374
802.00,0.0370
801.00,0.0367
800.00,0.0365
799.00,0.0364
798.00,0.0366
797.00,0.0367
796.00,0.0368
795.00,0.0370
794.00,0.0372
793.00,0.0375
792.00,0.0377
791.00,0.0380
790.00,0.0383
789.00,0.0385
788.00,0.0387
787.00,0.0388
786.00,0.0391
785.00,0.0393
784.00,0.0395
783.00,0.0398
782.00,0.0402
781.00,0.0406
780.00,0.0411
779.00,0.0415
778.00,0.0420
777.00,0.0423
776.00,0.0424
775.00,0.0424
774.00,0.0424
773.00,0.0424
772.00,0.0425
771.00,0.0427
770.00,0.0432
769.00,0.0437
768.00,0.0442
767.00,0.0447
766.00,0.0454
765.00,0.0461
764.00,0.0468
763.00,0.0476
762.00,0.0484
761.00,0.0493
760.00,0.0500
759.00,0.0509
758.00,0.0518
757.00,0.0527
756.00,0.0536
755.00,0.0545
754.00,0.0555
753.00,0.0565
752.00,0.0574
751.00,0.0582
750.00,0.0592
749.00,0.0601
748.00,0.0610
747.00,0.0619
746.00,0.0630
745.00,0.0641
744.00,0.0651
743.00,0.0663
742.00,0.0678
741.00,0.0693
740.00,0.0710
739.00,0.0726
738.00,0.0741
737.00,0.0751
736.00,0.0756
735.00,0.0754
734.00,0.0749
733.00,0.0740
732.00,0.0728
731.00,0.0716
730.00,0.0704
729.00,0.0692
728.00,0.0680
727.00,0.0668
726.00,0.0657
725.00,0.0648
724.00,0.0639
723.00,0.0631
722.00,0.0624
721.00,0.0619
720.00,0.0614
719.00,0.0611
718.00,0.0609
717.00,0.0608
716.00,0.0608
715.00,0.0608
714.00,0.0610
713.00,0.0611
712.00,0.0611
711.00,0.0610
710.00,0.0610
709.00,0.0609
708.00,0.0608
707.00,0.0609
706.00,0.0610
705.00,0.0612
704.00,0.0613
703.00,0.0615
702.00,0.0618
701.00,0.0622
700.00,0.0626
699.00,0.0630
698.00,0.0635
697.00,0.0643
696.00,0.0651
695.00,0.0661
694.00,0.0672
693.00,0.0682
692.00,0.0691
691.00,0.0698
690.00,0.0705
689.00,0.0712
688.00,0.0718
687.00,0.0722
686.00,0.0726
685.00,0.0728
684.00,0.0729
683.00,0.0731
682.00,0.0734
681.00,0.0737
680.00,0.0740
679.00,0.0743
678.00,0.0748
677.00,0.0754
676.00,0.0759
675.00,0.0765
674.00,0.0773
673.00,0.0781
672.00,0.0789
671.00,0.0796
670.00,0.0805
669.00,0.0819
668.00,0.0836
667.00,0.0853
666.00,0.0864
665.00,0.0872
664.00,0.0881
663.00,0.0893
662.00,0.0908
661.00,0.0923
660.00,0.0939
659.00,0.0955
658.00,0.0973
657.00,0.0990
656.00,0.1006
655.00,0.1022
654.00,0.1038
653.00,0.1052
652.00,0.1064
651.00,0.1075
650.00,0.1083
649.00,0.1088
648.00,0.1090
647.00,0.1090
646.00,0.1088
645.00,0.1083
644.00,0.1076
643.00,0.1066
642.00,0.1055
641.00,0.1044
640.00,0.1033
639.00,0.1021
638.00,0.1011
637.00,0.1000
636.00,0.0990
635.00,0.0980
634.00,0.0972
633.00,0.0964
632.00,0.0957
631.00,0.0951
630.00,0.0946
629.00,0.0943
628.00,0.0939
627.00,0.0936
626.00,0.0935
625.00,0.0933
624.00,0.0930
623.00,0.0926
622.00,0.0924
621.00,0.0922
620.00,0.0919
619.00,0.0916
618.00,0.0914
617.00,0.0913
616.00,0.0911
615.00,0.0910
614.00,0.0911
613.00,0.0912
612.00,0.0913
611.00,0.0915
610.00,0.0917
609.00,0.0920
608.00,0.0922
607.00,0.0925
606.00,0.0929
605.00,0.0933
604.00,0.0937
603.00,0.0940
602.00,0.0944
601.00,0.0948
600.00,0.0951
599.00,0.0954
598.00,0.0958
597.00,0.0960
596.00,0.0961
595.00,0.0962
594.00,0.0964
593.00,0.0967
592.00,0.0971
591.00,0.0976
590.00,0.0986
589.00,0.0999
588.00,0.1015
587.00,0.1035
586.00,0.1059
585.00,0.1083
584.00,0.1105
583.00,0.1124
582.00,0.1141
581.00,0.1155
580.00,0.1163
579.00,0.1170
578.00,0.1175
577.00,0.1179
576.00,0.1181
575.00,0.1183
574.00,0.1185
573.00,0.1185
572.00,0.1182
571.00,0.1180
570.00,0.1178
569.00,0.1176
568.00,0.1172
567.00,0.1167
566.00,0.1162
565.00,0.1156
564.00,0.1146
563.00,0.1136
562.00,0.1127
561.00,0.1118
560.00,0.1109
559.00,0.1102
558.00,0.1098
557.00,0.1094
556.00,0.1088
555.00,0.1082
554.00,0.1076
553.00,0.1070
552.00,0.1062
551.00,0.1055
550.00,0.1052
549.00,0.1048
548.00,0.1043
547.00,0.1038
546.00,0.1033
545.00,0.1026
544.00,0.1018
543.00,0.1011
542.00,0.1006
541.00,0.1002
540.00,0.0998
539.00,0.0997
538.00,0.1001
537.00,0.1006
536.00,0.1010
535.00,0.1015
534.00,0.1023
533.00,0.1030
532.00,0.1033
531.00,0.1035
530.00,0.1037
529.00,0.1036
528.00,0.1029
527.00,0.1021
526.00,0.1013
525.00,0.1005
524.00,0.0997
523.00,0.0990
522.00,0.0986
521.00,0.0983
520.00,0.0977
519.00,0.0973
518.00,0.0971
517.00,0.0969
516.00,0.0965
515.00,0.0961
514.00,0.0961
513.00,0.0961
512.00,0.0960
511.00,0.0961
510.00,0.0965
509.00,0.0970
508.00,0.0971
507.00,0.0970
506.00,0.0970
505.00,0.0969
504.00,0.0964
503.00,0.0959
502.00,0.0957
501.00,0.0955
500.00,0.0952
499.00,0.0949
498.00,0.0949
497.00,0.0948
496.00,0.0947
495.00,0.0947
494.00,0.0950
493.00,0.0952
492.00,0.0951
491.00,0.0950
490.00,0.0954
489.00,0.0958
488.00,0.0958
487.00,0.0959
486.00,0.0963
485.00,0.0966
484.00,0.0964
483.00,0.0963
482.00,0.0967
481.00,0.0970
480.00,0.0969
479.00,0.0966
478.00,0.0965
477.00,0.0964
476.00,0.0960
475.00,0.0956
474.00,0.0959
473.00,0.0962
472.00,0.0962
471.00,0.0962
470.00,0.0963
469.00,0.0961
468.00,0.0954
467.00,0.0949
466.00,0.0950
465.00,0.0949
464.00,0.0942
463.00,0.0935
462.00,0.0935
461.00,0.0934
460.00,0.0927
459.00,0.0918
458.00,0.0915
457.00,0.0912
456.00,0.0906
455.00,0.0902
454.00,0.0903
453.00,0.0902
452.00,0.0893
451.00,0.0883
450.00,0.0879
449.00,0.0878
448.00,0.0874
447.00,0.0873
446.00,0.0875
445.00,0.0875
444.00,0.0869
443.00,0.0863
442.00,0.0862
441.00,0.0861
440.00,0.0852
439.00,0.0843
438.00,0.0840
437.00,0.0839
436.00,0.0833
435.00,0.0829
434.00,0.0830
433.00,0.0830
432.00,0.0824
431.00,0.0819
430.00,0.0823
429.00,0.0828
428.00,0.0824
427.00,0.0816
426.00,0.0812
425.00,0.0808
424.00,0.0799
423.00,0.0795
422.00,0.0799
421.00,0.0796
420.00,0.0777
419.00,0.0759
418.00,0.0766
417.00,0.0784
416.00,0.0793
415.00,0.0799
414.00,0.0812
413.00,0.0821
412.00,0.0818
411.00,0.0809
410.00,0.0806
409.00,0.0802
408.00,0.0793
407.00,0.0793
406.00,0.0810
405.00,0.0822
404.00,0.0814
403.00,0.0801
402.00,0.0799
401.00,0.0794
400.00,0.0770
