Created as New Dataset,Sample 881 By YargerLab Date Wednesday, July 23 2025
cm-1,A
4000.00,0.0011
3999.00,0.0011
3998.00,0.0011
3997.00,0.0011
3996.00,0.0010
3995.00,0.0010
3994.00,0.0010
3993.00,0.0010
3992.00,0.0010
3991.00,0.0010
3990.00,0.0010
3989.00,0.0010
3988.00,0.0010
3987.00,0.0010
3986.00,0.0010
3985.00,0.0010
3984.00,0.0010
3983.00,0.0010
3982.00,0.0009
3981.00,0.0009
3980.00,0.0009
3979.00,0.0008
3978.00,0.0008
3977.00,0.0008
3976.00,0.0008
3975.00,0.0009
3974.00,0.0009
3973.00,0.0009
3972.00,0.0009
3971.00,0.0009
3970.00,0.0008
3969.00,0.0008
3968.00,0.0008
3967.00,0.0008
3966.00,0.0008
3965.00,0.0008
3964.00,0.0008
3963.00,0.0008
3962.00,0.0008
3961.00,0.0008
3960.00,0.0008
3959.00,0.0008
3958.00,0.0008
3957.00,0.0008
3956.00,0.0008
3955.00,0.0009
3954.00,0.0008
3953.00,0.0008
3952.00,0.0008
3951.00,0.0008
3950.00,0.0008
3949.00,0.0008
3948.00,0.0008
3947.00,0.0008
3946.00,0.0008
3945.00,0.0008
3944.00,0.0008
3943.00,0.0008
3942.00,0.0009
3941.00,0.0009
3940.00,0.0009
3939.00,0.0009
3938.00,0.0009
3937.00,0.0009
3936.00,0.0009
3935.00,0.0009
3934.00,0.0009
3933.00,0.0009
3932.00,0.0009
3931.00,0.0009
3930.00,0.0009
3929.00,0.0009
3928.00,0.0009
3927.00,0.0010
3926.00,0.0010
3925.00,0.0010
3924.00,0.0010
3923.00,0.0010
3922.00,0.0010
3921.00,0.0010
3920.00,0.0010
3919.00,0.0010
3918.00,0.0010
3917.00,0.0010
3916.00,0.0010
3915.00,0.0009
3914.00,0.0009
3913.00,0.0010
3912.00,0.0010
3911.00,0.0010
3910.00,0.0010
3909.00,0.0010
3908.00,0.0010
3907.00,0.0010
3906.00,0.0010
3905.00,0.0010
3904.00,0.0010
3903.00,0.0010
3902.00,0.0009
3901.00,0.0009
3900.00,0.0010
3899.00,0.0010
3898.00,0.0010
3897.00,0.0010
3896.00,0.0011
3895.00,0.0011
3894.00,0.0011
3893.00,0.0011
3892.00,0.0011
3891.00,0.0011
3890.00,0.0010
3889.00,0.0010
3888.00,0.0010
3887.00,0.0009
3886.00,0.0009
3885.00,0.0009
3884.00,0.0008
3883.00,0.0008
3882.00,0.0009
3881.00,0.0009
3880.00,0.0010
3879.00,0.0010
3878.00,0.0010
3877.00,0.0010
3876.00,0.0010
3875.00,0.0010
3874.00,0.0010
3873.00,0.0010
3872.00,0.0010
3871.00,0.0010
3870.00,0.0010
3869.00,0.0010
3868.00,0.0010
3867.00,0.0010
3866.00,0.0010
3865.00,0.0011
3864.00,0.0011
3863.00,0.0011
3862.00,0.0010
3861.00,0.0010
3860.00,0.0010
3859.00,0.0010
3858.00,0.0010
3857.00,0.0010
3856.00,0.0010
3855.00,0.0010
3854.00,0.0010
3853.00,0.0010
3852.00,0.0010
3851.00,0.0010
3850.00,0.0010
3849.00,0.0010
3848.00,0.0010
3847.00,0.0010
3846.00,0.0010
3845.00,0.0010
3844.00,0.0010
3843.00,0.0011
3842.00,0.0011
3841.00,0.0011
3840.00,0.0011
3839.00,0.0011
3838.00,0.0011
3837.00,0.0011
3836.00,0.0011
3835.00,0.0011
3834.00,0.0011
3833.00,0.0011
3832.00,0.0011
3831.00,0.0011
3830.00,0.0011
3829.00,0.0010
3828.00,0.0011
3827.00,0.0011
3826.00,0.0011
3825.00,0.0011
3824.00,0.0010
3823.00,0.0010
3822.00,0.0011
3821.00,0.0011
3820.00,0.0011
3819.00,0.0011
3818.00,0.0011
3817.00,0.0011
3816.00,0.0011
3815.00,0.0011
3814.00,0.0011
3813.00,0.0011
3812.00,0.0011
3811.00,0.0011
3810.00,0.0011
3809.00,0.0011
3808.00,0.0011
3807.00,0.0011
3806.00,0.0011
3805.00,0.0011
3804.00,0.0010
3803.00,0.0010
3802.00,0.0011
3801.00,0.0011
3800.00,0.0010
3799.00,0.0010
3798.00,0.0010
3797.00,0.0010
3796.00,0.0010
3795.00,0.0010
3794.00,0.0010
3793.00,0.0010
3792.00,0.0011
3791.00,0.0011
3790.00,0.0011
3789.00,0.0011
3788.00,0.0010
3787.00,0.0010
3786.00,0.0010
3785.00,0.0010
3784.00,0.0010
3783.00,0.0010
3782.00,0.0010
3781.00,0.0010
3780.00,0.0010
3779.00,0.0010
3778.00,0.0009
3777.00,0.0009
3776.00,0.0008
3775.00,0.0008
3774.00,0.0008
3773.00,0.0008
3772.00,0.0008
3771.00,0.0008
3770.00,0.0008
3769.00,0.0007
3768.00,0.0007
3767.00,0.0007
3766.00,0.0007
3765.00,0.0007
3764.00,0.0007
3763.00,0.0007
3762.00,0.0007
3761.00,0.0007
3760.00,0.0007
3759.00,0.0007
3758.00,0.0007
3757.00,0.0006
3756.00,0.0006
3755.00,0.0006
3754.00,0.0006
3753.00,0.0006
3752.00,0.0005
3751.00,0.0005
3750.00,0.0005
3749.00,0.0005
3748.00,0.0005
3747.00,0.0005
3746.00,0.0005
3745.00,0.0005
3744.00,0.0005
3743.00,0.0005
3742.00,0.0005
3741.00,0.0005
3740.00,0.0005
3739.00,0.0005
3738.00,0.0005
3737.00,0.0005
3736.00,0.0005
3735.00,0.0006
3734.00,0.0007
3733.00,0.0007
3732.00,0.0007
3731.00,0.0007
3730.00,0.0007
3729.00,0.0007
3728.00,0.0007
3727.00,0.0007
3726.00,0.0007
3725.00,0.0008
3724.00,0.0008
3723.00,0.0008
3722.00,0.0008
3721.00,0.0007
3720.00,0.0007
3719.00,0.0008
3718.00,0.0008
3717.00,0.0008
3716.00,0.0008
3715.00,0.0008
3714.00,0.0008
3713.00,0.0009
3712.00,0.0009
3711.00,0.0009
3710.00,0.0009
3709.00,0.0010
3708.00,0.0010
3707.00,0.0011
3706.00,0.0010
3705.00,0.0010
3704.00,0.0010
3703.00,0.0011
3702.00,0.0011
3701.00,0.0011
3700.00,0.0012
3699.00,0.0012
3698.00,0.0012
3697.00,0.0013
3696.00,0.0013
3695.00,0.0013
3694.00,0.0014
3693.00,0.0015
3692.00,0.0016
3691.00,0.0018
3690.00,0.0020
3689.00,0.0022
3688.00,0.0024
3687.00,0.0027
3686.00,0.0029
3685.00,0.0031
3684.00,0.0034
3683.00,0.0036
3682.00,0.0039
3681.00,0.0042
3680.00,0.0045
3679.00,0.0048
3678.00,0.0051
3677.00,0.0055
3676.00,0.0059
3675.00,0.0063
3674.00,0.0066
3673.00,0.0069
3672.00,0.0071
3671.00,0.0073
3670.00,0.0075
3669.00,0.0077
3668.00,0.0078
3667.00,0.0079
3666.00,0.0080
3665.00,0.0081
3664.00,0.0083
3663.00,0.0084
3662.00,0.0086
3661.00,0.0087
3660.00,0.0088
3659.00,0.0088
3658.00,0.0089
3657.00,0.0089
3656.00,0.0088
3655.00,0.0087
3654.00,0.0086
3653.00,0.0085
3652.00,0.0084
3651.00,0.0084
3650.00,0.0084
3649.00,0.0084
3648.00,0.0083
3647.00,0.0082
3646.00,0.0080
3645.00,0.0078
3644.00,0.0076
3643.00,0.0074
3642.00,0.0073
3641.00,0.0071
3640.00,0.0071
3639.00,0.0072
3638.00,0.0072
3637.00,0.0072
3636.00,0.0068
3635.00,0.0063
3634.00,0.0057
3633.00,0.0052
3632.00,0.0048
3631.00,0.0046
3630.00,0.0044
3629.00,0.0043
3628.00,0.0042
3627.00,0.0041
3626.00,0.0041
3625.00,0.0041
3624.00,0.0040
3623.00,0.0040
3622.00,0.0040
3621.00,0.0039
3620.00,0.0039
3619.00,0.0038
3618.00,0.0038
3617.00,0.0037
3616.00,0.0037
3615.00,0.0037
3614.00,0.0037
3613.00,0.0037
3612.00,0.0037
3611.00,0.0037
3610.00,0.0037
3609.00,0.0037
3608.00,0.0037
3607.00,0.0037
3606.00,0.0037
3605.00,0.0038
3604.00,0.0038
3603.00,0.0038
3602.00,0.0039
3601.00,0.0039
3600.00,0.0040
3599.00,0.0040
3598.00,0.0041
3597.00,0.0042
3596.00,0.0042
3595.00,0.0043
3594.00,0.0044
3593.00,0.0045
3592.00,0.0046
3591.00,0.0046
3590.00,0.0046
3589.00,0.0047
3588.00,0.0048
3587.00,0.0049
3586.00,0.0051
3585.00,0.0052
3584.00,0.0052
3583.00,0.0053
3582.00,0.0054
3581.00,0.0055
3580.00,0.0056
3579.00,0.0057
3578.00,0.0059
3577.00,0.0060
3576.00,0.0061
3575.00,0.0062
3574.00,0.0063
3573.00,0.0064
3572.00,0.0065
3571.00,0.0066
3570.00,0.0067
3569.00,0.0068
3568.00,0.0070
3567.00,0.0071
3566.00,0.0073
3565.00,0.0075
3564.00,0.0076
3563.00,0.0077
3562.00,0.0078
3561.00,0.0080
3560.00,0.0082
3559.00,0.0084
3558.00,0.0086
3557.00,0.0088
3556.00,0.0089
3555.00,0.0091
3554.00,0.0093
3553.00,0.0095
3552.00,0.0096
3551.00,0.0098
3550.00,0.0100
3549.00,0.0102
3548.00,0.0104
3547.00,0.0106
3546.00,0.0108
3545.00,0.0110
3544.00,0.0112
3543.00,0.0115
3542.00,0.0117
3541.00,0.0119
3540.00,0.0121
3539.00,0.0123
3538.00,0.0125
3537.00,0.0127
3536.00,0.0129
3535.00,0.0132
3534.00,0.0134
3533.00,0.0136
3532.00,0.0138
3531.00,0.0141
3530.00,0.0143
3529.00,0.0145
3528.00,0.0148
3527.00,0.0150
3526.00,0.0153
3525.00,0.0156
3524.00,0.0158
3523.00,0.0161
3522.00,0.0163
3521.00,0.0165
3520.00,0.0168
3519.00,0.0171
3518.00,0.0174
3517.00,0.0177
3516.00,0.0180
3515.00,0.0183
3514.00,0.0186
3513.00,0.0188
3512.00,0.0191
3511.00,0.0194
3510.00,0.0197
3509.00,0.0200
3508.00,0.0203
3507.00,0.0207
3506.00,0.0210
3505.00,0.0213
3504.00,0.0217
3503.00,0.0220
3502.00,0.0224
3501.00,0.0227
3500.00,0.0231
3499.00,0.0234
3498.00,0.0237
3497.00,0.0241
3496.00,0.0244
3495.00,0.0247
3494.00,0.0251
3493.00,0.0254
3492.00,0.0258
3491.00,0.0262
3490.00,0.0265
3489.00,0.0269
3488.00,0.0273
3487.00,0.0277
3486.00,0.0280
3485.00,0.0284
3484.00,0.0288
3483.00,0.0292
3482.00,0.0296
3481.00,0.0300
3480.00,0.0305
3479.00,0.0309
3478.00,0.0313
3477.00,0.0317
3476.00,0.0322
3475.00,0.0326
3474.00,0.0330
3473.00,0.0335
3472.00,0.0339
3471.00,0.0344
3470.00,0.0348
3469.00,0.0353
3468.00,0.0358
3467.00,0.0362
3466.00,0.0367
3465.00,0.0371
3464.00,0.0376
3463.00,0.0380
3462.00,0.0385
3461.00,0.0390
3460.00,0.0394
3459.00,0.0399
3458.00,0.0403
3457.00,0.0408
3456.00,0.0413
3455.00,0.0418
3454.00,0.0423
3453.00,0.0428
3452.00,0.0433
3451.00,0.0438
3450.00,0.0442
3449.00,0.0447
3448.00,0.0452
3447.00,0.0457
3446.00,0.0462
3445.00,0.0467
3444.00,0.0472
3443.00,0.0477
3442.00,0.0482
3441.00,0.0487
3440.00,0.0493
3439.00,0.0498
3438.00,0.0502
3437.00,0.0507
3436.00,0.0512
3435.00,0.0517
3434.00,0.0522
3433.00,0.0528
3432.00,0.0533
3431.00,0.0538
3430.00,0.0543
3429.00,0.0547
3428.00,0.0552
3427.00,0.0557
3426.00,0.0562
3425.00,0.0567
3424.00,0.0572
3423.00,0.0577
3422.00,0.0582
3421.00,0.0587
3420.00,0.0592
3419.00,0.0598
3418.00,0.0603
3417.00,0.0609
3416.00,0.0614
3415.00,0.0619
3414.00,0.0625
3413.00,0.0630
3412.00,0.0635
3411.00,0.0641
3410.00,0.0646
3409.00,0.0651
3408.00,0.0655
3407.00,0.0661
3406.00,0.0666
3405.00,0.0672
3404.00,0.0677
3403.00,0.0683
3402.00,0.0689
3401.00,0.0694
3400.00,0.0700
3399.00,0.0705
3398.00,0.0709
3397.00,0.0714
3396.00,0.0720
3395.00,0.0725
3394.00,0.0731
3393.00,0.0737
3392.00,0.0742
3391.00,0.0746
3390.00,0.0750
3389.00,0.0754
3388.00,0.0758
3387.00,0.0762
3386.00,0.0767
3385.00,0.0771
3384.00,0.0776
3383.00,0.0781
3382.00,0.0786
3381.00,0.0790
3380.00,0.0795
3379.00,0.0799
3378.00,0.0804
3377.00,0.0808
3376.00,0.0812
3375.00,0.0816
3374.00,0.0820
3373.00,0.0824
3372.00,0.0828
3371.00,0.0832
3370.00,0.0837
3369.00,0.0840
3368.00,0.0844
3367.00,0.0847
3366.00,0.0849
3365.00,0.0852
3364.00,0.0855
3363.00,0.0858
3362.00,0.0861
3361.00,0.0864
3360.00,0.0867
3359.00,0.0869
3358.00,0.0871
3357.00,0.0874
3356.00,0.0876
3355.00,0.0879
3354.00,0.0881
3353.00,0.0884
3352.00,0.0886
3351.00,0.0888
3350.00,0.0890
3349.00,0.0891
3348.00,0.0892
3347.00,0.0893
3346.00,0.0894
3345.00,0.0895
3344.00,0.0896
3343.00,0.0897
3342.00,0.0897
3341.00,0.0898
3340.00,0.0898
3339.00,0.0898
3338.00,0.0898
3337.00,0.0897
3336.00,0.0897
3335.00,0.0896
3334.00,0.0896
3333.00,0.0895
3332.00,0.0894
3331.00,0.0893
3330.00,0.0892
3329.00,0.0891
3328.00,0.0891
3327.00,0.0890
3326.00,0.0889
3325.00,0.0888
3324.00,0.0886
3323.00,0.0884
3322.00,0.0882
3321.00,0.0880
3320.00,0.0878
3319.00,0.0877
3318.00,0.0875
3317.00,0.0873
3316.00,0.0871
3315.00,0.0869
3314.00,0.0867
3313.00,0.0865
3312.00,0.0863
3311.00,0.0862
3310.00,0.0860
3309.00,0.0859
3308.00,0.0857
3307.00,0.0854
3306.00,0.0852
3305.00,0.0848
3304.00,0.0845
3303.00,0.0842
3302.00,0.0838
3301.00,0.0836
3300.00,0.0833
3299.00,0.0830
3298.00,0.0827
3297.00,0.0824
3296.00,0.0821
3295.00,0.0818
3294.00,0.0815
3293.00,0.0811
3292.00,0.0808
3291.00,0.0804
3290.00,0.0800
3289.00,0.0795
3288.00,0.0792
3287.00,0.0788
3286.00,0.0785
3285.00,0.0782
3284.00,0.0778
3283.00,0.0775
3282.00,0.0771
3281.00,0.0767
3280.00,0.0763
3279.00,0.0759
3278.00,0.0755
3277.00,0.0751
3276.00,0.0747
3275.00,0.0743
3274.00,0.0739
3273.00,0.0735
3272.00,0.0731
3271.00,0.0727
3270.00,0.0722
3269.00,0.0717
3268.00,0.0712
3267.00,0.0707
3266.00,0.0703
3265.00,0.0698
3264.00,0.0694
3263.00,0.0690
3262.00,0.0685
3261.00,0.0680
3260.00,0.0676
3259.00,0.0671
3258.00,0.0667
3257.00,0.0663
3256.00,0.0658
3255.00,0.0654
3254.00,0.0649
3253.00,0.0644
3252.00,0.0639
3251.00,0.0635
3250.00,0.0631
3249.00,0.0627
3248.00,0.0622
3247.00,0.0618
3246.00,0.0613
3245.00,0.0607
3244.00,0.0602
3243.00,0.0597
3242.00,0.0592
3241.00,0.0587
3240.00,0.0583
3239.00,0.0578
3238.00,0.0573
3237.00,0.0569
3236.00,0.0564
3235.00,0.0560
3234.00,0.0555
3233.00,0.0550
3232.00,0.0545
3231.00,0.0540
3230.00,0.0534
3229.00,0.0529
3228.00,0.0524
3227.00,0.0519
3226.00,0.0515
3225.00,0.0510
3224.00,0.0506
3223.00,0.0501
3222.00,0.0496
3221.00,0.0491
3220.00,0.0487
3219.00,0.0482
3218.00,0.0477
3217.00,0.0472
3216.00,0.0468
3215.00,0.0463
3214.00,0.0458
3213.00,0.0453
3212.00,0.0448
3211.00,0.0443
3210.00,0.0439
3209.00,0.0435
3208.00,0.0431
3207.00,0.0427
3206.00,0.0423
3205.00,0.0419
3204.00,0.0415
3203.00,0.0410
3202.00,0.0406
3201.00,0.0401
3200.00,0.0397
3199.00,0.0393
3198.00,0.0389
3197.00,0.0384
3196.00,0.0380
3195.00,0.0376
3194.00,0.0372
3193.00,0.0368
3192.00,0.0364
3191.00,0.0360
3190.00,0.0355
3189.00,0.0351
3188.00,0.0347
3187.00,0.0343
3186.00,0.0339
3185.00,0.0335
3184.00,0.0331
3183.00,0.0327
3182.00,0.0323
3181.00,0.0319
3180.00,0.0316
3179.00,0.0312
3178.00,0.0308
3177.00,0.0304
3176.00,0.0300
3175.00,0.0296
3174.00,0.0293
3173.00,0.0289
3172.00,0.0285
3171.00,0.0282
3170.00,0.0278
3169.00,0.0275
3168.00,0.0271
3167.00,0.0268
3166.00,0.0265
3165.00,0.0261
3164.00,0.0258
3163.00,0.0254
3162.00,0.0251
3161.00,0.0248
3160.00,0.0245
3159.00,0.0242
3158.00,0.0239
3157.00,0.0236
3156.00,0.0233
3155.00,0.0231
3154.00,0.0228
3153.00,0.0225
3152.00,0.0222
3151.00,0.0220
3150.00,0.0217
3149.00,0.0214
3148.00,0.0211
3147.00,0.0209
3146.00,0.0206
3145.00,0.0204
3144.00,0.0201
3143.00,0.0198
3142.00,0.0196
3141.00,0.0193
3140.00,0.0191
3139.00,0.0189
3138.00,0.0187
3137.00,0.0185
3136.00,0.0183
3135.00,0.0181
3134.00,0.0178
3133.00,0.0176
3132.00,0.0174
3131.00,0.0172
3130.00,0.0170
3129.00,0.0168
3128.00,0.0166
3127.00,0.0164
3126.00,0.0162
3125.00,0.0160
3124.00,0.0158
3123.00,0.0156
3122.00,0.0155
3121.00,0.0153
3120.00,0.0152
3119.00,0.0150
3118.00,0.0149
3117.00,0.0147
3116.00,0.0145
3115.00,0.0143
3114.00,0.0142
3113.00,0.0140
3112.00,0.0139
3111.00,0.0137
3110.00,0.0136
3109.00,0.0134
3108.00,0.0133
3107.00,0.0131
3106.00,0.0130
3105.00,0.0129
3104.00,0.0127
3103.00,0.0126
3102.00,0.0125
3101.00,0.0123
3100.00,0.0122
3099.00,0.0121
3098.00,0.0120
3097.00,0.0118
3096.00,0.0117
3095.00,0.0116
3094.00,0.0115
3093.00,0.0114
3092.00,0.0113
3091.00,0.0112
3090.00,0.0111
3089.00,0.0110
3088.00,0.0109
3087.00,0.0108
3086.00,0.0107
3085.00,0.0106
3084.00,0.0105
3083.00,0.0104
3082.00,0.0103
3081.00,0.0102
3080.00,0.0101
3079.00,0.0100
3078.00,0.0099
3077.00,0.0098
3076.00,0.0097
3075.00,0.0097
3074.00,0.0096
3073.00,0.0096
3072.00,0.0095
3071.00,0.0095
3070.00,0.0094
3069.00,0.0093
3068.00,0.0092
3067.00,0.0092
3066.00,0.0091
3065.00,0.0091
3064.00,0.0090
3063.00,0.0089
3062.00,0.0089
3061.00,0.0089
3060.00,0.0088
3059.00,0.0088
3058.00,0.0088
3057.00,0.0087
3056.00,0.0087
3055.00,0.0086
3054.00,0.0086
3053.00,0.0086
3052.00,0.0086
3051.00,0.0085
3050.00,0.0085
3049.00,0.0085
3048.00,0.0084
3047.00,0.0084
3046.00,0.0084
3045.00,0.0084
3044.00,0.0084
3043.00,0.0084
3042.00,0.0084
3041.00,0.0085
3040.00,0.0085
3039.00,0.0085
3038.00,0.0085
3037.00,0.0085
3036.00,0.0086
3035.00,0.0086
3034.00,0.0086
3033.00,0.0087
3032.00,0.0088
3031.00,0.0089
3030.00,0.0090
3029.00,0.0090
3028.00,0.0091
3027.00,0.0093
3026.00,0.0094
3025.00,0.0096
3024.00,0.0099
3023.00,0.0101
3022.00,0.0104
3021.00,0.0107
3020.00,0.0111
3019.00,0.0116
3018.00,0.0121
3017.00,0.0127
3016.00,0.0135
3015.00,0.0143
3014.00,0.0153
3013.00,0.0165
3012.00,0.0178
3011.00,0.0193
3010.00,0.0209
3009.00,0.0228
3008.00,0.0248
3007.00,0.0269
3006.00,0.0292
3005.00,0.0316
3004.00,0.0341
3003.00,0.0367
3002.00,0.0392
3001.00,0.0418
3000.00,0.0443
2999.00,0.0468
2998.00,0.0492
2997.00,0.0515
2996.00,0.0539
2995.00,0.0562
2994.00,0.0587
2993.00,0.0613
2992.00,0.0641
2991.00,0.0671
2990.00,0.0705
2989.00,0.0743
2988.00,0.0789
2987.00,0.0846
2986.00,0.0919
2985.00,0.1016
2984.00,0.1135
2983.00,0.1264
2982.00,0.1388
2981.00,0.1491
2980.00,0.1573
2979.00,0.1642
2978.00,0.1709
2977.00,0.1782
2976.00,0.1866
2975.00,0.1959
2974.00,0.2057
2973.00,0.2151
2972.00,0.2224
2971.00,0.2260
2970.00,0.2250
2969.00,0.2195
2968.00,0.2106
2967.00,0.1992
2966.00,0.1863
2965.00,0.1727
2964.00,0.1590
2963.00,0.1458
2962.00,0.1335
2961.00,0.1224
2960.00,0.1124
2959.00,0.1037
2958.00,0.0961
2957.00,0.0896
2956.00,0.0839
2955.00,0.0790
2954.00,0.0748
2953.00,0.0711
2952.00,0.0680
2951.00,0.0654
2950.00,0.0632
2949.00,0.0616
2948.00,0.0603
2947.00,0.0593
2946.00,0.0587
2945.00,0.0583
2944.00,0.0582
2943.00,0.0584
2942.00,0.0589
2941.00,0.0597
2940.00,0.0605
2939.00,0.0613
2938.00,0.0618
2937.00,0.0623
2936.00,0.0626
2935.00,0.0630
2934.00,0.0633
2933.00,0.0635
2932.00,0.0634
2931.00,0.0631
2930.00,0.0626
2929.00,0.0618
2928.00,0.0609
2927.00,0.0600
2926.00,0.0591
2925.00,0.0583
2924.00,0.0577
2923.00,0.0572
2922.00,0.0568
2921.00,0.0566
2920.00,0.0565
2919.00,0.0564
2918.00,0.0563
2917.00,0.0563
2916.00,0.0562
2915.00,0.0561
2914.00,0.0560
2913.00,0.0558
2912.00,0.0557
2911.00,0.0557
2910.00,0.0557
2909.00,0.0559
2908.00,0.0560
2907.00,0.0563
2906.00,0.0565
2905.00,0.0569
2904.00,0.0572
2903.00,0.0576
2902.00,0.0580
2901.00,0.0584
2900.00,0.0589
2899.00,0.0594
2898.00,0.0599
2897.00,0.0605
2896.00,0.0613
2895.00,0.0622
2894.00,0.0632
2893.00,0.0643
2892.00,0.0653
2891.00,0.0663
2890.00,0.0672
2889.00,0.0678
2888.00,0.0682
2887.00,0.0685
2886.00,0.0687
2885.00,0.0689
2884.00,0.0688
2883.00,0.0683
2882.00,0.0673
2881.00,0.0659
2880.00,0.0642
2879.00,0.0626
2878.00,0.0609
2877.00,0.0594
2876.00,0.0579
2875.00,0.0565
2874.00,0.0552
2873.00,0.0539
2872.00,0.0526
2871.00,0.0513
2870.00,0.0500
2869.00,0.0487
2868.00,0.0474
2867.00,0.0461
2866.00,0.0448
2865.00,0.0435
2864.00,0.0422
2863.00,0.0409
2862.00,0.0396
2861.00,0.0383
2860.00,0.0370
2859.00,0.0358
2858.00,0.0346
2857.00,0.0335
2856.00,0.0324
2855.00,0.0313
2854.00,0.0303
2853.00,0.0294
2852.00,0.0285
2851.00,0.0276
2850.00,0.0268
2849.00,0.0260
2848.00,0.0252
2847.00,0.0245
2846.00,0.0239
2845.00,0.0233
2844.00,0.0227
2843.00,0.0222
2842.00,0.0217
2841.00,0.0212
2840.00,0.0208
2839.00,0.0204
2838.00,0.0200
2837.00,0.0197
2836.00,0.0195
2835.00,0.0192
2834.00,0.0190
2833.00,0.0188
2832.00,0.0185
2831.00,0.0183
2830.00,0.0181
2829.00,0.0178
2828.00,0.0176
2827.00,0.0173
2826.00,0.0171
2825.00,0.0169
2824.00,0.0168
2823.00,0.0167
2822.00,0.0165
2821.00,0.0164
2820.00,0.0162
2819.00,0.0160
2818.00,0.0159
2817.00,0.0158
2816.00,0.0157
2815.00,0.0155
2814.00,0.0154
2813.00,0.0152
2812.00,0.0150
2811.00,0.0148
2810.00,0.0146
2809.00,0.0144
2808.00,0.0143
2807.00,0.0141
2806.00,0.0139
2805.00,0.0138
2804.00,0.0136
2803.00,0.0134
2802.00,0.0133
2801.00,0.0131
2800.00,0.0129
2799.00,0.0128
2798.00,0.0127
2797.00,0.0126
2796.00,0.0126
2795.00,0.0125
2794.00,0.0124
2793.00,0.0123
2792.00,0.0122
2791.00,0.0121
2790.00,0.0120
2789.00,0.0120
2788.00,0.0119
2787.00,0.0119
2786.00,0.0118
2785.00,0.0117
2784.00,0.0116
2783.00,0.0115
2782.00,0.0114
2781.00,0.0113
2780.00,0.0113
2779.00,0.0112
2778.00,0.0110
2777.00,0.0109
2776.00,0.0108
2775.00,0.0107
2774.00,0.0106
2773.00,0.0106
2772.00,0.0106
2771.00,0.0105
2770.00,0.0105
2769.00,0.0104
2768.00,0.0104
2767.00,0.0103
2766.00,0.0102
2765.00,0.0101
2764.00,0.0100
2763.00,0.0100
2762.00,0.0099
2761.00,0.0099
2760.00,0.0098
2759.00,0.0097
2758.00,0.0096
2757.00,0.0096
2756.00,0.0095
2755.00,0.0094
2754.00,0.0094
2753.00,0.0093
2752.00,0.0092
2751.00,0.0091
2750.00,0.0091
2749.00,0.0090
2748.00,0.0090
2747.00,0.0090
2746.00,0.0090
2745.00,0.0091
2744.00,0.0091
2743.00,0.0091
2742.00,0.0091
2741.00,0.0091
2740.00,0.0091
2739.00,0.0091
2738.00,0.0091
2737.00,0.0092
2736.00,0.0092
2735.00,0.0093
2734.00,0.0094
2733.00,0.0094
2732.00,0.0095
2731.00,0.0095
2730.00,0.0095
2729.00,0.0095
2728.00,0.0095
2727.00,0.0095
2726.00,0.0095
2725.00,0.0096
2724.00,0.0096
2723.00,0.0097
2722.00,0.0097
2721.00,0.0097
2720.00,0.0096
2719.00,0.0096
2718.00,0.0096
2717.00,0.0095
2716.00,0.0094
2715.00,0.0093
2714.00,0.0093
2713.00,0.0092
2712.00,0.0091
2711.00,0.0090
2710.00,0.0089
2709.00,0.0088
2708.00,0.0088
2707.00,0.0087
2706.00,0.0087
2705.00,0.0087
2704.00,0.0086
2703.00,0.0086
2702.00,0.0086
2701.00,0.0085
2700.00,0.0085
2699.00,0.0084
2698.00,0.0084
2697.00,0.0083
2696.00,0.0082
2695.00,0.0081
2694.00,0.0080
2693.00,0.0078
2692.00,0.0077
2691.00,0.0076
2690.00,0.0075
2689.00,0.0074
2688.00,0.0074
2687.00,0.0073
2686.00,0.0072
2685.00,0.0072
2684.00,0.0071
2683.00,0.0071
2682.00,0.0071
2681.00,0.0071
2680.00,0.0071
2679.00,0.0071
2678.00,0.0071
2677.00,0.0072
2676.00,0.0073
2675.00,0.0074
2674.00,0.0075
2673.00,0.0077
2672.00,0.0079
2671.00,0.0081
2670.00,0.0083
2669.00,0.0085
2668.00,0.0087
2667.00,0.0090
2666.00,0.0092
2665.00,0.0094
2664.00,0.0095
2663.00,0.0096
2662.00,0.0097
2661.00,0.0098
2660.00,0.0098
2659.00,0.0098
2658.00,0.0098
2657.00,0.0097
2656.00,0.0096
2655.00,0.0095
2654.00,0.0094
2653.00,0.0092
2652.00,0.0091
2651.00,0.0089
2650.00,0.0087
2649.00,0.0085
2648.00,0.0083
2647.00,0.0082
2646.00,0.0080
2645.00,0.0078
2644.00,0.0076
2643.00,0.0075
2642.00,0.0074
2641.00,0.0072
2640.00,0.0071
2639.00,0.0070
2638.00,0.0068
2637.00,0.0067
2636.00,0.0066
2635.00,0.0064
2634.00,0.0063
2633.00,0.0063
2632.00,0.0062
2631.00,0.0062
2630.00,0.0062
2629.00,0.0061
2628.00,0.0061
2627.00,0.0060
2626.00,0.0059
2625.00,0.0059
2624.00,0.0059
2623.00,0.0059
2622.00,0.0059
2621.00,0.0059
2620.00,0.0059
2619.00,0.0059
2618.00,0.0058
2617.00,0.0058
2616.00,0.0058
2615.00,0.0058
2614.00,0.0058
2613.00,0.0057
2612.00,0.0057
2611.00,0.0057
2610.00,0.0058
2609.00,0.0058
2608.00,0.0058
2607.00,0.0058
2606.00,0.0058
2605.00,0.0058
2604.00,0.0058
2603.00,0.0058
2602.00,0.0057
2601.00,0.0057
2600.00,0.0056
2599.00,0.0056
2598.00,0.0056
2597.00,0.0055
2596.00,0.0055
2595.00,0.0055
2594.00,0.0054
2593.00,0.0054
2592.00,0.0054
2591.00,0.0054
2590.00,0.0054
2589.00,0.0054
2588.00,0.0054
2587.00,0.0054
2586.00,0.0054
2585.00,0.0053
2584.00,0.0054
2583.00,0.0054
2582.00,0.0053
2581.00,0.0053
2580.00,0.0053
2579.00,0.0053
2578.00,0.0053
2577.00,0.0053
2576.00,0.0053
2575.00,0.0052
2574.00,0.0051
2573.00,0.0050
2572.00,0.0050
2571.00,0.0049
2570.00,0.0049
2569.00,0.0048
2568.00,0.0047
2567.00,0.0046
2566.00,0.0046
2565.00,0.0045
2564.00,0.0044
2563.00,0.0043
2562.00,0.0042
2561.00,0.0042
2560.00,0.0041
2559.00,0.0041
2558.00,0.0041
2557.00,0.0040
2556.00,0.0039
2555.00,0.0039
2554.00,0.0038
2553.00,0.0038
2552.00,0.0038
2551.00,0.0037
2550.00,0.0037
2549.00,0.0037
2548.00,0.0037
2547.00,0.0037
2546.00,0.0037
2545.00,0.0037
2544.00,0.0037
2543.00,0.0037
2542.00,0.0037
2541.00,0.0038
2540.00,0.0038
2539.00,0.0039
2538.00,0.0039
2537.00,0.0039
2536.00,0.0039
2535.00,0.0039
2534.00,0.0040
2533.00,0.0041
2532.00,0.0041
2531.00,0.0042
2530.00,0.0042
2529.00,0.0043
2528.00,0.0043
2527.00,0.0043
2526.00,0.0043
2525.00,0.0042
2524.00,0.0042
2523.00,0.0043
2522.00,0.0043
2521.00,0.0043
2520.00,0.0042
2519.00,0.0042
2518.00,0.0042
2517.00,0.0042
2516.00,0.0043
2515.00,0.0043
2514.00,0.0043
2513.00,0.0042
2512.00,0.0041
2511.00,0.0041
2510.00,0.0040
2509.00,0.0039
2508.00,0.0038
2507.00,0.0037
2506.00,0.0037
2505.00,0.0038
2504.00,0.0038
2503.00,0.0037
2502.00,0.0036
2501.00,0.0036
2500.00,0.0035
2499.00,0.0035
2498.00,0.0035
2497.00,0.0034
2496.00,0.0034
2495.00,0.0033
2494.00,0.0033
2493.00,0.0032
2492.00,0.0032
2491.00,0.0031
2490.00,0.0031
2489.00,0.0030
2488.00,0.0030
2487.00,0.0030
2486.00,0.0030
2485.00,0.0030
2484.00,0.0030
2483.00,0.0030
2482.00,0.0029
2481.00,0.0030
2480.00,0.0030
2479.00,0.0030
2478.00,0.0030
2477.00,0.0030
2476.00,0.0029
2475.00,0.0029
2474.00,0.0029
2473.00,0.0029
2472.00,0.0029
2471.00,0.0029
2470.00,0.0029
2469.00,0.0029
2468.00,0.0029
2467.00,0.0029
2466.00,0.0028
2465.00,0.0027
2464.00,0.0027
2463.00,0.0026
2462.00,0.0026
2461.00,0.0026
2460.00,0.0026
2459.00,0.0025
2458.00,0.0025
2457.00,0.0024
2456.00,0.0023
2455.00,0.0023
2454.00,0.0023
2453.00,0.0022
2452.00,0.0022
2451.00,0.0022
2450.00,0.0022
2449.00,0.0021
2448.00,0.0021
2447.00,0.0021
2446.00,0.0021
2445.00,0.0021
2444.00,0.0021
2443.00,0.0021
2442.00,0.0021
2441.00,0.0021
2440.00,0.0021
2439.00,0.0021
2438.00,0.0022
2437.00,0.0022
2436.00,0.0022
2435.00,0.0022
2434.00,0.0023
2433.00,0.0023
2432.00,0.0023
2431.00,0.0023
2430.00,0.0023
2429.00,0.0023
2428.00,0.0024
2427.00,0.0025
2426.00,0.0025
2425.00,0.0026
2424.00,0.0027
2423.00,0.0027
2422.00,0.0028
2421.00,0.0028
2420.00,0.0028
2419.00,0.0028
2418.00,0.0029
2417.00,0.0029
2416.00,0.0029
2415.00,0.0029
2414.00,0.0029
2413.00,0.0029
2412.00,0.0029
2411.00,0.0029
2410.00,0.0029
2409.00,0.0029
2408.00,0.0029
2407.00,0.0029
2406.00,0.0029
2405.00,0.0029
2404.00,0.0029
2403.00,0.0029
2402.00,0.0029
2401.00,0.0029
2400.00,0.0028
2399.00,0.0027
2398.00,0.0027
2397.00,0.0027
2396.00,0.0028
2395.00,0.0028
2394.00,0.0027
2393.00,0.0027
2392.00,0.0026
2391.00,0.0026
2390.00,0.0025
2389.00,0.0025
2388.00,0.0025
2387.00,0.0024
2386.00,0.0023
2385.00,0.0023
2384.00,0.0023
2383.00,0.0022
2382.00,0.0022
2381.00,0.0022
2380.00,0.0022
2379.00,0.0021
2378.00,0.0021
2377.00,0.0021
2376.00,0.0021
2375.00,0.0021
2374.00,0.0020
2373.00,0.0020
2372.00,0.0020
2371.00,0.0020
2370.00,0.0020
2369.00,0.0020
2368.00,0.0020
2367.00,0.0020
2366.00,0.0020
2365.00,0.0020
2364.00,0.0020
2363.00,0.0020
2362.00,0.0020
2361.00,0.0020
2360.00,0.0020
2359.00,0.0019
2358.00,0.0019
2357.00,0.0019
2356.00,0.0019
2355.00,0.0019
2354.00,0.0019
2353.00,0.0019
2352.00,0.0019
2351.00,0.0019
2350.00,0.0019
2349.00,0.0019
2348.00,0.0019
2347.00,0.0019
2346.00,0.0019
2345.00,0.0019
2344.00,0.0019
2343.00,0.0020
2342.00,0.0020
2341.00,0.0020
2340.00,0.0020
2339.00,0.0019
2338.00,0.0019
2337.00,0.0018
2336.00,0.0018
2335.00,0.0018
2334.00,0.0018
2333.00,0.0018
2332.00,0.0018
2331.00,0.0018
2330.00,0.0018
2329.00,0.0018
2328.00,0.0018
2327.00,0.0018
2326.00,0.0018
2325.00,0.0018
2324.00,0.0018
2323.00,0.0018
2322.00,0.0018
2321.00,0.0019
2320.00,0.0018
2319.00,0.0018
2318.00,0.0018
2317.00,0.0017
2316.00,0.0017
2315.00,0.0017
2314.00,0.0017
2313.00,0.0017
2312.00,0.0017
2311.00,0.0017
2310.00,0.0017
2309.00,0.0017
2308.00,0.0016
2307.00,0.0015
2306.00,0.0015
2305.00,0.0015
2304.00,0.0015
2303.00,0.0016
2302.00,0.0016
2301.00,0.0016
2300.00,0.0016
2299.00,0.0015
2298.00,0.0015
2297.00,0.0015
2296.00,0.0016
2295.00,0.0016
2294.00,0.0017
2293.00,0.0017
2292.00,0.0017
2291.00,0.0016
2290.00,0.0016
2289.00,0.0016
2288.00,0.0016
2287.00,0.0016
2286.00,0.0016
2285.00,0.0016
2284.00,0.0015
2283.00,0.0015
2282.00,0.0014
2281.00,0.0013
2280.00,0.0013
2279.00,0.0012
2278.00,0.0012
2277.00,0.0012
2276.00,0.0011
2275.00,0.0011
2274.00,0.0011
2273.00,0.0011
2272.00,0.0010
2271.00,0.0009
2270.00,0.0009
2269.00,0.0008
2268.00,0.0008
2267.00,0.0008
2266.00,0.0008
2265.00,0.0008
2264.00,0.0008
2263.00,0.0007
2262.00,0.0007
2261.00,0.0007
2260.00,0.0008
2259.00,0.0008
2258.00,0.0008
2257.00,0.0007
2256.00,0.0006
2255.00,0.0006
2254.00,0.0006
2253.00,0.0006
2252.00,0.0005
2251.00,0.0005
2250.00,0.0005
2249.00,0.0005
2248.00,0.0006
2247.00,0.0006
2246.00,0.0006
2245.00,0.0005
2244.00,0.0004
2243.00,0.0004
2242.00,0.0003
2241.00,0.0003
2240.00,0.0003
2239.00,0.0003
2238.00,0.0004
2237.00,0.0005
2236.00,0.0006
2235.00,0.0007
2234.00,0.0006
2233.00,0.0005
2232.00,0.0004
2231.00,0.0003
2230.00,0.0003
2229.00,0.0004
2228.00,0.0005
2227.00,0.0006
2226.00,0.0006
2225.00,0.0006
2224.00,0.0005
2223.00,0.0005
2222.00,0.0004
2221.00,0.0004
2220.00,0.0005
2219.00,0.0005
2218.00,0.0006
2217.00,0.0006
2216.00,0.0007
2215.00,0.0007
2214.00,0.0007
2213.00,0.0006
2212.00,0.0006
2211.00,0.0006
2210.00,0.0007
2209.00,0.0007
2208.00,0.0007
2207.00,0.0006
2206.00,0.0006
2205.00,0.0006
2204.00,0.0007
2203.00,0.0007
2202.00,0.0007
2201.00,0.0008
2200.00,0.0009
2199.00,0.0009
2198.00,0.0009
2197.00,0.0010
2196.00,0.0011
2195.00,0.0013
2194.00,0.0013
2193.00,0.0013
2192.00,0.0012
2191.00,0.0011
2190.00,0.0010
2189.00,0.0010
2188.00,0.0010
2187.00,0.0009
2186.00,0.0009
2185.00,0.0008
2184.00,0.0007
2183.00,0.0006
2182.00,0.0006
2181.00,0.0007
2180.00,0.0009
2179.00,0.0010
2178.00,0.0010
2177.00,0.0010
2176.00,0.0009
2175.00,0.0008
2174.00,0.0007
2173.00,0.0006
2172.00,0.0005
2171.00,0.0004
2170.00,0.0004
2169.00,0.0003
2168.00,0.0003
2167.00,0.0003
2166.00,0.0003
2165.00,0.0004
2164.00,0.0005
2163.00,0.0006
2162.00,0.0006
2161.00,0.0006
2160.00,0.0006
2159.00,0.0005
2158.00,0.0004
2157.00,0.0002
2156.00,0.0001
2155.00,0.0001
2154.00,0.0002
2153.00,0.0003
2152.00,0.0005
2151.00,0.0007
2150.00,0.0007
2149.00,0.0007
2148.00,0.0005
2147.00,0.0004
2146.00,0.0004
2145.00,0.0004
2144.00,0.0005
2143.00,0.0005
2142.00,0.0005
2141.00,0.0005
2140.00,0.0005
2139.00,0.0006
2138.00,0.0006
2137.00,0.0006
2136.00,0.0005
2135.00,0.0004
2134.00,0.0004
2133.00,0.0004
2132.00,0.0004
2131.00,0.0006
2130.00,0.0007
2129.00,0.0007
2128.00,0.0007
2127.00,0.0008
2126.00,0.0008
2125.00,0.0009
2124.00,0.0010
2123.00,0.0010
2122.00,0.0010
2121.00,0.0010
2120.00,0.0011
2119.00,0.0011
2118.00,0.0011
2117.00,0.0011
2116.00,0.0011
2115.00,0.0011
2114.00,0.0011
2113.00,0.0011
2112.00,0.0011
2111.00,0.0011
2110.00,0.0011
2109.00,0.0011
2108.00,0.0011
2107.00,0.0011
2106.00,0.0010
2105.00,0.0010
2104.00,0.0011
2103.00,0.0011
2102.00,0.0012
2101.00,0.0012
2100.00,0.0012
2099.00,0.0012
2098.00,0.0011
2097.00,0.0010
2096.00,0.0011
2095.00,0.0012
2094.00,0.0013
2093.00,0.0013
2092.00,0.0013
2091.00,0.0013
2090.00,0.0012
2089.00,0.0013
2088.00,0.0014
2087.00,0.0015
2086.00,0.0015
2085.00,0.0015
2084.00,0.0014
2083.00,0.0014
2082.00,0.0015
2081.00,0.0016
2080.00,0.0016
2079.00,0.0016
2078.00,0.0016
2077.00,0.0015
2076.00,0.0016
2075.00,0.0016
2074.00,0.0016
2073.00,0.0015
2072.00,0.0015
2071.00,0.0014
2070.00,0.0015
2069.00,0.0015
2068.00,0.0015
2067.00,0.0015
2066.00,0.0014
2065.00,0.0014
2064.00,0.0014
2063.00,0.0013
2062.00,0.0013
2061.00,0.0012
2060.00,0.0012
2059.00,0.0013
2058.00,0.0014
2057.00,0.0015
2056.00,0.0015
2055.00,0.0014
2054.00,0.0013
2053.00,0.0013
2052.00,0.0014
2051.00,0.0014
2050.00,0.0014
2049.00,0.0013
2048.00,0.0011
2047.00,0.0010
2046.00,0.0009
2045.00,0.0009
2044.00,0.0010
2043.00,0.0009
2042.00,0.0008
2041.00,0.0006
2040.00,0.0004
2039.00,0.0003
2038.00,0.0003
2037.00,0.0004
2036.00,0.0004
2035.00,0.0004
2034.00,0.0003
2033.00,0.0003
2032.00,0.0004
2031.00,0.0006
2030.00,0.0008
2029.00,0.0008
2028.00,0.0008
2027.00,0.0006
2026.00,0.0005
2025.00,0.0003
2024.00,0.0002
2023.00,0.0002
2022.00,0.0003
2021.00,0.0004
2020.00,0.0006
2019.00,0.0007
2018.00,0.0008
2017.00,0.0009
2016.00,0.0010
2015.00,0.0010
2014.00,0.0008
2013.00,0.0005
2012.00,0.0004
2011.00,0.0005
2010.00,0.0006
2009.00,0.0007
2008.00,0.0005
2007.00,0.0002
2006.00,-0.0000
2005.00,-0.0000
2004.00,0.0003
2003.00,0.0006
2002.00,0.0007
2001.00,0.0007
2000.00,0.0005
1999.00,0.0004
1998.00,0.0005
1997.00,0.0006
1996.00,0.0007
1995.00,0.0007
1994.00,0.0005
1993.00,0.0003
1992.00,0.0003
1991.00,0.0002
1990.00,0.0002
1989.00,0.0002
1988.00,0.0003
1987.00,0.0005
1986.00,0.0006
1985.00,0.0007
1984.00,0.0008
1983.00,0.0008
1982.00,0.0009
1981.00,0.0008
1980.00,0.0007
1979.00,0.0008
1978.00,0.0009
1977.00,0.0011
1976.00,0.0010
1975.00,0.0008
1974.00,0.0005
1973.00,0.0002
1972.00,0.0002
1971.00,0.0003
1970.00,0.0003
1969.00,0.0004
1968.00,0.0005
1967.00,0.0006
1966.00,0.0007
1965.00,0.0007
1964.00,0.0008
1963.00,0.0008
1962.00,0.0007
1961.00,0.0006
1960.00,0.0005
1959.00,0.0004
1958.00,0.0005
1957.00,0.0006
1956.00,0.0007
1955.00,0.0008
1954.00,0.0007
1953.00,0.0006
1952.00,0.0006
1951.00,0.0005
1950.00,0.0006
1949.00,0.0006
1948.00,0.0006
1947.00,0.0006
1946.00,0.0005
1945.00,0.0004
1944.00,0.0004
1943.00,0.0005
1942.00,0.0004
1941.00,0.0004
1940.00,0.0004
1939.00,0.0004
1938.00,0.0004
1937.00,0.0005
1936.00,0.0005
1935.00,0.0005
1934.00,0.0005
1933.00,0.0005
1932.00,0.0005
1931.00,0.0005
1930.00,0.0005
1929.00,0.0004
1928.00,0.0004
1927.00,0.0004
1926.00,0.0005
1925.00,0.0006
1924.00,0.0007
1923.00,0.0007
1922.00,0.0007
1921.00,0.0006
1920.00,0.0004
1919.00,0.0003
1918.00,0.0003
1917.00,0.0003
1916.00,0.0004
1915.00,0.0004
1914.00,0.0004
1913.00,0.0004
1912.00,0.0004
1911.00,0.0005
1910.00,0.0005
1909.00,0.0006
1908.00,0.0006
1907.00,0.0007
1906.00,0.0008
1905.00,0.0009
1904.00,0.0010
1903.00,0.0010
1902.00,0.0010
1901.00,0.0010
1900.00,0.0010
1899.00,0.0009
1898.00,0.0009
1897.00,0.0009
1896.00,0.0009
1895.00,0.0009
1894.00,0.0010
1893.00,0.0010
1892.00,0.0009
1891.00,0.0009
1890.00,0.0009
1889.00,0.0009
1888.00,0.0010
1887.00,0.0010
1886.00,0.0010
1885.00,0.0010
1884.00,0.0011
1883.00,0.0011
1882.00,0.0011
1881.00,0.0011
1880.00,0.0011
1879.00,0.0012
1878.00,0.0012
1877.00,0.0012
1876.00,0.0012
1875.00,0.0012
1874.00,0.0012
1873.00,0.0012
1872.00,0.0012
1871.00,0.0012
1870.00,0.0011
1869.00,0.0011
1868.00,0.0011
1867.00,0.0011
1866.00,0.0012
1865.00,0.0012
1864.00,0.0013
1863.00,0.0013
1862.00,0.0013
1861.00,0.0014
1860.00,0.0014
1859.00,0.0014
1858.00,0.0014
1857.00,0.0014
1856.00,0.0013
1855.00,0.0013
1854.00,0.0013
1853.00,0.0013
1852.00,0.0013
1851.00,0.0013
1850.00,0.0013
1849.00,0.0013
1848.00,0.0013
1847.00,0.0013
1846.00,0.0013
1845.00,0.0013
1844.00,0.0013
1843.00,0.0013
1842.00,0.0013
1841.00,0.0014
1840.00,0.0014
1839.00,0.0015
1838.00,0.0015
1837.00,0.0015
1836.00,0.0015
1835.00,0.0016
1834.00,0.0016
1833.00,0.0016
1832.00,0.0016
1831.00,0.0016
1830.00,0.0016
1829.00,0.0016
1828.00,0.0016
1827.00,0.0015
1826.00,0.0015
1825.00,0.0014
1824.00,0.0014
1823.00,0.0014
1822.00,0.0015
1821.00,0.0015
1820.00,0.0015
1819.00,0.0015
1818.00,0.0015
1817.00,0.0015
1816.00,0.0016
1815.00,0.0017
1814.00,0.0017
1813.00,0.0017
1812.00,0.0017
1811.00,0.0017
1810.00,0.0018
1809.00,0.0018
1808.00,0.0018
1807.00,0.0018
1806.00,0.0018
1805.00,0.0018
1804.00,0.0018
1803.00,0.0019
1802.00,0.0019
1801.00,0.0020
1800.00,0.0020
1799.00,0.0020
1798.00,0.0020
1797.00,0.0020
1796.00,0.0021
1795.00,0.0021
1794.00,0.0021
1793.00,0.0022
1792.00,0.0022
1791.00,0.0023
1790.00,0.0023
1789.00,0.0024
1788.00,0.0024
1787.00,0.0025
1786.00,0.0025
1785.00,0.0026
1784.00,0.0027
1783.00,0.0029
1782.00,0.0030
1781.00,0.0031
1780.00,0.0032
1779.00,0.0033
1778.00,0.0034
1777.00,0.0036
1776.00,0.0038
1775.00,0.0040
1774.00,0.0042
1773.00,0.0045
1772.00,0.0047
1771.00,0.0049
1770.00,0.0051
1769.00,0.0051
1768.00,0.0052
1767.00,0.0052
1766.00,0.0052
1765.00,0.0051
1764.00,0.0051
1763.00,0.0050
1762.00,0.0049
1761.00,0.0047
1760.00,0.0046
1759.00,0.0045
1758.00,0.0044
1757.00,0.0044
1756.00,0.0043
1755.00,0.0043
1754.00,0.0042
1753.00,0.0041
1752.00,0.0040
1751.00,0.0039
1750.00,0.0039
1749.00,0.0038
1748.00,0.0037
1747.00,0.0037
1746.00,0.0036
1745.00,0.0036
1744.00,0.0035
1743.00,0.0035
1742.00,0.0035
1741.00,0.0036
1740.00,0.0035
1739.00,0.0035
1738.00,0.0035
1737.00,0.0035
1736.00,0.0035
1735.00,0.0035
1734.00,0.0035
1733.00,0.0035
1732.00,0.0035
1731.00,0.0035
1730.00,0.0035
1729.00,0.0035
1728.00,0.0036
1727.00,0.0036
1726.00,0.0036
1725.00,0.0036
1724.00,0.0036
1723.00,0.0037
1722.00,0.0037
1721.00,0.0037
1720.00,0.0037
1719.00,0.0037
1718.00,0.0038
1717.00,0.0038
1716.00,0.0039
1715.00,0.0040
1714.00,0.0040
1713.00,0.0041
1712.00,0.0041
1711.00,0.0041
1710.00,0.0041
1709.00,0.0040
1708.00,0.0040
1707.00,0.0039
1706.00,0.0038
1705.00,0.0037
1704.00,0.0036
1703.00,0.0035
1702.00,0.0034
1701.00,0.0033
1700.00,0.0032
1699.00,0.0031
1698.00,0.0030
1697.00,0.0029
1696.00,0.0028
1695.00,0.0026
1694.00,0.0026
1693.00,0.0025
1692.00,0.0025
1691.00,0.0025
1690.00,0.0024
1689.00,0.0023
1688.00,0.0023
1687.00,0.0022
1686.00,0.0022
1685.00,0.0022
1684.00,0.0022
1683.00,0.0022
1682.00,0.0022
1681.00,0.0023
1680.00,0.0023
1679.00,0.0024
1678.00,0.0024
1677.00,0.0024
1676.00,0.0025
1675.00,0.0025
1674.00,0.0026
1673.00,0.0026
1672.00,0.0026
1671.00,0.0025
1670.00,0.0024
1669.00,0.0024
1668.00,0.0024
1667.00,0.0023
1666.00,0.0023
1665.00,0.0023
1664.00,0.0022
1663.00,0.0022
1662.00,0.0021
1661.00,0.0021
1660.00,0.0022
1659.00,0.0022
1658.00,0.0022
1657.00,0.0023
1656.00,0.0024
1655.00,0.0024
1654.00,0.0025
1653.00,0.0027
1652.00,0.0028
1651.00,0.0030
1650.00,0.0031
1649.00,0.0032
1648.00,0.0033
1647.00,0.0035
1646.00,0.0036
1645.00,0.0037
1644.00,0.0038
1643.00,0.0039
1642.00,0.0040
1641.00,0.0041
1640.00,0.0041
1639.00,0.0041
1638.00,0.0041
1637.00,0.0041
1636.00,0.0040
1635.00,0.0040
1634.00,0.0041
1633.00,0.0041
1632.00,0.0041
1631.00,0.0041
1630.00,0.0040
1629.00,0.0040
1628.00,0.0040
1627.00,0.0039
1626.00,0.0038
1625.00,0.0038
1624.00,0.0038
1623.00,0.0038
1622.00,0.0038
1621.00,0.0038
1620.00,0.0038
1619.00,0.0038
1618.00,0.0038
1617.00,0.0038
1616.00,0.0038
1615.00,0.0038
1614.00,0.0038
1613.00,0.0038
1612.00,0.0037
1611.00,0.0037
1610.00,0.0037
1609.00,0.0038
1608.00,0.0038
1607.00,0.0038
1606.00,0.0038
1605.00,0.0038
1604.00,0.0038
1603.00,0.0038
1602.00,0.0038
1601.00,0.0039
1600.00,0.0038
1599.00,0.0038
1598.00,0.0038
1597.00,0.0037
1596.00,0.0037
1595.00,0.0037
1594.00,0.0037
1593.00,0.0036
1592.00,0.0037
1591.00,0.0037
1590.00,0.0037
1589.00,0.0037
1588.00,0.0037
1587.00,0.0037
1586.00,0.0038
1585.00,0.0038
1584.00,0.0038
1583.00,0.0039
1582.00,0.0039
1581.00,0.0040
1580.00,0.0040
1579.00,0.0041
1578.00,0.0041
1577.00,0.0042
1576.00,0.0043
1575.00,0.0044
1574.00,0.0044
1573.00,0.0044
1572.00,0.0045
1571.00,0.0046
1570.00,0.0046
1569.00,0.0047
1568.00,0.0047
1567.00,0.0048
1566.00,0.0048
1565.00,0.0049
1564.00,0.0050
1563.00,0.0050
1562.00,0.0051
1561.00,0.0051
1560.00,0.0052
1559.00,0.0052
1558.00,0.0053
1557.00,0.0053
1556.00,0.0054
1555.00,0.0054
1554.00,0.0054
1553.00,0.0055
1552.00,0.0055
1551.00,0.0056
1550.00,0.0056
1549.00,0.0057
1548.00,0.0057
1547.00,0.0058
1546.00,0.0058
1545.00,0.0059
1544.00,0.0060
1543.00,0.0061
1542.00,0.0061
1541.00,0.0062
1540.00,0.0064
1539.00,0.0064
1538.00,0.0065
1537.00,0.0066
1536.00,0.0067
1535.00,0.0067
1534.00,0.0069
1533.00,0.0070
1532.00,0.0071
1531.00,0.0072
1530.00,0.0073
1529.00,0.0074
1528.00,0.0075
1527.00,0.0076
1526.00,0.0077
1525.00,0.0078
1524.00,0.0079
1523.00,0.0081
1522.00,0.0082
1521.00,0.0084
1520.00,0.0085
1519.00,0.0086
1518.00,0.0087
1517.00,0.0089
1516.00,0.0091
1515.00,0.0093
1514.00,0.0095
1513.00,0.0097
1512.00,0.0099
1511.00,0.0102
1510.00,0.0104
1509.00,0.0107
1508.00,0.0111
1507.00,0.0117
1506.00,0.0121
1505.00,0.0125
1504.00,0.0128
1503.00,0.0131
1502.00,0.0134
1501.00,0.0138
1500.00,0.0143
1499.00,0.0147
1498.00,0.0153
1497.00,0.0159
1496.00,0.0167
1495.00,0.0174
1494.00,0.0180
1493.00,0.0186
1492.00,0.0193
1491.00,0.0202
1490.00,0.0212
1489.00,0.0223
1488.00,0.0233
1487.00,0.0244
1486.00,0.0254
1485.00,0.0265
1484.00,0.0276
1483.00,0.0289
1482.00,0.0303
1481.00,0.0319
1480.00,0.0335
1479.00,0.0353
1478.00,0.0373
1477.00,0.0398
1476.00,0.0429
1475.00,0.0464
1474.00,0.0503
1473.00,0.0548
1472.00,0.0593
1471.00,0.0628
1470.00,0.0652
1469.00,0.0669
1468.00,0.0680
1467.00,0.0686
1466.00,0.0686
1465.00,0.0681
1464.00,0.0670
1463.00,0.0654
1462.00,0.0635
1461.00,0.0614
1460.00,0.0592
1459.00,0.0570
1458.00,0.0547
1457.00,0.0524
1456.00,0.0504
1455.00,0.0489
1454.00,0.0475
1453.00,0.0458
1452.00,0.0439
1451.00,0.0419
1450.00,0.0400
1449.00,0.0381
1448.00,0.0364
1447.00,0.0350
1446.00,0.0341
1445.00,0.0334
1444.00,0.0329
1443.00,0.0327
1442.00,0.0326
1441.00,0.0327
1440.00,0.0329
1439.00,0.0333
1438.00,0.0337
1437.00,0.0344
1436.00,0.0351
1435.00,0.0359
1434.00,0.0365
1433.00,0.0370
1432.00,0.0376
1431.00,0.0384
1430.00,0.0393
1429.00,0.0401
1428.00,0.0409
1427.00,0.0417
1426.00,0.0425
1425.00,0.0434
1424.00,0.0444
1423.00,0.0454
1422.00,0.0463
1421.00,0.0473
1420.00,0.0485
1419.00,0.0502
1418.00,0.0519
1417.00,0.0534
1416.00,0.0548
1415.00,0.0561
1414.00,0.0575
1413.00,0.0589
1412.00,0.0603
1411.00,0.0616
1410.00,0.0627
1409.00,0.0637
1408.00,0.0645
1407.00,0.0651
1406.00,0.0655
1405.00,0.0659
1404.00,0.0663
1403.00,0.0667
1402.00,0.0670
1401.00,0.0673
1400.00,0.0677
1399.00,0.0681
1398.00,0.0687
1397.00,0.0692
1396.00,0.0699
1395.00,0.0708
1394.00,0.0717
1393.00,0.0726
1392.00,0.0735
1391.00,0.0747
1390.00,0.0765
1389.00,0.0793
1388.00,0.0837
1387.00,0.0898
1386.00,0.0971
1385.00,0.1054
1384.00,0.1147
1383.00,0.1249
1382.00,0.1348
1381.00,0.1433
1380.00,0.1489
1379.00,0.1507
1378.00,0.1487
1377.00,0.1436
1376.00,0.1367
1375.00,0.1293
1374.00,0.1226
1373.00,0.1179
1372.00,0.1153
1371.00,0.1142
1370.00,0.1140
1369.00,0.1139
1368.00,0.1131
1367.00,0.1111
1366.00,0.1073
1365.00,0.1019
1364.00,0.0950
1363.00,0.0868
1362.00,0.0785
1361.00,0.0712
1360.00,0.0652
1359.00,0.0602
1358.00,0.0561
1357.00,0.0528
1356.00,0.0503
1355.00,0.0483
1354.00,0.0469
1353.00,0.0461
1352.00,0.0459
1351.00,0.0461
1350.00,0.0469
1349.00,0.0482
1348.00,0.0501
1347.00,0.0524
1346.00,0.0551
1345.00,0.0581
1344.00,0.0611
1343.00,0.0637
1342.00,0.0656
1341.00,0.0663
1340.00,0.0659
1339.00,0.0643
1338.00,0.0621
1337.00,0.0596
1336.00,0.0572
1335.00,0.0551
1334.00,0.0534
1333.00,0.0522
1332.00,0.0514
1331.00,0.0511
1330.00,0.0512
1329.00,0.0517
1328.00,0.0526
1327.00,0.0538
1326.00,0.0553
1325.00,0.0570
1324.00,0.0590
1323.00,0.0611
1322.00,0.0632
1321.00,0.0654
1320.00,0.0676
1319.00,0.0697
1318.00,0.0717
1317.00,0.0736
1316.00,0.0753
1315.00,0.0767
1314.00,0.0780
1313.00,0.0791
1312.00,0.0800
1311.00,0.0807
1310.00,0.0813
1309.00,0.0817
1308.00,0.0819
1307.00,0.0820
1306.00,0.0819
1305.00,0.0817
1304.00,0.0813
1303.00,0.0807
1302.00,0.0798
1301.00,0.0788
1300.00,0.0776
1299.00,0.0761
1298.00,0.0745
1297.00,0.0728
1296.00,0.0709
1295.00,0.0690
1294.00,0.0670
1293.00,0.0651
1292.00,0.0631
1291.00,0.0612
1290.00,0.0592
1289.00,0.0573
1288.00,0.0554
1287.00,0.0536
1286.00,0.0518
1285.00,0.0501
1284.00,0.0485
1283.00,0.0469
1282.00,0.0454
1281.00,0.0440
1280.00,0.0428
1279.00,0.0416
1278.00,0.0406
1277.00,0.0397
1276.00,0.0390
1275.00,0.0383
1274.00,0.0378
1273.00,0.0374
1272.00,0.0371
1271.00,0.0369
1270.00,0.0367
1269.00,0.0366
1268.00,0.0365
1267.00,0.0365
1266.00,0.0364
1265.00,0.0363
1264.00,0.0361
1263.00,0.0359
1262.00,0.0356
1261.00,0.0353
1260.00,0.0351
1259.00,0.0350
1258.00,0.0349
1257.00,0.0350
1256.00,0.0352
1255.00,0.0354
1254.00,0.0357
1253.00,0.0358
1252.00,0.0357
1251.00,0.0355
1250.00,0.0349
1249.00,0.0341
1248.00,0.0332
1247.00,0.0323
1246.00,0.0316
1245.00,0.0310
1244.00,0.0306
1243.00,0.0302
1242.00,0.0299
1241.00,0.0296
1240.00,0.0292
1239.00,0.0288
1238.00,0.0284
1237.00,0.0279
1236.00,0.0274
1235.00,0.0268
1234.00,0.0262
1233.00,0.0256
1232.00,0.0250
1231.00,0.0243
1230.00,0.0237
1229.00,0.0230
1228.00,0.0224
1227.00,0.0217
1226.00,0.0211
1225.00,0.0206
1224.00,0.0200
1223.00,0.0196
1222.00,0.0191
1221.00,0.0187
1220.00,0.0184
1219.00,0.0180
1218.00,0.0178
1217.00,0.0175
1216.00,0.0173
1215.00,0.0171
1214.00,0.0169
1213.00,0.0167
1212.00,0.0166
1211.00,0.0165
1210.00,0.0164
1209.00,0.0163
1208.00,0.0163
1207.00,0.0164
1206.00,0.0164
1205.00,0.0165
1204.00,0.0166
1203.00,0.0167
1202.00,0.0169
1201.00,0.0171
1200.00,0.0174
1199.00,0.0177
1198.00,0.0181
1197.00,0.0185
1196.00,0.0190
1195.00,0.0196
1194.00,0.0202
1193.00,0.0210
1192.00,0.0218
1191.00,0.0226
1190.00,0.0235
1189.00,0.0244
1188.00,0.0253
1187.00,0.0262
1186.00,0.0271
1185.00,0.0281
1184.00,0.0291
1183.00,0.0303
1182.00,0.0317
1181.00,0.0332
1180.00,0.0349
1179.00,0.0368
1178.00,0.0391
1177.00,0.0418
1176.00,0.0450
1175.00,0.0489
1174.00,0.0537
1173.00,0.0595
1172.00,0.0666
1171.00,0.0750
1170.00,0.0848
1169.00,0.0960
1168.00,0.1083
1167.00,0.1213
1166.00,0.1344
1165.00,0.1468
1164.00,0.1580
1163.00,0.1670
1162.00,0.1735
1161.00,0.1772
1160.00,0.1784
1159.00,0.1771
1158.00,0.1738
1157.00,0.1691
1156.00,0.1633
1155.00,0.1570
1154.00,0.1506
1153.00,0.1444
1152.00,0.1386
1151.00,0.1334
1150.00,0.1287
1149.00,0.1246
1148.00,0.1211
1147.00,0.1183
1146.00,0.1161
1145.00,0.1147
1144.00,0.1141
1143.00,0.1144
1142.00,0.1157
1141.00,0.1181
1140.00,0.1217
1139.00,0.1267
1138.00,0.1330
1137.00,0.1409
1136.00,0.1502
1135.00,0.1608
1134.00,0.1721
1133.00,0.1837
1132.00,0.1947
1131.00,0.2042
1130.00,0.2112
1129.00,0.2153
1128.00,0.2160
1127.00,0.2131
1126.00,0.2070
1125.00,0.1985
1124.00,0.1887
1123.00,0.1787
1122.00,0.1694
1121.00,0.1616
1120.00,0.1558
1119.00,0.1518
1118.00,0.1497
1117.00,0.1491
1116.00,0.1497
1115.00,0.1511
1114.00,0.1528
1113.00,0.1547
1112.00,0.1565
1111.00,0.1580
1110.00,0.1591
1109.00,0.1598
1108.00,0.1600
1107.00,0.1595
1106.00,0.1581
1105.00,0.1559
1104.00,0.1530
1103.00,0.1491
1102.00,0.1446
1101.00,0.1394
1100.00,0.1337
1099.00,0.1278
1098.00,0.1218
1097.00,0.1159
1096.00,0.1101
1095.00,0.1045
1094.00,0.0992
1093.00,0.0941
1092.00,0.0894
1091.00,0.0849
1090.00,0.0807
1089.00,0.0767
1088.00,0.0729
1087.00,0.0693
1086.00,0.0660
1085.00,0.0630
1084.00,0.0604
1083.00,0.0580
1082.00,0.0558
1081.00,0.0538
1080.00,0.0521
1079.00,0.0504
1078.00,0.0489
1077.00,0.0475
1076.00,0.0463
1075.00,0.0453
1074.00,0.0445
1073.00,0.0436
1072.00,0.0426
1071.00,0.0414
1070.00,0.0402
1069.00,0.0389
1068.00,0.0377
1067.00,0.0364
1066.00,0.0351
1065.00,0.0338
1064.00,0.0327
1063.00,0.0316
1062.00,0.0307
1061.00,0.0297
1060.00,0.0288
1059.00,0.0278
1058.00,0.0268
1057.00,0.0257
1056.00,0.0247
1055.00,0.0238
1054.00,0.0229
1053.00,0.0221
1052.00,0.0212
1051.00,0.0204
1050.00,0.0196
1049.00,0.0189
1048.00,0.0182
1047.00,0.0176
1046.00,0.0169
1045.00,0.0163
1044.00,0.0157
1043.00,0.0151
1042.00,0.0147
1041.00,0.0143
1040.00,0.0139
1039.00,0.0135
1038.00,0.0132
1037.00,0.0129
1036.00,0.0126
1035.00,0.0124
1034.00,0.0122
1033.00,0.0120
1032.00,0.0118
1031.00,0.0117
1030.00,0.0116
1029.00,0.0115
1028.00,0.0115
1027.00,0.0114
1026.00,0.0113
1025.00,0.0113
1024.00,0.0114
1023.00,0.0114
1022.00,0.0114
1021.00,0.0113
1020.00,0.0112
1019.00,0.0112
1018.00,0.0111
1017.00,0.0111
1016.00,0.0111
1015.00,0.0111
1014.00,0.0111
1013.00,0.0112
1012.00,0.0113
1011.00,0.0113
1010.00,0.0114
1009.00,0.0114
1008.00,0.0115
1007.00,0.0116
1006.00,0.0117
1005.00,0.0118
1004.00,0.0118
1003.00,0.0119
1002.00,0.0119
1001.00,0.0120
1000.00,0.0121
999.00,0.0122
998.00,0.0123
997.00,0.0125
996.00,0.0126
995.00,0.0128
994.00,0.0130
993.00,0.0133
992.00,0.0135
991.00,0.0138
990.00,0.0142
989.00,0.0146
988.00,0.0150
987.00,0.0156
986.00,0.0162
985.00,0.0169
984.00,0.0176
983.00,0.0185
982.00,0.0195
981.00,0.0206
980.00,0.0219
979.00,0.0233
978.00,0.0248
977.00,0.0265
976.00,0.0284
975.00,0.0306
974.00,0.0330
973.00,0.0356
972.00,0.0383
971.00,0.0411
970.00,0.0440
969.00,0.0470
968.00,0.0503
967.00,0.0538
966.00,0.0578
965.00,0.0626
964.00,0.0686
963.00,0.0766
962.00,0.0873
961.00,0.1018
960.00,0.1207
959.00,0.1446
958.00,0.1732
957.00,0.2060
956.00,0.2419
955.00,0.2795
954.00,0.3166
953.00,0.3496
952.00,0.3742
951.00,0.3859
950.00,0.3827
949.00,0.3660
948.00,0.3393
947.00,0.3070
946.00,0.2729
945.00,0.2396
944.00,0.2089
943.00,0.1815
942.00,0.1580
941.00,0.1385
940.00,0.1225
939.00,0.1096
938.00,0.0990
937.00,0.0902
936.00,0.0826
935.00,0.0757
934.00,0.0693
933.00,0.0634
932.00,0.0579
931.00,0.0530
930.00,0.0486
929.00,0.0448
928.00,0.0415
927.00,0.0387
926.00,0.0364
925.00,0.0344
924.00,0.0328
923.00,0.0314
922.00,0.0302
921.00,0.0290
920.00,0.0278
919.00,0.0265
918.00,0.0252
917.00,0.0240
916.00,0.0228
915.00,0.0217
914.00,0.0208
913.00,0.0199
912.00,0.0192
911.00,0.0185
910.00,0.0179
909.00,0.0174
908.00,0.0169
907.00,0.0166
906.00,0.0162
905.00,0.0159
904.00,0.0156
903.00,0.0154
902.00,0.0151
901.00,0.0149
900.00,0.0146
899.00,0.0145
898.00,0.0143
897.00,0.0142
896.00,0.0142
895.00,0.0141
894.00,0.0140
893.00,0.0138
892.00,0.0137
891.00,0.0136
890.00,0.0135
889.00,0.0135
888.00,0.0134
887.00,0.0134
886.00,0.0133
885.00,0.0133
884.00,0.0133
883.00,0.0133
882.00,0.0133
881.00,0.0134
880.00,0.0134
879.00,0.0135
878.00,0.0135
877.00,0.0136
876.00,0.0137
875.00,0.0137
874.00,0.0138
873.00,0.0139
872.00,0.0140
871.00,0.0141
870.00,0.0142
869.00,0.0143
868.00,0.0143
867.00,0.0144
866.00,0.0145
865.00,0.0146
864.00,0.0148
863.00,0.0149
862.00,0.0150
861.00,0.0151
860.00,0.0153
859.00,0.0156
858.00,0.0158
857.00,0.0160
856.00,0.0162
855.00,0.0163
854.00,0.0164
853.00,0.0166
852.00,0.0167
851.00,0.0169
850.00,0.0172
849.00,0.0175
848.00,0.0178
847.00,0.0182
846.00,0.0185
845.00,0.0188
844.00,0.0192
843.00,0.0195
842.00,0.0200
841.00,0.0205
840.00,0.0210
839.00,0.0216
838.00,0.0222
837.00,0.0229
836.00,0.0236
835.00,0.0244
834.00,0.0253
833.00,0.0262
832.00,0.0273
831.00,0.0284
830.00,0.0297
829.00,0.0312
828.00,0.0330
827.00,0.0354
826.00,0.0385
825.00,0.0429
824.00,0.0494
823.00,0.0589
822.00,0.0724
821.00,0.0902
820.00,0.1112
819.00,0.1327
818.00,0.1505
817.00,0.1600
816.00,0.1589
815.00,0.1478
814.00,0.1297
813.00,0.1091
812.00,0.0895
811.00,0.0730
810.00,0.0603
809.00,0.0511
808.00,0.0446
807.00,0.0401
806.00,0.0369
805.00,0.0347
804.00,0.0331
803.00,0.0320
802.00,0.0311
801.00,0.0305
800.00,0.0301
799.00,0.0298
798.00,0.0296
797.00,0.0295
796.00,0.0294
795.00,0.0292
794.00,0.0290
793.00,0.0290
792.00,0.0290
791.00,0.0291
790.00,0.0292
789.00,0.0293
788.00,0.0295
787.00,0.0297
786.00,0.0299
785.00,0.0302
784.00,0.0304
783.00,0.0307
782.00,0.0309
781.00,0.0312
780.00,0.0315
779.00,0.0318
778.00,0.0321
777.00,0.0325
776.00,0.0328
775.00,0.0330
774.00,0.0333
773.00,0.0336
772.00,0.0340
771.00,0.0344
770.00,0.0347
769.00,0.0351
768.00,0.0354
767.00,0.0358
766.00,0.0361
765.00,0.0366
764.00,0.0370
763.00,0.0374
762.00,0.0378
761.00,0.0381
760.00,0.0384
759.00,0.0388
758.00,0.0391
757.00,0.0396
756.00,0.0400
755.00,0.0404
754.00,0.0408
753.00,0.0412
752.00,0.0416
751.00,0.0421
750.00,0.0426
749.00,0.0430
748.00,0.0434
747.00,0.0438
746.00,0.0442
745.00,0.0446
744.00,0.0450
743.00,0.0453
742.00,0.0457
741.00,0.0461
740.00,0.0466
739.00,0.0470
738.00,0.0474
737.00,0.0478
736.00,0.0482
735.00,0.0487
734.00,0.0491
733.00,0.0496
732.00,0.0500
731.00,0.0504
730.00,0.0508
729.00,0.0513
728.00,0.0518
727.00,0.0523
726.00,0.0528
725.00,0.0532
724.00,0.0537
723.00,0.0541
722.00,0.0546
721.00,0.0550
720.00,0.0555
719.00,0.0559
718.00,0.0564
717.00,0.0568
716.00,0.0573
715.00,0.0577
714.00,0.0582
713.00,0.0586
712.00,0.0591
711.00,0.0595
710.00,0.0599
709.00,0.0604
708.00,0.0608
707.00,0.0613
706.00,0.0618
705.00,0.0622
704.00,0.0627
703.00,0.0632
702.00,0.0637
701.00,0.0642
700.00,0.0647
699.00,0.0651
698.00,0.0654
697.00,0.0657
696.00,0.0661
695.00,0.0665
694.00,0.0669
693.00,0.0673
692.00,0.0677
691.00,0.0681
690.00,0.0685
689.00,0.0690
688.00,0.0695
687.00,0.0700
686.00,0.0704
685.00,0.0708
684.00,0.0711
683.00,0.0715
682.00,0.0719
681.00,0.0723
680.00,0.0727
679.00,0.0732
678.00,0.0736
677.00,0.0739
676.00,0.0743
675.00,0.0747
674.00,0.0750
673.00,0.0753
672.00,0.0756
671.00,0.0758
670.00,0.0759
669.00,0.0761
668.00,0.0767
667.00,0.0772
666.00,0.0775
665.00,0.0778
664.00,0.0780
663.00,0.0782
662.00,0.0786
661.00,0.0789
660.00,0.0792
659.00,0.0795
658.00,0.0796
657.00,0.0798
656.00,0.0801
655.00,0.0804
654.00,0.0806
653.00,0.0808
652.00,0.0809
651.00,0.0810
650.00,0.0812
649.00,0.0814
648.00,0.0815
647.00,0.0817
646.00,0.0818
645.00,0.0819
644.00,0.0820
643.00,0.0821
642.00,0.0822
641.00,0.0823
640.00,0.0824
639.00,0.0825
638.00,0.0825
637.00,0.0825
636.00,0.0825
635.00,0.0826
634.00,0.0826
633.00,0.0827
632.00,0.0828
631.00,0.0828
630.00,0.0827
629.00,0.0826
628.00,0.0826
627.00,0.0826
626.00,0.0826
625.00,0.0825
624.00,0.0823
623.00,0.0822
622.00,0.0820
621.00,0.0819
620.00,0.0817
619.00,0.0814
618.00,0.0811
617.00,0.0809
616.00,0.0807
615.00,0.0806
614.00,0.0805
613.00,0.0803
612.00,0.0802
611.00,0.0801
610.00,0.0800
609.00,0.0798
608.00,0.0796
607.00,0.0793
606.00,0.0789
605.00,0.0786
604.00,0.0783
603.00,0.0780
602.00,0.0777
601.00,0.0774
600.00,0.0772
599.00,0.0770
598.00,0.0768
597.00,0.0767
596.00,0.0765
595.00,0.0762
594.00,0.0758
593.00,0.0753
592.00,0.0749
591.00,0.0746
590.00,0.0745
589.00,0.0743
588.00,0.0740
587.00,0.0737
586.00,0.0732
585.00,0.0727
584.00,0.0723
583.00,0.0720
582.00,0.0717
581.00,0.0715
580.00,0.0712
579.00,0.0709
578.00,0.0705
577.00,0.0701
576.00,0.0698
575.00,0.0694
574.00,0.0692
573.00,0.0690
572.00,0.0687
571.00,0.0683
570.00,0.0679
569.00,0.0675
568.00,0.0671
567.00,0.0666
566.00,0.0663
565.00,0.0660
564.00,0.0658
563.00,0.0657
562.00,0.0654
561.00,0.0651
560.00,0.0647
559.00,0.0643
558.00,0.0639
557.00,0.0635
556.00,0.0632
555.00,0.0630
554.00,0.0627
553.00,0.0624
552.00,0.0620
551.00,0.0617
550.00,0.0614
549.00,0.0612
548.00,0.0611
547.00,0.0609
546.00,0.0605
545.00,0.0602
544.00,0.0599
543.00,0.0597
542.00,0.0595
541.00,0.0593
540.00,0.0590
539.00,0.0587
538.00,0.0585
537.00,0.0583
536.00,0.0582
535.00,0.0582
534.00,0.0581
533.00,0.0578
532.00,0.0574
531.00,0.0570
530.00,0.0566
529.00,0.0563
528.00,0.0560
527.00,0.0556
526.00,0.0553
525.00,0.0550
524.00,0.0548
523.00,0.0547
522.00,0.0545
521.00,0.0542
520.00,0.0540
519.00,0.0538
518.00,0.0538
517.00,0.0538
516.00,0.0538
515.00,0.0538
514.00,0.0537
513.00,0.0538
512.00,0.0540
511.00,0.0543
510.00,0.0545
509.00,0.0545
508.00,0.0546
507.00,0.0547
506.00,0.0551
505.00,0.0557
504.00,0.0566
503.00,0.0576
502.00,0.0586
501.00,0.0595
500.00,0.0604
499.00,0.0614
498.00,0.0626
497.00,0.0643
496.00,0.0663
495.00,0.0685
494.00,0.0708
493.00,0.0733
492.00,0.0758
491.00,0.0781
490.00,0.0801
489.00,0.0819
488.00,0.0831
487.00,0.0835
486.00,0.0827
485.00,0.0808
484.00,0.0782
483.00,0.0752
482.00,0.0723
481.00,0.0698
480.00,0.0676
479.00,0.0657
478.00,0.0639
477.00,0.0622
476.00,0.0607
475.00,0.0593
474.00,0.0579
473.00,0.0565
472.00,0.0553
471.00,0.0543
470.00,0.0536
469.00,0.0531
468.00,0.0527
467.00,0.0523
466.00,0.0517
465.00,0.0513
464.00,0.0512
463.00,0.0513
462.00,0.0515
461.00,0.0514
460.00,0.0511
459.00,0.0507
458.00,0.0507
457.00,0.0510
456.00,0.0515
455.00,0.0519
454.00,0.0524
453.00,0.0528
452.00,0.0533
451.00,0.0538
450.00,0.0541
449.00,0.0545
448.00,0.0550
447.00,0.0554
446.00,0.0557
445.00,0.0558
444.00,0.0561
443.00,0.0568
442.00,0.0580
441.00,0.0593
440.00,0.0606
439.00,0.0617
438.00,0.0628
437.00,0.0639
436.00,0.0650
435.00,0.0663
434.00,0.0678
433.00,0.0695
432.00,0.0715
431.00,0.0736
430.00,0.0756
429.00,0.0775
428.00,0.0794
427.00,0.0813
426.00,0.0829
425.00,0.0838
424.00,0.0837
423.00,0.0827
422.00,0.0815
421.00,0.0804
420.00,0.0788
419.00,0.0758
418.00,0.0720
417.00,0.0690
416.00,0.0668
415.00,0.0646
414.00,0.0620
413.00,0.0594
412.00,0.0571
411.00,0.0554
410.00,0.0541
409.00,0.0530
408.00,0.0520
407.00,0.0510
406.00,0.0502
405.00,0.0495
404.00,0.0488
403.00,0.0482
402.00,0.0477
401.00,0.0473
400.00,0.0466
