Created as New Dataset,Sample 639 By YargerLab Date Saturday, June 07 2025
cm-1,A
4000.00,0.0036
3999.00,0.0036
3998.00,0.0036
3997.00,0.0036
3996.00,0.0036
3995.00,0.0036
3994.00,0.0036
3993.00,0.0035
3992.00,0.0035
3991.00,0.0035
3990.00,0.0035
3989.00,0.0036
3988.00,0.0036
3987.00,0.0035
3986.00,0.0035
3985.00,0.0035
3984.00,0.0035
3983.00,0.0035
3982.00,0.0035
3981.00,0.0035
3980.00,0.0034
3979.00,0.0034
3978.00,0.0034
3977.00,0.0034
3976.00,0.0034
3975.00,0.0035
3974.00,0.0035
3973.00,0.0035
3972.00,0.0035
3971.00,0.0035
3970.00,0.0035
3969.00,0.0035
3968.00,0.0034
3967.00,0.0034
3966.00,0.0034
3965.00,0.0034
3964.00,0.0034
3963.00,0.0034
3962.00,0.0034
3961.00,0.0034
3960.00,0.0034
3959.00,0.0034
3958.00,0.0034
3957.00,0.0034
3956.00,0.0034
3955.00,0.0034
3954.00,0.0034
3953.00,0.0034
3952.00,0.0034
3951.00,0.0034
3950.00,0.0034
3949.00,0.0034
3948.00,0.0034
3947.00,0.0034
3946.00,0.0034
3945.00,0.0034
3944.00,0.0034
3943.00,0.0034
3942.00,0.0034
3941.00,0.0034
3940.00,0.0034
3939.00,0.0034
3938.00,0.0034
3937.00,0.0034
3936.00,0.0034
3935.00,0.0033
3934.00,0.0033
3933.00,0.0032
3932.00,0.0033
3931.00,0.0033
3930.00,0.0034
3929.00,0.0034
3928.00,0.0034
3927.00,0.0034
3926.00,0.0034
3925.00,0.0035
3924.00,0.0035
3923.00,0.0034
3922.00,0.0033
3921.00,0.0032
3920.00,0.0032
3919.00,0.0032
3918.00,0.0032
3917.00,0.0032
3916.00,0.0032
3915.00,0.0033
3914.00,0.0033
3913.00,0.0033
3912.00,0.0034
3911.00,0.0034
3910.00,0.0034
3909.00,0.0034
3908.00,0.0034
3907.00,0.0034
3906.00,0.0033
3905.00,0.0032
3904.00,0.0030
3903.00,0.0029
3902.00,0.0027
3901.00,0.0027
3900.00,0.0028
3899.00,0.0029
3898.00,0.0030
3897.00,0.0030
3896.00,0.0031
3895.00,0.0031
3894.00,0.0032
3893.00,0.0033
3892.00,0.0033
3891.00,0.0033
3890.00,0.0033
3889.00,0.0032
3888.00,0.0031
3887.00,0.0029
3886.00,0.0029
3885.00,0.0030
3884.00,0.0030
3883.00,0.0030
3882.00,0.0029
3881.00,0.0029
3880.00,0.0030
3879.00,0.0030
3878.00,0.0030
3877.00,0.0030
3876.00,0.0029
3875.00,0.0030
3874.00,0.0031
3873.00,0.0031
3872.00,0.0030
3871.00,0.0029
3870.00,0.0028
3869.00,0.0028
3868.00,0.0028
3867.00,0.0028
3866.00,0.0027
3865.00,0.0028
3864.00,0.0029
3863.00,0.0029
3862.00,0.0029
3861.00,0.0029
3860.00,0.0029
3859.00,0.0030
3858.00,0.0032
3857.00,0.0034
3856.00,0.0035
3855.00,0.0034
3854.00,0.0033
3853.00,0.0031
3852.00,0.0029
3851.00,0.0028
3850.00,0.0028
3849.00,0.0028
3848.00,0.0028
3847.00,0.0029
3846.00,0.0029
3845.00,0.0029
3844.00,0.0029
3843.00,0.0029
3842.00,0.0029
3841.00,0.0029
3840.00,0.0028
3839.00,0.0028
3838.00,0.0028
3837.00,0.0028
3836.00,0.0029
3835.00,0.0029
3834.00,0.0029
3833.00,0.0029
3832.00,0.0029
3831.00,0.0029
3830.00,0.0030
3829.00,0.0030
3828.00,0.0030
3827.00,0.0030
3826.00,0.0030
3825.00,0.0031
3824.00,0.0030
3823.00,0.0029
3822.00,0.0028
3821.00,0.0029
3820.00,0.0030
3819.00,0.0030
3818.00,0.0029
3817.00,0.0028
3816.00,0.0029
3815.00,0.0030
3814.00,0.0031
3813.00,0.0032
3812.00,0.0032
3811.00,0.0033
3810.00,0.0034
3809.00,0.0033
3808.00,0.0033
3807.00,0.0032
3806.00,0.0031
3805.00,0.0030
3804.00,0.0029
3803.00,0.0028
3802.00,0.0028
3801.00,0.0029
3800.00,0.0030
3799.00,0.0029
3798.00,0.0029
3797.00,0.0029
3796.00,0.0030
3795.00,0.0032
3794.00,0.0032
3793.00,0.0033
3792.00,0.0033
3791.00,0.0034
3790.00,0.0035
3789.00,0.0035
3788.00,0.0035
3787.00,0.0034
3786.00,0.0034
3785.00,0.0033
3784.00,0.0033
3783.00,0.0033
3782.00,0.0032
3781.00,0.0031
3780.00,0.0031
3779.00,0.0032
3778.00,0.0032
3777.00,0.0032
3776.00,0.0032
3775.00,0.0033
3774.00,0.0033
3773.00,0.0033
3772.00,0.0032
3771.00,0.0031
3770.00,0.0031
3769.00,0.0030
3768.00,0.0030
3767.00,0.0030
3766.00,0.0030
3765.00,0.0030
3764.00,0.0030
3763.00,0.0030
3762.00,0.0029
3761.00,0.0029
3760.00,0.0029
3759.00,0.0029
3758.00,0.0029
3757.00,0.0029
3756.00,0.0028
3755.00,0.0028
3754.00,0.0027
3753.00,0.0026
3752.00,0.0025
3751.00,0.0024
3750.00,0.0023
3749.00,0.0022
3748.00,0.0022
3747.00,0.0022
3746.00,0.0021
3745.00,0.0021
3744.00,0.0022
3743.00,0.0023
3742.00,0.0023
3741.00,0.0022
3740.00,0.0021
3739.00,0.0021
3738.00,0.0020
3737.00,0.0019
3736.00,0.0020
3735.00,0.0021
3734.00,0.0022
3733.00,0.0022
3732.00,0.0023
3731.00,0.0024
3730.00,0.0026
3729.00,0.0026
3728.00,0.0026
3727.00,0.0026
3726.00,0.0027
3725.00,0.0027
3724.00,0.0027
3723.00,0.0027
3722.00,0.0028
3721.00,0.0028
3720.00,0.0028
3719.00,0.0029
3718.00,0.0029
3717.00,0.0029
3716.00,0.0030
3715.00,0.0029
3714.00,0.0028
3713.00,0.0027
3712.00,0.0027
3711.00,0.0027
3710.00,0.0026
3709.00,0.0026
3708.00,0.0027
3707.00,0.0027
3706.00,0.0028
3705.00,0.0029
3704.00,0.0029
3703.00,0.0030
3702.00,0.0030
3701.00,0.0031
3700.00,0.0031
3699.00,0.0030
3698.00,0.0030
3697.00,0.0030
3696.00,0.0030
3695.00,0.0030
3694.00,0.0030
3693.00,0.0029
3692.00,0.0029
3691.00,0.0029
3690.00,0.0029
3689.00,0.0028
3688.00,0.0027
3687.00,0.0027
3686.00,0.0028
3685.00,0.0029
3684.00,0.0029
3683.00,0.0029
3682.00,0.0030
3681.00,0.0030
3680.00,0.0031
3679.00,0.0031
3678.00,0.0030
3677.00,0.0028
3676.00,0.0028
3675.00,0.0028
3674.00,0.0029
3673.00,0.0028
3672.00,0.0027
3671.00,0.0027
3670.00,0.0028
3669.00,0.0030
3668.00,0.0031
3667.00,0.0031
3666.00,0.0031
3665.00,0.0032
3664.00,0.0033
3663.00,0.0034
3662.00,0.0035
3661.00,0.0035
3660.00,0.0036
3659.00,0.0036
3658.00,0.0036
3657.00,0.0035
3656.00,0.0034
3655.00,0.0033
3654.00,0.0032
3653.00,0.0030
3652.00,0.0029
3651.00,0.0028
3650.00,0.0027
3649.00,0.0027
3648.00,0.0027
3647.00,0.0027
3646.00,0.0028
3645.00,0.0030
3644.00,0.0031
3643.00,0.0032
3642.00,0.0033
3641.00,0.0033
3640.00,0.0033
3639.00,0.0033
3638.00,0.0033
3637.00,0.0033
3636.00,0.0032
3635.00,0.0031
3634.00,0.0031
3633.00,0.0030
3632.00,0.0030
3631.00,0.0028
3630.00,0.0028
3629.00,0.0028
3628.00,0.0028
3627.00,0.0027
3626.00,0.0027
3625.00,0.0027
3624.00,0.0028
3623.00,0.0029
3622.00,0.0030
3621.00,0.0030
3620.00,0.0030
3619.00,0.0029
3618.00,0.0028
3617.00,0.0027
3616.00,0.0025
3615.00,0.0025
3614.00,0.0025
3613.00,0.0025
3612.00,0.0026
3611.00,0.0025
3610.00,0.0025
3609.00,0.0025
3608.00,0.0026
3607.00,0.0028
3606.00,0.0028
3605.00,0.0029
3604.00,0.0029
3603.00,0.0030
3602.00,0.0030
3601.00,0.0031
3600.00,0.0031
3599.00,0.0030
3598.00,0.0030
3597.00,0.0030
3596.00,0.0030
3595.00,0.0030
3594.00,0.0030
3593.00,0.0030
3592.00,0.0030
3591.00,0.0029
3590.00,0.0029
3589.00,0.0029
3588.00,0.0030
3587.00,0.0030
3586.00,0.0030
3585.00,0.0030
3584.00,0.0031
3583.00,0.0031
3582.00,0.0032
3581.00,0.0033
3580.00,0.0033
3579.00,0.0034
3578.00,0.0034
3577.00,0.0034
3576.00,0.0035
3575.00,0.0035
3574.00,0.0035
3573.00,0.0035
3572.00,0.0034
3571.00,0.0033
3570.00,0.0032
3569.00,0.0030
3568.00,0.0030
3567.00,0.0030
3566.00,0.0031
3565.00,0.0031
3564.00,0.0032
3563.00,0.0032
3562.00,0.0033
3561.00,0.0034
3560.00,0.0035
3559.00,0.0036
3558.00,0.0037
3557.00,0.0037
3556.00,0.0037
3555.00,0.0037
3554.00,0.0037
3553.00,0.0037
3552.00,0.0037
3551.00,0.0037
3550.00,0.0036
3549.00,0.0036
3548.00,0.0035
3547.00,0.0035
3546.00,0.0036
3545.00,0.0037
3544.00,0.0037
3543.00,0.0038
3542.00,0.0039
3541.00,0.0039
3540.00,0.0040
3539.00,0.0040
3538.00,0.0040
3537.00,0.0040
3536.00,0.0041
3535.00,0.0041
3534.00,0.0041
3533.00,0.0041
3532.00,0.0041
3531.00,0.0041
3530.00,0.0041
3529.00,0.0041
3528.00,0.0041
3527.00,0.0041
3526.00,0.0041
3525.00,0.0041
3524.00,0.0041
3523.00,0.0042
3522.00,0.0043
3521.00,0.0044
3520.00,0.0044
3519.00,0.0045
3518.00,0.0045
3517.00,0.0045
3516.00,0.0046
3515.00,0.0046
3514.00,0.0046
3513.00,0.0047
3512.00,0.0047
3511.00,0.0047
3510.00,0.0048
3509.00,0.0048
3508.00,0.0049
3507.00,0.0049
3506.00,0.0049
3505.00,0.0049
3504.00,0.0049
3503.00,0.0050
3502.00,0.0050
3501.00,0.0051
3500.00,0.0051
3499.00,0.0052
3498.00,0.0053
3497.00,0.0054
3496.00,0.0054
3495.00,0.0055
3494.00,0.0055
3493.00,0.0055
3492.00,0.0055
3491.00,0.0056
3490.00,0.0056
3489.00,0.0057
3488.00,0.0057
3487.00,0.0057
3486.00,0.0058
3485.00,0.0058
3484.00,0.0058
3483.00,0.0059
3482.00,0.0059
3481.00,0.0060
3480.00,0.0060
3479.00,0.0060
3478.00,0.0060
3477.00,0.0061
3476.00,0.0061
3475.00,0.0061
3474.00,0.0061
3473.00,0.0062
3472.00,0.0062
3471.00,0.0062
3470.00,0.0063
3469.00,0.0063
3468.00,0.0063
3467.00,0.0063
3466.00,0.0064
3465.00,0.0064
3464.00,0.0064
3463.00,0.0064
3462.00,0.0064
3461.00,0.0064
3460.00,0.0064
3459.00,0.0064
3458.00,0.0065
3457.00,0.0065
3456.00,0.0065
3455.00,0.0065
3454.00,0.0065
3453.00,0.0065
3452.00,0.0065
3451.00,0.0065
3450.00,0.0065
3449.00,0.0065
3448.00,0.0065
3447.00,0.0065
3446.00,0.0066
3445.00,0.0066
3444.00,0.0066
3443.00,0.0066
3442.00,0.0066
3441.00,0.0066
3440.00,0.0066
3439.00,0.0066
3438.00,0.0066
3437.00,0.0066
3436.00,0.0066
3435.00,0.0066
3434.00,0.0066
3433.00,0.0066
3432.00,0.0066
3431.00,0.0067
3430.00,0.0067
3429.00,0.0067
3428.00,0.0067
3427.00,0.0067
3426.00,0.0067
3425.00,0.0067
3424.00,0.0067
3423.00,0.0067
3422.00,0.0068
3421.00,0.0068
3420.00,0.0069
3419.00,0.0069
3418.00,0.0069
3417.00,0.0068
3416.00,0.0068
3415.00,0.0068
3414.00,0.0068
3413.00,0.0069
3412.00,0.0069
3411.00,0.0069
3410.00,0.0070
3409.00,0.0070
3408.00,0.0070
3407.00,0.0070
3406.00,0.0071
3405.00,0.0071
3404.00,0.0072
3403.00,0.0072
3402.00,0.0072
3401.00,0.0072
3400.00,0.0072
3399.00,0.0072
3398.00,0.0072
3397.00,0.0072
3396.00,0.0072
3395.00,0.0073
3394.00,0.0073
3393.00,0.0073
3392.00,0.0073
3391.00,0.0074
3390.00,0.0074
3389.00,0.0075
3388.00,0.0075
3387.00,0.0076
3386.00,0.0076
3385.00,0.0076
3384.00,0.0077
3383.00,0.0077
3382.00,0.0077
3381.00,0.0078
3380.00,0.0078
3379.00,0.0079
3378.00,0.0079
3377.00,0.0080
3376.00,0.0080
3375.00,0.0080
3374.00,0.0081
3373.00,0.0081
3372.00,0.0082
3371.00,0.0082
3370.00,0.0082
3369.00,0.0083
3368.00,0.0083
3367.00,0.0083
3366.00,0.0084
3365.00,0.0084
3364.00,0.0085
3363.00,0.0085
3362.00,0.0085
3361.00,0.0085
3360.00,0.0086
3359.00,0.0086
3358.00,0.0086
3357.00,0.0086
3356.00,0.0087
3355.00,0.0087
3354.00,0.0087
3353.00,0.0087
3352.00,0.0088
3351.00,0.0088
3350.00,0.0088
3349.00,0.0089
3348.00,0.0089
3347.00,0.0089
3346.00,0.0089
3345.00,0.0089
3344.00,0.0089
3343.00,0.0088
3342.00,0.0088
3341.00,0.0088
3340.00,0.0088
3339.00,0.0088
3338.00,0.0088
3337.00,0.0088
3336.00,0.0088
3335.00,0.0087
3334.00,0.0087
3333.00,0.0087
3332.00,0.0087
3331.00,0.0087
3330.00,0.0086
3329.00,0.0086
3328.00,0.0085
3327.00,0.0085
3326.00,0.0085
3325.00,0.0084
3324.00,0.0084
3323.00,0.0084
3322.00,0.0083
3321.00,0.0083
3320.00,0.0083
3319.00,0.0083
3318.00,0.0082
3317.00,0.0082
3316.00,0.0082
3315.00,0.0081
3314.00,0.0081
3313.00,0.0081
3312.00,0.0081
3311.00,0.0080
3310.00,0.0080
3309.00,0.0080
3308.00,0.0079
3307.00,0.0079
3306.00,0.0079
3305.00,0.0079
3304.00,0.0079
3303.00,0.0079
3302.00,0.0079
3301.00,0.0079
3300.00,0.0078
3299.00,0.0078
3298.00,0.0078
3297.00,0.0078
3296.00,0.0077
3295.00,0.0077
3294.00,0.0077
3293.00,0.0077
3292.00,0.0076
3291.00,0.0076
3290.00,0.0076
3289.00,0.0076
3288.00,0.0077
3287.00,0.0076
3286.00,0.0076
3285.00,0.0076
3284.00,0.0075
3283.00,0.0075
3282.00,0.0075
3281.00,0.0074
3280.00,0.0074
3279.00,0.0074
3278.00,0.0074
3277.00,0.0074
3276.00,0.0074
3275.00,0.0073
3274.00,0.0073
3273.00,0.0073
3272.00,0.0073
3271.00,0.0073
3270.00,0.0073
3269.00,0.0073
3268.00,0.0073
3267.00,0.0073
3266.00,0.0072
3265.00,0.0072
3264.00,0.0072
3263.00,0.0072
3262.00,0.0071
3261.00,0.0071
3260.00,0.0071
3259.00,0.0071
3258.00,0.0070
3257.00,0.0070
3256.00,0.0070
3255.00,0.0070
3254.00,0.0070
3253.00,0.0070
3252.00,0.0070
3251.00,0.0069
3250.00,0.0069
3249.00,0.0069
3248.00,0.0069
3247.00,0.0068
3246.00,0.0068
3245.00,0.0068
3244.00,0.0068
3243.00,0.0068
3242.00,0.0068
3241.00,0.0067
3240.00,0.0067
3239.00,0.0067
3238.00,0.0067
3237.00,0.0067
3236.00,0.0067
3235.00,0.0066
3234.00,0.0066
3233.00,0.0066
3232.00,0.0066
3231.00,0.0066
3230.00,0.0066
3229.00,0.0066
3228.00,0.0066
3227.00,0.0066
3226.00,0.0066
3225.00,0.0066
3224.00,0.0065
3223.00,0.0065
3222.00,0.0065
3221.00,0.0065
3220.00,0.0065
3219.00,0.0065
3218.00,0.0064
3217.00,0.0064
3216.00,0.0064
3215.00,0.0064
3214.00,0.0064
3213.00,0.0064
3212.00,0.0064
3211.00,0.0064
3210.00,0.0064
3209.00,0.0064
3208.00,0.0064
3207.00,0.0064
3206.00,0.0063
3205.00,0.0063
3204.00,0.0063
3203.00,0.0063
3202.00,0.0063
3201.00,0.0063
3200.00,0.0063
3199.00,0.0063
3198.00,0.0063
3197.00,0.0062
3196.00,0.0062
3195.00,0.0061
3194.00,0.0061
3193.00,0.0061
3192.00,0.0060
3191.00,0.0060
3190.00,0.0060
3189.00,0.0059
3188.00,0.0059
3187.00,0.0059
3186.00,0.0059
3185.00,0.0058
3184.00,0.0058
3183.00,0.0058
3182.00,0.0058
3181.00,0.0057
3180.00,0.0057
3179.00,0.0057
3178.00,0.0057
3177.00,0.0057
3176.00,0.0056
3175.00,0.0056
3174.00,0.0056
3173.00,0.0056
3172.00,0.0056
3171.00,0.0056
3170.00,0.0056
3169.00,0.0056
3168.00,0.0057
3167.00,0.0057
3166.00,0.0057
3165.00,0.0057
3164.00,0.0057
3163.00,0.0057
3162.00,0.0056
3161.00,0.0056
3160.00,0.0056
3159.00,0.0056
3158.00,0.0055
3157.00,0.0055
3156.00,0.0054
3155.00,0.0054
3154.00,0.0053
3153.00,0.0053
3152.00,0.0053
3151.00,0.0053
3150.00,0.0053
3149.00,0.0053
3148.00,0.0053
3147.00,0.0053
3146.00,0.0053
3145.00,0.0052
3144.00,0.0052
3143.00,0.0052
3142.00,0.0052
3141.00,0.0051
3140.00,0.0051
3139.00,0.0051
3138.00,0.0051
3137.00,0.0051
3136.00,0.0051
3135.00,0.0051
3134.00,0.0052
3133.00,0.0052
3132.00,0.0052
3131.00,0.0051
3130.00,0.0052
3129.00,0.0052
3128.00,0.0052
3127.00,0.0052
3126.00,0.0052
3125.00,0.0052
3124.00,0.0052
3123.00,0.0052
3122.00,0.0052
3121.00,0.0053
3120.00,0.0053
3119.00,0.0053
3118.00,0.0054
3117.00,0.0054
3116.00,0.0055
3115.00,0.0057
3114.00,0.0058
3113.00,0.0060
3112.00,0.0062
3111.00,0.0064
3110.00,0.0067
3109.00,0.0069
3108.00,0.0072
3107.00,0.0074
3106.00,0.0077
3105.00,0.0078
3104.00,0.0079
3103.00,0.0079
3102.00,0.0079
3101.00,0.0079
3100.00,0.0078
3099.00,0.0077
3098.00,0.0077
3097.00,0.0076
3096.00,0.0077
3095.00,0.0078
3094.00,0.0080
3093.00,0.0082
3092.00,0.0086
3091.00,0.0091
3090.00,0.0096
3089.00,0.0104
3088.00,0.0112
3087.00,0.0120
3086.00,0.0129
3085.00,0.0137
3084.00,0.0143
3083.00,0.0147
3082.00,0.0147
3081.00,0.0145
3080.00,0.0141
3079.00,0.0135
3078.00,0.0129
3077.00,0.0124
3076.00,0.0120
3075.00,0.0117
3074.00,0.0116
3073.00,0.0115
3072.00,0.0117
3071.00,0.0119
3070.00,0.0122
3069.00,0.0127
3068.00,0.0133
3067.00,0.0141
3066.00,0.0149
3065.00,0.0158
3064.00,0.0168
3063.00,0.0176
3062.00,0.0184
3061.00,0.0189
3060.00,0.0191
3059.00,0.0190
3058.00,0.0186
3057.00,0.0179
3056.00,0.0171
3055.00,0.0161
3054.00,0.0152
3053.00,0.0144
3052.00,0.0136
3051.00,0.0129
3050.00,0.0124
3049.00,0.0119
3048.00,0.0115
3047.00,0.0113
3046.00,0.0111
3045.00,0.0110
3044.00,0.0111
3043.00,0.0113
3042.00,0.0116
3041.00,0.0120
3040.00,0.0125
3039.00,0.0132
3038.00,0.0139
3037.00,0.0149
3036.00,0.0160
3035.00,0.0173
3034.00,0.0189
3033.00,0.0207
3032.00,0.0228
3031.00,0.0250
3030.00,0.0274
3029.00,0.0296
3028.00,0.0316
3027.00,0.0331
3026.00,0.0340
3025.00,0.0341
3024.00,0.0334
3023.00,0.0319
3022.00,0.0297
3021.00,0.0272
3020.00,0.0246
3019.00,0.0220
3018.00,0.0197
3017.00,0.0177
3016.00,0.0160
3015.00,0.0147
3014.00,0.0136
3013.00,0.0128
3012.00,0.0122
3011.00,0.0119
3010.00,0.0117
3009.00,0.0117
3008.00,0.0118
3007.00,0.0120
3006.00,0.0124
3005.00,0.0128
3004.00,0.0132
3003.00,0.0135
3002.00,0.0138
3001.00,0.0138
3000.00,0.0138
2999.00,0.0135
2998.00,0.0131
2997.00,0.0126
2996.00,0.0121
2995.00,0.0117
2994.00,0.0113
2993.00,0.0111
2992.00,0.0109
2991.00,0.0108
2990.00,0.0108
2989.00,0.0108
2988.00,0.0109
2987.00,0.0110
2986.00,0.0112
2985.00,0.0114
2984.00,0.0118
2983.00,0.0121
2982.00,0.0124
2981.00,0.0125
2980.00,0.0126
2979.00,0.0126
2978.00,0.0126
2977.00,0.0126
2976.00,0.0127
2975.00,0.0128
2974.00,0.0129
2973.00,0.0131
2972.00,0.0134
2971.00,0.0136
2970.00,0.0138
2969.00,0.0139
2968.00,0.0141
2967.00,0.0143
2966.00,0.0145
2965.00,0.0148
2964.00,0.0151
2963.00,0.0154
2962.00,0.0157
2961.00,0.0160
2960.00,0.0163
2959.00,0.0167
2958.00,0.0170
2957.00,0.0174
2956.00,0.0177
2955.00,0.0181
2954.00,0.0184
2953.00,0.0188
2952.00,0.0193
2951.00,0.0197
2950.00,0.0203
2949.00,0.0208
2948.00,0.0215
2947.00,0.0222
2946.00,0.0230
2945.00,0.0239
2944.00,0.0249
2943.00,0.0260
2942.00,0.0272
2941.00,0.0285
2940.00,0.0299
2939.00,0.0314
2938.00,0.0329
2937.00,0.0346
2936.00,0.0363
2935.00,0.0381
2934.00,0.0399
2933.00,0.0417
2932.00,0.0435
2931.00,0.0452
2930.00,0.0468
2929.00,0.0483
2928.00,0.0496
2927.00,0.0507
2926.00,0.0517
2925.00,0.0523
2924.00,0.0527
2923.00,0.0529
2922.00,0.0527
2921.00,0.0524
2920.00,0.0518
2919.00,0.0511
2918.00,0.0502
2917.00,0.0492
2916.00,0.0481
2915.00,0.0470
2914.00,0.0458
2913.00,0.0446
2912.00,0.0434
2911.00,0.0422
2910.00,0.0409
2909.00,0.0398
2908.00,0.0386
2907.00,0.0374
2906.00,0.0363
2905.00,0.0352
2904.00,0.0340
2903.00,0.0329
2902.00,0.0318
2901.00,0.0307
2900.00,0.0296
2899.00,0.0286
2898.00,0.0276
2897.00,0.0266
2896.00,0.0258
2895.00,0.0250
2894.00,0.0243
2893.00,0.0236
2892.00,0.0230
2891.00,0.0225
2890.00,0.0220
2889.00,0.0215
2888.00,0.0210
2887.00,0.0206
2886.00,0.0201
2885.00,0.0197
2884.00,0.0193
2883.00,0.0190
2882.00,0.0186
2881.00,0.0183
2880.00,0.0179
2879.00,0.0176
2878.00,0.0173
2877.00,0.0171
2876.00,0.0169
2875.00,0.0168
2874.00,0.0167
2873.00,0.0166
2872.00,0.0165
2871.00,0.0165
2870.00,0.0164
2869.00,0.0165
2868.00,0.0165
2867.00,0.0167
2866.00,0.0170
2865.00,0.0174
2864.00,0.0179
2863.00,0.0185
2862.00,0.0191
2861.00,0.0199
2860.00,0.0207
2859.00,0.0216
2858.00,0.0225
2857.00,0.0234
2856.00,0.0243
2855.00,0.0250
2854.00,0.0255
2853.00,0.0259
2852.00,0.0261
2851.00,0.0260
2850.00,0.0257
2849.00,0.0252
2848.00,0.0246
2847.00,0.0238
2846.00,0.0229
2845.00,0.0219
2844.00,0.0207
2843.00,0.0195
2842.00,0.0182
2841.00,0.0170
2840.00,0.0158
2839.00,0.0146
2838.00,0.0136
2837.00,0.0126
2836.00,0.0118
2835.00,0.0111
2834.00,0.0105
2833.00,0.0100
2832.00,0.0095
2831.00,0.0092
2830.00,0.0089
2829.00,0.0086
2828.00,0.0084
2827.00,0.0083
2826.00,0.0081
2825.00,0.0080
2824.00,0.0078
2823.00,0.0077
2822.00,0.0076
2821.00,0.0075
2820.00,0.0074
2819.00,0.0074
2818.00,0.0073
2817.00,0.0073
2816.00,0.0072
2815.00,0.0071
2814.00,0.0071
2813.00,0.0070
2812.00,0.0069
2811.00,0.0069
2810.00,0.0068
2809.00,0.0068
2808.00,0.0068
2807.00,0.0067
2806.00,0.0067
2805.00,0.0066
2804.00,0.0066
2803.00,0.0065
2802.00,0.0065
2801.00,0.0065
2800.00,0.0064
2799.00,0.0063
2798.00,0.0063
2797.00,0.0062
2796.00,0.0062
2795.00,0.0061
2794.00,0.0061
2793.00,0.0060
2792.00,0.0060
2791.00,0.0060
2790.00,0.0060
2789.00,0.0059
2788.00,0.0059
2787.00,0.0059
2786.00,0.0059
2785.00,0.0059
2784.00,0.0059
2783.00,0.0058
2782.00,0.0058
2781.00,0.0058
2780.00,0.0058
2779.00,0.0058
2778.00,0.0057
2777.00,0.0057
2776.00,0.0057
2775.00,0.0056
2774.00,0.0056
2773.00,0.0056
2772.00,0.0055
2771.00,0.0055
2770.00,0.0055
2769.00,0.0055
2768.00,0.0055
2767.00,0.0055
2766.00,0.0055
2765.00,0.0054
2764.00,0.0054
2763.00,0.0054
2762.00,0.0054
2761.00,0.0054
2760.00,0.0054
2759.00,0.0054
2758.00,0.0053
2757.00,0.0053
2756.00,0.0053
2755.00,0.0053
2754.00,0.0053
2753.00,0.0053
2752.00,0.0053
2751.00,0.0052
2750.00,0.0052
2749.00,0.0052
2748.00,0.0052
2747.00,0.0052
2746.00,0.0052
2745.00,0.0052
2744.00,0.0052
2743.00,0.0052
2742.00,0.0052
2741.00,0.0052
2740.00,0.0052
2739.00,0.0052
2738.00,0.0052
2737.00,0.0052
2736.00,0.0052
2735.00,0.0052
2734.00,0.0052
2733.00,0.0052
2732.00,0.0052
2731.00,0.0052
2730.00,0.0052
2729.00,0.0052
2728.00,0.0052
2727.00,0.0052
2726.00,0.0052
2725.00,0.0052
2724.00,0.0052
2723.00,0.0052
2722.00,0.0052
2721.00,0.0052
2720.00,0.0052
2719.00,0.0052
2718.00,0.0052
2717.00,0.0052
2716.00,0.0052
2715.00,0.0052
2714.00,0.0052
2713.00,0.0051
2712.00,0.0051
2711.00,0.0051
2710.00,0.0051
2709.00,0.0051
2708.00,0.0051
2707.00,0.0051
2706.00,0.0051
2705.00,0.0051
2704.00,0.0051
2703.00,0.0051
2702.00,0.0051
2701.00,0.0051
2700.00,0.0051
2699.00,0.0051
2698.00,0.0051
2697.00,0.0051
2696.00,0.0051
2695.00,0.0051
2694.00,0.0051
2693.00,0.0051
2692.00,0.0051
2691.00,0.0051
2690.00,0.0051
2689.00,0.0051
2688.00,0.0051
2687.00,0.0050
2686.00,0.0050
2685.00,0.0050
2684.00,0.0050
2683.00,0.0050
2682.00,0.0050
2681.00,0.0050
2680.00,0.0050
2679.00,0.0050
2678.00,0.0050
2677.00,0.0051
2676.00,0.0051
2675.00,0.0051
2674.00,0.0051
2673.00,0.0051
2672.00,0.0050
2671.00,0.0051
2670.00,0.0051
2669.00,0.0051
2668.00,0.0051
2667.00,0.0051
2666.00,0.0051
2665.00,0.0052
2664.00,0.0052
2663.00,0.0053
2662.00,0.0053
2661.00,0.0053
2660.00,0.0054
2659.00,0.0054
2658.00,0.0054
2657.00,0.0055
2656.00,0.0055
2655.00,0.0055
2654.00,0.0055
2653.00,0.0055
2652.00,0.0055
2651.00,0.0055
2650.00,0.0055
2649.00,0.0055
2648.00,0.0055
2647.00,0.0055
2646.00,0.0055
2645.00,0.0055
2644.00,0.0055
2643.00,0.0055
2642.00,0.0055
2641.00,0.0055
2640.00,0.0055
2639.00,0.0055
2638.00,0.0055
2637.00,0.0055
2636.00,0.0055
2635.00,0.0055
2634.00,0.0056
2633.00,0.0056
2632.00,0.0055
2631.00,0.0055
2630.00,0.0055
2629.00,0.0054
2628.00,0.0054
2627.00,0.0054
2626.00,0.0053
2625.00,0.0053
2624.00,0.0053
2623.00,0.0052
2622.00,0.0052
2621.00,0.0051
2620.00,0.0051
2619.00,0.0051
2618.00,0.0051
2617.00,0.0051
2616.00,0.0051
2615.00,0.0051
2614.00,0.0051
2613.00,0.0051
2612.00,0.0051
2611.00,0.0051
2610.00,0.0051
2609.00,0.0051
2608.00,0.0051
2607.00,0.0051
2606.00,0.0051
2605.00,0.0051
2604.00,0.0050
2603.00,0.0050
2602.00,0.0051
2601.00,0.0051
2600.00,0.0050
2599.00,0.0050
2598.00,0.0049
2597.00,0.0049
2596.00,0.0048
2595.00,0.0048
2594.00,0.0048
2593.00,0.0048
2592.00,0.0047
2591.00,0.0047
2590.00,0.0047
2589.00,0.0047
2588.00,0.0047
2587.00,0.0047
2586.00,0.0047
2585.00,0.0047
2584.00,0.0047
2583.00,0.0047
2582.00,0.0047
2581.00,0.0047
2580.00,0.0047
2579.00,0.0047
2578.00,0.0046
2577.00,0.0046
2576.00,0.0046
2575.00,0.0046
2574.00,0.0045
2573.00,0.0045
2572.00,0.0045
2571.00,0.0046
2570.00,0.0046
2569.00,0.0045
2568.00,0.0045
2567.00,0.0044
2566.00,0.0044
2565.00,0.0044
2564.00,0.0044
2563.00,0.0044
2562.00,0.0044
2561.00,0.0044
2560.00,0.0044
2559.00,0.0044
2558.00,0.0044
2557.00,0.0044
2556.00,0.0044
2555.00,0.0043
2554.00,0.0043
2553.00,0.0043
2552.00,0.0043
2551.00,0.0043
2550.00,0.0043
2549.00,0.0043
2548.00,0.0043
2547.00,0.0043
2546.00,0.0043
2545.00,0.0043
2544.00,0.0042
2543.00,0.0042
2542.00,0.0042
2541.00,0.0042
2540.00,0.0042
2539.00,0.0042
2538.00,0.0042
2537.00,0.0042
2536.00,0.0042
2535.00,0.0042
2534.00,0.0042
2533.00,0.0042
2532.00,0.0041
2531.00,0.0041
2530.00,0.0041
2529.00,0.0041
2528.00,0.0041
2527.00,0.0041
2526.00,0.0041
2525.00,0.0042
2524.00,0.0042
2523.00,0.0042
2522.00,0.0042
2521.00,0.0042
2520.00,0.0042
2519.00,0.0042
2518.00,0.0041
2517.00,0.0041
2516.00,0.0041
2515.00,0.0041
2514.00,0.0041
2513.00,0.0041
2512.00,0.0041
2511.00,0.0041
2510.00,0.0041
2509.00,0.0042
2508.00,0.0042
2507.00,0.0041
2506.00,0.0041
2505.00,0.0041
2504.00,0.0041
2503.00,0.0041
2502.00,0.0041
2501.00,0.0041
2500.00,0.0041
2499.00,0.0041
2498.00,0.0041
2497.00,0.0041
2496.00,0.0041
2495.00,0.0041
2494.00,0.0041
2493.00,0.0040
2492.00,0.0040
2491.00,0.0039
2490.00,0.0039
2489.00,0.0039
2488.00,0.0039
2487.00,0.0040
2486.00,0.0040
2485.00,0.0039
2484.00,0.0039
2483.00,0.0039
2482.00,0.0039
2481.00,0.0039
2480.00,0.0039
2479.00,0.0039
2478.00,0.0039
2477.00,0.0039
2476.00,0.0038
2475.00,0.0038
2474.00,0.0037
2473.00,0.0037
2472.00,0.0037
2471.00,0.0037
2470.00,0.0037
2469.00,0.0037
2468.00,0.0037
2467.00,0.0038
2466.00,0.0038
2465.00,0.0038
2464.00,0.0038
2463.00,0.0039
2462.00,0.0039
2461.00,0.0039
2460.00,0.0039
2459.00,0.0039
2458.00,0.0039
2457.00,0.0039
2456.00,0.0039
2455.00,0.0039
2454.00,0.0039
2453.00,0.0039
2452.00,0.0039
2451.00,0.0039
2450.00,0.0038
2449.00,0.0038
2448.00,0.0037
2447.00,0.0037
2446.00,0.0037
2445.00,0.0038
2444.00,0.0038
2443.00,0.0038
2442.00,0.0037
2441.00,0.0037
2440.00,0.0037
2439.00,0.0037
2438.00,0.0036
2437.00,0.0036
2436.00,0.0036
2435.00,0.0036
2434.00,0.0036
2433.00,0.0036
2432.00,0.0036
2431.00,0.0036
2430.00,0.0036
2429.00,0.0035
2428.00,0.0035
2427.00,0.0035
2426.00,0.0035
2425.00,0.0035
2424.00,0.0034
2423.00,0.0034
2422.00,0.0034
2421.00,0.0034
2420.00,0.0034
2419.00,0.0034
2418.00,0.0035
2417.00,0.0035
2416.00,0.0034
2415.00,0.0034
2414.00,0.0034
2413.00,0.0034
2412.00,0.0034
2411.00,0.0034
2410.00,0.0034
2409.00,0.0033
2408.00,0.0033
2407.00,0.0032
2406.00,0.0032
2405.00,0.0032
2404.00,0.0033
2403.00,0.0033
2402.00,0.0033
2401.00,0.0033
2400.00,0.0033
2399.00,0.0033
2398.00,0.0033
2397.00,0.0033
2396.00,0.0033
2395.00,0.0033
2394.00,0.0033
2393.00,0.0033
2392.00,0.0033
2391.00,0.0033
2390.00,0.0032
2389.00,0.0032
2388.00,0.0033
2387.00,0.0033
2386.00,0.0032
2385.00,0.0032
2384.00,0.0032
2383.00,0.0032
2382.00,0.0032
2381.00,0.0032
2380.00,0.0032
2379.00,0.0033
2378.00,0.0033
2377.00,0.0033
2376.00,0.0033
2375.00,0.0033
2374.00,0.0033
2373.00,0.0033
2372.00,0.0032
2371.00,0.0032
2370.00,0.0031
2369.00,0.0031
2368.00,0.0031
2367.00,0.0031
2366.00,0.0032
2365.00,0.0032
2364.00,0.0033
2363.00,0.0034
2362.00,0.0035
2361.00,0.0035
2360.00,0.0035
2359.00,0.0036
2358.00,0.0036
2357.00,0.0036
2356.00,0.0036
2355.00,0.0036
2354.00,0.0036
2353.00,0.0036
2352.00,0.0036
2351.00,0.0036
2350.00,0.0037
2349.00,0.0038
2348.00,0.0038
2347.00,0.0039
2346.00,0.0039
2345.00,0.0039
2344.00,0.0039
2343.00,0.0040
2342.00,0.0041
2341.00,0.0041
2340.00,0.0042
2339.00,0.0042
2338.00,0.0042
2337.00,0.0042
2336.00,0.0042
2335.00,0.0042
2334.00,0.0042
2333.00,0.0042
2332.00,0.0041
2331.00,0.0041
2330.00,0.0041
2329.00,0.0043
2328.00,0.0046
2327.00,0.0050
2326.00,0.0053
2325.00,0.0054
2324.00,0.0053
2323.00,0.0051
2322.00,0.0049
2321.00,0.0047
2320.00,0.0046
2319.00,0.0045
2318.00,0.0045
2317.00,0.0045
2316.00,0.0045
2315.00,0.0045
2314.00,0.0045
2313.00,0.0044
2312.00,0.0043
2311.00,0.0043
2310.00,0.0042
2309.00,0.0042
2308.00,0.0042
2307.00,0.0041
2306.00,0.0041
2305.00,0.0040
2304.00,0.0040
2303.00,0.0040
2302.00,0.0040
2301.00,0.0040
2300.00,0.0040
2299.00,0.0040
2298.00,0.0041
2297.00,0.0041
2296.00,0.0042
2295.00,0.0043
2294.00,0.0044
2293.00,0.0044
2292.00,0.0045
2291.00,0.0046
2290.00,0.0046
2289.00,0.0046
2288.00,0.0046
2287.00,0.0046
2286.00,0.0046
2285.00,0.0045
2284.00,0.0044
2283.00,0.0044
2282.00,0.0043
2281.00,0.0042
2280.00,0.0042
2279.00,0.0042
2278.00,0.0042
2277.00,0.0041
2276.00,0.0041
2275.00,0.0040
2274.00,0.0040
2273.00,0.0040
2272.00,0.0039
2271.00,0.0039
2270.00,0.0039
2269.00,0.0039
2268.00,0.0038
2267.00,0.0037
2266.00,0.0037
2265.00,0.0037
2264.00,0.0037
2263.00,0.0037
2262.00,0.0038
2261.00,0.0038
2260.00,0.0038
2259.00,0.0038
2258.00,0.0038
2257.00,0.0037
2256.00,0.0036
2255.00,0.0035
2254.00,0.0034
2253.00,0.0034
2252.00,0.0034
2251.00,0.0034
2250.00,0.0034
2249.00,0.0035
2248.00,0.0035
2247.00,0.0035
2246.00,0.0035
2245.00,0.0035
2244.00,0.0035
2243.00,0.0035
2242.00,0.0036
2241.00,0.0036
2240.00,0.0036
2239.00,0.0035
2238.00,0.0034
2237.00,0.0034
2236.00,0.0033
2235.00,0.0033
2234.00,0.0033
2233.00,0.0033
2232.00,0.0033
2231.00,0.0033
2230.00,0.0034
2229.00,0.0035
2228.00,0.0036
2227.00,0.0035
2226.00,0.0035
2225.00,0.0035
2224.00,0.0034
2223.00,0.0034
2222.00,0.0033
2221.00,0.0032
2220.00,0.0031
2219.00,0.0031
2218.00,0.0031
2217.00,0.0031
2216.00,0.0032
2215.00,0.0032
2214.00,0.0033
2213.00,0.0033
2212.00,0.0034
2211.00,0.0034
2210.00,0.0033
2209.00,0.0032
2208.00,0.0032
2207.00,0.0031
2206.00,0.0031
2205.00,0.0032
2204.00,0.0031
2203.00,0.0031
2202.00,0.0030
2201.00,0.0030
2200.00,0.0031
2199.00,0.0031
2198.00,0.0031
2197.00,0.0031
2196.00,0.0031
2195.00,0.0032
2194.00,0.0032
2193.00,0.0033
2192.00,0.0033
2191.00,0.0033
2190.00,0.0033
2189.00,0.0035
2188.00,0.0036
2187.00,0.0037
2186.00,0.0037
2185.00,0.0036
2184.00,0.0034
2183.00,0.0032
2182.00,0.0031
2181.00,0.0029
2180.00,0.0029
2179.00,0.0028
2178.00,0.0027
2177.00,0.0025
2176.00,0.0024
2175.00,0.0025
2174.00,0.0026
2173.00,0.0029
2172.00,0.0032
2171.00,0.0034
2170.00,0.0036
2169.00,0.0038
2168.00,0.0040
2167.00,0.0041
2166.00,0.0042
2165.00,0.0044
2164.00,0.0046
2163.00,0.0046
2162.00,0.0041
2161.00,0.0030
2160.00,0.0016
2159.00,0.0004
2158.00,-0.0002
2157.00,-0.0003
2156.00,-0.0000
2155.00,0.0003
2154.00,0.0005
2153.00,0.0006
2152.00,0.0008
2151.00,0.0009
2150.00,0.0010
2149.00,0.0010
2148.00,0.0010
2147.00,0.0010
2146.00,0.0010
2145.00,0.0010
2144.00,0.0010
2143.00,0.0009
2142.00,0.0009
2141.00,0.0009
2140.00,0.0009
2139.00,0.0009
2138.00,0.0008
2137.00,0.0007
2136.00,0.0005
2135.00,0.0003
2134.00,0.0003
2133.00,0.0005
2132.00,0.0007
2131.00,0.0009
2130.00,0.0011
2129.00,0.0013
2128.00,0.0014
2127.00,0.0015
2126.00,0.0016
2125.00,0.0017
2124.00,0.0018
2123.00,0.0019
2122.00,0.0020
2121.00,0.0021
2120.00,0.0022
2119.00,0.0023
2118.00,0.0024
2117.00,0.0025
2116.00,0.0026
2115.00,0.0026
2114.00,0.0026
2113.00,0.0027
2112.00,0.0027
2111.00,0.0028
2110.00,0.0028
2109.00,0.0028
2108.00,0.0028
2107.00,0.0027
2106.00,0.0027
2105.00,0.0027
2104.00,0.0028
2103.00,0.0029
2102.00,0.0029
2101.00,0.0029
2100.00,0.0029
2099.00,0.0027
2098.00,0.0025
2097.00,0.0023
2096.00,0.0022
2095.00,0.0022
2094.00,0.0022
2093.00,0.0023
2092.00,0.0024
2091.00,0.0024
2090.00,0.0025
2089.00,0.0026
2088.00,0.0027
2087.00,0.0029
2086.00,0.0030
2085.00,0.0030
2084.00,0.0030
2083.00,0.0030
2082.00,0.0029
2081.00,0.0029
2080.00,0.0029
2079.00,0.0029
2078.00,0.0030
2077.00,0.0030
2076.00,0.0029
2075.00,0.0028
2074.00,0.0027
2073.00,0.0027
2072.00,0.0027
2071.00,0.0027
2070.00,0.0027
2069.00,0.0028
2068.00,0.0027
2067.00,0.0027
2066.00,0.0026
2065.00,0.0025
2064.00,0.0026
2063.00,0.0026
2062.00,0.0026
2061.00,0.0026
2060.00,0.0026
2059.00,0.0025
2058.00,0.0025
2057.00,0.0024
2056.00,0.0023
2055.00,0.0023
2054.00,0.0025
2053.00,0.0029
2052.00,0.0033
2051.00,0.0034
2050.00,0.0032
2049.00,0.0029
2048.00,0.0027
2047.00,0.0026
2046.00,0.0025
2045.00,0.0024
2044.00,0.0024
2043.00,0.0023
2042.00,0.0023
2041.00,0.0023
2040.00,0.0024
2039.00,0.0025
2038.00,0.0025
2037.00,0.0025
2036.00,0.0025
2035.00,0.0023
2034.00,0.0021
2033.00,0.0019
2032.00,0.0017
2031.00,0.0017
2030.00,0.0017
2029.00,0.0017
2028.00,0.0017
2027.00,0.0017
2026.00,0.0017
2025.00,0.0016
2024.00,0.0016
2023.00,0.0016
2022.00,0.0017
2021.00,0.0017
2020.00,0.0016
2019.00,0.0015
2018.00,0.0014
2017.00,0.0013
2016.00,0.0015
2015.00,0.0016
2014.00,0.0017
2013.00,0.0019
2012.00,0.0020
2011.00,0.0021
2010.00,0.0020
2009.00,0.0018
2008.00,0.0014
2007.00,0.0011
2006.00,0.0009
2005.00,0.0010
2004.00,0.0012
2003.00,0.0014
2002.00,0.0016
2001.00,0.0018
2000.00,0.0019
1999.00,0.0020
1998.00,0.0020
1997.00,0.0021
1996.00,0.0022
1995.00,0.0023
1994.00,0.0025
1993.00,0.0027
1992.00,0.0028
1991.00,0.0028
1990.00,0.0028
1989.00,0.0027
1988.00,0.0028
1987.00,0.0029
1986.00,0.0031
1985.00,0.0033
1984.00,0.0036
1983.00,0.0039
1982.00,0.0042
1981.00,0.0042
1980.00,0.0038
1979.00,0.0031
1978.00,0.0024
1977.00,0.0020
1976.00,0.0019
1975.00,0.0019
1974.00,0.0019
1973.00,0.0020
1972.00,0.0022
1971.00,0.0025
1970.00,0.0027
1969.00,0.0028
1968.00,0.0029
1967.00,0.0030
1966.00,0.0031
1965.00,0.0032
1964.00,0.0034
1963.00,0.0035
1962.00,0.0035
1961.00,0.0034
1960.00,0.0034
1959.00,0.0035
1958.00,0.0037
1957.00,0.0039
1956.00,0.0041
1955.00,0.0042
1954.00,0.0043
1953.00,0.0044
1952.00,0.0046
1951.00,0.0048
1950.00,0.0050
1949.00,0.0051
1948.00,0.0053
1947.00,0.0055
1946.00,0.0057
1945.00,0.0059
1944.00,0.0061
1943.00,0.0061
1942.00,0.0060
1941.00,0.0059
1940.00,0.0058
1939.00,0.0056
1938.00,0.0054
1937.00,0.0052
1936.00,0.0049
1935.00,0.0046
1934.00,0.0044
1933.00,0.0041
1932.00,0.0040
1931.00,0.0038
1930.00,0.0036
1929.00,0.0034
1928.00,0.0033
1927.00,0.0032
1926.00,0.0031
1925.00,0.0030
1924.00,0.0030
1923.00,0.0030
1922.00,0.0030
1921.00,0.0029
1920.00,0.0028
1919.00,0.0028
1918.00,0.0027
1917.00,0.0027
1916.00,0.0027
1915.00,0.0027
1914.00,0.0026
1913.00,0.0026
1912.00,0.0026
1911.00,0.0026
1910.00,0.0026
1909.00,0.0026
1908.00,0.0027
1907.00,0.0027
1906.00,0.0027
1905.00,0.0028
1904.00,0.0029
1903.00,0.0030
1902.00,0.0030
1901.00,0.0031
1900.00,0.0031
1899.00,0.0032
1898.00,0.0032
1897.00,0.0033
1896.00,0.0035
1895.00,0.0036
1894.00,0.0036
1893.00,0.0038
1892.00,0.0040
1891.00,0.0042
1890.00,0.0044
1889.00,0.0045
1888.00,0.0047
1887.00,0.0047
1886.00,0.0048
1885.00,0.0049
1884.00,0.0050
1883.00,0.0051
1882.00,0.0051
1881.00,0.0052
1880.00,0.0053
1879.00,0.0054
1878.00,0.0055
1877.00,0.0055
1876.00,0.0056
1875.00,0.0057
1874.00,0.0057
1873.00,0.0057
1872.00,0.0058
1871.00,0.0058
1870.00,0.0059
1869.00,0.0059
1868.00,0.0059
1867.00,0.0058
1866.00,0.0056
1865.00,0.0054
1864.00,0.0053
1863.00,0.0051
1862.00,0.0049
1861.00,0.0047
1860.00,0.0046
1859.00,0.0044
1858.00,0.0042
1857.00,0.0041
1856.00,0.0039
1855.00,0.0038
1854.00,0.0037
1853.00,0.0036
1852.00,0.0035
1851.00,0.0034
1850.00,0.0033
1849.00,0.0031
1848.00,0.0030
1847.00,0.0030
1846.00,0.0029
1845.00,0.0029
1844.00,0.0029
1843.00,0.0029
1842.00,0.0029
1841.00,0.0029
1840.00,0.0029
1839.00,0.0029
1838.00,0.0030
1837.00,0.0030
1836.00,0.0031
1835.00,0.0031
1834.00,0.0031
1833.00,0.0032
1832.00,0.0034
1831.00,0.0036
1830.00,0.0037
1829.00,0.0037
1828.00,0.0037
1827.00,0.0038
1826.00,0.0038
1825.00,0.0039
1824.00,0.0041
1823.00,0.0042
1822.00,0.0043
1821.00,0.0044
1820.00,0.0044
1819.00,0.0045
1818.00,0.0045
1817.00,0.0046
1816.00,0.0049
1815.00,0.0051
1814.00,0.0053
1813.00,0.0054
1812.00,0.0056
1811.00,0.0058
1810.00,0.0060
1809.00,0.0061
1808.00,0.0063
1807.00,0.0064
1806.00,0.0065
1805.00,0.0066
1804.00,0.0067
1803.00,0.0067
1802.00,0.0067
1801.00,0.0067
1800.00,0.0067
1799.00,0.0066
1798.00,0.0064
1797.00,0.0062
1796.00,0.0060
1795.00,0.0059
1794.00,0.0056
1793.00,0.0054
1792.00,0.0053
1791.00,0.0051
1790.00,0.0048
1789.00,0.0047
1788.00,0.0046
1787.00,0.0046
1786.00,0.0045
1785.00,0.0044
1784.00,0.0044
1783.00,0.0044
1782.00,0.0045
1781.00,0.0045
1780.00,0.0046
1779.00,0.0046
1778.00,0.0046
1777.00,0.0047
1776.00,0.0047
1775.00,0.0048
1774.00,0.0049
1773.00,0.0050
1772.00,0.0050
1771.00,0.0051
1770.00,0.0050
1769.00,0.0050
1768.00,0.0051
1767.00,0.0053
1766.00,0.0055
1765.00,0.0056
1764.00,0.0059
1763.00,0.0062
1762.00,0.0066
1761.00,0.0068
1760.00,0.0070
1759.00,0.0073
1758.00,0.0077
1757.00,0.0081
1756.00,0.0085
1755.00,0.0089
1754.00,0.0092
1753.00,0.0096
1752.00,0.0100
1751.00,0.0105
1750.00,0.0111
1749.00,0.0116
1748.00,0.0120
1747.00,0.0123
1746.00,0.0126
1745.00,0.0128
1744.00,0.0129
1743.00,0.0131
1742.00,0.0132
1741.00,0.0131
1740.00,0.0130
1739.00,0.0129
1738.00,0.0127
1737.00,0.0124
1736.00,0.0121
1735.00,0.0118
1734.00,0.0115
1733.00,0.0112
1732.00,0.0110
1731.00,0.0109
1730.00,0.0109
1729.00,0.0108
1728.00,0.0108
1727.00,0.0107
1726.00,0.0106
1725.00,0.0105
1724.00,0.0104
1723.00,0.0103
1722.00,0.0103
1721.00,0.0102
1720.00,0.0102
1719.00,0.0101
1718.00,0.0101
1717.00,0.0101
1716.00,0.0102
1715.00,0.0104
1714.00,0.0106
1713.00,0.0109
1712.00,0.0113
1711.00,0.0116
1710.00,0.0120
1709.00,0.0124
1708.00,0.0128
1707.00,0.0132
1706.00,0.0135
1705.00,0.0138
1704.00,0.0139
1703.00,0.0139
1702.00,0.0137
1701.00,0.0136
1700.00,0.0136
1699.00,0.0133
1698.00,0.0130
1697.00,0.0126
1696.00,0.0124
1695.00,0.0123
1694.00,0.0122
1693.00,0.0121
1692.00,0.0121
1691.00,0.0121
1690.00,0.0121
1689.00,0.0121
1688.00,0.0121
1687.00,0.0121
1686.00,0.0121
1685.00,0.0124
1684.00,0.0127
1683.00,0.0128
1682.00,0.0129
1681.00,0.0129
1680.00,0.0129
1679.00,0.0129
1678.00,0.0129
1677.00,0.0129
1676.00,0.0129
1675.00,0.0128
1674.00,0.0127
1673.00,0.0125
1672.00,0.0124
1671.00,0.0123
1670.00,0.0124
1669.00,0.0123
1668.00,0.0122
1667.00,0.0120
1666.00,0.0119
1665.00,0.0119
1664.00,0.0118
1663.00,0.0117
1662.00,0.0116
1661.00,0.0114
1660.00,0.0112
1659.00,0.0111
1658.00,0.0110
1657.00,0.0110
1656.00,0.0109
1655.00,0.0109
1654.00,0.0109
1653.00,0.0109
1652.00,0.0106
1651.00,0.0104
1650.00,0.0103
1649.00,0.0102
1648.00,0.0101
1647.00,0.0100
1646.00,0.0098
1645.00,0.0096
1644.00,0.0095
1643.00,0.0093
1642.00,0.0092
1641.00,0.0092
1640.00,0.0091
1639.00,0.0091
1638.00,0.0091
1637.00,0.0091
1636.00,0.0092
1635.00,0.0093
1634.00,0.0094
1633.00,0.0095
1632.00,0.0096
1631.00,0.0097
1630.00,0.0099
1629.00,0.0101
1628.00,0.0103
1627.00,0.0104
1626.00,0.0105
1625.00,0.0107
1624.00,0.0108
1623.00,0.0109
1622.00,0.0109
1621.00,0.0109
1620.00,0.0109
1619.00,0.0109
1618.00,0.0109
1617.00,0.0111
1616.00,0.0112
1615.00,0.0114
1614.00,0.0116
1613.00,0.0119
1612.00,0.0124
1611.00,0.0131
1610.00,0.0141
1609.00,0.0157
1608.00,0.0177
1607.00,0.0203
1606.00,0.0234
1605.00,0.0269
1604.00,0.0303
1603.00,0.0334
1602.00,0.0355
1601.00,0.0361
1600.00,0.0351
1599.00,0.0328
1598.00,0.0296
1597.00,0.0263
1596.00,0.0232
1595.00,0.0205
1594.00,0.0185
1593.00,0.0169
1592.00,0.0156
1591.00,0.0146
1590.00,0.0139
1589.00,0.0136
1588.00,0.0137
1587.00,0.0142
1586.00,0.0151
1585.00,0.0161
1584.00,0.0169
1583.00,0.0170
1582.00,0.0164
1581.00,0.0152
1580.00,0.0137
1579.00,0.0122
1578.00,0.0110
1577.00,0.0101
1576.00,0.0093
1575.00,0.0086
1574.00,0.0083
1573.00,0.0080
1572.00,0.0078
1571.00,0.0076
1570.00,0.0074
1569.00,0.0072
1568.00,0.0069
1567.00,0.0067
1566.00,0.0066
1565.00,0.0066
1564.00,0.0066
1563.00,0.0066
1562.00,0.0066
1561.00,0.0066
1560.00,0.0066
1559.00,0.0065
1558.00,0.0065
1557.00,0.0065
1556.00,0.0065
1555.00,0.0065
1554.00,0.0065
1553.00,0.0066
1552.00,0.0066
1551.00,0.0067
1550.00,0.0067
1549.00,0.0068
1548.00,0.0069
1547.00,0.0069
1546.00,0.0070
1545.00,0.0071
1544.00,0.0073
1543.00,0.0074
1542.00,0.0074
1541.00,0.0074
1540.00,0.0072
1539.00,0.0069
1538.00,0.0067
1537.00,0.0066
1536.00,0.0066
1535.00,0.0065
1534.00,0.0064
1533.00,0.0063
1532.00,0.0061
1531.00,0.0060
1530.00,0.0059
1529.00,0.0058
1528.00,0.0058
1527.00,0.0058
1526.00,0.0058
1525.00,0.0059
1524.00,0.0059
1523.00,0.0060
1522.00,0.0060
1521.00,0.0061
1520.00,0.0062
1519.00,0.0063
1518.00,0.0063
1517.00,0.0064
1516.00,0.0066
1515.00,0.0067
1514.00,0.0069
1513.00,0.0071
1512.00,0.0074
1511.00,0.0077
1510.00,0.0079
1509.00,0.0082
1508.00,0.0086
1507.00,0.0095
1506.00,0.0104
1505.00,0.0113
1504.00,0.0123
1503.00,0.0135
1502.00,0.0149
1501.00,0.0169
1500.00,0.0197
1499.00,0.0239
1498.00,0.0304
1497.00,0.0402
1496.00,0.0530
1495.00,0.0666
1494.00,0.0776
1493.00,0.0837
1492.00,0.0834
1491.00,0.0765
1490.00,0.0652
1489.00,0.0533
1488.00,0.0436
1487.00,0.0365
1486.00,0.0311
1485.00,0.0270
1484.00,0.0239
1483.00,0.0213
1482.00,0.0192
1481.00,0.0176
1480.00,0.0164
1479.00,0.0155
1478.00,0.0148
1477.00,0.0143
1476.00,0.0140
1475.00,0.0138
1474.00,0.0137
1473.00,0.0137
1472.00,0.0138
1471.00,0.0140
1470.00,0.0143
1469.00,0.0146
1468.00,0.0151
1467.00,0.0155
1466.00,0.0159
1465.00,0.0163
1464.00,0.0169
1463.00,0.0175
1462.00,0.0182
1461.00,0.0193
1460.00,0.0209
1459.00,0.0238
1458.00,0.0292
1457.00,0.0386
1456.00,0.0508
1455.00,0.0630
1454.00,0.0735
1453.00,0.0814
1452.00,0.0852
1451.00,0.0843
1450.00,0.0799
1449.00,0.0739
1448.00,0.0678
1447.00,0.0625
1446.00,0.0579
1445.00,0.0539
1444.00,0.0500
1443.00,0.0463
1442.00,0.0429
1441.00,0.0399
1440.00,0.0372
1439.00,0.0349
1438.00,0.0325
1437.00,0.0300
1436.00,0.0275
1435.00,0.0254
1434.00,0.0237
1433.00,0.0221
1432.00,0.0207
1431.00,0.0194
1430.00,0.0183
1429.00,0.0172
1428.00,0.0163
1427.00,0.0156
1426.00,0.0151
1425.00,0.0146
1424.00,0.0143
1423.00,0.0142
1422.00,0.0142
1421.00,0.0142
1420.00,0.0142
1419.00,0.0140
1418.00,0.0137
1417.00,0.0132
1416.00,0.0127
1415.00,0.0124
1414.00,0.0121
1413.00,0.0119
1412.00,0.0117
1411.00,0.0115
1410.00,0.0114
1409.00,0.0113
1408.00,0.0112
1407.00,0.0112
1406.00,0.0112
1405.00,0.0112
1404.00,0.0112
1403.00,0.0113
1402.00,0.0114
1401.00,0.0115
1400.00,0.0115
1399.00,0.0116
1398.00,0.0119
1397.00,0.0121
1396.00,0.0124
1395.00,0.0129
1394.00,0.0134
1393.00,0.0138
1392.00,0.0143
1391.00,0.0148
1390.00,0.0154
1389.00,0.0161
1388.00,0.0169
1387.00,0.0177
1386.00,0.0186
1385.00,0.0194
1384.00,0.0201
1383.00,0.0207
1382.00,0.0213
1381.00,0.0218
1380.00,0.0221
1379.00,0.0225
1378.00,0.0228
1377.00,0.0231
1376.00,0.0234
1375.00,0.0237
1374.00,0.0239
1373.00,0.0240
1372.00,0.0240
1371.00,0.0239
1370.00,0.0238
1369.00,0.0237
1368.00,0.0235
1367.00,0.0233
1366.00,0.0230
1365.00,0.0227
1364.00,0.0223
1363.00,0.0220
1362.00,0.0216
1361.00,0.0212
1360.00,0.0208
1359.00,0.0205
1358.00,0.0202
1357.00,0.0199
1356.00,0.0197
1355.00,0.0195
1354.00,0.0193
1353.00,0.0193
1352.00,0.0192
1351.00,0.0192
1350.00,0.0191
1349.00,0.0191
1348.00,0.0190
1347.00,0.0189
1346.00,0.0187
1345.00,0.0186
1344.00,0.0184
1343.00,0.0182
1342.00,0.0180
1341.00,0.0178
1340.00,0.0176
1339.00,0.0176
1338.00,0.0176
1337.00,0.0177
1336.00,0.0179
1335.00,0.0182
1334.00,0.0186
1333.00,0.0190
1332.00,0.0194
1331.00,0.0197
1330.00,0.0200
1329.00,0.0201
1328.00,0.0201
1327.00,0.0200
1326.00,0.0199
1325.00,0.0197
1324.00,0.0196
1323.00,0.0194
1322.00,0.0194
1321.00,0.0194
1320.00,0.0195
1319.00,0.0197
1318.00,0.0199
1317.00,0.0202
1316.00,0.0205
1315.00,0.0208
1314.00,0.0211
1313.00,0.0212
1312.00,0.0213
1311.00,0.0213
1310.00,0.0213
1309.00,0.0212
1308.00,0.0211
1307.00,0.0209
1306.00,0.0208
1305.00,0.0206
1304.00,0.0204
1303.00,0.0201
1302.00,0.0198
1301.00,0.0195
1300.00,0.0191
1299.00,0.0187
1298.00,0.0183
1297.00,0.0181
1296.00,0.0178
1295.00,0.0177
1294.00,0.0175
1293.00,0.0174
1292.00,0.0174
1291.00,0.0173
1290.00,0.0173
1289.00,0.0172
1288.00,0.0173
1287.00,0.0173
1286.00,0.0175
1285.00,0.0177
1284.00,0.0179
1283.00,0.0182
1282.00,0.0184
1281.00,0.0186
1280.00,0.0187
1279.00,0.0187
1278.00,0.0185
1277.00,0.0183
1276.00,0.0180
1275.00,0.0176
1274.00,0.0172
1273.00,0.0168
1272.00,0.0165
1271.00,0.0161
1270.00,0.0158
1269.00,0.0156
1268.00,0.0154
1267.00,0.0152
1266.00,0.0152
1265.00,0.0151
1264.00,0.0151
1263.00,0.0151
1262.00,0.0150
1261.00,0.0149
1260.00,0.0148
1259.00,0.0147
1258.00,0.0147
1257.00,0.0146
1256.00,0.0146
1255.00,0.0146
1254.00,0.0147
1253.00,0.0148
1252.00,0.0148
1251.00,0.0149
1250.00,0.0149
1249.00,0.0149
1248.00,0.0148
1247.00,0.0147
1246.00,0.0146
1245.00,0.0146
1244.00,0.0145
1243.00,0.0145
1242.00,0.0144
1241.00,0.0144
1240.00,0.0144
1239.00,0.0144
1238.00,0.0144
1237.00,0.0144
1236.00,0.0145
1235.00,0.0145
1234.00,0.0146
1233.00,0.0147
1232.00,0.0149
1231.00,0.0150
1230.00,0.0153
1229.00,0.0155
1228.00,0.0158
1227.00,0.0161
1226.00,0.0164
1225.00,0.0167
1224.00,0.0170
1223.00,0.0173
1222.00,0.0176
1221.00,0.0179
1220.00,0.0182
1219.00,0.0185
1218.00,0.0187
1217.00,0.0189
1216.00,0.0192
1215.00,0.0194
1214.00,0.0195
1213.00,0.0197
1212.00,0.0198
1211.00,0.0198
1210.00,0.0199
1209.00,0.0199
1208.00,0.0198
1207.00,0.0197
1206.00,0.0196
1205.00,0.0195
1204.00,0.0194
1203.00,0.0193
1202.00,0.0193
1201.00,0.0192
1200.00,0.0192
1199.00,0.0192
1198.00,0.0191
1197.00,0.0191
1196.00,0.0190
1195.00,0.0190
1194.00,0.0190
1193.00,0.0190
1192.00,0.0191
1191.00,0.0192
1190.00,0.0193
1189.00,0.0195
1188.00,0.0198
1187.00,0.0202
1186.00,0.0207
1185.00,0.0215
1184.00,0.0222
1183.00,0.0230
1182.00,0.0235
1181.00,0.0237
1180.00,0.0234
1179.00,0.0227
1178.00,0.0217
1177.00,0.0207
1176.00,0.0198
1175.00,0.0191
1174.00,0.0185
1173.00,0.0182
1172.00,0.0180
1171.00,0.0179
1170.00,0.0179
1169.00,0.0178
1168.00,0.0179
1167.00,0.0180
1166.00,0.0181
1165.00,0.0183
1164.00,0.0186
1163.00,0.0189
1162.00,0.0194
1161.00,0.0201
1160.00,0.0209
1159.00,0.0220
1158.00,0.0231
1157.00,0.0243
1156.00,0.0252
1155.00,0.0257
1154.00,0.0256
1153.00,0.0249
1152.00,0.0237
1151.00,0.0224
1150.00,0.0211
1149.00,0.0199
1148.00,0.0191
1147.00,0.0185
1146.00,0.0181
1145.00,0.0179
1144.00,0.0177
1143.00,0.0175
1142.00,0.0174
1141.00,0.0173
1140.00,0.0172
1139.00,0.0169
1138.00,0.0166
1137.00,0.0163
1136.00,0.0159
1135.00,0.0156
1134.00,0.0153
1133.00,0.0152
1132.00,0.0151
1131.00,0.0152
1130.00,0.0153
1129.00,0.0155
1128.00,0.0158
1127.00,0.0161
1126.00,0.0165
1125.00,0.0170
1124.00,0.0174
1123.00,0.0178
1122.00,0.0183
1121.00,0.0187
1120.00,0.0192
1119.00,0.0196
1118.00,0.0200
1117.00,0.0204
1116.00,0.0207
1115.00,0.0210
1114.00,0.0212
1113.00,0.0213
1112.00,0.0212
1111.00,0.0212
1110.00,0.0211
1109.00,0.0211
1108.00,0.0211
1107.00,0.0213
1106.00,0.0215
1105.00,0.0217
1104.00,0.0220
1103.00,0.0222
1102.00,0.0223
1101.00,0.0223
1100.00,0.0223
1099.00,0.0221
1098.00,0.0218
1097.00,0.0215
1096.00,0.0213
1095.00,0.0211
1094.00,0.0209
1093.00,0.0208
1092.00,0.0207
1091.00,0.0206
1090.00,0.0206
1089.00,0.0206
1088.00,0.0207
1087.00,0.0208
1086.00,0.0210
1085.00,0.0213
1084.00,0.0216
1083.00,0.0220
1082.00,0.0225
1081.00,0.0230
1080.00,0.0235
1079.00,0.0240
1078.00,0.0247
1077.00,0.0254
1076.00,0.0261
1075.00,0.0270
1074.00,0.0280
1073.00,0.0290
1072.00,0.0300
1071.00,0.0308
1070.00,0.0313
1069.00,0.0316
1068.00,0.0316
1067.00,0.0312
1066.00,0.0307
1065.00,0.0300
1064.00,0.0293
1063.00,0.0286
1062.00,0.0279
1061.00,0.0273
1060.00,0.0267
1059.00,0.0262
1058.00,0.0258
1057.00,0.0254
1056.00,0.0249
1055.00,0.0245
1054.00,0.0240
1053.00,0.0236
1052.00,0.0232
1051.00,0.0229
1050.00,0.0226
1049.00,0.0223
1048.00,0.0220
1047.00,0.0218
1046.00,0.0217
1045.00,0.0215
1044.00,0.0213
1043.00,0.0211
1042.00,0.0210
1041.00,0.0211
1040.00,0.0213
1039.00,0.0219
1038.00,0.0229
1037.00,0.0245
1036.00,0.0266
1035.00,0.0294
1034.00,0.0329
1033.00,0.0368
1032.00,0.0408
1031.00,0.0444
1030.00,0.0473
1029.00,0.0493
1028.00,0.0501
1027.00,0.0495
1026.00,0.0477
1025.00,0.0451
1024.00,0.0423
1023.00,0.0395
1022.00,0.0372
1021.00,0.0352
1020.00,0.0334
1019.00,0.0319
1018.00,0.0305
1017.00,0.0292
1016.00,0.0281
1015.00,0.0271
1014.00,0.0262
1013.00,0.0254
1012.00,0.0248
1011.00,0.0242
1010.00,0.0237
1009.00,0.0234
1008.00,0.0233
1007.00,0.0234
1006.00,0.0237
1005.00,0.0241
1004.00,0.0244
1003.00,0.0244
1002.00,0.0239
1001.00,0.0230
1000.00,0.0219
999.00,0.0208
998.00,0.0199
997.00,0.0193
996.00,0.0189
995.00,0.0186
994.00,0.0184
993.00,0.0183
992.00,0.0183
991.00,0.0183
990.00,0.0185
989.00,0.0187
988.00,0.0190
987.00,0.0193
986.00,0.0197
985.00,0.0202
984.00,0.0206
983.00,0.0209
982.00,0.0212
981.00,0.0213
980.00,0.0213
979.00,0.0212
978.00,0.0209
977.00,0.0206
976.00,0.0202
975.00,0.0198
974.00,0.0195
973.00,0.0194
972.00,0.0195
971.00,0.0198
970.00,0.0202
969.00,0.0207
968.00,0.0213
967.00,0.0218
966.00,0.0222
965.00,0.0224
964.00,0.0224
963.00,0.0221
962.00,0.0216
961.00,0.0209
960.00,0.0202
959.00,0.0194
958.00,0.0188
957.00,0.0183
956.00,0.0179
955.00,0.0176
954.00,0.0174
953.00,0.0174
952.00,0.0174
951.00,0.0174
950.00,0.0174
949.00,0.0175
948.00,0.0176
947.00,0.0177
946.00,0.0178
945.00,0.0179
944.00,0.0179
943.00,0.0179
942.00,0.0177
941.00,0.0175
940.00,0.0171
939.00,0.0166
938.00,0.0162
937.00,0.0156
936.00,0.0151
935.00,0.0146
934.00,0.0141
933.00,0.0137
932.00,0.0133
931.00,0.0130
930.00,0.0127
929.00,0.0126
928.00,0.0125
927.00,0.0125
926.00,0.0126
925.00,0.0126
924.00,0.0127
923.00,0.0129
922.00,0.0131
921.00,0.0134
920.00,0.0138
919.00,0.0143
918.00,0.0150
917.00,0.0159
916.00,0.0169
915.00,0.0181
914.00,0.0196
913.00,0.0213
912.00,0.0231
911.00,0.0250
910.00,0.0268
909.00,0.0283
908.00,0.0295
907.00,0.0302
906.00,0.0302
905.00,0.0296
904.00,0.0285
903.00,0.0269
902.00,0.0250
901.00,0.0230
900.00,0.0210
899.00,0.0191
898.00,0.0174
897.00,0.0160
896.00,0.0149
895.00,0.0140
894.00,0.0134
893.00,0.0128
892.00,0.0124
891.00,0.0121
890.00,0.0118
889.00,0.0115
888.00,0.0113
887.00,0.0110
886.00,0.0108
885.00,0.0106
884.00,0.0104
883.00,0.0102
882.00,0.0101
881.00,0.0099
880.00,0.0098
879.00,0.0098
878.00,0.0097
877.00,0.0097
876.00,0.0096
875.00,0.0096
874.00,0.0096
873.00,0.0095
872.00,0.0094
871.00,0.0094
870.00,0.0093
869.00,0.0093
868.00,0.0093
867.00,0.0093
866.00,0.0093
865.00,0.0094
864.00,0.0094
863.00,0.0093
862.00,0.0093
861.00,0.0093
860.00,0.0093
859.00,0.0093
858.00,0.0093
857.00,0.0094
856.00,0.0095
855.00,0.0096
854.00,0.0099
853.00,0.0102
852.00,0.0107
851.00,0.0112
850.00,0.0118
849.00,0.0126
848.00,0.0134
847.00,0.0143
846.00,0.0151
845.00,0.0158
844.00,0.0163
843.00,0.0166
842.00,0.0168
841.00,0.0167
840.00,0.0164
839.00,0.0159
838.00,0.0153
837.00,0.0145
836.00,0.0136
835.00,0.0127
834.00,0.0118
833.00,0.0110
832.00,0.0104
831.00,0.0100
830.00,0.0097
829.00,0.0095
828.00,0.0094
827.00,0.0093
826.00,0.0093
825.00,0.0093
824.00,0.0093
823.00,0.0093
822.00,0.0093
821.00,0.0094
820.00,0.0095
819.00,0.0095
818.00,0.0096
817.00,0.0097
816.00,0.0098
815.00,0.0099
814.00,0.0100
813.00,0.0101
812.00,0.0102
811.00,0.0102
810.00,0.0103
809.00,0.0104
808.00,0.0105
807.00,0.0106
806.00,0.0107
805.00,0.0109
804.00,0.0110
803.00,0.0112
802.00,0.0115
801.00,0.0117
800.00,0.0119
799.00,0.0121
798.00,0.0124
797.00,0.0127
796.00,0.0131
795.00,0.0135
794.00,0.0139
793.00,0.0144
792.00,0.0149
791.00,0.0155
790.00,0.0162
789.00,0.0169
788.00,0.0177
787.00,0.0185
786.00,0.0194
785.00,0.0204
784.00,0.0216
783.00,0.0228
782.00,0.0243
781.00,0.0259
780.00,0.0278
779.00,0.0300
778.00,0.0325
777.00,0.0352
776.00,0.0381
775.00,0.0413
774.00,0.0447
773.00,0.0484
772.00,0.0525
771.00,0.0568
770.00,0.0615
769.00,0.0663
768.00,0.0711
767.00,0.0759
766.00,0.0805
765.00,0.0850
764.00,0.0895
763.00,0.0941
762.00,0.0988
761.00,0.1036
760.00,0.1082
759.00,0.1126
758.00,0.1163
757.00,0.1192
756.00,0.1211
755.00,0.1220
754.00,0.1220
753.00,0.1217
752.00,0.1213
751.00,0.1210
750.00,0.1210
749.00,0.1209
748.00,0.1202
747.00,0.1184
746.00,0.1151
745.00,0.1099
744.00,0.1031
743.00,0.0952
742.00,0.0871
741.00,0.0791
740.00,0.0718
739.00,0.0652
738.00,0.0592
737.00,0.0536
736.00,0.0482
735.00,0.0429
734.00,0.0379
733.00,0.0333
732.00,0.0295
731.00,0.0263
730.00,0.0239
729.00,0.0220
728.00,0.0206
727.00,0.0195
726.00,0.0188
725.00,0.0182
724.00,0.0179
723.00,0.0176
722.00,0.0174
721.00,0.0173
720.00,0.0172
719.00,0.0174
718.00,0.0178
717.00,0.0184
716.00,0.0193
715.00,0.0207
714.00,0.0227
713.00,0.0254
712.00,0.0292
711.00,0.0344
710.00,0.0415
709.00,0.0507
708.00,0.0625
707.00,0.0769
706.00,0.0942
705.00,0.1145
704.00,0.1378
703.00,0.1639
702.00,0.1929
701.00,0.2245
700.00,0.2581
699.00,0.2931
698.00,0.3283
697.00,0.3605
696.00,0.3841
695.00,0.3925
694.00,0.3812
693.00,0.3512
692.00,0.3095
691.00,0.2653
690.00,0.2251
689.00,0.1915
688.00,0.1646
687.00,0.1436
686.00,0.1272
685.00,0.1142
684.00,0.1038
683.00,0.0952
682.00,0.0880
681.00,0.0820
680.00,0.0767
679.00,0.0721
678.00,0.0682
677.00,0.0649
676.00,0.0622
675.00,0.0597
674.00,0.0576
673.00,0.0557
672.00,0.0540
671.00,0.0526
670.00,0.0513
669.00,0.0499
668.00,0.0483
667.00,0.0465
666.00,0.0447
665.00,0.0431
664.00,0.0415
663.00,0.0400
662.00,0.0385
661.00,0.0371
660.00,0.0357
659.00,0.0343
658.00,0.0330
657.00,0.0318
656.00,0.0307
655.00,0.0296
654.00,0.0286
653.00,0.0277
652.00,0.0269
651.00,0.0262
650.00,0.0256
649.00,0.0249
648.00,0.0244
647.00,0.0239
646.00,0.0236
645.00,0.0233
644.00,0.0230
643.00,0.0228
642.00,0.0227
641.00,0.0226
640.00,0.0227
639.00,0.0229
638.00,0.0233
637.00,0.0237
636.00,0.0241
635.00,0.0246
634.00,0.0251
633.00,0.0257
632.00,0.0263
631.00,0.0268
630.00,0.0272
629.00,0.0276
628.00,0.0279
627.00,0.0281
626.00,0.0284
625.00,0.0287
624.00,0.0290
623.00,0.0295
622.00,0.0300
621.00,0.0303
620.00,0.0303
619.00,0.0299
618.00,0.0292
617.00,0.0285
616.00,0.0278
615.00,0.0271
614.00,0.0267
613.00,0.0263
612.00,0.0260
611.00,0.0257
610.00,0.0254
609.00,0.0252
608.00,0.0250
607.00,0.0248
606.00,0.0248
605.00,0.0248
604.00,0.0249
603.00,0.0250
602.00,0.0251
601.00,0.0253
600.00,0.0254
599.00,0.0257
598.00,0.0259
597.00,0.0262
596.00,0.0265
595.00,0.0268
594.00,0.0271
593.00,0.0274
592.00,0.0277
591.00,0.0280
590.00,0.0284
589.00,0.0288
588.00,0.0292
587.00,0.0295
586.00,0.0299
585.00,0.0304
584.00,0.0309
583.00,0.0315
582.00,0.0322
581.00,0.0329
580.00,0.0338
579.00,0.0349
578.00,0.0360
577.00,0.0374
576.00,0.0389
575.00,0.0406
574.00,0.0424
573.00,0.0441
572.00,0.0457
571.00,0.0473
570.00,0.0489
569.00,0.0505
568.00,0.0519
567.00,0.0534
566.00,0.0550
565.00,0.0566
564.00,0.0583
563.00,0.0599
562.00,0.0615
561.00,0.0630
560.00,0.0645
559.00,0.0661
558.00,0.0677
557.00,0.0695
556.00,0.0712
555.00,0.0730
554.00,0.0747
553.00,0.0765
552.00,0.0784
551.00,0.0803
550.00,0.0825
549.00,0.0851
548.00,0.0881
547.00,0.0915
546.00,0.0951
545.00,0.0990
544.00,0.1031
543.00,0.1071
542.00,0.1109
541.00,0.1143
540.00,0.1170
539.00,0.1188
538.00,0.1192
537.00,0.1182
536.00,0.1159
535.00,0.1122
534.00,0.1076
533.00,0.1023
532.00,0.0968
531.00,0.0910
530.00,0.0851
529.00,0.0794
528.00,0.0741
527.00,0.0692
526.00,0.0648
525.00,0.0610
524.00,0.0578
523.00,0.0551
522.00,0.0525
521.00,0.0501
520.00,0.0480
519.00,0.0461
518.00,0.0445
517.00,0.0431
516.00,0.0418
515.00,0.0406
514.00,0.0395
513.00,0.0385
512.00,0.0375
511.00,0.0365
510.00,0.0354
509.00,0.0343
508.00,0.0333
507.00,0.0324
506.00,0.0315
505.00,0.0305
504.00,0.0294
503.00,0.0284
502.00,0.0277
501.00,0.0271
500.00,0.0267
499.00,0.0262
498.00,0.0258
497.00,0.0256
496.00,0.0255
495.00,0.0255
494.00,0.0253
493.00,0.0249
492.00,0.0243
491.00,0.0237
490.00,0.0231
489.00,0.0226
488.00,0.0222
487.00,0.0218
486.00,0.0214
485.00,0.0210
484.00,0.0207
483.00,0.0205
482.00,0.0204
481.00,0.0204
480.00,0.0204
479.00,0.0202
478.00,0.0201
477.00,0.0200
476.00,0.0200
475.00,0.0197
474.00,0.0193
473.00,0.0187
472.00,0.0183
471.00,0.0183
470.00,0.0186
469.00,0.0189
468.00,0.0190
467.00,0.0190
466.00,0.0190
465.00,0.0189
464.00,0.0187
463.00,0.0185
462.00,0.0184
461.00,0.0184
460.00,0.0183
459.00,0.0181
458.00,0.0179
457.00,0.0176
456.00,0.0175
455.00,0.0175
454.00,0.0176
453.00,0.0175
452.00,0.0174
451.00,0.0172
450.00,0.0171
449.00,0.0170
448.00,0.0169
447.00,0.0168
446.00,0.0167
445.00,0.0167
444.00,0.0167
443.00,0.0168
442.00,0.0168
441.00,0.0167
440.00,0.0164
439.00,0.0162
438.00,0.0162
437.00,0.0166
436.00,0.0170
435.00,0.0170
434.00,0.0167
433.00,0.0161
432.00,0.0157
431.00,0.0155
430.00,0.0156
429.00,0.0158
428.00,0.0159
427.00,0.0159
426.00,0.0159
425.00,0.0158
424.00,0.0157
423.00,0.0154
422.00,0.0151
421.00,0.0148
420.00,0.0145
419.00,0.0139
418.00,0.0132
417.00,0.0131
416.00,0.0137
415.00,0.0149
414.00,0.0161
413.00,0.0169
412.00,0.0171
411.00,0.0169
410.00,0.0166
409.00,0.0165
408.00,0.0164
407.00,0.0164
406.00,0.0166
405.00,0.0168
404.00,0.0167
403.00,0.0162
402.00,0.0154
401.00,0.0149
400.00,0.0144
