Created as New Dataset,Sample 846 By YargerLab Date Monday, July 21 2025
cm-1,A
4000.00,0.0090
3999.00,0.0091
3998.00,0.0091
3997.00,0.0091
3996.00,0.0090
3995.00,0.0090
3994.00,0.0090
3993.00,0.0090
3992.00,0.0090
3991.00,0.0090
3990.00,0.0090
3989.00,0.0089
3988.00,0.0089
3987.00,0.0089
3986.00,0.0090
3985.00,0.0090
3984.00,0.0090
3983.00,0.0090
3982.00,0.0090
3981.00,0.0090
3980.00,0.0090
3979.00,0.0090
3978.00,0.0090
3977.00,0.0090
3976.00,0.0090
3975.00,0.0090
3974.00,0.0090
3973.00,0.0090
3972.00,0.0090
3971.00,0.0090
3970.00,0.0091
3969.00,0.0091
3968.00,0.0091
3967.00,0.0091
3966.00,0.0091
3965.00,0.0091
3964.00,0.0091
3963.00,0.0091
3962.00,0.0091
3961.00,0.0091
3960.00,0.0091
3959.00,0.0091
3958.00,0.0091
3957.00,0.0091
3956.00,0.0091
3955.00,0.0091
3954.00,0.0091
3953.00,0.0091
3952.00,0.0091
3951.00,0.0091
3950.00,0.0091
3949.00,0.0091
3948.00,0.0091
3947.00,0.0091
3946.00,0.0091
3945.00,0.0091
3944.00,0.0091
3943.00,0.0091
3942.00,0.0091
3941.00,0.0091
3940.00,0.0091
3939.00,0.0091
3938.00,0.0091
3937.00,0.0091
3936.00,0.0091
3935.00,0.0091
3934.00,0.0091
3933.00,0.0091
3932.00,0.0091
3931.00,0.0091
3930.00,0.0091
3929.00,0.0092
3928.00,0.0092
3927.00,0.0092
3926.00,0.0092
3925.00,0.0092
3924.00,0.0092
3923.00,0.0093
3922.00,0.0093
3921.00,0.0093
3920.00,0.0092
3919.00,0.0092
3918.00,0.0092
3917.00,0.0091
3916.00,0.0091
3915.00,0.0090
3914.00,0.0090
3913.00,0.0091
3912.00,0.0091
3911.00,0.0091
3910.00,0.0091
3909.00,0.0091
3908.00,0.0091
3907.00,0.0090
3906.00,0.0090
3905.00,0.0090
3904.00,0.0090
3903.00,0.0090
3902.00,0.0090
3901.00,0.0090
3900.00,0.0090
3899.00,0.0090
3898.00,0.0090
3897.00,0.0090
3896.00,0.0090
3895.00,0.0089
3894.00,0.0089
3893.00,0.0089
3892.00,0.0089
3891.00,0.0089
3890.00,0.0089
3889.00,0.0089
3888.00,0.0089
3887.00,0.0089
3886.00,0.0089
3885.00,0.0088
3884.00,0.0088
3883.00,0.0088
3882.00,0.0088
3881.00,0.0088
3880.00,0.0089
3879.00,0.0089
3878.00,0.0089
3877.00,0.0089
3876.00,0.0089
3875.00,0.0089
3874.00,0.0089
3873.00,0.0089
3872.00,0.0088
3871.00,0.0088
3870.00,0.0088
3869.00,0.0088
3868.00,0.0088
3867.00,0.0088
3866.00,0.0088
3865.00,0.0088
3864.00,0.0088
3863.00,0.0088
3862.00,0.0088
3861.00,0.0088
3860.00,0.0088
3859.00,0.0088
3858.00,0.0088
3857.00,0.0087
3856.00,0.0087
3855.00,0.0087
3854.00,0.0087
3853.00,0.0087
3852.00,0.0087
3851.00,0.0087
3850.00,0.0087
3849.00,0.0087
3848.00,0.0088
3847.00,0.0088
3846.00,0.0088
3845.00,0.0088
3844.00,0.0088
3843.00,0.0088
3842.00,0.0088
3841.00,0.0088
3840.00,0.0088
3839.00,0.0088
3838.00,0.0088
3837.00,0.0088
3836.00,0.0087
3835.00,0.0087
3834.00,0.0087
3833.00,0.0087
3832.00,0.0087
3831.00,0.0087
3830.00,0.0087
3829.00,0.0088
3828.00,0.0088
3827.00,0.0088
3826.00,0.0088
3825.00,0.0087
3824.00,0.0087
3823.00,0.0087
3822.00,0.0086
3821.00,0.0086
3820.00,0.0086
3819.00,0.0086
3818.00,0.0086
3817.00,0.0086
3816.00,0.0086
3815.00,0.0086
3814.00,0.0087
3813.00,0.0087
3812.00,0.0087
3811.00,0.0087
3810.00,0.0087
3809.00,0.0087
3808.00,0.0087
3807.00,0.0087
3806.00,0.0087
3805.00,0.0086
3804.00,0.0086
3803.00,0.0086
3802.00,0.0085
3801.00,0.0085
3800.00,0.0085
3799.00,0.0086
3798.00,0.0086
3797.00,0.0086
3796.00,0.0086
3795.00,0.0086
3794.00,0.0086
3793.00,0.0086
3792.00,0.0086
3791.00,0.0086
3790.00,0.0085
3789.00,0.0085
3788.00,0.0085
3787.00,0.0086
3786.00,0.0086
3785.00,0.0086
3784.00,0.0086
3783.00,0.0086
3782.00,0.0086
3781.00,0.0086
3780.00,0.0086
3779.00,0.0086
3778.00,0.0086
3777.00,0.0086
3776.00,0.0086
3775.00,0.0086
3774.00,0.0086
3773.00,0.0086
3772.00,0.0086
3771.00,0.0086
3770.00,0.0086
3769.00,0.0086
3768.00,0.0086
3767.00,0.0086
3766.00,0.0086
3765.00,0.0085
3764.00,0.0085
3763.00,0.0085
3762.00,0.0085
3761.00,0.0085
3760.00,0.0085
3759.00,0.0085
3758.00,0.0085
3757.00,0.0085
3756.00,0.0085
3755.00,0.0085
3754.00,0.0085
3753.00,0.0085
3752.00,0.0085
3751.00,0.0085
3750.00,0.0085
3749.00,0.0085
3748.00,0.0084
3747.00,0.0084
3746.00,0.0083
3745.00,0.0084
3744.00,0.0084
3743.00,0.0084
3742.00,0.0084
3741.00,0.0084
3740.00,0.0084
3739.00,0.0084
3738.00,0.0084
3737.00,0.0084
3736.00,0.0084
3735.00,0.0084
3734.00,0.0083
3733.00,0.0083
3732.00,0.0083
3731.00,0.0083
3730.00,0.0083
3729.00,0.0083
3728.00,0.0083
3727.00,0.0084
3726.00,0.0084
3725.00,0.0084
3724.00,0.0084
3723.00,0.0084
3722.00,0.0083
3721.00,0.0083
3720.00,0.0083
3719.00,0.0083
3718.00,0.0083
3717.00,0.0083
3716.00,0.0083
3715.00,0.0083
3714.00,0.0083
3713.00,0.0083
3712.00,0.0083
3711.00,0.0083
3710.00,0.0083
3709.00,0.0083
3708.00,0.0082
3707.00,0.0082
3706.00,0.0082
3705.00,0.0082
3704.00,0.0082
3703.00,0.0082
3702.00,0.0082
3701.00,0.0082
3700.00,0.0083
3699.00,0.0082
3698.00,0.0082
3697.00,0.0082
3696.00,0.0082
3695.00,0.0081
3694.00,0.0081
3693.00,0.0081
3692.00,0.0081
3691.00,0.0081
3690.00,0.0080
3689.00,0.0081
3688.00,0.0081
3687.00,0.0081
3686.00,0.0081
3685.00,0.0082
3684.00,0.0082
3683.00,0.0082
3682.00,0.0082
3681.00,0.0082
3680.00,0.0082
3679.00,0.0082
3678.00,0.0082
3677.00,0.0082
3676.00,0.0082
3675.00,0.0082
3674.00,0.0081
3673.00,0.0081
3672.00,0.0081
3671.00,0.0081
3670.00,0.0081
3669.00,0.0081
3668.00,0.0081
3667.00,0.0081
3666.00,0.0081
3665.00,0.0081
3664.00,0.0081
3663.00,0.0081
3662.00,0.0081
3661.00,0.0081
3660.00,0.0081
3659.00,0.0081
3658.00,0.0081
3657.00,0.0081
3656.00,0.0081
3655.00,0.0081
3654.00,0.0081
3653.00,0.0081
3652.00,0.0081
3651.00,0.0081
3650.00,0.0080
3649.00,0.0080
3648.00,0.0080
3647.00,0.0080
3646.00,0.0080
3645.00,0.0080
3644.00,0.0080
3643.00,0.0080
3642.00,0.0079
3641.00,0.0080
3640.00,0.0080
3639.00,0.0080
3638.00,0.0080
3637.00,0.0080
3636.00,0.0080
3635.00,0.0080
3634.00,0.0080
3633.00,0.0080
3632.00,0.0080
3631.00,0.0080
3630.00,0.0080
3629.00,0.0080
3628.00,0.0081
3627.00,0.0081
3626.00,0.0081
3625.00,0.0080
3624.00,0.0080
3623.00,0.0080
3622.00,0.0080
3621.00,0.0080
3620.00,0.0079
3619.00,0.0079
3618.00,0.0079
3617.00,0.0080
3616.00,0.0080
3615.00,0.0080
3614.00,0.0080
3613.00,0.0080
3612.00,0.0080
3611.00,0.0081
3610.00,0.0081
3609.00,0.0081
3608.00,0.0081
3607.00,0.0081
3606.00,0.0081
3605.00,0.0081
3604.00,0.0081
3603.00,0.0081
3602.00,0.0081
3601.00,0.0081
3600.00,0.0081
3599.00,0.0081
3598.00,0.0081
3597.00,0.0081
3596.00,0.0081
3595.00,0.0081
3594.00,0.0081
3593.00,0.0081
3592.00,0.0081
3591.00,0.0081
3590.00,0.0082
3589.00,0.0082
3588.00,0.0082
3587.00,0.0082
3586.00,0.0082
3585.00,0.0082
3584.00,0.0082
3583.00,0.0083
3582.00,0.0083
3581.00,0.0084
3580.00,0.0084
3579.00,0.0084
3578.00,0.0084
3577.00,0.0085
3576.00,0.0085
3575.00,0.0085
3574.00,0.0085
3573.00,0.0086
3572.00,0.0086
3571.00,0.0087
3570.00,0.0088
3569.00,0.0088
3568.00,0.0089
3567.00,0.0090
3566.00,0.0090
3565.00,0.0091
3564.00,0.0091
3563.00,0.0092
3562.00,0.0093
3561.00,0.0094
3560.00,0.0095
3559.00,0.0096
3558.00,0.0097
3557.00,0.0098
3556.00,0.0099
3555.00,0.0100
3554.00,0.0101
3553.00,0.0102
3552.00,0.0103
3551.00,0.0105
3550.00,0.0107
3549.00,0.0109
3548.00,0.0111
3547.00,0.0114
3546.00,0.0117
3545.00,0.0121
3544.00,0.0124
3543.00,0.0128
3542.00,0.0132
3541.00,0.0137
3540.00,0.0143
3539.00,0.0149
3538.00,0.0156
3537.00,0.0164
3536.00,0.0173
3535.00,0.0184
3534.00,0.0196
3533.00,0.0211
3532.00,0.0228
3531.00,0.0249
3530.00,0.0272
3529.00,0.0299
3528.00,0.0329
3527.00,0.0360
3526.00,0.0390
3525.00,0.0419
3524.00,0.0443
3523.00,0.0462
3522.00,0.0474
3521.00,0.0479
3520.00,0.0477
3519.00,0.0469
3518.00,0.0456
3517.00,0.0438
3516.00,0.0418
3515.00,0.0396
3514.00,0.0374
3513.00,0.0353
3512.00,0.0332
3511.00,0.0314
3510.00,0.0297
3509.00,0.0283
3508.00,0.0271
3507.00,0.0261
3506.00,0.0253
3505.00,0.0246
3504.00,0.0241
3503.00,0.0236
3502.00,0.0233
3501.00,0.0230
3500.00,0.0229
3499.00,0.0228
3498.00,0.0227
3497.00,0.0227
3496.00,0.0226
3495.00,0.0227
3494.00,0.0227
3493.00,0.0229
3492.00,0.0230
3491.00,0.0231
3490.00,0.0233
3489.00,0.0235
3488.00,0.0237
3487.00,0.0239
3486.00,0.0241
3485.00,0.0243
3484.00,0.0246
3483.00,0.0249
3482.00,0.0252
3481.00,0.0255
3480.00,0.0259
3479.00,0.0263
3478.00,0.0266
3477.00,0.0270
3476.00,0.0274
3475.00,0.0278
3474.00,0.0283
3473.00,0.0287
3472.00,0.0292
3471.00,0.0298
3470.00,0.0303
3469.00,0.0309
3468.00,0.0314
3467.00,0.0320
3466.00,0.0325
3465.00,0.0331
3464.00,0.0337
3463.00,0.0343
3462.00,0.0349
3461.00,0.0355
3460.00,0.0362
3459.00,0.0368
3458.00,0.0374
3457.00,0.0380
3456.00,0.0386
3455.00,0.0392
3454.00,0.0398
3453.00,0.0403
3452.00,0.0409
3451.00,0.0415
3450.00,0.0420
3449.00,0.0426
3448.00,0.0431
3447.00,0.0437
3446.00,0.0442
3445.00,0.0448
3444.00,0.0453
3443.00,0.0458
3442.00,0.0464
3441.00,0.0469
3440.00,0.0474
3439.00,0.0480
3438.00,0.0485
3437.00,0.0490
3436.00,0.0495
3435.00,0.0499
3434.00,0.0503
3433.00,0.0507
3432.00,0.0511
3431.00,0.0515
3430.00,0.0520
3429.00,0.0524
3428.00,0.0528
3427.00,0.0533
3426.00,0.0538
3425.00,0.0543
3424.00,0.0548
3423.00,0.0554
3422.00,0.0561
3421.00,0.0568
3420.00,0.0576
3419.00,0.0584
3418.00,0.0593
3417.00,0.0601
3416.00,0.0610
3415.00,0.0618
3414.00,0.0625
3413.00,0.0631
3412.00,0.0636
3411.00,0.0638
3410.00,0.0639
3409.00,0.0638
3408.00,0.0635
3407.00,0.0630
3406.00,0.0622
3405.00,0.0612
3404.00,0.0599
3403.00,0.0585
3402.00,0.0570
3401.00,0.0553
3400.00,0.0535
3399.00,0.0516
3398.00,0.0497
3397.00,0.0479
3396.00,0.0461
3395.00,0.0444
3394.00,0.0428
3393.00,0.0413
3392.00,0.0399
3391.00,0.0386
3390.00,0.0373
3389.00,0.0362
3388.00,0.0351
3387.00,0.0341
3386.00,0.0331
3385.00,0.0323
3384.00,0.0314
3383.00,0.0307
3382.00,0.0300
3381.00,0.0294
3380.00,0.0287
3379.00,0.0282
3378.00,0.0276
3377.00,0.0270
3376.00,0.0265
3375.00,0.0260
3374.00,0.0255
3373.00,0.0250
3372.00,0.0246
3371.00,0.0242
3370.00,0.0238
3369.00,0.0234
3368.00,0.0230
3367.00,0.0226
3366.00,0.0222
3365.00,0.0219
3364.00,0.0215
3363.00,0.0212
3362.00,0.0209
3361.00,0.0206
3360.00,0.0203
3359.00,0.0200
3358.00,0.0197
3357.00,0.0194
3356.00,0.0191
3355.00,0.0189
3354.00,0.0187
3353.00,0.0184
3352.00,0.0182
3351.00,0.0180
3350.00,0.0178
3349.00,0.0176
3348.00,0.0175
3347.00,0.0173
3346.00,0.0171
3345.00,0.0169
3344.00,0.0167
3343.00,0.0166
3342.00,0.0164
3341.00,0.0162
3340.00,0.0161
3339.00,0.0159
3338.00,0.0158
3337.00,0.0156
3336.00,0.0155
3335.00,0.0154
3334.00,0.0152
3333.00,0.0151
3332.00,0.0150
3331.00,0.0149
3330.00,0.0148
3329.00,0.0147
3328.00,0.0146
3327.00,0.0144
3326.00,0.0143
3325.00,0.0142
3324.00,0.0141
3323.00,0.0140
3322.00,0.0139
3321.00,0.0138
3320.00,0.0138
3319.00,0.0137
3318.00,0.0136
3317.00,0.0135
3316.00,0.0135
3315.00,0.0134
3314.00,0.0133
3313.00,0.0132
3312.00,0.0132
3311.00,0.0131
3310.00,0.0130
3309.00,0.0129
3308.00,0.0128
3307.00,0.0128
3306.00,0.0127
3305.00,0.0126
3304.00,0.0126
3303.00,0.0125
3302.00,0.0124
3301.00,0.0123
3300.00,0.0123
3299.00,0.0122
3298.00,0.0121
3297.00,0.0121
3296.00,0.0120
3295.00,0.0120
3294.00,0.0119
3293.00,0.0119
3292.00,0.0118
3291.00,0.0118
3290.00,0.0117
3289.00,0.0117
3288.00,0.0116
3287.00,0.0115
3286.00,0.0114
3285.00,0.0114
3284.00,0.0114
3283.00,0.0113
3282.00,0.0113
3281.00,0.0113
3280.00,0.0112
3279.00,0.0112
3278.00,0.0111
3277.00,0.0111
3276.00,0.0110
3275.00,0.0110
3274.00,0.0109
3273.00,0.0109
3272.00,0.0109
3271.00,0.0109
3270.00,0.0109
3269.00,0.0109
3268.00,0.0109
3267.00,0.0109
3266.00,0.0109
3265.00,0.0109
3264.00,0.0108
3263.00,0.0108
3262.00,0.0108
3261.00,0.0108
3260.00,0.0108
3259.00,0.0107
3258.00,0.0107
3257.00,0.0107
3256.00,0.0107
3255.00,0.0107
3254.00,0.0107
3253.00,0.0107
3252.00,0.0107
3251.00,0.0106
3250.00,0.0106
3249.00,0.0105
3248.00,0.0105
3247.00,0.0105
3246.00,0.0105
3245.00,0.0105
3244.00,0.0105
3243.00,0.0105
3242.00,0.0105
3241.00,0.0104
3240.00,0.0104
3239.00,0.0104
3238.00,0.0103
3237.00,0.0102
3236.00,0.0102
3235.00,0.0101
3234.00,0.0101
3233.00,0.0101
3232.00,0.0101
3231.00,0.0101
3230.00,0.0101
3229.00,0.0101
3228.00,0.0101
3227.00,0.0101
3226.00,0.0101
3225.00,0.0100
3224.00,0.0100
3223.00,0.0100
3222.00,0.0100
3221.00,0.0100
3220.00,0.0100
3219.00,0.0100
3218.00,0.0100
3217.00,0.0100
3216.00,0.0100
3215.00,0.0099
3214.00,0.0099
3213.00,0.0099
3212.00,0.0099
3211.00,0.0099
3210.00,0.0099
3209.00,0.0099
3208.00,0.0099
3207.00,0.0099
3206.00,0.0099
3205.00,0.0099
3204.00,0.0099
3203.00,0.0099
3202.00,0.0099
3201.00,0.0098
3200.00,0.0098
3199.00,0.0098
3198.00,0.0098
3197.00,0.0098
3196.00,0.0098
3195.00,0.0098
3194.00,0.0098
3193.00,0.0098
3192.00,0.0097
3191.00,0.0097
3190.00,0.0097
3189.00,0.0097
3188.00,0.0097
3187.00,0.0097
3186.00,0.0097
3185.00,0.0097
3184.00,0.0097
3183.00,0.0097
3182.00,0.0097
3181.00,0.0097
3180.00,0.0097
3179.00,0.0098
3178.00,0.0098
3177.00,0.0098
3176.00,0.0098
3175.00,0.0098
3174.00,0.0098
3173.00,0.0098
3172.00,0.0098
3171.00,0.0099
3170.00,0.0099
3169.00,0.0099
3168.00,0.0099
3167.00,0.0099
3166.00,0.0099
3165.00,0.0099
3164.00,0.0099
3163.00,0.0099
3162.00,0.0099
3161.00,0.0099
3160.00,0.0099
3159.00,0.0099
3158.00,0.0098
3157.00,0.0098
3156.00,0.0097
3155.00,0.0097
3154.00,0.0096
3153.00,0.0096
3152.00,0.0096
3151.00,0.0096
3150.00,0.0096
3149.00,0.0096
3148.00,0.0096
3147.00,0.0096
3146.00,0.0096
3145.00,0.0096
3144.00,0.0096
3143.00,0.0096
3142.00,0.0096
3141.00,0.0095
3140.00,0.0095
3139.00,0.0095
3138.00,0.0095
3137.00,0.0095
3136.00,0.0095
3135.00,0.0095
3134.00,0.0095
3133.00,0.0095
3132.00,0.0095
3131.00,0.0095
3130.00,0.0095
3129.00,0.0095
3128.00,0.0095
3127.00,0.0095
3126.00,0.0095
3125.00,0.0095
3124.00,0.0095
3123.00,0.0095
3122.00,0.0095
3121.00,0.0094
3120.00,0.0094
3119.00,0.0094
3118.00,0.0094
3117.00,0.0094
3116.00,0.0094
3115.00,0.0094
3114.00,0.0094
3113.00,0.0094
3112.00,0.0095
3111.00,0.0095
3110.00,0.0095
3109.00,0.0095
3108.00,0.0095
3107.00,0.0094
3106.00,0.0094
3105.00,0.0094
3104.00,0.0094
3103.00,0.0094
3102.00,0.0095
3101.00,0.0095
3100.00,0.0095
3099.00,0.0096
3098.00,0.0096
3097.00,0.0096
3096.00,0.0096
3095.00,0.0096
3094.00,0.0097
3093.00,0.0097
3092.00,0.0097
3091.00,0.0098
3090.00,0.0098
3089.00,0.0099
3088.00,0.0099
3087.00,0.0100
3086.00,0.0101
3085.00,0.0102
3084.00,0.0104
3083.00,0.0107
3082.00,0.0111
3081.00,0.0116
3080.00,0.0123
3079.00,0.0132
3078.00,0.0143
3077.00,0.0155
3076.00,0.0166
3075.00,0.0173
3074.00,0.0175
3073.00,0.0172
3072.00,0.0165
3071.00,0.0155
3070.00,0.0145
3069.00,0.0136
3068.00,0.0128
3067.00,0.0122
3066.00,0.0117
3065.00,0.0114
3064.00,0.0111
3063.00,0.0109
3062.00,0.0108
3061.00,0.0106
3060.00,0.0105
3059.00,0.0104
3058.00,0.0104
3057.00,0.0103
3056.00,0.0102
3055.00,0.0102
3054.00,0.0102
3053.00,0.0101
3052.00,0.0101
3051.00,0.0101
3050.00,0.0102
3049.00,0.0103
3048.00,0.0103
3047.00,0.0104
3046.00,0.0105
3045.00,0.0106
3044.00,0.0107
3043.00,0.0108
3042.00,0.0109
3041.00,0.0110
3040.00,0.0111
3039.00,0.0112
3038.00,0.0113
3037.00,0.0115
3036.00,0.0116
3035.00,0.0118
3034.00,0.0119
3033.00,0.0120
3032.00,0.0121
3031.00,0.0120
3030.00,0.0120
3029.00,0.0118
3028.00,0.0117
3027.00,0.0115
3026.00,0.0113
3025.00,0.0112
3024.00,0.0111
3023.00,0.0110
3022.00,0.0109
3021.00,0.0109
3020.00,0.0108
3019.00,0.0108
3018.00,0.0108
3017.00,0.0108
3016.00,0.0108
3015.00,0.0109
3014.00,0.0109
3013.00,0.0110
3012.00,0.0111
3011.00,0.0112
3010.00,0.0113
3009.00,0.0114
3008.00,0.0115
3007.00,0.0116
3006.00,0.0117
3005.00,0.0118
3004.00,0.0119
3003.00,0.0121
3002.00,0.0122
3001.00,0.0123
3000.00,0.0125
2999.00,0.0127
2998.00,0.0128
2997.00,0.0130
2996.00,0.0131
2995.00,0.0133
2994.00,0.0135
2993.00,0.0137
2992.00,0.0140
2991.00,0.0144
2990.00,0.0147
2989.00,0.0150
2988.00,0.0152
2987.00,0.0154
2986.00,0.0156
2985.00,0.0158
2984.00,0.0161
2983.00,0.0165
2982.00,0.0169
2981.00,0.0175
2980.00,0.0181
2979.00,0.0188
2978.00,0.0197
2977.00,0.0208
2976.00,0.0221
2975.00,0.0236
2974.00,0.0254
2973.00,0.0274
2972.00,0.0296
2971.00,0.0318
2970.00,0.0340
2969.00,0.0360
2968.00,0.0377
2967.00,0.0390
2966.00,0.0399
2965.00,0.0403
2964.00,0.0404
2963.00,0.0403
2962.00,0.0401
2961.00,0.0398
2960.00,0.0393
2959.00,0.0387
2958.00,0.0379
2957.00,0.0368
2956.00,0.0357
2955.00,0.0345
2954.00,0.0334
2953.00,0.0324
2952.00,0.0316
2951.00,0.0310
2950.00,0.0307
2949.00,0.0308
2948.00,0.0314
2947.00,0.0323
2946.00,0.0338
2945.00,0.0355
2944.00,0.0374
2943.00,0.0394
2942.00,0.0413
2941.00,0.0430
2940.00,0.0446
2939.00,0.0462
2938.00,0.0478
2937.00,0.0495
2936.00,0.0513
2935.00,0.0533
2934.00,0.0554
2933.00,0.0577
2932.00,0.0600
2931.00,0.0624
2930.00,0.0648
2929.00,0.0671
2928.00,0.0692
2927.00,0.0709
2926.00,0.0721
2925.00,0.0725
2924.00,0.0724
2923.00,0.0717
2922.00,0.0708
2921.00,0.0699
2920.00,0.0689
2919.00,0.0681
2918.00,0.0674
2917.00,0.0666
2916.00,0.0658
2915.00,0.0647
2914.00,0.0633
2913.00,0.0617
2912.00,0.0598
2911.00,0.0578
2910.00,0.0557
2909.00,0.0536
2908.00,0.0515
2907.00,0.0497
2906.00,0.0480
2905.00,0.0465
2904.00,0.0453
2903.00,0.0442
2902.00,0.0433
2901.00,0.0425
2900.00,0.0416
2899.00,0.0406
2898.00,0.0396
2897.00,0.0384
2896.00,0.0372
2895.00,0.0360
2894.00,0.0349
2893.00,0.0340
2892.00,0.0332
2891.00,0.0326
2890.00,0.0321
2889.00,0.0317
2888.00,0.0314
2887.00,0.0311
2886.00,0.0310
2885.00,0.0308
2884.00,0.0307
2883.00,0.0307
2882.00,0.0307
2881.00,0.0308
2880.00,0.0309
2879.00,0.0312
2878.00,0.0315
2877.00,0.0320
2876.00,0.0326
2875.00,0.0332
2874.00,0.0338
2873.00,0.0343
2872.00,0.0346
2871.00,0.0347
2870.00,0.0345
2869.00,0.0341
2868.00,0.0336
2867.00,0.0333
2866.00,0.0332
2865.00,0.0335
2864.00,0.0343
2863.00,0.0356
2862.00,0.0375
2861.00,0.0400
2860.00,0.0430
2859.00,0.0461
2858.00,0.0491
2857.00,0.0514
2856.00,0.0526
2855.00,0.0525
2854.00,0.0511
2853.00,0.0487
2852.00,0.0456
2851.00,0.0423
2850.00,0.0390
2849.00,0.0360
2848.00,0.0332
2847.00,0.0308
2846.00,0.0287
2845.00,0.0268
2844.00,0.0253
2843.00,0.0240
2842.00,0.0230
2841.00,0.0223
2840.00,0.0217
2839.00,0.0214
2838.00,0.0213
2837.00,0.0215
2836.00,0.0220
2835.00,0.0229
2834.00,0.0241
2833.00,0.0257
2832.00,0.0274
2831.00,0.0288
2830.00,0.0298
2829.00,0.0299
2828.00,0.0290
2827.00,0.0275
2826.00,0.0255
2825.00,0.0235
2824.00,0.0216
2823.00,0.0201
2822.00,0.0188
2821.00,0.0178
2820.00,0.0170
2819.00,0.0164
2818.00,0.0158
2817.00,0.0154
2816.00,0.0151
2815.00,0.0148
2814.00,0.0145
2813.00,0.0143
2812.00,0.0141
2811.00,0.0139
2810.00,0.0137
2809.00,0.0136
2808.00,0.0135
2807.00,0.0133
2806.00,0.0132
2805.00,0.0131
2804.00,0.0130
2803.00,0.0128
2802.00,0.0127
2801.00,0.0126
2800.00,0.0125
2799.00,0.0124
2798.00,0.0123
2797.00,0.0122
2796.00,0.0121
2795.00,0.0121
2794.00,0.0120
2793.00,0.0119
2792.00,0.0119
2791.00,0.0118
2790.00,0.0117
2789.00,0.0117
2788.00,0.0116
2787.00,0.0116
2786.00,0.0115
2785.00,0.0114
2784.00,0.0114
2783.00,0.0113
2782.00,0.0113
2781.00,0.0112
2780.00,0.0111
2779.00,0.0111
2778.00,0.0111
2777.00,0.0110
2776.00,0.0110
2775.00,0.0109
2774.00,0.0109
2773.00,0.0109
2772.00,0.0109
2771.00,0.0108
2770.00,0.0108
2769.00,0.0108
2768.00,0.0107
2767.00,0.0107
2766.00,0.0107
2765.00,0.0107
2764.00,0.0106
2763.00,0.0106
2762.00,0.0106
2761.00,0.0106
2760.00,0.0105
2759.00,0.0105
2758.00,0.0105
2757.00,0.0105
2756.00,0.0105
2755.00,0.0105
2754.00,0.0105
2753.00,0.0105
2752.00,0.0105
2751.00,0.0104
2750.00,0.0104
2749.00,0.0104
2748.00,0.0104
2747.00,0.0104
2746.00,0.0105
2745.00,0.0105
2744.00,0.0105
2743.00,0.0106
2742.00,0.0106
2741.00,0.0107
2740.00,0.0107
2739.00,0.0108
2738.00,0.0108
2737.00,0.0109
2736.00,0.0110
2735.00,0.0111
2734.00,0.0112
2733.00,0.0113
2732.00,0.0114
2731.00,0.0116
2730.00,0.0117
2729.00,0.0117
2728.00,0.0117
2727.00,0.0117
2726.00,0.0115
2725.00,0.0114
2724.00,0.0113
2723.00,0.0111
2722.00,0.0110
2721.00,0.0109
2720.00,0.0108
2719.00,0.0108
2718.00,0.0107
2717.00,0.0106
2716.00,0.0105
2715.00,0.0105
2714.00,0.0104
2713.00,0.0104
2712.00,0.0103
2711.00,0.0103
2710.00,0.0102
2709.00,0.0102
2708.00,0.0102
2707.00,0.0101
2706.00,0.0101
2705.00,0.0101
2704.00,0.0101
2703.00,0.0101
2702.00,0.0101
2701.00,0.0100
2700.00,0.0100
2699.00,0.0100
2698.00,0.0100
2697.00,0.0100
2696.00,0.0100
2695.00,0.0100
2694.00,0.0100
2693.00,0.0100
2692.00,0.0100
2691.00,0.0100
2690.00,0.0100
2689.00,0.0100
2688.00,0.0100
2687.00,0.0101
2686.00,0.0101
2685.00,0.0101
2684.00,0.0101
2683.00,0.0101
2682.00,0.0101
2681.00,0.0101
2680.00,0.0101
2679.00,0.0102
2678.00,0.0102
2677.00,0.0103
2676.00,0.0103
2675.00,0.0103
2674.00,0.0104
2673.00,0.0104
2672.00,0.0104
2671.00,0.0104
2670.00,0.0104
2669.00,0.0104
2668.00,0.0105
2667.00,0.0105
2666.00,0.0106
2665.00,0.0106
2664.00,0.0106
2663.00,0.0106
2662.00,0.0106
2661.00,0.0106
2660.00,0.0106
2659.00,0.0106
2658.00,0.0106
2657.00,0.0106
2656.00,0.0106
2655.00,0.0105
2654.00,0.0105
2653.00,0.0105
2652.00,0.0105
2651.00,0.0104
2650.00,0.0104
2649.00,0.0104
2648.00,0.0103
2647.00,0.0103
2646.00,0.0103
2645.00,0.0103
2644.00,0.0102
2643.00,0.0102
2642.00,0.0102
2641.00,0.0101
2640.00,0.0101
2639.00,0.0101
2638.00,0.0101
2637.00,0.0101
2636.00,0.0101
2635.00,0.0101
2634.00,0.0101
2633.00,0.0101
2632.00,0.0101
2631.00,0.0101
2630.00,0.0101
2629.00,0.0101
2628.00,0.0101
2627.00,0.0101
2626.00,0.0100
2625.00,0.0100
2624.00,0.0100
2623.00,0.0099
2622.00,0.0099
2621.00,0.0099
2620.00,0.0099
2619.00,0.0099
2618.00,0.0099
2617.00,0.0099
2616.00,0.0099
2615.00,0.0099
2614.00,0.0099
2613.00,0.0099
2612.00,0.0099
2611.00,0.0099
2610.00,0.0099
2609.00,0.0099
2608.00,0.0099
2607.00,0.0098
2606.00,0.0098
2605.00,0.0098
2604.00,0.0098
2603.00,0.0098
2602.00,0.0098
2601.00,0.0098
2600.00,0.0098
2599.00,0.0098
2598.00,0.0097
2597.00,0.0097
2596.00,0.0097
2595.00,0.0097
2594.00,0.0097
2593.00,0.0097
2592.00,0.0097
2591.00,0.0096
2590.00,0.0096
2589.00,0.0096
2588.00,0.0096
2587.00,0.0096
2586.00,0.0096
2585.00,0.0096
2584.00,0.0096
2583.00,0.0095
2582.00,0.0095
2581.00,0.0095
2580.00,0.0095
2579.00,0.0095
2578.00,0.0095
2577.00,0.0096
2576.00,0.0096
2575.00,0.0096
2574.00,0.0096
2573.00,0.0096
2572.00,0.0096
2571.00,0.0096
2570.00,0.0096
2569.00,0.0096
2568.00,0.0096
2567.00,0.0096
2566.00,0.0095
2565.00,0.0095
2564.00,0.0095
2563.00,0.0095
2562.00,0.0096
2561.00,0.0096
2560.00,0.0096
2559.00,0.0096
2558.00,0.0095
2557.00,0.0095
2556.00,0.0095
2555.00,0.0095
2554.00,0.0095
2553.00,0.0095
2552.00,0.0094
2551.00,0.0094
2550.00,0.0094
2549.00,0.0094
2548.00,0.0093
2547.00,0.0093
2546.00,0.0093
2545.00,0.0093
2544.00,0.0094
2543.00,0.0094
2542.00,0.0094
2541.00,0.0094
2540.00,0.0094
2539.00,0.0094
2538.00,0.0094
2537.00,0.0094
2536.00,0.0093
2535.00,0.0093
2534.00,0.0093
2533.00,0.0093
2532.00,0.0093
2531.00,0.0093
2530.00,0.0093
2529.00,0.0093
2528.00,0.0093
2527.00,0.0093
2526.00,0.0093
2525.00,0.0093
2524.00,0.0093
2523.00,0.0093
2522.00,0.0093
2521.00,0.0093
2520.00,0.0093
2519.00,0.0093
2518.00,0.0093
2517.00,0.0093
2516.00,0.0093
2515.00,0.0093
2514.00,0.0092
2513.00,0.0092
2512.00,0.0092
2511.00,0.0092
2510.00,0.0092
2509.00,0.0092
2508.00,0.0092
2507.00,0.0092
2506.00,0.0092
2505.00,0.0092
2504.00,0.0092
2503.00,0.0092
2502.00,0.0092
2501.00,0.0092
2500.00,0.0092
2499.00,0.0092
2498.00,0.0092
2497.00,0.0092
2496.00,0.0092
2495.00,0.0092
2494.00,0.0092
2493.00,0.0092
2492.00,0.0092
2491.00,0.0092
2490.00,0.0092
2489.00,0.0092
2488.00,0.0092
2487.00,0.0092
2486.00,0.0092
2485.00,0.0092
2484.00,0.0093
2483.00,0.0093
2482.00,0.0093
2481.00,0.0093
2480.00,0.0093
2479.00,0.0093
2478.00,0.0093
2477.00,0.0093
2476.00,0.0093
2475.00,0.0093
2474.00,0.0093
2473.00,0.0093
2472.00,0.0093
2471.00,0.0093
2470.00,0.0093
2469.00,0.0093
2468.00,0.0093
2467.00,0.0093
2466.00,0.0093
2465.00,0.0093
2464.00,0.0093
2463.00,0.0093
2462.00,0.0093
2461.00,0.0094
2460.00,0.0094
2459.00,0.0094
2458.00,0.0094
2457.00,0.0095
2456.00,0.0095
2455.00,0.0095
2454.00,0.0095
2453.00,0.0094
2452.00,0.0094
2451.00,0.0094
2450.00,0.0094
2449.00,0.0094
2448.00,0.0094
2447.00,0.0094
2446.00,0.0093
2445.00,0.0093
2444.00,0.0092
2443.00,0.0092
2442.00,0.0091
2441.00,0.0090
2440.00,0.0090
2439.00,0.0089
2438.00,0.0089
2437.00,0.0089
2436.00,0.0088
2435.00,0.0088
2434.00,0.0088
2433.00,0.0088
2432.00,0.0088
2431.00,0.0088
2430.00,0.0088
2429.00,0.0088
2428.00,0.0087
2427.00,0.0087
2426.00,0.0087
2425.00,0.0087
2424.00,0.0087
2423.00,0.0087
2422.00,0.0086
2421.00,0.0086
2420.00,0.0086
2419.00,0.0086
2418.00,0.0085
2417.00,0.0085
2416.00,0.0085
2415.00,0.0085
2414.00,0.0085
2413.00,0.0085
2412.00,0.0085
2411.00,0.0085
2410.00,0.0085
2409.00,0.0084
2408.00,0.0084
2407.00,0.0084
2406.00,0.0084
2405.00,0.0083
2404.00,0.0083
2403.00,0.0083
2402.00,0.0083
2401.00,0.0083
2400.00,0.0083
2399.00,0.0083
2398.00,0.0083
2397.00,0.0083
2396.00,0.0083
2395.00,0.0083
2394.00,0.0083
2393.00,0.0083
2392.00,0.0083
2391.00,0.0083
2390.00,0.0083
2389.00,0.0083
2388.00,0.0083
2387.00,0.0082
2386.00,0.0082
2385.00,0.0081
2384.00,0.0081
2383.00,0.0080
2382.00,0.0079
2381.00,0.0079
2380.00,0.0079
2379.00,0.0078
2378.00,0.0078
2377.00,0.0078
2376.00,0.0079
2375.00,0.0079
2374.00,0.0079
2373.00,0.0079
2372.00,0.0079
2371.00,0.0078
2370.00,0.0077
2369.00,0.0076
2368.00,0.0075
2367.00,0.0076
2366.00,0.0076
2365.00,0.0077
2364.00,0.0078
2363.00,0.0078
2362.00,0.0078
2361.00,0.0078
2360.00,0.0078
2359.00,0.0078
2358.00,0.0078
2357.00,0.0078
2356.00,0.0078
2355.00,0.0078
2354.00,0.0079
2353.00,0.0078
2352.00,0.0078
2351.00,0.0077
2350.00,0.0077
2349.00,0.0079
2348.00,0.0081
2347.00,0.0083
2346.00,0.0083
2345.00,0.0082
2344.00,0.0081
2343.00,0.0080
2342.00,0.0080
2341.00,0.0080
2340.00,0.0080
2339.00,0.0081
2338.00,0.0081
2337.00,0.0081
2336.00,0.0081
2335.00,0.0081
2334.00,0.0080
2333.00,0.0080
2332.00,0.0080
2331.00,0.0079
2330.00,0.0079
2329.00,0.0080
2328.00,0.0082
2327.00,0.0085
2326.00,0.0087
2325.00,0.0088
2324.00,0.0087
2323.00,0.0086
2322.00,0.0084
2321.00,0.0083
2320.00,0.0082
2319.00,0.0082
2318.00,0.0082
2317.00,0.0082
2316.00,0.0082
2315.00,0.0082
2314.00,0.0081
2313.00,0.0080
2312.00,0.0080
2311.00,0.0079
2310.00,0.0079
2309.00,0.0079
2308.00,0.0079
2307.00,0.0080
2306.00,0.0080
2305.00,0.0081
2304.00,0.0080
2303.00,0.0080
2302.00,0.0080
2301.00,0.0080
2300.00,0.0081
2299.00,0.0081
2298.00,0.0082
2297.00,0.0083
2296.00,0.0084
2295.00,0.0084
2294.00,0.0085
2293.00,0.0086
2292.00,0.0087
2291.00,0.0088
2290.00,0.0089
2289.00,0.0090
2288.00,0.0090
2287.00,0.0090
2286.00,0.0090
2285.00,0.0089
2284.00,0.0089
2283.00,0.0088
2282.00,0.0088
2281.00,0.0087
2280.00,0.0087
2279.00,0.0087
2278.00,0.0087
2277.00,0.0087
2276.00,0.0086
2275.00,0.0086
2274.00,0.0086
2273.00,0.0085
2272.00,0.0085
2271.00,0.0084
2270.00,0.0084
2269.00,0.0083
2268.00,0.0083
2267.00,0.0083
2266.00,0.0083
2265.00,0.0083
2264.00,0.0083
2263.00,0.0083
2262.00,0.0083
2261.00,0.0084
2260.00,0.0084
2259.00,0.0085
2258.00,0.0084
2257.00,0.0084
2256.00,0.0083
2255.00,0.0082
2254.00,0.0082
2253.00,0.0081
2252.00,0.0081
2251.00,0.0082
2250.00,0.0082
2249.00,0.0082
2248.00,0.0082
2247.00,0.0083
2246.00,0.0083
2245.00,0.0083
2244.00,0.0084
2243.00,0.0084
2242.00,0.0084
2241.00,0.0083
2240.00,0.0083
2239.00,0.0082
2238.00,0.0083
2237.00,0.0083
2236.00,0.0083
2235.00,0.0083
2234.00,0.0083
2233.00,0.0083
2232.00,0.0083
2231.00,0.0083
2230.00,0.0082
2229.00,0.0082
2228.00,0.0082
2227.00,0.0082
2226.00,0.0082
2225.00,0.0082
2224.00,0.0082
2223.00,0.0081
2222.00,0.0081
2221.00,0.0081
2220.00,0.0081
2219.00,0.0081
2218.00,0.0081
2217.00,0.0081
2216.00,0.0081
2215.00,0.0080
2214.00,0.0079
2213.00,0.0078
2212.00,0.0078
2211.00,0.0078
2210.00,0.0079
2209.00,0.0079
2208.00,0.0080
2207.00,0.0080
2206.00,0.0080
2205.00,0.0080
2204.00,0.0080
2203.00,0.0081
2202.00,0.0081
2201.00,0.0081
2200.00,0.0081
2199.00,0.0081
2198.00,0.0081
2197.00,0.0082
2196.00,0.0083
2195.00,0.0084
2194.00,0.0084
2193.00,0.0084
2192.00,0.0083
2191.00,0.0081
2190.00,0.0080
2189.00,0.0080
2188.00,0.0079
2187.00,0.0079
2186.00,0.0079
2185.00,0.0079
2184.00,0.0079
2183.00,0.0078
2182.00,0.0076
2181.00,0.0076
2180.00,0.0077
2179.00,0.0077
2178.00,0.0077
2177.00,0.0075
2176.00,0.0073
2175.00,0.0072
2174.00,0.0073
2173.00,0.0074
2172.00,0.0077
2171.00,0.0080
2170.00,0.0082
2169.00,0.0084
2168.00,0.0085
2167.00,0.0086
2166.00,0.0086
2165.00,0.0088
2164.00,0.0089
2163.00,0.0090
2162.00,0.0087
2161.00,0.0080
2160.00,0.0069
2159.00,0.0058
2158.00,0.0052
2157.00,0.0051
2156.00,0.0053
2155.00,0.0055
2154.00,0.0057
2153.00,0.0059
2152.00,0.0060
2151.00,0.0062
2150.00,0.0063
2149.00,0.0064
2148.00,0.0064
2147.00,0.0063
2146.00,0.0063
2145.00,0.0063
2144.00,0.0063
2143.00,0.0064
2142.00,0.0065
2141.00,0.0066
2140.00,0.0066
2139.00,0.0065
2138.00,0.0063
2137.00,0.0061
2136.00,0.0059
2135.00,0.0058
2134.00,0.0057
2133.00,0.0058
2132.00,0.0059
2131.00,0.0060
2130.00,0.0062
2129.00,0.0064
2128.00,0.0065
2127.00,0.0066
2126.00,0.0067
2125.00,0.0068
2124.00,0.0069
2123.00,0.0070
2122.00,0.0071
2121.00,0.0072
2120.00,0.0073
2119.00,0.0073
2118.00,0.0074
2117.00,0.0074
2116.00,0.0074
2115.00,0.0074
2114.00,0.0074
2113.00,0.0073
2112.00,0.0074
2111.00,0.0074
2110.00,0.0074
2109.00,0.0075
2108.00,0.0075
2107.00,0.0075
2106.00,0.0074
2105.00,0.0073
2104.00,0.0073
2103.00,0.0072
2102.00,0.0072
2101.00,0.0072
2100.00,0.0072
2099.00,0.0072
2098.00,0.0072
2097.00,0.0072
2096.00,0.0071
2095.00,0.0070
2094.00,0.0070
2093.00,0.0070
2092.00,0.0071
2091.00,0.0072
2090.00,0.0073
2089.00,0.0074
2088.00,0.0075
2087.00,0.0075
2086.00,0.0075
2085.00,0.0075
2084.00,0.0076
2083.00,0.0076
2082.00,0.0076
2081.00,0.0076
2080.00,0.0075
2079.00,0.0075
2078.00,0.0074
2077.00,0.0074
2076.00,0.0073
2075.00,0.0073
2074.00,0.0072
2073.00,0.0072
2072.00,0.0072
2071.00,0.0072
2070.00,0.0071
2069.00,0.0070
2068.00,0.0070
2067.00,0.0069
2066.00,0.0070
2065.00,0.0070
2064.00,0.0070
2063.00,0.0070
2062.00,0.0069
2061.00,0.0069
2060.00,0.0068
2059.00,0.0069
2058.00,0.0069
2057.00,0.0070
2056.00,0.0071
2055.00,0.0072
2054.00,0.0074
2053.00,0.0077
2052.00,0.0079
2051.00,0.0079
2050.00,0.0076
2049.00,0.0072
2048.00,0.0068
2047.00,0.0066
2046.00,0.0066
2045.00,0.0066
2044.00,0.0067
2043.00,0.0067
2042.00,0.0067
2041.00,0.0067
2040.00,0.0067
2039.00,0.0066
2038.00,0.0065
2037.00,0.0064
2036.00,0.0062
2035.00,0.0061
2034.00,0.0060
2033.00,0.0060
2032.00,0.0060
2031.00,0.0061
2030.00,0.0062
2029.00,0.0063
2028.00,0.0063
2027.00,0.0061
2026.00,0.0059
2025.00,0.0058
2024.00,0.0059
2023.00,0.0060
2022.00,0.0062
2021.00,0.0063
2020.00,0.0063
2019.00,0.0062
2018.00,0.0062
2017.00,0.0061
2016.00,0.0061
2015.00,0.0061
2014.00,0.0061
2013.00,0.0062
2012.00,0.0063
2011.00,0.0064
2010.00,0.0064
2009.00,0.0062
2008.00,0.0061
2007.00,0.0059
2006.00,0.0058
2005.00,0.0058
2004.00,0.0058
2003.00,0.0059
2002.00,0.0059
2001.00,0.0060
2000.00,0.0060
1999.00,0.0061
1998.00,0.0062
1997.00,0.0063
1996.00,0.0064
1995.00,0.0065
1994.00,0.0066
1993.00,0.0066
1992.00,0.0066
1991.00,0.0067
1990.00,0.0067
1989.00,0.0068
1988.00,0.0068
1987.00,0.0069
1986.00,0.0071
1985.00,0.0073
1984.00,0.0074
1983.00,0.0076
1982.00,0.0078
1981.00,0.0079
1980.00,0.0078
1979.00,0.0073
1978.00,0.0068
1977.00,0.0063
1976.00,0.0061
1975.00,0.0060
1974.00,0.0060
1973.00,0.0060
1972.00,0.0061
1971.00,0.0062
1970.00,0.0062
1969.00,0.0062
1968.00,0.0061
1967.00,0.0060
1966.00,0.0060
1965.00,0.0060
1964.00,0.0061
1963.00,0.0060
1962.00,0.0060
1961.00,0.0059
1960.00,0.0059
1959.00,0.0059
1958.00,0.0059
1957.00,0.0059
1956.00,0.0060
1955.00,0.0061
1954.00,0.0061
1953.00,0.0062
1952.00,0.0063
1951.00,0.0063
1950.00,0.0063
1949.00,0.0064
1948.00,0.0064
1947.00,0.0064
1946.00,0.0064
1945.00,0.0065
1944.00,0.0066
1943.00,0.0067
1942.00,0.0066
1941.00,0.0066
1940.00,0.0065
1939.00,0.0065
1938.00,0.0064
1937.00,0.0064
1936.00,0.0063
1935.00,0.0063
1934.00,0.0064
1933.00,0.0064
1932.00,0.0064
1931.00,0.0064
1930.00,0.0064
1929.00,0.0063
1928.00,0.0063
1927.00,0.0063
1926.00,0.0063
1925.00,0.0063
1924.00,0.0064
1923.00,0.0064
1922.00,0.0065
1921.00,0.0065
1920.00,0.0065
1919.00,0.0066
1918.00,0.0066
1917.00,0.0066
1916.00,0.0066
1915.00,0.0066
1914.00,0.0066
1913.00,0.0067
1912.00,0.0067
1911.00,0.0067
1910.00,0.0067
1909.00,0.0067
1908.00,0.0067
1907.00,0.0067
1906.00,0.0068
1905.00,0.0068
1904.00,0.0069
1903.00,0.0069
1902.00,0.0069
1901.00,0.0068
1900.00,0.0069
1899.00,0.0069
1898.00,0.0069
1897.00,0.0069
1896.00,0.0069
1895.00,0.0069
1894.00,0.0068
1893.00,0.0069
1892.00,0.0069
1891.00,0.0070
1890.00,0.0070
1889.00,0.0069
1888.00,0.0069
1887.00,0.0069
1886.00,0.0069
1885.00,0.0070
1884.00,0.0070
1883.00,0.0070
1882.00,0.0070
1881.00,0.0070
1880.00,0.0070
1879.00,0.0070
1878.00,0.0070
1877.00,0.0070
1876.00,0.0070
1875.00,0.0070
1874.00,0.0070
1873.00,0.0070
1872.00,0.0070
1871.00,0.0070
1870.00,0.0070
1869.00,0.0070
1868.00,0.0070
1867.00,0.0070
1866.00,0.0070
1865.00,0.0069
1864.00,0.0069
1863.00,0.0069
1862.00,0.0069
1861.00,0.0069
1860.00,0.0069
1859.00,0.0069
1858.00,0.0069
1857.00,0.0069
1856.00,0.0069
1855.00,0.0070
1854.00,0.0070
1853.00,0.0070
1852.00,0.0070
1851.00,0.0070
1850.00,0.0070
1849.00,0.0070
1848.00,0.0070
1847.00,0.0070
1846.00,0.0070
1845.00,0.0069
1844.00,0.0069
1843.00,0.0069
1842.00,0.0069
1841.00,0.0069
1840.00,0.0069
1839.00,0.0069
1838.00,0.0070
1837.00,0.0070
1836.00,0.0070
1835.00,0.0070
1834.00,0.0070
1833.00,0.0070
1832.00,0.0071
1831.00,0.0071
1830.00,0.0071
1829.00,0.0071
1828.00,0.0071
1827.00,0.0071
1826.00,0.0071
1825.00,0.0071
1824.00,0.0071
1823.00,0.0072
1822.00,0.0072
1821.00,0.0072
1820.00,0.0071
1819.00,0.0071
1818.00,0.0070
1817.00,0.0070
1816.00,0.0070
1815.00,0.0071
1814.00,0.0072
1813.00,0.0072
1812.00,0.0073
1811.00,0.0074
1810.00,0.0075
1809.00,0.0075
1808.00,0.0076
1807.00,0.0076
1806.00,0.0077
1805.00,0.0077
1804.00,0.0078
1803.00,0.0078
1802.00,0.0079
1801.00,0.0079
1800.00,0.0079
1799.00,0.0079
1798.00,0.0079
1797.00,0.0079
1796.00,0.0079
1795.00,0.0078
1794.00,0.0077
1793.00,0.0076
1792.00,0.0075
1791.00,0.0075
1790.00,0.0075
1789.00,0.0076
1788.00,0.0076
1787.00,0.0076
1786.00,0.0077
1785.00,0.0077
1784.00,0.0076
1783.00,0.0077
1782.00,0.0077
1781.00,0.0077
1780.00,0.0078
1779.00,0.0078
1778.00,0.0079
1777.00,0.0079
1776.00,0.0080
1775.00,0.0081
1774.00,0.0082
1773.00,0.0083
1772.00,0.0083
1771.00,0.0083
1770.00,0.0083
1769.00,0.0082
1768.00,0.0081
1767.00,0.0080
1766.00,0.0079
1765.00,0.0078
1764.00,0.0078
1763.00,0.0078
1762.00,0.0077
1761.00,0.0077
1760.00,0.0077
1759.00,0.0076
1758.00,0.0076
1757.00,0.0076
1756.00,0.0076
1755.00,0.0076
1754.00,0.0076
1753.00,0.0076
1752.00,0.0077
1751.00,0.0077
1750.00,0.0077
1749.00,0.0076
1748.00,0.0076
1747.00,0.0076
1746.00,0.0076
1745.00,0.0077
1744.00,0.0077
1743.00,0.0076
1742.00,0.0076
1741.00,0.0076
1740.00,0.0076
1739.00,0.0077
1738.00,0.0077
1737.00,0.0077
1736.00,0.0077
1735.00,0.0077
1734.00,0.0077
1733.00,0.0077
1732.00,0.0077
1731.00,0.0078
1730.00,0.0078
1729.00,0.0078
1728.00,0.0078
1727.00,0.0078
1726.00,0.0078
1725.00,0.0079
1724.00,0.0079
1723.00,0.0080
1722.00,0.0080
1721.00,0.0080
1720.00,0.0080
1719.00,0.0081
1718.00,0.0081
1717.00,0.0081
1716.00,0.0081
1715.00,0.0081
1714.00,0.0081
1713.00,0.0081
1712.00,0.0082
1711.00,0.0082
1710.00,0.0083
1709.00,0.0083
1708.00,0.0083
1707.00,0.0084
1706.00,0.0084
1705.00,0.0085
1704.00,0.0084
1703.00,0.0084
1702.00,0.0084
1701.00,0.0084
1700.00,0.0085
1699.00,0.0086
1698.00,0.0086
1697.00,0.0086
1696.00,0.0086
1695.00,0.0086
1694.00,0.0086
1693.00,0.0086
1692.00,0.0086
1691.00,0.0086
1690.00,0.0086
1689.00,0.0086
1688.00,0.0085
1687.00,0.0085
1686.00,0.0085
1685.00,0.0085
1684.00,0.0085
1683.00,0.0084
1682.00,0.0084
1681.00,0.0085
1680.00,0.0085
1679.00,0.0086
1678.00,0.0086
1677.00,0.0086
1676.00,0.0087
1675.00,0.0088
1674.00,0.0089
1673.00,0.0090
1672.00,0.0091
1671.00,0.0093
1670.00,0.0095
1669.00,0.0097
1668.00,0.0099
1667.00,0.0102
1666.00,0.0104
1665.00,0.0106
1664.00,0.0109
1663.00,0.0112
1662.00,0.0114
1661.00,0.0114
1660.00,0.0115
1659.00,0.0115
1658.00,0.0114
1657.00,0.0114
1656.00,0.0115
1655.00,0.0116
1654.00,0.0121
1653.00,0.0129
1652.00,0.0139
1651.00,0.0147
1650.00,0.0155
1649.00,0.0168
1648.00,0.0191
1647.00,0.0229
1646.00,0.0274
1645.00,0.0309
1644.00,0.0330
1643.00,0.0336
1642.00,0.0330
1641.00,0.0317
1640.00,0.0305
1639.00,0.0297
1638.00,0.0299
1637.00,0.0316
1636.00,0.0351
1635.00,0.0397
1634.00,0.0436
1633.00,0.0465
1632.00,0.0486
1631.00,0.0503
1630.00,0.0516
1629.00,0.0528
1628.00,0.0543
1627.00,0.0561
1626.00,0.0582
1625.00,0.0606
1624.00,0.0629
1623.00,0.0640
1622.00,0.0628
1621.00,0.0597
1620.00,0.0555
1619.00,0.0507
1618.00,0.0453
1617.00,0.0396
1616.00,0.0346
1615.00,0.0310
1614.00,0.0285
1613.00,0.0266
1612.00,0.0249
1611.00,0.0234
1610.00,0.0221
1609.00,0.0209
1608.00,0.0200
1607.00,0.0192
1606.00,0.0187
1605.00,0.0182
1604.00,0.0180
1603.00,0.0178
1602.00,0.0177
1601.00,0.0178
1600.00,0.0181
1599.00,0.0185
1598.00,0.0192
1597.00,0.0200
1596.00,0.0212
1595.00,0.0227
1594.00,0.0248
1593.00,0.0276
1592.00,0.0313
1591.00,0.0359
1590.00,0.0415
1589.00,0.0478
1588.00,0.0544
1587.00,0.0608
1586.00,0.0665
1585.00,0.0715
1584.00,0.0757
1583.00,0.0789
1582.00,0.0806
1581.00,0.0802
1580.00,0.0781
1579.00,0.0744
1578.00,0.0691
1577.00,0.0624
1576.00,0.0549
1575.00,0.0485
1574.00,0.0438
1573.00,0.0403
1572.00,0.0371
1571.00,0.0340
1570.00,0.0308
1569.00,0.0278
1568.00,0.0254
1567.00,0.0235
1566.00,0.0220
1565.00,0.0205
1564.00,0.0192
1563.00,0.0182
1562.00,0.0174
1561.00,0.0168
1560.00,0.0162
1559.00,0.0155
1558.00,0.0149
1557.00,0.0146
1556.00,0.0143
1555.00,0.0141
1554.00,0.0139
1553.00,0.0137
1552.00,0.0135
1551.00,0.0133
1550.00,0.0131
1549.00,0.0129
1548.00,0.0127
1547.00,0.0125
1546.00,0.0124
1545.00,0.0122
1544.00,0.0121
1543.00,0.0119
1542.00,0.0118
1541.00,0.0118
1540.00,0.0118
1539.00,0.0118
1538.00,0.0118
1537.00,0.0119
1536.00,0.0118
1535.00,0.0118
1534.00,0.0118
1533.00,0.0119
1532.00,0.0118
1531.00,0.0119
1530.00,0.0119
1529.00,0.0120
1528.00,0.0121
1527.00,0.0122
1526.00,0.0124
1525.00,0.0127
1524.00,0.0130
1523.00,0.0135
1522.00,0.0144
1521.00,0.0156
1520.00,0.0169
1519.00,0.0181
1518.00,0.0193
1517.00,0.0206
1516.00,0.0218
1515.00,0.0225
1514.00,0.0227
1513.00,0.0225
1512.00,0.0219
1511.00,0.0210
1510.00,0.0200
1509.00,0.0191
1508.00,0.0182
1507.00,0.0171
1506.00,0.0163
1505.00,0.0158
1504.00,0.0157
1503.00,0.0155
1502.00,0.0153
1501.00,0.0150
1500.00,0.0148
1499.00,0.0144
1498.00,0.0141
1497.00,0.0137
1496.00,0.0133
1495.00,0.0129
1494.00,0.0127
1493.00,0.0124
1492.00,0.0123
1491.00,0.0121
1490.00,0.0119
1489.00,0.0117
1488.00,0.0115
1487.00,0.0114
1486.00,0.0114
1485.00,0.0114
1484.00,0.0114
1483.00,0.0115
1482.00,0.0115
1481.00,0.0116
1480.00,0.0117
1479.00,0.0118
1478.00,0.0120
1477.00,0.0122
1476.00,0.0126
1475.00,0.0130
1474.00,0.0136
1473.00,0.0147
1472.00,0.0163
1471.00,0.0182
1470.00,0.0205
1469.00,0.0229
1468.00,0.0253
1467.00,0.0272
1466.00,0.0287
1465.00,0.0297
1464.00,0.0306
1463.00,0.0314
1462.00,0.0324
1461.00,0.0333
1460.00,0.0341
1459.00,0.0349
1458.00,0.0359
1457.00,0.0376
1456.00,0.0397
1455.00,0.0419
1454.00,0.0444
1453.00,0.0477
1452.00,0.0520
1451.00,0.0569
1450.00,0.0626
1449.00,0.0693
1448.00,0.0767
1447.00,0.0836
1446.00,0.0890
1445.00,0.0928
1444.00,0.0950
1443.00,0.0956
1442.00,0.0951
1441.00,0.0938
1440.00,0.0920
1439.00,0.0897
1438.00,0.0870
1437.00,0.0838
1436.00,0.0801
1435.00,0.0765
1434.00,0.0731
1433.00,0.0698
1432.00,0.0662
1431.00,0.0619
1430.00,0.0570
1429.00,0.0515
1428.00,0.0459
1427.00,0.0407
1426.00,0.0362
1425.00,0.0321
1424.00,0.0286
1423.00,0.0259
1422.00,0.0239
1421.00,0.0224
1420.00,0.0209
1419.00,0.0197
1418.00,0.0188
1417.00,0.0180
1416.00,0.0174
1415.00,0.0169
1414.00,0.0165
1413.00,0.0161
1412.00,0.0157
1411.00,0.0154
1410.00,0.0152
1409.00,0.0150
1408.00,0.0148
1407.00,0.0147
1406.00,0.0146
1405.00,0.0145
1404.00,0.0144
1403.00,0.0143
1402.00,0.0143
1401.00,0.0142
1400.00,0.0141
1399.00,0.0140
1398.00,0.0140
1397.00,0.0140
1396.00,0.0138
1395.00,0.0137
1394.00,0.0136
1393.00,0.0135
1392.00,0.0135
1391.00,0.0135
1390.00,0.0136
1389.00,0.0137
1388.00,0.0138
1387.00,0.0142
1386.00,0.0147
1385.00,0.0154
1384.00,0.0164
1383.00,0.0177
1382.00,0.0197
1381.00,0.0222
1380.00,0.0254
1379.00,0.0294
1378.00,0.0336
1377.00,0.0374
1376.00,0.0401
1375.00,0.0412
1374.00,0.0405
1373.00,0.0384
1372.00,0.0360
1371.00,0.0336
1370.00,0.0315
1369.00,0.0296
1368.00,0.0280
1367.00,0.0266
1366.00,0.0255
1365.00,0.0244
1364.00,0.0233
1363.00,0.0222
1362.00,0.0213
1361.00,0.0206
1360.00,0.0201
1359.00,0.0198
1358.00,0.0195
1357.00,0.0194
1356.00,0.0193
1355.00,0.0193
1354.00,0.0194
1353.00,0.0195
1352.00,0.0197
1351.00,0.0198
1350.00,0.0201
1349.00,0.0204
1348.00,0.0208
1347.00,0.0213
1346.00,0.0219
1345.00,0.0225
1344.00,0.0230
1343.00,0.0234
1342.00,0.0237
1341.00,0.0237
1340.00,0.0233
1339.00,0.0227
1338.00,0.0220
1337.00,0.0213
1336.00,0.0209
1335.00,0.0208
1334.00,0.0210
1333.00,0.0215
1332.00,0.0222
1331.00,0.0230
1330.00,0.0239
1329.00,0.0247
1328.00,0.0255
1327.00,0.0262
1326.00,0.0270
1325.00,0.0277
1324.00,0.0281
1323.00,0.0281
1322.00,0.0276
1321.00,0.0268
1320.00,0.0259
1319.00,0.0254
1318.00,0.0256
1317.00,0.0266
1316.00,0.0284
1315.00,0.0309
1314.00,0.0338
1313.00,0.0364
1312.00,0.0383
1311.00,0.0391
1310.00,0.0389
1309.00,0.0380
1308.00,0.0370
1307.00,0.0363
1306.00,0.0363
1305.00,0.0369
1304.00,0.0378
1303.00,0.0389
1302.00,0.0397
1301.00,0.0400
1300.00,0.0399
1299.00,0.0395
1298.00,0.0389
1297.00,0.0380
1296.00,0.0370
1295.00,0.0359
1294.00,0.0348
1293.00,0.0337
1292.00,0.0326
1291.00,0.0317
1290.00,0.0310
1289.00,0.0305
1288.00,0.0304
1287.00,0.0309
1286.00,0.0319
1285.00,0.0332
1284.00,0.0348
1283.00,0.0364
1282.00,0.0380
1281.00,0.0393
1280.00,0.0402
1279.00,0.0408
1278.00,0.0409
1277.00,0.0406
1276.00,0.0398
1275.00,0.0387
1274.00,0.0371
1273.00,0.0353
1272.00,0.0331
1271.00,0.0308
1270.00,0.0286
1269.00,0.0264
1268.00,0.0244
1267.00,0.0227
1266.00,0.0214
1265.00,0.0203
1264.00,0.0193
1263.00,0.0185
1262.00,0.0179
1261.00,0.0173
1260.00,0.0169
1259.00,0.0165
1258.00,0.0162
1257.00,0.0161
1256.00,0.0160
1255.00,0.0161
1254.00,0.0163
1253.00,0.0167
1252.00,0.0173
1251.00,0.0182
1250.00,0.0192
1249.00,0.0201
1248.00,0.0207
1247.00,0.0213
1246.00,0.0218
1245.00,0.0227
1244.00,0.0242
1243.00,0.0265
1242.00,0.0297
1241.00,0.0337
1240.00,0.0381
1239.00,0.0424
1238.00,0.0459
1237.00,0.0483
1236.00,0.0492
1235.00,0.0492
1234.00,0.0485
1233.00,0.0473
1232.00,0.0457
1231.00,0.0441
1230.00,0.0428
1229.00,0.0426
1228.00,0.0437
1227.00,0.0463
1226.00,0.0499
1225.00,0.0541
1224.00,0.0585
1223.00,0.0634
1222.00,0.0688
1221.00,0.0754
1220.00,0.0836
1219.00,0.0933
1218.00,0.1041
1217.00,0.1143
1216.00,0.1223
1215.00,0.1265
1214.00,0.1260
1213.00,0.1214
1212.00,0.1137
1211.00,0.1043
1210.00,0.0947
1209.00,0.0857
1208.00,0.0778
1207.00,0.0712
1206.00,0.0657
1205.00,0.0608
1204.00,0.0563
1203.00,0.0519
1202.00,0.0476
1201.00,0.0435
1200.00,0.0398
1199.00,0.0365
1198.00,0.0338
1197.00,0.0316
1196.00,0.0299
1195.00,0.0287
1194.00,0.0279
1193.00,0.0275
1192.00,0.0275
1191.00,0.0278
1190.00,0.0283
1189.00,0.0290
1188.00,0.0297
1187.00,0.0305
1186.00,0.0314
1185.00,0.0323
1184.00,0.0332
1183.00,0.0340
1182.00,0.0347
1181.00,0.0351
1180.00,0.0354
1179.00,0.0358
1178.00,0.0361
1177.00,0.0365
1176.00,0.0370
1175.00,0.0378
1174.00,0.0392
1173.00,0.0406
1172.00,0.0412
1171.00,0.0401
1170.00,0.0374
1169.00,0.0338
1168.00,0.0301
1167.00,0.0269
1166.00,0.0245
1165.00,0.0226
1164.00,0.0211
1163.00,0.0201
1162.00,0.0194
1161.00,0.0190
1160.00,0.0187
1159.00,0.0188
1158.00,0.0191
1157.00,0.0199
1156.00,0.0214
1155.00,0.0239
1154.00,0.0277
1153.00,0.0327
1152.00,0.0379
1151.00,0.0416
1150.00,0.0425
1149.00,0.0400
1148.00,0.0353
1147.00,0.0300
1146.00,0.0256
1145.00,0.0224
1144.00,0.0202
1143.00,0.0188
1142.00,0.0180
1141.00,0.0175
1140.00,0.0172
1139.00,0.0173
1138.00,0.0177
1137.00,0.0181
1136.00,0.0185
1135.00,0.0187
1134.00,0.0187
1133.00,0.0183
1132.00,0.0178
1131.00,0.0171
1130.00,0.0164
1129.00,0.0158
1128.00,0.0152
1127.00,0.0147
1126.00,0.0144
1125.00,0.0141
1124.00,0.0139
1123.00,0.0137
1122.00,0.0137
1121.00,0.0137
1120.00,0.0136
1119.00,0.0137
1118.00,0.0138
1117.00,0.0139
1116.00,0.0140
1115.00,0.0142
1114.00,0.0144
1113.00,0.0146
1112.00,0.0148
1111.00,0.0150
1110.00,0.0153
1109.00,0.0156
1108.00,0.0161
1107.00,0.0166
1106.00,0.0173
1105.00,0.0180
1104.00,0.0188
1103.00,0.0197
1102.00,0.0208
1101.00,0.0219
1100.00,0.0229
1099.00,0.0235
1098.00,0.0236
1097.00,0.0228
1096.00,0.0216
1095.00,0.0203
1094.00,0.0192
1093.00,0.0183
1092.00,0.0176
1091.00,0.0171
1090.00,0.0167
1089.00,0.0164
1088.00,0.0162
1087.00,0.0163
1086.00,0.0166
1085.00,0.0173
1084.00,0.0182
1083.00,0.0195
1082.00,0.0211
1081.00,0.0225
1080.00,0.0235
1079.00,0.0238
1078.00,0.0234
1077.00,0.0223
1076.00,0.0211
1075.00,0.0199
1074.00,0.0190
1073.00,0.0182
1072.00,0.0176
1071.00,0.0171
1070.00,0.0168
1069.00,0.0165
1068.00,0.0163
1067.00,0.0162
1066.00,0.0162
1065.00,0.0164
1064.00,0.0165
1063.00,0.0169
1062.00,0.0174
1061.00,0.0182
1060.00,0.0192
1059.00,0.0208
1058.00,0.0231
1057.00,0.0265
1056.00,0.0310
1055.00,0.0362
1054.00,0.0414
1053.00,0.0456
1052.00,0.0480
1051.00,0.0488
1050.00,0.0479
1049.00,0.0457
1048.00,0.0422
1047.00,0.0381
1046.00,0.0342
1045.00,0.0312
1044.00,0.0292
1043.00,0.0284
1042.00,0.0283
1041.00,0.0289
1040.00,0.0297
1039.00,0.0310
1038.00,0.0330
1037.00,0.0358
1036.00,0.0396
1035.00,0.0444
1034.00,0.0495
1033.00,0.0538
1032.00,0.0562
1031.00,0.0562
1030.00,0.0542
1029.00,0.0510
1028.00,0.0478
1027.00,0.0454
1026.00,0.0444
1025.00,0.0452
1024.00,0.0479
1023.00,0.0524
1022.00,0.0583
1021.00,0.0646
1020.00,0.0695
1019.00,0.0717
1018.00,0.0706
1017.00,0.0666
1016.00,0.0612
1015.00,0.0556
1014.00,0.0506
1013.00,0.0463
1012.00,0.0428
1011.00,0.0404
1010.00,0.0391
1009.00,0.0386
1008.00,0.0387
1007.00,0.0395
1006.00,0.0410
1005.00,0.0431
1004.00,0.0453
1003.00,0.0469
1002.00,0.0476
1001.00,0.0468
1000.00,0.0447
999.00,0.0416
998.00,0.0379
997.00,0.0341
996.00,0.0309
995.00,0.0283
994.00,0.0266
993.00,0.0255
992.00,0.0250
991.00,0.0249
990.00,0.0254
989.00,0.0261
988.00,0.0268
987.00,0.0275
986.00,0.0280
985.00,0.0282
984.00,0.0279
983.00,0.0271
982.00,0.0259
981.00,0.0245
980.00,0.0234
979.00,0.0226
978.00,0.0221
977.00,0.0218
976.00,0.0214
975.00,0.0210
974.00,0.0208
973.00,0.0207
972.00,0.0207
971.00,0.0212
970.00,0.0219
969.00,0.0228
968.00,0.0238
967.00,0.0250
966.00,0.0263
965.00,0.0278
964.00,0.0294
963.00,0.0312
962.00,0.0326
961.00,0.0331
960.00,0.0324
959.00,0.0306
958.00,0.0283
957.00,0.0257
956.00,0.0234
955.00,0.0215
954.00,0.0200
953.00,0.0189
952.00,0.0181
951.00,0.0174
950.00,0.0170
949.00,0.0166
948.00,0.0163
947.00,0.0160
946.00,0.0158
945.00,0.0155
944.00,0.0153
943.00,0.0151
942.00,0.0151
941.00,0.0150
940.00,0.0148
939.00,0.0148
938.00,0.0147
937.00,0.0147
936.00,0.0147
935.00,0.0147
934.00,0.0148
933.00,0.0150
932.00,0.0153
931.00,0.0156
930.00,0.0159
929.00,0.0162
928.00,0.0163
927.00,0.0162
926.00,0.0162
925.00,0.0162
924.00,0.0161
923.00,0.0161
922.00,0.0161
921.00,0.0162
920.00,0.0164
919.00,0.0168
918.00,0.0174
917.00,0.0180
916.00,0.0185
915.00,0.0188
914.00,0.0190
913.00,0.0189
912.00,0.0187
911.00,0.0186
910.00,0.0188
909.00,0.0193
908.00,0.0202
907.00,0.0215
906.00,0.0233
905.00,0.0255
904.00,0.0278
903.00,0.0307
902.00,0.0343
901.00,0.0391
900.00,0.0454
899.00,0.0531
898.00,0.0610
897.00,0.0670
896.00,0.0693
895.00,0.0673
894.00,0.0622
893.00,0.0557
892.00,0.0497
891.00,0.0450
890.00,0.0424
889.00,0.0422
888.00,0.0448
887.00,0.0506
886.00,0.0589
885.00,0.0680
884.00,0.0746
883.00,0.0760
882.00,0.0714
881.00,0.0629
880.00,0.0532
879.00,0.0449
878.00,0.0386
877.00,0.0344
876.00,0.0317
875.00,0.0302
874.00,0.0297
873.00,0.0301
872.00,0.0312
871.00,0.0327
870.00,0.0339
869.00,0.0343
868.00,0.0338
867.00,0.0330
866.00,0.0330
865.00,0.0341
864.00,0.0363
863.00,0.0391
862.00,0.0414
861.00,0.0426
860.00,0.0425
859.00,0.0419
858.00,0.0416
857.00,0.0420
856.00,0.0430
855.00,0.0443
854.00,0.0458
853.00,0.0470
852.00,0.0478
851.00,0.0480
850.00,0.0475
849.00,0.0460
848.00,0.0438
847.00,0.0417
846.00,0.0400
845.00,0.0389
844.00,0.0381
843.00,0.0376
842.00,0.0370
841.00,0.0363
840.00,0.0356
839.00,0.0353
838.00,0.0355
837.00,0.0360
836.00,0.0369
835.00,0.0381
834.00,0.0397
833.00,0.0415
832.00,0.0434
831.00,0.0451
830.00,0.0466
829.00,0.0477
828.00,0.0480
827.00,0.0474
826.00,0.0459
825.00,0.0435
824.00,0.0406
823.00,0.0375
822.00,0.0346
821.00,0.0318
820.00,0.0292
819.00,0.0269
818.00,0.0252
817.00,0.0238
816.00,0.0229
815.00,0.0222
814.00,0.0217
813.00,0.0213
812.00,0.0209
811.00,0.0208
810.00,0.0213
809.00,0.0227
808.00,0.0253
807.00,0.0292
806.00,0.0337
805.00,0.0374
804.00,0.0389
803.00,0.0378
802.00,0.0349
801.00,0.0315
800.00,0.0284
799.00,0.0258
798.00,0.0240
797.00,0.0225
796.00,0.0214
795.00,0.0207
794.00,0.0203
793.00,0.0201
792.00,0.0199
791.00,0.0197
790.00,0.0195
789.00,0.0194
788.00,0.0193
787.00,0.0194
786.00,0.0196
785.00,0.0196
784.00,0.0193
783.00,0.0188
782.00,0.0183
781.00,0.0179
780.00,0.0177
779.00,0.0176
778.00,0.0176
777.00,0.0176
776.00,0.0174
775.00,0.0172
774.00,0.0171
773.00,0.0171
772.00,0.0171
771.00,0.0172
770.00,0.0172
769.00,0.0171
768.00,0.0167
767.00,0.0163
766.00,0.0158
765.00,0.0154
764.00,0.0149
763.00,0.0146
762.00,0.0144
761.00,0.0143
760.00,0.0143
759.00,0.0143
758.00,0.0146
757.00,0.0150
756.00,0.0155
755.00,0.0163
754.00,0.0175
753.00,0.0188
752.00,0.0198
751.00,0.0206
750.00,0.0212
749.00,0.0215
748.00,0.0214
747.00,0.0207
746.00,0.0195
745.00,0.0182
744.00,0.0169
743.00,0.0160
742.00,0.0154
741.00,0.0151
740.00,0.0148
739.00,0.0147
738.00,0.0148
737.00,0.0150
736.00,0.0153
735.00,0.0159
734.00,0.0169
733.00,0.0181
732.00,0.0193
731.00,0.0200
730.00,0.0200
729.00,0.0193
728.00,0.0183
727.00,0.0173
726.00,0.0168
725.00,0.0164
724.00,0.0161
723.00,0.0159
722.00,0.0157
721.00,0.0157
720.00,0.0156
719.00,0.0154
718.00,0.0153
717.00,0.0150
716.00,0.0145
715.00,0.0141
714.00,0.0139
713.00,0.0137
712.00,0.0136
711.00,0.0136
710.00,0.0136
709.00,0.0134
708.00,0.0131
707.00,0.0128
706.00,0.0126
705.00,0.0124
704.00,0.0123
703.00,0.0122
702.00,0.0122
701.00,0.0122
700.00,0.0121
699.00,0.0120
698.00,0.0120
697.00,0.0120
696.00,0.0120
695.00,0.0120
694.00,0.0121
693.00,0.0121
692.00,0.0121
691.00,0.0120
690.00,0.0120
689.00,0.0121
688.00,0.0121
687.00,0.0122
686.00,0.0124
685.00,0.0125
684.00,0.0126
683.00,0.0127
682.00,0.0129
681.00,0.0131
680.00,0.0132
679.00,0.0134
678.00,0.0136
677.00,0.0140
676.00,0.0143
675.00,0.0147
674.00,0.0153
673.00,0.0160
672.00,0.0166
671.00,0.0174
670.00,0.0181
669.00,0.0187
668.00,0.0191
667.00,0.0196
666.00,0.0201
665.00,0.0206
664.00,0.0209
663.00,0.0212
662.00,0.0214
661.00,0.0214
660.00,0.0213
659.00,0.0213
658.00,0.0213
657.00,0.0212
656.00,0.0209
655.00,0.0206
654.00,0.0205
653.00,0.0207
652.00,0.0210
651.00,0.0216
650.00,0.0223
649.00,0.0228
648.00,0.0229
647.00,0.0225
646.00,0.0219
645.00,0.0210
644.00,0.0200
643.00,0.0191
642.00,0.0184
641.00,0.0178
640.00,0.0173
639.00,0.0171
638.00,0.0171
637.00,0.0172
636.00,0.0173
635.00,0.0174
634.00,0.0176
633.00,0.0178
632.00,0.0179
631.00,0.0183
630.00,0.0188
629.00,0.0193
628.00,0.0197
627.00,0.0201
626.00,0.0205
625.00,0.0208
624.00,0.0209
623.00,0.0209
622.00,0.0208
621.00,0.0204
620.00,0.0196
619.00,0.0186
618.00,0.0178
617.00,0.0172
616.00,0.0171
615.00,0.0176
614.00,0.0190
613.00,0.0208
612.00,0.0225
611.00,0.0236
610.00,0.0239
609.00,0.0236
608.00,0.0230
607.00,0.0226
606.00,0.0227
605.00,0.0231
604.00,0.0234
603.00,0.0238
602.00,0.0244
601.00,0.0252
600.00,0.0259
599.00,0.0266
598.00,0.0271
597.00,0.0272
596.00,0.0270
595.00,0.0268
594.00,0.0270
593.00,0.0277
592.00,0.0287
591.00,0.0301
590.00,0.0319
589.00,0.0336
588.00,0.0348
587.00,0.0357
586.00,0.0359
585.00,0.0355
584.00,0.0343
583.00,0.0329
582.00,0.0314
581.00,0.0300
580.00,0.0285
579.00,0.0273
578.00,0.0266
577.00,0.0261
576.00,0.0259
575.00,0.0260
574.00,0.0265
573.00,0.0270
572.00,0.0273
571.00,0.0277
570.00,0.0284
569.00,0.0290
568.00,0.0292
567.00,0.0294
566.00,0.0297
565.00,0.0299
564.00,0.0299
563.00,0.0300
562.00,0.0302
561.00,0.0303
560.00,0.0302
559.00,0.0301
558.00,0.0303
557.00,0.0304
556.00,0.0304
555.00,0.0305
554.00,0.0309
553.00,0.0314
552.00,0.0319
551.00,0.0324
550.00,0.0331
549.00,0.0336
548.00,0.0341
547.00,0.0349
546.00,0.0362
545.00,0.0373
544.00,0.0379
543.00,0.0383
542.00,0.0389
541.00,0.0397
540.00,0.0409
539.00,0.0427
538.00,0.0451
537.00,0.0473
536.00,0.0486
535.00,0.0488
534.00,0.0483
533.00,0.0472
532.00,0.0459
531.00,0.0448
530.00,0.0441
529.00,0.0438
528.00,0.0440
527.00,0.0455
526.00,0.0481
525.00,0.0513
524.00,0.0543
523.00,0.0567
522.00,0.0580
521.00,0.0573
520.00,0.0542
519.00,0.0498
518.00,0.0455
517.00,0.0418
516.00,0.0391
515.00,0.0374
514.00,0.0367
513.00,0.0365
512.00,0.0365
511.00,0.0368
510.00,0.0376
509.00,0.0387
508.00,0.0401
507.00,0.0418
506.00,0.0441
505.00,0.0464
504.00,0.0485
503.00,0.0507
502.00,0.0533
501.00,0.0559
500.00,0.0580
499.00,0.0600
498.00,0.0619
497.00,0.0634
496.00,0.0642
495.00,0.0644
494.00,0.0646
493.00,0.0644
492.00,0.0637
491.00,0.0629
490.00,0.0623
489.00,0.0616
488.00,0.0608
487.00,0.0600
486.00,0.0597
485.00,0.0591
484.00,0.0582
483.00,0.0571
482.00,0.0563
481.00,0.0551
480.00,0.0535
479.00,0.0520
478.00,0.0511
477.00,0.0504
476.00,0.0498
475.00,0.0497
474.00,0.0504
473.00,0.0511
472.00,0.0515
471.00,0.0520
470.00,0.0529
469.00,0.0539
468.00,0.0546
467.00,0.0553
466.00,0.0561
465.00,0.0563
464.00,0.0558
463.00,0.0553
462.00,0.0553
461.00,0.0552
460.00,0.0545
459.00,0.0539
458.00,0.0538
457.00,0.0539
456.00,0.0535
455.00,0.0532
454.00,0.0533
453.00,0.0531
452.00,0.0522
451.00,0.0513
450.00,0.0509
449.00,0.0505
448.00,0.0495
447.00,0.0484
446.00,0.0477
445.00,0.0469
444.00,0.0458
443.00,0.0449
442.00,0.0448
441.00,0.0447
440.00,0.0441
439.00,0.0435
438.00,0.0435
437.00,0.0435
436.00,0.0430
435.00,0.0427
434.00,0.0429
433.00,0.0432
432.00,0.0432
431.00,0.0435
430.00,0.0448
429.00,0.0465
428.00,0.0480
427.00,0.0501
426.00,0.0529
425.00,0.0550
424.00,0.0553
423.00,0.0547
422.00,0.0545
421.00,0.0543
420.00,0.0530
419.00,0.0517
418.00,0.0514
417.00,0.0515
416.00,0.0512
415.00,0.0514
414.00,0.0525
413.00,0.0530
412.00,0.0523
411.00,0.0520
410.00,0.0536
409.00,0.0560
408.00,0.0573
407.00,0.0583
406.00,0.0598
405.00,0.0607
404.00,0.0605
403.00,0.0608
402.00,0.0630
401.00,0.0654
400.00,0.0660
