Created as New Dataset,Sample 779 By YargerLab Date Monday, July 07 2025
cm-1,A
4000.00,0.0054
3999.00,0.0054
3998.00,0.0054
3997.00,0.0054
3996.00,0.0054
3995.00,0.0054
3994.00,0.0054
3993.00,0.0053
3992.00,0.0053
3991.00,0.0053
3990.00,0.0053
3989.00,0.0053
3988.00,0.0054
3987.00,0.0054
3986.00,0.0054
3985.00,0.0054
3984.00,0.0054
3983.00,0.0054
3982.00,0.0053
3981.00,0.0053
3980.00,0.0053
3979.00,0.0053
3978.00,0.0053
3977.00,0.0053
3976.00,0.0054
3975.00,0.0054
3974.00,0.0054
3973.00,0.0054
3972.00,0.0054
3971.00,0.0054
3970.00,0.0054
3969.00,0.0054
3968.00,0.0054
3967.00,0.0054
3966.00,0.0054
3965.00,0.0054
3964.00,0.0054
3963.00,0.0054
3962.00,0.0054
3961.00,0.0053
3960.00,0.0053
3959.00,0.0053
3958.00,0.0053
3957.00,0.0053
3956.00,0.0053
3955.00,0.0053
3954.00,0.0053
3953.00,0.0053
3952.00,0.0053
3951.00,0.0053
3950.00,0.0053
3949.00,0.0053
3948.00,0.0053
3947.00,0.0053
3946.00,0.0053
3945.00,0.0053
3944.00,0.0053
3943.00,0.0053
3942.00,0.0053
3941.00,0.0053
3940.00,0.0053
3939.00,0.0053
3938.00,0.0053
3937.00,0.0053
3936.00,0.0053
3935.00,0.0053
3934.00,0.0053
3933.00,0.0053
3932.00,0.0053
3931.00,0.0053
3930.00,0.0053
3929.00,0.0053
3928.00,0.0053
3927.00,0.0053
3926.00,0.0053
3925.00,0.0053
3924.00,0.0053
3923.00,0.0053
3922.00,0.0054
3921.00,0.0054
3920.00,0.0054
3919.00,0.0054
3918.00,0.0054
3917.00,0.0054
3916.00,0.0054
3915.00,0.0053
3914.00,0.0053
3913.00,0.0053
3912.00,0.0053
3911.00,0.0053
3910.00,0.0053
3909.00,0.0053
3908.00,0.0053
3907.00,0.0054
3906.00,0.0054
3905.00,0.0054
3904.00,0.0054
3903.00,0.0054
3902.00,0.0054
3901.00,0.0055
3900.00,0.0055
3899.00,0.0054
3898.00,0.0054
3897.00,0.0054
3896.00,0.0054
3895.00,0.0054
3894.00,0.0054
3893.00,0.0054
3892.00,0.0054
3891.00,0.0054
3890.00,0.0054
3889.00,0.0054
3888.00,0.0054
3887.00,0.0054
3886.00,0.0054
3885.00,0.0053
3884.00,0.0053
3883.00,0.0054
3882.00,0.0054
3881.00,0.0054
3880.00,0.0053
3879.00,0.0053
3878.00,0.0054
3877.00,0.0054
3876.00,0.0054
3875.00,0.0054
3874.00,0.0053
3873.00,0.0054
3872.00,0.0054
3871.00,0.0054
3870.00,0.0053
3869.00,0.0053
3868.00,0.0053
3867.00,0.0054
3866.00,0.0054
3865.00,0.0054
3864.00,0.0054
3863.00,0.0054
3862.00,0.0054
3861.00,0.0053
3860.00,0.0053
3859.00,0.0053
3858.00,0.0054
3857.00,0.0054
3856.00,0.0054
3855.00,0.0054
3854.00,0.0054
3853.00,0.0053
3852.00,0.0054
3851.00,0.0054
3850.00,0.0054
3849.00,0.0054
3848.00,0.0053
3847.00,0.0053
3846.00,0.0053
3845.00,0.0054
3844.00,0.0053
3843.00,0.0053
3842.00,0.0053
3841.00,0.0053
3840.00,0.0054
3839.00,0.0053
3838.00,0.0053
3837.00,0.0053
3836.00,0.0053
3835.00,0.0053
3834.00,0.0053
3833.00,0.0053
3832.00,0.0053
3831.00,0.0053
3830.00,0.0053
3829.00,0.0053
3828.00,0.0053
3827.00,0.0053
3826.00,0.0053
3825.00,0.0054
3824.00,0.0054
3823.00,0.0055
3822.00,0.0055
3821.00,0.0054
3820.00,0.0054
3819.00,0.0055
3818.00,0.0055
3817.00,0.0054
3816.00,0.0054
3815.00,0.0054
3814.00,0.0054
3813.00,0.0054
3812.00,0.0054
3811.00,0.0054
3810.00,0.0054
3809.00,0.0054
3808.00,0.0054
3807.00,0.0054
3806.00,0.0053
3805.00,0.0054
3804.00,0.0054
3803.00,0.0054
3802.00,0.0053
3801.00,0.0053
3800.00,0.0053
3799.00,0.0053
3798.00,0.0054
3797.00,0.0053
3796.00,0.0053
3795.00,0.0053
3794.00,0.0053
3793.00,0.0053
3792.00,0.0053
3791.00,0.0053
3790.00,0.0053
3789.00,0.0052
3788.00,0.0052
3787.00,0.0053
3786.00,0.0053
3785.00,0.0053
3784.00,0.0053
3783.00,0.0053
3782.00,0.0053
3781.00,0.0053
3780.00,0.0053
3779.00,0.0053
3778.00,0.0053
3777.00,0.0053
3776.00,0.0053
3775.00,0.0053
3774.00,0.0053
3773.00,0.0053
3772.00,0.0054
3771.00,0.0054
3770.00,0.0054
3769.00,0.0054
3768.00,0.0054
3767.00,0.0054
3766.00,0.0054
3765.00,0.0054
3764.00,0.0054
3763.00,0.0054
3762.00,0.0054
3761.00,0.0054
3760.00,0.0054
3759.00,0.0054
3758.00,0.0054
3757.00,0.0054
3756.00,0.0054
3755.00,0.0054
3754.00,0.0054
3753.00,0.0055
3752.00,0.0055
3751.00,0.0055
3750.00,0.0055
3749.00,0.0055
3748.00,0.0055
3747.00,0.0055
3746.00,0.0056
3745.00,0.0055
3744.00,0.0055
3743.00,0.0054
3742.00,0.0054
3741.00,0.0054
3740.00,0.0053
3739.00,0.0053
3738.00,0.0053
3737.00,0.0053
3736.00,0.0053
3735.00,0.0053
3734.00,0.0053
3733.00,0.0053
3732.00,0.0053
3731.00,0.0053
3730.00,0.0053
3729.00,0.0053
3728.00,0.0053
3727.00,0.0053
3726.00,0.0053
3725.00,0.0053
3724.00,0.0053
3723.00,0.0053
3722.00,0.0053
3721.00,0.0053
3720.00,0.0053
3719.00,0.0053
3718.00,0.0053
3717.00,0.0053
3716.00,0.0053
3715.00,0.0053
3714.00,0.0053
3713.00,0.0053
3712.00,0.0053
3711.00,0.0053
3710.00,0.0053
3709.00,0.0053
3708.00,0.0053
3707.00,0.0053
3706.00,0.0053
3705.00,0.0053
3704.00,0.0053
3703.00,0.0053
3702.00,0.0053
3701.00,0.0053
3700.00,0.0053
3699.00,0.0054
3698.00,0.0054
3697.00,0.0054
3696.00,0.0054
3695.00,0.0054
3694.00,0.0055
3693.00,0.0055
3692.00,0.0056
3691.00,0.0057
3690.00,0.0057
3689.00,0.0058
3688.00,0.0058
3687.00,0.0058
3686.00,0.0058
3685.00,0.0059
3684.00,0.0059
3683.00,0.0059
3682.00,0.0060
3681.00,0.0060
3680.00,0.0061
3679.00,0.0061
3678.00,0.0062
3677.00,0.0062
3676.00,0.0063
3675.00,0.0063
3674.00,0.0064
3673.00,0.0065
3672.00,0.0065
3671.00,0.0065
3670.00,0.0065
3669.00,0.0066
3668.00,0.0066
3667.00,0.0067
3666.00,0.0067
3665.00,0.0068
3664.00,0.0068
3663.00,0.0069
3662.00,0.0070
3661.00,0.0071
3660.00,0.0072
3659.00,0.0072
3658.00,0.0073
3657.00,0.0074
3656.00,0.0074
3655.00,0.0075
3654.00,0.0076
3653.00,0.0077
3652.00,0.0078
3651.00,0.0080
3650.00,0.0080
3649.00,0.0081
3648.00,0.0082
3647.00,0.0083
3646.00,0.0083
3645.00,0.0084
3644.00,0.0084
3643.00,0.0085
3642.00,0.0086
3641.00,0.0087
3640.00,0.0088
3639.00,0.0090
3638.00,0.0091
3637.00,0.0092
3636.00,0.0093
3635.00,0.0094
3634.00,0.0095
3633.00,0.0096
3632.00,0.0097
3631.00,0.0099
3630.00,0.0101
3629.00,0.0102
3628.00,0.0103
3627.00,0.0105
3626.00,0.0106
3625.00,0.0107
3624.00,0.0108
3623.00,0.0109
3622.00,0.0110
3621.00,0.0112
3620.00,0.0113
3619.00,0.0115
3618.00,0.0117
3617.00,0.0119
3616.00,0.0120
3615.00,0.0122
3614.00,0.0124
3613.00,0.0126
3612.00,0.0127
3611.00,0.0129
3610.00,0.0131
3609.00,0.0132
3608.00,0.0134
3607.00,0.0136
3606.00,0.0138
3605.00,0.0140
3604.00,0.0142
3603.00,0.0144
3602.00,0.0145
3601.00,0.0147
3600.00,0.0148
3599.00,0.0150
3598.00,0.0151
3597.00,0.0153
3596.00,0.0156
3595.00,0.0158
3594.00,0.0160
3593.00,0.0163
3592.00,0.0165
3591.00,0.0167
3590.00,0.0169
3589.00,0.0171
3588.00,0.0173
3587.00,0.0176
3586.00,0.0179
3585.00,0.0181
3584.00,0.0183
3583.00,0.0186
3582.00,0.0188
3581.00,0.0190
3580.00,0.0193
3579.00,0.0195
3578.00,0.0198
3577.00,0.0200
3576.00,0.0203
3575.00,0.0205
3574.00,0.0208
3573.00,0.0210
3572.00,0.0213
3571.00,0.0215
3570.00,0.0218
3569.00,0.0220
3568.00,0.0223
3567.00,0.0226
3566.00,0.0229
3565.00,0.0232
3564.00,0.0234
3563.00,0.0237
3562.00,0.0239
3561.00,0.0241
3560.00,0.0244
3559.00,0.0246
3558.00,0.0249
3557.00,0.0251
3556.00,0.0254
3555.00,0.0256
3554.00,0.0259
3553.00,0.0262
3552.00,0.0264
3551.00,0.0267
3550.00,0.0269
3549.00,0.0271
3548.00,0.0274
3547.00,0.0276
3546.00,0.0279
3545.00,0.0282
3544.00,0.0284
3543.00,0.0286
3542.00,0.0289
3541.00,0.0291
3540.00,0.0292
3539.00,0.0294
3538.00,0.0296
3537.00,0.0298
3536.00,0.0300
3535.00,0.0302
3534.00,0.0304
3533.00,0.0306
3532.00,0.0308
3531.00,0.0310
3530.00,0.0312
3529.00,0.0314
3528.00,0.0316
3527.00,0.0318
3526.00,0.0320
3525.00,0.0322
3524.00,0.0323
3523.00,0.0325
3522.00,0.0327
3521.00,0.0328
3520.00,0.0330
3519.00,0.0331
3518.00,0.0333
3517.00,0.0335
3516.00,0.0336
3515.00,0.0338
3514.00,0.0340
3513.00,0.0341
3512.00,0.0342
3511.00,0.0343
3510.00,0.0344
3509.00,0.0346
3508.00,0.0347
3507.00,0.0349
3506.00,0.0351
3505.00,0.0352
3504.00,0.0354
3503.00,0.0355
3502.00,0.0356
3501.00,0.0357
3500.00,0.0358
3499.00,0.0359
3498.00,0.0360
3497.00,0.0361
3496.00,0.0362
3495.00,0.0363
3494.00,0.0364
3493.00,0.0365
3492.00,0.0366
3491.00,0.0367
3490.00,0.0369
3489.00,0.0370
3488.00,0.0371
3487.00,0.0372
3486.00,0.0373
3485.00,0.0374
3484.00,0.0375
3483.00,0.0376
3482.00,0.0377
3481.00,0.0378
3480.00,0.0379
3479.00,0.0380
3478.00,0.0381
3477.00,0.0382
3476.00,0.0383
3475.00,0.0384
3474.00,0.0385
3473.00,0.0386
3472.00,0.0387
3471.00,0.0388
3470.00,0.0389
3469.00,0.0390
3468.00,0.0391
3467.00,0.0391
3466.00,0.0392
3465.00,0.0393
3464.00,0.0394
3463.00,0.0395
3462.00,0.0395
3461.00,0.0396
3460.00,0.0397
3459.00,0.0398
3458.00,0.0398
3457.00,0.0399
3456.00,0.0400
3455.00,0.0401
3454.00,0.0401
3453.00,0.0402
3452.00,0.0403
3451.00,0.0403
3450.00,0.0404
3449.00,0.0404
3448.00,0.0405
3447.00,0.0406
3446.00,0.0406
3445.00,0.0407
3444.00,0.0407
3443.00,0.0408
3442.00,0.0408
3441.00,0.0409
3440.00,0.0409
3439.00,0.0410
3438.00,0.0411
3437.00,0.0411
3436.00,0.0412
3435.00,0.0412
3434.00,0.0412
3433.00,0.0413
3432.00,0.0413
3431.00,0.0414
3430.00,0.0414
3429.00,0.0414
3428.00,0.0414
3427.00,0.0415
3426.00,0.0415
3425.00,0.0415
3424.00,0.0415
3423.00,0.0415
3422.00,0.0415
3421.00,0.0415
3420.00,0.0415
3419.00,0.0415
3418.00,0.0416
3417.00,0.0416
3416.00,0.0416
3415.00,0.0416
3414.00,0.0416
3413.00,0.0416
3412.00,0.0416
3411.00,0.0416
3410.00,0.0416
3409.00,0.0415
3408.00,0.0415
3407.00,0.0415
3406.00,0.0415
3405.00,0.0415
3404.00,0.0415
3403.00,0.0415
3402.00,0.0414
3401.00,0.0414
3400.00,0.0413
3399.00,0.0413
3398.00,0.0412
3397.00,0.0411
3396.00,0.0411
3395.00,0.0410
3394.00,0.0410
3393.00,0.0409
3392.00,0.0408
3391.00,0.0408
3390.00,0.0407
3389.00,0.0406
3388.00,0.0405
3387.00,0.0404
3386.00,0.0403
3385.00,0.0402
3384.00,0.0401
3383.00,0.0400
3382.00,0.0399
3381.00,0.0399
3380.00,0.0397
3379.00,0.0396
3378.00,0.0395
3377.00,0.0394
3376.00,0.0393
3375.00,0.0392
3374.00,0.0391
3373.00,0.0390
3372.00,0.0388
3371.00,0.0386
3370.00,0.0385
3369.00,0.0383
3368.00,0.0382
3367.00,0.0381
3366.00,0.0381
3365.00,0.0380
3364.00,0.0379
3363.00,0.0378
3362.00,0.0377
3361.00,0.0376
3360.00,0.0375
3359.00,0.0374
3358.00,0.0373
3357.00,0.0372
3356.00,0.0371
3355.00,0.0369
3354.00,0.0367
3353.00,0.0365
3352.00,0.0363
3351.00,0.0362
3350.00,0.0361
3349.00,0.0361
3348.00,0.0360
3347.00,0.0360
3346.00,0.0358
3345.00,0.0357
3344.00,0.0356
3343.00,0.0355
3342.00,0.0354
3341.00,0.0352
3340.00,0.0351
3339.00,0.0350
3338.00,0.0349
3337.00,0.0348
3336.00,0.0348
3335.00,0.0348
3334.00,0.0347
3333.00,0.0347
3332.00,0.0346
3331.00,0.0345
3330.00,0.0344
3329.00,0.0342
3328.00,0.0341
3327.00,0.0339
3326.00,0.0338
3325.00,0.0338
3324.00,0.0337
3323.00,0.0337
3322.00,0.0337
3321.00,0.0337
3320.00,0.0337
3319.00,0.0336
3318.00,0.0336
3317.00,0.0335
3316.00,0.0335
3315.00,0.0334
3314.00,0.0333
3313.00,0.0332
3312.00,0.0331
3311.00,0.0329
3310.00,0.0327
3309.00,0.0325
3308.00,0.0324
3307.00,0.0323
3306.00,0.0322
3305.00,0.0323
3304.00,0.0324
3303.00,0.0325
3302.00,0.0326
3301.00,0.0326
3300.00,0.0326
3299.00,0.0324
3298.00,0.0323
3297.00,0.0321
3296.00,0.0319
3295.00,0.0318
3294.00,0.0318
3293.00,0.0317
3292.00,0.0318
3291.00,0.0319
3290.00,0.0319
3289.00,0.0320
3288.00,0.0320
3287.00,0.0320
3286.00,0.0319
3285.00,0.0319
3284.00,0.0318
3283.00,0.0317
3282.00,0.0316
3281.00,0.0315
3280.00,0.0314
3279.00,0.0313
3278.00,0.0312
3277.00,0.0311
3276.00,0.0309
3275.00,0.0307
3274.00,0.0306
3273.00,0.0304
3272.00,0.0302
3271.00,0.0301
3270.00,0.0301
3269.00,0.0301
3268.00,0.0301
3267.00,0.0301
3266.00,0.0300
3265.00,0.0299
3264.00,0.0298
3263.00,0.0297
3262.00,0.0296
3261.00,0.0295
3260.00,0.0294
3259.00,0.0292
3258.00,0.0290
3257.00,0.0289
3256.00,0.0287
3255.00,0.0286
3254.00,0.0285
3253.00,0.0284
3252.00,0.0283
3251.00,0.0282
3250.00,0.0280
3249.00,0.0278
3248.00,0.0276
3247.00,0.0275
3246.00,0.0274
3245.00,0.0273
3244.00,0.0272
3243.00,0.0271
3242.00,0.0270
3241.00,0.0269
3240.00,0.0267
3239.00,0.0266
3238.00,0.0265
3237.00,0.0263
3236.00,0.0261
3235.00,0.0259
3234.00,0.0257
3233.00,0.0256
3232.00,0.0255
3231.00,0.0254
3230.00,0.0253
3229.00,0.0252
3228.00,0.0250
3227.00,0.0249
3226.00,0.0247
3225.00,0.0246
3224.00,0.0245
3223.00,0.0243
3222.00,0.0242
3221.00,0.0240
3220.00,0.0239
3219.00,0.0237
3218.00,0.0236
3217.00,0.0234
3216.00,0.0233
3215.00,0.0231
3214.00,0.0230
3213.00,0.0229
3212.00,0.0228
3211.00,0.0226
3210.00,0.0225
3209.00,0.0224
3208.00,0.0222
3207.00,0.0221
3206.00,0.0219
3205.00,0.0217
3204.00,0.0216
3203.00,0.0214
3202.00,0.0213
3201.00,0.0212
3200.00,0.0211
3199.00,0.0210
3198.00,0.0208
3197.00,0.0207
3196.00,0.0206
3195.00,0.0204
3194.00,0.0203
3193.00,0.0202
3192.00,0.0200
3191.00,0.0199
3190.00,0.0198
3189.00,0.0197
3188.00,0.0195
3187.00,0.0194
3186.00,0.0193
3185.00,0.0192
3184.00,0.0191
3183.00,0.0189
3182.00,0.0188
3181.00,0.0187
3180.00,0.0186
3179.00,0.0185
3178.00,0.0184
3177.00,0.0182
3176.00,0.0181
3175.00,0.0180
3174.00,0.0179
3173.00,0.0178
3172.00,0.0178
3171.00,0.0177
3170.00,0.0176
3169.00,0.0175
3168.00,0.0174
3167.00,0.0173
3166.00,0.0172
3165.00,0.0171
3164.00,0.0170
3163.00,0.0169
3162.00,0.0168
3161.00,0.0167
3160.00,0.0167
3159.00,0.0166
3158.00,0.0164
3157.00,0.0163
3156.00,0.0162
3155.00,0.0162
3154.00,0.0161
3153.00,0.0160
3152.00,0.0159
3151.00,0.0158
3150.00,0.0158
3149.00,0.0157
3148.00,0.0156
3147.00,0.0155
3146.00,0.0154
3145.00,0.0153
3144.00,0.0153
3143.00,0.0152
3142.00,0.0151
3141.00,0.0150
3140.00,0.0150
3139.00,0.0149
3138.00,0.0148
3137.00,0.0147
3136.00,0.0147
3135.00,0.0146
3134.00,0.0145
3133.00,0.0144
3132.00,0.0143
3131.00,0.0143
3130.00,0.0142
3129.00,0.0142
3128.00,0.0141
3127.00,0.0141
3126.00,0.0140
3125.00,0.0139
3124.00,0.0138
3123.00,0.0138
3122.00,0.0137
3121.00,0.0137
3120.00,0.0136
3119.00,0.0135
3118.00,0.0135
3117.00,0.0134
3116.00,0.0134
3115.00,0.0134
3114.00,0.0133
3113.00,0.0133
3112.00,0.0132
3111.00,0.0132
3110.00,0.0131
3109.00,0.0130
3108.00,0.0130
3107.00,0.0130
3106.00,0.0129
3105.00,0.0129
3104.00,0.0128
3103.00,0.0128
3102.00,0.0127
3101.00,0.0127
3100.00,0.0126
3099.00,0.0126
3098.00,0.0125
3097.00,0.0125
3096.00,0.0124
3095.00,0.0124
3094.00,0.0123
3093.00,0.0123
3092.00,0.0122
3091.00,0.0122
3090.00,0.0121
3089.00,0.0121
3088.00,0.0120
3087.00,0.0120
3086.00,0.0119
3085.00,0.0119
3084.00,0.0118
3083.00,0.0118
3082.00,0.0117
3081.00,0.0117
3080.00,0.0116
3079.00,0.0116
3078.00,0.0116
3077.00,0.0116
3076.00,0.0115
3075.00,0.0115
3074.00,0.0114
3073.00,0.0114
3072.00,0.0113
3071.00,0.0113
3070.00,0.0113
3069.00,0.0113
3068.00,0.0112
3067.00,0.0112
3066.00,0.0112
3065.00,0.0112
3064.00,0.0111
3063.00,0.0111
3062.00,0.0111
3061.00,0.0110
3060.00,0.0110
3059.00,0.0110
3058.00,0.0109
3057.00,0.0109
3056.00,0.0109
3055.00,0.0108
3054.00,0.0108
3053.00,0.0108
3052.00,0.0107
3051.00,0.0107
3050.00,0.0107
3049.00,0.0106
3048.00,0.0106
3047.00,0.0106
3046.00,0.0105
3045.00,0.0105
3044.00,0.0105
3043.00,0.0105
3042.00,0.0105
3041.00,0.0105
3040.00,0.0105
3039.00,0.0105
3038.00,0.0105
3037.00,0.0105
3036.00,0.0105
3035.00,0.0105
3034.00,0.0105
3033.00,0.0105
3032.00,0.0105
3031.00,0.0105
3030.00,0.0105
3029.00,0.0105
3028.00,0.0106
3027.00,0.0106
3026.00,0.0106
3025.00,0.0106
3024.00,0.0107
3023.00,0.0107
3022.00,0.0107
3021.00,0.0107
3020.00,0.0108
3019.00,0.0109
3018.00,0.0109
3017.00,0.0110
3016.00,0.0111
3015.00,0.0112
3014.00,0.0113
3013.00,0.0115
3012.00,0.0117
3011.00,0.0119
3010.00,0.0120
3009.00,0.0123
3008.00,0.0125
3007.00,0.0127
3006.00,0.0130
3005.00,0.0133
3004.00,0.0136
3003.00,0.0139
3002.00,0.0143
3001.00,0.0147
3000.00,0.0151
2999.00,0.0155
2998.00,0.0159
2997.00,0.0163
2996.00,0.0168
2995.00,0.0172
2994.00,0.0177
2993.00,0.0181
2992.00,0.0186
2991.00,0.0191
2990.00,0.0196
2989.00,0.0200
2988.00,0.0204
2987.00,0.0209
2986.00,0.0213
2985.00,0.0217
2984.00,0.0220
2983.00,0.0224
2982.00,0.0227
2981.00,0.0230
2980.00,0.0233
2979.00,0.0236
2978.00,0.0240
2977.00,0.0243
2976.00,0.0246
2975.00,0.0250
2974.00,0.0253
2973.00,0.0256
2972.00,0.0260
2971.00,0.0264
2970.00,0.0268
2969.00,0.0271
2968.00,0.0275
2967.00,0.0278
2966.00,0.0282
2965.00,0.0285
2964.00,0.0289
2963.00,0.0292
2962.00,0.0295
2961.00,0.0298
2960.00,0.0300
2959.00,0.0302
2958.00,0.0304
2957.00,0.0305
2956.00,0.0307
2955.00,0.0307
2954.00,0.0308
2953.00,0.0308
2952.00,0.0308
2951.00,0.0307
2950.00,0.0307
2949.00,0.0305
2948.00,0.0303
2947.00,0.0301
2946.00,0.0299
2945.00,0.0297
2944.00,0.0295
2943.00,0.0293
2942.00,0.0291
2941.00,0.0289
2940.00,0.0288
2939.00,0.0286
2938.00,0.0285
2937.00,0.0285
2936.00,0.0284
2935.00,0.0284
2934.00,0.0284
2933.00,0.0284
2932.00,0.0285
2931.00,0.0285
2930.00,0.0286
2929.00,0.0288
2928.00,0.0289
2927.00,0.0291
2926.00,0.0292
2925.00,0.0293
2924.00,0.0293
2923.00,0.0293
2922.00,0.0293
2921.00,0.0292
2920.00,0.0291
2919.00,0.0289
2918.00,0.0287
2917.00,0.0284
2916.00,0.0282
2915.00,0.0278
2914.00,0.0275
2913.00,0.0272
2912.00,0.0269
2911.00,0.0265
2910.00,0.0262
2909.00,0.0260
2908.00,0.0257
2907.00,0.0255
2906.00,0.0253
2905.00,0.0252
2904.00,0.0252
2903.00,0.0251
2902.00,0.0251
2901.00,0.0251
2900.00,0.0251
2899.00,0.0252
2898.00,0.0252
2897.00,0.0253
2896.00,0.0253
2895.00,0.0254
2894.00,0.0254
2893.00,0.0255
2892.00,0.0255
2891.00,0.0255
2890.00,0.0255
2889.00,0.0255
2888.00,0.0255
2887.00,0.0255
2886.00,0.0254
2885.00,0.0254
2884.00,0.0254
2883.00,0.0253
2882.00,0.0253
2881.00,0.0253
2880.00,0.0252
2879.00,0.0252
2878.00,0.0251
2877.00,0.0250
2876.00,0.0248
2875.00,0.0246
2874.00,0.0245
2873.00,0.0244
2872.00,0.0243
2871.00,0.0242
2870.00,0.0242
2869.00,0.0241
2868.00,0.0239
2867.00,0.0238
2866.00,0.0236
2865.00,0.0234
2864.00,0.0233
2863.00,0.0231
2862.00,0.0229
2861.00,0.0227
2860.00,0.0224
2859.00,0.0222
2858.00,0.0219
2857.00,0.0216
2856.00,0.0213
2855.00,0.0209
2854.00,0.0205
2853.00,0.0201
2852.00,0.0197
2851.00,0.0193
2850.00,0.0188
2849.00,0.0184
2848.00,0.0180
2847.00,0.0176
2846.00,0.0172
2845.00,0.0169
2844.00,0.0166
2843.00,0.0163
2842.00,0.0159
2841.00,0.0156
2840.00,0.0153
2839.00,0.0150
2838.00,0.0148
2837.00,0.0146
2836.00,0.0145
2835.00,0.0143
2834.00,0.0142
2833.00,0.0140
2832.00,0.0139
2831.00,0.0137
2830.00,0.0135
2829.00,0.0134
2828.00,0.0132
2827.00,0.0130
2826.00,0.0128
2825.00,0.0126
2824.00,0.0124
2823.00,0.0122
2822.00,0.0121
2821.00,0.0119
2820.00,0.0118
2819.00,0.0117
2818.00,0.0116
2817.00,0.0114
2816.00,0.0114
2815.00,0.0113
2814.00,0.0112
2813.00,0.0111
2812.00,0.0110
2811.00,0.0109
2810.00,0.0108
2809.00,0.0108
2808.00,0.0107
2807.00,0.0107
2806.00,0.0106
2805.00,0.0106
2804.00,0.0105
2803.00,0.0105
2802.00,0.0104
2801.00,0.0104
2800.00,0.0103
2799.00,0.0103
2798.00,0.0102
2797.00,0.0102
2796.00,0.0102
2795.00,0.0101
2794.00,0.0101
2793.00,0.0101
2792.00,0.0100
2791.00,0.0100
2790.00,0.0099
2789.00,0.0099
2788.00,0.0098
2787.00,0.0098
2786.00,0.0098
2785.00,0.0098
2784.00,0.0098
2783.00,0.0098
2782.00,0.0098
2781.00,0.0097
2780.00,0.0097
2779.00,0.0097
2778.00,0.0096
2777.00,0.0096
2776.00,0.0096
2775.00,0.0095
2774.00,0.0095
2773.00,0.0095
2772.00,0.0095
2771.00,0.0095
2770.00,0.0094
2769.00,0.0094
2768.00,0.0094
2767.00,0.0094
2766.00,0.0093
2765.00,0.0093
2764.00,0.0093
2763.00,0.0093
2762.00,0.0092
2761.00,0.0092
2760.00,0.0092
2759.00,0.0093
2758.00,0.0093
2757.00,0.0092
2756.00,0.0092
2755.00,0.0092
2754.00,0.0092
2753.00,0.0092
2752.00,0.0092
2751.00,0.0092
2750.00,0.0092
2749.00,0.0092
2748.00,0.0092
2747.00,0.0092
2746.00,0.0092
2745.00,0.0092
2744.00,0.0092
2743.00,0.0092
2742.00,0.0092
2741.00,0.0091
2740.00,0.0091
2739.00,0.0091
2738.00,0.0091
2737.00,0.0091
2736.00,0.0091
2735.00,0.0091
2734.00,0.0091
2733.00,0.0091
2732.00,0.0091
2731.00,0.0091
2730.00,0.0091
2729.00,0.0091
2728.00,0.0091
2727.00,0.0090
2726.00,0.0090
2725.00,0.0090
2724.00,0.0091
2723.00,0.0091
2722.00,0.0091
2721.00,0.0090
2720.00,0.0090
2719.00,0.0090
2718.00,0.0090
2717.00,0.0089
2716.00,0.0089
2715.00,0.0089
2714.00,0.0089
2713.00,0.0089
2712.00,0.0089
2711.00,0.0089
2710.00,0.0089
2709.00,0.0089
2708.00,0.0089
2707.00,0.0089
2706.00,0.0089
2705.00,0.0088
2704.00,0.0088
2703.00,0.0088
2702.00,0.0088
2701.00,0.0088
2700.00,0.0088
2699.00,0.0087
2698.00,0.0087
2697.00,0.0087
2696.00,0.0087
2695.00,0.0087
2694.00,0.0087
2693.00,0.0087
2692.00,0.0087
2691.00,0.0087
2690.00,0.0087
2689.00,0.0086
2688.00,0.0086
2687.00,0.0086
2686.00,0.0086
2685.00,0.0086
2684.00,0.0086
2683.00,0.0086
2682.00,0.0086
2681.00,0.0086
2680.00,0.0086
2679.00,0.0086
2678.00,0.0086
2677.00,0.0086
2676.00,0.0086
2675.00,0.0086
2674.00,0.0086
2673.00,0.0086
2672.00,0.0086
2671.00,0.0086
2670.00,0.0086
2669.00,0.0086
2668.00,0.0086
2667.00,0.0086
2666.00,0.0087
2665.00,0.0087
2664.00,0.0087
2663.00,0.0088
2662.00,0.0089
2661.00,0.0089
2660.00,0.0090
2659.00,0.0090
2658.00,0.0090
2657.00,0.0090
2656.00,0.0090
2655.00,0.0090
2654.00,0.0090
2653.00,0.0090
2652.00,0.0090
2651.00,0.0090
2650.00,0.0090
2649.00,0.0090
2648.00,0.0090
2647.00,0.0090
2646.00,0.0090
2645.00,0.0090
2644.00,0.0090
2643.00,0.0090
2642.00,0.0090
2641.00,0.0090
2640.00,0.0090
2639.00,0.0090
2638.00,0.0089
2637.00,0.0089
2636.00,0.0089
2635.00,0.0089
2634.00,0.0089
2633.00,0.0089
2632.00,0.0089
2631.00,0.0089
2630.00,0.0089
2629.00,0.0089
2628.00,0.0089
2627.00,0.0089
2626.00,0.0088
2625.00,0.0088
2624.00,0.0088
2623.00,0.0088
2622.00,0.0088
2621.00,0.0087
2620.00,0.0087
2619.00,0.0087
2618.00,0.0087
2617.00,0.0087
2616.00,0.0087
2615.00,0.0087
2614.00,0.0087
2613.00,0.0086
2612.00,0.0086
2611.00,0.0086
2610.00,0.0086
2609.00,0.0086
2608.00,0.0087
2607.00,0.0087
2606.00,0.0087
2605.00,0.0087
2604.00,0.0087
2603.00,0.0086
2602.00,0.0086
2601.00,0.0086
2600.00,0.0086
2599.00,0.0086
2598.00,0.0086
2597.00,0.0086
2596.00,0.0086
2595.00,0.0086
2594.00,0.0086
2593.00,0.0086
2592.00,0.0086
2591.00,0.0086
2590.00,0.0086
2589.00,0.0086
2588.00,0.0086
2587.00,0.0086
2586.00,0.0086
2585.00,0.0086
2584.00,0.0086
2583.00,0.0086
2582.00,0.0086
2581.00,0.0086
2580.00,0.0086
2579.00,0.0086
2578.00,0.0086
2577.00,0.0085
2576.00,0.0085
2575.00,0.0085
2574.00,0.0085
2573.00,0.0085
2572.00,0.0086
2571.00,0.0086
2570.00,0.0086
2569.00,0.0086
2568.00,0.0085
2567.00,0.0086
2566.00,0.0085
2565.00,0.0085
2564.00,0.0085
2563.00,0.0085
2562.00,0.0085
2561.00,0.0085
2560.00,0.0084
2559.00,0.0084
2558.00,0.0084
2557.00,0.0084
2556.00,0.0084
2555.00,0.0084
2554.00,0.0084
2553.00,0.0084
2552.00,0.0084
2551.00,0.0084
2550.00,0.0084
2549.00,0.0083
2548.00,0.0083
2547.00,0.0083
2546.00,0.0083
2545.00,0.0083
2544.00,0.0082
2543.00,0.0082
2542.00,0.0082
2541.00,0.0082
2540.00,0.0082
2539.00,0.0082
2538.00,0.0082
2537.00,0.0082
2536.00,0.0082
2535.00,0.0083
2534.00,0.0083
2533.00,0.0083
2532.00,0.0082
2531.00,0.0082
2530.00,0.0082
2529.00,0.0082
2528.00,0.0082
2527.00,0.0082
2526.00,0.0082
2525.00,0.0081
2524.00,0.0081
2523.00,0.0081
2522.00,0.0081
2521.00,0.0080
2520.00,0.0080
2519.00,0.0080
2518.00,0.0080
2517.00,0.0080
2516.00,0.0081
2515.00,0.0081
2514.00,0.0081
2513.00,0.0081
2512.00,0.0081
2511.00,0.0080
2510.00,0.0080
2509.00,0.0079
2508.00,0.0079
2507.00,0.0079
2506.00,0.0079
2505.00,0.0080
2504.00,0.0081
2503.00,0.0081
2502.00,0.0081
2501.00,0.0080
2500.00,0.0080
2499.00,0.0080
2498.00,0.0080
2497.00,0.0080
2496.00,0.0080
2495.00,0.0080
2494.00,0.0080
2493.00,0.0080
2492.00,0.0080
2491.00,0.0080
2490.00,0.0080
2489.00,0.0080
2488.00,0.0081
2487.00,0.0081
2486.00,0.0081
2485.00,0.0080
2484.00,0.0080
2483.00,0.0079
2482.00,0.0079
2481.00,0.0078
2480.00,0.0078
2479.00,0.0078
2478.00,0.0078
2477.00,0.0078
2476.00,0.0079
2475.00,0.0079
2474.00,0.0079
2473.00,0.0079
2472.00,0.0080
2471.00,0.0080
2470.00,0.0079
2469.00,0.0079
2468.00,0.0079
2467.00,0.0079
2466.00,0.0079
2465.00,0.0079
2464.00,0.0079
2463.00,0.0080
2462.00,0.0080
2461.00,0.0080
2460.00,0.0080
2459.00,0.0080
2458.00,0.0081
2457.00,0.0081
2456.00,0.0081
2455.00,0.0081
2454.00,0.0082
2453.00,0.0082
2452.00,0.0082
2451.00,0.0082
2450.00,0.0082
2449.00,0.0081
2448.00,0.0081
2447.00,0.0081
2446.00,0.0081
2445.00,0.0081
2444.00,0.0081
2443.00,0.0081
2442.00,0.0081
2441.00,0.0080
2440.00,0.0080
2439.00,0.0080
2438.00,0.0080
2437.00,0.0080
2436.00,0.0080
2435.00,0.0080
2434.00,0.0080
2433.00,0.0080
2432.00,0.0080
2431.00,0.0080
2430.00,0.0080
2429.00,0.0080
2428.00,0.0080
2427.00,0.0080
2426.00,0.0080
2425.00,0.0080
2424.00,0.0080
2423.00,0.0080
2422.00,0.0080
2421.00,0.0080
2420.00,0.0080
2419.00,0.0080
2418.00,0.0080
2417.00,0.0080
2416.00,0.0080
2415.00,0.0080
2414.00,0.0080
2413.00,0.0080
2412.00,0.0080
2411.00,0.0081
2410.00,0.0080
2409.00,0.0080
2408.00,0.0080
2407.00,0.0080
2406.00,0.0080
2405.00,0.0080
2404.00,0.0080
2403.00,0.0080
2402.00,0.0081
2401.00,0.0081
2400.00,0.0082
2399.00,0.0082
2398.00,0.0082
2397.00,0.0082
2396.00,0.0081
2395.00,0.0081
2394.00,0.0081
2393.00,0.0081
2392.00,0.0081
2391.00,0.0081
2390.00,0.0080
2389.00,0.0080
2388.00,0.0080
2387.00,0.0080
2386.00,0.0079
2385.00,0.0079
2384.00,0.0078
2383.00,0.0078
2382.00,0.0077
2381.00,0.0076
2380.00,0.0076
2379.00,0.0076
2378.00,0.0076
2377.00,0.0077
2376.00,0.0077
2375.00,0.0078
2374.00,0.0078
2373.00,0.0078
2372.00,0.0078
2371.00,0.0078
2370.00,0.0078
2369.00,0.0078
2368.00,0.0078
2367.00,0.0077
2366.00,0.0077
2365.00,0.0077
2364.00,0.0078
2363.00,0.0078
2362.00,0.0078
2361.00,0.0078
2360.00,0.0079
2359.00,0.0079
2358.00,0.0079
2357.00,0.0079
2356.00,0.0079
2355.00,0.0080
2354.00,0.0081
2353.00,0.0082
2352.00,0.0082
2351.00,0.0082
2350.00,0.0082
2349.00,0.0082
2348.00,0.0082
2347.00,0.0082
2346.00,0.0082
2345.00,0.0083
2344.00,0.0083
2343.00,0.0083
2342.00,0.0082
2341.00,0.0082
2340.00,0.0083
2339.00,0.0084
2338.00,0.0085
2337.00,0.0085
2336.00,0.0086
2335.00,0.0086
2334.00,0.0086
2333.00,0.0086
2332.00,0.0086
2331.00,0.0086
2330.00,0.0087
2329.00,0.0089
2328.00,0.0091
2327.00,0.0095
2326.00,0.0097
2325.00,0.0098
2324.00,0.0097
2323.00,0.0096
2322.00,0.0094
2321.00,0.0094
2320.00,0.0093
2319.00,0.0092
2318.00,0.0092
2317.00,0.0091
2316.00,0.0090
2315.00,0.0090
2314.00,0.0089
2313.00,0.0089
2312.00,0.0089
2311.00,0.0088
2310.00,0.0088
2309.00,0.0087
2308.00,0.0087
2307.00,0.0088
2306.00,0.0087
2305.00,0.0087
2304.00,0.0087
2303.00,0.0087
2302.00,0.0087
2301.00,0.0088
2300.00,0.0089
2299.00,0.0089
2298.00,0.0090
2297.00,0.0090
2296.00,0.0091
2295.00,0.0091
2294.00,0.0092
2293.00,0.0092
2292.00,0.0093
2291.00,0.0094
2290.00,0.0094
2289.00,0.0095
2288.00,0.0095
2287.00,0.0095
2286.00,0.0095
2285.00,0.0095
2284.00,0.0094
2283.00,0.0094
2282.00,0.0093
2281.00,0.0093
2280.00,0.0093
2279.00,0.0092
2278.00,0.0092
2277.00,0.0091
2276.00,0.0091
2275.00,0.0091
2274.00,0.0091
2273.00,0.0091
2272.00,0.0091
2271.00,0.0091
2270.00,0.0090
2269.00,0.0090
2268.00,0.0089
2267.00,0.0089
2266.00,0.0089
2265.00,0.0089
2264.00,0.0089
2263.00,0.0089
2262.00,0.0089
2261.00,0.0090
2260.00,0.0090
2259.00,0.0090
2258.00,0.0090
2257.00,0.0089
2256.00,0.0089
2255.00,0.0088
2254.00,0.0088
2253.00,0.0088
2252.00,0.0089
2251.00,0.0089
2250.00,0.0089
2249.00,0.0089
2248.00,0.0089
2247.00,0.0089
2246.00,0.0089
2245.00,0.0088
2244.00,0.0088
2243.00,0.0087
2242.00,0.0087
2241.00,0.0087
2240.00,0.0088
2239.00,0.0088
2238.00,0.0089
2237.00,0.0088
2236.00,0.0088
2235.00,0.0088
2234.00,0.0088
2233.00,0.0088
2232.00,0.0089
2231.00,0.0090
2230.00,0.0090
2229.00,0.0091
2228.00,0.0091
2227.00,0.0091
2226.00,0.0089
2225.00,0.0089
2224.00,0.0089
2223.00,0.0089
2222.00,0.0089
2221.00,0.0089
2220.00,0.0090
2219.00,0.0091
2218.00,0.0092
2217.00,0.0091
2216.00,0.0091
2215.00,0.0090
2214.00,0.0090
2213.00,0.0090
2212.00,0.0091
2211.00,0.0092
2210.00,0.0092
2209.00,0.0092
2208.00,0.0091
2207.00,0.0091
2206.00,0.0090
2205.00,0.0090
2204.00,0.0091
2203.00,0.0092
2202.00,0.0093
2201.00,0.0093
2200.00,0.0093
2199.00,0.0093
2198.00,0.0093
2197.00,0.0093
2196.00,0.0094
2195.00,0.0094
2194.00,0.0093
2193.00,0.0093
2192.00,0.0093
2191.00,0.0093
2190.00,0.0093
2189.00,0.0094
2188.00,0.0095
2187.00,0.0095
2186.00,0.0094
2185.00,0.0092
2184.00,0.0090
2183.00,0.0089
2182.00,0.0089
2181.00,0.0090
2180.00,0.0091
2179.00,0.0092
2178.00,0.0090
2177.00,0.0088
2176.00,0.0088
2175.00,0.0088
2174.00,0.0089
2173.00,0.0091
2172.00,0.0094
2171.00,0.0096
2170.00,0.0097
2169.00,0.0096
2168.00,0.0097
2167.00,0.0097
2166.00,0.0099
2165.00,0.0101
2164.00,0.0104
2163.00,0.0105
2162.00,0.0100
2161.00,0.0090
2160.00,0.0077
2159.00,0.0066
2158.00,0.0059
2157.00,0.0059
2156.00,0.0063
2155.00,0.0068
2154.00,0.0071
2153.00,0.0074
2152.00,0.0076
2151.00,0.0077
2150.00,0.0076
2149.00,0.0075
2148.00,0.0075
2147.00,0.0075
2146.00,0.0075
2145.00,0.0076
2144.00,0.0077
2143.00,0.0078
2142.00,0.0078
2141.00,0.0079
2140.00,0.0079
2139.00,0.0080
2138.00,0.0079
2137.00,0.0077
2136.00,0.0076
2135.00,0.0075
2134.00,0.0075
2133.00,0.0076
2132.00,0.0077
2131.00,0.0079
2130.00,0.0080
2129.00,0.0081
2128.00,0.0083
2127.00,0.0084
2126.00,0.0084
2125.00,0.0085
2124.00,0.0085
2123.00,0.0085
2122.00,0.0086
2121.00,0.0086
2120.00,0.0087
2119.00,0.0089
2118.00,0.0091
2117.00,0.0092
2116.00,0.0093
2115.00,0.0094
2114.00,0.0094
2113.00,0.0093
2112.00,0.0093
2111.00,0.0092
2110.00,0.0092
2109.00,0.0091
2108.00,0.0091
2107.00,0.0091
2106.00,0.0090
2105.00,0.0091
2104.00,0.0091
2103.00,0.0092
2102.00,0.0092
2101.00,0.0093
2100.00,0.0092
2099.00,0.0091
2098.00,0.0090
2097.00,0.0087
2096.00,0.0086
2095.00,0.0084
2094.00,0.0084
2093.00,0.0085
2092.00,0.0086
2091.00,0.0088
2090.00,0.0088
2089.00,0.0089
2088.00,0.0090
2087.00,0.0090
2086.00,0.0089
2085.00,0.0089
2084.00,0.0090
2083.00,0.0090
2082.00,0.0090
2081.00,0.0090
2080.00,0.0090
2079.00,0.0090
2078.00,0.0090
2077.00,0.0089
2076.00,0.0089
2075.00,0.0089
2074.00,0.0088
2073.00,0.0088
2072.00,0.0088
2071.00,0.0087
2070.00,0.0087
2069.00,0.0087
2068.00,0.0087
2067.00,0.0086
2066.00,0.0086
2065.00,0.0085
2064.00,0.0085
2063.00,0.0085
2062.00,0.0084
2061.00,0.0084
2060.00,0.0085
2059.00,0.0085
2058.00,0.0086
2057.00,0.0086
2056.00,0.0086
2055.00,0.0086
2054.00,0.0088
2053.00,0.0092
2052.00,0.0095
2051.00,0.0096
2050.00,0.0093
2049.00,0.0089
2048.00,0.0087
2047.00,0.0086
2046.00,0.0085
2045.00,0.0084
2044.00,0.0083
2043.00,0.0082
2042.00,0.0081
2041.00,0.0080
2040.00,0.0081
2039.00,0.0082
2038.00,0.0082
2037.00,0.0082
2036.00,0.0082
2035.00,0.0081
2034.00,0.0079
2033.00,0.0076
2032.00,0.0076
2031.00,0.0076
2030.00,0.0076
2029.00,0.0075
2028.00,0.0074
2027.00,0.0073
2026.00,0.0072
2025.00,0.0072
2024.00,0.0072
2023.00,0.0073
2022.00,0.0072
2021.00,0.0072
2020.00,0.0072
2019.00,0.0072
2018.00,0.0070
2017.00,0.0070
2016.00,0.0071
2015.00,0.0073
2014.00,0.0073
2013.00,0.0072
2012.00,0.0072
2011.00,0.0072
2010.00,0.0071
2009.00,0.0070
2008.00,0.0069
2007.00,0.0067
2006.00,0.0065
2005.00,0.0064
2004.00,0.0065
2003.00,0.0066
2002.00,0.0067
2001.00,0.0068
2000.00,0.0069
1999.00,0.0070
1998.00,0.0070
1997.00,0.0072
1996.00,0.0074
1995.00,0.0076
1994.00,0.0076
1993.00,0.0076
1992.00,0.0077
1991.00,0.0076
1990.00,0.0075
1989.00,0.0074
1988.00,0.0075
1987.00,0.0076
1986.00,0.0076
1985.00,0.0078
1984.00,0.0081
1983.00,0.0083
1982.00,0.0085
1981.00,0.0084
1980.00,0.0083
1979.00,0.0078
1978.00,0.0071
1977.00,0.0066
1976.00,0.0064
1975.00,0.0065
1974.00,0.0065
1973.00,0.0066
1972.00,0.0066
1971.00,0.0066
1970.00,0.0065
1969.00,0.0064
1968.00,0.0063
1967.00,0.0063
1966.00,0.0063
1965.00,0.0063
1964.00,0.0064
1963.00,0.0063
1962.00,0.0062
1961.00,0.0060
1960.00,0.0060
1959.00,0.0060
1958.00,0.0060
1957.00,0.0061
1956.00,0.0061
1955.00,0.0062
1954.00,0.0062
1953.00,0.0062
1952.00,0.0063
1951.00,0.0064
1950.00,0.0063
1949.00,0.0063
1948.00,0.0064
1947.00,0.0064
1946.00,0.0064
1945.00,0.0064
1944.00,0.0065
1943.00,0.0066
1942.00,0.0065
1941.00,0.0065
1940.00,0.0065
1939.00,0.0064
1938.00,0.0064
1937.00,0.0064
1936.00,0.0065
1935.00,0.0066
1934.00,0.0065
1933.00,0.0065
1932.00,0.0065
1931.00,0.0065
1930.00,0.0066
1929.00,0.0066
1928.00,0.0066
1927.00,0.0065
1926.00,0.0065
1925.00,0.0065
1924.00,0.0067
1923.00,0.0068
1922.00,0.0069
1921.00,0.0068
1920.00,0.0068
1919.00,0.0067
1918.00,0.0067
1917.00,0.0067
1916.00,0.0068
1915.00,0.0068
1914.00,0.0067
1913.00,0.0067
1912.00,0.0067
1911.00,0.0067
1910.00,0.0066
1909.00,0.0066
1908.00,0.0067
1907.00,0.0067
1906.00,0.0067
1905.00,0.0067
1904.00,0.0068
1903.00,0.0068
1902.00,0.0067
1901.00,0.0067
1900.00,0.0067
1899.00,0.0067
1898.00,0.0068
1897.00,0.0068
1896.00,0.0068
1895.00,0.0068
1894.00,0.0068
1893.00,0.0068
1892.00,0.0068
1891.00,0.0067
1890.00,0.0067
1889.00,0.0067
1888.00,0.0067
1887.00,0.0067
1886.00,0.0067
1885.00,0.0067
1884.00,0.0067
1883.00,0.0067
1882.00,0.0067
1881.00,0.0067
1880.00,0.0068
1879.00,0.0068
1878.00,0.0067
1877.00,0.0067
1876.00,0.0067
1875.00,0.0067
1874.00,0.0067
1873.00,0.0067
1872.00,0.0067
1871.00,0.0068
1870.00,0.0067
1869.00,0.0067
1868.00,0.0067
1867.00,0.0067
1866.00,0.0067
1865.00,0.0066
1864.00,0.0067
1863.00,0.0067
1862.00,0.0067
1861.00,0.0067
1860.00,0.0067
1859.00,0.0068
1858.00,0.0067
1857.00,0.0067
1856.00,0.0068
1855.00,0.0068
1854.00,0.0067
1853.00,0.0067
1852.00,0.0067
1851.00,0.0067
1850.00,0.0067
1849.00,0.0067
1848.00,0.0067
1847.00,0.0068
1846.00,0.0067
1845.00,0.0067
1844.00,0.0067
1843.00,0.0066
1842.00,0.0066
1841.00,0.0066
1840.00,0.0067
1839.00,0.0067
1838.00,0.0067
1837.00,0.0067
1836.00,0.0067
1835.00,0.0067
1834.00,0.0067
1833.00,0.0067
1832.00,0.0067
1831.00,0.0067
1830.00,0.0067
1829.00,0.0067
1828.00,0.0067
1827.00,0.0067
1826.00,0.0067
1825.00,0.0067
1824.00,0.0067
1823.00,0.0067
1822.00,0.0067
1821.00,0.0066
1820.00,0.0066
1819.00,0.0065
1818.00,0.0064
1817.00,0.0064
1816.00,0.0064
1815.00,0.0064
1814.00,0.0064
1813.00,0.0065
1812.00,0.0066
1811.00,0.0066
1810.00,0.0067
1809.00,0.0067
1808.00,0.0067
1807.00,0.0067
1806.00,0.0066
1805.00,0.0066
1804.00,0.0066
1803.00,0.0066
1802.00,0.0066
1801.00,0.0066
1800.00,0.0066
1799.00,0.0066
1798.00,0.0066
1797.00,0.0066
1796.00,0.0066
1795.00,0.0066
1794.00,0.0066
1793.00,0.0065
1792.00,0.0065
1791.00,0.0065
1790.00,0.0065
1789.00,0.0065
1788.00,0.0065
1787.00,0.0066
1786.00,0.0066
1785.00,0.0066
1784.00,0.0066
1783.00,0.0067
1782.00,0.0067
1781.00,0.0067
1780.00,0.0067
1779.00,0.0067
1778.00,0.0067
1777.00,0.0067
1776.00,0.0067
1775.00,0.0067
1774.00,0.0067
1773.00,0.0067
1772.00,0.0068
1771.00,0.0068
1770.00,0.0067
1769.00,0.0067
1768.00,0.0067
1767.00,0.0068
1766.00,0.0068
1765.00,0.0068
1764.00,0.0069
1763.00,0.0070
1762.00,0.0070
1761.00,0.0069
1760.00,0.0070
1759.00,0.0070
1758.00,0.0070
1757.00,0.0070
1756.00,0.0071
1755.00,0.0071
1754.00,0.0071
1753.00,0.0071
1752.00,0.0072
1751.00,0.0073
1750.00,0.0073
1749.00,0.0074
1748.00,0.0075
1747.00,0.0076
1746.00,0.0076
1745.00,0.0076
1744.00,0.0077
1743.00,0.0078
1742.00,0.0078
1741.00,0.0077
1740.00,0.0078
1739.00,0.0078
1738.00,0.0078
1737.00,0.0078
1736.00,0.0079
1735.00,0.0080
1734.00,0.0080
1733.00,0.0081
1732.00,0.0082
1731.00,0.0084
1730.00,0.0085
1729.00,0.0087
1728.00,0.0088
1727.00,0.0090
1726.00,0.0091
1725.00,0.0092
1724.00,0.0094
1723.00,0.0096
1722.00,0.0097
1721.00,0.0098
1720.00,0.0100
1719.00,0.0102
1718.00,0.0103
1717.00,0.0106
1716.00,0.0110
1715.00,0.0113
1714.00,0.0115
1713.00,0.0117
1712.00,0.0121
1711.00,0.0126
1710.00,0.0131
1709.00,0.0136
1708.00,0.0142
1707.00,0.0149
1706.00,0.0156
1705.00,0.0164
1704.00,0.0173
1703.00,0.0182
1702.00,0.0190
1701.00,0.0204
1700.00,0.0224
1699.00,0.0243
1698.00,0.0261
1697.00,0.0283
1696.00,0.0315
1695.00,0.0350
1694.00,0.0378
1693.00,0.0405
1692.00,0.0434
1691.00,0.0469
1690.00,0.0509
1689.00,0.0549
1688.00,0.0588
1687.00,0.0623
1686.00,0.0660
1685.00,0.0711
1684.00,0.0777
1683.00,0.0836
1682.00,0.0878
1681.00,0.0916
1680.00,0.0959
1679.00,0.1003
1678.00,0.1043
1677.00,0.1083
1676.00,0.1132
1675.00,0.1186
1674.00,0.1234
1673.00,0.1275
1672.00,0.1315
1671.00,0.1359
1670.00,0.1409
1669.00,0.1461
1668.00,0.1511
1667.00,0.1552
1666.00,0.1588
1665.00,0.1624
1664.00,0.1665
1663.00,0.1712
1662.00,0.1757
1661.00,0.1796
1660.00,0.1832
1659.00,0.1866
1658.00,0.1896
1657.00,0.1922
1656.00,0.1945
1655.00,0.1969
1654.00,0.1996
1653.00,0.2029
1652.00,0.2055
1651.00,0.2066
1650.00,0.2070
1649.00,0.2071
1648.00,0.2072
1647.00,0.2070
1646.00,0.2061
1645.00,0.2047
1644.00,0.2030
1643.00,0.2012
1642.00,0.1988
1641.00,0.1960
1640.00,0.1929
1639.00,0.1897
1638.00,0.1860
1637.00,0.1814
1636.00,0.1756
1635.00,0.1695
1634.00,0.1639
1633.00,0.1590
1632.00,0.1544
1631.00,0.1498
1630.00,0.1448
1629.00,0.1394
1628.00,0.1341
1627.00,0.1291
1626.00,0.1244
1625.00,0.1199
1624.00,0.1152
1623.00,0.1105
1622.00,0.1062
1621.00,0.1025
1620.00,0.0993
1619.00,0.0961
1618.00,0.0927
1617.00,0.0891
1616.00,0.0857
1615.00,0.0827
1614.00,0.0801
1613.00,0.0775
1612.00,0.0750
1611.00,0.0726
1610.00,0.0702
1609.00,0.0678
1608.00,0.0656
1607.00,0.0634
1606.00,0.0614
1605.00,0.0595
1604.00,0.0576
1603.00,0.0559
1602.00,0.0542
1601.00,0.0526
1600.00,0.0511
1599.00,0.0496
1598.00,0.0483
1597.00,0.0470
1596.00,0.0457
1595.00,0.0445
1594.00,0.0434
1593.00,0.0424
1592.00,0.0414
1591.00,0.0404
1590.00,0.0395
1589.00,0.0387
1588.00,0.0379
1587.00,0.0370
1586.00,0.0363
1585.00,0.0355
1584.00,0.0348
1583.00,0.0341
1582.00,0.0335
1581.00,0.0329
1580.00,0.0323
1579.00,0.0317
1578.00,0.0311
1577.00,0.0306
1576.00,0.0301
1575.00,0.0297
1574.00,0.0292
1573.00,0.0287
1572.00,0.0282
1571.00,0.0277
1570.00,0.0273
1569.00,0.0270
1568.00,0.0266
1567.00,0.0263
1566.00,0.0260
1565.00,0.0257
1564.00,0.0255
1563.00,0.0252
1562.00,0.0248
1561.00,0.0244
1560.00,0.0239
1559.00,0.0236
1558.00,0.0236
1557.00,0.0234
1556.00,0.0231
1555.00,0.0231
1554.00,0.0230
1553.00,0.0229
1552.00,0.0228
1551.00,0.0226
1550.00,0.0225
1549.00,0.0224
1548.00,0.0222
1547.00,0.0220
1546.00,0.0218
1545.00,0.0216
1544.00,0.0215
1543.00,0.0213
1542.00,0.0212
1541.00,0.0210
1540.00,0.0210
1539.00,0.0210
1538.00,0.0208
1537.00,0.0206
1536.00,0.0204
1535.00,0.0202
1534.00,0.0201
1533.00,0.0201
1532.00,0.0201
1531.00,0.0200
1530.00,0.0199
1529.00,0.0198
1528.00,0.0198
1527.00,0.0197
1526.00,0.0196
1525.00,0.0196
1524.00,0.0195
1523.00,0.0194
1522.00,0.0194
1521.00,0.0195
1520.00,0.0195
1519.00,0.0194
1518.00,0.0194
1517.00,0.0195
1516.00,0.0197
1515.00,0.0199
1514.00,0.0200
1513.00,0.0203
1512.00,0.0205
1511.00,0.0209
1510.00,0.0213
1509.00,0.0218
1508.00,0.0227
1507.00,0.0244
1506.00,0.0263
1505.00,0.0279
1504.00,0.0293
1503.00,0.0309
1502.00,0.0328
1501.00,0.0349
1500.00,0.0371
1499.00,0.0393
1498.00,0.0416
1497.00,0.0437
1496.00,0.0454
1495.00,0.0464
1494.00,0.0468
1493.00,0.0466
1492.00,0.0458
1491.00,0.0445
1490.00,0.0426
1489.00,0.0405
1488.00,0.0383
1487.00,0.0361
1486.00,0.0342
1485.00,0.0325
1484.00,0.0311
1483.00,0.0299
1482.00,0.0289
1481.00,0.0283
1480.00,0.0280
1479.00,0.0279
1478.00,0.0281
1477.00,0.0286
1476.00,0.0295
1475.00,0.0307
1474.00,0.0326
1473.00,0.0354
1472.00,0.0391
1471.00,0.0429
1470.00,0.0468
1469.00,0.0509
1468.00,0.0553
1467.00,0.0602
1466.00,0.0657
1465.00,0.0716
1464.00,0.0768
1463.00,0.0803
1462.00,0.0822
1461.00,0.0829
1460.00,0.0825
1459.00,0.0806
1458.00,0.0771
1457.00,0.0723
1456.00,0.0676
1455.00,0.0640
1454.00,0.0617
1453.00,0.0601
1452.00,0.0592
1451.00,0.0591
1450.00,0.0598
1449.00,0.0615
1448.00,0.0644
1447.00,0.0679
1446.00,0.0717
1445.00,0.0758
1444.00,0.0800
1443.00,0.0842
1442.00,0.0883
1441.00,0.0919
1440.00,0.0948
1439.00,0.0970
1438.00,0.0986
1437.00,0.0997
1436.00,0.1002
1435.00,0.1000
1434.00,0.0994
1433.00,0.0988
1432.00,0.0984
1431.00,0.0984
1430.00,0.0993
1429.00,0.1012
1428.00,0.1040
1427.00,0.1073
1426.00,0.1108
1425.00,0.1146
1424.00,0.1179
1423.00,0.1199
1422.00,0.1202
1421.00,0.1188
1420.00,0.1152
1419.00,0.1092
1418.00,0.1021
1417.00,0.0952
1416.00,0.0885
1415.00,0.0819
1414.00,0.0756
1413.00,0.0698
1412.00,0.0645
1411.00,0.0597
1410.00,0.0556
1409.00,0.0522
1408.00,0.0492
1407.00,0.0466
1406.00,0.0443
1405.00,0.0423
1404.00,0.0405
1403.00,0.0391
1402.00,0.0379
1401.00,0.0368
1400.00,0.0358
1399.00,0.0349
1398.00,0.0342
1397.00,0.0337
1396.00,0.0333
1395.00,0.0330
1394.00,0.0329
1393.00,0.0328
1392.00,0.0329
1391.00,0.0330
1390.00,0.0334
1389.00,0.0339
1388.00,0.0346
1387.00,0.0355
1386.00,0.0365
1385.00,0.0375
1384.00,0.0385
1383.00,0.0396
1382.00,0.0408
1381.00,0.0420
1380.00,0.0430
1379.00,0.0441
1378.00,0.0450
1377.00,0.0458
1376.00,0.0464
1375.00,0.0469
1374.00,0.0473
1373.00,0.0475
1372.00,0.0473
1371.00,0.0470
1370.00,0.0466
1369.00,0.0460
1368.00,0.0452
1367.00,0.0442
1366.00,0.0432
1365.00,0.0421
1364.00,0.0408
1363.00,0.0395
1362.00,0.0382
1361.00,0.0370
1360.00,0.0359
1359.00,0.0349
1358.00,0.0341
1357.00,0.0333
1356.00,0.0326
1355.00,0.0320
1354.00,0.0314
1353.00,0.0309
1352.00,0.0304
1351.00,0.0299
1350.00,0.0296
1349.00,0.0292
1348.00,0.0289
1347.00,0.0287
1346.00,0.0285
1345.00,0.0283
1344.00,0.0282
1343.00,0.0281
1342.00,0.0281
1341.00,0.0283
1340.00,0.0285
1339.00,0.0288
1338.00,0.0292
1337.00,0.0296
1336.00,0.0300
1335.00,0.0304
1334.00,0.0310
1333.00,0.0317
1332.00,0.0325
1331.00,0.0335
1330.00,0.0346
1329.00,0.0359
1328.00,0.0373
1327.00,0.0389
1326.00,0.0406
1325.00,0.0425
1324.00,0.0444
1323.00,0.0463
1322.00,0.0482
1321.00,0.0499
1320.00,0.0513
1319.00,0.0525
1318.00,0.0532
1317.00,0.0536
1316.00,0.0534
1315.00,0.0528
1314.00,0.0520
1313.00,0.0508
1312.00,0.0496
1311.00,0.0483
1310.00,0.0472
1309.00,0.0463
1308.00,0.0456
1307.00,0.0452
1306.00,0.0453
1305.00,0.0459
1304.00,0.0470
1303.00,0.0487
1302.00,0.0511
1301.00,0.0543
1300.00,0.0583
1299.00,0.0633
1298.00,0.0693
1297.00,0.0763
1296.00,0.0839
1295.00,0.0921
1294.00,0.1003
1293.00,0.1084
1292.00,0.1160
1291.00,0.1227
1290.00,0.1284
1289.00,0.1327
1288.00,0.1357
1287.00,0.1371
1286.00,0.1371
1285.00,0.1358
1284.00,0.1337
1283.00,0.1310
1282.00,0.1282
1281.00,0.1258
1280.00,0.1241
1279.00,0.1231
1278.00,0.1230
1277.00,0.1236
1276.00,0.1245
1275.00,0.1256
1274.00,0.1264
1273.00,0.1267
1272.00,0.1264
1271.00,0.1252
1270.00,0.1233
1269.00,0.1206
1268.00,0.1172
1267.00,0.1132
1266.00,0.1089
1265.00,0.1044
1264.00,0.0999
1263.00,0.0955
1262.00,0.0913
1261.00,0.0874
1260.00,0.0836
1259.00,0.0802
1258.00,0.0770
1257.00,0.0742
1256.00,0.0715
1255.00,0.0692
1254.00,0.0671
1253.00,0.0652
1252.00,0.0635
1251.00,0.0621
1250.00,0.0608
1249.00,0.0597
1248.00,0.0588
1247.00,0.0582
1246.00,0.0577
1245.00,0.0574
1244.00,0.0572
1243.00,0.0572
1242.00,0.0574
1241.00,0.0577
1240.00,0.0581
1239.00,0.0587
1238.00,0.0594
1237.00,0.0602
1236.00,0.0610
1235.00,0.0618
1234.00,0.0626
1233.00,0.0634
1232.00,0.0640
1231.00,0.0645
1230.00,0.0648
1229.00,0.0651
1228.00,0.0652
1227.00,0.0652
1226.00,0.0652
1225.00,0.0651
1224.00,0.0651
1223.00,0.0650
1222.00,0.0650
1221.00,0.0650
1220.00,0.0650
1219.00,0.0649
1218.00,0.0648
1217.00,0.0645
1216.00,0.0641
1215.00,0.0635
1214.00,0.0629
1213.00,0.0621
1212.00,0.0613
1211.00,0.0603
1210.00,0.0594
1209.00,0.0585
1208.00,0.0575
1207.00,0.0565
1206.00,0.0556
1205.00,0.0547
1204.00,0.0538
1203.00,0.0530
1202.00,0.0521
1201.00,0.0513
1200.00,0.0506
1199.00,0.0499
1198.00,0.0492
1197.00,0.0486
1196.00,0.0480
1195.00,0.0474
1194.00,0.0469
1193.00,0.0464
1192.00,0.0460
1191.00,0.0456
1190.00,0.0453
1189.00,0.0451
1188.00,0.0448
1187.00,0.0446
1186.00,0.0445
1185.00,0.0445
1184.00,0.0445
1183.00,0.0445
1182.00,0.0447
1181.00,0.0450
1180.00,0.0453
1179.00,0.0457
1178.00,0.0462
1177.00,0.0468
1176.00,0.0474
1175.00,0.0481
1174.00,0.0488
1173.00,0.0494
1172.00,0.0499
1171.00,0.0503
1170.00,0.0505
1169.00,0.0506
1168.00,0.0504
1167.00,0.0501
1166.00,0.0497
1165.00,0.0491
1164.00,0.0483
1163.00,0.0475
1162.00,0.0467
1161.00,0.0459
1160.00,0.0451
1159.00,0.0443
1158.00,0.0437
1157.00,0.0431
1156.00,0.0425
1155.00,0.0419
1154.00,0.0414
1153.00,0.0410
1152.00,0.0405
1151.00,0.0400
1150.00,0.0397
1149.00,0.0393
1148.00,0.0388
1147.00,0.0384
1146.00,0.0380
1145.00,0.0376
1144.00,0.0372
1143.00,0.0367
1142.00,0.0363
1141.00,0.0359
1140.00,0.0355
1139.00,0.0350
1138.00,0.0347
1137.00,0.0344
1136.00,0.0341
1135.00,0.0338
1134.00,0.0337
1133.00,0.0335
1132.00,0.0334
1131.00,0.0334
1130.00,0.0334
1129.00,0.0334
1128.00,0.0333
1127.00,0.0334
1126.00,0.0335
1125.00,0.0335
1124.00,0.0336
1123.00,0.0336
1122.00,0.0337
1121.00,0.0338
1120.00,0.0338
1119.00,0.0339
1118.00,0.0340
1117.00,0.0340
1116.00,0.0340
1115.00,0.0341
1114.00,0.0341
1113.00,0.0342
1112.00,0.0342
1111.00,0.0341
1110.00,0.0342
1109.00,0.0342
1108.00,0.0342
1107.00,0.0342
1106.00,0.0342
1105.00,0.0342
1104.00,0.0342
1103.00,0.0342
1102.00,0.0342
1101.00,0.0343
1100.00,0.0343
1099.00,0.0343
1098.00,0.0344
1097.00,0.0344
1096.00,0.0345
1095.00,0.0345
1094.00,0.0345
1093.00,0.0345
1092.00,0.0345
1091.00,0.0345
1090.00,0.0346
1089.00,0.0346
1088.00,0.0345
1087.00,0.0345
1086.00,0.0345
1085.00,0.0345
1084.00,0.0345
1083.00,0.0345
1082.00,0.0347
1081.00,0.0348
1080.00,0.0350
1079.00,0.0352
1078.00,0.0355
1077.00,0.0357
1076.00,0.0359
1075.00,0.0359
1074.00,0.0359
1073.00,0.0358
1072.00,0.0356
1071.00,0.0353
1070.00,0.0350
1069.00,0.0347
1068.00,0.0344
1067.00,0.0340
1066.00,0.0338
1065.00,0.0335
1064.00,0.0333
1063.00,0.0331
1062.00,0.0330
1061.00,0.0329
1060.00,0.0328
1059.00,0.0327
1058.00,0.0327
1057.00,0.0327
1056.00,0.0327
1055.00,0.0326
1054.00,0.0326
1053.00,0.0325
1052.00,0.0325
1051.00,0.0324
1050.00,0.0324
1049.00,0.0324
1048.00,0.0323
1047.00,0.0323
1046.00,0.0323
1045.00,0.0323
1044.00,0.0322
1043.00,0.0321
1042.00,0.0321
1041.00,0.0321
1040.00,0.0321
1039.00,0.0322
1038.00,0.0323
1037.00,0.0324
1036.00,0.0325
1035.00,0.0326
1034.00,0.0328
1033.00,0.0329
1032.00,0.0331
1031.00,0.0332
1030.00,0.0335
1029.00,0.0337
1028.00,0.0340
1027.00,0.0343
1026.00,0.0347
1025.00,0.0352
1024.00,0.0357
1023.00,0.0364
1022.00,0.0371
1021.00,0.0378
1020.00,0.0383
1019.00,0.0388
1018.00,0.0390
1017.00,0.0389
1016.00,0.0385
1015.00,0.0379
1014.00,0.0371
1013.00,0.0362
1012.00,0.0354
1011.00,0.0346
1010.00,0.0341
1009.00,0.0339
1008.00,0.0338
1007.00,0.0341
1006.00,0.0346
1005.00,0.0351
1004.00,0.0357
1003.00,0.0361
1002.00,0.0363
1001.00,0.0362
1000.00,0.0358
999.00,0.0352
998.00,0.0346
997.00,0.0340
996.00,0.0333
995.00,0.0327
994.00,0.0322
993.00,0.0318
992.00,0.0313
991.00,0.0310
990.00,0.0308
989.00,0.0305
988.00,0.0303
987.00,0.0301
986.00,0.0300
985.00,0.0299
984.00,0.0297
983.00,0.0295
982.00,0.0293
981.00,0.0291
980.00,0.0289
979.00,0.0287
978.00,0.0286
977.00,0.0284
976.00,0.0283
975.00,0.0281
974.00,0.0280
973.00,0.0279
972.00,0.0278
971.00,0.0276
970.00,0.0276
969.00,0.0275
968.00,0.0273
967.00,0.0272
966.00,0.0271
965.00,0.0270
964.00,0.0269
963.00,0.0268
962.00,0.0268
961.00,0.0268
960.00,0.0267
959.00,0.0266
958.00,0.0266
957.00,0.0266
956.00,0.0265
955.00,0.0264
954.00,0.0264
953.00,0.0263
952.00,0.0262
951.00,0.0261
950.00,0.0261
949.00,0.0261
948.00,0.0261
947.00,0.0261
946.00,0.0263
945.00,0.0265
944.00,0.0266
943.00,0.0269
942.00,0.0272
941.00,0.0277
940.00,0.0283
939.00,0.0290
938.00,0.0298
937.00,0.0306
936.00,0.0313
935.00,0.0319
934.00,0.0323
933.00,0.0323
932.00,0.0320
931.00,0.0315
930.00,0.0311
929.00,0.0306
928.00,0.0303
927.00,0.0300
926.00,0.0298
925.00,0.0296
924.00,0.0292
923.00,0.0289
922.00,0.0287
921.00,0.0285
920.00,0.0283
919.00,0.0281
918.00,0.0280
917.00,0.0280
916.00,0.0279
915.00,0.0279
914.00,0.0279
913.00,0.0279
912.00,0.0279
911.00,0.0279
910.00,0.0280
909.00,0.0282
908.00,0.0283
907.00,0.0284
906.00,0.0286
905.00,0.0288
904.00,0.0291
903.00,0.0294
902.00,0.0298
901.00,0.0302
900.00,0.0305
899.00,0.0308
898.00,0.0311
897.00,0.0313
896.00,0.0314
895.00,0.0314
894.00,0.0314
893.00,0.0313
892.00,0.0311
891.00,0.0308
890.00,0.0305
889.00,0.0301
888.00,0.0298
887.00,0.0294
886.00,0.0292
885.00,0.0289
884.00,0.0286
883.00,0.0283
882.00,0.0282
881.00,0.0281
880.00,0.0279
879.00,0.0279
878.00,0.0279
877.00,0.0279
876.00,0.0279
875.00,0.0279
874.00,0.0280
873.00,0.0281
872.00,0.0282
871.00,0.0283
870.00,0.0285
869.00,0.0286
868.00,0.0288
867.00,0.0290
866.00,0.0294
865.00,0.0298
864.00,0.0302
863.00,0.0306
862.00,0.0312
861.00,0.0318
860.00,0.0325
859.00,0.0331
858.00,0.0339
857.00,0.0347
856.00,0.0356
855.00,0.0365
854.00,0.0375
853.00,0.0385
852.00,0.0394
851.00,0.0403
850.00,0.0412
849.00,0.0420
848.00,0.0426
847.00,0.0431
846.00,0.0435
845.00,0.0438
844.00,0.0439
843.00,0.0438
842.00,0.0437
841.00,0.0434
840.00,0.0429
839.00,0.0424
838.00,0.0420
837.00,0.0415
836.00,0.0410
835.00,0.0405
834.00,0.0400
833.00,0.0394
832.00,0.0388
831.00,0.0382
830.00,0.0377
829.00,0.0373
828.00,0.0367
827.00,0.0362
826.00,0.0358
825.00,0.0354
824.00,0.0350
823.00,0.0346
822.00,0.0343
821.00,0.0340
820.00,0.0338
819.00,0.0336
818.00,0.0335
817.00,0.0334
816.00,0.0333
815.00,0.0332
814.00,0.0331
813.00,0.0330
812.00,0.0329
811.00,0.0329
810.00,0.0329
809.00,0.0329
808.00,0.0329
807.00,0.0329
806.00,0.0330
805.00,0.0330
804.00,0.0329
803.00,0.0329
802.00,0.0331
801.00,0.0333
800.00,0.0334
799.00,0.0335
798.00,0.0337
797.00,0.0338
796.00,0.0339
795.00,0.0340
794.00,0.0342
793.00,0.0344
792.00,0.0345
791.00,0.0347
790.00,0.0349
789.00,0.0351
788.00,0.0353
787.00,0.0355
786.00,0.0357
785.00,0.0360
784.00,0.0362
783.00,0.0364
782.00,0.0367
781.00,0.0370
780.00,0.0371
779.00,0.0374
778.00,0.0377
777.00,0.0381
776.00,0.0384
775.00,0.0386
774.00,0.0390
773.00,0.0393
772.00,0.0397
771.00,0.0401
770.00,0.0405
769.00,0.0410
768.00,0.0413
767.00,0.0417
766.00,0.0422
765.00,0.0426
764.00,0.0431
763.00,0.0436
762.00,0.0442
761.00,0.0449
760.00,0.0456
759.00,0.0462
758.00,0.0470
757.00,0.0477
756.00,0.0483
755.00,0.0490
754.00,0.0498
753.00,0.0506
752.00,0.0514
751.00,0.0522
750.00,0.0531
749.00,0.0539
748.00,0.0546
747.00,0.0553
746.00,0.0562
745.00,0.0571
744.00,0.0579
743.00,0.0587
742.00,0.0595
741.00,0.0604
740.00,0.0611
739.00,0.0619
738.00,0.0627
737.00,0.0635
736.00,0.0640
735.00,0.0643
734.00,0.0646
733.00,0.0647
732.00,0.0645
731.00,0.0642
730.00,0.0638
729.00,0.0632
728.00,0.0624
727.00,0.0617
726.00,0.0612
725.00,0.0607
724.00,0.0601
723.00,0.0597
722.00,0.0594
721.00,0.0591
720.00,0.0588
719.00,0.0585
718.00,0.0584
717.00,0.0584
716.00,0.0583
715.00,0.0583
714.00,0.0583
713.00,0.0584
712.00,0.0584
711.00,0.0584
710.00,0.0586
709.00,0.0587
708.00,0.0588
707.00,0.0588
706.00,0.0590
705.00,0.0592
704.00,0.0594
703.00,0.0597
702.00,0.0600
701.00,0.0603
700.00,0.0605
699.00,0.0608
698.00,0.0612
697.00,0.0615
696.00,0.0619
695.00,0.0623
694.00,0.0628
693.00,0.0632
692.00,0.0636
691.00,0.0640
690.00,0.0645
689.00,0.0650
688.00,0.0655
687.00,0.0661
686.00,0.0668
685.00,0.0674
684.00,0.0680
683.00,0.0686
682.00,0.0693
681.00,0.0700
680.00,0.0706
679.00,0.0712
678.00,0.0718
677.00,0.0724
676.00,0.0729
675.00,0.0734
674.00,0.0741
673.00,0.0748
672.00,0.0754
671.00,0.0760
670.00,0.0768
669.00,0.0780
668.00,0.0795
667.00,0.0809
666.00,0.0819
665.00,0.0825
664.00,0.0832
663.00,0.0842
662.00,0.0855
661.00,0.0869
660.00,0.0881
659.00,0.0894
658.00,0.0909
657.00,0.0924
656.00,0.0938
655.00,0.0954
654.00,0.0969
653.00,0.0984
652.00,0.0996
651.00,0.1007
650.00,0.1017
649.00,0.1025
648.00,0.1030
647.00,0.1033
646.00,0.1035
645.00,0.1034
644.00,0.1031
643.00,0.1026
642.00,0.1021
641.00,0.1016
640.00,0.1009
639.00,0.1003
638.00,0.0998
637.00,0.0993
636.00,0.0986
635.00,0.0980
634.00,0.0975
633.00,0.0970
632.00,0.0964
631.00,0.0959
630.00,0.0956
629.00,0.0953
628.00,0.0949
627.00,0.0946
626.00,0.0944
625.00,0.0943
624.00,0.0941
623.00,0.0938
622.00,0.0937
621.00,0.0936
620.00,0.0935
619.00,0.0934
618.00,0.0935
617.00,0.0936
616.00,0.0936
615.00,0.0937
614.00,0.0939
613.00,0.0941
612.00,0.0941
611.00,0.0942
610.00,0.0943
609.00,0.0945
608.00,0.0945
607.00,0.0946
606.00,0.0948
605.00,0.0950
604.00,0.0952
603.00,0.0954
602.00,0.0957
601.00,0.0959
600.00,0.0961
599.00,0.0963
598.00,0.0966
597.00,0.0971
596.00,0.0975
595.00,0.0979
594.00,0.0985
593.00,0.0992
592.00,0.0998
591.00,0.1006
590.00,0.1016
589.00,0.1026
588.00,0.1034
587.00,0.1043
586.00,0.1054
585.00,0.1068
584.00,0.1080
583.00,0.1092
582.00,0.1106
581.00,0.1120
580.00,0.1132
579.00,0.1142
578.00,0.1152
577.00,0.1160
576.00,0.1166
575.00,0.1172
574.00,0.1178
573.00,0.1181
572.00,0.1181
571.00,0.1181
570.00,0.1181
569.00,0.1182
568.00,0.1179
567.00,0.1176
566.00,0.1173
565.00,0.1170
564.00,0.1164
563.00,0.1158
562.00,0.1154
561.00,0.1150
560.00,0.1144
559.00,0.1137
558.00,0.1132
557.00,0.1127
556.00,0.1122
555.00,0.1119
554.00,0.1117
553.00,0.1116
552.00,0.1111
551.00,0.1107
550.00,0.1106
549.00,0.1104
548.00,0.1101
547.00,0.1097
546.00,0.1095
545.00,0.1093
544.00,0.1089
543.00,0.1085
542.00,0.1085
541.00,0.1084
540.00,0.1082
539.00,0.1080
538.00,0.1079
537.00,0.1078
536.00,0.1074
535.00,0.1072
534.00,0.1073
533.00,0.1075
532.00,0.1074
531.00,0.1073
530.00,0.1075
529.00,0.1077
528.00,0.1077
527.00,0.1077
526.00,0.1079
525.00,0.1081
524.00,0.1080
523.00,0.1080
522.00,0.1082
521.00,0.1084
520.00,0.1082
519.00,0.1079
518.00,0.1079
517.00,0.1080
516.00,0.1079
515.00,0.1078
514.00,0.1079
513.00,0.1080
512.00,0.1078
511.00,0.1076
510.00,0.1077
509.00,0.1077
508.00,0.1075
507.00,0.1073
506.00,0.1075
505.00,0.1077
504.00,0.1076
503.00,0.1076
502.00,0.1079
501.00,0.1080
500.00,0.1078
499.00,0.1077
498.00,0.1079
497.00,0.1081
496.00,0.1079
495.00,0.1078
494.00,0.1080
493.00,0.1083
492.00,0.1083
491.00,0.1084
490.00,0.1087
489.00,0.1088
488.00,0.1086
487.00,0.1083
486.00,0.1085
485.00,0.1087
484.00,0.1086
483.00,0.1088
482.00,0.1093
481.00,0.1096
480.00,0.1094
479.00,0.1091
478.00,0.1092
477.00,0.1095
476.00,0.1094
475.00,0.1093
474.00,0.1095
473.00,0.1096
472.00,0.1094
471.00,0.1093
470.00,0.1096
469.00,0.1095
468.00,0.1089
467.00,0.1084
466.00,0.1087
465.00,0.1091
464.00,0.1091
463.00,0.1090
462.00,0.1093
461.00,0.1094
460.00,0.1087
459.00,0.1078
458.00,0.1077
457.00,0.1078
456.00,0.1075
455.00,0.1071
454.00,0.1070
453.00,0.1068
452.00,0.1062
451.00,0.1059
450.00,0.1062
449.00,0.1063
448.00,0.1058
447.00,0.1051
446.00,0.1049
445.00,0.1045
444.00,0.1035
443.00,0.1029
442.00,0.1032
441.00,0.1035
440.00,0.1030
439.00,0.1024
438.00,0.1022
437.00,0.1021
436.00,0.1016
435.00,0.1011
434.00,0.1010
433.00,0.1006
432.00,0.0998
431.00,0.0995
430.00,0.1000
429.00,0.1002
428.00,0.0993
427.00,0.0982
426.00,0.0979
425.00,0.0979
424.00,0.0973
423.00,0.0969
422.00,0.0973
421.00,0.0974
420.00,0.0962
419.00,0.0951
418.00,0.0955
417.00,0.0956
416.00,0.0948
415.00,0.0944
414.00,0.0952
413.00,0.0959
412.00,0.0952
411.00,0.0943
410.00,0.0943
409.00,0.0943
408.00,0.0934
407.00,0.0931
406.00,0.0942
405.00,0.0948
404.00,0.0939
403.00,0.0933
402.00,0.0944
401.00,0.0947
400.00,0.0922
