Created as New Dataset,Sample 1087 By YargerLab Date Wednesday, August 06 2025
cm-1,A
4000.00,0.0091
3999.00,0.0091
3998.00,0.0091
3997.00,0.0091
3996.00,0.0091
3995.00,0.0091
3994.00,0.0091
3993.00,0.0091
3992.00,0.0090
3991.00,0.0090
3990.00,0.0090
3989.00,0.0091
3988.00,0.0091
3987.00,0.0091
3986.00,0.0091
3985.00,0.0091
3984.00,0.0091
3983.00,0.0091
3982.00,0.0091
3981.00,0.0092
3980.00,0.0092
3979.00,0.0092
3978.00,0.0092
3977.00,0.0092
3976.00,0.0092
3975.00,0.0092
3974.00,0.0092
3973.00,0.0092
3972.00,0.0092
3971.00,0.0092
3970.00,0.0092
3969.00,0.0092
3968.00,0.0091
3967.00,0.0091
3966.00,0.0091
3965.00,0.0091
3964.00,0.0091
3963.00,0.0091
3962.00,0.0091
3961.00,0.0092
3960.00,0.0092
3959.00,0.0092
3958.00,0.0091
3957.00,0.0091
3956.00,0.0091
3955.00,0.0091
3954.00,0.0091
3953.00,0.0091
3952.00,0.0091
3951.00,0.0091
3950.00,0.0090
3949.00,0.0090
3948.00,0.0090
3947.00,0.0090
3946.00,0.0090
3945.00,0.0090
3944.00,0.0090
3943.00,0.0090
3942.00,0.0090
3941.00,0.0090
3940.00,0.0090
3939.00,0.0090
3938.00,0.0091
3937.00,0.0091
3936.00,0.0091
3935.00,0.0091
3934.00,0.0091
3933.00,0.0090
3932.00,0.0090
3931.00,0.0090
3930.00,0.0090
3929.00,0.0091
3928.00,0.0091
3927.00,0.0091
3926.00,0.0091
3925.00,0.0091
3924.00,0.0091
3923.00,0.0091
3922.00,0.0091
3921.00,0.0090
3920.00,0.0090
3919.00,0.0090
3918.00,0.0090
3917.00,0.0090
3916.00,0.0090
3915.00,0.0090
3914.00,0.0090
3913.00,0.0090
3912.00,0.0090
3911.00,0.0090
3910.00,0.0090
3909.00,0.0090
3908.00,0.0090
3907.00,0.0090
3906.00,0.0090
3905.00,0.0090
3904.00,0.0090
3903.00,0.0089
3902.00,0.0089
3901.00,0.0088
3900.00,0.0089
3899.00,0.0089
3898.00,0.0089
3897.00,0.0089
3896.00,0.0089
3895.00,0.0089
3894.00,0.0089
3893.00,0.0090
3892.00,0.0090
3891.00,0.0090
3890.00,0.0090
3889.00,0.0090
3888.00,0.0090
3887.00,0.0089
3886.00,0.0089
3885.00,0.0089
3884.00,0.0089
3883.00,0.0088
3882.00,0.0089
3881.00,0.0089
3880.00,0.0089
3879.00,0.0089
3878.00,0.0089
3877.00,0.0089
3876.00,0.0089
3875.00,0.0089
3874.00,0.0089
3873.00,0.0089
3872.00,0.0089
3871.00,0.0089
3870.00,0.0089
3869.00,0.0089
3868.00,0.0089
3867.00,0.0089
3866.00,0.0089
3865.00,0.0089
3864.00,0.0089
3863.00,0.0089
3862.00,0.0089
3861.00,0.0089
3860.00,0.0089
3859.00,0.0089
3858.00,0.0089
3857.00,0.0089
3856.00,0.0088
3855.00,0.0088
3854.00,0.0088
3853.00,0.0088
3852.00,0.0088
3851.00,0.0088
3850.00,0.0088
3849.00,0.0089
3848.00,0.0089
3847.00,0.0089
3846.00,0.0089
3845.00,0.0089
3844.00,0.0089
3843.00,0.0089
3842.00,0.0089
3841.00,0.0089
3840.00,0.0088
3839.00,0.0088
3838.00,0.0088
3837.00,0.0088
3836.00,0.0088
3835.00,0.0088
3834.00,0.0088
3833.00,0.0088
3832.00,0.0088
3831.00,0.0089
3830.00,0.0089
3829.00,0.0089
3828.00,0.0089
3827.00,0.0089
3826.00,0.0089
3825.00,0.0089
3824.00,0.0089
3823.00,0.0090
3822.00,0.0090
3821.00,0.0089
3820.00,0.0089
3819.00,0.0088
3818.00,0.0088
3817.00,0.0088
3816.00,0.0088
3815.00,0.0088
3814.00,0.0088
3813.00,0.0088
3812.00,0.0088
3811.00,0.0088
3810.00,0.0088
3809.00,0.0088
3808.00,0.0089
3807.00,0.0088
3806.00,0.0088
3805.00,0.0088
3804.00,0.0088
3803.00,0.0088
3802.00,0.0088
3801.00,0.0087
3800.00,0.0087
3799.00,0.0087
3798.00,0.0087
3797.00,0.0088
3796.00,0.0088
3795.00,0.0088
3794.00,0.0088
3793.00,0.0088
3792.00,0.0088
3791.00,0.0088
3790.00,0.0088
3789.00,0.0089
3788.00,0.0089
3787.00,0.0089
3786.00,0.0089
3785.00,0.0089
3784.00,0.0089
3783.00,0.0088
3782.00,0.0088
3781.00,0.0088
3780.00,0.0089
3779.00,0.0089
3778.00,0.0089
3777.00,0.0089
3776.00,0.0089
3775.00,0.0089
3774.00,0.0089
3773.00,0.0089
3772.00,0.0089
3771.00,0.0089
3770.00,0.0089
3769.00,0.0089
3768.00,0.0089
3767.00,0.0088
3766.00,0.0088
3765.00,0.0088
3764.00,0.0088
3763.00,0.0088
3762.00,0.0088
3761.00,0.0089
3760.00,0.0089
3759.00,0.0089
3758.00,0.0088
3757.00,0.0088
3756.00,0.0088
3755.00,0.0088
3754.00,0.0088
3753.00,0.0088
3752.00,0.0088
3751.00,0.0088
3750.00,0.0088
3749.00,0.0087
3748.00,0.0087
3747.00,0.0087
3746.00,0.0087
3745.00,0.0087
3744.00,0.0087
3743.00,0.0086
3742.00,0.0086
3741.00,0.0086
3740.00,0.0086
3739.00,0.0086
3738.00,0.0086
3737.00,0.0086
3736.00,0.0086
3735.00,0.0086
3734.00,0.0086
3733.00,0.0086
3732.00,0.0086
3731.00,0.0086
3730.00,0.0086
3729.00,0.0085
3728.00,0.0085
3727.00,0.0085
3726.00,0.0085
3725.00,0.0086
3724.00,0.0086
3723.00,0.0086
3722.00,0.0087
3721.00,0.0087
3720.00,0.0087
3719.00,0.0087
3718.00,0.0087
3717.00,0.0087
3716.00,0.0086
3715.00,0.0086
3714.00,0.0086
3713.00,0.0085
3712.00,0.0085
3711.00,0.0086
3710.00,0.0086
3709.00,0.0086
3708.00,0.0087
3707.00,0.0086
3706.00,0.0086
3705.00,0.0086
3704.00,0.0086
3703.00,0.0086
3702.00,0.0086
3701.00,0.0086
3700.00,0.0086
3699.00,0.0085
3698.00,0.0085
3697.00,0.0086
3696.00,0.0086
3695.00,0.0086
3694.00,0.0086
3693.00,0.0086
3692.00,0.0086
3691.00,0.0086
3690.00,0.0086
3689.00,0.0086
3688.00,0.0087
3687.00,0.0087
3686.00,0.0087
3685.00,0.0087
3684.00,0.0087
3683.00,0.0087
3682.00,0.0087
3681.00,0.0088
3680.00,0.0088
3679.00,0.0088
3678.00,0.0088
3677.00,0.0088
3676.00,0.0087
3675.00,0.0087
3674.00,0.0087
3673.00,0.0087
3672.00,0.0087
3671.00,0.0087
3670.00,0.0087
3669.00,0.0088
3668.00,0.0088
3667.00,0.0088
3666.00,0.0089
3665.00,0.0089
3664.00,0.0089
3663.00,0.0089
3662.00,0.0089
3661.00,0.0089
3660.00,0.0089
3659.00,0.0090
3658.00,0.0090
3657.00,0.0090
3656.00,0.0090
3655.00,0.0090
3654.00,0.0090
3653.00,0.0090
3652.00,0.0090
3651.00,0.0091
3650.00,0.0091
3649.00,0.0091
3648.00,0.0091
3647.00,0.0091
3646.00,0.0091
3645.00,0.0092
3644.00,0.0092
3643.00,0.0093
3642.00,0.0094
3641.00,0.0094
3640.00,0.0095
3639.00,0.0095
3638.00,0.0095
3637.00,0.0095
3636.00,0.0095
3635.00,0.0096
3634.00,0.0096
3633.00,0.0096
3632.00,0.0097
3631.00,0.0097
3630.00,0.0098
3629.00,0.0098
3628.00,0.0098
3627.00,0.0098
3626.00,0.0099
3625.00,0.0099
3624.00,0.0100
3623.00,0.0100
3622.00,0.0100
3621.00,0.0101
3620.00,0.0101
3619.00,0.0101
3618.00,0.0102
3617.00,0.0103
3616.00,0.0103
3615.00,0.0104
3614.00,0.0104
3613.00,0.0104
3612.00,0.0105
3611.00,0.0105
3610.00,0.0106
3609.00,0.0107
3608.00,0.0107
3607.00,0.0108
3606.00,0.0108
3605.00,0.0109
3604.00,0.0109
3603.00,0.0110
3602.00,0.0110
3601.00,0.0111
3600.00,0.0112
3599.00,0.0112
3598.00,0.0113
3597.00,0.0114
3596.00,0.0114
3595.00,0.0115
3594.00,0.0115
3593.00,0.0116
3592.00,0.0116
3591.00,0.0117
3590.00,0.0117
3589.00,0.0118
3588.00,0.0119
3587.00,0.0119
3586.00,0.0120
3585.00,0.0121
3584.00,0.0122
3583.00,0.0123
3582.00,0.0124
3581.00,0.0125
3580.00,0.0125
3579.00,0.0126
3578.00,0.0127
3577.00,0.0128
3576.00,0.0129
3575.00,0.0129
3574.00,0.0130
3573.00,0.0131
3572.00,0.0132
3571.00,0.0133
3570.00,0.0134
3569.00,0.0134
3568.00,0.0135
3567.00,0.0135
3566.00,0.0136
3565.00,0.0137
3564.00,0.0138
3563.00,0.0139
3562.00,0.0140
3561.00,0.0141
3560.00,0.0142
3559.00,0.0143
3558.00,0.0144
3557.00,0.0145
3556.00,0.0146
3555.00,0.0147
3554.00,0.0148
3553.00,0.0148
3552.00,0.0149
3551.00,0.0150
3550.00,0.0151
3549.00,0.0152
3548.00,0.0153
3547.00,0.0154
3546.00,0.0155
3545.00,0.0156
3544.00,0.0157
3543.00,0.0158
3542.00,0.0158
3541.00,0.0159
3540.00,0.0160
3539.00,0.0161
3538.00,0.0162
3537.00,0.0163
3536.00,0.0164
3535.00,0.0165
3534.00,0.0166
3533.00,0.0167
3532.00,0.0168
3531.00,0.0168
3530.00,0.0169
3529.00,0.0170
3528.00,0.0171
3527.00,0.0171
3526.00,0.0172
3525.00,0.0173
3524.00,0.0174
3523.00,0.0175
3522.00,0.0175
3521.00,0.0176
3520.00,0.0177
3519.00,0.0177
3518.00,0.0178
3517.00,0.0179
3516.00,0.0180
3515.00,0.0182
3514.00,0.0183
3513.00,0.0184
3512.00,0.0184
3511.00,0.0185
3510.00,0.0185
3509.00,0.0186
3508.00,0.0187
3507.00,0.0188
3506.00,0.0189
3505.00,0.0190
3504.00,0.0191
3503.00,0.0192
3502.00,0.0193
3501.00,0.0194
3500.00,0.0195
3499.00,0.0196
3498.00,0.0197
3497.00,0.0197
3496.00,0.0198
3495.00,0.0199
3494.00,0.0200
3493.00,0.0202
3492.00,0.0203
3491.00,0.0204
3490.00,0.0205
3489.00,0.0206
3488.00,0.0207
3487.00,0.0208
3486.00,0.0209
3485.00,0.0211
3484.00,0.0213
3483.00,0.0214
3482.00,0.0216
3481.00,0.0218
3480.00,0.0219
3479.00,0.0220
3478.00,0.0222
3477.00,0.0223
3476.00,0.0224
3475.00,0.0226
3474.00,0.0227
3473.00,0.0229
3472.00,0.0231
3471.00,0.0233
3470.00,0.0234
3469.00,0.0236
3468.00,0.0238
3467.00,0.0240
3466.00,0.0242
3465.00,0.0244
3464.00,0.0245
3463.00,0.0247
3462.00,0.0249
3461.00,0.0251
3460.00,0.0253
3459.00,0.0255
3458.00,0.0256
3457.00,0.0258
3456.00,0.0260
3455.00,0.0262
3454.00,0.0264
3453.00,0.0266
3452.00,0.0268
3451.00,0.0270
3450.00,0.0272
3449.00,0.0274
3448.00,0.0276
3447.00,0.0278
3446.00,0.0281
3445.00,0.0283
3444.00,0.0285
3443.00,0.0288
3442.00,0.0290
3441.00,0.0292
3440.00,0.0295
3439.00,0.0297
3438.00,0.0300
3437.00,0.0303
3436.00,0.0305
3435.00,0.0308
3434.00,0.0311
3433.00,0.0314
3432.00,0.0317
3431.00,0.0320
3430.00,0.0323
3429.00,0.0326
3428.00,0.0329
3427.00,0.0333
3426.00,0.0336
3425.00,0.0339
3424.00,0.0343
3423.00,0.0346
3422.00,0.0349
3421.00,0.0352
3420.00,0.0356
3419.00,0.0359
3418.00,0.0362
3417.00,0.0366
3416.00,0.0369
3415.00,0.0372
3414.00,0.0375
3413.00,0.0378
3412.00,0.0381
3411.00,0.0384
3410.00,0.0386
3409.00,0.0388
3408.00,0.0390
3407.00,0.0391
3406.00,0.0393
3405.00,0.0395
3404.00,0.0396
3403.00,0.0397
3402.00,0.0398
3401.00,0.0398
3400.00,0.0398
3399.00,0.0397
3398.00,0.0397
3397.00,0.0396
3396.00,0.0395
3395.00,0.0394
3394.00,0.0393
3393.00,0.0392
3392.00,0.0391
3391.00,0.0389
3390.00,0.0387
3389.00,0.0385
3388.00,0.0383
3387.00,0.0381
3386.00,0.0379
3385.00,0.0376
3384.00,0.0374
3383.00,0.0372
3382.00,0.0369
3381.00,0.0367
3380.00,0.0365
3379.00,0.0363
3378.00,0.0360
3377.00,0.0358
3376.00,0.0356
3375.00,0.0353
3374.00,0.0351
3373.00,0.0348
3372.00,0.0346
3371.00,0.0344
3370.00,0.0342
3369.00,0.0340
3368.00,0.0337
3367.00,0.0336
3366.00,0.0334
3365.00,0.0332
3364.00,0.0330
3363.00,0.0328
3362.00,0.0326
3361.00,0.0324
3360.00,0.0322
3359.00,0.0321
3358.00,0.0319
3357.00,0.0318
3356.00,0.0317
3355.00,0.0316
3354.00,0.0314
3353.00,0.0313
3352.00,0.0312
3351.00,0.0310
3350.00,0.0309
3349.00,0.0308
3348.00,0.0307
3347.00,0.0307
3346.00,0.0306
3345.00,0.0305
3344.00,0.0304
3343.00,0.0304
3342.00,0.0303
3341.00,0.0302
3340.00,0.0301
3339.00,0.0301
3338.00,0.0300
3337.00,0.0300
3336.00,0.0300
3335.00,0.0300
3334.00,0.0300
3333.00,0.0299
3332.00,0.0299
3331.00,0.0299
3330.00,0.0299
3329.00,0.0299
3328.00,0.0299
3327.00,0.0299
3326.00,0.0299
3325.00,0.0299
3324.00,0.0299
3323.00,0.0299
3322.00,0.0300
3321.00,0.0300
3320.00,0.0301
3319.00,0.0302
3318.00,0.0302
3317.00,0.0303
3316.00,0.0303
3315.00,0.0303
3314.00,0.0304
3313.00,0.0304
3312.00,0.0305
3311.00,0.0305
3310.00,0.0305
3309.00,0.0305
3308.00,0.0306
3307.00,0.0307
3306.00,0.0307
3305.00,0.0309
3304.00,0.0310
3303.00,0.0311
3302.00,0.0313
3301.00,0.0314
3300.00,0.0316
3299.00,0.0317
3298.00,0.0317
3297.00,0.0318
3296.00,0.0319
3295.00,0.0319
3294.00,0.0320
3293.00,0.0321
3292.00,0.0322
3291.00,0.0324
3290.00,0.0326
3289.00,0.0327
3288.00,0.0329
3287.00,0.0330
3286.00,0.0331
3285.00,0.0332
3284.00,0.0333
3283.00,0.0334
3282.00,0.0335
3281.00,0.0337
3280.00,0.0338
3279.00,0.0339
3278.00,0.0340
3277.00,0.0340
3276.00,0.0341
3275.00,0.0342
3274.00,0.0343
3273.00,0.0344
3272.00,0.0345
3271.00,0.0346
3270.00,0.0347
3269.00,0.0348
3268.00,0.0350
3267.00,0.0352
3266.00,0.0353
3265.00,0.0354
3264.00,0.0355
3263.00,0.0356
3262.00,0.0357
3261.00,0.0358
3260.00,0.0359
3259.00,0.0360
3258.00,0.0362
3257.00,0.0363
3256.00,0.0364
3255.00,0.0365
3254.00,0.0366
3253.00,0.0367
3252.00,0.0367
3251.00,0.0368
3250.00,0.0368
3249.00,0.0368
3248.00,0.0369
3247.00,0.0370
3246.00,0.0371
3245.00,0.0372
3244.00,0.0374
3243.00,0.0374
3242.00,0.0375
3241.00,0.0375
3240.00,0.0375
3239.00,0.0375
3238.00,0.0375
3237.00,0.0374
3236.00,0.0374
3235.00,0.0373
3234.00,0.0373
3233.00,0.0373
3232.00,0.0373
3231.00,0.0374
3230.00,0.0374
3229.00,0.0373
3228.00,0.0373
3227.00,0.0372
3226.00,0.0372
3225.00,0.0371
3224.00,0.0370
3223.00,0.0370
3222.00,0.0368
3221.00,0.0367
3220.00,0.0366
3219.00,0.0365
3218.00,0.0364
3217.00,0.0363
3216.00,0.0362
3215.00,0.0361
3214.00,0.0359
3213.00,0.0358
3212.00,0.0356
3211.00,0.0355
3210.00,0.0353
3209.00,0.0351
3208.00,0.0350
3207.00,0.0348
3206.00,0.0346
3205.00,0.0344
3204.00,0.0342
3203.00,0.0340
3202.00,0.0337
3201.00,0.0335
3200.00,0.0332
3199.00,0.0330
3198.00,0.0328
3197.00,0.0326
3196.00,0.0324
3195.00,0.0322
3194.00,0.0320
3193.00,0.0317
3192.00,0.0315
3191.00,0.0313
3190.00,0.0311
3189.00,0.0308
3188.00,0.0306
3187.00,0.0304
3186.00,0.0302
3185.00,0.0300
3184.00,0.0297
3183.00,0.0295
3182.00,0.0293
3181.00,0.0291
3180.00,0.0288
3179.00,0.0286
3178.00,0.0284
3177.00,0.0282
3176.00,0.0280
3175.00,0.0278
3174.00,0.0275
3173.00,0.0273
3172.00,0.0271
3171.00,0.0269
3170.00,0.0267
3169.00,0.0265
3168.00,0.0262
3167.00,0.0260
3166.00,0.0257
3165.00,0.0255
3164.00,0.0253
3163.00,0.0251
3162.00,0.0249
3161.00,0.0246
3160.00,0.0244
3159.00,0.0242
3158.00,0.0241
3157.00,0.0239
3156.00,0.0237
3155.00,0.0234
3154.00,0.0232
3153.00,0.0229
3152.00,0.0227
3151.00,0.0226
3150.00,0.0224
3149.00,0.0223
3148.00,0.0221
3147.00,0.0219
3146.00,0.0217
3145.00,0.0215
3144.00,0.0213
3143.00,0.0211
3142.00,0.0209
3141.00,0.0208
3140.00,0.0206
3139.00,0.0205
3138.00,0.0204
3137.00,0.0202
3136.00,0.0201
3135.00,0.0200
3134.00,0.0199
3133.00,0.0197
3132.00,0.0196
3131.00,0.0195
3130.00,0.0193
3129.00,0.0192
3128.00,0.0191
3127.00,0.0190
3126.00,0.0189
3125.00,0.0188
3124.00,0.0187
3123.00,0.0186
3122.00,0.0185
3121.00,0.0184
3120.00,0.0183
3119.00,0.0182
3118.00,0.0181
3117.00,0.0180
3116.00,0.0179
3115.00,0.0178
3114.00,0.0177
3113.00,0.0176
3112.00,0.0175
3111.00,0.0174
3110.00,0.0173
3109.00,0.0171
3108.00,0.0169
3107.00,0.0168
3106.00,0.0166
3105.00,0.0165
3104.00,0.0164
3103.00,0.0163
3102.00,0.0162
3101.00,0.0162
3100.00,0.0161
3099.00,0.0160
3098.00,0.0160
3097.00,0.0160
3096.00,0.0159
3095.00,0.0159
3094.00,0.0159
3093.00,0.0159
3092.00,0.0160
3091.00,0.0160
3090.00,0.0160
3089.00,0.0161
3088.00,0.0161
3087.00,0.0161
3086.00,0.0161
3085.00,0.0161
3084.00,0.0161
3083.00,0.0161
3082.00,0.0161
3081.00,0.0161
3080.00,0.0160
3079.00,0.0160
3078.00,0.0159
3077.00,0.0158
3076.00,0.0157
3075.00,0.0157
3074.00,0.0156
3073.00,0.0156
3072.00,0.0155
3071.00,0.0155
3070.00,0.0155
3069.00,0.0154
3068.00,0.0154
3067.00,0.0154
3066.00,0.0154
3065.00,0.0154
3064.00,0.0154
3063.00,0.0154
3062.00,0.0155
3061.00,0.0155
3060.00,0.0155
3059.00,0.0155
3058.00,0.0156
3057.00,0.0156
3056.00,0.0156
3055.00,0.0156
3054.00,0.0156
3053.00,0.0156
3052.00,0.0156
3051.00,0.0155
3050.00,0.0155
3049.00,0.0154
3048.00,0.0154
3047.00,0.0154
3046.00,0.0154
3045.00,0.0154
3044.00,0.0154
3043.00,0.0154
3042.00,0.0155
3041.00,0.0155
3040.00,0.0156
3039.00,0.0157
3038.00,0.0159
3037.00,0.0160
3036.00,0.0162
3035.00,0.0163
3034.00,0.0164
3033.00,0.0164
3032.00,0.0165
3031.00,0.0164
3030.00,0.0164
3029.00,0.0163
3028.00,0.0161
3027.00,0.0160
3026.00,0.0158
3025.00,0.0157
3024.00,0.0155
3023.00,0.0154
3022.00,0.0153
3021.00,0.0151
3020.00,0.0151
3019.00,0.0150
3018.00,0.0149
3017.00,0.0149
3016.00,0.0149
3015.00,0.0149
3014.00,0.0150
3013.00,0.0150
3012.00,0.0150
3011.00,0.0151
3010.00,0.0152
3009.00,0.0154
3008.00,0.0156
3007.00,0.0158
3006.00,0.0160
3005.00,0.0163
3004.00,0.0166
3003.00,0.0170
3002.00,0.0174
3001.00,0.0178
3000.00,0.0184
2999.00,0.0189
2998.00,0.0196
2997.00,0.0202
2996.00,0.0210
2995.00,0.0217
2994.00,0.0223
2993.00,0.0229
2992.00,0.0235
2991.00,0.0240
2990.00,0.0244
2989.00,0.0248
2988.00,0.0253
2987.00,0.0258
2986.00,0.0264
2985.00,0.0272
2984.00,0.0281
2983.00,0.0291
2982.00,0.0304
2981.00,0.0317
2980.00,0.0329
2979.00,0.0338
2978.00,0.0345
2977.00,0.0348
2976.00,0.0352
2975.00,0.0359
2974.00,0.0369
2973.00,0.0383
2972.00,0.0399
2971.00,0.0415
2970.00,0.0427
2969.00,0.0437
2968.00,0.0444
2967.00,0.0449
2966.00,0.0455
2965.00,0.0463
2964.00,0.0472
2963.00,0.0481
2962.00,0.0491
2961.00,0.0498
2960.00,0.0501
2959.00,0.0500
2958.00,0.0495
2957.00,0.0485
2956.00,0.0472
2955.00,0.0458
2954.00,0.0444
2953.00,0.0431
2952.00,0.0420
2951.00,0.0411
2950.00,0.0404
2949.00,0.0399
2948.00,0.0398
2947.00,0.0400
2946.00,0.0404
2945.00,0.0410
2944.00,0.0417
2943.00,0.0426
2942.00,0.0437
2941.00,0.0449
2940.00,0.0462
2939.00,0.0479
2938.00,0.0498
2937.00,0.0520
2936.00,0.0545
2935.00,0.0573
2934.00,0.0603
2933.00,0.0634
2932.00,0.0665
2931.00,0.0695
2930.00,0.0721
2929.00,0.0742
2928.00,0.0757
2927.00,0.0765
2926.00,0.0765
2925.00,0.0759
2924.00,0.0747
2923.00,0.0732
2922.00,0.0713
2921.00,0.0693
2920.00,0.0671
2919.00,0.0649
2918.00,0.0626
2917.00,0.0604
2916.00,0.0583
2915.00,0.0562
2914.00,0.0543
2913.00,0.0525
2912.00,0.0508
2911.00,0.0493
2910.00,0.0479
2909.00,0.0466
2908.00,0.0454
2907.00,0.0443
2906.00,0.0433
2905.00,0.0424
2904.00,0.0415
2903.00,0.0406
2902.00,0.0398
2901.00,0.0390
2900.00,0.0382
2899.00,0.0375
2898.00,0.0369
2897.00,0.0363
2896.00,0.0357
2895.00,0.0352
2894.00,0.0347
2893.00,0.0342
2892.00,0.0338
2891.00,0.0334
2890.00,0.0330
2889.00,0.0326
2888.00,0.0323
2887.00,0.0320
2886.00,0.0318
2885.00,0.0315
2884.00,0.0314
2883.00,0.0314
2882.00,0.0314
2881.00,0.0317
2880.00,0.0321
2879.00,0.0327
2878.00,0.0335
2877.00,0.0344
2876.00,0.0354
2875.00,0.0364
2874.00,0.0372
2873.00,0.0378
2872.00,0.0381
2871.00,0.0381
2870.00,0.0379
2869.00,0.0377
2868.00,0.0374
2867.00,0.0374
2866.00,0.0377
2865.00,0.0383
2864.00,0.0394
2863.00,0.0409
2862.00,0.0429
2861.00,0.0451
2860.00,0.0475
2859.00,0.0497
2858.00,0.0516
2857.00,0.0529
2856.00,0.0536
2855.00,0.0538
2854.00,0.0535
2853.00,0.0529
2852.00,0.0518
2851.00,0.0502
2850.00,0.0481
2849.00,0.0456
2848.00,0.0429
2847.00,0.0402
2846.00,0.0377
2845.00,0.0353
2844.00,0.0332
2843.00,0.0313
2842.00,0.0296
2841.00,0.0281
2840.00,0.0269
2839.00,0.0258
2838.00,0.0249
2837.00,0.0241
2836.00,0.0234
2835.00,0.0228
2834.00,0.0222
2833.00,0.0217
2832.00,0.0212
2831.00,0.0208
2830.00,0.0204
2829.00,0.0200
2828.00,0.0197
2827.00,0.0193
2826.00,0.0190
2825.00,0.0187
2824.00,0.0184
2823.00,0.0181
2822.00,0.0178
2821.00,0.0176
2820.00,0.0174
2819.00,0.0172
2818.00,0.0170
2817.00,0.0169
2816.00,0.0167
2815.00,0.0166
2814.00,0.0164
2813.00,0.0163
2812.00,0.0161
2811.00,0.0160
2810.00,0.0158
2809.00,0.0157
2808.00,0.0157
2807.00,0.0156
2806.00,0.0155
2805.00,0.0155
2804.00,0.0154
2803.00,0.0153
2802.00,0.0152
2801.00,0.0151
2800.00,0.0150
2799.00,0.0149
2798.00,0.0148
2797.00,0.0147
2796.00,0.0146
2795.00,0.0145
2794.00,0.0145
2793.00,0.0144
2792.00,0.0143
2791.00,0.0143
2790.00,0.0142
2789.00,0.0142
2788.00,0.0141
2787.00,0.0140
2786.00,0.0140
2785.00,0.0139
2784.00,0.0138
2783.00,0.0138
2782.00,0.0137
2781.00,0.0136
2780.00,0.0136
2779.00,0.0135
2778.00,0.0135
2777.00,0.0134
2776.00,0.0134
2775.00,0.0134
2774.00,0.0133
2773.00,0.0133
2772.00,0.0133
2771.00,0.0133
2770.00,0.0132
2769.00,0.0132
2768.00,0.0132
2767.00,0.0132
2766.00,0.0132
2765.00,0.0132
2764.00,0.0132
2763.00,0.0131
2762.00,0.0131
2761.00,0.0131
2760.00,0.0131
2759.00,0.0131
2758.00,0.0131
2757.00,0.0131
2756.00,0.0131
2755.00,0.0131
2754.00,0.0131
2753.00,0.0131
2752.00,0.0131
2751.00,0.0131
2750.00,0.0131
2749.00,0.0131
2748.00,0.0132
2747.00,0.0132
2746.00,0.0132
2745.00,0.0133
2744.00,0.0133
2743.00,0.0133
2742.00,0.0133
2741.00,0.0134
2740.00,0.0134
2739.00,0.0134
2738.00,0.0135
2737.00,0.0136
2736.00,0.0137
2735.00,0.0137
2734.00,0.0138
2733.00,0.0139
2732.00,0.0140
2731.00,0.0140
2730.00,0.0140
2729.00,0.0140
2728.00,0.0140
2727.00,0.0140
2726.00,0.0139
2725.00,0.0138
2724.00,0.0138
2723.00,0.0137
2722.00,0.0137
2721.00,0.0136
2720.00,0.0136
2719.00,0.0135
2718.00,0.0135
2717.00,0.0134
2716.00,0.0134
2715.00,0.0134
2714.00,0.0134
2713.00,0.0133
2712.00,0.0133
2711.00,0.0133
2710.00,0.0133
2709.00,0.0132
2708.00,0.0132
2707.00,0.0132
2706.00,0.0132
2705.00,0.0132
2704.00,0.0132
2703.00,0.0132
2702.00,0.0132
2701.00,0.0131
2700.00,0.0131
2699.00,0.0131
2698.00,0.0131
2697.00,0.0130
2696.00,0.0130
2695.00,0.0130
2694.00,0.0129
2693.00,0.0129
2692.00,0.0128
2691.00,0.0128
2690.00,0.0128
2689.00,0.0127
2688.00,0.0127
2687.00,0.0127
2686.00,0.0127
2685.00,0.0126
2684.00,0.0126
2683.00,0.0126
2682.00,0.0126
2681.00,0.0125
2680.00,0.0125
2679.00,0.0125
2678.00,0.0125
2677.00,0.0125
2676.00,0.0125
2675.00,0.0125
2674.00,0.0126
2673.00,0.0126
2672.00,0.0126
2671.00,0.0126
2670.00,0.0127
2669.00,0.0127
2668.00,0.0127
2667.00,0.0128
2666.00,0.0129
2665.00,0.0129
2664.00,0.0130
2663.00,0.0131
2662.00,0.0131
2661.00,0.0132
2660.00,0.0132
2659.00,0.0132
2658.00,0.0132
2657.00,0.0132
2656.00,0.0132
2655.00,0.0133
2654.00,0.0133
2653.00,0.0133
2652.00,0.0133
2651.00,0.0133
2650.00,0.0133
2649.00,0.0133
2648.00,0.0133
2647.00,0.0133
2646.00,0.0132
2645.00,0.0132
2644.00,0.0132
2643.00,0.0132
2642.00,0.0131
2641.00,0.0131
2640.00,0.0131
2639.00,0.0130
2638.00,0.0130
2637.00,0.0130
2636.00,0.0129
2635.00,0.0128
2634.00,0.0128
2633.00,0.0127
2632.00,0.0127
2631.00,0.0126
2630.00,0.0126
2629.00,0.0125
2628.00,0.0125
2627.00,0.0124
2626.00,0.0124
2625.00,0.0123
2624.00,0.0123
2623.00,0.0123
2622.00,0.0123
2621.00,0.0122
2620.00,0.0122
2619.00,0.0122
2618.00,0.0122
2617.00,0.0122
2616.00,0.0122
2615.00,0.0122
2614.00,0.0122
2613.00,0.0122
2612.00,0.0122
2611.00,0.0122
2610.00,0.0122
2609.00,0.0122
2608.00,0.0122
2607.00,0.0122
2606.00,0.0122
2605.00,0.0122
2604.00,0.0122
2603.00,0.0122
2602.00,0.0122
2601.00,0.0123
2600.00,0.0123
2599.00,0.0123
2598.00,0.0124
2597.00,0.0124
2596.00,0.0125
2595.00,0.0125
2594.00,0.0125
2593.00,0.0125
2592.00,0.0125
2591.00,0.0125
2590.00,0.0125
2589.00,0.0125
2588.00,0.0125
2587.00,0.0125
2586.00,0.0125
2585.00,0.0125
2584.00,0.0125
2583.00,0.0125
2582.00,0.0124
2581.00,0.0124
2580.00,0.0124
2579.00,0.0123
2578.00,0.0123
2577.00,0.0122
2576.00,0.0122
2575.00,0.0122
2574.00,0.0122
2573.00,0.0122
2572.00,0.0122
2571.00,0.0122
2570.00,0.0122
2569.00,0.0122
2568.00,0.0122
2567.00,0.0121
2566.00,0.0121
2565.00,0.0122
2564.00,0.0122
2563.00,0.0121
2562.00,0.0121
2561.00,0.0120
2560.00,0.0120
2559.00,0.0119
2558.00,0.0119
2557.00,0.0119
2556.00,0.0118
2555.00,0.0118
2554.00,0.0117
2553.00,0.0117
2552.00,0.0117
2551.00,0.0117
2550.00,0.0117
2549.00,0.0117
2548.00,0.0117
2547.00,0.0116
2546.00,0.0116
2545.00,0.0116
2544.00,0.0116
2543.00,0.0117
2542.00,0.0117
2541.00,0.0117
2540.00,0.0117
2539.00,0.0117
2538.00,0.0117
2537.00,0.0117
2536.00,0.0117
2535.00,0.0117
2534.00,0.0117
2533.00,0.0116
2532.00,0.0116
2531.00,0.0116
2530.00,0.0116
2529.00,0.0116
2528.00,0.0115
2527.00,0.0115
2526.00,0.0114
2525.00,0.0114
2524.00,0.0114
2523.00,0.0114
2522.00,0.0114
2521.00,0.0114
2520.00,0.0113
2519.00,0.0113
2518.00,0.0112
2517.00,0.0112
2516.00,0.0112
2515.00,0.0112
2514.00,0.0111
2513.00,0.0111
2512.00,0.0110
2511.00,0.0110
2510.00,0.0110
2509.00,0.0110
2508.00,0.0110
2507.00,0.0110
2506.00,0.0110
2505.00,0.0110
2504.00,0.0110
2503.00,0.0109
2502.00,0.0109
2501.00,0.0109
2500.00,0.0108
2499.00,0.0108
2498.00,0.0108
2497.00,0.0108
2496.00,0.0108
2495.00,0.0108
2494.00,0.0107
2493.00,0.0107
2492.00,0.0107
2491.00,0.0107
2490.00,0.0107
2489.00,0.0107
2488.00,0.0106
2487.00,0.0106
2486.00,0.0107
2485.00,0.0107
2484.00,0.0107
2483.00,0.0107
2482.00,0.0107
2481.00,0.0107
2480.00,0.0107
2479.00,0.0106
2478.00,0.0106
2477.00,0.0106
2476.00,0.0106
2475.00,0.0106
2474.00,0.0105
2473.00,0.0105
2472.00,0.0105
2471.00,0.0105
2470.00,0.0105
2469.00,0.0105
2468.00,0.0105
2467.00,0.0105
2466.00,0.0105
2465.00,0.0105
2464.00,0.0105
2463.00,0.0105
2462.00,0.0105
2461.00,0.0105
2460.00,0.0106
2459.00,0.0106
2458.00,0.0107
2457.00,0.0107
2456.00,0.0107
2455.00,0.0107
2454.00,0.0107
2453.00,0.0107
2452.00,0.0106
2451.00,0.0106
2450.00,0.0105
2449.00,0.0105
2448.00,0.0105
2447.00,0.0105
2446.00,0.0104
2445.00,0.0104
2444.00,0.0104
2443.00,0.0104
2442.00,0.0104
2441.00,0.0104
2440.00,0.0104
2439.00,0.0104
2438.00,0.0103
2437.00,0.0103
2436.00,0.0103
2435.00,0.0103
2434.00,0.0103
2433.00,0.0103
2432.00,0.0103
2431.00,0.0103
2430.00,0.0103
2429.00,0.0103
2428.00,0.0103
2427.00,0.0102
2426.00,0.0102
2425.00,0.0102
2424.00,0.0101
2423.00,0.0101
2422.00,0.0101
2421.00,0.0101
2420.00,0.0101
2419.00,0.0101
2418.00,0.0101
2417.00,0.0102
2416.00,0.0102
2415.00,0.0102
2414.00,0.0102
2413.00,0.0102
2412.00,0.0102
2411.00,0.0102
2410.00,0.0102
2409.00,0.0102
2408.00,0.0102
2407.00,0.0102
2406.00,0.0102
2405.00,0.0101
2404.00,0.0101
2403.00,0.0100
2402.00,0.0100
2401.00,0.0099
2400.00,0.0100
2399.00,0.0100
2398.00,0.0100
2397.00,0.0100
2396.00,0.0101
2395.00,0.0101
2394.00,0.0100
2393.00,0.0100
2392.00,0.0100
2391.00,0.0100
2390.00,0.0100
2389.00,0.0099
2388.00,0.0099
2387.00,0.0099
2386.00,0.0099
2385.00,0.0099
2384.00,0.0098
2383.00,0.0098
2382.00,0.0097
2381.00,0.0096
2380.00,0.0096
2379.00,0.0096
2378.00,0.0096
2377.00,0.0096
2376.00,0.0096
2375.00,0.0096
2374.00,0.0097
2373.00,0.0097
2372.00,0.0097
2371.00,0.0097
2370.00,0.0096
2369.00,0.0096
2368.00,0.0096
2367.00,0.0096
2366.00,0.0096
2365.00,0.0096
2364.00,0.0096
2363.00,0.0096
2362.00,0.0096
2361.00,0.0096
2360.00,0.0096
2359.00,0.0096
2358.00,0.0096
2357.00,0.0096
2356.00,0.0097
2355.00,0.0097
2354.00,0.0097
2353.00,0.0097
2352.00,0.0097
2351.00,0.0097
2350.00,0.0097
2349.00,0.0097
2348.00,0.0097
2347.00,0.0097
2346.00,0.0097
2345.00,0.0097
2344.00,0.0098
2343.00,0.0099
2342.00,0.0099
2341.00,0.0099
2340.00,0.0100
2339.00,0.0100
2338.00,0.0101
2337.00,0.0101
2336.00,0.0101
2335.00,0.0100
2334.00,0.0100
2333.00,0.0099
2332.00,0.0099
2331.00,0.0099
2330.00,0.0099
2329.00,0.0102
2328.00,0.0106
2327.00,0.0111
2326.00,0.0114
2325.00,0.0115
2324.00,0.0114
2323.00,0.0111
2322.00,0.0108
2321.00,0.0107
2320.00,0.0106
2319.00,0.0106
2318.00,0.0106
2317.00,0.0105
2316.00,0.0105
2315.00,0.0104
2314.00,0.0103
2313.00,0.0103
2312.00,0.0103
2311.00,0.0103
2310.00,0.0103
2309.00,0.0102
2308.00,0.0102
2307.00,0.0102
2306.00,0.0102
2305.00,0.0102
2304.00,0.0103
2303.00,0.0103
2302.00,0.0103
2301.00,0.0104
2300.00,0.0104
2299.00,0.0105
2298.00,0.0105
2297.00,0.0105
2296.00,0.0105
2295.00,0.0106
2294.00,0.0107
2293.00,0.0108
2292.00,0.0109
2291.00,0.0110
2290.00,0.0111
2289.00,0.0111
2288.00,0.0111
2287.00,0.0111
2286.00,0.0111
2285.00,0.0110
2284.00,0.0109
2283.00,0.0108
2282.00,0.0108
2281.00,0.0107
2280.00,0.0107
2279.00,0.0106
2278.00,0.0105
2277.00,0.0105
2276.00,0.0104
2275.00,0.0104
2274.00,0.0103
2273.00,0.0102
2272.00,0.0102
2271.00,0.0102
2270.00,0.0101
2269.00,0.0101
2268.00,0.0101
2267.00,0.0100
2266.00,0.0099
2265.00,0.0098
2264.00,0.0097
2263.00,0.0097
2262.00,0.0097
2261.00,0.0098
2260.00,0.0098
2259.00,0.0098
2258.00,0.0098
2257.00,0.0096
2256.00,0.0095
2255.00,0.0094
2254.00,0.0094
2253.00,0.0095
2252.00,0.0096
2251.00,0.0097
2250.00,0.0097
2249.00,0.0097
2248.00,0.0098
2247.00,0.0098
2246.00,0.0097
2245.00,0.0097
2244.00,0.0098
2243.00,0.0098
2242.00,0.0099
2241.00,0.0100
2240.00,0.0100
2239.00,0.0099
2238.00,0.0097
2237.00,0.0096
2236.00,0.0096
2235.00,0.0097
2234.00,0.0097
2233.00,0.0098
2232.00,0.0098
2231.00,0.0098
2230.00,0.0098
2229.00,0.0099
2228.00,0.0100
2227.00,0.0101
2226.00,0.0100
2225.00,0.0100
2224.00,0.0099
2223.00,0.0098
2222.00,0.0096
2221.00,0.0096
2220.00,0.0095
2219.00,0.0095
2218.00,0.0095
2217.00,0.0095
2216.00,0.0096
2215.00,0.0097
2214.00,0.0098
2213.00,0.0098
2212.00,0.0099
2211.00,0.0099
2210.00,0.0098
2209.00,0.0098
2208.00,0.0098
2207.00,0.0098
2206.00,0.0097
2205.00,0.0097
2204.00,0.0098
2203.00,0.0098
2202.00,0.0098
2201.00,0.0097
2200.00,0.0097
2199.00,0.0096
2198.00,0.0096
2197.00,0.0096
2196.00,0.0096
2195.00,0.0096
2194.00,0.0097
2193.00,0.0098
2192.00,0.0099
2191.00,0.0100
2190.00,0.0100
2189.00,0.0101
2188.00,0.0101
2187.00,0.0102
2186.00,0.0101
2185.00,0.0100
2184.00,0.0097
2183.00,0.0095
2182.00,0.0093
2181.00,0.0093
2180.00,0.0094
2179.00,0.0093
2178.00,0.0092
2177.00,0.0090
2176.00,0.0090
2175.00,0.0091
2174.00,0.0093
2173.00,0.0096
2172.00,0.0099
2171.00,0.0101
2170.00,0.0102
2169.00,0.0103
2168.00,0.0104
2167.00,0.0104
2166.00,0.0105
2165.00,0.0107
2164.00,0.0110
2163.00,0.0110
2162.00,0.0105
2161.00,0.0095
2160.00,0.0081
2159.00,0.0070
2158.00,0.0064
2157.00,0.0064
2156.00,0.0067
2155.00,0.0069
2154.00,0.0072
2153.00,0.0074
2152.00,0.0076
2151.00,0.0077
2150.00,0.0077
2149.00,0.0077
2148.00,0.0077
2147.00,0.0076
2146.00,0.0075
2145.00,0.0075
2144.00,0.0076
2143.00,0.0076
2142.00,0.0077
2141.00,0.0077
2140.00,0.0078
2139.00,0.0078
2138.00,0.0078
2137.00,0.0076
2136.00,0.0075
2135.00,0.0073
2134.00,0.0072
2133.00,0.0073
2132.00,0.0075
2131.00,0.0077
2130.00,0.0079
2129.00,0.0081
2128.00,0.0082
2127.00,0.0082
2126.00,0.0082
2125.00,0.0083
2124.00,0.0084
2123.00,0.0085
2122.00,0.0087
2121.00,0.0087
2120.00,0.0088
2119.00,0.0089
2118.00,0.0089
2117.00,0.0090
2116.00,0.0092
2115.00,0.0093
2114.00,0.0092
2113.00,0.0091
2112.00,0.0091
2111.00,0.0090
2110.00,0.0090
2109.00,0.0090
2108.00,0.0090
2107.00,0.0091
2106.00,0.0092
2105.00,0.0092
2104.00,0.0092
2103.00,0.0091
2102.00,0.0089
2101.00,0.0088
2100.00,0.0088
2099.00,0.0088
2098.00,0.0087
2097.00,0.0085
2096.00,0.0084
2095.00,0.0083
2094.00,0.0083
2093.00,0.0084
2092.00,0.0085
2091.00,0.0086
2090.00,0.0087
2089.00,0.0088
2088.00,0.0089
2087.00,0.0090
2086.00,0.0091
2085.00,0.0091
2084.00,0.0092
2083.00,0.0092
2082.00,0.0093
2081.00,0.0093
2080.00,0.0093
2079.00,0.0093
2078.00,0.0093
2077.00,0.0093
2076.00,0.0094
2075.00,0.0094
2074.00,0.0094
2073.00,0.0093
2072.00,0.0093
2071.00,0.0092
2070.00,0.0091
2069.00,0.0091
2068.00,0.0090
2067.00,0.0090
2066.00,0.0089
2065.00,0.0087
2064.00,0.0086
2063.00,0.0085
2062.00,0.0084
2061.00,0.0084
2060.00,0.0085
2059.00,0.0087
2058.00,0.0088
2057.00,0.0088
2056.00,0.0087
2055.00,0.0087
2054.00,0.0088
2053.00,0.0092
2052.00,0.0096
2051.00,0.0096
2050.00,0.0093
2049.00,0.0089
2048.00,0.0086
2047.00,0.0085
2046.00,0.0083
2045.00,0.0083
2044.00,0.0083
2043.00,0.0085
2042.00,0.0085
2041.00,0.0086
2040.00,0.0087
2039.00,0.0089
2038.00,0.0089
2037.00,0.0090
2036.00,0.0089
2035.00,0.0086
2034.00,0.0084
2033.00,0.0082
2032.00,0.0082
2031.00,0.0083
2030.00,0.0083
2029.00,0.0083
2028.00,0.0083
2027.00,0.0082
2026.00,0.0081
2025.00,0.0081
2024.00,0.0081
2023.00,0.0082
2022.00,0.0081
2021.00,0.0080
2020.00,0.0080
2019.00,0.0080
2018.00,0.0080
2017.00,0.0081
2016.00,0.0082
2015.00,0.0083
2014.00,0.0084
2013.00,0.0084
2012.00,0.0086
2011.00,0.0087
2010.00,0.0085
2009.00,0.0081
2008.00,0.0076
2007.00,0.0070
2006.00,0.0068
2005.00,0.0069
2004.00,0.0072
2003.00,0.0075
2002.00,0.0077
2001.00,0.0078
2000.00,0.0079
1999.00,0.0080
1998.00,0.0081
1997.00,0.0081
1996.00,0.0082
1995.00,0.0083
1994.00,0.0083
1993.00,0.0084
1992.00,0.0085
1991.00,0.0086
1990.00,0.0087
1989.00,0.0087
1988.00,0.0087
1987.00,0.0087
1986.00,0.0087
1985.00,0.0089
1984.00,0.0092
1983.00,0.0096
1982.00,0.0099
1981.00,0.0100
1980.00,0.0097
1979.00,0.0090
1978.00,0.0082
1977.00,0.0077
1976.00,0.0075
1975.00,0.0076
1974.00,0.0076
1973.00,0.0076
1972.00,0.0076
1971.00,0.0075
1970.00,0.0074
1969.00,0.0074
1968.00,0.0074
1967.00,0.0073
1966.00,0.0073
1965.00,0.0073
1964.00,0.0074
1963.00,0.0075
1962.00,0.0074
1961.00,0.0073
1960.00,0.0073
1959.00,0.0073
1958.00,0.0072
1957.00,0.0073
1956.00,0.0073
1955.00,0.0074
1954.00,0.0075
1953.00,0.0076
1952.00,0.0077
1951.00,0.0078
1950.00,0.0078
1949.00,0.0078
1948.00,0.0078
1947.00,0.0079
1946.00,0.0079
1945.00,0.0079
1944.00,0.0080
1943.00,0.0080
1942.00,0.0079
1941.00,0.0079
1940.00,0.0079
1939.00,0.0079
1938.00,0.0079
1937.00,0.0078
1936.00,0.0078
1935.00,0.0078
1934.00,0.0079
1933.00,0.0079
1932.00,0.0080
1931.00,0.0080
1930.00,0.0080
1929.00,0.0081
1928.00,0.0081
1927.00,0.0081
1926.00,0.0081
1925.00,0.0081
1924.00,0.0082
1923.00,0.0083
1922.00,0.0084
1921.00,0.0084
1920.00,0.0084
1919.00,0.0084
1918.00,0.0084
1917.00,0.0085
1916.00,0.0086
1915.00,0.0087
1914.00,0.0088
1913.00,0.0089
1912.00,0.0091
1911.00,0.0094
1910.00,0.0096
1909.00,0.0099
1908.00,0.0100
1907.00,0.0100
1906.00,0.0097
1905.00,0.0094
1904.00,0.0092
1903.00,0.0091
1902.00,0.0089
1901.00,0.0089
1900.00,0.0089
1899.00,0.0089
1898.00,0.0089
1897.00,0.0089
1896.00,0.0091
1895.00,0.0092
1894.00,0.0093
1893.00,0.0093
1892.00,0.0092
1891.00,0.0090
1890.00,0.0089
1889.00,0.0088
1888.00,0.0087
1887.00,0.0087
1886.00,0.0087
1885.00,0.0086
1884.00,0.0085
1883.00,0.0085
1882.00,0.0085
1881.00,0.0085
1880.00,0.0085
1879.00,0.0086
1878.00,0.0085
1877.00,0.0085
1876.00,0.0085
1875.00,0.0085
1874.00,0.0085
1873.00,0.0085
1872.00,0.0085
1871.00,0.0084
1870.00,0.0083
1869.00,0.0083
1868.00,0.0083
1867.00,0.0084
1866.00,0.0085
1865.00,0.0086
1864.00,0.0087
1863.00,0.0088
1862.00,0.0088
1861.00,0.0088
1860.00,0.0088
1859.00,0.0087
1858.00,0.0087
1857.00,0.0087
1856.00,0.0087
1855.00,0.0087
1854.00,0.0087
1853.00,0.0088
1852.00,0.0088
1851.00,0.0089
1850.00,0.0090
1849.00,0.0090
1848.00,0.0091
1847.00,0.0092
1846.00,0.0092
1845.00,0.0093
1844.00,0.0093
1843.00,0.0093
1842.00,0.0092
1841.00,0.0090
1840.00,0.0089
1839.00,0.0088
1838.00,0.0087
1837.00,0.0087
1836.00,0.0087
1835.00,0.0087
1834.00,0.0087
1833.00,0.0087
1832.00,0.0086
1831.00,0.0085
1830.00,0.0085
1829.00,0.0085
1828.00,0.0086
1827.00,0.0086
1826.00,0.0086
1825.00,0.0087
1824.00,0.0087
1823.00,0.0088
1822.00,0.0087
1821.00,0.0087
1820.00,0.0086
1819.00,0.0085
1818.00,0.0084
1817.00,0.0083
1816.00,0.0084
1815.00,0.0084
1814.00,0.0085
1813.00,0.0086
1812.00,0.0086
1811.00,0.0086
1810.00,0.0087
1809.00,0.0087
1808.00,0.0087
1807.00,0.0088
1806.00,0.0087
1805.00,0.0087
1804.00,0.0088
1803.00,0.0088
1802.00,0.0088
1801.00,0.0088
1800.00,0.0089
1799.00,0.0090
1798.00,0.0090
1797.00,0.0091
1796.00,0.0091
1795.00,0.0091
1794.00,0.0091
1793.00,0.0091
1792.00,0.0091
1791.00,0.0092
1790.00,0.0092
1789.00,0.0092
1788.00,0.0092
1787.00,0.0092
1786.00,0.0092
1785.00,0.0092
1784.00,0.0092
1783.00,0.0091
1782.00,0.0091
1781.00,0.0091
1780.00,0.0092
1779.00,0.0093
1778.00,0.0094
1777.00,0.0095
1776.00,0.0096
1775.00,0.0096
1774.00,0.0096
1773.00,0.0095
1772.00,0.0096
1771.00,0.0097
1770.00,0.0097
1769.00,0.0098
1768.00,0.0098
1767.00,0.0097
1766.00,0.0097
1765.00,0.0096
1764.00,0.0097
1763.00,0.0097
1762.00,0.0098
1761.00,0.0099
1760.00,0.0100
1759.00,0.0101
1758.00,0.0100
1757.00,0.0100
1756.00,0.0100
1755.00,0.0099
1754.00,0.0099
1753.00,0.0098
1752.00,0.0098
1751.00,0.0098
1750.00,0.0097
1749.00,0.0097
1748.00,0.0098
1747.00,0.0099
1746.00,0.0100
1745.00,0.0100
1744.00,0.0101
1743.00,0.0102
1742.00,0.0102
1741.00,0.0102
1740.00,0.0102
1739.00,0.0104
1738.00,0.0104
1737.00,0.0105
1736.00,0.0105
1735.00,0.0106
1734.00,0.0107
1733.00,0.0108
1732.00,0.0111
1731.00,0.0113
1730.00,0.0115
1729.00,0.0117
1728.00,0.0120
1727.00,0.0122
1726.00,0.0123
1725.00,0.0125
1724.00,0.0127
1723.00,0.0129
1722.00,0.0130
1721.00,0.0130
1720.00,0.0131
1719.00,0.0132
1718.00,0.0133
1717.00,0.0135
1716.00,0.0139
1715.00,0.0143
1714.00,0.0146
1713.00,0.0150
1712.00,0.0154
1711.00,0.0158
1710.00,0.0161
1709.00,0.0165
1708.00,0.0169
1707.00,0.0173
1706.00,0.0177
1705.00,0.0183
1704.00,0.0190
1703.00,0.0197
1702.00,0.0203
1701.00,0.0212
1700.00,0.0224
1699.00,0.0235
1698.00,0.0244
1697.00,0.0255
1696.00,0.0271
1695.00,0.0290
1694.00,0.0307
1693.00,0.0322
1692.00,0.0337
1691.00,0.0354
1690.00,0.0371
1689.00,0.0389
1688.00,0.0407
1687.00,0.0423
1686.00,0.0440
1685.00,0.0459
1684.00,0.0481
1683.00,0.0503
1682.00,0.0522
1681.00,0.0540
1680.00,0.0558
1679.00,0.0576
1678.00,0.0594
1677.00,0.0610
1676.00,0.0628
1675.00,0.0644
1674.00,0.0658
1673.00,0.0672
1672.00,0.0688
1671.00,0.0702
1670.00,0.0715
1669.00,0.0726
1668.00,0.0739
1667.00,0.0753
1666.00,0.0766
1665.00,0.0779
1664.00,0.0791
1663.00,0.0802
1662.00,0.0810
1661.00,0.0818
1660.00,0.0829
1659.00,0.0839
1658.00,0.0848
1657.00,0.0857
1656.00,0.0868
1655.00,0.0877
1654.00,0.0875
1653.00,0.0861
1652.00,0.0852
1651.00,0.0854
1650.00,0.0861
1649.00,0.0866
1648.00,0.0865
1647.00,0.0854
1646.00,0.0840
1645.00,0.0829
1644.00,0.0824
1643.00,0.0820
1642.00,0.0813
1641.00,0.0804
1640.00,0.0794
1639.00,0.0783
1638.00,0.0770
1637.00,0.0754
1636.00,0.0735
1635.00,0.0718
1634.00,0.0710
1633.00,0.0713
1632.00,0.0724
1631.00,0.0743
1630.00,0.0770
1629.00,0.0809
1628.00,0.0860
1627.00,0.0914
1626.00,0.0964
1625.00,0.1007
1624.00,0.1044
1623.00,0.1072
1622.00,0.1086
1621.00,0.1084
1620.00,0.1069
1619.00,0.1041
1618.00,0.0995
1617.00,0.0932
1616.00,0.0873
1615.00,0.0837
1614.00,0.0820
1613.00,0.0816
1612.00,0.0817
1611.00,0.0816
1610.00,0.0806
1609.00,0.0784
1608.00,0.0752
1607.00,0.0713
1606.00,0.0670
1605.00,0.0627
1604.00,0.0585
1603.00,0.0546
1602.00,0.0511
1601.00,0.0482
1600.00,0.0457
1599.00,0.0438
1598.00,0.0423
1597.00,0.0412
1596.00,0.0406
1595.00,0.0406
1594.00,0.0413
1593.00,0.0428
1592.00,0.0450
1591.00,0.0481
1590.00,0.0519
1589.00,0.0561
1588.00,0.0604
1587.00,0.0644
1586.00,0.0676
1585.00,0.0699
1584.00,0.0712
1583.00,0.0715
1582.00,0.0708
1581.00,0.0694
1580.00,0.0675
1579.00,0.0653
1578.00,0.0627
1577.00,0.0593
1576.00,0.0557
1575.00,0.0525
1574.00,0.0502
1573.00,0.0485
1572.00,0.0470
1571.00,0.0456
1570.00,0.0444
1569.00,0.0432
1568.00,0.0421
1567.00,0.0409
1566.00,0.0392
1565.00,0.0371
1564.00,0.0350
1563.00,0.0331
1562.00,0.0315
1561.00,0.0298
1560.00,0.0278
1559.00,0.0257
1558.00,0.0244
1557.00,0.0239
1556.00,0.0235
1555.00,0.0231
1554.00,0.0227
1553.00,0.0224
1552.00,0.0220
1551.00,0.0217
1550.00,0.0214
1549.00,0.0211
1548.00,0.0209
1547.00,0.0207
1546.00,0.0205
1545.00,0.0202
1544.00,0.0198
1543.00,0.0194
1542.00,0.0190
1541.00,0.0186
1540.00,0.0184
1539.00,0.0185
1538.00,0.0186
1537.00,0.0186
1536.00,0.0185
1535.00,0.0183
1534.00,0.0181
1533.00,0.0180
1532.00,0.0179
1531.00,0.0179
1530.00,0.0179
1529.00,0.0179
1528.00,0.0179
1527.00,0.0179
1526.00,0.0180
1525.00,0.0181
1524.00,0.0182
1523.00,0.0183
1522.00,0.0186
1521.00,0.0191
1520.00,0.0196
1519.00,0.0201
1518.00,0.0206
1517.00,0.0213
1516.00,0.0222
1515.00,0.0230
1514.00,0.0238
1513.00,0.0244
1512.00,0.0251
1511.00,0.0256
1510.00,0.0260
1509.00,0.0262
1508.00,0.0263
1507.00,0.0268
1506.00,0.0277
1505.00,0.0288
1504.00,0.0298
1503.00,0.0309
1502.00,0.0325
1501.00,0.0347
1500.00,0.0378
1499.00,0.0420
1498.00,0.0469
1497.00,0.0515
1496.00,0.0544
1495.00,0.0549
1494.00,0.0537
1493.00,0.0513
1492.00,0.0482
1491.00,0.0447
1490.00,0.0411
1489.00,0.0379
1488.00,0.0352
1487.00,0.0330
1486.00,0.0311
1485.00,0.0296
1484.00,0.0283
1483.00,0.0273
1482.00,0.0264
1481.00,0.0258
1480.00,0.0255
1479.00,0.0253
1478.00,0.0254
1477.00,0.0257
1476.00,0.0262
1475.00,0.0269
1474.00,0.0282
1473.00,0.0304
1472.00,0.0338
1471.00,0.0379
1470.00,0.0423
1469.00,0.0472
1468.00,0.0522
1467.00,0.0569
1466.00,0.0607
1465.00,0.0634
1464.00,0.0648
1463.00,0.0655
1462.00,0.0660
1461.00,0.0664
1460.00,0.0667
1459.00,0.0665
1458.00,0.0653
1457.00,0.0630
1456.00,0.0603
1455.00,0.0581
1454.00,0.0566
1453.00,0.0555
1452.00,0.0549
1451.00,0.0549
1450.00,0.0553
1449.00,0.0563
1448.00,0.0577
1447.00,0.0595
1446.00,0.0618
1445.00,0.0645
1444.00,0.0675
1443.00,0.0707
1442.00,0.0738
1441.00,0.0767
1440.00,0.0792
1439.00,0.0813
1438.00,0.0832
1437.00,0.0852
1436.00,0.0871
1435.00,0.0890
1434.00,0.0908
1433.00,0.0926
1432.00,0.0944
1431.00,0.0959
1430.00,0.0972
1429.00,0.0982
1428.00,0.0990
1427.00,0.0994
1426.00,0.0997
1425.00,0.0998
1424.00,0.0997
1423.00,0.0993
1422.00,0.0987
1421.00,0.0976
1420.00,0.0954
1419.00,0.0918
1418.00,0.0877
1417.00,0.0838
1416.00,0.0802
1415.00,0.0768
1414.00,0.0736
1413.00,0.0709
1412.00,0.0687
1411.00,0.0673
1410.00,0.0667
1409.00,0.0670
1408.00,0.0681
1407.00,0.0700
1406.00,0.0726
1405.00,0.0759
1404.00,0.0793
1403.00,0.0823
1402.00,0.0844
1401.00,0.0857
1400.00,0.0860
1399.00,0.0849
1398.00,0.0826
1397.00,0.0796
1396.00,0.0756
1395.00,0.0711
1394.00,0.0666
1393.00,0.0627
1392.00,0.0597
1391.00,0.0575
1390.00,0.0564
1389.00,0.0568
1388.00,0.0583
1387.00,0.0600
1386.00,0.0605
1385.00,0.0597
1384.00,0.0581
1383.00,0.0568
1382.00,0.0564
1381.00,0.0569
1380.00,0.0576
1379.00,0.0581
1378.00,0.0581
1377.00,0.0576
1376.00,0.0562
1375.00,0.0541
1374.00,0.0517
1373.00,0.0497
1372.00,0.0485
1371.00,0.0482
1370.00,0.0490
1369.00,0.0510
1368.00,0.0538
1367.00,0.0571
1366.00,0.0599
1365.00,0.0617
1364.00,0.0627
1363.00,0.0639
1362.00,0.0663
1361.00,0.0692
1360.00,0.0710
1359.00,0.0704
1358.00,0.0676
1357.00,0.0636
1356.00,0.0598
1355.00,0.0568
1354.00,0.0547
1353.00,0.0534
1352.00,0.0525
1351.00,0.0522
1350.00,0.0522
1349.00,0.0524
1348.00,0.0526
1347.00,0.0525
1346.00,0.0521
1345.00,0.0513
1344.00,0.0501
1343.00,0.0486
1342.00,0.0470
1341.00,0.0453
1340.00,0.0435
1339.00,0.0420
1338.00,0.0408
1337.00,0.0402
1336.00,0.0400
1335.00,0.0403
1334.00,0.0411
1333.00,0.0421
1332.00,0.0432
1331.00,0.0442
1330.00,0.0451
1329.00,0.0457
1328.00,0.0461
1327.00,0.0462
1326.00,0.0462
1325.00,0.0462
1324.00,0.0462
1323.00,0.0464
1322.00,0.0467
1321.00,0.0471
1320.00,0.0473
1319.00,0.0474
1318.00,0.0472
1317.00,0.0467
1316.00,0.0460
1315.00,0.0453
1314.00,0.0446
1313.00,0.0440
1312.00,0.0437
1311.00,0.0438
1310.00,0.0443
1309.00,0.0453
1308.00,0.0468
1307.00,0.0489
1306.00,0.0517
1305.00,0.0553
1304.00,0.0595
1303.00,0.0640
1302.00,0.0683
1301.00,0.0715
1300.00,0.0734
1299.00,0.0742
1298.00,0.0747
1297.00,0.0756
1296.00,0.0772
1295.00,0.0794
1294.00,0.0819
1293.00,0.0843
1292.00,0.0863
1291.00,0.0882
1290.00,0.0901
1289.00,0.0923
1288.00,0.0948
1287.00,0.0976
1286.00,0.1002
1285.00,0.1024
1284.00,0.1036
1283.00,0.1037
1282.00,0.1024
1281.00,0.0999
1280.00,0.0966
1279.00,0.0930
1278.00,0.0895
1277.00,0.0867
1276.00,0.0845
1275.00,0.0829
1274.00,0.0817
1273.00,0.0807
1272.00,0.0797
1271.00,0.0786
1270.00,0.0772
1269.00,0.0757
1268.00,0.0741
1267.00,0.0723
1266.00,0.0704
1265.00,0.0684
1264.00,0.0661
1263.00,0.0637
1262.00,0.0614
1261.00,0.0590
1260.00,0.0568
1259.00,0.0548
1258.00,0.0530
1257.00,0.0514
1256.00,0.0501
1255.00,0.0490
1254.00,0.0482
1253.00,0.0476
1252.00,0.0474
1251.00,0.0476
1250.00,0.0483
1249.00,0.0495
1248.00,0.0511
1247.00,0.0532
1246.00,0.0554
1245.00,0.0576
1244.00,0.0595
1243.00,0.0610
1242.00,0.0622
1241.00,0.0633
1240.00,0.0646
1239.00,0.0664
1238.00,0.0688
1237.00,0.0718
1236.00,0.0748
1235.00,0.0774
1234.00,0.0792
1233.00,0.0797
1232.00,0.0790
1231.00,0.0771
1230.00,0.0745
1229.00,0.0716
1228.00,0.0687
1227.00,0.0662
1226.00,0.0639
1225.00,0.0621
1224.00,0.0606
1223.00,0.0594
1222.00,0.0588
1221.00,0.0586
1220.00,0.0588
1219.00,0.0596
1218.00,0.0607
1217.00,0.0620
1216.00,0.0633
1215.00,0.0642
1214.00,0.0643
1213.00,0.0635
1212.00,0.0618
1211.00,0.0593
1210.00,0.0565
1209.00,0.0538
1208.00,0.0515
1207.00,0.0498
1206.00,0.0488
1205.00,0.0485
1204.00,0.0492
1203.00,0.0506
1202.00,0.0529
1201.00,0.0558
1200.00,0.0592
1199.00,0.0630
1198.00,0.0673
1197.00,0.0715
1196.00,0.0752
1195.00,0.0778
1194.00,0.0786
1193.00,0.0777
1192.00,0.0753
1191.00,0.0719
1190.00,0.0678
1189.00,0.0635
1188.00,0.0591
1187.00,0.0549
1186.00,0.0512
1185.00,0.0480
1184.00,0.0454
1183.00,0.0433
1182.00,0.0417
1181.00,0.0404
1180.00,0.0394
1179.00,0.0387
1178.00,0.0382
1177.00,0.0379
1176.00,0.0377
1175.00,0.0375
1174.00,0.0375
1173.00,0.0375
1172.00,0.0376
1171.00,0.0376
1170.00,0.0377
1169.00,0.0377
1168.00,0.0377
1167.00,0.0378
1166.00,0.0381
1165.00,0.0384
1164.00,0.0390
1163.00,0.0400
1162.00,0.0416
1161.00,0.0441
1160.00,0.0477
1159.00,0.0527
1158.00,0.0590
1157.00,0.0658
1156.00,0.0719
1155.00,0.0757
1154.00,0.0761
1153.00,0.0728
1152.00,0.0665
1151.00,0.0590
1150.00,0.0517
1149.00,0.0457
1148.00,0.0411
1147.00,0.0380
1146.00,0.0359
1145.00,0.0345
1144.00,0.0336
1143.00,0.0331
1142.00,0.0328
1141.00,0.0328
1140.00,0.0331
1139.00,0.0337
1138.00,0.0348
1137.00,0.0365
1136.00,0.0391
1135.00,0.0428
1134.00,0.0481
1133.00,0.0549
1132.00,0.0630
1131.00,0.0714
1130.00,0.0787
1129.00,0.0837
1128.00,0.0856
1127.00,0.0847
1126.00,0.0818
1125.00,0.0773
1124.00,0.0719
1123.00,0.0659
1122.00,0.0600
1121.00,0.0547
1120.00,0.0503
1119.00,0.0470
1118.00,0.0449
1117.00,0.0436
1116.00,0.0430
1115.00,0.0426
1114.00,0.0424
1113.00,0.0419
1112.00,0.0411
1111.00,0.0401
1110.00,0.0391
1109.00,0.0383
1108.00,0.0378
1107.00,0.0378
1106.00,0.0387
1105.00,0.0405
1104.00,0.0434
1103.00,0.0474
1102.00,0.0520
1101.00,0.0565
1100.00,0.0595
1099.00,0.0604
1098.00,0.0590
1097.00,0.0555
1096.00,0.0509
1095.00,0.0462
1094.00,0.0419
1093.00,0.0385
1092.00,0.0358
1091.00,0.0338
1090.00,0.0324
1089.00,0.0314
1088.00,0.0306
1087.00,0.0301
1086.00,0.0297
1085.00,0.0295
1084.00,0.0293
1083.00,0.0292
1082.00,0.0293
1081.00,0.0294
1080.00,0.0296
1079.00,0.0298
1078.00,0.0301
1077.00,0.0305
1076.00,0.0308
1075.00,0.0312
1074.00,0.0316
1073.00,0.0320
1072.00,0.0325
1071.00,0.0331
1070.00,0.0339
1069.00,0.0347
1068.00,0.0357
1067.00,0.0367
1066.00,0.0379
1065.00,0.0394
1064.00,0.0414
1063.00,0.0441
1062.00,0.0478
1061.00,0.0526
1060.00,0.0588
1059.00,0.0664
1058.00,0.0753
1057.00,0.0848
1056.00,0.0939
1055.00,0.1014
1054.00,0.1068
1053.00,0.1102
1052.00,0.1120
1051.00,0.1130
1050.00,0.1133
1049.00,0.1124
1048.00,0.1099
1047.00,0.1055
1046.00,0.0998
1045.00,0.0930
1044.00,0.0857
1043.00,0.0785
1042.00,0.0720
1041.00,0.0665
1040.00,0.0621
1039.00,0.0592
1038.00,0.0576
1037.00,0.0571
1036.00,0.0574
1035.00,0.0582
1034.00,0.0594
1033.00,0.0615
1032.00,0.0649
1031.00,0.0703
1030.00,0.0777
1029.00,0.0862
1028.00,0.0942
1027.00,0.0997
1026.00,0.1010
1025.00,0.0980
1024.00,0.0915
1023.00,0.0835
1022.00,0.0754
1021.00,0.0683
1020.00,0.0623
1019.00,0.0573
1018.00,0.0533
1017.00,0.0499
1016.00,0.0471
1015.00,0.0446
1014.00,0.0426
1013.00,0.0410
1012.00,0.0399
1011.00,0.0395
1010.00,0.0399
1009.00,0.0412
1008.00,0.0432
1007.00,0.0460
1006.00,0.0491
1005.00,0.0520
1004.00,0.0541
1003.00,0.0551
1002.00,0.0550
1001.00,0.0539
1000.00,0.0523
999.00,0.0505
998.00,0.0489
997.00,0.0474
996.00,0.0461
995.00,0.0450
994.00,0.0439
993.00,0.0427
992.00,0.0411
991.00,0.0393
990.00,0.0374
989.00,0.0357
988.00,0.0341
987.00,0.0328
986.00,0.0317
985.00,0.0308
984.00,0.0300
983.00,0.0293
982.00,0.0289
981.00,0.0286
980.00,0.0283
979.00,0.0282
978.00,0.0282
977.00,0.0282
976.00,0.0282
975.00,0.0281
974.00,0.0280
973.00,0.0278
972.00,0.0276
971.00,0.0274
970.00,0.0273
969.00,0.0272
968.00,0.0272
967.00,0.0272
966.00,0.0274
965.00,0.0277
964.00,0.0281
963.00,0.0284
962.00,0.0286
961.00,0.0284
960.00,0.0275
959.00,0.0264
958.00,0.0253
957.00,0.0243
956.00,0.0235
955.00,0.0228
954.00,0.0224
953.00,0.0220
952.00,0.0218
951.00,0.0219
950.00,0.0223
949.00,0.0228
948.00,0.0232
947.00,0.0233
946.00,0.0233
945.00,0.0232
944.00,0.0234
943.00,0.0239
942.00,0.0247
941.00,0.0257
940.00,0.0267
939.00,0.0277
938.00,0.0286
937.00,0.0293
936.00,0.0300
935.00,0.0307
934.00,0.0314
933.00,0.0319
932.00,0.0320
931.00,0.0316
930.00,0.0309
929.00,0.0302
928.00,0.0297
927.00,0.0294
926.00,0.0297
925.00,0.0305
924.00,0.0315
923.00,0.0327
922.00,0.0335
921.00,0.0335
920.00,0.0326
919.00,0.0310
918.00,0.0291
917.00,0.0272
916.00,0.0256
915.00,0.0244
914.00,0.0236
913.00,0.0230
912.00,0.0226
911.00,0.0223
910.00,0.0222
909.00,0.0223
908.00,0.0224
907.00,0.0228
906.00,0.0234
905.00,0.0244
904.00,0.0257
903.00,0.0276
902.00,0.0301
901.00,0.0327
900.00,0.0348
899.00,0.0359
898.00,0.0358
897.00,0.0347
896.00,0.0330
895.00,0.0315
894.00,0.0308
893.00,0.0313
892.00,0.0328
891.00,0.0347
890.00,0.0358
889.00,0.0353
888.00,0.0330
887.00,0.0301
886.00,0.0277
885.00,0.0261
884.00,0.0254
883.00,0.0252
882.00,0.0254
881.00,0.0260
880.00,0.0269
879.00,0.0284
878.00,0.0308
877.00,0.0341
876.00,0.0383
875.00,0.0434
874.00,0.0492
873.00,0.0554
872.00,0.0613
871.00,0.0661
870.00,0.0689
869.00,0.0691
868.00,0.0668
867.00,0.0630
866.00,0.0589
865.00,0.0551
864.00,0.0514
863.00,0.0479
862.00,0.0447
861.00,0.0419
860.00,0.0398
859.00,0.0387
858.00,0.0390
857.00,0.0405
856.00,0.0432
855.00,0.0464
854.00,0.0497
853.00,0.0528
852.00,0.0560
851.00,0.0593
850.00,0.0623
849.00,0.0641
848.00,0.0639
847.00,0.0620
846.00,0.0590
845.00,0.0558
844.00,0.0528
843.00,0.0504
842.00,0.0488
841.00,0.0480
840.00,0.0480
839.00,0.0492
838.00,0.0518
837.00,0.0553
836.00,0.0591
835.00,0.0624
834.00,0.0645
833.00,0.0652
832.00,0.0641
831.00,0.0615
830.00,0.0577
829.00,0.0529
828.00,0.0479
827.00,0.0436
826.00,0.0407
825.00,0.0399
824.00,0.0419
823.00,0.0475
822.00,0.0561
821.00,0.0650
820.00,0.0712
819.00,0.0742
818.00,0.0764
817.00,0.0797
816.00,0.0826
815.00,0.0814
814.00,0.0744
813.00,0.0636
812.00,0.0530
811.00,0.0447
810.00,0.0392
809.00,0.0355
808.00,0.0328
807.00,0.0310
806.00,0.0296
805.00,0.0285
804.00,0.0276
803.00,0.0270
802.00,0.0267
801.00,0.0263
800.00,0.0261
799.00,0.0259
798.00,0.0257
797.00,0.0255
796.00,0.0254
795.00,0.0253
794.00,0.0253
793.00,0.0253
792.00,0.0252
791.00,0.0251
790.00,0.0251
789.00,0.0250
788.00,0.0250
787.00,0.0250
786.00,0.0251
785.00,0.0251
784.00,0.0252
783.00,0.0253
782.00,0.0255
781.00,0.0257
780.00,0.0259
779.00,0.0265
778.00,0.0276
777.00,0.0292
776.00,0.0311
775.00,0.0328
774.00,0.0336
773.00,0.0332
772.00,0.0320
771.00,0.0307
770.00,0.0297
769.00,0.0293
768.00,0.0291
767.00,0.0291
766.00,0.0293
765.00,0.0296
764.00,0.0302
763.00,0.0309
762.00,0.0320
761.00,0.0330
760.00,0.0339
759.00,0.0345
758.00,0.0348
757.00,0.0347
756.00,0.0344
755.00,0.0341
754.00,0.0340
753.00,0.0341
752.00,0.0343
751.00,0.0346
750.00,0.0350
749.00,0.0355
748.00,0.0359
747.00,0.0364
746.00,0.0371
745.00,0.0377
744.00,0.0385
743.00,0.0394
742.00,0.0406
741.00,0.0421
740.00,0.0441
739.00,0.0469
738.00,0.0508
737.00,0.0554
736.00,0.0598
735.00,0.0628
734.00,0.0637
733.00,0.0626
732.00,0.0609
731.00,0.0597
730.00,0.0596
729.00,0.0598
728.00,0.0593
727.00,0.0576
726.00,0.0547
725.00,0.0513
724.00,0.0481
723.00,0.0457
722.00,0.0441
721.00,0.0433
720.00,0.0431
719.00,0.0437
718.00,0.0450
717.00,0.0466
716.00,0.0481
715.00,0.0490
714.00,0.0493
713.00,0.0488
712.00,0.0478
711.00,0.0467
710.00,0.0457
709.00,0.0449
708.00,0.0443
707.00,0.0441
706.00,0.0444
705.00,0.0449
704.00,0.0455
703.00,0.0464
702.00,0.0475
701.00,0.0486
700.00,0.0496
699.00,0.0505
698.00,0.0511
697.00,0.0512
696.00,0.0507
695.00,0.0501
694.00,0.0496
693.00,0.0494
692.00,0.0498
691.00,0.0510
690.00,0.0528
689.00,0.0547
688.00,0.0559
687.00,0.0560
686.00,0.0553
685.00,0.0542
684.00,0.0532
683.00,0.0526
682.00,0.0526
681.00,0.0529
680.00,0.0535
679.00,0.0543
678.00,0.0553
677.00,0.0567
676.00,0.0582
675.00,0.0600
674.00,0.0620
673.00,0.0639
672.00,0.0655
671.00,0.0666
670.00,0.0673
669.00,0.0673
668.00,0.0668
667.00,0.0663
666.00,0.0661
665.00,0.0665
664.00,0.0673
663.00,0.0684
662.00,0.0696
661.00,0.0703
660.00,0.0703
659.00,0.0697
658.00,0.0688
657.00,0.0679
656.00,0.0672
655.00,0.0669
654.00,0.0669
653.00,0.0670
652.00,0.0671
651.00,0.0672
650.00,0.0674
649.00,0.0675
648.00,0.0675
647.00,0.0674
646.00,0.0673
645.00,0.0671
644.00,0.0668
643.00,0.0663
642.00,0.0659
641.00,0.0655
640.00,0.0649
639.00,0.0643
638.00,0.0639
637.00,0.0635
636.00,0.0631
635.00,0.0627
634.00,0.0624
633.00,0.0621
632.00,0.0618
631.00,0.0617
630.00,0.0617
629.00,0.0619
628.00,0.0620
627.00,0.0623
626.00,0.0629
625.00,0.0637
624.00,0.0645
623.00,0.0656
622.00,0.0668
621.00,0.0679
620.00,0.0685
619.00,0.0685
618.00,0.0679
617.00,0.0667
616.00,0.0651
615.00,0.0634
614.00,0.0620
613.00,0.0610
612.00,0.0604
611.00,0.0604
610.00,0.0612
609.00,0.0627
608.00,0.0650
607.00,0.0679
606.00,0.0711
605.00,0.0741
604.00,0.0765
603.00,0.0783
602.00,0.0796
601.00,0.0803
600.00,0.0804
599.00,0.0803
598.00,0.0802
597.00,0.0800
596.00,0.0798
595.00,0.0797
594.00,0.0798
593.00,0.0797
592.00,0.0793
591.00,0.0788
590.00,0.0785
589.00,0.0782
588.00,0.0779
587.00,0.0779
586.00,0.0783
585.00,0.0788
584.00,0.0794
583.00,0.0801
582.00,0.0811
581.00,0.0824
580.00,0.0840
579.00,0.0864
578.00,0.0893
577.00,0.0919
576.00,0.0932
575.00,0.0928
574.00,0.0911
573.00,0.0889
572.00,0.0865
571.00,0.0845
570.00,0.0831
569.00,0.0819
568.00,0.0809
567.00,0.0805
566.00,0.0809
565.00,0.0819
564.00,0.0829
563.00,0.0843
562.00,0.0859
561.00,0.0875
560.00,0.0884
559.00,0.0886
558.00,0.0879
557.00,0.0864
556.00,0.0844
555.00,0.0825
554.00,0.0812
553.00,0.0804
552.00,0.0803
551.00,0.0810
550.00,0.0826
549.00,0.0848
548.00,0.0870
547.00,0.0887
546.00,0.0897
545.00,0.0895
544.00,0.0882
543.00,0.0864
542.00,0.0846
541.00,0.0828
540.00,0.0811
539.00,0.0797
538.00,0.0789
537.00,0.0787
536.00,0.0789
535.00,0.0798
534.00,0.0816
533.00,0.0837
532.00,0.0853
531.00,0.0861
530.00,0.0860
529.00,0.0850
528.00,0.0831
527.00,0.0809
526.00,0.0788
525.00,0.0767
524.00,0.0748
523.00,0.0734
522.00,0.0726
521.00,0.0719
520.00,0.0711
519.00,0.0704
518.00,0.0700
517.00,0.0696
516.00,0.0690
515.00,0.0688
514.00,0.0689
513.00,0.0690
512.00,0.0690
511.00,0.0692
510.00,0.0698
509.00,0.0705
508.00,0.0710
507.00,0.0713
506.00,0.0717
505.00,0.0716
504.00,0.0711
503.00,0.0703
502.00,0.0697
501.00,0.0690
500.00,0.0681
499.00,0.0676
498.00,0.0676
497.00,0.0677
496.00,0.0680
495.00,0.0686
494.00,0.0698
493.00,0.0708
492.00,0.0710
491.00,0.0710
490.00,0.0710
489.00,0.0708
488.00,0.0701
487.00,0.0695
486.00,0.0692
485.00,0.0688
484.00,0.0682
483.00,0.0678
482.00,0.0679
481.00,0.0679
480.00,0.0675
479.00,0.0672
478.00,0.0674
477.00,0.0677
476.00,0.0677
475.00,0.0675
474.00,0.0676
473.00,0.0675
472.00,0.0673
471.00,0.0673
470.00,0.0677
469.00,0.0677
468.00,0.0670
467.00,0.0665
466.00,0.0664
465.00,0.0663
464.00,0.0657
463.00,0.0653
462.00,0.0657
461.00,0.0663
460.00,0.0664
459.00,0.0665
458.00,0.0668
457.00,0.0668
456.00,0.0660
455.00,0.0652
454.00,0.0650
453.00,0.0649
452.00,0.0643
451.00,0.0638
450.00,0.0637
449.00,0.0633
448.00,0.0624
447.00,0.0616
446.00,0.0616
445.00,0.0618
444.00,0.0617
443.00,0.0617
442.00,0.0623
441.00,0.0626
440.00,0.0622
439.00,0.0615
438.00,0.0613
437.00,0.0608
436.00,0.0598
435.00,0.0589
434.00,0.0589
433.00,0.0589
432.00,0.0582
431.00,0.0575
430.00,0.0575
429.00,0.0576
428.00,0.0569
427.00,0.0562
426.00,0.0561
425.00,0.0560
424.00,0.0552
423.00,0.0546
422.00,0.0551
421.00,0.0557
420.00,0.0552
419.00,0.0550
418.00,0.0559
417.00,0.0564
416.00,0.0559
415.00,0.0557
414.00,0.0570
413.00,0.0585
412.00,0.0590
411.00,0.0595
410.00,0.0606
409.00,0.0608
408.00,0.0594
407.00,0.0579
406.00,0.0577
405.00,0.0574
404.00,0.0559
403.00,0.0547
402.00,0.0549
401.00,0.0550
400.00,0.0537
