Created as New Dataset,Sample 006 By YargerLab Date Wednesday, August 06 2025
cm-1,A
4000.00,0.0008
3999.00,0.0008
3998.00,0.0008
3997.00,0.0008
3996.00,0.0008
3995.00,0.0008
3994.00,0.0008
3993.00,0.0008
3992.00,0.0008
3991.00,0.0008
3990.00,0.0008
3989.00,0.0008
3988.00,0.0008
3987.00,0.0008
3986.00,0.0008
3985.00,0.0008
3984.00,0.0008
3983.00,0.0008
3982.00,0.0008
3981.00,0.0008
3980.00,0.0008
3979.00,0.0008
3978.00,0.0008
3977.00,0.0008
3976.00,0.0008
3975.00,0.0008
3974.00,0.0008
3973.00,0.0008
3972.00,0.0008
3971.00,0.0008
3970.00,0.0008
3969.00,0.0008
3968.00,0.0008
3967.00,0.0008
3966.00,0.0008
3965.00,0.0008
3964.00,0.0008
3963.00,0.0008
3962.00,0.0007
3961.00,0.0007
3960.00,0.0008
3959.00,0.0008
3958.00,0.0008
3957.00,0.0008
3956.00,0.0008
3955.00,0.0008
3954.00,0.0008
3953.00,0.0008
3952.00,0.0008
3951.00,0.0008
3950.00,0.0008
3949.00,0.0008
3948.00,0.0008
3947.00,0.0007
3946.00,0.0007
3945.00,0.0007
3944.00,0.0007
3943.00,0.0007
3942.00,0.0007
3941.00,0.0007
3940.00,0.0007
3939.00,0.0007
3938.00,0.0007
3937.00,0.0007
3936.00,0.0007
3935.00,0.0007
3934.00,0.0007
3933.00,0.0007
3932.00,0.0007
3931.00,0.0007
3930.00,0.0007
3929.00,0.0008
3928.00,0.0008
3927.00,0.0008
3926.00,0.0008
3925.00,0.0008
3924.00,0.0008
3923.00,0.0008
3922.00,0.0007
3921.00,0.0007
3920.00,0.0007
3919.00,0.0007
3918.00,0.0007
3917.00,0.0007
3916.00,0.0007
3915.00,0.0007
3914.00,0.0008
3913.00,0.0008
3912.00,0.0008
3911.00,0.0008
3910.00,0.0008
3909.00,0.0008
3908.00,0.0007
3907.00,0.0007
3906.00,0.0007
3905.00,0.0006
3904.00,0.0006
3903.00,0.0006
3902.00,0.0006
3901.00,0.0006
3900.00,0.0006
3899.00,0.0007
3898.00,0.0007
3897.00,0.0007
3896.00,0.0007
3895.00,0.0007
3894.00,0.0007
3893.00,0.0007
3892.00,0.0007
3891.00,0.0007
3890.00,0.0007
3889.00,0.0007
3888.00,0.0007
3887.00,0.0007
3886.00,0.0006
3885.00,0.0006
3884.00,0.0006
3883.00,0.0006
3882.00,0.0006
3881.00,0.0006
3880.00,0.0007
3879.00,0.0007
3878.00,0.0007
3877.00,0.0007
3876.00,0.0007
3875.00,0.0007
3874.00,0.0006
3873.00,0.0006
3872.00,0.0006
3871.00,0.0006
3870.00,0.0006
3869.00,0.0006
3868.00,0.0006
3867.00,0.0006
3866.00,0.0006
3865.00,0.0006
3864.00,0.0007
3863.00,0.0007
3862.00,0.0007
3861.00,0.0007
3860.00,0.0007
3859.00,0.0007
3858.00,0.0006
3857.00,0.0006
3856.00,0.0006
3855.00,0.0005
3854.00,0.0006
3853.00,0.0006
3852.00,0.0006
3851.00,0.0006
3850.00,0.0006
3849.00,0.0007
3848.00,0.0007
3847.00,0.0007
3846.00,0.0007
3845.00,0.0007
3844.00,0.0007
3843.00,0.0007
3842.00,0.0006
3841.00,0.0006
3840.00,0.0006
3839.00,0.0006
3838.00,0.0006
3837.00,0.0006
3836.00,0.0006
3835.00,0.0007
3834.00,0.0007
3833.00,0.0007
3832.00,0.0007
3831.00,0.0007
3830.00,0.0007
3829.00,0.0008
3828.00,0.0008
3827.00,0.0008
3826.00,0.0008
3825.00,0.0007
3824.00,0.0007
3823.00,0.0007
3822.00,0.0006
3821.00,0.0006
3820.00,0.0006
3819.00,0.0006
3818.00,0.0006
3817.00,0.0007
3816.00,0.0007
3815.00,0.0007
3814.00,0.0008
3813.00,0.0008
3812.00,0.0008
3811.00,0.0008
3810.00,0.0007
3809.00,0.0007
3808.00,0.0007
3807.00,0.0007
3806.00,0.0007
3805.00,0.0007
3804.00,0.0007
3803.00,0.0007
3802.00,0.0007
3801.00,0.0006
3800.00,0.0006
3799.00,0.0006
3798.00,0.0006
3797.00,0.0006
3796.00,0.0007
3795.00,0.0007
3794.00,0.0008
3793.00,0.0008
3792.00,0.0008
3791.00,0.0008
3790.00,0.0008
3789.00,0.0008
3788.00,0.0008
3787.00,0.0008
3786.00,0.0008
3785.00,0.0008
3784.00,0.0008
3783.00,0.0008
3782.00,0.0008
3781.00,0.0008
3780.00,0.0008
3779.00,0.0008
3778.00,0.0008
3777.00,0.0008
3776.00,0.0008
3775.00,0.0008
3774.00,0.0008
3773.00,0.0008
3772.00,0.0008
3771.00,0.0008
3770.00,0.0008
3769.00,0.0007
3768.00,0.0007
3767.00,0.0007
3766.00,0.0007
3765.00,0.0008
3764.00,0.0008
3763.00,0.0008
3762.00,0.0008
3761.00,0.0008
3760.00,0.0008
3759.00,0.0008
3758.00,0.0008
3757.00,0.0008
3756.00,0.0008
3755.00,0.0007
3754.00,0.0007
3753.00,0.0006
3752.00,0.0006
3751.00,0.0005
3750.00,0.0005
3749.00,0.0004
3748.00,0.0004
3747.00,0.0004
3746.00,0.0004
3745.00,0.0004
3744.00,0.0004
3743.00,0.0005
3742.00,0.0005
3741.00,0.0006
3740.00,0.0006
3739.00,0.0006
3738.00,0.0006
3737.00,0.0006
3736.00,0.0006
3735.00,0.0006
3734.00,0.0006
3733.00,0.0007
3732.00,0.0007
3731.00,0.0007
3730.00,0.0007
3729.00,0.0007
3728.00,0.0007
3727.00,0.0007
3726.00,0.0007
3725.00,0.0007
3724.00,0.0007
3723.00,0.0007
3722.00,0.0007
3721.00,0.0007
3720.00,0.0008
3719.00,0.0008
3718.00,0.0008
3717.00,0.0008
3716.00,0.0008
3715.00,0.0007
3714.00,0.0007
3713.00,0.0007
3712.00,0.0007
3711.00,0.0007
3710.00,0.0007
3709.00,0.0006
3708.00,0.0007
3707.00,0.0007
3706.00,0.0007
3705.00,0.0008
3704.00,0.0008
3703.00,0.0008
3702.00,0.0008
3701.00,0.0008
3700.00,0.0008
3699.00,0.0008
3698.00,0.0008
3697.00,0.0008
3696.00,0.0008
3695.00,0.0008
3694.00,0.0008
3693.00,0.0007
3692.00,0.0007
3691.00,0.0007
3690.00,0.0008
3689.00,0.0008
3688.00,0.0008
3687.00,0.0008
3686.00,0.0008
3685.00,0.0009
3684.00,0.0009
3683.00,0.0010
3682.00,0.0010
3681.00,0.0010
3680.00,0.0010
3679.00,0.0010
3678.00,0.0010
3677.00,0.0010
3676.00,0.0010
3675.00,0.0010
3674.00,0.0009
3673.00,0.0009
3672.00,0.0009
3671.00,0.0010
3670.00,0.0010
3669.00,0.0011
3668.00,0.0011
3667.00,0.0011
3666.00,0.0012
3665.00,0.0012
3664.00,0.0013
3663.00,0.0013
3662.00,0.0013
3661.00,0.0014
3660.00,0.0014
3659.00,0.0014
3658.00,0.0014
3657.00,0.0015
3656.00,0.0015
3655.00,0.0015
3654.00,0.0014
3653.00,0.0014
3652.00,0.0015
3651.00,0.0015
3650.00,0.0015
3649.00,0.0015
3648.00,0.0014
3647.00,0.0015
3646.00,0.0015
3645.00,0.0016
3644.00,0.0017
3643.00,0.0019
3642.00,0.0019
3641.00,0.0020
3640.00,0.0020
3639.00,0.0020
3638.00,0.0021
3637.00,0.0021
3636.00,0.0021
3635.00,0.0021
3634.00,0.0022
3633.00,0.0022
3632.00,0.0022
3631.00,0.0023
3630.00,0.0023
3629.00,0.0023
3628.00,0.0023
3627.00,0.0023
3626.00,0.0024
3625.00,0.0025
3624.00,0.0026
3623.00,0.0027
3622.00,0.0027
3621.00,0.0028
3620.00,0.0028
3619.00,0.0028
3618.00,0.0028
3617.00,0.0028
3616.00,0.0029
3615.00,0.0030
3614.00,0.0031
3613.00,0.0031
3612.00,0.0032
3611.00,0.0032
3610.00,0.0033
3609.00,0.0033
3608.00,0.0034
3607.00,0.0034
3606.00,0.0035
3605.00,0.0036
3604.00,0.0037
3603.00,0.0038
3602.00,0.0039
3601.00,0.0039
3600.00,0.0040
3599.00,0.0040
3598.00,0.0041
3597.00,0.0041
3596.00,0.0042
3595.00,0.0042
3594.00,0.0043
3593.00,0.0043
3592.00,0.0044
3591.00,0.0045
3590.00,0.0046
3589.00,0.0047
3588.00,0.0047
3587.00,0.0047
3586.00,0.0047
3585.00,0.0048
3584.00,0.0049
3583.00,0.0050
3582.00,0.0051
3581.00,0.0052
3580.00,0.0053
3579.00,0.0054
3578.00,0.0055
3577.00,0.0056
3576.00,0.0057
3575.00,0.0058
3574.00,0.0059
3573.00,0.0060
3572.00,0.0061
3571.00,0.0062
3570.00,0.0063
3569.00,0.0063
3568.00,0.0064
3567.00,0.0064
3566.00,0.0064
3565.00,0.0064
3564.00,0.0065
3563.00,0.0067
3562.00,0.0068
3561.00,0.0070
3560.00,0.0071
3559.00,0.0072
3558.00,0.0073
3557.00,0.0073
3556.00,0.0074
3555.00,0.0075
3554.00,0.0076
3553.00,0.0077
3552.00,0.0077
3551.00,0.0078
3550.00,0.0079
3549.00,0.0080
3548.00,0.0081
3547.00,0.0082
3546.00,0.0082
3545.00,0.0083
3544.00,0.0083
3543.00,0.0084
3542.00,0.0085
3541.00,0.0086
3540.00,0.0088
3539.00,0.0088
3538.00,0.0089
3537.00,0.0090
3536.00,0.0091
3535.00,0.0091
3534.00,0.0092
3533.00,0.0093
3532.00,0.0093
3531.00,0.0094
3530.00,0.0095
3529.00,0.0096
3528.00,0.0096
3527.00,0.0097
3526.00,0.0098
3525.00,0.0098
3524.00,0.0099
3523.00,0.0099
3522.00,0.0099
3521.00,0.0100
3520.00,0.0101
3519.00,0.0101
3518.00,0.0102
3517.00,0.0103
3516.00,0.0103
3515.00,0.0104
3514.00,0.0104
3513.00,0.0105
3512.00,0.0106
3511.00,0.0106
3510.00,0.0107
3509.00,0.0107
3508.00,0.0108
3507.00,0.0109
3506.00,0.0109
3505.00,0.0110
3504.00,0.0110
3503.00,0.0110
3502.00,0.0110
3501.00,0.0110
3500.00,0.0111
3499.00,0.0111
3498.00,0.0112
3497.00,0.0113
3496.00,0.0114
3495.00,0.0114
3494.00,0.0115
3493.00,0.0115
3492.00,0.0116
3491.00,0.0116
3490.00,0.0117
3489.00,0.0117
3488.00,0.0117
3487.00,0.0117
3486.00,0.0117
3485.00,0.0118
3484.00,0.0118
3483.00,0.0119
3482.00,0.0119
3481.00,0.0119
3480.00,0.0119
3479.00,0.0120
3478.00,0.0121
3477.00,0.0121
3476.00,0.0121
3475.00,0.0122
3474.00,0.0122
3473.00,0.0122
3472.00,0.0123
3471.00,0.0124
3470.00,0.0124
3469.00,0.0125
3468.00,0.0125
3467.00,0.0126
3466.00,0.0126
3465.00,0.0126
3464.00,0.0127
3463.00,0.0127
3462.00,0.0127
3461.00,0.0127
3460.00,0.0128
3459.00,0.0128
3458.00,0.0128
3457.00,0.0129
3456.00,0.0129
3455.00,0.0129
3454.00,0.0130
3453.00,0.0130
3452.00,0.0130
3451.00,0.0131
3450.00,0.0131
3449.00,0.0132
3448.00,0.0132
3447.00,0.0133
3446.00,0.0133
3445.00,0.0133
3444.00,0.0133
3443.00,0.0134
3442.00,0.0134
3441.00,0.0134
3440.00,0.0134
3439.00,0.0135
3438.00,0.0135
3437.00,0.0136
3436.00,0.0136
3435.00,0.0136
3434.00,0.0136
3433.00,0.0136
3432.00,0.0137
3431.00,0.0137
3430.00,0.0137
3429.00,0.0138
3428.00,0.0138
3427.00,0.0138
3426.00,0.0138
3425.00,0.0138
3424.00,0.0138
3423.00,0.0138
3422.00,0.0139
3421.00,0.0139
3420.00,0.0139
3419.00,0.0139
3418.00,0.0139
3417.00,0.0140
3416.00,0.0140
3415.00,0.0141
3414.00,0.0141
3413.00,0.0142
3412.00,0.0142
3411.00,0.0143
3410.00,0.0143
3409.00,0.0143
3408.00,0.0144
3407.00,0.0144
3406.00,0.0144
3405.00,0.0144
3404.00,0.0145
3403.00,0.0145
3402.00,0.0145
3401.00,0.0146
3400.00,0.0146
3399.00,0.0147
3398.00,0.0147
3397.00,0.0146
3396.00,0.0146
3395.00,0.0146
3394.00,0.0146
3393.00,0.0146
3392.00,0.0145
3391.00,0.0145
3390.00,0.0145
3389.00,0.0145
3388.00,0.0145
3387.00,0.0145
3386.00,0.0144
3385.00,0.0144
3384.00,0.0144
3383.00,0.0144
3382.00,0.0143
3381.00,0.0143
3380.00,0.0142
3379.00,0.0142
3378.00,0.0141
3377.00,0.0140
3376.00,0.0140
3375.00,0.0139
3374.00,0.0139
3373.00,0.0138
3372.00,0.0138
3371.00,0.0137
3370.00,0.0136
3369.00,0.0136
3368.00,0.0135
3367.00,0.0135
3366.00,0.0134
3365.00,0.0134
3364.00,0.0133
3363.00,0.0132
3362.00,0.0131
3361.00,0.0131
3360.00,0.0130
3359.00,0.0130
3358.00,0.0130
3357.00,0.0129
3356.00,0.0128
3355.00,0.0128
3354.00,0.0127
3353.00,0.0126
3352.00,0.0126
3351.00,0.0125
3350.00,0.0125
3349.00,0.0125
3348.00,0.0125
3347.00,0.0124
3346.00,0.0124
3345.00,0.0123
3344.00,0.0122
3343.00,0.0122
3342.00,0.0121
3341.00,0.0121
3340.00,0.0120
3339.00,0.0120
3338.00,0.0119
3337.00,0.0119
3336.00,0.0119
3335.00,0.0118
3334.00,0.0118
3333.00,0.0118
3332.00,0.0117
3331.00,0.0117
3330.00,0.0116
3329.00,0.0116
3328.00,0.0116
3327.00,0.0115
3326.00,0.0115
3325.00,0.0115
3324.00,0.0115
3323.00,0.0115
3322.00,0.0115
3321.00,0.0114
3320.00,0.0114
3319.00,0.0114
3318.00,0.0113
3317.00,0.0113
3316.00,0.0112
3315.00,0.0112
3314.00,0.0112
3313.00,0.0112
3312.00,0.0112
3311.00,0.0111
3310.00,0.0111
3309.00,0.0111
3308.00,0.0111
3307.00,0.0110
3306.00,0.0110
3305.00,0.0110
3304.00,0.0110
3303.00,0.0110
3302.00,0.0110
3301.00,0.0110
3300.00,0.0110
3299.00,0.0110
3298.00,0.0110
3297.00,0.0109
3296.00,0.0109
3295.00,0.0109
3294.00,0.0109
3293.00,0.0109
3292.00,0.0109
3291.00,0.0109
3290.00,0.0110
3289.00,0.0110
3288.00,0.0110
3287.00,0.0110
3286.00,0.0109
3285.00,0.0109
3284.00,0.0109
3283.00,0.0109
3282.00,0.0109
3281.00,0.0109
3280.00,0.0109
3279.00,0.0109
3278.00,0.0109
3277.00,0.0108
3276.00,0.0108
3275.00,0.0107
3274.00,0.0107
3273.00,0.0106
3272.00,0.0106
3271.00,0.0106
3270.00,0.0106
3269.00,0.0106
3268.00,0.0106
3267.00,0.0106
3266.00,0.0106
3265.00,0.0106
3264.00,0.0106
3263.00,0.0105
3262.00,0.0105
3261.00,0.0105
3260.00,0.0105
3259.00,0.0105
3258.00,0.0104
3257.00,0.0104
3256.00,0.0104
3255.00,0.0103
3254.00,0.0103
3253.00,0.0103
3252.00,0.0102
3251.00,0.0102
3250.00,0.0102
3249.00,0.0101
3248.00,0.0101
3247.00,0.0101
3246.00,0.0101
3245.00,0.0101
3244.00,0.0101
3243.00,0.0100
3242.00,0.0100
3241.00,0.0100
3240.00,0.0099
3239.00,0.0099
3238.00,0.0098
3237.00,0.0098
3236.00,0.0098
3235.00,0.0097
3234.00,0.0097
3233.00,0.0097
3232.00,0.0096
3231.00,0.0096
3230.00,0.0096
3229.00,0.0096
3228.00,0.0096
3227.00,0.0095
3226.00,0.0095
3225.00,0.0095
3224.00,0.0094
3223.00,0.0094
3222.00,0.0094
3221.00,0.0093
3220.00,0.0093
3219.00,0.0092
3218.00,0.0092
3217.00,0.0092
3216.00,0.0091
3215.00,0.0091
3214.00,0.0090
3213.00,0.0090
3212.00,0.0089
3211.00,0.0089
3210.00,0.0089
3209.00,0.0088
3208.00,0.0088
3207.00,0.0088
3206.00,0.0087
3205.00,0.0087
3204.00,0.0087
3203.00,0.0086
3202.00,0.0086
3201.00,0.0085
3200.00,0.0084
3199.00,0.0083
3198.00,0.0083
3197.00,0.0082
3196.00,0.0082
3195.00,0.0081
3194.00,0.0081
3193.00,0.0081
3192.00,0.0080
3191.00,0.0079
3190.00,0.0079
3189.00,0.0078
3188.00,0.0078
3187.00,0.0077
3186.00,0.0077
3185.00,0.0077
3184.00,0.0076
3183.00,0.0076
3182.00,0.0075
3181.00,0.0075
3180.00,0.0074
3179.00,0.0073
3178.00,0.0073
3177.00,0.0072
3176.00,0.0072
3175.00,0.0072
3174.00,0.0071
3173.00,0.0071
3172.00,0.0071
3171.00,0.0070
3170.00,0.0069
3169.00,0.0069
3168.00,0.0068
3167.00,0.0068
3166.00,0.0067
3165.00,0.0067
3164.00,0.0066
3163.00,0.0066
3162.00,0.0065
3161.00,0.0065
3160.00,0.0064
3159.00,0.0064
3158.00,0.0064
3157.00,0.0063
3156.00,0.0063
3155.00,0.0062
3154.00,0.0062
3153.00,0.0062
3152.00,0.0061
3151.00,0.0060
3150.00,0.0059
3149.00,0.0059
3148.00,0.0059
3147.00,0.0058
3146.00,0.0058
3145.00,0.0057
3144.00,0.0057
3143.00,0.0056
3142.00,0.0056
3141.00,0.0055
3140.00,0.0055
3139.00,0.0055
3138.00,0.0055
3137.00,0.0054
3136.00,0.0054
3135.00,0.0053
3134.00,0.0053
3133.00,0.0053
3132.00,0.0052
3131.00,0.0052
3130.00,0.0051
3129.00,0.0051
3128.00,0.0051
3127.00,0.0050
3126.00,0.0050
3125.00,0.0050
3124.00,0.0049
3123.00,0.0049
3122.00,0.0049
3121.00,0.0049
3120.00,0.0048
3119.00,0.0048
3118.00,0.0047
3117.00,0.0047
3116.00,0.0047
3115.00,0.0046
3114.00,0.0046
3113.00,0.0046
3112.00,0.0045
3111.00,0.0045
3110.00,0.0045
3109.00,0.0045
3108.00,0.0045
3107.00,0.0044
3106.00,0.0044
3105.00,0.0043
3104.00,0.0043
3103.00,0.0043
3102.00,0.0043
3101.00,0.0043
3100.00,0.0043
3099.00,0.0042
3098.00,0.0042
3097.00,0.0042
3096.00,0.0041
3095.00,0.0041
3094.00,0.0041
3093.00,0.0040
3092.00,0.0040
3091.00,0.0040
3090.00,0.0040
3089.00,0.0040
3088.00,0.0040
3087.00,0.0040
3086.00,0.0040
3085.00,0.0039
3084.00,0.0039
3083.00,0.0039
3082.00,0.0038
3081.00,0.0038
3080.00,0.0038
3079.00,0.0038
3078.00,0.0038
3077.00,0.0037
3076.00,0.0037
3075.00,0.0037
3074.00,0.0036
3073.00,0.0036
3072.00,0.0036
3071.00,0.0036
3070.00,0.0035
3069.00,0.0035
3068.00,0.0035
3067.00,0.0035
3066.00,0.0035
3065.00,0.0035
3064.00,0.0035
3063.00,0.0034
3062.00,0.0034
3061.00,0.0034
3060.00,0.0034
3059.00,0.0034
3058.00,0.0034
3057.00,0.0034
3056.00,0.0033
3055.00,0.0033
3054.00,0.0033
3053.00,0.0033
3052.00,0.0033
3051.00,0.0033
3050.00,0.0032
3049.00,0.0032
3048.00,0.0032
3047.00,0.0032
3046.00,0.0032
3045.00,0.0032
3044.00,0.0032
3043.00,0.0032
3042.00,0.0031
3041.00,0.0031
3040.00,0.0031
3039.00,0.0031
3038.00,0.0031
3037.00,0.0031
3036.00,0.0032
3035.00,0.0032
3034.00,0.0032
3033.00,0.0031
3032.00,0.0031
3031.00,0.0031
3030.00,0.0031
3029.00,0.0031
3028.00,0.0031
3027.00,0.0031
3026.00,0.0031
3025.00,0.0031
3024.00,0.0031
3023.00,0.0031
3022.00,0.0031
3021.00,0.0031
3020.00,0.0032
3019.00,0.0032
3018.00,0.0032
3017.00,0.0032
3016.00,0.0032
3015.00,0.0032
3014.00,0.0033
3013.00,0.0033
3012.00,0.0034
3011.00,0.0035
3010.00,0.0035
3009.00,0.0036
3008.00,0.0037
3007.00,0.0039
3006.00,0.0040
3005.00,0.0041
3004.00,0.0042
3003.00,0.0044
3002.00,0.0046
3001.00,0.0048
3000.00,0.0050
2999.00,0.0052
2998.00,0.0054
2997.00,0.0055
2996.00,0.0057
2995.00,0.0059
2994.00,0.0060
2993.00,0.0061
2992.00,0.0063
2991.00,0.0064
2990.00,0.0065
2989.00,0.0066
2988.00,0.0068
2987.00,0.0069
2986.00,0.0071
2985.00,0.0073
2984.00,0.0075
2983.00,0.0077
2982.00,0.0079
2981.00,0.0080
2980.00,0.0081
2979.00,0.0083
2978.00,0.0084
2977.00,0.0086
2976.00,0.0088
2975.00,0.0090
2974.00,0.0093
2973.00,0.0096
2972.00,0.0098
2971.00,0.0100
2970.00,0.0101
2969.00,0.0102
2968.00,0.0103
2967.00,0.0105
2966.00,0.0107
2965.00,0.0108
2964.00,0.0110
2963.00,0.0111
2962.00,0.0111
2961.00,0.0111
2960.00,0.0110
2959.00,0.0109
2958.00,0.0108
2957.00,0.0107
2956.00,0.0106
2955.00,0.0106
2954.00,0.0106
2953.00,0.0106
2952.00,0.0107
2951.00,0.0107
2950.00,0.0107
2949.00,0.0108
2948.00,0.0108
2947.00,0.0108
2946.00,0.0108
2945.00,0.0108
2944.00,0.0108
2943.00,0.0108
2942.00,0.0109
2941.00,0.0109
2940.00,0.0110
2939.00,0.0111
2938.00,0.0112
2937.00,0.0114
2936.00,0.0115
2935.00,0.0117
2934.00,0.0118
2933.00,0.0120
2932.00,0.0121
2931.00,0.0123
2930.00,0.0124
2929.00,0.0125
2928.00,0.0125
2927.00,0.0125
2926.00,0.0125
2925.00,0.0124
2924.00,0.0123
2923.00,0.0121
2922.00,0.0120
2921.00,0.0118
2920.00,0.0116
2919.00,0.0114
2918.00,0.0112
2917.00,0.0110
2916.00,0.0109
2915.00,0.0107
2914.00,0.0106
2913.00,0.0105
2912.00,0.0103
2911.00,0.0102
2910.00,0.0101
2909.00,0.0100
2908.00,0.0098
2907.00,0.0097
2906.00,0.0096
2905.00,0.0095
2904.00,0.0094
2903.00,0.0094
2902.00,0.0093
2901.00,0.0093
2900.00,0.0092
2899.00,0.0092
2898.00,0.0092
2897.00,0.0092
2896.00,0.0092
2895.00,0.0091
2894.00,0.0091
2893.00,0.0091
2892.00,0.0091
2891.00,0.0091
2890.00,0.0091
2889.00,0.0090
2888.00,0.0090
2887.00,0.0090
2886.00,0.0089
2885.00,0.0089
2884.00,0.0089
2883.00,0.0089
2882.00,0.0089
2881.00,0.0089
2880.00,0.0089
2879.00,0.0089
2878.00,0.0089
2877.00,0.0090
2876.00,0.0089
2875.00,0.0089
2874.00,0.0089
2873.00,0.0088
2872.00,0.0088
2871.00,0.0087
2870.00,0.0087
2869.00,0.0087
2868.00,0.0087
2867.00,0.0087
2866.00,0.0087
2865.00,0.0088
2864.00,0.0089
2863.00,0.0090
2862.00,0.0091
2861.00,0.0091
2860.00,0.0091
2859.00,0.0091
2858.00,0.0090
2857.00,0.0089
2856.00,0.0087
2855.00,0.0085
2854.00,0.0084
2853.00,0.0082
2852.00,0.0080
2851.00,0.0078
2850.00,0.0075
2849.00,0.0073
2848.00,0.0070
2847.00,0.0068
2846.00,0.0065
2845.00,0.0063
2844.00,0.0060
2843.00,0.0058
2842.00,0.0056
2841.00,0.0054
2840.00,0.0052
2839.00,0.0051
2838.00,0.0050
2837.00,0.0049
2836.00,0.0048
2835.00,0.0047
2834.00,0.0046
2833.00,0.0045
2832.00,0.0044
2831.00,0.0043
2830.00,0.0042
2829.00,0.0042
2828.00,0.0041
2827.00,0.0040
2826.00,0.0039
2825.00,0.0038
2824.00,0.0038
2823.00,0.0037
2822.00,0.0036
2821.00,0.0035
2820.00,0.0035
2819.00,0.0034
2818.00,0.0034
2817.00,0.0033
2816.00,0.0033
2815.00,0.0032
2814.00,0.0032
2813.00,0.0031
2812.00,0.0031
2811.00,0.0030
2810.00,0.0030
2809.00,0.0030
2808.00,0.0030
2807.00,0.0029
2806.00,0.0029
2805.00,0.0029
2804.00,0.0028
2803.00,0.0028
2802.00,0.0028
2801.00,0.0027
2800.00,0.0027
2799.00,0.0027
2798.00,0.0027
2797.00,0.0026
2796.00,0.0026
2795.00,0.0026
2794.00,0.0026
2793.00,0.0026
2792.00,0.0026
2791.00,0.0026
2790.00,0.0026
2789.00,0.0025
2788.00,0.0025
2787.00,0.0025
2786.00,0.0025
2785.00,0.0025
2784.00,0.0025
2783.00,0.0024
2782.00,0.0024
2781.00,0.0024
2780.00,0.0024
2779.00,0.0024
2778.00,0.0024
2777.00,0.0023
2776.00,0.0023
2775.00,0.0023
2774.00,0.0023
2773.00,0.0023
2772.00,0.0023
2771.00,0.0023
2770.00,0.0023
2769.00,0.0023
2768.00,0.0023
2767.00,0.0022
2766.00,0.0022
2765.00,0.0022
2764.00,0.0022
2763.00,0.0022
2762.00,0.0022
2761.00,0.0022
2760.00,0.0022
2759.00,0.0022
2758.00,0.0022
2757.00,0.0022
2756.00,0.0022
2755.00,0.0022
2754.00,0.0022
2753.00,0.0022
2752.00,0.0022
2751.00,0.0022
2750.00,0.0022
2749.00,0.0022
2748.00,0.0022
2747.00,0.0022
2746.00,0.0022
2745.00,0.0022
2744.00,0.0022
2743.00,0.0022
2742.00,0.0022
2741.00,0.0022
2740.00,0.0022
2739.00,0.0023
2738.00,0.0023
2737.00,0.0023
2736.00,0.0023
2735.00,0.0023
2734.00,0.0023
2733.00,0.0023
2732.00,0.0023
2731.00,0.0023
2730.00,0.0023
2729.00,0.0023
2728.00,0.0023
2727.00,0.0022
2726.00,0.0022
2725.00,0.0022
2724.00,0.0022
2723.00,0.0022
2722.00,0.0022
2721.00,0.0022
2720.00,0.0022
2719.00,0.0022
2718.00,0.0022
2717.00,0.0022
2716.00,0.0022
2715.00,0.0022
2714.00,0.0022
2713.00,0.0021
2712.00,0.0021
2711.00,0.0021
2710.00,0.0021
2709.00,0.0021
2708.00,0.0021
2707.00,0.0021
2706.00,0.0021
2705.00,0.0021
2704.00,0.0021
2703.00,0.0021
2702.00,0.0021
2701.00,0.0021
2700.00,0.0021
2699.00,0.0021
2698.00,0.0020
2697.00,0.0020
2696.00,0.0020
2695.00,0.0020
2694.00,0.0020
2693.00,0.0020
2692.00,0.0020
2691.00,0.0020
2690.00,0.0019
2689.00,0.0019
2688.00,0.0019
2687.00,0.0019
2686.00,0.0019
2685.00,0.0019
2684.00,0.0019
2683.00,0.0019
2682.00,0.0019
2681.00,0.0019
2680.00,0.0019
2679.00,0.0019
2678.00,0.0019
2677.00,0.0019
2676.00,0.0019
2675.00,0.0019
2674.00,0.0019
2673.00,0.0019
2672.00,0.0019
2671.00,0.0019
2670.00,0.0019
2669.00,0.0019
2668.00,0.0019
2667.00,0.0020
2666.00,0.0020
2665.00,0.0021
2664.00,0.0021
2663.00,0.0022
2662.00,0.0022
2661.00,0.0023
2660.00,0.0023
2659.00,0.0023
2658.00,0.0023
2657.00,0.0024
2656.00,0.0024
2655.00,0.0024
2654.00,0.0024
2653.00,0.0024
2652.00,0.0024
2651.00,0.0024
2650.00,0.0024
2649.00,0.0024
2648.00,0.0024
2647.00,0.0024
2646.00,0.0024
2645.00,0.0024
2644.00,0.0024
2643.00,0.0024
2642.00,0.0023
2641.00,0.0023
2640.00,0.0023
2639.00,0.0023
2638.00,0.0023
2637.00,0.0023
2636.00,0.0023
2635.00,0.0023
2634.00,0.0023
2633.00,0.0023
2632.00,0.0022
2631.00,0.0022
2630.00,0.0022
2629.00,0.0022
2628.00,0.0022
2627.00,0.0022
2626.00,0.0022
2625.00,0.0022
2624.00,0.0022
2623.00,0.0022
2622.00,0.0022
2621.00,0.0022
2620.00,0.0022
2619.00,0.0022
2618.00,0.0021
2617.00,0.0021
2616.00,0.0021
2615.00,0.0021
2614.00,0.0020
2613.00,0.0021
2612.00,0.0021
2611.00,0.0021
2610.00,0.0021
2609.00,0.0021
2608.00,0.0021
2607.00,0.0021
2606.00,0.0021
2605.00,0.0020
2604.00,0.0020
2603.00,0.0021
2602.00,0.0021
2601.00,0.0021
2600.00,0.0021
2599.00,0.0021
2598.00,0.0021
2597.00,0.0020
2596.00,0.0020
2595.00,0.0020
2594.00,0.0020
2593.00,0.0020
2592.00,0.0020
2591.00,0.0020
2590.00,0.0020
2589.00,0.0020
2588.00,0.0020
2587.00,0.0020
2586.00,0.0020
2585.00,0.0020
2584.00,0.0020
2583.00,0.0019
2582.00,0.0019
2581.00,0.0019
2580.00,0.0019
2579.00,0.0019
2578.00,0.0019
2577.00,0.0019
2576.00,0.0020
2575.00,0.0020
2574.00,0.0019
2573.00,0.0019
2572.00,0.0019
2571.00,0.0019
2570.00,0.0019
2569.00,0.0019
2568.00,0.0019
2567.00,0.0019
2566.00,0.0018
2565.00,0.0018
2564.00,0.0018
2563.00,0.0018
2562.00,0.0018
2561.00,0.0018
2560.00,0.0018
2559.00,0.0017
2558.00,0.0017
2557.00,0.0017
2556.00,0.0017
2555.00,0.0017
2554.00,0.0017
2553.00,0.0017
2552.00,0.0017
2551.00,0.0017
2550.00,0.0017
2549.00,0.0017
2548.00,0.0017
2547.00,0.0017
2546.00,0.0016
2545.00,0.0016
2544.00,0.0016
2543.00,0.0016
2542.00,0.0016
2541.00,0.0016
2540.00,0.0016
2539.00,0.0016
2538.00,0.0016
2537.00,0.0016
2536.00,0.0016
2535.00,0.0016
2534.00,0.0016
2533.00,0.0016
2532.00,0.0015
2531.00,0.0015
2530.00,0.0015
2529.00,0.0015
2528.00,0.0015
2527.00,0.0015
2526.00,0.0015
2525.00,0.0015
2524.00,0.0015
2523.00,0.0015
2522.00,0.0015
2521.00,0.0015
2520.00,0.0015
2519.00,0.0015
2518.00,0.0015
2517.00,0.0014
2516.00,0.0014
2515.00,0.0014
2514.00,0.0014
2513.00,0.0014
2512.00,0.0014
2511.00,0.0014
2510.00,0.0014
2509.00,0.0014
2508.00,0.0014
2507.00,0.0014
2506.00,0.0014
2505.00,0.0014
2504.00,0.0014
2503.00,0.0014
2502.00,0.0014
2501.00,0.0014
2500.00,0.0014
2499.00,0.0014
2498.00,0.0014
2497.00,0.0014
2496.00,0.0014
2495.00,0.0014
2494.00,0.0014
2493.00,0.0014
2492.00,0.0014
2491.00,0.0014
2490.00,0.0013
2489.00,0.0013
2488.00,0.0013
2487.00,0.0014
2486.00,0.0014
2485.00,0.0014
2484.00,0.0014
2483.00,0.0014
2482.00,0.0013
2481.00,0.0013
2480.00,0.0013
2479.00,0.0013
2478.00,0.0013
2477.00,0.0013
2476.00,0.0013
2475.00,0.0013
2474.00,0.0013
2473.00,0.0013
2472.00,0.0013
2471.00,0.0013
2470.00,0.0013
2469.00,0.0013
2468.00,0.0013
2467.00,0.0013
2466.00,0.0013
2465.00,0.0013
2464.00,0.0013
2463.00,0.0013
2462.00,0.0014
2461.00,0.0014
2460.00,0.0015
2459.00,0.0015
2458.00,0.0015
2457.00,0.0015
2456.00,0.0014
2455.00,0.0014
2454.00,0.0014
2453.00,0.0014
2452.00,0.0014
2451.00,0.0014
2450.00,0.0014
2449.00,0.0014
2448.00,0.0014
2447.00,0.0014
2446.00,0.0014
2445.00,0.0013
2444.00,0.0013
2443.00,0.0013
2442.00,0.0013
2441.00,0.0013
2440.00,0.0013
2439.00,0.0013
2438.00,0.0013
2437.00,0.0013
2436.00,0.0013
2435.00,0.0013
2434.00,0.0013
2433.00,0.0013
2432.00,0.0013
2431.00,0.0012
2430.00,0.0012
2429.00,0.0012
2428.00,0.0012
2427.00,0.0012
2426.00,0.0012
2425.00,0.0012
2424.00,0.0012
2423.00,0.0012
2422.00,0.0012
2421.00,0.0012
2420.00,0.0012
2419.00,0.0013
2418.00,0.0012
2417.00,0.0012
2416.00,0.0012
2415.00,0.0012
2414.00,0.0012
2413.00,0.0012
2412.00,0.0013
2411.00,0.0013
2410.00,0.0013
2409.00,0.0012
2408.00,0.0012
2407.00,0.0011
2406.00,0.0011
2405.00,0.0011
2404.00,0.0011
2403.00,0.0011
2402.00,0.0011
2401.00,0.0011
2400.00,0.0011
2399.00,0.0011
2398.00,0.0011
2397.00,0.0011
2396.00,0.0011
2395.00,0.0011
2394.00,0.0011
2393.00,0.0011
2392.00,0.0011
2391.00,0.0011
2390.00,0.0011
2389.00,0.0011
2388.00,0.0010
2387.00,0.0010
2386.00,0.0010
2385.00,0.0010
2384.00,0.0009
2383.00,0.0009
2382.00,0.0009
2381.00,0.0009
2380.00,0.0009
2379.00,0.0009
2378.00,0.0009
2377.00,0.0010
2376.00,0.0010
2375.00,0.0010
2374.00,0.0010
2373.00,0.0010
2372.00,0.0009
2371.00,0.0009
2370.00,0.0009
2369.00,0.0009
2368.00,0.0009
2367.00,0.0009
2366.00,0.0009
2365.00,0.0009
2364.00,0.0010
2363.00,0.0010
2362.00,0.0010
2361.00,0.0011
2360.00,0.0011
2359.00,0.0011
2358.00,0.0011
2357.00,0.0012
2356.00,0.0012
2355.00,0.0011
2354.00,0.0011
2353.00,0.0011
2352.00,0.0011
2351.00,0.0011
2350.00,0.0012
2349.00,0.0012
2348.00,0.0013
2347.00,0.0013
2346.00,0.0013
2345.00,0.0014
2344.00,0.0014
2343.00,0.0014
2342.00,0.0015
2341.00,0.0015
2340.00,0.0015
2339.00,0.0015
2338.00,0.0015
2337.00,0.0015
2336.00,0.0015
2335.00,0.0015
2334.00,0.0015
2333.00,0.0015
2332.00,0.0015
2331.00,0.0015
2330.00,0.0015
2329.00,0.0017
2328.00,0.0021
2327.00,0.0024
2326.00,0.0027
2325.00,0.0028
2324.00,0.0027
2323.00,0.0025
2322.00,0.0023
2321.00,0.0022
2320.00,0.0021
2319.00,0.0021
2318.00,0.0020
2317.00,0.0020
2316.00,0.0019
2315.00,0.0018
2314.00,0.0018
2313.00,0.0017
2312.00,0.0017
2311.00,0.0017
2310.00,0.0017
2309.00,0.0018
2308.00,0.0018
2307.00,0.0018
2306.00,0.0018
2305.00,0.0018
2304.00,0.0018
2303.00,0.0019
2302.00,0.0019
2301.00,0.0020
2300.00,0.0020
2299.00,0.0020
2298.00,0.0020
2297.00,0.0021
2296.00,0.0022
2295.00,0.0023
2294.00,0.0024
2293.00,0.0024
2292.00,0.0025
2291.00,0.0025
2290.00,0.0026
2289.00,0.0026
2288.00,0.0027
2287.00,0.0027
2286.00,0.0026
2285.00,0.0026
2284.00,0.0024
2283.00,0.0023
2282.00,0.0023
2281.00,0.0022
2280.00,0.0021
2279.00,0.0021
2278.00,0.0020
2277.00,0.0020
2276.00,0.0020
2275.00,0.0020
2274.00,0.0020
2273.00,0.0021
2272.00,0.0021
2271.00,0.0021
2270.00,0.0020
2269.00,0.0020
2268.00,0.0019
2267.00,0.0018
2266.00,0.0018
2265.00,0.0019
2264.00,0.0020
2263.00,0.0020
2262.00,0.0020
2261.00,0.0019
2260.00,0.0019
2259.00,0.0019
2258.00,0.0018
2257.00,0.0017
2256.00,0.0016
2255.00,0.0015
2254.00,0.0014
2253.00,0.0014
2252.00,0.0014
2251.00,0.0015
2250.00,0.0016
2249.00,0.0017
2248.00,0.0018
2247.00,0.0019
2246.00,0.0020
2245.00,0.0020
2244.00,0.0019
2243.00,0.0019
2242.00,0.0018
2241.00,0.0018
2240.00,0.0018
2239.00,0.0018
2238.00,0.0018
2237.00,0.0018
2236.00,0.0018
2235.00,0.0018
2234.00,0.0018
2233.00,0.0017
2232.00,0.0016
2231.00,0.0016
2230.00,0.0016
2229.00,0.0017
2228.00,0.0017
2227.00,0.0017
2226.00,0.0017
2225.00,0.0017
2224.00,0.0017
2223.00,0.0018
2222.00,0.0018
2221.00,0.0019
2220.00,0.0019
2219.00,0.0019
2218.00,0.0019
2217.00,0.0018
2216.00,0.0018
2215.00,0.0018
2214.00,0.0018
2213.00,0.0018
2212.00,0.0017
2211.00,0.0017
2210.00,0.0017
2209.00,0.0017
2208.00,0.0017
2207.00,0.0018
2206.00,0.0018
2205.00,0.0018
2204.00,0.0018
2203.00,0.0018
2202.00,0.0018
2201.00,0.0018
2200.00,0.0018
2199.00,0.0018
2198.00,0.0018
2197.00,0.0018
2196.00,0.0019
2195.00,0.0020
2194.00,0.0022
2193.00,0.0022
2192.00,0.0023
2191.00,0.0023
2190.00,0.0023
2189.00,0.0024
2188.00,0.0024
2187.00,0.0025
2186.00,0.0024
2185.00,0.0022
2184.00,0.0019
2183.00,0.0016
2182.00,0.0015
2181.00,0.0015
2180.00,0.0017
2179.00,0.0017
2178.00,0.0016
2177.00,0.0015
2176.00,0.0014
2175.00,0.0014
2174.00,0.0015
2173.00,0.0016
2172.00,0.0019
2171.00,0.0022
2170.00,0.0026
2169.00,0.0028
2168.00,0.0028
2167.00,0.0028
2166.00,0.0029
2165.00,0.0031
2164.00,0.0034
2163.00,0.0034
2162.00,0.0028
2161.00,0.0015
2160.00,-0.0001
2159.00,-0.0012
2158.00,-0.0016
2157.00,-0.0013
2156.00,-0.0009
2155.00,-0.0005
2154.00,-0.0003
2153.00,-0.0001
2152.00,0.0001
2151.00,0.0002
2150.00,0.0002
2149.00,0.0002
2148.00,0.0002
2147.00,0.0001
2146.00,-0.0001
2145.00,-0.0001
2144.00,-0.0001
2143.00,0.0001
2142.00,0.0002
2141.00,0.0003
2140.00,0.0003
2139.00,0.0003
2138.00,0.0001
2137.00,-0.0001
2136.00,-0.0004
2135.00,-0.0006
2134.00,-0.0007
2133.00,-0.0005
2132.00,-0.0002
2131.00,0.0001
2130.00,0.0003
2129.00,0.0005
2128.00,0.0006
2127.00,0.0006
2126.00,0.0006
2125.00,0.0007
2124.00,0.0007
2123.00,0.0008
2122.00,0.0009
2121.00,0.0011
2120.00,0.0012
2119.00,0.0014
2118.00,0.0016
2117.00,0.0018
2116.00,0.0019
2115.00,0.0019
2114.00,0.0019
2113.00,0.0018
2112.00,0.0017
2111.00,0.0016
2110.00,0.0016
2109.00,0.0015
2108.00,0.0015
2107.00,0.0015
2106.00,0.0015
2105.00,0.0015
2104.00,0.0015
2103.00,0.0015
2102.00,0.0015
2101.00,0.0015
2100.00,0.0015
2099.00,0.0015
2098.00,0.0014
2097.00,0.0012
2096.00,0.0010
2095.00,0.0009
2094.00,0.0009
2093.00,0.0011
2092.00,0.0012
2091.00,0.0014
2090.00,0.0015
2089.00,0.0015
2088.00,0.0015
2087.00,0.0016
2086.00,0.0016
2085.00,0.0017
2084.00,0.0018
2083.00,0.0018
2082.00,0.0018
2081.00,0.0018
2080.00,0.0018
2079.00,0.0017
2078.00,0.0016
2077.00,0.0016
2076.00,0.0016
2075.00,0.0016
2074.00,0.0016
2073.00,0.0015
2072.00,0.0014
2071.00,0.0014
2070.00,0.0013
2069.00,0.0012
2068.00,0.0011
2067.00,0.0011
2066.00,0.0011
2065.00,0.0012
2064.00,0.0014
2063.00,0.0014
2062.00,0.0014
2061.00,0.0014
2060.00,0.0014
2059.00,0.0014
2058.00,0.0015
2057.00,0.0015
2056.00,0.0015
2055.00,0.0015
2054.00,0.0018
2053.00,0.0022
2052.00,0.0026
2051.00,0.0027
2050.00,0.0024
2049.00,0.0021
2048.00,0.0018
2047.00,0.0016
2046.00,0.0015
2045.00,0.0014
2044.00,0.0014
2043.00,0.0014
2042.00,0.0014
2041.00,0.0014
2040.00,0.0015
2039.00,0.0016
2038.00,0.0016
2037.00,0.0015
2036.00,0.0014
2035.00,0.0013
2034.00,0.0010
2033.00,0.0008
2032.00,0.0007
2031.00,0.0007
2030.00,0.0007
2029.00,0.0007
2028.00,0.0008
2027.00,0.0008
2026.00,0.0007
2025.00,0.0007
2024.00,0.0006
2023.00,0.0005
2022.00,0.0005
2021.00,0.0005
2020.00,0.0005
2019.00,0.0006
2018.00,0.0007
2017.00,0.0008
2016.00,0.0008
2015.00,0.0009
2014.00,0.0009
2013.00,0.0009
2012.00,0.0010
2011.00,0.0009
2010.00,0.0007
2009.00,0.0004
2008.00,0.0001
2007.00,-0.0001
2006.00,-0.0002
2005.00,-0.0001
2004.00,0.0001
2003.00,0.0003
2002.00,0.0005
2001.00,0.0007
2000.00,0.0008
1999.00,0.0008
1998.00,0.0008
1997.00,0.0008
1996.00,0.0009
1995.00,0.0009
1994.00,0.0009
1993.00,0.0010
1992.00,0.0011
1991.00,0.0011
1990.00,0.0010
1989.00,0.0010
1988.00,0.0010
1987.00,0.0011
1986.00,0.0013
1985.00,0.0015
1984.00,0.0018
1983.00,0.0020
1982.00,0.0022
1981.00,0.0024
1980.00,0.0023
1979.00,0.0018
1978.00,0.0010
1977.00,0.0004
1976.00,0.0000
1975.00,-0.0001
1974.00,-0.0001
1973.00,-0.0001
1972.00,-0.0001
1971.00,-0.0001
1970.00,-0.0002
1969.00,-0.0001
1968.00,0.0000
1967.00,0.0002
1966.00,0.0003
1965.00,0.0004
1964.00,0.0004
1963.00,0.0003
1962.00,0.0000
1961.00,-0.0002
1960.00,-0.0004
1959.00,-0.0005
1958.00,-0.0005
1957.00,-0.0004
1956.00,-0.0002
1955.00,0.0001
1954.00,0.0002
1953.00,0.0003
1952.00,0.0003
1951.00,0.0002
1950.00,0.0002
1949.00,0.0002
1948.00,0.0003
1947.00,0.0003
1946.00,0.0002
1945.00,0.0002
1944.00,0.0002
1943.00,0.0003
1942.00,0.0003
1941.00,0.0003
1940.00,0.0003
1939.00,0.0002
1938.00,0.0002
1937.00,0.0001
1936.00,0.0001
1935.00,0.0002
1934.00,0.0002
1933.00,0.0002
1932.00,0.0002
1931.00,0.0002
1930.00,0.0002
1929.00,0.0002
1928.00,0.0002
1927.00,0.0003
1926.00,0.0003
1925.00,0.0003
1924.00,0.0004
1923.00,0.0004
1922.00,0.0005
1921.00,0.0005
1920.00,0.0005
1919.00,0.0005
1918.00,0.0005
1917.00,0.0005
1916.00,0.0006
1915.00,0.0007
1914.00,0.0007
1913.00,0.0007
1912.00,0.0007
1911.00,0.0007
1910.00,0.0007
1909.00,0.0007
1908.00,0.0007
1907.00,0.0007
1906.00,0.0007
1905.00,0.0007
1904.00,0.0007
1903.00,0.0007
1902.00,0.0007
1901.00,0.0007
1900.00,0.0006
1899.00,0.0006
1898.00,0.0006
1897.00,0.0006
1896.00,0.0007
1895.00,0.0007
1894.00,0.0007
1893.00,0.0006
1892.00,0.0005
1891.00,0.0005
1890.00,0.0005
1889.00,0.0005
1888.00,0.0006
1887.00,0.0006
1886.00,0.0006
1885.00,0.0006
1884.00,0.0006
1883.00,0.0006
1882.00,0.0006
1881.00,0.0007
1880.00,0.0007
1879.00,0.0007
1878.00,0.0007
1877.00,0.0007
1876.00,0.0007
1875.00,0.0007
1874.00,0.0007
1873.00,0.0006
1872.00,0.0006
1871.00,0.0006
1870.00,0.0006
1869.00,0.0006
1868.00,0.0006
1867.00,0.0007
1866.00,0.0007
1865.00,0.0007
1864.00,0.0007
1863.00,0.0007
1862.00,0.0007
1861.00,0.0007
1860.00,0.0007
1859.00,0.0007
1858.00,0.0007
1857.00,0.0007
1856.00,0.0008
1855.00,0.0008
1854.00,0.0008
1853.00,0.0008
1852.00,0.0008
1851.00,0.0008
1850.00,0.0008
1849.00,0.0008
1848.00,0.0007
1847.00,0.0007
1846.00,0.0007
1845.00,0.0007
1844.00,0.0007
1843.00,0.0007
1842.00,0.0007
1841.00,0.0007
1840.00,0.0007
1839.00,0.0007
1838.00,0.0007
1837.00,0.0007
1836.00,0.0007
1835.00,0.0007
1834.00,0.0007
1833.00,0.0007
1832.00,0.0007
1831.00,0.0007
1830.00,0.0007
1829.00,0.0006
1828.00,0.0006
1827.00,0.0007
1826.00,0.0007
1825.00,0.0007
1824.00,0.0008
1823.00,0.0008
1822.00,0.0008
1821.00,0.0008
1820.00,0.0007
1819.00,0.0006
1818.00,0.0005
1817.00,0.0005
1816.00,0.0005
1815.00,0.0006
1814.00,0.0006
1813.00,0.0007
1812.00,0.0007
1811.00,0.0008
1810.00,0.0008
1809.00,0.0008
1808.00,0.0008
1807.00,0.0008
1806.00,0.0008
1805.00,0.0008
1804.00,0.0008
1803.00,0.0008
1802.00,0.0008
1801.00,0.0008
1800.00,0.0008
1799.00,0.0008
1798.00,0.0009
1797.00,0.0008
1796.00,0.0008
1795.00,0.0008
1794.00,0.0008
1793.00,0.0008
1792.00,0.0008
1791.00,0.0009
1790.00,0.0009
1789.00,0.0009
1788.00,0.0009
1787.00,0.0010
1786.00,0.0010
1785.00,0.0010
1784.00,0.0009
1783.00,0.0009
1782.00,0.0009
1781.00,0.0010
1780.00,0.0010
1779.00,0.0010
1778.00,0.0010
1777.00,0.0010
1776.00,0.0010
1775.00,0.0011
1774.00,0.0011
1773.00,0.0010
1772.00,0.0010
1771.00,0.0009
1770.00,0.0009
1769.00,0.0010
1768.00,0.0010
1767.00,0.0011
1766.00,0.0012
1765.00,0.0012
1764.00,0.0012
1763.00,0.0012
1762.00,0.0013
1761.00,0.0013
1760.00,0.0013
1759.00,0.0012
1758.00,0.0012
1757.00,0.0012
1756.00,0.0012
1755.00,0.0013
1754.00,0.0013
1753.00,0.0012
1752.00,0.0012
1751.00,0.0012
1750.00,0.0012
1749.00,0.0012
1748.00,0.0013
1747.00,0.0013
1746.00,0.0013
1745.00,0.0013
1744.00,0.0014
1743.00,0.0014
1742.00,0.0014
1741.00,0.0015
1740.00,0.0015
1739.00,0.0015
1738.00,0.0015
1737.00,0.0015
1736.00,0.0016
1735.00,0.0017
1734.00,0.0017
1733.00,0.0017
1732.00,0.0017
1731.00,0.0018
1730.00,0.0019
1729.00,0.0020
1728.00,0.0021
1727.00,0.0022
1726.00,0.0023
1725.00,0.0023
1724.00,0.0024
1723.00,0.0025
1722.00,0.0025
1721.00,0.0025
1720.00,0.0026
1719.00,0.0027
1718.00,0.0028
1717.00,0.0028
1716.00,0.0028
1715.00,0.0030
1714.00,0.0032
1713.00,0.0034
1712.00,0.0036
1711.00,0.0039
1710.00,0.0040
1709.00,0.0042
1708.00,0.0044
1707.00,0.0046
1706.00,0.0049
1705.00,0.0051
1704.00,0.0055
1703.00,0.0058
1702.00,0.0063
1701.00,0.0068
1700.00,0.0075
1699.00,0.0082
1698.00,0.0090
1697.00,0.0100
1696.00,0.0110
1695.00,0.0122
1694.00,0.0132
1693.00,0.0144
1692.00,0.0157
1691.00,0.0172
1690.00,0.0187
1689.00,0.0202
1688.00,0.0218
1687.00,0.0235
1686.00,0.0253
1685.00,0.0271
1684.00,0.0285
1683.00,0.0299
1682.00,0.0315
1681.00,0.0333
1680.00,0.0353
1679.00,0.0372
1678.00,0.0391
1677.00,0.0410
1676.00,0.0427
1675.00,0.0441
1674.00,0.0453
1673.00,0.0469
1672.00,0.0489
1671.00,0.0509
1670.00,0.0523
1669.00,0.0533
1668.00,0.0545
1667.00,0.0561
1666.00,0.0582
1665.00,0.0604
1664.00,0.0625
1663.00,0.0640
1662.00,0.0649
1661.00,0.0660
1660.00,0.0676
1659.00,0.0694
1658.00,0.0712
1657.00,0.0733
1656.00,0.0759
1655.00,0.0784
1654.00,0.0789
1653.00,0.0759
1652.00,0.0730
1651.00,0.0732
1650.00,0.0751
1649.00,0.0774
1648.00,0.0784
1647.00,0.0773
1646.00,0.0748
1645.00,0.0730
1644.00,0.0725
1643.00,0.0725
1642.00,0.0724
1641.00,0.0718
1640.00,0.0711
1639.00,0.0705
1638.00,0.0699
1637.00,0.0684
1636.00,0.0650
1635.00,0.0608
1634.00,0.0578
1633.00,0.0564
1632.00,0.0560
1631.00,0.0556
1630.00,0.0549
1629.00,0.0537
1628.00,0.0523
1627.00,0.0509
1626.00,0.0498
1625.00,0.0489
1624.00,0.0476
1623.00,0.0459
1622.00,0.0442
1621.00,0.0430
1620.00,0.0423
1619.00,0.0416
1618.00,0.0404
1617.00,0.0383
1616.00,0.0360
1615.00,0.0342
1614.00,0.0333
1613.00,0.0327
1612.00,0.0321
1611.00,0.0313
1610.00,0.0302
1609.00,0.0291
1608.00,0.0279
1607.00,0.0266
1606.00,0.0253
1605.00,0.0241
1604.00,0.0229
1603.00,0.0217
1602.00,0.0206
1601.00,0.0196
1600.00,0.0188
1599.00,0.0180
1598.00,0.0174
1597.00,0.0168
1596.00,0.0164
1595.00,0.0160
1594.00,0.0159
1593.00,0.0158
1592.00,0.0159
1591.00,0.0161
1590.00,0.0163
1589.00,0.0164
1588.00,0.0165
1587.00,0.0165
1586.00,0.0164
1585.00,0.0162
1584.00,0.0159
1583.00,0.0155
1582.00,0.0152
1581.00,0.0148
1580.00,0.0145
1579.00,0.0141
1578.00,0.0138
1577.00,0.0134
1576.00,0.0128
1575.00,0.0122
1574.00,0.0118
1573.00,0.0115
1572.00,0.0113
1571.00,0.0111
1570.00,0.0108
1569.00,0.0105
1568.00,0.0103
1567.00,0.0101
1566.00,0.0099
1565.00,0.0096
1564.00,0.0092
1563.00,0.0089
1562.00,0.0085
1561.00,0.0083
1560.00,0.0080
1559.00,0.0076
1558.00,0.0072
1557.00,0.0071
1556.00,0.0071
1555.00,0.0071
1554.00,0.0070
1553.00,0.0069
1552.00,0.0069
1551.00,0.0068
1550.00,0.0067
1549.00,0.0066
1548.00,0.0065
1547.00,0.0064
1546.00,0.0062
1545.00,0.0061
1544.00,0.0060
1543.00,0.0059
1542.00,0.0059
1541.00,0.0058
1540.00,0.0057
1539.00,0.0056
1538.00,0.0056
1537.00,0.0056
1536.00,0.0056
1535.00,0.0056
1534.00,0.0055
1533.00,0.0055
1532.00,0.0055
1531.00,0.0055
1530.00,0.0055
1529.00,0.0055
1528.00,0.0055
1527.00,0.0055
1526.00,0.0055
1525.00,0.0055
1524.00,0.0055
1523.00,0.0056
1522.00,0.0056
1521.00,0.0056
1520.00,0.0057
1519.00,0.0058
1518.00,0.0059
1517.00,0.0061
1516.00,0.0062
1515.00,0.0063
1514.00,0.0065
1513.00,0.0066
1512.00,0.0067
1511.00,0.0068
1510.00,0.0069
1509.00,0.0070
1508.00,0.0074
1507.00,0.0080
1506.00,0.0086
1505.00,0.0094
1504.00,0.0101
1503.00,0.0109
1502.00,0.0119
1501.00,0.0130
1500.00,0.0142
1499.00,0.0155
1498.00,0.0168
1497.00,0.0178
1496.00,0.0183
1495.00,0.0184
1494.00,0.0184
1493.00,0.0182
1492.00,0.0178
1491.00,0.0171
1490.00,0.0160
1489.00,0.0148
1488.00,0.0138
1487.00,0.0128
1486.00,0.0121
1485.00,0.0114
1484.00,0.0108
1483.00,0.0104
1482.00,0.0100
1481.00,0.0097
1480.00,0.0095
1479.00,0.0095
1478.00,0.0096
1477.00,0.0098
1476.00,0.0102
1475.00,0.0107
1474.00,0.0114
1473.00,0.0125
1472.00,0.0140
1471.00,0.0158
1470.00,0.0176
1469.00,0.0197
1468.00,0.0219
1467.00,0.0241
1466.00,0.0264
1465.00,0.0285
1464.00,0.0302
1463.00,0.0314
1462.00,0.0323
1461.00,0.0329
1460.00,0.0332
1459.00,0.0328
1458.00,0.0314
1457.00,0.0288
1456.00,0.0263
1455.00,0.0247
1454.00,0.0240
1453.00,0.0237
1452.00,0.0235
1451.00,0.0236
1450.00,0.0239
1449.00,0.0246
1448.00,0.0256
1447.00,0.0268
1446.00,0.0283
1445.00,0.0300
1444.00,0.0318
1443.00,0.0336
1442.00,0.0353
1441.00,0.0369
1440.00,0.0383
1439.00,0.0395
1438.00,0.0402
1437.00,0.0405
1436.00,0.0402
1435.00,0.0400
1434.00,0.0401
1433.00,0.0403
1432.00,0.0405
1431.00,0.0406
1430.00,0.0407
1429.00,0.0412
1428.00,0.0421
1427.00,0.0433
1426.00,0.0448
1425.00,0.0462
1424.00,0.0474
1423.00,0.0481
1422.00,0.0484
1421.00,0.0483
1420.00,0.0469
1419.00,0.0441
1418.00,0.0406
1417.00,0.0375
1416.00,0.0350
1415.00,0.0325
1414.00,0.0302
1413.00,0.0280
1412.00,0.0260
1411.00,0.0243
1410.00,0.0229
1409.00,0.0218
1408.00,0.0210
1407.00,0.0204
1406.00,0.0199
1405.00,0.0195
1404.00,0.0192
1403.00,0.0189
1402.00,0.0187
1401.00,0.0185
1400.00,0.0181
1399.00,0.0176
1398.00,0.0171
1397.00,0.0166
1396.00,0.0161
1395.00,0.0156
1394.00,0.0151
1393.00,0.0148
1392.00,0.0146
1391.00,0.0144
1390.00,0.0145
1389.00,0.0147
1388.00,0.0151
1387.00,0.0154
1386.00,0.0157
1385.00,0.0160
1384.00,0.0162
1383.00,0.0165
1382.00,0.0168
1381.00,0.0173
1380.00,0.0177
1379.00,0.0181
1378.00,0.0185
1377.00,0.0189
1376.00,0.0191
1375.00,0.0192
1374.00,0.0191
1373.00,0.0189
1372.00,0.0187
1371.00,0.0187
1370.00,0.0186
1369.00,0.0186
1368.00,0.0186
1367.00,0.0185
1366.00,0.0183
1365.00,0.0181
1364.00,0.0178
1363.00,0.0176
1362.00,0.0174
1361.00,0.0173
1360.00,0.0172
1359.00,0.0169
1358.00,0.0164
1357.00,0.0157
1356.00,0.0151
1355.00,0.0144
1354.00,0.0139
1353.00,0.0136
1352.00,0.0133
1351.00,0.0132
1350.00,0.0131
1349.00,0.0130
1348.00,0.0130
1347.00,0.0128
1346.00,0.0127
1345.00,0.0125
1344.00,0.0123
1343.00,0.0121
1342.00,0.0118
1341.00,0.0117
1340.00,0.0115
1339.00,0.0115
1338.00,0.0115
1337.00,0.0117
1336.00,0.0120
1335.00,0.0123
1334.00,0.0127
1333.00,0.0130
1332.00,0.0134
1331.00,0.0138
1330.00,0.0141
1329.00,0.0145
1328.00,0.0150
1327.00,0.0155
1326.00,0.0161
1325.00,0.0167
1324.00,0.0174
1323.00,0.0181
1322.00,0.0188
1321.00,0.0195
1320.00,0.0201
1319.00,0.0205
1318.00,0.0208
1317.00,0.0208
1316.00,0.0207
1315.00,0.0205
1314.00,0.0202
1313.00,0.0198
1312.00,0.0194
1311.00,0.0191
1310.00,0.0189
1309.00,0.0188
1308.00,0.0189
1307.00,0.0191
1306.00,0.0196
1305.00,0.0202
1304.00,0.0211
1303.00,0.0220
1302.00,0.0232
1301.00,0.0244
1300.00,0.0259
1299.00,0.0277
1298.00,0.0298
1297.00,0.0324
1296.00,0.0353
1295.00,0.0385
1294.00,0.0416
1293.00,0.0447
1292.00,0.0475
1291.00,0.0501
1290.00,0.0522
1289.00,0.0540
1288.00,0.0554
1287.00,0.0563
1286.00,0.0566
1285.00,0.0564
1284.00,0.0557
1283.00,0.0546
1282.00,0.0533
1281.00,0.0521
1280.00,0.0510
1279.00,0.0501
1278.00,0.0497
1277.00,0.0495
1276.00,0.0496
1275.00,0.0497
1274.00,0.0498
1273.00,0.0497
1272.00,0.0493
1271.00,0.0486
1270.00,0.0477
1269.00,0.0465
1268.00,0.0451
1267.00,0.0435
1266.00,0.0417
1265.00,0.0398
1264.00,0.0379
1263.00,0.0360
1262.00,0.0342
1261.00,0.0325
1260.00,0.0310
1259.00,0.0295
1258.00,0.0282
1257.00,0.0271
1256.00,0.0260
1255.00,0.0251
1254.00,0.0243
1253.00,0.0236
1252.00,0.0231
1251.00,0.0227
1250.00,0.0225
1249.00,0.0224
1248.00,0.0224
1247.00,0.0225
1246.00,0.0227
1245.00,0.0230
1244.00,0.0232
1243.00,0.0233
1242.00,0.0236
1241.00,0.0238
1240.00,0.0242
1239.00,0.0246
1238.00,0.0252
1237.00,0.0257
1236.00,0.0263
1235.00,0.0266
1234.00,0.0269
1233.00,0.0270
1232.00,0.0270
1231.00,0.0269
1230.00,0.0268
1229.00,0.0267
1228.00,0.0265
1227.00,0.0264
1226.00,0.0262
1225.00,0.0261
1224.00,0.0260
1223.00,0.0259
1222.00,0.0259
1221.00,0.0260
1220.00,0.0261
1219.00,0.0262
1218.00,0.0263
1217.00,0.0264
1216.00,0.0264
1215.00,0.0263
1214.00,0.0260
1213.00,0.0256
1212.00,0.0250
1211.00,0.0243
1210.00,0.0236
1209.00,0.0230
1208.00,0.0224
1207.00,0.0219
1206.00,0.0215
1205.00,0.0212
1204.00,0.0211
1203.00,0.0211
1202.00,0.0211
1201.00,0.0213
1200.00,0.0214
1199.00,0.0217
1198.00,0.0219
1197.00,0.0222
1196.00,0.0223
1195.00,0.0222
1194.00,0.0219
1193.00,0.0214
1192.00,0.0208
1191.00,0.0202
1190.00,0.0195
1189.00,0.0189
1188.00,0.0183
1187.00,0.0178
1186.00,0.0175
1185.00,0.0171
1184.00,0.0169
1183.00,0.0167
1182.00,0.0166
1181.00,0.0165
1180.00,0.0166
1179.00,0.0166
1178.00,0.0168
1177.00,0.0170
1176.00,0.0172
1175.00,0.0174
1174.00,0.0176
1173.00,0.0178
1172.00,0.0179
1171.00,0.0180
1170.00,0.0181
1169.00,0.0181
1168.00,0.0181
1167.00,0.0180
1166.00,0.0178
1165.00,0.0177
1164.00,0.0176
1163.00,0.0175
1162.00,0.0175
1161.00,0.0175
1160.00,0.0177
1159.00,0.0179
1158.00,0.0183
1157.00,0.0186
1156.00,0.0189
1155.00,0.0190
1154.00,0.0188
1153.00,0.0183
1152.00,0.0175
1151.00,0.0166
1150.00,0.0158
1149.00,0.0150
1148.00,0.0144
1147.00,0.0139
1146.00,0.0136
1145.00,0.0133
1144.00,0.0130
1143.00,0.0128
1142.00,0.0126
1141.00,0.0124
1140.00,0.0123
1139.00,0.0123
1138.00,0.0124
1137.00,0.0126
1136.00,0.0129
1135.00,0.0134
1134.00,0.0141
1133.00,0.0150
1132.00,0.0159
1131.00,0.0167
1130.00,0.0173
1129.00,0.0176
1128.00,0.0175
1127.00,0.0171
1126.00,0.0166
1125.00,0.0161
1124.00,0.0155
1123.00,0.0149
1122.00,0.0143
1121.00,0.0138
1120.00,0.0135
1119.00,0.0133
1118.00,0.0133
1117.00,0.0133
1116.00,0.0133
1115.00,0.0133
1114.00,0.0132
1113.00,0.0131
1112.00,0.0130
1111.00,0.0129
1110.00,0.0128
1109.00,0.0127
1108.00,0.0127
1107.00,0.0128
1106.00,0.0130
1105.00,0.0133
1104.00,0.0137
1103.00,0.0142
1102.00,0.0147
1101.00,0.0152
1100.00,0.0154
1099.00,0.0154
1098.00,0.0152
1097.00,0.0148
1096.00,0.0142
1095.00,0.0137
1094.00,0.0132
1093.00,0.0128
1092.00,0.0125
1091.00,0.0122
1090.00,0.0121
1089.00,0.0119
1088.00,0.0118
1087.00,0.0118
1086.00,0.0117
1085.00,0.0117
1084.00,0.0117
1083.00,0.0116
1082.00,0.0117
1081.00,0.0117
1080.00,0.0118
1079.00,0.0119
1078.00,0.0120
1077.00,0.0122
1076.00,0.0123
1075.00,0.0125
1074.00,0.0126
1073.00,0.0127
1072.00,0.0128
1071.00,0.0128
1070.00,0.0128
1069.00,0.0129
1068.00,0.0130
1067.00,0.0132
1066.00,0.0134
1065.00,0.0136
1064.00,0.0140
1063.00,0.0144
1062.00,0.0148
1061.00,0.0154
1060.00,0.0160
1059.00,0.0167
1058.00,0.0174
1057.00,0.0181
1056.00,0.0187
1055.00,0.0192
1054.00,0.0195
1053.00,0.0198
1052.00,0.0201
1051.00,0.0203
1050.00,0.0204
1049.00,0.0203
1048.00,0.0199
1047.00,0.0192
1046.00,0.0184
1045.00,0.0176
1044.00,0.0169
1043.00,0.0162
1042.00,0.0156
1041.00,0.0152
1040.00,0.0150
1039.00,0.0150
1038.00,0.0151
1037.00,0.0152
1036.00,0.0153
1035.00,0.0154
1034.00,0.0155
1033.00,0.0156
1032.00,0.0160
1031.00,0.0166
1030.00,0.0174
1029.00,0.0183
1028.00,0.0193
1027.00,0.0200
1026.00,0.0203
1025.00,0.0202
1024.00,0.0198
1023.00,0.0193
1022.00,0.0187
1021.00,0.0183
1020.00,0.0178
1019.00,0.0174
1018.00,0.0169
1017.00,0.0165
1016.00,0.0159
1015.00,0.0154
1014.00,0.0149
1013.00,0.0145
1012.00,0.0142
1011.00,0.0140
1010.00,0.0141
1009.00,0.0143
1008.00,0.0147
1007.00,0.0152
1006.00,0.0156
1005.00,0.0160
1004.00,0.0162
1003.00,0.0163
1002.00,0.0161
1001.00,0.0159
1000.00,0.0155
999.00,0.0151
998.00,0.0146
997.00,0.0143
996.00,0.0139
995.00,0.0136
994.00,0.0133
993.00,0.0130
992.00,0.0127
991.00,0.0123
990.00,0.0119
989.00,0.0116
988.00,0.0113
987.00,0.0110
986.00,0.0108
985.00,0.0106
984.00,0.0105
983.00,0.0104
982.00,0.0102
981.00,0.0101
980.00,0.0100
979.00,0.0099
978.00,0.0098
977.00,0.0098
976.00,0.0098
975.00,0.0097
974.00,0.0096
973.00,0.0095
972.00,0.0094
971.00,0.0093
970.00,0.0093
969.00,0.0093
968.00,0.0093
967.00,0.0093
966.00,0.0094
965.00,0.0095
964.00,0.0095
963.00,0.0096
962.00,0.0096
961.00,0.0096
960.00,0.0095
959.00,0.0093
958.00,0.0091
957.00,0.0089
956.00,0.0087
955.00,0.0084
954.00,0.0082
953.00,0.0080
952.00,0.0078
951.00,0.0077
950.00,0.0077
949.00,0.0077
948.00,0.0078
947.00,0.0077
946.00,0.0078
945.00,0.0079
944.00,0.0080
943.00,0.0083
942.00,0.0086
941.00,0.0090
940.00,0.0094
939.00,0.0098
938.00,0.0102
937.00,0.0106
936.00,0.0110
935.00,0.0114
934.00,0.0116
933.00,0.0117
932.00,0.0116
931.00,0.0115
930.00,0.0113
929.00,0.0111
928.00,0.0109
927.00,0.0109
926.00,0.0109
925.00,0.0109
924.00,0.0110
923.00,0.0109
922.00,0.0108
921.00,0.0105
920.00,0.0102
919.00,0.0100
918.00,0.0098
917.00,0.0096
916.00,0.0094
915.00,0.0093
914.00,0.0092
913.00,0.0092
912.00,0.0092
911.00,0.0092
910.00,0.0093
909.00,0.0093
908.00,0.0094
907.00,0.0096
906.00,0.0099
905.00,0.0103
904.00,0.0107
903.00,0.0112
902.00,0.0117
901.00,0.0120
900.00,0.0122
899.00,0.0122
898.00,0.0121
897.00,0.0119
896.00,0.0117
895.00,0.0115
894.00,0.0113
893.00,0.0113
892.00,0.0114
891.00,0.0116
890.00,0.0117
889.00,0.0116
888.00,0.0113
887.00,0.0108
886.00,0.0104
885.00,0.0101
884.00,0.0100
883.00,0.0099
882.00,0.0099
881.00,0.0099
880.00,0.0101
879.00,0.0103
878.00,0.0107
877.00,0.0112
876.00,0.0118
875.00,0.0125
874.00,0.0133
873.00,0.0142
872.00,0.0149
871.00,0.0153
870.00,0.0153
869.00,0.0151
868.00,0.0146
867.00,0.0142
866.00,0.0138
865.00,0.0136
864.00,0.0134
863.00,0.0132
862.00,0.0131
861.00,0.0131
860.00,0.0132
859.00,0.0135
858.00,0.0140
857.00,0.0146
856.00,0.0153
855.00,0.0160
854.00,0.0166
853.00,0.0173
852.00,0.0181
851.00,0.0190
850.00,0.0198
849.00,0.0202
848.00,0.0203
847.00,0.0200
846.00,0.0196
845.00,0.0193
844.00,0.0190
843.00,0.0188
842.00,0.0187
841.00,0.0186
840.00,0.0187
839.00,0.0188
838.00,0.0192
837.00,0.0196
836.00,0.0199
835.00,0.0200
834.00,0.0199
833.00,0.0195
832.00,0.0189
831.00,0.0181
830.00,0.0173
829.00,0.0165
828.00,0.0158
827.00,0.0154
826.00,0.0151
825.00,0.0150
824.00,0.0152
823.00,0.0157
822.00,0.0166
821.00,0.0176
820.00,0.0185
819.00,0.0194
818.00,0.0202
817.00,0.0207
816.00,0.0206
815.00,0.0196
814.00,0.0179
813.00,0.0161
812.00,0.0147
811.00,0.0137
810.00,0.0131
809.00,0.0128
808.00,0.0126
807.00,0.0126
806.00,0.0125
805.00,0.0124
804.00,0.0124
803.00,0.0124
802.00,0.0123
801.00,0.0123
800.00,0.0123
799.00,0.0124
798.00,0.0124
797.00,0.0125
796.00,0.0126
795.00,0.0126
794.00,0.0127
793.00,0.0127
792.00,0.0127
791.00,0.0128
790.00,0.0128
789.00,0.0129
788.00,0.0131
787.00,0.0132
786.00,0.0133
785.00,0.0134
784.00,0.0135
783.00,0.0136
782.00,0.0137
781.00,0.0139
780.00,0.0141
779.00,0.0144
778.00,0.0147
777.00,0.0150
776.00,0.0154
775.00,0.0157
774.00,0.0159
773.00,0.0159
772.00,0.0159
771.00,0.0158
770.00,0.0158
769.00,0.0159
768.00,0.0161
767.00,0.0163
766.00,0.0165
765.00,0.0169
764.00,0.0173
763.00,0.0177
762.00,0.0181
761.00,0.0185
760.00,0.0188
759.00,0.0190
758.00,0.0192
757.00,0.0194
756.00,0.0197
755.00,0.0199
754.00,0.0202
753.00,0.0204
752.00,0.0207
751.00,0.0210
750.00,0.0213
749.00,0.0217
748.00,0.0220
747.00,0.0223
746.00,0.0227
745.00,0.0230
744.00,0.0234
743.00,0.0239
742.00,0.0244
741.00,0.0250
740.00,0.0257
739.00,0.0264
738.00,0.0272
737.00,0.0280
736.00,0.0287
735.00,0.0290
734.00,0.0290
733.00,0.0289
732.00,0.0289
731.00,0.0291
730.00,0.0293
729.00,0.0294
728.00,0.0291
727.00,0.0284
726.00,0.0276
725.00,0.0268
724.00,0.0261
723.00,0.0255
722.00,0.0251
721.00,0.0249
720.00,0.0249
719.00,0.0251
718.00,0.0253
717.00,0.0255
716.00,0.0257
715.00,0.0258
714.00,0.0258
713.00,0.0256
712.00,0.0255
711.00,0.0253
710.00,0.0252
709.00,0.0251
708.00,0.0251
707.00,0.0252
706.00,0.0253
705.00,0.0255
704.00,0.0257
703.00,0.0259
702.00,0.0262
701.00,0.0264
700.00,0.0266
699.00,0.0268
698.00,0.0269
697.00,0.0269
696.00,0.0268
695.00,0.0268
694.00,0.0269
693.00,0.0271
692.00,0.0275
691.00,0.0280
690.00,0.0285
689.00,0.0289
688.00,0.0292
687.00,0.0293
686.00,0.0293
685.00,0.0294
684.00,0.0296
683.00,0.0298
682.00,0.0301
681.00,0.0304
680.00,0.0307
679.00,0.0310
678.00,0.0314
677.00,0.0318
676.00,0.0323
675.00,0.0328
674.00,0.0333
673.00,0.0338
672.00,0.0342
671.00,0.0347
670.00,0.0351
669.00,0.0354
668.00,0.0356
667.00,0.0356
666.00,0.0358
665.00,0.0362
664.00,0.0368
663.00,0.0375
662.00,0.0380
661.00,0.0386
660.00,0.0390
659.00,0.0393
658.00,0.0397
657.00,0.0400
656.00,0.0405
655.00,0.0410
654.00,0.0415
653.00,0.0420
652.00,0.0425
651.00,0.0430
650.00,0.0433
649.00,0.0435
648.00,0.0436
647.00,0.0438
646.00,0.0438
645.00,0.0438
644.00,0.0438
643.00,0.0436
642.00,0.0433
641.00,0.0429
640.00,0.0426
639.00,0.0423
638.00,0.0420
637.00,0.0417
636.00,0.0414
635.00,0.0412
634.00,0.0410
633.00,0.0408
632.00,0.0407
631.00,0.0406
630.00,0.0405
629.00,0.0404
628.00,0.0403
627.00,0.0403
626.00,0.0403
625.00,0.0403
624.00,0.0405
623.00,0.0407
622.00,0.0410
621.00,0.0412
620.00,0.0413
619.00,0.0411
618.00,0.0409
617.00,0.0406
616.00,0.0403
615.00,0.0400
614.00,0.0398
613.00,0.0396
612.00,0.0396
611.00,0.0395
610.00,0.0397
609.00,0.0400
608.00,0.0405
607.00,0.0411
606.00,0.0416
605.00,0.0421
604.00,0.0425
603.00,0.0429
602.00,0.0432
601.00,0.0436
600.00,0.0440
599.00,0.0444
598.00,0.0446
597.00,0.0446
596.00,0.0447
595.00,0.0446
594.00,0.0446
593.00,0.0446
592.00,0.0447
591.00,0.0449
590.00,0.0450
589.00,0.0451
588.00,0.0454
587.00,0.0457
586.00,0.0461
585.00,0.0465
584.00,0.0469
583.00,0.0474
582.00,0.0480
581.00,0.0487
580.00,0.0496
579.00,0.0507
578.00,0.0517
577.00,0.0526
576.00,0.0531
575.00,0.0531
574.00,0.0526
573.00,0.0521
572.00,0.0518
571.00,0.0515
570.00,0.0512
569.00,0.0510
568.00,0.0509
567.00,0.0509
566.00,0.0509
565.00,0.0511
564.00,0.0512
563.00,0.0514
562.00,0.0516
561.00,0.0518
560.00,0.0518
559.00,0.0515
558.00,0.0510
557.00,0.0505
556.00,0.0500
555.00,0.0496
554.00,0.0493
553.00,0.0491
552.00,0.0491
551.00,0.0493
550.00,0.0496
549.00,0.0499
548.00,0.0502
547.00,0.0503
546.00,0.0502
545.00,0.0499
544.00,0.0496
543.00,0.0493
542.00,0.0490
541.00,0.0487
540.00,0.0484
539.00,0.0483
538.00,0.0483
537.00,0.0484
536.00,0.0485
535.00,0.0486
534.00,0.0489
533.00,0.0493
532.00,0.0496
531.00,0.0496
530.00,0.0493
529.00,0.0490
528.00,0.0487
527.00,0.0484
526.00,0.0480
525.00,0.0477
524.00,0.0475
523.00,0.0475
522.00,0.0475
521.00,0.0473
520.00,0.0470
519.00,0.0467
518.00,0.0465
517.00,0.0464
516.00,0.0464
515.00,0.0464
514.00,0.0464
513.00,0.0466
512.00,0.0467
511.00,0.0468
510.00,0.0468
509.00,0.0467
508.00,0.0466
507.00,0.0466
506.00,0.0466
505.00,0.0467
504.00,0.0467
503.00,0.0467
502.00,0.0467
501.00,0.0469
500.00,0.0471
499.00,0.0473
498.00,0.0475
497.00,0.0474
496.00,0.0474
495.00,0.0473
494.00,0.0472
493.00,0.0473
492.00,0.0474
491.00,0.0474
490.00,0.0475
489.00,0.0476
488.00,0.0477
487.00,0.0477
486.00,0.0475
485.00,0.0472
484.00,0.0471
483.00,0.0471
482.00,0.0472
481.00,0.0475
480.00,0.0477
479.00,0.0479
478.00,0.0481
477.00,0.0482
476.00,0.0482
475.00,0.0481
474.00,0.0477
473.00,0.0474
472.00,0.0473
471.00,0.0474
470.00,0.0476
469.00,0.0479
468.00,0.0482
467.00,0.0484
466.00,0.0485
465.00,0.0485
464.00,0.0485
463.00,0.0483
462.00,0.0479
461.00,0.0475
460.00,0.0474
459.00,0.0474
458.00,0.0472
457.00,0.0470
456.00,0.0466
455.00,0.0461
454.00,0.0457
453.00,0.0457
452.00,0.0459
451.00,0.0463
450.00,0.0464
449.00,0.0462
448.00,0.0459
447.00,0.0457
446.00,0.0455
445.00,0.0453
444.00,0.0450
443.00,0.0445
442.00,0.0439
441.00,0.0437
440.00,0.0437
439.00,0.0439
438.00,0.0440
437.00,0.0440
436.00,0.0437
435.00,0.0433
434.00,0.0428
433.00,0.0426
432.00,0.0428
431.00,0.0430
430.00,0.0427
429.00,0.0423
428.00,0.0419
427.00,0.0418
426.00,0.0417
425.00,0.0416
424.00,0.0413
423.00,0.0410
422.00,0.0407
421.00,0.0403
420.00,0.0396
419.00,0.0386
418.00,0.0379
417.00,0.0381
416.00,0.0390
415.00,0.0398
414.00,0.0402
413.00,0.0404
412.00,0.0405
411.00,0.0409
410.00,0.0413
409.00,0.0416
408.00,0.0415
407.00,0.0411
406.00,0.0405
405.00,0.0403
404.00,0.0405
403.00,0.0406
402.00,0.0405
401.00,0.0403
400.00,0.0402
