Created as New Dataset,Sample 778 By YargerLab Date Monday, July 07 2025
cm-1,A
4000.00,0.0064
3999.00,0.0064
3998.00,0.0064
3997.00,0.0064
3996.00,0.0064
3995.00,0.0064
3994.00,0.0064
3993.00,0.0064
3992.00,0.0064
3991.00,0.0064
3990.00,0.0064
3989.00,0.0064
3988.00,0.0064
3987.00,0.0064
3986.00,0.0064
3985.00,0.0064
3984.00,0.0064
3983.00,0.0064
3982.00,0.0064
3981.00,0.0064
3980.00,0.0065
3979.00,0.0065
3978.00,0.0064
3977.00,0.0064
3976.00,0.0064
3975.00,0.0064
3974.00,0.0065
3973.00,0.0065
3972.00,0.0065
3971.00,0.0065
3970.00,0.0065
3969.00,0.0065
3968.00,0.0065
3967.00,0.0065
3966.00,0.0065
3965.00,0.0066
3964.00,0.0066
3963.00,0.0066
3962.00,0.0066
3961.00,0.0067
3960.00,0.0067
3959.00,0.0066
3958.00,0.0066
3957.00,0.0066
3956.00,0.0066
3955.00,0.0066
3954.00,0.0066
3953.00,0.0066
3952.00,0.0066
3951.00,0.0066
3950.00,0.0066
3949.00,0.0066
3948.00,0.0066
3947.00,0.0066
3946.00,0.0066
3945.00,0.0066
3944.00,0.0066
3943.00,0.0066
3942.00,0.0066
3941.00,0.0066
3940.00,0.0066
3939.00,0.0066
3938.00,0.0066
3937.00,0.0066
3936.00,0.0066
3935.00,0.0067
3934.00,0.0067
3933.00,0.0067
3932.00,0.0067
3931.00,0.0067
3930.00,0.0067
3929.00,0.0067
3928.00,0.0067
3927.00,0.0067
3926.00,0.0067
3925.00,0.0067
3924.00,0.0067
3923.00,0.0067
3922.00,0.0068
3921.00,0.0068
3920.00,0.0068
3919.00,0.0068
3918.00,0.0068
3917.00,0.0068
3916.00,0.0068
3915.00,0.0067
3914.00,0.0067
3913.00,0.0066
3912.00,0.0066
3911.00,0.0065
3910.00,0.0065
3909.00,0.0065
3908.00,0.0066
3907.00,0.0067
3906.00,0.0068
3905.00,0.0068
3904.00,0.0068
3903.00,0.0069
3902.00,0.0068
3901.00,0.0068
3900.00,0.0068
3899.00,0.0067
3898.00,0.0066
3897.00,0.0065
3896.00,0.0064
3895.00,0.0064
3894.00,0.0064
3893.00,0.0064
3892.00,0.0065
3891.00,0.0065
3890.00,0.0065
3889.00,0.0066
3888.00,0.0066
3887.00,0.0066
3886.00,0.0066
3885.00,0.0066
3884.00,0.0066
3883.00,0.0066
3882.00,0.0066
3881.00,0.0066
3880.00,0.0065
3879.00,0.0065
3878.00,0.0065
3877.00,0.0065
3876.00,0.0065
3875.00,0.0065
3874.00,0.0065
3873.00,0.0065
3872.00,0.0066
3871.00,0.0066
3870.00,0.0067
3869.00,0.0067
3868.00,0.0067
3867.00,0.0067
3866.00,0.0067
3865.00,0.0067
3864.00,0.0066
3863.00,0.0065
3862.00,0.0065
3861.00,0.0064
3860.00,0.0064
3859.00,0.0065
3858.00,0.0065
3857.00,0.0066
3856.00,0.0068
3855.00,0.0069
3854.00,0.0070
3853.00,0.0070
3852.00,0.0070
3851.00,0.0069
3850.00,0.0068
3849.00,0.0067
3848.00,0.0065
3847.00,0.0064
3846.00,0.0064
3845.00,0.0064
3844.00,0.0064
3843.00,0.0064
3842.00,0.0065
3841.00,0.0065
3840.00,0.0066
3839.00,0.0066
3838.00,0.0066
3837.00,0.0066
3836.00,0.0066
3835.00,0.0066
3834.00,0.0066
3833.00,0.0065
3832.00,0.0064
3831.00,0.0063
3830.00,0.0062
3829.00,0.0062
3828.00,0.0062
3827.00,0.0062
3826.00,0.0063
3825.00,0.0063
3824.00,0.0063
3823.00,0.0064
3822.00,0.0064
3821.00,0.0064
3820.00,0.0064
3819.00,0.0065
3818.00,0.0065
3817.00,0.0064
3816.00,0.0064
3815.00,0.0063
3814.00,0.0063
3813.00,0.0063
3812.00,0.0063
3811.00,0.0064
3810.00,0.0064
3809.00,0.0064
3808.00,0.0064
3807.00,0.0064
3806.00,0.0064
3805.00,0.0064
3804.00,0.0064
3803.00,0.0064
3802.00,0.0064
3801.00,0.0064
3800.00,0.0064
3799.00,0.0064
3798.00,0.0064
3797.00,0.0063
3796.00,0.0062
3795.00,0.0062
3794.00,0.0062
3793.00,0.0062
3792.00,0.0062
3791.00,0.0061
3790.00,0.0061
3789.00,0.0061
3788.00,0.0061
3787.00,0.0061
3786.00,0.0061
3785.00,0.0061
3784.00,0.0061
3783.00,0.0061
3782.00,0.0061
3781.00,0.0061
3780.00,0.0061
3779.00,0.0061
3778.00,0.0061
3777.00,0.0061
3776.00,0.0061
3775.00,0.0062
3774.00,0.0062
3773.00,0.0063
3772.00,0.0064
3771.00,0.0064
3770.00,0.0063
3769.00,0.0062
3768.00,0.0062
3767.00,0.0062
3766.00,0.0062
3765.00,0.0062
3764.00,0.0062
3763.00,0.0062
3762.00,0.0063
3761.00,0.0063
3760.00,0.0063
3759.00,0.0062
3758.00,0.0062
3757.00,0.0062
3756.00,0.0063
3755.00,0.0064
3754.00,0.0065
3753.00,0.0066
3752.00,0.0067
3751.00,0.0067
3750.00,0.0067
3749.00,0.0068
3748.00,0.0068
3747.00,0.0068
3746.00,0.0067
3745.00,0.0066
3744.00,0.0065
3743.00,0.0065
3742.00,0.0065
3741.00,0.0064
3740.00,0.0064
3739.00,0.0063
3738.00,0.0063
3737.00,0.0063
3736.00,0.0064
3735.00,0.0064
3734.00,0.0063
3733.00,0.0063
3732.00,0.0063
3731.00,0.0063
3730.00,0.0063
3729.00,0.0063
3728.00,0.0063
3727.00,0.0062
3726.00,0.0061
3725.00,0.0061
3724.00,0.0060
3723.00,0.0060
3722.00,0.0059
3721.00,0.0058
3720.00,0.0058
3719.00,0.0058
3718.00,0.0058
3717.00,0.0058
3716.00,0.0058
3715.00,0.0059
3714.00,0.0059
3713.00,0.0060
3712.00,0.0060
3711.00,0.0060
3710.00,0.0060
3709.00,0.0059
3708.00,0.0059
3707.00,0.0059
3706.00,0.0058
3705.00,0.0058
3704.00,0.0058
3703.00,0.0058
3702.00,0.0057
3701.00,0.0057
3700.00,0.0057
3699.00,0.0057
3698.00,0.0057
3697.00,0.0057
3696.00,0.0057
3695.00,0.0057
3694.00,0.0057
3693.00,0.0058
3692.00,0.0059
3691.00,0.0060
3690.00,0.0060
3689.00,0.0060
3688.00,0.0059
3687.00,0.0059
3686.00,0.0059
3685.00,0.0059
3684.00,0.0058
3683.00,0.0058
3682.00,0.0058
3681.00,0.0058
3680.00,0.0058
3679.00,0.0058
3678.00,0.0059
3677.00,0.0059
3676.00,0.0059
3675.00,0.0059
3674.00,0.0060
3673.00,0.0061
3672.00,0.0061
3671.00,0.0061
3670.00,0.0060
3669.00,0.0059
3668.00,0.0059
3667.00,0.0058
3666.00,0.0057
3665.00,0.0057
3664.00,0.0056
3663.00,0.0055
3662.00,0.0055
3661.00,0.0056
3660.00,0.0056
3659.00,0.0057
3658.00,0.0057
3657.00,0.0057
3656.00,0.0058
3655.00,0.0058
3654.00,0.0059
3653.00,0.0060
3652.00,0.0060
3651.00,0.0061
3650.00,0.0060
3649.00,0.0060
3648.00,0.0060
3647.00,0.0060
3646.00,0.0059
3645.00,0.0058
3644.00,0.0057
3643.00,0.0055
3642.00,0.0055
3641.00,0.0055
3640.00,0.0055
3639.00,0.0055
3638.00,0.0056
3637.00,0.0056
3636.00,0.0056
3635.00,0.0056
3634.00,0.0056
3633.00,0.0057
3632.00,0.0058
3631.00,0.0059
3630.00,0.0060
3629.00,0.0060
3628.00,0.0059
3627.00,0.0059
3626.00,0.0059
3625.00,0.0058
3624.00,0.0058
3623.00,0.0057
3622.00,0.0058
3621.00,0.0058
3620.00,0.0058
3619.00,0.0058
3618.00,0.0058
3617.00,0.0058
3616.00,0.0059
3615.00,0.0059
3614.00,0.0059
3613.00,0.0060
3612.00,0.0060
3611.00,0.0060
3610.00,0.0060
3609.00,0.0060
3608.00,0.0060
3607.00,0.0059
3606.00,0.0059
3605.00,0.0058
3604.00,0.0057
3603.00,0.0056
3602.00,0.0056
3601.00,0.0056
3600.00,0.0057
3599.00,0.0057
3598.00,0.0058
3597.00,0.0058
3596.00,0.0059
3595.00,0.0059
3594.00,0.0059
3593.00,0.0060
3592.00,0.0060
3591.00,0.0061
3590.00,0.0061
3589.00,0.0061
3588.00,0.0061
3587.00,0.0061
3586.00,0.0062
3585.00,0.0062
3584.00,0.0062
3583.00,0.0062
3582.00,0.0062
3581.00,0.0062
3580.00,0.0062
3579.00,0.0062
3578.00,0.0063
3577.00,0.0063
3576.00,0.0064
3575.00,0.0064
3574.00,0.0065
3573.00,0.0065
3572.00,0.0066
3571.00,0.0067
3570.00,0.0068
3569.00,0.0070
3568.00,0.0071
3567.00,0.0071
3566.00,0.0072
3565.00,0.0072
3564.00,0.0072
3563.00,0.0073
3562.00,0.0074
3561.00,0.0075
3560.00,0.0076
3559.00,0.0078
3558.00,0.0079
3557.00,0.0080
3556.00,0.0081
3555.00,0.0083
3554.00,0.0085
3553.00,0.0087
3552.00,0.0089
3551.00,0.0092
3550.00,0.0094
3549.00,0.0097
3548.00,0.0099
3547.00,0.0103
3546.00,0.0106
3545.00,0.0110
3544.00,0.0115
3543.00,0.0120
3542.00,0.0125
3541.00,0.0131
3540.00,0.0137
3539.00,0.0143
3538.00,0.0151
3537.00,0.0160
3536.00,0.0170
3535.00,0.0182
3534.00,0.0195
3533.00,0.0211
3532.00,0.0230
3531.00,0.0253
3530.00,0.0279
3529.00,0.0309
3528.00,0.0343
3527.00,0.0378
3526.00,0.0415
3525.00,0.0450
3524.00,0.0483
3523.00,0.0511
3522.00,0.0532
3521.00,0.0546
3520.00,0.0552
3519.00,0.0550
3518.00,0.0541
3517.00,0.0526
3516.00,0.0507
3515.00,0.0485
3514.00,0.0461
3513.00,0.0436
3512.00,0.0411
3511.00,0.0387
3510.00,0.0366
3509.00,0.0347
3508.00,0.0330
3507.00,0.0315
3506.00,0.0302
3505.00,0.0290
3504.00,0.0281
3503.00,0.0274
3502.00,0.0268
3501.00,0.0263
3500.00,0.0260
3499.00,0.0257
3498.00,0.0255
3497.00,0.0253
3496.00,0.0252
3495.00,0.0252
3494.00,0.0252
3493.00,0.0253
3492.00,0.0254
3491.00,0.0255
3490.00,0.0257
3489.00,0.0259
3488.00,0.0261
3487.00,0.0264
3486.00,0.0266
3485.00,0.0269
3484.00,0.0272
3483.00,0.0275
3482.00,0.0279
3481.00,0.0283
3480.00,0.0287
3479.00,0.0291
3478.00,0.0295
3477.00,0.0300
3476.00,0.0305
3475.00,0.0310
3474.00,0.0316
3473.00,0.0323
3472.00,0.0329
3471.00,0.0335
3470.00,0.0342
3469.00,0.0349
3468.00,0.0356
3467.00,0.0363
3466.00,0.0370
3465.00,0.0377
3464.00,0.0385
3463.00,0.0392
3462.00,0.0400
3461.00,0.0408
3460.00,0.0416
3459.00,0.0423
3458.00,0.0431
3457.00,0.0438
3456.00,0.0446
3455.00,0.0453
3454.00,0.0461
3453.00,0.0468
3452.00,0.0475
3451.00,0.0482
3450.00,0.0490
3449.00,0.0497
3448.00,0.0505
3447.00,0.0513
3446.00,0.0520
3445.00,0.0528
3444.00,0.0535
3443.00,0.0541
3442.00,0.0549
3441.00,0.0556
3440.00,0.0563
3439.00,0.0570
3438.00,0.0578
3437.00,0.0585
3436.00,0.0591
3435.00,0.0598
3434.00,0.0604
3433.00,0.0610
3432.00,0.0616
3431.00,0.0623
3430.00,0.0629
3429.00,0.0635
3428.00,0.0641
3427.00,0.0647
3426.00,0.0654
3425.00,0.0661
3424.00,0.0669
3423.00,0.0678
3422.00,0.0687
3421.00,0.0698
3420.00,0.0709
3419.00,0.0721
3418.00,0.0733
3417.00,0.0745
3416.00,0.0757
3415.00,0.0769
3414.00,0.0781
3413.00,0.0792
3412.00,0.0802
3411.00,0.0811
3410.00,0.0818
3409.00,0.0822
3408.00,0.0824
3407.00,0.0823
3406.00,0.0819
3405.00,0.0813
3404.00,0.0804
3403.00,0.0792
3402.00,0.0777
3401.00,0.0759
3400.00,0.0738
3399.00,0.0716
3398.00,0.0693
3397.00,0.0669
3396.00,0.0645
3395.00,0.0621
3394.00,0.0598
3393.00,0.0575
3392.00,0.0554
3391.00,0.0534
3390.00,0.0515
3389.00,0.0497
3388.00,0.0480
3387.00,0.0463
3386.00,0.0448
3385.00,0.0434
3384.00,0.0421
3383.00,0.0409
3382.00,0.0398
3381.00,0.0388
3380.00,0.0378
3379.00,0.0369
3378.00,0.0360
3377.00,0.0351
3376.00,0.0342
3375.00,0.0334
3374.00,0.0326
3373.00,0.0319
3372.00,0.0312
3371.00,0.0305
3370.00,0.0299
3369.00,0.0293
3368.00,0.0288
3367.00,0.0282
3366.00,0.0276
3365.00,0.0270
3364.00,0.0265
3363.00,0.0259
3362.00,0.0254
3361.00,0.0249
3360.00,0.0244
3359.00,0.0239
3358.00,0.0235
3357.00,0.0231
3356.00,0.0227
3355.00,0.0223
3354.00,0.0219
3353.00,0.0215
3352.00,0.0211
3351.00,0.0208
3350.00,0.0205
3349.00,0.0202
3348.00,0.0199
3347.00,0.0196
3346.00,0.0193
3345.00,0.0190
3344.00,0.0188
3343.00,0.0185
3342.00,0.0183
3341.00,0.0181
3340.00,0.0178
3339.00,0.0176
3338.00,0.0173
3337.00,0.0171
3336.00,0.0169
3335.00,0.0167
3334.00,0.0165
3333.00,0.0163
3332.00,0.0161
3331.00,0.0159
3330.00,0.0157
3329.00,0.0156
3328.00,0.0154
3327.00,0.0152
3326.00,0.0151
3325.00,0.0150
3324.00,0.0148
3323.00,0.0147
3322.00,0.0145
3321.00,0.0143
3320.00,0.0141
3319.00,0.0140
3318.00,0.0139
3317.00,0.0138
3316.00,0.0137
3315.00,0.0136
3314.00,0.0135
3313.00,0.0134
3312.00,0.0133
3311.00,0.0133
3310.00,0.0132
3309.00,0.0131
3308.00,0.0130
3307.00,0.0128
3306.00,0.0127
3305.00,0.0125
3304.00,0.0124
3303.00,0.0123
3302.00,0.0122
3301.00,0.0120
3300.00,0.0119
3299.00,0.0118
3298.00,0.0117
3297.00,0.0116
3296.00,0.0115
3295.00,0.0113
3294.00,0.0113
3293.00,0.0112
3292.00,0.0112
3291.00,0.0112
3290.00,0.0111
3289.00,0.0110
3288.00,0.0109
3287.00,0.0109
3286.00,0.0108
3285.00,0.0108
3284.00,0.0107
3283.00,0.0106
3282.00,0.0105
3281.00,0.0104
3280.00,0.0103
3279.00,0.0102
3278.00,0.0101
3277.00,0.0101
3276.00,0.0100
3275.00,0.0099
3274.00,0.0099
3273.00,0.0098
3272.00,0.0098
3271.00,0.0098
3270.00,0.0097
3269.00,0.0097
3268.00,0.0098
3267.00,0.0098
3266.00,0.0098
3265.00,0.0098
3264.00,0.0098
3263.00,0.0098
3262.00,0.0097
3261.00,0.0097
3260.00,0.0096
3259.00,0.0096
3258.00,0.0095
3257.00,0.0095
3256.00,0.0094
3255.00,0.0094
3254.00,0.0094
3253.00,0.0094
3252.00,0.0095
3251.00,0.0094
3250.00,0.0094
3249.00,0.0093
3248.00,0.0093
3247.00,0.0092
3246.00,0.0092
3245.00,0.0092
3244.00,0.0092
3243.00,0.0092
3242.00,0.0092
3241.00,0.0091
3240.00,0.0091
3239.00,0.0090
3238.00,0.0089
3237.00,0.0089
3236.00,0.0088
3235.00,0.0087
3234.00,0.0086
3233.00,0.0086
3232.00,0.0086
3231.00,0.0086
3230.00,0.0087
3229.00,0.0087
3228.00,0.0087
3227.00,0.0087
3226.00,0.0086
3225.00,0.0085
3224.00,0.0085
3223.00,0.0084
3222.00,0.0084
3221.00,0.0084
3220.00,0.0084
3219.00,0.0084
3218.00,0.0084
3217.00,0.0084
3216.00,0.0084
3215.00,0.0084
3214.00,0.0084
3213.00,0.0084
3212.00,0.0083
3211.00,0.0083
3210.00,0.0082
3209.00,0.0082
3208.00,0.0082
3207.00,0.0083
3206.00,0.0083
3205.00,0.0083
3204.00,0.0083
3203.00,0.0083
3202.00,0.0083
3201.00,0.0083
3200.00,0.0083
3199.00,0.0083
3198.00,0.0083
3197.00,0.0082
3196.00,0.0082
3195.00,0.0081
3194.00,0.0081
3193.00,0.0080
3192.00,0.0080
3191.00,0.0080
3190.00,0.0080
3189.00,0.0080
3188.00,0.0080
3187.00,0.0080
3186.00,0.0080
3185.00,0.0081
3184.00,0.0081
3183.00,0.0081
3182.00,0.0080
3181.00,0.0080
3180.00,0.0081
3179.00,0.0081
3178.00,0.0082
3177.00,0.0082
3176.00,0.0082
3175.00,0.0082
3174.00,0.0083
3173.00,0.0083
3172.00,0.0083
3171.00,0.0083
3170.00,0.0083
3169.00,0.0084
3168.00,0.0084
3167.00,0.0085
3166.00,0.0085
3165.00,0.0085
3164.00,0.0084
3163.00,0.0084
3162.00,0.0084
3161.00,0.0084
3160.00,0.0084
3159.00,0.0083
3158.00,0.0083
3157.00,0.0082
3156.00,0.0082
3155.00,0.0081
3154.00,0.0080
3153.00,0.0079
3152.00,0.0079
3151.00,0.0079
3150.00,0.0079
3149.00,0.0079
3148.00,0.0079
3147.00,0.0079
3146.00,0.0079
3145.00,0.0078
3144.00,0.0077
3143.00,0.0076
3142.00,0.0075
3141.00,0.0075
3140.00,0.0076
3139.00,0.0077
3138.00,0.0078
3137.00,0.0078
3136.00,0.0078
3135.00,0.0078
3134.00,0.0078
3133.00,0.0078
3132.00,0.0078
3131.00,0.0078
3130.00,0.0079
3129.00,0.0079
3128.00,0.0078
3127.00,0.0078
3126.00,0.0078
3125.00,0.0078
3124.00,0.0078
3123.00,0.0077
3122.00,0.0077
3121.00,0.0076
3120.00,0.0076
3119.00,0.0076
3118.00,0.0076
3117.00,0.0077
3116.00,0.0076
3115.00,0.0076
3114.00,0.0076
3113.00,0.0076
3112.00,0.0076
3111.00,0.0077
3110.00,0.0077
3109.00,0.0077
3108.00,0.0077
3107.00,0.0077
3106.00,0.0076
3105.00,0.0076
3104.00,0.0076
3103.00,0.0076
3102.00,0.0076
3101.00,0.0076
3100.00,0.0077
3099.00,0.0077
3098.00,0.0078
3097.00,0.0079
3096.00,0.0080
3095.00,0.0080
3094.00,0.0081
3093.00,0.0081
3092.00,0.0082
3091.00,0.0083
3090.00,0.0084
3089.00,0.0085
3088.00,0.0086
3087.00,0.0087
3086.00,0.0089
3085.00,0.0092
3084.00,0.0095
3083.00,0.0101
3082.00,0.0107
3081.00,0.0116
3080.00,0.0127
3079.00,0.0141
3078.00,0.0155
3077.00,0.0168
3076.00,0.0177
3075.00,0.0182
3074.00,0.0180
3073.00,0.0172
3072.00,0.0160
3071.00,0.0147
3070.00,0.0135
3069.00,0.0124
3068.00,0.0115
3067.00,0.0109
3066.00,0.0104
3065.00,0.0100
3064.00,0.0097
3063.00,0.0095
3062.00,0.0093
3061.00,0.0092
3060.00,0.0091
3059.00,0.0090
3058.00,0.0089
3057.00,0.0089
3056.00,0.0088
3055.00,0.0088
3054.00,0.0087
3053.00,0.0087
3052.00,0.0087
3051.00,0.0088
3050.00,0.0089
3049.00,0.0090
3048.00,0.0091
3047.00,0.0093
3046.00,0.0094
3045.00,0.0095
3044.00,0.0096
3043.00,0.0098
3042.00,0.0099
3041.00,0.0101
3040.00,0.0103
3039.00,0.0105
3038.00,0.0106
3037.00,0.0108
3036.00,0.0110
3035.00,0.0112
3034.00,0.0114
3033.00,0.0114
3032.00,0.0115
3031.00,0.0114
3030.00,0.0112
3029.00,0.0110
3028.00,0.0108
3027.00,0.0106
3026.00,0.0104
3025.00,0.0102
3024.00,0.0101
3023.00,0.0100
3022.00,0.0099
3021.00,0.0099
3020.00,0.0099
3019.00,0.0098
3018.00,0.0099
3017.00,0.0099
3016.00,0.0100
3015.00,0.0102
3014.00,0.0103
3013.00,0.0104
3012.00,0.0105
3011.00,0.0106
3010.00,0.0107
3009.00,0.0108
3008.00,0.0109
3007.00,0.0110
3006.00,0.0111
3005.00,0.0112
3004.00,0.0114
3003.00,0.0115
3002.00,0.0117
3001.00,0.0119
3000.00,0.0121
2999.00,0.0123
2998.00,0.0125
2997.00,0.0127
2996.00,0.0129
2995.00,0.0132
2994.00,0.0135
2993.00,0.0139
2992.00,0.0144
2991.00,0.0148
2990.00,0.0152
2989.00,0.0156
2988.00,0.0159
2987.00,0.0162
2986.00,0.0165
2985.00,0.0169
2984.00,0.0173
2983.00,0.0178
2982.00,0.0186
2981.00,0.0194
2980.00,0.0205
2979.00,0.0218
2978.00,0.0232
2977.00,0.0250
2976.00,0.0269
2975.00,0.0291
2974.00,0.0314
2973.00,0.0340
2972.00,0.0367
2971.00,0.0394
2970.00,0.0421
2969.00,0.0445
2968.00,0.0465
2967.00,0.0481
2966.00,0.0490
2965.00,0.0494
2964.00,0.0494
2963.00,0.0492
2962.00,0.0488
2961.00,0.0481
2960.00,0.0473
2959.00,0.0463
2958.00,0.0451
2957.00,0.0437
2956.00,0.0423
2955.00,0.0409
2954.00,0.0397
2953.00,0.0387
2952.00,0.0381
2951.00,0.0378
2950.00,0.0379
2949.00,0.0386
2948.00,0.0398
2947.00,0.0416
2946.00,0.0437
2945.00,0.0461
2944.00,0.0485
2943.00,0.0508
2942.00,0.0530
2941.00,0.0550
2940.00,0.0569
2939.00,0.0589
2938.00,0.0611
2937.00,0.0635
2936.00,0.0660
2935.00,0.0687
2934.00,0.0715
2933.00,0.0743
2932.00,0.0772
2931.00,0.0802
2930.00,0.0831
2929.00,0.0859
2928.00,0.0884
2927.00,0.0904
2926.00,0.0918
2925.00,0.0924
2924.00,0.0923
2923.00,0.0918
2922.00,0.0909
2921.00,0.0900
2920.00,0.0892
2919.00,0.0884
2918.00,0.0877
2917.00,0.0869
2916.00,0.0858
2915.00,0.0845
2914.00,0.0828
2913.00,0.0808
2912.00,0.0784
2911.00,0.0758
2910.00,0.0730
2909.00,0.0703
2908.00,0.0677
2907.00,0.0652
2906.00,0.0629
2905.00,0.0608
2904.00,0.0590
2903.00,0.0574
2902.00,0.0560
2901.00,0.0547
2900.00,0.0533
2899.00,0.0519
2898.00,0.0502
2897.00,0.0486
2896.00,0.0469
2895.00,0.0453
2894.00,0.0439
2893.00,0.0426
2892.00,0.0416
2891.00,0.0407
2890.00,0.0400
2889.00,0.0394
2888.00,0.0391
2887.00,0.0388
2886.00,0.0385
2885.00,0.0384
2884.00,0.0383
2883.00,0.0382
2882.00,0.0383
2881.00,0.0385
2880.00,0.0388
2879.00,0.0392
2878.00,0.0397
2877.00,0.0403
2876.00,0.0411
2875.00,0.0419
2874.00,0.0426
2873.00,0.0432
2872.00,0.0436
2871.00,0.0436
2870.00,0.0433
2869.00,0.0429
2868.00,0.0424
2867.00,0.0422
2866.00,0.0423
2865.00,0.0431
2864.00,0.0444
2863.00,0.0465
2862.00,0.0493
2861.00,0.0529
2860.00,0.0570
2859.00,0.0611
2858.00,0.0649
2857.00,0.0677
2856.00,0.0688
2855.00,0.0682
2854.00,0.0659
2853.00,0.0624
2852.00,0.0581
2851.00,0.0537
2850.00,0.0492
2849.00,0.0451
2848.00,0.0413
2847.00,0.0380
2846.00,0.0350
2845.00,0.0325
2844.00,0.0304
2843.00,0.0287
2842.00,0.0274
2841.00,0.0264
2840.00,0.0256
2839.00,0.0252
2838.00,0.0252
2837.00,0.0255
2836.00,0.0263
2835.00,0.0277
2834.00,0.0297
2833.00,0.0320
2832.00,0.0344
2831.00,0.0365
2830.00,0.0377
2829.00,0.0377
2828.00,0.0364
2827.00,0.0341
2826.00,0.0313
2825.00,0.0283
2824.00,0.0256
2823.00,0.0234
2822.00,0.0215
2821.00,0.0201
2820.00,0.0190
2819.00,0.0180
2818.00,0.0173
2817.00,0.0166
2816.00,0.0161
2815.00,0.0156
2814.00,0.0152
2813.00,0.0149
2812.00,0.0146
2811.00,0.0143
2810.00,0.0140
2809.00,0.0137
2808.00,0.0135
2807.00,0.0134
2806.00,0.0132
2805.00,0.0130
2804.00,0.0129
2803.00,0.0127
2802.00,0.0125
2801.00,0.0123
2800.00,0.0121
2799.00,0.0120
2798.00,0.0119
2797.00,0.0118
2796.00,0.0116
2795.00,0.0115
2794.00,0.0114
2793.00,0.0112
2792.00,0.0111
2791.00,0.0110
2790.00,0.0110
2789.00,0.0109
2788.00,0.0108
2787.00,0.0108
2786.00,0.0107
2785.00,0.0106
2784.00,0.0105
2783.00,0.0104
2782.00,0.0104
2781.00,0.0103
2780.00,0.0102
2779.00,0.0101
2778.00,0.0100
2777.00,0.0099
2776.00,0.0099
2775.00,0.0098
2774.00,0.0098
2773.00,0.0097
2772.00,0.0097
2771.00,0.0096
2770.00,0.0095
2769.00,0.0095
2768.00,0.0095
2767.00,0.0094
2766.00,0.0094
2765.00,0.0094
2764.00,0.0093
2763.00,0.0093
2762.00,0.0092
2761.00,0.0091
2760.00,0.0091
2759.00,0.0090
2758.00,0.0090
2757.00,0.0090
2756.00,0.0090
2755.00,0.0090
2754.00,0.0090
2753.00,0.0090
2752.00,0.0090
2751.00,0.0089
2750.00,0.0089
2749.00,0.0089
2748.00,0.0090
2747.00,0.0090
2746.00,0.0091
2745.00,0.0092
2744.00,0.0092
2743.00,0.0093
2742.00,0.0093
2741.00,0.0093
2740.00,0.0094
2739.00,0.0094
2738.00,0.0095
2737.00,0.0096
2736.00,0.0098
2735.00,0.0100
2734.00,0.0102
2733.00,0.0104
2732.00,0.0106
2731.00,0.0108
2730.00,0.0109
2729.00,0.0110
2728.00,0.0109
2727.00,0.0108
2726.00,0.0106
2725.00,0.0104
2724.00,0.0102
2723.00,0.0100
2722.00,0.0098
2721.00,0.0096
2720.00,0.0095
2719.00,0.0094
2718.00,0.0093
2717.00,0.0092
2716.00,0.0091
2715.00,0.0090
2714.00,0.0089
2713.00,0.0088
2712.00,0.0088
2711.00,0.0087
2710.00,0.0087
2709.00,0.0087
2708.00,0.0086
2707.00,0.0086
2706.00,0.0085
2705.00,0.0085
2704.00,0.0084
2703.00,0.0084
2702.00,0.0084
2701.00,0.0084
2700.00,0.0083
2699.00,0.0083
2698.00,0.0083
2697.00,0.0083
2696.00,0.0083
2695.00,0.0083
2694.00,0.0083
2693.00,0.0083
2692.00,0.0084
2691.00,0.0084
2690.00,0.0084
2689.00,0.0083
2688.00,0.0083
2687.00,0.0084
2686.00,0.0084
2685.00,0.0084
2684.00,0.0084
2683.00,0.0084
2682.00,0.0084
2681.00,0.0084
2680.00,0.0085
2679.00,0.0085
2678.00,0.0086
2677.00,0.0087
2676.00,0.0088
2675.00,0.0089
2674.00,0.0089
2673.00,0.0089
2672.00,0.0089
2671.00,0.0090
2670.00,0.0090
2669.00,0.0090
2668.00,0.0091
2667.00,0.0091
2666.00,0.0092
2665.00,0.0092
2664.00,0.0092
2663.00,0.0093
2662.00,0.0093
2661.00,0.0093
2660.00,0.0093
2659.00,0.0093
2658.00,0.0093
2657.00,0.0093
2656.00,0.0092
2655.00,0.0092
2654.00,0.0092
2653.00,0.0092
2652.00,0.0092
2651.00,0.0091
2650.00,0.0090
2649.00,0.0090
2648.00,0.0090
2647.00,0.0089
2646.00,0.0089
2645.00,0.0089
2644.00,0.0089
2643.00,0.0088
2642.00,0.0088
2641.00,0.0088
2640.00,0.0088
2639.00,0.0088
2638.00,0.0088
2637.00,0.0088
2636.00,0.0087
2635.00,0.0087
2634.00,0.0087
2633.00,0.0087
2632.00,0.0087
2631.00,0.0087
2630.00,0.0086
2629.00,0.0086
2628.00,0.0086
2627.00,0.0086
2626.00,0.0086
2625.00,0.0086
2624.00,0.0086
2623.00,0.0086
2622.00,0.0086
2621.00,0.0086
2620.00,0.0086
2619.00,0.0086
2618.00,0.0086
2617.00,0.0086
2616.00,0.0086
2615.00,0.0085
2614.00,0.0085
2613.00,0.0084
2612.00,0.0084
2611.00,0.0083
2610.00,0.0084
2609.00,0.0084
2608.00,0.0085
2607.00,0.0085
2606.00,0.0085
2605.00,0.0085
2604.00,0.0085
2603.00,0.0085
2602.00,0.0084
2601.00,0.0084
2600.00,0.0083
2599.00,0.0082
2598.00,0.0082
2597.00,0.0082
2596.00,0.0082
2595.00,0.0083
2594.00,0.0083
2593.00,0.0083
2592.00,0.0082
2591.00,0.0082
2590.00,0.0082
2589.00,0.0082
2588.00,0.0082
2587.00,0.0082
2586.00,0.0082
2585.00,0.0081
2584.00,0.0081
2583.00,0.0081
2582.00,0.0082
2581.00,0.0081
2580.00,0.0081
2579.00,0.0080
2578.00,0.0080
2577.00,0.0080
2576.00,0.0080
2575.00,0.0080
2574.00,0.0081
2573.00,0.0081
2572.00,0.0081
2571.00,0.0081
2570.00,0.0081
2569.00,0.0080
2568.00,0.0080
2567.00,0.0079
2566.00,0.0079
2565.00,0.0079
2564.00,0.0079
2563.00,0.0080
2562.00,0.0080
2561.00,0.0081
2560.00,0.0081
2559.00,0.0081
2558.00,0.0081
2557.00,0.0081
2556.00,0.0081
2555.00,0.0080
2554.00,0.0079
2553.00,0.0078
2552.00,0.0078
2551.00,0.0078
2550.00,0.0078
2549.00,0.0079
2548.00,0.0078
2547.00,0.0078
2546.00,0.0078
2545.00,0.0077
2544.00,0.0077
2543.00,0.0077
2542.00,0.0077
2541.00,0.0076
2540.00,0.0076
2539.00,0.0077
2538.00,0.0077
2537.00,0.0078
2536.00,0.0078
2535.00,0.0077
2534.00,0.0077
2533.00,0.0077
2532.00,0.0077
2531.00,0.0077
2530.00,0.0077
2529.00,0.0078
2528.00,0.0077
2527.00,0.0077
2526.00,0.0076
2525.00,0.0075
2524.00,0.0075
2523.00,0.0075
2522.00,0.0075
2521.00,0.0076
2520.00,0.0077
2519.00,0.0078
2518.00,0.0079
2517.00,0.0079
2516.00,0.0081
2515.00,0.0082
2514.00,0.0084
2513.00,0.0084
2512.00,0.0083
2511.00,0.0081
2510.00,0.0079
2509.00,0.0078
2508.00,0.0077
2507.00,0.0077
2506.00,0.0076
2505.00,0.0076
2504.00,0.0076
2503.00,0.0075
2502.00,0.0075
2501.00,0.0074
2500.00,0.0074
2499.00,0.0074
2498.00,0.0075
2497.00,0.0075
2496.00,0.0075
2495.00,0.0075
2494.00,0.0075
2493.00,0.0075
2492.00,0.0075
2491.00,0.0076
2490.00,0.0076
2489.00,0.0077
2488.00,0.0077
2487.00,0.0077
2486.00,0.0076
2485.00,0.0076
2484.00,0.0076
2483.00,0.0077
2482.00,0.0078
2481.00,0.0078
2480.00,0.0078
2479.00,0.0077
2478.00,0.0077
2477.00,0.0078
2476.00,0.0078
2475.00,0.0078
2474.00,0.0077
2473.00,0.0075
2472.00,0.0073
2471.00,0.0073
2470.00,0.0075
2469.00,0.0076
2468.00,0.0077
2467.00,0.0078
2466.00,0.0077
2465.00,0.0077
2464.00,0.0077
2463.00,0.0077
2462.00,0.0078
2461.00,0.0078
2460.00,0.0079
2459.00,0.0080
2458.00,0.0080
2457.00,0.0081
2456.00,0.0081
2455.00,0.0081
2454.00,0.0080
2453.00,0.0080
2452.00,0.0079
2451.00,0.0079
2450.00,0.0079
2449.00,0.0079
2448.00,0.0078
2447.00,0.0078
2446.00,0.0077
2445.00,0.0077
2444.00,0.0077
2443.00,0.0076
2442.00,0.0076
2441.00,0.0075
2440.00,0.0074
2439.00,0.0073
2438.00,0.0072
2437.00,0.0071
2436.00,0.0071
2435.00,0.0071
2434.00,0.0071
2433.00,0.0070
2432.00,0.0069
2431.00,0.0069
2430.00,0.0068
2429.00,0.0067
2428.00,0.0066
2427.00,0.0066
2426.00,0.0066
2425.00,0.0067
2424.00,0.0067
2423.00,0.0067
2422.00,0.0067
2421.00,0.0067
2420.00,0.0066
2419.00,0.0066
2418.00,0.0066
2417.00,0.0065
2416.00,0.0065
2415.00,0.0065
2414.00,0.0065
2413.00,0.0065
2412.00,0.0065
2411.00,0.0065
2410.00,0.0065
2409.00,0.0064
2408.00,0.0063
2407.00,0.0062
2406.00,0.0062
2405.00,0.0062
2404.00,0.0062
2403.00,0.0063
2402.00,0.0062
2401.00,0.0062
2400.00,0.0062
2399.00,0.0062
2398.00,0.0062
2397.00,0.0062
2396.00,0.0062
2395.00,0.0062
2394.00,0.0061
2393.00,0.0061
2392.00,0.0062
2391.00,0.0062
2390.00,0.0062
2389.00,0.0062
2388.00,0.0062
2387.00,0.0061
2386.00,0.0060
2385.00,0.0058
2384.00,0.0058
2383.00,0.0057
2382.00,0.0057
2381.00,0.0057
2380.00,0.0057
2379.00,0.0057
2378.00,0.0057
2377.00,0.0058
2376.00,0.0058
2375.00,0.0058
2374.00,0.0057
2373.00,0.0055
2372.00,0.0055
2371.00,0.0054
2370.00,0.0053
2369.00,0.0052
2368.00,0.0052
2367.00,0.0051
2366.00,0.0051
2365.00,0.0052
2364.00,0.0053
2363.00,0.0055
2362.00,0.0056
2361.00,0.0056
2360.00,0.0055
2359.00,0.0055
2358.00,0.0055
2357.00,0.0055
2356.00,0.0055
2355.00,0.0055
2354.00,0.0055
2353.00,0.0054
2352.00,0.0055
2351.00,0.0055
2350.00,0.0055
2349.00,0.0056
2348.00,0.0056
2347.00,0.0058
2346.00,0.0061
2345.00,0.0062
2344.00,0.0062
2343.00,0.0060
2342.00,0.0058
2341.00,0.0057
2340.00,0.0057
2339.00,0.0058
2338.00,0.0059
2337.00,0.0059
2336.00,0.0059
2335.00,0.0059
2334.00,0.0059
2333.00,0.0059
2332.00,0.0059
2331.00,0.0058
2330.00,0.0059
2329.00,0.0060
2328.00,0.0062
2327.00,0.0066
2326.00,0.0069
2325.00,0.0071
2324.00,0.0070
2323.00,0.0068
2322.00,0.0065
2321.00,0.0062
2320.00,0.0060
2319.00,0.0059
2318.00,0.0059
2317.00,0.0059
2316.00,0.0060
2315.00,0.0060
2314.00,0.0060
2313.00,0.0059
2312.00,0.0058
2311.00,0.0057
2310.00,0.0056
2309.00,0.0056
2308.00,0.0056
2307.00,0.0057
2306.00,0.0058
2305.00,0.0060
2304.00,0.0061
2303.00,0.0061
2302.00,0.0060
2301.00,0.0060
2300.00,0.0060
2299.00,0.0060
2298.00,0.0061
2297.00,0.0063
2296.00,0.0064
2295.00,0.0065
2294.00,0.0067
2293.00,0.0068
2292.00,0.0069
2291.00,0.0069
2290.00,0.0070
2289.00,0.0071
2288.00,0.0072
2287.00,0.0073
2286.00,0.0073
2285.00,0.0072
2284.00,0.0071
2283.00,0.0070
2282.00,0.0069
2281.00,0.0068
2280.00,0.0068
2279.00,0.0068
2278.00,0.0068
2277.00,0.0068
2276.00,0.0068
2275.00,0.0067
2274.00,0.0067
2273.00,0.0066
2272.00,0.0066
2271.00,0.0066
2270.00,0.0065
2269.00,0.0064
2268.00,0.0063
2267.00,0.0062
2266.00,0.0060
2265.00,0.0060
2264.00,0.0060
2263.00,0.0061
2262.00,0.0062
2261.00,0.0063
2260.00,0.0064
2259.00,0.0063
2258.00,0.0062
2257.00,0.0060
2256.00,0.0060
2255.00,0.0059
2254.00,0.0059
2253.00,0.0059
2252.00,0.0060
2251.00,0.0061
2250.00,0.0061
2249.00,0.0062
2248.00,0.0062
2247.00,0.0062
2246.00,0.0062
2245.00,0.0062
2244.00,0.0063
2243.00,0.0063
2242.00,0.0063
2241.00,0.0063
2240.00,0.0063
2239.00,0.0063
2238.00,0.0063
2237.00,0.0063
2236.00,0.0063
2235.00,0.0062
2234.00,0.0062
2233.00,0.0062
2232.00,0.0061
2231.00,0.0061
2230.00,0.0060
2229.00,0.0060
2228.00,0.0059
2227.00,0.0059
2226.00,0.0060
2225.00,0.0062
2224.00,0.0065
2223.00,0.0067
2222.00,0.0068
2221.00,0.0067
2220.00,0.0066
2219.00,0.0066
2218.00,0.0066
2217.00,0.0065
2216.00,0.0064
2215.00,0.0063
2214.00,0.0061
2213.00,0.0060
2212.00,0.0059
2211.00,0.0059
2210.00,0.0059
2209.00,0.0059
2208.00,0.0060
2207.00,0.0060
2206.00,0.0060
2205.00,0.0059
2204.00,0.0058
2203.00,0.0056
2202.00,0.0055
2201.00,0.0056
2200.00,0.0057
2199.00,0.0059
2198.00,0.0061
2197.00,0.0061
2196.00,0.0060
2195.00,0.0059
2194.00,0.0058
2193.00,0.0059
2192.00,0.0060
2191.00,0.0062
2190.00,0.0063
2189.00,0.0063
2188.00,0.0063
2187.00,0.0062
2186.00,0.0061
2185.00,0.0059
2184.00,0.0057
2183.00,0.0055
2182.00,0.0054
2181.00,0.0054
2180.00,0.0054
2179.00,0.0055
2178.00,0.0054
2177.00,0.0053
2176.00,0.0052
2175.00,0.0052
2174.00,0.0054
2173.00,0.0058
2172.00,0.0062
2171.00,0.0064
2170.00,0.0065
2169.00,0.0064
2168.00,0.0063
2167.00,0.0064
2166.00,0.0068
2165.00,0.0073
2164.00,0.0077
2163.00,0.0077
2162.00,0.0068
2161.00,0.0050
2160.00,0.0030
2159.00,0.0015
2158.00,0.0011
2157.00,0.0014
2156.00,0.0019
2155.00,0.0022
2154.00,0.0026
2153.00,0.0030
2152.00,0.0035
2151.00,0.0037
2150.00,0.0037
2149.00,0.0035
2148.00,0.0032
2147.00,0.0031
2146.00,0.0030
2145.00,0.0031
2144.00,0.0033
2143.00,0.0035
2142.00,0.0036
2141.00,0.0036
2140.00,0.0035
2139.00,0.0033
2138.00,0.0029
2137.00,0.0026
2136.00,0.0025
2135.00,0.0026
2134.00,0.0028
2133.00,0.0031
2132.00,0.0032
2131.00,0.0033
2130.00,0.0034
2129.00,0.0036
2128.00,0.0039
2127.00,0.0041
2126.00,0.0042
2125.00,0.0043
2124.00,0.0043
2123.00,0.0043
2122.00,0.0043
2121.00,0.0044
2120.00,0.0045
2119.00,0.0047
2118.00,0.0049
2117.00,0.0051
2116.00,0.0053
2115.00,0.0053
2114.00,0.0053
2113.00,0.0053
2112.00,0.0052
2111.00,0.0050
2110.00,0.0048
2109.00,0.0046
2108.00,0.0045
2107.00,0.0045
2106.00,0.0046
2105.00,0.0047
2104.00,0.0048
2103.00,0.0048
2102.00,0.0048
2101.00,0.0048
2100.00,0.0048
2099.00,0.0048
2098.00,0.0049
2097.00,0.0049
2096.00,0.0049
2095.00,0.0050
2094.00,0.0051
2093.00,0.0053
2092.00,0.0053
2091.00,0.0052
2090.00,0.0050
2089.00,0.0050
2088.00,0.0052
2087.00,0.0053
2086.00,0.0054
2085.00,0.0054
2084.00,0.0053
2083.00,0.0053
2082.00,0.0053
2081.00,0.0054
2080.00,0.0055
2079.00,0.0054
2078.00,0.0052
2077.00,0.0051
2076.00,0.0050
2075.00,0.0050
2074.00,0.0050
2073.00,0.0050
2072.00,0.0049
2071.00,0.0048
2070.00,0.0046
2069.00,0.0045
2068.00,0.0045
2067.00,0.0045
2066.00,0.0044
2065.00,0.0043
2064.00,0.0043
2063.00,0.0042
2062.00,0.0042
2061.00,0.0043
2060.00,0.0044
2059.00,0.0045
2058.00,0.0045
2057.00,0.0045
2056.00,0.0044
2055.00,0.0045
2054.00,0.0048
2053.00,0.0051
2052.00,0.0051
2051.00,0.0047
2050.00,0.0041
2049.00,0.0038
2048.00,0.0039
2047.00,0.0040
2046.00,0.0041
2045.00,0.0041
2044.00,0.0039
2043.00,0.0038
2042.00,0.0037
2041.00,0.0038
2040.00,0.0040
2039.00,0.0041
2038.00,0.0039
2037.00,0.0038
2036.00,0.0036
2035.00,0.0034
2034.00,0.0032
2033.00,0.0030
2032.00,0.0029
2031.00,0.0027
2030.00,0.0025
2029.00,0.0026
2028.00,0.0029
2027.00,0.0033
2026.00,0.0035
2025.00,0.0037
2024.00,0.0036
2023.00,0.0034
2022.00,0.0033
2021.00,0.0033
2020.00,0.0034
2019.00,0.0035
2018.00,0.0035
2017.00,0.0034
2016.00,0.0034
2015.00,0.0034
2014.00,0.0034
2013.00,0.0035
2012.00,0.0037
2011.00,0.0037
2010.00,0.0034
2009.00,0.0030
2008.00,0.0025
2007.00,0.0020
2006.00,0.0017
2005.00,0.0018
2004.00,0.0022
2003.00,0.0026
2002.00,0.0029
2001.00,0.0031
2000.00,0.0033
1999.00,0.0034
1998.00,0.0033
1997.00,0.0032
1996.00,0.0032
1995.00,0.0032
1994.00,0.0034
1993.00,0.0038
1992.00,0.0040
1991.00,0.0041
1990.00,0.0040
1989.00,0.0041
1988.00,0.0042
1987.00,0.0043
1986.00,0.0044
1985.00,0.0046
1984.00,0.0050
1983.00,0.0055
1982.00,0.0060
1981.00,0.0062
1980.00,0.0060
1979.00,0.0052
1978.00,0.0041
1977.00,0.0033
1976.00,0.0029
1975.00,0.0027
1974.00,0.0026
1973.00,0.0024
1972.00,0.0021
1971.00,0.0021
1970.00,0.0023
1969.00,0.0026
1968.00,0.0029
1967.00,0.0028
1966.00,0.0026
1965.00,0.0026
1964.00,0.0028
1963.00,0.0029
1962.00,0.0028
1961.00,0.0027
1960.00,0.0026
1959.00,0.0025
1958.00,0.0026
1957.00,0.0028
1956.00,0.0030
1955.00,0.0032
1954.00,0.0033
1953.00,0.0033
1952.00,0.0034
1951.00,0.0034
1950.00,0.0034
1949.00,0.0035
1948.00,0.0035
1947.00,0.0033
1946.00,0.0031
1945.00,0.0031
1944.00,0.0032
1943.00,0.0033
1942.00,0.0035
1941.00,0.0036
1940.00,0.0037
1939.00,0.0037
1938.00,0.0037
1937.00,0.0038
1936.00,0.0038
1935.00,0.0037
1934.00,0.0036
1933.00,0.0035
1932.00,0.0035
1931.00,0.0035
1930.00,0.0034
1929.00,0.0033
1928.00,0.0031
1927.00,0.0029
1926.00,0.0028
1925.00,0.0030
1924.00,0.0034
1923.00,0.0037
1922.00,0.0038
1921.00,0.0040
1920.00,0.0041
1919.00,0.0042
1918.00,0.0041
1917.00,0.0041
1916.00,0.0042
1915.00,0.0042
1914.00,0.0042
1913.00,0.0042
1912.00,0.0042
1911.00,0.0043
1910.00,0.0042
1909.00,0.0042
1908.00,0.0043
1907.00,0.0044
1906.00,0.0044
1905.00,0.0044
1904.00,0.0043
1903.00,0.0043
1902.00,0.0043
1901.00,0.0044
1900.00,0.0045
1899.00,0.0046
1898.00,0.0045
1897.00,0.0044
1896.00,0.0044
1895.00,0.0044
1894.00,0.0045
1893.00,0.0046
1892.00,0.0047
1891.00,0.0046
1890.00,0.0045
1889.00,0.0045
1888.00,0.0046
1887.00,0.0047
1886.00,0.0047
1885.00,0.0047
1884.00,0.0046
1883.00,0.0046
1882.00,0.0046
1881.00,0.0046
1880.00,0.0047
1879.00,0.0047
1878.00,0.0047
1877.00,0.0047
1876.00,0.0048
1875.00,0.0048
1874.00,0.0048
1873.00,0.0048
1872.00,0.0048
1871.00,0.0047
1870.00,0.0047
1869.00,0.0047
1868.00,0.0047
1867.00,0.0047
1866.00,0.0046
1865.00,0.0045
1864.00,0.0046
1863.00,0.0046
1862.00,0.0046
1861.00,0.0046
1860.00,0.0046
1859.00,0.0046
1858.00,0.0045
1857.00,0.0045
1856.00,0.0045
1855.00,0.0045
1854.00,0.0045
1853.00,0.0045
1852.00,0.0046
1851.00,0.0047
1850.00,0.0048
1849.00,0.0048
1848.00,0.0048
1847.00,0.0048
1846.00,0.0048
1845.00,0.0049
1844.00,0.0051
1843.00,0.0052
1842.00,0.0052
1841.00,0.0051
1840.00,0.0049
1839.00,0.0048
1838.00,0.0048
1837.00,0.0048
1836.00,0.0048
1835.00,0.0048
1834.00,0.0048
1833.00,0.0048
1832.00,0.0049
1831.00,0.0049
1830.00,0.0049
1829.00,0.0050
1828.00,0.0051
1827.00,0.0051
1826.00,0.0051
1825.00,0.0051
1824.00,0.0051
1823.00,0.0051
1822.00,0.0051
1821.00,0.0051
1820.00,0.0050
1819.00,0.0049
1818.00,0.0048
1817.00,0.0048
1816.00,0.0049
1815.00,0.0050
1814.00,0.0051
1813.00,0.0052
1812.00,0.0053
1811.00,0.0055
1810.00,0.0056
1809.00,0.0057
1808.00,0.0058
1807.00,0.0059
1806.00,0.0060
1805.00,0.0062
1804.00,0.0063
1803.00,0.0063
1802.00,0.0063
1801.00,0.0063
1800.00,0.0063
1799.00,0.0064
1798.00,0.0063
1797.00,0.0062
1796.00,0.0061
1795.00,0.0060
1794.00,0.0059
1793.00,0.0058
1792.00,0.0057
1791.00,0.0056
1790.00,0.0056
1789.00,0.0056
1788.00,0.0056
1787.00,0.0056
1786.00,0.0056
1785.00,0.0056
1784.00,0.0056
1783.00,0.0057
1782.00,0.0057
1781.00,0.0057
1780.00,0.0058
1779.00,0.0059
1778.00,0.0060
1777.00,0.0061
1776.00,0.0063
1775.00,0.0064
1774.00,0.0066
1773.00,0.0067
1772.00,0.0068
1771.00,0.0067
1770.00,0.0066
1769.00,0.0065
1768.00,0.0064
1767.00,0.0062
1766.00,0.0061
1765.00,0.0060
1764.00,0.0059
1763.00,0.0059
1762.00,0.0058
1761.00,0.0058
1760.00,0.0057
1759.00,0.0057
1758.00,0.0056
1757.00,0.0056
1756.00,0.0057
1755.00,0.0057
1754.00,0.0057
1753.00,0.0057
1752.00,0.0057
1751.00,0.0056
1750.00,0.0056
1749.00,0.0055
1748.00,0.0055
1747.00,0.0055
1746.00,0.0055
1745.00,0.0056
1744.00,0.0056
1743.00,0.0057
1742.00,0.0058
1741.00,0.0058
1740.00,0.0058
1739.00,0.0058
1738.00,0.0058
1737.00,0.0058
1736.00,0.0059
1735.00,0.0059
1734.00,0.0058
1733.00,0.0059
1732.00,0.0059
1731.00,0.0060
1730.00,0.0060
1729.00,0.0060
1728.00,0.0061
1727.00,0.0061
1726.00,0.0062
1725.00,0.0062
1724.00,0.0063
1723.00,0.0064
1722.00,0.0065
1721.00,0.0066
1720.00,0.0067
1719.00,0.0067
1718.00,0.0067
1717.00,0.0067
1716.00,0.0067
1715.00,0.0067
1714.00,0.0067
1713.00,0.0068
1712.00,0.0069
1711.00,0.0069
1710.00,0.0069
1709.00,0.0070
1708.00,0.0071
1707.00,0.0073
1706.00,0.0073
1705.00,0.0074
1704.00,0.0076
1703.00,0.0076
1702.00,0.0076
1701.00,0.0076
1700.00,0.0076
1699.00,0.0077
1698.00,0.0077
1697.00,0.0077
1696.00,0.0078
1695.00,0.0079
1694.00,0.0079
1693.00,0.0078
1692.00,0.0078
1691.00,0.0078
1690.00,0.0077
1689.00,0.0077
1688.00,0.0077
1687.00,0.0077
1686.00,0.0076
1685.00,0.0076
1684.00,0.0076
1683.00,0.0076
1682.00,0.0076
1681.00,0.0077
1680.00,0.0078
1679.00,0.0078
1678.00,0.0078
1677.00,0.0078
1676.00,0.0079
1675.00,0.0081
1674.00,0.0083
1673.00,0.0085
1672.00,0.0088
1671.00,0.0090
1670.00,0.0093
1669.00,0.0097
1668.00,0.0101
1667.00,0.0105
1666.00,0.0108
1665.00,0.0111
1664.00,0.0115
1663.00,0.0120
1662.00,0.0122
1661.00,0.0123
1660.00,0.0123
1659.00,0.0122
1658.00,0.0121
1657.00,0.0122
1656.00,0.0123
1655.00,0.0126
1654.00,0.0135
1653.00,0.0153
1652.00,0.0172
1651.00,0.0185
1650.00,0.0197
1649.00,0.0217
1648.00,0.0257
1647.00,0.0320
1646.00,0.0390
1645.00,0.0440
1644.00,0.0462
1643.00,0.0462
1642.00,0.0447
1641.00,0.0427
1640.00,0.0409
1639.00,0.0401
1638.00,0.0406
1637.00,0.0435
1636.00,0.0497
1635.00,0.0573
1634.00,0.0631
1633.00,0.0668
1632.00,0.0693
1631.00,0.0713
1630.00,0.0731
1629.00,0.0752
1628.00,0.0781
1627.00,0.0815
1626.00,0.0851
1625.00,0.0887
1624.00,0.0922
1623.00,0.0940
1622.00,0.0923
1621.00,0.0873
1620.00,0.0805
1619.00,0.0729
1618.00,0.0647
1617.00,0.0564
1616.00,0.0493
1615.00,0.0441
1614.00,0.0402
1613.00,0.0369
1612.00,0.0340
1611.00,0.0314
1610.00,0.0292
1609.00,0.0275
1608.00,0.0260
1607.00,0.0248
1606.00,0.0239
1605.00,0.0232
1604.00,0.0227
1603.00,0.0224
1602.00,0.0224
1601.00,0.0227
1600.00,0.0231
1599.00,0.0238
1598.00,0.0248
1597.00,0.0262
1596.00,0.0281
1595.00,0.0307
1594.00,0.0341
1593.00,0.0385
1592.00,0.0442
1591.00,0.0512
1590.00,0.0593
1589.00,0.0682
1588.00,0.0772
1587.00,0.0859
1586.00,0.0938
1585.00,0.1009
1584.00,0.1069
1583.00,0.1114
1582.00,0.1135
1581.00,0.1127
1580.00,0.1093
1579.00,0.1037
1578.00,0.0961
1577.00,0.0870
1576.00,0.0774
1575.00,0.0692
1574.00,0.0625
1573.00,0.0570
1572.00,0.0519
1571.00,0.0470
1570.00,0.0420
1569.00,0.0376
1568.00,0.0340
1567.00,0.0311
1566.00,0.0285
1565.00,0.0261
1564.00,0.0241
1563.00,0.0226
1562.00,0.0214
1561.00,0.0204
1560.00,0.0193
1559.00,0.0183
1558.00,0.0177
1557.00,0.0172
1556.00,0.0167
1555.00,0.0162
1554.00,0.0157
1553.00,0.0153
1552.00,0.0149
1551.00,0.0145
1550.00,0.0141
1549.00,0.0138
1548.00,0.0135
1547.00,0.0132
1546.00,0.0130
1545.00,0.0128
1544.00,0.0126
1543.00,0.0125
1542.00,0.0124
1541.00,0.0123
1540.00,0.0123
1539.00,0.0123
1538.00,0.0123
1537.00,0.0123
1536.00,0.0123
1535.00,0.0123
1534.00,0.0123
1533.00,0.0124
1532.00,0.0125
1531.00,0.0125
1530.00,0.0126
1529.00,0.0127
1528.00,0.0128
1527.00,0.0131
1526.00,0.0134
1525.00,0.0139
1524.00,0.0145
1523.00,0.0155
1522.00,0.0173
1521.00,0.0197
1520.00,0.0219
1519.00,0.0236
1518.00,0.0255
1517.00,0.0277
1516.00,0.0295
1515.00,0.0305
1514.00,0.0305
1513.00,0.0298
1512.00,0.0285
1511.00,0.0269
1510.00,0.0253
1509.00,0.0238
1508.00,0.0224
1507.00,0.0210
1506.00,0.0200
1505.00,0.0194
1504.00,0.0190
1503.00,0.0186
1502.00,0.0182
1501.00,0.0177
1500.00,0.0172
1499.00,0.0166
1498.00,0.0160
1497.00,0.0155
1496.00,0.0149
1495.00,0.0143
1494.00,0.0138
1493.00,0.0134
1492.00,0.0131
1491.00,0.0128
1490.00,0.0124
1489.00,0.0122
1488.00,0.0121
1487.00,0.0120
1486.00,0.0119
1485.00,0.0119
1484.00,0.0120
1483.00,0.0120
1482.00,0.0122
1481.00,0.0124
1480.00,0.0127
1479.00,0.0130
1478.00,0.0133
1477.00,0.0137
1476.00,0.0143
1475.00,0.0149
1474.00,0.0159
1473.00,0.0178
1472.00,0.0205
1471.00,0.0236
1470.00,0.0270
1469.00,0.0305
1468.00,0.0339
1467.00,0.0367
1466.00,0.0391
1465.00,0.0412
1464.00,0.0430
1463.00,0.0445
1462.00,0.0456
1461.00,0.0466
1460.00,0.0474
1459.00,0.0483
1458.00,0.0500
1457.00,0.0533
1456.00,0.0573
1455.00,0.0607
1454.00,0.0643
1453.00,0.0691
1452.00,0.0752
1451.00,0.0823
1450.00,0.0903
1449.00,0.0999
1448.00,0.1105
1447.00,0.1206
1446.00,0.1284
1445.00,0.1337
1444.00,0.1366
1443.00,0.1375
1442.00,0.1370
1441.00,0.1355
1440.00,0.1330
1439.00,0.1299
1438.00,0.1266
1437.00,0.1236
1436.00,0.1202
1435.00,0.1160
1434.00,0.1111
1433.00,0.1061
1432.00,0.1006
1431.00,0.0945
1430.00,0.0874
1429.00,0.0794
1428.00,0.0709
1427.00,0.0627
1426.00,0.0551
1425.00,0.0482
1424.00,0.0423
1423.00,0.0376
1422.00,0.0342
1421.00,0.0313
1420.00,0.0287
1419.00,0.0266
1418.00,0.0249
1417.00,0.0236
1416.00,0.0225
1415.00,0.0215
1414.00,0.0207
1413.00,0.0199
1412.00,0.0192
1411.00,0.0187
1410.00,0.0183
1409.00,0.0179
1408.00,0.0175
1407.00,0.0173
1406.00,0.0172
1405.00,0.0170
1404.00,0.0168
1403.00,0.0166
1402.00,0.0164
1401.00,0.0162
1400.00,0.0160
1399.00,0.0158
1398.00,0.0158
1397.00,0.0157
1396.00,0.0155
1395.00,0.0154
1394.00,0.0153
1393.00,0.0152
1392.00,0.0151
1391.00,0.0151
1390.00,0.0153
1389.00,0.0155
1388.00,0.0159
1387.00,0.0166
1386.00,0.0176
1385.00,0.0188
1384.00,0.0204
1383.00,0.0227
1382.00,0.0258
1381.00,0.0297
1380.00,0.0349
1379.00,0.0411
1378.00,0.0477
1377.00,0.0537
1376.00,0.0581
1375.00,0.0601
1374.00,0.0594
1373.00,0.0566
1372.00,0.0528
1371.00,0.0491
1370.00,0.0455
1369.00,0.0423
1368.00,0.0396
1367.00,0.0373
1366.00,0.0353
1365.00,0.0334
1364.00,0.0315
1363.00,0.0298
1362.00,0.0284
1361.00,0.0273
1360.00,0.0266
1359.00,0.0260
1358.00,0.0257
1357.00,0.0254
1356.00,0.0253
1355.00,0.0254
1354.00,0.0255
1353.00,0.0256
1352.00,0.0258
1351.00,0.0260
1350.00,0.0265
1349.00,0.0271
1348.00,0.0278
1347.00,0.0287
1346.00,0.0297
1345.00,0.0306
1344.00,0.0315
1343.00,0.0321
1342.00,0.0324
1341.00,0.0322
1340.00,0.0315
1339.00,0.0304
1338.00,0.0292
1337.00,0.0282
1336.00,0.0276
1335.00,0.0276
1334.00,0.0280
1333.00,0.0289
1332.00,0.0301
1331.00,0.0314
1330.00,0.0328
1329.00,0.0342
1328.00,0.0355
1327.00,0.0367
1326.00,0.0380
1325.00,0.0390
1324.00,0.0395
1323.00,0.0393
1322.00,0.0382
1321.00,0.0367
1320.00,0.0354
1319.00,0.0349
1318.00,0.0356
1317.00,0.0375
1316.00,0.0408
1315.00,0.0451
1314.00,0.0498
1313.00,0.0541
1312.00,0.0571
1311.00,0.0583
1310.00,0.0578
1309.00,0.0564
1308.00,0.0548
1307.00,0.0539
1306.00,0.0540
1305.00,0.0549
1304.00,0.0562
1303.00,0.0576
1302.00,0.0585
1301.00,0.0589
1300.00,0.0587
1299.00,0.0581
1298.00,0.0570
1297.00,0.0556
1296.00,0.0540
1295.00,0.0523
1294.00,0.0505
1293.00,0.0488
1292.00,0.0472
1291.00,0.0457
1290.00,0.0445
1289.00,0.0438
1288.00,0.0438
1287.00,0.0447
1286.00,0.0463
1285.00,0.0485
1284.00,0.0509
1283.00,0.0534
1282.00,0.0556
1281.00,0.0575
1280.00,0.0588
1279.00,0.0594
1278.00,0.0593
1277.00,0.0585
1276.00,0.0570
1275.00,0.0549
1274.00,0.0523
1273.00,0.0492
1272.00,0.0457
1271.00,0.0420
1270.00,0.0384
1269.00,0.0350
1268.00,0.0320
1267.00,0.0294
1266.00,0.0272
1265.00,0.0254
1264.00,0.0239
1263.00,0.0226
1262.00,0.0216
1261.00,0.0208
1260.00,0.0201
1259.00,0.0196
1258.00,0.0191
1257.00,0.0188
1256.00,0.0187
1255.00,0.0189
1254.00,0.0195
1253.00,0.0204
1252.00,0.0216
1251.00,0.0231
1250.00,0.0247
1249.00,0.0261
1248.00,0.0271
1247.00,0.0279
1246.00,0.0289
1245.00,0.0304
1244.00,0.0330
1243.00,0.0368
1242.00,0.0418
1241.00,0.0480
1240.00,0.0546
1239.00,0.0610
1238.00,0.0662
1237.00,0.0695
1236.00,0.0708
1235.00,0.0706
1234.00,0.0693
1233.00,0.0672
1232.00,0.0647
1231.00,0.0622
1230.00,0.0606
1229.00,0.0605
1228.00,0.0624
1227.00,0.0662
1226.00,0.0713
1225.00,0.0771
1224.00,0.0834
1223.00,0.0900
1222.00,0.0974
1221.00,0.1061
1220.00,0.1163
1219.00,0.1282
1218.00,0.1409
1217.00,0.1530
1216.00,0.1627
1215.00,0.1685
1214.00,0.1695
1213.00,0.1660
1212.00,0.1588
1211.00,0.1492
1210.00,0.1385
1209.00,0.1280
1208.00,0.1185
1207.00,0.1100
1206.00,0.1025
1205.00,0.0955
1204.00,0.0886
1203.00,0.0816
1202.00,0.0745
1201.00,0.0677
1200.00,0.0614
1199.00,0.0558
1198.00,0.0511
1197.00,0.0473
1196.00,0.0444
1195.00,0.0423
1194.00,0.0409
1193.00,0.0402
1192.00,0.0402
1191.00,0.0406
1190.00,0.0414
1189.00,0.0424
1188.00,0.0434
1187.00,0.0446
1186.00,0.0459
1185.00,0.0473
1184.00,0.0486
1183.00,0.0498
1182.00,0.0507
1181.00,0.0515
1180.00,0.0521
1179.00,0.0526
1178.00,0.0530
1177.00,0.0534
1176.00,0.0541
1175.00,0.0556
1174.00,0.0579
1173.00,0.0604
1172.00,0.0614
1171.00,0.0597
1170.00,0.0553
1169.00,0.0494
1168.00,0.0434
1167.00,0.0383
1166.00,0.0342
1165.00,0.0310
1164.00,0.0286
1163.00,0.0269
1162.00,0.0256
1161.00,0.0249
1160.00,0.0246
1159.00,0.0247
1158.00,0.0254
1157.00,0.0269
1156.00,0.0296
1155.00,0.0342
1154.00,0.0408
1153.00,0.0490
1152.00,0.0572
1151.00,0.0628
1150.00,0.0635
1149.00,0.0590
1148.00,0.0511
1147.00,0.0426
1146.00,0.0354
1145.00,0.0302
1144.00,0.0268
1143.00,0.0246
1142.00,0.0232
1141.00,0.0224
1140.00,0.0221
1139.00,0.0223
1138.00,0.0228
1137.00,0.0235
1136.00,0.0242
1135.00,0.0245
1134.00,0.0243
1133.00,0.0236
1132.00,0.0225
1131.00,0.0213
1130.00,0.0201
1129.00,0.0190
1128.00,0.0179
1127.00,0.0171
1126.00,0.0165
1125.00,0.0161
1124.00,0.0158
1123.00,0.0156
1122.00,0.0154
1121.00,0.0153
1120.00,0.0152
1119.00,0.0153
1118.00,0.0155
1117.00,0.0157
1116.00,0.0160
1115.00,0.0163
1114.00,0.0166
1113.00,0.0169
1112.00,0.0173
1111.00,0.0177
1110.00,0.0182
1109.00,0.0189
1108.00,0.0197
1107.00,0.0207
1106.00,0.0218
1105.00,0.0230
1104.00,0.0244
1103.00,0.0259
1102.00,0.0276
1101.00,0.0295
1100.00,0.0310
1099.00,0.0318
1098.00,0.0315
1097.00,0.0301
1096.00,0.0281
1095.00,0.0259
1094.00,0.0241
1093.00,0.0227
1092.00,0.0216
1091.00,0.0209
1090.00,0.0203
1089.00,0.0198
1088.00,0.0196
1087.00,0.0198
1086.00,0.0204
1085.00,0.0215
1084.00,0.0231
1083.00,0.0253
1082.00,0.0279
1081.00,0.0302
1080.00,0.0317
1079.00,0.0320
1078.00,0.0312
1077.00,0.0295
1076.00,0.0274
1075.00,0.0255
1074.00,0.0239
1073.00,0.0226
1072.00,0.0217
1071.00,0.0210
1070.00,0.0205
1069.00,0.0200
1068.00,0.0197
1067.00,0.0196
1066.00,0.0196
1065.00,0.0198
1064.00,0.0202
1063.00,0.0209
1062.00,0.0219
1061.00,0.0232
1060.00,0.0251
1059.00,0.0279
1058.00,0.0319
1057.00,0.0377
1056.00,0.0451
1055.00,0.0534
1054.00,0.0614
1053.00,0.0677
1052.00,0.0715
1051.00,0.0727
1050.00,0.0715
1049.00,0.0680
1048.00,0.0624
1047.00,0.0558
1046.00,0.0496
1045.00,0.0449
1044.00,0.0420
1043.00,0.0407
1042.00,0.0407
1041.00,0.0415
1040.00,0.0430
1039.00,0.0452
1038.00,0.0485
1037.00,0.0531
1036.00,0.0594
1035.00,0.0668
1034.00,0.0743
1033.00,0.0802
1032.00,0.0832
1031.00,0.0827
1030.00,0.0792
1029.00,0.0743
1028.00,0.0694
1027.00,0.0659
1026.00,0.0645
1025.00,0.0657
1024.00,0.0697
1023.00,0.0763
1022.00,0.0847
1021.00,0.0935
1020.00,0.1008
1019.00,0.1045
1018.00,0.1038
1017.00,0.0992
1016.00,0.0924
1015.00,0.0848
1014.00,0.0773
1013.00,0.0707
1012.00,0.0652
1011.00,0.0613
1010.00,0.0591
1009.00,0.0583
1008.00,0.0587
1007.00,0.0602
1006.00,0.0627
1005.00,0.0659
1004.00,0.0691
1003.00,0.0714
1002.00,0.0722
1001.00,0.0710
1000.00,0.0677
999.00,0.0626
998.00,0.0565
997.00,0.0505
996.00,0.0453
995.00,0.0413
994.00,0.0385
993.00,0.0367
992.00,0.0360
991.00,0.0361
990.00,0.0369
989.00,0.0381
988.00,0.0395
987.00,0.0408
986.00,0.0417
985.00,0.0420
984.00,0.0414
983.00,0.0399
982.00,0.0377
981.00,0.0355
980.00,0.0337
979.00,0.0324
978.00,0.0315
977.00,0.0308
976.00,0.0301
975.00,0.0294
974.00,0.0290
973.00,0.0288
972.00,0.0291
971.00,0.0298
970.00,0.0310
969.00,0.0324
968.00,0.0340
967.00,0.0358
966.00,0.0379
965.00,0.0404
964.00,0.0431
963.00,0.0459
962.00,0.0479
961.00,0.0484
960.00,0.0470
959.00,0.0441
958.00,0.0401
957.00,0.0360
956.00,0.0322
955.00,0.0291
954.00,0.0267
953.00,0.0249
952.00,0.0235
951.00,0.0224
950.00,0.0216
949.00,0.0210
948.00,0.0205
947.00,0.0201
946.00,0.0198
945.00,0.0195
944.00,0.0192
943.00,0.0189
942.00,0.0187
941.00,0.0185
940.00,0.0183
939.00,0.0182
938.00,0.0181
937.00,0.0180
936.00,0.0179
935.00,0.0181
934.00,0.0184
933.00,0.0188
932.00,0.0194
931.00,0.0200
930.00,0.0205
929.00,0.0208
928.00,0.0210
927.00,0.0210
926.00,0.0210
925.00,0.0210
924.00,0.0209
923.00,0.0208
922.00,0.0209
921.00,0.0211
920.00,0.0216
919.00,0.0225
918.00,0.0235
917.00,0.0246
916.00,0.0255
915.00,0.0259
914.00,0.0260
913.00,0.0257
912.00,0.0254
911.00,0.0255
910.00,0.0260
909.00,0.0271
908.00,0.0289
907.00,0.0314
906.00,0.0345
905.00,0.0382
904.00,0.0425
903.00,0.0476
902.00,0.0538
901.00,0.0617
900.00,0.0715
899.00,0.0826
898.00,0.0933
897.00,0.1009
896.00,0.1031
895.00,0.0998
894.00,0.0924
893.00,0.0835
892.00,0.0750
891.00,0.0684
890.00,0.0645
889.00,0.0641
888.00,0.0678
887.00,0.0761
886.00,0.0883
885.00,0.1020
884.00,0.1134
883.00,0.1180
882.00,0.1140
881.00,0.1032
880.00,0.0893
879.00,0.0760
878.00,0.0652
877.00,0.0574
876.00,0.0522
875.00,0.0492
874.00,0.0481
873.00,0.0487
872.00,0.0506
871.00,0.0529
870.00,0.0545
869.00,0.0546
868.00,0.0536
867.00,0.0525
866.00,0.0527
865.00,0.0549
864.00,0.0587
863.00,0.0630
862.00,0.0664
861.00,0.0678
860.00,0.0677
859.00,0.0668
858.00,0.0664
857.00,0.0671
856.00,0.0687
855.00,0.0708
854.00,0.0728
853.00,0.0746
852.00,0.0760
851.00,0.0766
850.00,0.0762
849.00,0.0744
848.00,0.0716
847.00,0.0685
846.00,0.0660
845.00,0.0642
844.00,0.0630
843.00,0.0619
842.00,0.0605
841.00,0.0589
840.00,0.0575
839.00,0.0566
838.00,0.0563
837.00,0.0567
836.00,0.0578
835.00,0.0595
834.00,0.0618
833.00,0.0646
832.00,0.0674
831.00,0.0702
830.00,0.0725
829.00,0.0743
828.00,0.0753
827.00,0.0751
826.00,0.0733
825.00,0.0701
824.00,0.0658
823.00,0.0609
822.00,0.0558
821.00,0.0508
820.00,0.0461
819.00,0.0420
818.00,0.0385
817.00,0.0360
816.00,0.0341
815.00,0.0327
814.00,0.0316
813.00,0.0307
812.00,0.0302
811.00,0.0303
810.00,0.0315
809.00,0.0345
808.00,0.0398
807.00,0.0473
806.00,0.0553
805.00,0.0613
804.00,0.0632
803.00,0.0607
802.00,0.0553
801.00,0.0492
800.00,0.0437
799.00,0.0392
798.00,0.0357
797.00,0.0331
796.00,0.0313
795.00,0.0302
794.00,0.0296
793.00,0.0292
792.00,0.0290
791.00,0.0287
790.00,0.0284
789.00,0.0281
788.00,0.0281
787.00,0.0283
786.00,0.0284
785.00,0.0282
784.00,0.0275
783.00,0.0266
782.00,0.0257
781.00,0.0250
780.00,0.0247
779.00,0.0245
778.00,0.0244
777.00,0.0243
776.00,0.0240
775.00,0.0237
774.00,0.0235
773.00,0.0236
772.00,0.0238
771.00,0.0241
770.00,0.0242
769.00,0.0239
768.00,0.0231
767.00,0.0221
766.00,0.0211
765.00,0.0201
764.00,0.0193
763.00,0.0187
762.00,0.0184
761.00,0.0182
760.00,0.0182
759.00,0.0183
758.00,0.0186
757.00,0.0193
756.00,0.0204
755.00,0.0221
754.00,0.0243
753.00,0.0266
752.00,0.0285
751.00,0.0300
750.00,0.0311
749.00,0.0316
748.00,0.0313
747.00,0.0299
746.00,0.0276
745.00,0.0252
744.00,0.0230
743.00,0.0214
742.00,0.0202
741.00,0.0195
740.00,0.0191
739.00,0.0190
738.00,0.0191
737.00,0.0196
736.00,0.0204
735.00,0.0217
734.00,0.0235
733.00,0.0257
732.00,0.0278
731.00,0.0291
730.00,0.0291
729.00,0.0279
728.00,0.0263
727.00,0.0248
726.00,0.0237
725.00,0.0231
724.00,0.0227
723.00,0.0224
722.00,0.0221
721.00,0.0218
720.00,0.0214
719.00,0.0209
718.00,0.0203
717.00,0.0195
716.00,0.0187
715.00,0.0180
714.00,0.0175
713.00,0.0173
712.00,0.0173
711.00,0.0173
710.00,0.0171
709.00,0.0168
708.00,0.0163
707.00,0.0158
706.00,0.0153
705.00,0.0149
704.00,0.0147
703.00,0.0146
702.00,0.0146
701.00,0.0146
700.00,0.0146
699.00,0.0145
698.00,0.0145
697.00,0.0144
696.00,0.0144
695.00,0.0144
694.00,0.0145
693.00,0.0145
692.00,0.0145
691.00,0.0146
690.00,0.0147
689.00,0.0148
688.00,0.0150
687.00,0.0151
686.00,0.0152
685.00,0.0153
684.00,0.0155
683.00,0.0158
682.00,0.0162
681.00,0.0166
680.00,0.0169
679.00,0.0173
678.00,0.0177
677.00,0.0183
676.00,0.0190
675.00,0.0198
674.00,0.0207
673.00,0.0217
672.00,0.0230
671.00,0.0245
670.00,0.0261
669.00,0.0276
668.00,0.0289
667.00,0.0297
666.00,0.0303
665.00,0.0308
664.00,0.0313
663.00,0.0318
662.00,0.0321
661.00,0.0322
660.00,0.0324
659.00,0.0324
658.00,0.0324
657.00,0.0322
656.00,0.0318
655.00,0.0314
654.00,0.0312
653.00,0.0315
652.00,0.0322
651.00,0.0333
650.00,0.0343
649.00,0.0349
648.00,0.0348
647.00,0.0340
646.00,0.0327
645.00,0.0310
644.00,0.0293
643.00,0.0278
642.00,0.0266
641.00,0.0257
640.00,0.0251
639.00,0.0247
638.00,0.0245
637.00,0.0245
636.00,0.0247
635.00,0.0251
634.00,0.0255
633.00,0.0260
632.00,0.0265
631.00,0.0273
630.00,0.0284
629.00,0.0296
628.00,0.0305
627.00,0.0310
626.00,0.0313
625.00,0.0315
624.00,0.0318
623.00,0.0319
622.00,0.0316
621.00,0.0305
620.00,0.0289
619.00,0.0270
618.00,0.0253
617.00,0.0244
616.00,0.0246
615.00,0.0261
614.00,0.0287
613.00,0.0320
612.00,0.0351
611.00,0.0371
610.00,0.0378
609.00,0.0372
608.00,0.0361
607.00,0.0355
606.00,0.0355
605.00,0.0362
604.00,0.0371
603.00,0.0381
602.00,0.0392
601.00,0.0405
600.00,0.0419
599.00,0.0432
598.00,0.0440
597.00,0.0442
596.00,0.0440
595.00,0.0441
594.00,0.0446
593.00,0.0458
592.00,0.0479
591.00,0.0505
590.00,0.0535
589.00,0.0564
588.00,0.0586
587.00,0.0600
586.00,0.0601
585.00,0.0592
584.00,0.0572
583.00,0.0546
582.00,0.0518
581.00,0.0490
580.00,0.0466
579.00,0.0448
578.00,0.0434
577.00,0.0426
576.00,0.0423
575.00,0.0425
574.00,0.0430
573.00,0.0437
572.00,0.0443
571.00,0.0450
570.00,0.0456
569.00,0.0462
568.00,0.0468
567.00,0.0473
566.00,0.0478
565.00,0.0481
564.00,0.0483
563.00,0.0485
562.00,0.0486
561.00,0.0486
560.00,0.0486
559.00,0.0484
558.00,0.0481
557.00,0.0477
556.00,0.0475
555.00,0.0476
554.00,0.0482
553.00,0.0494
552.00,0.0513
551.00,0.0534
550.00,0.0551
549.00,0.0563
548.00,0.0573
547.00,0.0586
546.00,0.0602
545.00,0.0619
544.00,0.0632
543.00,0.0640
542.00,0.0647
541.00,0.0659
540.00,0.0681
539.00,0.0713
538.00,0.0751
537.00,0.0786
536.00,0.0808
535.00,0.0814
534.00,0.0805
533.00,0.0788
532.00,0.0770
531.00,0.0754
530.00,0.0741
529.00,0.0736
528.00,0.0747
527.00,0.0777
526.00,0.0825
525.00,0.0881
524.00,0.0938
523.00,0.0984
522.00,0.1006
521.00,0.0993
520.00,0.0941
519.00,0.0863
518.00,0.0781
517.00,0.0712
516.00,0.0662
515.00,0.0631
514.00,0.0614
513.00,0.0608
512.00,0.0609
511.00,0.0615
510.00,0.0626
509.00,0.0642
508.00,0.0665
507.00,0.0695
506.00,0.0732
505.00,0.0773
504.00,0.0816
503.00,0.0858
502.00,0.0899
501.00,0.0937
500.00,0.0972
499.00,0.1004
498.00,0.1031
497.00,0.1053
496.00,0.1067
495.00,0.1075
494.00,0.1076
493.00,0.1073
492.00,0.1068
491.00,0.1061
490.00,0.1051
489.00,0.1042
488.00,0.1035
487.00,0.1031
486.00,0.1028
485.00,0.1023
484.00,0.1017
483.00,0.1007
482.00,0.0992
481.00,0.0971
480.00,0.0946
479.00,0.0920
478.00,0.0895
477.00,0.0877
476.00,0.0867
475.00,0.0865
474.00,0.0871
473.00,0.0884
472.00,0.0902
471.00,0.0921
470.00,0.0937
469.00,0.0951
468.00,0.0963
467.00,0.0972
466.00,0.0977
465.00,0.0979
464.00,0.0974
463.00,0.0962
462.00,0.0947
461.00,0.0939
460.00,0.0939
459.00,0.0942
458.00,0.0942
457.00,0.0938
456.00,0.0935
455.00,0.0934
454.00,0.0932
453.00,0.0929
452.00,0.0924
451.00,0.0912
450.00,0.0896
449.00,0.0879
448.00,0.0866
447.00,0.0856
446.00,0.0845
445.00,0.0832
444.00,0.0817
443.00,0.0803
442.00,0.0792
441.00,0.0784
440.00,0.0778
439.00,0.0772
438.00,0.0767
437.00,0.0766
436.00,0.0770
435.00,0.0774
434.00,0.0777
433.00,0.0779
432.00,0.0784
431.00,0.0798
430.00,0.0822
429.00,0.0857
428.00,0.0899
427.00,0.0943
426.00,0.0978
425.00,0.1002
424.00,0.1013
423.00,0.1011
422.00,0.0997
421.00,0.0976
420.00,0.0952
419.00,0.0938
418.00,0.0939
417.00,0.0949
416.00,0.0955
415.00,0.0956
414.00,0.0957
413.00,0.0968
412.00,0.0991
411.00,0.1019
410.00,0.1043
409.00,0.1061
408.00,0.1075
407.00,0.1088
406.00,0.1104
405.00,0.1126
404.00,0.1154
403.00,0.1176
402.00,0.1188
401.00,0.1196
400.00,0.1210
