Created as New Dataset,Sample 1081 By YargerLab Date Tuesday, August 05 2025
cm-1,A
4000.00,0.0002
3999.00,0.0002
3998.00,0.0001
3997.00,0.0001
3996.00,0.0001
3995.00,0.0001
3994.00,0.0001
3993.00,0.0002
3992.00,0.0002
3991.00,0.0002
3990.00,0.0002
3989.00,0.0002
3988.00,0.0002
3987.00,0.0001
3986.00,0.0001
3985.00,0.0001
3984.00,0.0002
3983.00,0.0002
3982.00,0.0002
3981.00,0.0002
3980.00,0.0001
3979.00,0.0001
3978.00,0.0001
3977.00,0.0001
3976.00,0.0001
3975.00,0.0001
3974.00,0.0001
3973.00,0.0001
3972.00,0.0001
3971.00,0.0001
3970.00,0.0001
3969.00,0.0001
3968.00,0.0001
3967.00,0.0001
3966.00,0.0001
3965.00,0.0001
3964.00,0.0001
3963.00,0.0002
3962.00,0.0002
3961.00,0.0002
3960.00,0.0002
3959.00,0.0002
3958.00,0.0002
3957.00,0.0002
3956.00,0.0001
3955.00,0.0001
3954.00,0.0001
3953.00,0.0001
3952.00,0.0002
3951.00,0.0002
3950.00,0.0002
3949.00,0.0002
3948.00,0.0002
3947.00,0.0002
3946.00,0.0002
3945.00,0.0002
3944.00,0.0002
3943.00,0.0002
3942.00,0.0002
3941.00,0.0002
3940.00,0.0002
3939.00,0.0001
3938.00,0.0001
3937.00,0.0001
3936.00,0.0001
3935.00,0.0002
3934.00,0.0002
3933.00,0.0002
3932.00,0.0002
3931.00,0.0002
3930.00,0.0002
3929.00,0.0002
3928.00,0.0002
3927.00,0.0002
3926.00,0.0002
3925.00,0.0002
3924.00,0.0002
3923.00,0.0002
3922.00,0.0002
3921.00,0.0002
3920.00,0.0002
3919.00,0.0002
3918.00,0.0002
3917.00,0.0002
3916.00,0.0002
3915.00,0.0002
3914.00,0.0002
3913.00,0.0002
3912.00,0.0002
3911.00,0.0002
3910.00,0.0002
3909.00,0.0002
3908.00,0.0002
3907.00,0.0003
3906.00,0.0003
3905.00,0.0003
3904.00,0.0003
3903.00,0.0004
3902.00,0.0004
3901.00,0.0004
3900.00,0.0004
3899.00,0.0003
3898.00,0.0003
3897.00,0.0003
3896.00,0.0003
3895.00,0.0003
3894.00,0.0002
3893.00,0.0002
3892.00,0.0002
3891.00,0.0002
3890.00,0.0003
3889.00,0.0003
3888.00,0.0003
3887.00,0.0003
3886.00,0.0003
3885.00,0.0003
3884.00,0.0003
3883.00,0.0003
3882.00,0.0004
3881.00,0.0004
3880.00,0.0003
3879.00,0.0003
3878.00,0.0003
3877.00,0.0003
3876.00,0.0003
3875.00,0.0003
3874.00,0.0003
3873.00,0.0003
3872.00,0.0004
3871.00,0.0004
3870.00,0.0004
3869.00,0.0004
3868.00,0.0005
3867.00,0.0005
3866.00,0.0005
3865.00,0.0004
3864.00,0.0004
3863.00,0.0004
3862.00,0.0004
3861.00,0.0004
3860.00,0.0003
3859.00,0.0003
3858.00,0.0004
3857.00,0.0004
3856.00,0.0005
3855.00,0.0006
3854.00,0.0007
3853.00,0.0006
3852.00,0.0006
3851.00,0.0006
3850.00,0.0006
3849.00,0.0005
3848.00,0.0004
3847.00,0.0003
3846.00,0.0003
3845.00,0.0003
3844.00,0.0003
3843.00,0.0003
3842.00,0.0004
3841.00,0.0004
3840.00,0.0005
3839.00,0.0005
3838.00,0.0005
3837.00,0.0005
3836.00,0.0006
3835.00,0.0006
3834.00,0.0006
3833.00,0.0005
3832.00,0.0005
3831.00,0.0004
3830.00,0.0004
3829.00,0.0003
3828.00,0.0003
3827.00,0.0003
3826.00,0.0003
3825.00,0.0004
3824.00,0.0004
3823.00,0.0005
3822.00,0.0005
3821.00,0.0005
3820.00,0.0005
3819.00,0.0006
3818.00,0.0006
3817.00,0.0006
3816.00,0.0006
3815.00,0.0005
3814.00,0.0005
3813.00,0.0005
3812.00,0.0004
3811.00,0.0004
3810.00,0.0003
3809.00,0.0003
3808.00,0.0003
3807.00,0.0004
3806.00,0.0004
3805.00,0.0005
3804.00,0.0005
3803.00,0.0006
3802.00,0.0006
3801.00,0.0006
3800.00,0.0006
3799.00,0.0006
3798.00,0.0006
3797.00,0.0005
3796.00,0.0004
3795.00,0.0003
3794.00,0.0003
3793.00,0.0003
3792.00,0.0002
3791.00,0.0002
3790.00,0.0002
3789.00,0.0002
3788.00,0.0002
3787.00,0.0003
3786.00,0.0003
3785.00,0.0003
3784.00,0.0003
3783.00,0.0003
3782.00,0.0003
3781.00,0.0002
3780.00,0.0002
3779.00,0.0002
3778.00,0.0002
3777.00,0.0002
3776.00,0.0002
3775.00,0.0002
3774.00,0.0003
3773.00,0.0003
3772.00,0.0003
3771.00,0.0003
3770.00,0.0003
3769.00,0.0003
3768.00,0.0003
3767.00,0.0004
3766.00,0.0004
3765.00,0.0004
3764.00,0.0004
3763.00,0.0004
3762.00,0.0004
3761.00,0.0004
3760.00,0.0004
3759.00,0.0003
3758.00,0.0003
3757.00,0.0004
3756.00,0.0004
3755.00,0.0005
3754.00,0.0006
3753.00,0.0007
3752.00,0.0007
3751.00,0.0007
3750.00,0.0007
3749.00,0.0007
3748.00,0.0008
3747.00,0.0008
3746.00,0.0008
3745.00,0.0007
3744.00,0.0006
3743.00,0.0006
3742.00,0.0006
3741.00,0.0005
3740.00,0.0005
3739.00,0.0005
3738.00,0.0005
3737.00,0.0006
3736.00,0.0006
3735.00,0.0006
3734.00,0.0006
3733.00,0.0005
3732.00,0.0005
3731.00,0.0004
3730.00,0.0004
3729.00,0.0003
3728.00,0.0003
3727.00,0.0003
3726.00,0.0003
3725.00,0.0003
3724.00,0.0003
3723.00,0.0003
3722.00,0.0003
3721.00,0.0002
3720.00,0.0002
3719.00,0.0002
3718.00,0.0002
3717.00,0.0002
3716.00,0.0003
3715.00,0.0003
3714.00,0.0003
3713.00,0.0004
3712.00,0.0004
3711.00,0.0004
3710.00,0.0004
3709.00,0.0004
3708.00,0.0003
3707.00,0.0003
3706.00,0.0002
3705.00,0.0002
3704.00,0.0002
3703.00,0.0002
3702.00,0.0002
3701.00,0.0001
3700.00,0.0002
3699.00,0.0002
3698.00,0.0002
3697.00,0.0002
3696.00,0.0002
3695.00,0.0002
3694.00,0.0002
3693.00,0.0003
3692.00,0.0003
3691.00,0.0004
3690.00,0.0004
3689.00,0.0005
3688.00,0.0005
3687.00,0.0005
3686.00,0.0005
3685.00,0.0004
3684.00,0.0003
3683.00,0.0003
3682.00,0.0003
3681.00,0.0003
3680.00,0.0004
3679.00,0.0004
3678.00,0.0005
3677.00,0.0005
3676.00,0.0005
3675.00,0.0005
3674.00,0.0006
3673.00,0.0006
3672.00,0.0007
3671.00,0.0006
3670.00,0.0005
3669.00,0.0005
3668.00,0.0005
3667.00,0.0005
3666.00,0.0004
3665.00,0.0004
3664.00,0.0003
3663.00,0.0003
3662.00,0.0003
3661.00,0.0003
3660.00,0.0004
3659.00,0.0004
3658.00,0.0004
3657.00,0.0004
3656.00,0.0004
3655.00,0.0004
3654.00,0.0005
3653.00,0.0006
3652.00,0.0007
3651.00,0.0007
3650.00,0.0007
3649.00,0.0007
3648.00,0.0007
3647.00,0.0007
3646.00,0.0006
3645.00,0.0005
3644.00,0.0005
3643.00,0.0004
3642.00,0.0003
3641.00,0.0003
3640.00,0.0003
3639.00,0.0003
3638.00,0.0003
3637.00,0.0003
3636.00,0.0003
3635.00,0.0003
3634.00,0.0003
3633.00,0.0003
3632.00,0.0003
3631.00,0.0004
3630.00,0.0004
3629.00,0.0004
3628.00,0.0004
3627.00,0.0004
3626.00,0.0004
3625.00,0.0004
3624.00,0.0004
3623.00,0.0004
3622.00,0.0004
3621.00,0.0004
3620.00,0.0004
3619.00,0.0004
3618.00,0.0004
3617.00,0.0004
3616.00,0.0004
3615.00,0.0005
3614.00,0.0004
3613.00,0.0004
3612.00,0.0005
3611.00,0.0005
3610.00,0.0005
3609.00,0.0005
3608.00,0.0005
3607.00,0.0005
3606.00,0.0004
3605.00,0.0004
3604.00,0.0004
3603.00,0.0004
3602.00,0.0004
3601.00,0.0004
3600.00,0.0004
3599.00,0.0004
3598.00,0.0004
3597.00,0.0004
3596.00,0.0004
3595.00,0.0004
3594.00,0.0004
3593.00,0.0004
3592.00,0.0005
3591.00,0.0005
3590.00,0.0005
3589.00,0.0005
3588.00,0.0005
3587.00,0.0005
3586.00,0.0005
3585.00,0.0005
3584.00,0.0005
3583.00,0.0005
3582.00,0.0005
3581.00,0.0005
3580.00,0.0005
3579.00,0.0006
3578.00,0.0006
3577.00,0.0006
3576.00,0.0006
3575.00,0.0006
3574.00,0.0005
3573.00,0.0005
3572.00,0.0005
3571.00,0.0006
3570.00,0.0006
3569.00,0.0006
3568.00,0.0006
3567.00,0.0006
3566.00,0.0005
3565.00,0.0006
3564.00,0.0006
3563.00,0.0006
3562.00,0.0006
3561.00,0.0006
3560.00,0.0006
3559.00,0.0006
3558.00,0.0006
3557.00,0.0006
3556.00,0.0006
3555.00,0.0006
3554.00,0.0006
3553.00,0.0006
3552.00,0.0006
3551.00,0.0006
3550.00,0.0006
3549.00,0.0006
3548.00,0.0006
3547.00,0.0006
3546.00,0.0006
3545.00,0.0007
3544.00,0.0007
3543.00,0.0007
3542.00,0.0007
3541.00,0.0007
3540.00,0.0007
3539.00,0.0007
3538.00,0.0007
3537.00,0.0007
3536.00,0.0007
3535.00,0.0007
3534.00,0.0008
3533.00,0.0008
3532.00,0.0008
3531.00,0.0009
3530.00,0.0009
3529.00,0.0009
3528.00,0.0009
3527.00,0.0009
3526.00,0.0009
3525.00,0.0009
3524.00,0.0009
3523.00,0.0009
3522.00,0.0009
3521.00,0.0009
3520.00,0.0009
3519.00,0.0009
3518.00,0.0009
3517.00,0.0009
3516.00,0.0009
3515.00,0.0009
3514.00,0.0009
3513.00,0.0009
3512.00,0.0009
3511.00,0.0009
3510.00,0.0009
3509.00,0.0009
3508.00,0.0009
3507.00,0.0009
3506.00,0.0009
3505.00,0.0010
3504.00,0.0010
3503.00,0.0010
3502.00,0.0010
3501.00,0.0010
3500.00,0.0010
3499.00,0.0010
3498.00,0.0010
3497.00,0.0010
3496.00,0.0010
3495.00,0.0010
3494.00,0.0010
3493.00,0.0010
3492.00,0.0010
3491.00,0.0011
3490.00,0.0011
3489.00,0.0011
3488.00,0.0011
3487.00,0.0011
3486.00,0.0011
3485.00,0.0010
3484.00,0.0011
3483.00,0.0011
3482.00,0.0011
3481.00,0.0011
3480.00,0.0012
3479.00,0.0012
3478.00,0.0012
3477.00,0.0012
3476.00,0.0012
3475.00,0.0012
3474.00,0.0012
3473.00,0.0012
3472.00,0.0012
3471.00,0.0012
3470.00,0.0012
3469.00,0.0012
3468.00,0.0012
3467.00,0.0012
3466.00,0.0012
3465.00,0.0012
3464.00,0.0012
3463.00,0.0012
3462.00,0.0012
3461.00,0.0013
3460.00,0.0013
3459.00,0.0013
3458.00,0.0013
3457.00,0.0013
3456.00,0.0013
3455.00,0.0013
3454.00,0.0013
3453.00,0.0013
3452.00,0.0013
3451.00,0.0013
3450.00,0.0013
3449.00,0.0013
3448.00,0.0013
3447.00,0.0013
3446.00,0.0014
3445.00,0.0014
3444.00,0.0014
3443.00,0.0014
3442.00,0.0013
3441.00,0.0013
3440.00,0.0013
3439.00,0.0013
3438.00,0.0013
3437.00,0.0013
3436.00,0.0013
3435.00,0.0013
3434.00,0.0013
3433.00,0.0014
3432.00,0.0014
3431.00,0.0014
3430.00,0.0014
3429.00,0.0014
3428.00,0.0014
3427.00,0.0014
3426.00,0.0014
3425.00,0.0014
3424.00,0.0014
3423.00,0.0014
3422.00,0.0014
3421.00,0.0014
3420.00,0.0014
3419.00,0.0014
3418.00,0.0014
3417.00,0.0014
3416.00,0.0014
3415.00,0.0014
3414.00,0.0014
3413.00,0.0014
3412.00,0.0014
3411.00,0.0014
3410.00,0.0014
3409.00,0.0014
3408.00,0.0014
3407.00,0.0014
3406.00,0.0014
3405.00,0.0015
3404.00,0.0015
3403.00,0.0015
3402.00,0.0015
3401.00,0.0015
3400.00,0.0014
3399.00,0.0014
3398.00,0.0014
3397.00,0.0014
3396.00,0.0014
3395.00,0.0014
3394.00,0.0014
3393.00,0.0014
3392.00,0.0014
3391.00,0.0014
3390.00,0.0014
3389.00,0.0014
3388.00,0.0014
3387.00,0.0014
3386.00,0.0014
3385.00,0.0014
3384.00,0.0014
3383.00,0.0014
3382.00,0.0014
3381.00,0.0014
3380.00,0.0014
3379.00,0.0014
3378.00,0.0014
3377.00,0.0014
3376.00,0.0014
3375.00,0.0014
3374.00,0.0014
3373.00,0.0014
3372.00,0.0014
3371.00,0.0014
3370.00,0.0014
3369.00,0.0014
3368.00,0.0014
3367.00,0.0014
3366.00,0.0014
3365.00,0.0014
3364.00,0.0014
3363.00,0.0014
3362.00,0.0014
3361.00,0.0014
3360.00,0.0014
3359.00,0.0014
3358.00,0.0014
3357.00,0.0014
3356.00,0.0013
3355.00,0.0014
3354.00,0.0014
3353.00,0.0014
3352.00,0.0014
3351.00,0.0014
3350.00,0.0013
3349.00,0.0013
3348.00,0.0013
3347.00,0.0013
3346.00,0.0014
3345.00,0.0014
3344.00,0.0014
3343.00,0.0014
3342.00,0.0014
3341.00,0.0014
3340.00,0.0013
3339.00,0.0013
3338.00,0.0013
3337.00,0.0013
3336.00,0.0013
3335.00,0.0013
3334.00,0.0013
3333.00,0.0013
3332.00,0.0013
3331.00,0.0013
3330.00,0.0013
3329.00,0.0013
3328.00,0.0013
3327.00,0.0013
3326.00,0.0013
3325.00,0.0013
3324.00,0.0013
3323.00,0.0013
3322.00,0.0013
3321.00,0.0013
3320.00,0.0012
3319.00,0.0012
3318.00,0.0013
3317.00,0.0013
3316.00,0.0013
3315.00,0.0013
3314.00,0.0013
3313.00,0.0013
3312.00,0.0013
3311.00,0.0013
3310.00,0.0013
3309.00,0.0013
3308.00,0.0013
3307.00,0.0013
3306.00,0.0013
3305.00,0.0013
3304.00,0.0013
3303.00,0.0013
3302.00,0.0013
3301.00,0.0012
3300.00,0.0012
3299.00,0.0012
3298.00,0.0012
3297.00,0.0012
3296.00,0.0012
3295.00,0.0012
3294.00,0.0012
3293.00,0.0013
3292.00,0.0013
3291.00,0.0013
3290.00,0.0013
3289.00,0.0012
3288.00,0.0012
3287.00,0.0012
3286.00,0.0012
3285.00,0.0012
3284.00,0.0012
3283.00,0.0012
3282.00,0.0012
3281.00,0.0012
3280.00,0.0012
3279.00,0.0012
3278.00,0.0012
3277.00,0.0012
3276.00,0.0012
3275.00,0.0012
3274.00,0.0012
3273.00,0.0012
3272.00,0.0012
3271.00,0.0012
3270.00,0.0012
3269.00,0.0012
3268.00,0.0012
3267.00,0.0012
3266.00,0.0012
3265.00,0.0012
3264.00,0.0012
3263.00,0.0012
3262.00,0.0012
3261.00,0.0012
3260.00,0.0012
3259.00,0.0012
3258.00,0.0012
3257.00,0.0012
3256.00,0.0012
3255.00,0.0012
3254.00,0.0012
3253.00,0.0011
3252.00,0.0011
3251.00,0.0011
3250.00,0.0011
3249.00,0.0011
3248.00,0.0011
3247.00,0.0011
3246.00,0.0011
3245.00,0.0011
3244.00,0.0011
3243.00,0.0011
3242.00,0.0011
3241.00,0.0011
3240.00,0.0011
3239.00,0.0011
3238.00,0.0011
3237.00,0.0011
3236.00,0.0010
3235.00,0.0010
3234.00,0.0010
3233.00,0.0010
3232.00,0.0010
3231.00,0.0010
3230.00,0.0010
3229.00,0.0010
3228.00,0.0010
3227.00,0.0010
3226.00,0.0010
3225.00,0.0010
3224.00,0.0010
3223.00,0.0010
3222.00,0.0010
3221.00,0.0010
3220.00,0.0010
3219.00,0.0010
3218.00,0.0010
3217.00,0.0010
3216.00,0.0009
3215.00,0.0009
3214.00,0.0009
3213.00,0.0010
3212.00,0.0010
3211.00,0.0010
3210.00,0.0010
3209.00,0.0010
3208.00,0.0010
3207.00,0.0010
3206.00,0.0009
3205.00,0.0009
3204.00,0.0009
3203.00,0.0009
3202.00,0.0009
3201.00,0.0009
3200.00,0.0009
3199.00,0.0009
3198.00,0.0009
3197.00,0.0009
3196.00,0.0009
3195.00,0.0009
3194.00,0.0009
3193.00,0.0009
3192.00,0.0009
3191.00,0.0009
3190.00,0.0008
3189.00,0.0008
3188.00,0.0008
3187.00,0.0008
3186.00,0.0008
3185.00,0.0008
3184.00,0.0008
3183.00,0.0008
3182.00,0.0008
3181.00,0.0008
3180.00,0.0008
3179.00,0.0008
3178.00,0.0008
3177.00,0.0008
3176.00,0.0008
3175.00,0.0008
3174.00,0.0008
3173.00,0.0008
3172.00,0.0008
3171.00,0.0008
3170.00,0.0008
3169.00,0.0008
3168.00,0.0008
3167.00,0.0008
3166.00,0.0008
3165.00,0.0008
3164.00,0.0008
3163.00,0.0008
3162.00,0.0008
3161.00,0.0008
3160.00,0.0008
3159.00,0.0008
3158.00,0.0008
3157.00,0.0008
3156.00,0.0008
3155.00,0.0008
3154.00,0.0008
3153.00,0.0008
3152.00,0.0007
3151.00,0.0007
3150.00,0.0007
3149.00,0.0007
3148.00,0.0007
3147.00,0.0007
3146.00,0.0007
3145.00,0.0007
3144.00,0.0007
3143.00,0.0007
3142.00,0.0007
3141.00,0.0007
3140.00,0.0007
3139.00,0.0007
3138.00,0.0007
3137.00,0.0007
3136.00,0.0007
3135.00,0.0007
3134.00,0.0007
3133.00,0.0007
3132.00,0.0007
3131.00,0.0007
3130.00,0.0006
3129.00,0.0006
3128.00,0.0006
3127.00,0.0006
3126.00,0.0006
3125.00,0.0007
3124.00,0.0007
3123.00,0.0007
3122.00,0.0007
3121.00,0.0007
3120.00,0.0007
3119.00,0.0008
3118.00,0.0008
3117.00,0.0008
3116.00,0.0008
3115.00,0.0009
3114.00,0.0009
3113.00,0.0010
3112.00,0.0010
3111.00,0.0011
3110.00,0.0012
3109.00,0.0013
3108.00,0.0014
3107.00,0.0015
3106.00,0.0016
3105.00,0.0016
3104.00,0.0017
3103.00,0.0017
3102.00,0.0017
3101.00,0.0017
3100.00,0.0016
3099.00,0.0016
3098.00,0.0016
3097.00,0.0015
3096.00,0.0015
3095.00,0.0016
3094.00,0.0016
3093.00,0.0017
3092.00,0.0018
3091.00,0.0019
3090.00,0.0021
3089.00,0.0024
3088.00,0.0027
3087.00,0.0030
3086.00,0.0033
3085.00,0.0036
3084.00,0.0039
3083.00,0.0041
3082.00,0.0042
3081.00,0.0041
3080.00,0.0040
3079.00,0.0038
3078.00,0.0036
3077.00,0.0034
3076.00,0.0032
3075.00,0.0031
3074.00,0.0030
3073.00,0.0029
3072.00,0.0030
3071.00,0.0030
3070.00,0.0031
3069.00,0.0033
3068.00,0.0035
3067.00,0.0037
3066.00,0.0040
3065.00,0.0044
3064.00,0.0047
3063.00,0.0050
3062.00,0.0053
3061.00,0.0055
3060.00,0.0056
3059.00,0.0056
3058.00,0.0055
3057.00,0.0053
3056.00,0.0050
3055.00,0.0047
3054.00,0.0044
3053.00,0.0041
3052.00,0.0039
3051.00,0.0036
3050.00,0.0034
3049.00,0.0032
3048.00,0.0030
3047.00,0.0029
3046.00,0.0029
3045.00,0.0029
3044.00,0.0029
3043.00,0.0029
3042.00,0.0030
3041.00,0.0031
3040.00,0.0033
3039.00,0.0035
3038.00,0.0037
3037.00,0.0040
3036.00,0.0044
3035.00,0.0049
3034.00,0.0054
3033.00,0.0061
3032.00,0.0068
3031.00,0.0075
3030.00,0.0083
3029.00,0.0091
3028.00,0.0099
3027.00,0.0105
3026.00,0.0109
3025.00,0.0110
3024.00,0.0108
3023.00,0.0104
3022.00,0.0098
3021.00,0.0089
3020.00,0.0080
3019.00,0.0070
3018.00,0.0061
3017.00,0.0053
3016.00,0.0046
3015.00,0.0041
3014.00,0.0037
3013.00,0.0033
3012.00,0.0031
3011.00,0.0029
3010.00,0.0028
3009.00,0.0028
3008.00,0.0028
3007.00,0.0029
3006.00,0.0029
3005.00,0.0031
3004.00,0.0032
3003.00,0.0033
3002.00,0.0034
3001.00,0.0035
3000.00,0.0035
2999.00,0.0035
2998.00,0.0033
2997.00,0.0032
2996.00,0.0030
2995.00,0.0028
2994.00,0.0026
2993.00,0.0025
2992.00,0.0025
2991.00,0.0024
2990.00,0.0024
2989.00,0.0024
2988.00,0.0024
2987.00,0.0025
2986.00,0.0026
2985.00,0.0027
2984.00,0.0028
2983.00,0.0029
2982.00,0.0030
2981.00,0.0031
2980.00,0.0032
2979.00,0.0032
2978.00,0.0032
2977.00,0.0033
2976.00,0.0033
2975.00,0.0034
2974.00,0.0035
2973.00,0.0035
2972.00,0.0036
2971.00,0.0037
2970.00,0.0037
2969.00,0.0037
2968.00,0.0038
2967.00,0.0038
2966.00,0.0038
2965.00,0.0038
2964.00,0.0038
2963.00,0.0038
2962.00,0.0038
2961.00,0.0039
2960.00,0.0039
2959.00,0.0039
2958.00,0.0040
2957.00,0.0040
2956.00,0.0041
2955.00,0.0041
2954.00,0.0042
2953.00,0.0043
2952.00,0.0044
2951.00,0.0045
2950.00,0.0047
2949.00,0.0048
2948.00,0.0050
2947.00,0.0053
2946.00,0.0055
2945.00,0.0058
2944.00,0.0061
2943.00,0.0064
2942.00,0.0067
2941.00,0.0071
2940.00,0.0074
2939.00,0.0079
2938.00,0.0083
2937.00,0.0087
2936.00,0.0092
2935.00,0.0096
2934.00,0.0101
2933.00,0.0106
2932.00,0.0111
2931.00,0.0115
2930.00,0.0120
2929.00,0.0124
2928.00,0.0128
2927.00,0.0131
2926.00,0.0134
2925.00,0.0137
2924.00,0.0139
2923.00,0.0140
2922.00,0.0141
2921.00,0.0142
2920.00,0.0142
2919.00,0.0141
2918.00,0.0140
2917.00,0.0138
2916.00,0.0136
2915.00,0.0133
2914.00,0.0129
2913.00,0.0126
2912.00,0.0123
2911.00,0.0119
2910.00,0.0115
2909.00,0.0112
2908.00,0.0108
2907.00,0.0105
2906.00,0.0102
2905.00,0.0098
2904.00,0.0095
2903.00,0.0091
2902.00,0.0088
2901.00,0.0084
2900.00,0.0081
2899.00,0.0077
2898.00,0.0074
2897.00,0.0071
2896.00,0.0068
2895.00,0.0066
2894.00,0.0064
2893.00,0.0062
2892.00,0.0060
2891.00,0.0058
2890.00,0.0057
2889.00,0.0055
2888.00,0.0054
2887.00,0.0053
2886.00,0.0052
2885.00,0.0051
2884.00,0.0050
2883.00,0.0048
2882.00,0.0047
2881.00,0.0046
2880.00,0.0045
2879.00,0.0044
2878.00,0.0043
2877.00,0.0042
2876.00,0.0040
2875.00,0.0039
2874.00,0.0039
2873.00,0.0038
2872.00,0.0038
2871.00,0.0037
2870.00,0.0037
2869.00,0.0037
2868.00,0.0037
2867.00,0.0038
2866.00,0.0038
2865.00,0.0038
2864.00,0.0039
2863.00,0.0040
2862.00,0.0041
2861.00,0.0043
2860.00,0.0044
2859.00,0.0046
2858.00,0.0048
2857.00,0.0050
2856.00,0.0052
2855.00,0.0054
2854.00,0.0056
2853.00,0.0058
2852.00,0.0060
2851.00,0.0062
2850.00,0.0063
2849.00,0.0063
2848.00,0.0062
2847.00,0.0061
2846.00,0.0058
2845.00,0.0055
2844.00,0.0052
2843.00,0.0049
2842.00,0.0045
2841.00,0.0042
2840.00,0.0038
2839.00,0.0034
2838.00,0.0031
2837.00,0.0027
2836.00,0.0025
2835.00,0.0022
2834.00,0.0020
2833.00,0.0018
2832.00,0.0017
2831.00,0.0016
2830.00,0.0015
2829.00,0.0014
2828.00,0.0014
2827.00,0.0013
2826.00,0.0012
2825.00,0.0012
2824.00,0.0012
2823.00,0.0011
2822.00,0.0011
2821.00,0.0011
2820.00,0.0011
2819.00,0.0010
2818.00,0.0010
2817.00,0.0010
2816.00,0.0010
2815.00,0.0010
2814.00,0.0010
2813.00,0.0009
2812.00,0.0009
2811.00,0.0009
2810.00,0.0009
2809.00,0.0009
2808.00,0.0009
2807.00,0.0009
2806.00,0.0009
2805.00,0.0009
2804.00,0.0009
2803.00,0.0009
2802.00,0.0009
2801.00,0.0009
2800.00,0.0009
2799.00,0.0008
2798.00,0.0008
2797.00,0.0008
2796.00,0.0008
2795.00,0.0008
2794.00,0.0008
2793.00,0.0008
2792.00,0.0008
2791.00,0.0007
2790.00,0.0007
2789.00,0.0007
2788.00,0.0007
2787.00,0.0007
2786.00,0.0007
2785.00,0.0007
2784.00,0.0007
2783.00,0.0007
2782.00,0.0007
2781.00,0.0007
2780.00,0.0007
2779.00,0.0007
2778.00,0.0007
2777.00,0.0007
2776.00,0.0007
2775.00,0.0007
2774.00,0.0007
2773.00,0.0006
2772.00,0.0006
2771.00,0.0006
2770.00,0.0006
2769.00,0.0006
2768.00,0.0006
2767.00,0.0006
2766.00,0.0006
2765.00,0.0006
2764.00,0.0006
2763.00,0.0006
2762.00,0.0006
2761.00,0.0006
2760.00,0.0006
2759.00,0.0006
2758.00,0.0006
2757.00,0.0006
2756.00,0.0005
2755.00,0.0005
2754.00,0.0005
2753.00,0.0005
2752.00,0.0005
2751.00,0.0005
2750.00,0.0005
2749.00,0.0005
2748.00,0.0005
2747.00,0.0006
2746.00,0.0006
2745.00,0.0006
2744.00,0.0006
2743.00,0.0006
2742.00,0.0006
2741.00,0.0005
2740.00,0.0005
2739.00,0.0005
2738.00,0.0005
2737.00,0.0005
2736.00,0.0005
2735.00,0.0005
2734.00,0.0006
2733.00,0.0006
2732.00,0.0006
2731.00,0.0006
2730.00,0.0006
2729.00,0.0006
2728.00,0.0006
2727.00,0.0006
2726.00,0.0006
2725.00,0.0006
2724.00,0.0006
2723.00,0.0006
2722.00,0.0005
2721.00,0.0005
2720.00,0.0005
2719.00,0.0006
2718.00,0.0006
2717.00,0.0006
2716.00,0.0006
2715.00,0.0006
2714.00,0.0006
2713.00,0.0006
2712.00,0.0006
2711.00,0.0006
2710.00,0.0006
2709.00,0.0005
2708.00,0.0005
2707.00,0.0005
2706.00,0.0005
2705.00,0.0005
2704.00,0.0005
2703.00,0.0005
2702.00,0.0005
2701.00,0.0005
2700.00,0.0005
2699.00,0.0005
2698.00,0.0005
2697.00,0.0006
2696.00,0.0006
2695.00,0.0006
2694.00,0.0006
2693.00,0.0006
2692.00,0.0005
2691.00,0.0005
2690.00,0.0005
2689.00,0.0005
2688.00,0.0006
2687.00,0.0006
2686.00,0.0006
2685.00,0.0006
2684.00,0.0006
2683.00,0.0006
2682.00,0.0006
2681.00,0.0006
2680.00,0.0005
2679.00,0.0005
2678.00,0.0005
2677.00,0.0005
2676.00,0.0005
2675.00,0.0005
2674.00,0.0005
2673.00,0.0005
2672.00,0.0005
2671.00,0.0005
2670.00,0.0006
2669.00,0.0006
2668.00,0.0006
2667.00,0.0006
2666.00,0.0007
2665.00,0.0007
2664.00,0.0007
2663.00,0.0008
2662.00,0.0009
2661.00,0.0009
2660.00,0.0009
2659.00,0.0010
2658.00,0.0010
2657.00,0.0010
2656.00,0.0010
2655.00,0.0010
2654.00,0.0010
2653.00,0.0010
2652.00,0.0011
2651.00,0.0011
2650.00,0.0011
2649.00,0.0011
2648.00,0.0011
2647.00,0.0011
2646.00,0.0011
2645.00,0.0011
2644.00,0.0011
2643.00,0.0011
2642.00,0.0011
2641.00,0.0011
2640.00,0.0011
2639.00,0.0011
2638.00,0.0011
2637.00,0.0011
2636.00,0.0011
2635.00,0.0011
2634.00,0.0011
2633.00,0.0011
2632.00,0.0011
2631.00,0.0011
2630.00,0.0010
2629.00,0.0010
2628.00,0.0010
2627.00,0.0010
2626.00,0.0010
2625.00,0.0010
2624.00,0.0010
2623.00,0.0010
2622.00,0.0010
2621.00,0.0009
2620.00,0.0009
2619.00,0.0009
2618.00,0.0009
2617.00,0.0009
2616.00,0.0009
2615.00,0.0009
2614.00,0.0009
2613.00,0.0009
2612.00,0.0009
2611.00,0.0009
2610.00,0.0009
2609.00,0.0009
2608.00,0.0009
2607.00,0.0009
2606.00,0.0009
2605.00,0.0009
2604.00,0.0009
2603.00,0.0008
2602.00,0.0008
2601.00,0.0008
2600.00,0.0008
2599.00,0.0008
2598.00,0.0008
2597.00,0.0008
2596.00,0.0007
2595.00,0.0007
2594.00,0.0007
2593.00,0.0007
2592.00,0.0007
2591.00,0.0007
2590.00,0.0007
2589.00,0.0007
2588.00,0.0007
2587.00,0.0007
2586.00,0.0007
2585.00,0.0007
2584.00,0.0007
2583.00,0.0007
2582.00,0.0007
2581.00,0.0006
2580.00,0.0006
2579.00,0.0006
2578.00,0.0006
2577.00,0.0006
2576.00,0.0006
2575.00,0.0006
2574.00,0.0006
2573.00,0.0006
2572.00,0.0006
2571.00,0.0006
2570.00,0.0006
2569.00,0.0006
2568.00,0.0006
2567.00,0.0006
2566.00,0.0006
2565.00,0.0006
2564.00,0.0005
2563.00,0.0005
2562.00,0.0005
2561.00,0.0005
2560.00,0.0005
2559.00,0.0005
2558.00,0.0005
2557.00,0.0005
2556.00,0.0005
2555.00,0.0004
2554.00,0.0004
2553.00,0.0004
2552.00,0.0004
2551.00,0.0004
2550.00,0.0004
2549.00,0.0003
2548.00,0.0003
2547.00,0.0003
2546.00,0.0003
2545.00,0.0003
2544.00,0.0003
2543.00,0.0004
2542.00,0.0004
2541.00,0.0004
2540.00,0.0004
2539.00,0.0004
2538.00,0.0004
2537.00,0.0004
2536.00,0.0004
2535.00,0.0004
2534.00,0.0003
2533.00,0.0003
2532.00,0.0004
2531.00,0.0004
2530.00,0.0004
2529.00,0.0004
2528.00,0.0004
2527.00,0.0003
2526.00,0.0003
2525.00,0.0003
2524.00,0.0003
2523.00,0.0003
2522.00,0.0003
2521.00,0.0003
2520.00,0.0003
2519.00,0.0003
2518.00,0.0004
2517.00,0.0004
2516.00,0.0004
2515.00,0.0004
2514.00,0.0004
2513.00,0.0004
2512.00,0.0003
2511.00,0.0003
2510.00,0.0003
2509.00,0.0003
2508.00,0.0003
2507.00,0.0003
2506.00,0.0003
2505.00,0.0003
2504.00,0.0002
2503.00,0.0002
2502.00,0.0002
2501.00,0.0003
2500.00,0.0003
2499.00,0.0003
2498.00,0.0003
2497.00,0.0002
2496.00,0.0002
2495.00,0.0002
2494.00,0.0002
2493.00,0.0002
2492.00,0.0002
2491.00,0.0002
2490.00,0.0003
2489.00,0.0003
2488.00,0.0003
2487.00,0.0003
2486.00,0.0003
2485.00,0.0002
2484.00,0.0003
2483.00,0.0003
2482.00,0.0003
2481.00,0.0002
2480.00,0.0002
2479.00,0.0002
2478.00,0.0002
2477.00,0.0002
2476.00,0.0002
2475.00,0.0002
2474.00,0.0002
2473.00,0.0002
2472.00,0.0002
2471.00,0.0002
2470.00,0.0002
2469.00,0.0002
2468.00,0.0002
2467.00,0.0002
2466.00,0.0002
2465.00,0.0002
2464.00,0.0002
2463.00,0.0002
2462.00,0.0002
2461.00,0.0002
2460.00,0.0002
2459.00,0.0003
2458.00,0.0003
2457.00,0.0003
2456.00,0.0003
2455.00,0.0003
2454.00,0.0003
2453.00,0.0003
2452.00,0.0003
2451.00,0.0003
2450.00,0.0002
2449.00,0.0002
2448.00,0.0002
2447.00,0.0002
2446.00,0.0002
2445.00,0.0002
2444.00,0.0002
2443.00,0.0001
2442.00,0.0001
2441.00,0.0001
2440.00,0.0001
2439.00,0.0001
2438.00,0.0001
2437.00,0.0001
2436.00,0.0001
2435.00,0.0001
2434.00,0.0001
2433.00,0.0001
2432.00,0.0000
2431.00,0.0000
2430.00,-0.0000
2429.00,0.0000
2428.00,0.0000
2427.00,0.0001
2426.00,0.0001
2425.00,0.0000
2424.00,0.0000
2423.00,-0.0000
2422.00,-0.0000
2421.00,-0.0000
2420.00,-0.0000
2419.00,0.0000
2418.00,0.0000
2417.00,0.0000
2416.00,0.0000
2415.00,0.0000
2414.00,0.0000
2413.00,0.0000
2412.00,0.0000
2411.00,0.0000
2410.00,0.0000
2409.00,-0.0000
2408.00,-0.0001
2407.00,-0.0001
2406.00,-0.0002
2405.00,-0.0002
2404.00,-0.0002
2403.00,-0.0002
2402.00,-0.0002
2401.00,-0.0002
2400.00,-0.0002
2399.00,-0.0001
2398.00,-0.0002
2397.00,-0.0002
2396.00,-0.0001
2395.00,-0.0001
2394.00,-0.0002
2393.00,-0.0002
2392.00,-0.0002
2391.00,-0.0002
2390.00,-0.0002
2389.00,-0.0002
2388.00,-0.0002
2387.00,-0.0002
2386.00,-0.0002
2385.00,-0.0002
2384.00,-0.0003
2383.00,-0.0003
2382.00,-0.0003
2381.00,-0.0004
2380.00,-0.0004
2379.00,-0.0004
2378.00,-0.0004
2377.00,-0.0004
2376.00,-0.0004
2375.00,-0.0004
2374.00,-0.0004
2373.00,-0.0004
2372.00,-0.0004
2371.00,-0.0004
2370.00,-0.0005
2369.00,-0.0005
2368.00,-0.0005
2367.00,-0.0005
2366.00,-0.0004
2365.00,-0.0004
2364.00,-0.0004
2363.00,-0.0003
2362.00,-0.0003
2361.00,-0.0004
2360.00,-0.0004
2359.00,-0.0003
2358.00,-0.0003
2357.00,-0.0003
2356.00,-0.0003
2355.00,-0.0002
2354.00,-0.0002
2353.00,-0.0002
2352.00,-0.0002
2351.00,-0.0002
2350.00,-0.0002
2349.00,-0.0002
2348.00,-0.0001
2347.00,-0.0001
2346.00,-0.0000
2345.00,0.0000
2344.00,0.0000
2343.00,0.0001
2342.00,0.0001
2341.00,0.0001
2340.00,0.0001
2339.00,0.0002
2338.00,0.0002
2337.00,0.0002
2336.00,0.0002
2335.00,0.0002
2334.00,0.0002
2333.00,0.0002
2332.00,0.0002
2331.00,0.0002
2330.00,0.0003
2329.00,0.0004
2328.00,0.0006
2327.00,0.0009
2326.00,0.0013
2325.00,0.0014
2324.00,0.0014
2323.00,0.0013
2322.00,0.0011
2321.00,0.0010
2320.00,0.0009
2319.00,0.0008
2318.00,0.0008
2317.00,0.0007
2316.00,0.0007
2315.00,0.0007
2314.00,0.0007
2313.00,0.0007
2312.00,0.0007
2311.00,0.0006
2310.00,0.0006
2309.00,0.0005
2308.00,0.0005
2307.00,0.0005
2306.00,0.0005
2305.00,0.0006
2304.00,0.0006
2303.00,0.0007
2302.00,0.0007
2301.00,0.0007
2300.00,0.0007
2299.00,0.0007
2298.00,0.0007
2297.00,0.0007
2296.00,0.0007
2295.00,0.0008
2294.00,0.0008
2293.00,0.0009
2292.00,0.0010
2291.00,0.0011
2290.00,0.0012
2289.00,0.0012
2288.00,0.0013
2287.00,0.0013
2286.00,0.0012
2285.00,0.0012
2284.00,0.0011
2283.00,0.0010
2282.00,0.0009
2281.00,0.0009
2280.00,0.0009
2279.00,0.0009
2278.00,0.0008
2277.00,0.0008
2276.00,0.0008
2275.00,0.0008
2274.00,0.0008
2273.00,0.0008
2272.00,0.0008
2271.00,0.0007
2270.00,0.0006
2269.00,0.0006
2268.00,0.0005
2267.00,0.0005
2266.00,0.0004
2265.00,0.0004
2264.00,0.0004
2263.00,0.0004
2262.00,0.0004
2261.00,0.0005
2260.00,0.0005
2259.00,0.0006
2258.00,0.0006
2257.00,0.0005
2256.00,0.0004
2255.00,0.0003
2254.00,0.0003
2253.00,0.0003
2252.00,0.0004
2251.00,0.0004
2250.00,0.0004
2249.00,0.0004
2248.00,0.0003
2247.00,0.0003
2246.00,0.0003
2245.00,0.0004
2244.00,0.0004
2243.00,0.0004
2242.00,0.0003
2241.00,0.0003
2240.00,0.0003
2239.00,0.0003
2238.00,0.0004
2237.00,0.0005
2236.00,0.0005
2235.00,0.0004
2234.00,0.0004
2233.00,0.0004
2232.00,0.0004
2231.00,0.0005
2230.00,0.0005
2229.00,0.0005
2228.00,0.0005
2227.00,0.0005
2226.00,0.0004
2225.00,0.0004
2224.00,0.0004
2223.00,0.0003
2222.00,0.0003
2221.00,0.0002
2220.00,0.0002
2219.00,0.0002
2218.00,0.0002
2217.00,0.0001
2216.00,0.0001
2215.00,0.0002
2214.00,0.0002
2213.00,0.0003
2212.00,0.0003
2211.00,0.0003
2210.00,0.0003
2209.00,0.0003
2208.00,0.0003
2207.00,0.0002
2206.00,0.0002
2205.00,0.0002
2204.00,0.0002
2203.00,0.0002
2202.00,0.0002
2201.00,0.0002
2200.00,0.0002
2199.00,0.0003
2198.00,0.0003
2197.00,0.0004
2196.00,0.0004
2195.00,0.0004
2194.00,0.0005
2193.00,0.0005
2192.00,0.0005
2191.00,0.0005
2190.00,0.0005
2189.00,0.0006
2188.00,0.0008
2187.00,0.0009
2186.00,0.0009
2185.00,0.0007
2184.00,0.0005
2183.00,0.0002
2182.00,0.0000
2181.00,-0.0001
2180.00,-0.0002
2179.00,-0.0002
2178.00,-0.0002
2177.00,-0.0003
2176.00,-0.0004
2175.00,-0.0005
2174.00,-0.0006
2173.00,-0.0005
2172.00,-0.0002
2171.00,0.0002
2170.00,0.0006
2169.00,0.0009
2168.00,0.0010
2167.00,0.0011
2166.00,0.0012
2165.00,0.0014
2164.00,0.0017
2163.00,0.0017
2162.00,0.0012
2161.00,0.0001
2160.00,-0.0013
2159.00,-0.0025
2158.00,-0.0032
2157.00,-0.0033
2156.00,-0.0031
2155.00,-0.0026
2154.00,-0.0023
2153.00,-0.0020
2152.00,-0.0019
2151.00,-0.0019
2150.00,-0.0019
2149.00,-0.0019
2148.00,-0.0019
2147.00,-0.0019
2146.00,-0.0018
2145.00,-0.0017
2144.00,-0.0017
2143.00,-0.0017
2142.00,-0.0016
2141.00,-0.0016
2140.00,-0.0016
2139.00,-0.0016
2138.00,-0.0017
2137.00,-0.0019
2136.00,-0.0021
2135.00,-0.0023
2134.00,-0.0024
2133.00,-0.0023
2132.00,-0.0021
2131.00,-0.0018
2130.00,-0.0015
2129.00,-0.0013
2128.00,-0.0011
2127.00,-0.0011
2126.00,-0.0010
2125.00,-0.0010
2124.00,-0.0010
2123.00,-0.0009
2122.00,-0.0007
2121.00,-0.0006
2120.00,-0.0005
2119.00,-0.0004
2118.00,-0.0003
2117.00,-0.0002
2116.00,-0.0001
2115.00,-0.0000
2114.00,0.0000
2113.00,0.0001
2112.00,0.0000
2111.00,-0.0000
2110.00,-0.0001
2109.00,-0.0001
2108.00,-0.0001
2107.00,-0.0002
2106.00,-0.0002
2105.00,-0.0002
2104.00,-0.0001
2103.00,-0.0000
2102.00,-0.0000
2101.00,-0.0000
2100.00,-0.0001
2099.00,-0.0002
2098.00,-0.0003
2097.00,-0.0005
2096.00,-0.0007
2095.00,-0.0008
2094.00,-0.0008
2093.00,-0.0007
2092.00,-0.0006
2091.00,-0.0004
2090.00,-0.0003
2089.00,-0.0001
2088.00,-0.0000
2087.00,-0.0000
2086.00,0.0000
2085.00,0.0000
2084.00,0.0001
2083.00,0.0002
2082.00,0.0002
2081.00,0.0001
2080.00,0.0001
2079.00,0.0000
2078.00,0.0000
2077.00,0.0001
2076.00,0.0001
2075.00,0.0001
2074.00,0.0001
2073.00,0.0001
2072.00,0.0000
2071.00,-0.0001
2070.00,-0.0002
2069.00,-0.0003
2068.00,-0.0003
2067.00,-0.0003
2066.00,-0.0003
2065.00,-0.0002
2064.00,-0.0002
2063.00,-0.0002
2062.00,-0.0002
2061.00,-0.0002
2060.00,-0.0002
2059.00,-0.0001
2058.00,-0.0001
2057.00,-0.0001
2056.00,-0.0001
2055.00,-0.0001
2054.00,0.0002
2053.00,0.0005
2052.00,0.0009
2051.00,0.0010
2050.00,0.0008
2049.00,0.0006
2048.00,0.0003
2047.00,0.0002
2046.00,0.0002
2045.00,0.0002
2044.00,0.0003
2043.00,0.0003
2042.00,0.0003
2041.00,0.0003
2040.00,0.0003
2039.00,0.0003
2038.00,0.0003
2037.00,0.0002
2036.00,0.0000
2035.00,-0.0001
2034.00,-0.0002
2033.00,-0.0003
2032.00,-0.0005
2031.00,-0.0007
2030.00,-0.0008
2029.00,-0.0008
2028.00,-0.0007
2027.00,-0.0006
2026.00,-0.0006
2025.00,-0.0006
2024.00,-0.0008
2023.00,-0.0008
2022.00,-0.0008
2021.00,-0.0008
2020.00,-0.0008
2019.00,-0.0008
2018.00,-0.0008
2017.00,-0.0008
2016.00,-0.0007
2015.00,-0.0006
2014.00,-0.0005
2013.00,-0.0005
2012.00,-0.0006
2011.00,-0.0006
2010.00,-0.0006
2009.00,-0.0008
2008.00,-0.0010
2007.00,-0.0013
2006.00,-0.0015
2005.00,-0.0016
2004.00,-0.0014
2003.00,-0.0011
2002.00,-0.0008
2001.00,-0.0006
2000.00,-0.0005
1999.00,-0.0004
1998.00,-0.0005
1997.00,-0.0006
1996.00,-0.0007
1995.00,-0.0007
1994.00,-0.0007
1993.00,-0.0006
1992.00,-0.0005
1991.00,-0.0004
1990.00,-0.0003
1989.00,-0.0002
1988.00,-0.0001
1987.00,0.0001
1986.00,0.0002
1985.00,0.0004
1984.00,0.0006
1983.00,0.0008
1982.00,0.0009
1981.00,0.0009
1980.00,0.0005
1979.00,0.0000
1978.00,-0.0005
1977.00,-0.0008
1976.00,-0.0009
1975.00,-0.0008
1974.00,-0.0008
1973.00,-0.0007
1972.00,-0.0007
1971.00,-0.0007
1970.00,-0.0006
1969.00,-0.0005
1968.00,-0.0004
1967.00,-0.0003
1966.00,-0.0003
1965.00,-0.0004
1964.00,-0.0004
1963.00,-0.0004
1962.00,-0.0004
1961.00,-0.0005
1960.00,-0.0006
1959.00,-0.0006
1958.00,-0.0006
1957.00,-0.0005
1956.00,-0.0004
1955.00,-0.0003
1954.00,-0.0001
1953.00,-0.0001
1952.00,-0.0000
1951.00,0.0000
1950.00,0.0001
1949.00,0.0002
1948.00,0.0003
1947.00,0.0005
1946.00,0.0006
1945.00,0.0006
1944.00,0.0006
1943.00,0.0006
1942.00,0.0006
1941.00,0.0006
1940.00,0.0006
1939.00,0.0006
1938.00,0.0005
1937.00,0.0003
1936.00,0.0001
1935.00,0.0000
1934.00,-0.0001
1933.00,-0.0001
1932.00,-0.0002
1931.00,-0.0002
1930.00,-0.0002
1929.00,-0.0003
1928.00,-0.0004
1927.00,-0.0004
1926.00,-0.0005
1925.00,-0.0005
1924.00,-0.0006
1923.00,-0.0006
1922.00,-0.0006
1921.00,-0.0005
1920.00,-0.0005
1919.00,-0.0005
1918.00,-0.0005
1917.00,-0.0004
1916.00,-0.0004
1915.00,-0.0004
1914.00,-0.0004
1913.00,-0.0004
1912.00,-0.0004
1911.00,-0.0004
1910.00,-0.0004
1909.00,-0.0005
1908.00,-0.0005
1907.00,-0.0005
1906.00,-0.0004
1905.00,-0.0004
1904.00,-0.0003
1903.00,-0.0003
1902.00,-0.0003
1901.00,-0.0002
1900.00,-0.0002
1899.00,-0.0002
1898.00,-0.0001
1897.00,-0.0001
1896.00,-0.0001
1895.00,-0.0000
1894.00,0.0000
1893.00,0.0001
1892.00,0.0002
1891.00,0.0002
1890.00,0.0002
1889.00,0.0002
1888.00,0.0003
1887.00,0.0004
1886.00,0.0004
1885.00,0.0005
1884.00,0.0005
1883.00,0.0005
1882.00,0.0006
1881.00,0.0006
1880.00,0.0007
1879.00,0.0007
1878.00,0.0007
1877.00,0.0007
1876.00,0.0007
1875.00,0.0008
1874.00,0.0008
1873.00,0.0009
1872.00,0.0009
1871.00,0.0009
1870.00,0.0009
1869.00,0.0008
1868.00,0.0008
1867.00,0.0008
1866.00,0.0007
1865.00,0.0007
1864.00,0.0006
1863.00,0.0006
1862.00,0.0006
1861.00,0.0005
1860.00,0.0004
1859.00,0.0003
1858.00,0.0003
1857.00,0.0002
1856.00,0.0001
1855.00,0.0000
1854.00,-0.0000
1853.00,-0.0000
1852.00,-0.0000
1851.00,-0.0000
1850.00,-0.0000
1849.00,-0.0001
1848.00,-0.0002
1847.00,-0.0002
1846.00,-0.0002
1845.00,-0.0002
1844.00,-0.0002
1843.00,-0.0002
1842.00,-0.0002
1841.00,-0.0002
1840.00,-0.0002
1839.00,-0.0002
1838.00,-0.0002
1837.00,-0.0002
1836.00,-0.0002
1835.00,-0.0002
1834.00,-0.0001
1833.00,-0.0001
1832.00,-0.0001
1831.00,-0.0001
1830.00,-0.0000
1829.00,0.0000
1828.00,0.0001
1827.00,0.0001
1826.00,0.0001
1825.00,0.0002
1824.00,0.0002
1823.00,0.0003
1822.00,0.0003
1821.00,0.0003
1820.00,0.0003
1819.00,0.0003
1818.00,0.0002
1817.00,0.0003
1816.00,0.0004
1815.00,0.0005
1814.00,0.0006
1813.00,0.0007
1812.00,0.0008
1811.00,0.0009
1810.00,0.0010
1809.00,0.0011
1808.00,0.0011
1807.00,0.0012
1806.00,0.0012
1805.00,0.0013
1804.00,0.0013
1803.00,0.0013
1802.00,0.0013
1801.00,0.0013
1800.00,0.0013
1799.00,0.0013
1798.00,0.0013
1797.00,0.0012
1796.00,0.0011
1795.00,0.0011
1794.00,0.0010
1793.00,0.0009
1792.00,0.0008
1791.00,0.0007
1790.00,0.0007
1789.00,0.0006
1788.00,0.0005
1787.00,0.0005
1786.00,0.0005
1785.00,0.0005
1784.00,0.0005
1783.00,0.0005
1782.00,0.0005
1781.00,0.0005
1780.00,0.0006
1779.00,0.0006
1778.00,0.0006
1777.00,0.0006
1776.00,0.0006
1775.00,0.0007
1774.00,0.0007
1773.00,0.0007
1772.00,0.0007
1771.00,0.0007
1770.00,0.0007
1769.00,0.0007
1768.00,0.0007
1767.00,0.0007
1766.00,0.0008
1765.00,0.0008
1764.00,0.0008
1763.00,0.0008
1762.00,0.0009
1761.00,0.0010
1760.00,0.0010
1759.00,0.0011
1758.00,0.0012
1757.00,0.0012
1756.00,0.0013
1755.00,0.0014
1754.00,0.0014
1753.00,0.0015
1752.00,0.0015
1751.00,0.0016
1750.00,0.0017
1749.00,0.0017
1748.00,0.0017
1747.00,0.0018
1746.00,0.0018
1745.00,0.0018
1744.00,0.0018
1743.00,0.0018
1742.00,0.0018
1741.00,0.0018
1740.00,0.0018
1739.00,0.0018
1738.00,0.0018
1737.00,0.0018
1736.00,0.0018
1735.00,0.0018
1734.00,0.0017
1733.00,0.0017
1732.00,0.0017
1731.00,0.0016
1730.00,0.0016
1729.00,0.0016
1728.00,0.0015
1727.00,0.0015
1726.00,0.0015
1725.00,0.0015
1724.00,0.0015
1723.00,0.0014
1722.00,0.0014
1721.00,0.0014
1720.00,0.0014
1719.00,0.0014
1718.00,0.0014
1717.00,0.0014
1716.00,0.0013
1715.00,0.0013
1714.00,0.0013
1713.00,0.0013
1712.00,0.0013
1711.00,0.0013
1710.00,0.0013
1709.00,0.0013
1708.00,0.0013
1707.00,0.0013
1706.00,0.0013
1705.00,0.0013
1704.00,0.0013
1703.00,0.0014
1702.00,0.0014
1701.00,0.0014
1700.00,0.0014
1699.00,0.0014
1698.00,0.0014
1697.00,0.0014
1696.00,0.0014
1695.00,0.0015
1694.00,0.0016
1693.00,0.0017
1692.00,0.0017
1691.00,0.0018
1690.00,0.0019
1689.00,0.0020
1688.00,0.0022
1687.00,0.0024
1686.00,0.0026
1685.00,0.0027
1684.00,0.0028
1683.00,0.0027
1682.00,0.0028
1681.00,0.0029
1680.00,0.0030
1679.00,0.0032
1678.00,0.0034
1677.00,0.0035
1676.00,0.0037
1675.00,0.0038
1674.00,0.0039
1673.00,0.0041
1672.00,0.0043
1671.00,0.0044
1670.00,0.0045
1669.00,0.0046
1668.00,0.0046
1667.00,0.0047
1666.00,0.0048
1665.00,0.0049
1664.00,0.0049
1663.00,0.0049
1662.00,0.0048
1661.00,0.0047
1660.00,0.0046
1659.00,0.0046
1658.00,0.0045
1657.00,0.0045
1656.00,0.0044
1655.00,0.0044
1654.00,0.0042
1653.00,0.0038
1652.00,0.0035
1651.00,0.0034
1650.00,0.0033
1649.00,0.0032
1648.00,0.0031
1647.00,0.0029
1646.00,0.0027
1645.00,0.0026
1644.00,0.0025
1643.00,0.0025
1642.00,0.0024
1641.00,0.0023
1640.00,0.0022
1639.00,0.0022
1638.00,0.0021
1637.00,0.0020
1636.00,0.0019
1635.00,0.0018
1634.00,0.0018
1633.00,0.0018
1632.00,0.0018
1631.00,0.0017
1630.00,0.0017
1629.00,0.0017
1628.00,0.0017
1627.00,0.0017
1626.00,0.0017
1625.00,0.0017
1624.00,0.0017
1623.00,0.0018
1622.00,0.0018
1621.00,0.0019
1620.00,0.0019
1619.00,0.0019
1618.00,0.0019
1617.00,0.0020
1616.00,0.0020
1615.00,0.0021
1614.00,0.0022
1613.00,0.0024
1612.00,0.0026
1611.00,0.0029
1610.00,0.0034
1609.00,0.0039
1608.00,0.0047
1607.00,0.0058
1606.00,0.0070
1605.00,0.0084
1604.00,0.0098
1603.00,0.0110
1602.00,0.0119
1601.00,0.0123
1600.00,0.0120
1599.00,0.0112
1598.00,0.0100
1597.00,0.0087
1596.00,0.0075
1595.00,0.0064
1594.00,0.0055
1593.00,0.0049
1592.00,0.0044
1591.00,0.0040
1590.00,0.0037
1589.00,0.0036
1588.00,0.0037
1587.00,0.0040
1586.00,0.0043
1585.00,0.0048
1584.00,0.0051
1583.00,0.0053
1582.00,0.0051
1581.00,0.0046
1580.00,0.0041
1579.00,0.0035
1578.00,0.0031
1577.00,0.0026
1576.00,0.0022
1575.00,0.0020
1574.00,0.0019
1573.00,0.0017
1572.00,0.0016
1571.00,0.0016
1570.00,0.0015
1569.00,0.0014
1568.00,0.0013
1567.00,0.0013
1566.00,0.0013
1565.00,0.0012
1564.00,0.0012
1563.00,0.0012
1562.00,0.0012
1561.00,0.0012
1560.00,0.0013
1559.00,0.0013
1558.00,0.0013
1557.00,0.0013
1556.00,0.0012
1555.00,0.0012
1554.00,0.0013
1553.00,0.0014
1552.00,0.0015
1551.00,0.0016
1550.00,0.0016
1549.00,0.0017
1548.00,0.0018
1547.00,0.0019
1546.00,0.0019
1545.00,0.0020
1544.00,0.0020
1543.00,0.0021
1542.00,0.0021
1541.00,0.0021
1540.00,0.0021
1539.00,0.0020
1538.00,0.0020
1537.00,0.0019
1536.00,0.0018
1535.00,0.0017
1534.00,0.0017
1533.00,0.0016
1532.00,0.0015
1531.00,0.0014
1530.00,0.0014
1529.00,0.0013
1528.00,0.0013
1527.00,0.0013
1526.00,0.0013
1525.00,0.0013
1524.00,0.0013
1523.00,0.0012
1522.00,0.0012
1521.00,0.0012
1520.00,0.0013
1519.00,0.0013
1518.00,0.0013
1517.00,0.0013
1516.00,0.0013
1515.00,0.0014
1514.00,0.0014
1513.00,0.0015
1512.00,0.0015
1511.00,0.0016
1510.00,0.0017
1509.00,0.0017
1508.00,0.0018
1507.00,0.0020
1506.00,0.0023
1505.00,0.0026
1504.00,0.0029
1503.00,0.0032
1502.00,0.0037
1501.00,0.0044
1500.00,0.0054
1499.00,0.0070
1498.00,0.0094
1497.00,0.0132
1496.00,0.0182
1495.00,0.0234
1494.00,0.0280
1493.00,0.0310
1492.00,0.0317
1491.00,0.0296
1490.00,0.0249
1489.00,0.0196
1488.00,0.0153
1487.00,0.0122
1486.00,0.0100
1485.00,0.0084
1484.00,0.0072
1483.00,0.0063
1482.00,0.0055
1481.00,0.0049
1480.00,0.0044
1479.00,0.0041
1478.00,0.0039
1477.00,0.0038
1476.00,0.0037
1475.00,0.0037
1474.00,0.0037
1473.00,0.0037
1472.00,0.0038
1471.00,0.0038
1470.00,0.0040
1469.00,0.0041
1468.00,0.0043
1467.00,0.0045
1466.00,0.0047
1465.00,0.0049
1464.00,0.0051
1463.00,0.0053
1462.00,0.0057
1461.00,0.0061
1460.00,0.0067
1459.00,0.0077
1458.00,0.0096
1457.00,0.0132
1456.00,0.0179
1455.00,0.0226
1454.00,0.0268
1453.00,0.0302
1452.00,0.0321
1451.00,0.0321
1450.00,0.0307
1449.00,0.0284
1448.00,0.0258
1447.00,0.0234
1446.00,0.0215
1445.00,0.0200
1444.00,0.0186
1443.00,0.0172
1442.00,0.0159
1441.00,0.0147
1440.00,0.0137
1439.00,0.0128
1438.00,0.0118
1437.00,0.0106
1436.00,0.0093
1435.00,0.0082
1434.00,0.0074
1433.00,0.0069
1432.00,0.0063
1431.00,0.0058
1430.00,0.0053
1429.00,0.0049
1428.00,0.0046
1427.00,0.0044
1426.00,0.0043
1425.00,0.0041
1424.00,0.0040
1423.00,0.0038
1422.00,0.0037
1421.00,0.0036
1420.00,0.0035
1419.00,0.0034
1418.00,0.0033
1417.00,0.0032
1416.00,0.0031
1415.00,0.0031
1414.00,0.0031
1413.00,0.0031
1412.00,0.0030
1411.00,0.0030
1410.00,0.0030
1409.00,0.0030
1408.00,0.0031
1407.00,0.0030
1406.00,0.0030
1405.00,0.0030
1404.00,0.0030
1403.00,0.0031
1402.00,0.0031
1401.00,0.0031
1400.00,0.0031
1399.00,0.0032
1398.00,0.0032
1397.00,0.0033
1396.00,0.0033
1395.00,0.0034
1394.00,0.0035
1393.00,0.0037
1392.00,0.0038
1391.00,0.0040
1390.00,0.0043
1389.00,0.0046
1388.00,0.0048
1387.00,0.0051
1386.00,0.0054
1385.00,0.0056
1384.00,0.0059
1383.00,0.0062
1382.00,0.0064
1381.00,0.0067
1380.00,0.0069
1379.00,0.0071
1378.00,0.0073
1377.00,0.0075
1376.00,0.0077
1375.00,0.0078
1374.00,0.0078
1373.00,0.0078
1372.00,0.0078
1371.00,0.0078
1370.00,0.0078
1369.00,0.0077
1368.00,0.0076
1367.00,0.0075
1366.00,0.0075
1365.00,0.0074
1364.00,0.0073
1363.00,0.0072
1362.00,0.0071
1361.00,0.0070
1360.00,0.0068
1359.00,0.0067
1358.00,0.0066
1357.00,0.0065
1356.00,0.0064
1355.00,0.0063
1354.00,0.0063
1353.00,0.0062
1352.00,0.0062
1351.00,0.0061
1350.00,0.0061
1349.00,0.0061
1348.00,0.0061
1347.00,0.0060
1346.00,0.0060
1345.00,0.0059
1344.00,0.0058
1343.00,0.0057
1342.00,0.0056
1341.00,0.0055
1340.00,0.0054
1339.00,0.0054
1338.00,0.0053
1337.00,0.0054
1336.00,0.0054
1335.00,0.0055
1334.00,0.0057
1333.00,0.0058
1332.00,0.0060
1331.00,0.0061
1330.00,0.0063
1329.00,0.0063
1328.00,0.0064
1327.00,0.0064
1326.00,0.0063
1325.00,0.0063
1324.00,0.0062
1323.00,0.0061
1322.00,0.0061
1321.00,0.0060
1320.00,0.0060
1319.00,0.0060
1318.00,0.0060
1317.00,0.0061
1316.00,0.0061
1315.00,0.0062
1314.00,0.0063
1313.00,0.0063
1312.00,0.0063
1311.00,0.0063
1310.00,0.0063
1309.00,0.0062
1308.00,0.0061
1307.00,0.0061
1306.00,0.0060
1305.00,0.0059
1304.00,0.0058
1303.00,0.0058
1302.00,0.0057
1301.00,0.0057
1300.00,0.0057
1299.00,0.0057
1298.00,0.0058
1297.00,0.0059
1296.00,0.0060
1295.00,0.0060
1294.00,0.0061
1293.00,0.0061
1292.00,0.0061
1291.00,0.0060
1290.00,0.0059
1289.00,0.0057
1288.00,0.0055
1287.00,0.0054
1286.00,0.0053
1285.00,0.0052
1284.00,0.0051
1283.00,0.0051
1282.00,0.0050
1281.00,0.0050
1280.00,0.0049
1279.00,0.0049
1278.00,0.0048
1277.00,0.0048
1276.00,0.0047
1275.00,0.0046
1274.00,0.0045
1273.00,0.0044
1272.00,0.0042
1271.00,0.0041
1270.00,0.0041
1269.00,0.0040
1268.00,0.0040
1267.00,0.0039
1266.00,0.0039
1265.00,0.0038
1264.00,0.0038
1263.00,0.0037
1262.00,0.0037
1261.00,0.0037
1260.00,0.0036
1259.00,0.0036
1258.00,0.0036
1257.00,0.0037
1256.00,0.0036
1255.00,0.0037
1254.00,0.0037
1253.00,0.0037
1252.00,0.0037
1251.00,0.0037
1250.00,0.0037
1249.00,0.0037
1248.00,0.0037
1247.00,0.0037
1246.00,0.0037
1245.00,0.0037
1244.00,0.0037
1243.00,0.0037
1242.00,0.0037
1241.00,0.0037
1240.00,0.0037
1239.00,0.0036
1238.00,0.0036
1237.00,0.0036
1236.00,0.0036
1235.00,0.0036
1234.00,0.0036
1233.00,0.0036
1232.00,0.0036
1231.00,0.0036
1230.00,0.0036
1229.00,0.0036
1228.00,0.0036
1227.00,0.0036
1226.00,0.0036
1225.00,0.0036
1224.00,0.0036
1223.00,0.0036
1222.00,0.0036
1221.00,0.0036
1220.00,0.0036
1219.00,0.0036
1218.00,0.0036
1217.00,0.0036
1216.00,0.0036
1215.00,0.0037
1214.00,0.0037
1213.00,0.0038
1212.00,0.0038
1211.00,0.0039
1210.00,0.0040
1209.00,0.0041
1208.00,0.0041
1207.00,0.0042
1206.00,0.0043
1205.00,0.0045
1204.00,0.0046
1203.00,0.0048
1202.00,0.0049
1201.00,0.0051
1200.00,0.0052
1199.00,0.0053
1198.00,0.0054
1197.00,0.0054
1196.00,0.0055
1195.00,0.0055
1194.00,0.0056
1193.00,0.0056
1192.00,0.0057
1191.00,0.0057
1190.00,0.0057
1189.00,0.0058
1188.00,0.0059
1187.00,0.0061
1186.00,0.0064
1185.00,0.0067
1184.00,0.0071
1183.00,0.0074
1182.00,0.0077
1181.00,0.0077
1180.00,0.0076
1179.00,0.0073
1178.00,0.0069
1177.00,0.0064
1176.00,0.0059
1175.00,0.0055
1174.00,0.0053
1173.00,0.0051
1172.00,0.0049
1171.00,0.0049
1170.00,0.0049
1169.00,0.0049
1168.00,0.0050
1167.00,0.0050
1166.00,0.0051
1165.00,0.0052
1164.00,0.0053
1163.00,0.0055
1162.00,0.0057
1161.00,0.0060
1160.00,0.0063
1159.00,0.0068
1158.00,0.0073
1157.00,0.0078
1156.00,0.0082
1155.00,0.0085
1154.00,0.0085
1153.00,0.0082
1152.00,0.0077
1151.00,0.0071
1150.00,0.0065
1149.00,0.0059
1148.00,0.0054
1147.00,0.0050
1146.00,0.0048
1145.00,0.0045
1144.00,0.0043
1143.00,0.0042
1142.00,0.0040
1141.00,0.0039
1140.00,0.0038
1139.00,0.0038
1138.00,0.0038
1137.00,0.0038
1136.00,0.0039
1135.00,0.0039
1134.00,0.0040
1133.00,0.0040
1132.00,0.0041
1131.00,0.0041
1130.00,0.0041
1129.00,0.0041
1128.00,0.0040
1127.00,0.0040
1126.00,0.0040
1125.00,0.0040
1124.00,0.0039
1123.00,0.0039
1122.00,0.0039
1121.00,0.0040
1120.00,0.0041
1119.00,0.0042
1118.00,0.0043
1117.00,0.0045
1116.00,0.0046
1115.00,0.0047
1114.00,0.0048
1113.00,0.0048
1112.00,0.0049
1111.00,0.0048
1110.00,0.0048
1109.00,0.0048
1108.00,0.0048
1107.00,0.0048
1106.00,0.0048
1105.00,0.0048
1104.00,0.0048
1103.00,0.0048
1102.00,0.0049
1101.00,0.0049
1100.00,0.0050
1099.00,0.0050
1098.00,0.0051
1097.00,0.0052
1096.00,0.0052
1095.00,0.0053
1094.00,0.0054
1093.00,0.0055
1092.00,0.0055
1091.00,0.0056
1090.00,0.0057
1089.00,0.0058
1088.00,0.0059
1087.00,0.0061
1086.00,0.0063
1085.00,0.0065
1084.00,0.0067
1083.00,0.0070
1082.00,0.0072
1081.00,0.0075
1080.00,0.0077
1079.00,0.0079
1078.00,0.0082
1077.00,0.0085
1076.00,0.0088
1075.00,0.0093
1074.00,0.0097
1073.00,0.0102
1072.00,0.0106
1071.00,0.0109
1070.00,0.0112
1069.00,0.0113
1068.00,0.0113
1067.00,0.0111
1066.00,0.0108
1065.00,0.0105
1064.00,0.0101
1063.00,0.0096
1062.00,0.0093
1061.00,0.0089
1060.00,0.0085
1059.00,0.0082
1058.00,0.0079
1057.00,0.0076
1056.00,0.0072
1055.00,0.0070
1054.00,0.0068
1053.00,0.0066
1052.00,0.0064
1051.00,0.0062
1050.00,0.0062
1049.00,0.0061
1048.00,0.0059
1047.00,0.0058
1046.00,0.0058
1045.00,0.0057
1044.00,0.0056
1043.00,0.0055
1042.00,0.0055
1041.00,0.0056
1040.00,0.0057
1039.00,0.0060
1038.00,0.0065
1037.00,0.0071
1036.00,0.0080
1035.00,0.0093
1034.00,0.0108
1033.00,0.0125
1032.00,0.0143
1031.00,0.0159
1030.00,0.0173
1029.00,0.0182
1028.00,0.0185
1027.00,0.0182
1026.00,0.0174
1025.00,0.0163
1024.00,0.0150
1023.00,0.0137
1022.00,0.0127
1021.00,0.0118
1020.00,0.0111
1019.00,0.0104
1018.00,0.0099
1017.00,0.0094
1016.00,0.0090
1015.00,0.0086
1014.00,0.0083
1013.00,0.0081
1012.00,0.0078
1011.00,0.0076
1010.00,0.0075
1009.00,0.0074
1008.00,0.0074
1007.00,0.0075
1006.00,0.0077
1005.00,0.0079
1004.00,0.0080
1003.00,0.0081
1002.00,0.0079
1001.00,0.0076
1000.00,0.0071
999.00,0.0066
998.00,0.0062
997.00,0.0060
996.00,0.0058
995.00,0.0057
994.00,0.0057
993.00,0.0057
992.00,0.0057
991.00,0.0057
990.00,0.0058
989.00,0.0059
988.00,0.0060
987.00,0.0062
986.00,0.0064
985.00,0.0066
984.00,0.0068
983.00,0.0070
982.00,0.0071
981.00,0.0073
980.00,0.0073
979.00,0.0074
978.00,0.0074
977.00,0.0073
976.00,0.0071
975.00,0.0070
974.00,0.0069
973.00,0.0069
972.00,0.0069
971.00,0.0071
970.00,0.0074
969.00,0.0077
968.00,0.0080
967.00,0.0082
966.00,0.0084
965.00,0.0086
964.00,0.0085
963.00,0.0085
962.00,0.0083
961.00,0.0081
960.00,0.0079
959.00,0.0077
958.00,0.0075
957.00,0.0073
956.00,0.0071
955.00,0.0070
954.00,0.0070
953.00,0.0070
952.00,0.0070
951.00,0.0071
950.00,0.0072
949.00,0.0072
948.00,0.0072
947.00,0.0072
946.00,0.0072
945.00,0.0072
944.00,0.0072
943.00,0.0071
942.00,0.0071
941.00,0.0070
940.00,0.0068
939.00,0.0066
938.00,0.0064
937.00,0.0061
936.00,0.0058
935.00,0.0056
934.00,0.0054
933.00,0.0053
932.00,0.0050
931.00,0.0048
930.00,0.0047
929.00,0.0046
928.00,0.0046
927.00,0.0046
926.00,0.0047
925.00,0.0047
924.00,0.0048
923.00,0.0049
922.00,0.0050
921.00,0.0052
920.00,0.0053
919.00,0.0056
918.00,0.0059
917.00,0.0064
916.00,0.0068
915.00,0.0074
914.00,0.0081
913.00,0.0089
912.00,0.0097
911.00,0.0105
910.00,0.0113
909.00,0.0120
908.00,0.0126
907.00,0.0129
906.00,0.0130
905.00,0.0127
904.00,0.0122
903.00,0.0115
902.00,0.0107
901.00,0.0097
900.00,0.0087
899.00,0.0078
898.00,0.0070
897.00,0.0064
896.00,0.0058
895.00,0.0054
894.00,0.0051
893.00,0.0049
892.00,0.0046
891.00,0.0044
890.00,0.0043
889.00,0.0042
888.00,0.0041
887.00,0.0039
886.00,0.0039
885.00,0.0038
884.00,0.0037
883.00,0.0036
882.00,0.0036
881.00,0.0036
880.00,0.0035
879.00,0.0035
878.00,0.0035
877.00,0.0035
876.00,0.0034
875.00,0.0034
874.00,0.0034
873.00,0.0033
872.00,0.0032
871.00,0.0032
870.00,0.0032
869.00,0.0032
868.00,0.0032
867.00,0.0032
866.00,0.0032
865.00,0.0032
864.00,0.0032
863.00,0.0032
862.00,0.0032
861.00,0.0033
860.00,0.0032
859.00,0.0032
858.00,0.0032
857.00,0.0033
856.00,0.0033
855.00,0.0034
854.00,0.0036
853.00,0.0037
852.00,0.0039
851.00,0.0041
850.00,0.0045
849.00,0.0049
848.00,0.0052
847.00,0.0056
846.00,0.0060
845.00,0.0063
844.00,0.0066
843.00,0.0068
842.00,0.0069
841.00,0.0069
840.00,0.0068
839.00,0.0065
838.00,0.0062
837.00,0.0058
836.00,0.0054
835.00,0.0049
834.00,0.0046
833.00,0.0043
832.00,0.0039
831.00,0.0037
830.00,0.0035
829.00,0.0034
828.00,0.0033
827.00,0.0032
826.00,0.0032
825.00,0.0032
824.00,0.0032
823.00,0.0032
822.00,0.0032
821.00,0.0033
820.00,0.0033
819.00,0.0033
818.00,0.0034
817.00,0.0035
816.00,0.0035
815.00,0.0035
814.00,0.0036
813.00,0.0036
812.00,0.0035
811.00,0.0035
810.00,0.0035
809.00,0.0036
808.00,0.0035
807.00,0.0035
806.00,0.0036
805.00,0.0036
804.00,0.0036
803.00,0.0036
802.00,0.0038
801.00,0.0039
800.00,0.0039
799.00,0.0040
798.00,0.0042
797.00,0.0044
796.00,0.0046
795.00,0.0048
794.00,0.0051
793.00,0.0054
792.00,0.0057
791.00,0.0060
790.00,0.0065
789.00,0.0069
788.00,0.0074
787.00,0.0078
786.00,0.0084
785.00,0.0089
784.00,0.0093
783.00,0.0099
782.00,0.0106
781.00,0.0114
780.00,0.0122
779.00,0.0132
778.00,0.0144
777.00,0.0157
776.00,0.0170
775.00,0.0186
774.00,0.0204
773.00,0.0223
772.00,0.0242
771.00,0.0264
770.00,0.0287
769.00,0.0310
768.00,0.0332
767.00,0.0355
766.00,0.0377
765.00,0.0399
764.00,0.0421
763.00,0.0443
762.00,0.0465
761.00,0.0488
760.00,0.0510
759.00,0.0531
758.00,0.0549
757.00,0.0563
756.00,0.0571
755.00,0.0575
754.00,0.0575
753.00,0.0573
752.00,0.0570
751.00,0.0568
750.00,0.0568
749.00,0.0568
748.00,0.0565
747.00,0.0557
746.00,0.0543
745.00,0.0520
744.00,0.0488
743.00,0.0451
742.00,0.0413
741.00,0.0375
740.00,0.0339
739.00,0.0306
738.00,0.0277
737.00,0.0249
736.00,0.0221
735.00,0.0195
734.00,0.0170
733.00,0.0148
732.00,0.0129
731.00,0.0113
730.00,0.0100
729.00,0.0091
728.00,0.0084
727.00,0.0078
726.00,0.0075
725.00,0.0073
724.00,0.0071
723.00,0.0070
722.00,0.0070
721.00,0.0070
720.00,0.0070
719.00,0.0071
718.00,0.0073
717.00,0.0077
716.00,0.0082
715.00,0.0089
714.00,0.0100
713.00,0.0114
712.00,0.0132
711.00,0.0158
710.00,0.0194
709.00,0.0242
708.00,0.0302
707.00,0.0376
706.00,0.0465
705.00,0.0570
704.00,0.0689
703.00,0.0820
702.00,0.0964
701.00,0.1115
700.00,0.1267
699.00,0.1418
698.00,0.1563
697.00,0.1690
696.00,0.1781
695.00,0.1816
694.00,0.1780
693.00,0.1670
692.00,0.1505
691.00,0.1319
690.00,0.1140
689.00,0.0983
688.00,0.0851
687.00,0.0746
686.00,0.0663
685.00,0.0597
684.00,0.0542
683.00,0.0496
682.00,0.0458
681.00,0.0425
680.00,0.0395
679.00,0.0369
678.00,0.0348
677.00,0.0330
676.00,0.0314
675.00,0.0300
674.00,0.0289
673.00,0.0279
672.00,0.0268
671.00,0.0260
670.00,0.0253
669.00,0.0246
668.00,0.0237
667.00,0.0227
666.00,0.0219
665.00,0.0211
664.00,0.0201
663.00,0.0193
662.00,0.0185
661.00,0.0178
660.00,0.0170
659.00,0.0163
658.00,0.0157
657.00,0.0151
656.00,0.0144
655.00,0.0138
654.00,0.0133
653.00,0.0128
652.00,0.0122
651.00,0.0117
650.00,0.0113
649.00,0.0110
648.00,0.0105
647.00,0.0102
646.00,0.0101
645.00,0.0099
644.00,0.0097
643.00,0.0095
642.00,0.0095
641.00,0.0096
640.00,0.0096
639.00,0.0097
638.00,0.0100
637.00,0.0102
636.00,0.0103
635.00,0.0104
634.00,0.0108
633.00,0.0112
632.00,0.0114
631.00,0.0116
630.00,0.0119
629.00,0.0121
628.00,0.0122
627.00,0.0123
626.00,0.0125
625.00,0.0126
624.00,0.0127
623.00,0.0130
622.00,0.0134
621.00,0.0137
620.00,0.0135
619.00,0.0131
618.00,0.0127
617.00,0.0123
616.00,0.0119
615.00,0.0117
614.00,0.0115
613.00,0.0114
612.00,0.0111
611.00,0.0109
610.00,0.0109
609.00,0.0108
608.00,0.0107
607.00,0.0105
606.00,0.0105
605.00,0.0105
604.00,0.0104
603.00,0.0104
602.00,0.0106
601.00,0.0108
600.00,0.0109
599.00,0.0110
598.00,0.0111
597.00,0.0113
596.00,0.0114
595.00,0.0116
594.00,0.0119
593.00,0.0121
592.00,0.0122
591.00,0.0122
590.00,0.0124
589.00,0.0127
588.00,0.0128
587.00,0.0130
586.00,0.0134
585.00,0.0137
584.00,0.0138
583.00,0.0140
582.00,0.0144
581.00,0.0149
580.00,0.0153
579.00,0.0158
578.00,0.0166
577.00,0.0174
576.00,0.0182
575.00,0.0191
574.00,0.0202
573.00,0.0211
572.00,0.0217
571.00,0.0223
570.00,0.0232
569.00,0.0242
568.00,0.0250
567.00,0.0258
566.00,0.0267
565.00,0.0275
564.00,0.0282
563.00,0.0290
562.00,0.0300
561.00,0.0310
560.00,0.0317
559.00,0.0325
558.00,0.0335
557.00,0.0345
556.00,0.0353
555.00,0.0362
554.00,0.0372
553.00,0.0383
552.00,0.0393
551.00,0.0405
550.00,0.0420
549.00,0.0435
548.00,0.0450
547.00,0.0465
546.00,0.0484
545.00,0.0506
544.00,0.0526
543.00,0.0546
542.00,0.0568
541.00,0.0588
540.00,0.0603
539.00,0.0614
538.00,0.0618
537.00,0.0614
536.00,0.0600
535.00,0.0581
534.00,0.0559
533.00,0.0533
532.00,0.0503
531.00,0.0471
530.00,0.0442
529.00,0.0415
528.00,0.0387
527.00,0.0360
526.00,0.0337
525.00,0.0315
524.00,0.0294
523.00,0.0278
522.00,0.0268
521.00,0.0258
520.00,0.0246
519.00,0.0235
518.00,0.0228
517.00,0.0221
516.00,0.0213
515.00,0.0206
514.00,0.0202
513.00,0.0198
512.00,0.0190
511.00,0.0182
510.00,0.0176
509.00,0.0170
508.00,0.0162
507.00,0.0156
506.00,0.0153
505.00,0.0151
504.00,0.0146
503.00,0.0142
502.00,0.0140
501.00,0.0139
500.00,0.0135
499.00,0.0132
498.00,0.0130
497.00,0.0127
496.00,0.0122
495.00,0.0119
494.00,0.0121
493.00,0.0122
492.00,0.0120
491.00,0.0117
490.00,0.0116
489.00,0.0114
488.00,0.0110
487.00,0.0107
486.00,0.0108
485.00,0.0109
484.00,0.0105
483.00,0.0102
482.00,0.0102
481.00,0.0103
480.00,0.0100
479.00,0.0097
478.00,0.0099
477.00,0.0099
476.00,0.0096
475.00,0.0093
474.00,0.0095
473.00,0.0097
472.00,0.0093
471.00,0.0090
470.00,0.0093
469.00,0.0097
468.00,0.0095
467.00,0.0092
466.00,0.0090
465.00,0.0088
464.00,0.0083
463.00,0.0080
462.00,0.0084
461.00,0.0088
460.00,0.0088
459.00,0.0087
458.00,0.0089
457.00,0.0089
456.00,0.0082
455.00,0.0078
454.00,0.0081
453.00,0.0083
452.00,0.0081
451.00,0.0080
450.00,0.0083
449.00,0.0085
448.00,0.0082
447.00,0.0078
446.00,0.0079
445.00,0.0079
444.00,0.0076
443.00,0.0074
442.00,0.0077
441.00,0.0077
440.00,0.0070
439.00,0.0064
438.00,0.0066
437.00,0.0070
436.00,0.0069
435.00,0.0069
434.00,0.0075
433.00,0.0081
432.00,0.0080
431.00,0.0078
430.00,0.0080
429.00,0.0079
428.00,0.0072
427.00,0.0069
426.00,0.0074
425.00,0.0077
424.00,0.0070
423.00,0.0063
422.00,0.0066
421.00,0.0068
420.00,0.0061
419.00,0.0057
418.00,0.0067
417.00,0.0075
416.00,0.0071
415.00,0.0068
414.00,0.0072
413.00,0.0072
412.00,0.0061
411.00,0.0054
410.00,0.0067
409.00,0.0086
408.00,0.0093
407.00,0.0094
406.00,0.0099
405.00,0.0099
404.00,0.0087
403.00,0.0079
402.00,0.0086
401.00,0.0087
400.00,0.0069
