Created as New Dataset,Sample 825 By YargerLab Date Tuesday, July 15 2025
cm-1,A
4000.00,0.0031
3999.00,0.0031
3998.00,0.0032
3997.00,0.0032
3996.00,0.0032
3995.00,0.0032
3994.00,0.0032
3993.00,0.0032
3992.00,0.0032
3991.00,0.0032
3990.00,0.0032
3989.00,0.0032
3988.00,0.0032
3987.00,0.0032
3986.00,0.0032
3985.00,0.0032
3984.00,0.0032
3983.00,0.0032
3982.00,0.0032
3981.00,0.0032
3980.00,0.0032
3979.00,0.0032
3978.00,0.0032
3977.00,0.0032
3976.00,0.0032
3975.00,0.0032
3974.00,0.0032
3973.00,0.0032
3972.00,0.0032
3971.00,0.0032
3970.00,0.0032
3969.00,0.0032
3968.00,0.0032
3967.00,0.0032
3966.00,0.0032
3965.00,0.0032
3964.00,0.0032
3963.00,0.0032
3962.00,0.0032
3961.00,0.0032
3960.00,0.0032
3959.00,0.0031
3958.00,0.0031
3957.00,0.0031
3956.00,0.0031
3955.00,0.0031
3954.00,0.0031
3953.00,0.0031
3952.00,0.0031
3951.00,0.0031
3950.00,0.0031
3949.00,0.0031
3948.00,0.0031
3947.00,0.0031
3946.00,0.0031
3945.00,0.0031
3944.00,0.0031
3943.00,0.0031
3942.00,0.0031
3941.00,0.0031
3940.00,0.0031
3939.00,0.0031
3938.00,0.0031
3937.00,0.0032
3936.00,0.0032
3935.00,0.0032
3934.00,0.0032
3933.00,0.0032
3932.00,0.0031
3931.00,0.0031
3930.00,0.0031
3929.00,0.0031
3928.00,0.0031
3927.00,0.0031
3926.00,0.0031
3925.00,0.0032
3924.00,0.0032
3923.00,0.0032
3922.00,0.0032
3921.00,0.0032
3920.00,0.0031
3919.00,0.0031
3918.00,0.0030
3917.00,0.0030
3916.00,0.0030
3915.00,0.0030
3914.00,0.0030
3913.00,0.0031
3912.00,0.0031
3911.00,0.0031
3910.00,0.0032
3909.00,0.0032
3908.00,0.0032
3907.00,0.0032
3906.00,0.0031
3905.00,0.0031
3904.00,0.0031
3903.00,0.0031
3902.00,0.0030
3901.00,0.0030
3900.00,0.0029
3899.00,0.0029
3898.00,0.0030
3897.00,0.0030
3896.00,0.0030
3895.00,0.0030
3894.00,0.0031
3893.00,0.0031
3892.00,0.0031
3891.00,0.0031
3890.00,0.0031
3889.00,0.0031
3888.00,0.0031
3887.00,0.0030
3886.00,0.0030
3885.00,0.0030
3884.00,0.0030
3883.00,0.0029
3882.00,0.0030
3881.00,0.0030
3880.00,0.0031
3879.00,0.0031
3878.00,0.0030
3877.00,0.0030
3876.00,0.0030
3875.00,0.0030
3874.00,0.0030
3873.00,0.0030
3872.00,0.0029
3871.00,0.0029
3870.00,0.0030
3869.00,0.0030
3868.00,0.0030
3867.00,0.0029
3866.00,0.0029
3865.00,0.0029
3864.00,0.0030
3863.00,0.0030
3862.00,0.0029
3861.00,0.0030
3860.00,0.0030
3859.00,0.0030
3858.00,0.0030
3857.00,0.0030
3856.00,0.0029
3855.00,0.0029
3854.00,0.0029
3853.00,0.0029
3852.00,0.0028
3851.00,0.0028
3850.00,0.0028
3849.00,0.0029
3848.00,0.0029
3847.00,0.0030
3846.00,0.0030
3845.00,0.0031
3844.00,0.0031
3843.00,0.0031
3842.00,0.0031
3841.00,0.0030
3840.00,0.0030
3839.00,0.0030
3838.00,0.0030
3837.00,0.0030
3836.00,0.0029
3835.00,0.0029
3834.00,0.0029
3833.00,0.0030
3832.00,0.0030
3831.00,0.0030
3830.00,0.0030
3829.00,0.0030
3828.00,0.0030
3827.00,0.0031
3826.00,0.0031
3825.00,0.0031
3824.00,0.0031
3823.00,0.0030
3822.00,0.0030
3821.00,0.0030
3820.00,0.0030
3819.00,0.0029
3818.00,0.0029
3817.00,0.0029
3816.00,0.0030
3815.00,0.0030
3814.00,0.0030
3813.00,0.0030
3812.00,0.0030
3811.00,0.0030
3810.00,0.0031
3809.00,0.0030
3808.00,0.0030
3807.00,0.0030
3806.00,0.0030
3805.00,0.0029
3804.00,0.0029
3803.00,0.0028
3802.00,0.0029
3801.00,0.0029
3800.00,0.0030
3799.00,0.0030
3798.00,0.0030
3797.00,0.0030
3796.00,0.0030
3795.00,0.0030
3794.00,0.0030
3793.00,0.0031
3792.00,0.0031
3791.00,0.0031
3790.00,0.0031
3789.00,0.0031
3788.00,0.0031
3787.00,0.0031
3786.00,0.0031
3785.00,0.0031
3784.00,0.0031
3783.00,0.0031
3782.00,0.0031
3781.00,0.0032
3780.00,0.0032
3779.00,0.0032
3778.00,0.0032
3777.00,0.0031
3776.00,0.0031
3775.00,0.0032
3774.00,0.0032
3773.00,0.0032
3772.00,0.0032
3771.00,0.0032
3770.00,0.0032
3769.00,0.0032
3768.00,0.0031
3767.00,0.0031
3766.00,0.0031
3765.00,0.0032
3764.00,0.0032
3763.00,0.0032
3762.00,0.0032
3761.00,0.0032
3760.00,0.0032
3759.00,0.0031
3758.00,0.0031
3757.00,0.0031
3756.00,0.0030
3755.00,0.0030
3754.00,0.0030
3753.00,0.0030
3752.00,0.0029
3751.00,0.0029
3750.00,0.0029
3749.00,0.0029
3748.00,0.0029
3747.00,0.0028
3746.00,0.0028
3745.00,0.0029
3744.00,0.0029
3743.00,0.0029
3742.00,0.0029
3741.00,0.0029
3740.00,0.0029
3739.00,0.0029
3738.00,0.0029
3737.00,0.0029
3736.00,0.0029
3735.00,0.0029
3734.00,0.0029
3733.00,0.0029
3732.00,0.0029
3731.00,0.0029
3730.00,0.0030
3729.00,0.0030
3728.00,0.0030
3727.00,0.0030
3726.00,0.0030
3725.00,0.0030
3724.00,0.0030
3723.00,0.0030
3722.00,0.0030
3721.00,0.0030
3720.00,0.0030
3719.00,0.0030
3718.00,0.0031
3717.00,0.0031
3716.00,0.0031
3715.00,0.0030
3714.00,0.0030
3713.00,0.0030
3712.00,0.0030
3711.00,0.0030
3710.00,0.0030
3709.00,0.0029
3708.00,0.0029
3707.00,0.0030
3706.00,0.0030
3705.00,0.0030
3704.00,0.0030
3703.00,0.0030
3702.00,0.0031
3701.00,0.0031
3700.00,0.0031
3699.00,0.0031
3698.00,0.0031
3697.00,0.0032
3696.00,0.0032
3695.00,0.0032
3694.00,0.0032
3693.00,0.0032
3692.00,0.0032
3691.00,0.0032
3690.00,0.0032
3689.00,0.0032
3688.00,0.0033
3687.00,0.0033
3686.00,0.0033
3685.00,0.0033
3684.00,0.0034
3683.00,0.0034
3682.00,0.0034
3681.00,0.0034
3680.00,0.0034
3679.00,0.0033
3678.00,0.0033
3677.00,0.0033
3676.00,0.0033
3675.00,0.0032
3674.00,0.0032
3673.00,0.0031
3672.00,0.0031
3671.00,0.0032
3670.00,0.0033
3669.00,0.0034
3668.00,0.0034
3667.00,0.0034
3666.00,0.0034
3665.00,0.0035
3664.00,0.0035
3663.00,0.0035
3662.00,0.0036
3661.00,0.0036
3660.00,0.0036
3659.00,0.0036
3658.00,0.0036
3657.00,0.0037
3656.00,0.0038
3655.00,0.0038
3654.00,0.0038
3653.00,0.0038
3652.00,0.0038
3651.00,0.0039
3650.00,0.0039
3649.00,0.0039
3648.00,0.0039
3647.00,0.0040
3646.00,0.0040
3645.00,0.0041
3644.00,0.0042
3643.00,0.0043
3642.00,0.0044
3641.00,0.0045
3640.00,0.0045
3639.00,0.0046
3638.00,0.0046
3637.00,0.0047
3636.00,0.0047
3635.00,0.0047
3634.00,0.0048
3633.00,0.0048
3632.00,0.0048
3631.00,0.0048
3630.00,0.0048
3629.00,0.0049
3628.00,0.0050
3627.00,0.0050
3626.00,0.0051
3625.00,0.0052
3624.00,0.0053
3623.00,0.0053
3622.00,0.0054
3621.00,0.0054
3620.00,0.0055
3619.00,0.0056
3618.00,0.0057
3617.00,0.0058
3616.00,0.0059
3615.00,0.0059
3614.00,0.0060
3613.00,0.0061
3612.00,0.0062
3611.00,0.0062
3610.00,0.0063
3609.00,0.0064
3608.00,0.0065
3607.00,0.0065
3606.00,0.0066
3605.00,0.0067
3604.00,0.0067
3603.00,0.0068
3602.00,0.0068
3601.00,0.0069
3600.00,0.0070
3599.00,0.0071
3598.00,0.0072
3597.00,0.0073
3596.00,0.0073
3595.00,0.0074
3594.00,0.0075
3593.00,0.0075
3592.00,0.0076
3591.00,0.0077
3590.00,0.0077
3589.00,0.0078
3588.00,0.0080
3587.00,0.0081
3586.00,0.0082
3585.00,0.0083
3584.00,0.0083
3583.00,0.0084
3582.00,0.0085
3581.00,0.0086
3580.00,0.0087
3579.00,0.0088
3578.00,0.0089
3577.00,0.0090
3576.00,0.0091
3575.00,0.0091
3574.00,0.0092
3573.00,0.0093
3572.00,0.0094
3571.00,0.0095
3570.00,0.0096
3569.00,0.0097
3568.00,0.0098
3567.00,0.0099
3566.00,0.0100
3565.00,0.0100
3564.00,0.0102
3563.00,0.0103
3562.00,0.0104
3561.00,0.0105
3560.00,0.0106
3559.00,0.0107
3558.00,0.0108
3557.00,0.0108
3556.00,0.0109
3555.00,0.0110
3554.00,0.0111
3553.00,0.0112
3552.00,0.0113
3551.00,0.0114
3550.00,0.0115
3549.00,0.0115
3548.00,0.0116
3547.00,0.0116
3546.00,0.0117
3545.00,0.0119
3544.00,0.0119
3543.00,0.0120
3542.00,0.0121
3541.00,0.0121
3540.00,0.0122
3539.00,0.0122
3538.00,0.0123
3537.00,0.0124
3536.00,0.0125
3535.00,0.0126
3534.00,0.0126
3533.00,0.0127
3532.00,0.0127
3531.00,0.0128
3530.00,0.0128
3529.00,0.0129
3528.00,0.0129
3527.00,0.0130
3526.00,0.0130
3525.00,0.0131
3524.00,0.0132
3523.00,0.0133
3522.00,0.0133
3521.00,0.0134
3520.00,0.0134
3519.00,0.0135
3518.00,0.0135
3517.00,0.0135
3516.00,0.0136
3515.00,0.0136
3514.00,0.0137
3513.00,0.0137
3512.00,0.0138
3511.00,0.0138
3510.00,0.0139
3509.00,0.0140
3508.00,0.0140
3507.00,0.0140
3506.00,0.0141
3505.00,0.0141
3504.00,0.0141
3503.00,0.0142
3502.00,0.0143
3501.00,0.0144
3500.00,0.0144
3499.00,0.0145
3498.00,0.0145
3497.00,0.0145
3496.00,0.0146
3495.00,0.0147
3494.00,0.0147
3493.00,0.0148
3492.00,0.0148
3491.00,0.0148
3490.00,0.0149
3489.00,0.0149
3488.00,0.0150
3487.00,0.0150
3486.00,0.0151
3485.00,0.0151
3484.00,0.0151
3483.00,0.0152
3482.00,0.0152
3481.00,0.0153
3480.00,0.0153
3479.00,0.0154
3478.00,0.0154
3477.00,0.0154
3476.00,0.0155
3475.00,0.0155
3474.00,0.0156
3473.00,0.0156
3472.00,0.0156
3471.00,0.0156
3470.00,0.0156
3469.00,0.0157
3468.00,0.0157
3467.00,0.0158
3466.00,0.0158
3465.00,0.0159
3464.00,0.0159
3463.00,0.0160
3462.00,0.0160
3461.00,0.0160
3460.00,0.0160
3459.00,0.0161
3458.00,0.0161
3457.00,0.0161
3456.00,0.0161
3455.00,0.0161
3454.00,0.0161
3453.00,0.0161
3452.00,0.0161
3451.00,0.0161
3450.00,0.0162
3449.00,0.0162
3448.00,0.0162
3447.00,0.0163
3446.00,0.0163
3445.00,0.0163
3444.00,0.0163
3443.00,0.0163
3442.00,0.0163
3441.00,0.0163
3440.00,0.0164
3439.00,0.0164
3438.00,0.0164
3437.00,0.0164
3436.00,0.0164
3435.00,0.0164
3434.00,0.0164
3433.00,0.0164
3432.00,0.0164
3431.00,0.0164
3430.00,0.0164
3429.00,0.0164
3428.00,0.0164
3427.00,0.0164
3426.00,0.0164
3425.00,0.0163
3424.00,0.0163
3423.00,0.0163
3422.00,0.0163
3421.00,0.0163
3420.00,0.0164
3419.00,0.0163
3418.00,0.0163
3417.00,0.0163
3416.00,0.0163
3415.00,0.0163
3414.00,0.0163
3413.00,0.0162
3412.00,0.0162
3411.00,0.0162
3410.00,0.0162
3409.00,0.0162
3408.00,0.0162
3407.00,0.0162
3406.00,0.0162
3405.00,0.0162
3404.00,0.0162
3403.00,0.0161
3402.00,0.0161
3401.00,0.0161
3400.00,0.0161
3399.00,0.0161
3398.00,0.0161
3397.00,0.0160
3396.00,0.0160
3395.00,0.0160
3394.00,0.0159
3393.00,0.0159
3392.00,0.0159
3391.00,0.0159
3390.00,0.0159
3389.00,0.0158
3388.00,0.0158
3387.00,0.0158
3386.00,0.0158
3385.00,0.0158
3384.00,0.0158
3383.00,0.0158
3382.00,0.0158
3381.00,0.0157
3380.00,0.0157
3379.00,0.0157
3378.00,0.0157
3377.00,0.0157
3376.00,0.0156
3375.00,0.0156
3374.00,0.0156
3373.00,0.0155
3372.00,0.0155
3371.00,0.0154
3370.00,0.0154
3369.00,0.0153
3368.00,0.0153
3367.00,0.0154
3366.00,0.0154
3365.00,0.0154
3364.00,0.0154
3363.00,0.0154
3362.00,0.0154
3361.00,0.0153
3360.00,0.0153
3359.00,0.0153
3358.00,0.0153
3357.00,0.0153
3356.00,0.0153
3355.00,0.0153
3354.00,0.0152
3353.00,0.0151
3352.00,0.0151
3351.00,0.0150
3350.00,0.0150
3349.00,0.0151
3348.00,0.0151
3347.00,0.0151
3346.00,0.0151
3345.00,0.0151
3344.00,0.0150
3343.00,0.0150
3342.00,0.0149
3341.00,0.0149
3340.00,0.0149
3339.00,0.0148
3338.00,0.0149
3337.00,0.0149
3336.00,0.0149
3335.00,0.0150
3334.00,0.0149
3333.00,0.0149
3332.00,0.0149
3331.00,0.0149
3330.00,0.0149
3329.00,0.0148
3328.00,0.0147
3327.00,0.0147
3326.00,0.0147
3325.00,0.0147
3324.00,0.0147
3323.00,0.0147
3322.00,0.0148
3321.00,0.0148
3320.00,0.0148
3319.00,0.0148
3318.00,0.0148
3317.00,0.0148
3316.00,0.0148
3315.00,0.0147
3314.00,0.0147
3313.00,0.0146
3312.00,0.0146
3311.00,0.0145
3310.00,0.0144
3309.00,0.0143
3308.00,0.0142
3307.00,0.0142
3306.00,0.0143
3305.00,0.0143
3304.00,0.0144
3303.00,0.0145
3302.00,0.0146
3301.00,0.0146
3300.00,0.0146
3299.00,0.0146
3298.00,0.0145
3297.00,0.0144
3296.00,0.0144
3295.00,0.0143
3294.00,0.0143
3293.00,0.0143
3292.00,0.0143
3291.00,0.0144
3290.00,0.0144
3289.00,0.0145
3288.00,0.0145
3287.00,0.0145
3286.00,0.0145
3285.00,0.0145
3284.00,0.0145
3283.00,0.0145
3282.00,0.0144
3281.00,0.0144
3280.00,0.0144
3279.00,0.0144
3278.00,0.0144
3277.00,0.0143
3276.00,0.0143
3275.00,0.0142
3274.00,0.0141
3273.00,0.0141
3272.00,0.0141
3271.00,0.0141
3270.00,0.0141
3269.00,0.0141
3268.00,0.0142
3267.00,0.0142
3266.00,0.0142
3265.00,0.0142
3264.00,0.0142
3263.00,0.0142
3262.00,0.0141
3261.00,0.0141
3260.00,0.0140
3259.00,0.0140
3258.00,0.0140
3257.00,0.0140
3256.00,0.0140
3255.00,0.0140
3254.00,0.0139
3253.00,0.0139
3252.00,0.0139
3251.00,0.0139
3250.00,0.0139
3249.00,0.0138
3248.00,0.0138
3247.00,0.0138
3246.00,0.0137
3245.00,0.0137
3244.00,0.0138
3243.00,0.0138
3242.00,0.0138
3241.00,0.0137
3240.00,0.0137
3239.00,0.0137
3238.00,0.0136
3237.00,0.0136
3236.00,0.0135
3235.00,0.0134
3234.00,0.0134
3233.00,0.0134
3232.00,0.0134
3231.00,0.0134
3230.00,0.0135
3229.00,0.0135
3228.00,0.0135
3227.00,0.0134
3226.00,0.0134
3225.00,0.0134
3224.00,0.0134
3223.00,0.0133
3222.00,0.0133
3221.00,0.0132
3220.00,0.0132
3219.00,0.0132
3218.00,0.0132
3217.00,0.0132
3216.00,0.0131
3215.00,0.0131
3214.00,0.0131
3213.00,0.0131
3212.00,0.0130
3211.00,0.0130
3210.00,0.0130
3209.00,0.0130
3208.00,0.0130
3207.00,0.0129
3206.00,0.0129
3205.00,0.0129
3204.00,0.0128
3203.00,0.0128
3202.00,0.0128
3201.00,0.0127
3200.00,0.0127
3199.00,0.0127
3198.00,0.0127
3197.00,0.0127
3196.00,0.0127
3195.00,0.0126
3194.00,0.0126
3193.00,0.0126
3192.00,0.0125
3191.00,0.0125
3190.00,0.0124
3189.00,0.0124
3188.00,0.0124
3187.00,0.0124
3186.00,0.0124
3185.00,0.0124
3184.00,0.0124
3183.00,0.0124
3182.00,0.0124
3181.00,0.0123
3180.00,0.0123
3179.00,0.0123
3178.00,0.0123
3177.00,0.0123
3176.00,0.0123
3175.00,0.0123
3174.00,0.0123
3173.00,0.0122
3172.00,0.0122
3171.00,0.0122
3170.00,0.0121
3169.00,0.0121
3168.00,0.0121
3167.00,0.0120
3166.00,0.0120
3165.00,0.0120
3164.00,0.0120
3163.00,0.0120
3162.00,0.0119
3161.00,0.0119
3160.00,0.0119
3159.00,0.0119
3158.00,0.0118
3157.00,0.0118
3156.00,0.0118
3155.00,0.0117
3154.00,0.0117
3153.00,0.0117
3152.00,0.0117
3151.00,0.0116
3150.00,0.0116
3149.00,0.0116
3148.00,0.0116
3147.00,0.0116
3146.00,0.0116
3145.00,0.0115
3144.00,0.0115
3143.00,0.0115
3142.00,0.0115
3141.00,0.0114
3140.00,0.0114
3139.00,0.0113
3138.00,0.0113
3137.00,0.0113
3136.00,0.0113
3135.00,0.0113
3134.00,0.0113
3133.00,0.0113
3132.00,0.0112
3131.00,0.0112
3130.00,0.0112
3129.00,0.0112
3128.00,0.0112
3127.00,0.0111
3126.00,0.0111
3125.00,0.0111
3124.00,0.0111
3123.00,0.0111
3122.00,0.0111
3121.00,0.0111
3120.00,0.0111
3119.00,0.0111
3118.00,0.0110
3117.00,0.0110
3116.00,0.0110
3115.00,0.0110
3114.00,0.0110
3113.00,0.0110
3112.00,0.0109
3111.00,0.0109
3110.00,0.0109
3109.00,0.0108
3108.00,0.0108
3107.00,0.0108
3106.00,0.0108
3105.00,0.0108
3104.00,0.0107
3103.00,0.0107
3102.00,0.0107
3101.00,0.0106
3100.00,0.0106
3099.00,0.0106
3098.00,0.0106
3097.00,0.0106
3096.00,0.0106
3095.00,0.0106
3094.00,0.0106
3093.00,0.0106
3092.00,0.0106
3091.00,0.0106
3090.00,0.0106
3089.00,0.0106
3088.00,0.0106
3087.00,0.0106
3086.00,0.0106
3085.00,0.0106
3084.00,0.0106
3083.00,0.0106
3082.00,0.0106
3081.00,0.0106
3080.00,0.0106
3079.00,0.0106
3078.00,0.0105
3077.00,0.0105
3076.00,0.0105
3075.00,0.0105
3074.00,0.0105
3073.00,0.0104
3072.00,0.0104
3071.00,0.0104
3070.00,0.0104
3069.00,0.0103
3068.00,0.0103
3067.00,0.0103
3066.00,0.0103
3065.00,0.0102
3064.00,0.0102
3063.00,0.0102
3062.00,0.0102
3061.00,0.0101
3060.00,0.0101
3059.00,0.0101
3058.00,0.0100
3057.00,0.0100
3056.00,0.0100
3055.00,0.0100
3054.00,0.0099
3053.00,0.0100
3052.00,0.0100
3051.00,0.0099
3050.00,0.0099
3049.00,0.0099
3048.00,0.0099
3047.00,0.0099
3046.00,0.0099
3045.00,0.0099
3044.00,0.0098
3043.00,0.0098
3042.00,0.0098
3041.00,0.0098
3040.00,0.0098
3039.00,0.0097
3038.00,0.0097
3037.00,0.0097
3036.00,0.0097
3035.00,0.0097
3034.00,0.0097
3033.00,0.0097
3032.00,0.0097
3031.00,0.0097
3030.00,0.0097
3029.00,0.0097
3028.00,0.0097
3027.00,0.0096
3026.00,0.0096
3025.00,0.0096
3024.00,0.0096
3023.00,0.0096
3022.00,0.0095
3021.00,0.0095
3020.00,0.0095
3019.00,0.0096
3018.00,0.0096
3017.00,0.0096
3016.00,0.0097
3015.00,0.0097
3014.00,0.0097
3013.00,0.0098
3012.00,0.0098
3011.00,0.0099
3010.00,0.0099
3009.00,0.0099
3008.00,0.0100
3007.00,0.0101
3006.00,0.0102
3005.00,0.0103
3004.00,0.0104
3003.00,0.0106
3002.00,0.0107
3001.00,0.0109
3000.00,0.0111
2999.00,0.0113
2998.00,0.0116
2997.00,0.0119
2996.00,0.0123
2995.00,0.0126
2994.00,0.0130
2993.00,0.0134
2992.00,0.0138
2991.00,0.0142
2990.00,0.0146
2989.00,0.0150
2988.00,0.0154
2987.00,0.0158
2986.00,0.0160
2985.00,0.0162
2984.00,0.0163
2983.00,0.0163
2982.00,0.0164
2981.00,0.0166
2980.00,0.0170
2979.00,0.0175
2978.00,0.0180
2977.00,0.0185
2976.00,0.0189
2975.00,0.0192
2974.00,0.0195
2973.00,0.0197
2972.00,0.0199
2971.00,0.0202
2970.00,0.0206
2969.00,0.0211
2968.00,0.0215
2967.00,0.0219
2966.00,0.0223
2965.00,0.0227
2964.00,0.0231
2963.00,0.0235
2962.00,0.0238
2961.00,0.0242
2960.00,0.0245
2959.00,0.0248
2958.00,0.0251
2957.00,0.0253
2956.00,0.0255
2955.00,0.0257
2954.00,0.0258
2953.00,0.0259
2952.00,0.0260
2951.00,0.0260
2950.00,0.0260
2949.00,0.0260
2948.00,0.0259
2947.00,0.0259
2946.00,0.0259
2945.00,0.0259
2944.00,0.0260
2943.00,0.0261
2942.00,0.0261
2941.00,0.0262
2940.00,0.0263
2939.00,0.0265
2938.00,0.0266
2937.00,0.0268
2936.00,0.0271
2935.00,0.0273
2934.00,0.0275
2933.00,0.0277
2932.00,0.0280
2931.00,0.0282
2930.00,0.0284
2929.00,0.0285
2928.00,0.0287
2927.00,0.0288
2926.00,0.0288
2925.00,0.0288
2924.00,0.0287
2923.00,0.0286
2922.00,0.0284
2921.00,0.0282
2920.00,0.0279
2919.00,0.0276
2918.00,0.0272
2917.00,0.0268
2916.00,0.0264
2915.00,0.0260
2914.00,0.0255
2913.00,0.0251
2912.00,0.0247
2911.00,0.0242
2910.00,0.0238
2909.00,0.0233
2908.00,0.0229
2907.00,0.0226
2906.00,0.0222
2905.00,0.0220
2904.00,0.0217
2903.00,0.0215
2902.00,0.0214
2901.00,0.0212
2900.00,0.0211
2899.00,0.0210
2898.00,0.0209
2897.00,0.0209
2896.00,0.0208
2895.00,0.0208
2894.00,0.0207
2893.00,0.0207
2892.00,0.0207
2891.00,0.0206
2890.00,0.0206
2889.00,0.0205
2888.00,0.0205
2887.00,0.0204
2886.00,0.0204
2885.00,0.0204
2884.00,0.0204
2883.00,0.0204
2882.00,0.0205
2881.00,0.0206
2880.00,0.0208
2879.00,0.0209
2878.00,0.0210
2877.00,0.0211
2876.00,0.0212
2875.00,0.0213
2874.00,0.0214
2873.00,0.0215
2872.00,0.0216
2871.00,0.0216
2870.00,0.0216
2869.00,0.0216
2868.00,0.0215
2867.00,0.0215
2866.00,0.0215
2865.00,0.0215
2864.00,0.0215
2863.00,0.0215
2862.00,0.0215
2861.00,0.0215
2860.00,0.0215
2859.00,0.0214
2858.00,0.0213
2857.00,0.0211
2856.00,0.0209
2855.00,0.0206
2854.00,0.0203
2853.00,0.0199
2852.00,0.0194
2851.00,0.0189
2850.00,0.0184
2849.00,0.0179
2848.00,0.0174
2847.00,0.0170
2846.00,0.0165
2845.00,0.0161
2844.00,0.0156
2843.00,0.0152
2842.00,0.0147
2841.00,0.0143
2840.00,0.0139
2839.00,0.0136
2838.00,0.0133
2837.00,0.0130
2836.00,0.0127
2835.00,0.0125
2834.00,0.0123
2833.00,0.0120
2832.00,0.0118
2831.00,0.0116
2830.00,0.0114
2829.00,0.0112
2828.00,0.0110
2827.00,0.0108
2826.00,0.0106
2825.00,0.0104
2824.00,0.0102
2823.00,0.0100
2822.00,0.0099
2821.00,0.0097
2820.00,0.0096
2819.00,0.0094
2818.00,0.0093
2817.00,0.0092
2816.00,0.0091
2815.00,0.0090
2814.00,0.0089
2813.00,0.0088
2812.00,0.0087
2811.00,0.0086
2810.00,0.0086
2809.00,0.0085
2808.00,0.0084
2807.00,0.0084
2806.00,0.0084
2805.00,0.0083
2804.00,0.0083
2803.00,0.0082
2802.00,0.0081
2801.00,0.0081
2800.00,0.0080
2799.00,0.0080
2798.00,0.0080
2797.00,0.0079
2796.00,0.0079
2795.00,0.0079
2794.00,0.0078
2793.00,0.0078
2792.00,0.0078
2791.00,0.0077
2790.00,0.0077
2789.00,0.0077
2788.00,0.0077
2787.00,0.0076
2786.00,0.0076
2785.00,0.0076
2784.00,0.0075
2783.00,0.0075
2782.00,0.0075
2781.00,0.0074
2780.00,0.0074
2779.00,0.0074
2778.00,0.0074
2777.00,0.0073
2776.00,0.0073
2775.00,0.0073
2774.00,0.0072
2773.00,0.0072
2772.00,0.0072
2771.00,0.0071
2770.00,0.0071
2769.00,0.0071
2768.00,0.0071
2767.00,0.0071
2766.00,0.0071
2765.00,0.0070
2764.00,0.0070
2763.00,0.0070
2762.00,0.0070
2761.00,0.0070
2760.00,0.0070
2759.00,0.0071
2758.00,0.0071
2757.00,0.0071
2756.00,0.0071
2755.00,0.0071
2754.00,0.0071
2753.00,0.0071
2752.00,0.0070
2751.00,0.0070
2750.00,0.0070
2749.00,0.0071
2748.00,0.0071
2747.00,0.0071
2746.00,0.0071
2745.00,0.0071
2744.00,0.0071
2743.00,0.0071
2742.00,0.0071
2741.00,0.0072
2740.00,0.0072
2739.00,0.0072
2738.00,0.0072
2737.00,0.0072
2736.00,0.0072
2735.00,0.0072
2734.00,0.0072
2733.00,0.0072
2732.00,0.0072
2731.00,0.0072
2730.00,0.0072
2729.00,0.0071
2728.00,0.0071
2727.00,0.0071
2726.00,0.0070
2725.00,0.0070
2724.00,0.0070
2723.00,0.0070
2722.00,0.0070
2721.00,0.0070
2720.00,0.0070
2719.00,0.0070
2718.00,0.0069
2717.00,0.0069
2716.00,0.0069
2715.00,0.0069
2714.00,0.0069
2713.00,0.0069
2712.00,0.0069
2711.00,0.0069
2710.00,0.0069
2709.00,0.0068
2708.00,0.0068
2707.00,0.0068
2706.00,0.0068
2705.00,0.0068
2704.00,0.0067
2703.00,0.0067
2702.00,0.0067
2701.00,0.0067
2700.00,0.0066
2699.00,0.0066
2698.00,0.0066
2697.00,0.0066
2696.00,0.0066
2695.00,0.0066
2694.00,0.0065
2693.00,0.0065
2692.00,0.0065
2691.00,0.0065
2690.00,0.0064
2689.00,0.0064
2688.00,0.0064
2687.00,0.0064
2686.00,0.0064
2685.00,0.0064
2684.00,0.0064
2683.00,0.0064
2682.00,0.0063
2681.00,0.0063
2680.00,0.0063
2679.00,0.0063
2678.00,0.0063
2677.00,0.0063
2676.00,0.0063
2675.00,0.0063
2674.00,0.0063
2673.00,0.0063
2672.00,0.0063
2671.00,0.0063
2670.00,0.0063
2669.00,0.0063
2668.00,0.0063
2667.00,0.0063
2666.00,0.0063
2665.00,0.0063
2664.00,0.0064
2663.00,0.0064
2662.00,0.0064
2661.00,0.0065
2660.00,0.0065
2659.00,0.0065
2658.00,0.0065
2657.00,0.0065
2656.00,0.0065
2655.00,0.0066
2654.00,0.0066
2653.00,0.0066
2652.00,0.0066
2651.00,0.0066
2650.00,0.0066
2649.00,0.0066
2648.00,0.0066
2647.00,0.0065
2646.00,0.0065
2645.00,0.0065
2644.00,0.0065
2643.00,0.0065
2642.00,0.0065
2641.00,0.0065
2640.00,0.0065
2639.00,0.0064
2638.00,0.0064
2637.00,0.0064
2636.00,0.0064
2635.00,0.0064
2634.00,0.0064
2633.00,0.0064
2632.00,0.0064
2631.00,0.0064
2630.00,0.0063
2629.00,0.0063
2628.00,0.0063
2627.00,0.0063
2626.00,0.0062
2625.00,0.0062
2624.00,0.0062
2623.00,0.0062
2622.00,0.0062
2621.00,0.0062
2620.00,0.0062
2619.00,0.0062
2618.00,0.0062
2617.00,0.0061
2616.00,0.0061
2615.00,0.0061
2614.00,0.0060
2613.00,0.0060
2612.00,0.0060
2611.00,0.0060
2610.00,0.0060
2609.00,0.0060
2608.00,0.0060
2607.00,0.0060
2606.00,0.0060
2605.00,0.0060
2604.00,0.0060
2603.00,0.0060
2602.00,0.0059
2601.00,0.0059
2600.00,0.0059
2599.00,0.0059
2598.00,0.0059
2597.00,0.0059
2596.00,0.0059
2595.00,0.0059
2594.00,0.0059
2593.00,0.0059
2592.00,0.0058
2591.00,0.0058
2590.00,0.0058
2589.00,0.0058
2588.00,0.0058
2587.00,0.0057
2586.00,0.0057
2585.00,0.0057
2584.00,0.0057
2583.00,0.0057
2582.00,0.0057
2581.00,0.0058
2580.00,0.0058
2579.00,0.0057
2578.00,0.0057
2577.00,0.0057
2576.00,0.0057
2575.00,0.0056
2574.00,0.0056
2573.00,0.0056
2572.00,0.0056
2571.00,0.0056
2570.00,0.0055
2569.00,0.0055
2568.00,0.0055
2567.00,0.0055
2566.00,0.0055
2565.00,0.0055
2564.00,0.0055
2563.00,0.0055
2562.00,0.0055
2561.00,0.0055
2560.00,0.0055
2559.00,0.0054
2558.00,0.0054
2557.00,0.0054
2556.00,0.0054
2555.00,0.0054
2554.00,0.0054
2553.00,0.0053
2552.00,0.0053
2551.00,0.0053
2550.00,0.0053
2549.00,0.0053
2548.00,0.0053
2547.00,0.0052
2546.00,0.0052
2545.00,0.0052
2544.00,0.0051
2543.00,0.0051
2542.00,0.0051
2541.00,0.0051
2540.00,0.0051
2539.00,0.0051
2538.00,0.0051
2537.00,0.0050
2536.00,0.0050
2535.00,0.0050
2534.00,0.0050
2533.00,0.0050
2532.00,0.0050
2531.00,0.0049
2530.00,0.0049
2529.00,0.0049
2528.00,0.0049
2527.00,0.0048
2526.00,0.0048
2525.00,0.0048
2524.00,0.0047
2523.00,0.0047
2522.00,0.0047
2521.00,0.0047
2520.00,0.0047
2519.00,0.0047
2518.00,0.0047
2517.00,0.0047
2516.00,0.0046
2515.00,0.0046
2514.00,0.0046
2513.00,0.0046
2512.00,0.0046
2511.00,0.0046
2510.00,0.0046
2509.00,0.0045
2508.00,0.0045
2507.00,0.0045
2506.00,0.0045
2505.00,0.0045
2504.00,0.0045
2503.00,0.0045
2502.00,0.0044
2501.00,0.0044
2500.00,0.0044
2499.00,0.0045
2498.00,0.0045
2497.00,0.0045
2496.00,0.0045
2495.00,0.0045
2494.00,0.0045
2493.00,0.0045
2492.00,0.0045
2491.00,0.0045
2490.00,0.0045
2489.00,0.0045
2488.00,0.0045
2487.00,0.0045
2486.00,0.0045
2485.00,0.0045
2484.00,0.0044
2483.00,0.0044
2482.00,0.0044
2481.00,0.0044
2480.00,0.0043
2479.00,0.0043
2478.00,0.0043
2477.00,0.0043
2476.00,0.0043
2475.00,0.0043
2474.00,0.0044
2473.00,0.0044
2472.00,0.0044
2471.00,0.0044
2470.00,0.0043
2469.00,0.0043
2468.00,0.0043
2467.00,0.0043
2466.00,0.0043
2465.00,0.0043
2464.00,0.0044
2463.00,0.0044
2462.00,0.0044
2461.00,0.0045
2460.00,0.0045
2459.00,0.0045
2458.00,0.0045
2457.00,0.0045
2456.00,0.0045
2455.00,0.0045
2454.00,0.0045
2453.00,0.0045
2452.00,0.0044
2451.00,0.0044
2450.00,0.0044
2449.00,0.0044
2448.00,0.0044
2447.00,0.0044
2446.00,0.0043
2445.00,0.0043
2444.00,0.0043
2443.00,0.0043
2442.00,0.0043
2441.00,0.0044
2440.00,0.0044
2439.00,0.0044
2438.00,0.0044
2437.00,0.0044
2436.00,0.0044
2435.00,0.0043
2434.00,0.0043
2433.00,0.0043
2432.00,0.0043
2431.00,0.0042
2430.00,0.0042
2429.00,0.0042
2428.00,0.0042
2427.00,0.0042
2426.00,0.0042
2425.00,0.0042
2424.00,0.0041
2423.00,0.0041
2422.00,0.0041
2421.00,0.0042
2420.00,0.0042
2419.00,0.0042
2418.00,0.0042
2417.00,0.0042
2416.00,0.0042
2415.00,0.0042
2414.00,0.0042
2413.00,0.0042
2412.00,0.0042
2411.00,0.0042
2410.00,0.0041
2409.00,0.0041
2408.00,0.0041
2407.00,0.0040
2406.00,0.0040
2405.00,0.0040
2404.00,0.0040
2403.00,0.0041
2402.00,0.0041
2401.00,0.0041
2400.00,0.0041
2399.00,0.0040
2398.00,0.0040
2397.00,0.0039
2396.00,0.0039
2395.00,0.0039
2394.00,0.0039
2393.00,0.0039
2392.00,0.0039
2391.00,0.0039
2390.00,0.0039
2389.00,0.0039
2388.00,0.0038
2387.00,0.0038
2386.00,0.0038
2385.00,0.0038
2384.00,0.0038
2383.00,0.0037
2382.00,0.0037
2381.00,0.0037
2380.00,0.0037
2379.00,0.0037
2378.00,0.0038
2377.00,0.0038
2376.00,0.0038
2375.00,0.0037
2374.00,0.0037
2373.00,0.0037
2372.00,0.0037
2371.00,0.0037
2370.00,0.0037
2369.00,0.0037
2368.00,0.0038
2367.00,0.0038
2366.00,0.0038
2365.00,0.0037
2364.00,0.0038
2363.00,0.0038
2362.00,0.0038
2361.00,0.0039
2360.00,0.0040
2359.00,0.0040
2358.00,0.0040
2357.00,0.0040
2356.00,0.0040
2355.00,0.0040
2354.00,0.0040
2353.00,0.0040
2352.00,0.0040
2351.00,0.0040
2350.00,0.0040
2349.00,0.0041
2348.00,0.0041
2347.00,0.0041
2346.00,0.0041
2345.00,0.0042
2344.00,0.0042
2343.00,0.0043
2342.00,0.0043
2341.00,0.0044
2340.00,0.0044
2339.00,0.0044
2338.00,0.0044
2337.00,0.0044
2336.00,0.0044
2335.00,0.0044
2334.00,0.0043
2333.00,0.0043
2332.00,0.0043
2331.00,0.0043
2330.00,0.0044
2329.00,0.0047
2328.00,0.0051
2327.00,0.0056
2326.00,0.0059
2325.00,0.0060
2324.00,0.0059
2323.00,0.0057
2322.00,0.0054
2321.00,0.0053
2320.00,0.0052
2319.00,0.0052
2318.00,0.0051
2317.00,0.0051
2316.00,0.0051
2315.00,0.0050
2314.00,0.0049
2313.00,0.0049
2312.00,0.0048
2311.00,0.0048
2310.00,0.0048
2309.00,0.0048
2308.00,0.0048
2307.00,0.0048
2306.00,0.0048
2305.00,0.0048
2304.00,0.0048
2303.00,0.0048
2302.00,0.0048
2301.00,0.0049
2300.00,0.0049
2299.00,0.0049
2298.00,0.0050
2297.00,0.0050
2296.00,0.0051
2295.00,0.0052
2294.00,0.0053
2293.00,0.0054
2292.00,0.0054
2291.00,0.0055
2290.00,0.0056
2289.00,0.0056
2288.00,0.0057
2287.00,0.0057
2286.00,0.0056
2285.00,0.0055
2284.00,0.0054
2283.00,0.0053
2282.00,0.0052
2281.00,0.0052
2280.00,0.0052
2279.00,0.0051
2278.00,0.0051
2277.00,0.0050
2276.00,0.0050
2275.00,0.0049
2274.00,0.0049
2273.00,0.0050
2272.00,0.0049
2271.00,0.0049
2270.00,0.0048
2269.00,0.0047
2268.00,0.0046
2267.00,0.0046
2266.00,0.0045
2265.00,0.0046
2264.00,0.0046
2263.00,0.0047
2262.00,0.0047
2261.00,0.0048
2260.00,0.0049
2259.00,0.0048
2258.00,0.0047
2257.00,0.0045
2256.00,0.0043
2255.00,0.0042
2254.00,0.0043
2253.00,0.0044
2252.00,0.0045
2251.00,0.0045
2250.00,0.0045
2249.00,0.0044
2248.00,0.0044
2247.00,0.0044
2246.00,0.0044
2245.00,0.0045
2244.00,0.0046
2243.00,0.0046
2242.00,0.0046
2241.00,0.0046
2240.00,0.0047
2239.00,0.0047
2238.00,0.0047
2237.00,0.0047
2236.00,0.0047
2235.00,0.0047
2234.00,0.0046
2233.00,0.0045
2232.00,0.0045
2231.00,0.0044
2230.00,0.0043
2229.00,0.0043
2228.00,0.0042
2227.00,0.0042
2226.00,0.0042
2225.00,0.0042
2224.00,0.0044
2223.00,0.0044
2222.00,0.0045
2221.00,0.0045
2220.00,0.0045
2219.00,0.0046
2218.00,0.0046
2217.00,0.0046
2216.00,0.0047
2215.00,0.0047
2214.00,0.0046
2213.00,0.0045
2212.00,0.0045
2211.00,0.0045
2210.00,0.0045
2209.00,0.0046
2208.00,0.0047
2207.00,0.0047
2206.00,0.0046
2205.00,0.0046
2204.00,0.0045
2203.00,0.0045
2202.00,0.0044
2201.00,0.0044
2200.00,0.0045
2199.00,0.0046
2198.00,0.0047
2197.00,0.0048
2196.00,0.0048
2195.00,0.0048
2194.00,0.0047
2193.00,0.0047
2192.00,0.0048
2191.00,0.0049
2190.00,0.0050
2189.00,0.0050
2188.00,0.0050
2187.00,0.0049
2186.00,0.0048
2185.00,0.0047
2184.00,0.0045
2183.00,0.0043
2182.00,0.0041
2181.00,0.0041
2180.00,0.0043
2179.00,0.0043
2178.00,0.0044
2177.00,0.0044
2176.00,0.0044
2175.00,0.0045
2174.00,0.0045
2173.00,0.0046
2172.00,0.0048
2171.00,0.0050
2170.00,0.0052
2169.00,0.0054
2168.00,0.0057
2167.00,0.0059
2166.00,0.0059
2165.00,0.0060
2164.00,0.0061
2163.00,0.0061
2162.00,0.0054
2161.00,0.0040
2160.00,0.0024
2159.00,0.0012
2158.00,0.0007
2157.00,0.0008
2156.00,0.0011
2155.00,0.0013
2154.00,0.0016
2153.00,0.0018
2152.00,0.0021
2151.00,0.0023
2150.00,0.0023
2149.00,0.0023
2148.00,0.0022
2147.00,0.0021
2146.00,0.0020
2145.00,0.0021
2144.00,0.0023
2143.00,0.0024
2142.00,0.0024
2141.00,0.0024
2140.00,0.0024
2139.00,0.0023
2138.00,0.0021
2137.00,0.0020
2136.00,0.0019
2135.00,0.0018
2134.00,0.0019
2133.00,0.0020
2132.00,0.0022
2131.00,0.0024
2130.00,0.0025
2129.00,0.0027
2128.00,0.0029
2127.00,0.0030
2126.00,0.0030
2125.00,0.0031
2124.00,0.0032
2123.00,0.0034
2122.00,0.0035
2121.00,0.0035
2120.00,0.0036
2119.00,0.0038
2118.00,0.0039
2117.00,0.0040
2116.00,0.0042
2115.00,0.0043
2114.00,0.0043
2113.00,0.0042
2112.00,0.0042
2111.00,0.0042
2110.00,0.0041
2109.00,0.0040
2108.00,0.0040
2107.00,0.0041
2106.00,0.0041
2105.00,0.0041
2104.00,0.0041
2103.00,0.0041
2102.00,0.0041
2101.00,0.0040
2100.00,0.0040
2099.00,0.0039
2098.00,0.0038
2097.00,0.0036
2096.00,0.0035
2095.00,0.0035
2094.00,0.0036
2093.00,0.0037
2092.00,0.0039
2091.00,0.0040
2090.00,0.0041
2089.00,0.0041
2088.00,0.0041
2087.00,0.0041
2086.00,0.0041
2085.00,0.0041
2084.00,0.0042
2083.00,0.0043
2082.00,0.0043
2081.00,0.0044
2080.00,0.0044
2079.00,0.0044
2078.00,0.0044
2077.00,0.0043
2076.00,0.0043
2075.00,0.0042
2074.00,0.0042
2073.00,0.0041
2072.00,0.0041
2071.00,0.0041
2070.00,0.0041
2069.00,0.0041
2068.00,0.0041
2067.00,0.0040
2066.00,0.0040
2065.00,0.0039
2064.00,0.0039
2063.00,0.0038
2062.00,0.0038
2061.00,0.0038
2060.00,0.0039
2059.00,0.0040
2058.00,0.0040
2057.00,0.0041
2056.00,0.0041
2055.00,0.0042
2054.00,0.0045
2053.00,0.0049
2052.00,0.0053
2051.00,0.0054
2050.00,0.0051
2049.00,0.0047
2048.00,0.0045
2047.00,0.0043
2046.00,0.0042
2045.00,0.0041
2044.00,0.0041
2043.00,0.0040
2042.00,0.0040
2041.00,0.0040
2040.00,0.0041
2039.00,0.0041
2038.00,0.0041
2037.00,0.0039
2036.00,0.0038
2035.00,0.0037
2034.00,0.0036
2033.00,0.0035
2032.00,0.0036
2031.00,0.0036
2030.00,0.0035
2029.00,0.0035
2028.00,0.0035
2027.00,0.0036
2026.00,0.0034
2025.00,0.0032
2024.00,0.0031
2023.00,0.0031
2022.00,0.0031
2021.00,0.0033
2020.00,0.0034
2019.00,0.0034
2018.00,0.0033
2017.00,0.0032
2016.00,0.0031
2015.00,0.0032
2014.00,0.0032
2013.00,0.0032
2012.00,0.0033
2011.00,0.0032
2010.00,0.0031
2009.00,0.0028
2008.00,0.0025
2007.00,0.0022
2006.00,0.0020
2005.00,0.0020
2004.00,0.0023
2003.00,0.0025
2002.00,0.0028
2001.00,0.0030
2000.00,0.0032
1999.00,0.0034
1998.00,0.0034
1997.00,0.0034
1996.00,0.0034
1995.00,0.0035
1994.00,0.0035
1993.00,0.0036
1992.00,0.0037
1991.00,0.0038
1990.00,0.0038
1989.00,0.0038
1988.00,0.0039
1987.00,0.0039
1986.00,0.0040
1985.00,0.0041
1984.00,0.0045
1983.00,0.0048
1982.00,0.0051
1981.00,0.0050
1980.00,0.0046
1979.00,0.0039
1978.00,0.0031
1977.00,0.0026
1976.00,0.0025
1975.00,0.0025
1974.00,0.0025
1973.00,0.0025
1972.00,0.0026
1971.00,0.0026
1970.00,0.0025
1969.00,0.0025
1968.00,0.0025
1967.00,0.0026
1966.00,0.0026
1965.00,0.0026
1964.00,0.0027
1963.00,0.0026
1962.00,0.0024
1961.00,0.0022
1960.00,0.0021
1959.00,0.0020
1958.00,0.0020
1957.00,0.0022
1956.00,0.0024
1955.00,0.0025
1954.00,0.0026
1953.00,0.0026
1952.00,0.0027
1951.00,0.0027
1950.00,0.0026
1949.00,0.0026
1948.00,0.0027
1947.00,0.0027
1946.00,0.0027
1945.00,0.0027
1944.00,0.0028
1943.00,0.0029
1942.00,0.0029
1941.00,0.0029
1940.00,0.0029
1939.00,0.0030
1938.00,0.0030
1937.00,0.0030
1936.00,0.0030
1935.00,0.0031
1934.00,0.0031
1933.00,0.0030
1932.00,0.0030
1931.00,0.0030
1930.00,0.0029
1929.00,0.0029
1928.00,0.0029
1927.00,0.0029
1926.00,0.0029
1925.00,0.0030
1924.00,0.0031
1923.00,0.0031
1922.00,0.0031
1921.00,0.0031
1920.00,0.0031
1919.00,0.0031
1918.00,0.0031
1917.00,0.0031
1916.00,0.0031
1915.00,0.0031
1914.00,0.0030
1913.00,0.0030
1912.00,0.0030
1911.00,0.0031
1910.00,0.0031
1909.00,0.0031
1908.00,0.0031
1907.00,0.0031
1906.00,0.0031
1905.00,0.0031
1904.00,0.0032
1903.00,0.0032
1902.00,0.0031
1901.00,0.0031
1900.00,0.0031
1899.00,0.0032
1898.00,0.0032
1897.00,0.0032
1896.00,0.0032
1895.00,0.0032
1894.00,0.0032
1893.00,0.0032
1892.00,0.0033
1891.00,0.0033
1890.00,0.0032
1889.00,0.0032
1888.00,0.0032
1887.00,0.0032
1886.00,0.0032
1885.00,0.0031
1884.00,0.0031
1883.00,0.0031
1882.00,0.0031
1881.00,0.0032
1880.00,0.0032
1879.00,0.0032
1878.00,0.0032
1877.00,0.0032
1876.00,0.0032
1875.00,0.0032
1874.00,0.0032
1873.00,0.0032
1872.00,0.0033
1871.00,0.0033
1870.00,0.0034
1869.00,0.0033
1868.00,0.0033
1867.00,0.0033
1866.00,0.0032
1865.00,0.0031
1864.00,0.0032
1863.00,0.0032
1862.00,0.0032
1861.00,0.0032
1860.00,0.0032
1859.00,0.0033
1858.00,0.0032
1857.00,0.0033
1856.00,0.0033
1855.00,0.0034
1854.00,0.0034
1853.00,0.0034
1852.00,0.0034
1851.00,0.0034
1850.00,0.0033
1849.00,0.0033
1848.00,0.0034
1847.00,0.0034
1846.00,0.0034
1845.00,0.0034
1844.00,0.0033
1843.00,0.0033
1842.00,0.0033
1841.00,0.0033
1840.00,0.0034
1839.00,0.0034
1838.00,0.0033
1837.00,0.0033
1836.00,0.0033
1835.00,0.0032
1834.00,0.0032
1833.00,0.0033
1832.00,0.0033
1831.00,0.0034
1830.00,0.0033
1829.00,0.0032
1828.00,0.0032
1827.00,0.0033
1826.00,0.0033
1825.00,0.0033
1824.00,0.0033
1823.00,0.0033
1822.00,0.0033
1821.00,0.0033
1820.00,0.0032
1819.00,0.0031
1818.00,0.0030
1817.00,0.0029
1816.00,0.0030
1815.00,0.0031
1814.00,0.0031
1813.00,0.0032
1812.00,0.0033
1811.00,0.0034
1810.00,0.0033
1809.00,0.0033
1808.00,0.0033
1807.00,0.0034
1806.00,0.0034
1805.00,0.0034
1804.00,0.0034
1803.00,0.0034
1802.00,0.0034
1801.00,0.0034
1800.00,0.0034
1799.00,0.0034
1798.00,0.0034
1797.00,0.0034
1796.00,0.0035
1795.00,0.0035
1794.00,0.0035
1793.00,0.0035
1792.00,0.0035
1791.00,0.0035
1790.00,0.0035
1789.00,0.0035
1788.00,0.0036
1787.00,0.0036
1786.00,0.0036
1785.00,0.0036
1784.00,0.0036
1783.00,0.0037
1782.00,0.0037
1781.00,0.0036
1780.00,0.0036
1779.00,0.0036
1778.00,0.0036
1777.00,0.0036
1776.00,0.0037
1775.00,0.0039
1774.00,0.0039
1773.00,0.0039
1772.00,0.0038
1771.00,0.0037
1770.00,0.0037
1769.00,0.0037
1768.00,0.0038
1767.00,0.0038
1766.00,0.0038
1765.00,0.0039
1764.00,0.0040
1763.00,0.0040
1762.00,0.0040
1761.00,0.0039
1760.00,0.0040
1759.00,0.0040
1758.00,0.0040
1757.00,0.0040
1756.00,0.0041
1755.00,0.0041
1754.00,0.0042
1753.00,0.0043
1752.00,0.0044
1751.00,0.0045
1750.00,0.0045
1749.00,0.0045
1748.00,0.0046
1747.00,0.0046
1746.00,0.0046
1745.00,0.0046
1744.00,0.0047
1743.00,0.0048
1742.00,0.0048
1741.00,0.0048
1740.00,0.0049
1739.00,0.0049
1738.00,0.0049
1737.00,0.0050
1736.00,0.0052
1735.00,0.0054
1734.00,0.0054
1733.00,0.0054
1732.00,0.0055
1731.00,0.0056
1730.00,0.0057
1729.00,0.0057
1728.00,0.0059
1727.00,0.0061
1726.00,0.0062
1725.00,0.0063
1724.00,0.0065
1723.00,0.0067
1722.00,0.0068
1721.00,0.0069
1720.00,0.0073
1719.00,0.0077
1718.00,0.0079
1717.00,0.0081
1716.00,0.0083
1715.00,0.0086
1714.00,0.0088
1713.00,0.0093
1712.00,0.0098
1711.00,0.0104
1710.00,0.0109
1709.00,0.0115
1708.00,0.0122
1707.00,0.0132
1706.00,0.0143
1705.00,0.0155
1704.00,0.0168
1703.00,0.0178
1702.00,0.0191
1701.00,0.0213
1700.00,0.0247
1699.00,0.0277
1698.00,0.0301
1697.00,0.0328
1696.00,0.0366
1695.00,0.0407
1694.00,0.0442
1693.00,0.0471
1692.00,0.0502
1691.00,0.0538
1690.00,0.0577
1689.00,0.0617
1688.00,0.0653
1687.00,0.0683
1686.00,0.0714
1685.00,0.0757
1684.00,0.0814
1683.00,0.0862
1682.00,0.0891
1681.00,0.0914
1680.00,0.0937
1679.00,0.0959
1678.00,0.0976
1677.00,0.0994
1676.00,0.1017
1675.00,0.1044
1674.00,0.1065
1673.00,0.1079
1672.00,0.1089
1671.00,0.1102
1670.00,0.1120
1669.00,0.1141
1668.00,0.1159
1667.00,0.1171
1666.00,0.1178
1665.00,0.1185
1664.00,0.1196
1663.00,0.1213
1662.00,0.1230
1661.00,0.1243
1660.00,0.1251
1659.00,0.1256
1658.00,0.1259
1657.00,0.1258
1656.00,0.1254
1655.00,0.1252
1654.00,0.1256
1653.00,0.1267
1652.00,0.1270
1651.00,0.1258
1650.00,0.1238
1649.00,0.1216
1648.00,0.1195
1647.00,0.1172
1646.00,0.1147
1645.00,0.1119
1644.00,0.1089
1643.00,0.1057
1642.00,0.1023
1641.00,0.0988
1640.00,0.0953
1639.00,0.0919
1638.00,0.0885
1637.00,0.0849
1636.00,0.0810
1635.00,0.0773
1634.00,0.0740
1633.00,0.0711
1632.00,0.0683
1631.00,0.0657
1630.00,0.0633
1629.00,0.0612
1628.00,0.0594
1627.00,0.0580
1626.00,0.0571
1625.00,0.0565
1624.00,0.0565
1623.00,0.0570
1622.00,0.0575
1621.00,0.0577
1620.00,0.0577
1619.00,0.0574
1618.00,0.0568
1617.00,0.0559
1616.00,0.0548
1615.00,0.0535
1614.00,0.0522
1613.00,0.0509
1612.00,0.0497
1611.00,0.0486
1610.00,0.0476
1609.00,0.0463
1608.00,0.0447
1607.00,0.0430
1606.00,0.0410
1605.00,0.0389
1604.00,0.0368
1603.00,0.0348
1602.00,0.0329
1601.00,0.0312
1600.00,0.0298
1599.00,0.0286
1598.00,0.0277
1597.00,0.0270
1596.00,0.0266
1595.00,0.0266
1594.00,0.0269
1593.00,0.0275
1592.00,0.0284
1591.00,0.0296
1590.00,0.0310
1589.00,0.0325
1588.00,0.0338
1587.00,0.0348
1586.00,0.0354
1585.00,0.0354
1584.00,0.0348
1583.00,0.0339
1582.00,0.0326
1581.00,0.0311
1580.00,0.0297
1579.00,0.0284
1578.00,0.0273
1577.00,0.0261
1576.00,0.0248
1575.00,0.0237
1574.00,0.0229
1573.00,0.0222
1572.00,0.0216
1571.00,0.0210
1570.00,0.0204
1569.00,0.0198
1568.00,0.0193
1567.00,0.0189
1566.00,0.0185
1565.00,0.0181
1564.00,0.0177
1563.00,0.0173
1562.00,0.0170
1561.00,0.0167
1560.00,0.0164
1559.00,0.0158
1558.00,0.0154
1557.00,0.0152
1556.00,0.0150
1555.00,0.0148
1554.00,0.0146
1553.00,0.0144
1552.00,0.0142
1551.00,0.0141
1550.00,0.0139
1549.00,0.0138
1548.00,0.0137
1547.00,0.0135
1546.00,0.0135
1545.00,0.0134
1544.00,0.0133
1543.00,0.0133
1542.00,0.0133
1541.00,0.0133
1540.00,0.0131
1539.00,0.0129
1538.00,0.0127
1537.00,0.0126
1536.00,0.0125
1535.00,0.0124
1534.00,0.0124
1533.00,0.0124
1532.00,0.0125
1531.00,0.0125
1530.00,0.0126
1529.00,0.0126
1528.00,0.0127
1527.00,0.0128
1526.00,0.0130
1525.00,0.0131
1524.00,0.0133
1523.00,0.0136
1522.00,0.0138
1521.00,0.0140
1520.00,0.0142
1519.00,0.0144
1518.00,0.0146
1517.00,0.0149
1516.00,0.0151
1515.00,0.0152
1514.00,0.0153
1513.00,0.0155
1512.00,0.0157
1511.00,0.0159
1510.00,0.0161
1509.00,0.0166
1508.00,0.0171
1507.00,0.0178
1506.00,0.0187
1505.00,0.0197
1504.00,0.0206
1503.00,0.0215
1502.00,0.0228
1501.00,0.0242
1500.00,0.0260
1499.00,0.0279
1498.00,0.0299
1497.00,0.0318
1496.00,0.0332
1495.00,0.0339
1494.00,0.0341
1493.00,0.0338
1492.00,0.0331
1491.00,0.0321
1490.00,0.0307
1489.00,0.0290
1488.00,0.0273
1487.00,0.0255
1486.00,0.0240
1485.00,0.0226
1484.00,0.0214
1483.00,0.0204
1482.00,0.0196
1481.00,0.0190
1480.00,0.0186
1479.00,0.0184
1478.00,0.0185
1477.00,0.0188
1476.00,0.0194
1475.00,0.0203
1474.00,0.0215
1473.00,0.0235
1472.00,0.0260
1471.00,0.0287
1470.00,0.0312
1469.00,0.0338
1468.00,0.0366
1467.00,0.0395
1466.00,0.0430
1465.00,0.0468
1464.00,0.0504
1463.00,0.0531
1462.00,0.0547
1461.00,0.0555
1460.00,0.0558
1459.00,0.0553
1458.00,0.0540
1457.00,0.0519
1456.00,0.0494
1455.00,0.0473
1454.00,0.0455
1453.00,0.0441
1452.00,0.0431
1451.00,0.0425
1450.00,0.0425
1449.00,0.0432
1448.00,0.0446
1447.00,0.0464
1446.00,0.0484
1445.00,0.0506
1444.00,0.0528
1443.00,0.0552
1442.00,0.0575
1441.00,0.0597
1440.00,0.0616
1439.00,0.0633
1438.00,0.0650
1437.00,0.0672
1436.00,0.0695
1435.00,0.0710
1434.00,0.0717
1433.00,0.0722
1432.00,0.0727
1431.00,0.0734
1430.00,0.0743
1429.00,0.0756
1428.00,0.0771
1427.00,0.0786
1426.00,0.0804
1425.00,0.0825
1424.00,0.0846
1423.00,0.0860
1422.00,0.0863
1421.00,0.0856
1420.00,0.0838
1419.00,0.0806
1418.00,0.0766
1417.00,0.0723
1416.00,0.0679
1415.00,0.0636
1414.00,0.0595
1413.00,0.0559
1412.00,0.0528
1411.00,0.0502
1410.00,0.0482
1409.00,0.0468
1408.00,0.0458
1407.00,0.0451
1406.00,0.0447
1405.00,0.0445
1404.00,0.0443
1403.00,0.0440
1402.00,0.0435
1401.00,0.0427
1400.00,0.0415
1399.00,0.0400
1398.00,0.0383
1397.00,0.0365
1396.00,0.0346
1395.00,0.0327
1394.00,0.0310
1393.00,0.0298
1392.00,0.0288
1391.00,0.0281
1390.00,0.0277
1389.00,0.0276
1388.00,0.0277
1387.00,0.0282
1386.00,0.0289
1385.00,0.0297
1384.00,0.0306
1383.00,0.0316
1382.00,0.0327
1381.00,0.0337
1380.00,0.0346
1379.00,0.0352
1378.00,0.0357
1377.00,0.0359
1376.00,0.0359
1375.00,0.0358
1374.00,0.0357
1373.00,0.0354
1372.00,0.0351
1371.00,0.0347
1370.00,0.0344
1369.00,0.0340
1368.00,0.0337
1367.00,0.0335
1366.00,0.0333
1365.00,0.0333
1364.00,0.0334
1363.00,0.0335
1362.00,0.0336
1361.00,0.0335
1360.00,0.0329
1359.00,0.0321
1358.00,0.0309
1357.00,0.0295
1356.00,0.0281
1355.00,0.0267
1354.00,0.0256
1353.00,0.0247
1352.00,0.0239
1351.00,0.0234
1350.00,0.0230
1349.00,0.0227
1348.00,0.0224
1347.00,0.0222
1346.00,0.0220
1345.00,0.0219
1344.00,0.0218
1343.00,0.0218
1342.00,0.0218
1341.00,0.0219
1340.00,0.0220
1339.00,0.0222
1338.00,0.0225
1337.00,0.0228
1336.00,0.0231
1335.00,0.0234
1334.00,0.0239
1333.00,0.0243
1332.00,0.0247
1331.00,0.0252
1330.00,0.0258
1329.00,0.0265
1328.00,0.0273
1327.00,0.0281
1326.00,0.0291
1325.00,0.0301
1324.00,0.0312
1323.00,0.0323
1322.00,0.0334
1321.00,0.0345
1320.00,0.0354
1319.00,0.0361
1318.00,0.0366
1317.00,0.0368
1316.00,0.0367
1315.00,0.0364
1314.00,0.0360
1313.00,0.0354
1312.00,0.0348
1311.00,0.0342
1310.00,0.0338
1309.00,0.0335
1308.00,0.0334
1307.00,0.0335
1306.00,0.0338
1305.00,0.0344
1304.00,0.0352
1303.00,0.0363
1302.00,0.0377
1301.00,0.0396
1300.00,0.0419
1299.00,0.0449
1298.00,0.0484
1297.00,0.0526
1296.00,0.0572
1295.00,0.0622
1294.00,0.0675
1293.00,0.0727
1292.00,0.0777
1291.00,0.0824
1290.00,0.0865
1289.00,0.0901
1288.00,0.0928
1287.00,0.0947
1286.00,0.0957
1285.00,0.0958
1284.00,0.0950
1283.00,0.0935
1282.00,0.0916
1281.00,0.0896
1280.00,0.0877
1279.00,0.0862
1278.00,0.0852
1277.00,0.0847
1276.00,0.0846
1275.00,0.0848
1274.00,0.0851
1273.00,0.0852
1272.00,0.0851
1271.00,0.0846
1270.00,0.0835
1269.00,0.0819
1268.00,0.0797
1267.00,0.0771
1266.00,0.0741
1265.00,0.0709
1264.00,0.0676
1263.00,0.0644
1262.00,0.0612
1261.00,0.0581
1260.00,0.0552
1259.00,0.0525
1258.00,0.0501
1257.00,0.0478
1256.00,0.0458
1255.00,0.0440
1254.00,0.0424
1253.00,0.0411
1252.00,0.0399
1251.00,0.0391
1250.00,0.0386
1249.00,0.0383
1248.00,0.0383
1247.00,0.0386
1246.00,0.0390
1245.00,0.0397
1244.00,0.0404
1243.00,0.0412
1242.00,0.0419
1241.00,0.0427
1240.00,0.0433
1239.00,0.0439
1238.00,0.0445
1237.00,0.0451
1236.00,0.0456
1235.00,0.0461
1234.00,0.0465
1233.00,0.0469
1232.00,0.0471
1231.00,0.0472
1230.00,0.0473
1229.00,0.0473
1228.00,0.0473
1227.00,0.0472
1226.00,0.0471
1225.00,0.0471
1224.00,0.0472
1223.00,0.0472
1222.00,0.0474
1221.00,0.0475
1220.00,0.0475
1219.00,0.0474
1218.00,0.0472
1217.00,0.0467
1216.00,0.0460
1215.00,0.0450
1214.00,0.0439
1213.00,0.0426
1212.00,0.0413
1211.00,0.0400
1210.00,0.0388
1209.00,0.0377
1208.00,0.0367
1207.00,0.0359
1206.00,0.0353
1205.00,0.0349
1204.00,0.0346
1203.00,0.0346
1202.00,0.0349
1201.00,0.0353
1200.00,0.0358
1199.00,0.0364
1198.00,0.0371
1197.00,0.0378
1196.00,0.0384
1195.00,0.0388
1194.00,0.0389
1193.00,0.0386
1192.00,0.0380
1191.00,0.0370
1190.00,0.0359
1189.00,0.0347
1188.00,0.0335
1187.00,0.0324
1186.00,0.0314
1185.00,0.0305
1184.00,0.0298
1183.00,0.0292
1182.00,0.0288
1181.00,0.0285
1180.00,0.0283
1179.00,0.0282
1178.00,0.0283
1177.00,0.0285
1176.00,0.0288
1175.00,0.0291
1174.00,0.0294
1173.00,0.0298
1172.00,0.0302
1171.00,0.0305
1170.00,0.0308
1169.00,0.0309
1168.00,0.0310
1167.00,0.0311
1166.00,0.0312
1165.00,0.0313
1164.00,0.0315
1163.00,0.0319
1162.00,0.0326
1161.00,0.0333
1160.00,0.0341
1159.00,0.0348
1158.00,0.0354
1157.00,0.0357
1156.00,0.0356
1155.00,0.0351
1154.00,0.0344
1153.00,0.0334
1152.00,0.0322
1151.00,0.0309
1150.00,0.0296
1149.00,0.0282
1148.00,0.0269
1147.00,0.0257
1146.00,0.0247
1145.00,0.0238
1144.00,0.0231
1143.00,0.0225
1142.00,0.0221
1141.00,0.0218
1140.00,0.0216
1139.00,0.0216
1138.00,0.0219
1137.00,0.0226
1136.00,0.0235
1135.00,0.0248
1134.00,0.0265
1133.00,0.0283
1132.00,0.0300
1131.00,0.0314
1130.00,0.0322
1129.00,0.0323
1128.00,0.0317
1127.00,0.0304
1126.00,0.0288
1125.00,0.0271
1124.00,0.0254
1123.00,0.0240
1122.00,0.0229
1121.00,0.0221
1120.00,0.0215
1119.00,0.0211
1118.00,0.0208
1117.00,0.0207
1116.00,0.0206
1115.00,0.0205
1114.00,0.0206
1113.00,0.0207
1112.00,0.0208
1111.00,0.0209
1110.00,0.0211
1109.00,0.0214
1108.00,0.0216
1107.00,0.0219
1106.00,0.0224
1105.00,0.0229
1104.00,0.0235
1103.00,0.0241
1102.00,0.0247
1101.00,0.0251
1100.00,0.0251
1099.00,0.0250
1098.00,0.0246
1097.00,0.0241
1096.00,0.0235
1095.00,0.0228
1094.00,0.0223
1093.00,0.0218
1092.00,0.0212
1091.00,0.0208
1090.00,0.0205
1089.00,0.0202
1088.00,0.0199
1087.00,0.0197
1086.00,0.0196
1085.00,0.0196
1084.00,0.0196
1083.00,0.0197
1082.00,0.0199
1081.00,0.0202
1080.00,0.0205
1079.00,0.0208
1078.00,0.0214
1077.00,0.0219
1076.00,0.0224
1075.00,0.0229
1074.00,0.0234
1073.00,0.0240
1072.00,0.0247
1071.00,0.0255
1070.00,0.0265
1069.00,0.0277
1068.00,0.0291
1067.00,0.0307
1066.00,0.0327
1065.00,0.0348
1064.00,0.0371
1063.00,0.0395
1062.00,0.0420
1061.00,0.0443
1060.00,0.0463
1059.00,0.0476
1058.00,0.0483
1057.00,0.0481
1056.00,0.0469
1055.00,0.0451
1054.00,0.0427
1053.00,0.0399
1052.00,0.0371
1051.00,0.0344
1050.00,0.0320
1049.00,0.0300
1048.00,0.0284
1047.00,0.0271
1046.00,0.0261
1045.00,0.0254
1044.00,0.0249
1043.00,0.0244
1042.00,0.0242
1041.00,0.0240
1040.00,0.0238
1039.00,0.0237
1038.00,0.0237
1037.00,0.0239
1036.00,0.0241
1035.00,0.0244
1034.00,0.0249
1033.00,0.0254
1032.00,0.0258
1031.00,0.0262
1030.00,0.0264
1029.00,0.0264
1028.00,0.0261
1027.00,0.0256
1026.00,0.0252
1025.00,0.0249
1024.00,0.0247
1023.00,0.0246
1022.00,0.0247
1021.00,0.0248
1020.00,0.0249
1019.00,0.0250
1018.00,0.0250
1017.00,0.0249
1016.00,0.0245
1015.00,0.0240
1014.00,0.0235
1013.00,0.0229
1012.00,0.0223
1011.00,0.0219
1010.00,0.0218
1009.00,0.0218
1008.00,0.0220
1007.00,0.0225
1006.00,0.0232
1005.00,0.0239
1004.00,0.0244
1003.00,0.0248
1002.00,0.0249
1001.00,0.0248
1000.00,0.0244
999.00,0.0239
998.00,0.0234
997.00,0.0229
996.00,0.0223
995.00,0.0218
994.00,0.0214
993.00,0.0210
992.00,0.0205
991.00,0.0200
990.00,0.0197
989.00,0.0193
988.00,0.0188
987.00,0.0184
986.00,0.0181
985.00,0.0178
984.00,0.0175
983.00,0.0173
982.00,0.0172
981.00,0.0171
980.00,0.0170
979.00,0.0170
978.00,0.0169
977.00,0.0168
976.00,0.0167
975.00,0.0165
974.00,0.0163
973.00,0.0161
972.00,0.0158
971.00,0.0156
970.00,0.0154
969.00,0.0152
968.00,0.0149
967.00,0.0147
966.00,0.0146
965.00,0.0145
964.00,0.0144
963.00,0.0143
962.00,0.0142
961.00,0.0141
960.00,0.0140
959.00,0.0138
958.00,0.0137
957.00,0.0136
956.00,0.0135
955.00,0.0134
954.00,0.0133
953.00,0.0132
952.00,0.0131
951.00,0.0131
950.00,0.0131
949.00,0.0132
948.00,0.0133
947.00,0.0134
946.00,0.0136
945.00,0.0138
944.00,0.0140
943.00,0.0143
942.00,0.0147
941.00,0.0153
940.00,0.0159
939.00,0.0166
938.00,0.0175
937.00,0.0183
936.00,0.0191
935.00,0.0198
934.00,0.0204
933.00,0.0208
932.00,0.0208
931.00,0.0207
930.00,0.0205
929.00,0.0204
928.00,0.0202
927.00,0.0201
926.00,0.0200
925.00,0.0198
924.00,0.0196
923.00,0.0194
922.00,0.0192
921.00,0.0190
920.00,0.0188
919.00,0.0185
918.00,0.0183
917.00,0.0181
916.00,0.0178
915.00,0.0175
914.00,0.0174
913.00,0.0173
912.00,0.0172
911.00,0.0172
910.00,0.0173
909.00,0.0174
908.00,0.0176
907.00,0.0179
906.00,0.0182
905.00,0.0187
904.00,0.0191
903.00,0.0197
902.00,0.0203
901.00,0.0209
900.00,0.0214
899.00,0.0218
898.00,0.0221
897.00,0.0222
896.00,0.0221
895.00,0.0220
894.00,0.0217
893.00,0.0213
892.00,0.0208
891.00,0.0204
890.00,0.0200
889.00,0.0196
888.00,0.0193
887.00,0.0191
886.00,0.0190
885.00,0.0190
884.00,0.0191
883.00,0.0193
882.00,0.0197
881.00,0.0201
880.00,0.0204
879.00,0.0209
878.00,0.0215
877.00,0.0222
876.00,0.0228
875.00,0.0235
874.00,0.0242
873.00,0.0248
872.00,0.0252
871.00,0.0256
870.00,0.0259
869.00,0.0261
868.00,0.0262
867.00,0.0262
866.00,0.0264
865.00,0.0265
864.00,0.0266
863.00,0.0267
862.00,0.0269
861.00,0.0271
860.00,0.0273
859.00,0.0276
858.00,0.0279
857.00,0.0284
856.00,0.0289
855.00,0.0294
854.00,0.0300
853.00,0.0307
852.00,0.0313
851.00,0.0319
850.00,0.0325
849.00,0.0330
848.00,0.0334
847.00,0.0338
846.00,0.0342
845.00,0.0344
844.00,0.0344
843.00,0.0343
842.00,0.0343
841.00,0.0342
840.00,0.0340
839.00,0.0338
838.00,0.0338
837.00,0.0336
836.00,0.0335
835.00,0.0333
834.00,0.0333
833.00,0.0332
832.00,0.0331
831.00,0.0330
830.00,0.0330
829.00,0.0328
828.00,0.0326
827.00,0.0325
826.00,0.0324
825.00,0.0323
824.00,0.0321
823.00,0.0319
822.00,0.0318
821.00,0.0318
820.00,0.0318
819.00,0.0317
818.00,0.0317
817.00,0.0316
816.00,0.0315
815.00,0.0312
814.00,0.0309
813.00,0.0305
812.00,0.0298
811.00,0.0290
810.00,0.0280
809.00,0.0269
808.00,0.0256
807.00,0.0243
806.00,0.0233
805.00,0.0224
804.00,0.0216
803.00,0.0210
802.00,0.0206
801.00,0.0203
800.00,0.0201
799.00,0.0199
798.00,0.0199
797.00,0.0199
796.00,0.0199
795.00,0.0199
794.00,0.0200
793.00,0.0201
792.00,0.0200
791.00,0.0200
790.00,0.0201
789.00,0.0202
788.00,0.0203
787.00,0.0203
786.00,0.0204
785.00,0.0205
784.00,0.0205
783.00,0.0207
782.00,0.0209
781.00,0.0212
780.00,0.0215
779.00,0.0218
778.00,0.0221
777.00,0.0222
776.00,0.0223
775.00,0.0222
774.00,0.0222
773.00,0.0222
772.00,0.0221
771.00,0.0222
770.00,0.0223
769.00,0.0226
768.00,0.0227
767.00,0.0229
766.00,0.0232
765.00,0.0235
764.00,0.0237
763.00,0.0240
762.00,0.0245
761.00,0.0249
760.00,0.0254
759.00,0.0258
758.00,0.0263
757.00,0.0268
756.00,0.0272
755.00,0.0277
754.00,0.0282
753.00,0.0287
752.00,0.0291
751.00,0.0295
750.00,0.0301
749.00,0.0306
748.00,0.0311
747.00,0.0317
746.00,0.0323
745.00,0.0329
744.00,0.0334
743.00,0.0341
742.00,0.0349
741.00,0.0359
740.00,0.0368
739.00,0.0377
738.00,0.0386
737.00,0.0391
736.00,0.0393
735.00,0.0391
734.00,0.0387
733.00,0.0382
732.00,0.0375
731.00,0.0368
730.00,0.0360
729.00,0.0351
728.00,0.0342
727.00,0.0333
726.00,0.0325
725.00,0.0317
724.00,0.0310
723.00,0.0304
722.00,0.0300
721.00,0.0296
720.00,0.0292
719.00,0.0289
718.00,0.0287
717.00,0.0286
716.00,0.0285
715.00,0.0284
714.00,0.0284
713.00,0.0284
712.00,0.0282
711.00,0.0280
710.00,0.0280
709.00,0.0279
708.00,0.0278
707.00,0.0278
706.00,0.0278
705.00,0.0278
704.00,0.0278
703.00,0.0278
702.00,0.0280
701.00,0.0282
700.00,0.0284
699.00,0.0287
698.00,0.0291
697.00,0.0295
696.00,0.0300
695.00,0.0306
694.00,0.0313
693.00,0.0319
692.00,0.0324
691.00,0.0329
690.00,0.0333
689.00,0.0336
688.00,0.0337
687.00,0.0338
686.00,0.0339
685.00,0.0339
684.00,0.0339
683.00,0.0340
682.00,0.0341
681.00,0.0342
680.00,0.0343
679.00,0.0345
678.00,0.0349
677.00,0.0353
676.00,0.0356
675.00,0.0360
674.00,0.0365
673.00,0.0371
672.00,0.0376
671.00,0.0381
670.00,0.0388
669.00,0.0398
668.00,0.0408
667.00,0.0418
666.00,0.0424
665.00,0.0429
664.00,0.0434
663.00,0.0441
662.00,0.0450
661.00,0.0459
660.00,0.0468
659.00,0.0477
658.00,0.0487
657.00,0.0498
656.00,0.0506
655.00,0.0515
654.00,0.0524
653.00,0.0532
652.00,0.0539
651.00,0.0545
650.00,0.0549
649.00,0.0552
648.00,0.0553
647.00,0.0551
646.00,0.0549
645.00,0.0546
644.00,0.0539
643.00,0.0533
642.00,0.0526
641.00,0.0519
640.00,0.0510
639.00,0.0502
638.00,0.0496
637.00,0.0489
636.00,0.0481
635.00,0.0474
634.00,0.0469
633.00,0.0464
632.00,0.0459
631.00,0.0455
630.00,0.0452
629.00,0.0451
628.00,0.0448
627.00,0.0447
626.00,0.0446
625.00,0.0445
624.00,0.0442
623.00,0.0439
622.00,0.0437
621.00,0.0435
620.00,0.0433
619.00,0.0431
618.00,0.0430
617.00,0.0429
616.00,0.0427
615.00,0.0426
614.00,0.0427
613.00,0.0428
612.00,0.0428
611.00,0.0430
610.00,0.0432
609.00,0.0435
608.00,0.0436
607.00,0.0437
606.00,0.0440
605.00,0.0443
604.00,0.0445
603.00,0.0447
602.00,0.0451
601.00,0.0453
600.00,0.0454
599.00,0.0454
598.00,0.0456
597.00,0.0459
596.00,0.0460
595.00,0.0459
594.00,0.0461
593.00,0.0463
592.00,0.0466
591.00,0.0471
590.00,0.0479
589.00,0.0489
588.00,0.0499
587.00,0.0511
586.00,0.0526
585.00,0.0542
584.00,0.0554
583.00,0.0566
582.00,0.0576
581.00,0.0584
580.00,0.0588
579.00,0.0590
578.00,0.0594
577.00,0.0597
576.00,0.0599
575.00,0.0601
574.00,0.0602
573.00,0.0603
572.00,0.0600
571.00,0.0598
570.00,0.0597
569.00,0.0595
568.00,0.0591
567.00,0.0587
566.00,0.0585
565.00,0.0583
564.00,0.0578
563.00,0.0571
562.00,0.0566
561.00,0.0561
560.00,0.0555
559.00,0.0550
558.00,0.0548
557.00,0.0546
556.00,0.0542
555.00,0.0537
554.00,0.0535
553.00,0.0532
552.00,0.0527
551.00,0.0522
550.00,0.0519
549.00,0.0518
548.00,0.0514
547.00,0.0510
546.00,0.0506
545.00,0.0502
544.00,0.0497
543.00,0.0493
542.00,0.0493
541.00,0.0493
540.00,0.0491
539.00,0.0489
538.00,0.0490
537.00,0.0493
536.00,0.0494
535.00,0.0497
534.00,0.0504
533.00,0.0510
532.00,0.0513
531.00,0.0514
530.00,0.0515
529.00,0.0513
528.00,0.0509
527.00,0.0505
526.00,0.0503
525.00,0.0499
524.00,0.0492
523.00,0.0486
522.00,0.0484
521.00,0.0483
520.00,0.0480
519.00,0.0477
518.00,0.0478
517.00,0.0478
516.00,0.0475
515.00,0.0472
514.00,0.0472
513.00,0.0472
512.00,0.0471
511.00,0.0474
510.00,0.0480
509.00,0.0484
508.00,0.0485
507.00,0.0485
506.00,0.0487
505.00,0.0488
504.00,0.0484
503.00,0.0480
502.00,0.0479
501.00,0.0478
500.00,0.0476
499.00,0.0476
498.00,0.0479
497.00,0.0483
496.00,0.0482
495.00,0.0481
494.00,0.0482
493.00,0.0484
492.00,0.0484
491.00,0.0484
490.00,0.0488
489.00,0.0491
488.00,0.0490
487.00,0.0489
486.00,0.0491
485.00,0.0493
484.00,0.0490
483.00,0.0488
482.00,0.0489
481.00,0.0490
480.00,0.0488
479.00,0.0488
478.00,0.0493
477.00,0.0497
476.00,0.0496
475.00,0.0495
474.00,0.0500
473.00,0.0504
472.00,0.0502
471.00,0.0498
470.00,0.0498
469.00,0.0498
468.00,0.0495
467.00,0.0494
466.00,0.0496
465.00,0.0496
464.00,0.0491
463.00,0.0488
462.00,0.0490
461.00,0.0492
460.00,0.0488
459.00,0.0485
458.00,0.0488
457.00,0.0491
456.00,0.0487
455.00,0.0481
454.00,0.0480
453.00,0.0479
452.00,0.0475
451.00,0.0473
450.00,0.0476
449.00,0.0477
448.00,0.0471
447.00,0.0465
446.00,0.0466
445.00,0.0466
444.00,0.0460
443.00,0.0456
442.00,0.0459
441.00,0.0461
440.00,0.0455
439.00,0.0448
438.00,0.0445
437.00,0.0441
436.00,0.0433
435.00,0.0428
434.00,0.0429
433.00,0.0426
432.00,0.0412
431.00,0.0400
430.00,0.0401
429.00,0.0409
428.00,0.0412
427.00,0.0413
426.00,0.0417
425.00,0.0417
424.00,0.0410
423.00,0.0406
422.00,0.0411
421.00,0.0415
420.00,0.0411
419.00,0.0408
418.00,0.0419
417.00,0.0426
416.00,0.0424
415.00,0.0425
414.00,0.0436
413.00,0.0441
412.00,0.0431
411.00,0.0416
410.00,0.0411
409.00,0.0408
408.00,0.0400
407.00,0.0402
406.00,0.0419
405.00,0.0429
404.00,0.0421
403.00,0.0410
402.00,0.0417
401.00,0.0423
400.00,0.0412
