Created as New Dataset,Sample 827 By YargerLab Date Tuesday, July 15 2025
cm-1,A
4000.00,0.0057
3999.00,0.0057
3998.00,0.0057
3997.00,0.0057
3996.00,0.0057
3995.00,0.0057
3994.00,0.0057
3993.00,0.0057
3992.00,0.0057
3991.00,0.0057
3990.00,0.0057
3989.00,0.0057
3988.00,0.0057
3987.00,0.0057
3986.00,0.0057
3985.00,0.0057
3984.00,0.0057
3983.00,0.0057
3982.00,0.0057
3981.00,0.0057
3980.00,0.0057
3979.00,0.0057
3978.00,0.0057
3977.00,0.0057
3976.00,0.0057
3975.00,0.0057
3974.00,0.0057
3973.00,0.0057
3972.00,0.0057
3971.00,0.0057
3970.00,0.0057
3969.00,0.0057
3968.00,0.0057
3967.00,0.0057
3966.00,0.0057
3965.00,0.0057
3964.00,0.0057
3963.00,0.0057
3962.00,0.0057
3961.00,0.0057
3960.00,0.0057
3959.00,0.0057
3958.00,0.0057
3957.00,0.0057
3956.00,0.0057
3955.00,0.0057
3954.00,0.0056
3953.00,0.0056
3952.00,0.0056
3951.00,0.0057
3950.00,0.0057
3949.00,0.0057
3948.00,0.0057
3947.00,0.0057
3946.00,0.0057
3945.00,0.0057
3944.00,0.0057
3943.00,0.0057
3942.00,0.0056
3941.00,0.0056
3940.00,0.0056
3939.00,0.0056
3938.00,0.0056
3937.00,0.0056
3936.00,0.0057
3935.00,0.0056
3934.00,0.0056
3933.00,0.0056
3932.00,0.0056
3931.00,0.0056
3930.00,0.0055
3929.00,0.0055
3928.00,0.0055
3927.00,0.0056
3926.00,0.0056
3925.00,0.0056
3924.00,0.0056
3923.00,0.0056
3922.00,0.0056
3921.00,0.0056
3920.00,0.0056
3919.00,0.0056
3918.00,0.0056
3917.00,0.0056
3916.00,0.0056
3915.00,0.0056
3914.00,0.0056
3913.00,0.0056
3912.00,0.0056
3911.00,0.0057
3910.00,0.0057
3909.00,0.0057
3908.00,0.0057
3907.00,0.0057
3906.00,0.0058
3905.00,0.0058
3904.00,0.0057
3903.00,0.0057
3902.00,0.0056
3901.00,0.0056
3900.00,0.0055
3899.00,0.0055
3898.00,0.0056
3897.00,0.0056
3896.00,0.0056
3895.00,0.0056
3894.00,0.0056
3893.00,0.0056
3892.00,0.0056
3891.00,0.0056
3890.00,0.0057
3889.00,0.0056
3888.00,0.0056
3887.00,0.0056
3886.00,0.0056
3885.00,0.0056
3884.00,0.0056
3883.00,0.0055
3882.00,0.0056
3881.00,0.0056
3880.00,0.0056
3879.00,0.0056
3878.00,0.0056
3877.00,0.0055
3876.00,0.0055
3875.00,0.0056
3874.00,0.0056
3873.00,0.0056
3872.00,0.0055
3871.00,0.0055
3870.00,0.0056
3869.00,0.0056
3868.00,0.0056
3867.00,0.0055
3866.00,0.0055
3865.00,0.0055
3864.00,0.0055
3863.00,0.0055
3862.00,0.0055
3861.00,0.0055
3860.00,0.0056
3859.00,0.0056
3858.00,0.0056
3857.00,0.0056
3856.00,0.0055
3855.00,0.0055
3854.00,0.0055
3853.00,0.0054
3852.00,0.0054
3851.00,0.0054
3850.00,0.0054
3849.00,0.0055
3848.00,0.0055
3847.00,0.0055
3846.00,0.0056
3845.00,0.0056
3844.00,0.0057
3843.00,0.0057
3842.00,0.0057
3841.00,0.0057
3840.00,0.0056
3839.00,0.0056
3838.00,0.0056
3837.00,0.0055
3836.00,0.0055
3835.00,0.0055
3834.00,0.0055
3833.00,0.0055
3832.00,0.0055
3831.00,0.0056
3830.00,0.0056
3829.00,0.0056
3828.00,0.0056
3827.00,0.0056
3826.00,0.0056
3825.00,0.0056
3824.00,0.0056
3823.00,0.0055
3822.00,0.0055
3821.00,0.0055
3820.00,0.0055
3819.00,0.0054
3818.00,0.0054
3817.00,0.0054
3816.00,0.0055
3815.00,0.0055
3814.00,0.0055
3813.00,0.0055
3812.00,0.0055
3811.00,0.0055
3810.00,0.0055
3809.00,0.0055
3808.00,0.0055
3807.00,0.0056
3806.00,0.0055
3805.00,0.0055
3804.00,0.0054
3803.00,0.0054
3802.00,0.0054
3801.00,0.0055
3800.00,0.0055
3799.00,0.0054
3798.00,0.0054
3797.00,0.0055
3796.00,0.0055
3795.00,0.0055
3794.00,0.0055
3793.00,0.0055
3792.00,0.0056
3791.00,0.0056
3790.00,0.0056
3789.00,0.0056
3788.00,0.0056
3787.00,0.0056
3786.00,0.0056
3785.00,0.0056
3784.00,0.0056
3783.00,0.0056
3782.00,0.0056
3781.00,0.0056
3780.00,0.0057
3779.00,0.0057
3778.00,0.0057
3777.00,0.0056
3776.00,0.0056
3775.00,0.0056
3774.00,0.0057
3773.00,0.0057
3772.00,0.0057
3771.00,0.0056
3770.00,0.0056
3769.00,0.0056
3768.00,0.0056
3767.00,0.0056
3766.00,0.0056
3765.00,0.0056
3764.00,0.0057
3763.00,0.0057
3762.00,0.0057
3761.00,0.0057
3760.00,0.0057
3759.00,0.0057
3758.00,0.0057
3757.00,0.0057
3756.00,0.0056
3755.00,0.0056
3754.00,0.0056
3753.00,0.0056
3752.00,0.0056
3751.00,0.0055
3750.00,0.0055
3749.00,0.0055
3748.00,0.0055
3747.00,0.0054
3746.00,0.0054
3745.00,0.0054
3744.00,0.0055
3743.00,0.0055
3742.00,0.0055
3741.00,0.0055
3740.00,0.0055
3739.00,0.0056
3738.00,0.0056
3737.00,0.0055
3736.00,0.0055
3735.00,0.0055
3734.00,0.0054
3733.00,0.0054
3732.00,0.0054
3731.00,0.0054
3730.00,0.0055
3729.00,0.0055
3728.00,0.0055
3727.00,0.0056
3726.00,0.0056
3725.00,0.0056
3724.00,0.0056
3723.00,0.0056
3722.00,0.0055
3721.00,0.0055
3720.00,0.0055
3719.00,0.0055
3718.00,0.0056
3717.00,0.0056
3716.00,0.0056
3715.00,0.0056
3714.00,0.0055
3713.00,0.0055
3712.00,0.0055
3711.00,0.0055
3710.00,0.0055
3709.00,0.0055
3708.00,0.0055
3707.00,0.0055
3706.00,0.0056
3705.00,0.0056
3704.00,0.0056
3703.00,0.0056
3702.00,0.0056
3701.00,0.0056
3700.00,0.0056
3699.00,0.0056
3698.00,0.0057
3697.00,0.0057
3696.00,0.0057
3695.00,0.0057
3694.00,0.0057
3693.00,0.0057
3692.00,0.0057
3691.00,0.0057
3690.00,0.0057
3689.00,0.0058
3688.00,0.0058
3687.00,0.0059
3686.00,0.0060
3685.00,0.0061
3684.00,0.0061
3683.00,0.0062
3682.00,0.0062
3681.00,0.0062
3680.00,0.0062
3679.00,0.0062
3678.00,0.0062
3677.00,0.0061
3676.00,0.0061
3675.00,0.0061
3674.00,0.0061
3673.00,0.0060
3672.00,0.0060
3671.00,0.0061
3670.00,0.0062
3669.00,0.0062
3668.00,0.0063
3667.00,0.0063
3666.00,0.0063
3665.00,0.0064
3664.00,0.0064
3663.00,0.0064
3662.00,0.0065
3661.00,0.0065
3660.00,0.0066
3659.00,0.0066
3658.00,0.0066
3657.00,0.0067
3656.00,0.0068
3655.00,0.0068
3654.00,0.0069
3653.00,0.0069
3652.00,0.0069
3651.00,0.0070
3650.00,0.0071
3649.00,0.0072
3648.00,0.0072
3647.00,0.0072
3646.00,0.0073
3645.00,0.0074
3644.00,0.0075
3643.00,0.0077
3642.00,0.0078
3641.00,0.0079
3640.00,0.0080
3639.00,0.0080
3638.00,0.0081
3637.00,0.0082
3636.00,0.0083
3635.00,0.0084
3634.00,0.0085
3633.00,0.0086
3632.00,0.0086
3631.00,0.0086
3630.00,0.0087
3629.00,0.0088
3628.00,0.0089
3627.00,0.0090
3626.00,0.0091
3625.00,0.0092
3624.00,0.0093
3623.00,0.0094
3622.00,0.0094
3621.00,0.0095
3620.00,0.0096
3619.00,0.0097
3618.00,0.0099
3617.00,0.0100
3616.00,0.0101
3615.00,0.0102
3614.00,0.0103
3613.00,0.0104
3612.00,0.0105
3611.00,0.0106
3610.00,0.0107
3609.00,0.0108
3608.00,0.0109
3607.00,0.0110
3606.00,0.0111
3605.00,0.0112
3604.00,0.0113
3603.00,0.0114
3602.00,0.0116
3601.00,0.0117
3600.00,0.0119
3599.00,0.0120
3598.00,0.0121
3597.00,0.0122
3596.00,0.0123
3595.00,0.0124
3594.00,0.0126
3593.00,0.0127
3592.00,0.0128
3591.00,0.0130
3590.00,0.0131
3589.00,0.0132
3588.00,0.0134
3587.00,0.0136
3586.00,0.0137
3585.00,0.0139
3584.00,0.0140
3583.00,0.0141
3582.00,0.0142
3581.00,0.0143
3580.00,0.0145
3579.00,0.0146
3578.00,0.0148
3577.00,0.0149
3576.00,0.0150
3575.00,0.0152
3574.00,0.0153
3573.00,0.0155
3572.00,0.0156
3571.00,0.0158
3570.00,0.0159
3569.00,0.0161
3568.00,0.0163
3567.00,0.0165
3566.00,0.0167
3565.00,0.0168
3564.00,0.0169
3563.00,0.0170
3562.00,0.0172
3561.00,0.0173
3560.00,0.0175
3559.00,0.0177
3558.00,0.0178
3557.00,0.0179
3556.00,0.0180
3555.00,0.0181
3554.00,0.0183
3553.00,0.0184
3552.00,0.0186
3551.00,0.0187
3550.00,0.0188
3549.00,0.0189
3548.00,0.0190
3547.00,0.0192
3546.00,0.0193
3545.00,0.0195
3544.00,0.0196
3543.00,0.0197
3542.00,0.0198
3541.00,0.0199
3540.00,0.0200
3539.00,0.0201
3538.00,0.0202
3537.00,0.0203
3536.00,0.0205
3535.00,0.0206
3534.00,0.0207
3533.00,0.0207
3532.00,0.0208
3531.00,0.0209
3530.00,0.0210
3529.00,0.0211
3528.00,0.0212
3527.00,0.0213
3526.00,0.0214
3525.00,0.0215
3524.00,0.0216
3523.00,0.0217
3522.00,0.0218
3521.00,0.0219
3520.00,0.0220
3519.00,0.0221
3518.00,0.0221
3517.00,0.0222
3516.00,0.0223
3515.00,0.0224
3514.00,0.0224
3513.00,0.0225
3512.00,0.0226
3511.00,0.0227
3510.00,0.0228
3509.00,0.0228
3508.00,0.0229
3507.00,0.0230
3506.00,0.0230
3505.00,0.0231
3504.00,0.0232
3503.00,0.0233
3502.00,0.0235
3501.00,0.0236
3500.00,0.0236
3499.00,0.0237
3498.00,0.0237
3497.00,0.0238
3496.00,0.0239
3495.00,0.0239
3494.00,0.0240
3493.00,0.0241
3492.00,0.0242
3491.00,0.0242
3490.00,0.0243
3489.00,0.0244
3488.00,0.0245
3487.00,0.0245
3486.00,0.0246
3485.00,0.0246
3484.00,0.0247
3483.00,0.0247
3482.00,0.0248
3481.00,0.0249
3480.00,0.0250
3479.00,0.0251
3478.00,0.0251
3477.00,0.0252
3476.00,0.0252
3475.00,0.0253
3474.00,0.0253
3473.00,0.0254
3472.00,0.0254
3471.00,0.0255
3470.00,0.0255
3469.00,0.0256
3468.00,0.0256
3467.00,0.0257
3466.00,0.0258
3465.00,0.0258
3464.00,0.0259
3463.00,0.0259
3462.00,0.0260
3461.00,0.0260
3460.00,0.0261
3459.00,0.0261
3458.00,0.0261
3457.00,0.0262
3456.00,0.0262
3455.00,0.0262
3454.00,0.0262
3453.00,0.0262
3452.00,0.0262
3451.00,0.0262
3450.00,0.0262
3449.00,0.0263
3448.00,0.0263
3447.00,0.0264
3446.00,0.0264
3445.00,0.0264
3444.00,0.0264
3443.00,0.0265
3442.00,0.0265
3441.00,0.0265
3440.00,0.0266
3439.00,0.0266
3438.00,0.0266
3437.00,0.0266
3436.00,0.0266
3435.00,0.0266
3434.00,0.0266
3433.00,0.0265
3432.00,0.0265
3431.00,0.0265
3430.00,0.0265
3429.00,0.0265
3428.00,0.0265
3427.00,0.0265
3426.00,0.0265
3425.00,0.0265
3424.00,0.0265
3423.00,0.0265
3422.00,0.0265
3421.00,0.0266
3420.00,0.0266
3419.00,0.0266
3418.00,0.0265
3417.00,0.0265
3416.00,0.0264
3415.00,0.0264
3414.00,0.0264
3413.00,0.0264
3412.00,0.0264
3411.00,0.0264
3410.00,0.0263
3409.00,0.0263
3408.00,0.0263
3407.00,0.0263
3406.00,0.0262
3405.00,0.0262
3404.00,0.0261
3403.00,0.0261
3402.00,0.0261
3401.00,0.0260
3400.00,0.0260
3399.00,0.0260
3398.00,0.0260
3397.00,0.0260
3396.00,0.0259
3395.00,0.0259
3394.00,0.0258
3393.00,0.0258
3392.00,0.0258
3391.00,0.0258
3390.00,0.0258
3389.00,0.0258
3388.00,0.0258
3387.00,0.0258
3386.00,0.0257
3385.00,0.0257
3384.00,0.0256
3383.00,0.0256
3382.00,0.0256
3381.00,0.0255
3380.00,0.0255
3379.00,0.0254
3378.00,0.0254
3377.00,0.0253
3376.00,0.0253
3375.00,0.0253
3374.00,0.0252
3373.00,0.0251
3372.00,0.0250
3371.00,0.0249
3370.00,0.0248
3369.00,0.0247
3368.00,0.0247
3367.00,0.0248
3366.00,0.0248
3365.00,0.0249
3364.00,0.0249
3363.00,0.0249
3362.00,0.0249
3361.00,0.0248
3360.00,0.0248
3359.00,0.0248
3358.00,0.0247
3357.00,0.0247
3356.00,0.0247
3355.00,0.0246
3354.00,0.0245
3353.00,0.0244
3352.00,0.0243
3351.00,0.0243
3350.00,0.0243
3349.00,0.0243
3348.00,0.0244
3347.00,0.0244
3346.00,0.0243
3345.00,0.0243
3344.00,0.0242
3343.00,0.0241
3342.00,0.0241
3341.00,0.0240
3340.00,0.0240
3339.00,0.0239
3338.00,0.0240
3337.00,0.0240
3336.00,0.0241
3335.00,0.0241
3334.00,0.0241
3333.00,0.0240
3332.00,0.0240
3331.00,0.0240
3330.00,0.0240
3329.00,0.0239
3328.00,0.0238
3327.00,0.0237
3326.00,0.0236
3325.00,0.0237
3324.00,0.0237
3323.00,0.0238
3322.00,0.0238
3321.00,0.0238
3320.00,0.0238
3319.00,0.0238
3318.00,0.0238
3317.00,0.0238
3316.00,0.0237
3315.00,0.0237
3314.00,0.0236
3313.00,0.0236
3312.00,0.0235
3311.00,0.0234
3310.00,0.0232
3309.00,0.0231
3308.00,0.0230
3307.00,0.0230
3306.00,0.0230
3305.00,0.0231
3304.00,0.0232
3303.00,0.0234
3302.00,0.0235
3301.00,0.0235
3300.00,0.0235
3299.00,0.0234
3298.00,0.0233
3297.00,0.0232
3296.00,0.0231
3295.00,0.0231
3294.00,0.0230
3293.00,0.0230
3292.00,0.0231
3291.00,0.0232
3290.00,0.0232
3289.00,0.0233
3288.00,0.0233
3287.00,0.0233
3286.00,0.0233
3285.00,0.0233
3284.00,0.0233
3283.00,0.0233
3282.00,0.0233
3281.00,0.0233
3280.00,0.0232
3279.00,0.0232
3278.00,0.0231
3277.00,0.0231
3276.00,0.0230
3275.00,0.0229
3274.00,0.0228
3273.00,0.0227
3272.00,0.0226
3271.00,0.0226
3270.00,0.0226
3269.00,0.0227
3268.00,0.0228
3267.00,0.0228
3266.00,0.0228
3265.00,0.0228
3264.00,0.0228
3263.00,0.0227
3262.00,0.0227
3261.00,0.0226
3260.00,0.0226
3259.00,0.0225
3258.00,0.0224
3257.00,0.0224
3256.00,0.0224
3255.00,0.0224
3254.00,0.0224
3253.00,0.0224
3252.00,0.0224
3251.00,0.0223
3250.00,0.0223
3249.00,0.0222
3248.00,0.0221
3247.00,0.0221
3246.00,0.0221
3245.00,0.0221
3244.00,0.0221
3243.00,0.0221
3242.00,0.0221
3241.00,0.0221
3240.00,0.0220
3239.00,0.0220
3238.00,0.0219
3237.00,0.0218
3236.00,0.0217
3235.00,0.0216
3234.00,0.0216
3233.00,0.0216
3232.00,0.0216
3231.00,0.0217
3230.00,0.0217
3229.00,0.0216
3228.00,0.0216
3227.00,0.0216
3226.00,0.0215
3225.00,0.0215
3224.00,0.0215
3223.00,0.0214
3222.00,0.0214
3221.00,0.0213
3220.00,0.0213
3219.00,0.0213
3218.00,0.0212
3217.00,0.0212
3216.00,0.0211
3215.00,0.0210
3214.00,0.0210
3213.00,0.0209
3212.00,0.0209
3211.00,0.0209
3210.00,0.0209
3209.00,0.0208
3208.00,0.0208
3207.00,0.0207
3206.00,0.0207
3205.00,0.0206
3204.00,0.0206
3203.00,0.0206
3202.00,0.0205
3201.00,0.0205
3200.00,0.0205
3199.00,0.0204
3198.00,0.0204
3197.00,0.0203
3196.00,0.0203
3195.00,0.0203
3194.00,0.0202
3193.00,0.0202
3192.00,0.0202
3191.00,0.0201
3190.00,0.0201
3189.00,0.0200
3188.00,0.0200
3187.00,0.0200
3186.00,0.0199
3185.00,0.0199
3184.00,0.0199
3183.00,0.0198
3182.00,0.0198
3181.00,0.0198
3180.00,0.0198
3179.00,0.0197
3178.00,0.0197
3177.00,0.0197
3176.00,0.0197
3175.00,0.0197
3174.00,0.0196
3173.00,0.0196
3172.00,0.0196
3171.00,0.0195
3170.00,0.0195
3169.00,0.0194
3168.00,0.0194
3167.00,0.0193
3166.00,0.0193
3165.00,0.0193
3164.00,0.0192
3163.00,0.0192
3162.00,0.0191
3161.00,0.0191
3160.00,0.0190
3159.00,0.0190
3158.00,0.0189
3157.00,0.0189
3156.00,0.0189
3155.00,0.0188
3154.00,0.0188
3153.00,0.0188
3152.00,0.0187
3151.00,0.0187
3150.00,0.0187
3149.00,0.0187
3148.00,0.0186
3147.00,0.0185
3146.00,0.0185
3145.00,0.0185
3144.00,0.0184
3143.00,0.0184
3142.00,0.0184
3141.00,0.0183
3140.00,0.0183
3139.00,0.0182
3138.00,0.0182
3137.00,0.0182
3136.00,0.0182
3135.00,0.0182
3134.00,0.0181
3133.00,0.0181
3132.00,0.0181
3131.00,0.0180
3130.00,0.0180
3129.00,0.0180
3128.00,0.0179
3127.00,0.0179
3126.00,0.0179
3125.00,0.0179
3124.00,0.0179
3123.00,0.0179
3122.00,0.0178
3121.00,0.0178
3120.00,0.0178
3119.00,0.0178
3118.00,0.0177
3117.00,0.0177
3116.00,0.0177
3115.00,0.0177
3114.00,0.0176
3113.00,0.0176
3112.00,0.0175
3111.00,0.0175
3110.00,0.0175
3109.00,0.0174
3108.00,0.0174
3107.00,0.0173
3106.00,0.0172
3105.00,0.0172
3104.00,0.0172
3103.00,0.0171
3102.00,0.0171
3101.00,0.0171
3100.00,0.0170
3099.00,0.0170
3098.00,0.0170
3097.00,0.0170
3096.00,0.0169
3095.00,0.0169
3094.00,0.0169
3093.00,0.0169
3092.00,0.0169
3091.00,0.0169
3090.00,0.0169
3089.00,0.0169
3088.00,0.0169
3087.00,0.0169
3086.00,0.0169
3085.00,0.0169
3084.00,0.0169
3083.00,0.0169
3082.00,0.0169
3081.00,0.0169
3080.00,0.0169
3079.00,0.0169
3078.00,0.0169
3077.00,0.0168
3076.00,0.0168
3075.00,0.0168
3074.00,0.0168
3073.00,0.0168
3072.00,0.0167
3071.00,0.0167
3070.00,0.0166
3069.00,0.0165
3068.00,0.0165
3067.00,0.0164
3066.00,0.0164
3065.00,0.0164
3064.00,0.0163
3063.00,0.0163
3062.00,0.0163
3061.00,0.0162
3060.00,0.0162
3059.00,0.0161
3058.00,0.0161
3057.00,0.0161
3056.00,0.0161
3055.00,0.0160
3054.00,0.0160
3053.00,0.0160
3052.00,0.0159
3051.00,0.0159
3050.00,0.0159
3049.00,0.0159
3048.00,0.0159
3047.00,0.0159
3046.00,0.0158
3045.00,0.0158
3044.00,0.0158
3043.00,0.0158
3042.00,0.0157
3041.00,0.0157
3040.00,0.0156
3039.00,0.0156
3038.00,0.0156
3037.00,0.0156
3036.00,0.0156
3035.00,0.0156
3034.00,0.0156
3033.00,0.0155
3032.00,0.0155
3031.00,0.0155
3030.00,0.0155
3029.00,0.0155
3028.00,0.0155
3027.00,0.0155
3026.00,0.0155
3025.00,0.0154
3024.00,0.0154
3023.00,0.0154
3022.00,0.0154
3021.00,0.0154
3020.00,0.0154
3019.00,0.0154
3018.00,0.0154
3017.00,0.0155
3016.00,0.0155
3015.00,0.0156
3014.00,0.0156
3013.00,0.0157
3012.00,0.0158
3011.00,0.0159
3010.00,0.0160
3009.00,0.0161
3008.00,0.0162
3007.00,0.0163
3006.00,0.0165
3005.00,0.0167
3004.00,0.0169
3003.00,0.0172
3002.00,0.0175
3001.00,0.0178
3000.00,0.0181
2999.00,0.0185
2998.00,0.0190
2997.00,0.0195
2996.00,0.0200
2995.00,0.0206
2994.00,0.0212
2993.00,0.0218
2992.00,0.0225
2991.00,0.0232
2990.00,0.0239
2989.00,0.0245
2988.00,0.0252
2987.00,0.0258
2986.00,0.0263
2985.00,0.0266
2984.00,0.0269
2983.00,0.0271
2982.00,0.0274
2981.00,0.0278
2980.00,0.0284
2979.00,0.0291
2978.00,0.0298
2977.00,0.0304
2976.00,0.0310
2975.00,0.0314
2974.00,0.0318
2973.00,0.0322
2972.00,0.0325
2971.00,0.0329
2970.00,0.0335
2969.00,0.0341
2968.00,0.0347
2967.00,0.0353
2966.00,0.0358
2965.00,0.0364
2964.00,0.0370
2963.00,0.0375
2962.00,0.0381
2961.00,0.0386
2960.00,0.0391
2959.00,0.0396
2958.00,0.0400
2957.00,0.0403
2956.00,0.0406
2955.00,0.0408
2954.00,0.0410
2953.00,0.0411
2952.00,0.0412
2951.00,0.0412
2950.00,0.0412
2949.00,0.0411
2948.00,0.0410
2947.00,0.0409
2946.00,0.0409
2945.00,0.0409
2944.00,0.0409
2943.00,0.0409
2942.00,0.0410
2941.00,0.0411
2940.00,0.0413
2939.00,0.0415
2938.00,0.0417
2937.00,0.0420
2936.00,0.0424
2935.00,0.0427
2934.00,0.0430
2933.00,0.0434
2932.00,0.0438
2931.00,0.0441
2930.00,0.0444
2929.00,0.0447
2928.00,0.0449
2927.00,0.0451
2926.00,0.0452
2925.00,0.0452
2924.00,0.0451
2923.00,0.0450
2922.00,0.0447
2921.00,0.0444
2920.00,0.0439
2919.00,0.0434
2918.00,0.0429
2917.00,0.0423
2916.00,0.0417
2915.00,0.0410
2914.00,0.0403
2913.00,0.0396
2912.00,0.0389
2911.00,0.0382
2910.00,0.0375
2909.00,0.0369
2908.00,0.0362
2907.00,0.0357
2906.00,0.0351
2905.00,0.0347
2904.00,0.0343
2903.00,0.0340
2902.00,0.0338
2901.00,0.0336
2900.00,0.0334
2899.00,0.0333
2898.00,0.0331
2897.00,0.0331
2896.00,0.0330
2895.00,0.0330
2894.00,0.0329
2893.00,0.0329
2892.00,0.0328
2891.00,0.0327
2890.00,0.0326
2889.00,0.0325
2888.00,0.0325
2887.00,0.0324
2886.00,0.0324
2885.00,0.0324
2884.00,0.0324
2883.00,0.0325
2882.00,0.0326
2881.00,0.0327
2880.00,0.0328
2879.00,0.0330
2878.00,0.0332
2877.00,0.0333
2876.00,0.0335
2875.00,0.0336
2874.00,0.0338
2873.00,0.0339
2872.00,0.0340
2871.00,0.0341
2870.00,0.0341
2869.00,0.0340
2868.00,0.0339
2867.00,0.0338
2866.00,0.0337
2865.00,0.0337
2864.00,0.0337
2863.00,0.0337
2862.00,0.0337
2861.00,0.0337
2860.00,0.0337
2859.00,0.0336
2858.00,0.0335
2857.00,0.0332
2856.00,0.0329
2855.00,0.0324
2854.00,0.0319
2853.00,0.0312
2852.00,0.0305
2851.00,0.0298
2850.00,0.0290
2849.00,0.0282
2848.00,0.0275
2847.00,0.0267
2846.00,0.0260
2845.00,0.0253
2844.00,0.0246
2843.00,0.0239
2842.00,0.0233
2841.00,0.0226
2840.00,0.0220
2839.00,0.0215
2838.00,0.0210
2837.00,0.0207
2836.00,0.0203
2835.00,0.0199
2834.00,0.0196
2833.00,0.0192
2832.00,0.0189
2831.00,0.0185
2830.00,0.0182
2829.00,0.0179
2828.00,0.0176
2827.00,0.0173
2826.00,0.0170
2825.00,0.0167
2824.00,0.0164
2823.00,0.0161
2822.00,0.0159
2821.00,0.0157
2820.00,0.0154
2819.00,0.0152
2818.00,0.0150
2817.00,0.0149
2816.00,0.0147
2815.00,0.0146
2814.00,0.0144
2813.00,0.0143
2812.00,0.0141
2811.00,0.0140
2810.00,0.0139
2809.00,0.0138
2808.00,0.0138
2807.00,0.0137
2806.00,0.0136
2805.00,0.0135
2804.00,0.0135
2803.00,0.0134
2802.00,0.0133
2801.00,0.0132
2800.00,0.0131
2799.00,0.0131
2798.00,0.0130
2797.00,0.0129
2796.00,0.0129
2795.00,0.0129
2794.00,0.0128
2793.00,0.0128
2792.00,0.0127
2791.00,0.0127
2790.00,0.0126
2789.00,0.0126
2788.00,0.0125
2787.00,0.0125
2786.00,0.0124
2785.00,0.0124
2784.00,0.0123
2783.00,0.0123
2782.00,0.0122
2781.00,0.0122
2780.00,0.0121
2779.00,0.0121
2778.00,0.0121
2777.00,0.0120
2776.00,0.0120
2775.00,0.0119
2774.00,0.0119
2773.00,0.0118
2772.00,0.0118
2771.00,0.0118
2770.00,0.0117
2769.00,0.0117
2768.00,0.0117
2767.00,0.0117
2766.00,0.0116
2765.00,0.0116
2764.00,0.0116
2763.00,0.0116
2762.00,0.0116
2761.00,0.0116
2760.00,0.0116
2759.00,0.0116
2758.00,0.0116
2757.00,0.0116
2756.00,0.0116
2755.00,0.0116
2754.00,0.0116
2753.00,0.0116
2752.00,0.0116
2751.00,0.0116
2750.00,0.0117
2749.00,0.0117
2748.00,0.0117
2747.00,0.0117
2746.00,0.0117
2745.00,0.0117
2744.00,0.0117
2743.00,0.0117
2742.00,0.0117
2741.00,0.0117
2740.00,0.0117
2739.00,0.0117
2738.00,0.0118
2737.00,0.0118
2736.00,0.0118
2735.00,0.0118
2734.00,0.0118
2733.00,0.0118
2732.00,0.0118
2731.00,0.0117
2730.00,0.0117
2729.00,0.0117
2728.00,0.0117
2727.00,0.0116
2726.00,0.0116
2725.00,0.0116
2724.00,0.0115
2723.00,0.0115
2722.00,0.0115
2721.00,0.0115
2720.00,0.0115
2719.00,0.0114
2718.00,0.0114
2717.00,0.0114
2716.00,0.0114
2715.00,0.0114
2714.00,0.0113
2713.00,0.0113
2712.00,0.0113
2711.00,0.0113
2710.00,0.0112
2709.00,0.0112
2708.00,0.0112
2707.00,0.0112
2706.00,0.0111
2705.00,0.0111
2704.00,0.0111
2703.00,0.0110
2702.00,0.0110
2701.00,0.0110
2700.00,0.0110
2699.00,0.0110
2698.00,0.0109
2697.00,0.0109
2696.00,0.0109
2695.00,0.0108
2694.00,0.0108
2693.00,0.0108
2692.00,0.0108
2691.00,0.0107
2690.00,0.0107
2689.00,0.0107
2688.00,0.0106
2687.00,0.0106
2686.00,0.0106
2685.00,0.0106
2684.00,0.0106
2683.00,0.0105
2682.00,0.0105
2681.00,0.0104
2680.00,0.0104
2679.00,0.0104
2678.00,0.0104
2677.00,0.0104
2676.00,0.0104
2675.00,0.0104
2674.00,0.0104
2673.00,0.0104
2672.00,0.0104
2671.00,0.0104
2670.00,0.0104
2669.00,0.0104
2668.00,0.0104
2667.00,0.0104
2666.00,0.0104
2665.00,0.0105
2664.00,0.0105
2663.00,0.0105
2662.00,0.0106
2661.00,0.0106
2660.00,0.0106
2659.00,0.0106
2658.00,0.0106
2657.00,0.0106
2656.00,0.0106
2655.00,0.0106
2654.00,0.0106
2653.00,0.0106
2652.00,0.0105
2651.00,0.0105
2650.00,0.0105
2649.00,0.0105
2648.00,0.0105
2647.00,0.0105
2646.00,0.0105
2645.00,0.0105
2644.00,0.0105
2643.00,0.0105
2642.00,0.0105
2641.00,0.0104
2640.00,0.0104
2639.00,0.0104
2638.00,0.0104
2637.00,0.0103
2636.00,0.0103
2635.00,0.0103
2634.00,0.0103
2633.00,0.0103
2632.00,0.0103
2631.00,0.0103
2630.00,0.0102
2629.00,0.0102
2628.00,0.0102
2627.00,0.0101
2626.00,0.0101
2625.00,0.0101
2624.00,0.0101
2623.00,0.0101
2622.00,0.0100
2621.00,0.0100
2620.00,0.0100
2619.00,0.0100
2618.00,0.0100
2617.00,0.0100
2616.00,0.0100
2615.00,0.0099
2614.00,0.0099
2613.00,0.0098
2612.00,0.0098
2611.00,0.0098
2610.00,0.0098
2609.00,0.0098
2608.00,0.0098
2607.00,0.0098
2606.00,0.0098
2605.00,0.0098
2604.00,0.0097
2603.00,0.0097
2602.00,0.0097
2601.00,0.0097
2600.00,0.0097
2599.00,0.0097
2598.00,0.0096
2597.00,0.0096
2596.00,0.0096
2595.00,0.0096
2594.00,0.0096
2593.00,0.0096
2592.00,0.0095
2591.00,0.0095
2590.00,0.0095
2589.00,0.0095
2588.00,0.0095
2587.00,0.0095
2586.00,0.0095
2585.00,0.0095
2584.00,0.0095
2583.00,0.0095
2582.00,0.0094
2581.00,0.0094
2580.00,0.0094
2579.00,0.0094
2578.00,0.0094
2577.00,0.0094
2576.00,0.0094
2575.00,0.0094
2574.00,0.0093
2573.00,0.0093
2572.00,0.0093
2571.00,0.0093
2570.00,0.0093
2569.00,0.0093
2568.00,0.0093
2567.00,0.0093
2566.00,0.0092
2565.00,0.0092
2564.00,0.0092
2563.00,0.0091
2562.00,0.0091
2561.00,0.0091
2560.00,0.0091
2559.00,0.0091
2558.00,0.0090
2557.00,0.0090
2556.00,0.0090
2555.00,0.0090
2554.00,0.0090
2553.00,0.0090
2552.00,0.0090
2551.00,0.0090
2550.00,0.0090
2549.00,0.0090
2548.00,0.0089
2547.00,0.0089
2546.00,0.0088
2545.00,0.0088
2544.00,0.0088
2543.00,0.0087
2542.00,0.0087
2541.00,0.0087
2540.00,0.0087
2539.00,0.0086
2538.00,0.0086
2537.00,0.0086
2536.00,0.0085
2535.00,0.0085
2534.00,0.0085
2533.00,0.0085
2532.00,0.0085
2531.00,0.0085
2530.00,0.0084
2529.00,0.0084
2528.00,0.0083
2527.00,0.0083
2526.00,0.0083
2525.00,0.0083
2524.00,0.0082
2523.00,0.0082
2522.00,0.0082
2521.00,0.0081
2520.00,0.0081
2519.00,0.0081
2518.00,0.0080
2517.00,0.0080
2516.00,0.0080
2515.00,0.0080
2514.00,0.0079
2513.00,0.0080
2512.00,0.0080
2511.00,0.0080
2510.00,0.0080
2509.00,0.0079
2508.00,0.0079
2507.00,0.0079
2506.00,0.0079
2505.00,0.0079
2504.00,0.0079
2503.00,0.0079
2502.00,0.0078
2501.00,0.0078
2500.00,0.0078
2499.00,0.0078
2498.00,0.0078
2497.00,0.0078
2496.00,0.0078
2495.00,0.0078
2494.00,0.0078
2493.00,0.0078
2492.00,0.0078
2491.00,0.0077
2490.00,0.0077
2489.00,0.0077
2488.00,0.0077
2487.00,0.0078
2486.00,0.0078
2485.00,0.0078
2484.00,0.0078
2483.00,0.0078
2482.00,0.0077
2481.00,0.0077
2480.00,0.0076
2479.00,0.0076
2478.00,0.0075
2477.00,0.0076
2476.00,0.0076
2475.00,0.0076
2474.00,0.0076
2473.00,0.0076
2472.00,0.0076
2471.00,0.0076
2470.00,0.0076
2469.00,0.0076
2468.00,0.0076
2467.00,0.0076
2466.00,0.0076
2465.00,0.0076
2464.00,0.0076
2463.00,0.0077
2462.00,0.0077
2461.00,0.0077
2460.00,0.0078
2459.00,0.0078
2458.00,0.0078
2457.00,0.0078
2456.00,0.0078
2455.00,0.0078
2454.00,0.0077
2453.00,0.0077
2452.00,0.0077
2451.00,0.0077
2450.00,0.0077
2449.00,0.0077
2448.00,0.0076
2447.00,0.0076
2446.00,0.0076
2445.00,0.0076
2444.00,0.0076
2443.00,0.0076
2442.00,0.0076
2441.00,0.0076
2440.00,0.0076
2439.00,0.0076
2438.00,0.0076
2437.00,0.0076
2436.00,0.0076
2435.00,0.0076
2434.00,0.0076
2433.00,0.0076
2432.00,0.0076
2431.00,0.0075
2430.00,0.0074
2429.00,0.0074
2428.00,0.0074
2427.00,0.0074
2426.00,0.0074
2425.00,0.0074
2424.00,0.0074
2423.00,0.0074
2422.00,0.0074
2421.00,0.0075
2420.00,0.0075
2419.00,0.0075
2418.00,0.0075
2417.00,0.0075
2416.00,0.0075
2415.00,0.0075
2414.00,0.0075
2413.00,0.0075
2412.00,0.0075
2411.00,0.0075
2410.00,0.0074
2409.00,0.0074
2408.00,0.0073
2407.00,0.0073
2406.00,0.0073
2405.00,0.0073
2404.00,0.0073
2403.00,0.0073
2402.00,0.0073
2401.00,0.0073
2400.00,0.0073
2399.00,0.0073
2398.00,0.0073
2397.00,0.0072
2396.00,0.0072
2395.00,0.0072
2394.00,0.0072
2393.00,0.0072
2392.00,0.0072
2391.00,0.0072
2390.00,0.0071
2389.00,0.0071
2388.00,0.0071
2387.00,0.0071
2386.00,0.0071
2385.00,0.0071
2384.00,0.0070
2383.00,0.0070
2382.00,0.0070
2381.00,0.0070
2380.00,0.0070
2379.00,0.0070
2378.00,0.0070
2377.00,0.0070
2376.00,0.0070
2375.00,0.0070
2374.00,0.0070
2373.00,0.0070
2372.00,0.0070
2371.00,0.0070
2370.00,0.0070
2369.00,0.0070
2368.00,0.0070
2367.00,0.0070
2366.00,0.0070
2365.00,0.0070
2364.00,0.0070
2363.00,0.0070
2362.00,0.0070
2361.00,0.0071
2360.00,0.0071
2359.00,0.0072
2358.00,0.0072
2357.00,0.0073
2356.00,0.0073
2355.00,0.0073
2354.00,0.0072
2353.00,0.0072
2352.00,0.0072
2351.00,0.0072
2350.00,0.0073
2349.00,0.0073
2348.00,0.0073
2347.00,0.0074
2346.00,0.0074
2345.00,0.0074
2344.00,0.0074
2343.00,0.0075
2342.00,0.0075
2341.00,0.0076
2340.00,0.0077
2339.00,0.0077
2338.00,0.0077
2337.00,0.0077
2336.00,0.0077
2335.00,0.0077
2334.00,0.0077
2333.00,0.0077
2332.00,0.0077
2331.00,0.0078
2330.00,0.0078
2329.00,0.0081
2328.00,0.0085
2327.00,0.0090
2326.00,0.0093
2325.00,0.0094
2324.00,0.0092
2323.00,0.0090
2322.00,0.0087
2321.00,0.0086
2320.00,0.0085
2319.00,0.0084
2318.00,0.0084
2317.00,0.0083
2316.00,0.0083
2315.00,0.0083
2314.00,0.0082
2313.00,0.0081
2312.00,0.0081
2311.00,0.0080
2310.00,0.0080
2309.00,0.0080
2308.00,0.0080
2307.00,0.0080
2306.00,0.0080
2305.00,0.0080
2304.00,0.0080
2303.00,0.0081
2302.00,0.0080
2301.00,0.0080
2300.00,0.0081
2299.00,0.0081
2298.00,0.0081
2297.00,0.0082
2296.00,0.0082
2295.00,0.0083
2294.00,0.0084
2293.00,0.0085
2292.00,0.0086
2291.00,0.0087
2290.00,0.0087
2289.00,0.0087
2288.00,0.0087
2287.00,0.0087
2286.00,0.0087
2285.00,0.0086
2284.00,0.0086
2283.00,0.0085
2282.00,0.0084
2281.00,0.0084
2280.00,0.0083
2279.00,0.0083
2278.00,0.0082
2277.00,0.0081
2276.00,0.0081
2275.00,0.0081
2274.00,0.0081
2273.00,0.0080
2272.00,0.0080
2271.00,0.0080
2270.00,0.0079
2269.00,0.0078
2268.00,0.0077
2267.00,0.0077
2266.00,0.0076
2265.00,0.0076
2264.00,0.0077
2263.00,0.0078
2262.00,0.0078
2261.00,0.0079
2260.00,0.0079
2259.00,0.0079
2258.00,0.0078
2257.00,0.0077
2256.00,0.0075
2255.00,0.0074
2254.00,0.0073
2253.00,0.0074
2252.00,0.0074
2251.00,0.0075
2250.00,0.0075
2249.00,0.0076
2248.00,0.0076
2247.00,0.0077
2246.00,0.0076
2245.00,0.0076
2244.00,0.0076
2243.00,0.0076
2242.00,0.0076
2241.00,0.0076
2240.00,0.0077
2239.00,0.0077
2238.00,0.0077
2237.00,0.0077
2236.00,0.0077
2235.00,0.0077
2234.00,0.0077
2233.00,0.0076
2232.00,0.0076
2231.00,0.0076
2230.00,0.0075
2229.00,0.0074
2228.00,0.0074
2227.00,0.0074
2226.00,0.0074
2225.00,0.0074
2224.00,0.0074
2223.00,0.0074
2222.00,0.0074
2221.00,0.0075
2220.00,0.0076
2219.00,0.0077
2218.00,0.0078
2217.00,0.0078
2216.00,0.0078
2215.00,0.0078
2214.00,0.0077
2213.00,0.0077
2212.00,0.0077
2211.00,0.0077
2210.00,0.0078
2209.00,0.0079
2208.00,0.0079
2207.00,0.0078
2206.00,0.0077
2205.00,0.0076
2204.00,0.0076
2203.00,0.0076
2202.00,0.0077
2201.00,0.0077
2200.00,0.0077
2199.00,0.0077
2198.00,0.0076
2197.00,0.0077
2196.00,0.0077
2195.00,0.0078
2194.00,0.0079
2193.00,0.0079
2192.00,0.0081
2191.00,0.0082
2190.00,0.0082
2189.00,0.0081
2188.00,0.0081
2187.00,0.0081
2186.00,0.0080
2185.00,0.0078
2184.00,0.0075
2183.00,0.0073
2182.00,0.0071
2181.00,0.0071
2180.00,0.0073
2179.00,0.0074
2178.00,0.0074
2177.00,0.0073
2176.00,0.0073
2175.00,0.0073
2174.00,0.0073
2173.00,0.0075
2172.00,0.0078
2171.00,0.0081
2170.00,0.0084
2169.00,0.0086
2168.00,0.0089
2167.00,0.0090
2166.00,0.0090
2165.00,0.0092
2164.00,0.0094
2163.00,0.0092
2162.00,0.0084
2161.00,0.0069
2160.00,0.0054
2159.00,0.0043
2158.00,0.0038
2157.00,0.0039
2156.00,0.0043
2155.00,0.0046
2154.00,0.0048
2153.00,0.0050
2152.00,0.0053
2151.00,0.0055
2150.00,0.0055
2149.00,0.0054
2148.00,0.0054
2147.00,0.0054
2146.00,0.0053
2145.00,0.0054
2144.00,0.0055
2143.00,0.0055
2142.00,0.0055
2141.00,0.0055
2140.00,0.0056
2139.00,0.0055
2138.00,0.0053
2137.00,0.0051
2136.00,0.0050
2135.00,0.0049
2134.00,0.0049
2133.00,0.0051
2132.00,0.0053
2131.00,0.0055
2130.00,0.0057
2129.00,0.0058
2128.00,0.0060
2127.00,0.0061
2126.00,0.0062
2125.00,0.0062
2124.00,0.0064
2123.00,0.0065
2122.00,0.0065
2121.00,0.0066
2120.00,0.0068
2119.00,0.0069
2118.00,0.0070
2117.00,0.0071
2116.00,0.0073
2115.00,0.0073
2114.00,0.0073
2113.00,0.0073
2112.00,0.0072
2111.00,0.0072
2110.00,0.0071
2109.00,0.0071
2108.00,0.0071
2107.00,0.0071
2106.00,0.0071
2105.00,0.0072
2104.00,0.0072
2103.00,0.0071
2102.00,0.0070
2101.00,0.0070
2100.00,0.0070
2099.00,0.0069
2098.00,0.0068
2097.00,0.0067
2096.00,0.0066
2095.00,0.0066
2094.00,0.0067
2093.00,0.0069
2092.00,0.0071
2091.00,0.0072
2090.00,0.0073
2089.00,0.0073
2088.00,0.0073
2087.00,0.0073
2086.00,0.0073
2085.00,0.0073
2084.00,0.0074
2083.00,0.0075
2082.00,0.0075
2081.00,0.0075
2080.00,0.0075
2079.00,0.0075
2078.00,0.0074
2077.00,0.0073
2076.00,0.0072
2075.00,0.0072
2074.00,0.0071
2073.00,0.0070
2072.00,0.0070
2071.00,0.0070
2070.00,0.0070
2069.00,0.0070
2068.00,0.0070
2067.00,0.0070
2066.00,0.0070
2065.00,0.0069
2064.00,0.0069
2063.00,0.0068
2062.00,0.0067
2061.00,0.0066
2060.00,0.0067
2059.00,0.0067
2058.00,0.0067
2057.00,0.0067
2056.00,0.0068
2055.00,0.0070
2054.00,0.0074
2053.00,0.0079
2052.00,0.0084
2051.00,0.0084
2050.00,0.0080
2049.00,0.0075
2048.00,0.0072
2047.00,0.0070
2046.00,0.0069
2045.00,0.0070
2044.00,0.0071
2043.00,0.0071
2042.00,0.0070
2041.00,0.0069
2040.00,0.0070
2039.00,0.0071
2038.00,0.0070
2037.00,0.0070
2036.00,0.0069
2035.00,0.0068
2034.00,0.0066
2033.00,0.0066
2032.00,0.0066
2031.00,0.0065
2030.00,0.0062
2029.00,0.0061
2028.00,0.0061
2027.00,0.0061
2026.00,0.0060
2025.00,0.0059
2024.00,0.0059
2023.00,0.0060
2022.00,0.0061
2021.00,0.0062
2020.00,0.0064
2019.00,0.0064
2018.00,0.0061
2017.00,0.0059
2016.00,0.0058
2015.00,0.0057
2014.00,0.0056
2013.00,0.0056
2012.00,0.0057
2011.00,0.0057
2010.00,0.0055
2009.00,0.0053
2008.00,0.0051
2007.00,0.0048
2006.00,0.0047
2005.00,0.0049
2004.00,0.0053
2003.00,0.0057
2002.00,0.0058
2001.00,0.0059
2000.00,0.0060
1999.00,0.0060
1998.00,0.0059
1997.00,0.0059
1996.00,0.0060
1995.00,0.0062
1994.00,0.0063
1993.00,0.0064
1992.00,0.0065
1991.00,0.0066
1990.00,0.0067
1989.00,0.0068
1988.00,0.0070
1987.00,0.0071
1986.00,0.0071
1985.00,0.0072
1984.00,0.0076
1983.00,0.0079
1982.00,0.0081
1981.00,0.0080
1980.00,0.0074
1979.00,0.0065
1978.00,0.0056
1977.00,0.0052
1976.00,0.0051
1975.00,0.0052
1974.00,0.0052
1973.00,0.0052
1972.00,0.0054
1971.00,0.0054
1970.00,0.0053
1969.00,0.0053
1968.00,0.0054
1967.00,0.0054
1966.00,0.0053
1965.00,0.0053
1964.00,0.0053
1963.00,0.0053
1962.00,0.0051
1961.00,0.0049
1960.00,0.0047
1959.00,0.0046
1958.00,0.0046
1957.00,0.0048
1956.00,0.0051
1955.00,0.0052
1954.00,0.0052
1953.00,0.0053
1952.00,0.0054
1951.00,0.0054
1950.00,0.0053
1949.00,0.0053
1948.00,0.0053
1947.00,0.0054
1946.00,0.0053
1945.00,0.0053
1944.00,0.0054
1943.00,0.0055
1942.00,0.0054
1941.00,0.0054
1940.00,0.0056
1939.00,0.0057
1938.00,0.0056
1937.00,0.0056
1936.00,0.0057
1935.00,0.0057
1934.00,0.0057
1933.00,0.0057
1932.00,0.0057
1931.00,0.0056
1930.00,0.0056
1929.00,0.0056
1928.00,0.0056
1927.00,0.0057
1926.00,0.0057
1925.00,0.0057
1924.00,0.0058
1923.00,0.0059
1922.00,0.0059
1921.00,0.0060
1920.00,0.0061
1919.00,0.0061
1918.00,0.0060
1917.00,0.0058
1916.00,0.0058
1915.00,0.0059
1914.00,0.0059
1913.00,0.0059
1912.00,0.0060
1911.00,0.0060
1910.00,0.0060
1909.00,0.0060
1908.00,0.0060
1907.00,0.0060
1906.00,0.0060
1905.00,0.0060
1904.00,0.0060
1903.00,0.0060
1902.00,0.0060
1901.00,0.0059
1900.00,0.0059
1899.00,0.0059
1898.00,0.0059
1897.00,0.0060
1896.00,0.0060
1895.00,0.0060
1894.00,0.0059
1893.00,0.0060
1892.00,0.0061
1891.00,0.0061
1890.00,0.0061
1889.00,0.0061
1888.00,0.0061
1887.00,0.0061
1886.00,0.0060
1885.00,0.0060
1884.00,0.0060
1883.00,0.0060
1882.00,0.0060
1881.00,0.0060
1880.00,0.0060
1879.00,0.0061
1878.00,0.0060
1877.00,0.0061
1876.00,0.0061
1875.00,0.0061
1874.00,0.0060
1873.00,0.0060
1872.00,0.0061
1871.00,0.0061
1870.00,0.0061
1869.00,0.0061
1868.00,0.0061
1867.00,0.0061
1866.00,0.0060
1865.00,0.0060
1864.00,0.0060
1863.00,0.0060
1862.00,0.0060
1861.00,0.0060
1860.00,0.0060
1859.00,0.0060
1858.00,0.0060
1857.00,0.0060
1856.00,0.0060
1855.00,0.0061
1854.00,0.0061
1853.00,0.0061
1852.00,0.0061
1851.00,0.0062
1850.00,0.0061
1849.00,0.0062
1848.00,0.0062
1847.00,0.0063
1846.00,0.0063
1845.00,0.0062
1844.00,0.0062
1843.00,0.0061
1842.00,0.0061
1841.00,0.0061
1840.00,0.0062
1839.00,0.0062
1838.00,0.0061
1837.00,0.0061
1836.00,0.0061
1835.00,0.0061
1834.00,0.0060
1833.00,0.0061
1832.00,0.0062
1831.00,0.0062
1830.00,0.0061
1829.00,0.0060
1828.00,0.0061
1827.00,0.0061
1826.00,0.0062
1825.00,0.0062
1824.00,0.0061
1823.00,0.0061
1822.00,0.0061
1821.00,0.0060
1820.00,0.0060
1819.00,0.0058
1818.00,0.0057
1817.00,0.0056
1816.00,0.0057
1815.00,0.0058
1814.00,0.0059
1813.00,0.0059
1812.00,0.0060
1811.00,0.0061
1810.00,0.0060
1809.00,0.0060
1808.00,0.0060
1807.00,0.0060
1806.00,0.0060
1805.00,0.0061
1804.00,0.0062
1803.00,0.0063
1802.00,0.0063
1801.00,0.0062
1800.00,0.0061
1799.00,0.0061
1798.00,0.0061
1797.00,0.0061
1796.00,0.0062
1795.00,0.0063
1794.00,0.0063
1793.00,0.0063
1792.00,0.0063
1791.00,0.0063
1790.00,0.0063
1789.00,0.0063
1788.00,0.0064
1787.00,0.0064
1786.00,0.0064
1785.00,0.0064
1784.00,0.0065
1783.00,0.0065
1782.00,0.0064
1781.00,0.0064
1780.00,0.0064
1779.00,0.0064
1778.00,0.0064
1777.00,0.0064
1776.00,0.0065
1775.00,0.0065
1774.00,0.0066
1773.00,0.0066
1772.00,0.0066
1771.00,0.0067
1770.00,0.0067
1769.00,0.0068
1768.00,0.0068
1767.00,0.0068
1766.00,0.0068
1765.00,0.0068
1764.00,0.0070
1763.00,0.0070
1762.00,0.0070
1761.00,0.0070
1760.00,0.0070
1759.00,0.0071
1758.00,0.0071
1757.00,0.0071
1756.00,0.0071
1755.00,0.0072
1754.00,0.0072
1753.00,0.0074
1752.00,0.0076
1751.00,0.0076
1750.00,0.0075
1749.00,0.0075
1748.00,0.0076
1747.00,0.0076
1746.00,0.0076
1745.00,0.0077
1744.00,0.0078
1743.00,0.0079
1742.00,0.0079
1741.00,0.0079
1740.00,0.0080
1739.00,0.0081
1738.00,0.0081
1737.00,0.0082
1736.00,0.0085
1735.00,0.0087
1734.00,0.0087
1733.00,0.0088
1732.00,0.0090
1731.00,0.0092
1730.00,0.0093
1729.00,0.0094
1728.00,0.0096
1727.00,0.0098
1726.00,0.0100
1725.00,0.0102
1724.00,0.0105
1723.00,0.0107
1722.00,0.0108
1721.00,0.0110
1720.00,0.0114
1719.00,0.0118
1718.00,0.0121
1717.00,0.0125
1716.00,0.0132
1715.00,0.0137
1714.00,0.0141
1713.00,0.0147
1712.00,0.0155
1711.00,0.0162
1710.00,0.0170
1709.00,0.0179
1708.00,0.0191
1707.00,0.0206
1706.00,0.0223
1705.00,0.0242
1704.00,0.0262
1703.00,0.0280
1702.00,0.0300
1701.00,0.0336
1700.00,0.0387
1699.00,0.0432
1698.00,0.0467
1697.00,0.0510
1696.00,0.0573
1695.00,0.0643
1694.00,0.0700
1693.00,0.0749
1692.00,0.0799
1691.00,0.0858
1690.00,0.0923
1689.00,0.0989
1688.00,0.1047
1687.00,0.1096
1686.00,0.1146
1685.00,0.1222
1684.00,0.1326
1683.00,0.1415
1682.00,0.1468
1681.00,0.1506
1680.00,0.1546
1679.00,0.1584
1678.00,0.1616
1677.00,0.1647
1676.00,0.1689
1675.00,0.1738
1674.00,0.1778
1673.00,0.1802
1672.00,0.1821
1671.00,0.1845
1670.00,0.1881
1669.00,0.1923
1668.00,0.1960
1667.00,0.1982
1666.00,0.1995
1665.00,0.2006
1664.00,0.2027
1663.00,0.2059
1662.00,0.2093
1661.00,0.2118
1660.00,0.2134
1659.00,0.2143
1658.00,0.2145
1657.00,0.2140
1656.00,0.2129
1655.00,0.2117
1654.00,0.2120
1653.00,0.2144
1652.00,0.2154
1651.00,0.2132
1650.00,0.2092
1649.00,0.2045
1648.00,0.1998
1647.00,0.1954
1646.00,0.1908
1645.00,0.1858
1644.00,0.1801
1643.00,0.1740
1642.00,0.1675
1641.00,0.1609
1640.00,0.1544
1639.00,0.1481
1638.00,0.1418
1637.00,0.1354
1636.00,0.1289
1635.00,0.1229
1634.00,0.1176
1633.00,0.1127
1632.00,0.1080
1631.00,0.1035
1630.00,0.0994
1629.00,0.0958
1628.00,0.0929
1627.00,0.0908
1626.00,0.0892
1625.00,0.0883
1624.00,0.0883
1623.00,0.0891
1622.00,0.0901
1621.00,0.0904
1620.00,0.0901
1619.00,0.0894
1618.00,0.0883
1617.00,0.0869
1616.00,0.0853
1615.00,0.0834
1614.00,0.0814
1613.00,0.0792
1612.00,0.0773
1611.00,0.0755
1610.00,0.0737
1609.00,0.0717
1608.00,0.0693
1607.00,0.0666
1606.00,0.0635
1605.00,0.0602
1604.00,0.0569
1603.00,0.0537
1602.00,0.0508
1601.00,0.0482
1600.00,0.0460
1599.00,0.0441
1598.00,0.0427
1597.00,0.0416
1596.00,0.0409
1595.00,0.0408
1594.00,0.0412
1593.00,0.0421
1592.00,0.0435
1591.00,0.0454
1590.00,0.0477
1589.00,0.0500
1588.00,0.0522
1587.00,0.0538
1586.00,0.0548
1585.00,0.0548
1584.00,0.0540
1583.00,0.0525
1582.00,0.0504
1581.00,0.0481
1580.00,0.0457
1579.00,0.0435
1578.00,0.0414
1577.00,0.0394
1576.00,0.0377
1575.00,0.0363
1574.00,0.0352
1573.00,0.0343
1572.00,0.0334
1571.00,0.0324
1570.00,0.0316
1569.00,0.0307
1568.00,0.0300
1567.00,0.0293
1566.00,0.0286
1565.00,0.0279
1564.00,0.0272
1563.00,0.0267
1562.00,0.0262
1561.00,0.0257
1560.00,0.0251
1559.00,0.0246
1558.00,0.0242
1557.00,0.0239
1556.00,0.0236
1555.00,0.0233
1554.00,0.0230
1553.00,0.0227
1552.00,0.0225
1551.00,0.0222
1550.00,0.0220
1549.00,0.0218
1548.00,0.0216
1547.00,0.0214
1546.00,0.0213
1545.00,0.0211
1544.00,0.0209
1543.00,0.0206
1542.00,0.0203
1541.00,0.0201
1540.00,0.0200
1539.00,0.0199
1538.00,0.0199
1537.00,0.0198
1536.00,0.0198
1535.00,0.0198
1534.00,0.0198
1533.00,0.0198
1532.00,0.0198
1531.00,0.0198
1530.00,0.0199
1529.00,0.0200
1528.00,0.0201
1527.00,0.0203
1526.00,0.0204
1525.00,0.0205
1524.00,0.0207
1523.00,0.0210
1522.00,0.0215
1521.00,0.0220
1520.00,0.0224
1519.00,0.0228
1518.00,0.0231
1517.00,0.0235
1516.00,0.0239
1515.00,0.0241
1514.00,0.0243
1513.00,0.0246
1512.00,0.0248
1511.00,0.0251
1510.00,0.0253
1509.00,0.0256
1508.00,0.0262
1507.00,0.0273
1506.00,0.0289
1505.00,0.0304
1504.00,0.0318
1503.00,0.0333
1502.00,0.0351
1501.00,0.0374
1500.00,0.0401
1499.00,0.0431
1498.00,0.0462
1497.00,0.0492
1496.00,0.0515
1495.00,0.0528
1494.00,0.0531
1493.00,0.0528
1492.00,0.0517
1491.00,0.0501
1490.00,0.0479
1489.00,0.0453
1488.00,0.0426
1487.00,0.0399
1486.00,0.0373
1485.00,0.0351
1484.00,0.0333
1483.00,0.0317
1482.00,0.0304
1481.00,0.0295
1480.00,0.0290
1479.00,0.0288
1478.00,0.0290
1477.00,0.0295
1476.00,0.0304
1475.00,0.0316
1474.00,0.0335
1473.00,0.0366
1472.00,0.0406
1471.00,0.0447
1470.00,0.0487
1469.00,0.0527
1468.00,0.0571
1467.00,0.0619
1466.00,0.0675
1465.00,0.0739
1464.00,0.0799
1463.00,0.0842
1462.00,0.0867
1461.00,0.0880
1460.00,0.0883
1459.00,0.0874
1458.00,0.0851
1457.00,0.0816
1456.00,0.0776
1455.00,0.0740
1454.00,0.0710
1453.00,0.0687
1452.00,0.0670
1451.00,0.0661
1450.00,0.0662
1449.00,0.0674
1448.00,0.0697
1447.00,0.0727
1446.00,0.0760
1445.00,0.0794
1444.00,0.0832
1443.00,0.0870
1442.00,0.0910
1441.00,0.0947
1440.00,0.0979
1439.00,0.1008
1438.00,0.1038
1437.00,0.1075
1436.00,0.1113
1435.00,0.1137
1434.00,0.1148
1433.00,0.1155
1432.00,0.1163
1431.00,0.1174
1430.00,0.1190
1429.00,0.1212
1428.00,0.1239
1427.00,0.1266
1426.00,0.1298
1425.00,0.1335
1424.00,0.1371
1423.00,0.1395
1422.00,0.1401
1421.00,0.1388
1420.00,0.1355
1419.00,0.1300
1418.00,0.1229
1417.00,0.1154
1416.00,0.1079
1415.00,0.1004
1414.00,0.0936
1413.00,0.0876
1412.00,0.0826
1411.00,0.0784
1410.00,0.0753
1409.00,0.0730
1408.00,0.0713
1407.00,0.0702
1406.00,0.0697
1405.00,0.0694
1404.00,0.0692
1403.00,0.0688
1402.00,0.0680
1401.00,0.0668
1400.00,0.0650
1399.00,0.0627
1398.00,0.0600
1397.00,0.0573
1396.00,0.0543
1395.00,0.0514
1394.00,0.0488
1393.00,0.0467
1392.00,0.0451
1391.00,0.0440
1390.00,0.0434
1389.00,0.0432
1388.00,0.0435
1387.00,0.0443
1386.00,0.0454
1385.00,0.0466
1384.00,0.0480
1383.00,0.0496
1382.00,0.0512
1381.00,0.0529
1380.00,0.0542
1379.00,0.0553
1378.00,0.0560
1377.00,0.0563
1376.00,0.0564
1375.00,0.0563
1374.00,0.0560
1373.00,0.0557
1372.00,0.0551
1371.00,0.0545
1370.00,0.0539
1369.00,0.0533
1368.00,0.0528
1367.00,0.0524
1366.00,0.0521
1365.00,0.0521
1364.00,0.0523
1363.00,0.0525
1362.00,0.0527
1361.00,0.0524
1360.00,0.0515
1359.00,0.0501
1358.00,0.0481
1357.00,0.0460
1356.00,0.0437
1355.00,0.0415
1354.00,0.0397
1353.00,0.0383
1352.00,0.0372
1351.00,0.0363
1350.00,0.0357
1349.00,0.0352
1348.00,0.0348
1347.00,0.0345
1346.00,0.0343
1345.00,0.0341
1344.00,0.0339
1343.00,0.0339
1342.00,0.0340
1341.00,0.0342
1340.00,0.0344
1339.00,0.0347
1338.00,0.0350
1337.00,0.0354
1336.00,0.0359
1335.00,0.0363
1334.00,0.0369
1333.00,0.0376
1332.00,0.0383
1331.00,0.0391
1330.00,0.0400
1329.00,0.0410
1328.00,0.0422
1327.00,0.0435
1326.00,0.0450
1325.00,0.0466
1324.00,0.0483
1323.00,0.0501
1322.00,0.0519
1321.00,0.0536
1320.00,0.0550
1319.00,0.0562
1318.00,0.0570
1317.00,0.0573
1316.00,0.0572
1315.00,0.0567
1314.00,0.0559
1313.00,0.0550
1312.00,0.0540
1311.00,0.0531
1310.00,0.0524
1309.00,0.0519
1308.00,0.0517
1307.00,0.0519
1306.00,0.0524
1305.00,0.0533
1304.00,0.0545
1303.00,0.0563
1302.00,0.0586
1301.00,0.0615
1300.00,0.0653
1299.00,0.0700
1298.00,0.0757
1297.00,0.0824
1296.00,0.0900
1295.00,0.0983
1294.00,0.1070
1293.00,0.1158
1292.00,0.1245
1291.00,0.1325
1290.00,0.1398
1289.00,0.1459
1288.00,0.1508
1287.00,0.1541
1286.00,0.1557
1285.00,0.1557
1284.00,0.1542
1283.00,0.1515
1282.00,0.1482
1281.00,0.1446
1280.00,0.1413
1279.00,0.1386
1278.00,0.1368
1277.00,0.1359
1276.00,0.1358
1275.00,0.1362
1274.00,0.1367
1273.00,0.1371
1272.00,0.1369
1271.00,0.1360
1270.00,0.1341
1269.00,0.1313
1268.00,0.1275
1267.00,0.1230
1266.00,0.1179
1265.00,0.1125
1264.00,0.1070
1263.00,0.1016
1262.00,0.0963
1261.00,0.0913
1260.00,0.0866
1259.00,0.0822
1258.00,0.0782
1257.00,0.0746
1256.00,0.0714
1255.00,0.0685
1254.00,0.0660
1253.00,0.0639
1252.00,0.0622
1251.00,0.0608
1250.00,0.0599
1249.00,0.0594
1248.00,0.0593
1247.00,0.0597
1246.00,0.0604
1245.00,0.0613
1244.00,0.0625
1243.00,0.0637
1242.00,0.0650
1241.00,0.0662
1240.00,0.0672
1239.00,0.0682
1238.00,0.0691
1237.00,0.0699
1236.00,0.0707
1235.00,0.0715
1234.00,0.0721
1233.00,0.0727
1232.00,0.0730
1231.00,0.0733
1230.00,0.0734
1229.00,0.0734
1228.00,0.0733
1227.00,0.0731
1226.00,0.0730
1225.00,0.0729
1224.00,0.0729
1223.00,0.0730
1222.00,0.0732
1221.00,0.0733
1220.00,0.0734
1219.00,0.0733
1218.00,0.0729
1217.00,0.0722
1216.00,0.0711
1215.00,0.0696
1214.00,0.0678
1213.00,0.0659
1212.00,0.0638
1211.00,0.0618
1210.00,0.0599
1209.00,0.0581
1208.00,0.0565
1207.00,0.0552
1206.00,0.0542
1205.00,0.0536
1204.00,0.0532
1203.00,0.0532
1202.00,0.0534
1201.00,0.0540
1200.00,0.0548
1199.00,0.0558
1198.00,0.0569
1197.00,0.0580
1196.00,0.0590
1195.00,0.0596
1194.00,0.0598
1193.00,0.0594
1192.00,0.0584
1191.00,0.0570
1190.00,0.0552
1189.00,0.0533
1188.00,0.0514
1187.00,0.0497
1186.00,0.0481
1185.00,0.0468
1184.00,0.0457
1183.00,0.0448
1182.00,0.0441
1181.00,0.0437
1180.00,0.0434
1179.00,0.0433
1178.00,0.0434
1177.00,0.0437
1176.00,0.0441
1175.00,0.0446
1174.00,0.0452
1173.00,0.0458
1172.00,0.0464
1171.00,0.0469
1170.00,0.0473
1169.00,0.0476
1168.00,0.0478
1167.00,0.0478
1166.00,0.0479
1165.00,0.0481
1164.00,0.0485
1163.00,0.0491
1162.00,0.0500
1161.00,0.0511
1160.00,0.0524
1159.00,0.0535
1158.00,0.0545
1157.00,0.0550
1156.00,0.0549
1155.00,0.0542
1154.00,0.0530
1153.00,0.0514
1152.00,0.0496
1151.00,0.0475
1150.00,0.0455
1149.00,0.0434
1148.00,0.0414
1147.00,0.0395
1146.00,0.0380
1145.00,0.0366
1144.00,0.0354
1143.00,0.0345
1142.00,0.0338
1141.00,0.0333
1140.00,0.0331
1139.00,0.0332
1138.00,0.0336
1137.00,0.0345
1136.00,0.0359
1135.00,0.0379
1134.00,0.0403
1133.00,0.0430
1132.00,0.0457
1131.00,0.0478
1130.00,0.0491
1129.00,0.0493
1128.00,0.0483
1127.00,0.0463
1126.00,0.0437
1125.00,0.0411
1124.00,0.0386
1123.00,0.0365
1122.00,0.0349
1121.00,0.0336
1120.00,0.0327
1119.00,0.0321
1118.00,0.0316
1117.00,0.0314
1116.00,0.0312
1115.00,0.0311
1114.00,0.0312
1113.00,0.0313
1112.00,0.0315
1111.00,0.0317
1110.00,0.0320
1109.00,0.0322
1108.00,0.0326
1107.00,0.0330
1106.00,0.0337
1105.00,0.0345
1104.00,0.0354
1103.00,0.0363
1102.00,0.0372
1101.00,0.0378
1100.00,0.0380
1099.00,0.0378
1098.00,0.0372
1097.00,0.0364
1096.00,0.0355
1095.00,0.0346
1094.00,0.0337
1093.00,0.0329
1092.00,0.0321
1091.00,0.0315
1090.00,0.0310
1089.00,0.0305
1088.00,0.0302
1087.00,0.0299
1086.00,0.0297
1085.00,0.0297
1084.00,0.0297
1083.00,0.0299
1082.00,0.0302
1081.00,0.0306
1080.00,0.0311
1079.00,0.0317
1078.00,0.0323
1077.00,0.0331
1076.00,0.0338
1075.00,0.0346
1074.00,0.0354
1073.00,0.0363
1072.00,0.0372
1071.00,0.0384
1070.00,0.0398
1069.00,0.0416
1068.00,0.0438
1067.00,0.0463
1066.00,0.0493
1065.00,0.0526
1064.00,0.0562
1063.00,0.0600
1062.00,0.0639
1061.00,0.0675
1060.00,0.0706
1059.00,0.0727
1058.00,0.0737
1057.00,0.0734
1056.00,0.0717
1055.00,0.0688
1054.00,0.0649
1053.00,0.0607
1052.00,0.0563
1051.00,0.0521
1050.00,0.0485
1049.00,0.0455
1048.00,0.0429
1047.00,0.0410
1046.00,0.0394
1045.00,0.0383
1044.00,0.0374
1043.00,0.0368
1042.00,0.0363
1041.00,0.0360
1040.00,0.0358
1039.00,0.0357
1038.00,0.0357
1037.00,0.0358
1036.00,0.0361
1035.00,0.0366
1034.00,0.0373
1033.00,0.0382
1032.00,0.0390
1031.00,0.0396
1030.00,0.0399
1029.00,0.0399
1028.00,0.0394
1027.00,0.0388
1026.00,0.0381
1025.00,0.0376
1024.00,0.0372
1023.00,0.0371
1022.00,0.0372
1021.00,0.0375
1020.00,0.0377
1019.00,0.0379
1018.00,0.0378
1017.00,0.0376
1016.00,0.0370
1015.00,0.0363
1014.00,0.0354
1013.00,0.0345
1012.00,0.0336
1011.00,0.0329
1010.00,0.0326
1009.00,0.0326
1008.00,0.0330
1007.00,0.0337
1006.00,0.0347
1005.00,0.0357
1004.00,0.0366
1003.00,0.0372
1002.00,0.0374
1001.00,0.0372
1000.00,0.0367
999.00,0.0360
998.00,0.0352
997.00,0.0344
996.00,0.0335
995.00,0.0328
994.00,0.0321
993.00,0.0314
992.00,0.0308
991.00,0.0301
990.00,0.0295
989.00,0.0289
988.00,0.0283
987.00,0.0277
986.00,0.0272
985.00,0.0268
984.00,0.0264
983.00,0.0260
982.00,0.0258
981.00,0.0257
980.00,0.0256
979.00,0.0255
978.00,0.0254
977.00,0.0253
976.00,0.0252
975.00,0.0250
974.00,0.0247
973.00,0.0244
972.00,0.0241
971.00,0.0237
970.00,0.0233
969.00,0.0230
968.00,0.0227
967.00,0.0225
966.00,0.0223
965.00,0.0222
964.00,0.0220
963.00,0.0219
962.00,0.0217
961.00,0.0216
960.00,0.0214
959.00,0.0212
958.00,0.0210
957.00,0.0208
956.00,0.0207
955.00,0.0205
954.00,0.0204
953.00,0.0203
952.00,0.0202
951.00,0.0202
950.00,0.0202
949.00,0.0202
948.00,0.0203
947.00,0.0204
946.00,0.0207
945.00,0.0209
944.00,0.0213
943.00,0.0218
942.00,0.0224
941.00,0.0232
940.00,0.0241
939.00,0.0252
938.00,0.0264
937.00,0.0277
936.00,0.0290
935.00,0.0301
934.00,0.0310
933.00,0.0314
932.00,0.0315
931.00,0.0313
930.00,0.0310
929.00,0.0307
928.00,0.0304
927.00,0.0303
926.00,0.0302
925.00,0.0300
924.00,0.0297
923.00,0.0293
922.00,0.0290
921.00,0.0286
920.00,0.0282
919.00,0.0279
918.00,0.0275
917.00,0.0272
916.00,0.0268
915.00,0.0265
914.00,0.0262
913.00,0.0261
912.00,0.0260
911.00,0.0260
910.00,0.0261
909.00,0.0263
908.00,0.0266
907.00,0.0270
906.00,0.0275
905.00,0.0282
904.00,0.0289
903.00,0.0298
902.00,0.0306
901.00,0.0315
900.00,0.0322
899.00,0.0329
898.00,0.0333
897.00,0.0336
896.00,0.0335
895.00,0.0333
894.00,0.0328
893.00,0.0322
892.00,0.0315
891.00,0.0307
890.00,0.0301
889.00,0.0296
888.00,0.0291
887.00,0.0288
886.00,0.0287
885.00,0.0286
884.00,0.0288
883.00,0.0290
882.00,0.0295
881.00,0.0301
880.00,0.0308
879.00,0.0316
878.00,0.0325
877.00,0.0335
876.00,0.0345
875.00,0.0355
874.00,0.0365
873.00,0.0374
872.00,0.0382
871.00,0.0388
870.00,0.0392
869.00,0.0395
868.00,0.0396
867.00,0.0397
866.00,0.0398
865.00,0.0399
864.00,0.0401
863.00,0.0403
862.00,0.0406
861.00,0.0410
860.00,0.0414
859.00,0.0419
858.00,0.0425
857.00,0.0432
856.00,0.0439
855.00,0.0447
854.00,0.0456
853.00,0.0465
852.00,0.0475
851.00,0.0485
850.00,0.0494
849.00,0.0502
848.00,0.0509
847.00,0.0514
846.00,0.0519
845.00,0.0522
844.00,0.0523
843.00,0.0522
842.00,0.0521
841.00,0.0519
840.00,0.0517
839.00,0.0514
838.00,0.0512
837.00,0.0510
836.00,0.0509
835.00,0.0507
834.00,0.0506
833.00,0.0506
832.00,0.0505
831.00,0.0503
830.00,0.0501
829.00,0.0499
828.00,0.0496
827.00,0.0493
826.00,0.0490
825.00,0.0488
824.00,0.0485
823.00,0.0484
822.00,0.0483
821.00,0.0483
820.00,0.0483
819.00,0.0483
818.00,0.0482
817.00,0.0482
816.00,0.0480
815.00,0.0476
814.00,0.0472
813.00,0.0464
812.00,0.0454
811.00,0.0441
810.00,0.0426
809.00,0.0408
808.00,0.0390
807.00,0.0371
806.00,0.0354
805.00,0.0340
804.00,0.0328
803.00,0.0319
802.00,0.0312
801.00,0.0308
800.00,0.0305
799.00,0.0303
798.00,0.0302
797.00,0.0302
796.00,0.0302
795.00,0.0302
794.00,0.0303
793.00,0.0304
792.00,0.0304
791.00,0.0305
790.00,0.0306
789.00,0.0307
788.00,0.0308
787.00,0.0308
786.00,0.0310
785.00,0.0311
784.00,0.0314
783.00,0.0316
782.00,0.0319
781.00,0.0323
780.00,0.0327
779.00,0.0332
778.00,0.0336
777.00,0.0339
776.00,0.0340
775.00,0.0340
774.00,0.0338
773.00,0.0337
772.00,0.0337
771.00,0.0338
770.00,0.0340
769.00,0.0343
768.00,0.0346
767.00,0.0350
766.00,0.0354
765.00,0.0358
764.00,0.0362
763.00,0.0368
762.00,0.0374
761.00,0.0380
760.00,0.0387
759.00,0.0394
758.00,0.0401
757.00,0.0408
756.00,0.0415
755.00,0.0422
754.00,0.0430
753.00,0.0438
752.00,0.0445
751.00,0.0453
750.00,0.0460
749.00,0.0468
748.00,0.0477
747.00,0.0485
746.00,0.0494
745.00,0.0503
744.00,0.0512
743.00,0.0523
742.00,0.0536
741.00,0.0550
740.00,0.0566
739.00,0.0580
738.00,0.0593
737.00,0.0601
736.00,0.0604
735.00,0.0602
734.00,0.0595
733.00,0.0586
732.00,0.0575
731.00,0.0562
730.00,0.0549
729.00,0.0536
728.00,0.0522
727.00,0.0509
726.00,0.0497
725.00,0.0486
724.00,0.0476
723.00,0.0468
722.00,0.0460
721.00,0.0454
720.00,0.0448
719.00,0.0444
718.00,0.0442
717.00,0.0440
716.00,0.0438
715.00,0.0437
714.00,0.0436
713.00,0.0436
712.00,0.0434
711.00,0.0432
710.00,0.0430
709.00,0.0428
708.00,0.0426
707.00,0.0426
706.00,0.0426
705.00,0.0427
704.00,0.0428
703.00,0.0429
702.00,0.0430
701.00,0.0433
700.00,0.0437
699.00,0.0441
698.00,0.0447
697.00,0.0454
696.00,0.0462
695.00,0.0472
694.00,0.0481
693.00,0.0491
692.00,0.0499
691.00,0.0506
690.00,0.0511
689.00,0.0515
688.00,0.0518
687.00,0.0519
686.00,0.0520
685.00,0.0521
684.00,0.0521
683.00,0.0522
682.00,0.0524
681.00,0.0527
680.00,0.0531
679.00,0.0535
678.00,0.0539
677.00,0.0544
676.00,0.0550
675.00,0.0557
674.00,0.0565
673.00,0.0574
672.00,0.0582
671.00,0.0590
670.00,0.0599
669.00,0.0612
668.00,0.0630
667.00,0.0647
666.00,0.0657
665.00,0.0665
664.00,0.0673
663.00,0.0685
662.00,0.0698
661.00,0.0712
660.00,0.0727
659.00,0.0742
658.00,0.0757
657.00,0.0772
656.00,0.0786
655.00,0.0801
654.00,0.0814
653.00,0.0826
652.00,0.0838
651.00,0.0847
650.00,0.0854
649.00,0.0859
648.00,0.0861
647.00,0.0860
646.00,0.0856
645.00,0.0850
644.00,0.0840
643.00,0.0830
642.00,0.0818
641.00,0.0806
640.00,0.0794
639.00,0.0782
638.00,0.0770
637.00,0.0758
636.00,0.0747
635.00,0.0736
634.00,0.0727
633.00,0.0719
632.00,0.0711
631.00,0.0705
630.00,0.0700
629.00,0.0696
628.00,0.0692
627.00,0.0689
626.00,0.0687
625.00,0.0684
624.00,0.0682
623.00,0.0679
622.00,0.0677
621.00,0.0675
620.00,0.0672
619.00,0.0670
618.00,0.0668
617.00,0.0666
616.00,0.0664
615.00,0.0663
614.00,0.0662
613.00,0.0662
612.00,0.0663
611.00,0.0665
610.00,0.0668
609.00,0.0672
608.00,0.0675
607.00,0.0678
606.00,0.0682
605.00,0.0686
604.00,0.0690
603.00,0.0694
602.00,0.0699
601.00,0.0703
600.00,0.0705
599.00,0.0706
598.00,0.0707
597.00,0.0708
596.00,0.0709
595.00,0.0710
594.00,0.0713
593.00,0.0716
592.00,0.0721
591.00,0.0729
590.00,0.0740
589.00,0.0754
588.00,0.0771
587.00,0.0793
586.00,0.0816
585.00,0.0840
584.00,0.0862
583.00,0.0881
582.00,0.0896
581.00,0.0908
580.00,0.0916
579.00,0.0922
578.00,0.0927
577.00,0.0930
576.00,0.0933
575.00,0.0935
574.00,0.0937
573.00,0.0937
572.00,0.0936
571.00,0.0934
570.00,0.0930
569.00,0.0924
568.00,0.0918
567.00,0.0912
566.00,0.0906
565.00,0.0900
564.00,0.0892
563.00,0.0884
562.00,0.0874
561.00,0.0865
560.00,0.0857
559.00,0.0851
558.00,0.0845
557.00,0.0840
556.00,0.0834
555.00,0.0826
554.00,0.0818
553.00,0.0811
552.00,0.0805
551.00,0.0801
550.00,0.0797
549.00,0.0793
548.00,0.0787
547.00,0.0780
546.00,0.0773
545.00,0.0766
544.00,0.0760
543.00,0.0754
542.00,0.0750
541.00,0.0748
540.00,0.0747
539.00,0.0747
538.00,0.0749
537.00,0.0753
536.00,0.0760
535.00,0.0767
534.00,0.0775
533.00,0.0781
532.00,0.0785
531.00,0.0787
530.00,0.0785
529.00,0.0782
528.00,0.0776
527.00,0.0770
526.00,0.0763
525.00,0.0756
524.00,0.0749
523.00,0.0743
522.00,0.0738
521.00,0.0735
520.00,0.0732
519.00,0.0729
518.00,0.0727
517.00,0.0725
516.00,0.0723
515.00,0.0720
514.00,0.0717
513.00,0.0715
512.00,0.0715
511.00,0.0719
510.00,0.0725
509.00,0.0731
508.00,0.0736
507.00,0.0738
506.00,0.0737
505.00,0.0734
504.00,0.0731
503.00,0.0728
502.00,0.0726
501.00,0.0725
500.00,0.0722
499.00,0.0720
498.00,0.0719
497.00,0.0719
496.00,0.0720
495.00,0.0720
494.00,0.0721
493.00,0.0722
492.00,0.0724
491.00,0.0727
490.00,0.0731
489.00,0.0734
488.00,0.0736
487.00,0.0738
486.00,0.0739
485.00,0.0739
484.00,0.0739
483.00,0.0737
482.00,0.0735
481.00,0.0733
480.00,0.0732
479.00,0.0732
478.00,0.0733
477.00,0.0733
476.00,0.0733
475.00,0.0735
474.00,0.0740
473.00,0.0745
472.00,0.0747
471.00,0.0745
470.00,0.0741
469.00,0.0738
468.00,0.0736
467.00,0.0736
466.00,0.0738
465.00,0.0740
464.00,0.0741
463.00,0.0740
462.00,0.0738
461.00,0.0736
460.00,0.0734
459.00,0.0730
458.00,0.0726
457.00,0.0721
456.00,0.0717
455.00,0.0714
454.00,0.0712
453.00,0.0711
452.00,0.0709
451.00,0.0706
450.00,0.0702
449.00,0.0697
448.00,0.0694
447.00,0.0692
446.00,0.0691
445.00,0.0690
444.00,0.0687
443.00,0.0684
442.00,0.0682
441.00,0.0680
440.00,0.0677
439.00,0.0673
438.00,0.0670
437.00,0.0664
436.00,0.0654
435.00,0.0643
434.00,0.0638
433.00,0.0637
432.00,0.0637
431.00,0.0635
430.00,0.0632
429.00,0.0632
428.00,0.0634
427.00,0.0635
426.00,0.0633
425.00,0.0629
424.00,0.0624
423.00,0.0622
422.00,0.0622
421.00,0.0624
420.00,0.0630
419.00,0.0640
418.00,0.0652
417.00,0.0655
416.00,0.0650
415.00,0.0644
414.00,0.0643
413.00,0.0646
412.00,0.0650
411.00,0.0649
410.00,0.0644
409.00,0.0636
408.00,0.0631
407.00,0.0630
406.00,0.0629
405.00,0.0626
404.00,0.0619
403.00,0.0614
402.00,0.0612
401.00,0.0609
400.00,0.0603
