Created as New Dataset,Sample 870 By YargerLab Date Monday, July 21 2025
cm-1,A
4000.00,0.0039
3999.00,0.0039
3998.00,0.0039
3997.00,0.0039
3996.00,0.0039
3995.00,0.0039
3994.00,0.0039
3993.00,0.0039
3992.00,0.0039
3991.00,0.0039
3990.00,0.0039
3989.00,0.0039
3988.00,0.0039
3987.00,0.0039
3986.00,0.0039
3985.00,0.0039
3984.00,0.0039
3983.00,0.0039
3982.00,0.0039
3981.00,0.0039
3980.00,0.0039
3979.00,0.0039
3978.00,0.0039
3977.00,0.0039
3976.00,0.0039
3975.00,0.0039
3974.00,0.0039
3973.00,0.0039
3972.00,0.0039
3971.00,0.0039
3970.00,0.0040
3969.00,0.0040
3968.00,0.0040
3967.00,0.0040
3966.00,0.0040
3965.00,0.0040
3964.00,0.0040
3963.00,0.0040
3962.00,0.0040
3961.00,0.0040
3960.00,0.0040
3959.00,0.0040
3958.00,0.0040
3957.00,0.0040
3956.00,0.0040
3955.00,0.0040
3954.00,0.0039
3953.00,0.0039
3952.00,0.0039
3951.00,0.0040
3950.00,0.0040
3949.00,0.0040
3948.00,0.0040
3947.00,0.0040
3946.00,0.0039
3945.00,0.0039
3944.00,0.0039
3943.00,0.0039
3942.00,0.0039
3941.00,0.0039
3940.00,0.0039
3939.00,0.0039
3938.00,0.0039
3937.00,0.0039
3936.00,0.0039
3935.00,0.0040
3934.00,0.0040
3933.00,0.0040
3932.00,0.0040
3931.00,0.0040
3930.00,0.0040
3929.00,0.0040
3928.00,0.0040
3927.00,0.0040
3926.00,0.0040
3925.00,0.0040
3924.00,0.0040
3923.00,0.0040
3922.00,0.0040
3921.00,0.0040
3920.00,0.0040
3919.00,0.0040
3918.00,0.0040
3917.00,0.0040
3916.00,0.0040
3915.00,0.0040
3914.00,0.0040
3913.00,0.0040
3912.00,0.0040
3911.00,0.0040
3910.00,0.0040
3909.00,0.0040
3908.00,0.0040
3907.00,0.0040
3906.00,0.0040
3905.00,0.0040
3904.00,0.0040
3903.00,0.0040
3902.00,0.0039
3901.00,0.0039
3900.00,0.0039
3899.00,0.0039
3898.00,0.0039
3897.00,0.0039
3896.00,0.0039
3895.00,0.0039
3894.00,0.0039
3893.00,0.0039
3892.00,0.0038
3891.00,0.0038
3890.00,0.0038
3889.00,0.0038
3888.00,0.0038
3887.00,0.0038
3886.00,0.0038
3885.00,0.0038
3884.00,0.0038
3883.00,0.0038
3882.00,0.0038
3881.00,0.0038
3880.00,0.0038
3879.00,0.0039
3878.00,0.0039
3877.00,0.0039
3876.00,0.0038
3875.00,0.0038
3874.00,0.0039
3873.00,0.0039
3872.00,0.0039
3871.00,0.0038
3870.00,0.0038
3869.00,0.0038
3868.00,0.0039
3867.00,0.0038
3866.00,0.0038
3865.00,0.0038
3864.00,0.0038
3863.00,0.0038
3862.00,0.0038
3861.00,0.0038
3860.00,0.0038
3859.00,0.0039
3858.00,0.0039
3857.00,0.0039
3856.00,0.0038
3855.00,0.0038
3854.00,0.0037
3853.00,0.0037
3852.00,0.0037
3851.00,0.0037
3850.00,0.0037
3849.00,0.0037
3848.00,0.0037
3847.00,0.0038
3846.00,0.0038
3845.00,0.0038
3844.00,0.0038
3843.00,0.0038
3842.00,0.0038
3841.00,0.0038
3840.00,0.0038
3839.00,0.0037
3838.00,0.0037
3837.00,0.0037
3836.00,0.0037
3835.00,0.0037
3834.00,0.0037
3833.00,0.0037
3832.00,0.0037
3831.00,0.0038
3830.00,0.0038
3829.00,0.0038
3828.00,0.0038
3827.00,0.0038
3826.00,0.0038
3825.00,0.0038
3824.00,0.0038
3823.00,0.0037
3822.00,0.0037
3821.00,0.0037
3820.00,0.0037
3819.00,0.0037
3818.00,0.0037
3817.00,0.0037
3816.00,0.0038
3815.00,0.0038
3814.00,0.0038
3813.00,0.0038
3812.00,0.0038
3811.00,0.0038
3810.00,0.0038
3809.00,0.0038
3808.00,0.0038
3807.00,0.0038
3806.00,0.0038
3805.00,0.0038
3804.00,0.0038
3803.00,0.0037
3802.00,0.0037
3801.00,0.0037
3800.00,0.0037
3799.00,0.0037
3798.00,0.0037
3797.00,0.0037
3796.00,0.0037
3795.00,0.0038
3794.00,0.0038
3793.00,0.0038
3792.00,0.0038
3791.00,0.0038
3790.00,0.0038
3789.00,0.0038
3788.00,0.0038
3787.00,0.0038
3786.00,0.0038
3785.00,0.0038
3784.00,0.0038
3783.00,0.0038
3782.00,0.0038
3781.00,0.0038
3780.00,0.0038
3779.00,0.0038
3778.00,0.0038
3777.00,0.0038
3776.00,0.0038
3775.00,0.0038
3774.00,0.0038
3773.00,0.0038
3772.00,0.0038
3771.00,0.0038
3770.00,0.0038
3769.00,0.0038
3768.00,0.0038
3767.00,0.0038
3766.00,0.0038
3765.00,0.0038
3764.00,0.0038
3763.00,0.0038
3762.00,0.0038
3761.00,0.0038
3760.00,0.0038
3759.00,0.0038
3758.00,0.0038
3757.00,0.0037
3756.00,0.0037
3755.00,0.0037
3754.00,0.0037
3753.00,0.0037
3752.00,0.0037
3751.00,0.0037
3750.00,0.0037
3749.00,0.0037
3748.00,0.0037
3747.00,0.0037
3746.00,0.0037
3745.00,0.0037
3744.00,0.0037
3743.00,0.0037
3742.00,0.0037
3741.00,0.0036
3740.00,0.0037
3739.00,0.0037
3738.00,0.0037
3737.00,0.0037
3736.00,0.0037
3735.00,0.0037
3734.00,0.0037
3733.00,0.0037
3732.00,0.0036
3731.00,0.0036
3730.00,0.0036
3729.00,0.0036
3728.00,0.0036
3727.00,0.0036
3726.00,0.0036
3725.00,0.0036
3724.00,0.0035
3723.00,0.0035
3722.00,0.0036
3721.00,0.0036
3720.00,0.0036
3719.00,0.0036
3718.00,0.0035
3717.00,0.0036
3716.00,0.0036
3715.00,0.0036
3714.00,0.0036
3713.00,0.0036
3712.00,0.0036
3711.00,0.0036
3710.00,0.0036
3709.00,0.0036
3708.00,0.0036
3707.00,0.0036
3706.00,0.0036
3705.00,0.0036
3704.00,0.0035
3703.00,0.0035
3702.00,0.0035
3701.00,0.0035
3700.00,0.0035
3699.00,0.0035
3698.00,0.0035
3697.00,0.0035
3696.00,0.0036
3695.00,0.0036
3694.00,0.0036
3693.00,0.0036
3692.00,0.0036
3691.00,0.0036
3690.00,0.0035
3689.00,0.0035
3688.00,0.0035
3687.00,0.0035
3686.00,0.0035
3685.00,0.0035
3684.00,0.0035
3683.00,0.0036
3682.00,0.0036
3681.00,0.0036
3680.00,0.0037
3679.00,0.0037
3678.00,0.0037
3677.00,0.0036
3676.00,0.0035
3675.00,0.0035
3674.00,0.0036
3673.00,0.0035
3672.00,0.0035
3671.00,0.0035
3670.00,0.0035
3669.00,0.0036
3668.00,0.0036
3667.00,0.0035
3666.00,0.0036
3665.00,0.0036
3664.00,0.0036
3663.00,0.0037
3662.00,0.0037
3661.00,0.0037
3660.00,0.0037
3659.00,0.0037
3658.00,0.0037
3657.00,0.0037
3656.00,0.0037
3655.00,0.0037
3654.00,0.0037
3653.00,0.0037
3652.00,0.0037
3651.00,0.0037
3650.00,0.0037
3649.00,0.0038
3648.00,0.0038
3647.00,0.0038
3646.00,0.0037
3645.00,0.0037
3644.00,0.0037
3643.00,0.0037
3642.00,0.0037
3641.00,0.0038
3640.00,0.0038
3639.00,0.0038
3638.00,0.0038
3637.00,0.0038
3636.00,0.0038
3635.00,0.0038
3634.00,0.0038
3633.00,0.0039
3632.00,0.0039
3631.00,0.0039
3630.00,0.0039
3629.00,0.0039
3628.00,0.0039
3627.00,0.0040
3626.00,0.0040
3625.00,0.0040
3624.00,0.0040
3623.00,0.0040
3622.00,0.0040
3621.00,0.0040
3620.00,0.0040
3619.00,0.0040
3618.00,0.0041
3617.00,0.0042
3616.00,0.0042
3615.00,0.0043
3614.00,0.0043
3613.00,0.0044
3612.00,0.0044
3611.00,0.0044
3610.00,0.0044
3609.00,0.0044
3608.00,0.0045
3607.00,0.0045
3606.00,0.0045
3605.00,0.0045
3604.00,0.0046
3603.00,0.0046
3602.00,0.0046
3601.00,0.0046
3600.00,0.0047
3599.00,0.0047
3598.00,0.0047
3597.00,0.0047
3596.00,0.0047
3595.00,0.0047
3594.00,0.0048
3593.00,0.0048
3592.00,0.0049
3591.00,0.0049
3590.00,0.0050
3589.00,0.0050
3588.00,0.0050
3587.00,0.0050
3586.00,0.0051
3585.00,0.0051
3584.00,0.0052
3583.00,0.0052
3582.00,0.0053
3581.00,0.0054
3580.00,0.0054
3579.00,0.0055
3578.00,0.0055
3577.00,0.0056
3576.00,0.0057
3575.00,0.0057
3574.00,0.0058
3573.00,0.0058
3572.00,0.0059
3571.00,0.0059
3570.00,0.0060
3569.00,0.0060
3568.00,0.0060
3567.00,0.0061
3566.00,0.0062
3565.00,0.0062
3564.00,0.0063
3563.00,0.0064
3562.00,0.0065
3561.00,0.0067
3560.00,0.0068
3559.00,0.0069
3558.00,0.0070
3557.00,0.0071
3556.00,0.0072
3555.00,0.0073
3554.00,0.0074
3553.00,0.0075
3552.00,0.0077
3551.00,0.0078
3550.00,0.0079
3549.00,0.0081
3548.00,0.0082
3547.00,0.0084
3546.00,0.0086
3545.00,0.0088
3544.00,0.0091
3543.00,0.0093
3542.00,0.0096
3541.00,0.0099
3540.00,0.0102
3539.00,0.0105
3538.00,0.0109
3537.00,0.0114
3536.00,0.0119
3535.00,0.0125
3534.00,0.0131
3533.00,0.0139
3532.00,0.0148
3531.00,0.0158
3530.00,0.0170
3529.00,0.0185
3528.00,0.0200
3527.00,0.0217
3526.00,0.0233
3525.00,0.0249
3524.00,0.0264
3523.00,0.0276
3522.00,0.0286
3521.00,0.0292
3520.00,0.0295
3519.00,0.0294
3518.00,0.0290
3517.00,0.0284
3516.00,0.0276
3515.00,0.0267
3514.00,0.0256
3513.00,0.0246
3512.00,0.0235
3511.00,0.0225
3510.00,0.0216
3509.00,0.0208
3508.00,0.0200
3507.00,0.0194
3506.00,0.0189
3505.00,0.0185
3504.00,0.0181
3503.00,0.0178
3502.00,0.0176
3501.00,0.0174
3500.00,0.0173
3499.00,0.0172
3498.00,0.0172
3497.00,0.0172
3496.00,0.0172
3495.00,0.0173
3494.00,0.0173
3493.00,0.0174
3492.00,0.0175
3491.00,0.0177
3490.00,0.0178
3489.00,0.0180
3488.00,0.0181
3487.00,0.0183
3486.00,0.0185
3485.00,0.0187
3484.00,0.0189
3483.00,0.0191
3482.00,0.0193
3481.00,0.0196
3480.00,0.0199
3479.00,0.0201
3478.00,0.0204
3477.00,0.0207
3476.00,0.0210
3475.00,0.0213
3474.00,0.0216
3473.00,0.0219
3472.00,0.0223
3471.00,0.0227
3470.00,0.0230
3469.00,0.0234
3468.00,0.0238
3467.00,0.0241
3466.00,0.0245
3465.00,0.0249
3464.00,0.0253
3463.00,0.0256
3462.00,0.0260
3461.00,0.0264
3460.00,0.0268
3459.00,0.0272
3458.00,0.0276
3457.00,0.0280
3456.00,0.0284
3455.00,0.0288
3454.00,0.0292
3453.00,0.0296
3452.00,0.0300
3451.00,0.0303
3450.00,0.0307
3449.00,0.0311
3448.00,0.0314
3447.00,0.0317
3446.00,0.0321
3445.00,0.0324
3444.00,0.0328
3443.00,0.0331
3442.00,0.0335
3441.00,0.0338
3440.00,0.0341
3439.00,0.0345
3438.00,0.0348
3437.00,0.0351
3436.00,0.0354
3435.00,0.0357
3434.00,0.0360
3433.00,0.0363
3432.00,0.0366
3431.00,0.0368
3430.00,0.0371
3429.00,0.0374
3428.00,0.0377
3427.00,0.0380
3426.00,0.0383
3425.00,0.0387
3424.00,0.0391
3423.00,0.0395
3422.00,0.0399
3421.00,0.0403
3420.00,0.0408
3419.00,0.0413
3418.00,0.0419
3417.00,0.0424
3416.00,0.0430
3415.00,0.0436
3414.00,0.0441
3413.00,0.0446
3412.00,0.0450
3411.00,0.0454
3410.00,0.0457
3409.00,0.0459
3408.00,0.0459
3407.00,0.0459
3406.00,0.0456
3405.00,0.0453
3404.00,0.0448
3403.00,0.0442
3402.00,0.0435
3401.00,0.0426
3400.00,0.0416
3399.00,0.0406
3398.00,0.0395
3397.00,0.0384
3396.00,0.0372
3395.00,0.0361
3394.00,0.0350
3393.00,0.0339
3392.00,0.0329
3391.00,0.0319
3390.00,0.0310
3389.00,0.0301
3388.00,0.0293
3387.00,0.0285
3386.00,0.0278
3385.00,0.0272
3384.00,0.0266
3383.00,0.0260
3382.00,0.0254
3381.00,0.0249
3380.00,0.0244
3379.00,0.0239
3378.00,0.0234
3377.00,0.0230
3376.00,0.0226
3375.00,0.0222
3374.00,0.0219
3373.00,0.0215
3372.00,0.0212
3371.00,0.0209
3370.00,0.0205
3369.00,0.0202
3368.00,0.0199
3367.00,0.0196
3366.00,0.0193
3365.00,0.0191
3364.00,0.0188
3363.00,0.0186
3362.00,0.0183
3361.00,0.0181
3360.00,0.0179
3359.00,0.0176
3358.00,0.0174
3357.00,0.0172
3356.00,0.0170
3355.00,0.0168
3354.00,0.0165
3353.00,0.0163
3352.00,0.0161
3351.00,0.0159
3350.00,0.0158
3349.00,0.0156
3348.00,0.0155
3347.00,0.0154
3346.00,0.0152
3345.00,0.0150
3344.00,0.0149
3343.00,0.0147
3342.00,0.0146
3341.00,0.0144
3340.00,0.0143
3339.00,0.0142
3338.00,0.0141
3337.00,0.0140
3336.00,0.0139
3335.00,0.0138
3334.00,0.0137
3333.00,0.0136
3332.00,0.0135
3331.00,0.0133
3330.00,0.0132
3329.00,0.0131
3328.00,0.0130
3327.00,0.0129
3326.00,0.0128
3325.00,0.0127
3324.00,0.0127
3323.00,0.0126
3322.00,0.0125
3321.00,0.0125
3320.00,0.0124
3319.00,0.0124
3318.00,0.0123
3317.00,0.0122
3316.00,0.0121
3315.00,0.0121
3314.00,0.0120
3313.00,0.0119
3312.00,0.0118
3311.00,0.0117
3310.00,0.0116
3309.00,0.0115
3308.00,0.0114
3307.00,0.0113
3306.00,0.0112
3305.00,0.0112
3304.00,0.0112
3303.00,0.0111
3302.00,0.0111
3301.00,0.0111
3300.00,0.0110
3299.00,0.0110
3298.00,0.0109
3297.00,0.0108
3296.00,0.0108
3295.00,0.0107
3294.00,0.0106
3293.00,0.0105
3292.00,0.0105
3291.00,0.0105
3290.00,0.0104
3289.00,0.0104
3288.00,0.0104
3287.00,0.0103
3286.00,0.0103
3285.00,0.0102
3284.00,0.0102
3283.00,0.0101
3282.00,0.0101
3281.00,0.0100
3280.00,0.0100
3279.00,0.0099
3278.00,0.0099
3277.00,0.0098
3276.00,0.0098
3275.00,0.0097
3274.00,0.0096
3273.00,0.0095
3272.00,0.0095
3271.00,0.0094
3270.00,0.0094
3269.00,0.0094
3268.00,0.0094
3267.00,0.0094
3266.00,0.0094
3265.00,0.0094
3264.00,0.0094
3263.00,0.0094
3262.00,0.0093
3261.00,0.0093
3260.00,0.0092
3259.00,0.0091
3258.00,0.0091
3257.00,0.0090
3256.00,0.0090
3255.00,0.0090
3254.00,0.0090
3253.00,0.0090
3252.00,0.0089
3251.00,0.0089
3250.00,0.0088
3249.00,0.0088
3248.00,0.0087
3247.00,0.0087
3246.00,0.0086
3245.00,0.0086
3244.00,0.0086
3243.00,0.0086
3242.00,0.0086
3241.00,0.0086
3240.00,0.0085
3239.00,0.0085
3238.00,0.0084
3237.00,0.0083
3236.00,0.0082
3235.00,0.0082
3234.00,0.0081
3233.00,0.0081
3232.00,0.0081
3231.00,0.0080
3230.00,0.0080
3229.00,0.0080
3228.00,0.0080
3227.00,0.0080
3226.00,0.0079
3225.00,0.0079
3224.00,0.0079
3223.00,0.0079
3222.00,0.0079
3221.00,0.0078
3220.00,0.0078
3219.00,0.0077
3218.00,0.0077
3217.00,0.0077
3216.00,0.0077
3215.00,0.0077
3214.00,0.0076
3213.00,0.0076
3212.00,0.0076
3211.00,0.0075
3210.00,0.0075
3209.00,0.0075
3208.00,0.0075
3207.00,0.0074
3206.00,0.0074
3205.00,0.0074
3204.00,0.0074
3203.00,0.0074
3202.00,0.0074
3201.00,0.0074
3200.00,0.0074
3199.00,0.0073
3198.00,0.0073
3197.00,0.0072
3196.00,0.0072
3195.00,0.0071
3194.00,0.0071
3193.00,0.0071
3192.00,0.0071
3191.00,0.0071
3190.00,0.0070
3189.00,0.0070
3188.00,0.0070
3187.00,0.0070
3186.00,0.0070
3185.00,0.0070
3184.00,0.0069
3183.00,0.0069
3182.00,0.0069
3181.00,0.0069
3180.00,0.0069
3179.00,0.0070
3178.00,0.0070
3177.00,0.0070
3176.00,0.0069
3175.00,0.0069
3174.00,0.0069
3173.00,0.0069
3172.00,0.0069
3171.00,0.0068
3170.00,0.0068
3169.00,0.0068
3168.00,0.0068
3167.00,0.0068
3166.00,0.0068
3165.00,0.0068
3164.00,0.0068
3163.00,0.0068
3162.00,0.0068
3161.00,0.0068
3160.00,0.0068
3159.00,0.0067
3158.00,0.0067
3157.00,0.0067
3156.00,0.0066
3155.00,0.0065
3154.00,0.0065
3153.00,0.0064
3152.00,0.0063
3151.00,0.0063
3150.00,0.0063
3149.00,0.0064
3148.00,0.0064
3147.00,0.0064
3146.00,0.0064
3145.00,0.0063
3144.00,0.0063
3143.00,0.0063
3142.00,0.0063
3141.00,0.0062
3140.00,0.0062
3139.00,0.0062
3138.00,0.0062
3137.00,0.0061
3136.00,0.0061
3135.00,0.0061
3134.00,0.0061
3133.00,0.0061
3132.00,0.0061
3131.00,0.0061
3130.00,0.0061
3129.00,0.0061
3128.00,0.0061
3127.00,0.0060
3126.00,0.0060
3125.00,0.0060
3124.00,0.0060
3123.00,0.0060
3122.00,0.0060
3121.00,0.0060
3120.00,0.0060
3119.00,0.0060
3118.00,0.0060
3117.00,0.0059
3116.00,0.0059
3115.00,0.0059
3114.00,0.0058
3113.00,0.0058
3112.00,0.0058
3111.00,0.0058
3110.00,0.0058
3109.00,0.0059
3108.00,0.0058
3107.00,0.0058
3106.00,0.0058
3105.00,0.0058
3104.00,0.0058
3103.00,0.0058
3102.00,0.0059
3101.00,0.0059
3100.00,0.0059
3099.00,0.0059
3098.00,0.0059
3097.00,0.0059
3096.00,0.0060
3095.00,0.0060
3094.00,0.0060
3093.00,0.0060
3092.00,0.0060
3091.00,0.0061
3090.00,0.0061
3089.00,0.0061
3088.00,0.0062
3087.00,0.0063
3086.00,0.0064
3085.00,0.0065
3084.00,0.0067
3083.00,0.0069
3082.00,0.0071
3081.00,0.0075
3080.00,0.0080
3079.00,0.0086
3078.00,0.0093
3077.00,0.0100
3076.00,0.0105
3075.00,0.0108
3074.00,0.0108
3073.00,0.0105
3072.00,0.0100
3071.00,0.0094
3070.00,0.0088
3069.00,0.0083
3068.00,0.0078
3067.00,0.0075
3066.00,0.0072
3065.00,0.0070
3064.00,0.0068
3063.00,0.0067
3062.00,0.0066
3061.00,0.0065
3060.00,0.0064
3059.00,0.0063
3058.00,0.0062
3057.00,0.0062
3056.00,0.0062
3055.00,0.0061
3054.00,0.0061
3053.00,0.0061
3052.00,0.0061
3051.00,0.0061
3050.00,0.0062
3049.00,0.0062
3048.00,0.0063
3047.00,0.0063
3046.00,0.0064
3045.00,0.0065
3044.00,0.0065
3043.00,0.0066
3042.00,0.0067
3041.00,0.0067
3040.00,0.0068
3039.00,0.0069
3038.00,0.0070
3037.00,0.0071
3036.00,0.0072
3035.00,0.0073
3034.00,0.0074
3033.00,0.0075
3032.00,0.0075
3031.00,0.0075
3030.00,0.0074
3029.00,0.0073
3028.00,0.0072
3027.00,0.0071
3026.00,0.0070
3025.00,0.0070
3024.00,0.0069
3023.00,0.0068
3022.00,0.0068
3021.00,0.0067
3020.00,0.0067
3019.00,0.0067
3018.00,0.0068
3017.00,0.0068
3016.00,0.0068
3015.00,0.0069
3014.00,0.0069
3013.00,0.0070
3012.00,0.0071
3011.00,0.0072
3010.00,0.0073
3009.00,0.0074
3008.00,0.0076
3007.00,0.0077
3006.00,0.0078
3005.00,0.0079
3004.00,0.0080
3003.00,0.0081
3002.00,0.0083
3001.00,0.0084
3000.00,0.0086
2999.00,0.0088
2998.00,0.0090
2997.00,0.0092
2996.00,0.0093
2995.00,0.0096
2994.00,0.0098
2993.00,0.0100
2992.00,0.0104
2991.00,0.0107
2990.00,0.0110
2989.00,0.0113
2988.00,0.0115
2987.00,0.0117
2986.00,0.0119
2985.00,0.0122
2984.00,0.0125
2983.00,0.0128
2982.00,0.0132
2981.00,0.0137
2980.00,0.0143
2979.00,0.0149
2978.00,0.0157
2977.00,0.0166
2976.00,0.0176
2975.00,0.0187
2974.00,0.0200
2973.00,0.0214
2972.00,0.0229
2971.00,0.0244
2970.00,0.0259
2969.00,0.0273
2968.00,0.0285
2967.00,0.0295
2966.00,0.0303
2965.00,0.0308
2964.00,0.0311
2963.00,0.0313
2962.00,0.0313
2961.00,0.0312
2960.00,0.0310
2959.00,0.0306
2958.00,0.0301
2957.00,0.0295
2956.00,0.0288
2955.00,0.0282
2954.00,0.0275
2953.00,0.0269
2952.00,0.0264
2951.00,0.0261
2950.00,0.0260
2949.00,0.0262
2948.00,0.0266
2947.00,0.0274
2946.00,0.0283
2945.00,0.0295
2944.00,0.0307
2943.00,0.0320
2942.00,0.0332
2941.00,0.0343
2940.00,0.0354
2939.00,0.0366
2938.00,0.0378
2937.00,0.0391
2936.00,0.0405
2935.00,0.0420
2934.00,0.0436
2933.00,0.0453
2932.00,0.0469
2931.00,0.0486
2930.00,0.0502
2929.00,0.0517
2928.00,0.0531
2927.00,0.0542
2926.00,0.0550
2925.00,0.0554
2924.00,0.0555
2923.00,0.0553
2922.00,0.0549
2921.00,0.0544
2920.00,0.0539
2919.00,0.0534
2918.00,0.0529
2917.00,0.0524
2916.00,0.0517
2915.00,0.0509
2914.00,0.0498
2913.00,0.0486
2912.00,0.0472
2911.00,0.0457
2910.00,0.0441
2909.00,0.0425
2908.00,0.0410
2907.00,0.0395
2906.00,0.0383
2905.00,0.0371
2904.00,0.0361
2903.00,0.0352
2902.00,0.0345
2901.00,0.0337
2900.00,0.0330
2899.00,0.0323
2898.00,0.0315
2897.00,0.0306
2896.00,0.0297
2895.00,0.0289
2894.00,0.0281
2893.00,0.0274
2892.00,0.0268
2891.00,0.0263
2890.00,0.0259
2889.00,0.0256
2888.00,0.0253
2887.00,0.0251
2886.00,0.0249
2885.00,0.0248
2884.00,0.0247
2883.00,0.0247
2882.00,0.0247
2881.00,0.0247
2880.00,0.0248
2879.00,0.0250
2878.00,0.0252
2877.00,0.0255
2876.00,0.0259
2875.00,0.0263
2874.00,0.0267
2873.00,0.0270
2872.00,0.0272
2871.00,0.0273
2870.00,0.0271
2869.00,0.0269
2868.00,0.0266
2867.00,0.0264
2866.00,0.0264
2865.00,0.0267
2864.00,0.0273
2863.00,0.0283
2862.00,0.0297
2861.00,0.0315
2860.00,0.0335
2859.00,0.0355
2858.00,0.0375
2857.00,0.0389
2856.00,0.0397
2855.00,0.0396
2854.00,0.0386
2853.00,0.0370
2852.00,0.0349
2851.00,0.0326
2850.00,0.0303
2849.00,0.0280
2848.00,0.0259
2847.00,0.0239
2846.00,0.0222
2845.00,0.0207
2844.00,0.0194
2843.00,0.0183
2842.00,0.0174
2841.00,0.0167
2840.00,0.0162
2839.00,0.0159
2838.00,0.0158
2837.00,0.0158
2836.00,0.0162
2835.00,0.0167
2834.00,0.0175
2833.00,0.0185
2832.00,0.0196
2831.00,0.0206
2830.00,0.0211
2829.00,0.0212
2828.00,0.0206
2827.00,0.0195
2826.00,0.0181
2825.00,0.0166
2824.00,0.0151
2823.00,0.0139
2822.00,0.0129
2821.00,0.0121
2820.00,0.0114
2819.00,0.0109
2818.00,0.0105
2817.00,0.0101
2816.00,0.0098
2815.00,0.0096
2814.00,0.0093
2813.00,0.0091
2812.00,0.0090
2811.00,0.0088
2810.00,0.0087
2809.00,0.0085
2808.00,0.0084
2807.00,0.0083
2806.00,0.0082
2805.00,0.0080
2804.00,0.0079
2803.00,0.0078
2802.00,0.0077
2801.00,0.0076
2800.00,0.0075
2799.00,0.0075
2798.00,0.0074
2797.00,0.0073
2796.00,0.0072
2795.00,0.0072
2794.00,0.0071
2793.00,0.0071
2792.00,0.0070
2791.00,0.0070
2790.00,0.0069
2789.00,0.0069
2788.00,0.0068
2787.00,0.0067
2786.00,0.0067
2785.00,0.0066
2784.00,0.0066
2783.00,0.0066
2782.00,0.0065
2781.00,0.0065
2780.00,0.0064
2779.00,0.0064
2778.00,0.0063
2777.00,0.0063
2776.00,0.0063
2775.00,0.0062
2774.00,0.0062
2773.00,0.0062
2772.00,0.0062
2771.00,0.0061
2770.00,0.0061
2769.00,0.0061
2768.00,0.0061
2767.00,0.0060
2766.00,0.0060
2765.00,0.0060
2764.00,0.0059
2763.00,0.0059
2762.00,0.0059
2761.00,0.0059
2760.00,0.0059
2759.00,0.0059
2758.00,0.0058
2757.00,0.0058
2756.00,0.0058
2755.00,0.0058
2754.00,0.0058
2753.00,0.0058
2752.00,0.0058
2751.00,0.0058
2750.00,0.0058
2749.00,0.0058
2748.00,0.0058
2747.00,0.0058
2746.00,0.0058
2745.00,0.0059
2744.00,0.0059
2743.00,0.0059
2742.00,0.0059
2741.00,0.0060
2740.00,0.0060
2739.00,0.0060
2738.00,0.0061
2737.00,0.0062
2736.00,0.0062
2735.00,0.0063
2734.00,0.0064
2733.00,0.0065
2732.00,0.0066
2731.00,0.0067
2730.00,0.0067
2729.00,0.0068
2728.00,0.0068
2727.00,0.0067
2726.00,0.0067
2725.00,0.0066
2724.00,0.0065
2723.00,0.0063
2722.00,0.0062
2721.00,0.0062
2720.00,0.0061
2719.00,0.0060
2718.00,0.0060
2717.00,0.0059
2716.00,0.0059
2715.00,0.0058
2714.00,0.0058
2713.00,0.0057
2712.00,0.0057
2711.00,0.0057
2710.00,0.0056
2709.00,0.0056
2708.00,0.0056
2707.00,0.0056
2706.00,0.0055
2705.00,0.0055
2704.00,0.0055
2703.00,0.0054
2702.00,0.0054
2701.00,0.0054
2700.00,0.0054
2699.00,0.0055
2698.00,0.0054
2697.00,0.0054
2696.00,0.0054
2695.00,0.0054
2694.00,0.0054
2693.00,0.0054
2692.00,0.0054
2691.00,0.0054
2690.00,0.0054
2689.00,0.0054
2688.00,0.0055
2687.00,0.0055
2686.00,0.0055
2685.00,0.0055
2684.00,0.0055
2683.00,0.0055
2682.00,0.0056
2681.00,0.0056
2680.00,0.0056
2679.00,0.0056
2678.00,0.0056
2677.00,0.0056
2676.00,0.0057
2675.00,0.0057
2674.00,0.0057
2673.00,0.0057
2672.00,0.0057
2671.00,0.0057
2670.00,0.0057
2669.00,0.0058
2668.00,0.0058
2667.00,0.0058
2666.00,0.0059
2665.00,0.0059
2664.00,0.0059
2663.00,0.0060
2662.00,0.0060
2661.00,0.0060
2660.00,0.0060
2659.00,0.0060
2658.00,0.0060
2657.00,0.0060
2656.00,0.0060
2655.00,0.0061
2654.00,0.0060
2653.00,0.0060
2652.00,0.0060
2651.00,0.0060
2650.00,0.0060
2649.00,0.0059
2648.00,0.0059
2647.00,0.0059
2646.00,0.0059
2645.00,0.0059
2644.00,0.0059
2643.00,0.0058
2642.00,0.0058
2641.00,0.0058
2640.00,0.0058
2639.00,0.0058
2638.00,0.0058
2637.00,0.0058
2636.00,0.0058
2635.00,0.0058
2634.00,0.0058
2633.00,0.0058
2632.00,0.0058
2631.00,0.0058
2630.00,0.0058
2629.00,0.0058
2628.00,0.0058
2627.00,0.0058
2626.00,0.0057
2625.00,0.0057
2624.00,0.0057
2623.00,0.0057
2622.00,0.0057
2621.00,0.0057
2620.00,0.0057
2619.00,0.0057
2618.00,0.0057
2617.00,0.0057
2616.00,0.0056
2615.00,0.0056
2614.00,0.0056
2613.00,0.0056
2612.00,0.0056
2611.00,0.0056
2610.00,0.0056
2609.00,0.0056
2608.00,0.0055
2607.00,0.0055
2606.00,0.0055
2605.00,0.0055
2604.00,0.0055
2603.00,0.0055
2602.00,0.0055
2601.00,0.0055
2600.00,0.0055
2599.00,0.0055
2598.00,0.0054
2597.00,0.0054
2596.00,0.0054
2595.00,0.0054
2594.00,0.0054
2593.00,0.0054
2592.00,0.0054
2591.00,0.0054
2590.00,0.0054
2589.00,0.0054
2588.00,0.0054
2587.00,0.0054
2586.00,0.0054
2585.00,0.0054
2584.00,0.0054
2583.00,0.0054
2582.00,0.0053
2581.00,0.0053
2580.00,0.0053
2579.00,0.0053
2578.00,0.0053
2577.00,0.0052
2576.00,0.0052
2575.00,0.0052
2574.00,0.0052
2573.00,0.0052
2572.00,0.0052
2571.00,0.0052
2570.00,0.0052
2569.00,0.0052
2568.00,0.0052
2567.00,0.0052
2566.00,0.0052
2565.00,0.0052
2564.00,0.0052
2563.00,0.0052
2562.00,0.0052
2561.00,0.0052
2560.00,0.0052
2559.00,0.0052
2558.00,0.0052
2557.00,0.0052
2556.00,0.0052
2555.00,0.0052
2554.00,0.0051
2553.00,0.0051
2552.00,0.0051
2551.00,0.0051
2550.00,0.0051
2549.00,0.0051
2548.00,0.0051
2547.00,0.0051
2546.00,0.0051
2545.00,0.0050
2544.00,0.0050
2543.00,0.0050
2542.00,0.0050
2541.00,0.0051
2540.00,0.0051
2539.00,0.0051
2538.00,0.0051
2537.00,0.0051
2536.00,0.0051
2535.00,0.0050
2534.00,0.0050
2533.00,0.0050
2532.00,0.0049
2531.00,0.0049
2530.00,0.0049
2529.00,0.0049
2528.00,0.0049
2527.00,0.0049
2526.00,0.0050
2525.00,0.0050
2524.00,0.0050
2523.00,0.0050
2522.00,0.0050
2521.00,0.0049
2520.00,0.0049
2519.00,0.0049
2518.00,0.0049
2517.00,0.0049
2516.00,0.0048
2515.00,0.0048
2514.00,0.0048
2513.00,0.0048
2512.00,0.0048
2511.00,0.0048
2510.00,0.0048
2509.00,0.0048
2508.00,0.0049
2507.00,0.0049
2506.00,0.0049
2505.00,0.0049
2504.00,0.0049
2503.00,0.0049
2502.00,0.0049
2501.00,0.0048
2500.00,0.0048
2499.00,0.0048
2498.00,0.0048
2497.00,0.0048
2496.00,0.0048
2495.00,0.0049
2494.00,0.0049
2493.00,0.0049
2492.00,0.0049
2491.00,0.0049
2490.00,0.0049
2489.00,0.0049
2488.00,0.0049
2487.00,0.0049
2486.00,0.0049
2485.00,0.0048
2484.00,0.0048
2483.00,0.0048
2482.00,0.0048
2481.00,0.0048
2480.00,0.0049
2479.00,0.0049
2478.00,0.0049
2477.00,0.0050
2476.00,0.0050
2475.00,0.0050
2474.00,0.0049
2473.00,0.0049
2472.00,0.0048
2471.00,0.0049
2470.00,0.0049
2469.00,0.0049
2468.00,0.0049
2467.00,0.0049
2466.00,0.0049
2465.00,0.0049
2464.00,0.0049
2463.00,0.0049
2462.00,0.0050
2461.00,0.0050
2460.00,0.0050
2459.00,0.0050
2458.00,0.0050
2457.00,0.0050
2456.00,0.0051
2455.00,0.0051
2454.00,0.0051
2453.00,0.0051
2452.00,0.0051
2451.00,0.0051
2450.00,0.0051
2449.00,0.0050
2448.00,0.0050
2447.00,0.0050
2446.00,0.0049
2445.00,0.0049
2444.00,0.0048
2443.00,0.0048
2442.00,0.0048
2441.00,0.0048
2440.00,0.0047
2439.00,0.0047
2438.00,0.0047
2437.00,0.0047
2436.00,0.0046
2435.00,0.0046
2434.00,0.0045
2433.00,0.0045
2432.00,0.0045
2431.00,0.0044
2430.00,0.0044
2429.00,0.0044
2428.00,0.0044
2427.00,0.0044
2426.00,0.0044
2425.00,0.0043
2424.00,0.0044
2423.00,0.0043
2422.00,0.0043
2421.00,0.0043
2420.00,0.0043
2419.00,0.0043
2418.00,0.0043
2417.00,0.0043
2416.00,0.0043
2415.00,0.0043
2414.00,0.0043
2413.00,0.0043
2412.00,0.0043
2411.00,0.0043
2410.00,0.0043
2409.00,0.0042
2408.00,0.0041
2407.00,0.0041
2406.00,0.0040
2405.00,0.0040
2404.00,0.0041
2403.00,0.0041
2402.00,0.0041
2401.00,0.0041
2400.00,0.0041
2399.00,0.0041
2398.00,0.0041
2397.00,0.0040
2396.00,0.0040
2395.00,0.0040
2394.00,0.0040
2393.00,0.0040
2392.00,0.0040
2391.00,0.0040
2390.00,0.0040
2389.00,0.0040
2388.00,0.0040
2387.00,0.0040
2386.00,0.0039
2385.00,0.0039
2384.00,0.0039
2383.00,0.0038
2382.00,0.0037
2381.00,0.0037
2380.00,0.0036
2379.00,0.0036
2378.00,0.0037
2377.00,0.0037
2376.00,0.0038
2375.00,0.0038
2374.00,0.0038
2373.00,0.0038
2372.00,0.0038
2371.00,0.0038
2370.00,0.0037
2369.00,0.0037
2368.00,0.0036
2367.00,0.0036
2366.00,0.0036
2365.00,0.0037
2364.00,0.0038
2363.00,0.0038
2362.00,0.0039
2361.00,0.0039
2360.00,0.0039
2359.00,0.0039
2358.00,0.0038
2357.00,0.0038
2356.00,0.0039
2355.00,0.0039
2354.00,0.0039
2353.00,0.0039
2352.00,0.0038
2351.00,0.0038
2350.00,0.0039
2349.00,0.0040
2348.00,0.0041
2347.00,0.0041
2346.00,0.0041
2345.00,0.0041
2344.00,0.0041
2343.00,0.0041
2342.00,0.0041
2341.00,0.0042
2340.00,0.0042
2339.00,0.0042
2338.00,0.0042
2337.00,0.0042
2336.00,0.0042
2335.00,0.0042
2334.00,0.0041
2333.00,0.0041
2332.00,0.0041
2331.00,0.0041
2330.00,0.0041
2329.00,0.0043
2328.00,0.0046
2327.00,0.0050
2326.00,0.0053
2325.00,0.0054
2324.00,0.0053
2323.00,0.0051
2322.00,0.0049
2321.00,0.0048
2320.00,0.0047
2319.00,0.0046
2318.00,0.0046
2317.00,0.0046
2316.00,0.0046
2315.00,0.0046
2314.00,0.0045
2313.00,0.0044
2312.00,0.0043
2311.00,0.0043
2310.00,0.0042
2309.00,0.0042
2308.00,0.0042
2307.00,0.0042
2306.00,0.0043
2305.00,0.0043
2304.00,0.0043
2303.00,0.0043
2302.00,0.0043
2301.00,0.0043
2300.00,0.0043
2299.00,0.0044
2298.00,0.0044
2297.00,0.0045
2296.00,0.0045
2295.00,0.0046
2294.00,0.0047
2293.00,0.0048
2292.00,0.0050
2291.00,0.0051
2290.00,0.0051
2289.00,0.0051
2288.00,0.0051
2287.00,0.0052
2286.00,0.0052
2285.00,0.0051
2284.00,0.0051
2283.00,0.0050
2282.00,0.0050
2281.00,0.0049
2280.00,0.0049
2279.00,0.0049
2278.00,0.0048
2277.00,0.0048
2276.00,0.0047
2275.00,0.0046
2274.00,0.0046
2273.00,0.0045
2272.00,0.0045
2271.00,0.0044
2270.00,0.0044
2269.00,0.0043
2268.00,0.0042
2267.00,0.0041
2266.00,0.0041
2265.00,0.0041
2264.00,0.0042
2263.00,0.0043
2262.00,0.0043
2261.00,0.0044
2260.00,0.0044
2259.00,0.0044
2258.00,0.0044
2257.00,0.0043
2256.00,0.0042
2255.00,0.0041
2254.00,0.0041
2253.00,0.0041
2252.00,0.0041
2251.00,0.0041
2250.00,0.0042
2249.00,0.0042
2248.00,0.0042
2247.00,0.0043
2246.00,0.0044
2245.00,0.0044
2244.00,0.0044
2243.00,0.0043
2242.00,0.0043
2241.00,0.0043
2240.00,0.0043
2239.00,0.0043
2238.00,0.0043
2237.00,0.0043
2236.00,0.0043
2235.00,0.0044
2234.00,0.0043
2233.00,0.0043
2232.00,0.0043
2231.00,0.0042
2230.00,0.0042
2229.00,0.0041
2228.00,0.0041
2227.00,0.0041
2226.00,0.0040
2225.00,0.0040
2224.00,0.0041
2223.00,0.0042
2222.00,0.0042
2221.00,0.0043
2220.00,0.0043
2219.00,0.0042
2218.00,0.0040
2217.00,0.0039
2216.00,0.0038
2215.00,0.0038
2214.00,0.0039
2213.00,0.0040
2212.00,0.0041
2211.00,0.0041
2210.00,0.0041
2209.00,0.0042
2208.00,0.0042
2207.00,0.0043
2206.00,0.0043
2205.00,0.0043
2204.00,0.0042
2203.00,0.0042
2202.00,0.0042
2201.00,0.0042
2200.00,0.0042
2199.00,0.0042
2198.00,0.0042
2197.00,0.0043
2196.00,0.0044
2195.00,0.0045
2194.00,0.0044
2193.00,0.0043
2192.00,0.0042
2191.00,0.0041
2190.00,0.0041
2189.00,0.0042
2188.00,0.0043
2187.00,0.0043
2186.00,0.0043
2185.00,0.0042
2184.00,0.0041
2183.00,0.0039
2182.00,0.0038
2181.00,0.0038
2180.00,0.0040
2179.00,0.0040
2178.00,0.0039
2177.00,0.0037
2176.00,0.0036
2175.00,0.0036
2174.00,0.0038
2173.00,0.0040
2172.00,0.0042
2171.00,0.0044
2170.00,0.0045
2169.00,0.0047
2168.00,0.0048
2167.00,0.0049
2166.00,0.0051
2165.00,0.0054
2164.00,0.0056
2163.00,0.0056
2162.00,0.0051
2161.00,0.0040
2160.00,0.0026
2159.00,0.0014
2158.00,0.0008
2157.00,0.0008
2156.00,0.0010
2155.00,0.0013
2154.00,0.0016
2153.00,0.0019
2152.00,0.0022
2151.00,0.0024
2150.00,0.0025
2149.00,0.0024
2148.00,0.0022
2147.00,0.0020
2146.00,0.0019
2145.00,0.0019
2144.00,0.0020
2143.00,0.0021
2142.00,0.0021
2141.00,0.0022
2140.00,0.0023
2139.00,0.0023
2138.00,0.0021
2137.00,0.0020
2136.00,0.0018
2135.00,0.0016
2134.00,0.0016
2133.00,0.0018
2132.00,0.0020
2131.00,0.0022
2130.00,0.0024
2129.00,0.0024
2128.00,0.0025
2127.00,0.0026
2126.00,0.0027
2125.00,0.0029
2124.00,0.0030
2123.00,0.0032
2122.00,0.0032
2121.00,0.0033
2120.00,0.0034
2119.00,0.0034
2118.00,0.0035
2117.00,0.0036
2116.00,0.0037
2115.00,0.0037
2114.00,0.0037
2113.00,0.0037
2112.00,0.0036
2111.00,0.0036
2110.00,0.0035
2109.00,0.0035
2108.00,0.0035
2107.00,0.0035
2106.00,0.0035
2105.00,0.0035
2104.00,0.0035
2103.00,0.0035
2102.00,0.0035
2101.00,0.0035
2100.00,0.0035
2099.00,0.0034
2098.00,0.0033
2097.00,0.0031
2096.00,0.0030
2095.00,0.0030
2094.00,0.0030
2093.00,0.0032
2092.00,0.0033
2091.00,0.0034
2090.00,0.0035
2089.00,0.0035
2088.00,0.0036
2087.00,0.0036
2086.00,0.0037
2085.00,0.0037
2084.00,0.0038
2083.00,0.0039
2082.00,0.0039
2081.00,0.0039
2080.00,0.0038
2079.00,0.0037
2078.00,0.0037
2077.00,0.0036
2076.00,0.0036
2075.00,0.0036
2074.00,0.0035
2073.00,0.0035
2072.00,0.0034
2071.00,0.0034
2070.00,0.0034
2069.00,0.0034
2068.00,0.0034
2067.00,0.0032
2066.00,0.0031
2065.00,0.0029
2064.00,0.0029
2063.00,0.0028
2062.00,0.0029
2061.00,0.0030
2060.00,0.0032
2059.00,0.0034
2058.00,0.0035
2057.00,0.0035
2056.00,0.0034
2055.00,0.0034
2054.00,0.0036
2053.00,0.0039
2052.00,0.0043
2051.00,0.0043
2050.00,0.0040
2049.00,0.0037
2048.00,0.0034
2047.00,0.0033
2046.00,0.0032
2045.00,0.0032
2044.00,0.0032
2043.00,0.0031
2042.00,0.0030
2041.00,0.0030
2040.00,0.0030
2039.00,0.0030
2038.00,0.0030
2037.00,0.0029
2036.00,0.0028
2035.00,0.0025
2034.00,0.0022
2033.00,0.0021
2032.00,0.0021
2031.00,0.0022
2030.00,0.0023
2029.00,0.0023
2028.00,0.0023
2027.00,0.0024
2026.00,0.0024
2025.00,0.0026
2024.00,0.0027
2023.00,0.0027
2022.00,0.0027
2021.00,0.0026
2020.00,0.0026
2019.00,0.0026
2018.00,0.0026
2017.00,0.0025
2016.00,0.0026
2015.00,0.0026
2014.00,0.0025
2013.00,0.0024
2012.00,0.0023
2011.00,0.0023
2010.00,0.0022
2009.00,0.0021
2008.00,0.0019
2007.00,0.0017
2006.00,0.0016
2005.00,0.0017
2004.00,0.0019
2003.00,0.0021
2002.00,0.0022
2001.00,0.0023
2000.00,0.0025
1999.00,0.0026
1998.00,0.0026
1997.00,0.0026
1996.00,0.0026
1995.00,0.0026
1994.00,0.0027
1993.00,0.0028
1992.00,0.0029
1991.00,0.0030
1990.00,0.0031
1989.00,0.0032
1988.00,0.0034
1987.00,0.0036
1986.00,0.0036
1985.00,0.0037
1984.00,0.0038
1983.00,0.0041
1982.00,0.0043
1981.00,0.0045
1980.00,0.0044
1979.00,0.0039
1978.00,0.0032
1977.00,0.0026
1976.00,0.0023
1975.00,0.0023
1974.00,0.0022
1973.00,0.0022
1972.00,0.0023
1971.00,0.0023
1970.00,0.0023
1969.00,0.0022
1968.00,0.0022
1967.00,0.0021
1966.00,0.0021
1965.00,0.0021
1964.00,0.0023
1963.00,0.0023
1962.00,0.0022
1961.00,0.0020
1960.00,0.0019
1959.00,0.0018
1958.00,0.0018
1957.00,0.0019
1956.00,0.0021
1955.00,0.0022
1954.00,0.0022
1953.00,0.0022
1952.00,0.0023
1951.00,0.0023
1950.00,0.0023
1949.00,0.0023
1948.00,0.0023
1947.00,0.0023
1946.00,0.0023
1945.00,0.0023
1944.00,0.0023
1943.00,0.0024
1942.00,0.0023
1941.00,0.0023
1940.00,0.0024
1939.00,0.0024
1938.00,0.0024
1937.00,0.0024
1936.00,0.0025
1935.00,0.0025
1934.00,0.0024
1933.00,0.0024
1932.00,0.0025
1931.00,0.0025
1930.00,0.0024
1929.00,0.0024
1928.00,0.0024
1927.00,0.0025
1926.00,0.0026
1925.00,0.0026
1924.00,0.0027
1923.00,0.0027
1922.00,0.0028
1921.00,0.0028
1920.00,0.0028
1919.00,0.0027
1918.00,0.0027
1917.00,0.0027
1916.00,0.0027
1915.00,0.0028
1914.00,0.0028
1913.00,0.0029
1912.00,0.0029
1911.00,0.0029
1910.00,0.0029
1909.00,0.0029
1908.00,0.0029
1907.00,0.0030
1906.00,0.0030
1905.00,0.0030
1904.00,0.0031
1903.00,0.0031
1902.00,0.0030
1901.00,0.0030
1900.00,0.0029
1899.00,0.0029
1898.00,0.0028
1897.00,0.0028
1896.00,0.0029
1895.00,0.0029
1894.00,0.0030
1893.00,0.0030
1892.00,0.0030
1891.00,0.0030
1890.00,0.0030
1889.00,0.0030
1888.00,0.0031
1887.00,0.0031
1886.00,0.0031
1885.00,0.0031
1884.00,0.0032
1883.00,0.0032
1882.00,0.0032
1881.00,0.0033
1880.00,0.0033
1879.00,0.0033
1878.00,0.0032
1877.00,0.0032
1876.00,0.0032
1875.00,0.0032
1874.00,0.0032
1873.00,0.0031
1872.00,0.0031
1871.00,0.0031
1870.00,0.0030
1869.00,0.0030
1868.00,0.0030
1867.00,0.0031
1866.00,0.0031
1865.00,0.0032
1864.00,0.0032
1863.00,0.0032
1862.00,0.0032
1861.00,0.0032
1860.00,0.0031
1859.00,0.0032
1858.00,0.0032
1857.00,0.0032
1856.00,0.0033
1855.00,0.0033
1854.00,0.0033
1853.00,0.0033
1852.00,0.0032
1851.00,0.0032
1850.00,0.0032
1849.00,0.0032
1848.00,0.0032
1847.00,0.0032
1846.00,0.0033
1845.00,0.0033
1844.00,0.0033
1843.00,0.0033
1842.00,0.0033
1841.00,0.0033
1840.00,0.0033
1839.00,0.0033
1838.00,0.0033
1837.00,0.0033
1836.00,0.0033
1835.00,0.0033
1834.00,0.0033
1833.00,0.0033
1832.00,0.0033
1831.00,0.0033
1830.00,0.0033
1829.00,0.0033
1828.00,0.0033
1827.00,0.0033
1826.00,0.0034
1825.00,0.0034
1824.00,0.0035
1823.00,0.0035
1822.00,0.0035
1821.00,0.0034
1820.00,0.0034
1819.00,0.0033
1818.00,0.0032
1817.00,0.0032
1816.00,0.0033
1815.00,0.0033
1814.00,0.0034
1813.00,0.0034
1812.00,0.0035
1811.00,0.0035
1810.00,0.0037
1809.00,0.0038
1808.00,0.0038
1807.00,0.0039
1806.00,0.0039
1805.00,0.0040
1804.00,0.0039
1803.00,0.0039
1802.00,0.0039
1801.00,0.0039
1800.00,0.0040
1799.00,0.0040
1798.00,0.0040
1797.00,0.0040
1796.00,0.0039
1795.00,0.0039
1794.00,0.0039
1793.00,0.0038
1792.00,0.0038
1791.00,0.0038
1790.00,0.0038
1789.00,0.0039
1788.00,0.0039
1787.00,0.0039
1786.00,0.0039
1785.00,0.0039
1784.00,0.0039
1783.00,0.0038
1782.00,0.0038
1781.00,0.0038
1780.00,0.0039
1779.00,0.0040
1778.00,0.0040
1777.00,0.0040
1776.00,0.0040
1775.00,0.0041
1774.00,0.0042
1773.00,0.0043
1772.00,0.0044
1771.00,0.0044
1770.00,0.0043
1769.00,0.0043
1768.00,0.0043
1767.00,0.0042
1766.00,0.0042
1765.00,0.0041
1764.00,0.0041
1763.00,0.0040
1762.00,0.0040
1761.00,0.0040
1760.00,0.0040
1759.00,0.0040
1758.00,0.0040
1757.00,0.0040
1756.00,0.0040
1755.00,0.0040
1754.00,0.0040
1753.00,0.0039
1752.00,0.0039
1751.00,0.0039
1750.00,0.0038
1749.00,0.0038
1748.00,0.0039
1747.00,0.0039
1746.00,0.0039
1745.00,0.0039
1744.00,0.0039
1743.00,0.0040
1742.00,0.0040
1741.00,0.0041
1740.00,0.0042
1739.00,0.0042
1738.00,0.0042
1737.00,0.0042
1736.00,0.0042
1735.00,0.0043
1734.00,0.0043
1733.00,0.0043
1732.00,0.0043
1731.00,0.0043
1730.00,0.0044
1729.00,0.0044
1728.00,0.0046
1727.00,0.0047
1726.00,0.0047
1725.00,0.0047
1724.00,0.0048
1723.00,0.0049
1722.00,0.0049
1721.00,0.0050
1720.00,0.0050
1719.00,0.0050
1718.00,0.0050
1717.00,0.0051
1716.00,0.0052
1715.00,0.0054
1714.00,0.0056
1713.00,0.0057
1712.00,0.0059
1711.00,0.0061
1710.00,0.0062
1709.00,0.0064
1708.00,0.0066
1707.00,0.0068
1706.00,0.0071
1705.00,0.0074
1704.00,0.0077
1703.00,0.0081
1702.00,0.0085
1701.00,0.0090
1700.00,0.0095
1699.00,0.0099
1698.00,0.0101
1697.00,0.0105
1696.00,0.0112
1695.00,0.0120
1694.00,0.0126
1693.00,0.0131
1692.00,0.0136
1691.00,0.0142
1690.00,0.0148
1689.00,0.0155
1688.00,0.0162
1687.00,0.0168
1686.00,0.0175
1685.00,0.0182
1684.00,0.0192
1683.00,0.0202
1682.00,0.0210
1681.00,0.0218
1680.00,0.0227
1679.00,0.0237
1678.00,0.0247
1677.00,0.0257
1676.00,0.0269
1675.00,0.0281
1674.00,0.0292
1673.00,0.0302
1672.00,0.0312
1671.00,0.0324
1670.00,0.0335
1669.00,0.0347
1668.00,0.0359
1667.00,0.0368
1666.00,0.0377
1665.00,0.0384
1664.00,0.0392
1663.00,0.0398
1662.00,0.0403
1661.00,0.0406
1660.00,0.0408
1659.00,0.0410
1658.00,0.0412
1657.00,0.0414
1656.00,0.0417
1655.00,0.0420
1654.00,0.0421
1653.00,0.0421
1652.00,0.0422
1651.00,0.0426
1650.00,0.0433
1649.00,0.0442
1648.00,0.0457
1647.00,0.0481
1646.00,0.0507
1645.00,0.0528
1644.00,0.0537
1643.00,0.0536
1642.00,0.0525
1641.00,0.0509
1640.00,0.0493
1639.00,0.0482
1638.00,0.0477
1637.00,0.0482
1636.00,0.0500
1635.00,0.0525
1634.00,0.0547
1633.00,0.0563
1632.00,0.0577
1631.00,0.0587
1630.00,0.0595
1629.00,0.0601
1628.00,0.0609
1627.00,0.0620
1626.00,0.0634
1625.00,0.0647
1624.00,0.0658
1623.00,0.0658
1622.00,0.0642
1621.00,0.0613
1620.00,0.0577
1619.00,0.0536
1618.00,0.0488
1617.00,0.0435
1616.00,0.0386
1615.00,0.0349
1614.00,0.0323
1613.00,0.0302
1612.00,0.0282
1611.00,0.0264
1610.00,0.0248
1609.00,0.0234
1608.00,0.0222
1607.00,0.0212
1606.00,0.0204
1605.00,0.0198
1604.00,0.0193
1603.00,0.0189
1602.00,0.0187
1601.00,0.0186
1600.00,0.0188
1599.00,0.0190
1598.00,0.0195
1597.00,0.0201
1596.00,0.0211
1595.00,0.0224
1594.00,0.0241
1593.00,0.0263
1592.00,0.0292
1591.00,0.0327
1590.00,0.0369
1589.00,0.0415
1588.00,0.0461
1587.00,0.0505
1586.00,0.0544
1585.00,0.0578
1584.00,0.0605
1583.00,0.0624
1582.00,0.0631
1581.00,0.0625
1580.00,0.0607
1579.00,0.0579
1578.00,0.0541
1577.00,0.0492
1576.00,0.0438
1575.00,0.0391
1574.00,0.0355
1573.00,0.0328
1572.00,0.0304
1571.00,0.0279
1570.00,0.0253
1569.00,0.0228
1568.00,0.0208
1567.00,0.0193
1566.00,0.0179
1565.00,0.0167
1564.00,0.0157
1563.00,0.0148
1562.00,0.0142
1561.00,0.0138
1560.00,0.0132
1559.00,0.0127
1558.00,0.0123
1557.00,0.0119
1556.00,0.0115
1555.00,0.0113
1554.00,0.0110
1553.00,0.0108
1552.00,0.0106
1551.00,0.0104
1550.00,0.0102
1549.00,0.0101
1548.00,0.0101
1547.00,0.0100
1546.00,0.0099
1545.00,0.0098
1544.00,0.0098
1543.00,0.0098
1542.00,0.0098
1541.00,0.0098
1540.00,0.0099
1539.00,0.0099
1538.00,0.0099
1537.00,0.0098
1536.00,0.0097
1535.00,0.0096
1534.00,0.0095
1533.00,0.0094
1532.00,0.0094
1531.00,0.0094
1530.00,0.0094
1529.00,0.0094
1528.00,0.0095
1527.00,0.0097
1526.00,0.0099
1525.00,0.0102
1524.00,0.0105
1523.00,0.0109
1522.00,0.0116
1521.00,0.0127
1520.00,0.0138
1519.00,0.0148
1518.00,0.0157
1517.00,0.0167
1516.00,0.0177
1515.00,0.0183
1514.00,0.0184
1513.00,0.0182
1512.00,0.0177
1511.00,0.0168
1510.00,0.0159
1509.00,0.0151
1508.00,0.0145
1507.00,0.0141
1506.00,0.0141
1505.00,0.0142
1504.00,0.0142
1503.00,0.0142
1502.00,0.0143
1501.00,0.0146
1500.00,0.0148
1499.00,0.0149
1498.00,0.0150
1497.00,0.0150
1496.00,0.0150
1495.00,0.0149
1494.00,0.0148
1493.00,0.0146
1492.00,0.0142
1491.00,0.0137
1490.00,0.0132
1489.00,0.0127
1488.00,0.0123
1487.00,0.0120
1486.00,0.0117
1485.00,0.0114
1484.00,0.0112
1483.00,0.0110
1482.00,0.0109
1481.00,0.0109
1480.00,0.0110
1479.00,0.0111
1478.00,0.0113
1477.00,0.0116
1476.00,0.0121
1475.00,0.0127
1474.00,0.0135
1473.00,0.0149
1472.00,0.0169
1471.00,0.0191
1470.00,0.0215
1469.00,0.0241
1468.00,0.0267
1467.00,0.0291
1466.00,0.0312
1465.00,0.0330
1464.00,0.0346
1463.00,0.0359
1462.00,0.0369
1461.00,0.0377
1460.00,0.0384
1459.00,0.0388
1458.00,0.0391
1457.00,0.0398
1456.00,0.0409
1455.00,0.0422
1454.00,0.0438
1453.00,0.0462
1452.00,0.0493
1451.00,0.0530
1450.00,0.0573
1449.00,0.0622
1448.00,0.0677
1447.00,0.0729
1446.00,0.0773
1445.00,0.0806
1444.00,0.0829
1443.00,0.0842
1442.00,0.0846
1441.00,0.0846
1440.00,0.0842
1439.00,0.0833
1438.00,0.0819
1437.00,0.0800
1436.00,0.0777
1435.00,0.0752
1434.00,0.0730
1433.00,0.0709
1432.00,0.0687
1431.00,0.0659
1430.00,0.0628
1429.00,0.0593
1428.00,0.0557
1427.00,0.0522
1426.00,0.0490
1425.00,0.0460
1424.00,0.0434
1423.00,0.0413
1422.00,0.0396
1421.00,0.0380
1420.00,0.0360
1419.00,0.0336
1418.00,0.0313
1417.00,0.0294
1416.00,0.0276
1415.00,0.0260
1414.00,0.0244
1413.00,0.0229
1412.00,0.0214
1411.00,0.0202
1410.00,0.0191
1409.00,0.0182
1408.00,0.0174
1407.00,0.0167
1406.00,0.0161
1405.00,0.0155
1404.00,0.0151
1403.00,0.0147
1402.00,0.0144
1401.00,0.0141
1400.00,0.0138
1399.00,0.0135
1398.00,0.0133
1397.00,0.0132
1396.00,0.0130
1395.00,0.0130
1394.00,0.0130
1393.00,0.0130
1392.00,0.0130
1391.00,0.0131
1390.00,0.0132
1389.00,0.0134
1388.00,0.0137
1387.00,0.0143
1386.00,0.0150
1385.00,0.0159
1384.00,0.0169
1383.00,0.0183
1382.00,0.0201
1381.00,0.0223
1380.00,0.0251
1379.00,0.0283
1378.00,0.0317
1377.00,0.0349
1376.00,0.0372
1375.00,0.0383
1374.00,0.0380
1373.00,0.0366
1372.00,0.0348
1371.00,0.0330
1370.00,0.0312
1369.00,0.0295
1368.00,0.0280
1367.00,0.0267
1366.00,0.0255
1365.00,0.0243
1364.00,0.0231
1363.00,0.0219
1362.00,0.0210
1361.00,0.0202
1360.00,0.0197
1359.00,0.0193
1358.00,0.0190
1357.00,0.0188
1356.00,0.0186
1355.00,0.0185
1354.00,0.0186
1353.00,0.0186
1352.00,0.0186
1351.00,0.0187
1350.00,0.0189
1349.00,0.0191
1348.00,0.0195
1347.00,0.0199
1346.00,0.0203
1345.00,0.0208
1344.00,0.0212
1343.00,0.0214
1342.00,0.0215
1341.00,0.0214
1340.00,0.0210
1339.00,0.0206
1338.00,0.0202
1337.00,0.0198
1336.00,0.0197
1335.00,0.0198
1334.00,0.0201
1333.00,0.0207
1332.00,0.0213
1331.00,0.0221
1330.00,0.0229
1329.00,0.0237
1328.00,0.0245
1327.00,0.0253
1326.00,0.0261
1325.00,0.0270
1324.00,0.0276
1323.00,0.0280
1322.00,0.0279
1321.00,0.0276
1320.00,0.0274
1319.00,0.0274
1318.00,0.0278
1317.00,0.0289
1316.00,0.0305
1315.00,0.0326
1314.00,0.0348
1313.00,0.0368
1312.00,0.0382
1311.00,0.0387
1310.00,0.0384
1309.00,0.0376
1308.00,0.0367
1307.00,0.0362
1306.00,0.0361
1305.00,0.0365
1304.00,0.0373
1303.00,0.0383
1302.00,0.0391
1301.00,0.0399
1300.00,0.0404
1299.00,0.0409
1298.00,0.0415
1297.00,0.0420
1296.00,0.0426
1295.00,0.0432
1294.00,0.0438
1293.00,0.0443
1292.00,0.0447
1291.00,0.0451
1290.00,0.0454
1289.00,0.0457
1288.00,0.0461
1287.00,0.0467
1286.00,0.0474
1285.00,0.0483
1284.00,0.0492
1283.00,0.0500
1282.00,0.0507
1281.00,0.0512
1280.00,0.0515
1279.00,0.0517
1278.00,0.0516
1277.00,0.0513
1276.00,0.0507
1275.00,0.0498
1274.00,0.0486
1273.00,0.0471
1272.00,0.0454
1271.00,0.0435
1270.00,0.0415
1269.00,0.0394
1268.00,0.0374
1267.00,0.0355
1266.00,0.0336
1265.00,0.0320
1264.00,0.0304
1263.00,0.0290
1262.00,0.0277
1261.00,0.0266
1260.00,0.0255
1259.00,0.0246
1258.00,0.0239
1257.00,0.0234
1256.00,0.0230
1255.00,0.0228
1254.00,0.0227
1253.00,0.0229
1252.00,0.0233
1251.00,0.0239
1250.00,0.0246
1249.00,0.0253
1248.00,0.0258
1247.00,0.0263
1246.00,0.0268
1245.00,0.0276
1244.00,0.0289
1243.00,0.0308
1242.00,0.0334
1241.00,0.0365
1240.00,0.0398
1239.00,0.0430
1238.00,0.0457
1237.00,0.0473
1236.00,0.0480
1235.00,0.0478
1234.00,0.0471
1233.00,0.0460
1232.00,0.0447
1231.00,0.0435
1230.00,0.0427
1229.00,0.0427
1228.00,0.0437
1227.00,0.0456
1226.00,0.0481
1225.00,0.0510
1224.00,0.0540
1223.00,0.0572
1222.00,0.0607
1221.00,0.0647
1220.00,0.0695
1219.00,0.0750
1218.00,0.0808
1217.00,0.0862
1216.00,0.0903
1215.00,0.0923
1214.00,0.0919
1213.00,0.0894
1212.00,0.0851
1211.00,0.0799
1210.00,0.0743
1209.00,0.0691
1208.00,0.0644
1207.00,0.0605
1206.00,0.0571
1205.00,0.0540
1204.00,0.0509
1203.00,0.0478
1202.00,0.0446
1201.00,0.0414
1200.00,0.0383
1199.00,0.0355
1198.00,0.0330
1197.00,0.0310
1196.00,0.0294
1195.00,0.0282
1194.00,0.0274
1193.00,0.0269
1192.00,0.0267
1191.00,0.0267
1190.00,0.0270
1189.00,0.0273
1188.00,0.0278
1187.00,0.0282
1186.00,0.0288
1185.00,0.0294
1184.00,0.0301
1183.00,0.0307
1182.00,0.0313
1181.00,0.0319
1180.00,0.0323
1179.00,0.0328
1178.00,0.0334
1177.00,0.0339
1176.00,0.0345
1175.00,0.0353
1174.00,0.0364
1173.00,0.0375
1172.00,0.0380
1171.00,0.0373
1170.00,0.0354
1169.00,0.0326
1168.00,0.0298
1167.00,0.0273
1166.00,0.0252
1165.00,0.0235
1164.00,0.0222
1163.00,0.0212
1162.00,0.0204
1161.00,0.0198
1160.00,0.0195
1159.00,0.0194
1158.00,0.0197
1157.00,0.0204
1156.00,0.0217
1155.00,0.0239
1154.00,0.0272
1153.00,0.0313
1152.00,0.0356
1151.00,0.0387
1150.00,0.0394
1149.00,0.0374
1148.00,0.0334
1147.00,0.0289
1146.00,0.0248
1145.00,0.0217
1144.00,0.0195
1143.00,0.0181
1142.00,0.0171
1141.00,0.0165
1140.00,0.0162
1139.00,0.0161
1138.00,0.0163
1137.00,0.0166
1136.00,0.0169
1135.00,0.0170
1134.00,0.0170
1133.00,0.0167
1132.00,0.0161
1131.00,0.0155
1130.00,0.0148
1129.00,0.0143
1128.00,0.0138
1127.00,0.0134
1126.00,0.0130
1125.00,0.0128
1124.00,0.0126
1123.00,0.0124
1122.00,0.0123
1121.00,0.0123
1120.00,0.0122
1119.00,0.0123
1118.00,0.0124
1117.00,0.0125
1116.00,0.0126
1115.00,0.0128
1114.00,0.0130
1113.00,0.0132
1112.00,0.0134
1111.00,0.0136
1110.00,0.0138
1109.00,0.0142
1108.00,0.0146
1107.00,0.0151
1106.00,0.0156
1105.00,0.0162
1104.00,0.0169
1103.00,0.0176
1102.00,0.0184
1101.00,0.0193
1100.00,0.0201
1099.00,0.0206
1098.00,0.0205
1097.00,0.0199
1096.00,0.0189
1095.00,0.0179
1094.00,0.0170
1093.00,0.0162
1092.00,0.0157
1091.00,0.0152
1090.00,0.0148
1089.00,0.0145
1088.00,0.0144
1087.00,0.0144
1086.00,0.0147
1085.00,0.0153
1084.00,0.0161
1083.00,0.0172
1082.00,0.0184
1081.00,0.0195
1080.00,0.0203
1079.00,0.0206
1078.00,0.0203
1077.00,0.0196
1076.00,0.0187
1075.00,0.0178
1074.00,0.0170
1073.00,0.0163
1072.00,0.0158
1071.00,0.0154
1070.00,0.0150
1069.00,0.0147
1068.00,0.0145
1067.00,0.0144
1066.00,0.0144
1065.00,0.0144
1064.00,0.0146
1063.00,0.0150
1062.00,0.0155
1061.00,0.0162
1060.00,0.0172
1059.00,0.0187
1058.00,0.0209
1057.00,0.0239
1056.00,0.0278
1055.00,0.0322
1054.00,0.0364
1053.00,0.0396
1052.00,0.0413
1051.00,0.0416
1050.00,0.0406
1049.00,0.0385
1048.00,0.0356
1047.00,0.0322
1046.00,0.0291
1045.00,0.0267
1044.00,0.0252
1043.00,0.0246
1042.00,0.0246
1041.00,0.0251
1040.00,0.0260
1039.00,0.0273
1038.00,0.0291
1037.00,0.0316
1036.00,0.0349
1035.00,0.0389
1034.00,0.0431
1033.00,0.0467
1032.00,0.0488
1031.00,0.0492
1030.00,0.0480
1029.00,0.0458
1028.00,0.0435
1027.00,0.0416
1026.00,0.0405
1025.00,0.0407
1024.00,0.0421
1023.00,0.0448
1022.00,0.0485
1021.00,0.0524
1020.00,0.0554
1019.00,0.0567
1018.00,0.0559
1017.00,0.0534
1016.00,0.0499
1015.00,0.0461
1014.00,0.0426
1013.00,0.0394
1012.00,0.0367
1011.00,0.0347
1010.00,0.0334
1009.00,0.0329
1008.00,0.0328
1007.00,0.0333
1006.00,0.0343
1005.00,0.0358
1004.00,0.0373
1003.00,0.0384
1002.00,0.0390
1001.00,0.0386
1000.00,0.0373
999.00,0.0351
998.00,0.0323
997.00,0.0294
996.00,0.0267
995.00,0.0247
994.00,0.0232
993.00,0.0223
992.00,0.0219
991.00,0.0220
990.00,0.0224
989.00,0.0231
988.00,0.0238
987.00,0.0244
986.00,0.0248
985.00,0.0249
984.00,0.0246
983.00,0.0238
982.00,0.0227
981.00,0.0215
980.00,0.0205
979.00,0.0198
978.00,0.0194
977.00,0.0190
976.00,0.0187
975.00,0.0184
974.00,0.0180
973.00,0.0179
972.00,0.0179
971.00,0.0182
970.00,0.0188
969.00,0.0195
968.00,0.0203
967.00,0.0212
966.00,0.0222
965.00,0.0233
964.00,0.0246
963.00,0.0259
962.00,0.0269
961.00,0.0272
960.00,0.0267
959.00,0.0253
958.00,0.0234
957.00,0.0214
956.00,0.0196
955.00,0.0180
954.00,0.0168
953.00,0.0159
952.00,0.0151
951.00,0.0146
950.00,0.0141
949.00,0.0138
948.00,0.0136
947.00,0.0134
946.00,0.0132
945.00,0.0131
944.00,0.0130
943.00,0.0129
942.00,0.0129
941.00,0.0129
940.00,0.0129
939.00,0.0129
938.00,0.0130
937.00,0.0132
936.00,0.0134
935.00,0.0136
934.00,0.0138
933.00,0.0141
932.00,0.0143
931.00,0.0145
930.00,0.0147
929.00,0.0149
928.00,0.0149
927.00,0.0148
926.00,0.0147
925.00,0.0146
924.00,0.0145
923.00,0.0144
922.00,0.0144
921.00,0.0144
920.00,0.0146
919.00,0.0150
918.00,0.0155
917.00,0.0161
916.00,0.0166
915.00,0.0169
914.00,0.0170
913.00,0.0169
912.00,0.0167
911.00,0.0167
910.00,0.0169
909.00,0.0174
908.00,0.0183
907.00,0.0195
906.00,0.0212
905.00,0.0231
904.00,0.0253
903.00,0.0280
902.00,0.0313
901.00,0.0354
900.00,0.0406
899.00,0.0465
898.00,0.0522
897.00,0.0565
896.00,0.0580
895.00,0.0567
894.00,0.0532
893.00,0.0488
892.00,0.0445
891.00,0.0411
890.00,0.0390
889.00,0.0387
888.00,0.0406
887.00,0.0449
886.00,0.0512
885.00,0.0581
884.00,0.0636
883.00,0.0657
882.00,0.0635
881.00,0.0578
880.00,0.0505
879.00,0.0435
878.00,0.0378
877.00,0.0335
876.00,0.0307
875.00,0.0291
874.00,0.0284
873.00,0.0286
872.00,0.0294
871.00,0.0306
870.00,0.0315
869.00,0.0317
868.00,0.0312
867.00,0.0306
866.00,0.0305
865.00,0.0314
864.00,0.0332
863.00,0.0352
862.00,0.0369
861.00,0.0378
860.00,0.0378
859.00,0.0376
858.00,0.0375
857.00,0.0380
856.00,0.0390
855.00,0.0402
854.00,0.0415
853.00,0.0427
852.00,0.0437
851.00,0.0444
850.00,0.0446
849.00,0.0441
848.00,0.0429
847.00,0.0415
846.00,0.0402
845.00,0.0393
844.00,0.0386
843.00,0.0379
842.00,0.0372
841.00,0.0363
840.00,0.0354
839.00,0.0348
838.00,0.0346
837.00,0.0348
836.00,0.0353
835.00,0.0361
834.00,0.0371
833.00,0.0383
832.00,0.0396
831.00,0.0408
830.00,0.0418
829.00,0.0425
828.00,0.0427
827.00,0.0423
826.00,0.0413
825.00,0.0396
824.00,0.0374
823.00,0.0349
822.00,0.0323
821.00,0.0298
820.00,0.0275
819.00,0.0254
818.00,0.0237
817.00,0.0224
816.00,0.0215
815.00,0.0208
814.00,0.0203
813.00,0.0198
812.00,0.0195
811.00,0.0195
810.00,0.0200
809.00,0.0212
808.00,0.0237
807.00,0.0272
806.00,0.0311
805.00,0.0342
804.00,0.0354
803.00,0.0343
802.00,0.0317
801.00,0.0287
800.00,0.0259
799.00,0.0236
798.00,0.0219
797.00,0.0207
796.00,0.0198
795.00,0.0193
794.00,0.0190
793.00,0.0189
792.00,0.0188
791.00,0.0186
790.00,0.0185
789.00,0.0183
788.00,0.0183
787.00,0.0184
786.00,0.0185
785.00,0.0185
784.00,0.0183
783.00,0.0178
782.00,0.0174
781.00,0.0171
780.00,0.0170
779.00,0.0171
778.00,0.0172
777.00,0.0172
776.00,0.0171
775.00,0.0170
774.00,0.0170
773.00,0.0171
772.00,0.0173
771.00,0.0175
770.00,0.0176
769.00,0.0175
768.00,0.0173
767.00,0.0169
766.00,0.0165
765.00,0.0161
764.00,0.0159
763.00,0.0157
762.00,0.0157
761.00,0.0157
760.00,0.0158
759.00,0.0161
758.00,0.0164
757.00,0.0169
756.00,0.0176
755.00,0.0185
754.00,0.0196
753.00,0.0208
752.00,0.0219
751.00,0.0227
750.00,0.0233
749.00,0.0237
748.00,0.0238
747.00,0.0233
746.00,0.0224
745.00,0.0214
744.00,0.0204
743.00,0.0198
742.00,0.0193
741.00,0.0191
740.00,0.0190
739.00,0.0191
738.00,0.0192
737.00,0.0195
736.00,0.0200
735.00,0.0206
734.00,0.0215
733.00,0.0224
732.00,0.0234
731.00,0.0239
730.00,0.0238
729.00,0.0231
728.00,0.0222
727.00,0.0213
726.00,0.0207
725.00,0.0202
724.00,0.0199
723.00,0.0195
722.00,0.0193
721.00,0.0191
720.00,0.0189
719.00,0.0187
718.00,0.0183
717.00,0.0179
716.00,0.0175
715.00,0.0172
714.00,0.0170
713.00,0.0170
712.00,0.0170
711.00,0.0170
710.00,0.0169
709.00,0.0167
708.00,0.0165
707.00,0.0163
706.00,0.0161
705.00,0.0160
704.00,0.0159
703.00,0.0159
702.00,0.0159
701.00,0.0159
700.00,0.0159
699.00,0.0160
698.00,0.0161
697.00,0.0162
696.00,0.0163
695.00,0.0164
694.00,0.0165
693.00,0.0166
692.00,0.0168
691.00,0.0169
690.00,0.0170
689.00,0.0172
688.00,0.0173
687.00,0.0175
686.00,0.0178
685.00,0.0180
684.00,0.0183
683.00,0.0185
682.00,0.0186
681.00,0.0188
680.00,0.0191
679.00,0.0195
678.00,0.0199
677.00,0.0203
676.00,0.0207
675.00,0.0212
674.00,0.0218
673.00,0.0225
672.00,0.0233
671.00,0.0241
670.00,0.0250
669.00,0.0259
668.00,0.0268
667.00,0.0276
666.00,0.0281
665.00,0.0285
664.00,0.0289
663.00,0.0294
662.00,0.0297
661.00,0.0300
660.00,0.0303
659.00,0.0305
658.00,0.0308
657.00,0.0309
656.00,0.0311
655.00,0.0311
654.00,0.0313
653.00,0.0315
652.00,0.0320
651.00,0.0327
650.00,0.0333
649.00,0.0337
648.00,0.0337
647.00,0.0332
646.00,0.0325
645.00,0.0316
644.00,0.0307
643.00,0.0298
642.00,0.0291
641.00,0.0284
640.00,0.0280
639.00,0.0276
638.00,0.0274
637.00,0.0272
636.00,0.0271
635.00,0.0271
634.00,0.0272
633.00,0.0273
632.00,0.0274
631.00,0.0276
630.00,0.0278
629.00,0.0281
628.00,0.0284
627.00,0.0287
626.00,0.0290
625.00,0.0293
624.00,0.0295
623.00,0.0294
622.00,0.0291
621.00,0.0286
620.00,0.0279
619.00,0.0272
618.00,0.0264
617.00,0.0259
616.00,0.0258
615.00,0.0262
614.00,0.0273
613.00,0.0289
612.00,0.0305
611.00,0.0316
610.00,0.0320
609.00,0.0318
608.00,0.0315
607.00,0.0314
606.00,0.0315
605.00,0.0319
604.00,0.0324
603.00,0.0329
602.00,0.0333
601.00,0.0338
600.00,0.0345
599.00,0.0351
598.00,0.0354
597.00,0.0356
596.00,0.0356
595.00,0.0358
594.00,0.0363
593.00,0.0370
592.00,0.0381
591.00,0.0394
590.00,0.0409
589.00,0.0424
588.00,0.0439
587.00,0.0449
586.00,0.0454
585.00,0.0453
584.00,0.0448
583.00,0.0439
582.00,0.0428
581.00,0.0418
580.00,0.0408
579.00,0.0401
578.00,0.0395
577.00,0.0391
576.00,0.0389
575.00,0.0389
574.00,0.0391
573.00,0.0394
572.00,0.0397
571.00,0.0401
570.00,0.0404
569.00,0.0406
568.00,0.0407
567.00,0.0407
566.00,0.0407
565.00,0.0408
564.00,0.0409
563.00,0.0409
562.00,0.0409
561.00,0.0408
560.00,0.0407
559.00,0.0406
558.00,0.0405
557.00,0.0405
556.00,0.0407
555.00,0.0409
554.00,0.0413
553.00,0.0417
552.00,0.0423
551.00,0.0429
550.00,0.0435
549.00,0.0439
548.00,0.0443
547.00,0.0449
546.00,0.0456
545.00,0.0463
544.00,0.0467
543.00,0.0468
542.00,0.0469
541.00,0.0473
540.00,0.0482
539.00,0.0496
538.00,0.0513
537.00,0.0531
536.00,0.0543
535.00,0.0548
534.00,0.0545
533.00,0.0538
532.00,0.0531
531.00,0.0524
530.00,0.0519
529.00,0.0518
528.00,0.0524
527.00,0.0538
526.00,0.0560
525.00,0.0588
524.00,0.0617
523.00,0.0642
522.00,0.0656
521.00,0.0652
520.00,0.0626
519.00,0.0587
518.00,0.0545
517.00,0.0509
516.00,0.0484
515.00,0.0467
514.00,0.0458
513.00,0.0453
512.00,0.0453
511.00,0.0456
510.00,0.0462
509.00,0.0470
508.00,0.0481
507.00,0.0494
506.00,0.0510
505.00,0.0527
504.00,0.0545
503.00,0.0564
502.00,0.0584
501.00,0.0605
500.00,0.0623
499.00,0.0639
498.00,0.0652
497.00,0.0662
496.00,0.0670
495.00,0.0676
494.00,0.0678
493.00,0.0677
492.00,0.0675
491.00,0.0671
490.00,0.0668
489.00,0.0666
488.00,0.0664
487.00,0.0662
486.00,0.0659
485.00,0.0656
484.00,0.0653
483.00,0.0650
482.00,0.0644
481.00,0.0634
480.00,0.0622
479.00,0.0610
478.00,0.0599
477.00,0.0592
476.00,0.0590
475.00,0.0590
474.00,0.0592
473.00,0.0598
472.00,0.0607
471.00,0.0617
470.00,0.0625
469.00,0.0631
468.00,0.0636
467.00,0.0639
466.00,0.0640
465.00,0.0642
464.00,0.0643
463.00,0.0643
462.00,0.0640
461.00,0.0635
460.00,0.0631
459.00,0.0628
458.00,0.0627
457.00,0.0626
456.00,0.0627
455.00,0.0626
454.00,0.0624
453.00,0.0620
452.00,0.0613
451.00,0.0604
450.00,0.0596
449.00,0.0590
448.00,0.0582
447.00,0.0572
446.00,0.0561
445.00,0.0551
444.00,0.0544
443.00,0.0540
442.00,0.0536
441.00,0.0532
440.00,0.0530
439.00,0.0528
438.00,0.0528
437.00,0.0527
436.00,0.0527
435.00,0.0525
434.00,0.0523
433.00,0.0523
432.00,0.0526
431.00,0.0535
430.00,0.0549
429.00,0.0569
428.00,0.0592
427.00,0.0615
426.00,0.0635
425.00,0.0651
424.00,0.0660
423.00,0.0660
422.00,0.0652
421.00,0.0639
420.00,0.0625
419.00,0.0613
418.00,0.0607
417.00,0.0606
416.00,0.0608
415.00,0.0607
414.00,0.0606
413.00,0.0608
412.00,0.0617
411.00,0.0629
410.00,0.0641
409.00,0.0652
408.00,0.0664
407.00,0.0676
406.00,0.0687
405.00,0.0698
404.00,0.0706
403.00,0.0707
402.00,0.0702
401.00,0.0696
400.00,0.0696
