Created as New Dataset,Sample 450 By YargerLab Date Thursday, February 27 2025
cm-1,A
4000.00,0.0107
3999.00,0.0107
3998.00,0.0107
3997.00,0.0107
3996.00,0.0108
3995.00,0.0108
3994.00,0.0108
3993.00,0.0107
3992.00,0.0107
3991.00,0.0107
3990.00,0.0107
3989.00,0.0107
3988.00,0.0106
3987.00,0.0106
3986.00,0.0106
3985.00,0.0106
3984.00,0.0107
3983.00,0.0107
3982.00,0.0107
3981.00,0.0107
3980.00,0.0107
3979.00,0.0107
3978.00,0.0107
3977.00,0.0107
3976.00,0.0107
3975.00,0.0107
3974.00,0.0107
3973.00,0.0107
3972.00,0.0107
3971.00,0.0107
3970.00,0.0107
3969.00,0.0107
3968.00,0.0107
3967.00,0.0107
3966.00,0.0107
3965.00,0.0107
3964.00,0.0107
3963.00,0.0106
3962.00,0.0106
3961.00,0.0106
3960.00,0.0106
3959.00,0.0106
3958.00,0.0106
3957.00,0.0106
3956.00,0.0106
3955.00,0.0106
3954.00,0.0106
3953.00,0.0107
3952.00,0.0107
3951.00,0.0107
3950.00,0.0107
3949.00,0.0107
3948.00,0.0107
3947.00,0.0107
3946.00,0.0107
3945.00,0.0107
3944.00,0.0106
3943.00,0.0106
3942.00,0.0106
3941.00,0.0106
3940.00,0.0107
3939.00,0.0107
3938.00,0.0107
3937.00,0.0107
3936.00,0.0107
3935.00,0.0107
3934.00,0.0108
3933.00,0.0108
3932.00,0.0107
3931.00,0.0107
3930.00,0.0107
3929.00,0.0107
3928.00,0.0107
3927.00,0.0107
3926.00,0.0107
3925.00,0.0107
3924.00,0.0107
3923.00,0.0107
3922.00,0.0107
3921.00,0.0107
3920.00,0.0107
3919.00,0.0107
3918.00,0.0107
3917.00,0.0106
3916.00,0.0106
3915.00,0.0106
3914.00,0.0106
3913.00,0.0106
3912.00,0.0106
3911.00,0.0106
3910.00,0.0106
3909.00,0.0106
3908.00,0.0106
3907.00,0.0106
3906.00,0.0106
3905.00,0.0106
3904.00,0.0106
3903.00,0.0106
3902.00,0.0107
3901.00,0.0107
3900.00,0.0107
3899.00,0.0107
3898.00,0.0106
3897.00,0.0106
3896.00,0.0106
3895.00,0.0106
3894.00,0.0106
3893.00,0.0106
3892.00,0.0106
3891.00,0.0106
3890.00,0.0106
3889.00,0.0106
3888.00,0.0106
3887.00,0.0107
3886.00,0.0107
3885.00,0.0106
3884.00,0.0106
3883.00,0.0106
3882.00,0.0106
3881.00,0.0106
3880.00,0.0105
3879.00,0.0105
3878.00,0.0105
3877.00,0.0105
3876.00,0.0105
3875.00,0.0105
3874.00,0.0105
3873.00,0.0105
3872.00,0.0106
3871.00,0.0106
3870.00,0.0106
3869.00,0.0106
3868.00,0.0106
3867.00,0.0106
3866.00,0.0106
3865.00,0.0106
3864.00,0.0106
3863.00,0.0106
3862.00,0.0106
3861.00,0.0106
3860.00,0.0106
3859.00,0.0106
3858.00,0.0106
3857.00,0.0105
3856.00,0.0105
3855.00,0.0105
3854.00,0.0105
3853.00,0.0105
3852.00,0.0105
3851.00,0.0105
3850.00,0.0105
3849.00,0.0105
3848.00,0.0105
3847.00,0.0105
3846.00,0.0105
3845.00,0.0105
3844.00,0.0106
3843.00,0.0106
3842.00,0.0106
3841.00,0.0106
3840.00,0.0106
3839.00,0.0106
3838.00,0.0106
3837.00,0.0106
3836.00,0.0105
3835.00,0.0105
3834.00,0.0105
3833.00,0.0105
3832.00,0.0105
3831.00,0.0105
3830.00,0.0105
3829.00,0.0104
3828.00,0.0104
3827.00,0.0104
3826.00,0.0104
3825.00,0.0104
3824.00,0.0104
3823.00,0.0105
3822.00,0.0105
3821.00,0.0105
3820.00,0.0105
3819.00,0.0104
3818.00,0.0105
3817.00,0.0105
3816.00,0.0105
3815.00,0.0105
3814.00,0.0104
3813.00,0.0105
3812.00,0.0105
3811.00,0.0105
3810.00,0.0104
3809.00,0.0104
3808.00,0.0104
3807.00,0.0104
3806.00,0.0104
3805.00,0.0104
3804.00,0.0104
3803.00,0.0104
3802.00,0.0104
3801.00,0.0104
3800.00,0.0103
3799.00,0.0103
3798.00,0.0104
3797.00,0.0104
3796.00,0.0104
3795.00,0.0104
3794.00,0.0104
3793.00,0.0104
3792.00,0.0104
3791.00,0.0104
3790.00,0.0104
3789.00,0.0104
3788.00,0.0104
3787.00,0.0104
3786.00,0.0104
3785.00,0.0104
3784.00,0.0104
3783.00,0.0104
3782.00,0.0104
3781.00,0.0104
3780.00,0.0104
3779.00,0.0104
3778.00,0.0104
3777.00,0.0104
3776.00,0.0104
3775.00,0.0104
3774.00,0.0104
3773.00,0.0103
3772.00,0.0103
3771.00,0.0103
3770.00,0.0104
3769.00,0.0104
3768.00,0.0104
3767.00,0.0104
3766.00,0.0104
3765.00,0.0104
3764.00,0.0104
3763.00,0.0104
3762.00,0.0104
3761.00,0.0104
3760.00,0.0103
3759.00,0.0103
3758.00,0.0103
3757.00,0.0103
3756.00,0.0103
3755.00,0.0103
3754.00,0.0104
3753.00,0.0104
3752.00,0.0104
3751.00,0.0104
3750.00,0.0104
3749.00,0.0104
3748.00,0.0103
3747.00,0.0103
3746.00,0.0104
3745.00,0.0104
3744.00,0.0104
3743.00,0.0103
3742.00,0.0103
3741.00,0.0103
3740.00,0.0103
3739.00,0.0103
3738.00,0.0103
3737.00,0.0103
3736.00,0.0103
3735.00,0.0103
3734.00,0.0103
3733.00,0.0103
3732.00,0.0103
3731.00,0.0103
3730.00,0.0102
3729.00,0.0102
3728.00,0.0102
3727.00,0.0102
3726.00,0.0102
3725.00,0.0102
3724.00,0.0101
3723.00,0.0101
3722.00,0.0101
3721.00,0.0101
3720.00,0.0102
3719.00,0.0102
3718.00,0.0101
3717.00,0.0101
3716.00,0.0101
3715.00,0.0101
3714.00,0.0101
3713.00,0.0101
3712.00,0.0101
3711.00,0.0101
3710.00,0.0101
3709.00,0.0101
3708.00,0.0101
3707.00,0.0101
3706.00,0.0101
3705.00,0.0101
3704.00,0.0101
3703.00,0.0101
3702.00,0.0101
3701.00,0.0101
3700.00,0.0100
3699.00,0.0100
3698.00,0.0100
3697.00,0.0100
3696.00,0.0100
3695.00,0.0100
3694.00,0.0099
3693.00,0.0099
3692.00,0.0099
3691.00,0.0099
3690.00,0.0099
3689.00,0.0099
3688.00,0.0099
3687.00,0.0098
3686.00,0.0098
3685.00,0.0097
3684.00,0.0097
3683.00,0.0096
3682.00,0.0096
3681.00,0.0095
3680.00,0.0095
3679.00,0.0094
3678.00,0.0094
3677.00,0.0093
3676.00,0.0093
3675.00,0.0092
3674.00,0.0091
3673.00,0.0091
3672.00,0.0091
3671.00,0.0091
3670.00,0.0090
3669.00,0.0090
3668.00,0.0090
3667.00,0.0090
3666.00,0.0090
3665.00,0.0090
3664.00,0.0090
3663.00,0.0089
3662.00,0.0089
3661.00,0.0088
3660.00,0.0087
3659.00,0.0087
3658.00,0.0087
3657.00,0.0087
3656.00,0.0086
3655.00,0.0086
3654.00,0.0087
3653.00,0.0087
3652.00,0.0088
3651.00,0.0089
3650.00,0.0089
3649.00,0.0089
3648.00,0.0089
3647.00,0.0089
3646.00,0.0090
3645.00,0.0091
3644.00,0.0091
3643.00,0.0091
3642.00,0.0091
3641.00,0.0091
3640.00,0.0091
3639.00,0.0091
3638.00,0.0090
3637.00,0.0090
3636.00,0.0091
3635.00,0.0092
3634.00,0.0093
3633.00,0.0093
3632.00,0.0094
3631.00,0.0094
3630.00,0.0095
3629.00,0.0095
3628.00,0.0096
3627.00,0.0096
3626.00,0.0096
3625.00,0.0097
3624.00,0.0097
3623.00,0.0097
3622.00,0.0097
3621.00,0.0097
3620.00,0.0097
3619.00,0.0097
3618.00,0.0097
3617.00,0.0097
3616.00,0.0097
3615.00,0.0097
3614.00,0.0098
3613.00,0.0098
3612.00,0.0099
3611.00,0.0100
3610.00,0.0100
3609.00,0.0099
3608.00,0.0099
3607.00,0.0098
3606.00,0.0098
3605.00,0.0098
3604.00,0.0098
3603.00,0.0099
3602.00,0.0099
3601.00,0.0099
3600.00,0.0099
3599.00,0.0099
3598.00,0.0098
3597.00,0.0098
3596.00,0.0098
3595.00,0.0098
3594.00,0.0099
3593.00,0.0099
3592.00,0.0099
3591.00,0.0099
3590.00,0.0099
3589.00,0.0099
3588.00,0.0099
3587.00,0.0099
3586.00,0.0099
3585.00,0.0099
3584.00,0.0099
3583.00,0.0099
3582.00,0.0099
3581.00,0.0099
3580.00,0.0099
3579.00,0.0099
3578.00,0.0099
3577.00,0.0099
3576.00,0.0099
3575.00,0.0099
3574.00,0.0099
3573.00,0.0098
3572.00,0.0098
3571.00,0.0098
3570.00,0.0098
3569.00,0.0098
3568.00,0.0098
3567.00,0.0099
3566.00,0.0099
3565.00,0.0099
3564.00,0.0099
3563.00,0.0099
3562.00,0.0099
3561.00,0.0099
3560.00,0.0099
3559.00,0.0099
3558.00,0.0099
3557.00,0.0100
3556.00,0.0099
3555.00,0.0099
3554.00,0.0099
3553.00,0.0099
3552.00,0.0099
3551.00,0.0099
3550.00,0.0099
3549.00,0.0099
3548.00,0.0100
3547.00,0.0100
3546.00,0.0100
3545.00,0.0100
3544.00,0.0100
3543.00,0.0100
3542.00,0.0100
3541.00,0.0100
3540.00,0.0100
3539.00,0.0100
3538.00,0.0100
3537.00,0.0100
3536.00,0.0100
3535.00,0.0100
3534.00,0.0100
3533.00,0.0100
3532.00,0.0101
3531.00,0.0101
3530.00,0.0101
3529.00,0.0100
3528.00,0.0100
3527.00,0.0100
3526.00,0.0100
3525.00,0.0100
3524.00,0.0100
3523.00,0.0100
3522.00,0.0101
3521.00,0.0101
3520.00,0.0101
3519.00,0.0101
3518.00,0.0101
3517.00,0.0101
3516.00,0.0101
3515.00,0.0101
3514.00,0.0101
3513.00,0.0101
3512.00,0.0101
3511.00,0.0101
3510.00,0.0101
3509.00,0.0101
3508.00,0.0101
3507.00,0.0101
3506.00,0.0101
3505.00,0.0101
3504.00,0.0102
3503.00,0.0102
3502.00,0.0102
3501.00,0.0102
3500.00,0.0101
3499.00,0.0101
3498.00,0.0101
3497.00,0.0100
3496.00,0.0100
3495.00,0.0100
3494.00,0.0101
3493.00,0.0101
3492.00,0.0102
3491.00,0.0102
3490.00,0.0102
3489.00,0.0102
3488.00,0.0102
3487.00,0.0102
3486.00,0.0102
3485.00,0.0102
3484.00,0.0102
3483.00,0.0102
3482.00,0.0102
3481.00,0.0102
3480.00,0.0102
3479.00,0.0102
3478.00,0.0102
3477.00,0.0103
3476.00,0.0103
3475.00,0.0103
3474.00,0.0103
3473.00,0.0103
3472.00,0.0103
3471.00,0.0103
3470.00,0.0104
3469.00,0.0104
3468.00,0.0103
3467.00,0.0103
3466.00,0.0103
3465.00,0.0103
3464.00,0.0103
3463.00,0.0103
3462.00,0.0103
3461.00,0.0103
3460.00,0.0103
3459.00,0.0103
3458.00,0.0103
3457.00,0.0104
3456.00,0.0104
3455.00,0.0104
3454.00,0.0104
3453.00,0.0104
3452.00,0.0104
3451.00,0.0104
3450.00,0.0104
3449.00,0.0104
3448.00,0.0105
3447.00,0.0104
3446.00,0.0104
3445.00,0.0104
3444.00,0.0105
3443.00,0.0105
3442.00,0.0105
3441.00,0.0105
3440.00,0.0104
3439.00,0.0104
3438.00,0.0105
3437.00,0.0105
3436.00,0.0105
3435.00,0.0105
3434.00,0.0105
3433.00,0.0105
3432.00,0.0105
3431.00,0.0105
3430.00,0.0105
3429.00,0.0105
3428.00,0.0105
3427.00,0.0106
3426.00,0.0106
3425.00,0.0106
3424.00,0.0106
3423.00,0.0106
3422.00,0.0106
3421.00,0.0106
3420.00,0.0106
3419.00,0.0106
3418.00,0.0107
3417.00,0.0107
3416.00,0.0107
3415.00,0.0107
3414.00,0.0107
3413.00,0.0107
3412.00,0.0107
3411.00,0.0107
3410.00,0.0108
3409.00,0.0108
3408.00,0.0108
3407.00,0.0108
3406.00,0.0109
3405.00,0.0109
3404.00,0.0109
3403.00,0.0110
3402.00,0.0109
3401.00,0.0109
3400.00,0.0109
3399.00,0.0109
3398.00,0.0109
3397.00,0.0109
3396.00,0.0110
3395.00,0.0110
3394.00,0.0110
3393.00,0.0110
3392.00,0.0110
3391.00,0.0110
3390.00,0.0110
3389.00,0.0111
3388.00,0.0111
3387.00,0.0111
3386.00,0.0111
3385.00,0.0111
3384.00,0.0111
3383.00,0.0111
3382.00,0.0111
3381.00,0.0111
3380.00,0.0111
3379.00,0.0112
3378.00,0.0112
3377.00,0.0112
3376.00,0.0112
3375.00,0.0112
3374.00,0.0112
3373.00,0.0112
3372.00,0.0113
3371.00,0.0112
3370.00,0.0112
3369.00,0.0112
3368.00,0.0112
3367.00,0.0112
3366.00,0.0112
3365.00,0.0113
3364.00,0.0113
3363.00,0.0113
3362.00,0.0113
3361.00,0.0114
3360.00,0.0114
3359.00,0.0113
3358.00,0.0114
3357.00,0.0114
3356.00,0.0114
3355.00,0.0114
3354.00,0.0114
3353.00,0.0114
3352.00,0.0115
3351.00,0.0115
3350.00,0.0115
3349.00,0.0115
3348.00,0.0115
3347.00,0.0115
3346.00,0.0115
3345.00,0.0115
3344.00,0.0115
3343.00,0.0116
3342.00,0.0116
3341.00,0.0116
3340.00,0.0116
3339.00,0.0116
3338.00,0.0117
3337.00,0.0117
3336.00,0.0117
3335.00,0.0117
3334.00,0.0118
3333.00,0.0118
3332.00,0.0119
3331.00,0.0119
3330.00,0.0119
3329.00,0.0119
3328.00,0.0119
3327.00,0.0120
3326.00,0.0120
3325.00,0.0120
3324.00,0.0120
3323.00,0.0120
3322.00,0.0120
3321.00,0.0120
3320.00,0.0121
3319.00,0.0121
3318.00,0.0121
3317.00,0.0122
3316.00,0.0122
3315.00,0.0123
3314.00,0.0123
3313.00,0.0123
3312.00,0.0123
3311.00,0.0123
3310.00,0.0123
3309.00,0.0123
3308.00,0.0123
3307.00,0.0124
3306.00,0.0124
3305.00,0.0124
3304.00,0.0125
3303.00,0.0125
3302.00,0.0126
3301.00,0.0126
3300.00,0.0127
3299.00,0.0127
3298.00,0.0128
3297.00,0.0128
3296.00,0.0128
3295.00,0.0128
3294.00,0.0128
3293.00,0.0128
3292.00,0.0129
3291.00,0.0129
3290.00,0.0130
3289.00,0.0130
3288.00,0.0131
3287.00,0.0131
3286.00,0.0132
3285.00,0.0132
3284.00,0.0132
3283.00,0.0133
3282.00,0.0133
3281.00,0.0134
3280.00,0.0135
3279.00,0.0135
3278.00,0.0135
3277.00,0.0135
3276.00,0.0135
3275.00,0.0136
3274.00,0.0136
3273.00,0.0136
3272.00,0.0136
3271.00,0.0137
3270.00,0.0137
3269.00,0.0137
3268.00,0.0138
3267.00,0.0139
3266.00,0.0140
3265.00,0.0141
3264.00,0.0141
3263.00,0.0142
3262.00,0.0142
3261.00,0.0143
3260.00,0.0143
3259.00,0.0144
3258.00,0.0144
3257.00,0.0144
3256.00,0.0145
3255.00,0.0146
3254.00,0.0147
3253.00,0.0148
3252.00,0.0148
3251.00,0.0149
3250.00,0.0149
3249.00,0.0149
3248.00,0.0149
3247.00,0.0150
3246.00,0.0151
3245.00,0.0152
3244.00,0.0153
3243.00,0.0154
3242.00,0.0154
3241.00,0.0155
3240.00,0.0156
3239.00,0.0156
3238.00,0.0157
3237.00,0.0156
3236.00,0.0156
3235.00,0.0156
3234.00,0.0156
3233.00,0.0157
3232.00,0.0159
3231.00,0.0160
3230.00,0.0162
3229.00,0.0163
3228.00,0.0164
3227.00,0.0165
3226.00,0.0166
3225.00,0.0167
3224.00,0.0168
3223.00,0.0168
3222.00,0.0169
3221.00,0.0169
3220.00,0.0169
3219.00,0.0169
3218.00,0.0170
3217.00,0.0170
3216.00,0.0171
3215.00,0.0172
3214.00,0.0173
3213.00,0.0173
3212.00,0.0174
3211.00,0.0174
3210.00,0.0175
3209.00,0.0175
3208.00,0.0175
3207.00,0.0176
3206.00,0.0176
3205.00,0.0177
3204.00,0.0177
3203.00,0.0177
3202.00,0.0177
3201.00,0.0178
3200.00,0.0178
3199.00,0.0178
3198.00,0.0179
3197.00,0.0180
3196.00,0.0180
3195.00,0.0181
3194.00,0.0182
3193.00,0.0182
3192.00,0.0182
3191.00,0.0183
3190.00,0.0183
3189.00,0.0184
3188.00,0.0185
3187.00,0.0185
3186.00,0.0186
3185.00,0.0186
3184.00,0.0187
3183.00,0.0187
3182.00,0.0188
3181.00,0.0188
3180.00,0.0189
3179.00,0.0189
3178.00,0.0190
3177.00,0.0190
3176.00,0.0191
3175.00,0.0191
3174.00,0.0192
3173.00,0.0193
3172.00,0.0194
3171.00,0.0194
3170.00,0.0195
3169.00,0.0196
3168.00,0.0197
3167.00,0.0198
3166.00,0.0198
3165.00,0.0199
3164.00,0.0200
3163.00,0.0201
3162.00,0.0202
3161.00,0.0203
3160.00,0.0204
3159.00,0.0205
3158.00,0.0206
3157.00,0.0207
3156.00,0.0208
3155.00,0.0209
3154.00,0.0210
3153.00,0.0211
3152.00,0.0212
3151.00,0.0214
3150.00,0.0216
3149.00,0.0218
3148.00,0.0219
3147.00,0.0221
3146.00,0.0223
3145.00,0.0225
3144.00,0.0226
3143.00,0.0227
3142.00,0.0228
3141.00,0.0230
3140.00,0.0231
3139.00,0.0233
3138.00,0.0236
3137.00,0.0238
3136.00,0.0241
3135.00,0.0243
3134.00,0.0245
3133.00,0.0247
3132.00,0.0249
3131.00,0.0251
3130.00,0.0253
3129.00,0.0254
3128.00,0.0255
3127.00,0.0257
3126.00,0.0258
3125.00,0.0258
3124.00,0.0259
3123.00,0.0259
3122.00,0.0259
3121.00,0.0259
3120.00,0.0260
3119.00,0.0260
3118.00,0.0261
3117.00,0.0261
3116.00,0.0262
3115.00,0.0263
3114.00,0.0263
3113.00,0.0264
3112.00,0.0264
3111.00,0.0264
3110.00,0.0263
3109.00,0.0263
3108.00,0.0263
3107.00,0.0263
3106.00,0.0263
3105.00,0.0264
3104.00,0.0264
3103.00,0.0265
3102.00,0.0265
3101.00,0.0265
3100.00,0.0265
3099.00,0.0266
3098.00,0.0266
3097.00,0.0267
3096.00,0.0268
3095.00,0.0268
3094.00,0.0269
3093.00,0.0270
3092.00,0.0270
3091.00,0.0271
3090.00,0.0271
3089.00,0.0272
3088.00,0.0274
3087.00,0.0275
3086.00,0.0276
3085.00,0.0278
3084.00,0.0279
3083.00,0.0281
3082.00,0.0283
3081.00,0.0285
3080.00,0.0286
3079.00,0.0288
3078.00,0.0290
3077.00,0.0293
3076.00,0.0295
3075.00,0.0297
3074.00,0.0298
3073.00,0.0300
3072.00,0.0301
3071.00,0.0302
3070.00,0.0303
3069.00,0.0305
3068.00,0.0306
3067.00,0.0308
3066.00,0.0309
3065.00,0.0310
3064.00,0.0311
3063.00,0.0313
3062.00,0.0314
3061.00,0.0314
3060.00,0.0315
3059.00,0.0316
3058.00,0.0316
3057.00,0.0316
3056.00,0.0317
3055.00,0.0316
3054.00,0.0316
3053.00,0.0316
3052.00,0.0315
3051.00,0.0315
3050.00,0.0315
3049.00,0.0315
3048.00,0.0315
3047.00,0.0315
3046.00,0.0316
3045.00,0.0316
3044.00,0.0316
3043.00,0.0316
3042.00,0.0317
3041.00,0.0318
3040.00,0.0318
3039.00,0.0319
3038.00,0.0319
3037.00,0.0319
3036.00,0.0319
3035.00,0.0319
3034.00,0.0319
3033.00,0.0319
3032.00,0.0319
3031.00,0.0319
3030.00,0.0320
3029.00,0.0320
3028.00,0.0321
3027.00,0.0321
3026.00,0.0322
3025.00,0.0322
3024.00,0.0322
3023.00,0.0322
3022.00,0.0321
3021.00,0.0321
3020.00,0.0321
3019.00,0.0321
3018.00,0.0320
3017.00,0.0319
3016.00,0.0318
3015.00,0.0318
3014.00,0.0317
3013.00,0.0316
3012.00,0.0315
3011.00,0.0313
3010.00,0.0311
3009.00,0.0309
3008.00,0.0307
3007.00,0.0305
3006.00,0.0303
3005.00,0.0301
3004.00,0.0299
3003.00,0.0297
3002.00,0.0296
3001.00,0.0295
3000.00,0.0295
2999.00,0.0295
2998.00,0.0296
2997.00,0.0297
2996.00,0.0299
2995.00,0.0301
2994.00,0.0304
2993.00,0.0308
2992.00,0.0311
2991.00,0.0314
2990.00,0.0319
2989.00,0.0325
2988.00,0.0331
2987.00,0.0338
2986.00,0.0342
2985.00,0.0344
2984.00,0.0343
2983.00,0.0341
2982.00,0.0340
2981.00,0.0342
2980.00,0.0348
2979.00,0.0356
2978.00,0.0363
2977.00,0.0369
2976.00,0.0374
2975.00,0.0376
2974.00,0.0376
2973.00,0.0374
2972.00,0.0373
2971.00,0.0374
2970.00,0.0379
2969.00,0.0388
2968.00,0.0398
2967.00,0.0409
2966.00,0.0420
2965.00,0.0431
2964.00,0.0443
2963.00,0.0454
2962.00,0.0464
2961.00,0.0474
2960.00,0.0482
2959.00,0.0489
2958.00,0.0494
2957.00,0.0499
2956.00,0.0502
2955.00,0.0504
2954.00,0.0507
2953.00,0.0509
2952.00,0.0511
2951.00,0.0513
2950.00,0.0516
2949.00,0.0519
2948.00,0.0523
2947.00,0.0529
2946.00,0.0537
2945.00,0.0547
2944.00,0.0559
2943.00,0.0571
2942.00,0.0583
2941.00,0.0595
2940.00,0.0603
2939.00,0.0609
2938.00,0.0613
2937.00,0.0615
2936.00,0.0616
2935.00,0.0616
2934.00,0.0617
2933.00,0.0619
2932.00,0.0620
2931.00,0.0622
2930.00,0.0623
2929.00,0.0625
2928.00,0.0625
2927.00,0.0625
2926.00,0.0623
2925.00,0.0621
2924.00,0.0617
2923.00,0.0613
2922.00,0.0608
2921.00,0.0603
2920.00,0.0597
2919.00,0.0591
2918.00,0.0585
2917.00,0.0579
2916.00,0.0573
2915.00,0.0566
2914.00,0.0560
2913.00,0.0553
2912.00,0.0547
2911.00,0.0541
2910.00,0.0535
2909.00,0.0530
2908.00,0.0525
2907.00,0.0521
2906.00,0.0518
2905.00,0.0516
2904.00,0.0514
2903.00,0.0514
2902.00,0.0514
2901.00,0.0514
2900.00,0.0514
2899.00,0.0515
2898.00,0.0514
2897.00,0.0513
2896.00,0.0512
2895.00,0.0511
2894.00,0.0511
2893.00,0.0512
2892.00,0.0513
2891.00,0.0516
2890.00,0.0520
2889.00,0.0522
2888.00,0.0523
2887.00,0.0521
2886.00,0.0517
2885.00,0.0512
2884.00,0.0506
2883.00,0.0502
2882.00,0.0500
2881.00,0.0499
2880.00,0.0501
2879.00,0.0503
2878.00,0.0507
2877.00,0.0512
2876.00,0.0518
2875.00,0.0525
2874.00,0.0532
2873.00,0.0539
2872.00,0.0544
2871.00,0.0548
2870.00,0.0550
2869.00,0.0550
2868.00,0.0550
2867.00,0.0548
2866.00,0.0546
2865.00,0.0543
2864.00,0.0540
2863.00,0.0537
2862.00,0.0534
2861.00,0.0531
2860.00,0.0528
2859.00,0.0525
2858.00,0.0521
2857.00,0.0518
2856.00,0.0514
2855.00,0.0510
2854.00,0.0506
2853.00,0.0503
2852.00,0.0500
2851.00,0.0497
2850.00,0.0494
2849.00,0.0491
2848.00,0.0487
2847.00,0.0483
2846.00,0.0478
2845.00,0.0473
2844.00,0.0469
2843.00,0.0466
2842.00,0.0464
2841.00,0.0463
2840.00,0.0464
2839.00,0.0466
2838.00,0.0470
2837.00,0.0474
2836.00,0.0479
2835.00,0.0482
2834.00,0.0483
2833.00,0.0483
2832.00,0.0481
2831.00,0.0478
2830.00,0.0474
2829.00,0.0468
2828.00,0.0462
2827.00,0.0456
2826.00,0.0449
2825.00,0.0443
2824.00,0.0437
2823.00,0.0431
2822.00,0.0426
2821.00,0.0422
2820.00,0.0418
2819.00,0.0415
2818.00,0.0412
2817.00,0.0409
2816.00,0.0407
2815.00,0.0404
2814.00,0.0402
2813.00,0.0400
2812.00,0.0398
2811.00,0.0396
2810.00,0.0395
2809.00,0.0394
2808.00,0.0392
2807.00,0.0391
2806.00,0.0390
2805.00,0.0389
2804.00,0.0388
2803.00,0.0387
2802.00,0.0385
2801.00,0.0384
2800.00,0.0383
2799.00,0.0382
2798.00,0.0381
2797.00,0.0381
2796.00,0.0379
2795.00,0.0378
2794.00,0.0377
2793.00,0.0376
2792.00,0.0374
2791.00,0.0373
2790.00,0.0372
2789.00,0.0370
2788.00,0.0369
2787.00,0.0368
2786.00,0.0366
2785.00,0.0365
2784.00,0.0363
2783.00,0.0362
2782.00,0.0361
2781.00,0.0360
2780.00,0.0359
2779.00,0.0357
2778.00,0.0356
2777.00,0.0355
2776.00,0.0354
2775.00,0.0352
2774.00,0.0351
2773.00,0.0350
2772.00,0.0349
2771.00,0.0348
2770.00,0.0347
2769.00,0.0346
2768.00,0.0345
2767.00,0.0344
2766.00,0.0344
2765.00,0.0343
2764.00,0.0343
2763.00,0.0342
2762.00,0.0342
2761.00,0.0342
2760.00,0.0341
2759.00,0.0341
2758.00,0.0340
2757.00,0.0340
2756.00,0.0340
2755.00,0.0340
2754.00,0.0340
2753.00,0.0339
2752.00,0.0339
2751.00,0.0340
2750.00,0.0340
2749.00,0.0340
2748.00,0.0340
2747.00,0.0339
2746.00,0.0339
2745.00,0.0339
2744.00,0.0339
2743.00,0.0339
2742.00,0.0339
2741.00,0.0339
2740.00,0.0339
2739.00,0.0338
2738.00,0.0338
2737.00,0.0338
2736.00,0.0338
2735.00,0.0338
2734.00,0.0338
2733.00,0.0338
2732.00,0.0338
2731.00,0.0338
2730.00,0.0338
2729.00,0.0338
2728.00,0.0338
2727.00,0.0338
2726.00,0.0339
2725.00,0.0339
2724.00,0.0338
2723.00,0.0337
2722.00,0.0337
2721.00,0.0336
2720.00,0.0335
2719.00,0.0334
2718.00,0.0333
2717.00,0.0332
2716.00,0.0331
2715.00,0.0330
2714.00,0.0329
2713.00,0.0328
2712.00,0.0328
2711.00,0.0327
2710.00,0.0327
2709.00,0.0326
2708.00,0.0326
2707.00,0.0326
2706.00,0.0326
2705.00,0.0326
2704.00,0.0326
2703.00,0.0326
2702.00,0.0325
2701.00,0.0325
2700.00,0.0325
2699.00,0.0324
2698.00,0.0324
2697.00,0.0324
2696.00,0.0324
2695.00,0.0324
2694.00,0.0324
2693.00,0.0324
2692.00,0.0324
2691.00,0.0325
2690.00,0.0326
2689.00,0.0326
2688.00,0.0326
2687.00,0.0327
2686.00,0.0327
2685.00,0.0327
2684.00,0.0328
2683.00,0.0328
2682.00,0.0329
2681.00,0.0329
2680.00,0.0329
2679.00,0.0329
2678.00,0.0329
2677.00,0.0328
2676.00,0.0328
2675.00,0.0328
2674.00,0.0327
2673.00,0.0327
2672.00,0.0327
2671.00,0.0326
2670.00,0.0326
2669.00,0.0326
2668.00,0.0326
2667.00,0.0326
2666.00,0.0326
2665.00,0.0327
2664.00,0.0327
2663.00,0.0327
2662.00,0.0328
2661.00,0.0328
2660.00,0.0328
2659.00,0.0328
2658.00,0.0328
2657.00,0.0328
2656.00,0.0328
2655.00,0.0328
2654.00,0.0328
2653.00,0.0328
2652.00,0.0328
2651.00,0.0328
2650.00,0.0328
2649.00,0.0327
2648.00,0.0327
2647.00,0.0327
2646.00,0.0327
2645.00,0.0327
2644.00,0.0327
2643.00,0.0326
2642.00,0.0326
2641.00,0.0326
2640.00,0.0325
2639.00,0.0325
2638.00,0.0324
2637.00,0.0324
2636.00,0.0324
2635.00,0.0323
2634.00,0.0323
2633.00,0.0323
2632.00,0.0322
2631.00,0.0321
2630.00,0.0320
2629.00,0.0319
2628.00,0.0318
2627.00,0.0318
2626.00,0.0318
2625.00,0.0318
2624.00,0.0317
2623.00,0.0317
2622.00,0.0317
2621.00,0.0317
2620.00,0.0317
2619.00,0.0317
2618.00,0.0316
2617.00,0.0316
2616.00,0.0316
2615.00,0.0316
2614.00,0.0316
2613.00,0.0316
2612.00,0.0317
2611.00,0.0317
2610.00,0.0317
2609.00,0.0316
2608.00,0.0316
2607.00,0.0315
2606.00,0.0315
2605.00,0.0315
2604.00,0.0315
2603.00,0.0315
2602.00,0.0314
2601.00,0.0314
2600.00,0.0314
2599.00,0.0313
2598.00,0.0314
2597.00,0.0314
2596.00,0.0314
2595.00,0.0314
2594.00,0.0314
2593.00,0.0314
2592.00,0.0314
2591.00,0.0315
2590.00,0.0315
2589.00,0.0316
2588.00,0.0317
2587.00,0.0317
2586.00,0.0318
2585.00,0.0319
2584.00,0.0320
2583.00,0.0321
2582.00,0.0322
2581.00,0.0322
2580.00,0.0322
2579.00,0.0322
2578.00,0.0323
2577.00,0.0323
2576.00,0.0323
2575.00,0.0323
2574.00,0.0323
2573.00,0.0323
2572.00,0.0323
2571.00,0.0323
2570.00,0.0323
2569.00,0.0323
2568.00,0.0323
2567.00,0.0323
2566.00,0.0323
2565.00,0.0322
2564.00,0.0322
2563.00,0.0321
2562.00,0.0321
2561.00,0.0321
2560.00,0.0321
2559.00,0.0321
2558.00,0.0321
2557.00,0.0321
2556.00,0.0320
2555.00,0.0320
2554.00,0.0319
2553.00,0.0319
2552.00,0.0319
2551.00,0.0319
2550.00,0.0319
2549.00,0.0319
2548.00,0.0318
2547.00,0.0318
2546.00,0.0318
2545.00,0.0318
2544.00,0.0318
2543.00,0.0318
2542.00,0.0317
2541.00,0.0317
2540.00,0.0317
2539.00,0.0318
2538.00,0.0318
2537.00,0.0318
2536.00,0.0318
2535.00,0.0317
2534.00,0.0317
2533.00,0.0316
2532.00,0.0316
2531.00,0.0316
2530.00,0.0315
2529.00,0.0315
2528.00,0.0316
2527.00,0.0316
2526.00,0.0316
2525.00,0.0316
2524.00,0.0316
2523.00,0.0316
2522.00,0.0316
2521.00,0.0316
2520.00,0.0316
2519.00,0.0316
2518.00,0.0316
2517.00,0.0316
2516.00,0.0316
2515.00,0.0315
2514.00,0.0315
2513.00,0.0314
2512.00,0.0313
2511.00,0.0312
2510.00,0.0312
2509.00,0.0311
2508.00,0.0310
2507.00,0.0308
2506.00,0.0307
2505.00,0.0305
2504.00,0.0303
2503.00,0.0302
2502.00,0.0300
2501.00,0.0299
2500.00,0.0298
2499.00,0.0296
2498.00,0.0295
2497.00,0.0294
2496.00,0.0293
2495.00,0.0292
2494.00,0.0291
2493.00,0.0290
2492.00,0.0289
2491.00,0.0288
2490.00,0.0287
2489.00,0.0286
2488.00,0.0285
2487.00,0.0284
2486.00,0.0283
2485.00,0.0282
2484.00,0.0281
2483.00,0.0280
2482.00,0.0280
2481.00,0.0279
2480.00,0.0278
2479.00,0.0277
2478.00,0.0276
2477.00,0.0275
2476.00,0.0274
2475.00,0.0272
2474.00,0.0271
2473.00,0.0270
2472.00,0.0270
2471.00,0.0269
2470.00,0.0269
2469.00,0.0268
2468.00,0.0268
2467.00,0.0267
2466.00,0.0266
2465.00,0.0265
2464.00,0.0264
2463.00,0.0264
2462.00,0.0263
2461.00,0.0263
2460.00,0.0262
2459.00,0.0262
2458.00,0.0262
2457.00,0.0261
2456.00,0.0260
2455.00,0.0259
2454.00,0.0258
2453.00,0.0258
2452.00,0.0257
2451.00,0.0257
2450.00,0.0257
2449.00,0.0256
2448.00,0.0255
2447.00,0.0254
2446.00,0.0252
2445.00,0.0251
2444.00,0.0250
2443.00,0.0249
2442.00,0.0248
2441.00,0.0247
2440.00,0.0247
2439.00,0.0246
2438.00,0.0246
2437.00,0.0246
2436.00,0.0245
2435.00,0.0245
2434.00,0.0244
2433.00,0.0244
2432.00,0.0243
2431.00,0.0243
2430.00,0.0242
2429.00,0.0242
2428.00,0.0241
2427.00,0.0241
2426.00,0.0241
2425.00,0.0241
2424.00,0.0240
2423.00,0.0240
2422.00,0.0239
2421.00,0.0238
2420.00,0.0237
2419.00,0.0236
2418.00,0.0236
2417.00,0.0235
2416.00,0.0235
2415.00,0.0234
2414.00,0.0234
2413.00,0.0233
2412.00,0.0233
2411.00,0.0233
2410.00,0.0232
2409.00,0.0231
2408.00,0.0230
2407.00,0.0229
2406.00,0.0228
2405.00,0.0228
2404.00,0.0228
2403.00,0.0228
2402.00,0.0228
2401.00,0.0227
2400.00,0.0226
2399.00,0.0225
2398.00,0.0224
2397.00,0.0224
2396.00,0.0224
2395.00,0.0223
2394.00,0.0223
2393.00,0.0222
2392.00,0.0221
2391.00,0.0221
2390.00,0.0220
2389.00,0.0220
2388.00,0.0220
2387.00,0.0219
2386.00,0.0218
2385.00,0.0218
2384.00,0.0217
2383.00,0.0215
2382.00,0.0214
2381.00,0.0213
2380.00,0.0212
2379.00,0.0211
2378.00,0.0211
2377.00,0.0210
2376.00,0.0210
2375.00,0.0210
2374.00,0.0209
2373.00,0.0208
2372.00,0.0208
2371.00,0.0207
2370.00,0.0207
2369.00,0.0206
2368.00,0.0205
2367.00,0.0204
2366.00,0.0204
2365.00,0.0204
2364.00,0.0204
2363.00,0.0203
2362.00,0.0203
2361.00,0.0203
2360.00,0.0202
2359.00,0.0202
2358.00,0.0201
2357.00,0.0201
2356.00,0.0202
2355.00,0.0202
2354.00,0.0202
2353.00,0.0202
2352.00,0.0202
2351.00,0.0201
2350.00,0.0199
2349.00,0.0199
2348.00,0.0198
2347.00,0.0198
2346.00,0.0198
2345.00,0.0198
2344.00,0.0197
2343.00,0.0196
2342.00,0.0196
2341.00,0.0195
2340.00,0.0195
2339.00,0.0196
2338.00,0.0196
2337.00,0.0196
2336.00,0.0196
2335.00,0.0196
2334.00,0.0195
2333.00,0.0195
2332.00,0.0195
2331.00,0.0195
2330.00,0.0195
2329.00,0.0196
2328.00,0.0198
2327.00,0.0201
2326.00,0.0203
2325.00,0.0203
2324.00,0.0202
2323.00,0.0199
2322.00,0.0197
2321.00,0.0195
2320.00,0.0193
2319.00,0.0192
2318.00,0.0192
2317.00,0.0191
2316.00,0.0190
2315.00,0.0190
2314.00,0.0189
2313.00,0.0188
2312.00,0.0187
2311.00,0.0186
2310.00,0.0186
2309.00,0.0185
2308.00,0.0185
2307.00,0.0184
2306.00,0.0184
2305.00,0.0184
2304.00,0.0184
2303.00,0.0184
2302.00,0.0184
2301.00,0.0184
2300.00,0.0183
2299.00,0.0183
2298.00,0.0183
2297.00,0.0184
2296.00,0.0184
2295.00,0.0184
2294.00,0.0184
2293.00,0.0185
2292.00,0.0185
2291.00,0.0185
2290.00,0.0185
2289.00,0.0185
2288.00,0.0186
2287.00,0.0186
2286.00,0.0186
2285.00,0.0185
2284.00,0.0184
2283.00,0.0183
2282.00,0.0182
2281.00,0.0182
2280.00,0.0182
2279.00,0.0182
2278.00,0.0181
2277.00,0.0180
2276.00,0.0178
2275.00,0.0177
2274.00,0.0176
2273.00,0.0175
2272.00,0.0175
2271.00,0.0175
2270.00,0.0174
2269.00,0.0174
2268.00,0.0173
2267.00,0.0171
2266.00,0.0170
2265.00,0.0169
2264.00,0.0169
2263.00,0.0168
2262.00,0.0168
2261.00,0.0167
2260.00,0.0167
2259.00,0.0167
2258.00,0.0168
2257.00,0.0167
2256.00,0.0167
2255.00,0.0167
2254.00,0.0165
2253.00,0.0164
2252.00,0.0163
2251.00,0.0162
2250.00,0.0162
2249.00,0.0162
2248.00,0.0163
2247.00,0.0163
2246.00,0.0163
2245.00,0.0163
2244.00,0.0162
2243.00,0.0161
2242.00,0.0160
2241.00,0.0160
2240.00,0.0160
2239.00,0.0161
2238.00,0.0162
2237.00,0.0162
2236.00,0.0160
2235.00,0.0159
2234.00,0.0158
2233.00,0.0158
2232.00,0.0158
2231.00,0.0159
2230.00,0.0158
2229.00,0.0158
2228.00,0.0157
2227.00,0.0157
2226.00,0.0157
2225.00,0.0157
2224.00,0.0157
2223.00,0.0156
2222.00,0.0155
2221.00,0.0155
2220.00,0.0156
2219.00,0.0156
2218.00,0.0156
2217.00,0.0156
2216.00,0.0156
2215.00,0.0157
2214.00,0.0157
2213.00,0.0158
2212.00,0.0157
2211.00,0.0156
2210.00,0.0154
2209.00,0.0153
2208.00,0.0153
2207.00,0.0153
2206.00,0.0154
2205.00,0.0155
2204.00,0.0156
2203.00,0.0155
2202.00,0.0154
2201.00,0.0153
2200.00,0.0152
2199.00,0.0151
2198.00,0.0151
2197.00,0.0153
2196.00,0.0154
2195.00,0.0156
2194.00,0.0156
2193.00,0.0156
2192.00,0.0155
2191.00,0.0155
2190.00,0.0154
2189.00,0.0152
2188.00,0.0151
2187.00,0.0150
2186.00,0.0149
2185.00,0.0148
2184.00,0.0147
2183.00,0.0147
2182.00,0.0146
2181.00,0.0147
2180.00,0.0148
2179.00,0.0148
2178.00,0.0146
2177.00,0.0144
2176.00,0.0143
2175.00,0.0142
2174.00,0.0143
2173.00,0.0145
2172.00,0.0147
2171.00,0.0149
2170.00,0.0151
2169.00,0.0152
2168.00,0.0152
2167.00,0.0152
2166.00,0.0151
2165.00,0.0151
2164.00,0.0151
2163.00,0.0150
2162.00,0.0145
2161.00,0.0136
2160.00,0.0125
2159.00,0.0116
2158.00,0.0113
2157.00,0.0115
2156.00,0.0118
2155.00,0.0118
2154.00,0.0117
2153.00,0.0117
2152.00,0.0118
2151.00,0.0121
2150.00,0.0123
2149.00,0.0125
2148.00,0.0125
2147.00,0.0124
2146.00,0.0124
2145.00,0.0123
2144.00,0.0124
2143.00,0.0124
2142.00,0.0125
2141.00,0.0126
2140.00,0.0126
2139.00,0.0125
2138.00,0.0124
2137.00,0.0122
2136.00,0.0120
2135.00,0.0119
2134.00,0.0119
2133.00,0.0120
2132.00,0.0121
2131.00,0.0122
2130.00,0.0124
2129.00,0.0126
2128.00,0.0127
2127.00,0.0128
2126.00,0.0128
2125.00,0.0129
2124.00,0.0130
2123.00,0.0132
2122.00,0.0133
2121.00,0.0134
2120.00,0.0135
2119.00,0.0136
2118.00,0.0136
2117.00,0.0136
2116.00,0.0135
2115.00,0.0135
2114.00,0.0134
2113.00,0.0134
2112.00,0.0133
2111.00,0.0134
2110.00,0.0134
2109.00,0.0134
2108.00,0.0134
2107.00,0.0134
2106.00,0.0133
2105.00,0.0132
2104.00,0.0132
2103.00,0.0132
2102.00,0.0132
2101.00,0.0132
2100.00,0.0132
2099.00,0.0132
2098.00,0.0132
2097.00,0.0130
2096.00,0.0129
2095.00,0.0128
2094.00,0.0128
2093.00,0.0130
2092.00,0.0131
2091.00,0.0132
2090.00,0.0133
2089.00,0.0134
2088.00,0.0134
2087.00,0.0133
2086.00,0.0133
2085.00,0.0133
2084.00,0.0133
2083.00,0.0132
2082.00,0.0132
2081.00,0.0132
2080.00,0.0133
2079.00,0.0133
2078.00,0.0133
2077.00,0.0132
2076.00,0.0132
2075.00,0.0131
2074.00,0.0131
2073.00,0.0130
2072.00,0.0130
2071.00,0.0130
2070.00,0.0130
2069.00,0.0130
2068.00,0.0129
2067.00,0.0128
2066.00,0.0128
2065.00,0.0128
2064.00,0.0129
2063.00,0.0130
2062.00,0.0129
2061.00,0.0129
2060.00,0.0128
2059.00,0.0129
2058.00,0.0129
2057.00,0.0130
2056.00,0.0131
2055.00,0.0132
2054.00,0.0134
2053.00,0.0137
2052.00,0.0139
2051.00,0.0140
2050.00,0.0139
2049.00,0.0136
2048.00,0.0135
2047.00,0.0133
2046.00,0.0131
2045.00,0.0130
2044.00,0.0129
2043.00,0.0129
2042.00,0.0129
2041.00,0.0130
2040.00,0.0131
2039.00,0.0132
2038.00,0.0131
2037.00,0.0130
2036.00,0.0129
2035.00,0.0128
2034.00,0.0127
2033.00,0.0126
2032.00,0.0126
2031.00,0.0126
2030.00,0.0126
2029.00,0.0125
2028.00,0.0124
2027.00,0.0123
2026.00,0.0121
2025.00,0.0119
2024.00,0.0118
2023.00,0.0117
2022.00,0.0118
2021.00,0.0119
2020.00,0.0121
2019.00,0.0124
2018.00,0.0126
2017.00,0.0126
2016.00,0.0125
2015.00,0.0123
2014.00,0.0121
2013.00,0.0121
2012.00,0.0121
2011.00,0.0121
2010.00,0.0121
2009.00,0.0121
2008.00,0.0121
2007.00,0.0120
2006.00,0.0118
2005.00,0.0117
2004.00,0.0116
2003.00,0.0116
2002.00,0.0117
2001.00,0.0119
2000.00,0.0121
1999.00,0.0123
1998.00,0.0123
1997.00,0.0124
1996.00,0.0125
1995.00,0.0127
1994.00,0.0128
1993.00,0.0128
1992.00,0.0129
1991.00,0.0129
1990.00,0.0130
1989.00,0.0130
1988.00,0.0131
1987.00,0.0132
1986.00,0.0133
1985.00,0.0134
1984.00,0.0135
1983.00,0.0136
1982.00,0.0137
1981.00,0.0138
1980.00,0.0136
1979.00,0.0132
1978.00,0.0128
1977.00,0.0124
1976.00,0.0122
1975.00,0.0120
1974.00,0.0119
1973.00,0.0121
1972.00,0.0124
1971.00,0.0127
1970.00,0.0129
1969.00,0.0130
1968.00,0.0129
1967.00,0.0127
1966.00,0.0126
1965.00,0.0125
1964.00,0.0124
1963.00,0.0124
1962.00,0.0122
1961.00,0.0121
1960.00,0.0121
1959.00,0.0121
1958.00,0.0122
1957.00,0.0124
1956.00,0.0126
1955.00,0.0127
1954.00,0.0128
1953.00,0.0128
1952.00,0.0128
1951.00,0.0127
1950.00,0.0126
1949.00,0.0126
1948.00,0.0127
1947.00,0.0127
1946.00,0.0128
1945.00,0.0128
1944.00,0.0129
1943.00,0.0131
1942.00,0.0132
1941.00,0.0133
1940.00,0.0133
1939.00,0.0133
1938.00,0.0132
1937.00,0.0133
1936.00,0.0133
1935.00,0.0133
1934.00,0.0133
1933.00,0.0133
1932.00,0.0133
1931.00,0.0133
1930.00,0.0132
1929.00,0.0132
1928.00,0.0132
1927.00,0.0133
1926.00,0.0133
1925.00,0.0134
1924.00,0.0134
1923.00,0.0135
1922.00,0.0136
1921.00,0.0137
1920.00,0.0137
1919.00,0.0137
1918.00,0.0137
1917.00,0.0136
1916.00,0.0136
1915.00,0.0135
1914.00,0.0135
1913.00,0.0135
1912.00,0.0136
1911.00,0.0136
1910.00,0.0136
1909.00,0.0136
1908.00,0.0136
1907.00,0.0136
1906.00,0.0136
1905.00,0.0136
1904.00,0.0136
1903.00,0.0135
1902.00,0.0135
1901.00,0.0134
1900.00,0.0134
1899.00,0.0134
1898.00,0.0133
1897.00,0.0133
1896.00,0.0132
1895.00,0.0132
1894.00,0.0132
1893.00,0.0132
1892.00,0.0132
1891.00,0.0132
1890.00,0.0132
1889.00,0.0132
1888.00,0.0132
1887.00,0.0131
1886.00,0.0130
1885.00,0.0129
1884.00,0.0129
1883.00,0.0129
1882.00,0.0129
1881.00,0.0130
1880.00,0.0130
1879.00,0.0130
1878.00,0.0130
1877.00,0.0129
1876.00,0.0129
1875.00,0.0129
1874.00,0.0128
1873.00,0.0128
1872.00,0.0129
1871.00,0.0129
1870.00,0.0129
1869.00,0.0129
1868.00,0.0128
1867.00,0.0127
1866.00,0.0127
1865.00,0.0126
1864.00,0.0126
1863.00,0.0126
1862.00,0.0126
1861.00,0.0126
1860.00,0.0126
1859.00,0.0126
1858.00,0.0125
1857.00,0.0125
1856.00,0.0124
1855.00,0.0124
1854.00,0.0123
1853.00,0.0123
1852.00,0.0124
1851.00,0.0124
1850.00,0.0123
1849.00,0.0123
1848.00,0.0122
1847.00,0.0122
1846.00,0.0122
1845.00,0.0122
1844.00,0.0122
1843.00,0.0121
1842.00,0.0121
1841.00,0.0121
1840.00,0.0121
1839.00,0.0121
1838.00,0.0121
1837.00,0.0121
1836.00,0.0121
1835.00,0.0121
1834.00,0.0121
1833.00,0.0120
1832.00,0.0120
1831.00,0.0120
1830.00,0.0121
1829.00,0.0120
1828.00,0.0120
1827.00,0.0119
1826.00,0.0119
1825.00,0.0118
1824.00,0.0119
1823.00,0.0119
1822.00,0.0119
1821.00,0.0119
1820.00,0.0118
1819.00,0.0117
1818.00,0.0116
1817.00,0.0116
1816.00,0.0116
1815.00,0.0116
1814.00,0.0116
1813.00,0.0117
1812.00,0.0117
1811.00,0.0118
1810.00,0.0118
1809.00,0.0119
1808.00,0.0119
1807.00,0.0120
1806.00,0.0120
1805.00,0.0120
1804.00,0.0120
1803.00,0.0120
1802.00,0.0120
1801.00,0.0120
1800.00,0.0120
1799.00,0.0119
1798.00,0.0119
1797.00,0.0119
1796.00,0.0120
1795.00,0.0120
1794.00,0.0120
1793.00,0.0120
1792.00,0.0120
1791.00,0.0120
1790.00,0.0120
1789.00,0.0119
1788.00,0.0119
1787.00,0.0119
1786.00,0.0118
1785.00,0.0118
1784.00,0.0118
1783.00,0.0118
1782.00,0.0118
1781.00,0.0118
1780.00,0.0118
1779.00,0.0118
1778.00,0.0118
1777.00,0.0118
1776.00,0.0118
1775.00,0.0118
1774.00,0.0118
1773.00,0.0118
1772.00,0.0119
1771.00,0.0118
1770.00,0.0118
1769.00,0.0118
1768.00,0.0118
1767.00,0.0118
1766.00,0.0118
1765.00,0.0118
1764.00,0.0118
1763.00,0.0118
1762.00,0.0118
1761.00,0.0118
1760.00,0.0118
1759.00,0.0119
1758.00,0.0119
1757.00,0.0119
1756.00,0.0119
1755.00,0.0119
1754.00,0.0119
1753.00,0.0119
1752.00,0.0119
1751.00,0.0119
1750.00,0.0119
1749.00,0.0120
1748.00,0.0120
1747.00,0.0121
1746.00,0.0121
1745.00,0.0122
1744.00,0.0122
1743.00,0.0123
1742.00,0.0123
1741.00,0.0124
1740.00,0.0124
1739.00,0.0125
1738.00,0.0125
1737.00,0.0126
1736.00,0.0126
1735.00,0.0127
1734.00,0.0128
1733.00,0.0129
1732.00,0.0130
1731.00,0.0131
1730.00,0.0131
1729.00,0.0132
1728.00,0.0132
1727.00,0.0132
1726.00,0.0131
1725.00,0.0131
1724.00,0.0131
1723.00,0.0131
1722.00,0.0132
1721.00,0.0132
1720.00,0.0132
1719.00,0.0132
1718.00,0.0132
1717.00,0.0132
1716.00,0.0132
1715.00,0.0133
1714.00,0.0133
1713.00,0.0133
1712.00,0.0134
1711.00,0.0134
1710.00,0.0135
1709.00,0.0135
1708.00,0.0136
1707.00,0.0137
1706.00,0.0138
1705.00,0.0139
1704.00,0.0140
1703.00,0.0141
1702.00,0.0142
1701.00,0.0142
1700.00,0.0143
1699.00,0.0143
1698.00,0.0143
1697.00,0.0144
1696.00,0.0144
1695.00,0.0144
1694.00,0.0143
1693.00,0.0143
1692.00,0.0143
1691.00,0.0143
1690.00,0.0143
1689.00,0.0143
1688.00,0.0144
1687.00,0.0144
1686.00,0.0145
1685.00,0.0146
1684.00,0.0148
1683.00,0.0149
1682.00,0.0150
1681.00,0.0151
1680.00,0.0152
1679.00,0.0153
1678.00,0.0154
1677.00,0.0156
1676.00,0.0159
1675.00,0.0162
1674.00,0.0166
1673.00,0.0170
1672.00,0.0174
1671.00,0.0180
1670.00,0.0187
1669.00,0.0194
1668.00,0.0201
1667.00,0.0207
1666.00,0.0210
1665.00,0.0213
1664.00,0.0216
1663.00,0.0219
1662.00,0.0220
1661.00,0.0222
1660.00,0.0225
1659.00,0.0229
1658.00,0.0233
1657.00,0.0238
1656.00,0.0244
1655.00,0.0250
1654.00,0.0260
1653.00,0.0273
1652.00,0.0285
1651.00,0.0295
1650.00,0.0303
1649.00,0.0313
1648.00,0.0328
1647.00,0.0346
1646.00,0.0365
1645.00,0.0385
1644.00,0.0403
1643.00,0.0421
1642.00,0.0440
1641.00,0.0460
1640.00,0.0481
1639.00,0.0500
1638.00,0.0520
1637.00,0.0544
1636.00,0.0574
1635.00,0.0605
1634.00,0.0635
1633.00,0.0663
1632.00,0.0691
1631.00,0.0723
1630.00,0.0759
1629.00,0.0801
1628.00,0.0848
1627.00,0.0895
1626.00,0.0943
1625.00,0.0995
1624.00,0.1053
1623.00,0.1115
1622.00,0.1175
1621.00,0.1231
1620.00,0.1285
1619.00,0.1339
1618.00,0.1401
1617.00,0.1473
1616.00,0.1544
1615.00,0.1603
1614.00,0.1642
1613.00,0.1667
1612.00,0.1680
1611.00,0.1679
1610.00,0.1662
1609.00,0.1631
1608.00,0.1592
1607.00,0.1546
1606.00,0.1497
1605.00,0.1448
1604.00,0.1402
1603.00,0.1359
1602.00,0.1319
1601.00,0.1283
1600.00,0.1250
1599.00,0.1221
1598.00,0.1194
1597.00,0.1169
1596.00,0.1145
1595.00,0.1122
1594.00,0.1098
1593.00,0.1073
1592.00,0.1047
1591.00,0.1020
1590.00,0.0990
1589.00,0.0960
1588.00,0.0929
1587.00,0.0899
1586.00,0.0869
1585.00,0.0840
1584.00,0.0814
1583.00,0.0792
1582.00,0.0774
1581.00,0.0761
1580.00,0.0754
1579.00,0.0754
1578.00,0.0765
1577.00,0.0791
1576.00,0.0833
1575.00,0.0884
1574.00,0.0931
1573.00,0.0976
1572.00,0.1019
1571.00,0.1067
1570.00,0.1116
1569.00,0.1163
1568.00,0.1200
1567.00,0.1221
1566.00,0.1225
1565.00,0.1212
1564.00,0.1181
1563.00,0.1137
1562.00,0.1081
1561.00,0.1015
1560.00,0.0941
1559.00,0.0862
1558.00,0.0792
1557.00,0.0738
1556.00,0.0695
1555.00,0.0658
1554.00,0.0625
1553.00,0.0595
1552.00,0.0570
1551.00,0.0549
1550.00,0.0530
1549.00,0.0513
1548.00,0.0498
1547.00,0.0484
1546.00,0.0471
1545.00,0.0458
1544.00,0.0447
1543.00,0.0437
1542.00,0.0427
1541.00,0.0418
1540.00,0.0411
1539.00,0.0403
1538.00,0.0396
1537.00,0.0388
1536.00,0.0381
1535.00,0.0375
1534.00,0.0370
1533.00,0.0365
1532.00,0.0361
1531.00,0.0357
1530.00,0.0354
1529.00,0.0350
1528.00,0.0348
1527.00,0.0346
1526.00,0.0345
1525.00,0.0344
1524.00,0.0344
1523.00,0.0344
1522.00,0.0345
1521.00,0.0347
1520.00,0.0348
1519.00,0.0350
1518.00,0.0351
1517.00,0.0353
1516.00,0.0355
1515.00,0.0356
1514.00,0.0357
1513.00,0.0358
1512.00,0.0359
1511.00,0.0360
1510.00,0.0360
1509.00,0.0362
1508.00,0.0364
1507.00,0.0368
1506.00,0.0371
1505.00,0.0373
1504.00,0.0374
1503.00,0.0375
1502.00,0.0376
1501.00,0.0378
1500.00,0.0381
1499.00,0.0384
1498.00,0.0387
1497.00,0.0390
1496.00,0.0392
1495.00,0.0393
1494.00,0.0394
1493.00,0.0394
1492.00,0.0393
1491.00,0.0392
1490.00,0.0391
1489.00,0.0388
1488.00,0.0385
1487.00,0.0380
1486.00,0.0375
1485.00,0.0369
1484.00,0.0364
1483.00,0.0360
1482.00,0.0358
1481.00,0.0358
1480.00,0.0362
1479.00,0.0368
1478.00,0.0378
1477.00,0.0392
1476.00,0.0410
1475.00,0.0432
1474.00,0.0461
1473.00,0.0499
1472.00,0.0543
1471.00,0.0586
1470.00,0.0623
1469.00,0.0652
1468.00,0.0674
1467.00,0.0691
1466.00,0.0703
1465.00,0.0714
1464.00,0.0722
1463.00,0.0729
1462.00,0.0732
1461.00,0.0734
1460.00,0.0734
1459.00,0.0733
1458.00,0.0734
1457.00,0.0740
1456.00,0.0748
1455.00,0.0755
1454.00,0.0762
1453.00,0.0767
1452.00,0.0771
1451.00,0.0773
1450.00,0.0773
1449.00,0.0773
1448.00,0.0773
1447.00,0.0774
1446.00,0.0774
1445.00,0.0772
1444.00,0.0769
1443.00,0.0764
1442.00,0.0756
1441.00,0.0746
1440.00,0.0733
1439.00,0.0717
1438.00,0.0700
1437.00,0.0682
1436.00,0.0665
1435.00,0.0653
1434.00,0.0643
1433.00,0.0636
1432.00,0.0628
1431.00,0.0618
1430.00,0.0605
1429.00,0.0592
1428.00,0.0580
1427.00,0.0573
1426.00,0.0572
1425.00,0.0577
1424.00,0.0586
1423.00,0.0594
1422.00,0.0597
1421.00,0.0590
1420.00,0.0575
1419.00,0.0553
1418.00,0.0533
1417.00,0.0521
1416.00,0.0516
1415.00,0.0520
1414.00,0.0531
1413.00,0.0547
1412.00,0.0567
1411.00,0.0589
1410.00,0.0613
1409.00,0.0637
1408.00,0.0662
1407.00,0.0687
1406.00,0.0715
1405.00,0.0745
1404.00,0.0773
1403.00,0.0796
1402.00,0.0810
1401.00,0.0814
1400.00,0.0807
1399.00,0.0790
1398.00,0.0764
1397.00,0.0735
1396.00,0.0704
1395.00,0.0676
1394.00,0.0653
1393.00,0.0637
1392.00,0.0628
1391.00,0.0625
1390.00,0.0632
1389.00,0.0651
1388.00,0.0680
1387.00,0.0713
1386.00,0.0742
1385.00,0.0764
1384.00,0.0782
1383.00,0.0800
1382.00,0.0822
1381.00,0.0847
1380.00,0.0875
1379.00,0.0906
1378.00,0.0938
1377.00,0.0971
1376.00,0.1004
1375.00,0.1036
1374.00,0.1060
1373.00,0.1071
1372.00,0.1068
1371.00,0.1059
1370.00,0.1053
1369.00,0.1054
1368.00,0.1064
1367.00,0.1076
1366.00,0.1079
1365.00,0.1066
1364.00,0.1032
1363.00,0.0981
1362.00,0.0924
1361.00,0.0874
1360.00,0.0837
1359.00,0.0816
1358.00,0.0809
1357.00,0.0808
1356.00,0.0804
1355.00,0.0792
1354.00,0.0768
1353.00,0.0735
1352.00,0.0696
1351.00,0.0656
1350.00,0.0618
1349.00,0.0585
1348.00,0.0559
1347.00,0.0539
1346.00,0.0525
1345.00,0.0512
1344.00,0.0501
1343.00,0.0488
1342.00,0.0475
1341.00,0.0462
1340.00,0.0450
1339.00,0.0439
1338.00,0.0429
1337.00,0.0421
1336.00,0.0415
1335.00,0.0412
1334.00,0.0411
1333.00,0.0414
1332.00,0.0419
1331.00,0.0429
1330.00,0.0442
1329.00,0.0460
1328.00,0.0480
1327.00,0.0501
1326.00,0.0520
1325.00,0.0534
1324.00,0.0544
1323.00,0.0549
1322.00,0.0551
1321.00,0.0551
1320.00,0.0549
1319.00,0.0545
1318.00,0.0539
1317.00,0.0530
1316.00,0.0521
1315.00,0.0514
1314.00,0.0509
1313.00,0.0507
1312.00,0.0509
1311.00,0.0513
1310.00,0.0521
1309.00,0.0531
1308.00,0.0547
1307.00,0.0567
1306.00,0.0591
1305.00,0.0613
1304.00,0.0628
1303.00,0.0634
1302.00,0.0634
1301.00,0.0631
1300.00,0.0629
1299.00,0.0632
1298.00,0.0641
1297.00,0.0655
1296.00,0.0675
1295.00,0.0698
1294.00,0.0725
1293.00,0.0755
1292.00,0.0788
1291.00,0.0822
1290.00,0.0853
1289.00,0.0879
1288.00,0.0896
1287.00,0.0903
1286.00,0.0898
1285.00,0.0885
1284.00,0.0866
1283.00,0.0846
1282.00,0.0829
1281.00,0.0819
1280.00,0.0819
1279.00,0.0829
1278.00,0.0850
1277.00,0.0881
1276.00,0.0922
1275.00,0.0971
1274.00,0.1023
1273.00,0.1074
1272.00,0.1118
1271.00,0.1153
1270.00,0.1181
1269.00,0.1205
1268.00,0.1230
1267.00,0.1256
1266.00,0.1286
1265.00,0.1320
1264.00,0.1360
1263.00,0.1407
1262.00,0.1465
1261.00,0.1535
1260.00,0.1615
1259.00,0.1703
1258.00,0.1794
1257.00,0.1883
1256.00,0.1964
1255.00,0.2032
1254.00,0.2081
1253.00,0.2115
1252.00,0.2135
1251.00,0.2148
1250.00,0.2154
1249.00,0.2149
1248.00,0.2125
1247.00,0.2075
1246.00,0.2000
1245.00,0.1907
1244.00,0.1809
1243.00,0.1716
1242.00,0.1635
1241.00,0.1572
1240.00,0.1526
1239.00,0.1493
1238.00,0.1474
1237.00,0.1465
1236.00,0.1461
1235.00,0.1455
1234.00,0.1437
1233.00,0.1402
1232.00,0.1350
1231.00,0.1286
1230.00,0.1217
1229.00,0.1149
1228.00,0.1086
1227.00,0.1032
1226.00,0.0991
1225.00,0.0962
1224.00,0.0940
1223.00,0.0919
1222.00,0.0893
1221.00,0.0861
1220.00,0.0823
1219.00,0.0783
1218.00,0.0746
1217.00,0.0711
1216.00,0.0680
1215.00,0.0653
1214.00,0.0630
1213.00,0.0609
1212.00,0.0592
1211.00,0.0578
1210.00,0.0567
1209.00,0.0559
1208.00,0.0556
1207.00,0.0558
1206.00,0.0567
1205.00,0.0583
1204.00,0.0610
1203.00,0.0649
1202.00,0.0706
1201.00,0.0784
1200.00,0.0885
1199.00,0.1006
1198.00,0.1135
1197.00,0.1258
1196.00,0.1355
1195.00,0.1414
1194.00,0.1431
1193.00,0.1418
1192.00,0.1390
1191.00,0.1359
1190.00,0.1332
1189.00,0.1313
1188.00,0.1302
1187.00,0.1295
1186.00,0.1288
1185.00,0.1273
1184.00,0.1244
1183.00,0.1199
1182.00,0.1140
1181.00,0.1073
1180.00,0.1002
1179.00,0.0935
1178.00,0.0875
1177.00,0.0827
1176.00,0.0794
1175.00,0.0777
1174.00,0.0774
1173.00,0.0777
1172.00,0.0778
1171.00,0.0767
1170.00,0.0742
1169.00,0.0704
1168.00,0.0660
1167.00,0.0616
1166.00,0.0576
1165.00,0.0541
1164.00,0.0512
1163.00,0.0486
1162.00,0.0463
1161.00,0.0443
1160.00,0.0427
1159.00,0.0413
1158.00,0.0402
1157.00,0.0394
1156.00,0.0390
1155.00,0.0389
1154.00,0.0395
1153.00,0.0408
1152.00,0.0430
1151.00,0.0464
1150.00,0.0509
1149.00,0.0562
1148.00,0.0612
1147.00,0.0647
1146.00,0.0658
1145.00,0.0643
1144.00,0.0611
1143.00,0.0576
1142.00,0.0550
1141.00,0.0540
1140.00,0.0548
1139.00,0.0574
1138.00,0.0618
1137.00,0.0679
1136.00,0.0759
1135.00,0.0857
1134.00,0.0968
1133.00,0.1079
1132.00,0.1171
1131.00,0.1223
1130.00,0.1224
1129.00,0.1180
1128.00,0.1115
1127.00,0.1054
1126.00,0.1023
1125.00,0.1033
1124.00,0.1086
1123.00,0.1172
1122.00,0.1273
1121.00,0.1365
1120.00,0.1425
1119.00,0.1439
1118.00,0.1404
1117.00,0.1331
1116.00,0.1238
1115.00,0.1143
1114.00,0.1058
1113.00,0.0988
1112.00,0.0932
1111.00,0.0887
1110.00,0.0849
1109.00,0.0813
1108.00,0.0777
1107.00,0.0739
1106.00,0.0699
1105.00,0.0659
1104.00,0.0621
1103.00,0.0587
1102.00,0.0559
1101.00,0.0534
1100.00,0.0513
1099.00,0.0495
1098.00,0.0478
1097.00,0.0463
1096.00,0.0449
1095.00,0.0434
1094.00,0.0421
1093.00,0.0408
1092.00,0.0398
1091.00,0.0389
1090.00,0.0384
1089.00,0.0381
1088.00,0.0380
1087.00,0.0383
1086.00,0.0389
1085.00,0.0399
1084.00,0.0417
1083.00,0.0443
1082.00,0.0480
1081.00,0.0529
1080.00,0.0584
1079.00,0.0639
1078.00,0.0683
1077.00,0.0705
1076.00,0.0701
1075.00,0.0673
1074.00,0.0630
1073.00,0.0583
1072.00,0.0540
1071.00,0.0504
1070.00,0.0476
1069.00,0.0456
1068.00,0.0442
1067.00,0.0432
1066.00,0.0425
1065.00,0.0421
1064.00,0.0417
1063.00,0.0415
1062.00,0.0417
1061.00,0.0423
1060.00,0.0439
1059.00,0.0464
1058.00,0.0499
1057.00,0.0541
1056.00,0.0582
1055.00,0.0614
1054.00,0.0629
1053.00,0.0625
1052.00,0.0604
1051.00,0.0572
1050.00,0.0539
1049.00,0.0509
1048.00,0.0486
1047.00,0.0474
1046.00,0.0472
1045.00,0.0480
1044.00,0.0498
1043.00,0.0525
1042.00,0.0557
1041.00,0.0588
1040.00,0.0612
1039.00,0.0624
1038.00,0.0621
1037.00,0.0607
1036.00,0.0586
1035.00,0.0563
1034.00,0.0541
1033.00,0.0521
1032.00,0.0499
1031.00,0.0477
1030.00,0.0454
1029.00,0.0432
1028.00,0.0414
1027.00,0.0401
1026.00,0.0393
1025.00,0.0390
1024.00,0.0391
1023.00,0.0394
1022.00,0.0396
1021.00,0.0395
1020.00,0.0392
1019.00,0.0390
1018.00,0.0389
1017.00,0.0391
1016.00,0.0393
1015.00,0.0396
1014.00,0.0397
1013.00,0.0398
1012.00,0.0399
1011.00,0.0402
1010.00,0.0405
1009.00,0.0408
1008.00,0.0407
1007.00,0.0404
1006.00,0.0400
1005.00,0.0398
1004.00,0.0398
1003.00,0.0401
1002.00,0.0404
1001.00,0.0407
1000.00,0.0407
999.00,0.0404
998.00,0.0399
997.00,0.0394
996.00,0.0389
995.00,0.0386
994.00,0.0385
993.00,0.0383
992.00,0.0380
991.00,0.0374
990.00,0.0367
989.00,0.0360
988.00,0.0353
987.00,0.0347
986.00,0.0344
985.00,0.0342
984.00,0.0342
983.00,0.0344
982.00,0.0346
981.00,0.0348
980.00,0.0350
979.00,0.0351
978.00,0.0352
977.00,0.0353
976.00,0.0354
975.00,0.0354
974.00,0.0353
973.00,0.0350
972.00,0.0345
971.00,0.0339
970.00,0.0330
969.00,0.0320
968.00,0.0310
967.00,0.0302
966.00,0.0297
965.00,0.0293
964.00,0.0290
963.00,0.0288
962.00,0.0286
961.00,0.0284
960.00,0.0282
959.00,0.0281
958.00,0.0282
957.00,0.0285
956.00,0.0290
955.00,0.0296
954.00,0.0303
953.00,0.0312
952.00,0.0323
951.00,0.0335
950.00,0.0351
949.00,0.0368
948.00,0.0385
947.00,0.0400
946.00,0.0411
945.00,0.0416
944.00,0.0417
943.00,0.0413
942.00,0.0407
941.00,0.0399
940.00,0.0392
939.00,0.0386
938.00,0.0383
937.00,0.0382
936.00,0.0382
935.00,0.0383
934.00,0.0385
933.00,0.0388
932.00,0.0392
931.00,0.0398
930.00,0.0405
929.00,0.0415
928.00,0.0427
927.00,0.0441
926.00,0.0457
925.00,0.0473
924.00,0.0487
923.00,0.0498
922.00,0.0505
921.00,0.0511
920.00,0.0516
919.00,0.0523
918.00,0.0532
917.00,0.0546
916.00,0.0565
915.00,0.0590
914.00,0.0619
913.00,0.0650
912.00,0.0679
911.00,0.0704
910.00,0.0725
909.00,0.0743
908.00,0.0756
907.00,0.0762
906.00,0.0755
905.00,0.0735
904.00,0.0706
903.00,0.0675
902.00,0.0647
901.00,0.0625
900.00,0.0611
899.00,0.0607
898.00,0.0611
897.00,0.0622
896.00,0.0636
895.00,0.0650
894.00,0.0661
893.00,0.0668
892.00,0.0669
891.00,0.0662
890.00,0.0644
889.00,0.0618
888.00,0.0588
887.00,0.0558
886.00,0.0533
885.00,0.0513
884.00,0.0497
883.00,0.0485
882.00,0.0476
881.00,0.0469
880.00,0.0464
879.00,0.0461
878.00,0.0460
877.00,0.0461
876.00,0.0465
875.00,0.0470
874.00,0.0475
873.00,0.0480
872.00,0.0484
871.00,0.0487
870.00,0.0491
869.00,0.0499
868.00,0.0514
867.00,0.0538
866.00,0.0570
865.00,0.0609
864.00,0.0651
863.00,0.0693
862.00,0.0733
861.00,0.0774
860.00,0.0815
859.00,0.0853
858.00,0.0883
857.00,0.0899
856.00,0.0902
855.00,0.0898
854.00,0.0892
853.00,0.0889
852.00,0.0889
851.00,0.0891
850.00,0.0891
849.00,0.0888
848.00,0.0881
847.00,0.0870
846.00,0.0856
845.00,0.0839
844.00,0.0821
843.00,0.0805
842.00,0.0791
841.00,0.0780
840.00,0.0771
839.00,0.0766
838.00,0.0764
837.00,0.0766
836.00,0.0771
835.00,0.0773
834.00,0.0769
833.00,0.0755
832.00,0.0733
831.00,0.0705
830.00,0.0677
829.00,0.0651
828.00,0.0629
827.00,0.0609
826.00,0.0588
825.00,0.0565
824.00,0.0542
823.00,0.0520
822.00,0.0500
821.00,0.0484
820.00,0.0472
819.00,0.0465
818.00,0.0461
817.00,0.0461
816.00,0.0465
815.00,0.0475
814.00,0.0490
813.00,0.0511
812.00,0.0537
811.00,0.0564
810.00,0.0590
809.00,0.0610
808.00,0.0618
807.00,0.0610
806.00,0.0580
805.00,0.0535
804.00,0.0483
803.00,0.0436
802.00,0.0401
801.00,0.0379
800.00,0.0368
799.00,0.0363
798.00,0.0364
797.00,0.0369
796.00,0.0378
795.00,0.0393
794.00,0.0415
793.00,0.0444
792.00,0.0481
791.00,0.0521
790.00,0.0559
789.00,0.0588
788.00,0.0600
787.00,0.0594
786.00,0.0575
785.00,0.0550
784.00,0.0526
783.00,0.0506
782.00,0.0495
781.00,0.0491
780.00,0.0495
779.00,0.0507
778.00,0.0526
777.00,0.0551
776.00,0.0580
775.00,0.0609
774.00,0.0633
773.00,0.0647
772.00,0.0647
771.00,0.0631
770.00,0.0602
769.00,0.0568
768.00,0.0539
767.00,0.0520
766.00,0.0513
765.00,0.0515
764.00,0.0522
763.00,0.0530
762.00,0.0537
761.00,0.0542
760.00,0.0542
759.00,0.0539
758.00,0.0532
757.00,0.0524
756.00,0.0514
755.00,0.0504
754.00,0.0495
753.00,0.0486
752.00,0.0478
751.00,0.0472
750.00,0.0467
749.00,0.0462
748.00,0.0458
747.00,0.0456
746.00,0.0456
745.00,0.0459
744.00,0.0466
743.00,0.0477
742.00,0.0492
741.00,0.0509
740.00,0.0526
739.00,0.0539
738.00,0.0548
737.00,0.0550
736.00,0.0550
735.00,0.0547
734.00,0.0543
733.00,0.0540
732.00,0.0538
731.00,0.0537
730.00,0.0538
729.00,0.0543
728.00,0.0554
727.00,0.0573
726.00,0.0601
725.00,0.0635
724.00,0.0671
723.00,0.0705
722.00,0.0730
721.00,0.0748
720.00,0.0763
719.00,0.0780
718.00,0.0803
717.00,0.0832
716.00,0.0862
715.00,0.0885
714.00,0.0896
713.00,0.0893
712.00,0.0876
711.00,0.0849
710.00,0.0813
709.00,0.0772
708.00,0.0727
707.00,0.0683
706.00,0.0642
705.00,0.0603
704.00,0.0569
703.00,0.0540
702.00,0.0515
701.00,0.0494
700.00,0.0476
699.00,0.0461
698.00,0.0447
697.00,0.0435
696.00,0.0425
695.00,0.0417
694.00,0.0410
693.00,0.0404
692.00,0.0400
691.00,0.0394
690.00,0.0388
689.00,0.0382
688.00,0.0375
687.00,0.0370
686.00,0.0366
685.00,0.0361
684.00,0.0358
683.00,0.0355
682.00,0.0352
681.00,0.0351
680.00,0.0351
679.00,0.0352
678.00,0.0356
677.00,0.0362
676.00,0.0368
675.00,0.0373
674.00,0.0375
673.00,0.0375
672.00,0.0372
671.00,0.0370
670.00,0.0368
669.00,0.0367
668.00,0.0369
667.00,0.0373
666.00,0.0374
665.00,0.0375
664.00,0.0378
663.00,0.0385
662.00,0.0398
661.00,0.0413
660.00,0.0429
659.00,0.0443
658.00,0.0455
657.00,0.0466
656.00,0.0475
655.00,0.0484
654.00,0.0488
653.00,0.0487
652.00,0.0482
651.00,0.0476
650.00,0.0476
649.00,0.0485
648.00,0.0502
647.00,0.0522
646.00,0.0537
645.00,0.0543
644.00,0.0541
643.00,0.0537
642.00,0.0534
641.00,0.0534
640.00,0.0535
639.00,0.0534
638.00,0.0527
637.00,0.0513
636.00,0.0493
635.00,0.0470
634.00,0.0445
633.00,0.0422
632.00,0.0401
631.00,0.0383
630.00,0.0368
629.00,0.0358
628.00,0.0352
627.00,0.0352
626.00,0.0356
625.00,0.0364
624.00,0.0371
623.00,0.0376
622.00,0.0377
621.00,0.0378
620.00,0.0378
619.00,0.0376
618.00,0.0371
617.00,0.0363
616.00,0.0352
615.00,0.0344
614.00,0.0338
613.00,0.0336
612.00,0.0335
611.00,0.0335
610.00,0.0334
609.00,0.0333
608.00,0.0330
607.00,0.0325
606.00,0.0318
605.00,0.0313
604.00,0.0310
603.00,0.0312
602.00,0.0318
601.00,0.0328
600.00,0.0347
599.00,0.0374
598.00,0.0408
597.00,0.0446
596.00,0.0482
595.00,0.0512
594.00,0.0531
593.00,0.0535
592.00,0.0526
591.00,0.0504
590.00,0.0474
589.00,0.0440
588.00,0.0406
587.00,0.0375
586.00,0.0348
585.00,0.0324
584.00,0.0305
583.00,0.0291
582.00,0.0280
581.00,0.0272
580.00,0.0263
579.00,0.0256
578.00,0.0250
577.00,0.0247
576.00,0.0247
575.00,0.0250
574.00,0.0254
573.00,0.0260
572.00,0.0268
571.00,0.0281
570.00,0.0297
569.00,0.0312
568.00,0.0323
567.00,0.0327
566.00,0.0325
565.00,0.0319
564.00,0.0312
563.00,0.0307
562.00,0.0306
561.00,0.0309
560.00,0.0313
559.00,0.0319
558.00,0.0324
557.00,0.0330
556.00,0.0333
555.00,0.0333
554.00,0.0329
553.00,0.0323
552.00,0.0320
551.00,0.0322
550.00,0.0328
549.00,0.0336
548.00,0.0343
547.00,0.0348
546.00,0.0347
545.00,0.0339
544.00,0.0324
543.00,0.0305
542.00,0.0287
541.00,0.0271
540.00,0.0258
539.00,0.0250
538.00,0.0245
537.00,0.0243
536.00,0.0243
535.00,0.0244
534.00,0.0245
533.00,0.0248
532.00,0.0252
531.00,0.0261
530.00,0.0272
529.00,0.0287
528.00,0.0305
527.00,0.0325
526.00,0.0343
525.00,0.0354
524.00,0.0355
523.00,0.0345
522.00,0.0327
521.00,0.0307
520.00,0.0289
519.00,0.0275
518.00,0.0267
517.00,0.0264
516.00,0.0266
515.00,0.0271
514.00,0.0278
513.00,0.0288
512.00,0.0301
511.00,0.0317
510.00,0.0338
509.00,0.0366
508.00,0.0402
507.00,0.0445
506.00,0.0487
505.00,0.0522
504.00,0.0544
503.00,0.0550
502.00,0.0542
501.00,0.0525
500.00,0.0510
499.00,0.0506
498.00,0.0519
497.00,0.0550
496.00,0.0589
495.00,0.0622
494.00,0.0635
493.00,0.0621
492.00,0.0585
491.00,0.0537
490.00,0.0486
489.00,0.0440
488.00,0.0405
487.00,0.0379
486.00,0.0363
485.00,0.0357
484.00,0.0359
483.00,0.0369
482.00,0.0384
481.00,0.0402
480.00,0.0419
479.00,0.0434
478.00,0.0441
477.00,0.0442
476.00,0.0436
475.00,0.0426
474.00,0.0415
473.00,0.0407
472.00,0.0403
471.00,0.0403
470.00,0.0404
469.00,0.0403
468.00,0.0398
467.00,0.0390
466.00,0.0381
465.00,0.0371
464.00,0.0362
463.00,0.0355
462.00,0.0350
461.00,0.0346
460.00,0.0341
459.00,0.0338
458.00,0.0337
457.00,0.0340
456.00,0.0347
455.00,0.0357
454.00,0.0366
453.00,0.0373
452.00,0.0377
451.00,0.0381
450.00,0.0386
449.00,0.0388
448.00,0.0388
447.00,0.0388
446.00,0.0389
445.00,0.0392
444.00,0.0398
443.00,0.0409
442.00,0.0429
441.00,0.0457
440.00,0.0491
439.00,0.0523
438.00,0.0549
437.00,0.0563
436.00,0.0565
435.00,0.0560
434.00,0.0552
433.00,0.0546
432.00,0.0542
431.00,0.0542
430.00,0.0546
429.00,0.0553
428.00,0.0558
427.00,0.0562
426.00,0.0565
425.00,0.0570
424.00,0.0576
423.00,0.0578
422.00,0.0573
421.00,0.0559
420.00,0.0540
419.00,0.0520
418.00,0.0506
417.00,0.0499
416.00,0.0494
415.00,0.0493
414.00,0.0495
413.00,0.0499
412.00,0.0498
411.00,0.0486
410.00,0.0461
409.00,0.0428
408.00,0.0393
407.00,0.0365
406.00,0.0348
405.00,0.0341
404.00,0.0338
403.00,0.0336
402.00,0.0335
401.00,0.0339
400.00,0.0345
