Created as New Dataset,Sample 754 By YargerLab Date Tuesday, July 01 2025
cm-1,A
4000.00,0.0032
3999.00,0.0032
3998.00,0.0032
3997.00,0.0033
3996.00,0.0033
3995.00,0.0033
3994.00,0.0033
3993.00,0.0033
3992.00,0.0033
3991.00,0.0033
3990.00,0.0033
3989.00,0.0033
3988.00,0.0033
3987.00,0.0033
3986.00,0.0033
3985.00,0.0033
3984.00,0.0033
3983.00,0.0033
3982.00,0.0033
3981.00,0.0033
3980.00,0.0033
3979.00,0.0033
3978.00,0.0033
3977.00,0.0033
3976.00,0.0034
3975.00,0.0034
3974.00,0.0034
3973.00,0.0034
3972.00,0.0034
3971.00,0.0034
3970.00,0.0034
3969.00,0.0034
3968.00,0.0034
3967.00,0.0034
3966.00,0.0034
3965.00,0.0034
3964.00,0.0034
3963.00,0.0034
3962.00,0.0034
3961.00,0.0034
3960.00,0.0034
3959.00,0.0034
3958.00,0.0034
3957.00,0.0034
3956.00,0.0034
3955.00,0.0033
3954.00,0.0033
3953.00,0.0033
3952.00,0.0034
3951.00,0.0034
3950.00,0.0034
3949.00,0.0035
3948.00,0.0036
3947.00,0.0036
3946.00,0.0036
3945.00,0.0035
3944.00,0.0034
3943.00,0.0034
3942.00,0.0033
3941.00,0.0033
3940.00,0.0034
3939.00,0.0034
3938.00,0.0034
3937.00,0.0034
3936.00,0.0034
3935.00,0.0035
3934.00,0.0035
3933.00,0.0036
3932.00,0.0035
3931.00,0.0035
3930.00,0.0034
3929.00,0.0034
3928.00,0.0033
3927.00,0.0033
3926.00,0.0033
3925.00,0.0032
3924.00,0.0032
3923.00,0.0033
3922.00,0.0034
3921.00,0.0035
3920.00,0.0035
3919.00,0.0036
3918.00,0.0036
3917.00,0.0036
3916.00,0.0035
3915.00,0.0034
3914.00,0.0034
3913.00,0.0033
3912.00,0.0033
3911.00,0.0033
3910.00,0.0033
3909.00,0.0033
3908.00,0.0033
3907.00,0.0033
3906.00,0.0033
3905.00,0.0035
3904.00,0.0036
3903.00,0.0038
3902.00,0.0040
3901.00,0.0040
3900.00,0.0039
3899.00,0.0037
3898.00,0.0036
3897.00,0.0035
3896.00,0.0035
3895.00,0.0035
3894.00,0.0034
3893.00,0.0034
3892.00,0.0033
3891.00,0.0034
3890.00,0.0034
3889.00,0.0035
3888.00,0.0036
3887.00,0.0037
3886.00,0.0037
3885.00,0.0036
3884.00,0.0035
3883.00,0.0035
3882.00,0.0036
3881.00,0.0035
3880.00,0.0035
3879.00,0.0035
3878.00,0.0036
3877.00,0.0036
3876.00,0.0036
3875.00,0.0035
3874.00,0.0034
3873.00,0.0034
3872.00,0.0036
3871.00,0.0037
3870.00,0.0038
3869.00,0.0037
3868.00,0.0037
3867.00,0.0038
3866.00,0.0038
3865.00,0.0038
3864.00,0.0037
3863.00,0.0037
3862.00,0.0037
3861.00,0.0038
3860.00,0.0037
3859.00,0.0036
3858.00,0.0034
3857.00,0.0032
3856.00,0.0031
3855.00,0.0031
3854.00,0.0032
3853.00,0.0033
3852.00,0.0034
3851.00,0.0035
3850.00,0.0035
3849.00,0.0036
3848.00,0.0036
3847.00,0.0036
3846.00,0.0036
3845.00,0.0036
3844.00,0.0036
3843.00,0.0036
3842.00,0.0036
3841.00,0.0036
3840.00,0.0036
3839.00,0.0036
3838.00,0.0036
3837.00,0.0035
3836.00,0.0035
3835.00,0.0036
3834.00,0.0036
3833.00,0.0036
3832.00,0.0036
3831.00,0.0036
3830.00,0.0036
3829.00,0.0035
3828.00,0.0035
3827.00,0.0035
3826.00,0.0035
3825.00,0.0035
3824.00,0.0036
3823.00,0.0038
3822.00,0.0038
3821.00,0.0037
3820.00,0.0036
3819.00,0.0036
3818.00,0.0036
3817.00,0.0036
3816.00,0.0036
3815.00,0.0034
3814.00,0.0034
3813.00,0.0034
3812.00,0.0034
3811.00,0.0034
3810.00,0.0034
3809.00,0.0034
3808.00,0.0035
3807.00,0.0035
3806.00,0.0035
3805.00,0.0034
3804.00,0.0035
3803.00,0.0035
3802.00,0.0035
3801.00,0.0034
3800.00,0.0034
3799.00,0.0034
3798.00,0.0035
3797.00,0.0035
3796.00,0.0035
3795.00,0.0034
3794.00,0.0034
3793.00,0.0033
3792.00,0.0033
3791.00,0.0032
3790.00,0.0032
3789.00,0.0032
3788.00,0.0032
3787.00,0.0032
3786.00,0.0032
3785.00,0.0032
3784.00,0.0033
3783.00,0.0033
3782.00,0.0033
3781.00,0.0034
3780.00,0.0033
3779.00,0.0033
3778.00,0.0033
3777.00,0.0033
3776.00,0.0033
3775.00,0.0033
3774.00,0.0033
3773.00,0.0033
3772.00,0.0034
3771.00,0.0035
3770.00,0.0035
3769.00,0.0036
3768.00,0.0036
3767.00,0.0036
3766.00,0.0036
3765.00,0.0036
3764.00,0.0035
3763.00,0.0036
3762.00,0.0036
3761.00,0.0037
3760.00,0.0036
3759.00,0.0036
3758.00,0.0037
3757.00,0.0037
3756.00,0.0037
3755.00,0.0038
3754.00,0.0038
3753.00,0.0039
3752.00,0.0040
3751.00,0.0041
3750.00,0.0043
3749.00,0.0043
3748.00,0.0043
3747.00,0.0042
3746.00,0.0043
3745.00,0.0043
3744.00,0.0041
3743.00,0.0040
3742.00,0.0040
3741.00,0.0040
3740.00,0.0042
3739.00,0.0043
3738.00,0.0044
3737.00,0.0043
3736.00,0.0042
3735.00,0.0041
3734.00,0.0041
3733.00,0.0041
3732.00,0.0041
3731.00,0.0040
3730.00,0.0039
3729.00,0.0039
3728.00,0.0039
3727.00,0.0039
3726.00,0.0038
3725.00,0.0037
3724.00,0.0037
3723.00,0.0037
3722.00,0.0036
3721.00,0.0036
3720.00,0.0035
3719.00,0.0035
3718.00,0.0035
3717.00,0.0035
3716.00,0.0035
3715.00,0.0035
3714.00,0.0036
3713.00,0.0036
3712.00,0.0036
3711.00,0.0036
3710.00,0.0036
3709.00,0.0037
3708.00,0.0036
3707.00,0.0035
3706.00,0.0034
3705.00,0.0034
3704.00,0.0033
3703.00,0.0033
3702.00,0.0032
3701.00,0.0032
3700.00,0.0032
3699.00,0.0032
3698.00,0.0032
3697.00,0.0032
3696.00,0.0032
3695.00,0.0032
3694.00,0.0032
3693.00,0.0032
3692.00,0.0031
3691.00,0.0031
3690.00,0.0031
3689.00,0.0032
3688.00,0.0033
3687.00,0.0032
3686.00,0.0032
3685.00,0.0031
3684.00,0.0031
3683.00,0.0030
3682.00,0.0030
3681.00,0.0029
3680.00,0.0029
3679.00,0.0028
3678.00,0.0028
3677.00,0.0029
3676.00,0.0028
3675.00,0.0027
3674.00,0.0026
3673.00,0.0026
3672.00,0.0027
3671.00,0.0026
3670.00,0.0025
3669.00,0.0023
3668.00,0.0022
3667.00,0.0022
3666.00,0.0021
3665.00,0.0020
3664.00,0.0019
3663.00,0.0019
3662.00,0.0018
3661.00,0.0018
3660.00,0.0018
3659.00,0.0019
3658.00,0.0019
3657.00,0.0020
3656.00,0.0021
3655.00,0.0021
3654.00,0.0022
3653.00,0.0024
3652.00,0.0026
3651.00,0.0027
3650.00,0.0027
3649.00,0.0029
3648.00,0.0030
3647.00,0.0030
3646.00,0.0029
3645.00,0.0028
3644.00,0.0028
3643.00,0.0027
3642.00,0.0027
3641.00,0.0026
3640.00,0.0026
3639.00,0.0026
3638.00,0.0026
3637.00,0.0027
3636.00,0.0028
3635.00,0.0030
3634.00,0.0033
3633.00,0.0034
3632.00,0.0036
3631.00,0.0039
3630.00,0.0041
3629.00,0.0042
3628.00,0.0043
3627.00,0.0043
3626.00,0.0044
3625.00,0.0044
3624.00,0.0044
3623.00,0.0044
3622.00,0.0044
3621.00,0.0044
3620.00,0.0044
3619.00,0.0045
3618.00,0.0046
3617.00,0.0048
3616.00,0.0049
3615.00,0.0050
3614.00,0.0051
3613.00,0.0052
3612.00,0.0053
3611.00,0.0054
3610.00,0.0054
3609.00,0.0054
3608.00,0.0053
3607.00,0.0052
3606.00,0.0051
3605.00,0.0051
3604.00,0.0051
3603.00,0.0050
3602.00,0.0050
3601.00,0.0050
3600.00,0.0050
3599.00,0.0050
3598.00,0.0051
3597.00,0.0051
3596.00,0.0051
3595.00,0.0052
3594.00,0.0052
3593.00,0.0053
3592.00,0.0054
3591.00,0.0055
3590.00,0.0056
3589.00,0.0057
3588.00,0.0056
3587.00,0.0056
3586.00,0.0057
3585.00,0.0057
3584.00,0.0057
3583.00,0.0057
3582.00,0.0057
3581.00,0.0056
3580.00,0.0056
3579.00,0.0056
3578.00,0.0056
3577.00,0.0057
3576.00,0.0057
3575.00,0.0058
3574.00,0.0058
3573.00,0.0059
3572.00,0.0061
3571.00,0.0062
3570.00,0.0064
3569.00,0.0066
3568.00,0.0067
3567.00,0.0068
3566.00,0.0068
3565.00,0.0069
3564.00,0.0069
3563.00,0.0070
3562.00,0.0070
3561.00,0.0069
3560.00,0.0069
3559.00,0.0070
3558.00,0.0070
3557.00,0.0071
3556.00,0.0072
3555.00,0.0073
3554.00,0.0074
3553.00,0.0075
3552.00,0.0076
3551.00,0.0077
3550.00,0.0079
3549.00,0.0081
3548.00,0.0082
3547.00,0.0083
3546.00,0.0084
3545.00,0.0085
3544.00,0.0086
3543.00,0.0086
3542.00,0.0087
3541.00,0.0087
3540.00,0.0088
3539.00,0.0088
3538.00,0.0089
3537.00,0.0090
3536.00,0.0091
3535.00,0.0092
3534.00,0.0094
3533.00,0.0095
3532.00,0.0096
3531.00,0.0098
3530.00,0.0099
3529.00,0.0101
3528.00,0.0103
3527.00,0.0105
3526.00,0.0107
3525.00,0.0108
3524.00,0.0109
3523.00,0.0110
3522.00,0.0111
3521.00,0.0112
3520.00,0.0113
3519.00,0.0114
3518.00,0.0115
3517.00,0.0117
3516.00,0.0118
3515.00,0.0120
3514.00,0.0122
3513.00,0.0123
3512.00,0.0125
3511.00,0.0127
3510.00,0.0129
3509.00,0.0130
3508.00,0.0132
3507.00,0.0134
3506.00,0.0136
3505.00,0.0138
3504.00,0.0140
3503.00,0.0143
3502.00,0.0145
3501.00,0.0147
3500.00,0.0149
3499.00,0.0150
3498.00,0.0152
3497.00,0.0154
3496.00,0.0156
3495.00,0.0158
3494.00,0.0161
3493.00,0.0163
3492.00,0.0165
3491.00,0.0168
3490.00,0.0170
3489.00,0.0173
3488.00,0.0176
3487.00,0.0178
3486.00,0.0181
3485.00,0.0184
3484.00,0.0186
3483.00,0.0189
3482.00,0.0192
3481.00,0.0195
3480.00,0.0198
3479.00,0.0201
3478.00,0.0204
3477.00,0.0207
3476.00,0.0209
3475.00,0.0212
3474.00,0.0215
3473.00,0.0218
3472.00,0.0222
3471.00,0.0225
3470.00,0.0228
3469.00,0.0231
3468.00,0.0234
3467.00,0.0236
3466.00,0.0239
3465.00,0.0242
3464.00,0.0245
3463.00,0.0247
3462.00,0.0250
3461.00,0.0253
3460.00,0.0255
3459.00,0.0258
3458.00,0.0259
3457.00,0.0261
3456.00,0.0263
3455.00,0.0265
3454.00,0.0267
3453.00,0.0269
3452.00,0.0271
3451.00,0.0272
3450.00,0.0274
3449.00,0.0275
3448.00,0.0277
3447.00,0.0279
3446.00,0.0281
3445.00,0.0283
3444.00,0.0284
3443.00,0.0285
3442.00,0.0286
3441.00,0.0287
3440.00,0.0288
3439.00,0.0289
3438.00,0.0290
3437.00,0.0291
3436.00,0.0292
3435.00,0.0292
3434.00,0.0293
3433.00,0.0293
3432.00,0.0294
3431.00,0.0295
3430.00,0.0295
3429.00,0.0296
3428.00,0.0296
3427.00,0.0296
3426.00,0.0296
3425.00,0.0296
3424.00,0.0297
3423.00,0.0297
3422.00,0.0297
3421.00,0.0298
3420.00,0.0298
3419.00,0.0299
3418.00,0.0299
3417.00,0.0300
3416.00,0.0300
3415.00,0.0300
3414.00,0.0300
3413.00,0.0300
3412.00,0.0301
3411.00,0.0301
3410.00,0.0301
3409.00,0.0301
3408.00,0.0301
3407.00,0.0301
3406.00,0.0302
3405.00,0.0302
3404.00,0.0302
3403.00,0.0302
3402.00,0.0303
3401.00,0.0303
3400.00,0.0304
3399.00,0.0304
3398.00,0.0304
3397.00,0.0304
3396.00,0.0305
3395.00,0.0305
3394.00,0.0305
3393.00,0.0305
3392.00,0.0305
3391.00,0.0306
3390.00,0.0306
3389.00,0.0306
3388.00,0.0306
3387.00,0.0306
3386.00,0.0306
3385.00,0.0306
3384.00,0.0307
3383.00,0.0307
3382.00,0.0308
3381.00,0.0308
3380.00,0.0309
3379.00,0.0309
3378.00,0.0309
3377.00,0.0310
3376.00,0.0310
3375.00,0.0311
3374.00,0.0311
3373.00,0.0311
3372.00,0.0311
3371.00,0.0311
3370.00,0.0311
3369.00,0.0311
3368.00,0.0312
3367.00,0.0312
3366.00,0.0313
3365.00,0.0314
3364.00,0.0315
3363.00,0.0315
3362.00,0.0315
3361.00,0.0315
3360.00,0.0316
3359.00,0.0316
3358.00,0.0317
3357.00,0.0317
3356.00,0.0318
3355.00,0.0318
3354.00,0.0318
3353.00,0.0319
3352.00,0.0319
3351.00,0.0319
3350.00,0.0319
3349.00,0.0320
3348.00,0.0321
3347.00,0.0321
3346.00,0.0322
3345.00,0.0322
3344.00,0.0322
3343.00,0.0321
3342.00,0.0321
3341.00,0.0321
3340.00,0.0321
3339.00,0.0322
3338.00,0.0323
3337.00,0.0324
3336.00,0.0325
3335.00,0.0326
3334.00,0.0327
3333.00,0.0327
3332.00,0.0328
3331.00,0.0328
3330.00,0.0328
3329.00,0.0327
3328.00,0.0327
3327.00,0.0327
3326.00,0.0327
3325.00,0.0327
3324.00,0.0328
3323.00,0.0329
3322.00,0.0329
3321.00,0.0330
3320.00,0.0330
3319.00,0.0331
3318.00,0.0331
3317.00,0.0331
3316.00,0.0332
3315.00,0.0332
3314.00,0.0332
3313.00,0.0331
3312.00,0.0331
3311.00,0.0330
3310.00,0.0328
3309.00,0.0327
3308.00,0.0327
3307.00,0.0327
3306.00,0.0327
3305.00,0.0328
3304.00,0.0329
3303.00,0.0330
3302.00,0.0330
3301.00,0.0331
3300.00,0.0330
3299.00,0.0330
3298.00,0.0329
3297.00,0.0329
3296.00,0.0329
3295.00,0.0328
3294.00,0.0328
3293.00,0.0328
3292.00,0.0329
3291.00,0.0329
3290.00,0.0330
3289.00,0.0330
3288.00,0.0330
3287.00,0.0330
3286.00,0.0330
3285.00,0.0329
3284.00,0.0329
3283.00,0.0329
3282.00,0.0328
3281.00,0.0328
3280.00,0.0328
3279.00,0.0327
3278.00,0.0327
3277.00,0.0327
3276.00,0.0326
3275.00,0.0326
3274.00,0.0325
3273.00,0.0325
3272.00,0.0325
3271.00,0.0324
3270.00,0.0324
3269.00,0.0324
3268.00,0.0324
3267.00,0.0324
3266.00,0.0324
3265.00,0.0324
3264.00,0.0324
3263.00,0.0324
3262.00,0.0324
3261.00,0.0323
3260.00,0.0323
3259.00,0.0322
3258.00,0.0322
3257.00,0.0322
3256.00,0.0322
3255.00,0.0322
3254.00,0.0322
3253.00,0.0322
3252.00,0.0321
3251.00,0.0321
3250.00,0.0320
3249.00,0.0319
3248.00,0.0319
3247.00,0.0318
3246.00,0.0318
3245.00,0.0318
3244.00,0.0318
3243.00,0.0317
3242.00,0.0317
3241.00,0.0316
3240.00,0.0316
3239.00,0.0315
3238.00,0.0314
3237.00,0.0313
3236.00,0.0312
3235.00,0.0311
3234.00,0.0311
3233.00,0.0311
3232.00,0.0311
3231.00,0.0311
3230.00,0.0311
3229.00,0.0311
3228.00,0.0310
3227.00,0.0309
3226.00,0.0308
3225.00,0.0308
3224.00,0.0307
3223.00,0.0307
3222.00,0.0307
3221.00,0.0306
3220.00,0.0306
3219.00,0.0305
3218.00,0.0305
3217.00,0.0305
3216.00,0.0304
3215.00,0.0304
3214.00,0.0304
3213.00,0.0303
3212.00,0.0303
3211.00,0.0302
3210.00,0.0302
3209.00,0.0302
3208.00,0.0302
3207.00,0.0301
3206.00,0.0301
3205.00,0.0301
3204.00,0.0300
3203.00,0.0300
3202.00,0.0299
3201.00,0.0298
3200.00,0.0298
3199.00,0.0297
3198.00,0.0297
3197.00,0.0297
3196.00,0.0296
3195.00,0.0295
3194.00,0.0294
3193.00,0.0294
3192.00,0.0293
3191.00,0.0292
3190.00,0.0291
3189.00,0.0291
3188.00,0.0290
3187.00,0.0289
3186.00,0.0288
3185.00,0.0287
3184.00,0.0287
3183.00,0.0286
3182.00,0.0285
3181.00,0.0284
3180.00,0.0283
3179.00,0.0282
3178.00,0.0282
3177.00,0.0281
3176.00,0.0280
3175.00,0.0280
3174.00,0.0279
3173.00,0.0278
3172.00,0.0277
3171.00,0.0276
3170.00,0.0274
3169.00,0.0273
3168.00,0.0273
3167.00,0.0272
3166.00,0.0271
3165.00,0.0270
3164.00,0.0269
3163.00,0.0267
3162.00,0.0266
3161.00,0.0265
3160.00,0.0264
3159.00,0.0263
3158.00,0.0262
3157.00,0.0261
3156.00,0.0259
3155.00,0.0258
3154.00,0.0257
3153.00,0.0256
3152.00,0.0255
3151.00,0.0254
3150.00,0.0253
3149.00,0.0252
3148.00,0.0251
3147.00,0.0251
3146.00,0.0250
3145.00,0.0249
3144.00,0.0248
3143.00,0.0248
3142.00,0.0247
3141.00,0.0246
3140.00,0.0244
3139.00,0.0243
3138.00,0.0242
3137.00,0.0241
3136.00,0.0240
3135.00,0.0239
3134.00,0.0238
3133.00,0.0237
3132.00,0.0236
3131.00,0.0235
3130.00,0.0234
3129.00,0.0233
3128.00,0.0231
3127.00,0.0230
3126.00,0.0229
3125.00,0.0228
3124.00,0.0227
3123.00,0.0226
3122.00,0.0225
3121.00,0.0224
3120.00,0.0223
3119.00,0.0222
3118.00,0.0221
3117.00,0.0220
3116.00,0.0219
3115.00,0.0218
3114.00,0.0217
3113.00,0.0216
3112.00,0.0216
3111.00,0.0215
3110.00,0.0214
3109.00,0.0213
3108.00,0.0212
3107.00,0.0211
3106.00,0.0210
3105.00,0.0210
3104.00,0.0209
3103.00,0.0209
3102.00,0.0208
3101.00,0.0208
3100.00,0.0208
3099.00,0.0207
3098.00,0.0206
3097.00,0.0206
3096.00,0.0205
3095.00,0.0205
3094.00,0.0205
3093.00,0.0205
3092.00,0.0205
3091.00,0.0205
3090.00,0.0205
3089.00,0.0206
3088.00,0.0206
3087.00,0.0206
3086.00,0.0207
3085.00,0.0208
3084.00,0.0210
3083.00,0.0211
3082.00,0.0213
3081.00,0.0214
3080.00,0.0215
3079.00,0.0216
3078.00,0.0217
3077.00,0.0218
3076.00,0.0218
3075.00,0.0219
3074.00,0.0219
3073.00,0.0218
3072.00,0.0218
3071.00,0.0216
3070.00,0.0215
3069.00,0.0212
3068.00,0.0210
3067.00,0.0207
3066.00,0.0204
3065.00,0.0200
3064.00,0.0197
3063.00,0.0193
3062.00,0.0190
3061.00,0.0187
3060.00,0.0184
3059.00,0.0182
3058.00,0.0180
3057.00,0.0178
3056.00,0.0177
3055.00,0.0176
3054.00,0.0176
3053.00,0.0175
3052.00,0.0174
3051.00,0.0174
3050.00,0.0173
3049.00,0.0173
3048.00,0.0172
3047.00,0.0172
3046.00,0.0172
3045.00,0.0172
3044.00,0.0171
3043.00,0.0171
3042.00,0.0171
3041.00,0.0171
3040.00,0.0171
3039.00,0.0171
3038.00,0.0171
3037.00,0.0171
3036.00,0.0171
3035.00,0.0171
3034.00,0.0170
3033.00,0.0170
3032.00,0.0170
3031.00,0.0169
3030.00,0.0168
3029.00,0.0167
3028.00,0.0166
3027.00,0.0165
3026.00,0.0165
3025.00,0.0164
3024.00,0.0163
3023.00,0.0163
3022.00,0.0162
3021.00,0.0162
3020.00,0.0161
3019.00,0.0161
3018.00,0.0160
3017.00,0.0159
3016.00,0.0157
3015.00,0.0156
3014.00,0.0155
3013.00,0.0154
3012.00,0.0152
3011.00,0.0151
3010.00,0.0149
3009.00,0.0147
3008.00,0.0144
3007.00,0.0141
3006.00,0.0138
3005.00,0.0135
3004.00,0.0133
3003.00,0.0130
3002.00,0.0128
3001.00,0.0126
3000.00,0.0124
2999.00,0.0123
2998.00,0.0123
2997.00,0.0123
2996.00,0.0124
2995.00,0.0126
2994.00,0.0127
2993.00,0.0129
2992.00,0.0131
2991.00,0.0134
2990.00,0.0136
2989.00,0.0139
2988.00,0.0141
2987.00,0.0141
2986.00,0.0139
2985.00,0.0133
2984.00,0.0124
2983.00,0.0115
2982.00,0.0110
2981.00,0.0113
2980.00,0.0123
2979.00,0.0138
2978.00,0.0155
2977.00,0.0172
2976.00,0.0187
2975.00,0.0200
2974.00,0.0212
2973.00,0.0222
2972.00,0.0234
2971.00,0.0248
2970.00,0.0267
2969.00,0.0289
2968.00,0.0311
2967.00,0.0333
2966.00,0.0354
2965.00,0.0373
2964.00,0.0392
2963.00,0.0409
2962.00,0.0425
2961.00,0.0438
2960.00,0.0450
2959.00,0.0459
2958.00,0.0467
2957.00,0.0472
2956.00,0.0476
2955.00,0.0478
2954.00,0.0479
2953.00,0.0478
2952.00,0.0476
2951.00,0.0473
2950.00,0.0470
2949.00,0.0469
2948.00,0.0468
2947.00,0.0470
2946.00,0.0475
2945.00,0.0482
2944.00,0.0492
2943.00,0.0504
2942.00,0.0518
2941.00,0.0534
2940.00,0.0551
2939.00,0.0570
2938.00,0.0591
2937.00,0.0612
2936.00,0.0634
2935.00,0.0656
2934.00,0.0677
2933.00,0.0697
2932.00,0.0715
2931.00,0.0732
2930.00,0.0747
2929.00,0.0760
2928.00,0.0770
2927.00,0.0778
2926.00,0.0783
2925.00,0.0785
2924.00,0.0785
2923.00,0.0781
2922.00,0.0775
2921.00,0.0767
2920.00,0.0757
2919.00,0.0745
2918.00,0.0732
2917.00,0.0717
2916.00,0.0703
2915.00,0.0688
2914.00,0.0673
2913.00,0.0658
2912.00,0.0643
2911.00,0.0629
2910.00,0.0614
2909.00,0.0600
2908.00,0.0585
2907.00,0.0571
2906.00,0.0558
2905.00,0.0546
2904.00,0.0535
2903.00,0.0524
2902.00,0.0514
2901.00,0.0505
2900.00,0.0496
2899.00,0.0488
2898.00,0.0480
2897.00,0.0472
2896.00,0.0464
2895.00,0.0456
2894.00,0.0448
2893.00,0.0440
2892.00,0.0433
2891.00,0.0426
2890.00,0.0420
2889.00,0.0415
2888.00,0.0410
2887.00,0.0407
2886.00,0.0403
2885.00,0.0400
2884.00,0.0397
2883.00,0.0396
2882.00,0.0397
2881.00,0.0399
2880.00,0.0402
2879.00,0.0407
2878.00,0.0412
2877.00,0.0417
2876.00,0.0423
2875.00,0.0430
2874.00,0.0436
2873.00,0.0442
2872.00,0.0446
2871.00,0.0449
2870.00,0.0450
2869.00,0.0449
2868.00,0.0449
2867.00,0.0449
2866.00,0.0451
2865.00,0.0455
2864.00,0.0463
2863.00,0.0473
2862.00,0.0484
2861.00,0.0497
2860.00,0.0510
2859.00,0.0521
2858.00,0.0530
2857.00,0.0535
2856.00,0.0535
2855.00,0.0530
2854.00,0.0521
2853.00,0.0507
2852.00,0.0491
2851.00,0.0473
2850.00,0.0453
2849.00,0.0432
2848.00,0.0412
2847.00,0.0392
2846.00,0.0373
2845.00,0.0354
2844.00,0.0337
2843.00,0.0322
2842.00,0.0309
2841.00,0.0299
2840.00,0.0290
2839.00,0.0285
2838.00,0.0282
2837.00,0.0280
2836.00,0.0280
2835.00,0.0280
2834.00,0.0280
2833.00,0.0279
2832.00,0.0277
2831.00,0.0274
2830.00,0.0268
2829.00,0.0262
2828.00,0.0253
2827.00,0.0244
2826.00,0.0234
2825.00,0.0224
2824.00,0.0214
2823.00,0.0205
2822.00,0.0196
2821.00,0.0189
2820.00,0.0182
2819.00,0.0175
2818.00,0.0170
2817.00,0.0165
2816.00,0.0161
2815.00,0.0157
2814.00,0.0153
2813.00,0.0150
2812.00,0.0148
2811.00,0.0145
2810.00,0.0143
2809.00,0.0141
2808.00,0.0139
2807.00,0.0137
2806.00,0.0135
2805.00,0.0134
2804.00,0.0132
2803.00,0.0130
2802.00,0.0129
2801.00,0.0127
2800.00,0.0126
2799.00,0.0124
2798.00,0.0123
2797.00,0.0122
2796.00,0.0121
2795.00,0.0120
2794.00,0.0119
2793.00,0.0118
2792.00,0.0117
2791.00,0.0116
2790.00,0.0115
2789.00,0.0114
2788.00,0.0113
2787.00,0.0113
2786.00,0.0112
2785.00,0.0112
2784.00,0.0111
2783.00,0.0111
2782.00,0.0111
2781.00,0.0110
2780.00,0.0110
2779.00,0.0109
2778.00,0.0109
2777.00,0.0108
2776.00,0.0108
2775.00,0.0107
2774.00,0.0107
2773.00,0.0107
2772.00,0.0106
2771.00,0.0106
2770.00,0.0106
2769.00,0.0106
2768.00,0.0106
2767.00,0.0105
2766.00,0.0105
2765.00,0.0105
2764.00,0.0105
2763.00,0.0105
2762.00,0.0105
2761.00,0.0105
2760.00,0.0105
2759.00,0.0105
2758.00,0.0105
2757.00,0.0105
2756.00,0.0105
2755.00,0.0105
2754.00,0.0105
2753.00,0.0105
2752.00,0.0105
2751.00,0.0105
2750.00,0.0105
2749.00,0.0105
2748.00,0.0105
2747.00,0.0105
2746.00,0.0105
2745.00,0.0105
2744.00,0.0105
2743.00,0.0106
2742.00,0.0106
2741.00,0.0106
2740.00,0.0107
2739.00,0.0107
2738.00,0.0108
2737.00,0.0108
2736.00,0.0109
2735.00,0.0110
2734.00,0.0110
2733.00,0.0111
2732.00,0.0112
2731.00,0.0112
2730.00,0.0112
2729.00,0.0113
2728.00,0.0113
2727.00,0.0113
2726.00,0.0112
2725.00,0.0112
2724.00,0.0112
2723.00,0.0111
2722.00,0.0111
2721.00,0.0110
2720.00,0.0109
2719.00,0.0109
2718.00,0.0108
2717.00,0.0107
2716.00,0.0106
2715.00,0.0105
2714.00,0.0105
2713.00,0.0104
2712.00,0.0104
2711.00,0.0104
2710.00,0.0103
2709.00,0.0103
2708.00,0.0102
2707.00,0.0102
2706.00,0.0102
2705.00,0.0102
2704.00,0.0102
2703.00,0.0102
2702.00,0.0102
2701.00,0.0102
2700.00,0.0101
2699.00,0.0101
2698.00,0.0101
2697.00,0.0101
2696.00,0.0101
2695.00,0.0101
2694.00,0.0101
2693.00,0.0101
2692.00,0.0101
2691.00,0.0101
2690.00,0.0101
2689.00,0.0101
2688.00,0.0101
2687.00,0.0101
2686.00,0.0101
2685.00,0.0101
2684.00,0.0101
2683.00,0.0101
2682.00,0.0101
2681.00,0.0101
2680.00,0.0101
2679.00,0.0101
2678.00,0.0100
2677.00,0.0100
2676.00,0.0100
2675.00,0.0100
2674.00,0.0100
2673.00,0.0100
2672.00,0.0100
2671.00,0.0100
2670.00,0.0100
2669.00,0.0100
2668.00,0.0100
2667.00,0.0100
2666.00,0.0100
2665.00,0.0100
2664.00,0.0100
2663.00,0.0101
2662.00,0.0101
2661.00,0.0101
2660.00,0.0101
2659.00,0.0100
2658.00,0.0100
2657.00,0.0100
2656.00,0.0099
2655.00,0.0099
2654.00,0.0099
2653.00,0.0099
2652.00,0.0099
2651.00,0.0098
2650.00,0.0098
2649.00,0.0098
2648.00,0.0097
2647.00,0.0097
2646.00,0.0097
2645.00,0.0097
2644.00,0.0096
2643.00,0.0096
2642.00,0.0096
2641.00,0.0095
2640.00,0.0095
2639.00,0.0095
2638.00,0.0095
2637.00,0.0095
2636.00,0.0095
2635.00,0.0094
2634.00,0.0094
2633.00,0.0094
2632.00,0.0094
2631.00,0.0094
2630.00,0.0093
2629.00,0.0093
2628.00,0.0093
2627.00,0.0093
2626.00,0.0092
2625.00,0.0092
2624.00,0.0092
2623.00,0.0092
2622.00,0.0092
2621.00,0.0091
2620.00,0.0091
2619.00,0.0091
2618.00,0.0091
2617.00,0.0091
2616.00,0.0090
2615.00,0.0090
2614.00,0.0090
2613.00,0.0090
2612.00,0.0089
2611.00,0.0089
2610.00,0.0089
2609.00,0.0088
2608.00,0.0088
2607.00,0.0088
2606.00,0.0087
2605.00,0.0087
2604.00,0.0087
2603.00,0.0087
2602.00,0.0087
2601.00,0.0086
2600.00,0.0086
2599.00,0.0085
2598.00,0.0085
2597.00,0.0085
2596.00,0.0085
2595.00,0.0085
2594.00,0.0085
2593.00,0.0084
2592.00,0.0084
2591.00,0.0084
2590.00,0.0084
2589.00,0.0084
2588.00,0.0084
2587.00,0.0084
2586.00,0.0084
2585.00,0.0084
2584.00,0.0084
2583.00,0.0084
2582.00,0.0083
2581.00,0.0083
2580.00,0.0083
2579.00,0.0083
2578.00,0.0082
2577.00,0.0082
2576.00,0.0082
2575.00,0.0082
2574.00,0.0081
2573.00,0.0081
2572.00,0.0080
2571.00,0.0080
2570.00,0.0080
2569.00,0.0080
2568.00,0.0080
2567.00,0.0080
2566.00,0.0079
2565.00,0.0079
2564.00,0.0079
2563.00,0.0079
2562.00,0.0080
2561.00,0.0080
2560.00,0.0080
2559.00,0.0079
2558.00,0.0079
2557.00,0.0078
2556.00,0.0078
2555.00,0.0078
2554.00,0.0077
2553.00,0.0077
2552.00,0.0077
2551.00,0.0077
2550.00,0.0077
2549.00,0.0077
2548.00,0.0076
2547.00,0.0076
2546.00,0.0076
2545.00,0.0076
2544.00,0.0076
2543.00,0.0076
2542.00,0.0076
2541.00,0.0075
2540.00,0.0075
2539.00,0.0075
2538.00,0.0074
2537.00,0.0074
2536.00,0.0074
2535.00,0.0073
2534.00,0.0073
2533.00,0.0073
2532.00,0.0073
2531.00,0.0073
2530.00,0.0073
2529.00,0.0072
2528.00,0.0072
2527.00,0.0071
2526.00,0.0071
2525.00,0.0071
2524.00,0.0071
2523.00,0.0070
2522.00,0.0070
2521.00,0.0070
2520.00,0.0070
2519.00,0.0070
2518.00,0.0069
2517.00,0.0069
2516.00,0.0069
2515.00,0.0069
2514.00,0.0069
2513.00,0.0069
2512.00,0.0069
2511.00,0.0069
2510.00,0.0068
2509.00,0.0068
2508.00,0.0068
2507.00,0.0067
2506.00,0.0067
2505.00,0.0067
2504.00,0.0068
2503.00,0.0067
2502.00,0.0067
2501.00,0.0066
2500.00,0.0066
2499.00,0.0066
2498.00,0.0066
2497.00,0.0066
2496.00,0.0067
2495.00,0.0067
2494.00,0.0067
2493.00,0.0067
2492.00,0.0066
2491.00,0.0066
2490.00,0.0066
2489.00,0.0065
2488.00,0.0065
2487.00,0.0065
2486.00,0.0065
2485.00,0.0065
2484.00,0.0065
2483.00,0.0065
2482.00,0.0065
2481.00,0.0064
2480.00,0.0064
2479.00,0.0064
2478.00,0.0064
2477.00,0.0064
2476.00,0.0064
2475.00,0.0064
2474.00,0.0064
2473.00,0.0064
2472.00,0.0064
2471.00,0.0064
2470.00,0.0063
2469.00,0.0063
2468.00,0.0063
2467.00,0.0063
2466.00,0.0062
2465.00,0.0062
2464.00,0.0062
2463.00,0.0062
2462.00,0.0063
2461.00,0.0063
2460.00,0.0063
2459.00,0.0063
2458.00,0.0063
2457.00,0.0063
2456.00,0.0063
2455.00,0.0063
2454.00,0.0063
2453.00,0.0062
2452.00,0.0062
2451.00,0.0062
2450.00,0.0062
2449.00,0.0062
2448.00,0.0061
2447.00,0.0061
2446.00,0.0060
2445.00,0.0060
2444.00,0.0060
2443.00,0.0059
2442.00,0.0059
2441.00,0.0058
2440.00,0.0058
2439.00,0.0058
2438.00,0.0057
2437.00,0.0057
2436.00,0.0057
2435.00,0.0057
2434.00,0.0057
2433.00,0.0057
2432.00,0.0057
2431.00,0.0057
2430.00,0.0057
2429.00,0.0057
2428.00,0.0056
2427.00,0.0056
2426.00,0.0056
2425.00,0.0055
2424.00,0.0055
2423.00,0.0055
2422.00,0.0055
2421.00,0.0054
2420.00,0.0054
2419.00,0.0054
2418.00,0.0055
2417.00,0.0055
2416.00,0.0055
2415.00,0.0055
2414.00,0.0055
2413.00,0.0055
2412.00,0.0055
2411.00,0.0055
2410.00,0.0055
2409.00,0.0054
2408.00,0.0053
2407.00,0.0052
2406.00,0.0052
2405.00,0.0052
2404.00,0.0052
2403.00,0.0052
2402.00,0.0052
2401.00,0.0052
2400.00,0.0053
2399.00,0.0053
2398.00,0.0053
2397.00,0.0053
2396.00,0.0053
2395.00,0.0052
2394.00,0.0052
2393.00,0.0052
2392.00,0.0053
2391.00,0.0052
2390.00,0.0052
2389.00,0.0052
2388.00,0.0051
2387.00,0.0051
2386.00,0.0050
2385.00,0.0050
2384.00,0.0049
2383.00,0.0048
2382.00,0.0047
2381.00,0.0046
2380.00,0.0045
2379.00,0.0045
2378.00,0.0045
2377.00,0.0046
2376.00,0.0046
2375.00,0.0047
2374.00,0.0047
2373.00,0.0047
2372.00,0.0047
2371.00,0.0046
2370.00,0.0045
2369.00,0.0044
2368.00,0.0044
2367.00,0.0045
2366.00,0.0045
2365.00,0.0046
2364.00,0.0046
2363.00,0.0047
2362.00,0.0047
2361.00,0.0046
2360.00,0.0046
2359.00,0.0046
2358.00,0.0046
2357.00,0.0046
2356.00,0.0047
2355.00,0.0047
2354.00,0.0047
2353.00,0.0047
2352.00,0.0047
2351.00,0.0047
2350.00,0.0047
2349.00,0.0048
2348.00,0.0049
2347.00,0.0049
2346.00,0.0049
2345.00,0.0049
2344.00,0.0049
2343.00,0.0050
2342.00,0.0050
2341.00,0.0050
2340.00,0.0050
2339.00,0.0051
2338.00,0.0051
2337.00,0.0051
2336.00,0.0051
2335.00,0.0051
2334.00,0.0050
2333.00,0.0050
2332.00,0.0049
2331.00,0.0049
2330.00,0.0050
2329.00,0.0053
2328.00,0.0057
2327.00,0.0061
2326.00,0.0064
2325.00,0.0065
2324.00,0.0063
2323.00,0.0060
2322.00,0.0057
2321.00,0.0056
2320.00,0.0055
2319.00,0.0055
2318.00,0.0055
2317.00,0.0055
2316.00,0.0055
2315.00,0.0054
2314.00,0.0053
2313.00,0.0052
2312.00,0.0051
2311.00,0.0050
2310.00,0.0050
2309.00,0.0050
2308.00,0.0050
2307.00,0.0051
2306.00,0.0051
2305.00,0.0051
2304.00,0.0052
2303.00,0.0052
2302.00,0.0052
2301.00,0.0052
2300.00,0.0053
2299.00,0.0054
2298.00,0.0054
2297.00,0.0055
2296.00,0.0055
2295.00,0.0056
2294.00,0.0058
2293.00,0.0059
2292.00,0.0060
2291.00,0.0061
2290.00,0.0061
2289.00,0.0062
2288.00,0.0062
2287.00,0.0062
2286.00,0.0062
2285.00,0.0061
2284.00,0.0060
2283.00,0.0060
2282.00,0.0059
2281.00,0.0059
2280.00,0.0059
2279.00,0.0058
2278.00,0.0058
2277.00,0.0057
2276.00,0.0058
2275.00,0.0058
2274.00,0.0057
2273.00,0.0056
2272.00,0.0055
2271.00,0.0054
2270.00,0.0054
2269.00,0.0053
2268.00,0.0053
2267.00,0.0053
2266.00,0.0052
2265.00,0.0052
2264.00,0.0053
2263.00,0.0054
2262.00,0.0054
2261.00,0.0055
2260.00,0.0055
2259.00,0.0054
2258.00,0.0053
2257.00,0.0052
2256.00,0.0051
2255.00,0.0050
2254.00,0.0050
2253.00,0.0050
2252.00,0.0051
2251.00,0.0051
2250.00,0.0052
2249.00,0.0052
2248.00,0.0052
2247.00,0.0052
2246.00,0.0053
2245.00,0.0053
2244.00,0.0053
2243.00,0.0053
2242.00,0.0053
2241.00,0.0053
2240.00,0.0053
2239.00,0.0054
2238.00,0.0053
2237.00,0.0053
2236.00,0.0053
2235.00,0.0052
2234.00,0.0052
2233.00,0.0052
2232.00,0.0053
2231.00,0.0053
2230.00,0.0052
2229.00,0.0051
2228.00,0.0051
2227.00,0.0051
2226.00,0.0051
2225.00,0.0050
2224.00,0.0050
2223.00,0.0050
2222.00,0.0050
2221.00,0.0050
2220.00,0.0050
2219.00,0.0050
2218.00,0.0050
2217.00,0.0050
2216.00,0.0051
2215.00,0.0051
2214.00,0.0051
2213.00,0.0050
2212.00,0.0049
2211.00,0.0048
2210.00,0.0048
2209.00,0.0048
2208.00,0.0048
2207.00,0.0049
2206.00,0.0049
2205.00,0.0050
2204.00,0.0050
2203.00,0.0050
2202.00,0.0051
2201.00,0.0052
2200.00,0.0052
2199.00,0.0052
2198.00,0.0051
2197.00,0.0051
2196.00,0.0050
2195.00,0.0051
2194.00,0.0051
2193.00,0.0051
2192.00,0.0052
2191.00,0.0053
2190.00,0.0053
2189.00,0.0054
2188.00,0.0054
2187.00,0.0053
2186.00,0.0052
2185.00,0.0050
2184.00,0.0047
2183.00,0.0044
2182.00,0.0042
2181.00,0.0042
2180.00,0.0044
2179.00,0.0044
2178.00,0.0044
2177.00,0.0043
2176.00,0.0044
2175.00,0.0045
2174.00,0.0047
2173.00,0.0049
2172.00,0.0052
2171.00,0.0055
2170.00,0.0058
2169.00,0.0061
2168.00,0.0062
2167.00,0.0062
2166.00,0.0062
2165.00,0.0063
2164.00,0.0065
2163.00,0.0064
2162.00,0.0056
2161.00,0.0041
2160.00,0.0023
2159.00,0.0010
2158.00,0.0006
2157.00,0.0009
2156.00,0.0014
2155.00,0.0018
2154.00,0.0021
2153.00,0.0023
2152.00,0.0025
2151.00,0.0027
2150.00,0.0028
2149.00,0.0028
2148.00,0.0028
2147.00,0.0027
2146.00,0.0026
2145.00,0.0027
2144.00,0.0028
2143.00,0.0029
2142.00,0.0029
2141.00,0.0028
2140.00,0.0028
2139.00,0.0028
2138.00,0.0026
2137.00,0.0025
2136.00,0.0023
2135.00,0.0022
2134.00,0.0022
2133.00,0.0023
2132.00,0.0025
2131.00,0.0027
2130.00,0.0029
2129.00,0.0031
2128.00,0.0033
2127.00,0.0034
2126.00,0.0035
2125.00,0.0035
2124.00,0.0036
2123.00,0.0037
2122.00,0.0038
2121.00,0.0040
2120.00,0.0041
2119.00,0.0042
2118.00,0.0043
2117.00,0.0044
2116.00,0.0045
2115.00,0.0046
2114.00,0.0046
2113.00,0.0045
2112.00,0.0045
2111.00,0.0044
2110.00,0.0043
2109.00,0.0042
2108.00,0.0042
2107.00,0.0042
2106.00,0.0042
2105.00,0.0042
2104.00,0.0042
2103.00,0.0042
2102.00,0.0042
2101.00,0.0042
2100.00,0.0042
2099.00,0.0042
2098.00,0.0040
2097.00,0.0038
2096.00,0.0037
2095.00,0.0036
2094.00,0.0036
2093.00,0.0038
2092.00,0.0040
2091.00,0.0041
2090.00,0.0042
2089.00,0.0043
2088.00,0.0043
2087.00,0.0043
2086.00,0.0043
2085.00,0.0043
2084.00,0.0043
2083.00,0.0044
2082.00,0.0044
2081.00,0.0045
2080.00,0.0045
2079.00,0.0045
2078.00,0.0044
2077.00,0.0043
2076.00,0.0043
2075.00,0.0043
2074.00,0.0043
2073.00,0.0043
2072.00,0.0043
2071.00,0.0043
2070.00,0.0043
2069.00,0.0042
2068.00,0.0041
2067.00,0.0040
2066.00,0.0040
2065.00,0.0039
2064.00,0.0039
2063.00,0.0038
2062.00,0.0037
2061.00,0.0036
2060.00,0.0037
2059.00,0.0037
2058.00,0.0038
2057.00,0.0038
2056.00,0.0038
2055.00,0.0039
2054.00,0.0042
2053.00,0.0046
2052.00,0.0050
2051.00,0.0049
2050.00,0.0045
2049.00,0.0040
2048.00,0.0038
2047.00,0.0037
2046.00,0.0037
2045.00,0.0037
2044.00,0.0038
2043.00,0.0038
2042.00,0.0038
2041.00,0.0038
2040.00,0.0039
2039.00,0.0040
2038.00,0.0039
2037.00,0.0038
2036.00,0.0037
2035.00,0.0035
2034.00,0.0033
2033.00,0.0032
2032.00,0.0033
2031.00,0.0033
2030.00,0.0034
2029.00,0.0034
2028.00,0.0034
2027.00,0.0033
2026.00,0.0031
2025.00,0.0031
2024.00,0.0032
2023.00,0.0032
2022.00,0.0032
2021.00,0.0032
2020.00,0.0032
2019.00,0.0032
2018.00,0.0032
2017.00,0.0032
2016.00,0.0032
2015.00,0.0031
2014.00,0.0031
2013.00,0.0032
2012.00,0.0033
2011.00,0.0034
2010.00,0.0033
2009.00,0.0031
2008.00,0.0029
2007.00,0.0027
2006.00,0.0026
2005.00,0.0027
2004.00,0.0029
2003.00,0.0030
2002.00,0.0032
2001.00,0.0034
2000.00,0.0036
1999.00,0.0037
1998.00,0.0037
1997.00,0.0036
1996.00,0.0037
1995.00,0.0038
1994.00,0.0040
1993.00,0.0042
1992.00,0.0045
1991.00,0.0046
1990.00,0.0045
1989.00,0.0045
1988.00,0.0045
1987.00,0.0045
1986.00,0.0046
1985.00,0.0048
1984.00,0.0052
1983.00,0.0055
1982.00,0.0057
1981.00,0.0057
1980.00,0.0053
1979.00,0.0046
1978.00,0.0037
1977.00,0.0032
1976.00,0.0029
1975.00,0.0027
1974.00,0.0025
1973.00,0.0024
1972.00,0.0025
1971.00,0.0026
1970.00,0.0026
1969.00,0.0027
1968.00,0.0029
1967.00,0.0030
1966.00,0.0030
1965.00,0.0031
1964.00,0.0031
1963.00,0.0031
1962.00,0.0030
1961.00,0.0029
1960.00,0.0028
1959.00,0.0028
1958.00,0.0028
1957.00,0.0029
1956.00,0.0031
1955.00,0.0031
1954.00,0.0030
1953.00,0.0030
1952.00,0.0030
1951.00,0.0030
1950.00,0.0030
1949.00,0.0030
1948.00,0.0031
1947.00,0.0032
1946.00,0.0034
1945.00,0.0036
1944.00,0.0038
1943.00,0.0038
1942.00,0.0036
1941.00,0.0035
1940.00,0.0035
1939.00,0.0036
1938.00,0.0035
1937.00,0.0036
1936.00,0.0036
1935.00,0.0036
1934.00,0.0035
1933.00,0.0035
1932.00,0.0036
1931.00,0.0036
1930.00,0.0035
1929.00,0.0035
1928.00,0.0036
1927.00,0.0036
1926.00,0.0037
1925.00,0.0037
1924.00,0.0038
1923.00,0.0040
1922.00,0.0041
1921.00,0.0042
1920.00,0.0043
1919.00,0.0044
1918.00,0.0043
1917.00,0.0042
1916.00,0.0042
1915.00,0.0041
1914.00,0.0041
1913.00,0.0041
1912.00,0.0041
1911.00,0.0042
1910.00,0.0042
1909.00,0.0042
1908.00,0.0042
1907.00,0.0041
1906.00,0.0041
1905.00,0.0041
1904.00,0.0041
1903.00,0.0041
1902.00,0.0040
1901.00,0.0040
1900.00,0.0040
1899.00,0.0041
1898.00,0.0041
1897.00,0.0041
1896.00,0.0042
1895.00,0.0042
1894.00,0.0041
1893.00,0.0041
1892.00,0.0042
1891.00,0.0042
1890.00,0.0042
1889.00,0.0042
1888.00,0.0042
1887.00,0.0042
1886.00,0.0042
1885.00,0.0042
1884.00,0.0042
1883.00,0.0042
1882.00,0.0042
1881.00,0.0042
1880.00,0.0043
1879.00,0.0043
1878.00,0.0043
1877.00,0.0043
1876.00,0.0043
1875.00,0.0042
1874.00,0.0043
1873.00,0.0043
1872.00,0.0045
1871.00,0.0046
1870.00,0.0047
1869.00,0.0047
1868.00,0.0047
1867.00,0.0046
1866.00,0.0046
1865.00,0.0045
1864.00,0.0044
1863.00,0.0044
1862.00,0.0044
1861.00,0.0044
1860.00,0.0044
1859.00,0.0045
1858.00,0.0044
1857.00,0.0044
1856.00,0.0044
1855.00,0.0044
1854.00,0.0044
1853.00,0.0044
1852.00,0.0044
1851.00,0.0045
1850.00,0.0045
1849.00,0.0046
1848.00,0.0047
1847.00,0.0048
1846.00,0.0048
1845.00,0.0049
1844.00,0.0049
1843.00,0.0048
1842.00,0.0048
1841.00,0.0048
1840.00,0.0048
1839.00,0.0047
1838.00,0.0047
1837.00,0.0047
1836.00,0.0047
1835.00,0.0047
1834.00,0.0047
1833.00,0.0048
1832.00,0.0048
1831.00,0.0049
1830.00,0.0049
1829.00,0.0049
1828.00,0.0049
1827.00,0.0050
1826.00,0.0050
1825.00,0.0050
1824.00,0.0050
1823.00,0.0049
1822.00,0.0049
1821.00,0.0048
1820.00,0.0047
1819.00,0.0046
1818.00,0.0045
1817.00,0.0044
1816.00,0.0045
1815.00,0.0046
1814.00,0.0047
1813.00,0.0048
1812.00,0.0049
1811.00,0.0050
1810.00,0.0050
1809.00,0.0050
1808.00,0.0050
1807.00,0.0050
1806.00,0.0050
1805.00,0.0050
1804.00,0.0051
1803.00,0.0052
1802.00,0.0054
1801.00,0.0055
1800.00,0.0055
1799.00,0.0055
1798.00,0.0056
1797.00,0.0056
1796.00,0.0057
1795.00,0.0058
1794.00,0.0059
1793.00,0.0059
1792.00,0.0059
1791.00,0.0058
1790.00,0.0058
1789.00,0.0057
1788.00,0.0057
1787.00,0.0057
1786.00,0.0057
1785.00,0.0058
1784.00,0.0058
1783.00,0.0058
1782.00,0.0059
1781.00,0.0059
1780.00,0.0059
1779.00,0.0059
1778.00,0.0059
1777.00,0.0059
1776.00,0.0060
1775.00,0.0060
1774.00,0.0060
1773.00,0.0060
1772.00,0.0061
1771.00,0.0061
1770.00,0.0062
1769.00,0.0063
1768.00,0.0062
1767.00,0.0061
1766.00,0.0060
1765.00,0.0060
1764.00,0.0060
1763.00,0.0060
1762.00,0.0060
1761.00,0.0060
1760.00,0.0061
1759.00,0.0062
1758.00,0.0062
1757.00,0.0062
1756.00,0.0062
1755.00,0.0063
1754.00,0.0064
1753.00,0.0065
1752.00,0.0068
1751.00,0.0069
1750.00,0.0070
1749.00,0.0070
1748.00,0.0071
1747.00,0.0070
1746.00,0.0069
1745.00,0.0068
1744.00,0.0069
1743.00,0.0069
1742.00,0.0069
1741.00,0.0069
1740.00,0.0070
1739.00,0.0070
1738.00,0.0070
1737.00,0.0071
1736.00,0.0074
1735.00,0.0075
1734.00,0.0075
1733.00,0.0075
1732.00,0.0077
1731.00,0.0078
1730.00,0.0078
1729.00,0.0077
1728.00,0.0078
1727.00,0.0078
1726.00,0.0079
1725.00,0.0080
1724.00,0.0083
1723.00,0.0085
1722.00,0.0086
1721.00,0.0088
1720.00,0.0091
1719.00,0.0093
1718.00,0.0095
1717.00,0.0098
1716.00,0.0102
1715.00,0.0106
1714.00,0.0108
1713.00,0.0110
1712.00,0.0112
1711.00,0.0115
1710.00,0.0119
1709.00,0.0124
1708.00,0.0130
1707.00,0.0137
1706.00,0.0146
1705.00,0.0156
1704.00,0.0166
1703.00,0.0176
1702.00,0.0189
1701.00,0.0210
1700.00,0.0238
1699.00,0.0263
1698.00,0.0282
1697.00,0.0305
1696.00,0.0340
1695.00,0.0379
1694.00,0.0412
1693.00,0.0441
1692.00,0.0469
1691.00,0.0501
1690.00,0.0536
1689.00,0.0571
1688.00,0.0598
1687.00,0.0617
1686.00,0.0635
1685.00,0.0667
1684.00,0.0714
1683.00,0.0752
1682.00,0.0771
1681.00,0.0782
1680.00,0.0794
1679.00,0.0808
1678.00,0.0823
1677.00,0.0844
1676.00,0.0882
1675.00,0.0934
1674.00,0.0985
1673.00,0.1026
1672.00,0.1067
1671.00,0.1121
1670.00,0.1196
1669.00,0.1282
1668.00,0.1357
1667.00,0.1410
1666.00,0.1447
1665.00,0.1481
1664.00,0.1525
1663.00,0.1582
1662.00,0.1637
1661.00,0.1675
1660.00,0.1696
1659.00,0.1704
1658.00,0.1702
1657.00,0.1688
1656.00,0.1664
1655.00,0.1636
1654.00,0.1622
1653.00,0.1632
1652.00,0.1633
1651.00,0.1601
1650.00,0.1550
1649.00,0.1495
1648.00,0.1445
1647.00,0.1404
1646.00,0.1367
1645.00,0.1325
1644.00,0.1276
1643.00,0.1222
1642.00,0.1163
1641.00,0.1105
1640.00,0.1050
1639.00,0.0999
1638.00,0.0953
1637.00,0.0916
1636.00,0.0896
1635.00,0.0892
1634.00,0.0894
1633.00,0.0897
1632.00,0.0905
1631.00,0.0918
1630.00,0.0936
1629.00,0.0958
1628.00,0.0982
1627.00,0.0998
1626.00,0.1002
1625.00,0.0995
1624.00,0.0982
1623.00,0.0966
1622.00,0.0944
1621.00,0.0914
1620.00,0.0880
1619.00,0.0844
1618.00,0.0805
1617.00,0.0764
1616.00,0.0725
1615.00,0.0687
1614.00,0.0650
1613.00,0.0611
1612.00,0.0573
1611.00,0.0538
1610.00,0.0507
1609.00,0.0480
1608.00,0.0458
1607.00,0.0440
1606.00,0.0427
1605.00,0.0419
1604.00,0.0416
1603.00,0.0419
1602.00,0.0427
1601.00,0.0440
1600.00,0.0459
1599.00,0.0482
1598.00,0.0509
1597.00,0.0538
1596.00,0.0572
1595.00,0.0608
1594.00,0.0644
1593.00,0.0681
1592.00,0.0719
1591.00,0.0758
1590.00,0.0798
1589.00,0.0836
1588.00,0.0871
1587.00,0.0901
1586.00,0.0922
1585.00,0.0930
1584.00,0.0926
1583.00,0.0910
1582.00,0.0881
1581.00,0.0843
1580.00,0.0800
1579.00,0.0756
1578.00,0.0708
1577.00,0.0659
1576.00,0.0612
1575.00,0.0574
1574.00,0.0542
1573.00,0.0513
1572.00,0.0485
1571.00,0.0457
1570.00,0.0430
1569.00,0.0405
1568.00,0.0384
1567.00,0.0365
1566.00,0.0348
1565.00,0.0330
1564.00,0.0315
1563.00,0.0302
1562.00,0.0290
1561.00,0.0279
1560.00,0.0270
1559.00,0.0267
1558.00,0.0264
1557.00,0.0258
1556.00,0.0252
1555.00,0.0247
1554.00,0.0242
1553.00,0.0238
1552.00,0.0235
1551.00,0.0232
1550.00,0.0230
1549.00,0.0228
1548.00,0.0226
1547.00,0.0225
1546.00,0.0225
1545.00,0.0226
1544.00,0.0226
1543.00,0.0227
1542.00,0.0227
1541.00,0.0228
1540.00,0.0230
1539.00,0.0231
1538.00,0.0231
1537.00,0.0231
1536.00,0.0232
1535.00,0.0234
1534.00,0.0238
1533.00,0.0243
1532.00,0.0246
1531.00,0.0248
1530.00,0.0251
1529.00,0.0256
1528.00,0.0261
1527.00,0.0269
1526.00,0.0277
1525.00,0.0285
1524.00,0.0291
1523.00,0.0296
1522.00,0.0304
1521.00,0.0314
1520.00,0.0320
1519.00,0.0322
1518.00,0.0323
1517.00,0.0323
1516.00,0.0321
1515.00,0.0316
1514.00,0.0309
1513.00,0.0302
1512.00,0.0296
1511.00,0.0290
1510.00,0.0286
1509.00,0.0283
1508.00,0.0281
1507.00,0.0280
1506.00,0.0280
1505.00,0.0280
1504.00,0.0282
1503.00,0.0286
1502.00,0.0293
1501.00,0.0303
1500.00,0.0316
1499.00,0.0331
1498.00,0.0347
1497.00,0.0363
1496.00,0.0375
1495.00,0.0380
1494.00,0.0380
1493.00,0.0375
1492.00,0.0366
1491.00,0.0353
1490.00,0.0336
1489.00,0.0317
1488.00,0.0298
1487.00,0.0278
1486.00,0.0262
1485.00,0.0248
1484.00,0.0238
1483.00,0.0230
1482.00,0.0226
1481.00,0.0225
1480.00,0.0226
1479.00,0.0228
1478.00,0.0232
1477.00,0.0240
1476.00,0.0251
1475.00,0.0264
1474.00,0.0285
1473.00,0.0319
1472.00,0.0365
1471.00,0.0411
1470.00,0.0455
1469.00,0.0498
1468.00,0.0542
1467.00,0.0587
1466.00,0.0636
1465.00,0.0689
1464.00,0.0736
1463.00,0.0766
1462.00,0.0783
1461.00,0.0790
1460.00,0.0792
1459.00,0.0793
1458.00,0.0801
1457.00,0.0823
1456.00,0.0847
1455.00,0.0863
1454.00,0.0877
1453.00,0.0900
1452.00,0.0932
1451.00,0.0971
1450.00,0.1016
1449.00,0.1073
1448.00,0.1138
1447.00,0.1203
1446.00,0.1259
1445.00,0.1308
1444.00,0.1351
1443.00,0.1389
1442.00,0.1420
1441.00,0.1444
1440.00,0.1456
1439.00,0.1457
1438.00,0.1457
1437.00,0.1465
1436.00,0.1474
1435.00,0.1472
1434.00,0.1463
1433.00,0.1457
1432.00,0.1458
1431.00,0.1467
1430.00,0.1483
1429.00,0.1497
1428.00,0.1499
1427.00,0.1487
1426.00,0.1464
1425.00,0.1437
1424.00,0.1404
1423.00,0.1362
1422.00,0.1310
1421.00,0.1247
1420.00,0.1169
1419.00,0.1078
1418.00,0.0987
1417.00,0.0902
1416.00,0.0824
1415.00,0.0752
1414.00,0.0688
1413.00,0.0634
1412.00,0.0589
1411.00,0.0551
1410.00,0.0521
1409.00,0.0496
1408.00,0.0476
1407.00,0.0460
1406.00,0.0449
1405.00,0.0439
1404.00,0.0431
1403.00,0.0424
1402.00,0.0418
1401.00,0.0414
1400.00,0.0411
1399.00,0.0410
1398.00,0.0410
1397.00,0.0409
1396.00,0.0407
1395.00,0.0408
1394.00,0.0410
1393.00,0.0413
1392.00,0.0416
1391.00,0.0420
1390.00,0.0425
1389.00,0.0433
1388.00,0.0444
1387.00,0.0459
1386.00,0.0475
1385.00,0.0492
1384.00,0.0511
1383.00,0.0536
1382.00,0.0568
1381.00,0.0605
1380.00,0.0646
1379.00,0.0686
1378.00,0.0721
1377.00,0.0747
1376.00,0.0762
1375.00,0.0765
1374.00,0.0758
1373.00,0.0741
1372.00,0.0719
1371.00,0.0697
1370.00,0.0676
1369.00,0.0659
1368.00,0.0643
1367.00,0.0628
1366.00,0.0614
1365.00,0.0599
1364.00,0.0585
1363.00,0.0573
1362.00,0.0562
1361.00,0.0552
1360.00,0.0544
1359.00,0.0537
1358.00,0.0533
1357.00,0.0531
1356.00,0.0531
1355.00,0.0533
1354.00,0.0535
1353.00,0.0537
1352.00,0.0538
1351.00,0.0540
1350.00,0.0541
1349.00,0.0541
1348.00,0.0541
1347.00,0.0542
1346.00,0.0542
1345.00,0.0541
1344.00,0.0540
1343.00,0.0540
1342.00,0.0541
1341.00,0.0542
1340.00,0.0546
1339.00,0.0550
1338.00,0.0554
1337.00,0.0557
1336.00,0.0560
1335.00,0.0563
1334.00,0.0565
1333.00,0.0567
1332.00,0.0567
1331.00,0.0567
1330.00,0.0567
1329.00,0.0569
1328.00,0.0573
1327.00,0.0579
1326.00,0.0590
1325.00,0.0603
1324.00,0.0619
1323.00,0.0638
1322.00,0.0657
1321.00,0.0676
1320.00,0.0695
1319.00,0.0712
1318.00,0.0726
1317.00,0.0734
1316.00,0.0737
1315.00,0.0736
1314.00,0.0731
1313.00,0.0724
1312.00,0.0715
1311.00,0.0706
1310.00,0.0698
1309.00,0.0692
1308.00,0.0686
1307.00,0.0682
1306.00,0.0679
1305.00,0.0678
1304.00,0.0678
1303.00,0.0683
1302.00,0.0693
1301.00,0.0711
1300.00,0.0737
1299.00,0.0774
1298.00,0.0822
1297.00,0.0881
1296.00,0.0947
1295.00,0.1018
1294.00,0.1087
1293.00,0.1149
1292.00,0.1199
1291.00,0.1234
1290.00,0.1253
1289.00,0.1257
1288.00,0.1248
1287.00,0.1229
1286.00,0.1203
1285.00,0.1172
1284.00,0.1141
1283.00,0.1110
1282.00,0.1083
1281.00,0.1061
1280.00,0.1046
1279.00,0.1038
1278.00,0.1035
1277.00,0.1034
1276.00,0.1035
1275.00,0.1033
1274.00,0.1027
1273.00,0.1014
1272.00,0.0995
1271.00,0.0970
1270.00,0.0939
1269.00,0.0904
1268.00,0.0867
1267.00,0.0829
1266.00,0.0793
1265.00,0.0760
1264.00,0.0730
1263.00,0.0707
1262.00,0.0690
1261.00,0.0680
1260.00,0.0675
1259.00,0.0677
1258.00,0.0685
1257.00,0.0699
1256.00,0.0717
1255.00,0.0739
1254.00,0.0763
1253.00,0.0787
1252.00,0.0811
1251.00,0.0834
1250.00,0.0856
1249.00,0.0876
1248.00,0.0896
1247.00,0.0915
1246.00,0.0935
1245.00,0.0953
1244.00,0.0970
1243.00,0.0983
1242.00,0.0992
1241.00,0.0993
1240.00,0.0989
1239.00,0.0978
1238.00,0.0963
1237.00,0.0944
1236.00,0.0924
1235.00,0.0904
1234.00,0.0885
1233.00,0.0869
1232.00,0.0855
1231.00,0.0846
1230.00,0.0843
1229.00,0.0845
1228.00,0.0850
1227.00,0.0857
1226.00,0.0863
1225.00,0.0868
1224.00,0.0869
1223.00,0.0868
1222.00,0.0865
1221.00,0.0861
1220.00,0.0855
1219.00,0.0848
1218.00,0.0841
1217.00,0.0834
1216.00,0.0825
1215.00,0.0814
1214.00,0.0803
1213.00,0.0791
1212.00,0.0777
1211.00,0.0765
1210.00,0.0756
1209.00,0.0749
1208.00,0.0747
1207.00,0.0751
1206.00,0.0759
1205.00,0.0769
1204.00,0.0780
1203.00,0.0786
1202.00,0.0787
1201.00,0.0779
1200.00,0.0764
1199.00,0.0742
1198.00,0.0716
1197.00,0.0687
1196.00,0.0659
1195.00,0.0633
1194.00,0.0611
1193.00,0.0591
1192.00,0.0574
1191.00,0.0559
1190.00,0.0547
1189.00,0.0536
1188.00,0.0526
1187.00,0.0518
1186.00,0.0511
1185.00,0.0505
1184.00,0.0501
1183.00,0.0500
1182.00,0.0502
1181.00,0.0508
1180.00,0.0519
1179.00,0.0535
1178.00,0.0555
1177.00,0.0579
1176.00,0.0604
1175.00,0.0626
1174.00,0.0643
1173.00,0.0652
1172.00,0.0651
1171.00,0.0641
1170.00,0.0624
1169.00,0.0601
1168.00,0.0573
1167.00,0.0545
1166.00,0.0517
1165.00,0.0490
1164.00,0.0467
1163.00,0.0448
1162.00,0.0434
1161.00,0.0426
1160.00,0.0423
1159.00,0.0427
1158.00,0.0440
1157.00,0.0461
1156.00,0.0488
1155.00,0.0519
1154.00,0.0552
1153.00,0.0583
1152.00,0.0610
1151.00,0.0628
1150.00,0.0633
1149.00,0.0623
1148.00,0.0595
1147.00,0.0553
1146.00,0.0504
1145.00,0.0455
1144.00,0.0411
1143.00,0.0376
1142.00,0.0351
1141.00,0.0332
1140.00,0.0320
1139.00,0.0313
1138.00,0.0310
1137.00,0.0310
1136.00,0.0309
1135.00,0.0308
1134.00,0.0305
1133.00,0.0301
1132.00,0.0294
1131.00,0.0287
1130.00,0.0280
1129.00,0.0273
1128.00,0.0266
1127.00,0.0261
1126.00,0.0257
1125.00,0.0253
1124.00,0.0250
1123.00,0.0248
1122.00,0.0247
1121.00,0.0247
1120.00,0.0246
1119.00,0.0247
1118.00,0.0249
1117.00,0.0252
1116.00,0.0255
1115.00,0.0259
1114.00,0.0264
1113.00,0.0269
1112.00,0.0273
1111.00,0.0276
1110.00,0.0278
1109.00,0.0279
1108.00,0.0280
1107.00,0.0281
1106.00,0.0283
1105.00,0.0286
1104.00,0.0288
1103.00,0.0291
1102.00,0.0296
1101.00,0.0301
1100.00,0.0306
1099.00,0.0312
1098.00,0.0316
1097.00,0.0319
1096.00,0.0318
1095.00,0.0314
1094.00,0.0308
1093.00,0.0298
1092.00,0.0286
1091.00,0.0275
1090.00,0.0265
1089.00,0.0257
1088.00,0.0251
1087.00,0.0248
1086.00,0.0248
1085.00,0.0251
1084.00,0.0255
1083.00,0.0260
1082.00,0.0267
1081.00,0.0273
1080.00,0.0278
1079.00,0.0282
1078.00,0.0286
1077.00,0.0287
1076.00,0.0285
1075.00,0.0281
1074.00,0.0276
1073.00,0.0269
1072.00,0.0262
1071.00,0.0257
1070.00,0.0253
1069.00,0.0251
1068.00,0.0251
1067.00,0.0253
1066.00,0.0259
1065.00,0.0267
1064.00,0.0278
1063.00,0.0294
1062.00,0.0319
1061.00,0.0352
1060.00,0.0395
1059.00,0.0451
1058.00,0.0517
1057.00,0.0588
1056.00,0.0657
1055.00,0.0716
1054.00,0.0753
1053.00,0.0763
1052.00,0.0743
1051.00,0.0698
1050.00,0.0639
1049.00,0.0577
1048.00,0.0522
1047.00,0.0479
1046.00,0.0452
1045.00,0.0437
1044.00,0.0433
1043.00,0.0439
1042.00,0.0454
1041.00,0.0476
1040.00,0.0507
1039.00,0.0548
1038.00,0.0600
1037.00,0.0662
1036.00,0.0733
1035.00,0.0812
1034.00,0.0894
1033.00,0.0976
1032.00,0.1052
1031.00,0.1118
1030.00,0.1170
1029.00,0.1203
1028.00,0.1215
1027.00,0.1204
1026.00,0.1173
1025.00,0.1126
1024.00,0.1071
1023.00,0.1014
1022.00,0.0964
1021.00,0.0921
1020.00,0.0886
1019.00,0.0855
1018.00,0.0825
1017.00,0.0792
1016.00,0.0755
1015.00,0.0717
1014.00,0.0681
1013.00,0.0648
1012.00,0.0619
1011.00,0.0597
1010.00,0.0581
1009.00,0.0568
1008.00,0.0557
1007.00,0.0547
1006.00,0.0538
1005.00,0.0527
1004.00,0.0516
1003.00,0.0506
1002.00,0.0496
1001.00,0.0487
1000.00,0.0478
999.00,0.0469
998.00,0.0460
997.00,0.0450
996.00,0.0438
995.00,0.0428
994.00,0.0420
993.00,0.0416
992.00,0.0414
991.00,0.0416
990.00,0.0421
989.00,0.0427
988.00,0.0430
987.00,0.0431
986.00,0.0428
985.00,0.0421
984.00,0.0409
983.00,0.0395
982.00,0.0381
981.00,0.0367
980.00,0.0354
979.00,0.0343
978.00,0.0334
977.00,0.0326
976.00,0.0319
975.00,0.0313
974.00,0.0307
973.00,0.0302
972.00,0.0297
971.00,0.0294
970.00,0.0293
969.00,0.0293
968.00,0.0295
967.00,0.0299
966.00,0.0306
965.00,0.0313
964.00,0.0319
963.00,0.0324
962.00,0.0327
961.00,0.0326
960.00,0.0319
959.00,0.0308
958.00,0.0293
957.00,0.0276
956.00,0.0257
955.00,0.0238
954.00,0.0220
953.00,0.0204
952.00,0.0190
951.00,0.0180
950.00,0.0173
949.00,0.0168
948.00,0.0164
947.00,0.0161
946.00,0.0159
945.00,0.0158
944.00,0.0157
943.00,0.0157
942.00,0.0159
941.00,0.0161
940.00,0.0165
939.00,0.0170
938.00,0.0178
937.00,0.0186
936.00,0.0196
935.00,0.0206
934.00,0.0216
933.00,0.0224
932.00,0.0229
931.00,0.0232
930.00,0.0233
929.00,0.0233
928.00,0.0232
927.00,0.0231
926.00,0.0231
925.00,0.0230
924.00,0.0230
923.00,0.0230
922.00,0.0232
921.00,0.0235
920.00,0.0239
919.00,0.0245
918.00,0.0252
917.00,0.0260
916.00,0.0267
915.00,0.0274
914.00,0.0281
913.00,0.0287
912.00,0.0293
911.00,0.0301
910.00,0.0312
909.00,0.0326
908.00,0.0343
907.00,0.0363
906.00,0.0387
905.00,0.0412
904.00,0.0439
903.00,0.0464
902.00,0.0489
901.00,0.0509
900.00,0.0527
899.00,0.0542
898.00,0.0558
897.00,0.0573
896.00,0.0590
895.00,0.0608
894.00,0.0629
893.00,0.0652
892.00,0.0675
891.00,0.0698
890.00,0.0721
889.00,0.0742
888.00,0.0760
887.00,0.0773
886.00,0.0782
885.00,0.0785
884.00,0.0780
883.00,0.0768
882.00,0.0751
881.00,0.0728
880.00,0.0701
879.00,0.0672
878.00,0.0642
877.00,0.0613
876.00,0.0584
875.00,0.0558
874.00,0.0537
873.00,0.0519
872.00,0.0505
871.00,0.0497
870.00,0.0494
869.00,0.0496
868.00,0.0501
867.00,0.0510
866.00,0.0522
865.00,0.0533
864.00,0.0542
863.00,0.0548
862.00,0.0553
861.00,0.0557
860.00,0.0560
859.00,0.0564
858.00,0.0571
857.00,0.0580
856.00,0.0590
855.00,0.0601
854.00,0.0612
853.00,0.0622
852.00,0.0631
851.00,0.0639
850.00,0.0646
849.00,0.0651
848.00,0.0655
847.00,0.0658
846.00,0.0660
845.00,0.0662
844.00,0.0662
843.00,0.0662
842.00,0.0663
841.00,0.0665
840.00,0.0668
839.00,0.0672
838.00,0.0679
837.00,0.0688
836.00,0.0698
835.00,0.0709
834.00,0.0722
833.00,0.0733
832.00,0.0743
831.00,0.0749
830.00,0.0752
829.00,0.0749
828.00,0.0741
827.00,0.0728
826.00,0.0711
825.00,0.0690
824.00,0.0666
823.00,0.0640
822.00,0.0615
821.00,0.0590
820.00,0.0565
819.00,0.0541
818.00,0.0520
817.00,0.0502
816.00,0.0486
815.00,0.0473
814.00,0.0464
813.00,0.0457
812.00,0.0452
811.00,0.0450
810.00,0.0451
809.00,0.0455
808.00,0.0462
807.00,0.0474
806.00,0.0489
805.00,0.0502
804.00,0.0509
803.00,0.0505
802.00,0.0493
801.00,0.0475
800.00,0.0457
799.00,0.0444
798.00,0.0437
797.00,0.0436
796.00,0.0437
795.00,0.0438
794.00,0.0439
793.00,0.0438
792.00,0.0434
791.00,0.0427
790.00,0.0420
789.00,0.0412
788.00,0.0403
787.00,0.0395
786.00,0.0390
785.00,0.0385
784.00,0.0380
783.00,0.0377
782.00,0.0377
781.00,0.0377
780.00,0.0380
779.00,0.0385
778.00,0.0392
777.00,0.0401
776.00,0.0409
775.00,0.0417
774.00,0.0425
773.00,0.0431
772.00,0.0434
771.00,0.0436
770.00,0.0438
769.00,0.0438
768.00,0.0436
767.00,0.0434
766.00,0.0434
765.00,0.0434
764.00,0.0436
763.00,0.0441
762.00,0.0448
761.00,0.0457
760.00,0.0468
759.00,0.0479
758.00,0.0493
757.00,0.0506
756.00,0.0518
755.00,0.0528
754.00,0.0536
753.00,0.0540
752.00,0.0540
751.00,0.0536
750.00,0.0530
749.00,0.0522
748.00,0.0513
747.00,0.0505
746.00,0.0498
745.00,0.0494
744.00,0.0492
743.00,0.0492
742.00,0.0495
741.00,0.0500
740.00,0.0506
739.00,0.0513
738.00,0.0522
737.00,0.0532
736.00,0.0540
735.00,0.0549
734.00,0.0557
733.00,0.0562
732.00,0.0563
731.00,0.0561
730.00,0.0558
729.00,0.0551
728.00,0.0541
727.00,0.0530
726.00,0.0520
725.00,0.0510
724.00,0.0500
723.00,0.0489
722.00,0.0480
721.00,0.0470
720.00,0.0462
719.00,0.0457
718.00,0.0453
717.00,0.0451
716.00,0.0448
715.00,0.0446
714.00,0.0446
713.00,0.0445
712.00,0.0444
711.00,0.0443
710.00,0.0443
709.00,0.0443
708.00,0.0443
707.00,0.0442
706.00,0.0442
705.00,0.0443
704.00,0.0443
703.00,0.0443
702.00,0.0445
701.00,0.0447
700.00,0.0447
699.00,0.0448
698.00,0.0450
697.00,0.0452
696.00,0.0454
695.00,0.0456
694.00,0.0459
693.00,0.0463
692.00,0.0466
691.00,0.0470
690.00,0.0476
689.00,0.0482
688.00,0.0488
687.00,0.0494
686.00,0.0503
685.00,0.0512
684.00,0.0520
683.00,0.0529
682.00,0.0539
681.00,0.0549
680.00,0.0558
679.00,0.0567
678.00,0.0577
677.00,0.0586
676.00,0.0592
675.00,0.0597
674.00,0.0602
673.00,0.0606
672.00,0.0608
671.00,0.0610
670.00,0.0613
669.00,0.0620
668.00,0.0630
667.00,0.0641
666.00,0.0646
665.00,0.0648
664.00,0.0648
663.00,0.0651
662.00,0.0655
661.00,0.0660
660.00,0.0665
659.00,0.0671
658.00,0.0680
657.00,0.0689
656.00,0.0697
655.00,0.0706
654.00,0.0715
653.00,0.0723
652.00,0.0728
651.00,0.0733
650.00,0.0736
649.00,0.0736
648.00,0.0732
647.00,0.0726
646.00,0.0719
645.00,0.0710
644.00,0.0697
643.00,0.0684
642.00,0.0670
641.00,0.0656
640.00,0.0641
639.00,0.0627
638.00,0.0613
637.00,0.0600
636.00,0.0586
635.00,0.0574
634.00,0.0563
633.00,0.0554
632.00,0.0543
631.00,0.0533
630.00,0.0525
629.00,0.0518
628.00,0.0510
627.00,0.0504
626.00,0.0501
625.00,0.0497
624.00,0.0493
623.00,0.0490
622.00,0.0490
621.00,0.0490
620.00,0.0490
619.00,0.0491
618.00,0.0494
617.00,0.0499
616.00,0.0504
615.00,0.0510
614.00,0.0519
613.00,0.0527
612.00,0.0534
611.00,0.0540
610.00,0.0547
609.00,0.0551
608.00,0.0552
607.00,0.0553
606.00,0.0556
605.00,0.0562
604.00,0.0566
603.00,0.0572
602.00,0.0579
601.00,0.0585
600.00,0.0588
599.00,0.0590
598.00,0.0593
597.00,0.0595
596.00,0.0596
595.00,0.0597
594.00,0.0599
593.00,0.0600
592.00,0.0597
591.00,0.0595
590.00,0.0596
589.00,0.0597
588.00,0.0600
587.00,0.0605
586.00,0.0615
585.00,0.0627
584.00,0.0640
583.00,0.0654
582.00,0.0670
581.00,0.0684
580.00,0.0695
579.00,0.0701
578.00,0.0704
577.00,0.0701
576.00,0.0692
575.00,0.0681
574.00,0.0669
573.00,0.0658
572.00,0.0647
571.00,0.0636
570.00,0.0626
569.00,0.0616
568.00,0.0606
567.00,0.0598
566.00,0.0594
565.00,0.0590
564.00,0.0586
563.00,0.0583
562.00,0.0584
561.00,0.0588
560.00,0.0594
559.00,0.0604
558.00,0.0621
557.00,0.0642
556.00,0.0664
555.00,0.0688
554.00,0.0713
553.00,0.0733
552.00,0.0744
551.00,0.0748
550.00,0.0747
549.00,0.0739
548.00,0.0725
547.00,0.0712
546.00,0.0701
545.00,0.0690
544.00,0.0678
543.00,0.0669
542.00,0.0664
541.00,0.0662
540.00,0.0662
539.00,0.0666
538.00,0.0676
537.00,0.0688
536.00,0.0698
535.00,0.0708
534.00,0.0716
533.00,0.0721
532.00,0.0719
531.00,0.0717
530.00,0.0718
529.00,0.0723
528.00,0.0732
527.00,0.0748
526.00,0.0768
525.00,0.0782
524.00,0.0784
523.00,0.0775
522.00,0.0758
521.00,0.0733
520.00,0.0702
519.00,0.0673
518.00,0.0650
517.00,0.0631
516.00,0.0612
515.00,0.0599
514.00,0.0591
513.00,0.0586
512.00,0.0579
511.00,0.0574
510.00,0.0573
509.00,0.0573
508.00,0.0572
507.00,0.0572
506.00,0.0576
505.00,0.0579
504.00,0.0580
503.00,0.0582
502.00,0.0586
501.00,0.0589
500.00,0.0590
499.00,0.0594
498.00,0.0603
497.00,0.0612
496.00,0.0617
495.00,0.0622
494.00,0.0630
493.00,0.0638
492.00,0.0644
491.00,0.0650
490.00,0.0659
489.00,0.0666
488.00,0.0669
487.00,0.0673
486.00,0.0683
485.00,0.0691
484.00,0.0695
483.00,0.0698
482.00,0.0702
481.00,0.0702
480.00,0.0697
479.00,0.0691
478.00,0.0691
477.00,0.0692
476.00,0.0691
475.00,0.0693
474.00,0.0703
473.00,0.0714
472.00,0.0719
471.00,0.0721
470.00,0.0725
469.00,0.0728
468.00,0.0726
467.00,0.0724
466.00,0.0725
465.00,0.0721
464.00,0.0711
463.00,0.0701
462.00,0.0697
461.00,0.0693
460.00,0.0684
459.00,0.0677
458.00,0.0675
457.00,0.0670
456.00,0.0659
455.00,0.0651
454.00,0.0650
453.00,0.0649
452.00,0.0641
451.00,0.0634
450.00,0.0635
449.00,0.0638
448.00,0.0637
447.00,0.0637
446.00,0.0643
445.00,0.0647
444.00,0.0644
443.00,0.0642
442.00,0.0647
441.00,0.0649
440.00,0.0643
439.00,0.0637
438.00,0.0636
437.00,0.0634
436.00,0.0627
435.00,0.0622
434.00,0.0625
433.00,0.0627
432.00,0.0622
431.00,0.0620
430.00,0.0627
429.00,0.0634
428.00,0.0633
427.00,0.0631
426.00,0.0638
425.00,0.0646
424.00,0.0647
423.00,0.0650
422.00,0.0661
421.00,0.0671
420.00,0.0669
419.00,0.0665
418.00,0.0665
417.00,0.0654
416.00,0.0632
415.00,0.0615
414.00,0.0613
413.00,0.0612
412.00,0.0599
411.00,0.0589
410.00,0.0593
409.00,0.0596
408.00,0.0587
407.00,0.0580
406.00,0.0588
405.00,0.0595
404.00,0.0587
403.00,0.0581
402.00,0.0590
401.00,0.0597
400.00,0.0588
