Created as New Dataset,Sample 756 By YargerLab Date Tuesday, July 01 2025
cm-1,A
4000.00,0.0027
3999.00,0.0027
3998.00,0.0027
3997.00,0.0027
3996.00,0.0027
3995.00,0.0027
3994.00,0.0027
3993.00,0.0028
3992.00,0.0028
3991.00,0.0028
3990.00,0.0027
3989.00,0.0027
3988.00,0.0027
3987.00,0.0027
3986.00,0.0027
3985.00,0.0027
3984.00,0.0027
3983.00,0.0027
3982.00,0.0027
3981.00,0.0028
3980.00,0.0028
3979.00,0.0028
3978.00,0.0028
3977.00,0.0028
3976.00,0.0028
3975.00,0.0028
3974.00,0.0028
3973.00,0.0028
3972.00,0.0028
3971.00,0.0029
3970.00,0.0029
3969.00,0.0029
3968.00,0.0029
3967.00,0.0029
3966.00,0.0029
3965.00,0.0029
3964.00,0.0029
3963.00,0.0029
3962.00,0.0029
3961.00,0.0029
3960.00,0.0029
3959.00,0.0029
3958.00,0.0029
3957.00,0.0028
3956.00,0.0028
3955.00,0.0028
3954.00,0.0028
3953.00,0.0028
3952.00,0.0028
3951.00,0.0029
3950.00,0.0029
3949.00,0.0030
3948.00,0.0031
3947.00,0.0031
3946.00,0.0031
3945.00,0.0030
3944.00,0.0029
3943.00,0.0028
3942.00,0.0028
3941.00,0.0028
3940.00,0.0029
3939.00,0.0029
3938.00,0.0029
3937.00,0.0029
3936.00,0.0029
3935.00,0.0030
3934.00,0.0030
3933.00,0.0030
3932.00,0.0030
3931.00,0.0029
3930.00,0.0029
3929.00,0.0028
3928.00,0.0028
3927.00,0.0028
3926.00,0.0027
3925.00,0.0027
3924.00,0.0027
3923.00,0.0028
3922.00,0.0028
3921.00,0.0029
3920.00,0.0030
3919.00,0.0031
3918.00,0.0031
3917.00,0.0031
3916.00,0.0030
3915.00,0.0029
3914.00,0.0028
3913.00,0.0028
3912.00,0.0027
3911.00,0.0027
3910.00,0.0027
3909.00,0.0027
3908.00,0.0027
3907.00,0.0028
3906.00,0.0028
3905.00,0.0030
3904.00,0.0031
3903.00,0.0033
3902.00,0.0034
3901.00,0.0034
3900.00,0.0033
3899.00,0.0031
3898.00,0.0030
3897.00,0.0030
3896.00,0.0030
3895.00,0.0029
3894.00,0.0029
3893.00,0.0028
3892.00,0.0028
3891.00,0.0028
3890.00,0.0029
3889.00,0.0030
3888.00,0.0031
3887.00,0.0032
3886.00,0.0032
3885.00,0.0031
3884.00,0.0030
3883.00,0.0030
3882.00,0.0031
3881.00,0.0030
3880.00,0.0030
3879.00,0.0030
3878.00,0.0030
3877.00,0.0030
3876.00,0.0030
3875.00,0.0029
3874.00,0.0028
3873.00,0.0029
3872.00,0.0030
3871.00,0.0032
3870.00,0.0032
3869.00,0.0032
3868.00,0.0032
3867.00,0.0032
3866.00,0.0033
3865.00,0.0032
3864.00,0.0031
3863.00,0.0030
3862.00,0.0031
3861.00,0.0032
3860.00,0.0032
3859.00,0.0031
3858.00,0.0029
3857.00,0.0027
3856.00,0.0026
3855.00,0.0027
3854.00,0.0027
3853.00,0.0028
3852.00,0.0029
3851.00,0.0030
3850.00,0.0030
3849.00,0.0031
3848.00,0.0031
3847.00,0.0031
3846.00,0.0031
3845.00,0.0030
3844.00,0.0030
3843.00,0.0030
3842.00,0.0030
3841.00,0.0030
3840.00,0.0030
3839.00,0.0030
3838.00,0.0030
3837.00,0.0029
3836.00,0.0029
3835.00,0.0029
3834.00,0.0030
3833.00,0.0030
3832.00,0.0031
3831.00,0.0031
3830.00,0.0030
3829.00,0.0030
3828.00,0.0030
3827.00,0.0030
3826.00,0.0030
3825.00,0.0030
3824.00,0.0031
3823.00,0.0032
3822.00,0.0032
3821.00,0.0031
3820.00,0.0030
3819.00,0.0030
3818.00,0.0031
3817.00,0.0031
3816.00,0.0030
3815.00,0.0029
3814.00,0.0028
3813.00,0.0028
3812.00,0.0028
3811.00,0.0028
3810.00,0.0028
3809.00,0.0028
3808.00,0.0029
3807.00,0.0029
3806.00,0.0029
3805.00,0.0029
3804.00,0.0029
3803.00,0.0030
3802.00,0.0029
3801.00,0.0029
3800.00,0.0028
3799.00,0.0029
3798.00,0.0029
3797.00,0.0030
3796.00,0.0029
3795.00,0.0029
3794.00,0.0028
3793.00,0.0028
3792.00,0.0027
3791.00,0.0027
3790.00,0.0027
3789.00,0.0027
3788.00,0.0027
3787.00,0.0027
3786.00,0.0027
3785.00,0.0027
3784.00,0.0027
3783.00,0.0027
3782.00,0.0028
3781.00,0.0028
3780.00,0.0028
3779.00,0.0027
3778.00,0.0027
3777.00,0.0027
3776.00,0.0028
3775.00,0.0028
3774.00,0.0028
3773.00,0.0028
3772.00,0.0028
3771.00,0.0029
3770.00,0.0029
3769.00,0.0029
3768.00,0.0030
3767.00,0.0030
3766.00,0.0030
3765.00,0.0030
3764.00,0.0030
3763.00,0.0030
3762.00,0.0030
3761.00,0.0030
3760.00,0.0030
3759.00,0.0030
3758.00,0.0030
3757.00,0.0031
3756.00,0.0031
3755.00,0.0032
3754.00,0.0033
3753.00,0.0034
3752.00,0.0035
3751.00,0.0037
3750.00,0.0038
3749.00,0.0038
3748.00,0.0037
3747.00,0.0036
3746.00,0.0036
3745.00,0.0037
3744.00,0.0036
3743.00,0.0035
3742.00,0.0034
3741.00,0.0035
3740.00,0.0036
3739.00,0.0037
3738.00,0.0038
3737.00,0.0038
3736.00,0.0037
3735.00,0.0035
3734.00,0.0035
3733.00,0.0035
3732.00,0.0035
3731.00,0.0034
3730.00,0.0033
3729.00,0.0033
3728.00,0.0033
3727.00,0.0033
3726.00,0.0032
3725.00,0.0032
3724.00,0.0032
3723.00,0.0032
3722.00,0.0031
3721.00,0.0030
3720.00,0.0030
3719.00,0.0030
3718.00,0.0029
3717.00,0.0029
3716.00,0.0029
3715.00,0.0030
3714.00,0.0030
3713.00,0.0031
3712.00,0.0031
3711.00,0.0030
3710.00,0.0030
3709.00,0.0031
3708.00,0.0030
3707.00,0.0030
3706.00,0.0029
3705.00,0.0028
3704.00,0.0027
3703.00,0.0027
3702.00,0.0027
3701.00,0.0027
3700.00,0.0027
3699.00,0.0027
3698.00,0.0027
3697.00,0.0027
3696.00,0.0027
3695.00,0.0027
3694.00,0.0027
3693.00,0.0027
3692.00,0.0026
3691.00,0.0025
3690.00,0.0024
3689.00,0.0026
3688.00,0.0027
3687.00,0.0027
3686.00,0.0026
3685.00,0.0026
3684.00,0.0026
3683.00,0.0025
3682.00,0.0025
3681.00,0.0024
3680.00,0.0023
3679.00,0.0022
3678.00,0.0022
3677.00,0.0023
3676.00,0.0023
3675.00,0.0022
3674.00,0.0021
3673.00,0.0021
3672.00,0.0022
3671.00,0.0021
3670.00,0.0020
3669.00,0.0018
3668.00,0.0017
3667.00,0.0017
3666.00,0.0016
3665.00,0.0015
3664.00,0.0014
3663.00,0.0014
3662.00,0.0013
3661.00,0.0013
3660.00,0.0013
3659.00,0.0014
3658.00,0.0014
3657.00,0.0015
3656.00,0.0016
3655.00,0.0017
3654.00,0.0017
3653.00,0.0019
3652.00,0.0020
3651.00,0.0021
3650.00,0.0022
3649.00,0.0023
3648.00,0.0024
3647.00,0.0024
3646.00,0.0023
3645.00,0.0023
3644.00,0.0022
3643.00,0.0022
3642.00,0.0022
3641.00,0.0021
3640.00,0.0021
3639.00,0.0021
3638.00,0.0021
3637.00,0.0022
3636.00,0.0023
3635.00,0.0025
3634.00,0.0027
3633.00,0.0029
3632.00,0.0031
3631.00,0.0033
3630.00,0.0035
3629.00,0.0037
3628.00,0.0038
3627.00,0.0039
3626.00,0.0039
3625.00,0.0039
3624.00,0.0039
3623.00,0.0039
3622.00,0.0039
3621.00,0.0039
3620.00,0.0039
3619.00,0.0040
3618.00,0.0042
3617.00,0.0043
3616.00,0.0045
3615.00,0.0046
3614.00,0.0046
3613.00,0.0047
3612.00,0.0048
3611.00,0.0049
3610.00,0.0050
3609.00,0.0050
3608.00,0.0049
3607.00,0.0048
3606.00,0.0047
3605.00,0.0047
3604.00,0.0046
3603.00,0.0046
3602.00,0.0045
3601.00,0.0045
3600.00,0.0045
3599.00,0.0046
3598.00,0.0046
3597.00,0.0047
3596.00,0.0047
3595.00,0.0047
3594.00,0.0047
3593.00,0.0047
3592.00,0.0049
3591.00,0.0050
3590.00,0.0051
3589.00,0.0052
3588.00,0.0052
3587.00,0.0052
3586.00,0.0052
3585.00,0.0052
3584.00,0.0053
3583.00,0.0053
3582.00,0.0053
3581.00,0.0052
3580.00,0.0052
3579.00,0.0052
3578.00,0.0053
3577.00,0.0053
3576.00,0.0053
3575.00,0.0054
3574.00,0.0055
3573.00,0.0056
3572.00,0.0057
3571.00,0.0058
3570.00,0.0060
3569.00,0.0062
3568.00,0.0063
3567.00,0.0064
3566.00,0.0065
3565.00,0.0065
3564.00,0.0066
3563.00,0.0066
3562.00,0.0066
3561.00,0.0066
3560.00,0.0066
3559.00,0.0067
3558.00,0.0067
3557.00,0.0068
3556.00,0.0068
3555.00,0.0069
3554.00,0.0070
3553.00,0.0071
3552.00,0.0072
3551.00,0.0074
3550.00,0.0075
3549.00,0.0077
3548.00,0.0079
3547.00,0.0080
3546.00,0.0081
3545.00,0.0082
3544.00,0.0083
3543.00,0.0083
3542.00,0.0084
3541.00,0.0084
3540.00,0.0085
3539.00,0.0086
3538.00,0.0087
3537.00,0.0088
3536.00,0.0089
3535.00,0.0091
3534.00,0.0092
3533.00,0.0093
3532.00,0.0094
3531.00,0.0096
3530.00,0.0097
3529.00,0.0099
3528.00,0.0101
3527.00,0.0103
3526.00,0.0105
3525.00,0.0106
3524.00,0.0108
3523.00,0.0109
3522.00,0.0110
3521.00,0.0111
3520.00,0.0113
3519.00,0.0114
3518.00,0.0115
3517.00,0.0116
3516.00,0.0117
3515.00,0.0119
3514.00,0.0121
3513.00,0.0122
3512.00,0.0124
3511.00,0.0126
3510.00,0.0128
3509.00,0.0130
3508.00,0.0132
3507.00,0.0134
3506.00,0.0136
3505.00,0.0139
3504.00,0.0141
3503.00,0.0143
3502.00,0.0146
3501.00,0.0148
3500.00,0.0150
3499.00,0.0152
3498.00,0.0154
3497.00,0.0156
3496.00,0.0158
3495.00,0.0161
3494.00,0.0163
3493.00,0.0166
3492.00,0.0168
3491.00,0.0171
3490.00,0.0173
3489.00,0.0176
3488.00,0.0179
3487.00,0.0182
3486.00,0.0185
3485.00,0.0187
3484.00,0.0190
3483.00,0.0193
3482.00,0.0197
3481.00,0.0200
3480.00,0.0204
3479.00,0.0207
3478.00,0.0210
3477.00,0.0213
3476.00,0.0215
3475.00,0.0218
3474.00,0.0221
3473.00,0.0225
3472.00,0.0228
3471.00,0.0232
3470.00,0.0235
3469.00,0.0238
3468.00,0.0241
3467.00,0.0244
3466.00,0.0246
3465.00,0.0249
3464.00,0.0252
3463.00,0.0255
3462.00,0.0258
3461.00,0.0261
3460.00,0.0263
3459.00,0.0266
3458.00,0.0268
3457.00,0.0270
3456.00,0.0273
3455.00,0.0275
3454.00,0.0277
3453.00,0.0279
3452.00,0.0281
3451.00,0.0282
3450.00,0.0284
3449.00,0.0285
3448.00,0.0287
3447.00,0.0289
3446.00,0.0291
3445.00,0.0293
3444.00,0.0294
3443.00,0.0295
3442.00,0.0296
3441.00,0.0297
3440.00,0.0298
3439.00,0.0300
3438.00,0.0301
3437.00,0.0302
3436.00,0.0303
3435.00,0.0303
3434.00,0.0303
3433.00,0.0304
3432.00,0.0305
3431.00,0.0305
3430.00,0.0306
3429.00,0.0306
3428.00,0.0307
3427.00,0.0307
3426.00,0.0307
3425.00,0.0307
3424.00,0.0308
3423.00,0.0308
3422.00,0.0308
3421.00,0.0309
3420.00,0.0310
3419.00,0.0310
3418.00,0.0310
3417.00,0.0311
3416.00,0.0311
3415.00,0.0311
3414.00,0.0312
3413.00,0.0312
3412.00,0.0312
3411.00,0.0313
3410.00,0.0313
3409.00,0.0313
3408.00,0.0313
3407.00,0.0313
3406.00,0.0313
3405.00,0.0313
3404.00,0.0313
3403.00,0.0314
3402.00,0.0314
3401.00,0.0315
3400.00,0.0315
3399.00,0.0315
3398.00,0.0316
3397.00,0.0316
3396.00,0.0317
3395.00,0.0317
3394.00,0.0317
3393.00,0.0317
3392.00,0.0318
3391.00,0.0318
3390.00,0.0319
3389.00,0.0319
3388.00,0.0319
3387.00,0.0319
3386.00,0.0319
3385.00,0.0320
3384.00,0.0320
3383.00,0.0321
3382.00,0.0321
3381.00,0.0322
3380.00,0.0322
3379.00,0.0322
3378.00,0.0322
3377.00,0.0322
3376.00,0.0323
3375.00,0.0324
3374.00,0.0325
3373.00,0.0325
3372.00,0.0325
3371.00,0.0325
3370.00,0.0325
3369.00,0.0325
3368.00,0.0326
3367.00,0.0327
3366.00,0.0327
3365.00,0.0328
3364.00,0.0329
3363.00,0.0330
3362.00,0.0331
3361.00,0.0331
3360.00,0.0332
3359.00,0.0332
3358.00,0.0332
3357.00,0.0333
3356.00,0.0333
3355.00,0.0333
3354.00,0.0334
3353.00,0.0334
3352.00,0.0334
3351.00,0.0335
3350.00,0.0335
3349.00,0.0336
3348.00,0.0337
3347.00,0.0337
3346.00,0.0337
3345.00,0.0337
3344.00,0.0338
3343.00,0.0338
3342.00,0.0338
3341.00,0.0338
3340.00,0.0338
3339.00,0.0339
3338.00,0.0339
3337.00,0.0340
3336.00,0.0342
3335.00,0.0343
3334.00,0.0344
3333.00,0.0344
3332.00,0.0345
3331.00,0.0345
3330.00,0.0345
3329.00,0.0345
3328.00,0.0344
3327.00,0.0344
3326.00,0.0344
3325.00,0.0345
3324.00,0.0346
3323.00,0.0346
3322.00,0.0347
3321.00,0.0348
3320.00,0.0348
3319.00,0.0349
3318.00,0.0349
3317.00,0.0349
3316.00,0.0349
3315.00,0.0349
3314.00,0.0349
3313.00,0.0349
3312.00,0.0349
3311.00,0.0348
3310.00,0.0347
3309.00,0.0345
3308.00,0.0345
3307.00,0.0345
3306.00,0.0345
3305.00,0.0346
3304.00,0.0347
3303.00,0.0348
3302.00,0.0349
3301.00,0.0350
3300.00,0.0349
3299.00,0.0349
3298.00,0.0348
3297.00,0.0347
3296.00,0.0346
3295.00,0.0346
3294.00,0.0346
3293.00,0.0346
3292.00,0.0347
3291.00,0.0347
3290.00,0.0348
3289.00,0.0349
3288.00,0.0349
3287.00,0.0349
3286.00,0.0348
3285.00,0.0348
3284.00,0.0347
3283.00,0.0347
3282.00,0.0347
3281.00,0.0346
3280.00,0.0346
3279.00,0.0346
3278.00,0.0345
3277.00,0.0345
3276.00,0.0344
3275.00,0.0344
3274.00,0.0344
3273.00,0.0343
3272.00,0.0342
3271.00,0.0342
3270.00,0.0342
3269.00,0.0342
3268.00,0.0342
3267.00,0.0342
3266.00,0.0342
3265.00,0.0342
3264.00,0.0342
3263.00,0.0342
3262.00,0.0342
3261.00,0.0341
3260.00,0.0341
3259.00,0.0341
3258.00,0.0340
3257.00,0.0340
3256.00,0.0340
3255.00,0.0340
3254.00,0.0340
3253.00,0.0340
3252.00,0.0339
3251.00,0.0339
3250.00,0.0338
3249.00,0.0337
3248.00,0.0337
3247.00,0.0337
3246.00,0.0336
3245.00,0.0336
3244.00,0.0336
3243.00,0.0336
3242.00,0.0335
3241.00,0.0334
3240.00,0.0334
3239.00,0.0333
3238.00,0.0332
3237.00,0.0331
3236.00,0.0331
3235.00,0.0330
3234.00,0.0329
3233.00,0.0329
3232.00,0.0329
3231.00,0.0328
3230.00,0.0328
3229.00,0.0328
3228.00,0.0327
3227.00,0.0326
3226.00,0.0326
3225.00,0.0325
3224.00,0.0325
3223.00,0.0324
3222.00,0.0324
3221.00,0.0323
3220.00,0.0323
3219.00,0.0322
3218.00,0.0322
3217.00,0.0322
3216.00,0.0321
3215.00,0.0321
3214.00,0.0321
3213.00,0.0321
3212.00,0.0320
3211.00,0.0320
3210.00,0.0319
3209.00,0.0319
3208.00,0.0319
3207.00,0.0319
3206.00,0.0318
3205.00,0.0318
3204.00,0.0317
3203.00,0.0316
3202.00,0.0316
3201.00,0.0315
3200.00,0.0314
3199.00,0.0314
3198.00,0.0313
3197.00,0.0313
3196.00,0.0312
3195.00,0.0311
3194.00,0.0311
3193.00,0.0310
3192.00,0.0309
3191.00,0.0308
3190.00,0.0307
3189.00,0.0306
3188.00,0.0305
3187.00,0.0304
3186.00,0.0304
3185.00,0.0303
3184.00,0.0303
3183.00,0.0302
3182.00,0.0301
3181.00,0.0300
3180.00,0.0299
3179.00,0.0298
3178.00,0.0297
3177.00,0.0296
3176.00,0.0295
3175.00,0.0294
3174.00,0.0293
3173.00,0.0292
3172.00,0.0291
3171.00,0.0290
3170.00,0.0289
3169.00,0.0288
3168.00,0.0287
3167.00,0.0286
3166.00,0.0285
3165.00,0.0284
3164.00,0.0283
3163.00,0.0282
3162.00,0.0280
3161.00,0.0279
3160.00,0.0277
3159.00,0.0276
3158.00,0.0274
3157.00,0.0273
3156.00,0.0272
3155.00,0.0271
3154.00,0.0270
3153.00,0.0269
3152.00,0.0268
3151.00,0.0267
3150.00,0.0266
3149.00,0.0265
3148.00,0.0264
3147.00,0.0263
3146.00,0.0262
3145.00,0.0261
3144.00,0.0261
3143.00,0.0260
3142.00,0.0258
3141.00,0.0257
3140.00,0.0256
3139.00,0.0254
3138.00,0.0253
3137.00,0.0252
3136.00,0.0251
3135.00,0.0250
3134.00,0.0249
3133.00,0.0248
3132.00,0.0247
3131.00,0.0246
3130.00,0.0245
3129.00,0.0244
3128.00,0.0242
3127.00,0.0241
3126.00,0.0240
3125.00,0.0239
3124.00,0.0238
3123.00,0.0237
3122.00,0.0235
3121.00,0.0234
3120.00,0.0233
3119.00,0.0232
3118.00,0.0231
3117.00,0.0230
3116.00,0.0229
3115.00,0.0228
3114.00,0.0227
3113.00,0.0226
3112.00,0.0225
3111.00,0.0224
3110.00,0.0223
3109.00,0.0222
3108.00,0.0221
3107.00,0.0220
3106.00,0.0219
3105.00,0.0218
3104.00,0.0218
3103.00,0.0217
3102.00,0.0216
3101.00,0.0216
3100.00,0.0215
3099.00,0.0215
3098.00,0.0214
3097.00,0.0213
3096.00,0.0213
3095.00,0.0213
3094.00,0.0212
3093.00,0.0213
3092.00,0.0213
3091.00,0.0213
3090.00,0.0214
3089.00,0.0214
3088.00,0.0214
3087.00,0.0215
3086.00,0.0216
3085.00,0.0217
3084.00,0.0218
3083.00,0.0220
3082.00,0.0221
3081.00,0.0222
3080.00,0.0224
3079.00,0.0225
3078.00,0.0226
3077.00,0.0226
3076.00,0.0227
3075.00,0.0227
3074.00,0.0227
3073.00,0.0227
3072.00,0.0226
3071.00,0.0225
3070.00,0.0223
3069.00,0.0221
3068.00,0.0218
3067.00,0.0215
3066.00,0.0212
3065.00,0.0208
3064.00,0.0204
3063.00,0.0201
3062.00,0.0197
3061.00,0.0194
3060.00,0.0191
3059.00,0.0188
3058.00,0.0186
3057.00,0.0184
3056.00,0.0183
3055.00,0.0182
3054.00,0.0181
3053.00,0.0180
3052.00,0.0179
3051.00,0.0179
3050.00,0.0178
3049.00,0.0178
3048.00,0.0177
3047.00,0.0177
3046.00,0.0177
3045.00,0.0176
3044.00,0.0176
3043.00,0.0176
3042.00,0.0176
3041.00,0.0176
3040.00,0.0176
3039.00,0.0176
3038.00,0.0176
3037.00,0.0176
3036.00,0.0176
3035.00,0.0176
3034.00,0.0175
3033.00,0.0175
3032.00,0.0175
3031.00,0.0174
3030.00,0.0173
3029.00,0.0172
3028.00,0.0171
3027.00,0.0170
3026.00,0.0169
3025.00,0.0169
3024.00,0.0168
3023.00,0.0168
3022.00,0.0167
3021.00,0.0167
3020.00,0.0166
3019.00,0.0165
3018.00,0.0164
3017.00,0.0163
3016.00,0.0162
3015.00,0.0161
3014.00,0.0160
3013.00,0.0159
3012.00,0.0158
3011.00,0.0156
3010.00,0.0154
3009.00,0.0152
3008.00,0.0150
3007.00,0.0147
3006.00,0.0144
3005.00,0.0142
3004.00,0.0139
3003.00,0.0137
3002.00,0.0135
3001.00,0.0133
3000.00,0.0131
2999.00,0.0130
2998.00,0.0130
2997.00,0.0130
2996.00,0.0132
2995.00,0.0133
2994.00,0.0135
2993.00,0.0137
2992.00,0.0140
2991.00,0.0143
2990.00,0.0146
2989.00,0.0149
2988.00,0.0151
2987.00,0.0152
2986.00,0.0151
2985.00,0.0145
2984.00,0.0136
2983.00,0.0127
2982.00,0.0123
2981.00,0.0126
2980.00,0.0137
2979.00,0.0153
2978.00,0.0170
2977.00,0.0187
2976.00,0.0203
2975.00,0.0217
2974.00,0.0229
2973.00,0.0241
2972.00,0.0253
2971.00,0.0269
2970.00,0.0289
2969.00,0.0312
2968.00,0.0335
2967.00,0.0359
2966.00,0.0381
2965.00,0.0401
2964.00,0.0421
2963.00,0.0440
2962.00,0.0456
2961.00,0.0470
2960.00,0.0482
2959.00,0.0492
2958.00,0.0500
2957.00,0.0506
2956.00,0.0510
2955.00,0.0512
2954.00,0.0512
2953.00,0.0511
2952.00,0.0508
2951.00,0.0505
2950.00,0.0501
2949.00,0.0499
2948.00,0.0498
2947.00,0.0500
2946.00,0.0505
2945.00,0.0512
2944.00,0.0523
2943.00,0.0536
2942.00,0.0551
2941.00,0.0568
2940.00,0.0587
2939.00,0.0607
2938.00,0.0630
2937.00,0.0653
2936.00,0.0677
2935.00,0.0701
2934.00,0.0723
2933.00,0.0745
2932.00,0.0765
2931.00,0.0783
2930.00,0.0799
2929.00,0.0813
2928.00,0.0825
2927.00,0.0833
2926.00,0.0839
2925.00,0.0841
2924.00,0.0840
2923.00,0.0837
2922.00,0.0830
2921.00,0.0821
2920.00,0.0810
2919.00,0.0797
2918.00,0.0782
2917.00,0.0767
2916.00,0.0750
2915.00,0.0734
2914.00,0.0718
2913.00,0.0702
2912.00,0.0686
2911.00,0.0671
2910.00,0.0655
2909.00,0.0639
2908.00,0.0623
2907.00,0.0608
2906.00,0.0594
2905.00,0.0581
2904.00,0.0569
2903.00,0.0557
2902.00,0.0547
2901.00,0.0537
2900.00,0.0527
2899.00,0.0518
2898.00,0.0509
2897.00,0.0501
2896.00,0.0492
2895.00,0.0484
2894.00,0.0475
2893.00,0.0467
2892.00,0.0459
2891.00,0.0451
2890.00,0.0445
2889.00,0.0439
2888.00,0.0434
2887.00,0.0430
2886.00,0.0426
2885.00,0.0423
2884.00,0.0420
2883.00,0.0419
2882.00,0.0419
2881.00,0.0421
2880.00,0.0425
2879.00,0.0429
2878.00,0.0434
2877.00,0.0440
2876.00,0.0447
2875.00,0.0454
2874.00,0.0460
2873.00,0.0467
2872.00,0.0471
2871.00,0.0474
2870.00,0.0475
2869.00,0.0475
2868.00,0.0474
2867.00,0.0474
2866.00,0.0476
2865.00,0.0481
2864.00,0.0489
2863.00,0.0499
2862.00,0.0512
2861.00,0.0525
2860.00,0.0539
2859.00,0.0551
2858.00,0.0561
2857.00,0.0566
2856.00,0.0566
2855.00,0.0561
2854.00,0.0550
2853.00,0.0536
2852.00,0.0519
2851.00,0.0499
2850.00,0.0477
2849.00,0.0455
2848.00,0.0433
2847.00,0.0411
2846.00,0.0390
2845.00,0.0370
2844.00,0.0352
2843.00,0.0335
2842.00,0.0321
2841.00,0.0310
2840.00,0.0301
2839.00,0.0296
2838.00,0.0292
2837.00,0.0290
2836.00,0.0290
2835.00,0.0290
2834.00,0.0290
2833.00,0.0289
2832.00,0.0287
2831.00,0.0283
2830.00,0.0277
2829.00,0.0270
2828.00,0.0262
2827.00,0.0252
2826.00,0.0241
2825.00,0.0230
2824.00,0.0220
2823.00,0.0210
2822.00,0.0200
2821.00,0.0192
2820.00,0.0184
2819.00,0.0178
2818.00,0.0172
2817.00,0.0166
2816.00,0.0162
2815.00,0.0158
2814.00,0.0154
2813.00,0.0151
2812.00,0.0148
2811.00,0.0145
2810.00,0.0143
2809.00,0.0140
2808.00,0.0138
2807.00,0.0136
2806.00,0.0134
2805.00,0.0132
2804.00,0.0131
2803.00,0.0129
2802.00,0.0127
2801.00,0.0126
2800.00,0.0125
2799.00,0.0123
2798.00,0.0122
2797.00,0.0121
2796.00,0.0119
2795.00,0.0118
2794.00,0.0117
2793.00,0.0116
2792.00,0.0115
2791.00,0.0114
2790.00,0.0113
2789.00,0.0113
2788.00,0.0112
2787.00,0.0111
2786.00,0.0111
2785.00,0.0110
2784.00,0.0110
2783.00,0.0109
2782.00,0.0109
2781.00,0.0109
2780.00,0.0108
2779.00,0.0108
2778.00,0.0107
2777.00,0.0106
2776.00,0.0105
2775.00,0.0105
2774.00,0.0105
2773.00,0.0104
2772.00,0.0104
2771.00,0.0104
2770.00,0.0104
2769.00,0.0103
2768.00,0.0103
2767.00,0.0103
2766.00,0.0103
2765.00,0.0103
2764.00,0.0103
2763.00,0.0103
2762.00,0.0103
2761.00,0.0103
2760.00,0.0103
2759.00,0.0103
2758.00,0.0103
2757.00,0.0103
2756.00,0.0103
2755.00,0.0103
2754.00,0.0103
2753.00,0.0103
2752.00,0.0103
2751.00,0.0103
2750.00,0.0102
2749.00,0.0102
2748.00,0.0102
2747.00,0.0103
2746.00,0.0103
2745.00,0.0103
2744.00,0.0103
2743.00,0.0104
2742.00,0.0104
2741.00,0.0104
2740.00,0.0105
2739.00,0.0105
2738.00,0.0106
2737.00,0.0106
2736.00,0.0107
2735.00,0.0108
2734.00,0.0109
2733.00,0.0109
2732.00,0.0110
2731.00,0.0110
2730.00,0.0111
2729.00,0.0111
2728.00,0.0111
2727.00,0.0111
2726.00,0.0111
2725.00,0.0111
2724.00,0.0110
2723.00,0.0110
2722.00,0.0109
2721.00,0.0108
2720.00,0.0108
2719.00,0.0107
2718.00,0.0106
2717.00,0.0105
2716.00,0.0104
2715.00,0.0103
2714.00,0.0103
2713.00,0.0102
2712.00,0.0102
2711.00,0.0101
2710.00,0.0101
2709.00,0.0100
2708.00,0.0100
2707.00,0.0100
2706.00,0.0100
2705.00,0.0100
2704.00,0.0100
2703.00,0.0099
2702.00,0.0099
2701.00,0.0099
2700.00,0.0099
2699.00,0.0099
2698.00,0.0099
2697.00,0.0099
2696.00,0.0099
2695.00,0.0099
2694.00,0.0098
2693.00,0.0098
2692.00,0.0099
2691.00,0.0099
2690.00,0.0099
2689.00,0.0099
2688.00,0.0099
2687.00,0.0099
2686.00,0.0099
2685.00,0.0099
2684.00,0.0099
2683.00,0.0099
2682.00,0.0099
2681.00,0.0098
2680.00,0.0098
2679.00,0.0098
2678.00,0.0098
2677.00,0.0098
2676.00,0.0098
2675.00,0.0098
2674.00,0.0098
2673.00,0.0098
2672.00,0.0098
2671.00,0.0098
2670.00,0.0098
2669.00,0.0097
2668.00,0.0097
2667.00,0.0098
2666.00,0.0098
2665.00,0.0098
2664.00,0.0098
2663.00,0.0098
2662.00,0.0098
2661.00,0.0098
2660.00,0.0098
2659.00,0.0098
2658.00,0.0098
2657.00,0.0098
2656.00,0.0097
2655.00,0.0097
2654.00,0.0097
2653.00,0.0096
2652.00,0.0096
2651.00,0.0096
2650.00,0.0095
2649.00,0.0095
2648.00,0.0094
2647.00,0.0094
2646.00,0.0094
2645.00,0.0093
2644.00,0.0093
2643.00,0.0093
2642.00,0.0093
2641.00,0.0092
2640.00,0.0092
2639.00,0.0092
2638.00,0.0092
2637.00,0.0092
2636.00,0.0091
2635.00,0.0091
2634.00,0.0091
2633.00,0.0091
2632.00,0.0090
2631.00,0.0090
2630.00,0.0090
2629.00,0.0090
2628.00,0.0090
2627.00,0.0089
2626.00,0.0089
2625.00,0.0089
2624.00,0.0089
2623.00,0.0089
2622.00,0.0088
2621.00,0.0088
2620.00,0.0088
2619.00,0.0088
2618.00,0.0087
2617.00,0.0087
2616.00,0.0087
2615.00,0.0087
2614.00,0.0087
2613.00,0.0086
2612.00,0.0085
2611.00,0.0085
2610.00,0.0084
2609.00,0.0084
2608.00,0.0084
2607.00,0.0084
2606.00,0.0084
2605.00,0.0083
2604.00,0.0083
2603.00,0.0083
2602.00,0.0083
2601.00,0.0082
2600.00,0.0082
2599.00,0.0082
2598.00,0.0082
2597.00,0.0082
2596.00,0.0081
2595.00,0.0081
2594.00,0.0080
2593.00,0.0080
2592.00,0.0080
2591.00,0.0080
2590.00,0.0080
2589.00,0.0080
2588.00,0.0080
2587.00,0.0080
2586.00,0.0079
2585.00,0.0079
2584.00,0.0079
2583.00,0.0079
2582.00,0.0079
2581.00,0.0079
2580.00,0.0079
2579.00,0.0079
2578.00,0.0079
2577.00,0.0079
2576.00,0.0078
2575.00,0.0078
2574.00,0.0077
2573.00,0.0076
2572.00,0.0076
2571.00,0.0076
2570.00,0.0076
2569.00,0.0076
2568.00,0.0076
2567.00,0.0076
2566.00,0.0076
2565.00,0.0075
2564.00,0.0075
2563.00,0.0075
2562.00,0.0075
2561.00,0.0075
2560.00,0.0075
2559.00,0.0074
2558.00,0.0074
2557.00,0.0074
2556.00,0.0073
2555.00,0.0073
2554.00,0.0073
2553.00,0.0073
2552.00,0.0073
2551.00,0.0073
2550.00,0.0073
2549.00,0.0073
2548.00,0.0072
2547.00,0.0072
2546.00,0.0072
2545.00,0.0071
2544.00,0.0071
2543.00,0.0071
2542.00,0.0071
2541.00,0.0071
2540.00,0.0070
2539.00,0.0070
2538.00,0.0070
2537.00,0.0069
2536.00,0.0069
2535.00,0.0069
2534.00,0.0069
2533.00,0.0069
2532.00,0.0068
2531.00,0.0068
2530.00,0.0067
2529.00,0.0067
2528.00,0.0067
2527.00,0.0067
2526.00,0.0066
2525.00,0.0066
2524.00,0.0066
2523.00,0.0065
2522.00,0.0065
2521.00,0.0065
2520.00,0.0065
2519.00,0.0065
2518.00,0.0065
2517.00,0.0065
2516.00,0.0064
2515.00,0.0064
2514.00,0.0064
2513.00,0.0064
2512.00,0.0064
2511.00,0.0064
2510.00,0.0063
2509.00,0.0063
2508.00,0.0062
2507.00,0.0062
2506.00,0.0062
2505.00,0.0062
2504.00,0.0062
2503.00,0.0062
2502.00,0.0061
2501.00,0.0061
2500.00,0.0061
2499.00,0.0061
2498.00,0.0061
2497.00,0.0062
2496.00,0.0062
2495.00,0.0062
2494.00,0.0062
2493.00,0.0061
2492.00,0.0061
2491.00,0.0061
2490.00,0.0061
2489.00,0.0060
2488.00,0.0060
2487.00,0.0060
2486.00,0.0060
2485.00,0.0060
2484.00,0.0060
2483.00,0.0060
2482.00,0.0060
2481.00,0.0059
2480.00,0.0059
2479.00,0.0059
2478.00,0.0059
2477.00,0.0059
2476.00,0.0059
2475.00,0.0059
2474.00,0.0059
2473.00,0.0058
2472.00,0.0058
2471.00,0.0057
2470.00,0.0057
2469.00,0.0057
2468.00,0.0057
2467.00,0.0057
2466.00,0.0057
2465.00,0.0057
2464.00,0.0056
2463.00,0.0056
2462.00,0.0057
2461.00,0.0057
2460.00,0.0057
2459.00,0.0058
2458.00,0.0058
2457.00,0.0057
2456.00,0.0057
2455.00,0.0057
2454.00,0.0057
2453.00,0.0057
2452.00,0.0056
2451.00,0.0056
2450.00,0.0056
2449.00,0.0056
2448.00,0.0055
2447.00,0.0055
2446.00,0.0055
2445.00,0.0055
2444.00,0.0054
2443.00,0.0054
2442.00,0.0053
2441.00,0.0053
2440.00,0.0052
2439.00,0.0052
2438.00,0.0052
2437.00,0.0052
2436.00,0.0052
2435.00,0.0051
2434.00,0.0051
2433.00,0.0051
2432.00,0.0051
2431.00,0.0051
2430.00,0.0050
2429.00,0.0050
2428.00,0.0050
2427.00,0.0050
2426.00,0.0049
2425.00,0.0049
2424.00,0.0049
2423.00,0.0048
2422.00,0.0048
2421.00,0.0048
2420.00,0.0048
2419.00,0.0048
2418.00,0.0048
2417.00,0.0048
2416.00,0.0049
2415.00,0.0049
2414.00,0.0049
2413.00,0.0049
2412.00,0.0049
2411.00,0.0049
2410.00,0.0048
2409.00,0.0048
2408.00,0.0047
2407.00,0.0047
2406.00,0.0046
2405.00,0.0046
2404.00,0.0047
2403.00,0.0047
2402.00,0.0046
2401.00,0.0046
2400.00,0.0046
2399.00,0.0047
2398.00,0.0047
2397.00,0.0047
2396.00,0.0047
2395.00,0.0047
2394.00,0.0047
2393.00,0.0046
2392.00,0.0046
2391.00,0.0046
2390.00,0.0046
2389.00,0.0046
2388.00,0.0046
2387.00,0.0045
2386.00,0.0045
2385.00,0.0044
2384.00,0.0043
2383.00,0.0042
2382.00,0.0041
2381.00,0.0041
2380.00,0.0041
2379.00,0.0041
2378.00,0.0041
2377.00,0.0042
2376.00,0.0042
2375.00,0.0042
2374.00,0.0042
2373.00,0.0042
2372.00,0.0042
2371.00,0.0042
2370.00,0.0041
2369.00,0.0041
2368.00,0.0041
2367.00,0.0041
2366.00,0.0042
2365.00,0.0042
2364.00,0.0043
2363.00,0.0043
2362.00,0.0043
2361.00,0.0043
2360.00,0.0043
2359.00,0.0042
2358.00,0.0042
2357.00,0.0042
2356.00,0.0043
2355.00,0.0043
2354.00,0.0043
2353.00,0.0043
2352.00,0.0043
2351.00,0.0043
2350.00,0.0043
2349.00,0.0044
2348.00,0.0045
2347.00,0.0046
2346.00,0.0047
2345.00,0.0046
2344.00,0.0046
2343.00,0.0045
2342.00,0.0045
2341.00,0.0046
2340.00,0.0046
2339.00,0.0047
2338.00,0.0047
2337.00,0.0047
2336.00,0.0047
2335.00,0.0046
2334.00,0.0046
2333.00,0.0046
2332.00,0.0046
2331.00,0.0045
2330.00,0.0046
2329.00,0.0048
2328.00,0.0052
2327.00,0.0057
2326.00,0.0060
2325.00,0.0060
2324.00,0.0059
2323.00,0.0056
2322.00,0.0053
2321.00,0.0052
2320.00,0.0051
2319.00,0.0050
2318.00,0.0050
2317.00,0.0050
2316.00,0.0050
2315.00,0.0049
2314.00,0.0048
2313.00,0.0047
2312.00,0.0047
2311.00,0.0046
2310.00,0.0045
2309.00,0.0045
2308.00,0.0045
2307.00,0.0045
2306.00,0.0045
2305.00,0.0046
2304.00,0.0046
2303.00,0.0046
2302.00,0.0046
2301.00,0.0046
2300.00,0.0047
2299.00,0.0047
2298.00,0.0047
2297.00,0.0048
2296.00,0.0049
2295.00,0.0050
2294.00,0.0051
2293.00,0.0052
2292.00,0.0053
2291.00,0.0054
2290.00,0.0055
2289.00,0.0055
2288.00,0.0056
2287.00,0.0056
2286.00,0.0055
2285.00,0.0055
2284.00,0.0054
2283.00,0.0053
2282.00,0.0052
2281.00,0.0052
2280.00,0.0052
2279.00,0.0051
2278.00,0.0051
2277.00,0.0051
2276.00,0.0051
2275.00,0.0051
2274.00,0.0050
2273.00,0.0050
2272.00,0.0049
2271.00,0.0049
2270.00,0.0048
2269.00,0.0047
2268.00,0.0046
2267.00,0.0046
2266.00,0.0045
2265.00,0.0045
2264.00,0.0046
2263.00,0.0046
2262.00,0.0047
2261.00,0.0047
2260.00,0.0048
2259.00,0.0047
2258.00,0.0046
2257.00,0.0045
2256.00,0.0044
2255.00,0.0044
2254.00,0.0044
2253.00,0.0044
2252.00,0.0044
2251.00,0.0044
2250.00,0.0044
2249.00,0.0045
2248.00,0.0045
2247.00,0.0046
2246.00,0.0046
2245.00,0.0046
2244.00,0.0047
2243.00,0.0047
2242.00,0.0047
2241.00,0.0048
2240.00,0.0048
2239.00,0.0047
2238.00,0.0047
2237.00,0.0047
2236.00,0.0047
2235.00,0.0047
2234.00,0.0047
2233.00,0.0047
2232.00,0.0047
2231.00,0.0047
2230.00,0.0046
2229.00,0.0045
2228.00,0.0045
2227.00,0.0044
2226.00,0.0043
2225.00,0.0042
2224.00,0.0043
2223.00,0.0043
2222.00,0.0043
2221.00,0.0044
2220.00,0.0044
2219.00,0.0044
2218.00,0.0044
2217.00,0.0045
2216.00,0.0045
2215.00,0.0044
2214.00,0.0043
2213.00,0.0043
2212.00,0.0043
2211.00,0.0043
2210.00,0.0043
2209.00,0.0043
2208.00,0.0043
2207.00,0.0043
2206.00,0.0043
2205.00,0.0044
2204.00,0.0044
2203.00,0.0045
2202.00,0.0045
2201.00,0.0046
2200.00,0.0047
2199.00,0.0047
2198.00,0.0046
2197.00,0.0046
2196.00,0.0046
2195.00,0.0046
2194.00,0.0045
2193.00,0.0045
2192.00,0.0045
2191.00,0.0046
2190.00,0.0047
2189.00,0.0047
2188.00,0.0048
2187.00,0.0048
2186.00,0.0047
2185.00,0.0045
2184.00,0.0042
2183.00,0.0040
2182.00,0.0037
2181.00,0.0037
2180.00,0.0038
2179.00,0.0039
2178.00,0.0038
2177.00,0.0036
2176.00,0.0036
2175.00,0.0036
2174.00,0.0038
2173.00,0.0041
2172.00,0.0044
2171.00,0.0047
2170.00,0.0050
2169.00,0.0053
2168.00,0.0054
2167.00,0.0053
2166.00,0.0052
2165.00,0.0053
2164.00,0.0055
2163.00,0.0054
2162.00,0.0047
2161.00,0.0033
2160.00,0.0016
2159.00,0.0003
2158.00,-0.0001
2157.00,0.0001
2156.00,0.0006
2155.00,0.0011
2154.00,0.0014
2153.00,0.0016
2152.00,0.0019
2151.00,0.0020
2150.00,0.0021
2149.00,0.0021
2148.00,0.0020
2147.00,0.0019
2146.00,0.0018
2145.00,0.0018
2144.00,0.0020
2143.00,0.0021
2142.00,0.0022
2141.00,0.0022
2140.00,0.0023
2139.00,0.0023
2138.00,0.0022
2137.00,0.0020
2136.00,0.0017
2135.00,0.0015
2134.00,0.0014
2133.00,0.0015
2132.00,0.0016
2131.00,0.0018
2130.00,0.0020
2129.00,0.0023
2128.00,0.0025
2127.00,0.0027
2126.00,0.0029
2125.00,0.0029
2124.00,0.0030
2123.00,0.0030
2122.00,0.0031
2121.00,0.0033
2120.00,0.0034
2119.00,0.0034
2118.00,0.0035
2117.00,0.0036
2116.00,0.0038
2115.00,0.0038
2114.00,0.0038
2113.00,0.0038
2112.00,0.0038
2111.00,0.0037
2110.00,0.0036
2109.00,0.0036
2108.00,0.0036
2107.00,0.0036
2106.00,0.0036
2105.00,0.0036
2104.00,0.0036
2103.00,0.0036
2102.00,0.0036
2101.00,0.0036
2100.00,0.0035
2099.00,0.0035
2098.00,0.0033
2097.00,0.0031
2096.00,0.0030
2095.00,0.0030
2094.00,0.0031
2093.00,0.0033
2092.00,0.0035
2091.00,0.0036
2090.00,0.0036
2089.00,0.0036
2088.00,0.0037
2087.00,0.0037
2086.00,0.0038
2085.00,0.0038
2084.00,0.0039
2083.00,0.0039
2082.00,0.0039
2081.00,0.0039
2080.00,0.0039
2079.00,0.0038
2078.00,0.0037
2077.00,0.0036
2076.00,0.0036
2075.00,0.0036
2074.00,0.0036
2073.00,0.0035
2072.00,0.0035
2071.00,0.0035
2070.00,0.0035
2069.00,0.0035
2068.00,0.0034
2067.00,0.0033
2066.00,0.0032
2065.00,0.0031
2064.00,0.0032
2063.00,0.0031
2062.00,0.0030
2061.00,0.0029
2060.00,0.0029
2059.00,0.0029
2058.00,0.0030
2057.00,0.0031
2056.00,0.0031
2055.00,0.0031
2054.00,0.0033
2053.00,0.0037
2052.00,0.0040
2051.00,0.0040
2050.00,0.0037
2049.00,0.0034
2048.00,0.0032
2047.00,0.0032
2046.00,0.0031
2045.00,0.0032
2044.00,0.0032
2043.00,0.0032
2042.00,0.0032
2041.00,0.0031
2040.00,0.0031
2039.00,0.0031
2038.00,0.0031
2037.00,0.0031
2036.00,0.0030
2035.00,0.0028
2034.00,0.0025
2033.00,0.0024
2032.00,0.0024
2031.00,0.0024
2030.00,0.0024
2029.00,0.0025
2028.00,0.0026
2027.00,0.0026
2026.00,0.0026
2025.00,0.0026
2024.00,0.0027
2023.00,0.0027
2022.00,0.0025
2021.00,0.0024
2020.00,0.0023
2019.00,0.0023
2018.00,0.0023
2017.00,0.0024
2016.00,0.0026
2015.00,0.0026
2014.00,0.0026
2013.00,0.0027
2012.00,0.0029
2011.00,0.0029
2010.00,0.0028
2009.00,0.0026
2008.00,0.0023
2007.00,0.0020
2006.00,0.0018
2005.00,0.0018
2004.00,0.0019
2003.00,0.0021
2002.00,0.0023
2001.00,0.0026
2000.00,0.0029
1999.00,0.0031
1998.00,0.0031
1997.00,0.0032
1996.00,0.0033
1995.00,0.0033
1994.00,0.0034
1993.00,0.0035
1992.00,0.0037
1991.00,0.0039
1990.00,0.0039
1989.00,0.0039
1988.00,0.0039
1987.00,0.0039
1986.00,0.0038
1985.00,0.0039
1984.00,0.0043
1983.00,0.0047
1982.00,0.0050
1981.00,0.0049
1980.00,0.0045
1979.00,0.0036
1978.00,0.0027
1977.00,0.0022
1976.00,0.0021
1975.00,0.0021
1974.00,0.0021
1973.00,0.0021
1972.00,0.0021
1971.00,0.0021
1970.00,0.0021
1969.00,0.0022
1968.00,0.0024
1967.00,0.0025
1966.00,0.0024
1965.00,0.0023
1964.00,0.0023
1963.00,0.0022
1962.00,0.0021
1961.00,0.0020
1960.00,0.0019
1959.00,0.0019
1958.00,0.0020
1957.00,0.0022
1956.00,0.0026
1955.00,0.0027
1954.00,0.0026
1953.00,0.0026
1952.00,0.0025
1951.00,0.0024
1950.00,0.0023
1949.00,0.0022
1948.00,0.0023
1947.00,0.0024
1946.00,0.0026
1945.00,0.0029
1944.00,0.0031
1943.00,0.0033
1942.00,0.0032
1941.00,0.0031
1940.00,0.0031
1939.00,0.0030
1938.00,0.0029
1937.00,0.0028
1936.00,0.0028
1935.00,0.0028
1934.00,0.0027
1933.00,0.0027
1932.00,0.0028
1931.00,0.0028
1930.00,0.0028
1929.00,0.0028
1928.00,0.0029
1927.00,0.0030
1926.00,0.0030
1925.00,0.0031
1924.00,0.0033
1923.00,0.0034
1922.00,0.0035
1921.00,0.0037
1920.00,0.0038
1919.00,0.0038
1918.00,0.0037
1917.00,0.0036
1916.00,0.0036
1915.00,0.0036
1914.00,0.0035
1913.00,0.0035
1912.00,0.0036
1911.00,0.0036
1910.00,0.0036
1909.00,0.0036
1908.00,0.0037
1907.00,0.0036
1906.00,0.0036
1905.00,0.0036
1904.00,0.0035
1903.00,0.0035
1902.00,0.0034
1901.00,0.0034
1900.00,0.0034
1899.00,0.0035
1898.00,0.0035
1897.00,0.0035
1896.00,0.0035
1895.00,0.0035
1894.00,0.0035
1893.00,0.0035
1892.00,0.0036
1891.00,0.0036
1890.00,0.0036
1889.00,0.0036
1888.00,0.0036
1887.00,0.0036
1886.00,0.0036
1885.00,0.0036
1884.00,0.0036
1883.00,0.0036
1882.00,0.0036
1881.00,0.0036
1880.00,0.0036
1879.00,0.0037
1878.00,0.0037
1877.00,0.0037
1876.00,0.0037
1875.00,0.0037
1874.00,0.0037
1873.00,0.0037
1872.00,0.0038
1871.00,0.0039
1870.00,0.0040
1869.00,0.0041
1868.00,0.0041
1867.00,0.0040
1866.00,0.0039
1865.00,0.0039
1864.00,0.0038
1863.00,0.0038
1862.00,0.0038
1861.00,0.0038
1860.00,0.0038
1859.00,0.0038
1858.00,0.0038
1857.00,0.0038
1856.00,0.0038
1855.00,0.0038
1854.00,0.0039
1853.00,0.0039
1852.00,0.0039
1851.00,0.0039
1850.00,0.0040
1849.00,0.0040
1848.00,0.0042
1847.00,0.0043
1846.00,0.0044
1845.00,0.0045
1844.00,0.0045
1843.00,0.0043
1842.00,0.0042
1841.00,0.0042
1840.00,0.0042
1839.00,0.0041
1838.00,0.0041
1837.00,0.0041
1836.00,0.0041
1835.00,0.0041
1834.00,0.0042
1833.00,0.0042
1832.00,0.0043
1831.00,0.0043
1830.00,0.0043
1829.00,0.0043
1828.00,0.0044
1827.00,0.0044
1826.00,0.0045
1825.00,0.0045
1824.00,0.0044
1823.00,0.0044
1822.00,0.0043
1821.00,0.0043
1820.00,0.0042
1819.00,0.0041
1818.00,0.0040
1817.00,0.0039
1816.00,0.0039
1815.00,0.0040
1814.00,0.0041
1813.00,0.0043
1812.00,0.0044
1811.00,0.0044
1810.00,0.0045
1809.00,0.0045
1808.00,0.0045
1807.00,0.0045
1806.00,0.0045
1805.00,0.0045
1804.00,0.0046
1803.00,0.0047
1802.00,0.0049
1801.00,0.0050
1800.00,0.0050
1799.00,0.0051
1798.00,0.0051
1797.00,0.0052
1796.00,0.0052
1795.00,0.0053
1794.00,0.0054
1793.00,0.0054
1792.00,0.0054
1791.00,0.0054
1790.00,0.0053
1789.00,0.0053
1788.00,0.0053
1787.00,0.0053
1786.00,0.0053
1785.00,0.0053
1784.00,0.0053
1783.00,0.0054
1782.00,0.0054
1781.00,0.0055
1780.00,0.0055
1779.00,0.0055
1778.00,0.0055
1777.00,0.0055
1776.00,0.0056
1775.00,0.0057
1774.00,0.0057
1773.00,0.0056
1772.00,0.0057
1771.00,0.0058
1770.00,0.0058
1769.00,0.0059
1768.00,0.0059
1767.00,0.0057
1766.00,0.0056
1765.00,0.0056
1764.00,0.0056
1763.00,0.0056
1762.00,0.0056
1761.00,0.0056
1760.00,0.0057
1759.00,0.0058
1758.00,0.0058
1757.00,0.0058
1756.00,0.0058
1755.00,0.0059
1754.00,0.0059
1753.00,0.0062
1752.00,0.0065
1751.00,0.0066
1750.00,0.0067
1749.00,0.0067
1748.00,0.0067
1747.00,0.0067
1746.00,0.0066
1745.00,0.0065
1744.00,0.0066
1743.00,0.0066
1742.00,0.0065
1741.00,0.0065
1740.00,0.0066
1739.00,0.0066
1738.00,0.0067
1737.00,0.0068
1736.00,0.0071
1735.00,0.0072
1734.00,0.0072
1733.00,0.0072
1732.00,0.0074
1731.00,0.0075
1730.00,0.0075
1729.00,0.0075
1728.00,0.0075
1727.00,0.0076
1726.00,0.0076
1725.00,0.0078
1724.00,0.0080
1723.00,0.0083
1722.00,0.0084
1721.00,0.0086
1720.00,0.0089
1719.00,0.0091
1718.00,0.0094
1717.00,0.0097
1716.00,0.0101
1715.00,0.0105
1714.00,0.0107
1713.00,0.0109
1712.00,0.0111
1711.00,0.0114
1710.00,0.0118
1709.00,0.0123
1708.00,0.0129
1707.00,0.0137
1706.00,0.0145
1705.00,0.0156
1704.00,0.0166
1703.00,0.0176
1702.00,0.0188
1701.00,0.0209
1700.00,0.0238
1699.00,0.0262
1698.00,0.0282
1697.00,0.0306
1696.00,0.0341
1695.00,0.0381
1694.00,0.0415
1693.00,0.0445
1692.00,0.0475
1691.00,0.0509
1690.00,0.0546
1689.00,0.0582
1688.00,0.0612
1687.00,0.0633
1686.00,0.0652
1685.00,0.0686
1684.00,0.0736
1683.00,0.0777
1682.00,0.0797
1681.00,0.0811
1680.00,0.0826
1679.00,0.0843
1678.00,0.0860
1677.00,0.0885
1676.00,0.0927
1675.00,0.0985
1674.00,0.1042
1673.00,0.1089
1672.00,0.1135
1671.00,0.1196
1670.00,0.1279
1669.00,0.1374
1668.00,0.1457
1667.00,0.1517
1666.00,0.1557
1665.00,0.1595
1664.00,0.1644
1663.00,0.1706
1662.00,0.1767
1661.00,0.1810
1660.00,0.1833
1659.00,0.1843
1658.00,0.1841
1657.00,0.1827
1656.00,0.1802
1655.00,0.1771
1654.00,0.1756
1653.00,0.1767
1652.00,0.1766
1651.00,0.1730
1650.00,0.1674
1649.00,0.1613
1648.00,0.1558
1647.00,0.1512
1646.00,0.1471
1645.00,0.1425
1644.00,0.1372
1643.00,0.1312
1642.00,0.1248
1641.00,0.1184
1640.00,0.1123
1639.00,0.1068
1638.00,0.1017
1637.00,0.0975
1636.00,0.0952
1635.00,0.0947
1634.00,0.0947
1633.00,0.0951
1632.00,0.0959
1631.00,0.0973
1630.00,0.0992
1629.00,0.1017
1628.00,0.1042
1627.00,0.1060
1626.00,0.1064
1625.00,0.1057
1624.00,0.1043
1623.00,0.1027
1622.00,0.1003
1621.00,0.0971
1620.00,0.0935
1619.00,0.0897
1618.00,0.0855
1617.00,0.0811
1616.00,0.0768
1615.00,0.0728
1614.00,0.0688
1613.00,0.0646
1612.00,0.0605
1611.00,0.0568
1610.00,0.0534
1609.00,0.0505
1608.00,0.0481
1607.00,0.0462
1606.00,0.0449
1605.00,0.0440
1604.00,0.0437
1603.00,0.0440
1602.00,0.0450
1601.00,0.0465
1600.00,0.0485
1599.00,0.0511
1598.00,0.0540
1597.00,0.0573
1596.00,0.0609
1595.00,0.0648
1594.00,0.0687
1593.00,0.0726
1592.00,0.0766
1591.00,0.0808
1590.00,0.0850
1589.00,0.0891
1588.00,0.0928
1587.00,0.0960
1586.00,0.0980
1585.00,0.0988
1584.00,0.0983
1583.00,0.0964
1582.00,0.0932
1581.00,0.0890
1580.00,0.0843
1579.00,0.0795
1578.00,0.0744
1577.00,0.0690
1576.00,0.0640
1575.00,0.0599
1574.00,0.0564
1573.00,0.0533
1572.00,0.0503
1571.00,0.0474
1570.00,0.0445
1569.00,0.0418
1568.00,0.0396
1567.00,0.0376
1566.00,0.0358
1565.00,0.0339
1564.00,0.0323
1563.00,0.0310
1562.00,0.0298
1561.00,0.0286
1560.00,0.0278
1559.00,0.0275
1558.00,0.0271
1557.00,0.0263
1556.00,0.0257
1555.00,0.0251
1554.00,0.0247
1553.00,0.0243
1552.00,0.0240
1551.00,0.0237
1550.00,0.0235
1549.00,0.0233
1548.00,0.0231
1547.00,0.0230
1546.00,0.0230
1545.00,0.0231
1544.00,0.0232
1543.00,0.0232
1542.00,0.0233
1541.00,0.0234
1540.00,0.0235
1539.00,0.0236
1538.00,0.0236
1537.00,0.0237
1536.00,0.0238
1535.00,0.0240
1534.00,0.0244
1533.00,0.0249
1532.00,0.0253
1531.00,0.0256
1530.00,0.0259
1529.00,0.0264
1528.00,0.0270
1527.00,0.0278
1526.00,0.0287
1525.00,0.0295
1524.00,0.0301
1523.00,0.0308
1522.00,0.0316
1521.00,0.0326
1520.00,0.0332
1519.00,0.0334
1518.00,0.0335
1517.00,0.0335
1516.00,0.0332
1515.00,0.0327
1514.00,0.0320
1513.00,0.0313
1512.00,0.0306
1511.00,0.0300
1510.00,0.0295
1509.00,0.0292
1508.00,0.0290
1507.00,0.0289
1506.00,0.0290
1505.00,0.0290
1504.00,0.0292
1503.00,0.0297
1502.00,0.0305
1501.00,0.0317
1500.00,0.0331
1499.00,0.0346
1498.00,0.0364
1497.00,0.0381
1496.00,0.0394
1495.00,0.0400
1494.00,0.0399
1493.00,0.0393
1492.00,0.0383
1491.00,0.0368
1490.00,0.0351
1489.00,0.0331
1488.00,0.0310
1487.00,0.0289
1486.00,0.0271
1485.00,0.0257
1484.00,0.0246
1483.00,0.0238
1482.00,0.0234
1481.00,0.0233
1480.00,0.0234
1479.00,0.0236
1478.00,0.0241
1477.00,0.0250
1476.00,0.0262
1475.00,0.0276
1474.00,0.0298
1473.00,0.0335
1472.00,0.0383
1471.00,0.0433
1470.00,0.0480
1469.00,0.0528
1468.00,0.0576
1467.00,0.0624
1466.00,0.0677
1465.00,0.0734
1464.00,0.0785
1463.00,0.0818
1462.00,0.0836
1461.00,0.0843
1460.00,0.0845
1459.00,0.0845
1458.00,0.0853
1457.00,0.0876
1456.00,0.0901
1455.00,0.0918
1454.00,0.0934
1453.00,0.0958
1452.00,0.0992
1451.00,0.1035
1450.00,0.1084
1449.00,0.1146
1448.00,0.1217
1447.00,0.1287
1446.00,0.1349
1445.00,0.1402
1444.00,0.1449
1443.00,0.1490
1442.00,0.1524
1441.00,0.1550
1440.00,0.1563
1439.00,0.1564
1438.00,0.1564
1437.00,0.1572
1436.00,0.1582
1435.00,0.1581
1434.00,0.1571
1433.00,0.1564
1432.00,0.1566
1431.00,0.1577
1430.00,0.1595
1429.00,0.1611
1428.00,0.1614
1427.00,0.1601
1426.00,0.1576
1425.00,0.1545
1424.00,0.1508
1423.00,0.1460
1422.00,0.1402
1421.00,0.1332
1420.00,0.1246
1419.00,0.1146
1418.00,0.1046
1417.00,0.0954
1416.00,0.0869
1415.00,0.0792
1414.00,0.0724
1413.00,0.0667
1412.00,0.0618
1411.00,0.0579
1410.00,0.0547
1409.00,0.0522
1408.00,0.0501
1407.00,0.0485
1406.00,0.0473
1405.00,0.0464
1404.00,0.0456
1403.00,0.0449
1402.00,0.0443
1401.00,0.0438
1400.00,0.0435
1399.00,0.0435
1398.00,0.0436
1397.00,0.0435
1396.00,0.0434
1395.00,0.0435
1394.00,0.0438
1393.00,0.0441
1392.00,0.0444
1391.00,0.0449
1390.00,0.0455
1389.00,0.0463
1388.00,0.0475
1387.00,0.0491
1386.00,0.0509
1385.00,0.0527
1384.00,0.0547
1383.00,0.0574
1382.00,0.0608
1381.00,0.0648
1380.00,0.0691
1379.00,0.0735
1378.00,0.0773
1377.00,0.0800
1376.00,0.0815
1375.00,0.0818
1374.00,0.0810
1373.00,0.0792
1372.00,0.0767
1371.00,0.0743
1370.00,0.0720
1369.00,0.0700
1368.00,0.0683
1367.00,0.0667
1366.00,0.0652
1365.00,0.0636
1364.00,0.0621
1363.00,0.0608
1362.00,0.0596
1361.00,0.0585
1360.00,0.0575
1359.00,0.0568
1358.00,0.0563
1357.00,0.0561
1356.00,0.0561
1355.00,0.0562
1354.00,0.0565
1353.00,0.0567
1352.00,0.0568
1351.00,0.0570
1350.00,0.0571
1349.00,0.0572
1348.00,0.0571
1347.00,0.0571
1346.00,0.0572
1345.00,0.0571
1344.00,0.0570
1343.00,0.0570
1342.00,0.0570
1341.00,0.0572
1340.00,0.0576
1339.00,0.0581
1338.00,0.0586
1337.00,0.0589
1336.00,0.0593
1335.00,0.0595
1334.00,0.0598
1333.00,0.0599
1332.00,0.0599
1331.00,0.0599
1330.00,0.0600
1329.00,0.0601
1328.00,0.0605
1327.00,0.0613
1326.00,0.0624
1325.00,0.0639
1324.00,0.0656
1323.00,0.0676
1322.00,0.0697
1321.00,0.0718
1320.00,0.0738
1319.00,0.0756
1318.00,0.0770
1317.00,0.0779
1316.00,0.0782
1315.00,0.0780
1314.00,0.0775
1313.00,0.0767
1312.00,0.0757
1311.00,0.0747
1310.00,0.0738
1309.00,0.0731
1308.00,0.0725
1307.00,0.0721
1306.00,0.0718
1305.00,0.0716
1304.00,0.0716
1303.00,0.0722
1302.00,0.0733
1301.00,0.0753
1300.00,0.0782
1299.00,0.0822
1298.00,0.0875
1297.00,0.0939
1296.00,0.1012
1295.00,0.1089
1294.00,0.1164
1293.00,0.1232
1292.00,0.1286
1291.00,0.1323
1290.00,0.1342
1289.00,0.1345
1288.00,0.1333
1287.00,0.1311
1286.00,0.1281
1285.00,0.1246
1284.00,0.1211
1283.00,0.1177
1282.00,0.1148
1281.00,0.1125
1280.00,0.1109
1279.00,0.1101
1278.00,0.1098
1277.00,0.1098
1276.00,0.1098
1275.00,0.1096
1274.00,0.1089
1273.00,0.1075
1272.00,0.1053
1271.00,0.1025
1270.00,0.0991
1269.00,0.0953
1268.00,0.0912
1267.00,0.0871
1266.00,0.0833
1265.00,0.0797
1264.00,0.0767
1263.00,0.0742
1262.00,0.0725
1261.00,0.0714
1260.00,0.0710
1259.00,0.0714
1258.00,0.0724
1257.00,0.0740
1256.00,0.0761
1255.00,0.0785
1254.00,0.0812
1253.00,0.0839
1252.00,0.0865
1251.00,0.0890
1250.00,0.0914
1249.00,0.0936
1248.00,0.0957
1247.00,0.0978
1246.00,0.0999
1245.00,0.1019
1244.00,0.1036
1243.00,0.1050
1242.00,0.1059
1241.00,0.1060
1240.00,0.1054
1239.00,0.1042
1238.00,0.1024
1237.00,0.1003
1236.00,0.0981
1235.00,0.0959
1234.00,0.0937
1233.00,0.0919
1232.00,0.0904
1231.00,0.0894
1230.00,0.0891
1229.00,0.0892
1228.00,0.0898
1227.00,0.0905
1226.00,0.0912
1225.00,0.0916
1224.00,0.0917
1223.00,0.0916
1222.00,0.0912
1221.00,0.0907
1220.00,0.0900
1219.00,0.0893
1218.00,0.0885
1217.00,0.0876
1216.00,0.0866
1215.00,0.0855
1214.00,0.0842
1213.00,0.0829
1212.00,0.0815
1211.00,0.0802
1210.00,0.0792
1209.00,0.0785
1208.00,0.0783
1207.00,0.0787
1206.00,0.0796
1205.00,0.0808
1204.00,0.0819
1203.00,0.0827
1202.00,0.0828
1201.00,0.0820
1200.00,0.0803
1199.00,0.0779
1198.00,0.0751
1197.00,0.0720
1196.00,0.0690
1195.00,0.0662
1194.00,0.0638
1193.00,0.0616
1192.00,0.0598
1191.00,0.0583
1190.00,0.0570
1189.00,0.0558
1188.00,0.0548
1187.00,0.0539
1186.00,0.0532
1185.00,0.0526
1184.00,0.0521
1183.00,0.0520
1182.00,0.0522
1181.00,0.0528
1180.00,0.0540
1179.00,0.0557
1178.00,0.0580
1177.00,0.0606
1176.00,0.0632
1175.00,0.0657
1174.00,0.0675
1173.00,0.0685
1172.00,0.0684
1171.00,0.0673
1170.00,0.0654
1169.00,0.0629
1168.00,0.0599
1167.00,0.0568
1166.00,0.0537
1165.00,0.0509
1164.00,0.0483
1163.00,0.0463
1162.00,0.0448
1161.00,0.0439
1160.00,0.0436
1159.00,0.0442
1158.00,0.0457
1157.00,0.0480
1156.00,0.0510
1155.00,0.0544
1154.00,0.0580
1153.00,0.0613
1152.00,0.0641
1151.00,0.0660
1150.00,0.0666
1149.00,0.0654
1148.00,0.0624
1147.00,0.0578
1146.00,0.0525
1145.00,0.0472
1144.00,0.0425
1143.00,0.0387
1142.00,0.0359
1141.00,0.0340
1140.00,0.0327
1139.00,0.0320
1138.00,0.0317
1137.00,0.0316
1136.00,0.0316
1135.00,0.0315
1134.00,0.0312
1133.00,0.0307
1132.00,0.0300
1131.00,0.0292
1130.00,0.0284
1129.00,0.0276
1128.00,0.0268
1127.00,0.0262
1126.00,0.0258
1125.00,0.0254
1124.00,0.0252
1123.00,0.0250
1122.00,0.0249
1121.00,0.0249
1120.00,0.0249
1119.00,0.0249
1118.00,0.0252
1117.00,0.0254
1116.00,0.0257
1115.00,0.0262
1114.00,0.0267
1113.00,0.0273
1112.00,0.0277
1111.00,0.0280
1110.00,0.0283
1109.00,0.0284
1108.00,0.0285
1107.00,0.0286
1106.00,0.0288
1105.00,0.0291
1104.00,0.0293
1103.00,0.0297
1102.00,0.0302
1101.00,0.0308
1100.00,0.0314
1099.00,0.0320
1098.00,0.0325
1097.00,0.0327
1096.00,0.0327
1095.00,0.0323
1094.00,0.0316
1093.00,0.0306
1092.00,0.0294
1091.00,0.0282
1090.00,0.0271
1089.00,0.0263
1088.00,0.0257
1087.00,0.0254
1086.00,0.0255
1085.00,0.0257
1084.00,0.0261
1083.00,0.0267
1082.00,0.0273
1081.00,0.0280
1080.00,0.0285
1079.00,0.0291
1078.00,0.0294
1077.00,0.0295
1076.00,0.0293
1075.00,0.0288
1074.00,0.0283
1073.00,0.0276
1072.00,0.0269
1071.00,0.0263
1070.00,0.0260
1069.00,0.0258
1068.00,0.0258
1067.00,0.0260
1066.00,0.0266
1065.00,0.0275
1064.00,0.0287
1063.00,0.0305
1062.00,0.0331
1061.00,0.0367
1060.00,0.0414
1059.00,0.0474
1058.00,0.0546
1057.00,0.0623
1056.00,0.0697
1055.00,0.0760
1054.00,0.0799
1053.00,0.0809
1052.00,0.0786
1051.00,0.0736
1050.00,0.0672
1049.00,0.0605
1048.00,0.0545
1047.00,0.0500
1046.00,0.0470
1045.00,0.0455
1044.00,0.0451
1043.00,0.0458
1042.00,0.0474
1041.00,0.0500
1040.00,0.0534
1039.00,0.0578
1038.00,0.0634
1037.00,0.0701
1036.00,0.0778
1035.00,0.0864
1034.00,0.0954
1033.00,0.1043
1032.00,0.1125
1031.00,0.1197
1030.00,0.1252
1029.00,0.1287
1028.00,0.1298
1027.00,0.1284
1026.00,0.1248
1025.00,0.1196
1024.00,0.1134
1023.00,0.1072
1022.00,0.1017
1021.00,0.0971
1020.00,0.0933
1019.00,0.0900
1018.00,0.0867
1017.00,0.0831
1016.00,0.0792
1015.00,0.0751
1014.00,0.0711
1013.00,0.0676
1012.00,0.0645
1011.00,0.0621
1010.00,0.0603
1009.00,0.0589
1008.00,0.0577
1007.00,0.0567
1006.00,0.0558
1005.00,0.0547
1004.00,0.0536
1003.00,0.0524
1002.00,0.0514
1001.00,0.0504
1000.00,0.0494
999.00,0.0484
998.00,0.0475
997.00,0.0464
996.00,0.0452
995.00,0.0441
994.00,0.0433
993.00,0.0428
992.00,0.0426
991.00,0.0428
990.00,0.0434
989.00,0.0440
988.00,0.0444
987.00,0.0445
986.00,0.0441
985.00,0.0433
984.00,0.0421
983.00,0.0406
982.00,0.0391
981.00,0.0376
980.00,0.0362
979.00,0.0350
978.00,0.0341
977.00,0.0333
976.00,0.0326
975.00,0.0319
974.00,0.0313
973.00,0.0308
972.00,0.0304
971.00,0.0301
970.00,0.0300
969.00,0.0300
968.00,0.0302
967.00,0.0307
966.00,0.0314
965.00,0.0322
964.00,0.0329
963.00,0.0334
962.00,0.0337
961.00,0.0335
960.00,0.0328
959.00,0.0315
958.00,0.0300
957.00,0.0281
956.00,0.0261
955.00,0.0241
954.00,0.0222
953.00,0.0205
952.00,0.0191
951.00,0.0179
950.00,0.0172
949.00,0.0166
948.00,0.0162
947.00,0.0159
946.00,0.0157
945.00,0.0156
944.00,0.0155
943.00,0.0155
942.00,0.0157
941.00,0.0159
940.00,0.0163
939.00,0.0169
938.00,0.0177
937.00,0.0187
936.00,0.0197
935.00,0.0208
934.00,0.0218
933.00,0.0227
932.00,0.0233
931.00,0.0235
930.00,0.0236
929.00,0.0236
928.00,0.0234
927.00,0.0233
926.00,0.0232
925.00,0.0231
924.00,0.0230
923.00,0.0231
922.00,0.0233
921.00,0.0236
920.00,0.0240
919.00,0.0246
918.00,0.0254
917.00,0.0262
916.00,0.0270
915.00,0.0277
914.00,0.0284
913.00,0.0291
912.00,0.0298
911.00,0.0306
910.00,0.0318
909.00,0.0332
908.00,0.0349
907.00,0.0370
906.00,0.0396
905.00,0.0424
904.00,0.0452
903.00,0.0481
902.00,0.0507
901.00,0.0530
900.00,0.0548
899.00,0.0565
898.00,0.0581
897.00,0.0597
896.00,0.0615
895.00,0.0635
894.00,0.0657
893.00,0.0682
892.00,0.0707
891.00,0.0733
890.00,0.0758
889.00,0.0781
888.00,0.0801
887.00,0.0816
886.00,0.0826
885.00,0.0829
884.00,0.0823
883.00,0.0811
882.00,0.0792
881.00,0.0767
880.00,0.0738
879.00,0.0706
878.00,0.0673
877.00,0.0641
876.00,0.0610
875.00,0.0582
874.00,0.0559
873.00,0.0540
872.00,0.0525
871.00,0.0515
870.00,0.0512
869.00,0.0515
868.00,0.0521
867.00,0.0531
866.00,0.0544
865.00,0.0556
864.00,0.0565
863.00,0.0572
862.00,0.0577
861.00,0.0581
860.00,0.0584
859.00,0.0589
858.00,0.0596
857.00,0.0606
856.00,0.0616
855.00,0.0628
854.00,0.0641
853.00,0.0652
852.00,0.0662
851.00,0.0670
850.00,0.0677
849.00,0.0683
848.00,0.0687
847.00,0.0690
846.00,0.0693
845.00,0.0695
844.00,0.0695
843.00,0.0696
842.00,0.0697
841.00,0.0699
840.00,0.0702
839.00,0.0707
838.00,0.0715
837.00,0.0725
836.00,0.0735
835.00,0.0748
834.00,0.0761
833.00,0.0773
832.00,0.0783
831.00,0.0790
830.00,0.0793
829.00,0.0790
828.00,0.0780
827.00,0.0766
826.00,0.0747
825.00,0.0725
824.00,0.0699
823.00,0.0672
822.00,0.0645
821.00,0.0617
820.00,0.0589
819.00,0.0564
818.00,0.0541
817.00,0.0521
816.00,0.0504
815.00,0.0491
814.00,0.0481
813.00,0.0474
812.00,0.0469
811.00,0.0466
810.00,0.0466
809.00,0.0470
808.00,0.0478
807.00,0.0492
806.00,0.0509
805.00,0.0524
804.00,0.0530
803.00,0.0526
802.00,0.0513
801.00,0.0493
800.00,0.0473
799.00,0.0459
798.00,0.0452
797.00,0.0451
796.00,0.0452
795.00,0.0455
794.00,0.0456
793.00,0.0455
792.00,0.0451
791.00,0.0444
790.00,0.0435
789.00,0.0426
788.00,0.0417
787.00,0.0408
786.00,0.0402
785.00,0.0396
784.00,0.0391
783.00,0.0388
782.00,0.0387
781.00,0.0388
780.00,0.0391
779.00,0.0397
778.00,0.0405
777.00,0.0414
776.00,0.0423
775.00,0.0432
774.00,0.0440
773.00,0.0447
772.00,0.0451
771.00,0.0453
770.00,0.0455
769.00,0.0455
768.00,0.0453
767.00,0.0451
766.00,0.0450
765.00,0.0451
764.00,0.0454
763.00,0.0459
762.00,0.0467
761.00,0.0477
760.00,0.0488
759.00,0.0502
758.00,0.0516
757.00,0.0531
756.00,0.0543
755.00,0.0553
754.00,0.0561
753.00,0.0565
752.00,0.0565
751.00,0.0561
750.00,0.0555
749.00,0.0546
748.00,0.0536
747.00,0.0527
746.00,0.0520
745.00,0.0516
744.00,0.0513
743.00,0.0514
742.00,0.0517
741.00,0.0522
740.00,0.0528
739.00,0.0536
738.00,0.0546
737.00,0.0556
736.00,0.0566
735.00,0.0575
734.00,0.0583
733.00,0.0588
732.00,0.0589
731.00,0.0587
730.00,0.0583
729.00,0.0575
728.00,0.0565
727.00,0.0554
726.00,0.0543
725.00,0.0532
724.00,0.0520
723.00,0.0509
722.00,0.0499
721.00,0.0490
720.00,0.0482
719.00,0.0476
718.00,0.0473
717.00,0.0470
716.00,0.0468
715.00,0.0465
714.00,0.0465
713.00,0.0464
712.00,0.0462
711.00,0.0461
710.00,0.0461
709.00,0.0461
708.00,0.0460
707.00,0.0459
706.00,0.0460
705.00,0.0460
704.00,0.0460
703.00,0.0460
702.00,0.0462
701.00,0.0464
700.00,0.0466
699.00,0.0467
698.00,0.0469
697.00,0.0471
696.00,0.0473
695.00,0.0476
694.00,0.0480
693.00,0.0484
692.00,0.0488
691.00,0.0494
690.00,0.0500
689.00,0.0506
688.00,0.0512
687.00,0.0519
686.00,0.0528
685.00,0.0537
684.00,0.0546
683.00,0.0555
682.00,0.0566
681.00,0.0577
680.00,0.0587
679.00,0.0597
678.00,0.0607
677.00,0.0616
676.00,0.0622
675.00,0.0628
674.00,0.0634
673.00,0.0638
672.00,0.0640
671.00,0.0642
670.00,0.0646
669.00,0.0654
668.00,0.0665
667.00,0.0675
666.00,0.0679
665.00,0.0680
664.00,0.0681
663.00,0.0683
662.00,0.0688
661.00,0.0693
660.00,0.0699
659.00,0.0706
658.00,0.0715
657.00,0.0725
656.00,0.0734
655.00,0.0744
654.00,0.0754
653.00,0.0763
652.00,0.0769
651.00,0.0774
650.00,0.0777
649.00,0.0776
648.00,0.0771
647.00,0.0764
646.00,0.0756
645.00,0.0745
644.00,0.0732
643.00,0.0718
642.00,0.0704
641.00,0.0689
640.00,0.0673
639.00,0.0657
638.00,0.0643
637.00,0.0629
636.00,0.0614
635.00,0.0600
634.00,0.0588
633.00,0.0577
632.00,0.0565
631.00,0.0554
630.00,0.0546
629.00,0.0537
628.00,0.0529
627.00,0.0522
626.00,0.0519
625.00,0.0516
624.00,0.0511
623.00,0.0508
622.00,0.0507
621.00,0.0507
620.00,0.0507
619.00,0.0508
618.00,0.0512
617.00,0.0518
616.00,0.0524
615.00,0.0532
614.00,0.0540
613.00,0.0548
612.00,0.0554
611.00,0.0559
610.00,0.0565
609.00,0.0570
608.00,0.0573
607.00,0.0577
606.00,0.0582
605.00,0.0588
604.00,0.0593
603.00,0.0598
602.00,0.0604
601.00,0.0610
600.00,0.0613
599.00,0.0616
598.00,0.0620
597.00,0.0623
596.00,0.0623
595.00,0.0623
594.00,0.0624
593.00,0.0625
592.00,0.0622
591.00,0.0620
590.00,0.0620
589.00,0.0621
588.00,0.0624
587.00,0.0630
586.00,0.0641
585.00,0.0654
584.00,0.0667
583.00,0.0682
582.00,0.0699
581.00,0.0716
580.00,0.0727
579.00,0.0733
578.00,0.0736
577.00,0.0733
576.00,0.0723
575.00,0.0710
574.00,0.0698
573.00,0.0686
572.00,0.0673
571.00,0.0661
570.00,0.0651
569.00,0.0641
568.00,0.0630
567.00,0.0622
566.00,0.0617
565.00,0.0613
564.00,0.0608
563.00,0.0607
562.00,0.0610
561.00,0.0615
560.00,0.0620
559.00,0.0631
558.00,0.0649
557.00,0.0671
556.00,0.0695
555.00,0.0721
554.00,0.0748
553.00,0.0770
552.00,0.0783
551.00,0.0787
550.00,0.0784
549.00,0.0775
548.00,0.0760
547.00,0.0745
546.00,0.0732
545.00,0.0719
544.00,0.0706
543.00,0.0695
542.00,0.0690
541.00,0.0688
540.00,0.0689
539.00,0.0695
538.00,0.0706
537.00,0.0719
536.00,0.0731
535.00,0.0742
534.00,0.0751
533.00,0.0756
532.00,0.0753
531.00,0.0750
530.00,0.0750
529.00,0.0755
528.00,0.0764
527.00,0.0780
526.00,0.0801
525.00,0.0817
524.00,0.0819
523.00,0.0808
522.00,0.0788
521.00,0.0760
520.00,0.0727
519.00,0.0697
518.00,0.0673
517.00,0.0653
516.00,0.0633
515.00,0.0617
514.00,0.0608
513.00,0.0602
512.00,0.0596
511.00,0.0591
510.00,0.0591
509.00,0.0591
508.00,0.0589
507.00,0.0588
506.00,0.0592
505.00,0.0596
504.00,0.0597
503.00,0.0599
502.00,0.0605
501.00,0.0610
500.00,0.0613
499.00,0.0618
498.00,0.0627
497.00,0.0635
496.00,0.0639
495.00,0.0644
494.00,0.0652
493.00,0.0661
492.00,0.0668
491.00,0.0676
490.00,0.0686
489.00,0.0694
488.00,0.0697
487.00,0.0701
486.00,0.0711
485.00,0.0720
484.00,0.0724
483.00,0.0725
482.00,0.0728
481.00,0.0728
480.00,0.0722
479.00,0.0718
478.00,0.0719
477.00,0.0721
476.00,0.0718
475.00,0.0720
474.00,0.0729
473.00,0.0739
472.00,0.0745
471.00,0.0749
470.00,0.0755
469.00,0.0759
468.00,0.0757
467.00,0.0753
466.00,0.0752
465.00,0.0748
464.00,0.0738
463.00,0.0729
462.00,0.0727
461.00,0.0723
460.00,0.0713
459.00,0.0701
458.00,0.0696
457.00,0.0690
456.00,0.0678
455.00,0.0669
454.00,0.0668
453.00,0.0667
452.00,0.0661
451.00,0.0655
450.00,0.0655
449.00,0.0657
448.00,0.0654
447.00,0.0654
446.00,0.0660
445.00,0.0667
444.00,0.0666
443.00,0.0663
442.00,0.0663
441.00,0.0661
440.00,0.0653
439.00,0.0648
438.00,0.0650
437.00,0.0651
436.00,0.0646
435.00,0.0642
434.00,0.0643
433.00,0.0643
432.00,0.0638
431.00,0.0636
430.00,0.0645
429.00,0.0653
428.00,0.0652
427.00,0.0651
426.00,0.0660
425.00,0.0671
424.00,0.0674
423.00,0.0676
422.00,0.0684
421.00,0.0688
420.00,0.0680
419.00,0.0674
418.00,0.0677
417.00,0.0671
416.00,0.0650
415.00,0.0632
414.00,0.0627
413.00,0.0623
412.00,0.0611
411.00,0.0605
410.00,0.0615
409.00,0.0623
408.00,0.0611
407.00,0.0597
406.00,0.0599
405.00,0.0603
404.00,0.0595
403.00,0.0587
402.00,0.0596
401.00,0.0604
400.00,0.0595
