Created as New Dataset,Sample 755 By YargerLab Date Tuesday, July 01 2025
cm-1,A
4000.00,0.0028
3999.00,0.0028
3998.00,0.0028
3997.00,0.0028
3996.00,0.0028
3995.00,0.0028
3994.00,0.0028
3993.00,0.0028
3992.00,0.0028
3991.00,0.0028
3990.00,0.0028
3989.00,0.0028
3988.00,0.0028
3987.00,0.0028
3986.00,0.0028
3985.00,0.0028
3984.00,0.0028
3983.00,0.0028
3982.00,0.0028
3981.00,0.0028
3980.00,0.0028
3979.00,0.0028
3978.00,0.0028
3977.00,0.0028
3976.00,0.0029
3975.00,0.0029
3974.00,0.0029
3973.00,0.0029
3972.00,0.0029
3971.00,0.0029
3970.00,0.0029
3969.00,0.0029
3968.00,0.0029
3967.00,0.0029
3966.00,0.0029
3965.00,0.0029
3964.00,0.0030
3963.00,0.0030
3962.00,0.0030
3961.00,0.0030
3960.00,0.0029
3959.00,0.0029
3958.00,0.0029
3957.00,0.0029
3956.00,0.0029
3955.00,0.0029
3954.00,0.0029
3953.00,0.0029
3952.00,0.0029
3951.00,0.0029
3950.00,0.0029
3949.00,0.0030
3948.00,0.0031
3947.00,0.0031
3946.00,0.0031
3945.00,0.0030
3944.00,0.0029
3943.00,0.0029
3942.00,0.0028
3941.00,0.0029
3940.00,0.0029
3939.00,0.0029
3938.00,0.0029
3937.00,0.0029
3936.00,0.0029
3935.00,0.0030
3934.00,0.0030
3933.00,0.0030
3932.00,0.0030
3931.00,0.0029
3930.00,0.0029
3929.00,0.0028
3928.00,0.0028
3927.00,0.0028
3926.00,0.0027
3925.00,0.0027
3924.00,0.0027
3923.00,0.0028
3922.00,0.0029
3921.00,0.0030
3920.00,0.0031
3919.00,0.0031
3918.00,0.0031
3917.00,0.0031
3916.00,0.0030
3915.00,0.0029
3914.00,0.0028
3913.00,0.0028
3912.00,0.0028
3911.00,0.0028
3910.00,0.0028
3909.00,0.0028
3908.00,0.0028
3907.00,0.0029
3906.00,0.0029
3905.00,0.0031
3904.00,0.0032
3903.00,0.0034
3902.00,0.0035
3901.00,0.0035
3900.00,0.0034
3899.00,0.0032
3898.00,0.0031
3897.00,0.0031
3896.00,0.0030
3895.00,0.0030
3894.00,0.0029
3893.00,0.0029
3892.00,0.0028
3891.00,0.0028
3890.00,0.0029
3889.00,0.0030
3888.00,0.0031
3887.00,0.0033
3886.00,0.0032
3885.00,0.0031
3884.00,0.0031
3883.00,0.0031
3882.00,0.0031
3881.00,0.0031
3880.00,0.0031
3879.00,0.0030
3878.00,0.0031
3877.00,0.0031
3876.00,0.0031
3875.00,0.0030
3874.00,0.0029
3873.00,0.0029
3872.00,0.0031
3871.00,0.0032
3870.00,0.0032
3869.00,0.0032
3868.00,0.0032
3867.00,0.0033
3866.00,0.0033
3865.00,0.0033
3864.00,0.0031
3863.00,0.0031
3862.00,0.0032
3861.00,0.0033
3860.00,0.0033
3859.00,0.0032
3858.00,0.0030
3857.00,0.0028
3856.00,0.0027
3855.00,0.0027
3854.00,0.0028
3853.00,0.0029
3852.00,0.0030
3851.00,0.0030
3850.00,0.0031
3849.00,0.0031
3848.00,0.0031
3847.00,0.0032
3846.00,0.0031
3845.00,0.0031
3844.00,0.0031
3843.00,0.0031
3842.00,0.0031
3841.00,0.0031
3840.00,0.0031
3839.00,0.0031
3838.00,0.0030
3837.00,0.0030
3836.00,0.0030
3835.00,0.0030
3834.00,0.0031
3833.00,0.0031
3832.00,0.0031
3831.00,0.0031
3830.00,0.0031
3829.00,0.0031
3828.00,0.0031
3827.00,0.0031
3826.00,0.0030
3825.00,0.0030
3824.00,0.0031
3823.00,0.0033
3822.00,0.0033
3821.00,0.0032
3820.00,0.0031
3819.00,0.0031
3818.00,0.0031
3817.00,0.0032
3816.00,0.0031
3815.00,0.0030
3814.00,0.0028
3813.00,0.0028
3812.00,0.0028
3811.00,0.0028
3810.00,0.0028
3809.00,0.0029
3808.00,0.0029
3807.00,0.0029
3806.00,0.0029
3805.00,0.0029
3804.00,0.0030
3803.00,0.0031
3802.00,0.0030
3801.00,0.0029
3800.00,0.0029
3799.00,0.0029
3798.00,0.0030
3797.00,0.0030
3796.00,0.0030
3795.00,0.0029
3794.00,0.0029
3793.00,0.0028
3792.00,0.0028
3791.00,0.0028
3790.00,0.0027
3789.00,0.0027
3788.00,0.0028
3787.00,0.0028
3786.00,0.0028
3785.00,0.0027
3784.00,0.0027
3783.00,0.0028
3782.00,0.0028
3781.00,0.0029
3780.00,0.0028
3779.00,0.0028
3778.00,0.0028
3777.00,0.0029
3776.00,0.0029
3775.00,0.0029
3774.00,0.0028
3773.00,0.0028
3772.00,0.0029
3771.00,0.0030
3770.00,0.0030
3769.00,0.0030
3768.00,0.0031
3767.00,0.0031
3766.00,0.0031
3765.00,0.0031
3764.00,0.0031
3763.00,0.0031
3762.00,0.0032
3761.00,0.0032
3760.00,0.0031
3759.00,0.0031
3758.00,0.0031
3757.00,0.0032
3756.00,0.0032
3755.00,0.0033
3754.00,0.0034
3753.00,0.0035
3752.00,0.0035
3751.00,0.0036
3750.00,0.0038
3749.00,0.0038
3748.00,0.0037
3747.00,0.0037
3746.00,0.0037
3745.00,0.0037
3744.00,0.0036
3743.00,0.0035
3742.00,0.0034
3741.00,0.0035
3740.00,0.0037
3739.00,0.0038
3738.00,0.0038
3737.00,0.0038
3736.00,0.0037
3735.00,0.0036
3734.00,0.0036
3733.00,0.0036
3732.00,0.0036
3731.00,0.0034
3730.00,0.0033
3729.00,0.0033
3728.00,0.0033
3727.00,0.0033
3726.00,0.0033
3725.00,0.0032
3724.00,0.0032
3723.00,0.0032
3722.00,0.0032
3721.00,0.0031
3720.00,0.0031
3719.00,0.0030
3718.00,0.0030
3717.00,0.0030
3716.00,0.0030
3715.00,0.0030
3714.00,0.0031
3713.00,0.0031
3712.00,0.0031
3711.00,0.0031
3710.00,0.0031
3709.00,0.0031
3708.00,0.0031
3707.00,0.0030
3706.00,0.0029
3705.00,0.0029
3704.00,0.0028
3703.00,0.0028
3702.00,0.0027
3701.00,0.0027
3700.00,0.0027
3699.00,0.0027
3698.00,0.0028
3697.00,0.0028
3696.00,0.0027
3695.00,0.0027
3694.00,0.0028
3693.00,0.0028
3692.00,0.0027
3691.00,0.0026
3690.00,0.0026
3689.00,0.0027
3688.00,0.0028
3687.00,0.0028
3686.00,0.0027
3685.00,0.0027
3684.00,0.0027
3683.00,0.0026
3682.00,0.0026
3681.00,0.0025
3680.00,0.0024
3679.00,0.0023
3678.00,0.0023
3677.00,0.0024
3676.00,0.0023
3675.00,0.0022
3674.00,0.0022
3673.00,0.0021
3672.00,0.0022
3671.00,0.0021
3670.00,0.0020
3669.00,0.0018
3668.00,0.0017
3667.00,0.0017
3666.00,0.0017
3665.00,0.0016
3664.00,0.0015
3663.00,0.0014
3662.00,0.0014
3661.00,0.0014
3660.00,0.0014
3659.00,0.0014
3658.00,0.0015
3657.00,0.0015
3656.00,0.0016
3655.00,0.0017
3654.00,0.0018
3653.00,0.0020
3652.00,0.0021
3651.00,0.0022
3650.00,0.0022
3649.00,0.0023
3648.00,0.0025
3647.00,0.0025
3646.00,0.0024
3645.00,0.0024
3644.00,0.0023
3643.00,0.0023
3642.00,0.0022
3641.00,0.0022
3640.00,0.0022
3639.00,0.0022
3638.00,0.0022
3637.00,0.0022
3636.00,0.0024
3635.00,0.0026
3634.00,0.0028
3633.00,0.0030
3632.00,0.0032
3631.00,0.0035
3630.00,0.0037
3629.00,0.0038
3628.00,0.0038
3627.00,0.0039
3626.00,0.0039
3625.00,0.0040
3624.00,0.0040
3623.00,0.0040
3622.00,0.0040
3621.00,0.0040
3620.00,0.0040
3619.00,0.0041
3618.00,0.0042
3617.00,0.0044
3616.00,0.0046
3615.00,0.0047
3614.00,0.0047
3613.00,0.0048
3612.00,0.0048
3611.00,0.0049
3610.00,0.0050
3609.00,0.0050
3608.00,0.0049
3607.00,0.0048
3606.00,0.0047
3605.00,0.0047
3604.00,0.0047
3603.00,0.0046
3602.00,0.0046
3601.00,0.0046
3600.00,0.0046
3599.00,0.0046
3598.00,0.0047
3597.00,0.0047
3596.00,0.0048
3595.00,0.0048
3594.00,0.0048
3593.00,0.0049
3592.00,0.0050
3591.00,0.0051
3590.00,0.0052
3589.00,0.0053
3588.00,0.0052
3587.00,0.0052
3586.00,0.0052
3585.00,0.0053
3584.00,0.0053
3583.00,0.0053
3582.00,0.0053
3581.00,0.0053
3580.00,0.0053
3579.00,0.0053
3578.00,0.0053
3577.00,0.0054
3576.00,0.0054
3575.00,0.0055
3574.00,0.0055
3573.00,0.0056
3572.00,0.0057
3571.00,0.0059
3570.00,0.0061
3569.00,0.0062
3568.00,0.0063
3567.00,0.0064
3566.00,0.0065
3565.00,0.0065
3564.00,0.0066
3563.00,0.0066
3562.00,0.0066
3561.00,0.0066
3560.00,0.0067
3559.00,0.0067
3558.00,0.0068
3557.00,0.0068
3556.00,0.0069
3555.00,0.0069
3554.00,0.0070
3553.00,0.0071
3552.00,0.0072
3551.00,0.0074
3550.00,0.0075
3549.00,0.0077
3548.00,0.0079
3547.00,0.0080
3546.00,0.0082
3545.00,0.0082
3544.00,0.0083
3543.00,0.0084
3542.00,0.0084
3541.00,0.0085
3540.00,0.0085
3539.00,0.0086
3538.00,0.0087
3537.00,0.0088
3536.00,0.0089
3535.00,0.0090
3534.00,0.0092
3533.00,0.0093
3532.00,0.0095
3531.00,0.0096
3530.00,0.0097
3529.00,0.0099
3528.00,0.0101
3527.00,0.0103
3526.00,0.0105
3525.00,0.0107
3524.00,0.0108
3523.00,0.0109
3522.00,0.0110
3521.00,0.0111
3520.00,0.0112
3519.00,0.0113
3518.00,0.0114
3517.00,0.0115
3516.00,0.0117
3515.00,0.0119
3514.00,0.0121
3513.00,0.0123
3512.00,0.0125
3511.00,0.0126
3510.00,0.0128
3509.00,0.0130
3508.00,0.0132
3507.00,0.0134
3506.00,0.0136
3505.00,0.0138
3504.00,0.0141
3503.00,0.0143
3502.00,0.0145
3501.00,0.0147
3500.00,0.0149
3499.00,0.0151
3498.00,0.0153
3497.00,0.0155
3496.00,0.0157
3495.00,0.0159
3494.00,0.0161
3493.00,0.0164
3492.00,0.0166
3491.00,0.0169
3490.00,0.0172
3489.00,0.0174
3488.00,0.0177
3487.00,0.0180
3486.00,0.0183
3485.00,0.0186
3484.00,0.0189
3483.00,0.0192
3482.00,0.0195
3481.00,0.0198
3480.00,0.0202
3479.00,0.0205
3478.00,0.0208
3477.00,0.0210
3476.00,0.0213
3475.00,0.0216
3474.00,0.0219
3473.00,0.0223
3472.00,0.0226
3471.00,0.0229
3470.00,0.0232
3469.00,0.0235
3468.00,0.0238
3467.00,0.0241
3466.00,0.0244
3465.00,0.0247
3464.00,0.0250
3463.00,0.0253
3462.00,0.0256
3461.00,0.0259
3460.00,0.0262
3459.00,0.0264
3458.00,0.0266
3457.00,0.0268
3456.00,0.0270
3455.00,0.0272
3454.00,0.0274
3453.00,0.0276
3452.00,0.0277
3451.00,0.0279
3450.00,0.0281
3449.00,0.0283
3448.00,0.0285
3447.00,0.0286
3446.00,0.0288
3445.00,0.0290
3444.00,0.0291
3443.00,0.0292
3442.00,0.0293
3441.00,0.0294
3440.00,0.0295
3439.00,0.0297
3438.00,0.0298
3437.00,0.0299
3436.00,0.0299
3435.00,0.0300
3434.00,0.0300
3433.00,0.0301
3432.00,0.0301
3431.00,0.0302
3430.00,0.0303
3429.00,0.0303
3428.00,0.0304
3427.00,0.0304
3426.00,0.0304
3425.00,0.0304
3424.00,0.0304
3423.00,0.0305
3422.00,0.0305
3421.00,0.0306
3420.00,0.0306
3419.00,0.0307
3418.00,0.0307
3417.00,0.0308
3416.00,0.0308
3415.00,0.0308
3414.00,0.0308
3413.00,0.0308
3412.00,0.0309
3411.00,0.0309
3410.00,0.0309
3409.00,0.0309
3408.00,0.0309
3407.00,0.0309
3406.00,0.0309
3405.00,0.0310
3404.00,0.0310
3403.00,0.0310
3402.00,0.0311
3401.00,0.0311
3400.00,0.0311
3399.00,0.0311
3398.00,0.0312
3397.00,0.0312
3396.00,0.0313
3395.00,0.0313
3394.00,0.0313
3393.00,0.0313
3392.00,0.0314
3391.00,0.0314
3390.00,0.0314
3389.00,0.0315
3388.00,0.0315
3387.00,0.0315
3386.00,0.0315
3385.00,0.0315
3384.00,0.0316
3383.00,0.0316
3382.00,0.0317
3381.00,0.0317
3380.00,0.0318
3379.00,0.0318
3378.00,0.0319
3377.00,0.0319
3376.00,0.0320
3375.00,0.0320
3374.00,0.0320
3373.00,0.0320
3372.00,0.0320
3371.00,0.0320
3370.00,0.0320
3369.00,0.0321
3368.00,0.0321
3367.00,0.0322
3366.00,0.0323
3365.00,0.0324
3364.00,0.0325
3363.00,0.0326
3362.00,0.0326
3361.00,0.0326
3360.00,0.0327
3359.00,0.0327
3358.00,0.0327
3357.00,0.0328
3356.00,0.0328
3355.00,0.0329
3354.00,0.0329
3353.00,0.0329
3352.00,0.0329
3351.00,0.0329
3350.00,0.0330
3349.00,0.0331
3348.00,0.0332
3347.00,0.0332
3346.00,0.0333
3345.00,0.0333
3344.00,0.0333
3343.00,0.0333
3342.00,0.0333
3341.00,0.0333
3340.00,0.0333
3339.00,0.0333
3338.00,0.0334
3337.00,0.0335
3336.00,0.0336
3335.00,0.0337
3334.00,0.0338
3333.00,0.0339
3332.00,0.0340
3331.00,0.0340
3330.00,0.0340
3329.00,0.0340
3328.00,0.0339
3327.00,0.0339
3326.00,0.0339
3325.00,0.0339
3324.00,0.0340
3323.00,0.0341
3322.00,0.0342
3321.00,0.0342
3320.00,0.0343
3319.00,0.0343
3318.00,0.0343
3317.00,0.0343
3316.00,0.0344
3315.00,0.0344
3314.00,0.0344
3313.00,0.0343
3312.00,0.0343
3311.00,0.0342
3310.00,0.0340
3309.00,0.0340
3308.00,0.0339
3307.00,0.0339
3306.00,0.0340
3305.00,0.0340
3304.00,0.0342
3303.00,0.0342
3302.00,0.0343
3301.00,0.0343
3300.00,0.0343
3299.00,0.0342
3298.00,0.0342
3297.00,0.0341
3296.00,0.0341
3295.00,0.0341
3294.00,0.0340
3293.00,0.0341
3292.00,0.0341
3291.00,0.0342
3290.00,0.0342
3289.00,0.0343
3288.00,0.0343
3287.00,0.0343
3286.00,0.0343
3285.00,0.0342
3284.00,0.0342
3283.00,0.0341
3282.00,0.0341
3281.00,0.0341
3280.00,0.0341
3279.00,0.0340
3278.00,0.0340
3277.00,0.0339
3276.00,0.0339
3275.00,0.0338
3274.00,0.0338
3273.00,0.0337
3272.00,0.0337
3271.00,0.0336
3270.00,0.0336
3269.00,0.0336
3268.00,0.0336
3267.00,0.0336
3266.00,0.0336
3265.00,0.0336
3264.00,0.0336
3263.00,0.0336
3262.00,0.0336
3261.00,0.0335
3260.00,0.0335
3259.00,0.0334
3258.00,0.0334
3257.00,0.0334
3256.00,0.0334
3255.00,0.0334
3254.00,0.0334
3253.00,0.0334
3252.00,0.0333
3251.00,0.0333
3250.00,0.0332
3249.00,0.0331
3248.00,0.0330
3247.00,0.0330
3246.00,0.0330
3245.00,0.0330
3244.00,0.0330
3243.00,0.0329
3242.00,0.0329
3241.00,0.0328
3240.00,0.0328
3239.00,0.0327
3238.00,0.0327
3237.00,0.0326
3236.00,0.0325
3235.00,0.0324
3234.00,0.0323
3233.00,0.0323
3232.00,0.0323
3231.00,0.0323
3230.00,0.0322
3229.00,0.0322
3228.00,0.0321
3227.00,0.0320
3226.00,0.0320
3225.00,0.0319
3224.00,0.0319
3223.00,0.0318
3222.00,0.0318
3221.00,0.0317
3220.00,0.0317
3219.00,0.0316
3218.00,0.0316
3217.00,0.0316
3216.00,0.0316
3215.00,0.0315
3214.00,0.0315
3213.00,0.0315
3212.00,0.0315
3211.00,0.0314
3210.00,0.0314
3209.00,0.0313
3208.00,0.0313
3207.00,0.0313
3206.00,0.0312
3205.00,0.0312
3204.00,0.0311
3203.00,0.0311
3202.00,0.0310
3201.00,0.0309
3200.00,0.0309
3199.00,0.0308
3198.00,0.0308
3197.00,0.0308
3196.00,0.0307
3195.00,0.0306
3194.00,0.0305
3193.00,0.0304
3192.00,0.0303
3191.00,0.0302
3190.00,0.0302
3189.00,0.0301
3188.00,0.0300
3187.00,0.0299
3186.00,0.0298
3185.00,0.0298
3184.00,0.0297
3183.00,0.0296
3182.00,0.0296
3181.00,0.0295
3180.00,0.0294
3179.00,0.0293
3178.00,0.0292
3177.00,0.0291
3176.00,0.0290
3175.00,0.0289
3174.00,0.0288
3173.00,0.0287
3172.00,0.0286
3171.00,0.0285
3170.00,0.0284
3169.00,0.0283
3168.00,0.0282
3167.00,0.0281
3166.00,0.0280
3165.00,0.0279
3164.00,0.0278
3163.00,0.0277
3162.00,0.0275
3161.00,0.0274
3160.00,0.0272
3159.00,0.0271
3158.00,0.0270
3157.00,0.0269
3156.00,0.0268
3155.00,0.0267
3154.00,0.0265
3153.00,0.0264
3152.00,0.0264
3151.00,0.0263
3150.00,0.0262
3149.00,0.0261
3148.00,0.0260
3147.00,0.0259
3146.00,0.0258
3145.00,0.0257
3144.00,0.0256
3143.00,0.0256
3142.00,0.0254
3141.00,0.0253
3140.00,0.0252
3139.00,0.0250
3138.00,0.0249
3137.00,0.0248
3136.00,0.0247
3135.00,0.0246
3134.00,0.0245
3133.00,0.0244
3132.00,0.0243
3131.00,0.0242
3130.00,0.0241
3129.00,0.0240
3128.00,0.0239
3127.00,0.0237
3126.00,0.0236
3125.00,0.0235
3124.00,0.0234
3123.00,0.0233
3122.00,0.0232
3121.00,0.0231
3120.00,0.0230
3119.00,0.0229
3118.00,0.0228
3117.00,0.0227
3116.00,0.0226
3115.00,0.0224
3114.00,0.0223
3113.00,0.0222
3112.00,0.0221
3111.00,0.0220
3110.00,0.0219
3109.00,0.0218
3108.00,0.0218
3107.00,0.0217
3106.00,0.0216
3105.00,0.0215
3104.00,0.0214
3103.00,0.0214
3102.00,0.0213
3101.00,0.0213
3100.00,0.0212
3099.00,0.0212
3098.00,0.0211
3097.00,0.0210
3096.00,0.0210
3095.00,0.0209
3094.00,0.0209
3093.00,0.0209
3092.00,0.0210
3091.00,0.0210
3090.00,0.0210
3089.00,0.0211
3088.00,0.0211
3087.00,0.0212
3086.00,0.0213
3085.00,0.0214
3084.00,0.0215
3083.00,0.0217
3082.00,0.0218
3081.00,0.0220
3080.00,0.0221
3079.00,0.0222
3078.00,0.0222
3077.00,0.0223
3076.00,0.0224
3075.00,0.0224
3074.00,0.0224
3073.00,0.0224
3072.00,0.0223
3071.00,0.0221
3070.00,0.0219
3069.00,0.0217
3068.00,0.0215
3067.00,0.0212
3066.00,0.0208
3065.00,0.0205
3064.00,0.0201
3063.00,0.0197
3062.00,0.0194
3061.00,0.0191
3060.00,0.0188
3059.00,0.0185
3058.00,0.0183
3057.00,0.0182
3056.00,0.0180
3055.00,0.0179
3054.00,0.0178
3053.00,0.0178
3052.00,0.0177
3051.00,0.0176
3050.00,0.0175
3049.00,0.0175
3048.00,0.0174
3047.00,0.0174
3046.00,0.0174
3045.00,0.0174
3044.00,0.0174
3043.00,0.0174
3042.00,0.0174
3041.00,0.0174
3040.00,0.0174
3039.00,0.0174
3038.00,0.0174
3037.00,0.0174
3036.00,0.0173
3035.00,0.0173
3034.00,0.0173
3033.00,0.0173
3032.00,0.0172
3031.00,0.0171
3030.00,0.0171
3029.00,0.0170
3028.00,0.0169
3027.00,0.0168
3026.00,0.0167
3025.00,0.0167
3024.00,0.0166
3023.00,0.0165
3022.00,0.0165
3021.00,0.0164
3020.00,0.0163
3019.00,0.0163
3018.00,0.0162
3017.00,0.0161
3016.00,0.0160
3015.00,0.0159
3014.00,0.0157
3013.00,0.0156
3012.00,0.0155
3011.00,0.0153
3010.00,0.0152
3009.00,0.0150
3008.00,0.0147
3007.00,0.0145
3006.00,0.0142
3005.00,0.0139
3004.00,0.0136
3003.00,0.0134
3002.00,0.0132
3001.00,0.0130
3000.00,0.0128
2999.00,0.0127
2998.00,0.0127
2997.00,0.0128
2996.00,0.0129
2995.00,0.0130
2994.00,0.0132
2993.00,0.0134
2992.00,0.0137
2991.00,0.0140
2990.00,0.0142
2989.00,0.0145
2988.00,0.0147
2987.00,0.0148
2986.00,0.0146
2985.00,0.0140
2984.00,0.0131
2983.00,0.0122
2982.00,0.0118
2981.00,0.0121
2980.00,0.0132
2979.00,0.0148
2978.00,0.0165
2977.00,0.0182
2976.00,0.0198
2975.00,0.0211
2974.00,0.0223
2973.00,0.0234
2972.00,0.0247
2971.00,0.0262
2970.00,0.0282
2969.00,0.0304
2968.00,0.0328
2967.00,0.0350
2966.00,0.0372
2965.00,0.0392
2964.00,0.0412
2963.00,0.0430
2962.00,0.0446
2961.00,0.0460
2960.00,0.0472
2959.00,0.0482
2958.00,0.0490
2957.00,0.0496
2956.00,0.0499
2955.00,0.0502
2954.00,0.0502
2953.00,0.0501
2952.00,0.0498
2951.00,0.0495
2950.00,0.0492
2949.00,0.0489
2948.00,0.0489
2947.00,0.0491
2946.00,0.0495
2945.00,0.0503
2944.00,0.0513
2943.00,0.0526
2942.00,0.0540
2941.00,0.0557
2940.00,0.0575
2939.00,0.0596
2938.00,0.0618
2937.00,0.0641
2936.00,0.0665
2935.00,0.0688
2934.00,0.0710
2933.00,0.0731
2932.00,0.0750
2931.00,0.0768
2930.00,0.0784
2929.00,0.0798
2928.00,0.0809
2927.00,0.0817
2926.00,0.0822
2925.00,0.0824
2924.00,0.0824
2923.00,0.0820
2922.00,0.0814
2921.00,0.0805
2920.00,0.0794
2919.00,0.0782
2918.00,0.0768
2917.00,0.0752
2916.00,0.0737
2915.00,0.0721
2914.00,0.0705
2913.00,0.0689
2912.00,0.0674
2911.00,0.0658
2910.00,0.0642
2909.00,0.0627
2908.00,0.0611
2907.00,0.0597
2906.00,0.0583
2905.00,0.0570
2904.00,0.0558
2903.00,0.0547
2902.00,0.0537
2901.00,0.0527
2900.00,0.0518
2899.00,0.0509
2898.00,0.0501
2897.00,0.0492
2896.00,0.0483
2895.00,0.0475
2894.00,0.0467
2893.00,0.0459
2892.00,0.0451
2891.00,0.0443
2890.00,0.0437
2889.00,0.0432
2888.00,0.0427
2887.00,0.0423
2886.00,0.0419
2885.00,0.0416
2884.00,0.0413
2883.00,0.0412
2882.00,0.0412
2881.00,0.0414
2880.00,0.0418
2879.00,0.0422
2878.00,0.0427
2877.00,0.0433
2876.00,0.0440
2875.00,0.0446
2874.00,0.0453
2873.00,0.0459
2872.00,0.0464
2871.00,0.0467
2870.00,0.0467
2869.00,0.0467
2868.00,0.0466
2867.00,0.0466
2866.00,0.0468
2865.00,0.0473
2864.00,0.0481
2863.00,0.0491
2862.00,0.0503
2861.00,0.0517
2860.00,0.0530
2859.00,0.0542
2858.00,0.0551
2857.00,0.0556
2856.00,0.0556
2855.00,0.0551
2854.00,0.0542
2853.00,0.0528
2852.00,0.0510
2851.00,0.0491
2850.00,0.0470
2849.00,0.0448
2848.00,0.0426
2847.00,0.0405
2846.00,0.0384
2845.00,0.0365
2844.00,0.0347
2843.00,0.0331
2842.00,0.0317
2841.00,0.0306
2840.00,0.0297
2839.00,0.0291
2838.00,0.0288
2837.00,0.0287
2836.00,0.0286
2835.00,0.0287
2834.00,0.0286
2833.00,0.0286
2832.00,0.0283
2831.00,0.0280
2830.00,0.0274
2829.00,0.0267
2828.00,0.0258
2827.00,0.0249
2826.00,0.0238
2825.00,0.0227
2824.00,0.0217
2823.00,0.0207
2822.00,0.0198
2821.00,0.0190
2820.00,0.0182
2819.00,0.0176
2818.00,0.0170
2817.00,0.0165
2816.00,0.0161
2815.00,0.0157
2814.00,0.0153
2813.00,0.0150
2812.00,0.0147
2811.00,0.0144
2810.00,0.0142
2809.00,0.0139
2808.00,0.0137
2807.00,0.0135
2806.00,0.0134
2805.00,0.0132
2804.00,0.0130
2803.00,0.0128
2802.00,0.0127
2801.00,0.0125
2800.00,0.0124
2799.00,0.0122
2798.00,0.0121
2797.00,0.0120
2796.00,0.0119
2795.00,0.0118
2794.00,0.0117
2793.00,0.0115
2792.00,0.0114
2791.00,0.0113
2790.00,0.0112
2789.00,0.0112
2788.00,0.0111
2787.00,0.0110
2786.00,0.0110
2785.00,0.0109
2784.00,0.0109
2783.00,0.0108
2782.00,0.0108
2781.00,0.0108
2780.00,0.0107
2779.00,0.0107
2778.00,0.0106
2777.00,0.0106
2776.00,0.0105
2775.00,0.0105
2774.00,0.0104
2773.00,0.0104
2772.00,0.0103
2771.00,0.0103
2770.00,0.0103
2769.00,0.0103
2768.00,0.0102
2767.00,0.0102
2766.00,0.0102
2765.00,0.0102
2764.00,0.0102
2763.00,0.0102
2762.00,0.0102
2761.00,0.0102
2760.00,0.0102
2759.00,0.0102
2758.00,0.0102
2757.00,0.0102
2756.00,0.0102
2755.00,0.0102
2754.00,0.0102
2753.00,0.0102
2752.00,0.0102
2751.00,0.0102
2750.00,0.0102
2749.00,0.0102
2748.00,0.0102
2747.00,0.0102
2746.00,0.0102
2745.00,0.0102
2744.00,0.0103
2743.00,0.0103
2742.00,0.0103
2741.00,0.0104
2740.00,0.0104
2739.00,0.0105
2738.00,0.0105
2737.00,0.0106
2736.00,0.0107
2735.00,0.0107
2734.00,0.0108
2733.00,0.0109
2732.00,0.0109
2731.00,0.0110
2730.00,0.0110
2729.00,0.0110
2728.00,0.0110
2727.00,0.0110
2726.00,0.0110
2725.00,0.0110
2724.00,0.0109
2723.00,0.0109
2722.00,0.0108
2721.00,0.0107
2720.00,0.0106
2719.00,0.0106
2718.00,0.0105
2717.00,0.0105
2716.00,0.0104
2715.00,0.0103
2714.00,0.0102
2713.00,0.0102
2712.00,0.0101
2711.00,0.0101
2710.00,0.0100
2709.00,0.0100
2708.00,0.0100
2707.00,0.0099
2706.00,0.0099
2705.00,0.0099
2704.00,0.0099
2703.00,0.0099
2702.00,0.0099
2701.00,0.0098
2700.00,0.0098
2699.00,0.0098
2698.00,0.0098
2697.00,0.0098
2696.00,0.0098
2695.00,0.0098
2694.00,0.0098
2693.00,0.0098
2692.00,0.0098
2691.00,0.0098
2690.00,0.0098
2689.00,0.0098
2688.00,0.0098
2687.00,0.0098
2686.00,0.0098
2685.00,0.0099
2684.00,0.0099
2683.00,0.0099
2682.00,0.0098
2681.00,0.0098
2680.00,0.0098
2679.00,0.0098
2678.00,0.0098
2677.00,0.0098
2676.00,0.0097
2675.00,0.0097
2674.00,0.0097
2673.00,0.0097
2672.00,0.0097
2671.00,0.0097
2670.00,0.0097
2669.00,0.0097
2668.00,0.0097
2667.00,0.0097
2666.00,0.0097
2665.00,0.0097
2664.00,0.0098
2663.00,0.0098
2662.00,0.0098
2661.00,0.0098
2660.00,0.0098
2659.00,0.0098
2658.00,0.0097
2657.00,0.0097
2656.00,0.0097
2655.00,0.0096
2654.00,0.0096
2653.00,0.0095
2652.00,0.0095
2651.00,0.0095
2650.00,0.0094
2649.00,0.0094
2648.00,0.0094
2647.00,0.0093
2646.00,0.0093
2645.00,0.0093
2644.00,0.0093
2643.00,0.0093
2642.00,0.0092
2641.00,0.0092
2640.00,0.0092
2639.00,0.0092
2638.00,0.0091
2637.00,0.0091
2636.00,0.0091
2635.00,0.0091
2634.00,0.0091
2633.00,0.0091
2632.00,0.0091
2631.00,0.0090
2630.00,0.0090
2629.00,0.0090
2628.00,0.0090
2627.00,0.0090
2626.00,0.0090
2625.00,0.0090
2624.00,0.0089
2623.00,0.0089
2622.00,0.0088
2621.00,0.0088
2620.00,0.0087
2619.00,0.0087
2618.00,0.0087
2617.00,0.0087
2616.00,0.0087
2615.00,0.0087
2614.00,0.0086
2613.00,0.0086
2612.00,0.0086
2611.00,0.0085
2610.00,0.0085
2609.00,0.0085
2608.00,0.0084
2607.00,0.0084
2606.00,0.0083
2605.00,0.0083
2604.00,0.0083
2603.00,0.0082
2602.00,0.0082
2601.00,0.0082
2600.00,0.0082
2599.00,0.0082
2598.00,0.0082
2597.00,0.0082
2596.00,0.0081
2595.00,0.0081
2594.00,0.0080
2593.00,0.0080
2592.00,0.0080
2591.00,0.0080
2590.00,0.0080
2589.00,0.0080
2588.00,0.0080
2587.00,0.0080
2586.00,0.0080
2585.00,0.0080
2584.00,0.0080
2583.00,0.0080
2582.00,0.0079
2581.00,0.0079
2580.00,0.0079
2579.00,0.0079
2578.00,0.0079
2577.00,0.0078
2576.00,0.0078
2575.00,0.0078
2574.00,0.0077
2573.00,0.0077
2572.00,0.0076
2571.00,0.0076
2570.00,0.0076
2569.00,0.0076
2568.00,0.0076
2567.00,0.0075
2566.00,0.0075
2565.00,0.0075
2564.00,0.0075
2563.00,0.0075
2562.00,0.0075
2561.00,0.0074
2560.00,0.0074
2559.00,0.0074
2558.00,0.0074
2557.00,0.0073
2556.00,0.0073
2555.00,0.0073
2554.00,0.0073
2553.00,0.0073
2552.00,0.0072
2551.00,0.0072
2550.00,0.0072
2549.00,0.0072
2548.00,0.0072
2547.00,0.0072
2546.00,0.0072
2545.00,0.0072
2544.00,0.0072
2543.00,0.0072
2542.00,0.0071
2541.00,0.0071
2540.00,0.0071
2539.00,0.0070
2538.00,0.0070
2537.00,0.0070
2536.00,0.0070
2535.00,0.0069
2534.00,0.0069
2533.00,0.0069
2532.00,0.0069
2531.00,0.0069
2530.00,0.0068
2529.00,0.0068
2528.00,0.0067
2527.00,0.0067
2526.00,0.0066
2525.00,0.0066
2524.00,0.0066
2523.00,0.0065
2522.00,0.0065
2521.00,0.0065
2520.00,0.0065
2519.00,0.0065
2518.00,0.0064
2517.00,0.0064
2516.00,0.0064
2515.00,0.0064
2514.00,0.0063
2513.00,0.0063
2512.00,0.0063
2511.00,0.0063
2510.00,0.0063
2509.00,0.0063
2508.00,0.0063
2507.00,0.0063
2506.00,0.0063
2505.00,0.0063
2504.00,0.0063
2503.00,0.0063
2502.00,0.0062
2501.00,0.0062
2500.00,0.0061
2499.00,0.0061
2498.00,0.0061
2497.00,0.0062
2496.00,0.0062
2495.00,0.0062
2494.00,0.0062
2493.00,0.0061
2492.00,0.0062
2491.00,0.0061
2490.00,0.0061
2489.00,0.0061
2488.00,0.0061
2487.00,0.0061
2486.00,0.0060
2485.00,0.0060
2484.00,0.0060
2483.00,0.0060
2482.00,0.0060
2481.00,0.0060
2480.00,0.0060
2479.00,0.0060
2478.00,0.0060
2477.00,0.0059
2476.00,0.0059
2475.00,0.0059
2474.00,0.0058
2473.00,0.0058
2472.00,0.0058
2471.00,0.0058
2470.00,0.0058
2469.00,0.0058
2468.00,0.0058
2467.00,0.0057
2466.00,0.0057
2465.00,0.0057
2464.00,0.0057
2463.00,0.0057
2462.00,0.0057
2461.00,0.0058
2460.00,0.0058
2459.00,0.0058
2458.00,0.0058
2457.00,0.0058
2456.00,0.0058
2455.00,0.0058
2454.00,0.0058
2453.00,0.0057
2452.00,0.0057
2451.00,0.0057
2450.00,0.0057
2449.00,0.0057
2448.00,0.0056
2447.00,0.0056
2446.00,0.0055
2445.00,0.0055
2444.00,0.0054
2443.00,0.0054
2442.00,0.0053
2441.00,0.0053
2440.00,0.0052
2439.00,0.0052
2438.00,0.0052
2437.00,0.0052
2436.00,0.0052
2435.00,0.0052
2434.00,0.0052
2433.00,0.0052
2432.00,0.0052
2431.00,0.0051
2430.00,0.0051
2429.00,0.0051
2428.00,0.0051
2427.00,0.0051
2426.00,0.0050
2425.00,0.0050
2424.00,0.0050
2423.00,0.0049
2422.00,0.0049
2421.00,0.0048
2420.00,0.0048
2419.00,0.0048
2418.00,0.0048
2417.00,0.0049
2416.00,0.0049
2415.00,0.0050
2414.00,0.0050
2413.00,0.0049
2412.00,0.0049
2411.00,0.0049
2410.00,0.0049
2409.00,0.0049
2408.00,0.0048
2407.00,0.0048
2406.00,0.0047
2405.00,0.0047
2404.00,0.0047
2403.00,0.0047
2402.00,0.0047
2401.00,0.0047
2400.00,0.0047
2399.00,0.0047
2398.00,0.0047
2397.00,0.0047
2396.00,0.0047
2395.00,0.0047
2394.00,0.0047
2393.00,0.0047
2392.00,0.0047
2391.00,0.0047
2390.00,0.0047
2389.00,0.0046
2388.00,0.0046
2387.00,0.0045
2386.00,0.0044
2385.00,0.0044
2384.00,0.0043
2383.00,0.0042
2382.00,0.0041
2381.00,0.0041
2380.00,0.0041
2379.00,0.0041
2378.00,0.0041
2377.00,0.0042
2376.00,0.0043
2375.00,0.0043
2374.00,0.0043
2373.00,0.0043
2372.00,0.0043
2371.00,0.0042
2370.00,0.0041
2369.00,0.0041
2368.00,0.0042
2367.00,0.0042
2366.00,0.0042
2365.00,0.0042
2364.00,0.0043
2363.00,0.0043
2362.00,0.0043
2361.00,0.0043
2360.00,0.0043
2359.00,0.0043
2358.00,0.0043
2357.00,0.0043
2356.00,0.0043
2355.00,0.0044
2354.00,0.0044
2353.00,0.0044
2352.00,0.0044
2351.00,0.0044
2350.00,0.0044
2349.00,0.0045
2348.00,0.0046
2347.00,0.0046
2346.00,0.0046
2345.00,0.0046
2344.00,0.0046
2343.00,0.0047
2342.00,0.0047
2341.00,0.0047
2340.00,0.0047
2339.00,0.0047
2338.00,0.0047
2337.00,0.0047
2336.00,0.0047
2335.00,0.0047
2334.00,0.0047
2333.00,0.0047
2332.00,0.0046
2331.00,0.0046
2330.00,0.0047
2329.00,0.0050
2328.00,0.0053
2327.00,0.0058
2326.00,0.0060
2325.00,0.0061
2324.00,0.0059
2323.00,0.0056
2322.00,0.0054
2321.00,0.0052
2320.00,0.0051
2319.00,0.0051
2318.00,0.0050
2317.00,0.0050
2316.00,0.0050
2315.00,0.0050
2314.00,0.0049
2313.00,0.0048
2312.00,0.0047
2311.00,0.0046
2310.00,0.0045
2309.00,0.0045
2308.00,0.0046
2307.00,0.0046
2306.00,0.0046
2305.00,0.0047
2304.00,0.0047
2303.00,0.0047
2302.00,0.0047
2301.00,0.0047
2300.00,0.0047
2299.00,0.0047
2298.00,0.0048
2297.00,0.0049
2296.00,0.0049
2295.00,0.0050
2294.00,0.0052
2293.00,0.0053
2292.00,0.0054
2291.00,0.0056
2290.00,0.0056
2289.00,0.0057
2288.00,0.0057
2287.00,0.0057
2286.00,0.0056
2285.00,0.0055
2284.00,0.0054
2283.00,0.0053
2282.00,0.0052
2281.00,0.0052
2280.00,0.0052
2279.00,0.0052
2278.00,0.0052
2277.00,0.0052
2276.00,0.0052
2275.00,0.0052
2274.00,0.0052
2273.00,0.0051
2272.00,0.0051
2271.00,0.0050
2270.00,0.0049
2269.00,0.0049
2268.00,0.0048
2267.00,0.0048
2266.00,0.0047
2265.00,0.0047
2264.00,0.0048
2263.00,0.0048
2262.00,0.0048
2261.00,0.0049
2260.00,0.0049
2259.00,0.0049
2258.00,0.0048
2257.00,0.0046
2256.00,0.0045
2255.00,0.0045
2254.00,0.0045
2253.00,0.0045
2252.00,0.0046
2251.00,0.0046
2250.00,0.0046
2249.00,0.0047
2248.00,0.0047
2247.00,0.0048
2246.00,0.0048
2245.00,0.0048
2244.00,0.0048
2243.00,0.0047
2242.00,0.0047
2241.00,0.0047
2240.00,0.0047
2239.00,0.0048
2238.00,0.0048
2237.00,0.0048
2236.00,0.0048
2235.00,0.0048
2234.00,0.0047
2233.00,0.0047
2232.00,0.0047
2231.00,0.0046
2230.00,0.0046
2229.00,0.0046
2228.00,0.0046
2227.00,0.0046
2226.00,0.0045
2225.00,0.0044
2224.00,0.0044
2223.00,0.0045
2222.00,0.0045
2221.00,0.0045
2220.00,0.0045
2219.00,0.0045
2218.00,0.0044
2217.00,0.0044
2216.00,0.0044
2215.00,0.0044
2214.00,0.0043
2213.00,0.0043
2212.00,0.0043
2211.00,0.0043
2210.00,0.0043
2209.00,0.0043
2208.00,0.0043
2207.00,0.0044
2206.00,0.0045
2205.00,0.0046
2204.00,0.0046
2203.00,0.0045
2202.00,0.0045
2201.00,0.0046
2200.00,0.0047
2199.00,0.0047
2198.00,0.0047
2197.00,0.0047
2196.00,0.0048
2195.00,0.0048
2194.00,0.0046
2193.00,0.0045
2192.00,0.0045
2191.00,0.0046
2190.00,0.0047
2189.00,0.0048
2188.00,0.0049
2187.00,0.0049
2186.00,0.0047
2185.00,0.0046
2184.00,0.0044
2183.00,0.0042
2182.00,0.0041
2181.00,0.0042
2180.00,0.0044
2179.00,0.0044
2178.00,0.0042
2177.00,0.0039
2176.00,0.0037
2175.00,0.0037
2174.00,0.0039
2173.00,0.0042
2172.00,0.0046
2171.00,0.0050
2170.00,0.0053
2169.00,0.0055
2168.00,0.0056
2167.00,0.0056
2166.00,0.0056
2165.00,0.0056
2164.00,0.0058
2163.00,0.0057
2162.00,0.0050
2161.00,0.0037
2160.00,0.0021
2159.00,0.0008
2158.00,0.0002
2157.00,0.0004
2156.00,0.0009
2155.00,0.0014
2154.00,0.0016
2153.00,0.0018
2152.00,0.0020
2151.00,0.0020
2150.00,0.0020
2149.00,0.0020
2148.00,0.0020
2147.00,0.0020
2146.00,0.0019
2145.00,0.0020
2144.00,0.0021
2143.00,0.0021
2142.00,0.0020
2141.00,0.0020
2140.00,0.0021
2139.00,0.0021
2138.00,0.0021
2137.00,0.0020
2136.00,0.0017
2135.00,0.0015
2134.00,0.0015
2133.00,0.0016
2132.00,0.0018
2131.00,0.0020
2130.00,0.0022
2129.00,0.0025
2128.00,0.0028
2127.00,0.0030
2126.00,0.0031
2125.00,0.0031
2124.00,0.0032
2123.00,0.0032
2122.00,0.0032
2121.00,0.0033
2120.00,0.0035
2119.00,0.0036
2118.00,0.0037
2117.00,0.0037
2116.00,0.0039
2115.00,0.0039
2114.00,0.0039
2113.00,0.0039
2112.00,0.0038
2111.00,0.0038
2110.00,0.0037
2109.00,0.0037
2108.00,0.0036
2107.00,0.0036
2106.00,0.0035
2105.00,0.0035
2104.00,0.0035
2103.00,0.0036
2102.00,0.0036
2101.00,0.0037
2100.00,0.0037
2099.00,0.0036
2098.00,0.0034
2097.00,0.0032
2096.00,0.0031
2095.00,0.0030
2094.00,0.0031
2093.00,0.0032
2092.00,0.0034
2091.00,0.0035
2090.00,0.0035
2089.00,0.0036
2088.00,0.0036
2087.00,0.0036
2086.00,0.0037
2085.00,0.0038
2084.00,0.0039
2083.00,0.0040
2082.00,0.0040
2081.00,0.0040
2080.00,0.0039
2079.00,0.0038
2078.00,0.0037
2077.00,0.0037
2076.00,0.0037
2075.00,0.0038
2074.00,0.0038
2073.00,0.0038
2072.00,0.0038
2071.00,0.0038
2070.00,0.0037
2069.00,0.0036
2068.00,0.0035
2067.00,0.0034
2066.00,0.0033
2065.00,0.0033
2064.00,0.0033
2063.00,0.0032
2062.00,0.0031
2061.00,0.0031
2060.00,0.0032
2059.00,0.0032
2058.00,0.0033
2057.00,0.0032
2056.00,0.0032
2055.00,0.0033
2054.00,0.0035
2053.00,0.0040
2052.00,0.0043
2051.00,0.0043
2050.00,0.0039
2049.00,0.0035
2048.00,0.0032
2047.00,0.0032
2046.00,0.0031
2045.00,0.0032
2044.00,0.0033
2043.00,0.0034
2042.00,0.0033
2041.00,0.0032
2040.00,0.0032
2039.00,0.0032
2038.00,0.0033
2037.00,0.0033
2036.00,0.0034
2035.00,0.0032
2034.00,0.0029
2033.00,0.0027
2032.00,0.0026
2031.00,0.0026
2030.00,0.0026
2029.00,0.0027
2028.00,0.0028
2027.00,0.0027
2026.00,0.0026
2025.00,0.0026
2024.00,0.0027
2023.00,0.0028
2022.00,0.0027
2021.00,0.0027
2020.00,0.0027
2019.00,0.0028
2018.00,0.0028
2017.00,0.0028
2016.00,0.0028
2015.00,0.0027
2014.00,0.0027
2013.00,0.0027
2012.00,0.0029
2011.00,0.0030
2010.00,0.0029
2009.00,0.0028
2008.00,0.0026
2007.00,0.0024
2006.00,0.0021
2005.00,0.0021
2004.00,0.0022
2003.00,0.0024
2002.00,0.0026
2001.00,0.0029
2000.00,0.0031
1999.00,0.0032
1998.00,0.0032
1997.00,0.0032
1996.00,0.0033
1995.00,0.0034
1994.00,0.0035
1993.00,0.0036
1992.00,0.0038
1991.00,0.0040
1990.00,0.0040
1989.00,0.0040
1988.00,0.0040
1987.00,0.0039
1986.00,0.0039
1985.00,0.0041
1984.00,0.0044
1983.00,0.0047
1982.00,0.0050
1981.00,0.0050
1980.00,0.0047
1979.00,0.0039
1978.00,0.0030
1977.00,0.0024
1976.00,0.0021
1975.00,0.0020
1974.00,0.0019
1973.00,0.0019
1972.00,0.0019
1971.00,0.0019
1970.00,0.0019
1969.00,0.0020
1968.00,0.0023
1967.00,0.0025
1966.00,0.0024
1965.00,0.0023
1964.00,0.0024
1963.00,0.0023
1962.00,0.0022
1961.00,0.0021
1960.00,0.0021
1959.00,0.0020
1958.00,0.0021
1957.00,0.0022
1956.00,0.0025
1955.00,0.0026
1954.00,0.0026
1953.00,0.0027
1952.00,0.0027
1951.00,0.0027
1950.00,0.0026
1949.00,0.0026
1948.00,0.0027
1947.00,0.0028
1946.00,0.0029
1945.00,0.0030
1944.00,0.0031
1943.00,0.0031
1942.00,0.0030
1941.00,0.0030
1940.00,0.0030
1939.00,0.0030
1938.00,0.0030
1937.00,0.0030
1936.00,0.0031
1935.00,0.0031
1934.00,0.0030
1933.00,0.0030
1932.00,0.0030
1931.00,0.0030
1930.00,0.0030
1929.00,0.0030
1928.00,0.0030
1927.00,0.0031
1926.00,0.0032
1925.00,0.0033
1924.00,0.0034
1923.00,0.0035
1922.00,0.0036
1921.00,0.0037
1920.00,0.0038
1919.00,0.0039
1918.00,0.0038
1917.00,0.0037
1916.00,0.0036
1915.00,0.0036
1914.00,0.0036
1913.00,0.0036
1912.00,0.0037
1911.00,0.0038
1910.00,0.0038
1909.00,0.0038
1908.00,0.0038
1907.00,0.0037
1906.00,0.0036
1905.00,0.0036
1904.00,0.0035
1903.00,0.0035
1902.00,0.0035
1901.00,0.0036
1900.00,0.0036
1899.00,0.0036
1898.00,0.0036
1897.00,0.0036
1896.00,0.0036
1895.00,0.0036
1894.00,0.0036
1893.00,0.0037
1892.00,0.0037
1891.00,0.0037
1890.00,0.0037
1889.00,0.0037
1888.00,0.0037
1887.00,0.0037
1886.00,0.0036
1885.00,0.0036
1884.00,0.0036
1883.00,0.0037
1882.00,0.0037
1881.00,0.0037
1880.00,0.0037
1879.00,0.0037
1878.00,0.0038
1877.00,0.0038
1876.00,0.0038
1875.00,0.0038
1874.00,0.0038
1873.00,0.0038
1872.00,0.0040
1871.00,0.0041
1870.00,0.0042
1869.00,0.0042
1868.00,0.0042
1867.00,0.0042
1866.00,0.0041
1865.00,0.0040
1864.00,0.0040
1863.00,0.0039
1862.00,0.0039
1861.00,0.0039
1860.00,0.0039
1859.00,0.0039
1858.00,0.0039
1857.00,0.0039
1856.00,0.0039
1855.00,0.0039
1854.00,0.0038
1853.00,0.0038
1852.00,0.0039
1851.00,0.0040
1850.00,0.0040
1849.00,0.0041
1848.00,0.0043
1847.00,0.0044
1846.00,0.0044
1845.00,0.0045
1844.00,0.0044
1843.00,0.0044
1842.00,0.0043
1841.00,0.0043
1840.00,0.0043
1839.00,0.0043
1838.00,0.0042
1837.00,0.0042
1836.00,0.0042
1835.00,0.0042
1834.00,0.0042
1833.00,0.0043
1832.00,0.0044
1831.00,0.0044
1830.00,0.0043
1829.00,0.0044
1828.00,0.0044
1827.00,0.0045
1826.00,0.0045
1825.00,0.0045
1824.00,0.0045
1823.00,0.0044
1822.00,0.0044
1821.00,0.0043
1820.00,0.0042
1819.00,0.0040
1818.00,0.0039
1817.00,0.0039
1816.00,0.0040
1815.00,0.0041
1814.00,0.0042
1813.00,0.0043
1812.00,0.0044
1811.00,0.0045
1810.00,0.0045
1809.00,0.0045
1808.00,0.0045
1807.00,0.0045
1806.00,0.0045
1805.00,0.0046
1804.00,0.0047
1803.00,0.0048
1802.00,0.0049
1801.00,0.0050
1800.00,0.0051
1799.00,0.0051
1798.00,0.0051
1797.00,0.0052
1796.00,0.0053
1795.00,0.0054
1794.00,0.0054
1793.00,0.0054
1792.00,0.0054
1791.00,0.0054
1790.00,0.0053
1789.00,0.0053
1788.00,0.0053
1787.00,0.0053
1786.00,0.0053
1785.00,0.0053
1784.00,0.0053
1783.00,0.0054
1782.00,0.0054
1781.00,0.0055
1780.00,0.0055
1779.00,0.0055
1778.00,0.0055
1777.00,0.0055
1776.00,0.0056
1775.00,0.0057
1774.00,0.0057
1773.00,0.0057
1772.00,0.0057
1771.00,0.0058
1770.00,0.0059
1769.00,0.0059
1768.00,0.0059
1767.00,0.0058
1766.00,0.0056
1765.00,0.0056
1764.00,0.0057
1763.00,0.0056
1762.00,0.0056
1761.00,0.0056
1760.00,0.0057
1759.00,0.0058
1758.00,0.0058
1757.00,0.0058
1756.00,0.0058
1755.00,0.0059
1754.00,0.0060
1753.00,0.0062
1752.00,0.0064
1751.00,0.0066
1750.00,0.0067
1749.00,0.0067
1748.00,0.0067
1747.00,0.0067
1746.00,0.0065
1745.00,0.0065
1744.00,0.0065
1743.00,0.0065
1742.00,0.0065
1741.00,0.0066
1740.00,0.0067
1739.00,0.0067
1738.00,0.0067
1737.00,0.0068
1736.00,0.0071
1735.00,0.0072
1734.00,0.0072
1733.00,0.0072
1732.00,0.0074
1731.00,0.0075
1730.00,0.0075
1729.00,0.0075
1728.00,0.0075
1727.00,0.0076
1726.00,0.0076
1725.00,0.0078
1724.00,0.0080
1723.00,0.0082
1722.00,0.0084
1721.00,0.0086
1720.00,0.0089
1719.00,0.0091
1718.00,0.0093
1717.00,0.0097
1716.00,0.0101
1715.00,0.0104
1714.00,0.0106
1713.00,0.0108
1712.00,0.0111
1711.00,0.0114
1710.00,0.0117
1709.00,0.0123
1708.00,0.0129
1707.00,0.0137
1706.00,0.0145
1705.00,0.0155
1704.00,0.0166
1703.00,0.0176
1702.00,0.0188
1701.00,0.0209
1700.00,0.0237
1699.00,0.0262
1698.00,0.0281
1697.00,0.0306
1696.00,0.0341
1695.00,0.0381
1694.00,0.0415
1693.00,0.0445
1692.00,0.0475
1691.00,0.0508
1690.00,0.0544
1689.00,0.0580
1688.00,0.0609
1687.00,0.0629
1686.00,0.0648
1685.00,0.0682
1684.00,0.0731
1683.00,0.0771
1682.00,0.0791
1681.00,0.0804
1680.00,0.0818
1679.00,0.0834
1678.00,0.0850
1677.00,0.0874
1676.00,0.0914
1675.00,0.0971
1674.00,0.1026
1673.00,0.1071
1672.00,0.1116
1671.00,0.1174
1670.00,0.1255
1669.00,0.1347
1668.00,0.1428
1667.00,0.1485
1666.00,0.1525
1665.00,0.1561
1664.00,0.1609
1663.00,0.1670
1662.00,0.1729
1661.00,0.1770
1660.00,0.1793
1659.00,0.1802
1658.00,0.1800
1657.00,0.1786
1656.00,0.1762
1655.00,0.1732
1654.00,0.1717
1653.00,0.1728
1652.00,0.1728
1651.00,0.1693
1650.00,0.1638
1649.00,0.1579
1648.00,0.1525
1647.00,0.1481
1646.00,0.1441
1645.00,0.1396
1644.00,0.1344
1643.00,0.1286
1642.00,0.1224
1641.00,0.1161
1640.00,0.1102
1639.00,0.1047
1638.00,0.0998
1637.00,0.0958
1636.00,0.0936
1635.00,0.0931
1634.00,0.0932
1633.00,0.0935
1632.00,0.0943
1631.00,0.0956
1630.00,0.0976
1629.00,0.0999
1628.00,0.1024
1627.00,0.1042
1626.00,0.1046
1625.00,0.1039
1624.00,0.1025
1623.00,0.1009
1622.00,0.0985
1621.00,0.0955
1620.00,0.0920
1619.00,0.0882
1618.00,0.0841
1617.00,0.0798
1616.00,0.0756
1615.00,0.0716
1614.00,0.0676
1613.00,0.0635
1612.00,0.0595
1611.00,0.0558
1610.00,0.0525
1609.00,0.0497
1608.00,0.0473
1607.00,0.0455
1606.00,0.0441
1605.00,0.0433
1604.00,0.0430
1603.00,0.0433
1602.00,0.0443
1601.00,0.0457
1600.00,0.0477
1599.00,0.0501
1598.00,0.0530
1597.00,0.0562
1596.00,0.0597
1595.00,0.0635
1594.00,0.0674
1593.00,0.0713
1592.00,0.0753
1591.00,0.0794
1590.00,0.0835
1589.00,0.0875
1588.00,0.0912
1587.00,0.0943
1586.00,0.0963
1585.00,0.0971
1584.00,0.0967
1583.00,0.0949
1582.00,0.0918
1581.00,0.0876
1580.00,0.0831
1579.00,0.0784
1578.00,0.0734
1577.00,0.0681
1576.00,0.0632
1575.00,0.0592
1574.00,0.0558
1573.00,0.0527
1572.00,0.0498
1571.00,0.0468
1570.00,0.0440
1569.00,0.0413
1568.00,0.0391
1567.00,0.0372
1566.00,0.0354
1565.00,0.0336
1564.00,0.0320
1563.00,0.0307
1562.00,0.0295
1561.00,0.0283
1560.00,0.0275
1559.00,0.0271
1558.00,0.0268
1557.00,0.0261
1556.00,0.0254
1555.00,0.0249
1554.00,0.0244
1553.00,0.0240
1552.00,0.0236
1551.00,0.0234
1550.00,0.0232
1549.00,0.0230
1548.00,0.0229
1547.00,0.0227
1546.00,0.0228
1545.00,0.0228
1544.00,0.0229
1543.00,0.0229
1542.00,0.0230
1541.00,0.0231
1540.00,0.0233
1539.00,0.0234
1538.00,0.0234
1537.00,0.0234
1536.00,0.0236
1535.00,0.0238
1534.00,0.0242
1533.00,0.0246
1532.00,0.0250
1531.00,0.0252
1530.00,0.0256
1529.00,0.0260
1528.00,0.0266
1527.00,0.0274
1526.00,0.0283
1525.00,0.0291
1524.00,0.0297
1523.00,0.0303
1522.00,0.0312
1521.00,0.0322
1520.00,0.0328
1519.00,0.0330
1518.00,0.0330
1517.00,0.0330
1516.00,0.0328
1515.00,0.0323
1514.00,0.0316
1513.00,0.0309
1512.00,0.0302
1511.00,0.0296
1510.00,0.0292
1509.00,0.0289
1508.00,0.0286
1507.00,0.0286
1506.00,0.0286
1505.00,0.0287
1504.00,0.0288
1503.00,0.0293
1502.00,0.0301
1501.00,0.0312
1500.00,0.0325
1499.00,0.0341
1498.00,0.0358
1497.00,0.0375
1496.00,0.0387
1495.00,0.0392
1494.00,0.0392
1493.00,0.0387
1492.00,0.0377
1491.00,0.0363
1490.00,0.0346
1489.00,0.0326
1488.00,0.0305
1487.00,0.0285
1486.00,0.0267
1485.00,0.0254
1484.00,0.0243
1483.00,0.0235
1482.00,0.0231
1481.00,0.0230
1480.00,0.0230
1479.00,0.0233
1478.00,0.0238
1477.00,0.0246
1476.00,0.0258
1475.00,0.0271
1474.00,0.0293
1473.00,0.0329
1472.00,0.0377
1471.00,0.0426
1470.00,0.0472
1469.00,0.0519
1468.00,0.0566
1467.00,0.0613
1466.00,0.0665
1465.00,0.0721
1464.00,0.0770
1463.00,0.0803
1462.00,0.0819
1461.00,0.0827
1460.00,0.0830
1459.00,0.0830
1458.00,0.0838
1457.00,0.0861
1456.00,0.0886
1455.00,0.0902
1454.00,0.0917
1453.00,0.0941
1452.00,0.0975
1451.00,0.1016
1450.00,0.1065
1449.00,0.1125
1448.00,0.1195
1447.00,0.1263
1446.00,0.1323
1445.00,0.1375
1444.00,0.1421
1443.00,0.1460
1442.00,0.1494
1441.00,0.1519
1440.00,0.1531
1439.00,0.1533
1438.00,0.1533
1437.00,0.1540
1436.00,0.1550
1435.00,0.1548
1434.00,0.1539
1433.00,0.1532
1432.00,0.1534
1431.00,0.1546
1430.00,0.1563
1429.00,0.1578
1428.00,0.1581
1427.00,0.1568
1426.00,0.1543
1425.00,0.1513
1424.00,0.1477
1423.00,0.1432
1422.00,0.1376
1421.00,0.1307
1420.00,0.1224
1419.00,0.1126
1418.00,0.1028
1417.00,0.0939
1416.00,0.0856
1415.00,0.0780
1414.00,0.0714
1413.00,0.0657
1412.00,0.0610
1411.00,0.0570
1410.00,0.0539
1409.00,0.0514
1408.00,0.0493
1407.00,0.0477
1406.00,0.0465
1405.00,0.0456
1404.00,0.0448
1403.00,0.0440
1402.00,0.0434
1401.00,0.0430
1400.00,0.0427
1399.00,0.0427
1398.00,0.0427
1397.00,0.0426
1396.00,0.0425
1395.00,0.0426
1394.00,0.0429
1393.00,0.0432
1392.00,0.0435
1391.00,0.0439
1390.00,0.0445
1389.00,0.0453
1388.00,0.0465
1387.00,0.0481
1386.00,0.0498
1385.00,0.0516
1384.00,0.0536
1383.00,0.0562
1382.00,0.0596
1381.00,0.0635
1380.00,0.0677
1379.00,0.0720
1378.00,0.0757
1377.00,0.0784
1376.00,0.0799
1375.00,0.0802
1374.00,0.0794
1373.00,0.0776
1372.00,0.0752
1371.00,0.0729
1370.00,0.0707
1369.00,0.0688
1368.00,0.0671
1367.00,0.0655
1366.00,0.0640
1365.00,0.0625
1364.00,0.0610
1363.00,0.0597
1362.00,0.0585
1361.00,0.0575
1360.00,0.0565
1359.00,0.0558
1358.00,0.0554
1357.00,0.0552
1356.00,0.0552
1355.00,0.0553
1354.00,0.0556
1353.00,0.0558
1352.00,0.0559
1351.00,0.0560
1350.00,0.0562
1349.00,0.0562
1348.00,0.0562
1347.00,0.0562
1346.00,0.0562
1345.00,0.0562
1344.00,0.0561
1343.00,0.0560
1342.00,0.0561
1341.00,0.0563
1340.00,0.0566
1339.00,0.0571
1338.00,0.0576
1337.00,0.0579
1336.00,0.0582
1335.00,0.0585
1334.00,0.0588
1333.00,0.0589
1332.00,0.0589
1331.00,0.0589
1330.00,0.0589
1329.00,0.0591
1328.00,0.0595
1327.00,0.0602
1326.00,0.0613
1325.00,0.0628
1324.00,0.0645
1323.00,0.0665
1322.00,0.0685
1321.00,0.0705
1320.00,0.0725
1319.00,0.0743
1318.00,0.0757
1317.00,0.0765
1316.00,0.0768
1315.00,0.0767
1314.00,0.0762
1313.00,0.0754
1312.00,0.0745
1311.00,0.0735
1310.00,0.0727
1309.00,0.0720
1308.00,0.0714
1307.00,0.0710
1306.00,0.0707
1305.00,0.0705
1304.00,0.0705
1303.00,0.0710
1302.00,0.0722
1301.00,0.0741
1300.00,0.0769
1299.00,0.0808
1298.00,0.0859
1297.00,0.0921
1296.00,0.0992
1295.00,0.1068
1294.00,0.1141
1293.00,0.1207
1292.00,0.1260
1291.00,0.1297
1290.00,0.1316
1289.00,0.1319
1288.00,0.1309
1287.00,0.1287
1286.00,0.1259
1285.00,0.1226
1284.00,0.1191
1283.00,0.1158
1282.00,0.1130
1281.00,0.1107
1280.00,0.1091
1279.00,0.1082
1278.00,0.1079
1277.00,0.1080
1276.00,0.1080
1275.00,0.1078
1274.00,0.1071
1273.00,0.1057
1272.00,0.1036
1271.00,0.1009
1270.00,0.0976
1269.00,0.0939
1268.00,0.0899
1267.00,0.0859
1266.00,0.0821
1265.00,0.0786
1264.00,0.0756
1263.00,0.0732
1262.00,0.0715
1261.00,0.0704
1260.00,0.0700
1259.00,0.0703
1258.00,0.0712
1257.00,0.0728
1256.00,0.0747
1255.00,0.0771
1254.00,0.0797
1253.00,0.0823
1252.00,0.0849
1251.00,0.0873
1250.00,0.0897
1249.00,0.0918
1248.00,0.0939
1247.00,0.0960
1246.00,0.0981
1245.00,0.1000
1244.00,0.1018
1243.00,0.1032
1242.00,0.1040
1241.00,0.1041
1240.00,0.1036
1239.00,0.1024
1238.00,0.1007
1237.00,0.0987
1236.00,0.0965
1235.00,0.0943
1234.00,0.0923
1233.00,0.0904
1232.00,0.0890
1231.00,0.0880
1230.00,0.0877
1229.00,0.0879
1228.00,0.0884
1227.00,0.0891
1226.00,0.0898
1225.00,0.0902
1224.00,0.0904
1223.00,0.0903
1222.00,0.0899
1221.00,0.0894
1220.00,0.0887
1219.00,0.0880
1218.00,0.0872
1217.00,0.0864
1216.00,0.0854
1215.00,0.0843
1214.00,0.0831
1213.00,0.0818
1212.00,0.0804
1211.00,0.0791
1210.00,0.0781
1209.00,0.0774
1208.00,0.0773
1207.00,0.0777
1206.00,0.0785
1205.00,0.0797
1204.00,0.0808
1203.00,0.0815
1202.00,0.0816
1201.00,0.0808
1200.00,0.0792
1199.00,0.0769
1198.00,0.0741
1197.00,0.0711
1196.00,0.0681
1195.00,0.0653
1194.00,0.0629
1193.00,0.0608
1192.00,0.0590
1191.00,0.0575
1190.00,0.0562
1189.00,0.0551
1188.00,0.0541
1187.00,0.0532
1186.00,0.0525
1185.00,0.0519
1184.00,0.0515
1183.00,0.0513
1182.00,0.0516
1181.00,0.0522
1180.00,0.0534
1179.00,0.0551
1178.00,0.0572
1177.00,0.0598
1176.00,0.0624
1175.00,0.0647
1174.00,0.0665
1173.00,0.0675
1172.00,0.0673
1171.00,0.0663
1170.00,0.0645
1169.00,0.0620
1168.00,0.0591
1167.00,0.0561
1166.00,0.0531
1165.00,0.0503
1164.00,0.0478
1163.00,0.0458
1162.00,0.0443
1161.00,0.0434
1160.00,0.0431
1159.00,0.0436
1158.00,0.0450
1157.00,0.0473
1156.00,0.0502
1155.00,0.0536
1154.00,0.0571
1153.00,0.0604
1152.00,0.0631
1151.00,0.0650
1150.00,0.0656
1149.00,0.0644
1148.00,0.0614
1147.00,0.0570
1146.00,0.0519
1145.00,0.0467
1144.00,0.0420
1143.00,0.0383
1142.00,0.0356
1141.00,0.0337
1140.00,0.0324
1139.00,0.0317
1138.00,0.0314
1137.00,0.0314
1136.00,0.0313
1135.00,0.0312
1134.00,0.0309
1133.00,0.0304
1132.00,0.0297
1131.00,0.0289
1130.00,0.0282
1129.00,0.0274
1128.00,0.0267
1127.00,0.0261
1126.00,0.0257
1125.00,0.0253
1124.00,0.0251
1123.00,0.0249
1122.00,0.0248
1121.00,0.0247
1120.00,0.0247
1119.00,0.0248
1118.00,0.0250
1117.00,0.0253
1116.00,0.0256
1115.00,0.0260
1114.00,0.0266
1113.00,0.0271
1112.00,0.0275
1111.00,0.0278
1110.00,0.0281
1109.00,0.0282
1108.00,0.0283
1107.00,0.0284
1106.00,0.0286
1105.00,0.0289
1104.00,0.0291
1103.00,0.0295
1102.00,0.0300
1101.00,0.0305
1100.00,0.0310
1099.00,0.0316
1098.00,0.0321
1097.00,0.0324
1096.00,0.0323
1095.00,0.0320
1094.00,0.0313
1093.00,0.0303
1092.00,0.0291
1091.00,0.0279
1090.00,0.0268
1089.00,0.0260
1088.00,0.0254
1087.00,0.0251
1086.00,0.0252
1085.00,0.0255
1084.00,0.0258
1083.00,0.0263
1082.00,0.0270
1081.00,0.0277
1080.00,0.0283
1079.00,0.0288
1078.00,0.0292
1077.00,0.0292
1076.00,0.0290
1075.00,0.0285
1074.00,0.0279
1073.00,0.0273
1072.00,0.0266
1071.00,0.0260
1070.00,0.0257
1069.00,0.0255
1068.00,0.0255
1067.00,0.0258
1066.00,0.0263
1065.00,0.0272
1064.00,0.0284
1063.00,0.0301
1062.00,0.0327
1061.00,0.0362
1060.00,0.0408
1059.00,0.0467
1058.00,0.0537
1057.00,0.0612
1056.00,0.0686
1055.00,0.0747
1054.00,0.0786
1053.00,0.0796
1052.00,0.0774
1051.00,0.0726
1050.00,0.0663
1049.00,0.0597
1048.00,0.0538
1047.00,0.0492
1046.00,0.0463
1045.00,0.0448
1044.00,0.0444
1043.00,0.0451
1042.00,0.0468
1041.00,0.0492
1040.00,0.0525
1039.00,0.0569
1038.00,0.0623
1037.00,0.0689
1036.00,0.0764
1035.00,0.0848
1034.00,0.0936
1033.00,0.1024
1032.00,0.1105
1031.00,0.1175
1030.00,0.1229
1029.00,0.1263
1028.00,0.1274
1027.00,0.1262
1026.00,0.1228
1025.00,0.1177
1024.00,0.1117
1023.00,0.1056
1022.00,0.1003
1021.00,0.0958
1020.00,0.0920
1019.00,0.0888
1018.00,0.0856
1017.00,0.0820
1016.00,0.0781
1015.00,0.0741
1014.00,0.0702
1013.00,0.0668
1012.00,0.0638
1011.00,0.0615
1010.00,0.0597
1009.00,0.0584
1008.00,0.0573
1007.00,0.0562
1006.00,0.0553
1005.00,0.0542
1004.00,0.0530
1003.00,0.0519
1002.00,0.0508
1001.00,0.0498
1000.00,0.0489
999.00,0.0479
998.00,0.0469
997.00,0.0458
996.00,0.0447
995.00,0.0437
994.00,0.0428
993.00,0.0423
992.00,0.0421
991.00,0.0424
990.00,0.0429
989.00,0.0435
988.00,0.0439
987.00,0.0440
986.00,0.0436
985.00,0.0429
984.00,0.0417
983.00,0.0403
982.00,0.0388
981.00,0.0373
980.00,0.0359
979.00,0.0348
978.00,0.0338
977.00,0.0331
976.00,0.0323
975.00,0.0317
974.00,0.0311
973.00,0.0306
972.00,0.0301
971.00,0.0298
970.00,0.0297
969.00,0.0298
968.00,0.0300
967.00,0.0304
966.00,0.0311
965.00,0.0318
964.00,0.0325
963.00,0.0331
962.00,0.0334
961.00,0.0332
960.00,0.0325
959.00,0.0312
958.00,0.0297
957.00,0.0279
956.00,0.0259
955.00,0.0240
954.00,0.0221
953.00,0.0204
952.00,0.0189
951.00,0.0178
950.00,0.0171
949.00,0.0166
948.00,0.0161
947.00,0.0158
946.00,0.0156
945.00,0.0155
944.00,0.0154
943.00,0.0154
942.00,0.0156
941.00,0.0160
940.00,0.0163
939.00,0.0169
938.00,0.0176
937.00,0.0185
936.00,0.0195
935.00,0.0206
934.00,0.0216
933.00,0.0225
932.00,0.0230
931.00,0.0234
930.00,0.0235
929.00,0.0234
928.00,0.0233
927.00,0.0231
926.00,0.0230
925.00,0.0229
924.00,0.0229
923.00,0.0229
922.00,0.0231
921.00,0.0234
920.00,0.0239
919.00,0.0245
918.00,0.0253
917.00,0.0261
916.00,0.0268
915.00,0.0275
914.00,0.0282
913.00,0.0289
912.00,0.0296
911.00,0.0304
910.00,0.0316
909.00,0.0330
908.00,0.0347
907.00,0.0368
906.00,0.0393
905.00,0.0420
904.00,0.0448
903.00,0.0476
902.00,0.0502
901.00,0.0524
900.00,0.0542
899.00,0.0558
898.00,0.0574
897.00,0.0590
896.00,0.0607
895.00,0.0627
894.00,0.0649
893.00,0.0673
892.00,0.0697
891.00,0.0722
890.00,0.0747
889.00,0.0770
888.00,0.0788
887.00,0.0803
886.00,0.0813
885.00,0.0816
884.00,0.0810
883.00,0.0798
882.00,0.0779
881.00,0.0756
880.00,0.0727
879.00,0.0696
878.00,0.0665
877.00,0.0634
876.00,0.0603
875.00,0.0575
874.00,0.0552
873.00,0.0533
872.00,0.0519
871.00,0.0509
870.00,0.0506
869.00,0.0508
868.00,0.0514
867.00,0.0524
866.00,0.0536
865.00,0.0548
864.00,0.0558
863.00,0.0565
862.00,0.0570
861.00,0.0574
860.00,0.0577
859.00,0.0581
858.00,0.0589
857.00,0.0598
856.00,0.0609
855.00,0.0620
854.00,0.0632
853.00,0.0643
852.00,0.0652
851.00,0.0660
850.00,0.0667
849.00,0.0673
848.00,0.0677
847.00,0.0681
846.00,0.0683
845.00,0.0685
844.00,0.0685
843.00,0.0685
842.00,0.0687
841.00,0.0689
840.00,0.0692
839.00,0.0697
838.00,0.0704
837.00,0.0714
836.00,0.0725
835.00,0.0736
834.00,0.0749
833.00,0.0761
832.00,0.0771
831.00,0.0778
830.00,0.0781
829.00,0.0779
828.00,0.0769
827.00,0.0755
826.00,0.0737
825.00,0.0715
824.00,0.0689
823.00,0.0662
822.00,0.0635
821.00,0.0608
820.00,0.0581
819.00,0.0555
818.00,0.0533
817.00,0.0514
816.00,0.0498
815.00,0.0485
814.00,0.0476
813.00,0.0469
812.00,0.0463
811.00,0.0460
810.00,0.0461
809.00,0.0466
808.00,0.0474
807.00,0.0487
806.00,0.0503
805.00,0.0517
804.00,0.0524
803.00,0.0520
802.00,0.0507
801.00,0.0487
800.00,0.0468
799.00,0.0454
798.00,0.0447
797.00,0.0446
796.00,0.0447
795.00,0.0449
794.00,0.0451
793.00,0.0450
792.00,0.0445
791.00,0.0438
790.00,0.0430
789.00,0.0421
788.00,0.0412
787.00,0.0404
786.00,0.0398
785.00,0.0393
784.00,0.0387
783.00,0.0384
782.00,0.0383
781.00,0.0384
780.00,0.0387
779.00,0.0392
778.00,0.0400
777.00,0.0410
776.00,0.0418
775.00,0.0427
774.00,0.0435
773.00,0.0442
772.00,0.0446
771.00,0.0448
770.00,0.0450
769.00,0.0450
768.00,0.0447
767.00,0.0445
766.00,0.0444
765.00,0.0445
764.00,0.0447
763.00,0.0453
762.00,0.0461
761.00,0.0470
760.00,0.0481
759.00,0.0494
758.00,0.0508
757.00,0.0522
756.00,0.0535
755.00,0.0545
754.00,0.0553
753.00,0.0557
752.00,0.0557
751.00,0.0553
750.00,0.0546
749.00,0.0538
748.00,0.0528
747.00,0.0519
746.00,0.0513
745.00,0.0509
744.00,0.0506
743.00,0.0506
742.00,0.0510
741.00,0.0515
740.00,0.0522
739.00,0.0529
738.00,0.0538
737.00,0.0548
736.00,0.0557
735.00,0.0566
734.00,0.0574
733.00,0.0579
732.00,0.0581
731.00,0.0579
730.00,0.0575
729.00,0.0568
728.00,0.0558
727.00,0.0547
726.00,0.0536
725.00,0.0525
724.00,0.0513
723.00,0.0502
722.00,0.0492
721.00,0.0484
720.00,0.0476
719.00,0.0470
718.00,0.0467
717.00,0.0464
716.00,0.0461
715.00,0.0458
714.00,0.0458
713.00,0.0457
712.00,0.0456
711.00,0.0455
710.00,0.0456
709.00,0.0456
708.00,0.0455
707.00,0.0454
706.00,0.0455
705.00,0.0455
704.00,0.0454
703.00,0.0454
702.00,0.0455
701.00,0.0456
700.00,0.0458
699.00,0.0460
698.00,0.0463
697.00,0.0465
696.00,0.0467
695.00,0.0470
694.00,0.0474
693.00,0.0478
692.00,0.0482
691.00,0.0486
690.00,0.0492
689.00,0.0498
688.00,0.0504
687.00,0.0511
686.00,0.0519
685.00,0.0528
684.00,0.0538
683.00,0.0548
682.00,0.0559
681.00,0.0570
680.00,0.0580
679.00,0.0589
678.00,0.0599
677.00,0.0608
676.00,0.0615
675.00,0.0620
674.00,0.0625
673.00,0.0629
672.00,0.0632
671.00,0.0633
670.00,0.0637
669.00,0.0644
668.00,0.0655
667.00,0.0665
666.00,0.0670
665.00,0.0671
664.00,0.0672
663.00,0.0674
662.00,0.0678
661.00,0.0683
660.00,0.0689
659.00,0.0696
658.00,0.0705
657.00,0.0715
656.00,0.0724
655.00,0.0733
654.00,0.0742
653.00,0.0751
652.00,0.0757
651.00,0.0762
650.00,0.0765
649.00,0.0765
648.00,0.0761
647.00,0.0754
646.00,0.0746
645.00,0.0735
644.00,0.0722
643.00,0.0707
642.00,0.0694
641.00,0.0679
640.00,0.0664
639.00,0.0648
638.00,0.0634
637.00,0.0619
636.00,0.0604
635.00,0.0591
634.00,0.0580
633.00,0.0570
632.00,0.0558
631.00,0.0548
630.00,0.0540
629.00,0.0532
628.00,0.0524
627.00,0.0517
626.00,0.0513
625.00,0.0509
624.00,0.0504
623.00,0.0502
622.00,0.0501
621.00,0.0501
620.00,0.0501
619.00,0.0502
618.00,0.0507
617.00,0.0513
616.00,0.0519
615.00,0.0525
614.00,0.0533
613.00,0.0541
612.00,0.0546
611.00,0.0552
610.00,0.0559
609.00,0.0564
608.00,0.0568
607.00,0.0571
606.00,0.0576
605.00,0.0581
604.00,0.0586
603.00,0.0590
602.00,0.0596
601.00,0.0602
600.00,0.0605
599.00,0.0608
598.00,0.0612
597.00,0.0615
596.00,0.0616
595.00,0.0616
594.00,0.0618
593.00,0.0617
592.00,0.0615
591.00,0.0612
590.00,0.0612
589.00,0.0614
588.00,0.0617
587.00,0.0623
586.00,0.0634
585.00,0.0647
584.00,0.0660
583.00,0.0675
582.00,0.0693
581.00,0.0709
580.00,0.0720
579.00,0.0726
578.00,0.0728
577.00,0.0724
576.00,0.0714
575.00,0.0702
574.00,0.0691
573.00,0.0680
572.00,0.0667
571.00,0.0654
570.00,0.0645
569.00,0.0635
568.00,0.0625
567.00,0.0616
566.00,0.0611
565.00,0.0607
564.00,0.0603
563.00,0.0601
562.00,0.0603
561.00,0.0608
560.00,0.0613
559.00,0.0624
558.00,0.0641
557.00,0.0663
556.00,0.0686
555.00,0.0711
554.00,0.0738
553.00,0.0759
552.00,0.0771
551.00,0.0774
550.00,0.0771
549.00,0.0761
548.00,0.0747
547.00,0.0733
546.00,0.0721
545.00,0.0709
544.00,0.0696
543.00,0.0686
542.00,0.0681
541.00,0.0679
540.00,0.0680
539.00,0.0686
538.00,0.0698
537.00,0.0710
536.00,0.0720
535.00,0.0730
534.00,0.0739
533.00,0.0745
532.00,0.0743
531.00,0.0739
530.00,0.0740
529.00,0.0745
528.00,0.0755
527.00,0.0772
526.00,0.0794
525.00,0.0810
524.00,0.0812
523.00,0.0802
522.00,0.0783
521.00,0.0756
520.00,0.0723
519.00,0.0692
518.00,0.0668
517.00,0.0647
516.00,0.0628
515.00,0.0614
514.00,0.0606
513.00,0.0600
512.00,0.0593
511.00,0.0588
510.00,0.0586
509.00,0.0584
508.00,0.0581
507.00,0.0581
506.00,0.0586
505.00,0.0590
504.00,0.0592
503.00,0.0595
502.00,0.0601
501.00,0.0607
500.00,0.0609
499.00,0.0613
498.00,0.0621
497.00,0.0629
496.00,0.0633
495.00,0.0637
494.00,0.0645
493.00,0.0653
492.00,0.0660
491.00,0.0667
490.00,0.0676
489.00,0.0683
488.00,0.0686
487.00,0.0692
486.00,0.0704
485.00,0.0714
484.00,0.0717
483.00,0.0717
482.00,0.0720
481.00,0.0721
480.00,0.0717
479.00,0.0714
478.00,0.0715
477.00,0.0716
476.00,0.0713
475.00,0.0714
474.00,0.0722
473.00,0.0732
472.00,0.0736
471.00,0.0738
470.00,0.0742
469.00,0.0745
468.00,0.0744
467.00,0.0744
466.00,0.0745
465.00,0.0743
464.00,0.0734
463.00,0.0725
462.00,0.0722
461.00,0.0717
460.00,0.0707
459.00,0.0700
458.00,0.0700
457.00,0.0697
456.00,0.0686
455.00,0.0674
454.00,0.0670
453.00,0.0666
452.00,0.0657
451.00,0.0649
450.00,0.0648
449.00,0.0649
448.00,0.0647
447.00,0.0647
446.00,0.0654
445.00,0.0659
444.00,0.0658
443.00,0.0657
442.00,0.0659
441.00,0.0657
440.00,0.0649
439.00,0.0644
438.00,0.0648
437.00,0.0650
436.00,0.0644
435.00,0.0639
434.00,0.0640
433.00,0.0641
432.00,0.0635
431.00,0.0632
430.00,0.0639
429.00,0.0646
428.00,0.0644
427.00,0.0641
426.00,0.0648
425.00,0.0656
424.00,0.0659
423.00,0.0662
422.00,0.0673
421.00,0.0681
420.00,0.0678
419.00,0.0678
418.00,0.0684
417.00,0.0676
416.00,0.0651
415.00,0.0629
414.00,0.0620
413.00,0.0612
412.00,0.0596
411.00,0.0587
410.00,0.0596
409.00,0.0607
408.00,0.0603
407.00,0.0596
406.00,0.0602
405.00,0.0605
404.00,0.0593
403.00,0.0586
402.00,0.0599
401.00,0.0610
400.00,0.0605
