Created as New Dataset,Sample 331 By YargerLab Date Monday, August 19 2024
cm-1,A
4000.00,0.0095
3999.00,0.0095
3998.00,0.0095
3997.00,0.0094
3996.00,0.0094
3995.00,0.0094
3994.00,0.0095
3993.00,0.0095
3992.00,0.0095
3991.00,0.0095
3990.00,0.0095
3989.00,0.0095
3988.00,0.0095
3987.00,0.0095
3986.00,0.0095
3985.00,0.0095
3984.00,0.0095
3983.00,0.0095
3982.00,0.0095
3981.00,0.0095
3980.00,0.0095
3979.00,0.0095
3978.00,0.0095
3977.00,0.0095
3976.00,0.0095
3975.00,0.0095
3974.00,0.0095
3973.00,0.0094
3972.00,0.0094
3971.00,0.0094
3970.00,0.0094
3969.00,0.0094
3968.00,0.0094
3967.00,0.0094
3966.00,0.0094
3965.00,0.0094
3964.00,0.0094
3963.00,0.0094
3962.00,0.0094
3961.00,0.0094
3960.00,0.0094
3959.00,0.0094
3958.00,0.0094
3957.00,0.0094
3956.00,0.0094
3955.00,0.0094
3954.00,0.0094
3953.00,0.0094
3952.00,0.0094
3951.00,0.0094
3950.00,0.0094
3949.00,0.0094
3948.00,0.0094
3947.00,0.0094
3946.00,0.0094
3945.00,0.0094
3944.00,0.0094
3943.00,0.0094
3942.00,0.0094
3941.00,0.0093
3940.00,0.0093
3939.00,0.0093
3938.00,0.0094
3937.00,0.0094
3936.00,0.0094
3935.00,0.0094
3934.00,0.0094
3933.00,0.0094
3932.00,0.0093
3931.00,0.0093
3930.00,0.0093
3929.00,0.0093
3928.00,0.0093
3927.00,0.0093
3926.00,0.0093
3925.00,0.0093
3924.00,0.0093
3923.00,0.0093
3922.00,0.0093
3921.00,0.0093
3920.00,0.0093
3919.00,0.0093
3918.00,0.0093
3917.00,0.0093
3916.00,0.0093
3915.00,0.0093
3914.00,0.0093
3913.00,0.0093
3912.00,0.0093
3911.00,0.0093
3910.00,0.0093
3909.00,0.0093
3908.00,0.0093
3907.00,0.0093
3906.00,0.0093
3905.00,0.0092
3904.00,0.0092
3903.00,0.0092
3902.00,0.0091
3901.00,0.0091
3900.00,0.0091
3899.00,0.0091
3898.00,0.0091
3897.00,0.0092
3896.00,0.0092
3895.00,0.0092
3894.00,0.0092
3893.00,0.0092
3892.00,0.0092
3891.00,0.0092
3890.00,0.0092
3889.00,0.0092
3888.00,0.0091
3887.00,0.0091
3886.00,0.0092
3885.00,0.0092
3884.00,0.0092
3883.00,0.0091
3882.00,0.0091
3881.00,0.0091
3880.00,0.0091
3879.00,0.0092
3878.00,0.0092
3877.00,0.0092
3876.00,0.0091
3875.00,0.0091
3874.00,0.0091
3873.00,0.0091
3872.00,0.0090
3871.00,0.0090
3870.00,0.0090
3869.00,0.0091
3868.00,0.0090
3867.00,0.0090
3866.00,0.0090
3865.00,0.0090
3864.00,0.0090
3863.00,0.0090
3862.00,0.0090
3861.00,0.0090
3860.00,0.0090
3859.00,0.0091
3858.00,0.0091
3857.00,0.0091
3856.00,0.0090
3855.00,0.0090
3854.00,0.0090
3853.00,0.0089
3852.00,0.0089
3851.00,0.0089
3850.00,0.0089
3849.00,0.0089
3848.00,0.0090
3847.00,0.0090
3846.00,0.0090
3845.00,0.0091
3844.00,0.0091
3843.00,0.0090
3842.00,0.0090
3841.00,0.0090
3840.00,0.0089
3839.00,0.0089
3838.00,0.0089
3837.00,0.0089
3836.00,0.0089
3835.00,0.0089
3834.00,0.0089
3833.00,0.0089
3832.00,0.0090
3831.00,0.0090
3830.00,0.0090
3829.00,0.0090
3828.00,0.0090
3827.00,0.0090
3826.00,0.0090
3825.00,0.0090
3824.00,0.0090
3823.00,0.0089
3822.00,0.0089
3821.00,0.0089
3820.00,0.0089
3819.00,0.0088
3818.00,0.0088
3817.00,0.0088
3816.00,0.0088
3815.00,0.0089
3814.00,0.0089
3813.00,0.0089
3812.00,0.0089
3811.00,0.0089
3810.00,0.0090
3809.00,0.0089
3808.00,0.0089
3807.00,0.0089
3806.00,0.0089
3805.00,0.0089
3804.00,0.0088
3803.00,0.0088
3802.00,0.0088
3801.00,0.0088
3800.00,0.0088
3799.00,0.0088
3798.00,0.0088
3797.00,0.0088
3796.00,0.0089
3795.00,0.0089
3794.00,0.0089
3793.00,0.0089
3792.00,0.0089
3791.00,0.0089
3790.00,0.0090
3789.00,0.0090
3788.00,0.0089
3787.00,0.0089
3786.00,0.0089
3785.00,0.0089
3784.00,0.0089
3783.00,0.0089
3782.00,0.0089
3781.00,0.0088
3780.00,0.0089
3779.00,0.0089
3778.00,0.0089
3777.00,0.0089
3776.00,0.0089
3775.00,0.0089
3774.00,0.0089
3773.00,0.0089
3772.00,0.0089
3771.00,0.0089
3770.00,0.0089
3769.00,0.0088
3768.00,0.0088
3767.00,0.0088
3766.00,0.0088
3765.00,0.0088
3764.00,0.0088
3763.00,0.0088
3762.00,0.0088
3761.00,0.0088
3760.00,0.0088
3759.00,0.0088
3758.00,0.0088
3757.00,0.0088
3756.00,0.0088
3755.00,0.0087
3754.00,0.0087
3753.00,0.0087
3752.00,0.0087
3751.00,0.0086
3750.00,0.0086
3749.00,0.0085
3748.00,0.0085
3747.00,0.0085
3746.00,0.0084
3745.00,0.0085
3744.00,0.0086
3743.00,0.0086
3742.00,0.0086
3741.00,0.0086
3740.00,0.0086
3739.00,0.0086
3738.00,0.0086
3737.00,0.0085
3736.00,0.0085
3735.00,0.0085
3734.00,0.0085
3733.00,0.0085
3732.00,0.0085
3731.00,0.0085
3730.00,0.0085
3729.00,0.0085
3728.00,0.0085
3727.00,0.0086
3726.00,0.0086
3725.00,0.0086
3724.00,0.0085
3723.00,0.0085
3722.00,0.0085
3721.00,0.0085
3720.00,0.0085
3719.00,0.0085
3718.00,0.0085
3717.00,0.0086
3716.00,0.0086
3715.00,0.0085
3714.00,0.0085
3713.00,0.0085
3712.00,0.0085
3711.00,0.0084
3710.00,0.0084
3709.00,0.0084
3708.00,0.0084
3707.00,0.0084
3706.00,0.0085
3705.00,0.0085
3704.00,0.0085
3703.00,0.0085
3702.00,0.0085
3701.00,0.0085
3700.00,0.0085
3699.00,0.0085
3698.00,0.0085
3697.00,0.0085
3696.00,0.0085
3695.00,0.0085
3694.00,0.0085
3693.00,0.0085
3692.00,0.0085
3691.00,0.0084
3690.00,0.0084
3689.00,0.0084
3688.00,0.0084
3687.00,0.0084
3686.00,0.0084
3685.00,0.0085
3684.00,0.0085
3683.00,0.0085
3682.00,0.0085
3681.00,0.0085
3680.00,0.0086
3679.00,0.0085
3678.00,0.0085
3677.00,0.0085
3676.00,0.0085
3675.00,0.0085
3674.00,0.0085
3673.00,0.0085
3672.00,0.0084
3671.00,0.0085
3670.00,0.0085
3669.00,0.0086
3668.00,0.0086
3667.00,0.0086
3666.00,0.0087
3665.00,0.0087
3664.00,0.0088
3663.00,0.0089
3662.00,0.0089
3661.00,0.0090
3660.00,0.0090
3659.00,0.0090
3658.00,0.0090
3657.00,0.0090
3656.00,0.0090
3655.00,0.0090
3654.00,0.0090
3653.00,0.0090
3652.00,0.0090
3651.00,0.0090
3650.00,0.0090
3649.00,0.0090
3648.00,0.0091
3647.00,0.0091
3646.00,0.0091
3645.00,0.0092
3644.00,0.0093
3643.00,0.0093
3642.00,0.0094
3641.00,0.0095
3640.00,0.0095
3639.00,0.0096
3638.00,0.0096
3637.00,0.0096
3636.00,0.0097
3635.00,0.0097
3634.00,0.0097
3633.00,0.0098
3632.00,0.0097
3631.00,0.0097
3630.00,0.0097
3629.00,0.0098
3628.00,0.0098
3627.00,0.0099
3626.00,0.0099
3625.00,0.0100
3624.00,0.0100
3623.00,0.0101
3622.00,0.0102
3621.00,0.0102
3620.00,0.0103
3619.00,0.0103
3618.00,0.0104
3617.00,0.0104
3616.00,0.0104
3615.00,0.0105
3614.00,0.0105
3613.00,0.0106
3612.00,0.0107
3611.00,0.0107
3610.00,0.0107
3609.00,0.0108
3608.00,0.0109
3607.00,0.0109
3606.00,0.0110
3605.00,0.0111
3604.00,0.0111
3603.00,0.0112
3602.00,0.0112
3601.00,0.0113
3600.00,0.0113
3599.00,0.0114
3598.00,0.0114
3597.00,0.0115
3596.00,0.0115
3595.00,0.0116
3594.00,0.0116
3593.00,0.0117
3592.00,0.0117
3591.00,0.0118
3590.00,0.0118
3589.00,0.0119
3588.00,0.0119
3587.00,0.0120
3586.00,0.0121
3585.00,0.0122
3584.00,0.0122
3583.00,0.0123
3582.00,0.0124
3581.00,0.0124
3580.00,0.0125
3579.00,0.0126
3578.00,0.0126
3577.00,0.0127
3576.00,0.0127
3575.00,0.0128
3574.00,0.0129
3573.00,0.0129
3572.00,0.0130
3571.00,0.0131
3570.00,0.0131
3569.00,0.0131
3568.00,0.0132
3567.00,0.0132
3566.00,0.0133
3565.00,0.0134
3564.00,0.0134
3563.00,0.0135
3562.00,0.0136
3561.00,0.0137
3560.00,0.0138
3559.00,0.0139
3558.00,0.0139
3557.00,0.0140
3556.00,0.0141
3555.00,0.0141
3554.00,0.0142
3553.00,0.0143
3552.00,0.0143
3551.00,0.0144
3550.00,0.0145
3549.00,0.0146
3548.00,0.0147
3547.00,0.0147
3546.00,0.0148
3545.00,0.0149
3544.00,0.0149
3543.00,0.0150
3542.00,0.0151
3541.00,0.0151
3540.00,0.0152
3539.00,0.0153
3538.00,0.0153
3537.00,0.0154
3536.00,0.0155
3535.00,0.0155
3534.00,0.0156
3533.00,0.0157
3532.00,0.0157
3531.00,0.0158
3530.00,0.0159
3529.00,0.0159
3528.00,0.0160
3527.00,0.0160
3526.00,0.0161
3525.00,0.0162
3524.00,0.0162
3523.00,0.0163
3522.00,0.0164
3521.00,0.0165
3520.00,0.0165
3519.00,0.0166
3518.00,0.0167
3517.00,0.0168
3516.00,0.0169
3515.00,0.0169
3514.00,0.0170
3513.00,0.0170
3512.00,0.0171
3511.00,0.0172
3510.00,0.0172
3509.00,0.0173
3508.00,0.0173
3507.00,0.0174
3506.00,0.0175
3505.00,0.0176
3504.00,0.0177
3503.00,0.0177
3502.00,0.0178
3501.00,0.0179
3500.00,0.0179
3499.00,0.0180
3498.00,0.0181
3497.00,0.0181
3496.00,0.0182
3495.00,0.0183
3494.00,0.0184
3493.00,0.0184
3492.00,0.0185
3491.00,0.0186
3490.00,0.0187
3489.00,0.0188
3488.00,0.0188
3487.00,0.0189
3486.00,0.0190
3485.00,0.0190
3484.00,0.0191
3483.00,0.0192
3482.00,0.0193
3481.00,0.0193
3480.00,0.0194
3479.00,0.0194
3478.00,0.0195
3477.00,0.0196
3476.00,0.0197
3475.00,0.0197
3474.00,0.0198
3473.00,0.0199
3472.00,0.0200
3471.00,0.0201
3470.00,0.0201
3469.00,0.0202
3468.00,0.0203
3467.00,0.0203
3466.00,0.0204
3465.00,0.0204
3464.00,0.0205
3463.00,0.0206
3462.00,0.0206
3461.00,0.0207
3460.00,0.0208
3459.00,0.0209
3458.00,0.0209
3457.00,0.0210
3456.00,0.0211
3455.00,0.0211
3454.00,0.0212
3453.00,0.0213
3452.00,0.0213
3451.00,0.0214
3450.00,0.0215
3449.00,0.0215
3448.00,0.0216
3447.00,0.0217
3446.00,0.0217
3445.00,0.0218
3444.00,0.0218
3443.00,0.0219
3442.00,0.0220
3441.00,0.0221
3440.00,0.0222
3439.00,0.0223
3438.00,0.0223
3437.00,0.0224
3436.00,0.0225
3435.00,0.0226
3434.00,0.0226
3433.00,0.0227
3432.00,0.0228
3431.00,0.0228
3430.00,0.0229
3429.00,0.0230
3428.00,0.0230
3427.00,0.0231
3426.00,0.0232
3425.00,0.0232
3424.00,0.0233
3423.00,0.0234
3422.00,0.0234
3421.00,0.0235
3420.00,0.0236
3419.00,0.0237
3418.00,0.0237
3417.00,0.0238
3416.00,0.0239
3415.00,0.0239
3414.00,0.0240
3413.00,0.0241
3412.00,0.0242
3411.00,0.0242
3410.00,0.0243
3409.00,0.0244
3408.00,0.0244
3407.00,0.0245
3406.00,0.0246
3405.00,0.0246
3404.00,0.0247
3403.00,0.0248
3402.00,0.0249
3401.00,0.0249
3400.00,0.0250
3399.00,0.0250
3398.00,0.0251
3397.00,0.0251
3396.00,0.0252
3395.00,0.0253
3394.00,0.0253
3393.00,0.0254
3392.00,0.0255
3391.00,0.0255
3390.00,0.0256
3389.00,0.0257
3388.00,0.0257
3387.00,0.0258
3386.00,0.0259
3385.00,0.0259
3384.00,0.0260
3383.00,0.0261
3382.00,0.0261
3381.00,0.0262
3380.00,0.0263
3379.00,0.0263
3378.00,0.0264
3377.00,0.0265
3376.00,0.0266
3375.00,0.0267
3374.00,0.0267
3373.00,0.0268
3372.00,0.0269
3371.00,0.0270
3370.00,0.0270
3369.00,0.0271
3368.00,0.0272
3367.00,0.0273
3366.00,0.0274
3365.00,0.0275
3364.00,0.0276
3363.00,0.0277
3362.00,0.0278
3361.00,0.0278
3360.00,0.0279
3359.00,0.0280
3358.00,0.0281
3357.00,0.0282
3356.00,0.0283
3355.00,0.0284
3354.00,0.0285
3353.00,0.0286
3352.00,0.0286
3351.00,0.0287
3350.00,0.0288
3349.00,0.0289
3348.00,0.0290
3347.00,0.0291
3346.00,0.0292
3345.00,0.0293
3344.00,0.0294
3343.00,0.0295
3342.00,0.0296
3341.00,0.0298
3340.00,0.0299
3339.00,0.0300
3338.00,0.0301
3337.00,0.0302
3336.00,0.0303
3335.00,0.0305
3334.00,0.0306
3333.00,0.0307
3332.00,0.0308
3331.00,0.0310
3330.00,0.0311
3329.00,0.0312
3328.00,0.0313
3327.00,0.0315
3326.00,0.0316
3325.00,0.0317
3324.00,0.0319
3323.00,0.0320
3322.00,0.0322
3321.00,0.0323
3320.00,0.0325
3319.00,0.0326
3318.00,0.0328
3317.00,0.0329
3316.00,0.0331
3315.00,0.0332
3314.00,0.0334
3313.00,0.0335
3312.00,0.0337
3311.00,0.0338
3310.00,0.0339
3309.00,0.0341
3308.00,0.0342
3307.00,0.0344
3306.00,0.0345
3305.00,0.0347
3304.00,0.0349
3303.00,0.0351
3302.00,0.0353
3301.00,0.0355
3300.00,0.0356
3299.00,0.0358
3298.00,0.0359
3297.00,0.0360
3296.00,0.0362
3295.00,0.0363
3294.00,0.0365
3293.00,0.0366
3292.00,0.0368
3291.00,0.0369
3290.00,0.0371
3289.00,0.0372
3288.00,0.0374
3287.00,0.0375
3286.00,0.0376
3285.00,0.0377
3284.00,0.0378
3283.00,0.0379
3282.00,0.0380
3281.00,0.0381
3280.00,0.0382
3279.00,0.0382
3278.00,0.0382
3277.00,0.0383
3276.00,0.0383
3275.00,0.0382
3274.00,0.0382
3273.00,0.0382
3272.00,0.0382
3271.00,0.0381
3270.00,0.0381
3269.00,0.0381
3268.00,0.0381
3267.00,0.0380
3266.00,0.0379
3265.00,0.0379
3264.00,0.0378
3263.00,0.0377
3262.00,0.0376
3261.00,0.0374
3260.00,0.0373
3259.00,0.0372
3258.00,0.0370
3257.00,0.0369
3256.00,0.0368
3255.00,0.0367
3254.00,0.0365
3253.00,0.0364
3252.00,0.0363
3251.00,0.0361
3250.00,0.0360
3249.00,0.0358
3248.00,0.0357
3247.00,0.0356
3246.00,0.0355
3245.00,0.0354
3244.00,0.0353
3243.00,0.0352
3242.00,0.0350
3241.00,0.0349
3240.00,0.0348
3239.00,0.0347
3238.00,0.0345
3237.00,0.0344
3236.00,0.0343
3235.00,0.0342
3234.00,0.0341
3233.00,0.0340
3232.00,0.0339
3231.00,0.0338
3230.00,0.0338
3229.00,0.0337
3228.00,0.0336
3227.00,0.0335
3226.00,0.0334
3225.00,0.0334
3224.00,0.0333
3223.00,0.0332
3222.00,0.0331
3221.00,0.0331
3220.00,0.0330
3219.00,0.0329
3218.00,0.0328
3217.00,0.0327
3216.00,0.0326
3215.00,0.0326
3214.00,0.0325
3213.00,0.0324
3212.00,0.0324
3211.00,0.0323
3210.00,0.0322
3209.00,0.0322
3208.00,0.0321
3207.00,0.0320
3206.00,0.0319
3205.00,0.0318
3204.00,0.0318
3203.00,0.0317
3202.00,0.0316
3201.00,0.0316
3200.00,0.0315
3199.00,0.0314
3198.00,0.0314
3197.00,0.0313
3196.00,0.0312
3195.00,0.0311
3194.00,0.0310
3193.00,0.0309
3192.00,0.0308
3191.00,0.0308
3190.00,0.0307
3189.00,0.0306
3188.00,0.0305
3187.00,0.0304
3186.00,0.0303
3185.00,0.0302
3184.00,0.0301
3183.00,0.0300
3182.00,0.0299
3181.00,0.0298
3180.00,0.0298
3179.00,0.0297
3178.00,0.0296
3177.00,0.0295
3176.00,0.0294
3175.00,0.0293
3174.00,0.0292
3173.00,0.0291
3172.00,0.0290
3171.00,0.0289
3170.00,0.0288
3169.00,0.0287
3168.00,0.0286
3167.00,0.0285
3166.00,0.0284
3165.00,0.0283
3164.00,0.0282
3163.00,0.0281
3162.00,0.0280
3161.00,0.0279
3160.00,0.0278
3159.00,0.0277
3158.00,0.0276
3157.00,0.0276
3156.00,0.0275
3155.00,0.0274
3154.00,0.0273
3153.00,0.0272
3152.00,0.0271
3151.00,0.0270
3150.00,0.0269
3149.00,0.0268
3148.00,0.0268
3147.00,0.0267
3146.00,0.0266
3145.00,0.0265
3144.00,0.0265
3143.00,0.0264
3142.00,0.0263
3141.00,0.0262
3140.00,0.0261
3139.00,0.0260
3138.00,0.0260
3137.00,0.0259
3136.00,0.0258
3135.00,0.0258
3134.00,0.0257
3133.00,0.0256
3132.00,0.0256
3131.00,0.0255
3130.00,0.0254
3129.00,0.0254
3128.00,0.0253
3127.00,0.0253
3126.00,0.0252
3125.00,0.0252
3124.00,0.0251
3123.00,0.0251
3122.00,0.0250
3121.00,0.0249
3120.00,0.0249
3119.00,0.0248
3118.00,0.0248
3117.00,0.0248
3116.00,0.0247
3115.00,0.0247
3114.00,0.0247
3113.00,0.0247
3112.00,0.0247
3111.00,0.0247
3110.00,0.0247
3109.00,0.0247
3108.00,0.0246
3107.00,0.0246
3106.00,0.0246
3105.00,0.0246
3104.00,0.0246
3103.00,0.0246
3102.00,0.0246
3101.00,0.0246
3100.00,0.0246
3099.00,0.0246
3098.00,0.0247
3097.00,0.0247
3096.00,0.0247
3095.00,0.0247
3094.00,0.0247
3093.00,0.0247
3092.00,0.0247
3091.00,0.0247
3090.00,0.0247
3089.00,0.0247
3088.00,0.0247
3087.00,0.0247
3086.00,0.0247
3085.00,0.0247
3084.00,0.0247
3083.00,0.0247
3082.00,0.0247
3081.00,0.0247
3080.00,0.0247
3079.00,0.0247
3078.00,0.0247
3077.00,0.0248
3076.00,0.0248
3075.00,0.0248
3074.00,0.0248
3073.00,0.0248
3072.00,0.0248
3071.00,0.0248
3070.00,0.0248
3069.00,0.0248
3068.00,0.0247
3067.00,0.0247
3066.00,0.0247
3065.00,0.0247
3064.00,0.0247
3063.00,0.0247
3062.00,0.0246
3061.00,0.0246
3060.00,0.0246
3059.00,0.0245
3058.00,0.0245
3057.00,0.0244
3056.00,0.0244
3055.00,0.0243
3054.00,0.0242
3053.00,0.0242
3052.00,0.0241
3051.00,0.0240
3050.00,0.0240
3049.00,0.0239
3048.00,0.0239
3047.00,0.0238
3046.00,0.0237
3045.00,0.0236
3044.00,0.0235
3043.00,0.0235
3042.00,0.0234
3041.00,0.0234
3040.00,0.0233
3039.00,0.0233
3038.00,0.0232
3037.00,0.0231
3036.00,0.0231
3035.00,0.0230
3034.00,0.0229
3033.00,0.0229
3032.00,0.0228
3031.00,0.0228
3030.00,0.0227
3029.00,0.0227
3028.00,0.0226
3027.00,0.0225
3026.00,0.0225
3025.00,0.0224
3024.00,0.0223
3023.00,0.0222
3022.00,0.0222
3021.00,0.0221
3020.00,0.0220
3019.00,0.0219
3018.00,0.0218
3017.00,0.0218
3016.00,0.0217
3015.00,0.0217
3014.00,0.0216
3013.00,0.0216
3012.00,0.0215
3011.00,0.0215
3010.00,0.0215
3009.00,0.0214
3008.00,0.0214
3007.00,0.0214
3006.00,0.0214
3005.00,0.0213
3004.00,0.0213
3003.00,0.0213
3002.00,0.0213
3001.00,0.0213
3000.00,0.0212
2999.00,0.0212
2998.00,0.0212
2997.00,0.0212
2996.00,0.0212
2995.00,0.0212
2994.00,0.0213
2993.00,0.0213
2992.00,0.0214
2991.00,0.0214
2990.00,0.0215
2989.00,0.0216
2988.00,0.0216
2987.00,0.0217
2986.00,0.0218
2985.00,0.0219
2984.00,0.0220
2983.00,0.0221
2982.00,0.0222
2981.00,0.0223
2980.00,0.0225
2979.00,0.0226
2978.00,0.0227
2977.00,0.0228
2976.00,0.0229
2975.00,0.0231
2974.00,0.0232
2973.00,0.0233
2972.00,0.0235
2971.00,0.0236
2970.00,0.0237
2969.00,0.0239
2968.00,0.0240
2967.00,0.0241
2966.00,0.0242
2965.00,0.0242
2964.00,0.0243
2963.00,0.0244
2962.00,0.0244
2961.00,0.0244
2960.00,0.0244
2959.00,0.0244
2958.00,0.0244
2957.00,0.0244
2956.00,0.0244
2955.00,0.0244
2954.00,0.0244
2953.00,0.0244
2952.00,0.0244
2951.00,0.0244
2950.00,0.0244
2949.00,0.0244
2948.00,0.0245
2947.00,0.0245
2946.00,0.0246
2945.00,0.0247
2944.00,0.0248
2943.00,0.0249
2942.00,0.0250
2941.00,0.0252
2940.00,0.0253
2939.00,0.0254
2938.00,0.0256
2937.00,0.0257
2936.00,0.0258
2935.00,0.0259
2934.00,0.0260
2933.00,0.0261
2932.00,0.0261
2931.00,0.0261
2930.00,0.0261
2929.00,0.0260
2928.00,0.0258
2927.00,0.0256
2926.00,0.0254
2925.00,0.0251
2924.00,0.0247
2923.00,0.0242
2922.00,0.0237
2921.00,0.0231
2920.00,0.0225
2919.00,0.0218
2918.00,0.0212
2917.00,0.0208
2916.00,0.0206
2915.00,0.0206
2914.00,0.0209
2913.00,0.0213
2912.00,0.0218
2911.00,0.0221
2910.00,0.0223
2909.00,0.0225
2908.00,0.0225
2907.00,0.0225
2906.00,0.0225
2905.00,0.0225
2904.00,0.0224
2903.00,0.0224
2902.00,0.0223
2901.00,0.0222
2900.00,0.0222
2899.00,0.0221
2898.00,0.0220
2897.00,0.0220
2896.00,0.0219
2895.00,0.0219
2894.00,0.0218
2893.00,0.0218
2892.00,0.0218
2891.00,0.0218
2890.00,0.0217
2889.00,0.0217
2888.00,0.0217
2887.00,0.0217
2886.00,0.0217
2885.00,0.0218
2884.00,0.0218
2883.00,0.0219
2882.00,0.0219
2881.00,0.0220
2880.00,0.0220
2879.00,0.0221
2878.00,0.0222
2877.00,0.0222
2876.00,0.0223
2875.00,0.0223
2874.00,0.0223
2873.00,0.0223
2872.00,0.0223
2871.00,0.0222
2870.00,0.0222
2869.00,0.0221
2868.00,0.0220
2867.00,0.0219
2866.00,0.0218
2865.00,0.0218
2864.00,0.0217
2863.00,0.0216
2862.00,0.0216
2861.00,0.0215
2860.00,0.0215
2859.00,0.0215
2858.00,0.0214
2857.00,0.0213
2856.00,0.0211
2855.00,0.0209
2854.00,0.0205
2853.00,0.0200
2852.00,0.0194
2851.00,0.0188
2850.00,0.0183
2849.00,0.0180
2848.00,0.0179
2847.00,0.0181
2846.00,0.0185
2845.00,0.0188
2844.00,0.0191
2843.00,0.0193
2842.00,0.0193
2841.00,0.0193
2840.00,0.0193
2839.00,0.0193
2838.00,0.0192
2837.00,0.0192
2836.00,0.0192
2835.00,0.0191
2834.00,0.0191
2833.00,0.0190
2832.00,0.0190
2831.00,0.0189
2830.00,0.0189
2829.00,0.0188
2828.00,0.0188
2827.00,0.0188
2826.00,0.0187
2825.00,0.0187
2824.00,0.0186
2823.00,0.0186
2822.00,0.0186
2821.00,0.0185
2820.00,0.0185
2819.00,0.0185
2818.00,0.0184
2817.00,0.0184
2816.00,0.0184
2815.00,0.0183
2814.00,0.0183
2813.00,0.0183
2812.00,0.0182
2811.00,0.0182
2810.00,0.0182
2809.00,0.0181
2808.00,0.0181
2807.00,0.0181
2806.00,0.0181
2805.00,0.0180
2804.00,0.0180
2803.00,0.0180
2802.00,0.0179
2801.00,0.0179
2800.00,0.0179
2799.00,0.0178
2798.00,0.0178
2797.00,0.0178
2796.00,0.0177
2795.00,0.0177
2794.00,0.0177
2793.00,0.0177
2792.00,0.0176
2791.00,0.0176
2790.00,0.0176
2789.00,0.0175
2788.00,0.0175
2787.00,0.0175
2786.00,0.0175
2785.00,0.0175
2784.00,0.0174
2783.00,0.0174
2782.00,0.0174
2781.00,0.0174
2780.00,0.0173
2779.00,0.0173
2778.00,0.0172
2777.00,0.0172
2776.00,0.0172
2775.00,0.0172
2774.00,0.0171
2773.00,0.0171
2772.00,0.0171
2771.00,0.0171
2770.00,0.0170
2769.00,0.0170
2768.00,0.0170
2767.00,0.0170
2766.00,0.0170
2765.00,0.0169
2764.00,0.0169
2763.00,0.0169
2762.00,0.0168
2761.00,0.0168
2760.00,0.0168
2759.00,0.0168
2758.00,0.0167
2757.00,0.0167
2756.00,0.0167
2755.00,0.0167
2754.00,0.0167
2753.00,0.0166
2752.00,0.0166
2751.00,0.0166
2750.00,0.0165
2749.00,0.0165
2748.00,0.0165
2747.00,0.0165
2746.00,0.0165
2745.00,0.0164
2744.00,0.0164
2743.00,0.0164
2742.00,0.0164
2741.00,0.0163
2740.00,0.0163
2739.00,0.0163
2738.00,0.0163
2737.00,0.0162
2736.00,0.0162
2735.00,0.0162
2734.00,0.0162
2733.00,0.0162
2732.00,0.0161
2731.00,0.0161
2730.00,0.0161
2729.00,0.0161
2728.00,0.0160
2727.00,0.0160
2726.00,0.0160
2725.00,0.0160
2724.00,0.0159
2723.00,0.0159
2722.00,0.0159
2721.00,0.0159
2720.00,0.0159
2719.00,0.0158
2718.00,0.0158
2717.00,0.0158
2716.00,0.0158
2715.00,0.0157
2714.00,0.0157
2713.00,0.0157
2712.00,0.0157
2711.00,0.0156
2710.00,0.0156
2709.00,0.0156
2708.00,0.0156
2707.00,0.0155
2706.00,0.0155
2705.00,0.0155
2704.00,0.0155
2703.00,0.0155
2702.00,0.0155
2701.00,0.0154
2700.00,0.0154
2699.00,0.0154
2698.00,0.0154
2697.00,0.0154
2696.00,0.0154
2695.00,0.0153
2694.00,0.0153
2693.00,0.0153
2692.00,0.0153
2691.00,0.0153
2690.00,0.0153
2689.00,0.0153
2688.00,0.0152
2687.00,0.0152
2686.00,0.0152
2685.00,0.0152
2684.00,0.0152
2683.00,0.0152
2682.00,0.0151
2681.00,0.0151
2680.00,0.0151
2679.00,0.0151
2678.00,0.0151
2677.00,0.0151
2676.00,0.0151
2675.00,0.0150
2674.00,0.0150
2673.00,0.0150
2672.00,0.0150
2671.00,0.0150
2670.00,0.0150
2669.00,0.0150
2668.00,0.0150
2667.00,0.0150
2666.00,0.0150
2665.00,0.0151
2664.00,0.0151
2663.00,0.0151
2662.00,0.0151
2661.00,0.0152
2660.00,0.0152
2659.00,0.0152
2658.00,0.0152
2657.00,0.0152
2656.00,0.0152
2655.00,0.0151
2654.00,0.0151
2653.00,0.0151
2652.00,0.0151
2651.00,0.0151
2650.00,0.0151
2649.00,0.0151
2648.00,0.0151
2647.00,0.0150
2646.00,0.0150
2645.00,0.0150
2644.00,0.0150
2643.00,0.0150
2642.00,0.0149
2641.00,0.0149
2640.00,0.0149
2639.00,0.0149
2638.00,0.0148
2637.00,0.0148
2636.00,0.0148
2635.00,0.0148
2634.00,0.0148
2633.00,0.0148
2632.00,0.0147
2631.00,0.0147
2630.00,0.0147
2629.00,0.0147
2628.00,0.0146
2627.00,0.0146
2626.00,0.0146
2625.00,0.0146
2624.00,0.0145
2623.00,0.0145
2622.00,0.0145
2621.00,0.0145
2620.00,0.0145
2619.00,0.0145
2618.00,0.0144
2617.00,0.0144
2616.00,0.0144
2615.00,0.0144
2614.00,0.0143
2613.00,0.0143
2612.00,0.0143
2611.00,0.0143
2610.00,0.0143
2609.00,0.0143
2608.00,0.0142
2607.00,0.0142
2606.00,0.0142
2605.00,0.0142
2604.00,0.0142
2603.00,0.0141
2602.00,0.0141
2601.00,0.0141
2600.00,0.0141
2599.00,0.0140
2598.00,0.0140
2597.00,0.0140
2596.00,0.0140
2595.00,0.0140
2594.00,0.0139
2593.00,0.0139
2592.00,0.0139
2591.00,0.0139
2590.00,0.0138
2589.00,0.0138
2588.00,0.0138
2587.00,0.0138
2586.00,0.0138
2585.00,0.0138
2584.00,0.0137
2583.00,0.0137
2582.00,0.0137
2581.00,0.0136
2580.00,0.0136
2579.00,0.0136
2578.00,0.0136
2577.00,0.0136
2576.00,0.0136
2575.00,0.0136
2574.00,0.0135
2573.00,0.0135
2572.00,0.0135
2571.00,0.0135
2570.00,0.0135
2569.00,0.0135
2568.00,0.0134
2567.00,0.0134
2566.00,0.0134
2565.00,0.0134
2564.00,0.0134
2563.00,0.0134
2562.00,0.0133
2561.00,0.0133
2560.00,0.0133
2559.00,0.0133
2558.00,0.0133
2557.00,0.0133
2556.00,0.0133
2555.00,0.0133
2554.00,0.0132
2553.00,0.0132
2552.00,0.0132
2551.00,0.0132
2550.00,0.0132
2549.00,0.0132
2548.00,0.0132
2547.00,0.0132
2546.00,0.0131
2545.00,0.0131
2544.00,0.0131
2543.00,0.0131
2542.00,0.0131
2541.00,0.0131
2540.00,0.0131
2539.00,0.0130
2538.00,0.0130
2537.00,0.0130
2536.00,0.0130
2535.00,0.0130
2534.00,0.0130
2533.00,0.0129
2532.00,0.0129
2531.00,0.0129
2530.00,0.0129
2529.00,0.0129
2528.00,0.0129
2527.00,0.0129
2526.00,0.0129
2525.00,0.0129
2524.00,0.0129
2523.00,0.0129
2522.00,0.0129
2521.00,0.0129
2520.00,0.0128
2519.00,0.0128
2518.00,0.0128
2517.00,0.0128
2516.00,0.0128
2515.00,0.0128
2514.00,0.0127
2513.00,0.0127
2512.00,0.0127
2511.00,0.0127
2510.00,0.0127
2509.00,0.0127
2508.00,0.0127
2507.00,0.0127
2506.00,0.0127
2505.00,0.0127
2504.00,0.0127
2503.00,0.0127
2502.00,0.0127
2501.00,0.0126
2500.00,0.0126
2499.00,0.0126
2498.00,0.0126
2497.00,0.0126
2496.00,0.0126
2495.00,0.0126
2494.00,0.0126
2493.00,0.0126
2492.00,0.0125
2491.00,0.0125
2490.00,0.0125
2489.00,0.0125
2488.00,0.0125
2487.00,0.0125
2486.00,0.0125
2485.00,0.0124
2484.00,0.0124
2483.00,0.0124
2482.00,0.0124
2481.00,0.0124
2480.00,0.0124
2479.00,0.0124
2478.00,0.0124
2477.00,0.0124
2476.00,0.0124
2475.00,0.0123
2474.00,0.0123
2473.00,0.0123
2472.00,0.0123
2471.00,0.0123
2470.00,0.0123
2469.00,0.0123
2468.00,0.0123
2467.00,0.0123
2466.00,0.0123
2465.00,0.0123
2464.00,0.0123
2463.00,0.0123
2462.00,0.0123
2461.00,0.0123
2460.00,0.0123
2459.00,0.0123
2458.00,0.0123
2457.00,0.0123
2456.00,0.0123
2455.00,0.0123
2454.00,0.0123
2453.00,0.0123
2452.00,0.0123
2451.00,0.0122
2450.00,0.0122
2449.00,0.0122
2448.00,0.0122
2447.00,0.0122
2446.00,0.0121
2445.00,0.0121
2444.00,0.0121
2443.00,0.0121
2442.00,0.0121
2441.00,0.0121
2440.00,0.0121
2439.00,0.0120
2438.00,0.0120
2437.00,0.0120
2436.00,0.0120
2435.00,0.0120
2434.00,0.0119
2433.00,0.0119
2432.00,0.0119
2431.00,0.0119
2430.00,0.0119
2429.00,0.0119
2428.00,0.0118
2427.00,0.0118
2426.00,0.0118
2425.00,0.0118
2424.00,0.0118
2423.00,0.0118
2422.00,0.0118
2421.00,0.0117
2420.00,0.0117
2419.00,0.0117
2418.00,0.0117
2417.00,0.0116
2416.00,0.0116
2415.00,0.0116
2414.00,0.0117
2413.00,0.0117
2412.00,0.0117
2411.00,0.0117
2410.00,0.0116
2409.00,0.0116
2408.00,0.0115
2407.00,0.0115
2406.00,0.0114
2405.00,0.0114
2404.00,0.0114
2403.00,0.0114
2402.00,0.0114
2401.00,0.0114
2400.00,0.0114
2399.00,0.0114
2398.00,0.0114
2397.00,0.0114
2396.00,0.0113
2395.00,0.0113
2394.00,0.0113
2393.00,0.0113
2392.00,0.0113
2391.00,0.0113
2390.00,0.0113
2389.00,0.0113
2388.00,0.0113
2387.00,0.0113
2386.00,0.0112
2385.00,0.0112
2384.00,0.0112
2383.00,0.0112
2382.00,0.0111
2381.00,0.0111
2380.00,0.0111
2379.00,0.0111
2378.00,0.0111
2377.00,0.0111
2376.00,0.0111
2375.00,0.0111
2374.00,0.0111
2373.00,0.0111
2372.00,0.0111
2371.00,0.0111
2370.00,0.0111
2369.00,0.0111
2368.00,0.0110
2367.00,0.0110
2366.00,0.0110
2365.00,0.0110
2364.00,0.0111
2363.00,0.0111
2362.00,0.0111
2361.00,0.0111
2360.00,0.0111
2359.00,0.0111
2358.00,0.0111
2357.00,0.0111
2356.00,0.0111
2355.00,0.0110
2354.00,0.0110
2353.00,0.0109
2352.00,0.0110
2351.00,0.0110
2350.00,0.0111
2349.00,0.0112
2348.00,0.0113
2347.00,0.0113
2346.00,0.0113
2345.00,0.0113
2344.00,0.0113
2343.00,0.0113
2342.00,0.0113
2341.00,0.0114
2340.00,0.0114
2339.00,0.0113
2338.00,0.0113
2337.00,0.0113
2336.00,0.0113
2335.00,0.0113
2334.00,0.0113
2333.00,0.0113
2332.00,0.0112
2331.00,0.0112
2330.00,0.0113
2329.00,0.0115
2328.00,0.0118
2327.00,0.0122
2326.00,0.0125
2325.00,0.0126
2324.00,0.0125
2323.00,0.0123
2322.00,0.0121
2321.00,0.0119
2320.00,0.0118
2319.00,0.0118
2318.00,0.0117
2317.00,0.0117
2316.00,0.0116
2315.00,0.0116
2314.00,0.0115
2313.00,0.0115
2312.00,0.0115
2311.00,0.0115
2310.00,0.0115
2309.00,0.0115
2308.00,0.0115
2307.00,0.0115
2306.00,0.0115
2305.00,0.0115
2304.00,0.0115
2303.00,0.0115
2302.00,0.0115
2301.00,0.0115
2300.00,0.0115
2299.00,0.0116
2298.00,0.0116
2297.00,0.0116
2296.00,0.0117
2295.00,0.0117
2294.00,0.0118
2293.00,0.0118
2292.00,0.0119
2291.00,0.0119
2290.00,0.0120
2289.00,0.0120
2288.00,0.0120
2287.00,0.0120
2286.00,0.0120
2285.00,0.0119
2284.00,0.0118
2283.00,0.0118
2282.00,0.0117
2281.00,0.0117
2280.00,0.0116
2279.00,0.0116
2278.00,0.0116
2277.00,0.0115
2276.00,0.0115
2275.00,0.0114
2274.00,0.0114
2273.00,0.0114
2272.00,0.0113
2271.00,0.0113
2270.00,0.0113
2269.00,0.0113
2268.00,0.0113
2267.00,0.0112
2266.00,0.0112
2265.00,0.0112
2264.00,0.0112
2263.00,0.0112
2262.00,0.0112
2261.00,0.0112
2260.00,0.0113
2259.00,0.0113
2258.00,0.0112
2257.00,0.0111
2256.00,0.0110
2255.00,0.0109
2254.00,0.0108
2253.00,0.0108
2252.00,0.0108
2251.00,0.0108
2250.00,0.0109
2249.00,0.0109
2248.00,0.0109
2247.00,0.0109
2246.00,0.0109
2245.00,0.0109
2244.00,0.0109
2243.00,0.0109
2242.00,0.0109
2241.00,0.0109
2240.00,0.0108
2239.00,0.0108
2238.00,0.0108
2237.00,0.0108
2236.00,0.0109
2235.00,0.0109
2234.00,0.0109
2233.00,0.0108
2232.00,0.0108
2231.00,0.0108
2230.00,0.0107
2229.00,0.0107
2228.00,0.0107
2227.00,0.0107
2226.00,0.0107
2225.00,0.0107
2224.00,0.0107
2223.00,0.0107
2222.00,0.0107
2221.00,0.0107
2220.00,0.0107
2219.00,0.0106
2218.00,0.0106
2217.00,0.0106
2216.00,0.0106
2215.00,0.0107
2214.00,0.0107
2213.00,0.0107
2212.00,0.0107
2211.00,0.0106
2210.00,0.0106
2209.00,0.0105
2208.00,0.0105
2207.00,0.0105
2206.00,0.0106
2205.00,0.0106
2204.00,0.0106
2203.00,0.0105
2202.00,0.0105
2201.00,0.0105
2200.00,0.0106
2199.00,0.0106
2198.00,0.0106
2197.00,0.0106
2196.00,0.0107
2195.00,0.0107
2194.00,0.0107
2193.00,0.0106
2192.00,0.0106
2191.00,0.0105
2190.00,0.0105
2189.00,0.0106
2188.00,0.0107
2187.00,0.0108
2186.00,0.0107
2185.00,0.0106
2184.00,0.0104
2183.00,0.0102
2182.00,0.0100
2181.00,0.0101
2180.00,0.0102
2179.00,0.0102
2178.00,0.0102
2177.00,0.0101
2176.00,0.0100
2175.00,0.0100
2174.00,0.0101
2173.00,0.0102
2172.00,0.0104
2171.00,0.0106
2170.00,0.0108
2169.00,0.0110
2168.00,0.0111
2167.00,0.0112
2166.00,0.0112
2165.00,0.0113
2164.00,0.0114
2163.00,0.0114
2162.00,0.0109
2161.00,0.0099
2160.00,0.0086
2159.00,0.0075
2158.00,0.0070
2157.00,0.0070
2156.00,0.0074
2155.00,0.0077
2154.00,0.0080
2153.00,0.0082
2152.00,0.0083
2151.00,0.0084
2150.00,0.0084
2149.00,0.0085
2148.00,0.0085
2147.00,0.0085
2146.00,0.0085
2145.00,0.0086
2144.00,0.0086
2143.00,0.0086
2142.00,0.0086
2141.00,0.0086
2140.00,0.0086
2139.00,0.0086
2138.00,0.0085
2137.00,0.0084
2136.00,0.0082
2135.00,0.0081
2134.00,0.0080
2133.00,0.0081
2132.00,0.0083
2131.00,0.0084
2130.00,0.0085
2129.00,0.0087
2128.00,0.0088
2127.00,0.0089
2126.00,0.0090
2125.00,0.0091
2124.00,0.0092
2123.00,0.0093
2122.00,0.0094
2121.00,0.0095
2120.00,0.0096
2119.00,0.0096
2118.00,0.0097
2117.00,0.0098
2116.00,0.0098
2115.00,0.0099
2114.00,0.0098
2113.00,0.0098
2112.00,0.0098
2111.00,0.0098
2110.00,0.0098
2109.00,0.0098
2108.00,0.0098
2107.00,0.0098
2106.00,0.0099
2105.00,0.0099
2104.00,0.0099
2103.00,0.0099
2102.00,0.0099
2101.00,0.0099
2100.00,0.0098
2099.00,0.0098
2098.00,0.0096
2097.00,0.0095
2096.00,0.0093
2095.00,0.0092
2094.00,0.0093
2093.00,0.0093
2092.00,0.0095
2091.00,0.0096
2090.00,0.0096
2089.00,0.0097
2088.00,0.0097
2087.00,0.0098
2086.00,0.0099
2085.00,0.0099
2084.00,0.0099
2083.00,0.0099
2082.00,0.0099
2081.00,0.0098
2080.00,0.0098
2079.00,0.0098
2078.00,0.0098
2077.00,0.0098
2076.00,0.0098
2075.00,0.0097
2074.00,0.0097
2073.00,0.0096
2072.00,0.0096
2071.00,0.0096
2070.00,0.0096
2069.00,0.0096
2068.00,0.0096
2067.00,0.0096
2066.00,0.0095
2065.00,0.0095
2064.00,0.0095
2063.00,0.0095
2062.00,0.0094
2061.00,0.0094
2060.00,0.0094
2059.00,0.0094
2058.00,0.0095
2057.00,0.0095
2056.00,0.0095
2055.00,0.0096
2054.00,0.0098
2053.00,0.0101
2052.00,0.0104
2051.00,0.0105
2050.00,0.0102
2049.00,0.0099
2048.00,0.0096
2047.00,0.0095
2046.00,0.0094
2045.00,0.0094
2044.00,0.0094
2043.00,0.0094
2042.00,0.0094
2041.00,0.0095
2040.00,0.0095
2039.00,0.0095
2038.00,0.0095
2037.00,0.0094
2036.00,0.0092
2035.00,0.0091
2034.00,0.0089
2033.00,0.0087
2032.00,0.0086
2031.00,0.0085
2030.00,0.0084
2029.00,0.0084
2028.00,0.0084
2027.00,0.0084
2026.00,0.0083
2025.00,0.0082
2024.00,0.0082
2023.00,0.0083
2022.00,0.0083
2021.00,0.0083
2020.00,0.0082
2019.00,0.0081
2018.00,0.0081
2017.00,0.0081
2016.00,0.0083
2015.00,0.0084
2014.00,0.0084
2013.00,0.0085
2012.00,0.0085
2011.00,0.0084
2010.00,0.0083
2009.00,0.0080
2008.00,0.0078
2007.00,0.0076
2006.00,0.0075
2005.00,0.0076
2004.00,0.0078
2003.00,0.0079
2002.00,0.0080
2001.00,0.0082
2000.00,0.0083
1999.00,0.0083
1998.00,0.0084
1997.00,0.0085
1996.00,0.0085
1995.00,0.0085
1994.00,0.0085
1993.00,0.0085
1992.00,0.0085
1991.00,0.0086
1990.00,0.0086
1989.00,0.0086
1988.00,0.0087
1987.00,0.0088
1986.00,0.0089
1985.00,0.0090
1984.00,0.0092
1983.00,0.0094
1982.00,0.0095
1981.00,0.0095
1980.00,0.0093
1979.00,0.0088
1978.00,0.0082
1977.00,0.0078
1976.00,0.0076
1975.00,0.0074
1974.00,0.0074
1973.00,0.0074
1972.00,0.0075
1971.00,0.0076
1970.00,0.0076
1969.00,0.0076
1968.00,0.0076
1967.00,0.0076
1966.00,0.0075
1965.00,0.0075
1964.00,0.0075
1963.00,0.0074
1962.00,0.0073
1961.00,0.0072
1960.00,0.0072
1959.00,0.0071
1958.00,0.0071
1957.00,0.0072
1956.00,0.0073
1955.00,0.0074
1954.00,0.0075
1953.00,0.0075
1952.00,0.0076
1951.00,0.0076
1950.00,0.0075
1949.00,0.0075
1948.00,0.0075
1947.00,0.0075
1946.00,0.0074
1945.00,0.0074
1944.00,0.0074
1943.00,0.0074
1942.00,0.0075
1941.00,0.0075
1940.00,0.0076
1939.00,0.0076
1938.00,0.0075
1937.00,0.0075
1936.00,0.0076
1935.00,0.0076
1934.00,0.0075
1933.00,0.0075
1932.00,0.0076
1931.00,0.0076
1930.00,0.0075
1929.00,0.0075
1928.00,0.0075
1927.00,0.0075
1926.00,0.0075
1925.00,0.0074
1924.00,0.0074
1923.00,0.0075
1922.00,0.0076
1921.00,0.0077
1920.00,0.0077
1919.00,0.0077
1918.00,0.0077
1917.00,0.0077
1916.00,0.0077
1915.00,0.0077
1914.00,0.0077
1913.00,0.0077
1912.00,0.0076
1911.00,0.0076
1910.00,0.0076
1909.00,0.0076
1908.00,0.0076
1907.00,0.0076
1906.00,0.0077
1905.00,0.0077
1904.00,0.0077
1903.00,0.0077
1902.00,0.0077
1901.00,0.0077
1900.00,0.0077
1899.00,0.0076
1898.00,0.0076
1897.00,0.0075
1896.00,0.0075
1895.00,0.0075
1894.00,0.0075
1893.00,0.0075
1892.00,0.0075
1891.00,0.0075
1890.00,0.0075
1889.00,0.0075
1888.00,0.0075
1887.00,0.0075
1886.00,0.0075
1885.00,0.0075
1884.00,0.0075
1883.00,0.0076
1882.00,0.0075
1881.00,0.0075
1880.00,0.0075
1879.00,0.0075
1878.00,0.0075
1877.00,0.0075
1876.00,0.0075
1875.00,0.0074
1874.00,0.0074
1873.00,0.0074
1872.00,0.0074
1871.00,0.0073
1870.00,0.0072
1869.00,0.0072
1868.00,0.0073
1867.00,0.0073
1866.00,0.0074
1865.00,0.0074
1864.00,0.0074
1863.00,0.0074
1862.00,0.0074
1861.00,0.0074
1860.00,0.0074
1859.00,0.0074
1858.00,0.0073
1857.00,0.0073
1856.00,0.0073
1855.00,0.0073
1854.00,0.0073
1853.00,0.0073
1852.00,0.0073
1851.00,0.0073
1850.00,0.0072
1849.00,0.0072
1848.00,0.0072
1847.00,0.0072
1846.00,0.0072
1845.00,0.0072
1844.00,0.0073
1843.00,0.0073
1842.00,0.0073
1841.00,0.0072
1840.00,0.0072
1839.00,0.0072
1838.00,0.0071
1837.00,0.0071
1836.00,0.0072
1835.00,0.0072
1834.00,0.0071
1833.00,0.0070
1832.00,0.0070
1831.00,0.0069
1830.00,0.0069
1829.00,0.0070
1828.00,0.0070
1827.00,0.0070
1826.00,0.0070
1825.00,0.0071
1824.00,0.0072
1823.00,0.0072
1822.00,0.0072
1821.00,0.0071
1820.00,0.0071
1819.00,0.0070
1818.00,0.0069
1817.00,0.0068
1816.00,0.0069
1815.00,0.0069
1814.00,0.0069
1813.00,0.0069
1812.00,0.0069
1811.00,0.0069
1810.00,0.0070
1809.00,0.0070
1808.00,0.0071
1807.00,0.0071
1806.00,0.0071
1805.00,0.0071
1804.00,0.0071
1803.00,0.0070
1802.00,0.0070
1801.00,0.0070
1800.00,0.0070
1799.00,0.0070
1798.00,0.0070
1797.00,0.0070
1796.00,0.0071
1795.00,0.0070
1794.00,0.0070
1793.00,0.0070
1792.00,0.0071
1791.00,0.0072
1790.00,0.0072
1789.00,0.0072
1788.00,0.0072
1787.00,0.0072
1786.00,0.0072
1785.00,0.0072
1784.00,0.0072
1783.00,0.0072
1782.00,0.0071
1781.00,0.0071
1780.00,0.0071
1779.00,0.0072
1778.00,0.0071
1777.00,0.0071
1776.00,0.0071
1775.00,0.0072
1774.00,0.0071
1773.00,0.0071
1772.00,0.0072
1771.00,0.0072
1770.00,0.0072
1769.00,0.0073
1768.00,0.0074
1767.00,0.0075
1766.00,0.0075
1765.00,0.0075
1764.00,0.0075
1763.00,0.0075
1762.00,0.0076
1761.00,0.0077
1760.00,0.0077
1759.00,0.0078
1758.00,0.0079
1757.00,0.0080
1756.00,0.0083
1755.00,0.0085
1754.00,0.0086
1753.00,0.0087
1752.00,0.0088
1751.00,0.0089
1750.00,0.0090
1749.00,0.0091
1748.00,0.0094
1747.00,0.0096
1746.00,0.0098
1745.00,0.0100
1744.00,0.0101
1743.00,0.0103
1742.00,0.0104
1741.00,0.0105
1740.00,0.0106
1739.00,0.0108
1738.00,0.0110
1737.00,0.0112
1736.00,0.0113
1735.00,0.0115
1734.00,0.0116
1733.00,0.0115
1732.00,0.0114
1731.00,0.0114
1730.00,0.0114
1729.00,0.0116
1728.00,0.0117
1727.00,0.0118
1726.00,0.0118
1725.00,0.0119
1724.00,0.0120
1723.00,0.0121
1722.00,0.0121
1721.00,0.0122
1720.00,0.0123
1719.00,0.0124
1718.00,0.0126
1717.00,0.0127
1716.00,0.0129
1715.00,0.0130
1714.00,0.0132
1713.00,0.0134
1712.00,0.0137
1711.00,0.0139
1710.00,0.0142
1709.00,0.0145
1708.00,0.0148
1707.00,0.0152
1706.00,0.0159
1705.00,0.0167
1704.00,0.0177
1703.00,0.0186
1702.00,0.0195
1701.00,0.0209
1700.00,0.0229
1699.00,0.0245
1698.00,0.0256
1697.00,0.0268
1696.00,0.0283
1695.00,0.0295
1694.00,0.0303
1693.00,0.0309
1692.00,0.0316
1691.00,0.0325
1690.00,0.0334
1689.00,0.0345
1688.00,0.0356
1687.00,0.0365
1686.00,0.0374
1685.00,0.0385
1684.00,0.0401
1683.00,0.0415
1682.00,0.0424
1681.00,0.0434
1680.00,0.0445
1679.00,0.0457
1678.00,0.0467
1677.00,0.0478
1676.00,0.0492
1675.00,0.0506
1674.00,0.0518
1673.00,0.0528
1672.00,0.0538
1671.00,0.0549
1670.00,0.0564
1669.00,0.0580
1668.00,0.0596
1667.00,0.0608
1666.00,0.0618
1665.00,0.0629
1664.00,0.0642
1663.00,0.0656
1662.00,0.0671
1661.00,0.0685
1660.00,0.0697
1659.00,0.0708
1658.00,0.0719
1657.00,0.0729
1656.00,0.0739
1655.00,0.0749
1654.00,0.0761
1653.00,0.0776
1652.00,0.0785
1651.00,0.0786
1650.00,0.0786
1649.00,0.0788
1648.00,0.0795
1647.00,0.0803
1646.00,0.0811
1645.00,0.0816
1644.00,0.0819
1643.00,0.0823
1642.00,0.0826
1641.00,0.0830
1640.00,0.0833
1639.00,0.0837
1638.00,0.0840
1637.00,0.0844
1636.00,0.0850
1635.00,0.0855
1634.00,0.0859
1633.00,0.0861
1632.00,0.0864
1631.00,0.0866
1630.00,0.0868
1629.00,0.0869
1628.00,0.0870
1627.00,0.0872
1626.00,0.0872
1625.00,0.0871
1624.00,0.0870
1623.00,0.0868
1622.00,0.0865
1621.00,0.0862
1620.00,0.0859
1619.00,0.0855
1618.00,0.0848
1617.00,0.0836
1616.00,0.0821
1615.00,0.0805
1614.00,0.0791
1613.00,0.0777
1612.00,0.0761
1611.00,0.0744
1610.00,0.0726
1609.00,0.0707
1608.00,0.0689
1607.00,0.0671
1606.00,0.0654
1605.00,0.0639
1604.00,0.0623
1603.00,0.0608
1602.00,0.0594
1601.00,0.0582
1600.00,0.0570
1599.00,0.0559
1598.00,0.0549
1597.00,0.0540
1596.00,0.0531
1595.00,0.0523
1594.00,0.0516
1593.00,0.0509
1592.00,0.0502
1591.00,0.0496
1590.00,0.0491
1589.00,0.0487
1588.00,0.0482
1587.00,0.0479
1586.00,0.0476
1585.00,0.0474
1584.00,0.0472
1583.00,0.0471
1582.00,0.0470
1581.00,0.0470
1580.00,0.0471
1579.00,0.0472
1578.00,0.0474
1577.00,0.0477
1576.00,0.0481
1575.00,0.0483
1574.00,0.0484
1573.00,0.0486
1572.00,0.0488
1571.00,0.0491
1570.00,0.0497
1569.00,0.0505
1568.00,0.0511
1567.00,0.0516
1566.00,0.0522
1565.00,0.0530
1564.00,0.0538
1563.00,0.0547
1562.00,0.0554
1561.00,0.0559
1560.00,0.0565
1559.00,0.0580
1558.00,0.0596
1557.00,0.0606
1556.00,0.0613
1555.00,0.0621
1554.00,0.0631
1553.00,0.0640
1552.00,0.0648
1551.00,0.0657
1550.00,0.0667
1549.00,0.0677
1548.00,0.0685
1547.00,0.0691
1546.00,0.0698
1545.00,0.0704
1544.00,0.0711
1543.00,0.0717
1542.00,0.0723
1541.00,0.0731
1540.00,0.0740
1539.00,0.0748
1538.00,0.0751
1537.00,0.0752
1536.00,0.0753
1535.00,0.0754
1534.00,0.0757
1533.00,0.0762
1532.00,0.0766
1531.00,0.0768
1530.00,0.0770
1529.00,0.0771
1528.00,0.0773
1527.00,0.0774
1526.00,0.0776
1525.00,0.0778
1524.00,0.0779
1523.00,0.0780
1522.00,0.0782
1521.00,0.0785
1520.00,0.0786
1519.00,0.0785
1518.00,0.0785
1517.00,0.0785
1516.00,0.0785
1515.00,0.0783
1514.00,0.0779
1513.00,0.0772
1512.00,0.0763
1511.00,0.0753
1510.00,0.0744
1509.00,0.0735
1508.00,0.0722
1507.00,0.0707
1506.00,0.0692
1505.00,0.0678
1504.00,0.0666
1503.00,0.0654
1502.00,0.0643
1501.00,0.0632
1500.00,0.0619
1499.00,0.0607
1498.00,0.0594
1497.00,0.0581
1496.00,0.0566
1495.00,0.0552
1494.00,0.0539
1493.00,0.0527
1492.00,0.0514
1491.00,0.0500
1490.00,0.0486
1489.00,0.0473
1488.00,0.0463
1487.00,0.0455
1486.00,0.0447
1485.00,0.0440
1484.00,0.0433
1483.00,0.0427
1482.00,0.0421
1481.00,0.0416
1480.00,0.0412
1479.00,0.0409
1478.00,0.0407
1477.00,0.0405
1476.00,0.0404
1475.00,0.0404
1474.00,0.0405
1473.00,0.0409
1472.00,0.0414
1471.00,0.0419
1470.00,0.0423
1469.00,0.0425
1468.00,0.0427
1467.00,0.0429
1466.00,0.0430
1465.00,0.0432
1464.00,0.0434
1463.00,0.0436
1462.00,0.0438
1461.00,0.0440
1460.00,0.0444
1459.00,0.0448
1458.00,0.0454
1457.00,0.0462
1456.00,0.0468
1455.00,0.0471
1454.00,0.0471
1453.00,0.0472
1452.00,0.0473
1451.00,0.0474
1450.00,0.0473
1449.00,0.0473
1448.00,0.0472
1447.00,0.0471
1446.00,0.0470
1445.00,0.0468
1444.00,0.0466
1443.00,0.0463
1442.00,0.0460
1441.00,0.0457
1440.00,0.0454
1439.00,0.0451
1438.00,0.0447
1437.00,0.0443
1436.00,0.0438
1435.00,0.0433
1434.00,0.0429
1433.00,0.0424
1432.00,0.0421
1431.00,0.0417
1430.00,0.0415
1429.00,0.0413
1428.00,0.0412
1427.00,0.0411
1426.00,0.0410
1425.00,0.0410
1424.00,0.0411
1423.00,0.0413
1422.00,0.0416
1421.00,0.0417
1420.00,0.0419
1419.00,0.0422
1418.00,0.0425
1417.00,0.0428
1416.00,0.0431
1415.00,0.0434
1414.00,0.0437
1413.00,0.0439
1412.00,0.0442
1411.00,0.0446
1410.00,0.0449
1409.00,0.0452
1408.00,0.0455
1407.00,0.0457
1406.00,0.0459
1405.00,0.0462
1404.00,0.0465
1403.00,0.0468
1402.00,0.0469
1401.00,0.0469
1400.00,0.0470
1399.00,0.0470
1398.00,0.0471
1397.00,0.0471
1396.00,0.0471
1395.00,0.0472
1394.00,0.0472
1393.00,0.0472
1392.00,0.0472
1391.00,0.0471
1390.00,0.0470
1389.00,0.0469
1388.00,0.0468
1387.00,0.0467
1386.00,0.0465
1385.00,0.0462
1384.00,0.0460
1383.00,0.0457
1382.00,0.0455
1381.00,0.0452
1380.00,0.0449
1379.00,0.0446
1378.00,0.0443
1377.00,0.0440
1376.00,0.0437
1375.00,0.0434
1374.00,0.0433
1373.00,0.0431
1372.00,0.0430
1371.00,0.0428
1370.00,0.0426
1369.00,0.0424
1368.00,0.0421
1367.00,0.0418
1366.00,0.0414
1365.00,0.0410
1364.00,0.0407
1363.00,0.0403
1362.00,0.0401
1361.00,0.0399
1360.00,0.0397
1359.00,0.0395
1358.00,0.0393
1357.00,0.0392
1356.00,0.0390
1355.00,0.0389
1354.00,0.0388
1353.00,0.0387
1352.00,0.0387
1351.00,0.0386
1350.00,0.0386
1349.00,0.0385
1348.00,0.0385
1347.00,0.0385
1346.00,0.0385
1345.00,0.0385
1344.00,0.0385
1343.00,0.0385
1342.00,0.0385
1341.00,0.0385
1340.00,0.0385
1339.00,0.0385
1338.00,0.0386
1337.00,0.0386
1336.00,0.0387
1335.00,0.0387
1334.00,0.0387
1333.00,0.0387
1332.00,0.0387
1331.00,0.0387
1330.00,0.0388
1329.00,0.0388
1328.00,0.0388
1327.00,0.0389
1326.00,0.0390
1325.00,0.0390
1324.00,0.0391
1323.00,0.0391
1322.00,0.0392
1321.00,0.0392
1320.00,0.0393
1319.00,0.0394
1318.00,0.0395
1317.00,0.0395
1316.00,0.0396
1315.00,0.0396
1314.00,0.0397
1313.00,0.0397
1312.00,0.0397
1311.00,0.0397
1310.00,0.0396
1309.00,0.0396
1308.00,0.0395
1307.00,0.0395
1306.00,0.0394
1305.00,0.0393
1304.00,0.0392
1303.00,0.0392
1302.00,0.0391
1301.00,0.0390
1300.00,0.0389
1299.00,0.0388
1298.00,0.0387
1297.00,0.0386
1296.00,0.0386
1295.00,0.0385
1294.00,0.0385
1293.00,0.0385
1292.00,0.0385
1291.00,0.0385
1290.00,0.0386
1289.00,0.0386
1288.00,0.0386
1287.00,0.0387
1286.00,0.0387
1285.00,0.0387
1284.00,0.0387
1283.00,0.0388
1282.00,0.0388
1281.00,0.0388
1280.00,0.0388
1279.00,0.0388
1278.00,0.0388
1277.00,0.0388
1276.00,0.0388
1275.00,0.0389
1274.00,0.0389
1273.00,0.0390
1272.00,0.0391
1271.00,0.0392
1270.00,0.0393
1269.00,0.0394
1268.00,0.0396
1267.00,0.0398
1266.00,0.0400
1265.00,0.0402
1264.00,0.0404
1263.00,0.0406
1262.00,0.0408
1261.00,0.0411
1260.00,0.0414
1259.00,0.0417
1258.00,0.0420
1257.00,0.0423
1256.00,0.0426
1255.00,0.0429
1254.00,0.0433
1253.00,0.0436
1252.00,0.0439
1251.00,0.0442
1250.00,0.0445
1249.00,0.0447
1248.00,0.0450
1247.00,0.0453
1246.00,0.0455
1245.00,0.0457
1244.00,0.0460
1243.00,0.0462
1242.00,0.0463
1241.00,0.0465
1240.00,0.0466
1239.00,0.0467
1238.00,0.0467
1237.00,0.0468
1236.00,0.0468
1235.00,0.0468
1234.00,0.0468
1233.00,0.0467
1232.00,0.0467
1231.00,0.0466
1230.00,0.0465
1229.00,0.0464
1228.00,0.0462
1227.00,0.0461
1226.00,0.0459
1225.00,0.0457
1224.00,0.0455
1223.00,0.0452
1222.00,0.0450
1221.00,0.0447
1220.00,0.0444
1219.00,0.0442
1218.00,0.0439
1217.00,0.0435
1216.00,0.0432
1215.00,0.0429
1214.00,0.0426
1213.00,0.0423
1212.00,0.0420
1211.00,0.0417
1210.00,0.0414
1209.00,0.0410
1208.00,0.0407
1207.00,0.0404
1206.00,0.0401
1205.00,0.0398
1204.00,0.0395
1203.00,0.0392
1202.00,0.0389
1201.00,0.0387
1200.00,0.0384
1199.00,0.0382
1198.00,0.0380
1197.00,0.0378
1196.00,0.0376
1195.00,0.0374
1194.00,0.0373
1193.00,0.0371
1192.00,0.0370
1191.00,0.0369
1190.00,0.0368
1189.00,0.0367
1188.00,0.0367
1187.00,0.0366
1186.00,0.0366
1185.00,0.0365
1184.00,0.0365
1183.00,0.0366
1182.00,0.0366
1181.00,0.0367
1180.00,0.0368
1179.00,0.0370
1178.00,0.0372
1177.00,0.0374
1176.00,0.0376
1175.00,0.0379
1174.00,0.0382
1173.00,0.0385
1172.00,0.0387
1171.00,0.0390
1170.00,0.0392
1169.00,0.0393
1168.00,0.0395
1167.00,0.0397
1166.00,0.0398
1165.00,0.0399
1164.00,0.0401
1163.00,0.0402
1162.00,0.0403
1161.00,0.0404
1160.00,0.0405
1159.00,0.0406
1158.00,0.0407
1157.00,0.0407
1156.00,0.0407
1155.00,0.0407
1154.00,0.0407
1153.00,0.0406
1152.00,0.0406
1151.00,0.0405
1150.00,0.0404
1149.00,0.0403
1148.00,0.0402
1147.00,0.0400
1146.00,0.0399
1145.00,0.0399
1144.00,0.0398
1143.00,0.0398
1142.00,0.0397
1141.00,0.0397
1140.00,0.0397
1139.00,0.0398
1138.00,0.0398
1137.00,0.0399
1136.00,0.0400
1135.00,0.0401
1134.00,0.0403
1133.00,0.0404
1132.00,0.0406
1131.00,0.0408
1130.00,0.0410
1129.00,0.0411
1128.00,0.0413
1127.00,0.0415
1126.00,0.0416
1125.00,0.0418
1124.00,0.0419
1123.00,0.0421
1122.00,0.0422
1121.00,0.0423
1120.00,0.0424
1119.00,0.0426
1118.00,0.0427
1117.00,0.0428
1116.00,0.0430
1115.00,0.0431
1114.00,0.0432
1113.00,0.0434
1112.00,0.0435
1111.00,0.0437
1110.00,0.0439
1109.00,0.0440
1108.00,0.0442
1107.00,0.0443
1106.00,0.0445
1105.00,0.0447
1104.00,0.0448
1103.00,0.0450
1102.00,0.0452
1101.00,0.0453
1100.00,0.0454
1099.00,0.0456
1098.00,0.0457
1097.00,0.0459
1096.00,0.0461
1095.00,0.0463
1094.00,0.0466
1093.00,0.0468
1092.00,0.0471
1091.00,0.0475
1090.00,0.0478
1089.00,0.0482
1088.00,0.0486
1087.00,0.0491
1086.00,0.0495
1085.00,0.0500
1084.00,0.0504
1083.00,0.0509
1082.00,0.0514
1081.00,0.0518
1080.00,0.0523
1079.00,0.0527
1078.00,0.0531
1077.00,0.0534
1076.00,0.0538
1075.00,0.0541
1074.00,0.0544
1073.00,0.0547
1072.00,0.0549
1071.00,0.0551
1070.00,0.0553
1069.00,0.0555
1068.00,0.0557
1067.00,0.0558
1066.00,0.0559
1065.00,0.0560
1064.00,0.0561
1063.00,0.0561
1062.00,0.0561
1061.00,0.0561
1060.00,0.0560
1059.00,0.0559
1058.00,0.0558
1057.00,0.0557
1056.00,0.0556
1055.00,0.0555
1054.00,0.0554
1053.00,0.0553
1052.00,0.0552
1051.00,0.0551
1050.00,0.0550
1049.00,0.0549
1048.00,0.0548
1047.00,0.0547
1046.00,0.0546
1045.00,0.0545
1044.00,0.0543
1043.00,0.0542
1042.00,0.0539
1041.00,0.0537
1040.00,0.0534
1039.00,0.0531
1038.00,0.0528
1037.00,0.0525
1036.00,0.0522
1035.00,0.0519
1034.00,0.0516
1033.00,0.0513
1032.00,0.0510
1031.00,0.0506
1030.00,0.0502
1029.00,0.0498
1028.00,0.0494
1027.00,0.0490
1026.00,0.0485
1025.00,0.0481
1024.00,0.0476
1023.00,0.0472
1022.00,0.0467
1021.00,0.0463
1020.00,0.0460
1019.00,0.0456
1018.00,0.0452
1017.00,0.0449
1016.00,0.0445
1015.00,0.0442
1014.00,0.0438
1013.00,0.0435
1012.00,0.0432
1011.00,0.0429
1010.00,0.0426
1009.00,0.0423
1008.00,0.0420
1007.00,0.0417
1006.00,0.0414
1005.00,0.0411
1004.00,0.0408
1003.00,0.0405
1002.00,0.0403
1001.00,0.0400
1000.00,0.0397
999.00,0.0395
998.00,0.0393
997.00,0.0390
996.00,0.0388
995.00,0.0386
994.00,0.0383
993.00,0.0381
992.00,0.0378
991.00,0.0376
990.00,0.0373
989.00,0.0370
988.00,0.0368
987.00,0.0366
986.00,0.0363
985.00,0.0360
984.00,0.0358
983.00,0.0355
982.00,0.0352
981.00,0.0349
980.00,0.0347
979.00,0.0345
978.00,0.0343
977.00,0.0341
976.00,0.0339
975.00,0.0337
974.00,0.0335
973.00,0.0333
972.00,0.0332
971.00,0.0330
970.00,0.0329
969.00,0.0328
968.00,0.0327
967.00,0.0326
966.00,0.0326
965.00,0.0325
964.00,0.0324
963.00,0.0323
962.00,0.0321
961.00,0.0320
960.00,0.0318
959.00,0.0316
958.00,0.0315
957.00,0.0312
956.00,0.0310
955.00,0.0309
954.00,0.0307
953.00,0.0306
952.00,0.0304
951.00,0.0303
950.00,0.0302
949.00,0.0302
948.00,0.0301
947.00,0.0300
946.00,0.0300
945.00,0.0299
944.00,0.0299
943.00,0.0299
942.00,0.0298
941.00,0.0298
940.00,0.0298
939.00,0.0298
938.00,0.0298
937.00,0.0298
936.00,0.0298
935.00,0.0297
934.00,0.0297
933.00,0.0297
932.00,0.0296
931.00,0.0295
930.00,0.0294
929.00,0.0293
928.00,0.0292
927.00,0.0291
926.00,0.0290
925.00,0.0289
924.00,0.0287
923.00,0.0286
922.00,0.0285
921.00,0.0284
920.00,0.0283
919.00,0.0282
918.00,0.0281
917.00,0.0281
916.00,0.0280
915.00,0.0279
914.00,0.0279
913.00,0.0279
912.00,0.0279
911.00,0.0278
910.00,0.0278
909.00,0.0278
908.00,0.0278
907.00,0.0278
906.00,0.0277
905.00,0.0277
904.00,0.0277
903.00,0.0277
902.00,0.0277
901.00,0.0277
900.00,0.0276
899.00,0.0276
898.00,0.0275
897.00,0.0274
896.00,0.0274
895.00,0.0273
894.00,0.0272
893.00,0.0271
892.00,0.0271
891.00,0.0270
890.00,0.0269
889.00,0.0268
888.00,0.0268
887.00,0.0267
886.00,0.0267
885.00,0.0266
884.00,0.0266
883.00,0.0267
882.00,0.0267
881.00,0.0267
880.00,0.0267
879.00,0.0267
878.00,0.0268
877.00,0.0268
876.00,0.0268
875.00,0.0268
874.00,0.0268
873.00,0.0268
872.00,0.0268
871.00,0.0268
870.00,0.0268
869.00,0.0268
868.00,0.0268
867.00,0.0268
866.00,0.0268
865.00,0.0268
864.00,0.0268
863.00,0.0268
862.00,0.0269
861.00,0.0269
860.00,0.0270
859.00,0.0270
858.00,0.0271
857.00,0.0272
856.00,0.0273
855.00,0.0273
854.00,0.0274
853.00,0.0275
852.00,0.0275
851.00,0.0275
850.00,0.0275
849.00,0.0276
848.00,0.0276
847.00,0.0276
846.00,0.0276
845.00,0.0276
844.00,0.0277
843.00,0.0278
842.00,0.0279
841.00,0.0280
840.00,0.0282
839.00,0.0283
838.00,0.0284
837.00,0.0286
836.00,0.0288
835.00,0.0289
834.00,0.0291
833.00,0.0293
832.00,0.0294
831.00,0.0296
830.00,0.0298
829.00,0.0299
828.00,0.0301
827.00,0.0302
826.00,0.0303
825.00,0.0304
824.00,0.0305
823.00,0.0306
822.00,0.0307
821.00,0.0308
820.00,0.0310
819.00,0.0311
818.00,0.0313
817.00,0.0315
816.00,0.0316
815.00,0.0318
814.00,0.0320
813.00,0.0321
812.00,0.0323
811.00,0.0324
810.00,0.0326
809.00,0.0327
808.00,0.0329
807.00,0.0330
806.00,0.0331
805.00,0.0333
804.00,0.0334
803.00,0.0335
802.00,0.0337
801.00,0.0338
800.00,0.0340
799.00,0.0341
798.00,0.0343
797.00,0.0344
796.00,0.0346
795.00,0.0348
794.00,0.0350
793.00,0.0352
792.00,0.0355
791.00,0.0357
790.00,0.0359
789.00,0.0362
788.00,0.0364
787.00,0.0367
786.00,0.0369
785.00,0.0372
784.00,0.0374
783.00,0.0376
782.00,0.0379
781.00,0.0381
780.00,0.0384
779.00,0.0386
778.00,0.0387
777.00,0.0389
776.00,0.0391
775.00,0.0393
774.00,0.0394
773.00,0.0396
772.00,0.0397
771.00,0.0399
770.00,0.0401
769.00,0.0402
768.00,0.0404
767.00,0.0405
766.00,0.0407
765.00,0.0408
764.00,0.0409
763.00,0.0410
762.00,0.0411
761.00,0.0412
760.00,0.0414
759.00,0.0415
758.00,0.0417
757.00,0.0419
756.00,0.0421
755.00,0.0423
754.00,0.0426
753.00,0.0428
752.00,0.0431
751.00,0.0434
750.00,0.0436
749.00,0.0439
748.00,0.0441
747.00,0.0443
746.00,0.0445
745.00,0.0447
744.00,0.0448
743.00,0.0450
742.00,0.0451
741.00,0.0453
740.00,0.0454
739.00,0.0456
738.00,0.0458
737.00,0.0459
736.00,0.0460
735.00,0.0462
734.00,0.0464
733.00,0.0466
732.00,0.0468
731.00,0.0471
730.00,0.0474
729.00,0.0477
728.00,0.0481
727.00,0.0486
726.00,0.0490
725.00,0.0495
724.00,0.0500
723.00,0.0505
722.00,0.0510
721.00,0.0515
720.00,0.0519
719.00,0.0524
718.00,0.0529
717.00,0.0534
716.00,0.0539
715.00,0.0545
714.00,0.0550
713.00,0.0555
712.00,0.0560
711.00,0.0565
710.00,0.0571
709.00,0.0577
708.00,0.0583
707.00,0.0589
706.00,0.0595
705.00,0.0601
704.00,0.0607
703.00,0.0612
702.00,0.0617
701.00,0.0621
700.00,0.0625
699.00,0.0628
698.00,0.0630
697.00,0.0631
696.00,0.0631
695.00,0.0631
694.00,0.0631
693.00,0.0631
692.00,0.0631
691.00,0.0631
690.00,0.0632
689.00,0.0633
688.00,0.0635
687.00,0.0636
686.00,0.0637
685.00,0.0638
684.00,0.0640
683.00,0.0641
682.00,0.0642
681.00,0.0644
680.00,0.0646
679.00,0.0647
678.00,0.0648
677.00,0.0650
676.00,0.0651
675.00,0.0653
674.00,0.0654
673.00,0.0655
672.00,0.0656
671.00,0.0658
670.00,0.0660
669.00,0.0662
668.00,0.0664
667.00,0.0666
666.00,0.0667
665.00,0.0667
664.00,0.0668
663.00,0.0669
662.00,0.0670
661.00,0.0671
660.00,0.0673
659.00,0.0674
658.00,0.0676
657.00,0.0677
656.00,0.0679
655.00,0.0680
654.00,0.0682
653.00,0.0683
652.00,0.0684
651.00,0.0686
650.00,0.0687
649.00,0.0689
648.00,0.0690
647.00,0.0692
646.00,0.0694
645.00,0.0696
644.00,0.0698
643.00,0.0700
642.00,0.0702
641.00,0.0704
640.00,0.0706
639.00,0.0708
638.00,0.0710
637.00,0.0712
636.00,0.0714
635.00,0.0716
634.00,0.0718
633.00,0.0720
632.00,0.0723
631.00,0.0725
630.00,0.0727
629.00,0.0729
628.00,0.0731
627.00,0.0733
626.00,0.0735
625.00,0.0737
624.00,0.0739
623.00,0.0741
622.00,0.0742
621.00,0.0744
620.00,0.0745
619.00,0.0746
618.00,0.0746
617.00,0.0747
616.00,0.0747
615.00,0.0747
614.00,0.0746
613.00,0.0746
612.00,0.0746
611.00,0.0746
610.00,0.0747
609.00,0.0747
608.00,0.0747
607.00,0.0748
606.00,0.0748
605.00,0.0748
604.00,0.0748
603.00,0.0747
602.00,0.0747
601.00,0.0748
600.00,0.0748
599.00,0.0749
598.00,0.0749
597.00,0.0749
596.00,0.0749
595.00,0.0750
594.00,0.0750
593.00,0.0751
592.00,0.0752
591.00,0.0753
590.00,0.0755
589.00,0.0756
588.00,0.0757
587.00,0.0758
586.00,0.0759
585.00,0.0760
584.00,0.0762
583.00,0.0764
582.00,0.0765
581.00,0.0767
580.00,0.0769
579.00,0.0770
578.00,0.0772
577.00,0.0773
576.00,0.0775
575.00,0.0777
574.00,0.0778
573.00,0.0779
572.00,0.0780
571.00,0.0781
570.00,0.0782
569.00,0.0783
568.00,0.0784
567.00,0.0785
566.00,0.0786
565.00,0.0787
564.00,0.0788
563.00,0.0789
562.00,0.0790
561.00,0.0791
560.00,0.0793
559.00,0.0794
558.00,0.0795
557.00,0.0796
556.00,0.0797
555.00,0.0798
554.00,0.0799
553.00,0.0801
552.00,0.0803
551.00,0.0804
550.00,0.0806
549.00,0.0807
548.00,0.0809
547.00,0.0810
546.00,0.0811
545.00,0.0811
544.00,0.0812
543.00,0.0814
542.00,0.0815
541.00,0.0816
540.00,0.0817
539.00,0.0817
538.00,0.0818
537.00,0.0819
536.00,0.0820
535.00,0.0822
534.00,0.0823
533.00,0.0825
532.00,0.0827
531.00,0.0828
530.00,0.0829
529.00,0.0829
528.00,0.0830
527.00,0.0831
526.00,0.0833
525.00,0.0834
524.00,0.0835
523.00,0.0836
522.00,0.0836
521.00,0.0837
520.00,0.0838
519.00,0.0840
518.00,0.0841
517.00,0.0842
516.00,0.0842
515.00,0.0841
514.00,0.0840
513.00,0.0839
512.00,0.0839
511.00,0.0839
510.00,0.0837
509.00,0.0836
508.00,0.0835
507.00,0.0834
506.00,0.0834
505.00,0.0833
504.00,0.0833
503.00,0.0832
502.00,0.0832
501.00,0.0832
500.00,0.0833
499.00,0.0834
498.00,0.0834
497.00,0.0834
496.00,0.0835
495.00,0.0835
494.00,0.0835
493.00,0.0834
492.00,0.0833
491.00,0.0832
490.00,0.0831
489.00,0.0830
488.00,0.0830
487.00,0.0831
486.00,0.0832
485.00,0.0832
484.00,0.0833
483.00,0.0833
482.00,0.0834
481.00,0.0834
480.00,0.0834
479.00,0.0835
478.00,0.0835
477.00,0.0835
476.00,0.0835
475.00,0.0835
474.00,0.0834
473.00,0.0835
472.00,0.0836
471.00,0.0838
470.00,0.0840
469.00,0.0840
468.00,0.0840
467.00,0.0839
466.00,0.0838
465.00,0.0838
464.00,0.0838
463.00,0.0839
462.00,0.0838
461.00,0.0836
460.00,0.0834
459.00,0.0832
458.00,0.0830
457.00,0.0829
456.00,0.0827
455.00,0.0825
454.00,0.0823
453.00,0.0822
452.00,0.0821
451.00,0.0820
450.00,0.0818
449.00,0.0814
448.00,0.0811
447.00,0.0807
446.00,0.0803
445.00,0.0800
444.00,0.0796
443.00,0.0791
442.00,0.0785
441.00,0.0779
440.00,0.0775
439.00,0.0772
438.00,0.0769
437.00,0.0765
436.00,0.0762
435.00,0.0758
434.00,0.0755
433.00,0.0752
432.00,0.0748
431.00,0.0745
430.00,0.0740
429.00,0.0737
428.00,0.0735
427.00,0.0732
426.00,0.0729
425.00,0.0726
424.00,0.0724
423.00,0.0723
422.00,0.0721
421.00,0.0719
420.00,0.0715
419.00,0.0712
418.00,0.0712
417.00,0.0711
416.00,0.0710
415.00,0.0708
414.00,0.0706
413.00,0.0703
412.00,0.0700
411.00,0.0699
410.00,0.0697
409.00,0.0696
408.00,0.0696
407.00,0.0695
406.00,0.0694
405.00,0.0690
404.00,0.0684
403.00,0.0678
402.00,0.0672
401.00,0.0666
400.00,0.0660
