Created as New Dataset,Sample 328 By YargerLab Date Monday, August 19 2024
cm-1,A
4000.00,0.0087
3999.00,0.0087
3998.00,0.0087
3997.00,0.0087
3996.00,0.0087
3995.00,0.0087
3994.00,0.0087
3993.00,0.0087
3992.00,0.0087
3991.00,0.0087
3990.00,0.0087
3989.00,0.0087
3988.00,0.0087
3987.00,0.0087
3986.00,0.0087
3985.00,0.0087
3984.00,0.0087
3983.00,0.0087
3982.00,0.0087
3981.00,0.0087
3980.00,0.0086
3979.00,0.0086
3978.00,0.0086
3977.00,0.0086
3976.00,0.0086
3975.00,0.0087
3974.00,0.0087
3973.00,0.0087
3972.00,0.0087
3971.00,0.0087
3970.00,0.0086
3969.00,0.0086
3968.00,0.0086
3967.00,0.0086
3966.00,0.0086
3965.00,0.0087
3964.00,0.0087
3963.00,0.0087
3962.00,0.0087
3961.00,0.0086
3960.00,0.0086
3959.00,0.0086
3958.00,0.0086
3957.00,0.0086
3956.00,0.0086
3955.00,0.0086
3954.00,0.0086
3953.00,0.0086
3952.00,0.0086
3951.00,0.0086
3950.00,0.0086
3949.00,0.0086
3948.00,0.0086
3947.00,0.0086
3946.00,0.0086
3945.00,0.0086
3944.00,0.0086
3943.00,0.0086
3942.00,0.0086
3941.00,0.0086
3940.00,0.0086
3939.00,0.0086
3938.00,0.0086
3937.00,0.0086
3936.00,0.0086
3935.00,0.0086
3934.00,0.0086
3933.00,0.0086
3932.00,0.0086
3931.00,0.0086
3930.00,0.0086
3929.00,0.0086
3928.00,0.0086
3927.00,0.0086
3926.00,0.0086
3925.00,0.0086
3924.00,0.0086
3923.00,0.0086
3922.00,0.0086
3921.00,0.0086
3920.00,0.0086
3919.00,0.0086
3918.00,0.0086
3917.00,0.0086
3916.00,0.0085
3915.00,0.0085
3914.00,0.0085
3913.00,0.0085
3912.00,0.0085
3911.00,0.0085
3910.00,0.0085
3909.00,0.0085
3908.00,0.0085
3907.00,0.0085
3906.00,0.0085
3905.00,0.0085
3904.00,0.0085
3903.00,0.0085
3902.00,0.0084
3901.00,0.0084
3900.00,0.0084
3899.00,0.0084
3898.00,0.0084
3897.00,0.0085
3896.00,0.0085
3895.00,0.0085
3894.00,0.0085
3893.00,0.0085
3892.00,0.0085
3891.00,0.0084
3890.00,0.0084
3889.00,0.0084
3888.00,0.0084
3887.00,0.0084
3886.00,0.0084
3885.00,0.0084
3884.00,0.0084
3883.00,0.0084
3882.00,0.0084
3881.00,0.0085
3880.00,0.0084
3879.00,0.0084
3878.00,0.0084
3877.00,0.0084
3876.00,0.0084
3875.00,0.0084
3874.00,0.0084
3873.00,0.0084
3872.00,0.0084
3871.00,0.0083
3870.00,0.0083
3869.00,0.0083
3868.00,0.0083
3867.00,0.0083
3866.00,0.0083
3865.00,0.0083
3864.00,0.0083
3863.00,0.0083
3862.00,0.0083
3861.00,0.0083
3860.00,0.0083
3859.00,0.0083
3858.00,0.0083
3857.00,0.0082
3856.00,0.0082
3855.00,0.0082
3854.00,0.0081
3853.00,0.0081
3852.00,0.0081
3851.00,0.0082
3850.00,0.0082
3849.00,0.0083
3848.00,0.0083
3847.00,0.0083
3846.00,0.0083
3845.00,0.0083
3844.00,0.0083
3843.00,0.0083
3842.00,0.0082
3841.00,0.0082
3840.00,0.0082
3839.00,0.0082
3838.00,0.0082
3837.00,0.0082
3836.00,0.0082
3835.00,0.0082
3834.00,0.0082
3833.00,0.0082
3832.00,0.0083
3831.00,0.0083
3830.00,0.0083
3829.00,0.0083
3828.00,0.0083
3827.00,0.0083
3826.00,0.0083
3825.00,0.0083
3824.00,0.0082
3823.00,0.0082
3822.00,0.0082
3821.00,0.0082
3820.00,0.0081
3819.00,0.0081
3818.00,0.0081
3817.00,0.0081
3816.00,0.0081
3815.00,0.0082
3814.00,0.0082
3813.00,0.0082
3812.00,0.0082
3811.00,0.0082
3810.00,0.0082
3809.00,0.0082
3808.00,0.0082
3807.00,0.0082
3806.00,0.0081
3805.00,0.0081
3804.00,0.0081
3803.00,0.0081
3802.00,0.0081
3801.00,0.0081
3800.00,0.0081
3799.00,0.0081
3798.00,0.0082
3797.00,0.0082
3796.00,0.0082
3795.00,0.0082
3794.00,0.0082
3793.00,0.0082
3792.00,0.0083
3791.00,0.0082
3790.00,0.0082
3789.00,0.0082
3788.00,0.0082
3787.00,0.0082
3786.00,0.0082
3785.00,0.0082
3784.00,0.0082
3783.00,0.0082
3782.00,0.0082
3781.00,0.0082
3780.00,0.0082
3779.00,0.0082
3778.00,0.0082
3777.00,0.0082
3776.00,0.0082
3775.00,0.0082
3774.00,0.0082
3773.00,0.0082
3772.00,0.0082
3771.00,0.0081
3770.00,0.0081
3769.00,0.0081
3768.00,0.0081
3767.00,0.0081
3766.00,0.0081
3765.00,0.0081
3764.00,0.0081
3763.00,0.0081
3762.00,0.0081
3761.00,0.0081
3760.00,0.0081
3759.00,0.0081
3758.00,0.0081
3757.00,0.0080
3756.00,0.0080
3755.00,0.0080
3754.00,0.0079
3753.00,0.0079
3752.00,0.0079
3751.00,0.0078
3750.00,0.0078
3749.00,0.0078
3748.00,0.0078
3747.00,0.0078
3746.00,0.0078
3745.00,0.0078
3744.00,0.0078
3743.00,0.0078
3742.00,0.0079
3741.00,0.0079
3740.00,0.0079
3739.00,0.0079
3738.00,0.0079
3737.00,0.0079
3736.00,0.0078
3735.00,0.0078
3734.00,0.0078
3733.00,0.0078
3732.00,0.0078
3731.00,0.0078
3730.00,0.0078
3729.00,0.0079
3728.00,0.0079
3727.00,0.0079
3726.00,0.0079
3725.00,0.0079
3724.00,0.0079
3723.00,0.0079
3722.00,0.0079
3721.00,0.0078
3720.00,0.0078
3719.00,0.0078
3718.00,0.0078
3717.00,0.0078
3716.00,0.0078
3715.00,0.0078
3714.00,0.0078
3713.00,0.0078
3712.00,0.0077
3711.00,0.0077
3710.00,0.0077
3709.00,0.0077
3708.00,0.0077
3707.00,0.0077
3706.00,0.0078
3705.00,0.0078
3704.00,0.0078
3703.00,0.0078
3702.00,0.0078
3701.00,0.0078
3700.00,0.0078
3699.00,0.0078
3698.00,0.0078
3697.00,0.0078
3696.00,0.0078
3695.00,0.0078
3694.00,0.0078
3693.00,0.0077
3692.00,0.0077
3691.00,0.0077
3690.00,0.0076
3689.00,0.0076
3688.00,0.0076
3687.00,0.0076
3686.00,0.0077
3685.00,0.0077
3684.00,0.0077
3683.00,0.0077
3682.00,0.0077
3681.00,0.0077
3680.00,0.0077
3679.00,0.0077
3678.00,0.0076
3677.00,0.0076
3676.00,0.0076
3675.00,0.0076
3674.00,0.0076
3673.00,0.0076
3672.00,0.0076
3671.00,0.0076
3670.00,0.0077
3669.00,0.0077
3668.00,0.0077
3667.00,0.0078
3666.00,0.0078
3665.00,0.0079
3664.00,0.0079
3663.00,0.0079
3662.00,0.0079
3661.00,0.0079
3660.00,0.0079
3659.00,0.0079
3658.00,0.0079
3657.00,0.0079
3656.00,0.0079
3655.00,0.0079
3654.00,0.0079
3653.00,0.0079
3652.00,0.0079
3651.00,0.0079
3650.00,0.0079
3649.00,0.0080
3648.00,0.0080
3647.00,0.0080
3646.00,0.0080
3645.00,0.0081
3644.00,0.0081
3643.00,0.0081
3642.00,0.0082
3641.00,0.0082
3640.00,0.0082
3639.00,0.0082
3638.00,0.0083
3637.00,0.0083
3636.00,0.0083
3635.00,0.0083
3634.00,0.0083
3633.00,0.0083
3632.00,0.0083
3631.00,0.0083
3630.00,0.0083
3629.00,0.0083
3628.00,0.0083
3627.00,0.0083
3626.00,0.0084
3625.00,0.0084
3624.00,0.0085
3623.00,0.0085
3622.00,0.0086
3621.00,0.0086
3620.00,0.0086
3619.00,0.0086
3618.00,0.0086
3617.00,0.0086
3616.00,0.0087
3615.00,0.0087
3614.00,0.0088
3613.00,0.0088
3612.00,0.0088
3611.00,0.0089
3610.00,0.0089
3609.00,0.0089
3608.00,0.0089
3607.00,0.0090
3606.00,0.0090
3605.00,0.0091
3604.00,0.0091
3603.00,0.0091
3602.00,0.0091
3601.00,0.0092
3600.00,0.0092
3599.00,0.0092
3598.00,0.0092
3597.00,0.0093
3596.00,0.0093
3595.00,0.0093
3594.00,0.0094
3593.00,0.0094
3592.00,0.0094
3591.00,0.0094
3590.00,0.0095
3589.00,0.0095
3588.00,0.0095
3587.00,0.0096
3586.00,0.0096
3585.00,0.0096
3584.00,0.0097
3583.00,0.0097
3582.00,0.0098
3581.00,0.0098
3580.00,0.0098
3579.00,0.0099
3578.00,0.0099
3577.00,0.0099
3576.00,0.0100
3575.00,0.0100
3574.00,0.0100
3573.00,0.0101
3572.00,0.0101
3571.00,0.0101
3570.00,0.0102
3569.00,0.0102
3568.00,0.0103
3567.00,0.0103
3566.00,0.0103
3565.00,0.0104
3564.00,0.0104
3563.00,0.0105
3562.00,0.0105
3561.00,0.0106
3560.00,0.0106
3559.00,0.0107
3558.00,0.0107
3557.00,0.0107
3556.00,0.0108
3555.00,0.0108
3554.00,0.0108
3553.00,0.0109
3552.00,0.0109
3551.00,0.0109
3550.00,0.0110
3549.00,0.0110
3548.00,0.0111
3547.00,0.0112
3546.00,0.0112
3545.00,0.0113
3544.00,0.0113
3543.00,0.0113
3542.00,0.0114
3541.00,0.0114
3540.00,0.0114
3539.00,0.0114
3538.00,0.0115
3537.00,0.0115
3536.00,0.0116
3535.00,0.0116
3534.00,0.0117
3533.00,0.0117
3532.00,0.0117
3531.00,0.0118
3530.00,0.0118
3529.00,0.0119
3528.00,0.0119
3527.00,0.0119
3526.00,0.0120
3525.00,0.0120
3524.00,0.0121
3523.00,0.0121
3522.00,0.0121
3521.00,0.0122
3520.00,0.0122
3519.00,0.0123
3518.00,0.0123
3517.00,0.0123
3516.00,0.0124
3515.00,0.0124
3514.00,0.0125
3513.00,0.0125
3512.00,0.0125
3511.00,0.0126
3510.00,0.0126
3509.00,0.0126
3508.00,0.0127
3507.00,0.0127
3506.00,0.0128
3505.00,0.0128
3504.00,0.0129
3503.00,0.0129
3502.00,0.0130
3501.00,0.0130
3500.00,0.0130
3499.00,0.0131
3498.00,0.0131
3497.00,0.0132
3496.00,0.0132
3495.00,0.0132
3494.00,0.0133
3493.00,0.0133
3492.00,0.0134
3491.00,0.0134
3490.00,0.0135
3489.00,0.0135
3488.00,0.0136
3487.00,0.0136
3486.00,0.0137
3485.00,0.0137
3484.00,0.0137
3483.00,0.0138
3482.00,0.0138
3481.00,0.0139
3480.00,0.0139
3479.00,0.0140
3478.00,0.0140
3477.00,0.0140
3476.00,0.0141
3475.00,0.0141
3474.00,0.0142
3473.00,0.0142
3472.00,0.0143
3471.00,0.0143
3470.00,0.0144
3469.00,0.0144
3468.00,0.0145
3467.00,0.0145
3466.00,0.0145
3465.00,0.0145
3464.00,0.0146
3463.00,0.0146
3462.00,0.0147
3461.00,0.0147
3460.00,0.0148
3459.00,0.0148
3458.00,0.0149
3457.00,0.0149
3456.00,0.0149
3455.00,0.0150
3454.00,0.0150
3453.00,0.0150
3452.00,0.0151
3451.00,0.0151
3450.00,0.0152
3449.00,0.0152
3448.00,0.0153
3447.00,0.0153
3446.00,0.0153
3445.00,0.0154
3444.00,0.0154
3443.00,0.0154
3442.00,0.0155
3441.00,0.0156
3440.00,0.0156
3439.00,0.0157
3438.00,0.0157
3437.00,0.0158
3436.00,0.0158
3435.00,0.0158
3434.00,0.0159
3433.00,0.0159
3432.00,0.0160
3431.00,0.0160
3430.00,0.0161
3429.00,0.0161
3428.00,0.0161
3427.00,0.0162
3426.00,0.0162
3425.00,0.0162
3424.00,0.0163
3423.00,0.0164
3422.00,0.0164
3421.00,0.0165
3420.00,0.0165
3419.00,0.0166
3418.00,0.0166
3417.00,0.0166
3416.00,0.0167
3415.00,0.0167
3414.00,0.0168
3413.00,0.0168
3412.00,0.0169
3411.00,0.0169
3410.00,0.0169
3409.00,0.0170
3408.00,0.0170
3407.00,0.0170
3406.00,0.0171
3405.00,0.0171
3404.00,0.0172
3403.00,0.0173
3402.00,0.0173
3401.00,0.0173
3400.00,0.0174
3399.00,0.0174
3398.00,0.0174
3397.00,0.0175
3396.00,0.0175
3395.00,0.0176
3394.00,0.0176
3393.00,0.0176
3392.00,0.0177
3391.00,0.0177
3390.00,0.0178
3389.00,0.0178
3388.00,0.0179
3387.00,0.0179
3386.00,0.0180
3385.00,0.0180
3384.00,0.0180
3383.00,0.0181
3382.00,0.0181
3381.00,0.0182
3380.00,0.0182
3379.00,0.0182
3378.00,0.0183
3377.00,0.0184
3376.00,0.0184
3375.00,0.0185
3374.00,0.0185
3373.00,0.0185
3372.00,0.0186
3371.00,0.0187
3370.00,0.0187
3369.00,0.0188
3368.00,0.0188
3367.00,0.0189
3366.00,0.0189
3365.00,0.0190
3364.00,0.0191
3363.00,0.0191
3362.00,0.0192
3361.00,0.0193
3360.00,0.0193
3359.00,0.0194
3358.00,0.0195
3357.00,0.0195
3356.00,0.0196
3355.00,0.0197
3354.00,0.0197
3353.00,0.0198
3352.00,0.0199
3351.00,0.0199
3350.00,0.0200
3349.00,0.0201
3348.00,0.0202
3347.00,0.0203
3346.00,0.0203
3345.00,0.0204
3344.00,0.0205
3343.00,0.0205
3342.00,0.0206
3341.00,0.0207
3340.00,0.0208
3339.00,0.0209
3338.00,0.0210
3337.00,0.0211
3336.00,0.0212
3335.00,0.0213
3334.00,0.0214
3333.00,0.0215
3332.00,0.0216
3331.00,0.0217
3330.00,0.0218
3329.00,0.0219
3328.00,0.0220
3327.00,0.0221
3326.00,0.0222
3325.00,0.0223
3324.00,0.0224
3323.00,0.0225
3322.00,0.0226
3321.00,0.0228
3320.00,0.0229
3319.00,0.0230
3318.00,0.0232
3317.00,0.0233
3316.00,0.0234
3315.00,0.0236
3314.00,0.0237
3313.00,0.0238
3312.00,0.0239
3311.00,0.0241
3310.00,0.0242
3309.00,0.0243
3308.00,0.0244
3307.00,0.0246
3306.00,0.0247
3305.00,0.0249
3304.00,0.0251
3303.00,0.0253
3302.00,0.0254
3301.00,0.0256
3300.00,0.0257
3299.00,0.0259
3298.00,0.0260
3297.00,0.0261
3296.00,0.0263
3295.00,0.0264
3294.00,0.0266
3293.00,0.0267
3292.00,0.0269
3291.00,0.0270
3290.00,0.0272
3289.00,0.0273
3288.00,0.0274
3287.00,0.0276
3286.00,0.0277
3285.00,0.0278
3284.00,0.0279
3283.00,0.0280
3282.00,0.0281
3281.00,0.0282
3280.00,0.0282
3279.00,0.0283
3278.00,0.0284
3277.00,0.0284
3276.00,0.0284
3275.00,0.0284
3274.00,0.0284
3273.00,0.0284
3272.00,0.0284
3271.00,0.0284
3270.00,0.0284
3269.00,0.0283
3268.00,0.0283
3267.00,0.0283
3266.00,0.0282
3265.00,0.0281
3264.00,0.0281
3263.00,0.0280
3262.00,0.0279
3261.00,0.0278
3260.00,0.0277
3259.00,0.0275
3258.00,0.0274
3257.00,0.0272
3256.00,0.0271
3255.00,0.0270
3254.00,0.0269
3253.00,0.0268
3252.00,0.0267
3251.00,0.0266
3250.00,0.0264
3249.00,0.0263
3248.00,0.0262
3247.00,0.0261
3246.00,0.0260
3245.00,0.0259
3244.00,0.0258
3243.00,0.0257
3242.00,0.0256
3241.00,0.0254
3240.00,0.0253
3239.00,0.0252
3238.00,0.0251
3237.00,0.0250
3236.00,0.0249
3235.00,0.0248
3234.00,0.0246
3233.00,0.0246
3232.00,0.0245
3231.00,0.0245
3230.00,0.0244
3229.00,0.0243
3228.00,0.0243
3227.00,0.0242
3226.00,0.0241
3225.00,0.0240
3224.00,0.0239
3223.00,0.0239
3222.00,0.0238
3221.00,0.0237
3220.00,0.0236
3219.00,0.0236
3218.00,0.0235
3217.00,0.0234
3216.00,0.0234
3215.00,0.0233
3214.00,0.0232
3213.00,0.0232
3212.00,0.0231
3211.00,0.0231
3210.00,0.0230
3209.00,0.0229
3208.00,0.0229
3207.00,0.0228
3206.00,0.0227
3205.00,0.0227
3204.00,0.0226
3203.00,0.0225
3202.00,0.0225
3201.00,0.0224
3200.00,0.0224
3199.00,0.0223
3198.00,0.0223
3197.00,0.0222
3196.00,0.0221
3195.00,0.0220
3194.00,0.0220
3193.00,0.0219
3192.00,0.0218
3191.00,0.0218
3190.00,0.0217
3189.00,0.0216
3188.00,0.0216
3187.00,0.0215
3186.00,0.0214
3185.00,0.0214
3184.00,0.0213
3183.00,0.0212
3182.00,0.0212
3181.00,0.0211
3180.00,0.0210
3179.00,0.0209
3178.00,0.0209
3177.00,0.0208
3176.00,0.0208
3175.00,0.0207
3174.00,0.0206
3173.00,0.0205
3172.00,0.0205
3171.00,0.0204
3170.00,0.0203
3169.00,0.0202
3168.00,0.0202
3167.00,0.0201
3166.00,0.0200
3165.00,0.0200
3164.00,0.0199
3163.00,0.0198
3162.00,0.0198
3161.00,0.0197
3160.00,0.0196
3159.00,0.0196
3158.00,0.0195
3157.00,0.0194
3156.00,0.0194
3155.00,0.0193
3154.00,0.0192
3153.00,0.0192
3152.00,0.0191
3151.00,0.0190
3150.00,0.0190
3149.00,0.0189
3148.00,0.0189
3147.00,0.0188
3146.00,0.0188
3145.00,0.0187
3144.00,0.0187
3143.00,0.0186
3142.00,0.0186
3141.00,0.0185
3140.00,0.0184
3139.00,0.0183
3138.00,0.0183
3137.00,0.0183
3136.00,0.0182
3135.00,0.0182
3134.00,0.0181
3133.00,0.0181
3132.00,0.0181
3131.00,0.0180
3130.00,0.0180
3129.00,0.0179
3128.00,0.0179
3127.00,0.0179
3126.00,0.0178
3125.00,0.0178
3124.00,0.0178
3123.00,0.0177
3122.00,0.0177
3121.00,0.0176
3120.00,0.0176
3119.00,0.0176
3118.00,0.0175
3117.00,0.0175
3116.00,0.0175
3115.00,0.0175
3114.00,0.0175
3113.00,0.0175
3112.00,0.0175
3111.00,0.0175
3110.00,0.0175
3109.00,0.0175
3108.00,0.0175
3107.00,0.0175
3106.00,0.0175
3105.00,0.0175
3104.00,0.0175
3103.00,0.0175
3102.00,0.0175
3101.00,0.0175
3100.00,0.0175
3099.00,0.0175
3098.00,0.0175
3097.00,0.0175
3096.00,0.0176
3095.00,0.0176
3094.00,0.0176
3093.00,0.0175
3092.00,0.0175
3091.00,0.0176
3090.00,0.0176
3089.00,0.0176
3088.00,0.0176
3087.00,0.0176
3086.00,0.0176
3085.00,0.0176
3084.00,0.0176
3083.00,0.0176
3082.00,0.0176
3081.00,0.0176
3080.00,0.0176
3079.00,0.0176
3078.00,0.0177
3077.00,0.0177
3076.00,0.0177
3075.00,0.0178
3074.00,0.0178
3073.00,0.0178
3072.00,0.0177
3071.00,0.0177
3070.00,0.0177
3069.00,0.0177
3068.00,0.0177
3067.00,0.0176
3066.00,0.0176
3065.00,0.0177
3064.00,0.0177
3063.00,0.0176
3062.00,0.0176
3061.00,0.0176
3060.00,0.0176
3059.00,0.0175
3058.00,0.0175
3057.00,0.0175
3056.00,0.0174
3055.00,0.0174
3054.00,0.0173
3053.00,0.0173
3052.00,0.0172
3051.00,0.0172
3050.00,0.0171
3049.00,0.0171
3048.00,0.0171
3047.00,0.0170
3046.00,0.0170
3045.00,0.0169
3044.00,0.0168
3043.00,0.0168
3042.00,0.0167
3041.00,0.0167
3040.00,0.0167
3039.00,0.0167
3038.00,0.0166
3037.00,0.0166
3036.00,0.0165
3035.00,0.0164
3034.00,0.0164
3033.00,0.0163
3032.00,0.0163
3031.00,0.0163
3030.00,0.0163
3029.00,0.0162
3028.00,0.0162
3027.00,0.0161
3026.00,0.0161
3025.00,0.0160
3024.00,0.0160
3023.00,0.0159
3022.00,0.0159
3021.00,0.0158
3020.00,0.0157
3019.00,0.0157
3018.00,0.0156
3017.00,0.0156
3016.00,0.0155
3015.00,0.0155
3014.00,0.0154
3013.00,0.0154
3012.00,0.0154
3011.00,0.0154
3010.00,0.0154
3009.00,0.0154
3008.00,0.0153
3007.00,0.0153
3006.00,0.0153
3005.00,0.0153
3004.00,0.0153
3003.00,0.0153
3002.00,0.0153
3001.00,0.0152
3000.00,0.0152
2999.00,0.0152
2998.00,0.0152
2997.00,0.0152
2996.00,0.0152
2995.00,0.0152
2994.00,0.0153
2993.00,0.0153
2992.00,0.0153
2991.00,0.0154
2990.00,0.0154
2989.00,0.0155
2988.00,0.0155
2987.00,0.0156
2986.00,0.0156
2985.00,0.0157
2984.00,0.0157
2983.00,0.0158
2982.00,0.0159
2981.00,0.0159
2980.00,0.0160
2979.00,0.0161
2978.00,0.0161
2977.00,0.0162
2976.00,0.0163
2975.00,0.0163
2974.00,0.0164
2973.00,0.0164
2972.00,0.0165
2971.00,0.0165
2970.00,0.0166
2969.00,0.0166
2968.00,0.0166
2967.00,0.0167
2966.00,0.0167
2965.00,0.0166
2964.00,0.0166
2963.00,0.0166
2962.00,0.0166
2961.00,0.0166
2960.00,0.0165
2959.00,0.0165
2958.00,0.0165
2957.00,0.0164
2956.00,0.0164
2955.00,0.0164
2954.00,0.0164
2953.00,0.0164
2952.00,0.0164
2951.00,0.0164
2950.00,0.0164
2949.00,0.0164
2948.00,0.0164
2947.00,0.0164
2946.00,0.0164
2945.00,0.0165
2944.00,0.0165
2943.00,0.0166
2942.00,0.0166
2941.00,0.0166
2940.00,0.0166
2939.00,0.0166
2938.00,0.0166
2937.00,0.0166
2936.00,0.0166
2935.00,0.0166
2934.00,0.0165
2933.00,0.0164
2932.00,0.0163
2931.00,0.0162
2930.00,0.0160
2929.00,0.0158
2928.00,0.0156
2927.00,0.0154
2926.00,0.0151
2925.00,0.0147
2924.00,0.0143
2923.00,0.0139
2922.00,0.0134
2921.00,0.0129
2920.00,0.0124
2919.00,0.0118
2918.00,0.0114
2917.00,0.0111
2916.00,0.0110
2915.00,0.0113
2914.00,0.0117
2913.00,0.0123
2912.00,0.0129
2911.00,0.0134
2910.00,0.0138
2909.00,0.0141
2908.00,0.0143
2907.00,0.0144
2906.00,0.0145
2905.00,0.0145
2904.00,0.0146
2903.00,0.0146
2902.00,0.0146
2901.00,0.0146
2900.00,0.0146
2899.00,0.0146
2898.00,0.0146
2897.00,0.0146
2896.00,0.0146
2895.00,0.0146
2894.00,0.0146
2893.00,0.0147
2892.00,0.0147
2891.00,0.0147
2890.00,0.0147
2889.00,0.0148
2888.00,0.0148
2887.00,0.0148
2886.00,0.0149
2885.00,0.0149
2884.00,0.0150
2883.00,0.0151
2882.00,0.0151
2881.00,0.0152
2880.00,0.0152
2879.00,0.0153
2878.00,0.0153
2877.00,0.0154
2876.00,0.0154
2875.00,0.0154
2874.00,0.0154
2873.00,0.0154
2872.00,0.0153
2871.00,0.0153
2870.00,0.0153
2869.00,0.0152
2868.00,0.0151
2867.00,0.0151
2866.00,0.0150
2865.00,0.0149
2864.00,0.0148
2863.00,0.0147
2862.00,0.0146
2861.00,0.0144
2860.00,0.0143
2859.00,0.0142
2858.00,0.0141
2857.00,0.0139
2856.00,0.0136
2855.00,0.0133
2854.00,0.0130
2853.00,0.0125
2852.00,0.0119
2851.00,0.0114
2850.00,0.0110
2849.00,0.0108
2848.00,0.0109
2847.00,0.0113
2846.00,0.0118
2845.00,0.0124
2844.00,0.0128
2843.00,0.0131
2842.00,0.0133
2841.00,0.0135
2840.00,0.0136
2839.00,0.0136
2838.00,0.0137
2837.00,0.0137
2836.00,0.0137
2835.00,0.0137
2834.00,0.0137
2833.00,0.0137
2832.00,0.0137
2831.00,0.0137
2830.00,0.0137
2829.00,0.0137
2828.00,0.0136
2827.00,0.0136
2826.00,0.0136
2825.00,0.0136
2824.00,0.0136
2823.00,0.0136
2822.00,0.0136
2821.00,0.0135
2820.00,0.0135
2819.00,0.0135
2818.00,0.0135
2817.00,0.0135
2816.00,0.0135
2815.00,0.0135
2814.00,0.0134
2813.00,0.0134
2812.00,0.0134
2811.00,0.0134
2810.00,0.0134
2809.00,0.0134
2808.00,0.0134
2807.00,0.0134
2806.00,0.0133
2805.00,0.0133
2804.00,0.0133
2803.00,0.0133
2802.00,0.0133
2801.00,0.0133
2800.00,0.0133
2799.00,0.0132
2798.00,0.0132
2797.00,0.0132
2796.00,0.0132
2795.00,0.0132
2794.00,0.0132
2793.00,0.0132
2792.00,0.0132
2791.00,0.0132
2790.00,0.0131
2789.00,0.0131
2788.00,0.0131
2787.00,0.0131
2786.00,0.0131
2785.00,0.0131
2784.00,0.0130
2783.00,0.0130
2782.00,0.0130
2781.00,0.0130
2780.00,0.0130
2779.00,0.0130
2778.00,0.0130
2777.00,0.0130
2776.00,0.0129
2775.00,0.0129
2774.00,0.0129
2773.00,0.0129
2772.00,0.0129
2771.00,0.0129
2770.00,0.0128
2769.00,0.0128
2768.00,0.0128
2767.00,0.0128
2766.00,0.0128
2765.00,0.0128
2764.00,0.0128
2763.00,0.0127
2762.00,0.0127
2761.00,0.0127
2760.00,0.0127
2759.00,0.0127
2758.00,0.0127
2757.00,0.0127
2756.00,0.0127
2755.00,0.0126
2754.00,0.0126
2753.00,0.0126
2752.00,0.0126
2751.00,0.0126
2750.00,0.0126
2749.00,0.0125
2748.00,0.0125
2747.00,0.0125
2746.00,0.0125
2745.00,0.0125
2744.00,0.0125
2743.00,0.0125
2742.00,0.0125
2741.00,0.0124
2740.00,0.0124
2739.00,0.0124
2738.00,0.0124
2737.00,0.0124
2736.00,0.0124
2735.00,0.0124
2734.00,0.0123
2733.00,0.0123
2732.00,0.0123
2731.00,0.0123
2730.00,0.0123
2729.00,0.0123
2728.00,0.0122
2727.00,0.0122
2726.00,0.0122
2725.00,0.0122
2724.00,0.0122
2723.00,0.0122
2722.00,0.0122
2721.00,0.0122
2720.00,0.0121
2719.00,0.0121
2718.00,0.0121
2717.00,0.0121
2716.00,0.0121
2715.00,0.0121
2714.00,0.0121
2713.00,0.0120
2712.00,0.0120
2711.00,0.0120
2710.00,0.0120
2709.00,0.0120
2708.00,0.0120
2707.00,0.0120
2706.00,0.0119
2705.00,0.0119
2704.00,0.0119
2703.00,0.0119
2702.00,0.0119
2701.00,0.0119
2700.00,0.0119
2699.00,0.0119
2698.00,0.0119
2697.00,0.0119
2696.00,0.0118
2695.00,0.0118
2694.00,0.0118
2693.00,0.0118
2692.00,0.0118
2691.00,0.0118
2690.00,0.0118
2689.00,0.0118
2688.00,0.0118
2687.00,0.0118
2686.00,0.0118
2685.00,0.0118
2684.00,0.0117
2683.00,0.0117
2682.00,0.0117
2681.00,0.0117
2680.00,0.0117
2679.00,0.0117
2678.00,0.0117
2677.00,0.0117
2676.00,0.0117
2675.00,0.0116
2674.00,0.0116
2673.00,0.0116
2672.00,0.0116
2671.00,0.0116
2670.00,0.0116
2669.00,0.0116
2668.00,0.0116
2667.00,0.0116
2666.00,0.0117
2665.00,0.0117
2664.00,0.0117
2663.00,0.0118
2662.00,0.0118
2661.00,0.0118
2660.00,0.0118
2659.00,0.0118
2658.00,0.0118
2657.00,0.0118
2656.00,0.0118
2655.00,0.0118
2654.00,0.0118
2653.00,0.0118
2652.00,0.0118
2651.00,0.0118
2650.00,0.0118
2649.00,0.0118
2648.00,0.0118
2647.00,0.0118
2646.00,0.0117
2645.00,0.0117
2644.00,0.0117
2643.00,0.0117
2642.00,0.0117
2641.00,0.0117
2640.00,0.0117
2639.00,0.0116
2638.00,0.0116
2637.00,0.0116
2636.00,0.0116
2635.00,0.0116
2634.00,0.0116
2633.00,0.0116
2632.00,0.0116
2631.00,0.0115
2630.00,0.0115
2629.00,0.0115
2628.00,0.0115
2627.00,0.0115
2626.00,0.0114
2625.00,0.0114
2624.00,0.0114
2623.00,0.0114
2622.00,0.0114
2621.00,0.0114
2620.00,0.0114
2619.00,0.0114
2618.00,0.0113
2617.00,0.0113
2616.00,0.0113
2615.00,0.0113
2614.00,0.0113
2613.00,0.0113
2612.00,0.0112
2611.00,0.0112
2610.00,0.0112
2609.00,0.0112
2608.00,0.0112
2607.00,0.0111
2606.00,0.0111
2605.00,0.0111
2604.00,0.0111
2603.00,0.0111
2602.00,0.0111
2601.00,0.0111
2600.00,0.0111
2599.00,0.0111
2598.00,0.0110
2597.00,0.0110
2596.00,0.0110
2595.00,0.0110
2594.00,0.0110
2593.00,0.0109
2592.00,0.0109
2591.00,0.0109
2590.00,0.0109
2589.00,0.0109
2588.00,0.0109
2587.00,0.0109
2586.00,0.0109
2585.00,0.0108
2584.00,0.0108
2583.00,0.0108
2582.00,0.0108
2581.00,0.0108
2580.00,0.0107
2579.00,0.0107
2578.00,0.0107
2577.00,0.0107
2576.00,0.0107
2575.00,0.0107
2574.00,0.0107
2573.00,0.0107
2572.00,0.0107
2571.00,0.0106
2570.00,0.0106
2569.00,0.0106
2568.00,0.0106
2567.00,0.0106
2566.00,0.0106
2565.00,0.0106
2564.00,0.0105
2563.00,0.0105
2562.00,0.0105
2561.00,0.0105
2560.00,0.0105
2559.00,0.0105
2558.00,0.0105
2557.00,0.0105
2556.00,0.0105
2555.00,0.0105
2554.00,0.0105
2553.00,0.0104
2552.00,0.0104
2551.00,0.0104
2550.00,0.0104
2549.00,0.0104
2548.00,0.0104
2547.00,0.0104
2546.00,0.0104
2545.00,0.0104
2544.00,0.0104
2543.00,0.0104
2542.00,0.0103
2541.00,0.0103
2540.00,0.0103
2539.00,0.0103
2538.00,0.0103
2537.00,0.0102
2536.00,0.0102
2535.00,0.0102
2534.00,0.0102
2533.00,0.0102
2532.00,0.0102
2531.00,0.0102
2530.00,0.0102
2529.00,0.0102
2528.00,0.0102
2527.00,0.0102
2526.00,0.0102
2525.00,0.0102
2524.00,0.0102
2523.00,0.0102
2522.00,0.0102
2521.00,0.0102
2520.00,0.0102
2519.00,0.0102
2518.00,0.0101
2517.00,0.0101
2516.00,0.0101
2515.00,0.0101
2514.00,0.0101
2513.00,0.0101
2512.00,0.0101
2511.00,0.0101
2510.00,0.0101
2509.00,0.0101
2508.00,0.0101
2507.00,0.0101
2506.00,0.0101
2505.00,0.0100
2504.00,0.0100
2503.00,0.0100
2502.00,0.0100
2501.00,0.0100
2500.00,0.0100
2499.00,0.0100
2498.00,0.0100
2497.00,0.0100
2496.00,0.0100
2495.00,0.0100
2494.00,0.0100
2493.00,0.0100
2492.00,0.0100
2491.00,0.0100
2490.00,0.0100
2489.00,0.0100
2488.00,0.0099
2487.00,0.0099
2486.00,0.0099
2485.00,0.0099
2484.00,0.0099
2483.00,0.0099
2482.00,0.0099
2481.00,0.0099
2480.00,0.0099
2479.00,0.0099
2478.00,0.0099
2477.00,0.0099
2476.00,0.0098
2475.00,0.0098
2474.00,0.0098
2473.00,0.0098
2472.00,0.0098
2471.00,0.0098
2470.00,0.0098
2469.00,0.0098
2468.00,0.0099
2467.00,0.0099
2466.00,0.0099
2465.00,0.0099
2464.00,0.0099
2463.00,0.0099
2462.00,0.0098
2461.00,0.0098
2460.00,0.0098
2459.00,0.0098
2458.00,0.0099
2457.00,0.0099
2456.00,0.0099
2455.00,0.0099
2454.00,0.0099
2453.00,0.0099
2452.00,0.0099
2451.00,0.0098
2450.00,0.0098
2449.00,0.0098
2448.00,0.0098
2447.00,0.0098
2446.00,0.0097
2445.00,0.0097
2444.00,0.0097
2443.00,0.0097
2442.00,0.0097
2441.00,0.0097
2440.00,0.0097
2439.00,0.0096
2438.00,0.0096
2437.00,0.0096
2436.00,0.0096
2435.00,0.0096
2434.00,0.0096
2433.00,0.0096
2432.00,0.0096
2431.00,0.0096
2430.00,0.0095
2429.00,0.0095
2428.00,0.0095
2427.00,0.0095
2426.00,0.0095
2425.00,0.0095
2424.00,0.0095
2423.00,0.0095
2422.00,0.0094
2421.00,0.0094
2420.00,0.0094
2419.00,0.0094
2418.00,0.0094
2417.00,0.0093
2416.00,0.0093
2415.00,0.0093
2414.00,0.0094
2413.00,0.0094
2412.00,0.0094
2411.00,0.0094
2410.00,0.0094
2409.00,0.0093
2408.00,0.0093
2407.00,0.0092
2406.00,0.0092
2405.00,0.0092
2404.00,0.0092
2403.00,0.0092
2402.00,0.0092
2401.00,0.0092
2400.00,0.0092
2399.00,0.0091
2398.00,0.0091
2397.00,0.0091
2396.00,0.0091
2395.00,0.0091
2394.00,0.0091
2393.00,0.0091
2392.00,0.0091
2391.00,0.0091
2390.00,0.0091
2389.00,0.0090
2388.00,0.0090
2387.00,0.0090
2386.00,0.0090
2385.00,0.0090
2384.00,0.0089
2383.00,0.0089
2382.00,0.0089
2381.00,0.0089
2380.00,0.0089
2379.00,0.0089
2378.00,0.0089
2377.00,0.0089
2376.00,0.0089
2375.00,0.0089
2374.00,0.0089
2373.00,0.0089
2372.00,0.0088
2371.00,0.0088
2370.00,0.0088
2369.00,0.0088
2368.00,0.0088
2367.00,0.0088
2366.00,0.0088
2365.00,0.0088
2364.00,0.0088
2363.00,0.0088
2362.00,0.0089
2361.00,0.0089
2360.00,0.0089
2359.00,0.0089
2358.00,0.0089
2357.00,0.0089
2356.00,0.0089
2355.00,0.0088
2354.00,0.0088
2353.00,0.0088
2352.00,0.0088
2351.00,0.0088
2350.00,0.0089
2349.00,0.0090
2348.00,0.0091
2347.00,0.0091
2346.00,0.0091
2345.00,0.0091
2344.00,0.0091
2343.00,0.0091
2342.00,0.0091
2341.00,0.0091
2340.00,0.0091
2339.00,0.0091
2338.00,0.0091
2337.00,0.0091
2336.00,0.0091
2335.00,0.0091
2334.00,0.0091
2333.00,0.0091
2332.00,0.0090
2331.00,0.0090
2330.00,0.0091
2329.00,0.0092
2328.00,0.0095
2327.00,0.0098
2326.00,0.0101
2325.00,0.0102
2324.00,0.0101
2323.00,0.0100
2322.00,0.0098
2321.00,0.0096
2320.00,0.0095
2319.00,0.0095
2318.00,0.0094
2317.00,0.0094
2316.00,0.0094
2315.00,0.0094
2314.00,0.0093
2313.00,0.0093
2312.00,0.0092
2311.00,0.0092
2310.00,0.0092
2309.00,0.0092
2308.00,0.0092
2307.00,0.0092
2306.00,0.0092
2305.00,0.0092
2304.00,0.0092
2303.00,0.0093
2302.00,0.0093
2301.00,0.0093
2300.00,0.0093
2299.00,0.0093
2298.00,0.0093
2297.00,0.0094
2296.00,0.0094
2295.00,0.0095
2294.00,0.0095
2293.00,0.0096
2292.00,0.0097
2291.00,0.0097
2290.00,0.0098
2289.00,0.0098
2288.00,0.0098
2287.00,0.0098
2286.00,0.0098
2285.00,0.0097
2284.00,0.0096
2283.00,0.0096
2282.00,0.0095
2281.00,0.0095
2280.00,0.0095
2279.00,0.0095
2278.00,0.0095
2277.00,0.0094
2276.00,0.0094
2275.00,0.0094
2274.00,0.0093
2273.00,0.0093
2272.00,0.0093
2271.00,0.0093
2270.00,0.0092
2269.00,0.0092
2268.00,0.0092
2267.00,0.0091
2266.00,0.0091
2265.00,0.0090
2264.00,0.0090
2263.00,0.0091
2262.00,0.0091
2261.00,0.0091
2260.00,0.0092
2259.00,0.0091
2258.00,0.0091
2257.00,0.0090
2256.00,0.0089
2255.00,0.0088
2254.00,0.0088
2253.00,0.0088
2252.00,0.0088
2251.00,0.0089
2250.00,0.0089
2249.00,0.0089
2248.00,0.0089
2247.00,0.0089
2246.00,0.0089
2245.00,0.0089
2244.00,0.0089
2243.00,0.0088
2242.00,0.0088
2241.00,0.0088
2240.00,0.0088
2239.00,0.0088
2238.00,0.0088
2237.00,0.0088
2236.00,0.0088
2235.00,0.0088
2234.00,0.0088
2233.00,0.0089
2232.00,0.0089
2231.00,0.0089
2230.00,0.0088
2229.00,0.0088
2228.00,0.0087
2227.00,0.0087
2226.00,0.0087
2225.00,0.0087
2224.00,0.0087
2223.00,0.0087
2222.00,0.0087
2221.00,0.0086
2220.00,0.0086
2219.00,0.0086
2218.00,0.0085
2217.00,0.0086
2216.00,0.0086
2215.00,0.0087
2214.00,0.0087
2213.00,0.0087
2212.00,0.0087
2211.00,0.0086
2210.00,0.0086
2209.00,0.0085
2208.00,0.0085
2207.00,0.0086
2206.00,0.0086
2205.00,0.0086
2204.00,0.0087
2203.00,0.0087
2202.00,0.0087
2201.00,0.0087
2200.00,0.0087
2199.00,0.0087
2198.00,0.0087
2197.00,0.0087
2196.00,0.0087
2195.00,0.0087
2194.00,0.0087
2193.00,0.0088
2192.00,0.0088
2191.00,0.0087
2190.00,0.0087
2189.00,0.0087
2188.00,0.0088
2187.00,0.0088
2186.00,0.0088
2185.00,0.0086
2184.00,0.0085
2183.00,0.0083
2182.00,0.0082
2181.00,0.0081
2180.00,0.0082
2179.00,0.0082
2178.00,0.0081
2177.00,0.0080
2176.00,0.0080
2175.00,0.0080
2174.00,0.0081
2173.00,0.0082
2172.00,0.0084
2171.00,0.0086
2170.00,0.0088
2169.00,0.0089
2168.00,0.0090
2167.00,0.0091
2166.00,0.0092
2165.00,0.0093
2164.00,0.0094
2163.00,0.0094
2162.00,0.0089
2161.00,0.0079
2160.00,0.0067
2159.00,0.0057
2158.00,0.0052
2157.00,0.0053
2156.00,0.0056
2155.00,0.0059
2154.00,0.0062
2153.00,0.0064
2152.00,0.0066
2151.00,0.0067
2150.00,0.0068
2149.00,0.0068
2148.00,0.0068
2147.00,0.0068
2146.00,0.0069
2145.00,0.0069
2144.00,0.0069
2143.00,0.0069
2142.00,0.0069
2141.00,0.0070
2140.00,0.0070
2139.00,0.0070
2138.00,0.0069
2137.00,0.0068
2136.00,0.0066
2135.00,0.0064
2134.00,0.0063
2133.00,0.0064
2132.00,0.0065
2131.00,0.0066
2130.00,0.0068
2129.00,0.0069
2128.00,0.0070
2127.00,0.0072
2126.00,0.0073
2125.00,0.0074
2124.00,0.0075
2123.00,0.0076
2122.00,0.0077
2121.00,0.0077
2120.00,0.0078
2119.00,0.0079
2118.00,0.0079
2117.00,0.0080
2116.00,0.0080
2115.00,0.0080
2114.00,0.0080
2113.00,0.0080
2112.00,0.0080
2111.00,0.0080
2110.00,0.0080
2109.00,0.0080
2108.00,0.0080
2107.00,0.0080
2106.00,0.0080
2105.00,0.0080
2104.00,0.0080
2103.00,0.0080
2102.00,0.0080
2101.00,0.0080
2100.00,0.0079
2099.00,0.0079
2098.00,0.0078
2097.00,0.0077
2096.00,0.0076
2095.00,0.0075
2094.00,0.0075
2093.00,0.0076
2092.00,0.0077
2091.00,0.0078
2090.00,0.0078
2089.00,0.0079
2088.00,0.0079
2087.00,0.0079
2086.00,0.0080
2085.00,0.0080
2084.00,0.0080
2083.00,0.0080
2082.00,0.0080
2081.00,0.0080
2080.00,0.0080
2079.00,0.0080
2078.00,0.0080
2077.00,0.0080
2076.00,0.0080
2075.00,0.0079
2074.00,0.0079
2073.00,0.0079
2072.00,0.0079
2071.00,0.0078
2070.00,0.0078
2069.00,0.0079
2068.00,0.0079
2067.00,0.0078
2066.00,0.0078
2065.00,0.0077
2064.00,0.0077
2063.00,0.0077
2062.00,0.0077
2061.00,0.0077
2060.00,0.0078
2059.00,0.0078
2058.00,0.0078
2057.00,0.0078
2056.00,0.0078
2055.00,0.0078
2054.00,0.0080
2053.00,0.0083
2052.00,0.0086
2051.00,0.0086
2050.00,0.0084
2049.00,0.0081
2048.00,0.0079
2047.00,0.0077
2046.00,0.0077
2045.00,0.0076
2044.00,0.0076
2043.00,0.0077
2042.00,0.0077
2041.00,0.0078
2040.00,0.0077
2039.00,0.0077
2038.00,0.0076
2037.00,0.0075
2036.00,0.0075
2035.00,0.0074
2034.00,0.0072
2033.00,0.0071
2032.00,0.0070
2031.00,0.0070
2030.00,0.0069
2029.00,0.0068
2028.00,0.0068
2027.00,0.0067
2026.00,0.0066
2025.00,0.0066
2024.00,0.0067
2023.00,0.0068
2022.00,0.0068
2021.00,0.0068
2020.00,0.0067
2019.00,0.0067
2018.00,0.0066
2017.00,0.0066
2016.00,0.0066
2015.00,0.0066
2014.00,0.0067
2013.00,0.0069
2012.00,0.0069
2011.00,0.0069
2010.00,0.0068
2009.00,0.0066
2008.00,0.0064
2007.00,0.0062
2006.00,0.0061
2005.00,0.0061
2004.00,0.0063
2003.00,0.0064
2002.00,0.0065
2001.00,0.0067
2000.00,0.0068
1999.00,0.0069
1998.00,0.0070
1997.00,0.0070
1996.00,0.0071
1995.00,0.0071
1994.00,0.0071
1993.00,0.0071
1992.00,0.0071
1991.00,0.0071
1990.00,0.0071
1989.00,0.0071
1988.00,0.0072
1987.00,0.0072
1986.00,0.0073
1985.00,0.0074
1984.00,0.0075
1983.00,0.0076
1982.00,0.0078
1981.00,0.0078
1980.00,0.0077
1979.00,0.0072
1978.00,0.0068
1977.00,0.0064
1976.00,0.0061
1975.00,0.0060
1974.00,0.0059
1973.00,0.0059
1972.00,0.0059
1971.00,0.0060
1970.00,0.0061
1969.00,0.0062
1968.00,0.0062
1967.00,0.0062
1966.00,0.0062
1965.00,0.0062
1964.00,0.0062
1963.00,0.0061
1962.00,0.0060
1961.00,0.0059
1960.00,0.0058
1959.00,0.0058
1958.00,0.0058
1957.00,0.0058
1956.00,0.0059
1955.00,0.0060
1954.00,0.0060
1953.00,0.0060
1952.00,0.0061
1951.00,0.0061
1950.00,0.0061
1949.00,0.0062
1948.00,0.0061
1947.00,0.0061
1946.00,0.0061
1945.00,0.0060
1944.00,0.0061
1943.00,0.0061
1942.00,0.0061
1941.00,0.0061
1940.00,0.0061
1939.00,0.0061
1938.00,0.0061
1937.00,0.0061
1936.00,0.0061
1935.00,0.0061
1934.00,0.0061
1933.00,0.0061
1932.00,0.0061
1931.00,0.0062
1930.00,0.0062
1929.00,0.0062
1928.00,0.0062
1927.00,0.0062
1926.00,0.0062
1925.00,0.0062
1924.00,0.0062
1923.00,0.0063
1922.00,0.0063
1921.00,0.0064
1920.00,0.0064
1919.00,0.0064
1918.00,0.0064
1917.00,0.0064
1916.00,0.0063
1915.00,0.0063
1914.00,0.0063
1913.00,0.0063
1912.00,0.0063
1911.00,0.0063
1910.00,0.0063
1909.00,0.0063
1908.00,0.0063
1907.00,0.0063
1906.00,0.0063
1905.00,0.0063
1904.00,0.0063
1903.00,0.0063
1902.00,0.0063
1901.00,0.0063
1900.00,0.0063
1899.00,0.0062
1898.00,0.0062
1897.00,0.0062
1896.00,0.0062
1895.00,0.0062
1894.00,0.0062
1893.00,0.0062
1892.00,0.0062
1891.00,0.0062
1890.00,0.0062
1889.00,0.0062
1888.00,0.0062
1887.00,0.0062
1886.00,0.0062
1885.00,0.0062
1884.00,0.0062
1883.00,0.0062
1882.00,0.0062
1881.00,0.0062
1880.00,0.0062
1879.00,0.0062
1878.00,0.0062
1877.00,0.0062
1876.00,0.0062
1875.00,0.0062
1874.00,0.0061
1873.00,0.0061
1872.00,0.0061
1871.00,0.0061
1870.00,0.0061
1869.00,0.0061
1868.00,0.0061
1867.00,0.0061
1866.00,0.0061
1865.00,0.0061
1864.00,0.0061
1863.00,0.0061
1862.00,0.0061
1861.00,0.0061
1860.00,0.0061
1859.00,0.0061
1858.00,0.0060
1857.00,0.0060
1856.00,0.0060
1855.00,0.0060
1854.00,0.0060
1853.00,0.0060
1852.00,0.0060
1851.00,0.0060
1850.00,0.0060
1849.00,0.0060
1848.00,0.0060
1847.00,0.0060
1846.00,0.0060
1845.00,0.0060
1844.00,0.0059
1843.00,0.0059
1842.00,0.0059
1841.00,0.0059
1840.00,0.0059
1839.00,0.0059
1838.00,0.0059
1837.00,0.0059
1836.00,0.0059
1835.00,0.0059
1834.00,0.0059
1833.00,0.0059
1832.00,0.0059
1831.00,0.0059
1830.00,0.0059
1829.00,0.0059
1828.00,0.0059
1827.00,0.0059
1826.00,0.0059
1825.00,0.0059
1824.00,0.0059
1823.00,0.0059
1822.00,0.0059
1821.00,0.0059
1820.00,0.0058
1819.00,0.0057
1818.00,0.0056
1817.00,0.0056
1816.00,0.0056
1815.00,0.0057
1814.00,0.0057
1813.00,0.0057
1812.00,0.0058
1811.00,0.0058
1810.00,0.0058
1809.00,0.0058
1808.00,0.0058
1807.00,0.0058
1806.00,0.0058
1805.00,0.0058
1804.00,0.0058
1803.00,0.0058
1802.00,0.0058
1801.00,0.0058
1800.00,0.0058
1799.00,0.0058
1798.00,0.0058
1797.00,0.0058
1796.00,0.0058
1795.00,0.0059
1794.00,0.0058
1793.00,0.0058
1792.00,0.0058
1791.00,0.0058
1790.00,0.0058
1789.00,0.0058
1788.00,0.0058
1787.00,0.0058
1786.00,0.0057
1785.00,0.0058
1784.00,0.0058
1783.00,0.0058
1782.00,0.0058
1781.00,0.0058
1780.00,0.0058
1779.00,0.0058
1778.00,0.0057
1777.00,0.0057
1776.00,0.0058
1775.00,0.0059
1774.00,0.0059
1773.00,0.0059
1772.00,0.0058
1771.00,0.0057
1770.00,0.0057
1769.00,0.0057
1768.00,0.0057
1767.00,0.0058
1766.00,0.0058
1765.00,0.0058
1764.00,0.0058
1763.00,0.0058
1762.00,0.0058
1761.00,0.0058
1760.00,0.0058
1759.00,0.0058
1758.00,0.0059
1757.00,0.0059
1756.00,0.0059
1755.00,0.0060
1754.00,0.0060
1753.00,0.0060
1752.00,0.0061
1751.00,0.0061
1750.00,0.0062
1749.00,0.0062
1748.00,0.0063
1747.00,0.0063
1746.00,0.0063
1745.00,0.0064
1744.00,0.0064
1743.00,0.0064
1742.00,0.0065
1741.00,0.0065
1740.00,0.0065
1739.00,0.0065
1738.00,0.0066
1737.00,0.0066
1736.00,0.0068
1735.00,0.0068
1734.00,0.0068
1733.00,0.0068
1732.00,0.0068
1731.00,0.0068
1730.00,0.0068
1729.00,0.0069
1728.00,0.0069
1727.00,0.0069
1726.00,0.0070
1725.00,0.0070
1724.00,0.0071
1723.00,0.0071
1722.00,0.0072
1721.00,0.0073
1720.00,0.0074
1719.00,0.0076
1718.00,0.0077
1717.00,0.0077
1716.00,0.0078
1715.00,0.0079
1714.00,0.0080
1713.00,0.0082
1712.00,0.0084
1711.00,0.0086
1710.00,0.0089
1709.00,0.0092
1708.00,0.0095
1707.00,0.0100
1706.00,0.0106
1705.00,0.0112
1704.00,0.0119
1703.00,0.0126
1702.00,0.0134
1701.00,0.0148
1700.00,0.0167
1699.00,0.0183
1698.00,0.0193
1697.00,0.0201
1696.00,0.0210
1695.00,0.0218
1694.00,0.0224
1693.00,0.0228
1692.00,0.0232
1691.00,0.0238
1690.00,0.0244
1689.00,0.0251
1688.00,0.0258
1687.00,0.0264
1686.00,0.0270
1685.00,0.0279
1684.00,0.0291
1683.00,0.0302
1682.00,0.0310
1681.00,0.0317
1680.00,0.0325
1679.00,0.0332
1678.00,0.0339
1677.00,0.0346
1676.00,0.0356
1675.00,0.0368
1674.00,0.0379
1673.00,0.0387
1672.00,0.0394
1671.00,0.0403
1670.00,0.0414
1669.00,0.0427
1668.00,0.0438
1667.00,0.0447
1666.00,0.0454
1665.00,0.0461
1664.00,0.0470
1663.00,0.0481
1662.00,0.0493
1661.00,0.0503
1660.00,0.0511
1659.00,0.0519
1658.00,0.0525
1657.00,0.0531
1656.00,0.0536
1655.00,0.0542
1654.00,0.0551
1653.00,0.0567
1652.00,0.0579
1651.00,0.0583
1650.00,0.0582
1649.00,0.0583
1648.00,0.0586
1647.00,0.0593
1646.00,0.0601
1645.00,0.0606
1644.00,0.0609
1643.00,0.0611
1642.00,0.0613
1641.00,0.0615
1640.00,0.0618
1639.00,0.0621
1638.00,0.0623
1637.00,0.0627
1636.00,0.0634
1635.00,0.0642
1634.00,0.0648
1633.00,0.0651
1632.00,0.0653
1631.00,0.0655
1630.00,0.0658
1629.00,0.0661
1628.00,0.0667
1627.00,0.0671
1626.00,0.0675
1625.00,0.0677
1624.00,0.0681
1623.00,0.0685
1622.00,0.0687
1621.00,0.0688
1620.00,0.0686
1619.00,0.0682
1618.00,0.0677
1617.00,0.0669
1616.00,0.0660
1615.00,0.0650
1614.00,0.0638
1613.00,0.0624
1612.00,0.0608
1611.00,0.0591
1610.00,0.0574
1609.00,0.0556
1608.00,0.0538
1607.00,0.0521
1606.00,0.0505
1605.00,0.0489
1604.00,0.0474
1603.00,0.0459
1602.00,0.0446
1601.00,0.0434
1600.00,0.0422
1599.00,0.0412
1598.00,0.0402
1597.00,0.0393
1596.00,0.0385
1595.00,0.0377
1594.00,0.0370
1593.00,0.0363
1592.00,0.0357
1591.00,0.0351
1590.00,0.0346
1589.00,0.0341
1588.00,0.0337
1587.00,0.0333
1586.00,0.0330
1585.00,0.0328
1584.00,0.0325
1583.00,0.0324
1582.00,0.0323
1581.00,0.0323
1580.00,0.0323
1579.00,0.0323
1578.00,0.0325
1577.00,0.0327
1576.00,0.0329
1575.00,0.0332
1574.00,0.0334
1573.00,0.0336
1572.00,0.0337
1571.00,0.0340
1570.00,0.0346
1569.00,0.0353
1568.00,0.0359
1567.00,0.0363
1566.00,0.0368
1565.00,0.0375
1564.00,0.0381
1563.00,0.0386
1562.00,0.0390
1561.00,0.0393
1560.00,0.0401
1559.00,0.0416
1558.00,0.0432
1557.00,0.0441
1556.00,0.0445
1555.00,0.0451
1554.00,0.0458
1553.00,0.0465
1552.00,0.0471
1551.00,0.0478
1550.00,0.0486
1549.00,0.0493
1548.00,0.0499
1547.00,0.0504
1546.00,0.0509
1545.00,0.0515
1544.00,0.0522
1543.00,0.0528
1542.00,0.0534
1541.00,0.0541
1540.00,0.0551
1539.00,0.0560
1538.00,0.0564
1537.00,0.0566
1536.00,0.0566
1535.00,0.0567
1534.00,0.0572
1533.00,0.0579
1532.00,0.0585
1531.00,0.0588
1530.00,0.0590
1529.00,0.0592
1528.00,0.0595
1527.00,0.0598
1526.00,0.0603
1525.00,0.0606
1524.00,0.0608
1523.00,0.0610
1522.00,0.0614
1521.00,0.0619
1520.00,0.0623
1519.00,0.0624
1518.00,0.0625
1517.00,0.0625
1516.00,0.0625
1515.00,0.0623
1514.00,0.0619
1513.00,0.0612
1512.00,0.0605
1511.00,0.0598
1510.00,0.0590
1509.00,0.0583
1508.00,0.0573
1507.00,0.0561
1506.00,0.0550
1505.00,0.0539
1504.00,0.0529
1503.00,0.0518
1502.00,0.0508
1501.00,0.0497
1500.00,0.0486
1499.00,0.0475
1498.00,0.0464
1497.00,0.0453
1496.00,0.0441
1495.00,0.0430
1494.00,0.0419
1493.00,0.0409
1492.00,0.0399
1491.00,0.0388
1490.00,0.0378
1489.00,0.0368
1488.00,0.0359
1487.00,0.0351
1486.00,0.0344
1485.00,0.0338
1484.00,0.0332
1483.00,0.0326
1482.00,0.0321
1481.00,0.0317
1480.00,0.0314
1479.00,0.0311
1478.00,0.0308
1477.00,0.0306
1476.00,0.0305
1475.00,0.0305
1474.00,0.0305
1473.00,0.0306
1472.00,0.0308
1471.00,0.0311
1470.00,0.0312
1469.00,0.0313
1468.00,0.0312
1467.00,0.0312
1466.00,0.0313
1465.00,0.0314
1464.00,0.0315
1463.00,0.0317
1462.00,0.0319
1461.00,0.0320
1460.00,0.0323
1459.00,0.0326
1458.00,0.0331
1457.00,0.0338
1456.00,0.0344
1455.00,0.0347
1454.00,0.0348
1453.00,0.0348
1452.00,0.0348
1451.00,0.0348
1450.00,0.0348
1449.00,0.0347
1448.00,0.0346
1447.00,0.0345
1446.00,0.0344
1445.00,0.0342
1444.00,0.0339
1443.00,0.0336
1442.00,0.0333
1441.00,0.0329
1440.00,0.0326
1439.00,0.0322
1438.00,0.0319
1437.00,0.0315
1436.00,0.0313
1435.00,0.0310
1434.00,0.0308
1433.00,0.0304
1432.00,0.0301
1431.00,0.0299
1430.00,0.0297
1429.00,0.0296
1428.00,0.0295
1427.00,0.0294
1426.00,0.0294
1425.00,0.0294
1424.00,0.0295
1423.00,0.0295
1422.00,0.0296
1421.00,0.0296
1420.00,0.0298
1419.00,0.0300
1418.00,0.0303
1417.00,0.0305
1416.00,0.0307
1415.00,0.0308
1414.00,0.0310
1413.00,0.0312
1412.00,0.0313
1411.00,0.0315
1410.00,0.0317
1409.00,0.0319
1408.00,0.0320
1407.00,0.0322
1406.00,0.0323
1405.00,0.0325
1404.00,0.0326
1403.00,0.0327
1402.00,0.0327
1401.00,0.0327
1400.00,0.0327
1399.00,0.0327
1398.00,0.0328
1397.00,0.0328
1396.00,0.0327
1395.00,0.0328
1394.00,0.0328
1393.00,0.0328
1392.00,0.0328
1391.00,0.0327
1390.00,0.0327
1389.00,0.0326
1388.00,0.0326
1387.00,0.0325
1386.00,0.0325
1385.00,0.0323
1384.00,0.0322
1383.00,0.0320
1382.00,0.0318
1381.00,0.0317
1380.00,0.0315
1379.00,0.0313
1378.00,0.0312
1377.00,0.0310
1376.00,0.0309
1375.00,0.0307
1374.00,0.0307
1373.00,0.0306
1372.00,0.0305
1371.00,0.0304
1370.00,0.0303
1369.00,0.0302
1368.00,0.0300
1367.00,0.0297
1366.00,0.0295
1365.00,0.0292
1364.00,0.0290
1363.00,0.0288
1362.00,0.0286
1361.00,0.0285
1360.00,0.0283
1359.00,0.0282
1358.00,0.0281
1357.00,0.0279
1356.00,0.0278
1355.00,0.0277
1354.00,0.0277
1353.00,0.0276
1352.00,0.0276
1351.00,0.0275
1350.00,0.0275
1349.00,0.0275
1348.00,0.0275
1347.00,0.0275
1346.00,0.0275
1345.00,0.0276
1344.00,0.0276
1343.00,0.0276
1342.00,0.0277
1341.00,0.0277
1340.00,0.0278
1339.00,0.0279
1338.00,0.0280
1337.00,0.0280
1336.00,0.0281
1335.00,0.0281
1334.00,0.0281
1333.00,0.0281
1332.00,0.0281
1331.00,0.0281
1330.00,0.0281
1329.00,0.0281
1328.00,0.0281
1327.00,0.0281
1326.00,0.0281
1325.00,0.0281
1324.00,0.0281
1323.00,0.0281
1322.00,0.0281
1321.00,0.0281
1320.00,0.0281
1319.00,0.0281
1318.00,0.0281
1317.00,0.0281
1316.00,0.0281
1315.00,0.0281
1314.00,0.0281
1313.00,0.0281
1312.00,0.0280
1311.00,0.0280
1310.00,0.0280
1309.00,0.0279
1308.00,0.0278
1307.00,0.0278
1306.00,0.0277
1305.00,0.0277
1304.00,0.0276
1303.00,0.0275
1302.00,0.0275
1301.00,0.0274
1300.00,0.0273
1299.00,0.0273
1298.00,0.0272
1297.00,0.0272
1296.00,0.0271
1295.00,0.0271
1294.00,0.0271
1293.00,0.0271
1292.00,0.0271
1291.00,0.0271
1290.00,0.0272
1289.00,0.0272
1288.00,0.0272
1287.00,0.0272
1286.00,0.0272
1285.00,0.0272
1284.00,0.0272
1283.00,0.0272
1282.00,0.0272
1281.00,0.0272
1280.00,0.0272
1279.00,0.0272
1278.00,0.0272
1277.00,0.0271
1276.00,0.0271
1275.00,0.0271
1274.00,0.0272
1273.00,0.0272
1272.00,0.0273
1271.00,0.0273
1270.00,0.0274
1269.00,0.0275
1268.00,0.0276
1267.00,0.0277
1266.00,0.0278
1265.00,0.0280
1264.00,0.0281
1263.00,0.0283
1262.00,0.0285
1261.00,0.0287
1260.00,0.0289
1259.00,0.0291
1258.00,0.0294
1257.00,0.0296
1256.00,0.0299
1255.00,0.0301
1254.00,0.0304
1253.00,0.0306
1252.00,0.0309
1251.00,0.0311
1250.00,0.0313
1249.00,0.0315
1248.00,0.0317
1247.00,0.0319
1246.00,0.0320
1245.00,0.0322
1244.00,0.0323
1243.00,0.0324
1242.00,0.0326
1241.00,0.0327
1240.00,0.0327
1239.00,0.0328
1238.00,0.0329
1237.00,0.0329
1236.00,0.0329
1235.00,0.0328
1234.00,0.0328
1233.00,0.0328
1232.00,0.0327
1231.00,0.0326
1230.00,0.0326
1229.00,0.0325
1228.00,0.0324
1227.00,0.0322
1226.00,0.0321
1225.00,0.0320
1224.00,0.0318
1223.00,0.0316
1222.00,0.0314
1221.00,0.0312
1220.00,0.0310
1219.00,0.0308
1218.00,0.0305
1217.00,0.0303
1216.00,0.0300
1215.00,0.0297
1214.00,0.0295
1213.00,0.0293
1212.00,0.0290
1211.00,0.0287
1210.00,0.0285
1209.00,0.0283
1208.00,0.0280
1207.00,0.0277
1206.00,0.0275
1205.00,0.0272
1204.00,0.0269
1203.00,0.0266
1202.00,0.0264
1201.00,0.0262
1200.00,0.0259
1199.00,0.0257
1198.00,0.0255
1197.00,0.0254
1196.00,0.0252
1195.00,0.0250
1194.00,0.0249
1193.00,0.0248
1192.00,0.0247
1191.00,0.0246
1190.00,0.0245
1189.00,0.0245
1188.00,0.0244
1187.00,0.0243
1186.00,0.0243
1185.00,0.0242
1184.00,0.0242
1183.00,0.0242
1182.00,0.0242
1181.00,0.0243
1180.00,0.0243
1179.00,0.0244
1178.00,0.0246
1177.00,0.0248
1176.00,0.0250
1175.00,0.0252
1174.00,0.0254
1173.00,0.0257
1172.00,0.0258
1171.00,0.0260
1170.00,0.0262
1169.00,0.0264
1168.00,0.0265
1167.00,0.0266
1166.00,0.0268
1165.00,0.0269
1164.00,0.0269
1163.00,0.0270
1162.00,0.0271
1161.00,0.0271
1160.00,0.0271
1159.00,0.0271
1158.00,0.0270
1157.00,0.0269
1156.00,0.0268
1155.00,0.0267
1154.00,0.0267
1153.00,0.0265
1152.00,0.0264
1151.00,0.0262
1150.00,0.0261
1149.00,0.0259
1148.00,0.0258
1147.00,0.0256
1146.00,0.0255
1145.00,0.0254
1144.00,0.0252
1143.00,0.0251
1142.00,0.0251
1141.00,0.0250
1140.00,0.0249
1139.00,0.0249
1138.00,0.0248
1137.00,0.0248
1136.00,0.0248
1135.00,0.0248
1134.00,0.0248
1133.00,0.0248
1132.00,0.0248
1131.00,0.0249
1130.00,0.0249
1129.00,0.0250
1128.00,0.0250
1127.00,0.0250
1126.00,0.0250
1125.00,0.0250
1124.00,0.0250
1123.00,0.0250
1122.00,0.0250
1121.00,0.0250
1120.00,0.0250
1119.00,0.0250
1118.00,0.0250
1117.00,0.0250
1116.00,0.0250
1115.00,0.0250
1114.00,0.0251
1113.00,0.0252
1112.00,0.0252
1111.00,0.0253
1110.00,0.0253
1109.00,0.0254
1108.00,0.0255
1107.00,0.0255
1106.00,0.0256
1105.00,0.0257
1104.00,0.0258
1103.00,0.0258
1102.00,0.0259
1101.00,0.0260
1100.00,0.0260
1099.00,0.0261
1098.00,0.0262
1097.00,0.0263
1096.00,0.0265
1095.00,0.0266
1094.00,0.0268
1093.00,0.0271
1092.00,0.0273
1091.00,0.0275
1090.00,0.0278
1089.00,0.0281
1088.00,0.0284
1087.00,0.0287
1086.00,0.0291
1085.00,0.0295
1084.00,0.0298
1083.00,0.0302
1082.00,0.0306
1081.00,0.0310
1080.00,0.0314
1079.00,0.0318
1078.00,0.0321
1077.00,0.0325
1076.00,0.0328
1075.00,0.0330
1074.00,0.0333
1073.00,0.0335
1072.00,0.0337
1071.00,0.0339
1070.00,0.0341
1069.00,0.0343
1068.00,0.0344
1067.00,0.0345
1066.00,0.0346
1065.00,0.0347
1064.00,0.0347
1063.00,0.0347
1062.00,0.0347
1061.00,0.0347
1060.00,0.0346
1059.00,0.0345
1058.00,0.0344
1057.00,0.0343
1056.00,0.0342
1055.00,0.0341
1054.00,0.0340
1053.00,0.0339
1052.00,0.0337
1051.00,0.0336
1050.00,0.0335
1049.00,0.0334
1048.00,0.0332
1047.00,0.0331
1046.00,0.0329
1045.00,0.0327
1044.00,0.0325
1043.00,0.0322
1042.00,0.0320
1041.00,0.0318
1040.00,0.0315
1039.00,0.0313
1038.00,0.0311
1037.00,0.0309
1036.00,0.0306
1035.00,0.0305
1034.00,0.0303
1033.00,0.0301
1032.00,0.0299
1031.00,0.0297
1030.00,0.0295
1029.00,0.0292
1028.00,0.0289
1027.00,0.0286
1026.00,0.0283
1025.00,0.0280
1024.00,0.0277
1023.00,0.0274
1022.00,0.0271
1021.00,0.0269
1020.00,0.0266
1019.00,0.0263
1018.00,0.0261
1017.00,0.0259
1016.00,0.0257
1015.00,0.0254
1014.00,0.0253
1013.00,0.0251
1012.00,0.0249
1011.00,0.0247
1010.00,0.0246
1009.00,0.0244
1008.00,0.0242
1007.00,0.0240
1006.00,0.0239
1005.00,0.0237
1004.00,0.0235
1003.00,0.0234
1002.00,0.0232
1001.00,0.0231
1000.00,0.0229
999.00,0.0228
998.00,0.0227
997.00,0.0225
996.00,0.0224
995.00,0.0223
994.00,0.0222
993.00,0.0220
992.00,0.0219
991.00,0.0218
990.00,0.0217
989.00,0.0217
988.00,0.0215
987.00,0.0215
986.00,0.0214
985.00,0.0214
984.00,0.0213
983.00,0.0212
982.00,0.0212
981.00,0.0211
980.00,0.0210
979.00,0.0210
978.00,0.0210
977.00,0.0209
976.00,0.0208
975.00,0.0208
974.00,0.0208
973.00,0.0208
972.00,0.0207
971.00,0.0207
970.00,0.0208
969.00,0.0208
968.00,0.0208
967.00,0.0209
966.00,0.0209
965.00,0.0210
964.00,0.0210
963.00,0.0209
962.00,0.0209
961.00,0.0209
960.00,0.0208
959.00,0.0206
958.00,0.0206
957.00,0.0205
956.00,0.0203
955.00,0.0202
954.00,0.0202
953.00,0.0201
952.00,0.0199
951.00,0.0199
950.00,0.0198
949.00,0.0198
948.00,0.0198
947.00,0.0198
946.00,0.0198
945.00,0.0198
944.00,0.0198
943.00,0.0197
942.00,0.0197
941.00,0.0197
940.00,0.0197
939.00,0.0197
938.00,0.0197
937.00,0.0198
936.00,0.0197
935.00,0.0197
934.00,0.0197
933.00,0.0197
932.00,0.0197
931.00,0.0196
930.00,0.0196
929.00,0.0196
928.00,0.0195
927.00,0.0194
926.00,0.0194
925.00,0.0193
924.00,0.0192
923.00,0.0191
922.00,0.0191
921.00,0.0190
920.00,0.0189
919.00,0.0189
918.00,0.0188
917.00,0.0188
916.00,0.0187
915.00,0.0187
914.00,0.0187
913.00,0.0187
912.00,0.0187
911.00,0.0187
910.00,0.0188
909.00,0.0188
908.00,0.0188
907.00,0.0188
906.00,0.0189
905.00,0.0189
904.00,0.0189
903.00,0.0189
902.00,0.0189
901.00,0.0189
900.00,0.0189
899.00,0.0188
898.00,0.0188
897.00,0.0188
896.00,0.0187
895.00,0.0186
894.00,0.0186
893.00,0.0185
892.00,0.0184
891.00,0.0184
890.00,0.0183
889.00,0.0183
888.00,0.0182
887.00,0.0181
886.00,0.0181
885.00,0.0181
884.00,0.0180
883.00,0.0180
882.00,0.0181
881.00,0.0181
880.00,0.0180
879.00,0.0180
878.00,0.0181
877.00,0.0181
876.00,0.0181
875.00,0.0181
874.00,0.0181
873.00,0.0181
872.00,0.0180
871.00,0.0180
870.00,0.0180
869.00,0.0179
868.00,0.0179
867.00,0.0179
866.00,0.0179
865.00,0.0179
864.00,0.0178
863.00,0.0178
862.00,0.0179
861.00,0.0179
860.00,0.0179
859.00,0.0180
858.00,0.0181
857.00,0.0181
856.00,0.0181
855.00,0.0182
854.00,0.0183
853.00,0.0184
852.00,0.0185
851.00,0.0185
850.00,0.0186
849.00,0.0186
848.00,0.0186
847.00,0.0185
846.00,0.0186
845.00,0.0187
844.00,0.0187
843.00,0.0188
842.00,0.0189
841.00,0.0191
840.00,0.0191
839.00,0.0192
838.00,0.0194
837.00,0.0195
836.00,0.0196
835.00,0.0197
834.00,0.0199
833.00,0.0201
832.00,0.0202
831.00,0.0203
830.00,0.0205
829.00,0.0206
828.00,0.0207
827.00,0.0208
826.00,0.0209
825.00,0.0211
824.00,0.0211
823.00,0.0212
822.00,0.0213
821.00,0.0214
820.00,0.0215
819.00,0.0216
818.00,0.0217
817.00,0.0218
816.00,0.0219
815.00,0.0220
814.00,0.0222
813.00,0.0224
812.00,0.0225
811.00,0.0226
810.00,0.0227
809.00,0.0229
808.00,0.0229
807.00,0.0230
806.00,0.0232
805.00,0.0233
804.00,0.0234
803.00,0.0235
802.00,0.0237
801.00,0.0239
800.00,0.0239
799.00,0.0240
798.00,0.0242
797.00,0.0243
796.00,0.0244
795.00,0.0246
794.00,0.0248
793.00,0.0251
792.00,0.0252
791.00,0.0254
790.00,0.0257
789.00,0.0259
788.00,0.0261
787.00,0.0263
786.00,0.0266
785.00,0.0268
784.00,0.0269
783.00,0.0270
782.00,0.0273
781.00,0.0275
780.00,0.0277
779.00,0.0279
778.00,0.0281
777.00,0.0283
776.00,0.0284
775.00,0.0286
774.00,0.0287
773.00,0.0289
772.00,0.0289
771.00,0.0290
770.00,0.0292
769.00,0.0294
768.00,0.0294
767.00,0.0295
766.00,0.0296
765.00,0.0297
764.00,0.0297
763.00,0.0298
762.00,0.0300
761.00,0.0301
760.00,0.0302
759.00,0.0303
758.00,0.0305
757.00,0.0306
756.00,0.0308
755.00,0.0309
754.00,0.0312
753.00,0.0314
752.00,0.0316
751.00,0.0318
750.00,0.0320
749.00,0.0322
748.00,0.0324
747.00,0.0325
746.00,0.0327
745.00,0.0328
744.00,0.0329
743.00,0.0330
742.00,0.0331
741.00,0.0332
740.00,0.0333
739.00,0.0334
738.00,0.0336
737.00,0.0338
736.00,0.0339
735.00,0.0340
734.00,0.0343
733.00,0.0345
732.00,0.0346
731.00,0.0348
730.00,0.0352
729.00,0.0355
728.00,0.0359
727.00,0.0363
726.00,0.0367
725.00,0.0372
724.00,0.0376
723.00,0.0380
722.00,0.0385
721.00,0.0389
720.00,0.0394
719.00,0.0398
718.00,0.0404
717.00,0.0409
716.00,0.0414
715.00,0.0419
714.00,0.0424
713.00,0.0429
712.00,0.0433
711.00,0.0438
710.00,0.0444
709.00,0.0449
708.00,0.0454
707.00,0.0459
706.00,0.0465
705.00,0.0471
704.00,0.0475
703.00,0.0480
702.00,0.0484
701.00,0.0488
700.00,0.0490
699.00,0.0492
698.00,0.0493
697.00,0.0494
696.00,0.0493
695.00,0.0493
694.00,0.0493
693.00,0.0493
692.00,0.0492
691.00,0.0492
690.00,0.0493
689.00,0.0494
688.00,0.0494
687.00,0.0495
686.00,0.0496
685.00,0.0497
684.00,0.0497
683.00,0.0498
682.00,0.0499
681.00,0.0500
680.00,0.0501
679.00,0.0502
678.00,0.0503
677.00,0.0504
676.00,0.0505
675.00,0.0505
674.00,0.0507
673.00,0.0508
672.00,0.0509
671.00,0.0509
670.00,0.0511
669.00,0.0514
668.00,0.0517
667.00,0.0519
666.00,0.0519
665.00,0.0519
664.00,0.0517
663.00,0.0517
662.00,0.0519
661.00,0.0521
660.00,0.0522
659.00,0.0522
658.00,0.0524
657.00,0.0525
656.00,0.0525
655.00,0.0526
654.00,0.0527
653.00,0.0529
652.00,0.0530
651.00,0.0530
650.00,0.0532
649.00,0.0534
648.00,0.0535
647.00,0.0536
646.00,0.0538
645.00,0.0540
644.00,0.0542
643.00,0.0543
642.00,0.0545
641.00,0.0547
640.00,0.0549
639.00,0.0550
638.00,0.0552
637.00,0.0555
636.00,0.0556
635.00,0.0557
634.00,0.0559
633.00,0.0561
632.00,0.0562
631.00,0.0564
630.00,0.0566
629.00,0.0568
628.00,0.0568
627.00,0.0569
626.00,0.0570
625.00,0.0572
624.00,0.0572
623.00,0.0572
622.00,0.0574
621.00,0.0575
620.00,0.0575
619.00,0.0574
618.00,0.0575
617.00,0.0575
616.00,0.0574
615.00,0.0574
614.00,0.0575
613.00,0.0574
612.00,0.0573
611.00,0.0572
610.00,0.0571
609.00,0.0572
608.00,0.0571
607.00,0.0572
606.00,0.0573
605.00,0.0574
604.00,0.0573
603.00,0.0572
602.00,0.0573
601.00,0.0574
600.00,0.0574
599.00,0.0574
598.00,0.0575
597.00,0.0576
596.00,0.0575
595.00,0.0575
594.00,0.0577
593.00,0.0578
592.00,0.0578
591.00,0.0577
590.00,0.0578
589.00,0.0579
588.00,0.0579
587.00,0.0580
586.00,0.0582
585.00,0.0583
584.00,0.0583
583.00,0.0583
582.00,0.0585
581.00,0.0586
580.00,0.0586
579.00,0.0587
578.00,0.0589
577.00,0.0590
576.00,0.0591
575.00,0.0591
574.00,0.0593
573.00,0.0594
572.00,0.0593
571.00,0.0593
570.00,0.0595
569.00,0.0597
568.00,0.0597
567.00,0.0598
566.00,0.0600
565.00,0.0602
564.00,0.0601
563.00,0.0601
562.00,0.0603
561.00,0.0604
560.00,0.0604
559.00,0.0605
558.00,0.0606
557.00,0.0608
556.00,0.0607
555.00,0.0607
554.00,0.0608
553.00,0.0610
552.00,0.0610
551.00,0.0610
550.00,0.0612
549.00,0.0613
548.00,0.0613
547.00,0.0613
546.00,0.0615
545.00,0.0616
544.00,0.0615
543.00,0.0614
542.00,0.0615
541.00,0.0616
540.00,0.0615
539.00,0.0615
538.00,0.0616
537.00,0.0618
536.00,0.0617
535.00,0.0617
534.00,0.0619
533.00,0.0621
532.00,0.0621
531.00,0.0621
530.00,0.0623
529.00,0.0624
528.00,0.0623
527.00,0.0622
526.00,0.0624
525.00,0.0626
524.00,0.0626
523.00,0.0626
522.00,0.0628
521.00,0.0630
520.00,0.0629
519.00,0.0630
518.00,0.0632
517.00,0.0633
516.00,0.0630
515.00,0.0627
514.00,0.0627
513.00,0.0627
512.00,0.0625
511.00,0.0624
510.00,0.0626
509.00,0.0626
508.00,0.0625
507.00,0.0623
506.00,0.0624
505.00,0.0625
504.00,0.0623
503.00,0.0622
502.00,0.0623
501.00,0.0625
500.00,0.0624
499.00,0.0624
498.00,0.0625
497.00,0.0626
496.00,0.0624
495.00,0.0622
494.00,0.0624
493.00,0.0624
492.00,0.0622
491.00,0.0620
490.00,0.0621
489.00,0.0622
488.00,0.0620
487.00,0.0619
486.00,0.0621
485.00,0.0622
484.00,0.0620
483.00,0.0618
482.00,0.0620
481.00,0.0622
480.00,0.0622
479.00,0.0622
478.00,0.0625
477.00,0.0626
476.00,0.0622
475.00,0.0619
474.00,0.0621
473.00,0.0623
472.00,0.0621
471.00,0.0621
470.00,0.0624
469.00,0.0626
468.00,0.0624
467.00,0.0622
466.00,0.0623
465.00,0.0624
464.00,0.0622
463.00,0.0621
462.00,0.0625
461.00,0.0627
460.00,0.0624
459.00,0.0620
458.00,0.0621
457.00,0.0623
456.00,0.0619
455.00,0.0617
454.00,0.0619
453.00,0.0620
452.00,0.0617
451.00,0.0614
450.00,0.0615
449.00,0.0615
448.00,0.0610
447.00,0.0607
446.00,0.0608
445.00,0.0608
444.00,0.0602
443.00,0.0599
442.00,0.0601
441.00,0.0602
440.00,0.0596
439.00,0.0591
438.00,0.0590
437.00,0.0590
436.00,0.0585
435.00,0.0581
434.00,0.0582
433.00,0.0582
432.00,0.0576
431.00,0.0572
430.00,0.0573
429.00,0.0574
428.00,0.0569
427.00,0.0565
426.00,0.0568
425.00,0.0571
424.00,0.0566
423.00,0.0561
422.00,0.0563
421.00,0.0562
420.00,0.0551
419.00,0.0544
418.00,0.0554
417.00,0.0562
416.00,0.0556
415.00,0.0551
414.00,0.0554
413.00,0.0555
412.00,0.0544
411.00,0.0534
410.00,0.0536
409.00,0.0538
408.00,0.0529
407.00,0.0523
406.00,0.0530
405.00,0.0536
404.00,0.0526
403.00,0.0515
402.00,0.0518
401.00,0.0522
400.00,0.0509
