Created as New Dataset,Sample 327 By YargerLab Date Monday, August 19 2024
cm-1,A
4000.00,0.0101
3999.00,0.0101
3998.00,0.0101
3997.00,0.0101
3996.00,0.0101
3995.00,0.0101
3994.00,0.0101
3993.00,0.0101
3992.00,0.0101
3991.00,0.0101
3990.00,0.0101
3989.00,0.0101
3988.00,0.0101
3987.00,0.0101
3986.00,0.0101
3985.00,0.0101
3984.00,0.0102
3983.00,0.0102
3982.00,0.0102
3981.00,0.0101
3980.00,0.0101
3979.00,0.0101
3978.00,0.0101
3977.00,0.0101
3976.00,0.0101
3975.00,0.0101
3974.00,0.0101
3973.00,0.0101
3972.00,0.0101
3971.00,0.0101
3970.00,0.0101
3969.00,0.0101
3968.00,0.0101
3967.00,0.0101
3966.00,0.0101
3965.00,0.0101
3964.00,0.0101
3963.00,0.0101
3962.00,0.0101
3961.00,0.0101
3960.00,0.0101
3959.00,0.0101
3958.00,0.0101
3957.00,0.0101
3956.00,0.0101
3955.00,0.0101
3954.00,0.0101
3953.00,0.0101
3952.00,0.0101
3951.00,0.0101
3950.00,0.0101
3949.00,0.0101
3948.00,0.0101
3947.00,0.0101
3946.00,0.0101
3945.00,0.0100
3944.00,0.0100
3943.00,0.0101
3942.00,0.0101
3941.00,0.0101
3940.00,0.0100
3939.00,0.0100
3938.00,0.0100
3937.00,0.0100
3936.00,0.0100
3935.00,0.0100
3934.00,0.0100
3933.00,0.0100
3932.00,0.0100
3931.00,0.0100
3930.00,0.0100
3929.00,0.0100
3928.00,0.0100
3927.00,0.0100
3926.00,0.0100
3925.00,0.0100
3924.00,0.0100
3923.00,0.0100
3922.00,0.0100
3921.00,0.0100
3920.00,0.0100
3919.00,0.0100
3918.00,0.0100
3917.00,0.0100
3916.00,0.0100
3915.00,0.0100
3914.00,0.0100
3913.00,0.0100
3912.00,0.0100
3911.00,0.0100
3910.00,0.0100
3909.00,0.0100
3908.00,0.0099
3907.00,0.0099
3906.00,0.0099
3905.00,0.0099
3904.00,0.0098
3903.00,0.0098
3902.00,0.0098
3901.00,0.0098
3900.00,0.0098
3899.00,0.0098
3898.00,0.0098
3897.00,0.0098
3896.00,0.0099
3895.00,0.0099
3894.00,0.0099
3893.00,0.0099
3892.00,0.0099
3891.00,0.0099
3890.00,0.0098
3889.00,0.0098
3888.00,0.0098
3887.00,0.0098
3886.00,0.0098
3885.00,0.0098
3884.00,0.0098
3883.00,0.0098
3882.00,0.0098
3881.00,0.0098
3880.00,0.0098
3879.00,0.0098
3878.00,0.0098
3877.00,0.0098
3876.00,0.0098
3875.00,0.0098
3874.00,0.0098
3873.00,0.0098
3872.00,0.0097
3871.00,0.0097
3870.00,0.0097
3869.00,0.0097
3868.00,0.0097
3867.00,0.0097
3866.00,0.0097
3865.00,0.0097
3864.00,0.0097
3863.00,0.0097
3862.00,0.0097
3861.00,0.0097
3860.00,0.0097
3859.00,0.0097
3858.00,0.0097
3857.00,0.0096
3856.00,0.0096
3855.00,0.0096
3854.00,0.0095
3853.00,0.0095
3852.00,0.0095
3851.00,0.0095
3850.00,0.0096
3849.00,0.0096
3848.00,0.0097
3847.00,0.0097
3846.00,0.0097
3845.00,0.0097
3844.00,0.0097
3843.00,0.0097
3842.00,0.0096
3841.00,0.0096
3840.00,0.0096
3839.00,0.0095
3838.00,0.0095
3837.00,0.0095
3836.00,0.0095
3835.00,0.0095
3834.00,0.0096
3833.00,0.0096
3832.00,0.0096
3831.00,0.0097
3830.00,0.0097
3829.00,0.0097
3828.00,0.0097
3827.00,0.0097
3826.00,0.0097
3825.00,0.0096
3824.00,0.0096
3823.00,0.0095
3822.00,0.0095
3821.00,0.0095
3820.00,0.0095
3819.00,0.0094
3818.00,0.0094
3817.00,0.0095
3816.00,0.0095
3815.00,0.0095
3814.00,0.0096
3813.00,0.0096
3812.00,0.0096
3811.00,0.0096
3810.00,0.0096
3809.00,0.0096
3808.00,0.0096
3807.00,0.0095
3806.00,0.0095
3805.00,0.0095
3804.00,0.0094
3803.00,0.0095
3802.00,0.0095
3801.00,0.0095
3800.00,0.0094
3799.00,0.0095
3798.00,0.0095
3797.00,0.0095
3796.00,0.0096
3795.00,0.0096
3794.00,0.0096
3793.00,0.0096
3792.00,0.0097
3791.00,0.0097
3790.00,0.0096
3789.00,0.0096
3788.00,0.0096
3787.00,0.0096
3786.00,0.0096
3785.00,0.0096
3784.00,0.0096
3783.00,0.0096
3782.00,0.0095
3781.00,0.0095
3780.00,0.0096
3779.00,0.0096
3778.00,0.0096
3777.00,0.0096
3776.00,0.0096
3775.00,0.0096
3774.00,0.0096
3773.00,0.0095
3772.00,0.0095
3771.00,0.0095
3770.00,0.0095
3769.00,0.0095
3768.00,0.0095
3767.00,0.0095
3766.00,0.0095
3765.00,0.0095
3764.00,0.0095
3763.00,0.0095
3762.00,0.0095
3761.00,0.0095
3760.00,0.0094
3759.00,0.0094
3758.00,0.0094
3757.00,0.0094
3756.00,0.0093
3755.00,0.0093
3754.00,0.0092
3753.00,0.0092
3752.00,0.0092
3751.00,0.0091
3750.00,0.0091
3749.00,0.0091
3748.00,0.0090
3747.00,0.0090
3746.00,0.0091
3745.00,0.0091
3744.00,0.0091
3743.00,0.0091
3742.00,0.0092
3741.00,0.0092
3740.00,0.0092
3739.00,0.0092
3738.00,0.0091
3737.00,0.0091
3736.00,0.0091
3735.00,0.0091
3734.00,0.0091
3733.00,0.0091
3732.00,0.0091
3731.00,0.0091
3730.00,0.0091
3729.00,0.0091
3728.00,0.0091
3727.00,0.0092
3726.00,0.0092
3725.00,0.0092
3724.00,0.0092
3723.00,0.0092
3722.00,0.0092
3721.00,0.0092
3720.00,0.0092
3719.00,0.0092
3718.00,0.0092
3717.00,0.0092
3716.00,0.0092
3715.00,0.0091
3714.00,0.0091
3713.00,0.0090
3712.00,0.0090
3711.00,0.0089
3710.00,0.0089
3709.00,0.0089
3708.00,0.0090
3707.00,0.0090
3706.00,0.0090
3705.00,0.0090
3704.00,0.0091
3703.00,0.0091
3702.00,0.0091
3701.00,0.0090
3700.00,0.0090
3699.00,0.0090
3698.00,0.0090
3697.00,0.0090
3696.00,0.0091
3695.00,0.0091
3694.00,0.0090
3693.00,0.0090
3692.00,0.0090
3691.00,0.0089
3690.00,0.0089
3689.00,0.0089
3688.00,0.0089
3687.00,0.0089
3686.00,0.0089
3685.00,0.0090
3684.00,0.0090
3683.00,0.0090
3682.00,0.0090
3681.00,0.0090
3680.00,0.0089
3679.00,0.0089
3678.00,0.0088
3677.00,0.0088
3676.00,0.0088
3675.00,0.0088
3674.00,0.0087
3673.00,0.0087
3672.00,0.0087
3671.00,0.0088
3670.00,0.0088
3669.00,0.0089
3668.00,0.0089
3667.00,0.0089
3666.00,0.0090
3665.00,0.0090
3664.00,0.0090
3663.00,0.0091
3662.00,0.0091
3661.00,0.0091
3660.00,0.0091
3659.00,0.0091
3658.00,0.0091
3657.00,0.0091
3656.00,0.0090
3655.00,0.0090
3654.00,0.0089
3653.00,0.0089
3652.00,0.0089
3651.00,0.0089
3650.00,0.0089
3649.00,0.0089
3648.00,0.0089
3647.00,0.0089
3646.00,0.0090
3645.00,0.0090
3644.00,0.0091
3643.00,0.0091
3642.00,0.0092
3641.00,0.0092
3640.00,0.0092
3639.00,0.0092
3638.00,0.0093
3637.00,0.0093
3636.00,0.0093
3635.00,0.0093
3634.00,0.0092
3633.00,0.0092
3632.00,0.0092
3631.00,0.0091
3630.00,0.0091
3629.00,0.0091
3628.00,0.0091
3627.00,0.0092
3626.00,0.0092
3625.00,0.0093
3624.00,0.0093
3623.00,0.0094
3622.00,0.0094
3621.00,0.0094
3620.00,0.0094
3619.00,0.0094
3618.00,0.0094
3617.00,0.0094
3616.00,0.0094
3615.00,0.0095
3614.00,0.0095
3613.00,0.0095
3612.00,0.0095
3611.00,0.0095
3610.00,0.0095
3609.00,0.0096
3608.00,0.0096
3607.00,0.0096
3606.00,0.0097
3605.00,0.0097
3604.00,0.0097
3603.00,0.0098
3602.00,0.0098
3601.00,0.0098
3600.00,0.0099
3599.00,0.0099
3598.00,0.0099
3597.00,0.0099
3596.00,0.0099
3595.00,0.0099
3594.00,0.0100
3593.00,0.0100
3592.00,0.0100
3591.00,0.0100
3590.00,0.0100
3589.00,0.0100
3588.00,0.0100
3587.00,0.0101
3586.00,0.0101
3585.00,0.0101
3584.00,0.0102
3583.00,0.0102
3582.00,0.0103
3581.00,0.0103
3580.00,0.0103
3579.00,0.0103
3578.00,0.0104
3577.00,0.0104
3576.00,0.0104
3575.00,0.0104
3574.00,0.0105
3573.00,0.0105
3572.00,0.0105
3571.00,0.0105
3570.00,0.0105
3569.00,0.0105
3568.00,0.0105
3567.00,0.0106
3566.00,0.0106
3565.00,0.0106
3564.00,0.0107
3563.00,0.0107
3562.00,0.0108
3561.00,0.0108
3560.00,0.0109
3559.00,0.0109
3558.00,0.0109
3557.00,0.0109
3556.00,0.0110
3555.00,0.0110
3554.00,0.0110
3553.00,0.0111
3552.00,0.0111
3551.00,0.0111
3550.00,0.0111
3549.00,0.0112
3548.00,0.0112
3547.00,0.0113
3546.00,0.0113
3545.00,0.0114
3544.00,0.0114
3543.00,0.0114
3542.00,0.0115
3541.00,0.0115
3540.00,0.0115
3539.00,0.0115
3538.00,0.0115
3537.00,0.0116
3536.00,0.0116
3535.00,0.0116
3534.00,0.0117
3533.00,0.0117
3532.00,0.0117
3531.00,0.0118
3530.00,0.0118
3529.00,0.0118
3528.00,0.0119
3527.00,0.0119
3526.00,0.0119
3525.00,0.0120
3524.00,0.0120
3523.00,0.0120
3522.00,0.0121
3521.00,0.0121
3520.00,0.0121
3519.00,0.0122
3518.00,0.0122
3517.00,0.0122
3516.00,0.0123
3515.00,0.0123
3514.00,0.0123
3513.00,0.0124
3512.00,0.0124
3511.00,0.0124
3510.00,0.0124
3509.00,0.0125
3508.00,0.0125
3507.00,0.0125
3506.00,0.0125
3505.00,0.0126
3504.00,0.0126
3503.00,0.0127
3502.00,0.0127
3501.00,0.0127
3500.00,0.0128
3499.00,0.0128
3498.00,0.0128
3497.00,0.0129
3496.00,0.0129
3495.00,0.0129
3494.00,0.0130
3493.00,0.0130
3492.00,0.0130
3491.00,0.0131
3490.00,0.0131
3489.00,0.0132
3488.00,0.0132
3487.00,0.0132
3486.00,0.0132
3485.00,0.0133
3484.00,0.0133
3483.00,0.0134
3482.00,0.0134
3481.00,0.0135
3480.00,0.0135
3479.00,0.0135
3478.00,0.0135
3477.00,0.0136
3476.00,0.0136
3475.00,0.0137
3474.00,0.0137
3473.00,0.0137
3472.00,0.0138
3471.00,0.0138
3470.00,0.0138
3469.00,0.0139
3468.00,0.0139
3467.00,0.0139
3466.00,0.0139
3465.00,0.0140
3464.00,0.0140
3463.00,0.0140
3462.00,0.0141
3461.00,0.0141
3460.00,0.0142
3459.00,0.0142
3458.00,0.0142
3457.00,0.0143
3456.00,0.0143
3455.00,0.0143
3454.00,0.0144
3453.00,0.0144
3452.00,0.0144
3451.00,0.0144
3450.00,0.0145
3449.00,0.0145
3448.00,0.0145
3447.00,0.0146
3446.00,0.0146
3445.00,0.0146
3444.00,0.0146
3443.00,0.0147
3442.00,0.0147
3441.00,0.0148
3440.00,0.0148
3439.00,0.0149
3438.00,0.0149
3437.00,0.0150
3436.00,0.0150
3435.00,0.0150
3434.00,0.0151
3433.00,0.0151
3432.00,0.0151
3431.00,0.0152
3430.00,0.0152
3429.00,0.0152
3428.00,0.0152
3427.00,0.0153
3426.00,0.0153
3425.00,0.0153
3424.00,0.0154
3423.00,0.0154
3422.00,0.0155
3421.00,0.0155
3420.00,0.0156
3419.00,0.0156
3418.00,0.0156
3417.00,0.0156
3416.00,0.0157
3415.00,0.0157
3414.00,0.0157
3413.00,0.0158
3412.00,0.0158
3411.00,0.0159
3410.00,0.0159
3409.00,0.0159
3408.00,0.0160
3407.00,0.0160
3406.00,0.0160
3405.00,0.0161
3404.00,0.0161
3403.00,0.0162
3402.00,0.0162
3401.00,0.0162
3400.00,0.0163
3399.00,0.0163
3398.00,0.0163
3397.00,0.0163
3396.00,0.0164
3395.00,0.0164
3394.00,0.0164
3393.00,0.0165
3392.00,0.0165
3391.00,0.0165
3390.00,0.0166
3389.00,0.0166
3388.00,0.0167
3387.00,0.0167
3386.00,0.0167
3385.00,0.0168
3384.00,0.0168
3383.00,0.0168
3382.00,0.0169
3381.00,0.0169
3380.00,0.0170
3379.00,0.0170
3378.00,0.0170
3377.00,0.0171
3376.00,0.0171
3375.00,0.0172
3374.00,0.0172
3373.00,0.0172
3372.00,0.0173
3371.00,0.0173
3370.00,0.0174
3369.00,0.0174
3368.00,0.0175
3367.00,0.0175
3366.00,0.0176
3365.00,0.0176
3364.00,0.0177
3363.00,0.0178
3362.00,0.0178
3361.00,0.0179
3360.00,0.0179
3359.00,0.0180
3358.00,0.0180
3357.00,0.0181
3356.00,0.0182
3355.00,0.0182
3354.00,0.0183
3353.00,0.0183
3352.00,0.0184
3351.00,0.0184
3350.00,0.0185
3349.00,0.0186
3348.00,0.0186
3347.00,0.0187
3346.00,0.0188
3345.00,0.0188
3344.00,0.0189
3343.00,0.0190
3342.00,0.0190
3341.00,0.0191
3340.00,0.0192
3339.00,0.0193
3338.00,0.0194
3337.00,0.0195
3336.00,0.0196
3335.00,0.0197
3334.00,0.0198
3333.00,0.0198
3332.00,0.0199
3331.00,0.0200
3330.00,0.0201
3329.00,0.0202
3328.00,0.0203
3327.00,0.0204
3326.00,0.0205
3325.00,0.0206
3324.00,0.0207
3323.00,0.0208
3322.00,0.0209
3321.00,0.0210
3320.00,0.0211
3319.00,0.0213
3318.00,0.0214
3317.00,0.0215
3316.00,0.0217
3315.00,0.0218
3314.00,0.0219
3313.00,0.0220
3312.00,0.0221
3311.00,0.0222
3310.00,0.0223
3309.00,0.0224
3308.00,0.0226
3307.00,0.0227
3306.00,0.0229
3305.00,0.0230
3304.00,0.0232
3303.00,0.0234
3302.00,0.0236
3301.00,0.0237
3300.00,0.0239
3299.00,0.0240
3298.00,0.0241
3297.00,0.0243
3296.00,0.0244
3295.00,0.0245
3294.00,0.0247
3293.00,0.0248
3292.00,0.0250
3291.00,0.0252
3290.00,0.0253
3289.00,0.0255
3288.00,0.0256
3287.00,0.0258
3286.00,0.0259
3285.00,0.0260
3284.00,0.0261
3283.00,0.0262
3282.00,0.0263
3281.00,0.0264
3280.00,0.0265
3279.00,0.0266
3278.00,0.0267
3277.00,0.0267
3276.00,0.0267
3275.00,0.0267
3274.00,0.0267
3273.00,0.0267
3272.00,0.0267
3271.00,0.0267
3270.00,0.0267
3269.00,0.0267
3268.00,0.0267
3267.00,0.0267
3266.00,0.0267
3265.00,0.0266
3264.00,0.0266
3263.00,0.0265
3262.00,0.0264
3261.00,0.0263
3260.00,0.0262
3259.00,0.0261
3258.00,0.0259
3257.00,0.0258
3256.00,0.0257
3255.00,0.0256
3254.00,0.0255
3253.00,0.0254
3252.00,0.0253
3251.00,0.0252
3250.00,0.0251
3249.00,0.0249
3248.00,0.0248
3247.00,0.0247
3246.00,0.0246
3245.00,0.0245
3244.00,0.0244
3243.00,0.0243
3242.00,0.0242
3241.00,0.0241
3240.00,0.0240
3239.00,0.0239
3238.00,0.0238
3237.00,0.0237
3236.00,0.0236
3235.00,0.0234
3234.00,0.0234
3233.00,0.0233
3232.00,0.0232
3231.00,0.0232
3230.00,0.0231
3229.00,0.0231
3228.00,0.0230
3227.00,0.0229
3226.00,0.0228
3225.00,0.0228
3224.00,0.0227
3223.00,0.0226
3222.00,0.0225
3221.00,0.0225
3220.00,0.0224
3219.00,0.0223
3218.00,0.0223
3217.00,0.0222
3216.00,0.0221
3215.00,0.0221
3214.00,0.0220
3213.00,0.0219
3212.00,0.0219
3211.00,0.0218
3210.00,0.0218
3209.00,0.0217
3208.00,0.0217
3207.00,0.0216
3206.00,0.0215
3205.00,0.0215
3204.00,0.0214
3203.00,0.0214
3202.00,0.0213
3201.00,0.0213
3200.00,0.0212
3199.00,0.0212
3198.00,0.0211
3197.00,0.0211
3196.00,0.0210
3195.00,0.0209
3194.00,0.0209
3193.00,0.0208
3192.00,0.0207
3191.00,0.0207
3190.00,0.0206
3189.00,0.0206
3188.00,0.0205
3187.00,0.0205
3186.00,0.0204
3185.00,0.0204
3184.00,0.0203
3183.00,0.0202
3182.00,0.0202
3181.00,0.0201
3180.00,0.0201
3179.00,0.0200
3178.00,0.0200
3177.00,0.0199
3176.00,0.0199
3175.00,0.0198
3174.00,0.0197
3173.00,0.0197
3172.00,0.0196
3171.00,0.0195
3170.00,0.0195
3169.00,0.0194
3168.00,0.0194
3167.00,0.0193
3166.00,0.0193
3165.00,0.0192
3164.00,0.0191
3163.00,0.0191
3162.00,0.0190
3161.00,0.0189
3160.00,0.0189
3159.00,0.0188
3158.00,0.0188
3157.00,0.0187
3156.00,0.0187
3155.00,0.0186
3154.00,0.0185
3153.00,0.0185
3152.00,0.0184
3151.00,0.0184
3150.00,0.0184
3149.00,0.0183
3148.00,0.0183
3147.00,0.0182
3146.00,0.0182
3145.00,0.0182
3144.00,0.0181
3143.00,0.0181
3142.00,0.0180
3141.00,0.0179
3140.00,0.0179
3139.00,0.0178
3138.00,0.0178
3137.00,0.0178
3136.00,0.0177
3135.00,0.0177
3134.00,0.0177
3133.00,0.0176
3132.00,0.0176
3131.00,0.0175
3130.00,0.0175
3129.00,0.0175
3128.00,0.0175
3127.00,0.0174
3126.00,0.0174
3125.00,0.0174
3124.00,0.0173
3123.00,0.0173
3122.00,0.0172
3121.00,0.0172
3120.00,0.0172
3119.00,0.0171
3118.00,0.0171
3117.00,0.0171
3116.00,0.0171
3115.00,0.0171
3114.00,0.0171
3113.00,0.0171
3112.00,0.0171
3111.00,0.0171
3110.00,0.0171
3109.00,0.0170
3108.00,0.0170
3107.00,0.0171
3106.00,0.0171
3105.00,0.0171
3104.00,0.0171
3103.00,0.0171
3102.00,0.0171
3101.00,0.0171
3100.00,0.0171
3099.00,0.0171
3098.00,0.0171
3097.00,0.0171
3096.00,0.0171
3095.00,0.0172
3094.00,0.0172
3093.00,0.0171
3092.00,0.0171
3091.00,0.0172
3090.00,0.0172
3089.00,0.0172
3088.00,0.0172
3087.00,0.0172
3086.00,0.0172
3085.00,0.0171
3084.00,0.0171
3083.00,0.0171
3082.00,0.0171
3081.00,0.0171
3080.00,0.0172
3079.00,0.0172
3078.00,0.0172
3077.00,0.0172
3076.00,0.0173
3075.00,0.0173
3074.00,0.0173
3073.00,0.0173
3072.00,0.0173
3071.00,0.0173
3070.00,0.0173
3069.00,0.0173
3068.00,0.0172
3067.00,0.0172
3066.00,0.0172
3065.00,0.0172
3064.00,0.0172
3063.00,0.0172
3062.00,0.0172
3061.00,0.0172
3060.00,0.0172
3059.00,0.0172
3058.00,0.0171
3057.00,0.0171
3056.00,0.0171
3055.00,0.0170
3054.00,0.0170
3053.00,0.0169
3052.00,0.0169
3051.00,0.0168
3050.00,0.0168
3049.00,0.0168
3048.00,0.0168
3047.00,0.0167
3046.00,0.0166
3045.00,0.0166
3044.00,0.0165
3043.00,0.0165
3042.00,0.0165
3041.00,0.0164
3040.00,0.0164
3039.00,0.0164
3038.00,0.0164
3037.00,0.0164
3036.00,0.0163
3035.00,0.0162
3034.00,0.0162
3033.00,0.0162
3032.00,0.0162
3031.00,0.0162
3030.00,0.0162
3029.00,0.0161
3028.00,0.0161
3027.00,0.0160
3026.00,0.0160
3025.00,0.0159
3024.00,0.0159
3023.00,0.0158
3022.00,0.0158
3021.00,0.0157
3020.00,0.0157
3019.00,0.0156
3018.00,0.0156
3017.00,0.0155
3016.00,0.0155
3015.00,0.0154
3014.00,0.0154
3013.00,0.0153
3012.00,0.0153
3011.00,0.0153
3010.00,0.0153
3009.00,0.0153
3008.00,0.0153
3007.00,0.0153
3006.00,0.0153
3005.00,0.0153
3004.00,0.0153
3003.00,0.0153
3002.00,0.0153
3001.00,0.0153
3000.00,0.0152
2999.00,0.0152
2998.00,0.0152
2997.00,0.0152
2996.00,0.0152
2995.00,0.0152
2994.00,0.0152
2993.00,0.0152
2992.00,0.0153
2991.00,0.0153
2990.00,0.0153
2989.00,0.0154
2988.00,0.0154
2987.00,0.0155
2986.00,0.0155
2985.00,0.0155
2984.00,0.0156
2983.00,0.0156
2982.00,0.0157
2981.00,0.0157
2980.00,0.0158
2979.00,0.0158
2978.00,0.0159
2977.00,0.0159
2976.00,0.0160
2975.00,0.0160
2974.00,0.0161
2973.00,0.0161
2972.00,0.0162
2971.00,0.0162
2970.00,0.0162
2969.00,0.0162
2968.00,0.0163
2967.00,0.0163
2966.00,0.0163
2965.00,0.0163
2964.00,0.0162
2963.00,0.0162
2962.00,0.0162
2961.00,0.0162
2960.00,0.0161
2959.00,0.0161
2958.00,0.0161
2957.00,0.0161
2956.00,0.0160
2955.00,0.0160
2954.00,0.0160
2953.00,0.0161
2952.00,0.0161
2951.00,0.0161
2950.00,0.0161
2949.00,0.0161
2948.00,0.0161
2947.00,0.0161
2946.00,0.0161
2945.00,0.0161
2944.00,0.0161
2943.00,0.0162
2942.00,0.0162
2941.00,0.0162
2940.00,0.0163
2939.00,0.0163
2938.00,0.0163
2937.00,0.0162
2936.00,0.0162
2935.00,0.0162
2934.00,0.0161
2933.00,0.0160
2932.00,0.0159
2931.00,0.0158
2930.00,0.0156
2929.00,0.0155
2928.00,0.0152
2927.00,0.0150
2926.00,0.0147
2925.00,0.0144
2924.00,0.0140
2923.00,0.0135
2922.00,0.0130
2921.00,0.0125
2920.00,0.0120
2919.00,0.0114
2918.00,0.0110
2917.00,0.0107
2916.00,0.0107
2915.00,0.0110
2914.00,0.0115
2913.00,0.0121
2912.00,0.0127
2911.00,0.0133
2910.00,0.0137
2909.00,0.0140
2908.00,0.0142
2907.00,0.0143
2906.00,0.0144
2905.00,0.0145
2904.00,0.0145
2903.00,0.0146
2902.00,0.0146
2901.00,0.0146
2900.00,0.0146
2899.00,0.0146
2898.00,0.0146
2897.00,0.0146
2896.00,0.0147
2895.00,0.0147
2894.00,0.0147
2893.00,0.0147
2892.00,0.0147
2891.00,0.0148
2890.00,0.0148
2889.00,0.0148
2888.00,0.0149
2887.00,0.0149
2886.00,0.0149
2885.00,0.0150
2884.00,0.0150
2883.00,0.0151
2882.00,0.0152
2881.00,0.0152
2880.00,0.0153
2879.00,0.0153
2878.00,0.0153
2877.00,0.0154
2876.00,0.0154
2875.00,0.0154
2874.00,0.0154
2873.00,0.0154
2872.00,0.0154
2871.00,0.0154
2870.00,0.0153
2869.00,0.0153
2868.00,0.0152
2867.00,0.0152
2866.00,0.0151
2865.00,0.0150
2864.00,0.0150
2863.00,0.0149
2862.00,0.0148
2861.00,0.0147
2860.00,0.0145
2859.00,0.0144
2858.00,0.0143
2857.00,0.0141
2856.00,0.0139
2855.00,0.0136
2854.00,0.0132
2853.00,0.0127
2852.00,0.0121
2851.00,0.0116
2850.00,0.0112
2849.00,0.0110
2848.00,0.0112
2847.00,0.0116
2846.00,0.0121
2845.00,0.0127
2844.00,0.0132
2843.00,0.0135
2842.00,0.0137
2841.00,0.0139
2840.00,0.0140
2839.00,0.0140
2838.00,0.0141
2837.00,0.0141
2836.00,0.0141
2835.00,0.0142
2834.00,0.0142
2833.00,0.0141
2832.00,0.0141
2831.00,0.0141
2830.00,0.0141
2829.00,0.0141
2828.00,0.0141
2827.00,0.0141
2826.00,0.0141
2825.00,0.0141
2824.00,0.0141
2823.00,0.0141
2822.00,0.0141
2821.00,0.0141
2820.00,0.0140
2819.00,0.0140
2818.00,0.0140
2817.00,0.0140
2816.00,0.0140
2815.00,0.0140
2814.00,0.0140
2813.00,0.0140
2812.00,0.0140
2811.00,0.0140
2810.00,0.0140
2809.00,0.0139
2808.00,0.0139
2807.00,0.0139
2806.00,0.0139
2805.00,0.0139
2804.00,0.0139
2803.00,0.0139
2802.00,0.0139
2801.00,0.0139
2800.00,0.0138
2799.00,0.0138
2798.00,0.0138
2797.00,0.0138
2796.00,0.0138
2795.00,0.0138
2794.00,0.0138
2793.00,0.0138
2792.00,0.0138
2791.00,0.0138
2790.00,0.0138
2789.00,0.0137
2788.00,0.0137
2787.00,0.0137
2786.00,0.0137
2785.00,0.0137
2784.00,0.0137
2783.00,0.0137
2782.00,0.0137
2781.00,0.0137
2780.00,0.0137
2779.00,0.0136
2778.00,0.0136
2777.00,0.0136
2776.00,0.0136
2775.00,0.0136
2774.00,0.0136
2773.00,0.0136
2772.00,0.0135
2771.00,0.0135
2770.00,0.0135
2769.00,0.0135
2768.00,0.0135
2767.00,0.0135
2766.00,0.0135
2765.00,0.0135
2764.00,0.0135
2763.00,0.0135
2762.00,0.0134
2761.00,0.0134
2760.00,0.0134
2759.00,0.0134
2758.00,0.0134
2757.00,0.0134
2756.00,0.0134
2755.00,0.0134
2754.00,0.0134
2753.00,0.0133
2752.00,0.0133
2751.00,0.0133
2750.00,0.0133
2749.00,0.0133
2748.00,0.0133
2747.00,0.0133
2746.00,0.0132
2745.00,0.0132
2744.00,0.0132
2743.00,0.0132
2742.00,0.0132
2741.00,0.0132
2740.00,0.0132
2739.00,0.0132
2738.00,0.0132
2737.00,0.0132
2736.00,0.0132
2735.00,0.0131
2734.00,0.0131
2733.00,0.0131
2732.00,0.0131
2731.00,0.0131
2730.00,0.0131
2729.00,0.0131
2728.00,0.0130
2727.00,0.0130
2726.00,0.0130
2725.00,0.0130
2724.00,0.0130
2723.00,0.0130
2722.00,0.0130
2721.00,0.0130
2720.00,0.0130
2719.00,0.0130
2718.00,0.0129
2717.00,0.0129
2716.00,0.0129
2715.00,0.0129
2714.00,0.0129
2713.00,0.0129
2712.00,0.0129
2711.00,0.0129
2710.00,0.0129
2709.00,0.0128
2708.00,0.0128
2707.00,0.0128
2706.00,0.0128
2705.00,0.0128
2704.00,0.0128
2703.00,0.0128
2702.00,0.0128
2701.00,0.0128
2700.00,0.0128
2699.00,0.0128
2698.00,0.0127
2697.00,0.0127
2696.00,0.0127
2695.00,0.0127
2694.00,0.0127
2693.00,0.0127
2692.00,0.0127
2691.00,0.0127
2690.00,0.0127
2689.00,0.0127
2688.00,0.0127
2687.00,0.0127
2686.00,0.0126
2685.00,0.0126
2684.00,0.0126
2683.00,0.0126
2682.00,0.0126
2681.00,0.0126
2680.00,0.0126
2679.00,0.0126
2678.00,0.0126
2677.00,0.0126
2676.00,0.0126
2675.00,0.0126
2674.00,0.0126
2673.00,0.0125
2672.00,0.0125
2671.00,0.0125
2670.00,0.0125
2669.00,0.0125
2668.00,0.0126
2667.00,0.0126
2666.00,0.0126
2665.00,0.0126
2664.00,0.0127
2663.00,0.0127
2662.00,0.0127
2661.00,0.0127
2660.00,0.0127
2659.00,0.0128
2658.00,0.0128
2657.00,0.0128
2656.00,0.0128
2655.00,0.0127
2654.00,0.0127
2653.00,0.0127
2652.00,0.0127
2651.00,0.0127
2650.00,0.0127
2649.00,0.0127
2648.00,0.0127
2647.00,0.0127
2646.00,0.0127
2645.00,0.0127
2644.00,0.0127
2643.00,0.0126
2642.00,0.0126
2641.00,0.0126
2640.00,0.0126
2639.00,0.0125
2638.00,0.0125
2637.00,0.0125
2636.00,0.0125
2635.00,0.0125
2634.00,0.0125
2633.00,0.0125
2632.00,0.0125
2631.00,0.0124
2630.00,0.0124
2629.00,0.0124
2628.00,0.0124
2627.00,0.0124
2626.00,0.0123
2625.00,0.0123
2624.00,0.0123
2623.00,0.0123
2622.00,0.0123
2621.00,0.0123
2620.00,0.0123
2619.00,0.0123
2618.00,0.0123
2617.00,0.0122
2616.00,0.0122
2615.00,0.0122
2614.00,0.0122
2613.00,0.0122
2612.00,0.0122
2611.00,0.0121
2610.00,0.0121
2609.00,0.0121
2608.00,0.0121
2607.00,0.0121
2606.00,0.0121
2605.00,0.0121
2604.00,0.0121
2603.00,0.0120
2602.00,0.0120
2601.00,0.0120
2600.00,0.0120
2599.00,0.0120
2598.00,0.0120
2597.00,0.0119
2596.00,0.0119
2595.00,0.0119
2594.00,0.0119
2593.00,0.0119
2592.00,0.0119
2591.00,0.0118
2590.00,0.0118
2589.00,0.0118
2588.00,0.0118
2587.00,0.0118
2586.00,0.0118
2585.00,0.0118
2584.00,0.0117
2583.00,0.0117
2582.00,0.0117
2581.00,0.0117
2580.00,0.0117
2579.00,0.0117
2578.00,0.0117
2577.00,0.0116
2576.00,0.0116
2575.00,0.0116
2574.00,0.0116
2573.00,0.0116
2572.00,0.0116
2571.00,0.0116
2570.00,0.0116
2569.00,0.0115
2568.00,0.0115
2567.00,0.0115
2566.00,0.0115
2565.00,0.0115
2564.00,0.0115
2563.00,0.0115
2562.00,0.0115
2561.00,0.0115
2560.00,0.0115
2559.00,0.0115
2558.00,0.0115
2557.00,0.0115
2556.00,0.0115
2555.00,0.0114
2554.00,0.0114
2553.00,0.0114
2552.00,0.0114
2551.00,0.0114
2550.00,0.0113
2549.00,0.0113
2548.00,0.0113
2547.00,0.0114
2546.00,0.0114
2545.00,0.0113
2544.00,0.0113
2543.00,0.0113
2542.00,0.0113
2541.00,0.0113
2540.00,0.0113
2539.00,0.0112
2538.00,0.0112
2537.00,0.0112
2536.00,0.0112
2535.00,0.0112
2534.00,0.0112
2533.00,0.0112
2532.00,0.0112
2531.00,0.0112
2530.00,0.0112
2529.00,0.0112
2528.00,0.0111
2527.00,0.0111
2526.00,0.0111
2525.00,0.0111
2524.00,0.0111
2523.00,0.0111
2522.00,0.0111
2521.00,0.0111
2520.00,0.0111
2519.00,0.0111
2518.00,0.0111
2517.00,0.0111
2516.00,0.0111
2515.00,0.0111
2514.00,0.0111
2513.00,0.0110
2512.00,0.0110
2511.00,0.0110
2510.00,0.0110
2509.00,0.0110
2508.00,0.0110
2507.00,0.0110
2506.00,0.0110
2505.00,0.0110
2504.00,0.0110
2503.00,0.0110
2502.00,0.0110
2501.00,0.0110
2500.00,0.0110
2499.00,0.0110
2498.00,0.0110
2497.00,0.0110
2496.00,0.0110
2495.00,0.0110
2494.00,0.0110
2493.00,0.0109
2492.00,0.0109
2491.00,0.0109
2490.00,0.0109
2489.00,0.0109
2488.00,0.0109
2487.00,0.0109
2486.00,0.0109
2485.00,0.0109
2484.00,0.0108
2483.00,0.0108
2482.00,0.0108
2481.00,0.0108
2480.00,0.0108
2479.00,0.0108
2478.00,0.0108
2477.00,0.0108
2476.00,0.0108
2475.00,0.0109
2474.00,0.0109
2473.00,0.0108
2472.00,0.0108
2471.00,0.0108
2470.00,0.0108
2469.00,0.0108
2468.00,0.0108
2467.00,0.0108
2466.00,0.0108
2465.00,0.0109
2464.00,0.0109
2463.00,0.0109
2462.00,0.0109
2461.00,0.0108
2460.00,0.0108
2459.00,0.0108
2458.00,0.0108
2457.00,0.0109
2456.00,0.0109
2455.00,0.0109
2454.00,0.0109
2453.00,0.0109
2452.00,0.0109
2451.00,0.0109
2450.00,0.0108
2449.00,0.0108
2448.00,0.0108
2447.00,0.0108
2446.00,0.0108
2445.00,0.0107
2444.00,0.0107
2443.00,0.0107
2442.00,0.0107
2441.00,0.0106
2440.00,0.0106
2439.00,0.0106
2438.00,0.0106
2437.00,0.0106
2436.00,0.0106
2435.00,0.0106
2434.00,0.0106
2433.00,0.0106
2432.00,0.0105
2431.00,0.0105
2430.00,0.0105
2429.00,0.0105
2428.00,0.0105
2427.00,0.0105
2426.00,0.0105
2425.00,0.0105
2424.00,0.0105
2423.00,0.0105
2422.00,0.0104
2421.00,0.0104
2420.00,0.0104
2419.00,0.0104
2418.00,0.0104
2417.00,0.0104
2416.00,0.0104
2415.00,0.0104
2414.00,0.0104
2413.00,0.0104
2412.00,0.0104
2411.00,0.0104
2410.00,0.0103
2409.00,0.0103
2408.00,0.0103
2407.00,0.0102
2406.00,0.0102
2405.00,0.0102
2404.00,0.0102
2403.00,0.0102
2402.00,0.0102
2401.00,0.0102
2400.00,0.0102
2399.00,0.0102
2398.00,0.0102
2397.00,0.0102
2396.00,0.0101
2395.00,0.0101
2394.00,0.0101
2393.00,0.0101
2392.00,0.0101
2391.00,0.0101
2390.00,0.0101
2389.00,0.0101
2388.00,0.0101
2387.00,0.0101
2386.00,0.0100
2385.00,0.0100
2384.00,0.0100
2383.00,0.0100
2382.00,0.0099
2381.00,0.0099
2380.00,0.0099
2379.00,0.0099
2378.00,0.0099
2377.00,0.0099
2376.00,0.0099
2375.00,0.0099
2374.00,0.0099
2373.00,0.0099
2372.00,0.0099
2371.00,0.0099
2370.00,0.0099
2369.00,0.0099
2368.00,0.0099
2367.00,0.0098
2366.00,0.0098
2365.00,0.0099
2364.00,0.0099
2363.00,0.0099
2362.00,0.0099
2361.00,0.0099
2360.00,0.0099
2359.00,0.0099
2358.00,0.0099
2357.00,0.0099
2356.00,0.0099
2355.00,0.0098
2354.00,0.0098
2353.00,0.0097
2352.00,0.0098
2351.00,0.0098
2350.00,0.0099
2349.00,0.0100
2348.00,0.0101
2347.00,0.0101
2346.00,0.0101
2345.00,0.0101
2344.00,0.0101
2343.00,0.0101
2342.00,0.0101
2341.00,0.0102
2340.00,0.0102
2339.00,0.0102
2338.00,0.0102
2337.00,0.0102
2336.00,0.0102
2335.00,0.0102
2334.00,0.0102
2333.00,0.0101
2332.00,0.0101
2331.00,0.0101
2330.00,0.0101
2329.00,0.0103
2328.00,0.0105
2327.00,0.0109
2326.00,0.0112
2325.00,0.0113
2324.00,0.0113
2323.00,0.0111
2322.00,0.0109
2321.00,0.0108
2320.00,0.0107
2319.00,0.0106
2318.00,0.0106
2317.00,0.0105
2316.00,0.0105
2315.00,0.0104
2314.00,0.0104
2313.00,0.0103
2312.00,0.0103
2311.00,0.0103
2310.00,0.0103
2309.00,0.0103
2308.00,0.0103
2307.00,0.0103
2306.00,0.0103
2305.00,0.0103
2304.00,0.0103
2303.00,0.0103
2302.00,0.0103
2301.00,0.0103
2300.00,0.0104
2299.00,0.0104
2298.00,0.0104
2297.00,0.0104
2296.00,0.0105
2295.00,0.0105
2294.00,0.0106
2293.00,0.0107
2292.00,0.0107
2291.00,0.0108
2290.00,0.0108
2289.00,0.0109
2288.00,0.0109
2287.00,0.0109
2286.00,0.0109
2285.00,0.0108
2284.00,0.0108
2283.00,0.0107
2282.00,0.0106
2281.00,0.0106
2280.00,0.0105
2279.00,0.0105
2278.00,0.0105
2277.00,0.0104
2276.00,0.0104
2275.00,0.0104
2274.00,0.0103
2273.00,0.0103
2272.00,0.0103
2271.00,0.0103
2270.00,0.0102
2269.00,0.0102
2268.00,0.0102
2267.00,0.0101
2266.00,0.0101
2265.00,0.0101
2264.00,0.0101
2263.00,0.0101
2262.00,0.0101
2261.00,0.0101
2260.00,0.0101
2259.00,0.0101
2258.00,0.0101
2257.00,0.0100
2256.00,0.0099
2255.00,0.0098
2254.00,0.0098
2253.00,0.0098
2252.00,0.0098
2251.00,0.0098
2250.00,0.0098
2249.00,0.0098
2248.00,0.0098
2247.00,0.0098
2246.00,0.0099
2245.00,0.0099
2244.00,0.0098
2243.00,0.0098
2242.00,0.0098
2241.00,0.0098
2240.00,0.0098
2239.00,0.0097
2238.00,0.0097
2237.00,0.0097
2236.00,0.0097
2235.00,0.0098
2234.00,0.0098
2233.00,0.0098
2232.00,0.0098
2231.00,0.0098
2230.00,0.0097
2229.00,0.0097
2228.00,0.0097
2227.00,0.0097
2226.00,0.0097
2225.00,0.0097
2224.00,0.0097
2223.00,0.0097
2222.00,0.0097
2221.00,0.0096
2220.00,0.0096
2219.00,0.0096
2218.00,0.0095
2217.00,0.0096
2216.00,0.0096
2215.00,0.0096
2214.00,0.0096
2213.00,0.0096
2212.00,0.0096
2211.00,0.0096
2210.00,0.0096
2209.00,0.0096
2208.00,0.0096
2207.00,0.0096
2206.00,0.0096
2205.00,0.0096
2204.00,0.0097
2203.00,0.0097
2202.00,0.0097
2201.00,0.0097
2200.00,0.0097
2199.00,0.0096
2198.00,0.0096
2197.00,0.0096
2196.00,0.0097
2195.00,0.0097
2194.00,0.0098
2193.00,0.0098
2192.00,0.0097
2191.00,0.0097
2190.00,0.0097
2189.00,0.0097
2188.00,0.0098
2187.00,0.0098
2186.00,0.0097
2185.00,0.0096
2184.00,0.0094
2183.00,0.0092
2182.00,0.0091
2181.00,0.0091
2180.00,0.0092
2179.00,0.0092
2178.00,0.0091
2177.00,0.0090
2176.00,0.0089
2175.00,0.0089
2174.00,0.0090
2173.00,0.0091
2172.00,0.0093
2171.00,0.0095
2170.00,0.0097
2169.00,0.0099
2168.00,0.0100
2167.00,0.0101
2166.00,0.0102
2165.00,0.0104
2164.00,0.0105
2163.00,0.0104
2162.00,0.0100
2161.00,0.0090
2160.00,0.0078
2159.00,0.0067
2158.00,0.0061
2157.00,0.0061
2156.00,0.0064
2155.00,0.0068
2154.00,0.0071
2153.00,0.0073
2152.00,0.0075
2151.00,0.0076
2150.00,0.0077
2149.00,0.0077
2148.00,0.0077
2147.00,0.0076
2146.00,0.0076
2145.00,0.0076
2144.00,0.0077
2143.00,0.0078
2142.00,0.0078
2141.00,0.0079
2140.00,0.0079
2139.00,0.0079
2138.00,0.0078
2137.00,0.0077
2136.00,0.0075
2135.00,0.0074
2134.00,0.0073
2133.00,0.0073
2132.00,0.0074
2131.00,0.0075
2130.00,0.0076
2129.00,0.0077
2128.00,0.0079
2127.00,0.0080
2126.00,0.0081
2125.00,0.0083
2124.00,0.0083
2123.00,0.0084
2122.00,0.0084
2121.00,0.0085
2120.00,0.0086
2119.00,0.0087
2118.00,0.0088
2117.00,0.0088
2116.00,0.0089
2115.00,0.0089
2114.00,0.0089
2113.00,0.0089
2112.00,0.0089
2111.00,0.0089
2110.00,0.0089
2109.00,0.0089
2108.00,0.0089
2107.00,0.0089
2106.00,0.0089
2105.00,0.0089
2104.00,0.0089
2103.00,0.0089
2102.00,0.0089
2101.00,0.0089
2100.00,0.0088
2099.00,0.0088
2098.00,0.0087
2097.00,0.0085
2096.00,0.0084
2095.00,0.0084
2094.00,0.0084
2093.00,0.0084
2092.00,0.0085
2091.00,0.0086
2090.00,0.0087
2089.00,0.0088
2088.00,0.0089
2087.00,0.0089
2086.00,0.0089
2085.00,0.0089
2084.00,0.0090
2083.00,0.0090
2082.00,0.0090
2081.00,0.0089
2080.00,0.0089
2079.00,0.0089
2078.00,0.0089
2077.00,0.0089
2076.00,0.0088
2075.00,0.0088
2074.00,0.0088
2073.00,0.0088
2072.00,0.0088
2071.00,0.0087
2070.00,0.0087
2069.00,0.0087
2068.00,0.0087
2067.00,0.0087
2066.00,0.0087
2065.00,0.0087
2064.00,0.0087
2063.00,0.0086
2062.00,0.0086
2061.00,0.0086
2060.00,0.0086
2059.00,0.0086
2058.00,0.0087
2057.00,0.0088
2056.00,0.0087
2055.00,0.0088
2054.00,0.0089
2053.00,0.0092
2052.00,0.0094
2051.00,0.0095
2050.00,0.0093
2049.00,0.0090
2048.00,0.0088
2047.00,0.0087
2046.00,0.0086
2045.00,0.0086
2044.00,0.0085
2043.00,0.0085
2042.00,0.0086
2041.00,0.0086
2040.00,0.0086
2039.00,0.0086
2038.00,0.0085
2037.00,0.0084
2036.00,0.0083
2035.00,0.0082
2034.00,0.0080
2033.00,0.0079
2032.00,0.0077
2031.00,0.0076
2030.00,0.0076
2029.00,0.0076
2028.00,0.0075
2027.00,0.0075
2026.00,0.0075
2025.00,0.0074
2024.00,0.0075
2023.00,0.0076
2022.00,0.0077
2021.00,0.0077
2020.00,0.0076
2019.00,0.0075
2018.00,0.0075
2017.00,0.0076
2016.00,0.0076
2015.00,0.0077
2014.00,0.0078
2013.00,0.0078
2012.00,0.0078
2011.00,0.0077
2010.00,0.0076
2009.00,0.0074
2008.00,0.0073
2007.00,0.0071
2006.00,0.0070
2005.00,0.0070
2004.00,0.0071
2003.00,0.0072
2002.00,0.0073
2001.00,0.0074
2000.00,0.0075
1999.00,0.0076
1998.00,0.0077
1997.00,0.0077
1996.00,0.0078
1995.00,0.0079
1994.00,0.0079
1993.00,0.0079
1992.00,0.0079
1991.00,0.0080
1990.00,0.0080
1989.00,0.0081
1988.00,0.0081
1987.00,0.0082
1986.00,0.0083
1985.00,0.0084
1984.00,0.0085
1983.00,0.0086
1982.00,0.0088
1981.00,0.0089
1980.00,0.0087
1979.00,0.0083
1978.00,0.0078
1977.00,0.0073
1976.00,0.0071
1975.00,0.0069
1974.00,0.0069
1973.00,0.0068
1972.00,0.0069
1971.00,0.0069
1970.00,0.0069
1969.00,0.0069
1968.00,0.0070
1967.00,0.0070
1966.00,0.0070
1965.00,0.0069
1964.00,0.0069
1963.00,0.0068
1962.00,0.0068
1961.00,0.0067
1960.00,0.0066
1959.00,0.0066
1958.00,0.0065
1957.00,0.0066
1956.00,0.0067
1955.00,0.0067
1954.00,0.0068
1953.00,0.0069
1952.00,0.0069
1951.00,0.0069
1950.00,0.0069
1949.00,0.0069
1948.00,0.0069
1947.00,0.0069
1946.00,0.0069
1945.00,0.0068
1944.00,0.0068
1943.00,0.0069
1942.00,0.0069
1941.00,0.0069
1940.00,0.0069
1939.00,0.0070
1938.00,0.0070
1937.00,0.0070
1936.00,0.0070
1935.00,0.0070
1934.00,0.0070
1933.00,0.0070
1932.00,0.0070
1931.00,0.0070
1930.00,0.0070
1929.00,0.0070
1928.00,0.0069
1927.00,0.0069
1926.00,0.0069
1925.00,0.0069
1924.00,0.0069
1923.00,0.0070
1922.00,0.0071
1921.00,0.0071
1920.00,0.0071
1919.00,0.0071
1918.00,0.0071
1917.00,0.0071
1916.00,0.0071
1915.00,0.0071
1914.00,0.0070
1913.00,0.0070
1912.00,0.0070
1911.00,0.0070
1910.00,0.0070
1909.00,0.0070
1908.00,0.0071
1907.00,0.0071
1906.00,0.0071
1905.00,0.0071
1904.00,0.0071
1903.00,0.0071
1902.00,0.0070
1901.00,0.0070
1900.00,0.0070
1899.00,0.0070
1898.00,0.0070
1897.00,0.0070
1896.00,0.0070
1895.00,0.0070
1894.00,0.0070
1893.00,0.0069
1892.00,0.0069
1891.00,0.0069
1890.00,0.0070
1889.00,0.0070
1888.00,0.0070
1887.00,0.0070
1886.00,0.0069
1885.00,0.0069
1884.00,0.0069
1883.00,0.0069
1882.00,0.0069
1881.00,0.0069
1880.00,0.0069
1879.00,0.0069
1878.00,0.0069
1877.00,0.0069
1876.00,0.0069
1875.00,0.0069
1874.00,0.0069
1873.00,0.0068
1872.00,0.0068
1871.00,0.0068
1870.00,0.0068
1869.00,0.0068
1868.00,0.0068
1867.00,0.0068
1866.00,0.0068
1865.00,0.0068
1864.00,0.0068
1863.00,0.0068
1862.00,0.0068
1861.00,0.0068
1860.00,0.0068
1859.00,0.0068
1858.00,0.0068
1857.00,0.0068
1856.00,0.0067
1855.00,0.0067
1854.00,0.0067
1853.00,0.0067
1852.00,0.0067
1851.00,0.0067
1850.00,0.0067
1849.00,0.0066
1848.00,0.0066
1847.00,0.0067
1846.00,0.0067
1845.00,0.0067
1844.00,0.0067
1843.00,0.0067
1842.00,0.0067
1841.00,0.0066
1840.00,0.0066
1839.00,0.0066
1838.00,0.0066
1837.00,0.0066
1836.00,0.0066
1835.00,0.0066
1834.00,0.0065
1833.00,0.0065
1832.00,0.0065
1831.00,0.0065
1830.00,0.0065
1829.00,0.0065
1828.00,0.0065
1827.00,0.0065
1826.00,0.0065
1825.00,0.0066
1824.00,0.0066
1823.00,0.0066
1822.00,0.0065
1821.00,0.0065
1820.00,0.0064
1819.00,0.0064
1818.00,0.0063
1817.00,0.0062
1816.00,0.0062
1815.00,0.0063
1814.00,0.0063
1813.00,0.0063
1812.00,0.0063
1811.00,0.0064
1810.00,0.0064
1809.00,0.0064
1808.00,0.0064
1807.00,0.0064
1806.00,0.0064
1805.00,0.0064
1804.00,0.0064
1803.00,0.0064
1802.00,0.0063
1801.00,0.0064
1800.00,0.0064
1799.00,0.0064
1798.00,0.0064
1797.00,0.0063
1796.00,0.0063
1795.00,0.0063
1794.00,0.0063
1793.00,0.0064
1792.00,0.0064
1791.00,0.0064
1790.00,0.0064
1789.00,0.0063
1788.00,0.0063
1787.00,0.0063
1786.00,0.0063
1785.00,0.0063
1784.00,0.0063
1783.00,0.0063
1782.00,0.0062
1781.00,0.0062
1780.00,0.0062
1779.00,0.0062
1778.00,0.0061
1777.00,0.0061
1776.00,0.0061
1775.00,0.0061
1774.00,0.0061
1773.00,0.0061
1772.00,0.0062
1771.00,0.0061
1770.00,0.0061
1769.00,0.0062
1768.00,0.0062
1767.00,0.0062
1766.00,0.0061
1765.00,0.0061
1764.00,0.0061
1763.00,0.0061
1762.00,0.0061
1761.00,0.0061
1760.00,0.0061
1759.00,0.0061
1758.00,0.0061
1757.00,0.0062
1756.00,0.0062
1755.00,0.0062
1754.00,0.0062
1753.00,0.0062
1752.00,0.0063
1751.00,0.0062
1750.00,0.0062
1749.00,0.0062
1748.00,0.0062
1747.00,0.0063
1746.00,0.0063
1745.00,0.0063
1744.00,0.0063
1743.00,0.0063
1742.00,0.0063
1741.00,0.0063
1740.00,0.0064
1739.00,0.0064
1738.00,0.0065
1737.00,0.0066
1736.00,0.0067
1735.00,0.0068
1734.00,0.0068
1733.00,0.0067
1732.00,0.0066
1731.00,0.0065
1730.00,0.0065
1729.00,0.0065
1728.00,0.0066
1727.00,0.0066
1726.00,0.0066
1725.00,0.0066
1724.00,0.0066
1723.00,0.0067
1722.00,0.0067
1721.00,0.0067
1720.00,0.0068
1719.00,0.0069
1718.00,0.0070
1717.00,0.0070
1716.00,0.0070
1715.00,0.0071
1714.00,0.0071
1713.00,0.0072
1712.00,0.0074
1711.00,0.0076
1710.00,0.0077
1709.00,0.0079
1708.00,0.0081
1707.00,0.0085
1706.00,0.0090
1705.00,0.0096
1704.00,0.0102
1703.00,0.0109
1702.00,0.0117
1701.00,0.0131
1700.00,0.0148
1699.00,0.0161
1698.00,0.0170
1697.00,0.0178
1696.00,0.0185
1695.00,0.0191
1694.00,0.0193
1693.00,0.0195
1692.00,0.0198
1691.00,0.0202
1690.00,0.0207
1689.00,0.0212
1688.00,0.0218
1687.00,0.0223
1686.00,0.0228
1685.00,0.0236
1684.00,0.0245
1683.00,0.0252
1682.00,0.0258
1681.00,0.0264
1680.00,0.0270
1679.00,0.0277
1678.00,0.0284
1677.00,0.0291
1676.00,0.0299
1675.00,0.0308
1674.00,0.0316
1673.00,0.0322
1672.00,0.0329
1671.00,0.0337
1670.00,0.0347
1669.00,0.0357
1668.00,0.0366
1667.00,0.0374
1666.00,0.0381
1665.00,0.0388
1664.00,0.0397
1663.00,0.0407
1662.00,0.0416
1661.00,0.0424
1660.00,0.0432
1659.00,0.0439
1658.00,0.0445
1657.00,0.0452
1656.00,0.0459
1655.00,0.0466
1654.00,0.0475
1653.00,0.0481
1652.00,0.0484
1651.00,0.0484
1650.00,0.0485
1649.00,0.0488
1648.00,0.0492
1647.00,0.0497
1646.00,0.0501
1645.00,0.0503
1644.00,0.0505
1643.00,0.0507
1642.00,0.0510
1641.00,0.0513
1640.00,0.0516
1639.00,0.0519
1638.00,0.0522
1637.00,0.0526
1636.00,0.0531
1635.00,0.0535
1634.00,0.0538
1633.00,0.0541
1632.00,0.0545
1631.00,0.0549
1630.00,0.0554
1629.00,0.0558
1628.00,0.0563
1627.00,0.0568
1626.00,0.0572
1625.00,0.0576
1624.00,0.0580
1623.00,0.0583
1622.00,0.0586
1621.00,0.0587
1620.00,0.0588
1619.00,0.0588
1618.00,0.0586
1617.00,0.0580
1616.00,0.0569
1615.00,0.0558
1614.00,0.0548
1613.00,0.0537
1612.00,0.0524
1611.00,0.0510
1610.00,0.0494
1609.00,0.0478
1608.00,0.0462
1607.00,0.0446
1606.00,0.0432
1605.00,0.0418
1604.00,0.0404
1603.00,0.0391
1602.00,0.0379
1601.00,0.0368
1600.00,0.0358
1599.00,0.0349
1598.00,0.0340
1597.00,0.0332
1596.00,0.0325
1595.00,0.0318
1594.00,0.0311
1593.00,0.0306
1592.00,0.0300
1591.00,0.0294
1590.00,0.0290
1589.00,0.0286
1588.00,0.0282
1587.00,0.0278
1586.00,0.0276
1585.00,0.0273
1584.00,0.0271
1583.00,0.0269
1582.00,0.0268
1581.00,0.0267
1580.00,0.0267
1579.00,0.0268
1578.00,0.0269
1577.00,0.0271
1576.00,0.0272
1575.00,0.0272
1574.00,0.0273
1573.00,0.0275
1572.00,0.0277
1571.00,0.0280
1570.00,0.0284
1569.00,0.0290
1568.00,0.0294
1567.00,0.0298
1566.00,0.0303
1565.00,0.0309
1564.00,0.0315
1563.00,0.0321
1562.00,0.0326
1561.00,0.0331
1560.00,0.0338
1559.00,0.0349
1558.00,0.0359
1557.00,0.0365
1556.00,0.0371
1555.00,0.0377
1554.00,0.0384
1553.00,0.0391
1552.00,0.0397
1551.00,0.0404
1550.00,0.0411
1549.00,0.0419
1548.00,0.0425
1547.00,0.0430
1546.00,0.0435
1545.00,0.0441
1544.00,0.0447
1543.00,0.0452
1542.00,0.0458
1541.00,0.0464
1540.00,0.0471
1539.00,0.0476
1538.00,0.0479
1537.00,0.0482
1536.00,0.0485
1535.00,0.0488
1534.00,0.0494
1533.00,0.0499
1532.00,0.0504
1531.00,0.0507
1530.00,0.0511
1529.00,0.0515
1528.00,0.0519
1527.00,0.0523
1526.00,0.0526
1525.00,0.0530
1524.00,0.0533
1523.00,0.0536
1522.00,0.0541
1521.00,0.0544
1520.00,0.0545
1519.00,0.0546
1518.00,0.0548
1517.00,0.0550
1516.00,0.0550
1515.00,0.0548
1514.00,0.0546
1513.00,0.0542
1512.00,0.0536
1511.00,0.0531
1510.00,0.0526
1509.00,0.0521
1508.00,0.0513
1507.00,0.0501
1506.00,0.0486
1505.00,0.0474
1504.00,0.0465
1503.00,0.0457
1502.00,0.0450
1501.00,0.0441
1500.00,0.0432
1499.00,0.0424
1498.00,0.0415
1497.00,0.0404
1496.00,0.0393
1495.00,0.0382
1494.00,0.0373
1493.00,0.0365
1492.00,0.0357
1491.00,0.0348
1490.00,0.0339
1489.00,0.0330
1488.00,0.0321
1487.00,0.0315
1486.00,0.0309
1485.00,0.0303
1484.00,0.0298
1483.00,0.0294
1482.00,0.0290
1481.00,0.0286
1480.00,0.0282
1479.00,0.0280
1478.00,0.0277
1477.00,0.0276
1476.00,0.0274
1475.00,0.0273
1474.00,0.0273
1473.00,0.0273
1472.00,0.0274
1471.00,0.0275
1470.00,0.0275
1469.00,0.0276
1468.00,0.0276
1467.00,0.0276
1466.00,0.0276
1465.00,0.0277
1464.00,0.0277
1463.00,0.0278
1462.00,0.0279
1461.00,0.0281
1460.00,0.0284
1459.00,0.0288
1458.00,0.0294
1457.00,0.0299
1456.00,0.0302
1455.00,0.0302
1454.00,0.0303
1453.00,0.0304
1452.00,0.0305
1451.00,0.0305
1450.00,0.0305
1449.00,0.0304
1448.00,0.0304
1447.00,0.0302
1446.00,0.0301
1445.00,0.0299
1444.00,0.0297
1443.00,0.0294
1442.00,0.0292
1441.00,0.0289
1440.00,0.0286
1439.00,0.0284
1438.00,0.0282
1437.00,0.0279
1436.00,0.0275
1435.00,0.0272
1434.00,0.0269
1433.00,0.0266
1432.00,0.0264
1431.00,0.0262
1430.00,0.0261
1429.00,0.0260
1428.00,0.0259
1427.00,0.0258
1426.00,0.0258
1425.00,0.0258
1424.00,0.0259
1423.00,0.0260
1422.00,0.0261
1421.00,0.0262
1420.00,0.0263
1419.00,0.0265
1418.00,0.0266
1417.00,0.0267
1416.00,0.0268
1415.00,0.0269
1414.00,0.0271
1413.00,0.0273
1412.00,0.0274
1411.00,0.0276
1410.00,0.0277
1409.00,0.0279
1408.00,0.0280
1407.00,0.0281
1406.00,0.0282
1405.00,0.0283
1404.00,0.0283
1403.00,0.0283
1402.00,0.0283
1401.00,0.0283
1400.00,0.0283
1399.00,0.0283
1398.00,0.0283
1397.00,0.0283
1396.00,0.0283
1395.00,0.0283
1394.00,0.0283
1393.00,0.0282
1392.00,0.0282
1391.00,0.0282
1390.00,0.0282
1389.00,0.0282
1388.00,0.0282
1387.00,0.0281
1386.00,0.0280
1385.00,0.0279
1384.00,0.0278
1383.00,0.0277
1382.00,0.0276
1381.00,0.0274
1380.00,0.0273
1379.00,0.0272
1378.00,0.0270
1377.00,0.0269
1376.00,0.0268
1375.00,0.0267
1374.00,0.0267
1373.00,0.0266
1372.00,0.0266
1371.00,0.0265
1370.00,0.0264
1369.00,0.0263
1368.00,0.0262
1367.00,0.0260
1366.00,0.0259
1365.00,0.0257
1364.00,0.0255
1363.00,0.0253
1362.00,0.0252
1361.00,0.0250
1360.00,0.0249
1359.00,0.0247
1358.00,0.0246
1357.00,0.0245
1356.00,0.0244
1355.00,0.0244
1354.00,0.0243
1353.00,0.0243
1352.00,0.0242
1351.00,0.0242
1350.00,0.0241
1349.00,0.0241
1348.00,0.0241
1347.00,0.0241
1346.00,0.0242
1345.00,0.0242
1344.00,0.0242
1343.00,0.0242
1342.00,0.0242
1341.00,0.0243
1340.00,0.0243
1339.00,0.0243
1338.00,0.0243
1337.00,0.0243
1336.00,0.0243
1335.00,0.0243
1334.00,0.0243
1333.00,0.0242
1332.00,0.0242
1331.00,0.0242
1330.00,0.0242
1329.00,0.0242
1328.00,0.0242
1327.00,0.0242
1326.00,0.0242
1325.00,0.0242
1324.00,0.0242
1323.00,0.0242
1322.00,0.0243
1321.00,0.0243
1320.00,0.0243
1319.00,0.0244
1318.00,0.0244
1317.00,0.0244
1316.00,0.0244
1315.00,0.0245
1314.00,0.0245
1313.00,0.0245
1312.00,0.0245
1311.00,0.0245
1310.00,0.0245
1309.00,0.0245
1308.00,0.0244
1307.00,0.0244
1306.00,0.0244
1305.00,0.0244
1304.00,0.0243
1303.00,0.0243
1302.00,0.0242
1301.00,0.0242
1300.00,0.0242
1299.00,0.0241
1298.00,0.0241
1297.00,0.0241
1296.00,0.0240
1295.00,0.0240
1294.00,0.0240
1293.00,0.0240
1292.00,0.0240
1291.00,0.0240
1290.00,0.0240
1289.00,0.0240
1288.00,0.0240
1287.00,0.0240
1286.00,0.0240
1285.00,0.0240
1284.00,0.0240
1283.00,0.0240
1282.00,0.0240
1281.00,0.0240
1280.00,0.0239
1279.00,0.0239
1278.00,0.0239
1277.00,0.0239
1276.00,0.0239
1275.00,0.0238
1274.00,0.0239
1273.00,0.0239
1272.00,0.0239
1271.00,0.0239
1270.00,0.0240
1269.00,0.0240
1268.00,0.0241
1267.00,0.0241
1266.00,0.0242
1265.00,0.0243
1264.00,0.0244
1263.00,0.0245
1262.00,0.0247
1261.00,0.0248
1260.00,0.0250
1259.00,0.0252
1258.00,0.0254
1257.00,0.0256
1256.00,0.0258
1255.00,0.0260
1254.00,0.0262
1253.00,0.0265
1252.00,0.0266
1251.00,0.0268
1250.00,0.0270
1249.00,0.0272
1248.00,0.0273
1247.00,0.0275
1246.00,0.0276
1245.00,0.0278
1244.00,0.0279
1243.00,0.0280
1242.00,0.0281
1241.00,0.0281
1240.00,0.0282
1239.00,0.0282
1238.00,0.0283
1237.00,0.0283
1236.00,0.0283
1235.00,0.0283
1234.00,0.0283
1233.00,0.0283
1232.00,0.0283
1231.00,0.0283
1230.00,0.0282
1229.00,0.0282
1228.00,0.0281
1227.00,0.0280
1226.00,0.0279
1225.00,0.0278
1224.00,0.0277
1223.00,0.0275
1222.00,0.0274
1221.00,0.0273
1220.00,0.0271
1219.00,0.0269
1218.00,0.0267
1217.00,0.0265
1216.00,0.0263
1215.00,0.0261
1214.00,0.0259
1213.00,0.0257
1212.00,0.0255
1211.00,0.0253
1210.00,0.0250
1209.00,0.0248
1208.00,0.0246
1207.00,0.0243
1206.00,0.0241
1205.00,0.0239
1204.00,0.0236
1203.00,0.0234
1202.00,0.0232
1201.00,0.0230
1200.00,0.0228
1199.00,0.0226
1198.00,0.0224
1197.00,0.0223
1196.00,0.0221
1195.00,0.0220
1194.00,0.0219
1193.00,0.0218
1192.00,0.0217
1191.00,0.0216
1190.00,0.0215
1189.00,0.0214
1188.00,0.0213
1187.00,0.0213
1186.00,0.0212
1185.00,0.0212
1184.00,0.0211
1183.00,0.0211
1182.00,0.0212
1181.00,0.0212
1180.00,0.0213
1179.00,0.0213
1178.00,0.0215
1177.00,0.0216
1176.00,0.0218
1175.00,0.0220
1174.00,0.0222
1173.00,0.0224
1172.00,0.0226
1171.00,0.0228
1170.00,0.0230
1169.00,0.0231
1168.00,0.0232
1167.00,0.0234
1166.00,0.0235
1165.00,0.0236
1164.00,0.0236
1163.00,0.0237
1162.00,0.0237
1161.00,0.0238
1160.00,0.0237
1159.00,0.0237
1158.00,0.0237
1157.00,0.0236
1156.00,0.0235
1155.00,0.0234
1154.00,0.0233
1153.00,0.0232
1152.00,0.0231
1151.00,0.0229
1150.00,0.0228
1149.00,0.0227
1148.00,0.0225
1147.00,0.0224
1146.00,0.0223
1145.00,0.0221
1144.00,0.0220
1143.00,0.0219
1142.00,0.0218
1141.00,0.0217
1140.00,0.0217
1139.00,0.0216
1138.00,0.0216
1137.00,0.0215
1136.00,0.0214
1135.00,0.0214
1134.00,0.0214
1133.00,0.0214
1132.00,0.0214
1131.00,0.0214
1130.00,0.0214
1129.00,0.0214
1128.00,0.0214
1127.00,0.0214
1126.00,0.0214
1125.00,0.0214
1124.00,0.0213
1123.00,0.0213
1122.00,0.0213
1121.00,0.0213
1120.00,0.0213
1119.00,0.0212
1118.00,0.0212
1117.00,0.0212
1116.00,0.0212
1115.00,0.0212
1114.00,0.0213
1113.00,0.0213
1112.00,0.0213
1111.00,0.0213
1110.00,0.0214
1109.00,0.0214
1108.00,0.0214
1107.00,0.0215
1106.00,0.0216
1105.00,0.0216
1104.00,0.0216
1103.00,0.0217
1102.00,0.0218
1101.00,0.0218
1100.00,0.0219
1099.00,0.0220
1098.00,0.0221
1097.00,0.0221
1096.00,0.0222
1095.00,0.0223
1094.00,0.0225
1093.00,0.0227
1092.00,0.0228
1091.00,0.0230
1090.00,0.0233
1089.00,0.0235
1088.00,0.0238
1087.00,0.0241
1086.00,0.0244
1085.00,0.0247
1084.00,0.0250
1083.00,0.0253
1082.00,0.0257
1081.00,0.0260
1080.00,0.0263
1079.00,0.0266
1078.00,0.0270
1077.00,0.0273
1076.00,0.0275
1075.00,0.0277
1074.00,0.0280
1073.00,0.0282
1072.00,0.0283
1071.00,0.0285
1070.00,0.0286
1069.00,0.0288
1068.00,0.0289
1067.00,0.0289
1066.00,0.0290
1065.00,0.0291
1064.00,0.0291
1063.00,0.0291
1062.00,0.0291
1061.00,0.0291
1060.00,0.0290
1059.00,0.0289
1058.00,0.0288
1057.00,0.0287
1056.00,0.0285
1055.00,0.0284
1054.00,0.0283
1053.00,0.0282
1052.00,0.0280
1051.00,0.0279
1050.00,0.0278
1049.00,0.0277
1048.00,0.0275
1047.00,0.0274
1046.00,0.0272
1045.00,0.0271
1044.00,0.0268
1043.00,0.0266
1042.00,0.0264
1041.00,0.0262
1040.00,0.0260
1039.00,0.0257
1038.00,0.0256
1037.00,0.0254
1036.00,0.0251
1035.00,0.0249
1034.00,0.0248
1033.00,0.0246
1032.00,0.0244
1031.00,0.0242
1030.00,0.0241
1029.00,0.0238
1028.00,0.0236
1027.00,0.0233
1026.00,0.0231
1025.00,0.0228
1024.00,0.0225
1023.00,0.0222
1022.00,0.0220
1021.00,0.0218
1020.00,0.0216
1019.00,0.0214
1018.00,0.0212
1017.00,0.0210
1016.00,0.0208
1015.00,0.0206
1014.00,0.0205
1013.00,0.0203
1012.00,0.0201
1011.00,0.0200
1010.00,0.0199
1009.00,0.0197
1008.00,0.0196
1007.00,0.0194
1006.00,0.0193
1005.00,0.0192
1004.00,0.0191
1003.00,0.0190
1002.00,0.0189
1001.00,0.0188
1000.00,0.0187
999.00,0.0186
998.00,0.0185
997.00,0.0184
996.00,0.0183
995.00,0.0182
994.00,0.0181
993.00,0.0180
992.00,0.0179
991.00,0.0179
990.00,0.0179
989.00,0.0178
988.00,0.0177
987.00,0.0177
986.00,0.0177
985.00,0.0176
984.00,0.0176
983.00,0.0176
982.00,0.0175
981.00,0.0175
980.00,0.0175
979.00,0.0175
978.00,0.0175
977.00,0.0175
976.00,0.0175
975.00,0.0175
974.00,0.0175
973.00,0.0175
972.00,0.0175
971.00,0.0175
970.00,0.0176
969.00,0.0177
968.00,0.0177
967.00,0.0178
966.00,0.0179
965.00,0.0179
964.00,0.0180
963.00,0.0180
962.00,0.0180
961.00,0.0179
960.00,0.0179
959.00,0.0178
958.00,0.0177
957.00,0.0176
956.00,0.0175
955.00,0.0174
954.00,0.0173
953.00,0.0173
952.00,0.0172
951.00,0.0172
950.00,0.0172
949.00,0.0171
948.00,0.0171
947.00,0.0171
946.00,0.0171
945.00,0.0171
944.00,0.0171
943.00,0.0170
942.00,0.0170
941.00,0.0170
940.00,0.0170
939.00,0.0170
938.00,0.0170
937.00,0.0171
936.00,0.0170
935.00,0.0170
934.00,0.0170
933.00,0.0170
932.00,0.0170
931.00,0.0169
930.00,0.0169
929.00,0.0169
928.00,0.0168
927.00,0.0167
926.00,0.0167
925.00,0.0166
924.00,0.0165
923.00,0.0164
922.00,0.0164
921.00,0.0163
920.00,0.0163
919.00,0.0162
918.00,0.0162
917.00,0.0161
916.00,0.0161
915.00,0.0160
914.00,0.0160
913.00,0.0161
912.00,0.0161
911.00,0.0161
910.00,0.0161
909.00,0.0162
908.00,0.0162
907.00,0.0162
906.00,0.0163
905.00,0.0163
904.00,0.0163
903.00,0.0163
902.00,0.0164
901.00,0.0164
900.00,0.0163
899.00,0.0162
898.00,0.0162
897.00,0.0162
896.00,0.0162
895.00,0.0161
894.00,0.0161
893.00,0.0160
892.00,0.0159
891.00,0.0158
890.00,0.0158
889.00,0.0157
888.00,0.0156
887.00,0.0155
886.00,0.0155
885.00,0.0155
884.00,0.0154
883.00,0.0154
882.00,0.0154
881.00,0.0154
880.00,0.0154
879.00,0.0154
878.00,0.0154
877.00,0.0155
876.00,0.0154
875.00,0.0154
874.00,0.0154
873.00,0.0154
872.00,0.0154
871.00,0.0153
870.00,0.0153
869.00,0.0153
868.00,0.0153
867.00,0.0152
866.00,0.0152
865.00,0.0152
864.00,0.0151
863.00,0.0151
862.00,0.0151
861.00,0.0151
860.00,0.0151
859.00,0.0151
858.00,0.0152
857.00,0.0153
856.00,0.0153
855.00,0.0153
854.00,0.0154
853.00,0.0155
852.00,0.0155
851.00,0.0155
850.00,0.0155
849.00,0.0155
848.00,0.0155
847.00,0.0154
846.00,0.0155
845.00,0.0155
844.00,0.0155
843.00,0.0156
842.00,0.0157
841.00,0.0157
840.00,0.0158
839.00,0.0158
838.00,0.0160
837.00,0.0161
836.00,0.0161
835.00,0.0162
834.00,0.0164
833.00,0.0165
832.00,0.0166
831.00,0.0166
830.00,0.0168
829.00,0.0169
828.00,0.0170
827.00,0.0170
826.00,0.0171
825.00,0.0172
824.00,0.0172
823.00,0.0172
822.00,0.0174
821.00,0.0175
820.00,0.0175
819.00,0.0176
818.00,0.0177
817.00,0.0178
816.00,0.0178
815.00,0.0179
814.00,0.0180
813.00,0.0181
812.00,0.0182
811.00,0.0182
810.00,0.0183
809.00,0.0184
808.00,0.0184
807.00,0.0185
806.00,0.0186
805.00,0.0187
804.00,0.0187
803.00,0.0188
802.00,0.0189
801.00,0.0190
800.00,0.0191
799.00,0.0191
798.00,0.0193
797.00,0.0194
796.00,0.0194
795.00,0.0195
794.00,0.0197
793.00,0.0198
792.00,0.0199
791.00,0.0201
790.00,0.0203
789.00,0.0205
788.00,0.0207
787.00,0.0208
786.00,0.0210
785.00,0.0212
784.00,0.0213
783.00,0.0214
782.00,0.0216
781.00,0.0218
780.00,0.0219
779.00,0.0220
778.00,0.0222
777.00,0.0224
776.00,0.0225
775.00,0.0226
774.00,0.0228
773.00,0.0229
772.00,0.0229
771.00,0.0230
770.00,0.0231
769.00,0.0232
768.00,0.0232
767.00,0.0233
766.00,0.0234
765.00,0.0235
764.00,0.0235
763.00,0.0235
762.00,0.0236
761.00,0.0237
760.00,0.0238
759.00,0.0238
758.00,0.0240
757.00,0.0241
756.00,0.0242
755.00,0.0243
754.00,0.0245
753.00,0.0247
752.00,0.0249
751.00,0.0250
750.00,0.0253
749.00,0.0254
748.00,0.0255
747.00,0.0256
746.00,0.0257
745.00,0.0259
744.00,0.0259
743.00,0.0260
742.00,0.0261
741.00,0.0262
740.00,0.0262
739.00,0.0263
738.00,0.0265
737.00,0.0266
736.00,0.0267
735.00,0.0268
734.00,0.0270
733.00,0.0271
732.00,0.0273
731.00,0.0274
730.00,0.0277
729.00,0.0280
728.00,0.0283
727.00,0.0286
726.00,0.0291
725.00,0.0295
724.00,0.0298
723.00,0.0302
722.00,0.0306
721.00,0.0310
720.00,0.0314
719.00,0.0318
718.00,0.0323
717.00,0.0328
716.00,0.0332
715.00,0.0337
714.00,0.0342
713.00,0.0346
712.00,0.0350
711.00,0.0354
710.00,0.0359
709.00,0.0363
708.00,0.0368
707.00,0.0372
706.00,0.0377
705.00,0.0382
704.00,0.0385
703.00,0.0389
702.00,0.0393
701.00,0.0396
700.00,0.0398
699.00,0.0399
698.00,0.0400
697.00,0.0400
696.00,0.0398
695.00,0.0397
694.00,0.0397
693.00,0.0397
692.00,0.0396
691.00,0.0395
690.00,0.0396
689.00,0.0396
688.00,0.0396
687.00,0.0397
686.00,0.0398
685.00,0.0398
684.00,0.0398
683.00,0.0398
682.00,0.0398
681.00,0.0399
680.00,0.0399
679.00,0.0400
678.00,0.0401
677.00,0.0402
676.00,0.0402
675.00,0.0402
674.00,0.0403
673.00,0.0404
672.00,0.0404
671.00,0.0405
670.00,0.0408
669.00,0.0410
668.00,0.0410
667.00,0.0410
666.00,0.0410
665.00,0.0410
664.00,0.0409
663.00,0.0409
662.00,0.0410
661.00,0.0411
660.00,0.0412
659.00,0.0412
658.00,0.0413
657.00,0.0414
656.00,0.0414
655.00,0.0414
654.00,0.0416
653.00,0.0417
652.00,0.0417
651.00,0.0418
650.00,0.0419
649.00,0.0421
648.00,0.0421
647.00,0.0422
646.00,0.0423
645.00,0.0425
644.00,0.0426
643.00,0.0427
642.00,0.0429
641.00,0.0431
640.00,0.0431
639.00,0.0432
638.00,0.0434
637.00,0.0436
636.00,0.0437
635.00,0.0438
634.00,0.0440
633.00,0.0441
632.00,0.0442
631.00,0.0443
630.00,0.0445
629.00,0.0446
628.00,0.0447
627.00,0.0447
626.00,0.0448
625.00,0.0448
624.00,0.0447
623.00,0.0447
622.00,0.0448
621.00,0.0449
620.00,0.0448
619.00,0.0448
618.00,0.0448
617.00,0.0448
616.00,0.0446
615.00,0.0445
614.00,0.0444
613.00,0.0444
612.00,0.0442
611.00,0.0441
610.00,0.0441
609.00,0.0441
608.00,0.0441
607.00,0.0440
606.00,0.0441
605.00,0.0442
604.00,0.0441
603.00,0.0440
602.00,0.0440
601.00,0.0441
600.00,0.0440
599.00,0.0439
598.00,0.0440
597.00,0.0440
596.00,0.0440
595.00,0.0439
594.00,0.0441
593.00,0.0442
592.00,0.0441
591.00,0.0440
590.00,0.0441
589.00,0.0442
588.00,0.0442
587.00,0.0442
586.00,0.0444
585.00,0.0445
584.00,0.0444
583.00,0.0444
582.00,0.0445
581.00,0.0446
580.00,0.0446
579.00,0.0446
578.00,0.0447
577.00,0.0449
576.00,0.0449
575.00,0.0449
574.00,0.0450
573.00,0.0451
572.00,0.0450
571.00,0.0450
570.00,0.0451
569.00,0.0451
568.00,0.0451
567.00,0.0451
566.00,0.0452
565.00,0.0454
564.00,0.0454
563.00,0.0454
562.00,0.0455
561.00,0.0456
560.00,0.0456
559.00,0.0455
558.00,0.0456
557.00,0.0456
556.00,0.0455
555.00,0.0454
554.00,0.0455
553.00,0.0456
552.00,0.0455
551.00,0.0455
550.00,0.0456
549.00,0.0457
548.00,0.0457
547.00,0.0457
546.00,0.0458
545.00,0.0459
544.00,0.0457
543.00,0.0457
542.00,0.0459
541.00,0.0460
540.00,0.0458
539.00,0.0457
538.00,0.0458
537.00,0.0459
536.00,0.0458
535.00,0.0457
534.00,0.0459
533.00,0.0461
532.00,0.0460
531.00,0.0460
530.00,0.0462
529.00,0.0463
528.00,0.0462
527.00,0.0462
526.00,0.0464
525.00,0.0466
524.00,0.0465
523.00,0.0464
522.00,0.0465
521.00,0.0465
520.00,0.0463
519.00,0.0463
518.00,0.0465
517.00,0.0466
516.00,0.0464
515.00,0.0461
514.00,0.0461
513.00,0.0462
512.00,0.0460
511.00,0.0459
510.00,0.0460
509.00,0.0460
508.00,0.0457
507.00,0.0455
506.00,0.0457
505.00,0.0457
504.00,0.0454
503.00,0.0452
502.00,0.0452
501.00,0.0453
500.00,0.0451
499.00,0.0450
498.00,0.0452
497.00,0.0453
496.00,0.0452
495.00,0.0451
494.00,0.0453
493.00,0.0454
492.00,0.0452
491.00,0.0449
490.00,0.0450
489.00,0.0450
488.00,0.0447
487.00,0.0445
486.00,0.0446
485.00,0.0448
484.00,0.0446
483.00,0.0445
482.00,0.0447
481.00,0.0449
480.00,0.0447
479.00,0.0446
478.00,0.0447
477.00,0.0447
476.00,0.0444
475.00,0.0441
474.00,0.0443
473.00,0.0444
472.00,0.0441
471.00,0.0439
470.00,0.0443
469.00,0.0447
468.00,0.0446
467.00,0.0443
466.00,0.0445
465.00,0.0446
464.00,0.0444
463.00,0.0443
462.00,0.0447
461.00,0.0448
460.00,0.0444
459.00,0.0440
458.00,0.0440
457.00,0.0441
456.00,0.0438
455.00,0.0435
454.00,0.0438
453.00,0.0440
452.00,0.0436
451.00,0.0434
450.00,0.0436
449.00,0.0437
448.00,0.0433
447.00,0.0430
446.00,0.0433
445.00,0.0434
444.00,0.0430
443.00,0.0426
442.00,0.0428
441.00,0.0429
440.00,0.0424
439.00,0.0419
438.00,0.0420
437.00,0.0421
436.00,0.0416
435.00,0.0413
434.00,0.0416
433.00,0.0417
432.00,0.0412
431.00,0.0408
430.00,0.0410
429.00,0.0412
428.00,0.0408
427.00,0.0405
426.00,0.0408
425.00,0.0410
424.00,0.0403
423.00,0.0398
422.00,0.0401
421.00,0.0404
420.00,0.0395
419.00,0.0388
418.00,0.0393
417.00,0.0396
416.00,0.0389
415.00,0.0385
414.00,0.0390
413.00,0.0394
412.00,0.0386
411.00,0.0380
410.00,0.0385
409.00,0.0390
408.00,0.0383
407.00,0.0377
406.00,0.0381
405.00,0.0382
404.00,0.0371
403.00,0.0363
402.00,0.0372
401.00,0.0378
400.00,0.0365
