Created as New Dataset,Sample 345 By YargerLab Date Monday, August 19 2024
cm-1,A
4000.00,0.0097
3999.00,0.0097
3998.00,0.0097
3997.00,0.0097
3996.00,0.0097
3995.00,0.0097
3994.00,0.0097
3993.00,0.0097
3992.00,0.0097
3991.00,0.0097
3990.00,0.0097
3989.00,0.0097
3988.00,0.0097
3987.00,0.0097
3986.00,0.0097
3985.00,0.0097
3984.00,0.0097
3983.00,0.0097
3982.00,0.0097
3981.00,0.0097
3980.00,0.0097
3979.00,0.0097
3978.00,0.0097
3977.00,0.0097
3976.00,0.0097
3975.00,0.0097
3974.00,0.0097
3973.00,0.0097
3972.00,0.0097
3971.00,0.0097
3970.00,0.0097
3969.00,0.0097
3968.00,0.0097
3967.00,0.0097
3966.00,0.0097
3965.00,0.0097
3964.00,0.0098
3963.00,0.0098
3962.00,0.0098
3961.00,0.0098
3960.00,0.0097
3959.00,0.0097
3958.00,0.0097
3957.00,0.0097
3956.00,0.0097
3955.00,0.0097
3954.00,0.0097
3953.00,0.0097
3952.00,0.0098
3951.00,0.0098
3950.00,0.0098
3949.00,0.0098
3948.00,0.0098
3947.00,0.0098
3946.00,0.0098
3945.00,0.0098
3944.00,0.0097
3943.00,0.0097
3942.00,0.0097
3941.00,0.0097
3940.00,0.0097
3939.00,0.0097
3938.00,0.0097
3937.00,0.0097
3936.00,0.0097
3935.00,0.0098
3934.00,0.0098
3933.00,0.0098
3932.00,0.0098
3931.00,0.0097
3930.00,0.0097
3929.00,0.0097
3928.00,0.0097
3927.00,0.0097
3926.00,0.0097
3925.00,0.0097
3924.00,0.0097
3923.00,0.0097
3922.00,0.0097
3921.00,0.0097
3920.00,0.0097
3919.00,0.0097
3918.00,0.0097
3917.00,0.0097
3916.00,0.0097
3915.00,0.0097
3914.00,0.0096
3913.00,0.0096
3912.00,0.0096
3911.00,0.0096
3910.00,0.0096
3909.00,0.0096
3908.00,0.0097
3907.00,0.0097
3906.00,0.0097
3905.00,0.0097
3904.00,0.0097
3903.00,0.0097
3902.00,0.0097
3901.00,0.0097
3900.00,0.0097
3899.00,0.0096
3898.00,0.0096
3897.00,0.0096
3896.00,0.0096
3895.00,0.0096
3894.00,0.0096
3893.00,0.0096
3892.00,0.0096
3891.00,0.0096
3890.00,0.0096
3889.00,0.0096
3888.00,0.0096
3887.00,0.0097
3886.00,0.0097
3885.00,0.0097
3884.00,0.0096
3883.00,0.0096
3882.00,0.0096
3881.00,0.0096
3880.00,0.0096
3879.00,0.0096
3878.00,0.0096
3877.00,0.0096
3876.00,0.0096
3875.00,0.0096
3874.00,0.0096
3873.00,0.0096
3872.00,0.0096
3871.00,0.0096
3870.00,0.0096
3869.00,0.0096
3868.00,0.0095
3867.00,0.0096
3866.00,0.0096
3865.00,0.0095
3864.00,0.0095
3863.00,0.0095
3862.00,0.0095
3861.00,0.0096
3860.00,0.0096
3859.00,0.0096
3858.00,0.0095
3857.00,0.0095
3856.00,0.0095
3855.00,0.0095
3854.00,0.0095
3853.00,0.0095
3852.00,0.0094
3851.00,0.0094
3850.00,0.0094
3849.00,0.0095
3848.00,0.0095
3847.00,0.0095
3846.00,0.0095
3845.00,0.0095
3844.00,0.0095
3843.00,0.0095
3842.00,0.0095
3841.00,0.0095
3840.00,0.0095
3839.00,0.0095
3838.00,0.0095
3837.00,0.0095
3836.00,0.0095
3835.00,0.0095
3834.00,0.0094
3833.00,0.0094
3832.00,0.0095
3831.00,0.0095
3830.00,0.0095
3829.00,0.0095
3828.00,0.0095
3827.00,0.0095
3826.00,0.0095
3825.00,0.0095
3824.00,0.0095
3823.00,0.0095
3822.00,0.0095
3821.00,0.0095
3820.00,0.0094
3819.00,0.0094
3818.00,0.0094
3817.00,0.0094
3816.00,0.0093
3815.00,0.0093
3814.00,0.0093
3813.00,0.0093
3812.00,0.0093
3811.00,0.0093
3810.00,0.0093
3809.00,0.0094
3808.00,0.0094
3807.00,0.0094
3806.00,0.0093
3805.00,0.0093
3804.00,0.0094
3803.00,0.0094
3802.00,0.0094
3801.00,0.0093
3800.00,0.0093
3799.00,0.0094
3798.00,0.0094
3797.00,0.0094
3796.00,0.0094
3795.00,0.0093
3794.00,0.0093
3793.00,0.0093
3792.00,0.0093
3791.00,0.0093
3790.00,0.0093
3789.00,0.0093
3788.00,0.0093
3787.00,0.0093
3786.00,0.0093
3785.00,0.0093
3784.00,0.0093
3783.00,0.0093
3782.00,0.0093
3781.00,0.0093
3780.00,0.0093
3779.00,0.0092
3778.00,0.0093
3777.00,0.0093
3776.00,0.0093
3775.00,0.0093
3774.00,0.0093
3773.00,0.0093
3772.00,0.0093
3771.00,0.0093
3770.00,0.0093
3769.00,0.0093
3768.00,0.0093
3767.00,0.0093
3766.00,0.0093
3765.00,0.0093
3764.00,0.0093
3763.00,0.0093
3762.00,0.0093
3761.00,0.0093
3760.00,0.0093
3759.00,0.0093
3758.00,0.0093
3757.00,0.0093
3756.00,0.0093
3755.00,0.0093
3754.00,0.0093
3753.00,0.0094
3752.00,0.0094
3751.00,0.0094
3750.00,0.0094
3749.00,0.0093
3748.00,0.0093
3747.00,0.0093
3746.00,0.0093
3745.00,0.0093
3744.00,0.0092
3743.00,0.0093
3742.00,0.0093
3741.00,0.0093
3740.00,0.0094
3739.00,0.0094
3738.00,0.0094
3737.00,0.0094
3736.00,0.0094
3735.00,0.0093
3734.00,0.0093
3733.00,0.0092
3732.00,0.0092
3731.00,0.0092
3730.00,0.0092
3729.00,0.0092
3728.00,0.0092
3727.00,0.0092
3726.00,0.0092
3725.00,0.0092
3724.00,0.0092
3723.00,0.0092
3722.00,0.0091
3721.00,0.0091
3720.00,0.0091
3719.00,0.0091
3718.00,0.0091
3717.00,0.0091
3716.00,0.0091
3715.00,0.0091
3714.00,0.0091
3713.00,0.0091
3712.00,0.0091
3711.00,0.0091
3710.00,0.0090
3709.00,0.0090
3708.00,0.0090
3707.00,0.0090
3706.00,0.0090
3705.00,0.0090
3704.00,0.0090
3703.00,0.0090
3702.00,0.0090
3701.00,0.0090
3700.00,0.0090
3699.00,0.0090
3698.00,0.0090
3697.00,0.0090
3696.00,0.0090
3695.00,0.0090
3694.00,0.0091
3693.00,0.0091
3692.00,0.0090
3691.00,0.0090
3690.00,0.0090
3689.00,0.0090
3688.00,0.0090
3687.00,0.0091
3686.00,0.0091
3685.00,0.0091
3684.00,0.0091
3683.00,0.0091
3682.00,0.0091
3681.00,0.0091
3680.00,0.0092
3679.00,0.0092
3678.00,0.0092
3677.00,0.0093
3676.00,0.0093
3675.00,0.0093
3674.00,0.0094
3673.00,0.0094
3672.00,0.0094
3671.00,0.0094
3670.00,0.0094
3669.00,0.0094
3668.00,0.0094
3667.00,0.0094
3666.00,0.0095
3665.00,0.0095
3664.00,0.0095
3663.00,0.0095
3662.00,0.0096
3661.00,0.0096
3660.00,0.0096
3659.00,0.0097
3658.00,0.0097
3657.00,0.0098
3656.00,0.0098
3655.00,0.0099
3654.00,0.0099
3653.00,0.0100
3652.00,0.0100
3651.00,0.0101
3650.00,0.0102
3649.00,0.0102
3648.00,0.0103
3647.00,0.0103
3646.00,0.0103
3645.00,0.0103
3644.00,0.0104
3643.00,0.0104
3642.00,0.0104
3641.00,0.0105
3640.00,0.0105
3639.00,0.0105
3638.00,0.0106
3637.00,0.0106
3636.00,0.0107
3635.00,0.0108
3634.00,0.0108
3633.00,0.0109
3632.00,0.0110
3631.00,0.0110
3630.00,0.0111
3629.00,0.0111
3628.00,0.0112
3627.00,0.0113
3626.00,0.0113
3625.00,0.0114
3624.00,0.0115
3623.00,0.0115
3622.00,0.0116
3621.00,0.0116
3620.00,0.0117
3619.00,0.0117
3618.00,0.0118
3617.00,0.0119
3616.00,0.0120
3615.00,0.0121
3614.00,0.0121
3613.00,0.0122
3612.00,0.0123
3611.00,0.0124
3610.00,0.0125
3609.00,0.0125
3608.00,0.0126
3607.00,0.0126
3606.00,0.0127
3605.00,0.0127
3604.00,0.0128
3603.00,0.0128
3602.00,0.0129
3601.00,0.0130
3600.00,0.0130
3599.00,0.0131
3598.00,0.0132
3597.00,0.0132
3596.00,0.0133
3595.00,0.0134
3594.00,0.0135
3593.00,0.0136
3592.00,0.0137
3591.00,0.0137
3590.00,0.0138
3589.00,0.0139
3588.00,0.0139
3587.00,0.0140
3586.00,0.0142
3585.00,0.0143
3584.00,0.0143
3583.00,0.0144
3582.00,0.0145
3581.00,0.0145
3580.00,0.0146
3579.00,0.0147
3578.00,0.0147
3577.00,0.0148
3576.00,0.0149
3575.00,0.0150
3574.00,0.0151
3573.00,0.0152
3572.00,0.0153
3571.00,0.0154
3570.00,0.0155
3569.00,0.0156
3568.00,0.0157
3567.00,0.0158
3566.00,0.0159
3565.00,0.0160
3564.00,0.0161
3563.00,0.0161
3562.00,0.0162
3561.00,0.0163
3560.00,0.0164
3559.00,0.0164
3558.00,0.0165
3557.00,0.0166
3556.00,0.0167
3555.00,0.0168
3554.00,0.0169
3553.00,0.0170
3552.00,0.0171
3551.00,0.0172
3550.00,0.0173
3549.00,0.0174
3548.00,0.0176
3547.00,0.0177
3546.00,0.0178
3545.00,0.0179
3544.00,0.0179
3543.00,0.0180
3542.00,0.0181
3541.00,0.0182
3540.00,0.0182
3539.00,0.0183
3538.00,0.0184
3537.00,0.0185
3536.00,0.0186
3535.00,0.0187
3534.00,0.0187
3533.00,0.0188
3532.00,0.0189
3531.00,0.0190
3530.00,0.0191
3529.00,0.0192
3528.00,0.0193
3527.00,0.0194
3526.00,0.0196
3525.00,0.0197
3524.00,0.0197
3523.00,0.0198
3522.00,0.0199
3521.00,0.0200
3520.00,0.0200
3519.00,0.0201
3518.00,0.0202
3517.00,0.0203
3516.00,0.0204
3515.00,0.0205
3514.00,0.0206
3513.00,0.0207
3512.00,0.0207
3511.00,0.0208
3510.00,0.0209
3509.00,0.0210
3508.00,0.0211
3507.00,0.0212
3506.00,0.0213
3505.00,0.0214
3504.00,0.0216
3503.00,0.0217
3502.00,0.0218
3501.00,0.0219
3500.00,0.0219
3499.00,0.0220
3498.00,0.0221
3497.00,0.0222
3496.00,0.0223
3495.00,0.0224
3494.00,0.0225
3493.00,0.0226
3492.00,0.0226
3491.00,0.0227
3490.00,0.0228
3489.00,0.0229
3488.00,0.0230
3487.00,0.0231
3486.00,0.0232
3485.00,0.0233
3484.00,0.0234
3483.00,0.0235
3482.00,0.0237
3481.00,0.0238
3480.00,0.0239
3479.00,0.0240
3478.00,0.0241
3477.00,0.0242
3476.00,0.0243
3475.00,0.0244
3474.00,0.0245
3473.00,0.0246
3472.00,0.0247
3471.00,0.0248
3470.00,0.0249
3469.00,0.0250
3468.00,0.0251
3467.00,0.0252
3466.00,0.0252
3465.00,0.0253
3464.00,0.0254
3463.00,0.0255
3462.00,0.0256
3461.00,0.0257
3460.00,0.0258
3459.00,0.0259
3458.00,0.0260
3457.00,0.0261
3456.00,0.0261
3455.00,0.0262
3454.00,0.0263
3453.00,0.0264
3452.00,0.0265
3451.00,0.0266
3450.00,0.0267
3449.00,0.0268
3448.00,0.0269
3447.00,0.0270
3446.00,0.0271
3445.00,0.0272
3444.00,0.0273
3443.00,0.0274
3442.00,0.0275
3441.00,0.0276
3440.00,0.0277
3439.00,0.0278
3438.00,0.0279
3437.00,0.0280
3436.00,0.0281
3435.00,0.0282
3434.00,0.0283
3433.00,0.0284
3432.00,0.0285
3431.00,0.0286
3430.00,0.0287
3429.00,0.0287
3428.00,0.0288
3427.00,0.0289
3426.00,0.0290
3425.00,0.0291
3424.00,0.0292
3423.00,0.0293
3422.00,0.0294
3421.00,0.0295
3420.00,0.0296
3419.00,0.0297
3418.00,0.0298
3417.00,0.0299
3416.00,0.0299
3415.00,0.0300
3414.00,0.0301
3413.00,0.0302
3412.00,0.0303
3411.00,0.0304
3410.00,0.0305
3409.00,0.0306
3408.00,0.0306
3407.00,0.0307
3406.00,0.0308
3405.00,0.0309
3404.00,0.0310
3403.00,0.0311
3402.00,0.0312
3401.00,0.0313
3400.00,0.0314
3399.00,0.0314
3398.00,0.0315
3397.00,0.0316
3396.00,0.0317
3395.00,0.0318
3394.00,0.0318
3393.00,0.0319
3392.00,0.0320
3391.00,0.0321
3390.00,0.0322
3389.00,0.0322
3388.00,0.0323
3387.00,0.0324
3386.00,0.0325
3385.00,0.0325
3384.00,0.0326
3383.00,0.0327
3382.00,0.0328
3381.00,0.0329
3380.00,0.0330
3379.00,0.0331
3378.00,0.0332
3377.00,0.0333
3376.00,0.0334
3375.00,0.0335
3374.00,0.0336
3373.00,0.0337
3372.00,0.0338
3371.00,0.0340
3370.00,0.0341
3369.00,0.0342
3368.00,0.0343
3367.00,0.0344
3366.00,0.0345
3365.00,0.0347
3364.00,0.0348
3363.00,0.0349
3362.00,0.0350
3361.00,0.0352
3360.00,0.0353
3359.00,0.0354
3358.00,0.0355
3357.00,0.0357
3356.00,0.0358
3355.00,0.0360
3354.00,0.0361
3353.00,0.0362
3352.00,0.0364
3351.00,0.0365
3350.00,0.0367
3349.00,0.0368
3348.00,0.0370
3347.00,0.0372
3346.00,0.0373
3345.00,0.0375
3344.00,0.0377
3343.00,0.0378
3342.00,0.0380
3341.00,0.0382
3340.00,0.0383
3339.00,0.0385
3338.00,0.0387
3337.00,0.0389
3336.00,0.0390
3335.00,0.0392
3334.00,0.0394
3333.00,0.0396
3332.00,0.0398
3331.00,0.0400
3330.00,0.0403
3329.00,0.0405
3328.00,0.0407
3327.00,0.0409
3326.00,0.0412
3325.00,0.0414
3324.00,0.0416
3323.00,0.0418
3322.00,0.0420
3321.00,0.0423
3320.00,0.0425
3319.00,0.0428
3318.00,0.0430
3317.00,0.0433
3316.00,0.0435
3315.00,0.0438
3314.00,0.0440
3313.00,0.0443
3312.00,0.0446
3311.00,0.0448
3310.00,0.0451
3309.00,0.0453
3308.00,0.0456
3307.00,0.0459
3306.00,0.0461
3305.00,0.0464
3304.00,0.0467
3303.00,0.0470
3302.00,0.0473
3301.00,0.0475
3300.00,0.0478
3299.00,0.0481
3298.00,0.0484
3297.00,0.0486
3296.00,0.0489
3295.00,0.0492
3294.00,0.0494
3293.00,0.0497
3292.00,0.0499
3291.00,0.0501
3290.00,0.0504
3289.00,0.0506
3288.00,0.0508
3287.00,0.0510
3286.00,0.0512
3285.00,0.0514
3284.00,0.0516
3283.00,0.0517
3282.00,0.0518
3281.00,0.0519
3280.00,0.0520
3279.00,0.0521
3278.00,0.0521
3277.00,0.0522
3276.00,0.0522
3275.00,0.0522
3274.00,0.0522
3273.00,0.0521
3272.00,0.0520
3271.00,0.0519
3270.00,0.0518
3269.00,0.0517
3268.00,0.0516
3267.00,0.0515
3266.00,0.0513
3265.00,0.0511
3264.00,0.0509
3263.00,0.0507
3262.00,0.0505
3261.00,0.0503
3260.00,0.0500
3259.00,0.0498
3258.00,0.0495
3257.00,0.0493
3256.00,0.0490
3255.00,0.0488
3254.00,0.0486
3253.00,0.0483
3252.00,0.0481
3251.00,0.0478
3250.00,0.0476
3249.00,0.0473
3248.00,0.0471
3247.00,0.0469
3246.00,0.0467
3245.00,0.0464
3244.00,0.0462
3243.00,0.0460
3242.00,0.0458
3241.00,0.0456
3240.00,0.0453
3239.00,0.0451
3238.00,0.0449
3237.00,0.0447
3236.00,0.0445
3235.00,0.0443
3234.00,0.0441
3233.00,0.0440
3232.00,0.0438
3231.00,0.0436
3230.00,0.0435
3229.00,0.0433
3228.00,0.0432
3227.00,0.0430
3226.00,0.0429
3225.00,0.0427
3224.00,0.0426
3223.00,0.0424
3222.00,0.0423
3221.00,0.0421
3220.00,0.0420
3219.00,0.0418
3218.00,0.0417
3217.00,0.0416
3216.00,0.0414
3215.00,0.0413
3214.00,0.0412
3213.00,0.0410
3212.00,0.0409
3211.00,0.0408
3210.00,0.0406
3209.00,0.0405
3208.00,0.0404
3207.00,0.0402
3206.00,0.0401
3205.00,0.0400
3204.00,0.0398
3203.00,0.0397
3202.00,0.0396
3201.00,0.0395
3200.00,0.0393
3199.00,0.0392
3198.00,0.0391
3197.00,0.0389
3196.00,0.0388
3195.00,0.0386
3194.00,0.0385
3193.00,0.0383
3192.00,0.0382
3191.00,0.0380
3190.00,0.0379
3189.00,0.0377
3188.00,0.0376
3187.00,0.0374
3186.00,0.0372
3185.00,0.0371
3184.00,0.0369
3183.00,0.0367
3182.00,0.0366
3181.00,0.0364
3180.00,0.0363
3179.00,0.0361
3178.00,0.0359
3177.00,0.0358
3176.00,0.0356
3175.00,0.0354
3174.00,0.0353
3173.00,0.0351
3172.00,0.0349
3171.00,0.0348
3170.00,0.0346
3169.00,0.0344
3168.00,0.0343
3167.00,0.0341
3166.00,0.0339
3165.00,0.0338
3164.00,0.0336
3163.00,0.0334
3162.00,0.0333
3161.00,0.0331
3160.00,0.0329
3159.00,0.0328
3158.00,0.0326
3157.00,0.0325
3156.00,0.0324
3155.00,0.0322
3154.00,0.0321
3153.00,0.0319
3152.00,0.0318
3151.00,0.0316
3150.00,0.0315
3149.00,0.0314
3148.00,0.0312
3147.00,0.0311
3146.00,0.0310
3145.00,0.0308
3144.00,0.0307
3143.00,0.0306
3142.00,0.0305
3141.00,0.0304
3140.00,0.0302
3139.00,0.0301
3138.00,0.0300
3137.00,0.0299
3136.00,0.0298
3135.00,0.0297
3134.00,0.0296
3133.00,0.0295
3132.00,0.0294
3131.00,0.0293
3130.00,0.0292
3129.00,0.0291
3128.00,0.0291
3127.00,0.0290
3126.00,0.0289
3125.00,0.0288
3124.00,0.0287
3123.00,0.0287
3122.00,0.0286
3121.00,0.0285
3120.00,0.0285
3119.00,0.0284
3118.00,0.0284
3117.00,0.0283
3116.00,0.0283
3115.00,0.0283
3114.00,0.0283
3113.00,0.0282
3112.00,0.0282
3111.00,0.0282
3110.00,0.0282
3109.00,0.0281
3108.00,0.0281
3107.00,0.0282
3106.00,0.0282
3105.00,0.0282
3104.00,0.0282
3103.00,0.0282
3102.00,0.0282
3101.00,0.0282
3100.00,0.0282
3099.00,0.0282
3098.00,0.0282
3097.00,0.0282
3096.00,0.0283
3095.00,0.0283
3094.00,0.0283
3093.00,0.0283
3092.00,0.0283
3091.00,0.0284
3090.00,0.0284
3089.00,0.0285
3088.00,0.0285
3087.00,0.0285
3086.00,0.0285
3085.00,0.0285
3084.00,0.0285
3083.00,0.0285
3082.00,0.0285
3081.00,0.0285
3080.00,0.0285
3079.00,0.0286
3078.00,0.0286
3077.00,0.0286
3076.00,0.0286
3075.00,0.0287
3074.00,0.0287
3073.00,0.0287
3072.00,0.0287
3071.00,0.0287
3070.00,0.0286
3069.00,0.0286
3068.00,0.0286
3067.00,0.0285
3066.00,0.0285
3065.00,0.0285
3064.00,0.0285
3063.00,0.0284
3062.00,0.0284
3061.00,0.0284
3060.00,0.0283
3059.00,0.0282
3058.00,0.0281
3057.00,0.0281
3056.00,0.0280
3055.00,0.0279
3054.00,0.0278
3053.00,0.0277
3052.00,0.0276
3051.00,0.0275
3050.00,0.0274
3049.00,0.0273
3048.00,0.0272
3047.00,0.0271
3046.00,0.0270
3045.00,0.0268
3044.00,0.0267
3043.00,0.0266
3042.00,0.0265
3041.00,0.0264
3040.00,0.0264
3039.00,0.0263
3038.00,0.0262
3037.00,0.0261
3036.00,0.0260
3035.00,0.0259
3034.00,0.0258
3033.00,0.0257
3032.00,0.0256
3031.00,0.0255
3030.00,0.0254
3029.00,0.0253
3028.00,0.0252
3027.00,0.0251
3026.00,0.0250
3025.00,0.0249
3024.00,0.0248
3023.00,0.0247
3022.00,0.0246
3021.00,0.0245
3020.00,0.0243
3019.00,0.0242
3018.00,0.0241
3017.00,0.0240
3016.00,0.0240
3015.00,0.0239
3014.00,0.0238
3013.00,0.0237
3012.00,0.0237
3011.00,0.0237
3010.00,0.0236
3009.00,0.0236
3008.00,0.0236
3007.00,0.0236
3006.00,0.0235
3005.00,0.0235
3004.00,0.0235
3003.00,0.0235
3002.00,0.0235
3001.00,0.0235
3000.00,0.0235
2999.00,0.0235
2998.00,0.0236
2997.00,0.0236
2996.00,0.0237
2995.00,0.0237
2994.00,0.0238
2993.00,0.0239
2992.00,0.0240
2991.00,0.0241
2990.00,0.0242
2989.00,0.0244
2988.00,0.0245
2987.00,0.0246
2986.00,0.0248
2985.00,0.0249
2984.00,0.0250
2983.00,0.0252
2982.00,0.0253
2981.00,0.0255
2980.00,0.0256
2979.00,0.0258
2978.00,0.0259
2977.00,0.0260
2976.00,0.0262
2975.00,0.0263
2974.00,0.0264
2973.00,0.0265
2972.00,0.0266
2971.00,0.0268
2970.00,0.0268
2969.00,0.0269
2968.00,0.0270
2967.00,0.0270
2966.00,0.0270
2965.00,0.0270
2964.00,0.0271
2963.00,0.0271
2962.00,0.0270
2961.00,0.0270
2960.00,0.0270
2959.00,0.0269
2958.00,0.0269
2957.00,0.0268
2956.00,0.0268
2955.00,0.0267
2954.00,0.0267
2953.00,0.0266
2952.00,0.0266
2951.00,0.0266
2950.00,0.0266
2949.00,0.0266
2948.00,0.0266
2947.00,0.0267
2946.00,0.0267
2945.00,0.0268
2944.00,0.0269
2943.00,0.0271
2942.00,0.0272
2941.00,0.0273
2940.00,0.0274
2939.00,0.0275
2938.00,0.0276
2937.00,0.0277
2936.00,0.0277
2935.00,0.0278
2934.00,0.0278
2933.00,0.0278
2932.00,0.0277
2931.00,0.0276
2930.00,0.0275
2929.00,0.0273
2928.00,0.0271
2927.00,0.0269
2926.00,0.0266
2925.00,0.0263
2924.00,0.0259
2923.00,0.0255
2922.00,0.0250
2921.00,0.0245
2920.00,0.0239
2919.00,0.0233
2918.00,0.0228
2917.00,0.0224
2916.00,0.0222
2915.00,0.0222
2914.00,0.0225
2913.00,0.0228
2912.00,0.0232
2911.00,0.0235
2910.00,0.0237
2909.00,0.0238
2908.00,0.0239
2907.00,0.0239
2906.00,0.0239
2905.00,0.0238
2904.00,0.0238
2903.00,0.0238
2902.00,0.0237
2901.00,0.0237
2900.00,0.0236
2899.00,0.0236
2898.00,0.0235
2897.00,0.0235
2896.00,0.0235
2895.00,0.0234
2894.00,0.0234
2893.00,0.0234
2892.00,0.0234
2891.00,0.0234
2890.00,0.0234
2889.00,0.0234
2888.00,0.0235
2887.00,0.0235
2886.00,0.0235
2885.00,0.0236
2884.00,0.0237
2883.00,0.0237
2882.00,0.0238
2881.00,0.0239
2880.00,0.0240
2879.00,0.0240
2878.00,0.0241
2877.00,0.0241
2876.00,0.0242
2875.00,0.0241
2874.00,0.0241
2873.00,0.0240
2872.00,0.0240
2871.00,0.0239
2870.00,0.0237
2869.00,0.0236
2868.00,0.0234
2867.00,0.0233
2866.00,0.0231
2865.00,0.0229
2864.00,0.0228
2863.00,0.0226
2862.00,0.0225
2861.00,0.0224
2860.00,0.0223
2859.00,0.0221
2858.00,0.0220
2857.00,0.0219
2856.00,0.0217
2855.00,0.0215
2854.00,0.0211
2853.00,0.0207
2852.00,0.0203
2851.00,0.0198
2850.00,0.0193
2849.00,0.0191
2848.00,0.0190
2847.00,0.0192
2846.00,0.0196
2845.00,0.0199
2844.00,0.0201
2843.00,0.0203
2842.00,0.0204
2841.00,0.0204
2840.00,0.0204
2839.00,0.0204
2838.00,0.0204
2837.00,0.0203
2836.00,0.0203
2835.00,0.0203
2834.00,0.0202
2833.00,0.0202
2832.00,0.0201
2831.00,0.0201
2830.00,0.0201
2829.00,0.0200
2828.00,0.0200
2827.00,0.0200
2826.00,0.0199
2825.00,0.0199
2824.00,0.0199
2823.00,0.0198
2822.00,0.0198
2821.00,0.0198
2820.00,0.0197
2819.00,0.0197
2818.00,0.0197
2817.00,0.0196
2816.00,0.0196
2815.00,0.0196
2814.00,0.0195
2813.00,0.0195
2812.00,0.0195
2811.00,0.0195
2810.00,0.0194
2809.00,0.0194
2808.00,0.0194
2807.00,0.0193
2806.00,0.0193
2805.00,0.0193
2804.00,0.0192
2803.00,0.0192
2802.00,0.0192
2801.00,0.0191
2800.00,0.0191
2799.00,0.0191
2798.00,0.0190
2797.00,0.0190
2796.00,0.0190
2795.00,0.0189
2794.00,0.0189
2793.00,0.0189
2792.00,0.0189
2791.00,0.0188
2790.00,0.0188
2789.00,0.0188
2788.00,0.0187
2787.00,0.0187
2786.00,0.0187
2785.00,0.0187
2784.00,0.0186
2783.00,0.0186
2782.00,0.0186
2781.00,0.0185
2780.00,0.0185
2779.00,0.0184
2778.00,0.0184
2777.00,0.0184
2776.00,0.0184
2775.00,0.0183
2774.00,0.0183
2773.00,0.0183
2772.00,0.0183
2771.00,0.0182
2770.00,0.0182
2769.00,0.0182
2768.00,0.0182
2767.00,0.0181
2766.00,0.0181
2765.00,0.0181
2764.00,0.0180
2763.00,0.0180
2762.00,0.0180
2761.00,0.0180
2760.00,0.0179
2759.00,0.0179
2758.00,0.0179
2757.00,0.0179
2756.00,0.0178
2755.00,0.0178
2754.00,0.0178
2753.00,0.0177
2752.00,0.0177
2751.00,0.0177
2750.00,0.0177
2749.00,0.0176
2748.00,0.0176
2747.00,0.0176
2746.00,0.0176
2745.00,0.0175
2744.00,0.0175
2743.00,0.0175
2742.00,0.0175
2741.00,0.0175
2740.00,0.0174
2739.00,0.0174
2738.00,0.0174
2737.00,0.0174
2736.00,0.0173
2735.00,0.0173
2734.00,0.0173
2733.00,0.0173
2732.00,0.0172
2731.00,0.0172
2730.00,0.0172
2729.00,0.0172
2728.00,0.0171
2727.00,0.0171
2726.00,0.0171
2725.00,0.0171
2724.00,0.0170
2723.00,0.0170
2722.00,0.0170
2721.00,0.0170
2720.00,0.0170
2719.00,0.0169
2718.00,0.0169
2717.00,0.0169
2716.00,0.0168
2715.00,0.0168
2714.00,0.0168
2713.00,0.0167
2712.00,0.0167
2711.00,0.0167
2710.00,0.0167
2709.00,0.0166
2708.00,0.0166
2707.00,0.0166
2706.00,0.0166
2705.00,0.0166
2704.00,0.0165
2703.00,0.0165
2702.00,0.0165
2701.00,0.0165
2700.00,0.0165
2699.00,0.0164
2698.00,0.0164
2697.00,0.0164
2696.00,0.0164
2695.00,0.0163
2694.00,0.0163
2693.00,0.0163
2692.00,0.0163
2691.00,0.0163
2690.00,0.0163
2689.00,0.0163
2688.00,0.0162
2687.00,0.0162
2686.00,0.0162
2685.00,0.0162
2684.00,0.0162
2683.00,0.0162
2682.00,0.0161
2681.00,0.0161
2680.00,0.0161
2679.00,0.0161
2678.00,0.0161
2677.00,0.0160
2676.00,0.0160
2675.00,0.0160
2674.00,0.0160
2673.00,0.0160
2672.00,0.0160
2671.00,0.0160
2670.00,0.0160
2669.00,0.0160
2668.00,0.0160
2667.00,0.0160
2666.00,0.0160
2665.00,0.0161
2664.00,0.0161
2663.00,0.0161
2662.00,0.0161
2661.00,0.0161
2660.00,0.0162
2659.00,0.0162
2658.00,0.0162
2657.00,0.0162
2656.00,0.0162
2655.00,0.0162
2654.00,0.0161
2653.00,0.0161
2652.00,0.0161
2651.00,0.0161
2650.00,0.0161
2649.00,0.0161
2648.00,0.0161
2647.00,0.0160
2646.00,0.0160
2645.00,0.0160
2644.00,0.0160
2643.00,0.0160
2642.00,0.0160
2641.00,0.0159
2640.00,0.0159
2639.00,0.0159
2638.00,0.0159
2637.00,0.0159
2636.00,0.0159
2635.00,0.0158
2634.00,0.0158
2633.00,0.0158
2632.00,0.0158
2631.00,0.0157
2630.00,0.0157
2629.00,0.0157
2628.00,0.0157
2627.00,0.0157
2626.00,0.0156
2625.00,0.0156
2624.00,0.0156
2623.00,0.0156
2622.00,0.0156
2621.00,0.0156
2620.00,0.0156
2619.00,0.0156
2618.00,0.0155
2617.00,0.0155
2616.00,0.0155
2615.00,0.0155
2614.00,0.0154
2613.00,0.0154
2612.00,0.0154
2611.00,0.0154
2610.00,0.0153
2609.00,0.0153
2608.00,0.0153
2607.00,0.0153
2606.00,0.0153
2605.00,0.0152
2604.00,0.0152
2603.00,0.0152
2602.00,0.0152
2601.00,0.0152
2600.00,0.0152
2599.00,0.0151
2598.00,0.0151
2597.00,0.0151
2596.00,0.0151
2595.00,0.0151
2594.00,0.0150
2593.00,0.0150
2592.00,0.0150
2591.00,0.0150
2590.00,0.0149
2589.00,0.0149
2588.00,0.0149
2587.00,0.0149
2586.00,0.0148
2585.00,0.0148
2584.00,0.0148
2583.00,0.0148
2582.00,0.0148
2581.00,0.0147
2580.00,0.0147
2579.00,0.0147
2578.00,0.0147
2577.00,0.0147
2576.00,0.0147
2575.00,0.0146
2574.00,0.0146
2573.00,0.0146
2572.00,0.0146
2571.00,0.0146
2570.00,0.0146
2569.00,0.0145
2568.00,0.0145
2567.00,0.0145
2566.00,0.0145
2565.00,0.0145
2564.00,0.0144
2563.00,0.0144
2562.00,0.0144
2561.00,0.0144
2560.00,0.0144
2559.00,0.0144
2558.00,0.0144
2557.00,0.0144
2556.00,0.0144
2555.00,0.0144
2554.00,0.0143
2553.00,0.0143
2552.00,0.0143
2551.00,0.0143
2550.00,0.0143
2549.00,0.0142
2548.00,0.0142
2547.00,0.0142
2546.00,0.0142
2545.00,0.0142
2544.00,0.0142
2543.00,0.0142
2542.00,0.0142
2541.00,0.0142
2540.00,0.0141
2539.00,0.0141
2538.00,0.0141
2537.00,0.0141
2536.00,0.0141
2535.00,0.0141
2534.00,0.0141
2533.00,0.0141
2532.00,0.0140
2531.00,0.0140
2530.00,0.0140
2529.00,0.0140
2528.00,0.0140
2527.00,0.0140
2526.00,0.0140
2525.00,0.0140
2524.00,0.0140
2523.00,0.0140
2522.00,0.0139
2521.00,0.0139
2520.00,0.0139
2519.00,0.0139
2518.00,0.0139
2517.00,0.0139
2516.00,0.0139
2515.00,0.0139
2514.00,0.0139
2513.00,0.0139
2512.00,0.0138
2511.00,0.0138
2510.00,0.0138
2509.00,0.0138
2508.00,0.0138
2507.00,0.0138
2506.00,0.0138
2505.00,0.0138
2504.00,0.0138
2503.00,0.0138
2502.00,0.0138
2501.00,0.0138
2500.00,0.0138
2499.00,0.0138
2498.00,0.0138
2497.00,0.0138
2496.00,0.0138
2495.00,0.0138
2494.00,0.0137
2493.00,0.0137
2492.00,0.0137
2491.00,0.0136
2490.00,0.0136
2489.00,0.0136
2488.00,0.0137
2487.00,0.0136
2486.00,0.0136
2485.00,0.0136
2484.00,0.0136
2483.00,0.0136
2482.00,0.0136
2481.00,0.0136
2480.00,0.0136
2479.00,0.0136
2478.00,0.0136
2477.00,0.0136
2476.00,0.0136
2475.00,0.0135
2474.00,0.0135
2473.00,0.0135
2472.00,0.0135
2471.00,0.0135
2470.00,0.0135
2469.00,0.0135
2468.00,0.0135
2467.00,0.0135
2466.00,0.0135
2465.00,0.0135
2464.00,0.0135
2463.00,0.0135
2462.00,0.0135
2461.00,0.0135
2460.00,0.0135
2459.00,0.0135
2458.00,0.0135
2457.00,0.0135
2456.00,0.0135
2455.00,0.0135
2454.00,0.0135
2453.00,0.0135
2452.00,0.0135
2451.00,0.0135
2450.00,0.0135
2449.00,0.0134
2448.00,0.0134
2447.00,0.0134
2446.00,0.0133
2445.00,0.0133
2444.00,0.0133
2443.00,0.0133
2442.00,0.0133
2441.00,0.0133
2440.00,0.0132
2439.00,0.0132
2438.00,0.0132
2437.00,0.0132
2436.00,0.0132
2435.00,0.0132
2434.00,0.0131
2433.00,0.0131
2432.00,0.0131
2431.00,0.0131
2430.00,0.0131
2429.00,0.0131
2428.00,0.0130
2427.00,0.0130
2426.00,0.0130
2425.00,0.0130
2424.00,0.0130
2423.00,0.0130
2422.00,0.0130
2421.00,0.0130
2420.00,0.0129
2419.00,0.0129
2418.00,0.0129
2417.00,0.0128
2416.00,0.0128
2415.00,0.0128
2414.00,0.0129
2413.00,0.0129
2412.00,0.0129
2411.00,0.0129
2410.00,0.0128
2409.00,0.0128
2408.00,0.0127
2407.00,0.0126
2406.00,0.0126
2405.00,0.0126
2404.00,0.0126
2403.00,0.0126
2402.00,0.0126
2401.00,0.0126
2400.00,0.0126
2399.00,0.0126
2398.00,0.0126
2397.00,0.0125
2396.00,0.0125
2395.00,0.0125
2394.00,0.0125
2393.00,0.0125
2392.00,0.0125
2391.00,0.0125
2390.00,0.0125
2389.00,0.0125
2388.00,0.0125
2387.00,0.0124
2386.00,0.0124
2385.00,0.0124
2384.00,0.0123
2383.00,0.0123
2382.00,0.0122
2381.00,0.0122
2380.00,0.0122
2379.00,0.0122
2378.00,0.0122
2377.00,0.0122
2376.00,0.0122
2375.00,0.0122
2374.00,0.0122
2373.00,0.0122
2372.00,0.0122
2371.00,0.0122
2370.00,0.0121
2369.00,0.0121
2368.00,0.0121
2367.00,0.0121
2366.00,0.0121
2365.00,0.0121
2364.00,0.0122
2363.00,0.0122
2362.00,0.0122
2361.00,0.0122
2360.00,0.0122
2359.00,0.0122
2358.00,0.0122
2357.00,0.0122
2356.00,0.0122
2355.00,0.0121
2354.00,0.0121
2353.00,0.0121
2352.00,0.0121
2351.00,0.0122
2350.00,0.0123
2349.00,0.0124
2348.00,0.0124
2347.00,0.0124
2346.00,0.0124
2345.00,0.0123
2344.00,0.0124
2343.00,0.0124
2342.00,0.0124
2341.00,0.0125
2340.00,0.0125
2339.00,0.0125
2338.00,0.0125
2337.00,0.0125
2336.00,0.0125
2335.00,0.0124
2334.00,0.0124
2333.00,0.0124
2332.00,0.0124
2331.00,0.0124
2330.00,0.0124
2329.00,0.0126
2328.00,0.0130
2327.00,0.0133
2326.00,0.0136
2325.00,0.0137
2324.00,0.0136
2323.00,0.0134
2322.00,0.0132
2321.00,0.0131
2320.00,0.0130
2319.00,0.0129
2318.00,0.0128
2317.00,0.0128
2316.00,0.0128
2315.00,0.0128
2314.00,0.0127
2313.00,0.0127
2312.00,0.0127
2311.00,0.0127
2310.00,0.0127
2309.00,0.0127
2308.00,0.0127
2307.00,0.0127
2306.00,0.0127
2305.00,0.0127
2304.00,0.0127
2303.00,0.0127
2302.00,0.0127
2301.00,0.0128
2300.00,0.0128
2299.00,0.0128
2298.00,0.0128
2297.00,0.0129
2296.00,0.0129
2295.00,0.0130
2294.00,0.0131
2293.00,0.0132
2292.00,0.0132
2291.00,0.0133
2290.00,0.0133
2289.00,0.0134
2288.00,0.0134
2287.00,0.0134
2286.00,0.0133
2285.00,0.0133
2284.00,0.0132
2283.00,0.0131
2282.00,0.0131
2281.00,0.0130
2280.00,0.0130
2279.00,0.0130
2278.00,0.0129
2277.00,0.0129
2276.00,0.0129
2275.00,0.0129
2274.00,0.0128
2273.00,0.0128
2272.00,0.0128
2271.00,0.0128
2270.00,0.0127
2269.00,0.0127
2268.00,0.0127
2267.00,0.0126
2266.00,0.0126
2265.00,0.0125
2264.00,0.0125
2263.00,0.0126
2262.00,0.0126
2261.00,0.0126
2260.00,0.0127
2259.00,0.0127
2258.00,0.0126
2257.00,0.0125
2256.00,0.0124
2255.00,0.0124
2254.00,0.0123
2253.00,0.0123
2252.00,0.0124
2251.00,0.0124
2250.00,0.0124
2249.00,0.0124
2248.00,0.0124
2247.00,0.0124
2246.00,0.0124
2245.00,0.0124
2244.00,0.0124
2243.00,0.0124
2242.00,0.0124
2241.00,0.0124
2240.00,0.0124
2239.00,0.0124
2238.00,0.0124
2237.00,0.0124
2236.00,0.0124
2235.00,0.0124
2234.00,0.0124
2233.00,0.0124
2232.00,0.0124
2231.00,0.0124
2230.00,0.0124
2229.00,0.0124
2228.00,0.0123
2227.00,0.0123
2226.00,0.0123
2225.00,0.0123
2224.00,0.0123
2223.00,0.0123
2222.00,0.0122
2221.00,0.0122
2220.00,0.0122
2219.00,0.0122
2218.00,0.0122
2217.00,0.0122
2216.00,0.0123
2215.00,0.0123
2214.00,0.0123
2213.00,0.0123
2212.00,0.0123
2211.00,0.0122
2210.00,0.0122
2209.00,0.0122
2208.00,0.0122
2207.00,0.0122
2206.00,0.0123
2205.00,0.0123
2204.00,0.0123
2203.00,0.0123
2202.00,0.0123
2201.00,0.0123
2200.00,0.0123
2199.00,0.0123
2198.00,0.0123
2197.00,0.0123
2196.00,0.0123
2195.00,0.0123
2194.00,0.0123
2193.00,0.0123
2192.00,0.0122
2191.00,0.0122
2190.00,0.0123
2189.00,0.0124
2188.00,0.0126
2187.00,0.0126
2186.00,0.0125
2185.00,0.0123
2184.00,0.0121
2183.00,0.0118
2182.00,0.0117
2181.00,0.0117
2180.00,0.0118
2179.00,0.0119
2178.00,0.0118
2177.00,0.0117
2176.00,0.0116
2175.00,0.0116
2174.00,0.0117
2173.00,0.0119
2172.00,0.0122
2171.00,0.0124
2170.00,0.0125
2169.00,0.0126
2168.00,0.0127
2167.00,0.0128
2166.00,0.0129
2165.00,0.0131
2164.00,0.0133
2163.00,0.0133
2162.00,0.0127
2161.00,0.0116
2160.00,0.0102
2159.00,0.0091
2158.00,0.0086
2157.00,0.0087
2156.00,0.0090
2155.00,0.0094
2154.00,0.0096
2153.00,0.0098
2152.00,0.0100
2151.00,0.0101
2150.00,0.0102
2149.00,0.0102
2148.00,0.0102
2147.00,0.0102
2146.00,0.0103
2145.00,0.0103
2144.00,0.0104
2143.00,0.0103
2142.00,0.0104
2141.00,0.0104
2140.00,0.0104
2139.00,0.0104
2138.00,0.0103
2137.00,0.0102
2136.00,0.0100
2135.00,0.0098
2134.00,0.0098
2133.00,0.0098
2132.00,0.0100
2131.00,0.0101
2130.00,0.0103
2129.00,0.0104
2128.00,0.0105
2127.00,0.0106
2126.00,0.0107
2125.00,0.0108
2124.00,0.0109
2123.00,0.0110
2122.00,0.0111
2121.00,0.0112
2120.00,0.0112
2119.00,0.0113
2118.00,0.0114
2117.00,0.0114
2116.00,0.0115
2115.00,0.0116
2114.00,0.0116
2113.00,0.0116
2112.00,0.0116
2111.00,0.0116
2110.00,0.0116
2109.00,0.0116
2108.00,0.0116
2107.00,0.0115
2106.00,0.0115
2105.00,0.0115
2104.00,0.0115
2103.00,0.0115
2102.00,0.0115
2101.00,0.0115
2100.00,0.0115
2099.00,0.0114
2098.00,0.0113
2097.00,0.0111
2096.00,0.0110
2095.00,0.0110
2094.00,0.0110
2093.00,0.0111
2092.00,0.0112
2091.00,0.0113
2090.00,0.0114
2089.00,0.0114
2088.00,0.0115
2087.00,0.0115
2086.00,0.0115
2085.00,0.0116
2084.00,0.0116
2083.00,0.0116
2082.00,0.0115
2081.00,0.0115
2080.00,0.0116
2079.00,0.0116
2078.00,0.0116
2077.00,0.0116
2076.00,0.0115
2075.00,0.0115
2074.00,0.0114
2073.00,0.0114
2072.00,0.0114
2071.00,0.0114
2070.00,0.0114
2069.00,0.0114
2068.00,0.0114
2067.00,0.0113
2066.00,0.0113
2065.00,0.0112
2064.00,0.0112
2063.00,0.0112
2062.00,0.0112
2061.00,0.0112
2060.00,0.0112
2059.00,0.0112
2058.00,0.0113
2057.00,0.0113
2056.00,0.0113
2055.00,0.0113
2054.00,0.0116
2053.00,0.0119
2052.00,0.0122
2051.00,0.0123
2050.00,0.0120
2049.00,0.0117
2048.00,0.0115
2047.00,0.0114
2046.00,0.0113
2045.00,0.0113
2044.00,0.0113
2043.00,0.0113
2042.00,0.0114
2041.00,0.0114
2040.00,0.0114
2039.00,0.0113
2038.00,0.0112
2037.00,0.0111
2036.00,0.0111
2035.00,0.0109
2034.00,0.0108
2033.00,0.0106
2032.00,0.0105
2031.00,0.0103
2030.00,0.0102
2029.00,0.0103
2028.00,0.0103
2027.00,0.0103
2026.00,0.0102
2025.00,0.0102
2024.00,0.0103
2023.00,0.0103
2022.00,0.0103
2021.00,0.0103
2020.00,0.0103
2019.00,0.0102
2018.00,0.0101
2017.00,0.0102
2016.00,0.0103
2015.00,0.0103
2014.00,0.0104
2013.00,0.0104
2012.00,0.0105
2011.00,0.0105
2010.00,0.0104
2009.00,0.0102
2008.00,0.0099
2007.00,0.0096
2006.00,0.0094
2005.00,0.0095
2004.00,0.0096
2003.00,0.0097
2002.00,0.0099
2001.00,0.0100
2000.00,0.0102
1999.00,0.0102
1998.00,0.0102
1997.00,0.0102
1996.00,0.0103
1995.00,0.0103
1994.00,0.0103
1993.00,0.0104
1992.00,0.0104
1991.00,0.0105
1990.00,0.0105
1989.00,0.0106
1988.00,0.0107
1987.00,0.0108
1986.00,0.0109
1985.00,0.0110
1984.00,0.0111
1983.00,0.0113
1982.00,0.0114
1981.00,0.0115
1980.00,0.0112
1979.00,0.0107
1978.00,0.0101
1977.00,0.0096
1976.00,0.0094
1975.00,0.0093
1974.00,0.0092
1973.00,0.0093
1972.00,0.0093
1971.00,0.0093
1970.00,0.0094
1969.00,0.0094
1968.00,0.0095
1967.00,0.0095
1966.00,0.0094
1965.00,0.0094
1964.00,0.0094
1963.00,0.0094
1962.00,0.0093
1961.00,0.0091
1960.00,0.0090
1959.00,0.0090
1958.00,0.0089
1957.00,0.0090
1956.00,0.0092
1955.00,0.0092
1954.00,0.0093
1953.00,0.0093
1952.00,0.0093
1951.00,0.0093
1950.00,0.0093
1949.00,0.0093
1948.00,0.0094
1947.00,0.0093
1946.00,0.0092
1945.00,0.0091
1944.00,0.0092
1943.00,0.0092
1942.00,0.0092
1941.00,0.0092
1940.00,0.0093
1939.00,0.0092
1938.00,0.0092
1937.00,0.0092
1936.00,0.0092
1935.00,0.0091
1934.00,0.0091
1933.00,0.0091
1932.00,0.0091
1931.00,0.0091
1930.00,0.0091
1929.00,0.0091
1928.00,0.0091
1927.00,0.0091
1926.00,0.0091
1925.00,0.0091
1924.00,0.0092
1923.00,0.0093
1922.00,0.0093
1921.00,0.0093
1920.00,0.0093
1919.00,0.0093
1918.00,0.0092
1917.00,0.0092
1916.00,0.0093
1915.00,0.0093
1914.00,0.0093
1913.00,0.0093
1912.00,0.0093
1911.00,0.0092
1910.00,0.0092
1909.00,0.0092
1908.00,0.0092
1907.00,0.0092
1906.00,0.0092
1905.00,0.0092
1904.00,0.0092
1903.00,0.0092
1902.00,0.0092
1901.00,0.0091
1900.00,0.0091
1899.00,0.0091
1898.00,0.0090
1897.00,0.0090
1896.00,0.0091
1895.00,0.0091
1894.00,0.0091
1893.00,0.0090
1892.00,0.0090
1891.00,0.0090
1890.00,0.0091
1889.00,0.0091
1888.00,0.0091
1887.00,0.0091
1886.00,0.0090
1885.00,0.0090
1884.00,0.0090
1883.00,0.0090
1882.00,0.0090
1881.00,0.0090
1880.00,0.0090
1879.00,0.0089
1878.00,0.0089
1877.00,0.0089
1876.00,0.0089
1875.00,0.0089
1874.00,0.0089
1873.00,0.0089
1872.00,0.0089
1871.00,0.0089
1870.00,0.0089
1869.00,0.0089
1868.00,0.0089
1867.00,0.0089
1866.00,0.0089
1865.00,0.0089
1864.00,0.0088
1863.00,0.0088
1862.00,0.0088
1861.00,0.0088
1860.00,0.0088
1859.00,0.0088
1858.00,0.0087
1857.00,0.0087
1856.00,0.0087
1855.00,0.0087
1854.00,0.0087
1853.00,0.0086
1852.00,0.0086
1851.00,0.0086
1850.00,0.0086
1849.00,0.0086
1848.00,0.0086
1847.00,0.0086
1846.00,0.0086
1845.00,0.0086
1844.00,0.0086
1843.00,0.0086
1842.00,0.0085
1841.00,0.0086
1840.00,0.0086
1839.00,0.0086
1838.00,0.0085
1837.00,0.0085
1836.00,0.0085
1835.00,0.0085
1834.00,0.0085
1833.00,0.0084
1832.00,0.0084
1831.00,0.0084
1830.00,0.0084
1829.00,0.0084
1828.00,0.0085
1827.00,0.0085
1826.00,0.0085
1825.00,0.0085
1824.00,0.0085
1823.00,0.0085
1822.00,0.0085
1821.00,0.0084
1820.00,0.0083
1819.00,0.0082
1818.00,0.0081
1817.00,0.0081
1816.00,0.0081
1815.00,0.0082
1814.00,0.0082
1813.00,0.0082
1812.00,0.0083
1811.00,0.0083
1810.00,0.0083
1809.00,0.0084
1808.00,0.0084
1807.00,0.0083
1806.00,0.0083
1805.00,0.0083
1804.00,0.0083
1803.00,0.0083
1802.00,0.0083
1801.00,0.0083
1800.00,0.0084
1799.00,0.0084
1798.00,0.0084
1797.00,0.0084
1796.00,0.0084
1795.00,0.0084
1794.00,0.0084
1793.00,0.0084
1792.00,0.0084
1791.00,0.0084
1790.00,0.0083
1789.00,0.0083
1788.00,0.0083
1787.00,0.0083
1786.00,0.0083
1785.00,0.0083
1784.00,0.0083
1783.00,0.0083
1782.00,0.0083
1781.00,0.0083
1780.00,0.0083
1779.00,0.0083
1778.00,0.0082
1777.00,0.0082
1776.00,0.0083
1775.00,0.0083
1774.00,0.0083
1773.00,0.0083
1772.00,0.0083
1771.00,0.0083
1770.00,0.0082
1769.00,0.0082
1768.00,0.0083
1767.00,0.0083
1766.00,0.0083
1765.00,0.0083
1764.00,0.0083
1763.00,0.0083
1762.00,0.0083
1761.00,0.0083
1760.00,0.0083
1759.00,0.0084
1758.00,0.0084
1757.00,0.0084
1756.00,0.0085
1755.00,0.0085
1754.00,0.0085
1753.00,0.0086
1752.00,0.0087
1751.00,0.0088
1750.00,0.0088
1749.00,0.0089
1748.00,0.0091
1747.00,0.0091
1746.00,0.0091
1745.00,0.0092
1744.00,0.0093
1743.00,0.0093
1742.00,0.0093
1741.00,0.0094
1740.00,0.0095
1739.00,0.0095
1738.00,0.0096
1737.00,0.0097
1736.00,0.0099
1735.00,0.0100
1734.00,0.0101
1733.00,0.0101
1732.00,0.0101
1731.00,0.0102
1730.00,0.0102
1729.00,0.0102
1728.00,0.0102
1727.00,0.0102
1726.00,0.0103
1725.00,0.0103
1724.00,0.0105
1723.00,0.0106
1722.00,0.0106
1721.00,0.0107
1720.00,0.0108
1719.00,0.0111
1718.00,0.0113
1717.00,0.0116
1716.00,0.0118
1715.00,0.0120
1714.00,0.0122
1713.00,0.0125
1712.00,0.0128
1711.00,0.0132
1710.00,0.0136
1709.00,0.0141
1708.00,0.0147
1707.00,0.0155
1706.00,0.0165
1705.00,0.0177
1704.00,0.0189
1703.00,0.0200
1702.00,0.0213
1701.00,0.0234
1700.00,0.0262
1699.00,0.0288
1698.00,0.0305
1697.00,0.0317
1696.00,0.0329
1695.00,0.0337
1694.00,0.0344
1693.00,0.0350
1692.00,0.0357
1691.00,0.0365
1690.00,0.0373
1689.00,0.0383
1688.00,0.0394
1687.00,0.0403
1686.00,0.0412
1685.00,0.0423
1684.00,0.0439
1683.00,0.0454
1682.00,0.0467
1681.00,0.0479
1680.00,0.0491
1679.00,0.0502
1678.00,0.0513
1677.00,0.0523
1676.00,0.0536
1675.00,0.0551
1674.00,0.0566
1673.00,0.0580
1672.00,0.0592
1671.00,0.0605
1670.00,0.0619
1669.00,0.0635
1668.00,0.0651
1667.00,0.0665
1666.00,0.0677
1665.00,0.0689
1664.00,0.0702
1663.00,0.0717
1662.00,0.0732
1661.00,0.0747
1660.00,0.0761
1659.00,0.0774
1658.00,0.0786
1657.00,0.0797
1656.00,0.0808
1655.00,0.0817
1654.00,0.0826
1653.00,0.0838
1652.00,0.0852
1651.00,0.0862
1650.00,0.0869
1649.00,0.0875
1648.00,0.0881
1647.00,0.0887
1646.00,0.0892
1645.00,0.0898
1644.00,0.0904
1643.00,0.0908
1642.00,0.0912
1641.00,0.0916
1640.00,0.0920
1639.00,0.0924
1638.00,0.0927
1637.00,0.0928
1636.00,0.0930
1635.00,0.0934
1634.00,0.0939
1633.00,0.0945
1632.00,0.0951
1631.00,0.0955
1630.00,0.0959
1629.00,0.0964
1628.00,0.0970
1627.00,0.0978
1626.00,0.0985
1625.00,0.0991
1624.00,0.0998
1623.00,0.1005
1622.00,0.1012
1621.00,0.1019
1620.00,0.1024
1619.00,0.1027
1618.00,0.1025
1617.00,0.1018
1616.00,0.1010
1615.00,0.1002
1614.00,0.0992
1613.00,0.0980
1612.00,0.0965
1611.00,0.0946
1610.00,0.0926
1609.00,0.0903
1608.00,0.0880
1607.00,0.0858
1606.00,0.0835
1605.00,0.0813
1604.00,0.0791
1603.00,0.0769
1602.00,0.0748
1601.00,0.0728
1600.00,0.0709
1599.00,0.0691
1598.00,0.0674
1597.00,0.0658
1596.00,0.0643
1595.00,0.0628
1594.00,0.0614
1593.00,0.0600
1592.00,0.0587
1591.00,0.0575
1590.00,0.0564
1589.00,0.0554
1588.00,0.0544
1587.00,0.0536
1586.00,0.0529
1585.00,0.0523
1584.00,0.0517
1583.00,0.0511
1582.00,0.0507
1581.00,0.0504
1580.00,0.0502
1579.00,0.0501
1578.00,0.0501
1577.00,0.0501
1576.00,0.0501
1575.00,0.0502
1574.00,0.0504
1573.00,0.0507
1572.00,0.0508
1571.00,0.0511
1570.00,0.0517
1569.00,0.0525
1568.00,0.0533
1567.00,0.0539
1566.00,0.0546
1565.00,0.0555
1564.00,0.0564
1563.00,0.0572
1562.00,0.0579
1561.00,0.0584
1560.00,0.0593
1559.00,0.0612
1558.00,0.0633
1557.00,0.0648
1556.00,0.0658
1555.00,0.0669
1554.00,0.0680
1553.00,0.0692
1552.00,0.0703
1551.00,0.0715
1550.00,0.0727
1549.00,0.0739
1548.00,0.0750
1547.00,0.0759
1546.00,0.0767
1545.00,0.0777
1544.00,0.0787
1543.00,0.0796
1542.00,0.0805
1541.00,0.0814
1540.00,0.0823
1539.00,0.0831
1538.00,0.0839
1537.00,0.0845
1536.00,0.0849
1535.00,0.0852
1534.00,0.0857
1533.00,0.0864
1532.00,0.0872
1531.00,0.0878
1530.00,0.0884
1529.00,0.0889
1528.00,0.0894
1527.00,0.0899
1526.00,0.0906
1525.00,0.0913
1524.00,0.0919
1523.00,0.0924
1522.00,0.0931
1521.00,0.0939
1520.00,0.0946
1519.00,0.0952
1518.00,0.0958
1517.00,0.0963
1516.00,0.0967
1515.00,0.0970
1514.00,0.0971
1513.00,0.0969
1512.00,0.0965
1511.00,0.0961
1510.00,0.0958
1509.00,0.0953
1508.00,0.0943
1507.00,0.0928
1506.00,0.0911
1505.00,0.0898
1504.00,0.0889
1503.00,0.0880
1502.00,0.0868
1501.00,0.0855
1500.00,0.0841
1499.00,0.0826
1498.00,0.0811
1497.00,0.0794
1496.00,0.0776
1495.00,0.0759
1494.00,0.0744
1493.00,0.0729
1492.00,0.0713
1491.00,0.0694
1490.00,0.0675
1489.00,0.0657
1488.00,0.0641
1487.00,0.0626
1486.00,0.0612
1485.00,0.0599
1484.00,0.0587
1483.00,0.0576
1482.00,0.0566
1481.00,0.0556
1480.00,0.0548
1479.00,0.0541
1478.00,0.0536
1477.00,0.0531
1476.00,0.0528
1475.00,0.0526
1474.00,0.0525
1473.00,0.0525
1472.00,0.0527
1471.00,0.0529
1470.00,0.0530
1469.00,0.0531
1468.00,0.0531
1467.00,0.0530
1466.00,0.0530
1465.00,0.0530
1464.00,0.0532
1463.00,0.0535
1462.00,0.0538
1461.00,0.0541
1460.00,0.0545
1459.00,0.0550
1458.00,0.0557
1457.00,0.0567
1456.00,0.0576
1455.00,0.0582
1454.00,0.0585
1453.00,0.0587
1452.00,0.0588
1451.00,0.0588
1450.00,0.0587
1449.00,0.0585
1448.00,0.0583
1447.00,0.0581
1446.00,0.0578
1445.00,0.0574
1444.00,0.0570
1443.00,0.0564
1442.00,0.0559
1441.00,0.0553
1440.00,0.0548
1439.00,0.0542
1438.00,0.0536
1437.00,0.0529
1436.00,0.0524
1435.00,0.0520
1434.00,0.0516
1433.00,0.0513
1432.00,0.0508
1431.00,0.0505
1430.00,0.0502
1429.00,0.0501
1428.00,0.0500
1427.00,0.0499
1426.00,0.0500
1425.00,0.0501
1424.00,0.0503
1423.00,0.0505
1422.00,0.0507
1421.00,0.0508
1420.00,0.0511
1419.00,0.0515
1418.00,0.0520
1417.00,0.0524
1416.00,0.0528
1415.00,0.0530
1414.00,0.0533
1413.00,0.0535
1412.00,0.0538
1411.00,0.0540
1410.00,0.0542
1409.00,0.0544
1408.00,0.0545
1407.00,0.0545
1406.00,0.0546
1405.00,0.0546
1404.00,0.0547
1403.00,0.0547
1402.00,0.0546
1401.00,0.0544
1400.00,0.0543
1399.00,0.0543
1398.00,0.0543
1397.00,0.0543
1396.00,0.0542
1395.00,0.0542
1394.00,0.0541
1393.00,0.0542
1392.00,0.0542
1391.00,0.0542
1390.00,0.0541
1389.00,0.0541
1388.00,0.0540
1387.00,0.0540
1386.00,0.0539
1385.00,0.0538
1384.00,0.0536
1383.00,0.0534
1382.00,0.0532
1381.00,0.0530
1380.00,0.0528
1379.00,0.0526
1378.00,0.0525
1377.00,0.0523
1376.00,0.0521
1375.00,0.0520
1374.00,0.0519
1373.00,0.0518
1372.00,0.0516
1371.00,0.0515
1370.00,0.0512
1369.00,0.0510
1368.00,0.0507
1367.00,0.0503
1366.00,0.0499
1365.00,0.0495
1364.00,0.0491
1363.00,0.0487
1362.00,0.0485
1361.00,0.0482
1360.00,0.0480
1359.00,0.0479
1358.00,0.0477
1357.00,0.0476
1356.00,0.0475
1355.00,0.0475
1354.00,0.0474
1353.00,0.0474
1352.00,0.0474
1351.00,0.0474
1350.00,0.0475
1349.00,0.0475
1348.00,0.0476
1347.00,0.0476
1346.00,0.0476
1345.00,0.0477
1344.00,0.0477
1343.00,0.0477
1342.00,0.0478
1341.00,0.0478
1340.00,0.0479
1339.00,0.0479
1338.00,0.0479
1337.00,0.0478
1336.00,0.0477
1335.00,0.0476
1334.00,0.0475
1333.00,0.0473
1332.00,0.0472
1331.00,0.0471
1330.00,0.0470
1329.00,0.0469
1328.00,0.0469
1327.00,0.0468
1326.00,0.0468
1325.00,0.0467
1324.00,0.0467
1323.00,0.0467
1322.00,0.0467
1321.00,0.0467
1320.00,0.0467
1319.00,0.0467
1318.00,0.0468
1317.00,0.0468
1316.00,0.0468
1315.00,0.0468
1314.00,0.0469
1313.00,0.0469
1312.00,0.0469
1311.00,0.0469
1310.00,0.0469
1309.00,0.0468
1308.00,0.0468
1307.00,0.0467
1306.00,0.0467
1305.00,0.0467
1304.00,0.0466
1303.00,0.0466
1302.00,0.0466
1301.00,0.0465
1300.00,0.0464
1299.00,0.0464
1298.00,0.0463
1297.00,0.0462
1296.00,0.0462
1295.00,0.0461
1294.00,0.0461
1293.00,0.0461
1292.00,0.0460
1291.00,0.0460
1290.00,0.0460
1289.00,0.0460
1288.00,0.0460
1287.00,0.0460
1286.00,0.0460
1285.00,0.0459
1284.00,0.0459
1283.00,0.0458
1282.00,0.0458
1281.00,0.0458
1280.00,0.0457
1279.00,0.0457
1278.00,0.0456
1277.00,0.0456
1276.00,0.0455
1275.00,0.0455
1274.00,0.0456
1273.00,0.0456
1272.00,0.0457
1271.00,0.0457
1270.00,0.0458
1269.00,0.0459
1268.00,0.0460
1267.00,0.0462
1266.00,0.0463
1265.00,0.0465
1264.00,0.0467
1263.00,0.0469
1262.00,0.0472
1261.00,0.0475
1260.00,0.0478
1259.00,0.0481
1258.00,0.0485
1257.00,0.0489
1256.00,0.0493
1255.00,0.0497
1254.00,0.0501
1253.00,0.0505
1252.00,0.0509
1251.00,0.0513
1250.00,0.0516
1249.00,0.0520
1248.00,0.0524
1247.00,0.0527
1246.00,0.0531
1245.00,0.0534
1244.00,0.0537
1243.00,0.0540
1242.00,0.0542
1241.00,0.0544
1240.00,0.0546
1239.00,0.0548
1238.00,0.0549
1237.00,0.0551
1236.00,0.0552
1235.00,0.0552
1234.00,0.0553
1233.00,0.0553
1232.00,0.0553
1231.00,0.0552
1230.00,0.0552
1229.00,0.0551
1228.00,0.0550
1227.00,0.0549
1226.00,0.0547
1225.00,0.0546
1224.00,0.0544
1223.00,0.0542
1222.00,0.0540
1221.00,0.0537
1220.00,0.0535
1219.00,0.0532
1218.00,0.0529
1217.00,0.0526
1216.00,0.0522
1215.00,0.0519
1214.00,0.0516
1213.00,0.0512
1212.00,0.0508
1211.00,0.0504
1210.00,0.0500
1209.00,0.0496
1208.00,0.0491
1207.00,0.0487
1206.00,0.0483
1205.00,0.0478
1204.00,0.0474
1203.00,0.0469
1202.00,0.0465
1201.00,0.0460
1200.00,0.0456
1199.00,0.0452
1198.00,0.0449
1197.00,0.0446
1196.00,0.0442
1195.00,0.0440
1194.00,0.0437
1193.00,0.0434
1192.00,0.0432
1191.00,0.0429
1190.00,0.0427
1189.00,0.0425
1188.00,0.0424
1187.00,0.0422
1186.00,0.0421
1185.00,0.0420
1184.00,0.0419
1183.00,0.0418
1182.00,0.0418
1181.00,0.0418
1180.00,0.0418
1179.00,0.0419
1178.00,0.0421
1177.00,0.0423
1176.00,0.0426
1175.00,0.0429
1174.00,0.0432
1173.00,0.0436
1172.00,0.0439
1171.00,0.0442
1170.00,0.0445
1169.00,0.0448
1168.00,0.0450
1167.00,0.0453
1166.00,0.0454
1165.00,0.0456
1164.00,0.0456
1163.00,0.0457
1162.00,0.0457
1161.00,0.0456
1160.00,0.0455
1159.00,0.0453
1158.00,0.0451
1157.00,0.0448
1156.00,0.0445
1155.00,0.0442
1154.00,0.0439
1153.00,0.0436
1152.00,0.0433
1151.00,0.0429
1150.00,0.0426
1149.00,0.0423
1148.00,0.0420
1147.00,0.0417
1146.00,0.0414
1145.00,0.0412
1144.00,0.0409
1143.00,0.0407
1142.00,0.0406
1141.00,0.0405
1140.00,0.0404
1139.00,0.0403
1138.00,0.0402
1137.00,0.0401
1136.00,0.0401
1135.00,0.0401
1134.00,0.0401
1133.00,0.0401
1132.00,0.0401
1131.00,0.0402
1130.00,0.0402
1129.00,0.0402
1128.00,0.0402
1127.00,0.0402
1126.00,0.0402
1125.00,0.0402
1124.00,0.0402
1123.00,0.0401
1122.00,0.0401
1121.00,0.0401
1120.00,0.0400
1119.00,0.0400
1118.00,0.0400
1117.00,0.0400
1116.00,0.0399
1115.00,0.0399
1114.00,0.0399
1113.00,0.0399
1112.00,0.0399
1111.00,0.0399
1110.00,0.0399
1109.00,0.0400
1108.00,0.0400
1107.00,0.0401
1106.00,0.0402
1105.00,0.0403
1104.00,0.0404
1103.00,0.0405
1102.00,0.0406
1101.00,0.0407
1100.00,0.0408
1099.00,0.0409
1098.00,0.0411
1097.00,0.0412
1096.00,0.0414
1095.00,0.0417
1094.00,0.0420
1093.00,0.0424
1092.00,0.0427
1091.00,0.0432
1090.00,0.0436
1089.00,0.0441
1088.00,0.0446
1087.00,0.0452
1086.00,0.0457
1085.00,0.0463
1084.00,0.0469
1083.00,0.0475
1082.00,0.0481
1081.00,0.0487
1080.00,0.0493
1079.00,0.0499
1078.00,0.0504
1077.00,0.0510
1076.00,0.0515
1075.00,0.0519
1074.00,0.0524
1073.00,0.0528
1072.00,0.0532
1071.00,0.0536
1070.00,0.0539
1069.00,0.0542
1068.00,0.0545
1067.00,0.0547
1066.00,0.0548
1065.00,0.0550
1064.00,0.0551
1063.00,0.0552
1062.00,0.0552
1061.00,0.0552
1060.00,0.0552
1059.00,0.0551
1058.00,0.0551
1057.00,0.0550
1056.00,0.0549
1055.00,0.0549
1054.00,0.0549
1053.00,0.0549
1052.00,0.0549
1051.00,0.0548
1050.00,0.0547
1049.00,0.0545
1048.00,0.0543
1047.00,0.0540
1046.00,0.0536
1045.00,0.0531
1044.00,0.0526
1043.00,0.0520
1042.00,0.0514
1041.00,0.0508
1040.00,0.0501
1039.00,0.0494
1038.00,0.0488
1037.00,0.0481
1036.00,0.0475
1035.00,0.0470
1034.00,0.0464
1033.00,0.0460
1032.00,0.0455
1031.00,0.0450
1030.00,0.0444
1029.00,0.0439
1028.00,0.0433
1027.00,0.0427
1026.00,0.0421
1025.00,0.0415
1024.00,0.0409
1023.00,0.0404
1022.00,0.0398
1021.00,0.0393
1020.00,0.0388
1019.00,0.0384
1018.00,0.0379
1017.00,0.0375
1016.00,0.0372
1015.00,0.0368
1014.00,0.0365
1013.00,0.0362
1012.00,0.0359
1011.00,0.0356
1010.00,0.0353
1009.00,0.0350
1008.00,0.0348
1007.00,0.0346
1006.00,0.0343
1005.00,0.0341
1004.00,0.0340
1003.00,0.0338
1002.00,0.0336
1001.00,0.0334
1000.00,0.0332
999.00,0.0330
998.00,0.0329
997.00,0.0327
996.00,0.0326
995.00,0.0324
994.00,0.0322
993.00,0.0321
992.00,0.0320
991.00,0.0318
990.00,0.0317
989.00,0.0315
988.00,0.0314
987.00,0.0312
986.00,0.0311
985.00,0.0310
984.00,0.0309
983.00,0.0308
982.00,0.0308
981.00,0.0307
980.00,0.0307
979.00,0.0307
978.00,0.0307
977.00,0.0308
976.00,0.0308
975.00,0.0309
974.00,0.0310
973.00,0.0311
972.00,0.0312
971.00,0.0313
970.00,0.0314
969.00,0.0315
968.00,0.0317
967.00,0.0319
966.00,0.0321
965.00,0.0323
964.00,0.0324
963.00,0.0325
962.00,0.0326
961.00,0.0326
960.00,0.0326
959.00,0.0325
958.00,0.0324
957.00,0.0322
956.00,0.0320
955.00,0.0318
954.00,0.0317
953.00,0.0315
952.00,0.0314
951.00,0.0313
950.00,0.0312
949.00,0.0312
948.00,0.0311
947.00,0.0310
946.00,0.0310
945.00,0.0310
944.00,0.0309
943.00,0.0309
942.00,0.0309
941.00,0.0309
940.00,0.0309
939.00,0.0310
938.00,0.0310
937.00,0.0311
936.00,0.0312
935.00,0.0312
934.00,0.0312
933.00,0.0312
932.00,0.0312
931.00,0.0311
930.00,0.0311
929.00,0.0310
928.00,0.0308
927.00,0.0307
926.00,0.0306
925.00,0.0304
924.00,0.0303
923.00,0.0301
922.00,0.0300
921.00,0.0298
920.00,0.0296
919.00,0.0295
918.00,0.0293
917.00,0.0292
916.00,0.0291
915.00,0.0290
914.00,0.0289
913.00,0.0289
912.00,0.0289
911.00,0.0289
910.00,0.0289
909.00,0.0289
908.00,0.0290
907.00,0.0290
906.00,0.0291
905.00,0.0291
904.00,0.0292
903.00,0.0292
902.00,0.0293
901.00,0.0293
900.00,0.0293
899.00,0.0293
898.00,0.0293
897.00,0.0292
896.00,0.0292
895.00,0.0291
894.00,0.0290
893.00,0.0288
892.00,0.0287
891.00,0.0285
890.00,0.0284
889.00,0.0283
888.00,0.0282
887.00,0.0280
886.00,0.0280
885.00,0.0279
884.00,0.0278
883.00,0.0277
882.00,0.0277
881.00,0.0277
880.00,0.0277
879.00,0.0276
878.00,0.0276
877.00,0.0276
876.00,0.0275
875.00,0.0275
874.00,0.0274
873.00,0.0274
872.00,0.0273
871.00,0.0273
870.00,0.0272
869.00,0.0271
868.00,0.0270
867.00,0.0269
866.00,0.0268
865.00,0.0267
864.00,0.0266
863.00,0.0265
862.00,0.0265
861.00,0.0265
860.00,0.0265
859.00,0.0265
858.00,0.0265
857.00,0.0265
856.00,0.0265
855.00,0.0266
854.00,0.0267
853.00,0.0268
852.00,0.0268
851.00,0.0268
850.00,0.0269
849.00,0.0269
848.00,0.0269
847.00,0.0268
846.00,0.0269
845.00,0.0269
844.00,0.0269
843.00,0.0270
842.00,0.0271
841.00,0.0272
840.00,0.0273
839.00,0.0274
838.00,0.0276
837.00,0.0277
836.00,0.0279
835.00,0.0281
834.00,0.0283
833.00,0.0285
832.00,0.0288
831.00,0.0290
830.00,0.0292
829.00,0.0293
828.00,0.0295
827.00,0.0296
826.00,0.0297
825.00,0.0298
824.00,0.0298
823.00,0.0299
822.00,0.0299
821.00,0.0300
820.00,0.0301
819.00,0.0303
818.00,0.0304
817.00,0.0306
816.00,0.0307
815.00,0.0309
814.00,0.0310
813.00,0.0312
812.00,0.0314
811.00,0.0315
810.00,0.0317
809.00,0.0318
808.00,0.0320
807.00,0.0321
806.00,0.0322
805.00,0.0323
804.00,0.0324
803.00,0.0325
802.00,0.0325
801.00,0.0326
800.00,0.0327
799.00,0.0328
798.00,0.0329
797.00,0.0330
796.00,0.0332
795.00,0.0333
794.00,0.0336
793.00,0.0338
792.00,0.0340
791.00,0.0343
790.00,0.0345
789.00,0.0348
788.00,0.0351
787.00,0.0354
786.00,0.0357
785.00,0.0359
784.00,0.0362
783.00,0.0364
782.00,0.0367
781.00,0.0370
780.00,0.0373
779.00,0.0376
778.00,0.0378
777.00,0.0381
776.00,0.0384
775.00,0.0387
774.00,0.0390
773.00,0.0393
772.00,0.0395
771.00,0.0398
770.00,0.0400
769.00,0.0403
768.00,0.0405
767.00,0.0407
766.00,0.0409
765.00,0.0411
764.00,0.0413
763.00,0.0415
762.00,0.0417
761.00,0.0418
760.00,0.0420
759.00,0.0421
758.00,0.0423
757.00,0.0426
756.00,0.0428
755.00,0.0430
754.00,0.0433
753.00,0.0436
752.00,0.0440
751.00,0.0442
750.00,0.0445
749.00,0.0447
748.00,0.0449
747.00,0.0451
746.00,0.0453
745.00,0.0454
744.00,0.0455
743.00,0.0456
742.00,0.0457
741.00,0.0457
740.00,0.0459
739.00,0.0460
738.00,0.0461
737.00,0.0462
736.00,0.0463
735.00,0.0464
734.00,0.0466
733.00,0.0467
732.00,0.0469
731.00,0.0472
730.00,0.0475
729.00,0.0479
728.00,0.0482
727.00,0.0487
726.00,0.0491
725.00,0.0496
724.00,0.0501
723.00,0.0506
722.00,0.0511
721.00,0.0516
720.00,0.0522
719.00,0.0528
718.00,0.0535
717.00,0.0541
716.00,0.0547
715.00,0.0553
714.00,0.0559
713.00,0.0566
712.00,0.0572
711.00,0.0579
710.00,0.0586
709.00,0.0594
708.00,0.0602
707.00,0.0609
706.00,0.0618
705.00,0.0626
704.00,0.0634
703.00,0.0641
702.00,0.0647
701.00,0.0653
700.00,0.0657
699.00,0.0660
698.00,0.0662
697.00,0.0664
696.00,0.0664
695.00,0.0664
694.00,0.0664
693.00,0.0664
692.00,0.0664
691.00,0.0665
690.00,0.0665
689.00,0.0667
688.00,0.0668
687.00,0.0670
686.00,0.0671
685.00,0.0673
684.00,0.0674
683.00,0.0676
682.00,0.0678
681.00,0.0679
680.00,0.0681
679.00,0.0683
678.00,0.0684
677.00,0.0686
676.00,0.0687
675.00,0.0689
674.00,0.0690
673.00,0.0692
672.00,0.0693
671.00,0.0695
670.00,0.0696
669.00,0.0698
668.00,0.0700
667.00,0.0702
666.00,0.0703
665.00,0.0704
664.00,0.0705
663.00,0.0706
662.00,0.0707
661.00,0.0709
660.00,0.0710
659.00,0.0712
658.00,0.0713
657.00,0.0715
656.00,0.0717
655.00,0.0718
654.00,0.0720
653.00,0.0722
652.00,0.0724
651.00,0.0726
650.00,0.0727
649.00,0.0729
648.00,0.0731
647.00,0.0732
646.00,0.0735
645.00,0.0738
644.00,0.0741
643.00,0.0744
642.00,0.0746
641.00,0.0749
640.00,0.0751
639.00,0.0754
638.00,0.0757
637.00,0.0760
636.00,0.0763
635.00,0.0766
634.00,0.0768
633.00,0.0770
632.00,0.0773
631.00,0.0775
630.00,0.0777
629.00,0.0780
628.00,0.0782
627.00,0.0784
626.00,0.0785
625.00,0.0786
624.00,0.0787
623.00,0.0788
622.00,0.0790
621.00,0.0790
620.00,0.0790
619.00,0.0790
618.00,0.0789
617.00,0.0789
616.00,0.0788
615.00,0.0788
614.00,0.0788
613.00,0.0788
612.00,0.0788
611.00,0.0788
610.00,0.0788
609.00,0.0788
608.00,0.0788
607.00,0.0788
606.00,0.0788
605.00,0.0788
604.00,0.0788
603.00,0.0788
602.00,0.0788
601.00,0.0789
600.00,0.0790
599.00,0.0791
598.00,0.0791
597.00,0.0791
596.00,0.0792
595.00,0.0793
594.00,0.0795
593.00,0.0796
592.00,0.0798
591.00,0.0798
590.00,0.0799
589.00,0.0800
588.00,0.0801
587.00,0.0803
586.00,0.0804
585.00,0.0806
584.00,0.0807
583.00,0.0808
582.00,0.0809
581.00,0.0811
580.00,0.0812
579.00,0.0814
578.00,0.0815
577.00,0.0817
576.00,0.0818
575.00,0.0820
574.00,0.0821
573.00,0.0822
572.00,0.0823
571.00,0.0824
570.00,0.0825
569.00,0.0827
568.00,0.0829
567.00,0.0831
566.00,0.0832
565.00,0.0833
564.00,0.0834
563.00,0.0836
562.00,0.0838
561.00,0.0840
560.00,0.0841
559.00,0.0842
558.00,0.0842
557.00,0.0843
556.00,0.0845
555.00,0.0846
554.00,0.0848
553.00,0.0851
552.00,0.0853
551.00,0.0855
550.00,0.0856
549.00,0.0856
548.00,0.0857
547.00,0.0858
546.00,0.0859
545.00,0.0860
544.00,0.0861
543.00,0.0863
542.00,0.0864
541.00,0.0866
540.00,0.0868
539.00,0.0869
538.00,0.0870
537.00,0.0871
536.00,0.0873
535.00,0.0874
534.00,0.0876
533.00,0.0878
532.00,0.0880
531.00,0.0882
530.00,0.0883
529.00,0.0883
528.00,0.0885
527.00,0.0887
526.00,0.0890
525.00,0.0893
524.00,0.0895
523.00,0.0896
522.00,0.0897
521.00,0.0898
520.00,0.0899
519.00,0.0900
518.00,0.0901
517.00,0.0901
516.00,0.0900
515.00,0.0898
514.00,0.0896
513.00,0.0895
512.00,0.0894
511.00,0.0893
510.00,0.0893
509.00,0.0893
508.00,0.0893
507.00,0.0893
506.00,0.0892
505.00,0.0892
504.00,0.0891
503.00,0.0891
502.00,0.0891
501.00,0.0890
500.00,0.0890
499.00,0.0889
498.00,0.0890
497.00,0.0891
496.00,0.0892
495.00,0.0893
494.00,0.0893
493.00,0.0893
492.00,0.0892
491.00,0.0892
490.00,0.0892
489.00,0.0892
488.00,0.0892
487.00,0.0892
486.00,0.0892
485.00,0.0893
484.00,0.0894
483.00,0.0895
482.00,0.0895
481.00,0.0896
480.00,0.0897
479.00,0.0899
478.00,0.0901
477.00,0.0901
476.00,0.0900
475.00,0.0898
474.00,0.0897
473.00,0.0898
472.00,0.0898
471.00,0.0900
470.00,0.0901
469.00,0.0902
468.00,0.0902
467.00,0.0902
466.00,0.0902
465.00,0.0902
464.00,0.0903
463.00,0.0904
462.00,0.0904
461.00,0.0903
460.00,0.0901
459.00,0.0900
458.00,0.0899
457.00,0.0898
456.00,0.0896
455.00,0.0894
454.00,0.0892
453.00,0.0891
452.00,0.0890
451.00,0.0888
450.00,0.0885
449.00,0.0882
448.00,0.0879
447.00,0.0874
446.00,0.0869
445.00,0.0864
444.00,0.0858
443.00,0.0853
442.00,0.0847
441.00,0.0842
440.00,0.0835
439.00,0.0829
438.00,0.0824
437.00,0.0819
436.00,0.0815
435.00,0.0811
434.00,0.0807
433.00,0.0803
432.00,0.0798
431.00,0.0793
430.00,0.0789
429.00,0.0786
428.00,0.0784
427.00,0.0782
426.00,0.0780
425.00,0.0777
424.00,0.0775
423.00,0.0773
422.00,0.0771
421.00,0.0767
420.00,0.0763
419.00,0.0762
418.00,0.0763
417.00,0.0763
416.00,0.0761
415.00,0.0758
414.00,0.0755
413.00,0.0753
412.00,0.0751
411.00,0.0750
410.00,0.0751
409.00,0.0751
408.00,0.0750
407.00,0.0748
406.00,0.0746
405.00,0.0744
404.00,0.0740
403.00,0.0735
402.00,0.0731
401.00,0.0725
400.00,0.0716
