Created as New Dataset,Sample 342 By YargerLab Date Monday, August 19 2024
cm-1,A
4000.00,0.0089
3999.00,0.0089
3998.00,0.0089
3997.00,0.0089
3996.00,0.0089
3995.00,0.0088
3994.00,0.0088
3993.00,0.0088
3992.00,0.0088
3991.00,0.0088
3990.00,0.0088
3989.00,0.0089
3988.00,0.0089
3987.00,0.0089
3986.00,0.0089
3985.00,0.0089
3984.00,0.0089
3983.00,0.0089
3982.00,0.0089
3981.00,0.0089
3980.00,0.0089
3979.00,0.0089
3978.00,0.0089
3977.00,0.0089
3976.00,0.0089
3975.00,0.0089
3974.00,0.0089
3973.00,0.0089
3972.00,0.0089
3971.00,0.0088
3970.00,0.0088
3969.00,0.0088
3968.00,0.0088
3967.00,0.0088
3966.00,0.0088
3965.00,0.0089
3964.00,0.0089
3963.00,0.0089
3962.00,0.0089
3961.00,0.0089
3960.00,0.0089
3959.00,0.0089
3958.00,0.0089
3957.00,0.0089
3956.00,0.0089
3955.00,0.0089
3954.00,0.0089
3953.00,0.0089
3952.00,0.0089
3951.00,0.0089
3950.00,0.0089
3949.00,0.0089
3948.00,0.0089
3947.00,0.0089
3946.00,0.0089
3945.00,0.0089
3944.00,0.0089
3943.00,0.0089
3942.00,0.0089
3941.00,0.0088
3940.00,0.0088
3939.00,0.0088
3938.00,0.0088
3937.00,0.0088
3936.00,0.0089
3935.00,0.0089
3934.00,0.0089
3933.00,0.0089
3932.00,0.0089
3931.00,0.0089
3930.00,0.0088
3929.00,0.0088
3928.00,0.0088
3927.00,0.0088
3926.00,0.0088
3925.00,0.0088
3924.00,0.0088
3923.00,0.0089
3922.00,0.0089
3921.00,0.0089
3920.00,0.0089
3919.00,0.0089
3918.00,0.0089
3917.00,0.0089
3916.00,0.0088
3915.00,0.0088
3914.00,0.0088
3913.00,0.0088
3912.00,0.0088
3911.00,0.0088
3910.00,0.0088
3909.00,0.0088
3908.00,0.0088
3907.00,0.0088
3906.00,0.0088
3905.00,0.0089
3904.00,0.0089
3903.00,0.0089
3902.00,0.0089
3901.00,0.0089
3900.00,0.0089
3899.00,0.0088
3898.00,0.0088
3897.00,0.0088
3896.00,0.0088
3895.00,0.0088
3894.00,0.0088
3893.00,0.0088
3892.00,0.0088
3891.00,0.0087
3890.00,0.0087
3889.00,0.0088
3888.00,0.0088
3887.00,0.0088
3886.00,0.0088
3885.00,0.0088
3884.00,0.0088
3883.00,0.0088
3882.00,0.0088
3881.00,0.0088
3880.00,0.0088
3879.00,0.0087
3878.00,0.0088
3877.00,0.0088
3876.00,0.0088
3875.00,0.0088
3874.00,0.0088
3873.00,0.0088
3872.00,0.0088
3871.00,0.0088
3870.00,0.0088
3869.00,0.0088
3868.00,0.0088
3867.00,0.0088
3866.00,0.0088
3865.00,0.0088
3864.00,0.0088
3863.00,0.0087
3862.00,0.0087
3861.00,0.0088
3860.00,0.0088
3859.00,0.0088
3858.00,0.0088
3857.00,0.0088
3856.00,0.0088
3855.00,0.0088
3854.00,0.0088
3853.00,0.0088
3852.00,0.0087
3851.00,0.0087
3850.00,0.0087
3849.00,0.0087
3848.00,0.0087
3847.00,0.0087
3846.00,0.0087
3845.00,0.0087
3844.00,0.0088
3843.00,0.0088
3842.00,0.0088
3841.00,0.0088
3840.00,0.0088
3839.00,0.0088
3838.00,0.0087
3837.00,0.0087
3836.00,0.0087
3835.00,0.0087
3834.00,0.0087
3833.00,0.0087
3832.00,0.0087
3831.00,0.0087
3830.00,0.0087
3829.00,0.0087
3828.00,0.0087
3827.00,0.0087
3826.00,0.0087
3825.00,0.0087
3824.00,0.0087
3823.00,0.0087
3822.00,0.0087
3821.00,0.0087
3820.00,0.0087
3819.00,0.0087
3818.00,0.0087
3817.00,0.0087
3816.00,0.0086
3815.00,0.0086
3814.00,0.0086
3813.00,0.0086
3812.00,0.0086
3811.00,0.0086
3810.00,0.0086
3809.00,0.0086
3808.00,0.0086
3807.00,0.0086
3806.00,0.0086
3805.00,0.0086
3804.00,0.0086
3803.00,0.0087
3802.00,0.0086
3801.00,0.0086
3800.00,0.0086
3799.00,0.0086
3798.00,0.0086
3797.00,0.0086
3796.00,0.0086
3795.00,0.0085
3794.00,0.0085
3793.00,0.0085
3792.00,0.0085
3791.00,0.0085
3790.00,0.0085
3789.00,0.0085
3788.00,0.0085
3787.00,0.0085
3786.00,0.0085
3785.00,0.0085
3784.00,0.0085
3783.00,0.0085
3782.00,0.0085
3781.00,0.0085
3780.00,0.0085
3779.00,0.0085
3778.00,0.0085
3777.00,0.0085
3776.00,0.0085
3775.00,0.0085
3774.00,0.0085
3773.00,0.0085
3772.00,0.0085
3771.00,0.0086
3770.00,0.0086
3769.00,0.0085
3768.00,0.0085
3767.00,0.0085
3766.00,0.0085
3765.00,0.0085
3764.00,0.0085
3763.00,0.0085
3762.00,0.0085
3761.00,0.0085
3760.00,0.0086
3759.00,0.0086
3758.00,0.0086
3757.00,0.0086
3756.00,0.0086
3755.00,0.0086
3754.00,0.0086
3753.00,0.0086
3752.00,0.0087
3751.00,0.0087
3750.00,0.0087
3749.00,0.0087
3748.00,0.0087
3747.00,0.0086
3746.00,0.0086
3745.00,0.0086
3744.00,0.0086
3743.00,0.0086
3742.00,0.0086
3741.00,0.0086
3740.00,0.0086
3739.00,0.0086
3738.00,0.0087
3737.00,0.0087
3736.00,0.0086
3735.00,0.0086
3734.00,0.0085
3733.00,0.0085
3732.00,0.0085
3731.00,0.0085
3730.00,0.0085
3729.00,0.0085
3728.00,0.0085
3727.00,0.0085
3726.00,0.0085
3725.00,0.0085
3724.00,0.0085
3723.00,0.0084
3722.00,0.0084
3721.00,0.0084
3720.00,0.0084
3719.00,0.0083
3718.00,0.0083
3717.00,0.0083
3716.00,0.0083
3715.00,0.0084
3714.00,0.0084
3713.00,0.0084
3712.00,0.0084
3711.00,0.0084
3710.00,0.0083
3709.00,0.0083
3708.00,0.0083
3707.00,0.0083
3706.00,0.0083
3705.00,0.0083
3704.00,0.0083
3703.00,0.0082
3702.00,0.0082
3701.00,0.0082
3700.00,0.0082
3699.00,0.0082
3698.00,0.0082
3697.00,0.0083
3696.00,0.0083
3695.00,0.0083
3694.00,0.0083
3693.00,0.0083
3692.00,0.0084
3691.00,0.0084
3690.00,0.0084
3689.00,0.0084
3688.00,0.0084
3687.00,0.0084
3686.00,0.0084
3685.00,0.0084
3684.00,0.0084
3683.00,0.0084
3682.00,0.0084
3681.00,0.0085
3680.00,0.0085
3679.00,0.0085
3678.00,0.0086
3677.00,0.0086
3676.00,0.0087
3675.00,0.0087
3674.00,0.0088
3673.00,0.0088
3672.00,0.0088
3671.00,0.0088
3670.00,0.0088
3669.00,0.0088
3668.00,0.0088
3667.00,0.0088
3666.00,0.0089
3665.00,0.0089
3664.00,0.0089
3663.00,0.0089
3662.00,0.0089
3661.00,0.0090
3660.00,0.0090
3659.00,0.0090
3658.00,0.0091
3657.00,0.0091
3656.00,0.0092
3655.00,0.0093
3654.00,0.0093
3653.00,0.0094
3652.00,0.0095
3651.00,0.0096
3650.00,0.0096
3649.00,0.0097
3648.00,0.0098
3647.00,0.0098
3646.00,0.0098
3645.00,0.0099
3644.00,0.0099
3643.00,0.0099
3642.00,0.0099
3641.00,0.0099
3640.00,0.0100
3639.00,0.0100
3638.00,0.0101
3637.00,0.0101
3636.00,0.0102
3635.00,0.0102
3634.00,0.0103
3633.00,0.0104
3632.00,0.0105
3631.00,0.0105
3630.00,0.0106
3629.00,0.0107
3628.00,0.0108
3627.00,0.0109
3626.00,0.0110
3625.00,0.0110
3624.00,0.0110
3623.00,0.0111
3622.00,0.0112
3621.00,0.0112
3620.00,0.0113
3619.00,0.0114
3618.00,0.0115
3617.00,0.0116
3616.00,0.0117
3615.00,0.0117
3614.00,0.0118
3613.00,0.0119
3612.00,0.0120
3611.00,0.0120
3610.00,0.0121
3609.00,0.0122
3608.00,0.0122
3607.00,0.0123
3606.00,0.0124
3605.00,0.0124
3604.00,0.0125
3603.00,0.0126
3602.00,0.0126
3601.00,0.0127
3600.00,0.0128
3599.00,0.0128
3598.00,0.0129
3597.00,0.0130
3596.00,0.0131
3595.00,0.0132
3594.00,0.0132
3593.00,0.0133
3592.00,0.0134
3591.00,0.0135
3590.00,0.0136
3589.00,0.0137
3588.00,0.0138
3587.00,0.0139
3586.00,0.0140
3585.00,0.0141
3584.00,0.0142
3583.00,0.0143
3582.00,0.0143
3581.00,0.0144
3580.00,0.0144
3579.00,0.0145
3578.00,0.0146
3577.00,0.0147
3576.00,0.0148
3575.00,0.0149
3574.00,0.0150
3573.00,0.0150
3572.00,0.0152
3571.00,0.0153
3570.00,0.0154
3569.00,0.0155
3568.00,0.0156
3567.00,0.0158
3566.00,0.0159
3565.00,0.0160
3564.00,0.0161
3563.00,0.0162
3562.00,0.0163
3561.00,0.0163
3560.00,0.0164
3559.00,0.0165
3558.00,0.0166
3557.00,0.0167
3556.00,0.0167
3555.00,0.0168
3554.00,0.0169
3553.00,0.0170
3552.00,0.0171
3551.00,0.0173
3550.00,0.0174
3549.00,0.0175
3548.00,0.0176
3547.00,0.0177
3546.00,0.0179
3545.00,0.0180
3544.00,0.0181
3543.00,0.0182
3542.00,0.0182
3541.00,0.0183
3540.00,0.0184
3539.00,0.0184
3538.00,0.0185
3537.00,0.0186
3536.00,0.0187
3535.00,0.0189
3534.00,0.0190
3533.00,0.0190
3532.00,0.0191
3531.00,0.0192
3530.00,0.0193
3529.00,0.0195
3528.00,0.0196
3527.00,0.0197
3526.00,0.0198
3525.00,0.0199
3524.00,0.0200
3523.00,0.0201
3522.00,0.0202
3521.00,0.0203
3520.00,0.0204
3519.00,0.0205
3518.00,0.0205
3517.00,0.0206
3516.00,0.0207
3515.00,0.0208
3514.00,0.0209
3513.00,0.0210
3512.00,0.0211
3511.00,0.0212
3510.00,0.0213
3509.00,0.0214
3508.00,0.0215
3507.00,0.0216
3506.00,0.0217
3505.00,0.0218
3504.00,0.0220
3503.00,0.0221
3502.00,0.0222
3501.00,0.0223
3500.00,0.0224
3499.00,0.0225
3498.00,0.0226
3497.00,0.0227
3496.00,0.0227
3495.00,0.0228
3494.00,0.0229
3493.00,0.0231
3492.00,0.0232
3491.00,0.0233
3490.00,0.0234
3489.00,0.0235
3488.00,0.0236
3487.00,0.0237
3486.00,0.0238
3485.00,0.0239
3484.00,0.0240
3483.00,0.0242
3482.00,0.0243
3481.00,0.0244
3480.00,0.0245
3479.00,0.0246
3478.00,0.0246
3477.00,0.0247
3476.00,0.0248
3475.00,0.0249
3474.00,0.0251
3473.00,0.0252
3472.00,0.0253
3471.00,0.0254
3470.00,0.0255
3469.00,0.0256
3468.00,0.0257
3467.00,0.0258
3466.00,0.0259
3465.00,0.0260
3464.00,0.0261
3463.00,0.0262
3462.00,0.0263
3461.00,0.0264
3460.00,0.0265
3459.00,0.0266
3458.00,0.0267
3457.00,0.0268
3456.00,0.0269
3455.00,0.0269
3454.00,0.0270
3453.00,0.0271
3452.00,0.0272
3451.00,0.0273
3450.00,0.0274
3449.00,0.0275
3448.00,0.0276
3447.00,0.0277
3446.00,0.0278
3445.00,0.0279
3444.00,0.0280
3443.00,0.0281
3442.00,0.0282
3441.00,0.0283
3440.00,0.0284
3439.00,0.0285
3438.00,0.0286
3437.00,0.0287
3436.00,0.0288
3435.00,0.0289
3434.00,0.0290
3433.00,0.0291
3432.00,0.0292
3431.00,0.0293
3430.00,0.0293
3429.00,0.0294
3428.00,0.0295
3427.00,0.0296
3426.00,0.0297
3425.00,0.0298
3424.00,0.0299
3423.00,0.0300
3422.00,0.0301
3421.00,0.0302
3420.00,0.0303
3419.00,0.0304
3418.00,0.0305
3417.00,0.0306
3416.00,0.0307
3415.00,0.0307
3414.00,0.0308
3413.00,0.0309
3412.00,0.0310
3411.00,0.0311
3410.00,0.0312
3409.00,0.0313
3408.00,0.0314
3407.00,0.0314
3406.00,0.0315
3405.00,0.0316
3404.00,0.0317
3403.00,0.0318
3402.00,0.0319
3401.00,0.0320
3400.00,0.0320
3399.00,0.0321
3398.00,0.0322
3397.00,0.0323
3396.00,0.0324
3395.00,0.0325
3394.00,0.0325
3393.00,0.0326
3392.00,0.0327
3391.00,0.0328
3390.00,0.0329
3389.00,0.0330
3388.00,0.0331
3387.00,0.0332
3386.00,0.0332
3385.00,0.0333
3384.00,0.0334
3383.00,0.0335
3382.00,0.0336
3381.00,0.0337
3380.00,0.0338
3379.00,0.0339
3378.00,0.0340
3377.00,0.0341
3376.00,0.0342
3375.00,0.0343
3374.00,0.0344
3373.00,0.0345
3372.00,0.0346
3371.00,0.0347
3370.00,0.0348
3369.00,0.0349
3368.00,0.0350
3367.00,0.0351
3366.00,0.0353
3365.00,0.0354
3364.00,0.0355
3363.00,0.0357
3362.00,0.0358
3361.00,0.0359
3360.00,0.0361
3359.00,0.0362
3358.00,0.0363
3357.00,0.0365
3356.00,0.0366
3355.00,0.0367
3354.00,0.0369
3353.00,0.0370
3352.00,0.0371
3351.00,0.0372
3350.00,0.0374
3349.00,0.0376
3348.00,0.0377
3347.00,0.0379
3346.00,0.0380
3345.00,0.0382
3344.00,0.0383
3343.00,0.0385
3342.00,0.0386
3341.00,0.0388
3340.00,0.0389
3339.00,0.0391
3338.00,0.0393
3337.00,0.0395
3336.00,0.0397
3335.00,0.0399
3334.00,0.0401
3333.00,0.0403
3332.00,0.0405
3331.00,0.0407
3330.00,0.0409
3329.00,0.0411
3328.00,0.0413
3327.00,0.0414
3326.00,0.0416
3325.00,0.0419
3324.00,0.0421
3323.00,0.0424
3322.00,0.0426
3321.00,0.0429
3320.00,0.0431
3319.00,0.0433
3318.00,0.0436
3317.00,0.0438
3316.00,0.0441
3315.00,0.0443
3314.00,0.0445
3313.00,0.0447
3312.00,0.0450
3311.00,0.0452
3310.00,0.0454
3309.00,0.0456
3308.00,0.0458
3307.00,0.0461
3306.00,0.0463
3305.00,0.0466
3304.00,0.0470
3303.00,0.0473
3302.00,0.0477
3301.00,0.0480
3300.00,0.0482
3299.00,0.0485
3298.00,0.0487
3297.00,0.0489
3296.00,0.0492
3295.00,0.0494
3294.00,0.0497
3293.00,0.0500
3292.00,0.0502
3291.00,0.0505
3290.00,0.0508
3289.00,0.0511
3288.00,0.0514
3287.00,0.0516
3286.00,0.0518
3285.00,0.0519
3284.00,0.0521
3283.00,0.0523
3282.00,0.0524
3281.00,0.0525
3280.00,0.0526
3279.00,0.0527
3278.00,0.0528
3277.00,0.0528
3276.00,0.0528
3275.00,0.0528
3274.00,0.0528
3273.00,0.0527
3272.00,0.0526
3271.00,0.0526
3270.00,0.0525
3269.00,0.0525
3268.00,0.0524
3267.00,0.0524
3266.00,0.0522
3265.00,0.0521
3264.00,0.0519
3263.00,0.0518
3262.00,0.0516
3261.00,0.0513
3260.00,0.0511
3259.00,0.0509
3258.00,0.0506
3257.00,0.0503
3256.00,0.0501
3255.00,0.0499
3254.00,0.0497
3253.00,0.0495
3252.00,0.0493
3251.00,0.0490
3250.00,0.0487
3249.00,0.0484
3248.00,0.0482
3247.00,0.0479
3246.00,0.0477
3245.00,0.0476
3244.00,0.0474
3243.00,0.0472
3242.00,0.0470
3241.00,0.0468
3240.00,0.0466
3239.00,0.0464
3238.00,0.0462
3237.00,0.0459
3236.00,0.0457
3235.00,0.0454
3234.00,0.0452
3233.00,0.0450
3232.00,0.0449
3231.00,0.0448
3230.00,0.0447
3229.00,0.0446
3228.00,0.0445
3227.00,0.0443
3226.00,0.0441
3225.00,0.0440
3224.00,0.0438
3223.00,0.0437
3222.00,0.0435
3221.00,0.0434
3220.00,0.0432
3219.00,0.0431
3218.00,0.0429
3217.00,0.0428
3216.00,0.0426
3215.00,0.0425
3214.00,0.0424
3213.00,0.0423
3212.00,0.0421
3211.00,0.0420
3210.00,0.0419
3209.00,0.0417
3208.00,0.0416
3207.00,0.0414
3206.00,0.0413
3205.00,0.0412
3204.00,0.0410
3203.00,0.0409
3202.00,0.0408
3201.00,0.0407
3200.00,0.0405
3199.00,0.0404
3198.00,0.0403
3197.00,0.0401
3196.00,0.0400
3195.00,0.0398
3194.00,0.0397
3193.00,0.0395
3192.00,0.0394
3191.00,0.0392
3190.00,0.0391
3189.00,0.0389
3188.00,0.0388
3187.00,0.0386
3186.00,0.0385
3185.00,0.0383
3184.00,0.0382
3183.00,0.0380
3182.00,0.0379
3181.00,0.0377
3180.00,0.0376
3179.00,0.0374
3178.00,0.0372
3177.00,0.0371
3176.00,0.0369
3175.00,0.0368
3174.00,0.0366
3173.00,0.0364
3172.00,0.0363
3171.00,0.0361
3170.00,0.0359
3169.00,0.0358
3168.00,0.0356
3167.00,0.0355
3166.00,0.0353
3165.00,0.0351
3164.00,0.0350
3163.00,0.0348
3162.00,0.0347
3161.00,0.0345
3160.00,0.0344
3159.00,0.0342
3158.00,0.0341
3157.00,0.0339
3156.00,0.0337
3155.00,0.0335
3154.00,0.0334
3153.00,0.0332
3152.00,0.0331
3151.00,0.0330
3150.00,0.0329
3149.00,0.0327
3148.00,0.0326
3147.00,0.0325
3146.00,0.0324
3145.00,0.0323
3144.00,0.0322
3143.00,0.0320
3142.00,0.0319
3141.00,0.0317
3140.00,0.0316
3139.00,0.0314
3138.00,0.0313
3137.00,0.0313
3136.00,0.0312
3135.00,0.0311
3134.00,0.0310
3133.00,0.0309
3132.00,0.0308
3131.00,0.0307
3130.00,0.0306
3129.00,0.0305
3128.00,0.0304
3127.00,0.0304
3126.00,0.0303
3125.00,0.0302
3124.00,0.0301
3123.00,0.0300
3122.00,0.0299
3121.00,0.0298
3120.00,0.0297
3119.00,0.0296
3118.00,0.0295
3117.00,0.0295
3116.00,0.0295
3115.00,0.0295
3114.00,0.0295
3113.00,0.0295
3112.00,0.0295
3111.00,0.0294
3110.00,0.0294
3109.00,0.0294
3108.00,0.0294
3107.00,0.0294
3106.00,0.0294
3105.00,0.0294
3104.00,0.0294
3103.00,0.0294
3102.00,0.0294
3101.00,0.0293
3100.00,0.0294
3099.00,0.0294
3098.00,0.0294
3097.00,0.0295
3096.00,0.0295
3095.00,0.0295
3094.00,0.0295
3093.00,0.0295
3092.00,0.0294
3091.00,0.0294
3090.00,0.0294
3089.00,0.0294
3088.00,0.0295
3087.00,0.0295
3086.00,0.0294
3085.00,0.0294
3084.00,0.0294
3083.00,0.0294
3082.00,0.0294
3081.00,0.0294
3080.00,0.0294
3079.00,0.0294
3078.00,0.0294
3077.00,0.0295
3076.00,0.0296
3075.00,0.0297
3074.00,0.0297
3073.00,0.0297
3072.00,0.0297
3071.00,0.0296
3070.00,0.0296
3069.00,0.0295
3068.00,0.0294
3067.00,0.0294
3066.00,0.0294
3065.00,0.0294
3064.00,0.0294
3063.00,0.0294
3062.00,0.0294
3061.00,0.0294
3060.00,0.0293
3059.00,0.0292
3058.00,0.0291
3057.00,0.0290
3056.00,0.0289
3055.00,0.0288
3054.00,0.0287
3053.00,0.0286
3052.00,0.0284
3051.00,0.0283
3050.00,0.0282
3049.00,0.0282
3048.00,0.0281
3047.00,0.0280
3046.00,0.0278
3045.00,0.0276
3044.00,0.0275
3043.00,0.0274
3042.00,0.0273
3041.00,0.0273
3040.00,0.0272
3039.00,0.0272
3038.00,0.0271
3037.00,0.0270
3036.00,0.0269
3035.00,0.0267
3034.00,0.0266
3033.00,0.0265
3032.00,0.0265
3031.00,0.0265
3030.00,0.0264
3029.00,0.0263
3028.00,0.0263
3027.00,0.0261
3026.00,0.0260
3025.00,0.0258
3024.00,0.0257
3023.00,0.0256
3022.00,0.0255
3021.00,0.0254
3020.00,0.0252
3019.00,0.0251
3018.00,0.0250
3017.00,0.0248
3016.00,0.0247
3015.00,0.0246
3014.00,0.0245
3013.00,0.0245
3012.00,0.0244
3011.00,0.0244
3010.00,0.0244
3009.00,0.0245
3008.00,0.0245
3007.00,0.0245
3006.00,0.0244
3005.00,0.0244
3004.00,0.0243
3003.00,0.0243
3002.00,0.0243
3001.00,0.0243
3000.00,0.0243
2999.00,0.0243
2998.00,0.0242
2997.00,0.0243
2996.00,0.0243
2995.00,0.0244
2994.00,0.0244
2993.00,0.0245
2992.00,0.0246
2991.00,0.0247
2990.00,0.0248
2989.00,0.0250
2988.00,0.0251
2987.00,0.0252
2986.00,0.0253
2985.00,0.0254
2984.00,0.0255
2983.00,0.0256
2982.00,0.0257
2981.00,0.0258
2980.00,0.0260
2979.00,0.0261
2978.00,0.0262
2977.00,0.0263
2976.00,0.0265
2975.00,0.0266
2974.00,0.0267
2973.00,0.0268
2972.00,0.0269
2971.00,0.0271
2970.00,0.0271
2969.00,0.0272
2968.00,0.0273
2967.00,0.0273
2966.00,0.0273
2965.00,0.0273
2964.00,0.0273
2963.00,0.0273
2962.00,0.0273
2961.00,0.0272
2960.00,0.0272
2959.00,0.0271
2958.00,0.0271
2957.00,0.0270
2956.00,0.0270
2955.00,0.0269
2954.00,0.0268
2953.00,0.0268
2952.00,0.0267
2951.00,0.0267
2950.00,0.0267
2949.00,0.0267
2948.00,0.0267
2947.00,0.0268
2946.00,0.0268
2945.00,0.0269
2944.00,0.0270
2943.00,0.0271
2942.00,0.0273
2941.00,0.0274
2940.00,0.0275
2939.00,0.0276
2938.00,0.0276
2937.00,0.0277
2936.00,0.0277
2935.00,0.0277
2934.00,0.0277
2933.00,0.0276
2932.00,0.0275
2931.00,0.0273
2930.00,0.0271
2929.00,0.0269
2928.00,0.0267
2927.00,0.0264
2926.00,0.0261
2925.00,0.0258
2924.00,0.0253
2923.00,0.0249
2922.00,0.0243
2921.00,0.0238
2920.00,0.0231
2919.00,0.0225
2918.00,0.0220
2917.00,0.0216
2916.00,0.0214
2915.00,0.0215
2914.00,0.0219
2913.00,0.0223
2912.00,0.0228
2911.00,0.0232
2910.00,0.0235
2909.00,0.0237
2908.00,0.0239
2907.00,0.0239
2906.00,0.0239
2905.00,0.0239
2904.00,0.0239
2903.00,0.0239
2902.00,0.0238
2901.00,0.0238
2900.00,0.0238
2899.00,0.0237
2898.00,0.0237
2897.00,0.0237
2896.00,0.0236
2895.00,0.0236
2894.00,0.0236
2893.00,0.0236
2892.00,0.0236
2891.00,0.0237
2890.00,0.0237
2889.00,0.0237
2888.00,0.0237
2887.00,0.0238
2886.00,0.0238
2885.00,0.0239
2884.00,0.0240
2883.00,0.0240
2882.00,0.0241
2881.00,0.0242
2880.00,0.0243
2879.00,0.0243
2878.00,0.0244
2877.00,0.0244
2876.00,0.0244
2875.00,0.0243
2874.00,0.0243
2873.00,0.0242
2872.00,0.0242
2871.00,0.0241
2870.00,0.0240
2869.00,0.0238
2868.00,0.0237
2867.00,0.0235
2866.00,0.0233
2865.00,0.0232
2864.00,0.0230
2863.00,0.0228
2862.00,0.0227
2861.00,0.0225
2860.00,0.0224
2859.00,0.0222
2858.00,0.0221
2857.00,0.0219
2856.00,0.0217
2855.00,0.0214
2854.00,0.0210
2853.00,0.0205
2852.00,0.0200
2851.00,0.0194
2850.00,0.0189
2849.00,0.0186
2848.00,0.0187
2847.00,0.0190
2846.00,0.0194
2845.00,0.0199
2844.00,0.0202
2843.00,0.0205
2842.00,0.0206
2841.00,0.0206
2840.00,0.0206
2839.00,0.0206
2838.00,0.0206
2837.00,0.0206
2836.00,0.0206
2835.00,0.0206
2834.00,0.0206
2833.00,0.0206
2832.00,0.0206
2831.00,0.0205
2830.00,0.0205
2829.00,0.0205
2828.00,0.0205
2827.00,0.0204
2826.00,0.0204
2825.00,0.0203
2824.00,0.0203
2823.00,0.0203
2822.00,0.0202
2821.00,0.0202
2820.00,0.0202
2819.00,0.0201
2818.00,0.0201
2817.00,0.0201
2816.00,0.0201
2815.00,0.0200
2814.00,0.0200
2813.00,0.0199
2812.00,0.0199
2811.00,0.0198
2810.00,0.0198
2809.00,0.0198
2808.00,0.0198
2807.00,0.0198
2806.00,0.0197
2805.00,0.0197
2804.00,0.0197
2803.00,0.0196
2802.00,0.0196
2801.00,0.0195
2800.00,0.0195
2799.00,0.0194
2798.00,0.0194
2797.00,0.0193
2796.00,0.0193
2795.00,0.0193
2794.00,0.0193
2793.00,0.0192
2792.00,0.0192
2791.00,0.0192
2790.00,0.0191
2789.00,0.0191
2788.00,0.0191
2787.00,0.0190
2786.00,0.0190
2785.00,0.0190
2784.00,0.0189
2783.00,0.0189
2782.00,0.0189
2781.00,0.0188
2780.00,0.0188
2779.00,0.0188
2778.00,0.0187
2777.00,0.0187
2776.00,0.0186
2775.00,0.0186
2774.00,0.0186
2773.00,0.0185
2772.00,0.0185
2771.00,0.0185
2770.00,0.0185
2769.00,0.0184
2768.00,0.0184
2767.00,0.0184
2766.00,0.0184
2765.00,0.0183
2764.00,0.0183
2763.00,0.0183
2762.00,0.0182
2761.00,0.0182
2760.00,0.0182
2759.00,0.0181
2758.00,0.0181
2757.00,0.0181
2756.00,0.0181
2755.00,0.0180
2754.00,0.0180
2753.00,0.0180
2752.00,0.0179
2751.00,0.0179
2750.00,0.0179
2749.00,0.0179
2748.00,0.0178
2747.00,0.0178
2746.00,0.0178
2745.00,0.0178
2744.00,0.0177
2743.00,0.0177
2742.00,0.0177
2741.00,0.0177
2740.00,0.0176
2739.00,0.0176
2738.00,0.0176
2737.00,0.0176
2736.00,0.0176
2735.00,0.0175
2734.00,0.0175
2733.00,0.0175
2732.00,0.0175
2731.00,0.0174
2730.00,0.0174
2729.00,0.0174
2728.00,0.0173
2727.00,0.0173
2726.00,0.0173
2725.00,0.0172
2724.00,0.0172
2723.00,0.0172
2722.00,0.0172
2721.00,0.0172
2720.00,0.0172
2719.00,0.0172
2718.00,0.0171
2717.00,0.0171
2716.00,0.0170
2715.00,0.0170
2714.00,0.0170
2713.00,0.0170
2712.00,0.0169
2711.00,0.0169
2710.00,0.0169
2709.00,0.0168
2708.00,0.0168
2707.00,0.0168
2706.00,0.0168
2705.00,0.0168
2704.00,0.0168
2703.00,0.0167
2702.00,0.0167
2701.00,0.0167
2700.00,0.0166
2699.00,0.0166
2698.00,0.0166
2697.00,0.0166
2696.00,0.0166
2695.00,0.0165
2694.00,0.0165
2693.00,0.0165
2692.00,0.0165
2691.00,0.0165
2690.00,0.0164
2689.00,0.0164
2688.00,0.0164
2687.00,0.0164
2686.00,0.0164
2685.00,0.0163
2684.00,0.0163
2683.00,0.0163
2682.00,0.0163
2681.00,0.0163
2680.00,0.0162
2679.00,0.0162
2678.00,0.0162
2677.00,0.0162
2676.00,0.0162
2675.00,0.0161
2674.00,0.0161
2673.00,0.0161
2672.00,0.0161
2671.00,0.0161
2670.00,0.0161
2669.00,0.0161
2668.00,0.0161
2667.00,0.0161
2666.00,0.0161
2665.00,0.0161
2664.00,0.0161
2663.00,0.0162
2662.00,0.0162
2661.00,0.0162
2660.00,0.0162
2659.00,0.0162
2658.00,0.0162
2657.00,0.0162
2656.00,0.0162
2655.00,0.0162
2654.00,0.0161
2653.00,0.0161
2652.00,0.0161
2651.00,0.0161
2650.00,0.0161
2649.00,0.0161
2648.00,0.0161
2647.00,0.0161
2646.00,0.0160
2645.00,0.0160
2644.00,0.0160
2643.00,0.0160
2642.00,0.0160
2641.00,0.0159
2640.00,0.0159
2639.00,0.0159
2638.00,0.0159
2637.00,0.0158
2636.00,0.0158
2635.00,0.0158
2634.00,0.0158
2633.00,0.0158
2632.00,0.0158
2631.00,0.0157
2630.00,0.0157
2629.00,0.0157
2628.00,0.0157
2627.00,0.0157
2626.00,0.0156
2625.00,0.0156
2624.00,0.0156
2623.00,0.0156
2622.00,0.0156
2621.00,0.0156
2620.00,0.0156
2619.00,0.0155
2618.00,0.0155
2617.00,0.0155
2616.00,0.0155
2615.00,0.0154
2614.00,0.0154
2613.00,0.0154
2612.00,0.0154
2611.00,0.0153
2610.00,0.0153
2609.00,0.0153
2608.00,0.0153
2607.00,0.0153
2606.00,0.0153
2605.00,0.0153
2604.00,0.0153
2603.00,0.0152
2602.00,0.0152
2601.00,0.0152
2600.00,0.0151
2599.00,0.0151
2598.00,0.0151
2597.00,0.0151
2596.00,0.0151
2595.00,0.0150
2594.00,0.0150
2593.00,0.0150
2592.00,0.0149
2591.00,0.0149
2590.00,0.0149
2589.00,0.0149
2588.00,0.0149
2587.00,0.0148
2586.00,0.0148
2585.00,0.0148
2584.00,0.0148
2583.00,0.0148
2582.00,0.0148
2581.00,0.0147
2580.00,0.0147
2579.00,0.0147
2578.00,0.0146
2577.00,0.0146
2576.00,0.0146
2575.00,0.0146
2574.00,0.0146
2573.00,0.0146
2572.00,0.0146
2571.00,0.0145
2570.00,0.0145
2569.00,0.0145
2568.00,0.0145
2567.00,0.0144
2566.00,0.0144
2565.00,0.0144
2564.00,0.0144
2563.00,0.0144
2562.00,0.0144
2561.00,0.0144
2560.00,0.0144
2559.00,0.0144
2558.00,0.0144
2557.00,0.0143
2556.00,0.0143
2555.00,0.0143
2554.00,0.0143
2553.00,0.0143
2552.00,0.0142
2551.00,0.0142
2550.00,0.0142
2549.00,0.0142
2548.00,0.0142
2547.00,0.0142
2546.00,0.0142
2545.00,0.0142
2544.00,0.0142
2543.00,0.0142
2542.00,0.0141
2541.00,0.0141
2540.00,0.0141
2539.00,0.0141
2538.00,0.0140
2537.00,0.0140
2536.00,0.0140
2535.00,0.0140
2534.00,0.0140
2533.00,0.0140
2532.00,0.0140
2531.00,0.0140
2530.00,0.0139
2529.00,0.0139
2528.00,0.0139
2527.00,0.0139
2526.00,0.0139
2525.00,0.0139
2524.00,0.0139
2523.00,0.0139
2522.00,0.0139
2521.00,0.0139
2520.00,0.0138
2519.00,0.0138
2518.00,0.0138
2517.00,0.0138
2516.00,0.0138
2515.00,0.0138
2514.00,0.0138
2513.00,0.0138
2512.00,0.0137
2511.00,0.0137
2510.00,0.0137
2509.00,0.0137
2508.00,0.0137
2507.00,0.0137
2506.00,0.0137
2505.00,0.0137
2504.00,0.0137
2503.00,0.0137
2502.00,0.0137
2501.00,0.0137
2500.00,0.0136
2499.00,0.0136
2498.00,0.0136
2497.00,0.0136
2496.00,0.0136
2495.00,0.0136
2494.00,0.0136
2493.00,0.0136
2492.00,0.0135
2491.00,0.0135
2490.00,0.0135
2489.00,0.0135
2488.00,0.0135
2487.00,0.0135
2486.00,0.0135
2485.00,0.0135
2484.00,0.0135
2483.00,0.0135
2482.00,0.0135
2481.00,0.0135
2480.00,0.0135
2479.00,0.0135
2478.00,0.0134
2477.00,0.0134
2476.00,0.0134
2475.00,0.0134
2474.00,0.0134
2473.00,0.0134
2472.00,0.0134
2471.00,0.0134
2470.00,0.0134
2469.00,0.0134
2468.00,0.0134
2467.00,0.0134
2466.00,0.0134
2465.00,0.0134
2464.00,0.0134
2463.00,0.0134
2462.00,0.0134
2461.00,0.0134
2460.00,0.0134
2459.00,0.0134
2458.00,0.0134
2457.00,0.0134
2456.00,0.0134
2455.00,0.0134
2454.00,0.0134
2453.00,0.0134
2452.00,0.0133
2451.00,0.0133
2450.00,0.0133
2449.00,0.0132
2448.00,0.0132
2447.00,0.0132
2446.00,0.0132
2445.00,0.0131
2444.00,0.0131
2443.00,0.0131
2442.00,0.0131
2441.00,0.0131
2440.00,0.0131
2439.00,0.0130
2438.00,0.0130
2437.00,0.0130
2436.00,0.0130
2435.00,0.0130
2434.00,0.0130
2433.00,0.0129
2432.00,0.0129
2431.00,0.0129
2430.00,0.0129
2429.00,0.0129
2428.00,0.0128
2427.00,0.0128
2426.00,0.0128
2425.00,0.0128
2424.00,0.0128
2423.00,0.0128
2422.00,0.0128
2421.00,0.0127
2420.00,0.0127
2419.00,0.0127
2418.00,0.0127
2417.00,0.0127
2416.00,0.0127
2415.00,0.0127
2414.00,0.0127
2413.00,0.0127
2412.00,0.0127
2411.00,0.0127
2410.00,0.0126
2409.00,0.0126
2408.00,0.0125
2407.00,0.0125
2406.00,0.0124
2405.00,0.0124
2404.00,0.0124
2403.00,0.0124
2402.00,0.0124
2401.00,0.0124
2400.00,0.0124
2399.00,0.0124
2398.00,0.0124
2397.00,0.0124
2396.00,0.0124
2395.00,0.0123
2394.00,0.0123
2393.00,0.0123
2392.00,0.0123
2391.00,0.0123
2390.00,0.0123
2389.00,0.0122
2388.00,0.0122
2387.00,0.0122
2386.00,0.0121
2385.00,0.0121
2384.00,0.0120
2383.00,0.0120
2382.00,0.0120
2381.00,0.0120
2380.00,0.0120
2379.00,0.0120
2378.00,0.0119
2377.00,0.0119
2376.00,0.0119
2375.00,0.0119
2374.00,0.0119
2373.00,0.0119
2372.00,0.0119
2371.00,0.0119
2370.00,0.0119
2369.00,0.0118
2368.00,0.0118
2367.00,0.0118
2366.00,0.0118
2365.00,0.0118
2364.00,0.0118
2363.00,0.0118
2362.00,0.0118
2361.00,0.0118
2360.00,0.0119
2359.00,0.0119
2358.00,0.0119
2357.00,0.0119
2356.00,0.0119
2355.00,0.0118
2354.00,0.0118
2353.00,0.0118
2352.00,0.0118
2351.00,0.0118
2350.00,0.0119
2349.00,0.0120
2348.00,0.0120
2347.00,0.0120
2346.00,0.0120
2345.00,0.0120
2344.00,0.0120
2343.00,0.0120
2342.00,0.0121
2341.00,0.0121
2340.00,0.0121
2339.00,0.0121
2338.00,0.0121
2337.00,0.0121
2336.00,0.0121
2335.00,0.0121
2334.00,0.0121
2333.00,0.0121
2332.00,0.0121
2331.00,0.0120
2330.00,0.0121
2329.00,0.0123
2328.00,0.0126
2327.00,0.0130
2326.00,0.0132
2325.00,0.0133
2324.00,0.0132
2323.00,0.0130
2322.00,0.0128
2321.00,0.0127
2320.00,0.0126
2319.00,0.0125
2318.00,0.0125
2317.00,0.0125
2316.00,0.0125
2315.00,0.0124
2314.00,0.0124
2313.00,0.0123
2312.00,0.0123
2311.00,0.0123
2310.00,0.0123
2309.00,0.0123
2308.00,0.0123
2307.00,0.0123
2306.00,0.0123
2305.00,0.0123
2304.00,0.0123
2303.00,0.0123
2302.00,0.0124
2301.00,0.0124
2300.00,0.0124
2299.00,0.0125
2298.00,0.0125
2297.00,0.0126
2296.00,0.0126
2295.00,0.0127
2294.00,0.0127
2293.00,0.0128
2292.00,0.0129
2291.00,0.0129
2290.00,0.0130
2289.00,0.0130
2288.00,0.0130
2287.00,0.0130
2286.00,0.0130
2285.00,0.0129
2284.00,0.0129
2283.00,0.0128
2282.00,0.0127
2281.00,0.0127
2280.00,0.0126
2279.00,0.0126
2278.00,0.0126
2277.00,0.0126
2276.00,0.0126
2275.00,0.0126
2274.00,0.0125
2273.00,0.0125
2272.00,0.0125
2271.00,0.0125
2270.00,0.0124
2269.00,0.0124
2268.00,0.0124
2267.00,0.0123
2266.00,0.0122
2265.00,0.0122
2264.00,0.0122
2263.00,0.0122
2262.00,0.0123
2261.00,0.0123
2260.00,0.0123
2259.00,0.0123
2258.00,0.0122
2257.00,0.0122
2256.00,0.0121
2255.00,0.0120
2254.00,0.0119
2253.00,0.0119
2252.00,0.0120
2251.00,0.0120
2250.00,0.0120
2249.00,0.0120
2248.00,0.0121
2247.00,0.0121
2246.00,0.0121
2245.00,0.0121
2244.00,0.0121
2243.00,0.0121
2242.00,0.0121
2241.00,0.0121
2240.00,0.0121
2239.00,0.0121
2238.00,0.0120
2237.00,0.0120
2236.00,0.0120
2235.00,0.0121
2234.00,0.0121
2233.00,0.0121
2232.00,0.0121
2231.00,0.0120
2230.00,0.0120
2229.00,0.0119
2228.00,0.0119
2227.00,0.0119
2226.00,0.0119
2225.00,0.0119
2224.00,0.0119
2223.00,0.0119
2222.00,0.0119
2221.00,0.0119
2220.00,0.0118
2219.00,0.0118
2218.00,0.0118
2217.00,0.0119
2216.00,0.0119
2215.00,0.0119
2214.00,0.0119
2213.00,0.0119
2212.00,0.0118
2211.00,0.0118
2210.00,0.0118
2209.00,0.0118
2208.00,0.0119
2207.00,0.0119
2206.00,0.0119
2205.00,0.0119
2204.00,0.0119
2203.00,0.0119
2202.00,0.0118
2201.00,0.0119
2200.00,0.0119
2199.00,0.0119
2198.00,0.0119
2197.00,0.0119
2196.00,0.0119
2195.00,0.0119
2194.00,0.0119
2193.00,0.0119
2192.00,0.0119
2191.00,0.0119
2190.00,0.0119
2189.00,0.0120
2188.00,0.0121
2187.00,0.0122
2186.00,0.0121
2185.00,0.0120
2184.00,0.0117
2183.00,0.0115
2182.00,0.0113
2181.00,0.0114
2180.00,0.0115
2179.00,0.0115
2178.00,0.0114
2177.00,0.0113
2176.00,0.0112
2175.00,0.0112
2174.00,0.0112
2173.00,0.0114
2172.00,0.0116
2171.00,0.0117
2170.00,0.0119
2169.00,0.0121
2168.00,0.0122
2167.00,0.0123
2166.00,0.0124
2165.00,0.0126
2164.00,0.0128
2163.00,0.0127
2162.00,0.0121
2161.00,0.0110
2160.00,0.0097
2159.00,0.0087
2158.00,0.0082
2157.00,0.0083
2156.00,0.0086
2155.00,0.0089
2154.00,0.0092
2153.00,0.0094
2152.00,0.0096
2151.00,0.0098
2150.00,0.0098
2149.00,0.0098
2148.00,0.0098
2147.00,0.0098
2146.00,0.0098
2145.00,0.0099
2144.00,0.0100
2143.00,0.0100
2142.00,0.0100
2141.00,0.0100
2140.00,0.0101
2139.00,0.0101
2138.00,0.0100
2137.00,0.0098
2136.00,0.0097
2135.00,0.0095
2134.00,0.0095
2133.00,0.0096
2132.00,0.0097
2131.00,0.0099
2130.00,0.0101
2129.00,0.0102
2128.00,0.0103
2127.00,0.0104
2126.00,0.0105
2125.00,0.0106
2124.00,0.0107
2123.00,0.0107
2122.00,0.0108
2121.00,0.0109
2120.00,0.0110
2119.00,0.0111
2118.00,0.0112
2117.00,0.0112
2116.00,0.0113
2115.00,0.0113
2114.00,0.0113
2113.00,0.0112
2112.00,0.0112
2111.00,0.0112
2110.00,0.0112
2109.00,0.0112
2108.00,0.0112
2107.00,0.0112
2106.00,0.0112
2105.00,0.0112
2104.00,0.0113
2103.00,0.0113
2102.00,0.0113
2101.00,0.0112
2100.00,0.0112
2099.00,0.0111
2098.00,0.0109
2097.00,0.0108
2096.00,0.0107
2095.00,0.0106
2094.00,0.0106
2093.00,0.0107
2092.00,0.0108
2091.00,0.0109
2090.00,0.0109
2089.00,0.0110
2088.00,0.0111
2087.00,0.0111
2086.00,0.0112
2085.00,0.0112
2084.00,0.0112
2083.00,0.0112
2082.00,0.0112
2081.00,0.0111
2080.00,0.0111
2079.00,0.0112
2078.00,0.0112
2077.00,0.0111
2076.00,0.0111
2075.00,0.0110
2074.00,0.0110
2073.00,0.0109
2072.00,0.0109
2071.00,0.0109
2070.00,0.0109
2069.00,0.0109
2068.00,0.0109
2067.00,0.0108
2066.00,0.0108
2065.00,0.0108
2064.00,0.0108
2063.00,0.0108
2062.00,0.0108
2061.00,0.0107
2060.00,0.0108
2059.00,0.0108
2058.00,0.0108
2057.00,0.0108
2056.00,0.0107
2055.00,0.0108
2054.00,0.0110
2053.00,0.0113
2052.00,0.0116
2051.00,0.0116
2050.00,0.0114
2049.00,0.0111
2048.00,0.0109
2047.00,0.0107
2046.00,0.0106
2045.00,0.0106
2044.00,0.0106
2043.00,0.0107
2042.00,0.0107
2041.00,0.0108
2040.00,0.0109
2039.00,0.0108
2038.00,0.0107
2037.00,0.0106
2036.00,0.0105
2035.00,0.0104
2034.00,0.0102
2033.00,0.0101
2032.00,0.0100
2031.00,0.0099
2030.00,0.0097
2029.00,0.0096
2028.00,0.0096
2027.00,0.0096
2026.00,0.0095
2025.00,0.0095
2024.00,0.0096
2023.00,0.0096
2022.00,0.0096
2021.00,0.0096
2020.00,0.0096
2019.00,0.0096
2018.00,0.0096
2017.00,0.0096
2016.00,0.0096
2015.00,0.0097
2014.00,0.0097
2013.00,0.0098
2012.00,0.0098
2011.00,0.0097
2010.00,0.0096
2009.00,0.0094
2008.00,0.0092
2007.00,0.0090
2006.00,0.0089
2005.00,0.0090
2004.00,0.0092
2003.00,0.0094
2002.00,0.0095
2001.00,0.0096
2000.00,0.0097
1999.00,0.0097
1998.00,0.0098
1997.00,0.0098
1996.00,0.0099
1995.00,0.0099
1994.00,0.0099
1993.00,0.0099
1992.00,0.0099
1991.00,0.0099
1990.00,0.0100
1989.00,0.0100
1988.00,0.0101
1987.00,0.0102
1986.00,0.0103
1985.00,0.0104
1984.00,0.0106
1983.00,0.0108
1982.00,0.0109
1981.00,0.0109
1980.00,0.0106
1979.00,0.0100
1978.00,0.0094
1977.00,0.0090
1976.00,0.0088
1975.00,0.0088
1974.00,0.0087
1973.00,0.0087
1972.00,0.0088
1971.00,0.0088
1970.00,0.0089
1969.00,0.0090
1968.00,0.0090
1967.00,0.0090
1966.00,0.0089
1965.00,0.0089
1964.00,0.0090
1963.00,0.0089
1962.00,0.0089
1961.00,0.0087
1960.00,0.0086
1959.00,0.0085
1958.00,0.0085
1957.00,0.0085
1956.00,0.0086
1955.00,0.0087
1954.00,0.0088
1953.00,0.0088
1952.00,0.0088
1951.00,0.0089
1950.00,0.0089
1949.00,0.0089
1948.00,0.0089
1947.00,0.0089
1946.00,0.0089
1945.00,0.0089
1944.00,0.0088
1943.00,0.0088
1942.00,0.0088
1941.00,0.0088
1940.00,0.0088
1939.00,0.0088
1938.00,0.0088
1937.00,0.0088
1936.00,0.0088
1935.00,0.0088
1934.00,0.0088
1933.00,0.0088
1932.00,0.0088
1931.00,0.0088
1930.00,0.0088
1929.00,0.0088
1928.00,0.0089
1927.00,0.0088
1926.00,0.0088
1925.00,0.0088
1924.00,0.0089
1923.00,0.0089
1922.00,0.0090
1921.00,0.0090
1920.00,0.0090
1919.00,0.0090
1918.00,0.0090
1917.00,0.0090
1916.00,0.0090
1915.00,0.0090
1914.00,0.0089
1913.00,0.0089
1912.00,0.0089
1911.00,0.0089
1910.00,0.0089
1909.00,0.0089
1908.00,0.0089
1907.00,0.0089
1906.00,0.0089
1905.00,0.0089
1904.00,0.0089
1903.00,0.0089
1902.00,0.0089
1901.00,0.0088
1900.00,0.0088
1899.00,0.0088
1898.00,0.0088
1897.00,0.0088
1896.00,0.0088
1895.00,0.0087
1894.00,0.0087
1893.00,0.0087
1892.00,0.0087
1891.00,0.0088
1890.00,0.0087
1889.00,0.0087
1888.00,0.0087
1887.00,0.0087
1886.00,0.0087
1885.00,0.0087
1884.00,0.0087
1883.00,0.0087
1882.00,0.0087
1881.00,0.0087
1880.00,0.0087
1879.00,0.0087
1878.00,0.0086
1877.00,0.0086
1876.00,0.0086
1875.00,0.0086
1874.00,0.0086
1873.00,0.0086
1872.00,0.0087
1871.00,0.0087
1870.00,0.0087
1869.00,0.0086
1868.00,0.0086
1867.00,0.0086
1866.00,0.0085
1865.00,0.0085
1864.00,0.0085
1863.00,0.0085
1862.00,0.0085
1861.00,0.0085
1860.00,0.0085
1859.00,0.0085
1858.00,0.0085
1857.00,0.0084
1856.00,0.0084
1855.00,0.0084
1854.00,0.0084
1853.00,0.0084
1852.00,0.0084
1851.00,0.0084
1850.00,0.0084
1849.00,0.0084
1848.00,0.0084
1847.00,0.0084
1846.00,0.0083
1845.00,0.0083
1844.00,0.0083
1843.00,0.0082
1842.00,0.0082
1841.00,0.0083
1840.00,0.0083
1839.00,0.0083
1838.00,0.0083
1837.00,0.0083
1836.00,0.0083
1835.00,0.0083
1834.00,0.0082
1833.00,0.0082
1832.00,0.0082
1831.00,0.0082
1830.00,0.0082
1829.00,0.0082
1828.00,0.0082
1827.00,0.0082
1826.00,0.0082
1825.00,0.0082
1824.00,0.0082
1823.00,0.0082
1822.00,0.0081
1821.00,0.0081
1820.00,0.0080
1819.00,0.0080
1818.00,0.0079
1817.00,0.0078
1816.00,0.0079
1815.00,0.0079
1814.00,0.0079
1813.00,0.0080
1812.00,0.0080
1811.00,0.0080
1810.00,0.0080
1809.00,0.0080
1808.00,0.0080
1807.00,0.0080
1806.00,0.0080
1805.00,0.0080
1804.00,0.0080
1803.00,0.0080
1802.00,0.0080
1801.00,0.0080
1800.00,0.0080
1799.00,0.0080
1798.00,0.0080
1797.00,0.0080
1796.00,0.0080
1795.00,0.0080
1794.00,0.0080
1793.00,0.0080
1792.00,0.0080
1791.00,0.0080
1790.00,0.0079
1789.00,0.0079
1788.00,0.0079
1787.00,0.0079
1786.00,0.0079
1785.00,0.0079
1784.00,0.0079
1783.00,0.0079
1782.00,0.0079
1781.00,0.0079
1780.00,0.0079
1779.00,0.0079
1778.00,0.0078
1777.00,0.0078
1776.00,0.0078
1775.00,0.0078
1774.00,0.0078
1773.00,0.0079
1772.00,0.0079
1771.00,0.0078
1770.00,0.0078
1769.00,0.0078
1768.00,0.0078
1767.00,0.0078
1766.00,0.0078
1765.00,0.0078
1764.00,0.0078
1763.00,0.0078
1762.00,0.0078
1761.00,0.0078
1760.00,0.0078
1759.00,0.0078
1758.00,0.0078
1757.00,0.0078
1756.00,0.0079
1755.00,0.0079
1754.00,0.0079
1753.00,0.0079
1752.00,0.0080
1751.00,0.0080
1750.00,0.0080
1749.00,0.0081
1748.00,0.0081
1747.00,0.0082
1746.00,0.0082
1745.00,0.0082
1744.00,0.0082
1743.00,0.0083
1742.00,0.0083
1741.00,0.0083
1740.00,0.0084
1739.00,0.0084
1738.00,0.0084
1737.00,0.0084
1736.00,0.0085
1735.00,0.0085
1734.00,0.0085
1733.00,0.0084
1732.00,0.0086
1731.00,0.0087
1730.00,0.0087
1729.00,0.0088
1728.00,0.0088
1727.00,0.0089
1726.00,0.0089
1725.00,0.0090
1724.00,0.0091
1723.00,0.0092
1722.00,0.0092
1721.00,0.0093
1720.00,0.0094
1719.00,0.0095
1718.00,0.0096
1717.00,0.0098
1716.00,0.0101
1715.00,0.0103
1714.00,0.0106
1713.00,0.0109
1712.00,0.0113
1711.00,0.0117
1710.00,0.0121
1709.00,0.0126
1708.00,0.0133
1707.00,0.0140
1706.00,0.0149
1705.00,0.0160
1704.00,0.0171
1703.00,0.0181
1702.00,0.0194
1701.00,0.0215
1700.00,0.0242
1699.00,0.0264
1698.00,0.0276
1697.00,0.0286
1696.00,0.0297
1695.00,0.0308
1694.00,0.0316
1693.00,0.0323
1692.00,0.0329
1691.00,0.0337
1690.00,0.0346
1689.00,0.0355
1688.00,0.0363
1687.00,0.0370
1686.00,0.0377
1685.00,0.0391
1684.00,0.0412
1683.00,0.0430
1682.00,0.0443
1681.00,0.0453
1680.00,0.0464
1679.00,0.0474
1678.00,0.0484
1677.00,0.0495
1676.00,0.0509
1675.00,0.0526
1674.00,0.0542
1673.00,0.0554
1672.00,0.0564
1671.00,0.0577
1670.00,0.0594
1669.00,0.0613
1668.00,0.0630
1667.00,0.0643
1666.00,0.0654
1665.00,0.0664
1664.00,0.0678
1663.00,0.0696
1662.00,0.0714
1661.00,0.0730
1660.00,0.0744
1659.00,0.0756
1658.00,0.0766
1657.00,0.0773
1656.00,0.0778
1655.00,0.0782
1654.00,0.0794
1653.00,0.0820
1652.00,0.0842
1651.00,0.0850
1650.00,0.0851
1649.00,0.0850
1648.00,0.0853
1647.00,0.0861
1646.00,0.0871
1645.00,0.0878
1644.00,0.0881
1643.00,0.0882
1642.00,0.0882
1641.00,0.0883
1640.00,0.0884
1639.00,0.0884
1638.00,0.0884
1637.00,0.0885
1636.00,0.0893
1635.00,0.0904
1634.00,0.0911
1633.00,0.0913
1632.00,0.0914
1631.00,0.0914
1630.00,0.0917
1629.00,0.0922
1628.00,0.0930
1627.00,0.0938
1626.00,0.0945
1625.00,0.0951
1624.00,0.0961
1623.00,0.0974
1622.00,0.0985
1621.00,0.0992
1620.00,0.0994
1619.00,0.0994
1618.00,0.0994
1617.00,0.0997
1616.00,0.1000
1615.00,0.0999
1614.00,0.0991
1613.00,0.0979
1612.00,0.0963
1611.00,0.0946
1610.00,0.0928
1609.00,0.0909
1608.00,0.0889
1607.00,0.0869
1606.00,0.0848
1605.00,0.0828
1604.00,0.0807
1603.00,0.0787
1602.00,0.0768
1601.00,0.0750
1600.00,0.0732
1599.00,0.0716
1598.00,0.0700
1597.00,0.0686
1596.00,0.0671
1595.00,0.0658
1594.00,0.0645
1593.00,0.0633
1592.00,0.0621
1591.00,0.0610
1590.00,0.0599
1589.00,0.0590
1588.00,0.0581
1587.00,0.0573
1586.00,0.0566
1585.00,0.0560
1584.00,0.0554
1583.00,0.0549
1582.00,0.0545
1581.00,0.0541
1580.00,0.0537
1579.00,0.0532
1578.00,0.0528
1577.00,0.0527
1576.00,0.0529
1575.00,0.0532
1574.00,0.0535
1573.00,0.0535
1572.00,0.0534
1571.00,0.0535
1570.00,0.0541
1569.00,0.0549
1568.00,0.0555
1567.00,0.0560
1566.00,0.0566
1565.00,0.0573
1564.00,0.0579
1563.00,0.0584
1562.00,0.0586
1561.00,0.0588
1560.00,0.0598
1559.00,0.0624
1558.00,0.0653
1557.00,0.0668
1556.00,0.0675
1555.00,0.0684
1554.00,0.0695
1553.00,0.0707
1552.00,0.0718
1551.00,0.0728
1550.00,0.0741
1549.00,0.0753
1548.00,0.0763
1547.00,0.0769
1546.00,0.0776
1545.00,0.0784
1544.00,0.0793
1543.00,0.0799
1542.00,0.0805
1541.00,0.0815
1540.00,0.0829
1539.00,0.0843
1538.00,0.0850
1537.00,0.0852
1536.00,0.0850
1535.00,0.0850
1534.00,0.0854
1533.00,0.0863
1532.00,0.0870
1531.00,0.0873
1530.00,0.0874
1529.00,0.0876
1528.00,0.0878
1527.00,0.0883
1526.00,0.0888
1525.00,0.0893
1524.00,0.0895
1523.00,0.0897
1522.00,0.0904
1521.00,0.0915
1520.00,0.0924
1519.00,0.0929
1518.00,0.0932
1517.00,0.0936
1516.00,0.0941
1515.00,0.0942
1514.00,0.0939
1513.00,0.0933
1512.00,0.0927
1511.00,0.0919
1510.00,0.0910
1509.00,0.0899
1508.00,0.0888
1507.00,0.0878
1506.00,0.0872
1505.00,0.0863
1504.00,0.0851
1503.00,0.0837
1502.00,0.0823
1501.00,0.0808
1500.00,0.0793
1499.00,0.0779
1498.00,0.0765
1497.00,0.0751
1496.00,0.0736
1495.00,0.0723
1494.00,0.0709
1493.00,0.0694
1492.00,0.0678
1491.00,0.0662
1490.00,0.0647
1489.00,0.0633
1488.00,0.0619
1487.00,0.0606
1486.00,0.0593
1485.00,0.0581
1484.00,0.0570
1483.00,0.0560
1482.00,0.0551
1481.00,0.0543
1480.00,0.0536
1479.00,0.0530
1478.00,0.0525
1477.00,0.0520
1476.00,0.0517
1475.00,0.0514
1474.00,0.0513
1473.00,0.0515
1472.00,0.0519
1471.00,0.0523
1470.00,0.0524
1469.00,0.0523
1468.00,0.0522
1467.00,0.0521
1466.00,0.0521
1465.00,0.0522
1464.00,0.0525
1463.00,0.0528
1462.00,0.0530
1461.00,0.0531
1460.00,0.0533
1459.00,0.0536
1458.00,0.0544
1457.00,0.0558
1456.00,0.0570
1455.00,0.0577
1454.00,0.0580
1453.00,0.0580
1452.00,0.0580
1451.00,0.0580
1450.00,0.0579
1449.00,0.0578
1448.00,0.0577
1447.00,0.0575
1446.00,0.0572
1445.00,0.0567
1444.00,0.0563
1443.00,0.0558
1442.00,0.0553
1441.00,0.0548
1440.00,0.0542
1439.00,0.0536
1438.00,0.0530
1437.00,0.0526
1436.00,0.0524
1435.00,0.0521
1434.00,0.0517
1433.00,0.0513
1432.00,0.0508
1431.00,0.0506
1430.00,0.0504
1429.00,0.0503
1428.00,0.0503
1427.00,0.0502
1426.00,0.0502
1425.00,0.0503
1424.00,0.0505
1423.00,0.0507
1422.00,0.0509
1421.00,0.0509
1420.00,0.0512
1419.00,0.0518
1418.00,0.0525
1417.00,0.0529
1416.00,0.0532
1415.00,0.0534
1414.00,0.0537
1413.00,0.0539
1412.00,0.0541
1411.00,0.0544
1410.00,0.0546
1409.00,0.0547
1408.00,0.0549
1407.00,0.0549
1406.00,0.0550
1405.00,0.0551
1404.00,0.0552
1403.00,0.0552
1402.00,0.0551
1401.00,0.0550
1400.00,0.0549
1399.00,0.0549
1398.00,0.0550
1397.00,0.0549
1396.00,0.0548
1395.00,0.0549
1394.00,0.0550
1393.00,0.0550
1392.00,0.0550
1391.00,0.0549
1390.00,0.0548
1389.00,0.0547
1388.00,0.0547
1387.00,0.0547
1386.00,0.0547
1385.00,0.0546
1384.00,0.0544
1383.00,0.0542
1382.00,0.0540
1381.00,0.0537
1380.00,0.0535
1379.00,0.0533
1378.00,0.0530
1377.00,0.0528
1376.00,0.0525
1375.00,0.0523
1374.00,0.0522
1373.00,0.0520
1372.00,0.0518
1371.00,0.0516
1370.00,0.0513
1369.00,0.0510
1368.00,0.0507
1367.00,0.0503
1366.00,0.0499
1365.00,0.0494
1364.00,0.0490
1363.00,0.0487
1362.00,0.0485
1361.00,0.0484
1360.00,0.0482
1359.00,0.0480
1358.00,0.0479
1357.00,0.0479
1356.00,0.0478
1355.00,0.0478
1354.00,0.0479
1353.00,0.0479
1352.00,0.0480
1351.00,0.0480
1350.00,0.0481
1349.00,0.0482
1348.00,0.0482
1347.00,0.0483
1346.00,0.0483
1345.00,0.0484
1344.00,0.0483
1343.00,0.0483
1342.00,0.0483
1341.00,0.0483
1340.00,0.0482
1339.00,0.0482
1338.00,0.0482
1337.00,0.0482
1336.00,0.0480
1335.00,0.0479
1334.00,0.0477
1333.00,0.0475
1332.00,0.0474
1331.00,0.0472
1330.00,0.0471
1329.00,0.0470
1328.00,0.0469
1327.00,0.0468
1326.00,0.0467
1325.00,0.0467
1324.00,0.0466
1323.00,0.0466
1322.00,0.0466
1321.00,0.0465
1320.00,0.0466
1319.00,0.0466
1318.00,0.0466
1317.00,0.0467
1316.00,0.0467
1315.00,0.0467
1314.00,0.0467
1313.00,0.0467
1312.00,0.0467
1311.00,0.0468
1310.00,0.0468
1309.00,0.0468
1308.00,0.0468
1307.00,0.0468
1306.00,0.0468
1305.00,0.0468
1304.00,0.0467
1303.00,0.0467
1302.00,0.0467
1301.00,0.0467
1300.00,0.0466
1299.00,0.0465
1298.00,0.0464
1297.00,0.0463
1296.00,0.0462
1295.00,0.0462
1294.00,0.0461
1293.00,0.0460
1292.00,0.0459
1291.00,0.0459
1290.00,0.0458
1289.00,0.0458
1288.00,0.0457
1287.00,0.0457
1286.00,0.0456
1285.00,0.0456
1284.00,0.0455
1283.00,0.0455
1282.00,0.0454
1281.00,0.0454
1280.00,0.0453
1279.00,0.0453
1278.00,0.0452
1277.00,0.0452
1276.00,0.0452
1275.00,0.0452
1274.00,0.0452
1273.00,0.0452
1272.00,0.0452
1271.00,0.0453
1270.00,0.0454
1269.00,0.0455
1268.00,0.0455
1267.00,0.0456
1266.00,0.0458
1265.00,0.0459
1264.00,0.0461
1263.00,0.0463
1262.00,0.0465
1261.00,0.0468
1260.00,0.0470
1259.00,0.0473
1258.00,0.0476
1257.00,0.0480
1256.00,0.0483
1255.00,0.0486
1254.00,0.0490
1253.00,0.0493
1252.00,0.0496
1251.00,0.0500
1250.00,0.0503
1249.00,0.0507
1248.00,0.0510
1247.00,0.0513
1246.00,0.0515
1245.00,0.0518
1244.00,0.0520
1243.00,0.0522
1242.00,0.0525
1241.00,0.0527
1240.00,0.0529
1239.00,0.0530
1238.00,0.0532
1237.00,0.0533
1236.00,0.0534
1235.00,0.0534
1234.00,0.0535
1233.00,0.0535
1232.00,0.0535
1231.00,0.0535
1230.00,0.0535
1229.00,0.0534
1228.00,0.0534
1227.00,0.0533
1226.00,0.0532
1225.00,0.0531
1224.00,0.0530
1223.00,0.0529
1222.00,0.0527
1221.00,0.0525
1220.00,0.0523
1219.00,0.0521
1218.00,0.0519
1217.00,0.0517
1216.00,0.0514
1215.00,0.0511
1214.00,0.0509
1213.00,0.0506
1212.00,0.0502
1211.00,0.0499
1210.00,0.0496
1209.00,0.0493
1208.00,0.0489
1207.00,0.0486
1206.00,0.0482
1205.00,0.0479
1204.00,0.0475
1203.00,0.0471
1202.00,0.0468
1201.00,0.0465
1200.00,0.0461
1199.00,0.0458
1198.00,0.0455
1197.00,0.0452
1196.00,0.0449
1195.00,0.0446
1194.00,0.0444
1193.00,0.0441
1192.00,0.0439
1191.00,0.0437
1190.00,0.0435
1189.00,0.0433
1188.00,0.0430
1187.00,0.0428
1186.00,0.0427
1185.00,0.0425
1184.00,0.0423
1183.00,0.0422
1182.00,0.0421
1181.00,0.0420
1180.00,0.0419
1179.00,0.0419
1178.00,0.0420
1177.00,0.0421
1176.00,0.0423
1175.00,0.0425
1174.00,0.0427
1173.00,0.0430
1172.00,0.0432
1171.00,0.0434
1170.00,0.0436
1169.00,0.0438
1168.00,0.0439
1167.00,0.0441
1166.00,0.0442
1165.00,0.0442
1164.00,0.0442
1163.00,0.0442
1162.00,0.0441
1161.00,0.0440
1160.00,0.0438
1159.00,0.0436
1158.00,0.0434
1157.00,0.0431
1156.00,0.0428
1155.00,0.0426
1154.00,0.0423
1153.00,0.0421
1152.00,0.0418
1151.00,0.0415
1150.00,0.0413
1149.00,0.0411
1148.00,0.0408
1147.00,0.0406
1146.00,0.0405
1145.00,0.0403
1144.00,0.0402
1143.00,0.0400
1142.00,0.0399
1141.00,0.0398
1140.00,0.0397
1139.00,0.0397
1138.00,0.0397
1137.00,0.0397
1136.00,0.0396
1135.00,0.0397
1134.00,0.0397
1133.00,0.0398
1132.00,0.0399
1131.00,0.0399
1130.00,0.0400
1129.00,0.0401
1128.00,0.0402
1127.00,0.0402
1126.00,0.0403
1125.00,0.0404
1124.00,0.0404
1123.00,0.0404
1122.00,0.0404
1121.00,0.0404
1120.00,0.0404
1119.00,0.0403
1118.00,0.0403
1117.00,0.0403
1116.00,0.0402
1115.00,0.0402
1114.00,0.0402
1113.00,0.0402
1112.00,0.0402
1111.00,0.0402
1110.00,0.0402
1109.00,0.0402
1108.00,0.0402
1107.00,0.0403
1106.00,0.0403
1105.00,0.0404
1104.00,0.0404
1103.00,0.0404
1102.00,0.0405
1101.00,0.0405
1100.00,0.0405
1099.00,0.0406
1098.00,0.0407
1097.00,0.0408
1096.00,0.0409
1095.00,0.0411
1094.00,0.0413
1093.00,0.0416
1092.00,0.0418
1091.00,0.0421
1090.00,0.0424
1089.00,0.0428
1088.00,0.0432
1087.00,0.0436
1086.00,0.0441
1085.00,0.0446
1084.00,0.0450
1083.00,0.0455
1082.00,0.0460
1081.00,0.0465
1080.00,0.0469
1079.00,0.0474
1078.00,0.0479
1077.00,0.0483
1076.00,0.0487
1075.00,0.0491
1074.00,0.0495
1073.00,0.0499
1072.00,0.0502
1071.00,0.0504
1070.00,0.0508
1069.00,0.0511
1068.00,0.0513
1067.00,0.0516
1066.00,0.0519
1065.00,0.0521
1064.00,0.0523
1063.00,0.0525
1062.00,0.0527
1061.00,0.0529
1060.00,0.0531
1059.00,0.0533
1058.00,0.0536
1057.00,0.0539
1056.00,0.0542
1055.00,0.0546
1054.00,0.0550
1053.00,0.0554
1052.00,0.0557
1051.00,0.0559
1050.00,0.0562
1049.00,0.0564
1048.00,0.0564
1047.00,0.0563
1046.00,0.0561
1045.00,0.0558
1044.00,0.0553
1043.00,0.0547
1042.00,0.0540
1041.00,0.0533
1040.00,0.0525
1039.00,0.0517
1038.00,0.0509
1037.00,0.0501
1036.00,0.0493
1035.00,0.0486
1034.00,0.0479
1033.00,0.0472
1032.00,0.0466
1031.00,0.0459
1030.00,0.0453
1029.00,0.0447
1028.00,0.0440
1027.00,0.0433
1026.00,0.0427
1025.00,0.0421
1024.00,0.0415
1023.00,0.0409
1022.00,0.0403
1021.00,0.0398
1020.00,0.0393
1019.00,0.0389
1018.00,0.0386
1017.00,0.0382
1016.00,0.0378
1015.00,0.0375
1014.00,0.0373
1013.00,0.0371
1012.00,0.0368
1011.00,0.0366
1010.00,0.0365
1009.00,0.0364
1008.00,0.0362
1007.00,0.0360
1006.00,0.0359
1005.00,0.0358
1004.00,0.0356
1003.00,0.0355
1002.00,0.0354
1001.00,0.0353
1000.00,0.0351
999.00,0.0349
998.00,0.0348
997.00,0.0346
996.00,0.0344
995.00,0.0342
994.00,0.0340
993.00,0.0338
992.00,0.0335
991.00,0.0333
990.00,0.0330
989.00,0.0328
988.00,0.0325
987.00,0.0322
986.00,0.0321
985.00,0.0319
984.00,0.0316
983.00,0.0315
982.00,0.0314
981.00,0.0312
980.00,0.0311
979.00,0.0311
978.00,0.0311
977.00,0.0310
976.00,0.0310
975.00,0.0310
974.00,0.0310
973.00,0.0311
972.00,0.0311
971.00,0.0311
970.00,0.0312
969.00,0.0313
968.00,0.0314
967.00,0.0315
966.00,0.0317
965.00,0.0318
964.00,0.0319
963.00,0.0319
962.00,0.0319
961.00,0.0319
960.00,0.0318
959.00,0.0317
958.00,0.0317
957.00,0.0316
956.00,0.0314
955.00,0.0312
954.00,0.0311
953.00,0.0310
952.00,0.0309
951.00,0.0308
950.00,0.0308
949.00,0.0308
948.00,0.0307
947.00,0.0306
946.00,0.0306
945.00,0.0306
944.00,0.0306
943.00,0.0306
942.00,0.0307
941.00,0.0307
940.00,0.0308
939.00,0.0308
938.00,0.0310
937.00,0.0311
936.00,0.0312
935.00,0.0312
934.00,0.0313
933.00,0.0314
932.00,0.0313
931.00,0.0313
930.00,0.0312
929.00,0.0311
928.00,0.0309
927.00,0.0308
926.00,0.0307
925.00,0.0305
924.00,0.0303
923.00,0.0302
922.00,0.0300
921.00,0.0299
920.00,0.0297
919.00,0.0296
918.00,0.0294
917.00,0.0293
916.00,0.0292
915.00,0.0291
914.00,0.0291
913.00,0.0290
912.00,0.0290
911.00,0.0290
910.00,0.0291
909.00,0.0292
908.00,0.0292
907.00,0.0293
906.00,0.0294
905.00,0.0295
904.00,0.0296
903.00,0.0297
902.00,0.0298
901.00,0.0299
900.00,0.0300
899.00,0.0300
898.00,0.0301
897.00,0.0301
896.00,0.0300
895.00,0.0300
894.00,0.0300
893.00,0.0300
892.00,0.0298
891.00,0.0297
890.00,0.0297
889.00,0.0296
888.00,0.0294
887.00,0.0293
886.00,0.0292
885.00,0.0291
884.00,0.0290
883.00,0.0289
882.00,0.0289
881.00,0.0289
880.00,0.0288
879.00,0.0288
878.00,0.0288
877.00,0.0288
876.00,0.0287
875.00,0.0286
874.00,0.0286
873.00,0.0285
872.00,0.0284
871.00,0.0284
870.00,0.0284
869.00,0.0283
868.00,0.0282
867.00,0.0281
866.00,0.0281
865.00,0.0280
864.00,0.0279
863.00,0.0278
862.00,0.0278
861.00,0.0278
860.00,0.0277
859.00,0.0277
858.00,0.0278
857.00,0.0279
856.00,0.0279
855.00,0.0280
854.00,0.0281
853.00,0.0282
852.00,0.0282
851.00,0.0282
850.00,0.0283
849.00,0.0283
848.00,0.0283
847.00,0.0283
846.00,0.0284
845.00,0.0284
844.00,0.0285
843.00,0.0286
842.00,0.0287
841.00,0.0288
840.00,0.0289
839.00,0.0290
838.00,0.0292
837.00,0.0294
836.00,0.0295
835.00,0.0297
834.00,0.0299
833.00,0.0301
832.00,0.0302
831.00,0.0303
830.00,0.0306
829.00,0.0307
828.00,0.0308
827.00,0.0309
826.00,0.0311
825.00,0.0312
824.00,0.0312
823.00,0.0313
822.00,0.0314
821.00,0.0316
820.00,0.0317
819.00,0.0318
818.00,0.0320
817.00,0.0321
816.00,0.0322
815.00,0.0323
814.00,0.0326
813.00,0.0328
812.00,0.0329
811.00,0.0331
810.00,0.0333
809.00,0.0335
808.00,0.0336
807.00,0.0337
806.00,0.0338
805.00,0.0339
804.00,0.0340
803.00,0.0341
802.00,0.0342
801.00,0.0343
800.00,0.0344
799.00,0.0344
798.00,0.0346
797.00,0.0347
796.00,0.0348
795.00,0.0350
794.00,0.0353
793.00,0.0355
792.00,0.0357
791.00,0.0359
790.00,0.0363
789.00,0.0366
788.00,0.0368
787.00,0.0370
786.00,0.0373
785.00,0.0376
784.00,0.0378
783.00,0.0381
782.00,0.0384
781.00,0.0388
780.00,0.0390
779.00,0.0393
778.00,0.0396
777.00,0.0400
776.00,0.0403
775.00,0.0405
774.00,0.0409
773.00,0.0412
772.00,0.0414
771.00,0.0417
770.00,0.0420
769.00,0.0423
768.00,0.0425
767.00,0.0428
766.00,0.0431
765.00,0.0433
764.00,0.0434
763.00,0.0436
762.00,0.0439
761.00,0.0441
760.00,0.0442
759.00,0.0444
758.00,0.0447
757.00,0.0449
756.00,0.0451
755.00,0.0454
754.00,0.0457
753.00,0.0460
752.00,0.0463
751.00,0.0466
750.00,0.0470
749.00,0.0473
748.00,0.0475
747.00,0.0477
746.00,0.0479
745.00,0.0482
744.00,0.0483
743.00,0.0484
742.00,0.0486
741.00,0.0487
740.00,0.0488
739.00,0.0489
738.00,0.0491
737.00,0.0493
736.00,0.0494
735.00,0.0495
734.00,0.0497
733.00,0.0499
732.00,0.0501
731.00,0.0503
730.00,0.0506
729.00,0.0510
728.00,0.0513
727.00,0.0518
726.00,0.0523
725.00,0.0528
724.00,0.0532
723.00,0.0537
722.00,0.0543
721.00,0.0549
720.00,0.0554
719.00,0.0559
718.00,0.0566
717.00,0.0573
716.00,0.0579
715.00,0.0585
714.00,0.0591
713.00,0.0598
712.00,0.0603
711.00,0.0609
710.00,0.0616
709.00,0.0623
708.00,0.0630
707.00,0.0637
706.00,0.0645
705.00,0.0652
704.00,0.0659
703.00,0.0665
702.00,0.0672
701.00,0.0677
700.00,0.0681
699.00,0.0684
698.00,0.0687
697.00,0.0688
696.00,0.0688
695.00,0.0687
694.00,0.0687
693.00,0.0687
692.00,0.0687
691.00,0.0687
690.00,0.0688
689.00,0.0690
688.00,0.0691
687.00,0.0692
686.00,0.0695
685.00,0.0697
684.00,0.0698
683.00,0.0699
682.00,0.0702
681.00,0.0705
680.00,0.0706
679.00,0.0708
678.00,0.0711
677.00,0.0713
676.00,0.0714
675.00,0.0716
674.00,0.0719
673.00,0.0722
672.00,0.0723
671.00,0.0724
670.00,0.0726
669.00,0.0729
668.00,0.0733
667.00,0.0736
666.00,0.0738
665.00,0.0738
664.00,0.0738
663.00,0.0738
662.00,0.0740
661.00,0.0742
660.00,0.0743
659.00,0.0745
658.00,0.0747
657.00,0.0749
656.00,0.0750
655.00,0.0751
654.00,0.0754
653.00,0.0756
652.00,0.0757
651.00,0.0759
650.00,0.0761
649.00,0.0763
648.00,0.0765
647.00,0.0767
646.00,0.0770
645.00,0.0774
644.00,0.0776
643.00,0.0778
642.00,0.0782
641.00,0.0785
640.00,0.0787
639.00,0.0789
638.00,0.0793
637.00,0.0797
636.00,0.0799
635.00,0.0801
634.00,0.0804
633.00,0.0808
632.00,0.0809
631.00,0.0812
630.00,0.0815
629.00,0.0818
628.00,0.0820
627.00,0.0821
626.00,0.0824
625.00,0.0827
624.00,0.0828
623.00,0.0829
622.00,0.0831
621.00,0.0833
620.00,0.0833
619.00,0.0833
618.00,0.0834
617.00,0.0834
616.00,0.0834
615.00,0.0833
614.00,0.0834
613.00,0.0834
612.00,0.0834
611.00,0.0833
610.00,0.0835
609.00,0.0835
608.00,0.0835
607.00,0.0835
606.00,0.0837
605.00,0.0837
604.00,0.0837
603.00,0.0836
602.00,0.0838
601.00,0.0839
600.00,0.0839
599.00,0.0839
598.00,0.0841
597.00,0.0843
596.00,0.0843
595.00,0.0844
594.00,0.0847
593.00,0.0849
592.00,0.0849
591.00,0.0850
590.00,0.0852
589.00,0.0854
588.00,0.0854
587.00,0.0854
586.00,0.0857
585.00,0.0859
584.00,0.0859
583.00,0.0860
582.00,0.0862
581.00,0.0863
580.00,0.0862
579.00,0.0862
578.00,0.0863
577.00,0.0865
576.00,0.0864
575.00,0.0865
574.00,0.0867
573.00,0.0869
572.00,0.0869
571.00,0.0869
570.00,0.0872
569.00,0.0874
568.00,0.0873
567.00,0.0873
566.00,0.0875
565.00,0.0876
564.00,0.0876
563.00,0.0876
562.00,0.0879
561.00,0.0882
560.00,0.0881
559.00,0.0881
558.00,0.0883
557.00,0.0884
556.00,0.0883
555.00,0.0883
554.00,0.0886
553.00,0.0888
552.00,0.0889
551.00,0.0889
550.00,0.0892
549.00,0.0893
548.00,0.0892
547.00,0.0892
546.00,0.0894
545.00,0.0896
544.00,0.0896
543.00,0.0896
542.00,0.0898
541.00,0.0900
540.00,0.0899
539.00,0.0899
538.00,0.0902
537.00,0.0906
536.00,0.0906
535.00,0.0908
534.00,0.0911
533.00,0.0914
532.00,0.0914
531.00,0.0915
530.00,0.0919
529.00,0.0922
528.00,0.0921
527.00,0.0922
526.00,0.0925
525.00,0.0928
524.00,0.0927
523.00,0.0926
522.00,0.0929
521.00,0.0931
520.00,0.0929
519.00,0.0929
518.00,0.0931
517.00,0.0932
516.00,0.0929
515.00,0.0925
514.00,0.0924
513.00,0.0922
512.00,0.0918
511.00,0.0915
510.00,0.0916
509.00,0.0915
508.00,0.0911
507.00,0.0907
506.00,0.0907
505.00,0.0907
504.00,0.0904
503.00,0.0902
502.00,0.0903
501.00,0.0903
500.00,0.0900
499.00,0.0898
498.00,0.0899
497.00,0.0899
496.00,0.0895
495.00,0.0892
494.00,0.0893
493.00,0.0893
492.00,0.0890
491.00,0.0887
490.00,0.0889
489.00,0.0890
488.00,0.0887
487.00,0.0885
486.00,0.0887
485.00,0.0889
484.00,0.0886
483.00,0.0883
482.00,0.0885
481.00,0.0886
480.00,0.0884
479.00,0.0882
478.00,0.0885
477.00,0.0886
476.00,0.0881
475.00,0.0878
474.00,0.0879
473.00,0.0881
472.00,0.0878
471.00,0.0877
470.00,0.0881
469.00,0.0884
468.00,0.0881
467.00,0.0879
466.00,0.0883
465.00,0.0886
464.00,0.0884
463.00,0.0882
462.00,0.0884
461.00,0.0885
460.00,0.0881
459.00,0.0878
458.00,0.0882
457.00,0.0885
456.00,0.0880
455.00,0.0876
454.00,0.0877
453.00,0.0880
452.00,0.0877
451.00,0.0875
450.00,0.0878
449.00,0.0879
448.00,0.0874
447.00,0.0869
446.00,0.0871
445.00,0.0871
444.00,0.0864
443.00,0.0858
442.00,0.0861
441.00,0.0863
440.00,0.0858
439.00,0.0854
438.00,0.0857
437.00,0.0859
436.00,0.0853
435.00,0.0849
434.00,0.0852
433.00,0.0854
432.00,0.0850
431.00,0.0845
430.00,0.0848
429.00,0.0850
428.00,0.0845
427.00,0.0842
426.00,0.0846
425.00,0.0848
424.00,0.0841
423.00,0.0837
422.00,0.0842
421.00,0.0846
420.00,0.0837
419.00,0.0830
418.00,0.0838
417.00,0.0841
416.00,0.0832
415.00,0.0825
414.00,0.0832
413.00,0.0836
412.00,0.0827
411.00,0.0821
410.00,0.0828
409.00,0.0831
408.00,0.0818
407.00,0.0808
406.00,0.0815
405.00,0.0819
404.00,0.0805
403.00,0.0791
402.00,0.0796
401.00,0.0798
400.00,0.0774
