Created as New Dataset,Sample 312 By YargerLab Date Sunday, August 18 2024
cm-1,A
4000.00,0.0080
3999.00,0.0080
3998.00,0.0080
3997.00,0.0080
3996.00,0.0079
3995.00,0.0079
3994.00,0.0079
3993.00,0.0079
3992.00,0.0080
3991.00,0.0080
3990.00,0.0080
3989.00,0.0080
3988.00,0.0080
3987.00,0.0080
3986.00,0.0080
3985.00,0.0080
3984.00,0.0080
3983.00,0.0080
3982.00,0.0080
3981.00,0.0080
3980.00,0.0080
3979.00,0.0080
3978.00,0.0080
3977.00,0.0080
3976.00,0.0080
3975.00,0.0080
3974.00,0.0080
3973.00,0.0080
3972.00,0.0080
3971.00,0.0080
3970.00,0.0080
3969.00,0.0080
3968.00,0.0080
3967.00,0.0080
3966.00,0.0080
3965.00,0.0079
3964.00,0.0079
3963.00,0.0079
3962.00,0.0079
3961.00,0.0079
3960.00,0.0079
3959.00,0.0079
3958.00,0.0079
3957.00,0.0079
3956.00,0.0079
3955.00,0.0079
3954.00,0.0079
3953.00,0.0079
3952.00,0.0079
3951.00,0.0079
3950.00,0.0079
3949.00,0.0080
3948.00,0.0080
3947.00,0.0080
3946.00,0.0080
3945.00,0.0080
3944.00,0.0079
3943.00,0.0079
3942.00,0.0080
3941.00,0.0080
3940.00,0.0080
3939.00,0.0079
3938.00,0.0079
3937.00,0.0079
3936.00,0.0079
3935.00,0.0079
3934.00,0.0080
3933.00,0.0080
3932.00,0.0079
3931.00,0.0079
3930.00,0.0079
3929.00,0.0079
3928.00,0.0079
3927.00,0.0079
3926.00,0.0079
3925.00,0.0079
3924.00,0.0079
3923.00,0.0079
3922.00,0.0079
3921.00,0.0079
3920.00,0.0079
3919.00,0.0079
3918.00,0.0079
3917.00,0.0079
3916.00,0.0079
3915.00,0.0079
3914.00,0.0079
3913.00,0.0079
3912.00,0.0079
3911.00,0.0079
3910.00,0.0079
3909.00,0.0079
3908.00,0.0079
3907.00,0.0079
3906.00,0.0079
3905.00,0.0079
3904.00,0.0079
3903.00,0.0079
3902.00,0.0079
3901.00,0.0079
3900.00,0.0079
3899.00,0.0079
3898.00,0.0079
3897.00,0.0079
3896.00,0.0079
3895.00,0.0079
3894.00,0.0079
3893.00,0.0079
3892.00,0.0079
3891.00,0.0079
3890.00,0.0079
3889.00,0.0079
3888.00,0.0079
3887.00,0.0079
3886.00,0.0078
3885.00,0.0078
3884.00,0.0078
3883.00,0.0078
3882.00,0.0078
3881.00,0.0078
3880.00,0.0078
3879.00,0.0078
3878.00,0.0078
3877.00,0.0078
3876.00,0.0078
3875.00,0.0078
3874.00,0.0078
3873.00,0.0078
3872.00,0.0078
3871.00,0.0078
3870.00,0.0078
3869.00,0.0078
3868.00,0.0078
3867.00,0.0078
3866.00,0.0078
3865.00,0.0078
3864.00,0.0078
3863.00,0.0078
3862.00,0.0078
3861.00,0.0078
3860.00,0.0078
3859.00,0.0077
3858.00,0.0077
3857.00,0.0077
3856.00,0.0077
3855.00,0.0077
3854.00,0.0078
3853.00,0.0078
3852.00,0.0077
3851.00,0.0077
3850.00,0.0077
3849.00,0.0077
3848.00,0.0077
3847.00,0.0077
3846.00,0.0077
3845.00,0.0077
3844.00,0.0077
3843.00,0.0077
3842.00,0.0077
3841.00,0.0077
3840.00,0.0077
3839.00,0.0077
3838.00,0.0077
3837.00,0.0077
3836.00,0.0077
3835.00,0.0077
3834.00,0.0077
3833.00,0.0077
3832.00,0.0077
3831.00,0.0077
3830.00,0.0077
3829.00,0.0077
3828.00,0.0077
3827.00,0.0076
3826.00,0.0076
3825.00,0.0077
3824.00,0.0077
3823.00,0.0077
3822.00,0.0077
3821.00,0.0077
3820.00,0.0077
3819.00,0.0077
3818.00,0.0076
3817.00,0.0076
3816.00,0.0076
3815.00,0.0076
3814.00,0.0076
3813.00,0.0076
3812.00,0.0076
3811.00,0.0076
3810.00,0.0077
3809.00,0.0077
3808.00,0.0077
3807.00,0.0077
3806.00,0.0077
3805.00,0.0077
3804.00,0.0076
3803.00,0.0076
3802.00,0.0076
3801.00,0.0076
3800.00,0.0076
3799.00,0.0076
3798.00,0.0076
3797.00,0.0076
3796.00,0.0076
3795.00,0.0076
3794.00,0.0076
3793.00,0.0076
3792.00,0.0076
3791.00,0.0076
3790.00,0.0076
3789.00,0.0076
3788.00,0.0076
3787.00,0.0076
3786.00,0.0076
3785.00,0.0076
3784.00,0.0076
3783.00,0.0076
3782.00,0.0076
3781.00,0.0075
3780.00,0.0075
3779.00,0.0075
3778.00,0.0075
3777.00,0.0075
3776.00,0.0075
3775.00,0.0075
3774.00,0.0075
3773.00,0.0075
3772.00,0.0075
3771.00,0.0075
3770.00,0.0075
3769.00,0.0075
3768.00,0.0075
3767.00,0.0075
3766.00,0.0075
3765.00,0.0075
3764.00,0.0075
3763.00,0.0075
3762.00,0.0075
3761.00,0.0075
3760.00,0.0075
3759.00,0.0075
3758.00,0.0075
3757.00,0.0075
3756.00,0.0075
3755.00,0.0075
3754.00,0.0075
3753.00,0.0075
3752.00,0.0075
3751.00,0.0075
3750.00,0.0076
3749.00,0.0076
3748.00,0.0075
3747.00,0.0075
3746.00,0.0075
3745.00,0.0075
3744.00,0.0075
3743.00,0.0075
3742.00,0.0074
3741.00,0.0074
3740.00,0.0074
3739.00,0.0074
3738.00,0.0074
3737.00,0.0074
3736.00,0.0074
3735.00,0.0074
3734.00,0.0074
3733.00,0.0074
3732.00,0.0074
3731.00,0.0074
3730.00,0.0074
3729.00,0.0074
3728.00,0.0074
3727.00,0.0074
3726.00,0.0074
3725.00,0.0074
3724.00,0.0073
3723.00,0.0073
3722.00,0.0073
3721.00,0.0073
3720.00,0.0073
3719.00,0.0073
3718.00,0.0073
3717.00,0.0072
3716.00,0.0072
3715.00,0.0072
3714.00,0.0072
3713.00,0.0072
3712.00,0.0073
3711.00,0.0073
3710.00,0.0073
3709.00,0.0073
3708.00,0.0072
3707.00,0.0072
3706.00,0.0072
3705.00,0.0072
3704.00,0.0072
3703.00,0.0071
3702.00,0.0071
3701.00,0.0071
3700.00,0.0071
3699.00,0.0071
3698.00,0.0071
3697.00,0.0071
3696.00,0.0071
3695.00,0.0071
3694.00,0.0071
3693.00,0.0071
3692.00,0.0071
3691.00,0.0071
3690.00,0.0071
3689.00,0.0071
3688.00,0.0071
3687.00,0.0071
3686.00,0.0071
3685.00,0.0071
3684.00,0.0072
3683.00,0.0072
3682.00,0.0072
3681.00,0.0072
3680.00,0.0072
3679.00,0.0072
3678.00,0.0072
3677.00,0.0072
3676.00,0.0072
3675.00,0.0072
3674.00,0.0072
3673.00,0.0072
3672.00,0.0072
3671.00,0.0072
3670.00,0.0072
3669.00,0.0072
3668.00,0.0072
3667.00,0.0072
3666.00,0.0072
3665.00,0.0072
3664.00,0.0073
3663.00,0.0073
3662.00,0.0073
3661.00,0.0073
3660.00,0.0073
3659.00,0.0074
3658.00,0.0074
3657.00,0.0074
3656.00,0.0074
3655.00,0.0074
3654.00,0.0074
3653.00,0.0074
3652.00,0.0074
3651.00,0.0074
3650.00,0.0075
3649.00,0.0075
3648.00,0.0075
3647.00,0.0075
3646.00,0.0075
3645.00,0.0075
3644.00,0.0075
3643.00,0.0075
3642.00,0.0076
3641.00,0.0076
3640.00,0.0076
3639.00,0.0076
3638.00,0.0076
3637.00,0.0077
3636.00,0.0077
3635.00,0.0077
3634.00,0.0077
3633.00,0.0077
3632.00,0.0078
3631.00,0.0078
3630.00,0.0078
3629.00,0.0078
3628.00,0.0078
3627.00,0.0078
3626.00,0.0079
3625.00,0.0079
3624.00,0.0079
3623.00,0.0079
3622.00,0.0079
3621.00,0.0079
3620.00,0.0079
3619.00,0.0080
3618.00,0.0080
3617.00,0.0081
3616.00,0.0081
3615.00,0.0082
3614.00,0.0082
3613.00,0.0083
3612.00,0.0083
3611.00,0.0083
3610.00,0.0083
3609.00,0.0083
3608.00,0.0083
3607.00,0.0084
3606.00,0.0084
3605.00,0.0084
3604.00,0.0084
3603.00,0.0085
3602.00,0.0085
3601.00,0.0085
3600.00,0.0085
3599.00,0.0085
3598.00,0.0085
3597.00,0.0086
3596.00,0.0086
3595.00,0.0086
3594.00,0.0087
3593.00,0.0087
3592.00,0.0088
3591.00,0.0088
3590.00,0.0088
3589.00,0.0088
3588.00,0.0089
3587.00,0.0089
3586.00,0.0089
3585.00,0.0090
3584.00,0.0090
3583.00,0.0090
3582.00,0.0091
3581.00,0.0091
3580.00,0.0091
3579.00,0.0092
3578.00,0.0092
3577.00,0.0092
3576.00,0.0092
3575.00,0.0093
3574.00,0.0093
3573.00,0.0094
3572.00,0.0094
3571.00,0.0095
3570.00,0.0095
3569.00,0.0095
3568.00,0.0096
3567.00,0.0096
3566.00,0.0096
3565.00,0.0097
3564.00,0.0097
3563.00,0.0097
3562.00,0.0098
3561.00,0.0098
3560.00,0.0098
3559.00,0.0099
3558.00,0.0099
3557.00,0.0100
3556.00,0.0100
3555.00,0.0101
3554.00,0.0101
3553.00,0.0101
3552.00,0.0102
3551.00,0.0102
3550.00,0.0103
3549.00,0.0104
3548.00,0.0104
3547.00,0.0105
3546.00,0.0105
3545.00,0.0106
3544.00,0.0106
3543.00,0.0106
3542.00,0.0106
3541.00,0.0106
3540.00,0.0106
3539.00,0.0107
3538.00,0.0107
3537.00,0.0108
3536.00,0.0108
3535.00,0.0109
3534.00,0.0109
3533.00,0.0109
3532.00,0.0110
3531.00,0.0110
3530.00,0.0111
3529.00,0.0111
3528.00,0.0112
3527.00,0.0112
3526.00,0.0113
3525.00,0.0113
3524.00,0.0113
3523.00,0.0114
3522.00,0.0114
3521.00,0.0114
3520.00,0.0115
3519.00,0.0115
3518.00,0.0115
3517.00,0.0116
3516.00,0.0116
3515.00,0.0117
3514.00,0.0117
3513.00,0.0117
3512.00,0.0118
3511.00,0.0118
3510.00,0.0118
3509.00,0.0119
3508.00,0.0119
3507.00,0.0120
3506.00,0.0120
3505.00,0.0121
3504.00,0.0121
3503.00,0.0122
3502.00,0.0122
3501.00,0.0123
3500.00,0.0123
3499.00,0.0123
3498.00,0.0124
3497.00,0.0124
3496.00,0.0125
3495.00,0.0125
3494.00,0.0125
3493.00,0.0126
3492.00,0.0126
3491.00,0.0126
3490.00,0.0127
3489.00,0.0127
3488.00,0.0128
3487.00,0.0128
3486.00,0.0129
3485.00,0.0129
3484.00,0.0129
3483.00,0.0130
3482.00,0.0130
3481.00,0.0131
3480.00,0.0131
3479.00,0.0132
3478.00,0.0132
3477.00,0.0132
3476.00,0.0133
3475.00,0.0133
3474.00,0.0134
3473.00,0.0134
3472.00,0.0135
3471.00,0.0135
3470.00,0.0136
3469.00,0.0136
3468.00,0.0137
3467.00,0.0137
3466.00,0.0137
3465.00,0.0137
3464.00,0.0138
3463.00,0.0138
3462.00,0.0139
3461.00,0.0140
3460.00,0.0140
3459.00,0.0140
3458.00,0.0141
3457.00,0.0141
3456.00,0.0141
3455.00,0.0142
3454.00,0.0142
3453.00,0.0143
3452.00,0.0143
3451.00,0.0144
3450.00,0.0144
3449.00,0.0144
3448.00,0.0145
3447.00,0.0145
3446.00,0.0146
3445.00,0.0146
3444.00,0.0147
3443.00,0.0147
3442.00,0.0148
3441.00,0.0148
3440.00,0.0149
3439.00,0.0149
3438.00,0.0150
3437.00,0.0150
3436.00,0.0150
3435.00,0.0151
3434.00,0.0151
3433.00,0.0152
3432.00,0.0152
3431.00,0.0153
3430.00,0.0153
3429.00,0.0153
3428.00,0.0154
3427.00,0.0154
3426.00,0.0155
3425.00,0.0155
3424.00,0.0156
3423.00,0.0156
3422.00,0.0156
3421.00,0.0157
3420.00,0.0157
3419.00,0.0157
3418.00,0.0158
3417.00,0.0158
3416.00,0.0159
3415.00,0.0159
3414.00,0.0160
3413.00,0.0160
3412.00,0.0161
3411.00,0.0161
3410.00,0.0161
3409.00,0.0162
3408.00,0.0162
3407.00,0.0162
3406.00,0.0163
3405.00,0.0163
3404.00,0.0164
3403.00,0.0164
3402.00,0.0165
3401.00,0.0165
3400.00,0.0165
3399.00,0.0166
3398.00,0.0166
3397.00,0.0167
3396.00,0.0167
3395.00,0.0167
3394.00,0.0168
3393.00,0.0168
3392.00,0.0168
3391.00,0.0169
3390.00,0.0169
3389.00,0.0169
3388.00,0.0170
3387.00,0.0170
3386.00,0.0170
3385.00,0.0171
3384.00,0.0171
3383.00,0.0172
3382.00,0.0172
3381.00,0.0172
3380.00,0.0173
3379.00,0.0173
3378.00,0.0174
3377.00,0.0174
3376.00,0.0175
3375.00,0.0175
3374.00,0.0175
3373.00,0.0176
3372.00,0.0176
3371.00,0.0177
3370.00,0.0177
3369.00,0.0178
3368.00,0.0179
3367.00,0.0179
3366.00,0.0180
3365.00,0.0180
3364.00,0.0180
3363.00,0.0181
3362.00,0.0181
3361.00,0.0182
3360.00,0.0183
3359.00,0.0183
3358.00,0.0184
3357.00,0.0184
3356.00,0.0185
3355.00,0.0186
3354.00,0.0186
3353.00,0.0187
3352.00,0.0188
3351.00,0.0188
3350.00,0.0189
3349.00,0.0190
3348.00,0.0191
3347.00,0.0191
3346.00,0.0192
3345.00,0.0192
3344.00,0.0193
3343.00,0.0194
3342.00,0.0195
3341.00,0.0195
3340.00,0.0196
3339.00,0.0197
3338.00,0.0198
3337.00,0.0199
3336.00,0.0199
3335.00,0.0200
3334.00,0.0201
3333.00,0.0202
3332.00,0.0203
3331.00,0.0204
3330.00,0.0205
3329.00,0.0206
3328.00,0.0207
3327.00,0.0208
3326.00,0.0209
3325.00,0.0210
3324.00,0.0211
3323.00,0.0212
3322.00,0.0214
3321.00,0.0215
3320.00,0.0216
3319.00,0.0217
3318.00,0.0218
3317.00,0.0219
3316.00,0.0221
3315.00,0.0222
3314.00,0.0223
3313.00,0.0225
3312.00,0.0226
3311.00,0.0227
3310.00,0.0228
3309.00,0.0230
3308.00,0.0231
3307.00,0.0233
3306.00,0.0234
3305.00,0.0236
3304.00,0.0237
3303.00,0.0239
3302.00,0.0241
3301.00,0.0242
3300.00,0.0244
3299.00,0.0245
3298.00,0.0247
3297.00,0.0248
3296.00,0.0249
3295.00,0.0251
3294.00,0.0253
3293.00,0.0254
3292.00,0.0256
3291.00,0.0257
3290.00,0.0259
3289.00,0.0260
3288.00,0.0262
3287.00,0.0263
3286.00,0.0265
3285.00,0.0266
3284.00,0.0267
3283.00,0.0268
3282.00,0.0269
3281.00,0.0270
3280.00,0.0271
3279.00,0.0272
3278.00,0.0272
3277.00,0.0272
3276.00,0.0273
3275.00,0.0273
3274.00,0.0273
3273.00,0.0273
3272.00,0.0273
3271.00,0.0273
3270.00,0.0273
3269.00,0.0273
3268.00,0.0273
3267.00,0.0272
3266.00,0.0272
3265.00,0.0271
3264.00,0.0270
3263.00,0.0269
3262.00,0.0268
3261.00,0.0267
3260.00,0.0266
3259.00,0.0264
3258.00,0.0263
3257.00,0.0262
3256.00,0.0261
3255.00,0.0259
3254.00,0.0258
3253.00,0.0257
3252.00,0.0256
3251.00,0.0255
3250.00,0.0253
3249.00,0.0252
3248.00,0.0250
3247.00,0.0249
3246.00,0.0248
3245.00,0.0246
3244.00,0.0245
3243.00,0.0244
3242.00,0.0243
3241.00,0.0242
3240.00,0.0241
3239.00,0.0240
3238.00,0.0239
3237.00,0.0237
3236.00,0.0236
3235.00,0.0235
3234.00,0.0234
3233.00,0.0233
3232.00,0.0232
3231.00,0.0231
3230.00,0.0231
3229.00,0.0230
3228.00,0.0230
3227.00,0.0229
3226.00,0.0228
3225.00,0.0227
3224.00,0.0226
3223.00,0.0225
3222.00,0.0225
3221.00,0.0224
3220.00,0.0223
3219.00,0.0223
3218.00,0.0222
3217.00,0.0221
3216.00,0.0221
3215.00,0.0220
3214.00,0.0219
3213.00,0.0218
3212.00,0.0218
3211.00,0.0217
3210.00,0.0217
3209.00,0.0216
3208.00,0.0216
3207.00,0.0215
3206.00,0.0214
3205.00,0.0214
3204.00,0.0213
3203.00,0.0212
3202.00,0.0212
3201.00,0.0211
3200.00,0.0210
3199.00,0.0210
3198.00,0.0209
3197.00,0.0208
3196.00,0.0208
3195.00,0.0207
3194.00,0.0207
3193.00,0.0206
3192.00,0.0205
3191.00,0.0205
3190.00,0.0204
3189.00,0.0203
3188.00,0.0203
3187.00,0.0202
3186.00,0.0202
3185.00,0.0201
3184.00,0.0200
3183.00,0.0200
3182.00,0.0199
3181.00,0.0198
3180.00,0.0198
3179.00,0.0197
3178.00,0.0196
3177.00,0.0195
3176.00,0.0194
3175.00,0.0194
3174.00,0.0193
3173.00,0.0192
3172.00,0.0192
3171.00,0.0191
3170.00,0.0191
3169.00,0.0190
3168.00,0.0189
3167.00,0.0189
3166.00,0.0188
3165.00,0.0187
3164.00,0.0187
3163.00,0.0186
3162.00,0.0185
3161.00,0.0184
3160.00,0.0184
3159.00,0.0183
3158.00,0.0182
3157.00,0.0182
3156.00,0.0181
3155.00,0.0180
3154.00,0.0180
3153.00,0.0179
3152.00,0.0179
3151.00,0.0178
3150.00,0.0177
3149.00,0.0177
3148.00,0.0176
3147.00,0.0176
3146.00,0.0175
3145.00,0.0175
3144.00,0.0174
3143.00,0.0174
3142.00,0.0173
3141.00,0.0172
3140.00,0.0172
3139.00,0.0171
3138.00,0.0171
3137.00,0.0171
3136.00,0.0170
3135.00,0.0170
3134.00,0.0169
3133.00,0.0169
3132.00,0.0168
3131.00,0.0168
3130.00,0.0168
3129.00,0.0167
3128.00,0.0167
3127.00,0.0166
3126.00,0.0166
3125.00,0.0166
3124.00,0.0165
3123.00,0.0165
3122.00,0.0164
3121.00,0.0164
3120.00,0.0164
3119.00,0.0163
3118.00,0.0163
3117.00,0.0163
3116.00,0.0163
3115.00,0.0163
3114.00,0.0163
3113.00,0.0163
3112.00,0.0163
3111.00,0.0162
3110.00,0.0162
3109.00,0.0162
3108.00,0.0162
3107.00,0.0162
3106.00,0.0162
3105.00,0.0162
3104.00,0.0162
3103.00,0.0162
3102.00,0.0162
3101.00,0.0161
3100.00,0.0161
3099.00,0.0162
3098.00,0.0162
3097.00,0.0162
3096.00,0.0162
3095.00,0.0162
3094.00,0.0162
3093.00,0.0162
3092.00,0.0162
3091.00,0.0162
3090.00,0.0162
3089.00,0.0162
3088.00,0.0162
3087.00,0.0162
3086.00,0.0162
3085.00,0.0162
3084.00,0.0162
3083.00,0.0162
3082.00,0.0162
3081.00,0.0162
3080.00,0.0162
3079.00,0.0162
3078.00,0.0162
3077.00,0.0162
3076.00,0.0163
3075.00,0.0163
3074.00,0.0163
3073.00,0.0163
3072.00,0.0163
3071.00,0.0162
3070.00,0.0162
3069.00,0.0162
3068.00,0.0162
3067.00,0.0162
3066.00,0.0162
3065.00,0.0162
3064.00,0.0162
3063.00,0.0162
3062.00,0.0162
3061.00,0.0161
3060.00,0.0161
3059.00,0.0161
3058.00,0.0160
3057.00,0.0160
3056.00,0.0159
3055.00,0.0159
3054.00,0.0159
3053.00,0.0158
3052.00,0.0158
3051.00,0.0158
3050.00,0.0157
3049.00,0.0157
3048.00,0.0156
3047.00,0.0156
3046.00,0.0155
3045.00,0.0155
3044.00,0.0154
3043.00,0.0154
3042.00,0.0153
3041.00,0.0153
3040.00,0.0153
3039.00,0.0153
3038.00,0.0152
3037.00,0.0152
3036.00,0.0151
3035.00,0.0151
3034.00,0.0150
3033.00,0.0150
3032.00,0.0150
3031.00,0.0149
3030.00,0.0149
3029.00,0.0149
3028.00,0.0148
3027.00,0.0148
3026.00,0.0147
3025.00,0.0147
3024.00,0.0146
3023.00,0.0146
3022.00,0.0146
3021.00,0.0145
3020.00,0.0145
3019.00,0.0144
3018.00,0.0144
3017.00,0.0143
3016.00,0.0143
3015.00,0.0142
3014.00,0.0142
3013.00,0.0141
3012.00,0.0141
3011.00,0.0141
3010.00,0.0141
3009.00,0.0141
3008.00,0.0141
3007.00,0.0141
3006.00,0.0141
3005.00,0.0141
3004.00,0.0140
3003.00,0.0140
3002.00,0.0140
3001.00,0.0140
3000.00,0.0140
2999.00,0.0140
2998.00,0.0140
2997.00,0.0140
2996.00,0.0140
2995.00,0.0140
2994.00,0.0140
2993.00,0.0140
2992.00,0.0141
2991.00,0.0141
2990.00,0.0142
2989.00,0.0142
2988.00,0.0143
2987.00,0.0143
2986.00,0.0144
2985.00,0.0144
2984.00,0.0144
2983.00,0.0145
2982.00,0.0145
2981.00,0.0146
2980.00,0.0146
2979.00,0.0146
2978.00,0.0147
2977.00,0.0147
2976.00,0.0147
2975.00,0.0148
2974.00,0.0148
2973.00,0.0149
2972.00,0.0149
2971.00,0.0149
2970.00,0.0149
2969.00,0.0150
2968.00,0.0150
2967.00,0.0150
2966.00,0.0150
2965.00,0.0150
2964.00,0.0150
2963.00,0.0149
2962.00,0.0149
2961.00,0.0149
2960.00,0.0149
2959.00,0.0149
2958.00,0.0148
2957.00,0.0148
2956.00,0.0148
2955.00,0.0148
2954.00,0.0148
2953.00,0.0148
2952.00,0.0148
2951.00,0.0148
2950.00,0.0148
2949.00,0.0148
2948.00,0.0148
2947.00,0.0148
2946.00,0.0148
2945.00,0.0148
2944.00,0.0148
2943.00,0.0148
2942.00,0.0149
2941.00,0.0149
2940.00,0.0149
2939.00,0.0150
2938.00,0.0150
2937.00,0.0150
2936.00,0.0150
2935.00,0.0149
2934.00,0.0149
2933.00,0.0148
2932.00,0.0148
2931.00,0.0147
2930.00,0.0146
2929.00,0.0146
2928.00,0.0145
2927.00,0.0144
2926.00,0.0143
2925.00,0.0141
2924.00,0.0140
2923.00,0.0138
2922.00,0.0136
2921.00,0.0134
2920.00,0.0132
2919.00,0.0130
2918.00,0.0129
2917.00,0.0127
2916.00,0.0127
2915.00,0.0128
2914.00,0.0129
2913.00,0.0131
2912.00,0.0132
2911.00,0.0134
2910.00,0.0134
2909.00,0.0135
2908.00,0.0135
2907.00,0.0135
2906.00,0.0136
2905.00,0.0136
2904.00,0.0136
2903.00,0.0136
2902.00,0.0135
2901.00,0.0135
2900.00,0.0135
2899.00,0.0135
2898.00,0.0135
2897.00,0.0135
2896.00,0.0135
2895.00,0.0135
2894.00,0.0135
2893.00,0.0135
2892.00,0.0135
2891.00,0.0135
2890.00,0.0136
2889.00,0.0136
2888.00,0.0136
2887.00,0.0136
2886.00,0.0136
2885.00,0.0137
2884.00,0.0137
2883.00,0.0137
2882.00,0.0138
2881.00,0.0138
2880.00,0.0138
2879.00,0.0139
2878.00,0.0139
2877.00,0.0139
2876.00,0.0139
2875.00,0.0139
2874.00,0.0139
2873.00,0.0138
2872.00,0.0138
2871.00,0.0138
2870.00,0.0137
2869.00,0.0137
2868.00,0.0136
2867.00,0.0136
2866.00,0.0135
2865.00,0.0134
2864.00,0.0134
2863.00,0.0133
2862.00,0.0132
2861.00,0.0131
2860.00,0.0130
2859.00,0.0130
2858.00,0.0129
2857.00,0.0128
2856.00,0.0127
2855.00,0.0125
2854.00,0.0124
2853.00,0.0122
2852.00,0.0121
2851.00,0.0119
2850.00,0.0117
2849.00,0.0116
2848.00,0.0117
2847.00,0.0118
2846.00,0.0119
2845.00,0.0121
2844.00,0.0122
2843.00,0.0123
2842.00,0.0124
2841.00,0.0124
2840.00,0.0124
2839.00,0.0124
2838.00,0.0124
2837.00,0.0124
2836.00,0.0124
2835.00,0.0124
2834.00,0.0124
2833.00,0.0123
2832.00,0.0123
2831.00,0.0123
2830.00,0.0123
2829.00,0.0123
2828.00,0.0123
2827.00,0.0122
2826.00,0.0122
2825.00,0.0122
2824.00,0.0122
2823.00,0.0122
2822.00,0.0122
2821.00,0.0122
2820.00,0.0121
2819.00,0.0121
2818.00,0.0121
2817.00,0.0121
2816.00,0.0121
2815.00,0.0121
2814.00,0.0120
2813.00,0.0120
2812.00,0.0120
2811.00,0.0120
2810.00,0.0120
2809.00,0.0120
2808.00,0.0120
2807.00,0.0120
2806.00,0.0119
2805.00,0.0119
2804.00,0.0119
2803.00,0.0119
2802.00,0.0119
2801.00,0.0119
2800.00,0.0119
2799.00,0.0119
2798.00,0.0118
2797.00,0.0118
2796.00,0.0118
2795.00,0.0118
2794.00,0.0118
2793.00,0.0118
2792.00,0.0118
2791.00,0.0117
2790.00,0.0117
2789.00,0.0117
2788.00,0.0117
2787.00,0.0117
2786.00,0.0117
2785.00,0.0117
2784.00,0.0117
2783.00,0.0117
2782.00,0.0117
2781.00,0.0116
2780.00,0.0116
2779.00,0.0116
2778.00,0.0116
2777.00,0.0116
2776.00,0.0116
2775.00,0.0116
2774.00,0.0116
2773.00,0.0115
2772.00,0.0115
2771.00,0.0115
2770.00,0.0115
2769.00,0.0115
2768.00,0.0115
2767.00,0.0115
2766.00,0.0115
2765.00,0.0114
2764.00,0.0114
2763.00,0.0114
2762.00,0.0114
2761.00,0.0114
2760.00,0.0114
2759.00,0.0114
2758.00,0.0114
2757.00,0.0114
2756.00,0.0113
2755.00,0.0113
2754.00,0.0113
2753.00,0.0113
2752.00,0.0113
2751.00,0.0113
2750.00,0.0113
2749.00,0.0113
2748.00,0.0113
2747.00,0.0112
2746.00,0.0112
2745.00,0.0112
2744.00,0.0112
2743.00,0.0112
2742.00,0.0112
2741.00,0.0112
2740.00,0.0111
2739.00,0.0111
2738.00,0.0111
2737.00,0.0111
2736.00,0.0111
2735.00,0.0111
2734.00,0.0111
2733.00,0.0111
2732.00,0.0111
2731.00,0.0110
2730.00,0.0110
2729.00,0.0110
2728.00,0.0110
2727.00,0.0110
2726.00,0.0110
2725.00,0.0110
2724.00,0.0110
2723.00,0.0110
2722.00,0.0109
2721.00,0.0109
2720.00,0.0109
2719.00,0.0109
2718.00,0.0109
2717.00,0.0109
2716.00,0.0109
2715.00,0.0108
2714.00,0.0108
2713.00,0.0108
2712.00,0.0108
2711.00,0.0108
2710.00,0.0108
2709.00,0.0108
2708.00,0.0108
2707.00,0.0108
2706.00,0.0107
2705.00,0.0107
2704.00,0.0107
2703.00,0.0107
2702.00,0.0107
2701.00,0.0107
2700.00,0.0107
2699.00,0.0107
2698.00,0.0107
2697.00,0.0107
2696.00,0.0106
2695.00,0.0106
2694.00,0.0106
2693.00,0.0106
2692.00,0.0106
2691.00,0.0106
2690.00,0.0106
2689.00,0.0106
2688.00,0.0106
2687.00,0.0105
2686.00,0.0105
2685.00,0.0105
2684.00,0.0105
2683.00,0.0105
2682.00,0.0105
2681.00,0.0105
2680.00,0.0105
2679.00,0.0105
2678.00,0.0105
2677.00,0.0105
2676.00,0.0105
2675.00,0.0105
2674.00,0.0105
2673.00,0.0105
2672.00,0.0104
2671.00,0.0104
2670.00,0.0104
2669.00,0.0104
2668.00,0.0104
2667.00,0.0105
2666.00,0.0105
2665.00,0.0105
2664.00,0.0105
2663.00,0.0106
2662.00,0.0106
2661.00,0.0106
2660.00,0.0106
2659.00,0.0106
2658.00,0.0106
2657.00,0.0106
2656.00,0.0106
2655.00,0.0106
2654.00,0.0106
2653.00,0.0106
2652.00,0.0106
2651.00,0.0106
2650.00,0.0106
2649.00,0.0106
2648.00,0.0106
2647.00,0.0106
2646.00,0.0106
2645.00,0.0106
2644.00,0.0105
2643.00,0.0105
2642.00,0.0105
2641.00,0.0105
2640.00,0.0105
2639.00,0.0105
2638.00,0.0105
2637.00,0.0105
2636.00,0.0105
2635.00,0.0104
2634.00,0.0104
2633.00,0.0104
2632.00,0.0104
2631.00,0.0104
2630.00,0.0104
2629.00,0.0104
2628.00,0.0104
2627.00,0.0103
2626.00,0.0103
2625.00,0.0103
2624.00,0.0103
2623.00,0.0103
2622.00,0.0102
2621.00,0.0102
2620.00,0.0102
2619.00,0.0102
2618.00,0.0102
2617.00,0.0102
2616.00,0.0102
2615.00,0.0101
2614.00,0.0101
2613.00,0.0101
2612.00,0.0101
2611.00,0.0101
2610.00,0.0101
2609.00,0.0101
2608.00,0.0101
2607.00,0.0101
2606.00,0.0100
2605.00,0.0100
2604.00,0.0100
2603.00,0.0100
2602.00,0.0100
2601.00,0.0100
2600.00,0.0100
2599.00,0.0099
2598.00,0.0099
2597.00,0.0099
2596.00,0.0099
2595.00,0.0099
2594.00,0.0099
2593.00,0.0099
2592.00,0.0098
2591.00,0.0098
2590.00,0.0098
2589.00,0.0098
2588.00,0.0098
2587.00,0.0098
2586.00,0.0098
2585.00,0.0098
2584.00,0.0098
2583.00,0.0097
2582.00,0.0097
2581.00,0.0097
2580.00,0.0097
2579.00,0.0097
2578.00,0.0097
2577.00,0.0097
2576.00,0.0097
2575.00,0.0097
2574.00,0.0097
2573.00,0.0096
2572.00,0.0096
2571.00,0.0096
2570.00,0.0096
2569.00,0.0096
2568.00,0.0096
2567.00,0.0095
2566.00,0.0095
2565.00,0.0095
2564.00,0.0095
2563.00,0.0095
2562.00,0.0095
2561.00,0.0095
2560.00,0.0095
2559.00,0.0095
2558.00,0.0095
2557.00,0.0095
2556.00,0.0094
2555.00,0.0094
2554.00,0.0094
2553.00,0.0094
2552.00,0.0094
2551.00,0.0094
2550.00,0.0094
2549.00,0.0094
2548.00,0.0094
2547.00,0.0094
2546.00,0.0094
2545.00,0.0093
2544.00,0.0093
2543.00,0.0093
2542.00,0.0093
2541.00,0.0093
2540.00,0.0093
2539.00,0.0093
2538.00,0.0093
2537.00,0.0093
2536.00,0.0093
2535.00,0.0093
2534.00,0.0093
2533.00,0.0093
2532.00,0.0093
2531.00,0.0092
2530.00,0.0092
2529.00,0.0092
2528.00,0.0092
2527.00,0.0092
2526.00,0.0092
2525.00,0.0092
2524.00,0.0092
2523.00,0.0092
2522.00,0.0092
2521.00,0.0091
2520.00,0.0091
2519.00,0.0091
2518.00,0.0091
2517.00,0.0091
2516.00,0.0091
2515.00,0.0091
2514.00,0.0091
2513.00,0.0091
2512.00,0.0091
2511.00,0.0091
2510.00,0.0091
2509.00,0.0091
2508.00,0.0091
2507.00,0.0091
2506.00,0.0090
2505.00,0.0090
2504.00,0.0090
2503.00,0.0090
2502.00,0.0090
2501.00,0.0091
2500.00,0.0091
2499.00,0.0090
2498.00,0.0090
2497.00,0.0090
2496.00,0.0090
2495.00,0.0090
2494.00,0.0090
2493.00,0.0090
2492.00,0.0090
2491.00,0.0090
2490.00,0.0090
2489.00,0.0090
2488.00,0.0090
2487.00,0.0090
2486.00,0.0089
2485.00,0.0089
2484.00,0.0089
2483.00,0.0089
2482.00,0.0089
2481.00,0.0089
2480.00,0.0089
2479.00,0.0089
2478.00,0.0089
2477.00,0.0089
2476.00,0.0089
2475.00,0.0089
2474.00,0.0089
2473.00,0.0089
2472.00,0.0089
2471.00,0.0089
2470.00,0.0089
2469.00,0.0089
2468.00,0.0089
2467.00,0.0089
2466.00,0.0089
2465.00,0.0089
2464.00,0.0089
2463.00,0.0089
2462.00,0.0089
2461.00,0.0089
2460.00,0.0089
2459.00,0.0089
2458.00,0.0089
2457.00,0.0089
2456.00,0.0089
2455.00,0.0089
2454.00,0.0089
2453.00,0.0089
2452.00,0.0089
2451.00,0.0089
2450.00,0.0089
2449.00,0.0089
2448.00,0.0089
2447.00,0.0089
2446.00,0.0088
2445.00,0.0088
2444.00,0.0087
2443.00,0.0087
2442.00,0.0087
2441.00,0.0087
2440.00,0.0087
2439.00,0.0087
2438.00,0.0087
2437.00,0.0087
2436.00,0.0087
2435.00,0.0087
2434.00,0.0086
2433.00,0.0086
2432.00,0.0086
2431.00,0.0086
2430.00,0.0086
2429.00,0.0086
2428.00,0.0086
2427.00,0.0086
2426.00,0.0085
2425.00,0.0085
2424.00,0.0085
2423.00,0.0085
2422.00,0.0085
2421.00,0.0085
2420.00,0.0085
2419.00,0.0085
2418.00,0.0085
2417.00,0.0085
2416.00,0.0085
2415.00,0.0085
2414.00,0.0085
2413.00,0.0085
2412.00,0.0085
2411.00,0.0085
2410.00,0.0084
2409.00,0.0084
2408.00,0.0084
2407.00,0.0083
2406.00,0.0083
2405.00,0.0083
2404.00,0.0083
2403.00,0.0083
2402.00,0.0083
2401.00,0.0082
2400.00,0.0082
2399.00,0.0082
2398.00,0.0082
2397.00,0.0082
2396.00,0.0082
2395.00,0.0082
2394.00,0.0082
2393.00,0.0082
2392.00,0.0082
2391.00,0.0082
2390.00,0.0082
2389.00,0.0082
2388.00,0.0082
2387.00,0.0081
2386.00,0.0081
2385.00,0.0080
2384.00,0.0080
2383.00,0.0079
2382.00,0.0078
2381.00,0.0078
2380.00,0.0078
2379.00,0.0078
2378.00,0.0078
2377.00,0.0078
2376.00,0.0079
2375.00,0.0080
2374.00,0.0080
2373.00,0.0079
2372.00,0.0079
2371.00,0.0079
2370.00,0.0078
2369.00,0.0078
2368.00,0.0078
2367.00,0.0078
2366.00,0.0078
2365.00,0.0078
2364.00,0.0078
2363.00,0.0079
2362.00,0.0079
2361.00,0.0079
2360.00,0.0079
2359.00,0.0079
2358.00,0.0079
2357.00,0.0079
2356.00,0.0080
2355.00,0.0080
2354.00,0.0079
2353.00,0.0079
2352.00,0.0079
2351.00,0.0079
2350.00,0.0079
2349.00,0.0080
2348.00,0.0080
2347.00,0.0080
2346.00,0.0080
2345.00,0.0080
2344.00,0.0081
2343.00,0.0081
2342.00,0.0082
2341.00,0.0082
2340.00,0.0082
2339.00,0.0082
2338.00,0.0082
2337.00,0.0082
2336.00,0.0082
2335.00,0.0082
2334.00,0.0082
2333.00,0.0081
2332.00,0.0081
2331.00,0.0081
2330.00,0.0081
2329.00,0.0083
2328.00,0.0086
2327.00,0.0089
2326.00,0.0092
2325.00,0.0093
2324.00,0.0092
2323.00,0.0090
2322.00,0.0089
2321.00,0.0088
2320.00,0.0087
2319.00,0.0087
2318.00,0.0087
2317.00,0.0087
2316.00,0.0086
2315.00,0.0086
2314.00,0.0085
2313.00,0.0084
2312.00,0.0084
2311.00,0.0084
2310.00,0.0083
2309.00,0.0083
2308.00,0.0083
2307.00,0.0083
2306.00,0.0083
2305.00,0.0083
2304.00,0.0083
2303.00,0.0084
2302.00,0.0084
2301.00,0.0084
2300.00,0.0084
2299.00,0.0084
2298.00,0.0085
2297.00,0.0085
2296.00,0.0086
2295.00,0.0086
2294.00,0.0087
2293.00,0.0088
2292.00,0.0088
2291.00,0.0089
2290.00,0.0089
2289.00,0.0090
2288.00,0.0090
2287.00,0.0090
2286.00,0.0089
2285.00,0.0089
2284.00,0.0088
2283.00,0.0088
2282.00,0.0087
2281.00,0.0087
2280.00,0.0086
2279.00,0.0086
2278.00,0.0086
2277.00,0.0086
2276.00,0.0086
2275.00,0.0085
2274.00,0.0085
2273.00,0.0085
2272.00,0.0085
2271.00,0.0085
2270.00,0.0084
2269.00,0.0084
2268.00,0.0084
2267.00,0.0083
2266.00,0.0083
2265.00,0.0082
2264.00,0.0082
2263.00,0.0082
2262.00,0.0083
2261.00,0.0083
2260.00,0.0083
2259.00,0.0083
2258.00,0.0083
2257.00,0.0082
2256.00,0.0082
2255.00,0.0081
2254.00,0.0080
2253.00,0.0080
2252.00,0.0081
2251.00,0.0081
2250.00,0.0081
2249.00,0.0081
2248.00,0.0081
2247.00,0.0081
2246.00,0.0081
2245.00,0.0081
2244.00,0.0081
2243.00,0.0081
2242.00,0.0081
2241.00,0.0081
2240.00,0.0081
2239.00,0.0081
2238.00,0.0081
2237.00,0.0081
2236.00,0.0081
2235.00,0.0081
2234.00,0.0081
2233.00,0.0081
2232.00,0.0081
2231.00,0.0081
2230.00,0.0081
2229.00,0.0081
2228.00,0.0080
2227.00,0.0080
2226.00,0.0080
2225.00,0.0080
2224.00,0.0080
2223.00,0.0080
2222.00,0.0079
2221.00,0.0079
2220.00,0.0080
2219.00,0.0080
2218.00,0.0080
2217.00,0.0080
2216.00,0.0080
2215.00,0.0080
2214.00,0.0080
2213.00,0.0080
2212.00,0.0080
2211.00,0.0080
2210.00,0.0079
2209.00,0.0080
2208.00,0.0080
2207.00,0.0080
2206.00,0.0080
2205.00,0.0080
2204.00,0.0080
2203.00,0.0080
2202.00,0.0080
2201.00,0.0080
2200.00,0.0080
2199.00,0.0080
2198.00,0.0081
2197.00,0.0081
2196.00,0.0081
2195.00,0.0081
2194.00,0.0080
2193.00,0.0080
2192.00,0.0079
2191.00,0.0079
2190.00,0.0079
2189.00,0.0080
2188.00,0.0080
2187.00,0.0081
2186.00,0.0081
2185.00,0.0080
2184.00,0.0078
2183.00,0.0076
2182.00,0.0075
2181.00,0.0075
2180.00,0.0076
2179.00,0.0077
2178.00,0.0076
2177.00,0.0075
2176.00,0.0074
2175.00,0.0074
2174.00,0.0075
2173.00,0.0077
2172.00,0.0079
2171.00,0.0082
2170.00,0.0083
2169.00,0.0085
2168.00,0.0085
2167.00,0.0085
2166.00,0.0085
2165.00,0.0086
2164.00,0.0088
2163.00,0.0088
2162.00,0.0085
2161.00,0.0077
2160.00,0.0067
2159.00,0.0057
2158.00,0.0052
2157.00,0.0051
2156.00,0.0053
2155.00,0.0056
2154.00,0.0058
2153.00,0.0059
2152.00,0.0061
2151.00,0.0061
2150.00,0.0062
2149.00,0.0062
2148.00,0.0062
2147.00,0.0061
2146.00,0.0061
2145.00,0.0060
2144.00,0.0061
2143.00,0.0061
2142.00,0.0062
2141.00,0.0063
2140.00,0.0063
2139.00,0.0063
2138.00,0.0062
2137.00,0.0061
2136.00,0.0060
2135.00,0.0058
2134.00,0.0057
2133.00,0.0058
2132.00,0.0059
2131.00,0.0060
2130.00,0.0061
2129.00,0.0063
2128.00,0.0064
2127.00,0.0065
2126.00,0.0066
2125.00,0.0067
2124.00,0.0067
2123.00,0.0068
2122.00,0.0068
2121.00,0.0069
2120.00,0.0069
2119.00,0.0070
2118.00,0.0071
2117.00,0.0072
2116.00,0.0073
2115.00,0.0074
2114.00,0.0074
2113.00,0.0074
2112.00,0.0074
2111.00,0.0074
2110.00,0.0073
2109.00,0.0073
2108.00,0.0073
2107.00,0.0073
2106.00,0.0072
2105.00,0.0072
2104.00,0.0072
2103.00,0.0072
2102.00,0.0072
2101.00,0.0072
2100.00,0.0072
2099.00,0.0072
2098.00,0.0071
2097.00,0.0070
2096.00,0.0069
2095.00,0.0068
2094.00,0.0068
2093.00,0.0069
2092.00,0.0070
2091.00,0.0071
2090.00,0.0071
2089.00,0.0072
2088.00,0.0072
2087.00,0.0072
2086.00,0.0072
2085.00,0.0072
2084.00,0.0073
2083.00,0.0073
2082.00,0.0073
2081.00,0.0073
2080.00,0.0073
2079.00,0.0073
2078.00,0.0073
2077.00,0.0073
2076.00,0.0073
2075.00,0.0073
2074.00,0.0073
2073.00,0.0072
2072.00,0.0072
2071.00,0.0071
2070.00,0.0071
2069.00,0.0071
2068.00,0.0071
2067.00,0.0070
2066.00,0.0070
2065.00,0.0070
2064.00,0.0071
2063.00,0.0071
2062.00,0.0071
2061.00,0.0071
2060.00,0.0071
2059.00,0.0071
2058.00,0.0071
2057.00,0.0072
2056.00,0.0072
2055.00,0.0072
2054.00,0.0074
2053.00,0.0077
2052.00,0.0079
2051.00,0.0080
2050.00,0.0078
2049.00,0.0076
2048.00,0.0073
2047.00,0.0072
2046.00,0.0071
2045.00,0.0071
2044.00,0.0070
2043.00,0.0070
2042.00,0.0069
2041.00,0.0070
2040.00,0.0071
2039.00,0.0072
2038.00,0.0073
2037.00,0.0073
2036.00,0.0072
2035.00,0.0071
2034.00,0.0068
2033.00,0.0067
2032.00,0.0066
2031.00,0.0065
2030.00,0.0065
2029.00,0.0065
2028.00,0.0065
2027.00,0.0064
2026.00,0.0064
2025.00,0.0063
2024.00,0.0062
2023.00,0.0061
2022.00,0.0061
2021.00,0.0061
2020.00,0.0061
2019.00,0.0062
2018.00,0.0062
2017.00,0.0062
2016.00,0.0063
2015.00,0.0063
2014.00,0.0063
2013.00,0.0063
2012.00,0.0064
2011.00,0.0065
2010.00,0.0065
2009.00,0.0064
2008.00,0.0062
2007.00,0.0059
2006.00,0.0058
2005.00,0.0058
2004.00,0.0059
2003.00,0.0060
2002.00,0.0060
2001.00,0.0061
2000.00,0.0061
1999.00,0.0062
1998.00,0.0062
1997.00,0.0063
1996.00,0.0064
1995.00,0.0064
1994.00,0.0065
1993.00,0.0065
1992.00,0.0065
1991.00,0.0065
1990.00,0.0065
1989.00,0.0066
1988.00,0.0067
1987.00,0.0067
1986.00,0.0068
1985.00,0.0069
1984.00,0.0070
1983.00,0.0072
1982.00,0.0074
1981.00,0.0075
1980.00,0.0073
1979.00,0.0069
1978.00,0.0063
1977.00,0.0059
1976.00,0.0057
1975.00,0.0056
1974.00,0.0056
1973.00,0.0056
1972.00,0.0057
1971.00,0.0057
1970.00,0.0057
1969.00,0.0057
1968.00,0.0057
1967.00,0.0057
1966.00,0.0056
1965.00,0.0056
1964.00,0.0056
1963.00,0.0056
1962.00,0.0055
1961.00,0.0054
1960.00,0.0053
1959.00,0.0053
1958.00,0.0054
1957.00,0.0054
1956.00,0.0055
1955.00,0.0056
1954.00,0.0056
1953.00,0.0056
1952.00,0.0056
1951.00,0.0056
1950.00,0.0056
1949.00,0.0056
1948.00,0.0056
1947.00,0.0056
1946.00,0.0055
1945.00,0.0055
1944.00,0.0055
1943.00,0.0055
1942.00,0.0055
1941.00,0.0056
1940.00,0.0056
1939.00,0.0055
1938.00,0.0055
1937.00,0.0055
1936.00,0.0055
1935.00,0.0055
1934.00,0.0055
1933.00,0.0055
1932.00,0.0055
1931.00,0.0055
1930.00,0.0055
1929.00,0.0055
1928.00,0.0055
1927.00,0.0055
1926.00,0.0055
1925.00,0.0054
1924.00,0.0055
1923.00,0.0055
1922.00,0.0056
1921.00,0.0057
1920.00,0.0057
1919.00,0.0057
1918.00,0.0057
1917.00,0.0057
1916.00,0.0057
1915.00,0.0057
1914.00,0.0056
1913.00,0.0056
1912.00,0.0056
1911.00,0.0056
1910.00,0.0056
1909.00,0.0056
1908.00,0.0056
1907.00,0.0056
1906.00,0.0056
1905.00,0.0056
1904.00,0.0057
1903.00,0.0057
1902.00,0.0057
1901.00,0.0057
1900.00,0.0057
1899.00,0.0056
1898.00,0.0056
1897.00,0.0055
1896.00,0.0056
1895.00,0.0056
1894.00,0.0056
1893.00,0.0056
1892.00,0.0055
1891.00,0.0055
1890.00,0.0055
1889.00,0.0055
1888.00,0.0055
1887.00,0.0055
1886.00,0.0055
1885.00,0.0055
1884.00,0.0055
1883.00,0.0055
1882.00,0.0055
1881.00,0.0055
1880.00,0.0055
1879.00,0.0055
1878.00,0.0055
1877.00,0.0055
1876.00,0.0055
1875.00,0.0055
1874.00,0.0055
1873.00,0.0054
1872.00,0.0054
1871.00,0.0054
1870.00,0.0053
1869.00,0.0053
1868.00,0.0054
1867.00,0.0054
1866.00,0.0055
1865.00,0.0054
1864.00,0.0054
1863.00,0.0054
1862.00,0.0054
1861.00,0.0054
1860.00,0.0054
1859.00,0.0054
1858.00,0.0054
1857.00,0.0054
1856.00,0.0054
1855.00,0.0054
1854.00,0.0053
1853.00,0.0053
1852.00,0.0053
1851.00,0.0053
1850.00,0.0052
1849.00,0.0052
1848.00,0.0052
1847.00,0.0052
1846.00,0.0052
1845.00,0.0052
1844.00,0.0052
1843.00,0.0053
1842.00,0.0053
1841.00,0.0053
1840.00,0.0053
1839.00,0.0052
1838.00,0.0052
1837.00,0.0052
1836.00,0.0052
1835.00,0.0052
1834.00,0.0052
1833.00,0.0052
1832.00,0.0051
1831.00,0.0051
1830.00,0.0050
1829.00,0.0051
1828.00,0.0051
1827.00,0.0051
1826.00,0.0051
1825.00,0.0051
1824.00,0.0051
1823.00,0.0052
1822.00,0.0052
1821.00,0.0051
1820.00,0.0051
1819.00,0.0050
1818.00,0.0049
1817.00,0.0049
1816.00,0.0049
1815.00,0.0050
1814.00,0.0050
1813.00,0.0050
1812.00,0.0050
1811.00,0.0050
1810.00,0.0051
1809.00,0.0051
1808.00,0.0051
1807.00,0.0051
1806.00,0.0051
1805.00,0.0051
1804.00,0.0050
1803.00,0.0050
1802.00,0.0050
1801.00,0.0050
1800.00,0.0050
1799.00,0.0051
1798.00,0.0051
1797.00,0.0052
1796.00,0.0052
1795.00,0.0051
1794.00,0.0051
1793.00,0.0051
1792.00,0.0051
1791.00,0.0051
1790.00,0.0052
1789.00,0.0052
1788.00,0.0052
1787.00,0.0051
1786.00,0.0051
1785.00,0.0051
1784.00,0.0051
1783.00,0.0051
1782.00,0.0051
1781.00,0.0051
1780.00,0.0051
1779.00,0.0051
1778.00,0.0051
1777.00,0.0051
1776.00,0.0051
1775.00,0.0051
1774.00,0.0051
1773.00,0.0051
1772.00,0.0051
1771.00,0.0051
1770.00,0.0051
1769.00,0.0052
1768.00,0.0052
1767.00,0.0053
1766.00,0.0052
1765.00,0.0052
1764.00,0.0051
1763.00,0.0051
1762.00,0.0051
1761.00,0.0052
1760.00,0.0052
1759.00,0.0052
1758.00,0.0052
1757.00,0.0053
1756.00,0.0053
1755.00,0.0054
1754.00,0.0054
1753.00,0.0054
1752.00,0.0055
1751.00,0.0055
1750.00,0.0054
1749.00,0.0054
1748.00,0.0055
1747.00,0.0055
1746.00,0.0056
1745.00,0.0056
1744.00,0.0056
1743.00,0.0057
1742.00,0.0057
1741.00,0.0057
1740.00,0.0058
1739.00,0.0059
1738.00,0.0060
1737.00,0.0061
1736.00,0.0062
1735.00,0.0063
1734.00,0.0065
1733.00,0.0066
1732.00,0.0066
1731.00,0.0065
1730.00,0.0065
1729.00,0.0065
1728.00,0.0066
1727.00,0.0067
1726.00,0.0068
1725.00,0.0068
1724.00,0.0070
1723.00,0.0071
1722.00,0.0071
1721.00,0.0071
1720.00,0.0072
1719.00,0.0074
1718.00,0.0076
1717.00,0.0079
1716.00,0.0080
1715.00,0.0081
1714.00,0.0082
1713.00,0.0083
1712.00,0.0086
1711.00,0.0088
1710.00,0.0090
1709.00,0.0092
1708.00,0.0095
1707.00,0.0098
1706.00,0.0103
1705.00,0.0109
1704.00,0.0116
1703.00,0.0123
1702.00,0.0130
1701.00,0.0143
1700.00,0.0161
1699.00,0.0178
1698.00,0.0189
1697.00,0.0199
1696.00,0.0208
1695.00,0.0216
1694.00,0.0221
1693.00,0.0223
1692.00,0.0226
1691.00,0.0229
1690.00,0.0233
1689.00,0.0238
1688.00,0.0244
1687.00,0.0250
1686.00,0.0255
1685.00,0.0262
1684.00,0.0271
1683.00,0.0279
1682.00,0.0286
1681.00,0.0292
1680.00,0.0299
1679.00,0.0306
1678.00,0.0312
1677.00,0.0318
1676.00,0.0327
1675.00,0.0336
1674.00,0.0345
1673.00,0.0353
1672.00,0.0360
1671.00,0.0367
1670.00,0.0376
1669.00,0.0386
1668.00,0.0396
1667.00,0.0404
1666.00,0.0410
1665.00,0.0416
1664.00,0.0424
1663.00,0.0432
1662.00,0.0441
1661.00,0.0449
1660.00,0.0457
1659.00,0.0464
1658.00,0.0469
1657.00,0.0475
1656.00,0.0480
1655.00,0.0486
1654.00,0.0493
1653.00,0.0503
1652.00,0.0512
1651.00,0.0516
1650.00,0.0516
1649.00,0.0517
1648.00,0.0520
1647.00,0.0526
1646.00,0.0532
1645.00,0.0537
1644.00,0.0541
1643.00,0.0544
1642.00,0.0547
1641.00,0.0550
1640.00,0.0553
1639.00,0.0556
1638.00,0.0558
1637.00,0.0561
1636.00,0.0564
1635.00,0.0569
1634.00,0.0573
1633.00,0.0575
1632.00,0.0578
1631.00,0.0580
1630.00,0.0581
1629.00,0.0582
1628.00,0.0584
1627.00,0.0586
1626.00,0.0587
1625.00,0.0588
1624.00,0.0588
1623.00,0.0589
1622.00,0.0589
1621.00,0.0589
1620.00,0.0589
1619.00,0.0588
1618.00,0.0586
1617.00,0.0582
1616.00,0.0576
1615.00,0.0571
1614.00,0.0565
1613.00,0.0559
1612.00,0.0553
1611.00,0.0546
1610.00,0.0538
1609.00,0.0530
1608.00,0.0521
1607.00,0.0512
1606.00,0.0503
1605.00,0.0494
1604.00,0.0484
1603.00,0.0473
1602.00,0.0463
1601.00,0.0452
1600.00,0.0442
1599.00,0.0432
1598.00,0.0422
1597.00,0.0412
1596.00,0.0403
1595.00,0.0394
1594.00,0.0385
1593.00,0.0377
1592.00,0.0369
1591.00,0.0361
1590.00,0.0353
1589.00,0.0346
1588.00,0.0339
1587.00,0.0333
1586.00,0.0327
1585.00,0.0322
1584.00,0.0317
1583.00,0.0313
1582.00,0.0309
1581.00,0.0306
1580.00,0.0304
1579.00,0.0302
1578.00,0.0302
1577.00,0.0302
1576.00,0.0302
1575.00,0.0302
1574.00,0.0302
1573.00,0.0301
1572.00,0.0302
1571.00,0.0302
1570.00,0.0305
1569.00,0.0309
1568.00,0.0314
1567.00,0.0318
1566.00,0.0322
1565.00,0.0326
1564.00,0.0332
1563.00,0.0337
1562.00,0.0341
1561.00,0.0344
1560.00,0.0348
1559.00,0.0357
1558.00,0.0368
1557.00,0.0376
1556.00,0.0381
1555.00,0.0386
1554.00,0.0392
1553.00,0.0397
1552.00,0.0402
1551.00,0.0407
1550.00,0.0412
1549.00,0.0419
1548.00,0.0424
1547.00,0.0428
1546.00,0.0432
1545.00,0.0437
1544.00,0.0442
1543.00,0.0447
1542.00,0.0452
1541.00,0.0458
1540.00,0.0466
1539.00,0.0473
1538.00,0.0478
1537.00,0.0481
1536.00,0.0482
1535.00,0.0484
1534.00,0.0488
1533.00,0.0494
1532.00,0.0500
1531.00,0.0505
1530.00,0.0509
1529.00,0.0513
1528.00,0.0517
1527.00,0.0522
1526.00,0.0527
1525.00,0.0532
1524.00,0.0536
1523.00,0.0540
1522.00,0.0545
1521.00,0.0550
1520.00,0.0554
1519.00,0.0556
1518.00,0.0558
1517.00,0.0560
1516.00,0.0562
1515.00,0.0563
1514.00,0.0563
1513.00,0.0562
1512.00,0.0558
1511.00,0.0554
1510.00,0.0551
1509.00,0.0547
1508.00,0.0541
1507.00,0.0531
1506.00,0.0522
1505.00,0.0515
1504.00,0.0508
1503.00,0.0501
1502.00,0.0493
1501.00,0.0484
1500.00,0.0475
1499.00,0.0465
1498.00,0.0456
1497.00,0.0445
1496.00,0.0435
1495.00,0.0424
1494.00,0.0415
1493.00,0.0405
1492.00,0.0395
1491.00,0.0384
1490.00,0.0373
1489.00,0.0362
1488.00,0.0354
1487.00,0.0346
1486.00,0.0339
1485.00,0.0332
1484.00,0.0326
1483.00,0.0320
1482.00,0.0314
1481.00,0.0309
1480.00,0.0304
1479.00,0.0300
1478.00,0.0296
1477.00,0.0293
1476.00,0.0291
1475.00,0.0289
1474.00,0.0288
1473.00,0.0288
1472.00,0.0287
1471.00,0.0288
1470.00,0.0288
1469.00,0.0288
1468.00,0.0287
1467.00,0.0286
1466.00,0.0286
1465.00,0.0286
1464.00,0.0287
1463.00,0.0288
1462.00,0.0290
1461.00,0.0291
1460.00,0.0292
1459.00,0.0295
1458.00,0.0299
1457.00,0.0305
1456.00,0.0311
1455.00,0.0314
1454.00,0.0315
1453.00,0.0316
1452.00,0.0317
1451.00,0.0317
1450.00,0.0317
1449.00,0.0316
1448.00,0.0314
1447.00,0.0313
1446.00,0.0312
1445.00,0.0310
1444.00,0.0307
1443.00,0.0304
1442.00,0.0301
1441.00,0.0298
1440.00,0.0295
1439.00,0.0291
1438.00,0.0288
1437.00,0.0284
1436.00,0.0281
1435.00,0.0279
1434.00,0.0277
1433.00,0.0275
1432.00,0.0272
1431.00,0.0270
1430.00,0.0269
1429.00,0.0268
1428.00,0.0268
1427.00,0.0268
1426.00,0.0268
1425.00,0.0268
1424.00,0.0268
1423.00,0.0269
1422.00,0.0270
1421.00,0.0271
1420.00,0.0272
1419.00,0.0273
1418.00,0.0276
1417.00,0.0278
1416.00,0.0279
1415.00,0.0281
1414.00,0.0282
1413.00,0.0284
1412.00,0.0285
1411.00,0.0287
1410.00,0.0288
1409.00,0.0289
1408.00,0.0289
1407.00,0.0290
1406.00,0.0290
1405.00,0.0291
1404.00,0.0291
1403.00,0.0292
1402.00,0.0292
1401.00,0.0291
1400.00,0.0290
1399.00,0.0290
1398.00,0.0289
1397.00,0.0289
1396.00,0.0289
1395.00,0.0288
1394.00,0.0288
1393.00,0.0289
1392.00,0.0289
1391.00,0.0289
1390.00,0.0288
1389.00,0.0288
1388.00,0.0287
1387.00,0.0287
1386.00,0.0286
1385.00,0.0286
1384.00,0.0285
1383.00,0.0284
1382.00,0.0283
1381.00,0.0282
1380.00,0.0281
1379.00,0.0280
1378.00,0.0279
1377.00,0.0278
1376.00,0.0277
1375.00,0.0276
1374.00,0.0275
1373.00,0.0275
1372.00,0.0275
1371.00,0.0275
1370.00,0.0274
1369.00,0.0273
1368.00,0.0271
1367.00,0.0269
1366.00,0.0268
1365.00,0.0265
1364.00,0.0263
1363.00,0.0261
1362.00,0.0260
1361.00,0.0259
1360.00,0.0258
1359.00,0.0257
1358.00,0.0256
1357.00,0.0255
1356.00,0.0254
1355.00,0.0254
1354.00,0.0253
1353.00,0.0252
1352.00,0.0252
1351.00,0.0252
1350.00,0.0251
1349.00,0.0251
1348.00,0.0251
1347.00,0.0251
1346.00,0.0251
1345.00,0.0251
1344.00,0.0252
1343.00,0.0252
1342.00,0.0252
1341.00,0.0252
1340.00,0.0252
1339.00,0.0252
1338.00,0.0252
1337.00,0.0252
1336.00,0.0253
1335.00,0.0253
1334.00,0.0253
1333.00,0.0253
1332.00,0.0252
1331.00,0.0252
1330.00,0.0252
1329.00,0.0252
1328.00,0.0252
1327.00,0.0252
1326.00,0.0252
1325.00,0.0252
1324.00,0.0252
1323.00,0.0252
1322.00,0.0252
1321.00,0.0251
1320.00,0.0251
1319.00,0.0251
1318.00,0.0251
1317.00,0.0250
1316.00,0.0250
1315.00,0.0250
1314.00,0.0249
1313.00,0.0249
1312.00,0.0248
1311.00,0.0248
1310.00,0.0247
1309.00,0.0247
1308.00,0.0246
1307.00,0.0246
1306.00,0.0245
1305.00,0.0245
1304.00,0.0244
1303.00,0.0244
1302.00,0.0243
1301.00,0.0242
1300.00,0.0242
1299.00,0.0241
1298.00,0.0241
1297.00,0.0240
1296.00,0.0240
1295.00,0.0240
1294.00,0.0240
1293.00,0.0240
1292.00,0.0240
1291.00,0.0240
1290.00,0.0239
1289.00,0.0239
1288.00,0.0239
1287.00,0.0239
1286.00,0.0239
1285.00,0.0239
1284.00,0.0239
1283.00,0.0239
1282.00,0.0238
1281.00,0.0238
1280.00,0.0238
1279.00,0.0238
1278.00,0.0237
1277.00,0.0237
1276.00,0.0236
1275.00,0.0236
1274.00,0.0236
1273.00,0.0236
1272.00,0.0236
1271.00,0.0236
1270.00,0.0237
1269.00,0.0237
1268.00,0.0238
1267.00,0.0238
1266.00,0.0239
1265.00,0.0240
1264.00,0.0241
1263.00,0.0243
1262.00,0.0244
1261.00,0.0246
1260.00,0.0248
1259.00,0.0250
1258.00,0.0252
1257.00,0.0254
1256.00,0.0256
1255.00,0.0259
1254.00,0.0261
1253.00,0.0263
1252.00,0.0266
1251.00,0.0268
1250.00,0.0270
1249.00,0.0272
1248.00,0.0274
1247.00,0.0275
1246.00,0.0277
1245.00,0.0278
1244.00,0.0280
1243.00,0.0281
1242.00,0.0282
1241.00,0.0283
1240.00,0.0283
1239.00,0.0284
1238.00,0.0285
1237.00,0.0285
1236.00,0.0286
1235.00,0.0286
1234.00,0.0286
1233.00,0.0286
1232.00,0.0286
1231.00,0.0285
1230.00,0.0285
1229.00,0.0285
1228.00,0.0284
1227.00,0.0283
1226.00,0.0282
1225.00,0.0281
1224.00,0.0280
1223.00,0.0279
1222.00,0.0277
1221.00,0.0276
1220.00,0.0274
1219.00,0.0272
1218.00,0.0271
1217.00,0.0269
1216.00,0.0267
1215.00,0.0265
1214.00,0.0263
1213.00,0.0260
1212.00,0.0258
1211.00,0.0255
1210.00,0.0253
1209.00,0.0250
1208.00,0.0248
1207.00,0.0245
1206.00,0.0242
1205.00,0.0239
1204.00,0.0237
1203.00,0.0234
1202.00,0.0232
1201.00,0.0229
1200.00,0.0227
1199.00,0.0224
1198.00,0.0222
1197.00,0.0220
1196.00,0.0219
1195.00,0.0217
1194.00,0.0215
1193.00,0.0214
1192.00,0.0213
1191.00,0.0212
1190.00,0.0211
1189.00,0.0210
1188.00,0.0209
1187.00,0.0209
1186.00,0.0208
1185.00,0.0208
1184.00,0.0208
1183.00,0.0207
1182.00,0.0208
1181.00,0.0208
1180.00,0.0208
1179.00,0.0209
1178.00,0.0210
1177.00,0.0211
1176.00,0.0213
1175.00,0.0215
1174.00,0.0217
1173.00,0.0219
1172.00,0.0220
1171.00,0.0222
1170.00,0.0224
1169.00,0.0226
1168.00,0.0227
1167.00,0.0229
1166.00,0.0231
1165.00,0.0232
1164.00,0.0234
1163.00,0.0235
1162.00,0.0236
1161.00,0.0236
1160.00,0.0237
1159.00,0.0237
1158.00,0.0237
1157.00,0.0237
1156.00,0.0236
1155.00,0.0235
1154.00,0.0234
1153.00,0.0233
1152.00,0.0231
1151.00,0.0230
1150.00,0.0228
1149.00,0.0227
1148.00,0.0225
1147.00,0.0223
1146.00,0.0221
1145.00,0.0220
1144.00,0.0218
1143.00,0.0217
1142.00,0.0216
1141.00,0.0215
1140.00,0.0214
1139.00,0.0213
1138.00,0.0213
1137.00,0.0213
1136.00,0.0212
1135.00,0.0212
1134.00,0.0212
1133.00,0.0212
1132.00,0.0212
1131.00,0.0212
1130.00,0.0212
1129.00,0.0212
1128.00,0.0212
1127.00,0.0212
1126.00,0.0212
1125.00,0.0212
1124.00,0.0211
1123.00,0.0211
1122.00,0.0211
1121.00,0.0211
1120.00,0.0211
1119.00,0.0211
1118.00,0.0211
1117.00,0.0211
1116.00,0.0211
1115.00,0.0211
1114.00,0.0211
1113.00,0.0211
1112.00,0.0211
1111.00,0.0211
1110.00,0.0211
1109.00,0.0212
1108.00,0.0212
1107.00,0.0212
1106.00,0.0213
1105.00,0.0213
1104.00,0.0214
1103.00,0.0215
1102.00,0.0216
1101.00,0.0217
1100.00,0.0217
1099.00,0.0218
1098.00,0.0219
1097.00,0.0220
1096.00,0.0221
1095.00,0.0223
1094.00,0.0225
1093.00,0.0227
1092.00,0.0230
1091.00,0.0232
1090.00,0.0235
1089.00,0.0238
1088.00,0.0241
1087.00,0.0245
1086.00,0.0249
1085.00,0.0253
1084.00,0.0256
1083.00,0.0260
1082.00,0.0264
1081.00,0.0268
1080.00,0.0272
1079.00,0.0276
1078.00,0.0279
1077.00,0.0283
1076.00,0.0286
1075.00,0.0289
1074.00,0.0291
1073.00,0.0294
1072.00,0.0296
1071.00,0.0297
1070.00,0.0299
1069.00,0.0300
1068.00,0.0301
1067.00,0.0302
1066.00,0.0303
1065.00,0.0303
1064.00,0.0303
1063.00,0.0303
1062.00,0.0303
1061.00,0.0302
1060.00,0.0301
1059.00,0.0300
1058.00,0.0299
1057.00,0.0297
1056.00,0.0296
1055.00,0.0295
1054.00,0.0294
1053.00,0.0292
1052.00,0.0290
1051.00,0.0289
1050.00,0.0287
1049.00,0.0286
1048.00,0.0284
1047.00,0.0282
1046.00,0.0281
1045.00,0.0278
1044.00,0.0276
1043.00,0.0274
1042.00,0.0271
1041.00,0.0269
1040.00,0.0266
1039.00,0.0264
1038.00,0.0261
1037.00,0.0259
1036.00,0.0257
1035.00,0.0255
1034.00,0.0253
1033.00,0.0251
1032.00,0.0249
1031.00,0.0247
1030.00,0.0244
1029.00,0.0241
1028.00,0.0238
1027.00,0.0236
1026.00,0.0233
1025.00,0.0230
1024.00,0.0227
1023.00,0.0225
1022.00,0.0222
1021.00,0.0219
1020.00,0.0216
1019.00,0.0214
1018.00,0.0211
1017.00,0.0209
1016.00,0.0207
1015.00,0.0205
1014.00,0.0203
1013.00,0.0202
1012.00,0.0200
1011.00,0.0198
1010.00,0.0197
1009.00,0.0195
1008.00,0.0193
1007.00,0.0192
1006.00,0.0191
1005.00,0.0189
1004.00,0.0188
1003.00,0.0187
1002.00,0.0186
1001.00,0.0186
1000.00,0.0185
999.00,0.0184
998.00,0.0183
997.00,0.0182
996.00,0.0181
995.00,0.0180
994.00,0.0180
993.00,0.0179
992.00,0.0178
991.00,0.0177
990.00,0.0176
989.00,0.0176
988.00,0.0175
987.00,0.0174
986.00,0.0174
985.00,0.0173
984.00,0.0173
983.00,0.0172
982.00,0.0172
981.00,0.0171
980.00,0.0171
979.00,0.0171
978.00,0.0171
977.00,0.0171
976.00,0.0171
975.00,0.0171
974.00,0.0171
973.00,0.0171
972.00,0.0171
971.00,0.0172
970.00,0.0172
969.00,0.0173
968.00,0.0174
967.00,0.0175
966.00,0.0176
965.00,0.0177
964.00,0.0178
963.00,0.0179
962.00,0.0179
961.00,0.0179
960.00,0.0179
959.00,0.0178
958.00,0.0178
957.00,0.0177
956.00,0.0176
955.00,0.0175
954.00,0.0175
953.00,0.0174
952.00,0.0173
951.00,0.0172
950.00,0.0171
949.00,0.0170
948.00,0.0170
947.00,0.0169
946.00,0.0169
945.00,0.0168
944.00,0.0168
943.00,0.0168
942.00,0.0167
941.00,0.0167
940.00,0.0167
939.00,0.0166
938.00,0.0166
937.00,0.0166
936.00,0.0165
935.00,0.0165
934.00,0.0165
933.00,0.0164
932.00,0.0164
931.00,0.0164
930.00,0.0164
929.00,0.0164
928.00,0.0163
927.00,0.0162
926.00,0.0162
925.00,0.0161
924.00,0.0160
923.00,0.0160
922.00,0.0159
921.00,0.0158
920.00,0.0158
919.00,0.0157
918.00,0.0156
917.00,0.0156
916.00,0.0156
915.00,0.0155
914.00,0.0155
913.00,0.0155
912.00,0.0155
911.00,0.0156
910.00,0.0156
909.00,0.0156
908.00,0.0156
907.00,0.0156
906.00,0.0157
905.00,0.0158
904.00,0.0158
903.00,0.0158
902.00,0.0159
901.00,0.0159
900.00,0.0159
899.00,0.0158
898.00,0.0158
897.00,0.0158
896.00,0.0157
895.00,0.0157
894.00,0.0156
893.00,0.0155
892.00,0.0155
891.00,0.0154
890.00,0.0153
889.00,0.0153
888.00,0.0152
887.00,0.0152
886.00,0.0151
885.00,0.0151
884.00,0.0150
883.00,0.0150
882.00,0.0150
881.00,0.0150
880.00,0.0149
879.00,0.0149
878.00,0.0149
877.00,0.0149
876.00,0.0149
875.00,0.0150
874.00,0.0150
873.00,0.0150
872.00,0.0150
871.00,0.0150
870.00,0.0150
869.00,0.0150
868.00,0.0150
867.00,0.0150
866.00,0.0150
865.00,0.0149
864.00,0.0149
863.00,0.0149
862.00,0.0149
861.00,0.0149
860.00,0.0149
859.00,0.0149
858.00,0.0150
857.00,0.0150
856.00,0.0151
855.00,0.0151
854.00,0.0152
853.00,0.0152
852.00,0.0152
851.00,0.0152
850.00,0.0152
849.00,0.0153
848.00,0.0153
847.00,0.0153
846.00,0.0154
845.00,0.0154
844.00,0.0155
843.00,0.0155
842.00,0.0156
841.00,0.0157
840.00,0.0158
839.00,0.0159
838.00,0.0161
837.00,0.0162
836.00,0.0163
835.00,0.0164
834.00,0.0165
833.00,0.0166
832.00,0.0168
831.00,0.0170
830.00,0.0171
829.00,0.0173
828.00,0.0174
827.00,0.0175
826.00,0.0176
825.00,0.0177
824.00,0.0178
823.00,0.0178
822.00,0.0179
821.00,0.0179
820.00,0.0180
819.00,0.0181
818.00,0.0183
817.00,0.0184
816.00,0.0186
815.00,0.0187
814.00,0.0189
813.00,0.0190
812.00,0.0191
811.00,0.0192
810.00,0.0192
809.00,0.0193
808.00,0.0194
807.00,0.0195
806.00,0.0196
805.00,0.0197
804.00,0.0197
803.00,0.0198
802.00,0.0199
801.00,0.0200
800.00,0.0202
799.00,0.0203
798.00,0.0204
797.00,0.0206
796.00,0.0207
795.00,0.0209
794.00,0.0210
793.00,0.0212
792.00,0.0213
791.00,0.0215
790.00,0.0217
789.00,0.0220
788.00,0.0222
787.00,0.0224
786.00,0.0226
785.00,0.0228
784.00,0.0230
783.00,0.0233
782.00,0.0235
781.00,0.0237
780.00,0.0239
779.00,0.0241
778.00,0.0243
777.00,0.0244
776.00,0.0246
775.00,0.0248
774.00,0.0249
773.00,0.0250
772.00,0.0252
771.00,0.0253
770.00,0.0254
769.00,0.0255
768.00,0.0256
767.00,0.0257
766.00,0.0257
765.00,0.0258
764.00,0.0259
763.00,0.0260
762.00,0.0261
761.00,0.0261
760.00,0.0262
759.00,0.0263
758.00,0.0264
757.00,0.0265
756.00,0.0266
755.00,0.0267
754.00,0.0269
753.00,0.0270
752.00,0.0272
751.00,0.0273
750.00,0.0275
749.00,0.0276
748.00,0.0277
747.00,0.0278
746.00,0.0279
745.00,0.0280
744.00,0.0281
743.00,0.0281
742.00,0.0282
741.00,0.0283
740.00,0.0284
739.00,0.0285
738.00,0.0287
737.00,0.0288
736.00,0.0290
735.00,0.0292
734.00,0.0294
733.00,0.0297
732.00,0.0299
731.00,0.0301
730.00,0.0304
729.00,0.0308
728.00,0.0312
727.00,0.0316
726.00,0.0320
725.00,0.0325
724.00,0.0329
723.00,0.0334
722.00,0.0338
721.00,0.0343
720.00,0.0348
719.00,0.0353
718.00,0.0358
717.00,0.0363
716.00,0.0367
715.00,0.0372
714.00,0.0377
713.00,0.0382
712.00,0.0386
711.00,0.0390
710.00,0.0394
709.00,0.0399
708.00,0.0403
707.00,0.0407
706.00,0.0412
705.00,0.0416
704.00,0.0420
703.00,0.0423
702.00,0.0427
701.00,0.0430
700.00,0.0431
699.00,0.0433
698.00,0.0433
697.00,0.0433
696.00,0.0434
695.00,0.0434
694.00,0.0434
693.00,0.0433
692.00,0.0433
691.00,0.0434
690.00,0.0434
689.00,0.0435
688.00,0.0436
687.00,0.0436
686.00,0.0436
685.00,0.0437
684.00,0.0437
683.00,0.0437
682.00,0.0438
681.00,0.0438
680.00,0.0438
679.00,0.0439
678.00,0.0439
677.00,0.0440
676.00,0.0441
675.00,0.0441
674.00,0.0442
673.00,0.0442
672.00,0.0442
671.00,0.0441
670.00,0.0441
669.00,0.0441
668.00,0.0443
667.00,0.0446
666.00,0.0446
665.00,0.0446
664.00,0.0447
663.00,0.0448
662.00,0.0448
661.00,0.0449
660.00,0.0450
659.00,0.0450
658.00,0.0451
657.00,0.0452
656.00,0.0453
655.00,0.0454
654.00,0.0455
653.00,0.0456
652.00,0.0457
651.00,0.0459
650.00,0.0460
649.00,0.0461
648.00,0.0463
647.00,0.0465
646.00,0.0466
645.00,0.0468
644.00,0.0470
643.00,0.0472
642.00,0.0474
641.00,0.0475
640.00,0.0477
639.00,0.0479
638.00,0.0480
637.00,0.0482
636.00,0.0483
635.00,0.0485
634.00,0.0486
633.00,0.0488
632.00,0.0490
631.00,0.0491
630.00,0.0492
629.00,0.0493
628.00,0.0494
627.00,0.0495
626.00,0.0496
625.00,0.0496
624.00,0.0496
623.00,0.0496
622.00,0.0496
621.00,0.0496
620.00,0.0496
619.00,0.0495
618.00,0.0494
617.00,0.0493
616.00,0.0492
615.00,0.0491
614.00,0.0490
613.00,0.0488
612.00,0.0487
611.00,0.0486
610.00,0.0484
609.00,0.0484
608.00,0.0484
607.00,0.0483
606.00,0.0483
605.00,0.0482
604.00,0.0482
603.00,0.0481
602.00,0.0480
601.00,0.0480
600.00,0.0480
599.00,0.0480
598.00,0.0480
597.00,0.0480
596.00,0.0481
595.00,0.0481
594.00,0.0481
593.00,0.0480
592.00,0.0480
591.00,0.0480
590.00,0.0480
589.00,0.0480
588.00,0.0480
587.00,0.0481
586.00,0.0482
585.00,0.0482
584.00,0.0483
583.00,0.0483
582.00,0.0483
581.00,0.0484
580.00,0.0484
579.00,0.0484
578.00,0.0484
577.00,0.0485
576.00,0.0485
575.00,0.0486
574.00,0.0487
573.00,0.0488
572.00,0.0489
571.00,0.0489
570.00,0.0489
569.00,0.0490
568.00,0.0490
567.00,0.0491
566.00,0.0491
565.00,0.0491
564.00,0.0492
563.00,0.0493
562.00,0.0493
561.00,0.0493
560.00,0.0494
559.00,0.0495
558.00,0.0496
557.00,0.0497
556.00,0.0498
555.00,0.0498
554.00,0.0498
553.00,0.0498
552.00,0.0499
551.00,0.0499
550.00,0.0499
549.00,0.0499
548.00,0.0499
547.00,0.0499
546.00,0.0499
545.00,0.0499
544.00,0.0499
543.00,0.0499
542.00,0.0500
541.00,0.0500
540.00,0.0500
539.00,0.0500
538.00,0.0500
537.00,0.0499
536.00,0.0500
535.00,0.0500
534.00,0.0501
533.00,0.0501
532.00,0.0501
531.00,0.0501
530.00,0.0502
529.00,0.0502
528.00,0.0503
527.00,0.0504
526.00,0.0505
525.00,0.0505
524.00,0.0506
523.00,0.0507
522.00,0.0507
521.00,0.0507
520.00,0.0507
519.00,0.0507
518.00,0.0507
517.00,0.0506
516.00,0.0507
515.00,0.0507
514.00,0.0506
513.00,0.0504
512.00,0.0503
511.00,0.0502
510.00,0.0502
509.00,0.0502
508.00,0.0503
507.00,0.0503
506.00,0.0504
505.00,0.0503
504.00,0.0503
503.00,0.0502
502.00,0.0501
501.00,0.0501
500.00,0.0502
499.00,0.0503
498.00,0.0503
497.00,0.0502
496.00,0.0501
495.00,0.0501
494.00,0.0501
493.00,0.0502
492.00,0.0503
491.00,0.0503
490.00,0.0502
489.00,0.0502
488.00,0.0501
487.00,0.0500
486.00,0.0500
485.00,0.0499
484.00,0.0499
483.00,0.0498
482.00,0.0498
481.00,0.0498
480.00,0.0499
479.00,0.0499
478.00,0.0499
477.00,0.0499
476.00,0.0499
475.00,0.0498
474.00,0.0496
473.00,0.0495
472.00,0.0495
471.00,0.0496
470.00,0.0497
469.00,0.0498
468.00,0.0499
467.00,0.0499
466.00,0.0499
465.00,0.0497
464.00,0.0497
463.00,0.0497
462.00,0.0497
461.00,0.0498
460.00,0.0500
459.00,0.0501
458.00,0.0500
457.00,0.0499
456.00,0.0499
455.00,0.0498
454.00,0.0496
453.00,0.0495
452.00,0.0495
451.00,0.0495
450.00,0.0494
449.00,0.0494
448.00,0.0494
447.00,0.0492
446.00,0.0489
445.00,0.0487
444.00,0.0485
443.00,0.0484
442.00,0.0482
441.00,0.0479
440.00,0.0476
439.00,0.0474
438.00,0.0470
437.00,0.0468
436.00,0.0466
435.00,0.0465
434.00,0.0462
433.00,0.0459
432.00,0.0457
431.00,0.0454
430.00,0.0451
429.00,0.0448
428.00,0.0446
427.00,0.0443
426.00,0.0439
425.00,0.0436
424.00,0.0435
423.00,0.0436
422.00,0.0436
421.00,0.0436
420.00,0.0434
419.00,0.0431
418.00,0.0426
417.00,0.0425
416.00,0.0426
415.00,0.0426
414.00,0.0425
413.00,0.0424
412.00,0.0423
411.00,0.0422
410.00,0.0420
409.00,0.0416
408.00,0.0414
407.00,0.0412
406.00,0.0410
405.00,0.0410
404.00,0.0413
403.00,0.0415
402.00,0.0413
401.00,0.0408
400.00,0.0405
