Created as New Dataset,Sample 306 By YargerLab Date Sunday, August 18 2024
cm-1,A
4000.00,0.0068
3999.00,0.0068
3998.00,0.0068
3997.00,0.0068
3996.00,0.0068
3995.00,0.0068
3994.00,0.0068
3993.00,0.0068
3992.00,0.0068
3991.00,0.0068
3990.00,0.0068
3989.00,0.0068
3988.00,0.0068
3987.00,0.0068
3986.00,0.0068
3985.00,0.0068
3984.00,0.0068
3983.00,0.0068
3982.00,0.0068
3981.00,0.0068
3980.00,0.0068
3979.00,0.0068
3978.00,0.0068
3977.00,0.0068
3976.00,0.0068
3975.00,0.0068
3974.00,0.0068
3973.00,0.0068
3972.00,0.0068
3971.00,0.0068
3970.00,0.0068
3969.00,0.0068
3968.00,0.0068
3967.00,0.0068
3966.00,0.0068
3965.00,0.0068
3964.00,0.0068
3963.00,0.0068
3962.00,0.0068
3961.00,0.0068
3960.00,0.0068
3959.00,0.0068
3958.00,0.0068
3957.00,0.0068
3956.00,0.0068
3955.00,0.0068
3954.00,0.0068
3953.00,0.0068
3952.00,0.0068
3951.00,0.0068
3950.00,0.0068
3949.00,0.0068
3948.00,0.0068
3947.00,0.0068
3946.00,0.0068
3945.00,0.0068
3944.00,0.0068
3943.00,0.0068
3942.00,0.0068
3941.00,0.0068
3940.00,0.0068
3939.00,0.0068
3938.00,0.0068
3937.00,0.0068
3936.00,0.0068
3935.00,0.0068
3934.00,0.0068
3933.00,0.0068
3932.00,0.0068
3931.00,0.0068
3930.00,0.0068
3929.00,0.0068
3928.00,0.0067
3927.00,0.0067
3926.00,0.0067
3925.00,0.0068
3924.00,0.0068
3923.00,0.0068
3922.00,0.0068
3921.00,0.0068
3920.00,0.0068
3919.00,0.0068
3918.00,0.0068
3917.00,0.0068
3916.00,0.0068
3915.00,0.0067
3914.00,0.0067
3913.00,0.0067
3912.00,0.0067
3911.00,0.0067
3910.00,0.0067
3909.00,0.0067
3908.00,0.0067
3907.00,0.0067
3906.00,0.0067
3905.00,0.0067
3904.00,0.0068
3903.00,0.0068
3902.00,0.0068
3901.00,0.0068
3900.00,0.0068
3899.00,0.0067
3898.00,0.0067
3897.00,0.0067
3896.00,0.0067
3895.00,0.0067
3894.00,0.0067
3893.00,0.0067
3892.00,0.0067
3891.00,0.0067
3890.00,0.0067
3889.00,0.0067
3888.00,0.0067
3887.00,0.0067
3886.00,0.0067
3885.00,0.0067
3884.00,0.0067
3883.00,0.0067
3882.00,0.0067
3881.00,0.0067
3880.00,0.0067
3879.00,0.0067
3878.00,0.0067
3877.00,0.0067
3876.00,0.0067
3875.00,0.0067
3874.00,0.0066
3873.00,0.0067
3872.00,0.0067
3871.00,0.0067
3870.00,0.0067
3869.00,0.0067
3868.00,0.0067
3867.00,0.0067
3866.00,0.0067
3865.00,0.0066
3864.00,0.0066
3863.00,0.0066
3862.00,0.0066
3861.00,0.0066
3860.00,0.0066
3859.00,0.0066
3858.00,0.0066
3857.00,0.0066
3856.00,0.0066
3855.00,0.0066
3854.00,0.0066
3853.00,0.0066
3852.00,0.0066
3851.00,0.0066
3850.00,0.0066
3849.00,0.0066
3848.00,0.0066
3847.00,0.0066
3846.00,0.0066
3845.00,0.0066
3844.00,0.0066
3843.00,0.0066
3842.00,0.0066
3841.00,0.0066
3840.00,0.0066
3839.00,0.0066
3838.00,0.0066
3837.00,0.0066
3836.00,0.0066
3835.00,0.0066
3834.00,0.0066
3833.00,0.0066
3832.00,0.0066
3831.00,0.0065
3830.00,0.0065
3829.00,0.0065
3828.00,0.0065
3827.00,0.0065
3826.00,0.0065
3825.00,0.0065
3824.00,0.0066
3823.00,0.0066
3822.00,0.0066
3821.00,0.0065
3820.00,0.0065
3819.00,0.0065
3818.00,0.0065
3817.00,0.0065
3816.00,0.0065
3815.00,0.0065
3814.00,0.0065
3813.00,0.0065
3812.00,0.0065
3811.00,0.0065
3810.00,0.0065
3809.00,0.0065
3808.00,0.0065
3807.00,0.0065
3806.00,0.0065
3805.00,0.0065
3804.00,0.0065
3803.00,0.0065
3802.00,0.0065
3801.00,0.0065
3800.00,0.0065
3799.00,0.0065
3798.00,0.0065
3797.00,0.0065
3796.00,0.0065
3795.00,0.0065
3794.00,0.0065
3793.00,0.0065
3792.00,0.0064
3791.00,0.0064
3790.00,0.0064
3789.00,0.0064
3788.00,0.0064
3787.00,0.0064
3786.00,0.0064
3785.00,0.0064
3784.00,0.0064
3783.00,0.0064
3782.00,0.0064
3781.00,0.0064
3780.00,0.0064
3779.00,0.0064
3778.00,0.0064
3777.00,0.0064
3776.00,0.0064
3775.00,0.0064
3774.00,0.0064
3773.00,0.0064
3772.00,0.0064
3771.00,0.0064
3770.00,0.0064
3769.00,0.0064
3768.00,0.0064
3767.00,0.0064
3766.00,0.0064
3765.00,0.0064
3764.00,0.0064
3763.00,0.0064
3762.00,0.0064
3761.00,0.0064
3760.00,0.0064
3759.00,0.0064
3758.00,0.0064
3757.00,0.0064
3756.00,0.0064
3755.00,0.0064
3754.00,0.0064
3753.00,0.0064
3752.00,0.0065
3751.00,0.0065
3750.00,0.0065
3749.00,0.0065
3748.00,0.0065
3747.00,0.0065
3746.00,0.0065
3745.00,0.0064
3744.00,0.0064
3743.00,0.0064
3742.00,0.0064
3741.00,0.0064
3740.00,0.0064
3739.00,0.0064
3738.00,0.0064
3737.00,0.0064
3736.00,0.0064
3735.00,0.0064
3734.00,0.0063
3733.00,0.0063
3732.00,0.0063
3731.00,0.0063
3730.00,0.0063
3729.00,0.0063
3728.00,0.0063
3727.00,0.0063
3726.00,0.0063
3725.00,0.0063
3724.00,0.0063
3723.00,0.0063
3722.00,0.0063
3721.00,0.0063
3720.00,0.0062
3719.00,0.0062
3718.00,0.0062
3717.00,0.0062
3716.00,0.0062
3715.00,0.0062
3714.00,0.0062
3713.00,0.0062
3712.00,0.0062
3711.00,0.0062
3710.00,0.0062
3709.00,0.0062
3708.00,0.0062
3707.00,0.0061
3706.00,0.0061
3705.00,0.0061
3704.00,0.0061
3703.00,0.0061
3702.00,0.0060
3701.00,0.0060
3700.00,0.0060
3699.00,0.0060
3698.00,0.0060
3697.00,0.0061
3696.00,0.0061
3695.00,0.0061
3694.00,0.0061
3693.00,0.0061
3692.00,0.0061
3691.00,0.0060
3690.00,0.0060
3689.00,0.0060
3688.00,0.0060
3687.00,0.0060
3686.00,0.0060
3685.00,0.0061
3684.00,0.0061
3683.00,0.0061
3682.00,0.0061
3681.00,0.0061
3680.00,0.0061
3679.00,0.0062
3678.00,0.0062
3677.00,0.0062
3676.00,0.0062
3675.00,0.0062
3674.00,0.0062
3673.00,0.0062
3672.00,0.0062
3671.00,0.0062
3670.00,0.0062
3669.00,0.0062
3668.00,0.0062
3667.00,0.0062
3666.00,0.0062
3665.00,0.0062
3664.00,0.0062
3663.00,0.0062
3662.00,0.0062
3661.00,0.0062
3660.00,0.0062
3659.00,0.0063
3658.00,0.0063
3657.00,0.0063
3656.00,0.0063
3655.00,0.0063
3654.00,0.0063
3653.00,0.0064
3652.00,0.0064
3651.00,0.0064
3650.00,0.0064
3649.00,0.0064
3648.00,0.0065
3647.00,0.0065
3646.00,0.0065
3645.00,0.0065
3644.00,0.0065
3643.00,0.0065
3642.00,0.0065
3641.00,0.0065
3640.00,0.0065
3639.00,0.0065
3638.00,0.0065
3637.00,0.0066
3636.00,0.0066
3635.00,0.0066
3634.00,0.0066
3633.00,0.0066
3632.00,0.0067
3631.00,0.0067
3630.00,0.0067
3629.00,0.0067
3628.00,0.0067
3627.00,0.0068
3626.00,0.0068
3625.00,0.0068
3624.00,0.0068
3623.00,0.0068
3622.00,0.0068
3621.00,0.0068
3620.00,0.0068
3619.00,0.0069
3618.00,0.0069
3617.00,0.0070
3616.00,0.0070
3615.00,0.0071
3614.00,0.0071
3613.00,0.0072
3612.00,0.0072
3611.00,0.0072
3610.00,0.0072
3609.00,0.0073
3608.00,0.0073
3607.00,0.0073
3606.00,0.0073
3605.00,0.0073
3604.00,0.0073
3603.00,0.0073
3602.00,0.0073
3601.00,0.0073
3600.00,0.0073
3599.00,0.0074
3598.00,0.0074
3597.00,0.0074
3596.00,0.0075
3595.00,0.0075
3594.00,0.0075
3593.00,0.0076
3592.00,0.0076
3591.00,0.0076
3590.00,0.0077
3589.00,0.0077
3588.00,0.0077
3587.00,0.0077
3586.00,0.0078
3585.00,0.0078
3584.00,0.0078
3583.00,0.0079
3582.00,0.0079
3581.00,0.0079
3580.00,0.0079
3579.00,0.0079
3578.00,0.0080
3577.00,0.0080
3576.00,0.0080
3575.00,0.0081
3574.00,0.0081
3573.00,0.0081
3572.00,0.0082
3571.00,0.0082
3570.00,0.0083
3569.00,0.0083
3568.00,0.0083
3567.00,0.0084
3566.00,0.0084
3565.00,0.0085
3564.00,0.0085
3563.00,0.0085
3562.00,0.0085
3561.00,0.0085
3560.00,0.0086
3559.00,0.0086
3558.00,0.0086
3557.00,0.0087
3556.00,0.0087
3555.00,0.0088
3554.00,0.0088
3553.00,0.0089
3552.00,0.0089
3551.00,0.0090
3550.00,0.0090
3549.00,0.0091
3548.00,0.0091
3547.00,0.0092
3546.00,0.0092
3545.00,0.0092
3544.00,0.0093
3543.00,0.0093
3542.00,0.0093
3541.00,0.0093
3540.00,0.0093
3539.00,0.0093
3538.00,0.0094
3537.00,0.0094
3536.00,0.0095
3535.00,0.0095
3534.00,0.0095
3533.00,0.0096
3532.00,0.0096
3531.00,0.0096
3530.00,0.0097
3529.00,0.0097
3528.00,0.0098
3527.00,0.0098
3526.00,0.0099
3525.00,0.0099
3524.00,0.0100
3523.00,0.0100
3522.00,0.0100
3521.00,0.0100
3520.00,0.0101
3519.00,0.0101
3518.00,0.0101
3517.00,0.0102
3516.00,0.0102
3515.00,0.0102
3514.00,0.0103
3513.00,0.0103
3512.00,0.0103
3511.00,0.0104
3510.00,0.0104
3509.00,0.0104
3508.00,0.0105
3507.00,0.0105
3506.00,0.0106
3505.00,0.0106
3504.00,0.0106
3503.00,0.0107
3502.00,0.0108
3501.00,0.0108
3500.00,0.0108
3499.00,0.0109
3498.00,0.0109
3497.00,0.0109
3496.00,0.0109
3495.00,0.0110
3494.00,0.0110
3493.00,0.0111
3492.00,0.0111
3491.00,0.0111
3490.00,0.0112
3489.00,0.0112
3488.00,0.0113
3487.00,0.0113
3486.00,0.0113
3485.00,0.0114
3484.00,0.0114
3483.00,0.0114
3482.00,0.0115
3481.00,0.0115
3480.00,0.0115
3479.00,0.0116
3478.00,0.0116
3477.00,0.0116
3476.00,0.0117
3475.00,0.0117
3474.00,0.0118
3473.00,0.0118
3472.00,0.0119
3471.00,0.0119
3470.00,0.0119
3469.00,0.0120
3468.00,0.0120
3467.00,0.0121
3466.00,0.0121
3465.00,0.0122
3464.00,0.0122
3463.00,0.0122
3462.00,0.0123
3461.00,0.0123
3460.00,0.0123
3459.00,0.0124
3458.00,0.0124
3457.00,0.0124
3456.00,0.0125
3455.00,0.0125
3454.00,0.0125
3453.00,0.0126
3452.00,0.0126
3451.00,0.0127
3450.00,0.0127
3449.00,0.0127
3448.00,0.0128
3447.00,0.0128
3446.00,0.0128
3445.00,0.0129
3444.00,0.0129
3443.00,0.0130
3442.00,0.0130
3441.00,0.0131
3440.00,0.0131
3439.00,0.0132
3438.00,0.0132
3437.00,0.0132
3436.00,0.0133
3435.00,0.0133
3434.00,0.0133
3433.00,0.0134
3432.00,0.0134
3431.00,0.0135
3430.00,0.0135
3429.00,0.0136
3428.00,0.0136
3427.00,0.0136
3426.00,0.0137
3425.00,0.0137
3424.00,0.0138
3423.00,0.0138
3422.00,0.0139
3421.00,0.0139
3420.00,0.0139
3419.00,0.0140
3418.00,0.0140
3417.00,0.0140
3416.00,0.0141
3415.00,0.0141
3414.00,0.0141
3413.00,0.0142
3412.00,0.0142
3411.00,0.0143
3410.00,0.0143
3409.00,0.0143
3408.00,0.0144
3407.00,0.0144
3406.00,0.0144
3405.00,0.0145
3404.00,0.0145
3403.00,0.0146
3402.00,0.0146
3401.00,0.0146
3400.00,0.0147
3399.00,0.0147
3398.00,0.0147
3397.00,0.0148
3396.00,0.0148
3395.00,0.0148
3394.00,0.0148
3393.00,0.0149
3392.00,0.0149
3391.00,0.0150
3390.00,0.0150
3389.00,0.0150
3388.00,0.0151
3387.00,0.0151
3386.00,0.0151
3385.00,0.0152
3384.00,0.0152
3383.00,0.0152
3382.00,0.0153
3381.00,0.0153
3380.00,0.0153
3379.00,0.0154
3378.00,0.0154
3377.00,0.0155
3376.00,0.0155
3375.00,0.0155
3374.00,0.0156
3373.00,0.0156
3372.00,0.0156
3371.00,0.0157
3370.00,0.0157
3369.00,0.0158
3368.00,0.0158
3367.00,0.0159
3366.00,0.0159
3365.00,0.0160
3364.00,0.0160
3363.00,0.0161
3362.00,0.0161
3361.00,0.0162
3360.00,0.0162
3359.00,0.0163
3358.00,0.0164
3357.00,0.0164
3356.00,0.0165
3355.00,0.0165
3354.00,0.0166
3353.00,0.0166
3352.00,0.0167
3351.00,0.0168
3350.00,0.0168
3349.00,0.0169
3348.00,0.0170
3347.00,0.0170
3346.00,0.0171
3345.00,0.0172
3344.00,0.0172
3343.00,0.0173
3342.00,0.0173
3341.00,0.0174
3340.00,0.0175
3339.00,0.0176
3338.00,0.0177
3337.00,0.0177
3336.00,0.0178
3335.00,0.0179
3334.00,0.0180
3333.00,0.0181
3332.00,0.0181
3331.00,0.0182
3330.00,0.0183
3329.00,0.0184
3328.00,0.0185
3327.00,0.0185
3326.00,0.0186
3325.00,0.0188
3324.00,0.0189
3323.00,0.0190
3322.00,0.0191
3321.00,0.0192
3320.00,0.0193
3319.00,0.0194
3318.00,0.0195
3317.00,0.0197
3316.00,0.0198
3315.00,0.0199
3314.00,0.0200
3313.00,0.0201
3312.00,0.0202
3311.00,0.0203
3310.00,0.0205
3309.00,0.0206
3308.00,0.0207
3307.00,0.0208
3306.00,0.0210
3305.00,0.0212
3304.00,0.0213
3303.00,0.0215
3302.00,0.0217
3301.00,0.0218
3300.00,0.0220
3299.00,0.0221
3298.00,0.0222
3297.00,0.0223
3296.00,0.0225
3295.00,0.0226
3294.00,0.0228
3293.00,0.0229
3292.00,0.0231
3291.00,0.0232
3290.00,0.0234
3289.00,0.0235
3288.00,0.0237
3287.00,0.0238
3286.00,0.0239
3285.00,0.0241
3284.00,0.0242
3283.00,0.0243
3282.00,0.0244
3281.00,0.0245
3280.00,0.0245
3279.00,0.0246
3278.00,0.0246
3277.00,0.0247
3276.00,0.0247
3275.00,0.0247
3274.00,0.0247
3273.00,0.0248
3272.00,0.0248
3271.00,0.0248
3270.00,0.0248
3269.00,0.0248
3268.00,0.0247
3267.00,0.0247
3266.00,0.0246
3265.00,0.0246
3264.00,0.0245
3263.00,0.0244
3262.00,0.0243
3261.00,0.0242
3260.00,0.0241
3259.00,0.0240
3258.00,0.0238
3257.00,0.0237
3256.00,0.0236
3255.00,0.0235
3254.00,0.0234
3253.00,0.0233
3252.00,0.0232
3251.00,0.0230
3250.00,0.0229
3249.00,0.0227
3248.00,0.0226
3247.00,0.0225
3246.00,0.0224
3245.00,0.0223
3244.00,0.0222
3243.00,0.0221
3242.00,0.0220
3241.00,0.0219
3240.00,0.0218
3239.00,0.0217
3238.00,0.0216
3237.00,0.0214
3236.00,0.0213
3235.00,0.0212
3234.00,0.0211
3233.00,0.0210
3232.00,0.0209
3231.00,0.0209
3230.00,0.0208
3229.00,0.0207
3228.00,0.0207
3227.00,0.0206
3226.00,0.0205
3225.00,0.0205
3224.00,0.0204
3223.00,0.0203
3222.00,0.0202
3221.00,0.0202
3220.00,0.0201
3219.00,0.0201
3218.00,0.0200
3217.00,0.0199
3216.00,0.0199
3215.00,0.0198
3214.00,0.0197
3213.00,0.0197
3212.00,0.0196
3211.00,0.0196
3210.00,0.0195
3209.00,0.0194
3208.00,0.0194
3207.00,0.0193
3206.00,0.0193
3205.00,0.0192
3204.00,0.0192
3203.00,0.0191
3202.00,0.0190
3201.00,0.0190
3200.00,0.0189
3199.00,0.0188
3198.00,0.0188
3197.00,0.0187
3196.00,0.0187
3195.00,0.0186
3194.00,0.0185
3193.00,0.0185
3192.00,0.0184
3191.00,0.0183
3190.00,0.0183
3189.00,0.0182
3188.00,0.0182
3187.00,0.0181
3186.00,0.0181
3185.00,0.0180
3184.00,0.0179
3183.00,0.0179
3182.00,0.0178
3181.00,0.0177
3180.00,0.0177
3179.00,0.0176
3178.00,0.0176
3177.00,0.0175
3176.00,0.0174
3175.00,0.0174
3174.00,0.0173
3173.00,0.0172
3172.00,0.0172
3171.00,0.0171
3170.00,0.0170
3169.00,0.0170
3168.00,0.0169
3167.00,0.0168
3166.00,0.0168
3165.00,0.0167
3164.00,0.0166
3163.00,0.0166
3162.00,0.0165
3161.00,0.0165
3160.00,0.0164
3159.00,0.0164
3158.00,0.0163
3157.00,0.0162
3156.00,0.0162
3155.00,0.0161
3154.00,0.0160
3153.00,0.0160
3152.00,0.0159
3151.00,0.0159
3150.00,0.0158
3149.00,0.0158
3148.00,0.0157
3147.00,0.0157
3146.00,0.0156
3145.00,0.0156
3144.00,0.0155
3143.00,0.0155
3142.00,0.0154
3141.00,0.0154
3140.00,0.0153
3139.00,0.0153
3138.00,0.0153
3137.00,0.0152
3136.00,0.0152
3135.00,0.0151
3134.00,0.0151
3133.00,0.0150
3132.00,0.0150
3131.00,0.0150
3130.00,0.0149
3129.00,0.0149
3128.00,0.0149
3127.00,0.0148
3126.00,0.0148
3125.00,0.0148
3124.00,0.0147
3123.00,0.0147
3122.00,0.0146
3121.00,0.0146
3120.00,0.0146
3119.00,0.0145
3118.00,0.0145
3117.00,0.0145
3116.00,0.0145
3115.00,0.0145
3114.00,0.0145
3113.00,0.0145
3112.00,0.0145
3111.00,0.0145
3110.00,0.0144
3109.00,0.0144
3108.00,0.0144
3107.00,0.0144
3106.00,0.0144
3105.00,0.0144
3104.00,0.0144
3103.00,0.0144
3102.00,0.0144
3101.00,0.0144
3100.00,0.0144
3099.00,0.0144
3098.00,0.0144
3097.00,0.0144
3096.00,0.0144
3095.00,0.0144
3094.00,0.0144
3093.00,0.0144
3092.00,0.0144
3091.00,0.0144
3090.00,0.0144
3089.00,0.0144
3088.00,0.0144
3087.00,0.0144
3086.00,0.0144
3085.00,0.0144
3084.00,0.0144
3083.00,0.0144
3082.00,0.0144
3081.00,0.0144
3080.00,0.0144
3079.00,0.0144
3078.00,0.0144
3077.00,0.0145
3076.00,0.0145
3075.00,0.0145
3074.00,0.0145
3073.00,0.0145
3072.00,0.0145
3071.00,0.0145
3070.00,0.0144
3069.00,0.0144
3068.00,0.0144
3067.00,0.0144
3066.00,0.0144
3065.00,0.0144
3064.00,0.0144
3063.00,0.0144
3062.00,0.0144
3061.00,0.0144
3060.00,0.0143
3059.00,0.0143
3058.00,0.0143
3057.00,0.0142
3056.00,0.0142
3055.00,0.0142
3054.00,0.0141
3053.00,0.0141
3052.00,0.0141
3051.00,0.0140
3050.00,0.0140
3049.00,0.0140
3048.00,0.0139
3047.00,0.0139
3046.00,0.0138
3045.00,0.0138
3044.00,0.0137
3043.00,0.0137
3042.00,0.0136
3041.00,0.0136
3040.00,0.0136
3039.00,0.0136
3038.00,0.0136
3037.00,0.0135
3036.00,0.0134
3035.00,0.0134
3034.00,0.0133
3033.00,0.0133
3032.00,0.0133
3031.00,0.0133
3030.00,0.0133
3029.00,0.0132
3028.00,0.0132
3027.00,0.0132
3026.00,0.0131
3025.00,0.0130
3024.00,0.0130
3023.00,0.0130
3022.00,0.0129
3021.00,0.0129
3020.00,0.0128
3019.00,0.0128
3018.00,0.0127
3017.00,0.0127
3016.00,0.0126
3015.00,0.0126
3014.00,0.0125
3013.00,0.0125
3012.00,0.0125
3011.00,0.0125
3010.00,0.0125
3009.00,0.0125
3008.00,0.0125
3007.00,0.0125
3006.00,0.0125
3005.00,0.0125
3004.00,0.0125
3003.00,0.0125
3002.00,0.0124
3001.00,0.0124
3000.00,0.0124
2999.00,0.0124
2998.00,0.0124
2997.00,0.0124
2996.00,0.0124
2995.00,0.0124
2994.00,0.0124
2993.00,0.0124
2992.00,0.0125
2991.00,0.0125
2990.00,0.0125
2989.00,0.0126
2988.00,0.0126
2987.00,0.0127
2986.00,0.0127
2985.00,0.0127
2984.00,0.0128
2983.00,0.0128
2982.00,0.0128
2981.00,0.0129
2980.00,0.0129
2979.00,0.0130
2978.00,0.0130
2977.00,0.0130
2976.00,0.0131
2975.00,0.0131
2974.00,0.0131
2973.00,0.0132
2972.00,0.0132
2971.00,0.0132
2970.00,0.0132
2969.00,0.0132
2968.00,0.0132
2967.00,0.0132
2966.00,0.0132
2965.00,0.0132
2964.00,0.0132
2963.00,0.0132
2962.00,0.0132
2961.00,0.0132
2960.00,0.0131
2959.00,0.0131
2958.00,0.0131
2957.00,0.0131
2956.00,0.0130
2955.00,0.0130
2954.00,0.0130
2953.00,0.0130
2952.00,0.0130
2951.00,0.0130
2950.00,0.0130
2949.00,0.0130
2948.00,0.0130
2947.00,0.0130
2946.00,0.0130
2945.00,0.0130
2944.00,0.0131
2943.00,0.0131
2942.00,0.0131
2941.00,0.0131
2940.00,0.0132
2939.00,0.0132
2938.00,0.0132
2937.00,0.0132
2936.00,0.0132
2935.00,0.0132
2934.00,0.0132
2933.00,0.0131
2932.00,0.0130
2931.00,0.0130
2930.00,0.0129
2929.00,0.0128
2928.00,0.0127
2927.00,0.0126
2926.00,0.0125
2925.00,0.0124
2924.00,0.0122
2923.00,0.0121
2922.00,0.0119
2921.00,0.0117
2920.00,0.0115
2919.00,0.0113
2918.00,0.0112
2917.00,0.0111
2916.00,0.0110
2915.00,0.0111
2914.00,0.0112
2913.00,0.0114
2912.00,0.0115
2911.00,0.0117
2910.00,0.0117
2909.00,0.0118
2908.00,0.0118
2907.00,0.0119
2906.00,0.0119
2905.00,0.0119
2904.00,0.0119
2903.00,0.0119
2902.00,0.0119
2901.00,0.0119
2900.00,0.0119
2899.00,0.0119
2898.00,0.0119
2897.00,0.0119
2896.00,0.0119
2895.00,0.0119
2894.00,0.0119
2893.00,0.0119
2892.00,0.0119
2891.00,0.0119
2890.00,0.0119
2889.00,0.0119
2888.00,0.0119
2887.00,0.0119
2886.00,0.0120
2885.00,0.0120
2884.00,0.0120
2883.00,0.0121
2882.00,0.0121
2881.00,0.0121
2880.00,0.0122
2879.00,0.0122
2878.00,0.0122
2877.00,0.0122
2876.00,0.0122
2875.00,0.0122
2874.00,0.0122
2873.00,0.0122
2872.00,0.0121
2871.00,0.0121
2870.00,0.0121
2869.00,0.0120
2868.00,0.0120
2867.00,0.0119
2866.00,0.0118
2865.00,0.0118
2864.00,0.0117
2863.00,0.0116
2862.00,0.0115
2861.00,0.0115
2860.00,0.0114
2859.00,0.0113
2858.00,0.0113
2857.00,0.0112
2856.00,0.0111
2855.00,0.0110
2854.00,0.0108
2853.00,0.0107
2852.00,0.0105
2851.00,0.0103
2850.00,0.0101
2849.00,0.0101
2848.00,0.0101
2847.00,0.0102
2846.00,0.0103
2845.00,0.0105
2844.00,0.0106
2843.00,0.0107
2842.00,0.0108
2841.00,0.0108
2840.00,0.0108
2839.00,0.0108
2838.00,0.0108
2837.00,0.0108
2836.00,0.0108
2835.00,0.0108
2834.00,0.0108
2833.00,0.0108
2832.00,0.0108
2831.00,0.0108
2830.00,0.0107
2829.00,0.0107
2828.00,0.0107
2827.00,0.0107
2826.00,0.0107
2825.00,0.0107
2824.00,0.0106
2823.00,0.0106
2822.00,0.0106
2821.00,0.0106
2820.00,0.0106
2819.00,0.0106
2818.00,0.0106
2817.00,0.0105
2816.00,0.0105
2815.00,0.0105
2814.00,0.0105
2813.00,0.0105
2812.00,0.0105
2811.00,0.0105
2810.00,0.0105
2809.00,0.0104
2808.00,0.0104
2807.00,0.0104
2806.00,0.0104
2805.00,0.0104
2804.00,0.0104
2803.00,0.0104
2802.00,0.0103
2801.00,0.0103
2800.00,0.0103
2799.00,0.0103
2798.00,0.0103
2797.00,0.0103
2796.00,0.0103
2795.00,0.0103
2794.00,0.0103
2793.00,0.0103
2792.00,0.0102
2791.00,0.0102
2790.00,0.0102
2789.00,0.0102
2788.00,0.0102
2787.00,0.0102
2786.00,0.0102
2785.00,0.0102
2784.00,0.0102
2783.00,0.0102
2782.00,0.0101
2781.00,0.0101
2780.00,0.0101
2779.00,0.0101
2778.00,0.0101
2777.00,0.0101
2776.00,0.0101
2775.00,0.0101
2774.00,0.0100
2773.00,0.0100
2772.00,0.0100
2771.00,0.0100
2770.00,0.0100
2769.00,0.0100
2768.00,0.0100
2767.00,0.0100
2766.00,0.0100
2765.00,0.0099
2764.00,0.0099
2763.00,0.0099
2762.00,0.0099
2761.00,0.0099
2760.00,0.0099
2759.00,0.0099
2758.00,0.0099
2757.00,0.0098
2756.00,0.0098
2755.00,0.0098
2754.00,0.0098
2753.00,0.0098
2752.00,0.0098
2751.00,0.0098
2750.00,0.0098
2749.00,0.0098
2748.00,0.0098
2747.00,0.0098
2746.00,0.0098
2745.00,0.0097
2744.00,0.0097
2743.00,0.0097
2742.00,0.0097
2741.00,0.0097
2740.00,0.0097
2739.00,0.0096
2738.00,0.0096
2737.00,0.0096
2736.00,0.0096
2735.00,0.0096
2734.00,0.0096
2733.00,0.0096
2732.00,0.0096
2731.00,0.0096
2730.00,0.0096
2729.00,0.0095
2728.00,0.0095
2727.00,0.0095
2726.00,0.0095
2725.00,0.0095
2724.00,0.0095
2723.00,0.0095
2722.00,0.0095
2721.00,0.0094
2720.00,0.0094
2719.00,0.0094
2718.00,0.0094
2717.00,0.0094
2716.00,0.0094
2715.00,0.0094
2714.00,0.0094
2713.00,0.0094
2712.00,0.0093
2711.00,0.0093
2710.00,0.0093
2709.00,0.0093
2708.00,0.0093
2707.00,0.0093
2706.00,0.0093
2705.00,0.0092
2704.00,0.0092
2703.00,0.0092
2702.00,0.0092
2701.00,0.0092
2700.00,0.0092
2699.00,0.0092
2698.00,0.0092
2697.00,0.0092
2696.00,0.0092
2695.00,0.0092
2694.00,0.0092
2693.00,0.0092
2692.00,0.0091
2691.00,0.0091
2690.00,0.0091
2689.00,0.0091
2688.00,0.0091
2687.00,0.0091
2686.00,0.0091
2685.00,0.0091
2684.00,0.0091
2683.00,0.0090
2682.00,0.0090
2681.00,0.0090
2680.00,0.0090
2679.00,0.0090
2678.00,0.0090
2677.00,0.0090
2676.00,0.0090
2675.00,0.0090
2674.00,0.0090
2673.00,0.0090
2672.00,0.0090
2671.00,0.0090
2670.00,0.0090
2669.00,0.0090
2668.00,0.0090
2667.00,0.0090
2666.00,0.0090
2665.00,0.0091
2664.00,0.0091
2663.00,0.0091
2662.00,0.0091
2661.00,0.0092
2660.00,0.0092
2659.00,0.0092
2658.00,0.0092
2657.00,0.0092
2656.00,0.0092
2655.00,0.0092
2654.00,0.0092
2653.00,0.0092
2652.00,0.0092
2651.00,0.0092
2650.00,0.0092
2649.00,0.0092
2648.00,0.0092
2647.00,0.0092
2646.00,0.0092
2645.00,0.0091
2644.00,0.0091
2643.00,0.0091
2642.00,0.0091
2641.00,0.0091
2640.00,0.0091
2639.00,0.0091
2638.00,0.0091
2637.00,0.0090
2636.00,0.0090
2635.00,0.0090
2634.00,0.0090
2633.00,0.0090
2632.00,0.0090
2631.00,0.0090
2630.00,0.0090
2629.00,0.0089
2628.00,0.0089
2627.00,0.0089
2626.00,0.0089
2625.00,0.0089
2624.00,0.0089
2623.00,0.0088
2622.00,0.0088
2621.00,0.0088
2620.00,0.0088
2619.00,0.0088
2618.00,0.0088
2617.00,0.0088
2616.00,0.0088
2615.00,0.0087
2614.00,0.0087
2613.00,0.0087
2612.00,0.0087
2611.00,0.0087
2610.00,0.0087
2609.00,0.0087
2608.00,0.0087
2607.00,0.0087
2606.00,0.0086
2605.00,0.0086
2604.00,0.0086
2603.00,0.0086
2602.00,0.0086
2601.00,0.0086
2600.00,0.0086
2599.00,0.0085
2598.00,0.0085
2597.00,0.0085
2596.00,0.0085
2595.00,0.0085
2594.00,0.0085
2593.00,0.0085
2592.00,0.0085
2591.00,0.0084
2590.00,0.0084
2589.00,0.0084
2588.00,0.0084
2587.00,0.0084
2586.00,0.0084
2585.00,0.0084
2584.00,0.0084
2583.00,0.0083
2582.00,0.0083
2581.00,0.0083
2580.00,0.0083
2579.00,0.0083
2578.00,0.0083
2577.00,0.0083
2576.00,0.0082
2575.00,0.0082
2574.00,0.0082
2573.00,0.0082
2572.00,0.0082
2571.00,0.0082
2570.00,0.0082
2569.00,0.0082
2568.00,0.0082
2567.00,0.0081
2566.00,0.0081
2565.00,0.0081
2564.00,0.0081
2563.00,0.0081
2562.00,0.0081
2561.00,0.0081
2560.00,0.0081
2559.00,0.0081
2558.00,0.0081
2557.00,0.0081
2556.00,0.0081
2555.00,0.0081
2554.00,0.0080
2553.00,0.0080
2552.00,0.0080
2551.00,0.0080
2550.00,0.0080
2549.00,0.0080
2548.00,0.0080
2547.00,0.0080
2546.00,0.0080
2545.00,0.0080
2544.00,0.0080
2543.00,0.0080
2542.00,0.0079
2541.00,0.0079
2540.00,0.0079
2539.00,0.0079
2538.00,0.0079
2537.00,0.0079
2536.00,0.0079
2535.00,0.0079
2534.00,0.0079
2533.00,0.0079
2532.00,0.0079
2531.00,0.0079
2530.00,0.0078
2529.00,0.0078
2528.00,0.0078
2527.00,0.0078
2526.00,0.0079
2525.00,0.0079
2524.00,0.0079
2523.00,0.0078
2522.00,0.0078
2521.00,0.0078
2520.00,0.0078
2519.00,0.0078
2518.00,0.0078
2517.00,0.0078
2516.00,0.0077
2515.00,0.0077
2514.00,0.0077
2513.00,0.0077
2512.00,0.0077
2511.00,0.0077
2510.00,0.0077
2509.00,0.0077
2508.00,0.0077
2507.00,0.0077
2506.00,0.0077
2505.00,0.0077
2504.00,0.0077
2503.00,0.0077
2502.00,0.0077
2501.00,0.0077
2500.00,0.0077
2499.00,0.0077
2498.00,0.0077
2497.00,0.0077
2496.00,0.0077
2495.00,0.0077
2494.00,0.0077
2493.00,0.0077
2492.00,0.0077
2491.00,0.0076
2490.00,0.0076
2489.00,0.0076
2488.00,0.0076
2487.00,0.0076
2486.00,0.0076
2485.00,0.0076
2484.00,0.0076
2483.00,0.0076
2482.00,0.0076
2481.00,0.0076
2480.00,0.0076
2479.00,0.0076
2478.00,0.0076
2477.00,0.0076
2476.00,0.0075
2475.00,0.0075
2474.00,0.0075
2473.00,0.0075
2472.00,0.0076
2471.00,0.0075
2470.00,0.0075
2469.00,0.0075
2468.00,0.0075
2467.00,0.0075
2466.00,0.0076
2465.00,0.0076
2464.00,0.0076
2463.00,0.0076
2462.00,0.0076
2461.00,0.0076
2460.00,0.0076
2459.00,0.0076
2458.00,0.0076
2457.00,0.0076
2456.00,0.0076
2455.00,0.0076
2454.00,0.0076
2453.00,0.0076
2452.00,0.0076
2451.00,0.0076
2450.00,0.0076
2449.00,0.0075
2448.00,0.0075
2447.00,0.0075
2446.00,0.0075
2445.00,0.0074
2444.00,0.0074
2443.00,0.0074
2442.00,0.0074
2441.00,0.0074
2440.00,0.0074
2439.00,0.0073
2438.00,0.0073
2437.00,0.0074
2436.00,0.0074
2435.00,0.0073
2434.00,0.0073
2433.00,0.0073
2432.00,0.0073
2431.00,0.0073
2430.00,0.0073
2429.00,0.0073
2428.00,0.0072
2427.00,0.0072
2426.00,0.0072
2425.00,0.0072
2424.00,0.0072
2423.00,0.0072
2422.00,0.0072
2421.00,0.0072
2420.00,0.0072
2419.00,0.0072
2418.00,0.0072
2417.00,0.0072
2416.00,0.0072
2415.00,0.0072
2414.00,0.0072
2413.00,0.0072
2412.00,0.0072
2411.00,0.0071
2410.00,0.0071
2409.00,0.0071
2408.00,0.0070
2407.00,0.0070
2406.00,0.0070
2405.00,0.0070
2404.00,0.0070
2403.00,0.0069
2402.00,0.0069
2401.00,0.0069
2400.00,0.0069
2399.00,0.0069
2398.00,0.0069
2397.00,0.0069
2396.00,0.0069
2395.00,0.0069
2394.00,0.0069
2393.00,0.0069
2392.00,0.0069
2391.00,0.0069
2390.00,0.0069
2389.00,0.0069
2388.00,0.0068
2387.00,0.0068
2386.00,0.0067
2385.00,0.0067
2384.00,0.0067
2383.00,0.0066
2382.00,0.0065
2381.00,0.0065
2380.00,0.0064
2379.00,0.0064
2378.00,0.0065
2377.00,0.0065
2376.00,0.0066
2375.00,0.0066
2374.00,0.0066
2373.00,0.0066
2372.00,0.0066
2371.00,0.0065
2370.00,0.0064
2369.00,0.0064
2368.00,0.0064
2367.00,0.0064
2366.00,0.0064
2365.00,0.0065
2364.00,0.0065
2363.00,0.0066
2362.00,0.0066
2361.00,0.0066
2360.00,0.0067
2359.00,0.0066
2358.00,0.0066
2357.00,0.0066
2356.00,0.0066
2355.00,0.0066
2354.00,0.0067
2353.00,0.0066
2352.00,0.0066
2351.00,0.0066
2350.00,0.0066
2349.00,0.0067
2348.00,0.0068
2347.00,0.0068
2346.00,0.0068
2345.00,0.0068
2344.00,0.0068
2343.00,0.0069
2342.00,0.0069
2341.00,0.0069
2340.00,0.0069
2339.00,0.0069
2338.00,0.0069
2337.00,0.0069
2336.00,0.0069
2335.00,0.0069
2334.00,0.0068
2333.00,0.0068
2332.00,0.0067
2331.00,0.0067
2330.00,0.0068
2329.00,0.0069
2328.00,0.0072
2327.00,0.0076
2326.00,0.0078
2325.00,0.0079
2324.00,0.0078
2323.00,0.0077
2322.00,0.0075
2321.00,0.0074
2320.00,0.0073
2319.00,0.0073
2318.00,0.0073
2317.00,0.0073
2316.00,0.0073
2315.00,0.0072
2314.00,0.0071
2313.00,0.0071
2312.00,0.0070
2311.00,0.0070
2310.00,0.0069
2309.00,0.0069
2308.00,0.0069
2307.00,0.0069
2306.00,0.0069
2305.00,0.0070
2304.00,0.0070
2303.00,0.0070
2302.00,0.0071
2301.00,0.0071
2300.00,0.0071
2299.00,0.0071
2298.00,0.0072
2297.00,0.0072
2296.00,0.0072
2295.00,0.0073
2294.00,0.0074
2293.00,0.0075
2292.00,0.0075
2291.00,0.0076
2290.00,0.0077
2289.00,0.0077
2288.00,0.0078
2287.00,0.0078
2286.00,0.0077
2285.00,0.0077
2284.00,0.0076
2283.00,0.0076
2282.00,0.0075
2281.00,0.0075
2280.00,0.0074
2279.00,0.0074
2278.00,0.0073
2277.00,0.0073
2276.00,0.0073
2275.00,0.0073
2274.00,0.0072
2273.00,0.0072
2272.00,0.0072
2271.00,0.0072
2270.00,0.0072
2269.00,0.0072
2268.00,0.0071
2267.00,0.0070
2266.00,0.0070
2265.00,0.0069
2264.00,0.0069
2263.00,0.0070
2262.00,0.0070
2261.00,0.0070
2260.00,0.0071
2259.00,0.0071
2258.00,0.0070
2257.00,0.0070
2256.00,0.0069
2255.00,0.0069
2254.00,0.0068
2253.00,0.0068
2252.00,0.0068
2251.00,0.0068
2250.00,0.0068
2249.00,0.0068
2248.00,0.0068
2247.00,0.0069
2246.00,0.0069
2245.00,0.0069
2244.00,0.0069
2243.00,0.0069
2242.00,0.0070
2241.00,0.0070
2240.00,0.0070
2239.00,0.0070
2238.00,0.0069
2237.00,0.0069
2236.00,0.0069
2235.00,0.0069
2234.00,0.0069
2233.00,0.0068
2232.00,0.0068
2231.00,0.0068
2230.00,0.0068
2229.00,0.0069
2228.00,0.0069
2227.00,0.0069
2226.00,0.0069
2225.00,0.0068
2224.00,0.0068
2223.00,0.0068
2222.00,0.0068
2221.00,0.0068
2220.00,0.0068
2219.00,0.0068
2218.00,0.0068
2217.00,0.0068
2216.00,0.0068
2215.00,0.0068
2214.00,0.0068
2213.00,0.0068
2212.00,0.0067
2211.00,0.0067
2210.00,0.0067
2209.00,0.0067
2208.00,0.0067
2207.00,0.0068
2206.00,0.0068
2205.00,0.0067
2204.00,0.0067
2203.00,0.0067
2202.00,0.0067
2201.00,0.0067
2200.00,0.0068
2199.00,0.0068
2198.00,0.0067
2197.00,0.0067
2196.00,0.0067
2195.00,0.0067
2194.00,0.0067
2193.00,0.0067
2192.00,0.0068
2191.00,0.0069
2190.00,0.0069
2189.00,0.0069
2188.00,0.0069
2187.00,0.0069
2186.00,0.0069
2185.00,0.0068
2184.00,0.0066
2183.00,0.0064
2182.00,0.0063
2181.00,0.0063
2180.00,0.0064
2179.00,0.0064
2178.00,0.0063
2177.00,0.0062
2176.00,0.0061
2175.00,0.0062
2174.00,0.0063
2173.00,0.0065
2172.00,0.0067
2171.00,0.0070
2170.00,0.0071
2169.00,0.0073
2168.00,0.0073
2167.00,0.0073
2166.00,0.0073
2165.00,0.0074
2164.00,0.0075
2163.00,0.0076
2162.00,0.0073
2161.00,0.0065
2160.00,0.0055
2159.00,0.0045
2158.00,0.0039
2157.00,0.0038
2156.00,0.0040
2155.00,0.0043
2154.00,0.0045
2153.00,0.0047
2152.00,0.0048
2151.00,0.0049
2150.00,0.0049
2149.00,0.0050
2148.00,0.0050
2147.00,0.0049
2146.00,0.0049
2145.00,0.0049
2144.00,0.0049
2143.00,0.0049
2142.00,0.0050
2141.00,0.0050
2140.00,0.0050
2139.00,0.0050
2138.00,0.0050
2137.00,0.0048
2136.00,0.0047
2135.00,0.0045
2134.00,0.0045
2133.00,0.0046
2132.00,0.0047
2131.00,0.0049
2130.00,0.0050
2129.00,0.0051
2128.00,0.0052
2127.00,0.0053
2126.00,0.0054
2125.00,0.0055
2124.00,0.0055
2123.00,0.0056
2122.00,0.0056
2121.00,0.0057
2120.00,0.0057
2119.00,0.0058
2118.00,0.0059
2117.00,0.0060
2116.00,0.0061
2115.00,0.0062
2114.00,0.0062
2113.00,0.0062
2112.00,0.0062
2111.00,0.0062
2110.00,0.0062
2109.00,0.0061
2108.00,0.0061
2107.00,0.0061
2106.00,0.0060
2105.00,0.0060
2104.00,0.0060
2103.00,0.0060
2102.00,0.0060
2101.00,0.0060
2100.00,0.0060
2099.00,0.0060
2098.00,0.0060
2097.00,0.0059
2096.00,0.0058
2095.00,0.0057
2094.00,0.0057
2093.00,0.0058
2092.00,0.0059
2091.00,0.0060
2090.00,0.0060
2089.00,0.0060
2088.00,0.0060
2087.00,0.0060
2086.00,0.0061
2085.00,0.0061
2084.00,0.0061
2083.00,0.0061
2082.00,0.0061
2081.00,0.0062
2080.00,0.0062
2079.00,0.0062
2078.00,0.0062
2077.00,0.0062
2076.00,0.0062
2075.00,0.0061
2074.00,0.0061
2073.00,0.0060
2072.00,0.0060
2071.00,0.0059
2070.00,0.0059
2069.00,0.0059
2068.00,0.0059
2067.00,0.0059
2066.00,0.0059
2065.00,0.0059
2064.00,0.0059
2063.00,0.0060
2062.00,0.0060
2061.00,0.0060
2060.00,0.0060
2059.00,0.0060
2058.00,0.0060
2057.00,0.0060
2056.00,0.0060
2055.00,0.0061
2054.00,0.0062
2053.00,0.0065
2052.00,0.0069
2051.00,0.0070
2050.00,0.0068
2049.00,0.0065
2048.00,0.0062
2047.00,0.0060
2046.00,0.0060
2045.00,0.0060
2044.00,0.0060
2043.00,0.0060
2042.00,0.0060
2041.00,0.0060
2040.00,0.0061
2039.00,0.0062
2038.00,0.0062
2037.00,0.0062
2036.00,0.0060
2035.00,0.0058
2034.00,0.0056
2033.00,0.0055
2032.00,0.0054
2031.00,0.0053
2030.00,0.0053
2029.00,0.0053
2028.00,0.0053
2027.00,0.0054
2026.00,0.0054
2025.00,0.0053
2024.00,0.0052
2023.00,0.0052
2022.00,0.0051
2021.00,0.0051
2020.00,0.0052
2019.00,0.0052
2018.00,0.0052
2017.00,0.0052
2016.00,0.0051
2015.00,0.0051
2014.00,0.0051
2013.00,0.0051
2012.00,0.0052
2011.00,0.0053
2010.00,0.0053
2009.00,0.0052
2008.00,0.0050
2007.00,0.0048
2006.00,0.0046
2005.00,0.0046
2004.00,0.0047
2003.00,0.0048
2002.00,0.0049
2001.00,0.0049
2000.00,0.0050
1999.00,0.0050
1998.00,0.0050
1997.00,0.0050
1996.00,0.0051
1995.00,0.0052
1994.00,0.0053
1993.00,0.0053
1992.00,0.0054
1991.00,0.0054
1990.00,0.0054
1989.00,0.0055
1988.00,0.0055
1987.00,0.0056
1986.00,0.0056
1985.00,0.0058
1984.00,0.0060
1983.00,0.0062
1982.00,0.0064
1981.00,0.0065
1980.00,0.0063
1979.00,0.0058
1978.00,0.0052
1977.00,0.0048
1976.00,0.0047
1975.00,0.0046
1974.00,0.0046
1973.00,0.0046
1972.00,0.0046
1971.00,0.0046
1970.00,0.0046
1969.00,0.0045
1968.00,0.0044
1967.00,0.0044
1966.00,0.0044
1965.00,0.0045
1964.00,0.0045
1963.00,0.0044
1962.00,0.0043
1961.00,0.0041
1960.00,0.0041
1959.00,0.0041
1958.00,0.0042
1957.00,0.0043
1956.00,0.0045
1955.00,0.0046
1954.00,0.0046
1953.00,0.0046
1952.00,0.0046
1951.00,0.0046
1950.00,0.0046
1949.00,0.0046
1948.00,0.0045
1947.00,0.0045
1946.00,0.0045
1945.00,0.0044
1944.00,0.0045
1943.00,0.0046
1942.00,0.0046
1941.00,0.0046
1940.00,0.0045
1939.00,0.0045
1938.00,0.0044
1937.00,0.0044
1936.00,0.0044
1935.00,0.0044
1934.00,0.0044
1933.00,0.0044
1932.00,0.0044
1931.00,0.0044
1930.00,0.0044
1929.00,0.0044
1928.00,0.0044
1927.00,0.0044
1926.00,0.0044
1925.00,0.0044
1924.00,0.0044
1923.00,0.0045
1922.00,0.0046
1921.00,0.0046
1920.00,0.0047
1919.00,0.0047
1918.00,0.0047
1917.00,0.0047
1916.00,0.0046
1915.00,0.0046
1914.00,0.0046
1913.00,0.0046
1912.00,0.0046
1911.00,0.0046
1910.00,0.0046
1909.00,0.0046
1908.00,0.0046
1907.00,0.0046
1906.00,0.0046
1905.00,0.0046
1904.00,0.0046
1903.00,0.0046
1902.00,0.0046
1901.00,0.0046
1900.00,0.0046
1899.00,0.0046
1898.00,0.0045
1897.00,0.0045
1896.00,0.0045
1895.00,0.0045
1894.00,0.0045
1893.00,0.0045
1892.00,0.0045
1891.00,0.0045
1890.00,0.0045
1889.00,0.0045
1888.00,0.0045
1887.00,0.0045
1886.00,0.0045
1885.00,0.0045
1884.00,0.0045
1883.00,0.0045
1882.00,0.0044
1881.00,0.0044
1880.00,0.0045
1879.00,0.0045
1878.00,0.0045
1877.00,0.0045
1876.00,0.0045
1875.00,0.0045
1874.00,0.0045
1873.00,0.0045
1872.00,0.0044
1871.00,0.0044
1870.00,0.0044
1869.00,0.0044
1868.00,0.0045
1867.00,0.0045
1866.00,0.0044
1865.00,0.0044
1864.00,0.0044
1863.00,0.0044
1862.00,0.0044
1861.00,0.0044
1860.00,0.0044
1859.00,0.0044
1858.00,0.0044
1857.00,0.0044
1856.00,0.0044
1855.00,0.0043
1854.00,0.0043
1853.00,0.0043
1852.00,0.0043
1851.00,0.0043
1850.00,0.0043
1849.00,0.0043
1848.00,0.0043
1847.00,0.0043
1846.00,0.0042
1845.00,0.0043
1844.00,0.0043
1843.00,0.0043
1842.00,0.0043
1841.00,0.0043
1840.00,0.0043
1839.00,0.0042
1838.00,0.0042
1837.00,0.0043
1836.00,0.0043
1835.00,0.0043
1834.00,0.0043
1833.00,0.0042
1832.00,0.0042
1831.00,0.0042
1830.00,0.0042
1829.00,0.0042
1828.00,0.0042
1827.00,0.0042
1826.00,0.0042
1825.00,0.0042
1824.00,0.0042
1823.00,0.0042
1822.00,0.0042
1821.00,0.0042
1820.00,0.0041
1819.00,0.0040
1818.00,0.0040
1817.00,0.0039
1816.00,0.0039
1815.00,0.0040
1814.00,0.0040
1813.00,0.0041
1812.00,0.0041
1811.00,0.0042
1810.00,0.0042
1809.00,0.0042
1808.00,0.0042
1807.00,0.0042
1806.00,0.0042
1805.00,0.0041
1804.00,0.0041
1803.00,0.0041
1802.00,0.0041
1801.00,0.0042
1800.00,0.0042
1799.00,0.0042
1798.00,0.0042
1797.00,0.0042
1796.00,0.0043
1795.00,0.0042
1794.00,0.0042
1793.00,0.0042
1792.00,0.0043
1791.00,0.0043
1790.00,0.0043
1789.00,0.0043
1788.00,0.0042
1787.00,0.0042
1786.00,0.0042
1785.00,0.0042
1784.00,0.0042
1783.00,0.0042
1782.00,0.0043
1781.00,0.0043
1780.00,0.0043
1779.00,0.0042
1778.00,0.0042
1777.00,0.0042
1776.00,0.0042
1775.00,0.0042
1774.00,0.0043
1773.00,0.0043
1772.00,0.0043
1771.00,0.0043
1770.00,0.0043
1769.00,0.0043
1768.00,0.0043
1767.00,0.0043
1766.00,0.0043
1765.00,0.0043
1764.00,0.0043
1763.00,0.0043
1762.00,0.0043
1761.00,0.0043
1760.00,0.0043
1759.00,0.0043
1758.00,0.0043
1757.00,0.0044
1756.00,0.0044
1755.00,0.0045
1754.00,0.0045
1753.00,0.0045
1752.00,0.0045
1751.00,0.0045
1750.00,0.0045
1749.00,0.0046
1748.00,0.0046
1747.00,0.0047
1746.00,0.0047
1745.00,0.0047
1744.00,0.0047
1743.00,0.0048
1742.00,0.0048
1741.00,0.0048
1740.00,0.0049
1739.00,0.0049
1738.00,0.0050
1737.00,0.0050
1736.00,0.0051
1735.00,0.0052
1734.00,0.0053
1733.00,0.0054
1732.00,0.0054
1731.00,0.0054
1730.00,0.0054
1729.00,0.0055
1728.00,0.0056
1727.00,0.0056
1726.00,0.0057
1725.00,0.0057
1724.00,0.0058
1723.00,0.0059
1722.00,0.0060
1721.00,0.0060
1720.00,0.0061
1719.00,0.0063
1718.00,0.0065
1717.00,0.0067
1716.00,0.0068
1715.00,0.0069
1714.00,0.0070
1713.00,0.0071
1712.00,0.0073
1711.00,0.0075
1710.00,0.0077
1709.00,0.0079
1708.00,0.0082
1707.00,0.0086
1706.00,0.0090
1705.00,0.0096
1704.00,0.0102
1703.00,0.0107
1702.00,0.0113
1701.00,0.0125
1700.00,0.0141
1699.00,0.0155
1698.00,0.0165
1697.00,0.0173
1696.00,0.0181
1695.00,0.0187
1694.00,0.0191
1693.00,0.0193
1692.00,0.0196
1691.00,0.0199
1690.00,0.0203
1689.00,0.0207
1688.00,0.0212
1687.00,0.0216
1686.00,0.0220
1685.00,0.0227
1684.00,0.0236
1683.00,0.0245
1682.00,0.0251
1681.00,0.0256
1680.00,0.0262
1679.00,0.0267
1678.00,0.0272
1677.00,0.0277
1676.00,0.0284
1675.00,0.0293
1674.00,0.0302
1673.00,0.0308
1672.00,0.0314
1671.00,0.0320
1670.00,0.0328
1669.00,0.0337
1668.00,0.0346
1667.00,0.0353
1666.00,0.0358
1665.00,0.0362
1664.00,0.0368
1663.00,0.0376
1662.00,0.0384
1661.00,0.0391
1660.00,0.0398
1659.00,0.0403
1658.00,0.0407
1657.00,0.0411
1656.00,0.0413
1655.00,0.0417
1654.00,0.0424
1653.00,0.0436
1652.00,0.0447
1651.00,0.0450
1650.00,0.0450
1649.00,0.0450
1648.00,0.0453
1647.00,0.0459
1646.00,0.0466
1645.00,0.0471
1644.00,0.0474
1643.00,0.0476
1642.00,0.0477
1641.00,0.0479
1640.00,0.0481
1639.00,0.0483
1638.00,0.0485
1637.00,0.0488
1636.00,0.0493
1635.00,0.0500
1634.00,0.0505
1633.00,0.0507
1632.00,0.0508
1631.00,0.0508
1630.00,0.0509
1629.00,0.0511
1628.00,0.0513
1627.00,0.0516
1626.00,0.0517
1625.00,0.0518
1624.00,0.0519
1623.00,0.0522
1622.00,0.0523
1621.00,0.0523
1620.00,0.0522
1619.00,0.0520
1618.00,0.0517
1617.00,0.0515
1616.00,0.0513
1615.00,0.0510
1614.00,0.0505
1613.00,0.0500
1612.00,0.0493
1611.00,0.0487
1610.00,0.0481
1609.00,0.0474
1608.00,0.0467
1607.00,0.0459
1606.00,0.0451
1605.00,0.0442
1604.00,0.0433
1603.00,0.0424
1602.00,0.0415
1601.00,0.0406
1600.00,0.0396
1599.00,0.0387
1598.00,0.0378
1597.00,0.0369
1596.00,0.0361
1595.00,0.0352
1594.00,0.0344
1593.00,0.0336
1592.00,0.0329
1591.00,0.0321
1590.00,0.0315
1589.00,0.0308
1588.00,0.0302
1587.00,0.0296
1586.00,0.0290
1585.00,0.0285
1584.00,0.0281
1583.00,0.0277
1582.00,0.0273
1581.00,0.0270
1580.00,0.0268
1579.00,0.0266
1578.00,0.0265
1577.00,0.0265
1576.00,0.0265
1575.00,0.0266
1574.00,0.0266
1573.00,0.0266
1572.00,0.0265
1571.00,0.0266
1570.00,0.0269
1569.00,0.0273
1568.00,0.0277
1567.00,0.0280
1566.00,0.0283
1565.00,0.0287
1564.00,0.0291
1563.00,0.0295
1562.00,0.0297
1561.00,0.0298
1560.00,0.0302
1559.00,0.0314
1558.00,0.0326
1557.00,0.0332
1556.00,0.0336
1555.00,0.0339
1554.00,0.0344
1553.00,0.0349
1552.00,0.0353
1551.00,0.0357
1550.00,0.0362
1549.00,0.0367
1548.00,0.0372
1547.00,0.0374
1546.00,0.0378
1545.00,0.0382
1544.00,0.0386
1543.00,0.0391
1542.00,0.0395
1541.00,0.0402
1540.00,0.0410
1539.00,0.0417
1538.00,0.0420
1537.00,0.0422
1536.00,0.0422
1535.00,0.0423
1534.00,0.0427
1533.00,0.0433
1532.00,0.0439
1531.00,0.0442
1530.00,0.0445
1529.00,0.0447
1528.00,0.0450
1527.00,0.0454
1526.00,0.0459
1525.00,0.0463
1524.00,0.0466
1523.00,0.0468
1522.00,0.0473
1521.00,0.0479
1520.00,0.0483
1519.00,0.0484
1518.00,0.0485
1517.00,0.0487
1516.00,0.0488
1515.00,0.0489
1514.00,0.0487
1513.00,0.0485
1512.00,0.0481
1511.00,0.0476
1510.00,0.0472
1509.00,0.0467
1508.00,0.0462
1507.00,0.0456
1506.00,0.0451
1505.00,0.0445
1504.00,0.0438
1503.00,0.0430
1502.00,0.0422
1501.00,0.0414
1500.00,0.0405
1499.00,0.0397
1498.00,0.0389
1497.00,0.0381
1496.00,0.0372
1495.00,0.0363
1494.00,0.0355
1493.00,0.0347
1492.00,0.0338
1491.00,0.0329
1490.00,0.0320
1489.00,0.0312
1488.00,0.0305
1487.00,0.0298
1486.00,0.0292
1485.00,0.0286
1484.00,0.0280
1483.00,0.0274
1482.00,0.0270
1481.00,0.0265
1480.00,0.0261
1479.00,0.0258
1478.00,0.0255
1477.00,0.0252
1476.00,0.0250
1475.00,0.0249
1474.00,0.0248
1473.00,0.0248
1472.00,0.0249
1471.00,0.0249
1470.00,0.0249
1469.00,0.0249
1468.00,0.0248
1467.00,0.0247
1466.00,0.0247
1465.00,0.0247
1464.00,0.0248
1463.00,0.0249
1462.00,0.0251
1461.00,0.0251
1460.00,0.0252
1459.00,0.0254
1458.00,0.0259
1457.00,0.0265
1456.00,0.0270
1455.00,0.0273
1454.00,0.0274
1453.00,0.0274
1452.00,0.0274
1451.00,0.0274
1450.00,0.0274
1449.00,0.0274
1448.00,0.0273
1447.00,0.0272
1446.00,0.0271
1445.00,0.0269
1444.00,0.0266
1443.00,0.0264
1442.00,0.0261
1441.00,0.0258
1440.00,0.0255
1439.00,0.0251
1438.00,0.0248
1437.00,0.0245
1436.00,0.0243
1435.00,0.0242
1434.00,0.0240
1433.00,0.0238
1432.00,0.0236
1431.00,0.0234
1430.00,0.0233
1429.00,0.0233
1428.00,0.0232
1427.00,0.0232
1426.00,0.0232
1425.00,0.0232
1424.00,0.0233
1423.00,0.0234
1422.00,0.0234
1421.00,0.0234
1420.00,0.0235
1419.00,0.0237
1418.00,0.0240
1417.00,0.0242
1416.00,0.0243
1415.00,0.0244
1414.00,0.0245
1413.00,0.0246
1412.00,0.0247
1411.00,0.0248
1410.00,0.0249
1409.00,0.0250
1408.00,0.0250
1407.00,0.0250
1406.00,0.0251
1405.00,0.0251
1404.00,0.0252
1403.00,0.0252
1402.00,0.0251
1401.00,0.0250
1400.00,0.0250
1399.00,0.0250
1398.00,0.0250
1397.00,0.0249
1396.00,0.0249
1395.00,0.0249
1394.00,0.0249
1393.00,0.0249
1392.00,0.0248
1391.00,0.0248
1390.00,0.0247
1389.00,0.0247
1388.00,0.0247
1387.00,0.0247
1386.00,0.0246
1385.00,0.0246
1384.00,0.0245
1383.00,0.0244
1382.00,0.0243
1381.00,0.0242
1380.00,0.0241
1379.00,0.0240
1378.00,0.0240
1377.00,0.0239
1376.00,0.0238
1375.00,0.0238
1374.00,0.0237
1373.00,0.0237
1372.00,0.0237
1371.00,0.0237
1370.00,0.0236
1369.00,0.0235
1368.00,0.0234
1367.00,0.0232
1366.00,0.0231
1365.00,0.0229
1364.00,0.0227
1363.00,0.0225
1362.00,0.0224
1361.00,0.0224
1360.00,0.0223
1359.00,0.0222
1358.00,0.0221
1357.00,0.0220
1356.00,0.0219
1355.00,0.0218
1354.00,0.0218
1353.00,0.0218
1352.00,0.0217
1351.00,0.0217
1350.00,0.0217
1349.00,0.0217
1348.00,0.0217
1347.00,0.0217
1346.00,0.0217
1345.00,0.0217
1344.00,0.0217
1343.00,0.0217
1342.00,0.0217
1341.00,0.0217
1340.00,0.0218
1339.00,0.0218
1338.00,0.0219
1337.00,0.0219
1336.00,0.0219
1335.00,0.0219
1334.00,0.0219
1333.00,0.0218
1332.00,0.0218
1331.00,0.0218
1330.00,0.0218
1329.00,0.0218
1328.00,0.0218
1327.00,0.0218
1326.00,0.0218
1325.00,0.0218
1324.00,0.0218
1323.00,0.0218
1322.00,0.0217
1321.00,0.0217
1320.00,0.0217
1319.00,0.0217
1318.00,0.0217
1317.00,0.0216
1316.00,0.0216
1315.00,0.0215
1314.00,0.0215
1313.00,0.0215
1312.00,0.0214
1311.00,0.0213
1310.00,0.0213
1309.00,0.0212
1308.00,0.0212
1307.00,0.0211
1306.00,0.0211
1305.00,0.0210
1304.00,0.0210
1303.00,0.0209
1302.00,0.0209
1301.00,0.0208
1300.00,0.0207
1299.00,0.0207
1298.00,0.0207
1297.00,0.0206
1296.00,0.0206
1295.00,0.0206
1294.00,0.0206
1293.00,0.0206
1292.00,0.0205
1291.00,0.0205
1290.00,0.0205
1289.00,0.0205
1288.00,0.0205
1287.00,0.0205
1286.00,0.0205
1285.00,0.0205
1284.00,0.0205
1283.00,0.0205
1282.00,0.0204
1281.00,0.0204
1280.00,0.0204
1279.00,0.0203
1278.00,0.0203
1277.00,0.0203
1276.00,0.0203
1275.00,0.0202
1274.00,0.0202
1273.00,0.0202
1272.00,0.0202
1271.00,0.0202
1270.00,0.0203
1269.00,0.0203
1268.00,0.0204
1267.00,0.0204
1266.00,0.0205
1265.00,0.0206
1264.00,0.0207
1263.00,0.0208
1262.00,0.0209
1261.00,0.0211
1260.00,0.0212
1259.00,0.0214
1258.00,0.0216
1257.00,0.0218
1256.00,0.0220
1255.00,0.0222
1254.00,0.0224
1253.00,0.0226
1252.00,0.0228
1251.00,0.0230
1250.00,0.0232
1249.00,0.0233
1248.00,0.0235
1247.00,0.0236
1246.00,0.0237
1245.00,0.0239
1244.00,0.0240
1243.00,0.0241
1242.00,0.0241
1241.00,0.0242
1240.00,0.0243
1239.00,0.0243
1238.00,0.0244
1237.00,0.0244
1236.00,0.0244
1235.00,0.0244
1234.00,0.0245
1233.00,0.0244
1232.00,0.0244
1231.00,0.0244
1230.00,0.0243
1229.00,0.0243
1228.00,0.0242
1227.00,0.0241
1226.00,0.0240
1225.00,0.0239
1224.00,0.0238
1223.00,0.0237
1222.00,0.0236
1221.00,0.0234
1220.00,0.0233
1219.00,0.0231
1218.00,0.0230
1217.00,0.0228
1216.00,0.0226
1215.00,0.0225
1214.00,0.0223
1213.00,0.0221
1212.00,0.0219
1211.00,0.0217
1210.00,0.0215
1209.00,0.0212
1208.00,0.0210
1207.00,0.0208
1206.00,0.0206
1205.00,0.0203
1204.00,0.0201
1203.00,0.0199
1202.00,0.0197
1201.00,0.0195
1200.00,0.0192
1199.00,0.0191
1198.00,0.0189
1197.00,0.0187
1196.00,0.0186
1195.00,0.0184
1194.00,0.0183
1193.00,0.0181
1192.00,0.0180
1191.00,0.0179
1190.00,0.0179
1189.00,0.0178
1188.00,0.0177
1187.00,0.0176
1186.00,0.0176
1185.00,0.0176
1184.00,0.0175
1183.00,0.0175
1182.00,0.0176
1181.00,0.0176
1180.00,0.0176
1179.00,0.0177
1178.00,0.0178
1177.00,0.0179
1176.00,0.0180
1175.00,0.0182
1174.00,0.0183
1173.00,0.0185
1172.00,0.0187
1171.00,0.0188
1170.00,0.0190
1169.00,0.0191
1168.00,0.0193
1167.00,0.0194
1166.00,0.0195
1165.00,0.0197
1164.00,0.0198
1163.00,0.0199
1162.00,0.0200
1161.00,0.0200
1160.00,0.0200
1159.00,0.0200
1158.00,0.0200
1157.00,0.0200
1156.00,0.0199
1155.00,0.0198
1154.00,0.0197
1153.00,0.0196
1152.00,0.0195
1151.00,0.0193
1150.00,0.0192
1149.00,0.0191
1148.00,0.0189
1147.00,0.0188
1146.00,0.0186
1145.00,0.0185
1144.00,0.0183
1143.00,0.0182
1142.00,0.0182
1141.00,0.0181
1140.00,0.0180
1139.00,0.0179
1138.00,0.0179
1137.00,0.0179
1136.00,0.0178
1135.00,0.0178
1134.00,0.0178
1133.00,0.0178
1132.00,0.0178
1131.00,0.0178
1130.00,0.0178
1129.00,0.0177
1128.00,0.0177
1127.00,0.0177
1126.00,0.0178
1125.00,0.0178
1124.00,0.0178
1123.00,0.0177
1122.00,0.0177
1121.00,0.0177
1120.00,0.0177
1119.00,0.0177
1118.00,0.0177
1117.00,0.0177
1116.00,0.0177
1115.00,0.0177
1114.00,0.0177
1113.00,0.0177
1112.00,0.0177
1111.00,0.0177
1110.00,0.0178
1109.00,0.0178
1108.00,0.0178
1107.00,0.0179
1106.00,0.0179
1105.00,0.0180
1104.00,0.0180
1103.00,0.0180
1102.00,0.0181
1101.00,0.0182
1100.00,0.0182
1099.00,0.0183
1098.00,0.0184
1097.00,0.0185
1096.00,0.0185
1095.00,0.0187
1094.00,0.0189
1093.00,0.0191
1092.00,0.0193
1091.00,0.0195
1090.00,0.0197
1089.00,0.0200
1088.00,0.0202
1087.00,0.0205
1086.00,0.0209
1085.00,0.0212
1084.00,0.0215
1083.00,0.0218
1082.00,0.0222
1081.00,0.0225
1080.00,0.0229
1079.00,0.0232
1078.00,0.0235
1077.00,0.0238
1076.00,0.0241
1075.00,0.0243
1074.00,0.0245
1073.00,0.0247
1072.00,0.0249
1071.00,0.0250
1070.00,0.0252
1069.00,0.0253
1068.00,0.0254
1067.00,0.0254
1066.00,0.0255
1065.00,0.0256
1064.00,0.0256
1063.00,0.0256
1062.00,0.0256
1061.00,0.0256
1060.00,0.0255
1059.00,0.0254
1058.00,0.0253
1057.00,0.0252
1056.00,0.0251
1055.00,0.0250
1054.00,0.0249
1053.00,0.0248
1052.00,0.0246
1051.00,0.0245
1050.00,0.0244
1049.00,0.0242
1048.00,0.0241
1047.00,0.0239
1046.00,0.0238
1045.00,0.0236
1044.00,0.0233
1043.00,0.0231
1042.00,0.0229
1041.00,0.0227
1040.00,0.0225
1039.00,0.0223
1038.00,0.0221
1037.00,0.0220
1036.00,0.0218
1035.00,0.0216
1034.00,0.0214
1033.00,0.0213
1032.00,0.0211
1031.00,0.0208
1030.00,0.0207
1029.00,0.0205
1028.00,0.0202
1027.00,0.0199
1026.00,0.0197
1025.00,0.0195
1024.00,0.0192
1023.00,0.0190
1022.00,0.0188
1021.00,0.0185
1020.00,0.0183
1019.00,0.0181
1018.00,0.0179
1017.00,0.0178
1016.00,0.0176
1015.00,0.0174
1014.00,0.0173
1013.00,0.0171
1012.00,0.0170
1011.00,0.0168
1010.00,0.0167
1009.00,0.0166
1008.00,0.0165
1007.00,0.0163
1006.00,0.0163
1005.00,0.0162
1004.00,0.0161
1003.00,0.0160
1002.00,0.0159
1001.00,0.0159
1000.00,0.0158
999.00,0.0157
998.00,0.0157
997.00,0.0156
996.00,0.0155
995.00,0.0154
994.00,0.0154
993.00,0.0153
992.00,0.0152
991.00,0.0151
990.00,0.0151
989.00,0.0150
988.00,0.0150
987.00,0.0149
986.00,0.0149
985.00,0.0149
984.00,0.0148
983.00,0.0147
982.00,0.0147
981.00,0.0147
980.00,0.0146
979.00,0.0146
978.00,0.0146
977.00,0.0146
976.00,0.0146
975.00,0.0145
974.00,0.0146
973.00,0.0146
972.00,0.0145
971.00,0.0146
970.00,0.0146
969.00,0.0147
968.00,0.0147
967.00,0.0148
966.00,0.0149
965.00,0.0150
964.00,0.0151
963.00,0.0151
962.00,0.0152
961.00,0.0152
960.00,0.0151
959.00,0.0150
958.00,0.0150
957.00,0.0149
956.00,0.0148
955.00,0.0148
954.00,0.0148
953.00,0.0147
952.00,0.0146
951.00,0.0145
950.00,0.0145
949.00,0.0145
948.00,0.0144
947.00,0.0143
946.00,0.0143
945.00,0.0143
944.00,0.0142
943.00,0.0141
942.00,0.0142
941.00,0.0141
940.00,0.0141
939.00,0.0141
938.00,0.0141
937.00,0.0141
936.00,0.0140
935.00,0.0140
934.00,0.0140
933.00,0.0140
932.00,0.0140
931.00,0.0139
930.00,0.0140
929.00,0.0139
928.00,0.0139
927.00,0.0138
926.00,0.0138
925.00,0.0138
924.00,0.0137
923.00,0.0136
922.00,0.0136
921.00,0.0135
920.00,0.0134
919.00,0.0134
918.00,0.0134
917.00,0.0133
916.00,0.0133
915.00,0.0132
914.00,0.0133
913.00,0.0133
912.00,0.0133
911.00,0.0132
910.00,0.0133
909.00,0.0133
908.00,0.0133
907.00,0.0133
906.00,0.0134
905.00,0.0135
904.00,0.0135
903.00,0.0135
902.00,0.0136
901.00,0.0136
900.00,0.0136
899.00,0.0135
898.00,0.0135
897.00,0.0135
896.00,0.0134
895.00,0.0133
894.00,0.0133
893.00,0.0133
892.00,0.0132
891.00,0.0132
890.00,0.0132
889.00,0.0131
888.00,0.0130
887.00,0.0130
886.00,0.0130
885.00,0.0129
884.00,0.0129
883.00,0.0128
882.00,0.0129
881.00,0.0129
880.00,0.0128
879.00,0.0128
878.00,0.0128
877.00,0.0128
876.00,0.0128
875.00,0.0128
874.00,0.0128
873.00,0.0129
872.00,0.0128
871.00,0.0128
870.00,0.0128
869.00,0.0129
868.00,0.0128
867.00,0.0128
866.00,0.0129
865.00,0.0129
864.00,0.0128
863.00,0.0128
862.00,0.0128
861.00,0.0128
860.00,0.0128
859.00,0.0128
858.00,0.0128
857.00,0.0129
856.00,0.0129
855.00,0.0129
854.00,0.0130
853.00,0.0130
852.00,0.0130
851.00,0.0130
850.00,0.0131
849.00,0.0131
848.00,0.0131
847.00,0.0131
846.00,0.0132
845.00,0.0132
844.00,0.0132
843.00,0.0133
842.00,0.0134
841.00,0.0135
840.00,0.0135
839.00,0.0136
838.00,0.0138
837.00,0.0139
836.00,0.0139
835.00,0.0140
834.00,0.0142
833.00,0.0144
832.00,0.0145
831.00,0.0146
830.00,0.0147
829.00,0.0149
828.00,0.0150
827.00,0.0150
826.00,0.0152
825.00,0.0152
824.00,0.0152
823.00,0.0153
822.00,0.0154
821.00,0.0155
820.00,0.0155
819.00,0.0156
818.00,0.0158
817.00,0.0159
816.00,0.0159
815.00,0.0160
814.00,0.0162
813.00,0.0163
812.00,0.0164
811.00,0.0164
810.00,0.0166
809.00,0.0167
808.00,0.0167
807.00,0.0167
806.00,0.0168
805.00,0.0169
804.00,0.0169
803.00,0.0170
802.00,0.0171
801.00,0.0172
800.00,0.0172
799.00,0.0173
798.00,0.0175
797.00,0.0176
796.00,0.0177
795.00,0.0179
794.00,0.0181
793.00,0.0182
792.00,0.0183
791.00,0.0185
790.00,0.0187
789.00,0.0189
788.00,0.0190
787.00,0.0192
786.00,0.0194
785.00,0.0196
784.00,0.0198
783.00,0.0200
782.00,0.0202
781.00,0.0204
780.00,0.0205
779.00,0.0206
778.00,0.0208
777.00,0.0210
776.00,0.0211
775.00,0.0212
774.00,0.0214
773.00,0.0216
772.00,0.0217
771.00,0.0218
770.00,0.0219
769.00,0.0220
768.00,0.0220
767.00,0.0221
766.00,0.0222
765.00,0.0223
764.00,0.0222
763.00,0.0223
762.00,0.0224
761.00,0.0224
760.00,0.0225
759.00,0.0225
758.00,0.0227
757.00,0.0228
756.00,0.0229
755.00,0.0229
754.00,0.0231
753.00,0.0232
752.00,0.0233
751.00,0.0234
750.00,0.0236
749.00,0.0237
748.00,0.0237
747.00,0.0238
746.00,0.0239
745.00,0.0240
744.00,0.0240
743.00,0.0240
742.00,0.0242
741.00,0.0243
740.00,0.0243
739.00,0.0244
738.00,0.0245
737.00,0.0247
736.00,0.0248
735.00,0.0249
734.00,0.0252
733.00,0.0254
732.00,0.0255
731.00,0.0257
730.00,0.0260
729.00,0.0264
728.00,0.0267
727.00,0.0270
726.00,0.0274
725.00,0.0278
724.00,0.0281
723.00,0.0285
722.00,0.0289
721.00,0.0293
720.00,0.0296
719.00,0.0300
718.00,0.0305
717.00,0.0310
716.00,0.0314
715.00,0.0318
714.00,0.0323
713.00,0.0327
712.00,0.0330
711.00,0.0334
710.00,0.0338
709.00,0.0342
708.00,0.0345
707.00,0.0349
706.00,0.0353
705.00,0.0357
704.00,0.0360
703.00,0.0363
702.00,0.0366
701.00,0.0369
700.00,0.0370
699.00,0.0370
698.00,0.0371
697.00,0.0372
696.00,0.0371
695.00,0.0371
694.00,0.0372
693.00,0.0372
692.00,0.0371
691.00,0.0371
690.00,0.0372
689.00,0.0373
688.00,0.0373
687.00,0.0373
686.00,0.0374
685.00,0.0375
684.00,0.0375
683.00,0.0375
682.00,0.0376
681.00,0.0376
680.00,0.0376
679.00,0.0376
678.00,0.0377
677.00,0.0378
676.00,0.0378
675.00,0.0378
674.00,0.0379
673.00,0.0379
672.00,0.0378
671.00,0.0377
670.00,0.0377
669.00,0.0376
668.00,0.0377
667.00,0.0379
666.00,0.0382
665.00,0.0383
664.00,0.0384
663.00,0.0384
662.00,0.0386
661.00,0.0387
660.00,0.0387
659.00,0.0387
658.00,0.0388
657.00,0.0389
656.00,0.0389
655.00,0.0389
654.00,0.0391
653.00,0.0392
652.00,0.0392
651.00,0.0393
650.00,0.0395
649.00,0.0397
648.00,0.0398
647.00,0.0399
646.00,0.0401
645.00,0.0403
644.00,0.0403
643.00,0.0404
642.00,0.0406
641.00,0.0408
640.00,0.0409
639.00,0.0411
638.00,0.0413
637.00,0.0414
636.00,0.0414
635.00,0.0415
634.00,0.0418
633.00,0.0420
632.00,0.0420
631.00,0.0421
630.00,0.0423
629.00,0.0425
628.00,0.0425
627.00,0.0425
626.00,0.0426
625.00,0.0426
624.00,0.0426
623.00,0.0426
622.00,0.0426
621.00,0.0426
620.00,0.0425
619.00,0.0425
618.00,0.0425
617.00,0.0425
616.00,0.0423
615.00,0.0421
614.00,0.0421
613.00,0.0420
612.00,0.0418
611.00,0.0416
610.00,0.0416
609.00,0.0416
608.00,0.0415
607.00,0.0414
606.00,0.0415
605.00,0.0415
604.00,0.0413
603.00,0.0412
602.00,0.0413
601.00,0.0413
600.00,0.0412
599.00,0.0412
598.00,0.0413
597.00,0.0413
596.00,0.0412
595.00,0.0412
594.00,0.0413
593.00,0.0414
592.00,0.0413
591.00,0.0412
590.00,0.0413
589.00,0.0413
588.00,0.0412
587.00,0.0412
586.00,0.0414
585.00,0.0415
584.00,0.0415
583.00,0.0414
582.00,0.0415
581.00,0.0416
580.00,0.0415
579.00,0.0415
578.00,0.0416
577.00,0.0417
576.00,0.0416
575.00,0.0416
574.00,0.0418
573.00,0.0419
572.00,0.0419
571.00,0.0419
570.00,0.0420
569.00,0.0422
568.00,0.0421
567.00,0.0421
566.00,0.0422
565.00,0.0423
564.00,0.0423
563.00,0.0424
562.00,0.0425
561.00,0.0426
560.00,0.0425
559.00,0.0425
558.00,0.0426
557.00,0.0427
556.00,0.0426
555.00,0.0425
554.00,0.0427
553.00,0.0428
552.00,0.0428
551.00,0.0428
550.00,0.0429
549.00,0.0430
548.00,0.0429
547.00,0.0428
546.00,0.0430
545.00,0.0430
544.00,0.0429
543.00,0.0427
542.00,0.0428
541.00,0.0428
540.00,0.0427
539.00,0.0426
538.00,0.0427
537.00,0.0428
536.00,0.0427
535.00,0.0427
534.00,0.0429
533.00,0.0430
532.00,0.0429
531.00,0.0428
530.00,0.0429
529.00,0.0430
528.00,0.0428
527.00,0.0428
526.00,0.0430
525.00,0.0433
524.00,0.0432
523.00,0.0432
522.00,0.0434
521.00,0.0435
520.00,0.0433
519.00,0.0432
518.00,0.0434
517.00,0.0435
516.00,0.0433
515.00,0.0432
514.00,0.0434
513.00,0.0434
512.00,0.0431
511.00,0.0429
510.00,0.0430
509.00,0.0432
508.00,0.0431
507.00,0.0430
506.00,0.0432
505.00,0.0433
504.00,0.0431
503.00,0.0430
502.00,0.0431
501.00,0.0432
500.00,0.0430
499.00,0.0427
498.00,0.0428
497.00,0.0429
496.00,0.0426
495.00,0.0425
494.00,0.0426
493.00,0.0428
492.00,0.0426
491.00,0.0424
490.00,0.0425
489.00,0.0427
488.00,0.0425
487.00,0.0423
486.00,0.0425
485.00,0.0425
484.00,0.0423
483.00,0.0421
482.00,0.0423
481.00,0.0424
480.00,0.0422
479.00,0.0420
478.00,0.0423
477.00,0.0425
476.00,0.0422
475.00,0.0418
474.00,0.0420
473.00,0.0421
472.00,0.0420
471.00,0.0419
470.00,0.0423
469.00,0.0426
468.00,0.0423
467.00,0.0419
466.00,0.0421
465.00,0.0422
464.00,0.0419
463.00,0.0417
462.00,0.0421
461.00,0.0424
460.00,0.0422
459.00,0.0419
458.00,0.0423
457.00,0.0426
456.00,0.0424
455.00,0.0423
454.00,0.0426
453.00,0.0428
452.00,0.0424
451.00,0.0421
450.00,0.0422
449.00,0.0423
448.00,0.0419
447.00,0.0417
446.00,0.0420
445.00,0.0422
444.00,0.0417
443.00,0.0412
442.00,0.0412
441.00,0.0413
440.00,0.0408
439.00,0.0405
438.00,0.0409
437.00,0.0410
436.00,0.0405
435.00,0.0399
434.00,0.0400
433.00,0.0401
432.00,0.0396
431.00,0.0391
430.00,0.0393
429.00,0.0393
428.00,0.0387
427.00,0.0382
426.00,0.0385
425.00,0.0388
424.00,0.0382
423.00,0.0376
422.00,0.0379
421.00,0.0379
420.00,0.0369
419.00,0.0360
418.00,0.0368
417.00,0.0374
416.00,0.0368
415.00,0.0363
414.00,0.0367
413.00,0.0370
412.00,0.0361
411.00,0.0354
410.00,0.0358
409.00,0.0362
408.00,0.0353
407.00,0.0345
406.00,0.0351
405.00,0.0356
404.00,0.0348
403.00,0.0342
402.00,0.0353
401.00,0.0363
400.00,0.0353
