Created as New Dataset,Sample 321 By YargerLab Date Monday, August 19 2024
cm-1,A
4000.00,0.0124
3999.00,0.0124
3998.00,0.0124
3997.00,0.0124
3996.00,0.0124
3995.00,0.0124
3994.00,0.0124
3993.00,0.0124
3992.00,0.0124
3991.00,0.0124
3990.00,0.0123
3989.00,0.0123
3988.00,0.0123
3987.00,0.0123
3986.00,0.0123
3985.00,0.0123
3984.00,0.0123
3983.00,0.0123
3982.00,0.0123
3981.00,0.0123
3980.00,0.0123
3979.00,0.0123
3978.00,0.0123
3977.00,0.0123
3976.00,0.0123
3975.00,0.0123
3974.00,0.0123
3973.00,0.0123
3972.00,0.0123
3971.00,0.0123
3970.00,0.0123
3969.00,0.0123
3968.00,0.0123
3967.00,0.0123
3966.00,0.0123
3965.00,0.0123
3964.00,0.0123
3963.00,0.0123
3962.00,0.0123
3961.00,0.0123
3960.00,0.0123
3959.00,0.0123
3958.00,0.0123
3957.00,0.0123
3956.00,0.0123
3955.00,0.0123
3954.00,0.0123
3953.00,0.0123
3952.00,0.0123
3951.00,0.0123
3950.00,0.0123
3949.00,0.0123
3948.00,0.0123
3947.00,0.0123
3946.00,0.0123
3945.00,0.0123
3944.00,0.0123
3943.00,0.0122
3942.00,0.0122
3941.00,0.0122
3940.00,0.0122
3939.00,0.0122
3938.00,0.0122
3937.00,0.0122
3936.00,0.0122
3935.00,0.0122
3934.00,0.0122
3933.00,0.0122
3932.00,0.0122
3931.00,0.0122
3930.00,0.0122
3929.00,0.0122
3928.00,0.0122
3927.00,0.0122
3926.00,0.0122
3925.00,0.0122
3924.00,0.0122
3923.00,0.0122
3922.00,0.0122
3921.00,0.0122
3920.00,0.0122
3919.00,0.0122
3918.00,0.0122
3917.00,0.0122
3916.00,0.0122
3915.00,0.0122
3914.00,0.0121
3913.00,0.0121
3912.00,0.0121
3911.00,0.0121
3910.00,0.0121
3909.00,0.0121
3908.00,0.0121
3907.00,0.0121
3906.00,0.0121
3905.00,0.0121
3904.00,0.0122
3903.00,0.0122
3902.00,0.0121
3901.00,0.0121
3900.00,0.0121
3899.00,0.0121
3898.00,0.0121
3897.00,0.0121
3896.00,0.0121
3895.00,0.0121
3894.00,0.0121
3893.00,0.0121
3892.00,0.0121
3891.00,0.0121
3890.00,0.0121
3889.00,0.0120
3888.00,0.0120
3887.00,0.0121
3886.00,0.0121
3885.00,0.0120
3884.00,0.0120
3883.00,0.0120
3882.00,0.0120
3881.00,0.0120
3880.00,0.0120
3879.00,0.0120
3878.00,0.0120
3877.00,0.0120
3876.00,0.0120
3875.00,0.0120
3874.00,0.0120
3873.00,0.0120
3872.00,0.0120
3871.00,0.0120
3870.00,0.0120
3869.00,0.0120
3868.00,0.0120
3867.00,0.0119
3866.00,0.0119
3865.00,0.0119
3864.00,0.0119
3863.00,0.0119
3862.00,0.0119
3861.00,0.0119
3860.00,0.0119
3859.00,0.0119
3858.00,0.0119
3857.00,0.0119
3856.00,0.0119
3855.00,0.0119
3854.00,0.0119
3853.00,0.0119
3852.00,0.0118
3851.00,0.0118
3850.00,0.0118
3849.00,0.0118
3848.00,0.0119
3847.00,0.0119
3846.00,0.0119
3845.00,0.0119
3844.00,0.0119
3843.00,0.0119
3842.00,0.0118
3841.00,0.0118
3840.00,0.0118
3839.00,0.0118
3838.00,0.0118
3837.00,0.0118
3836.00,0.0118
3835.00,0.0118
3834.00,0.0118
3833.00,0.0118
3832.00,0.0118
3831.00,0.0118
3830.00,0.0118
3829.00,0.0118
3828.00,0.0118
3827.00,0.0118
3826.00,0.0118
3825.00,0.0118
3824.00,0.0118
3823.00,0.0117
3822.00,0.0117
3821.00,0.0117
3820.00,0.0117
3819.00,0.0117
3818.00,0.0117
3817.00,0.0117
3816.00,0.0117
3815.00,0.0117
3814.00,0.0117
3813.00,0.0117
3812.00,0.0117
3811.00,0.0117
3810.00,0.0117
3809.00,0.0117
3808.00,0.0117
3807.00,0.0117
3806.00,0.0116
3805.00,0.0116
3804.00,0.0116
3803.00,0.0116
3802.00,0.0116
3801.00,0.0116
3800.00,0.0116
3799.00,0.0116
3798.00,0.0116
3797.00,0.0116
3796.00,0.0116
3795.00,0.0116
3794.00,0.0116
3793.00,0.0116
3792.00,0.0116
3791.00,0.0116
3790.00,0.0116
3789.00,0.0116
3788.00,0.0116
3787.00,0.0116
3786.00,0.0115
3785.00,0.0115
3784.00,0.0115
3783.00,0.0115
3782.00,0.0115
3781.00,0.0115
3780.00,0.0115
3779.00,0.0115
3778.00,0.0115
3777.00,0.0115
3776.00,0.0115
3775.00,0.0115
3774.00,0.0115
3773.00,0.0115
3772.00,0.0115
3771.00,0.0115
3770.00,0.0115
3769.00,0.0115
3768.00,0.0115
3767.00,0.0115
3766.00,0.0115
3765.00,0.0115
3764.00,0.0114
3763.00,0.0114
3762.00,0.0114
3761.00,0.0114
3760.00,0.0114
3759.00,0.0114
3758.00,0.0114
3757.00,0.0114
3756.00,0.0114
3755.00,0.0114
3754.00,0.0114
3753.00,0.0114
3752.00,0.0114
3751.00,0.0114
3750.00,0.0113
3749.00,0.0113
3748.00,0.0113
3747.00,0.0113
3746.00,0.0113
3745.00,0.0113
3744.00,0.0113
3743.00,0.0113
3742.00,0.0112
3741.00,0.0112
3740.00,0.0112
3739.00,0.0112
3738.00,0.0112
3737.00,0.0112
3736.00,0.0112
3735.00,0.0111
3734.00,0.0111
3733.00,0.0111
3732.00,0.0111
3731.00,0.0111
3730.00,0.0111
3729.00,0.0111
3728.00,0.0111
3727.00,0.0111
3726.00,0.0111
3725.00,0.0111
3724.00,0.0111
3723.00,0.0111
3722.00,0.0111
3721.00,0.0111
3720.00,0.0110
3719.00,0.0110
3718.00,0.0110
3717.00,0.0110
3716.00,0.0110
3715.00,0.0110
3714.00,0.0110
3713.00,0.0109
3712.00,0.0109
3711.00,0.0109
3710.00,0.0109
3709.00,0.0109
3708.00,0.0109
3707.00,0.0109
3706.00,0.0109
3705.00,0.0109
3704.00,0.0109
3703.00,0.0109
3702.00,0.0109
3701.00,0.0108
3700.00,0.0108
3699.00,0.0108
3698.00,0.0108
3697.00,0.0108
3696.00,0.0108
3695.00,0.0108
3694.00,0.0108
3693.00,0.0108
3692.00,0.0108
3691.00,0.0108
3690.00,0.0108
3689.00,0.0108
3688.00,0.0108
3687.00,0.0108
3686.00,0.0108
3685.00,0.0108
3684.00,0.0108
3683.00,0.0108
3682.00,0.0108
3681.00,0.0108
3680.00,0.0108
3679.00,0.0108
3678.00,0.0108
3677.00,0.0108
3676.00,0.0108
3675.00,0.0108
3674.00,0.0108
3673.00,0.0108
3672.00,0.0108
3671.00,0.0108
3670.00,0.0108
3669.00,0.0108
3668.00,0.0108
3667.00,0.0108
3666.00,0.0108
3665.00,0.0109
3664.00,0.0109
3663.00,0.0109
3662.00,0.0109
3661.00,0.0109
3660.00,0.0109
3659.00,0.0110
3658.00,0.0110
3657.00,0.0110
3656.00,0.0110
3655.00,0.0110
3654.00,0.0111
3653.00,0.0111
3652.00,0.0111
3651.00,0.0111
3650.00,0.0111
3649.00,0.0112
3648.00,0.0112
3647.00,0.0112
3646.00,0.0112
3645.00,0.0112
3644.00,0.0112
3643.00,0.0112
3642.00,0.0112
3641.00,0.0112
3640.00,0.0113
3639.00,0.0113
3638.00,0.0113
3637.00,0.0113
3636.00,0.0113
3635.00,0.0113
3634.00,0.0114
3633.00,0.0114
3632.00,0.0114
3631.00,0.0115
3630.00,0.0115
3629.00,0.0115
3628.00,0.0115
3627.00,0.0115
3626.00,0.0115
3625.00,0.0116
3624.00,0.0116
3623.00,0.0117
3622.00,0.0117
3621.00,0.0117
3620.00,0.0118
3619.00,0.0118
3618.00,0.0118
3617.00,0.0119
3616.00,0.0119
3615.00,0.0119
3614.00,0.0119
3613.00,0.0120
3612.00,0.0120
3611.00,0.0120
3610.00,0.0120
3609.00,0.0121
3608.00,0.0121
3607.00,0.0121
3606.00,0.0122
3605.00,0.0122
3604.00,0.0122
3603.00,0.0123
3602.00,0.0123
3601.00,0.0124
3600.00,0.0124
3599.00,0.0124
3598.00,0.0125
3597.00,0.0125
3596.00,0.0125
3595.00,0.0125
3594.00,0.0126
3593.00,0.0126
3592.00,0.0127
3591.00,0.0127
3590.00,0.0128
3589.00,0.0128
3588.00,0.0128
3587.00,0.0129
3586.00,0.0129
3585.00,0.0129
3584.00,0.0130
3583.00,0.0130
3582.00,0.0131
3581.00,0.0131
3580.00,0.0131
3579.00,0.0132
3578.00,0.0132
3577.00,0.0133
3576.00,0.0133
3575.00,0.0133
3574.00,0.0134
3573.00,0.0135
3572.00,0.0135
3571.00,0.0135
3570.00,0.0136
3569.00,0.0137
3568.00,0.0137
3567.00,0.0138
3566.00,0.0138
3565.00,0.0139
3564.00,0.0139
3563.00,0.0140
3562.00,0.0140
3561.00,0.0141
3560.00,0.0141
3559.00,0.0142
3558.00,0.0142
3557.00,0.0143
3556.00,0.0143
3555.00,0.0144
3554.00,0.0144
3553.00,0.0145
3552.00,0.0145
3551.00,0.0146
3550.00,0.0146
3549.00,0.0147
3548.00,0.0148
3547.00,0.0148
3546.00,0.0149
3545.00,0.0149
3544.00,0.0150
3543.00,0.0151
3542.00,0.0151
3541.00,0.0151
3540.00,0.0152
3539.00,0.0152
3538.00,0.0153
3537.00,0.0153
3536.00,0.0154
3535.00,0.0154
3534.00,0.0155
3533.00,0.0155
3532.00,0.0156
3531.00,0.0157
3530.00,0.0157
3529.00,0.0158
3528.00,0.0158
3527.00,0.0159
3526.00,0.0160
3525.00,0.0160
3524.00,0.0160
3523.00,0.0161
3522.00,0.0161
3521.00,0.0162
3520.00,0.0162
3519.00,0.0163
3518.00,0.0163
3517.00,0.0164
3516.00,0.0164
3515.00,0.0165
3514.00,0.0166
3513.00,0.0166
3512.00,0.0167
3511.00,0.0167
3510.00,0.0167
3509.00,0.0168
3508.00,0.0169
3507.00,0.0169
3506.00,0.0170
3505.00,0.0171
3504.00,0.0171
3503.00,0.0172
3502.00,0.0172
3501.00,0.0173
3500.00,0.0173
3499.00,0.0174
3498.00,0.0174
3497.00,0.0175
3496.00,0.0175
3495.00,0.0176
3494.00,0.0176
3493.00,0.0177
3492.00,0.0177
3491.00,0.0178
3490.00,0.0179
3489.00,0.0179
3488.00,0.0180
3487.00,0.0180
3486.00,0.0181
3485.00,0.0182
3484.00,0.0182
3483.00,0.0183
3482.00,0.0184
3481.00,0.0184
3480.00,0.0185
3479.00,0.0185
3478.00,0.0186
3477.00,0.0186
3476.00,0.0187
3475.00,0.0188
3474.00,0.0188
3473.00,0.0189
3472.00,0.0189
3471.00,0.0190
3470.00,0.0191
3469.00,0.0192
3468.00,0.0192
3467.00,0.0193
3466.00,0.0193
3465.00,0.0194
3464.00,0.0194
3463.00,0.0195
3462.00,0.0195
3461.00,0.0196
3460.00,0.0197
3459.00,0.0197
3458.00,0.0198
3457.00,0.0198
3456.00,0.0199
3455.00,0.0199
3454.00,0.0200
3453.00,0.0200
3452.00,0.0201
3451.00,0.0202
3450.00,0.0203
3449.00,0.0203
3448.00,0.0204
3447.00,0.0204
3446.00,0.0205
3445.00,0.0205
3444.00,0.0206
3443.00,0.0206
3442.00,0.0207
3441.00,0.0208
3440.00,0.0209
3439.00,0.0209
3438.00,0.0210
3437.00,0.0211
3436.00,0.0212
3435.00,0.0212
3434.00,0.0213
3433.00,0.0213
3432.00,0.0214
3431.00,0.0214
3430.00,0.0215
3429.00,0.0215
3428.00,0.0216
3427.00,0.0216
3426.00,0.0217
3425.00,0.0217
3424.00,0.0218
3423.00,0.0219
3422.00,0.0219
3421.00,0.0220
3420.00,0.0221
3419.00,0.0221
3418.00,0.0222
3417.00,0.0223
3416.00,0.0223
3415.00,0.0224
3414.00,0.0224
3413.00,0.0225
3412.00,0.0226
3411.00,0.0226
3410.00,0.0227
3409.00,0.0227
3408.00,0.0228
3407.00,0.0228
3406.00,0.0229
3405.00,0.0230
3404.00,0.0230
3403.00,0.0231
3402.00,0.0232
3401.00,0.0232
3400.00,0.0233
3399.00,0.0233
3398.00,0.0234
3397.00,0.0234
3396.00,0.0235
3395.00,0.0235
3394.00,0.0236
3393.00,0.0236
3392.00,0.0237
3391.00,0.0237
3390.00,0.0238
3389.00,0.0239
3388.00,0.0239
3387.00,0.0240
3386.00,0.0240
3385.00,0.0241
3384.00,0.0242
3383.00,0.0242
3382.00,0.0243
3381.00,0.0244
3380.00,0.0244
3379.00,0.0245
3378.00,0.0246
3377.00,0.0246
3376.00,0.0247
3375.00,0.0248
3374.00,0.0248
3373.00,0.0249
3372.00,0.0250
3371.00,0.0250
3370.00,0.0251
3369.00,0.0252
3368.00,0.0253
3367.00,0.0254
3366.00,0.0254
3365.00,0.0255
3364.00,0.0256
3363.00,0.0257
3362.00,0.0258
3361.00,0.0258
3360.00,0.0259
3359.00,0.0260
3358.00,0.0261
3357.00,0.0262
3356.00,0.0263
3355.00,0.0264
3354.00,0.0265
3353.00,0.0266
3352.00,0.0267
3351.00,0.0268
3350.00,0.0269
3349.00,0.0270
3348.00,0.0271
3347.00,0.0272
3346.00,0.0273
3345.00,0.0274
3344.00,0.0275
3343.00,0.0277
3342.00,0.0278
3341.00,0.0279
3340.00,0.0280
3339.00,0.0281
3338.00,0.0283
3337.00,0.0284
3336.00,0.0286
3335.00,0.0287
3334.00,0.0289
3333.00,0.0290
3332.00,0.0291
3331.00,0.0293
3330.00,0.0294
3329.00,0.0296
3328.00,0.0297
3327.00,0.0299
3326.00,0.0300
3325.00,0.0302
3324.00,0.0304
3323.00,0.0305
3322.00,0.0307
3321.00,0.0309
3320.00,0.0311
3319.00,0.0313
3318.00,0.0315
3317.00,0.0317
3316.00,0.0319
3315.00,0.0321
3314.00,0.0324
3313.00,0.0326
3312.00,0.0327
3311.00,0.0329
3310.00,0.0331
3309.00,0.0333
3308.00,0.0336
3307.00,0.0338
3306.00,0.0341
3305.00,0.0343
3304.00,0.0346
3303.00,0.0349
3302.00,0.0351
3301.00,0.0354
3300.00,0.0356
3299.00,0.0359
3298.00,0.0361
3297.00,0.0363
3296.00,0.0366
3295.00,0.0368
3294.00,0.0371
3293.00,0.0374
3292.00,0.0376
3291.00,0.0379
3290.00,0.0381
3289.00,0.0384
3288.00,0.0386
3287.00,0.0388
3286.00,0.0390
3285.00,0.0393
3284.00,0.0395
3283.00,0.0396
3282.00,0.0398
3281.00,0.0400
3280.00,0.0401
3279.00,0.0403
3278.00,0.0404
3277.00,0.0405
3276.00,0.0405
3275.00,0.0406
3274.00,0.0406
3273.00,0.0406
3272.00,0.0406
3271.00,0.0406
3270.00,0.0406
3269.00,0.0406
3268.00,0.0405
3267.00,0.0405
3266.00,0.0404
3265.00,0.0403
3264.00,0.0401
3263.00,0.0400
3262.00,0.0398
3261.00,0.0397
3260.00,0.0395
3259.00,0.0393
3258.00,0.0391
3257.00,0.0389
3256.00,0.0387
3255.00,0.0385
3254.00,0.0383
3253.00,0.0381
3252.00,0.0378
3251.00,0.0376
3250.00,0.0374
3249.00,0.0372
3248.00,0.0370
3247.00,0.0368
3246.00,0.0366
3245.00,0.0364
3244.00,0.0362
3243.00,0.0360
3242.00,0.0358
3241.00,0.0356
3240.00,0.0354
3239.00,0.0352
3238.00,0.0350
3237.00,0.0349
3236.00,0.0347
3235.00,0.0345
3234.00,0.0343
3233.00,0.0342
3232.00,0.0340
3231.00,0.0339
3230.00,0.0338
3229.00,0.0336
3228.00,0.0335
3227.00,0.0334
3226.00,0.0333
3225.00,0.0331
3224.00,0.0330
3223.00,0.0329
3222.00,0.0328
3221.00,0.0327
3220.00,0.0325
3219.00,0.0324
3218.00,0.0323
3217.00,0.0322
3216.00,0.0321
3215.00,0.0320
3214.00,0.0319
3213.00,0.0318
3212.00,0.0317
3211.00,0.0316
3210.00,0.0315
3209.00,0.0314
3208.00,0.0313
3207.00,0.0312
3206.00,0.0311
3205.00,0.0310
3204.00,0.0309
3203.00,0.0308
3202.00,0.0307
3201.00,0.0307
3200.00,0.0306
3199.00,0.0305
3198.00,0.0304
3197.00,0.0303
3196.00,0.0302
3195.00,0.0301
3194.00,0.0300
3193.00,0.0299
3192.00,0.0298
3191.00,0.0297
3190.00,0.0296
3189.00,0.0295
3188.00,0.0294
3187.00,0.0293
3186.00,0.0292
3185.00,0.0291
3184.00,0.0290
3183.00,0.0289
3182.00,0.0288
3181.00,0.0287
3180.00,0.0286
3179.00,0.0285
3178.00,0.0285
3177.00,0.0284
3176.00,0.0283
3175.00,0.0282
3174.00,0.0280
3173.00,0.0279
3172.00,0.0278
3171.00,0.0277
3170.00,0.0276
3169.00,0.0275
3168.00,0.0274
3167.00,0.0273
3166.00,0.0272
3165.00,0.0271
3164.00,0.0270
3163.00,0.0269
3162.00,0.0268
3161.00,0.0267
3160.00,0.0266
3159.00,0.0265
3158.00,0.0264
3157.00,0.0263
3156.00,0.0262
3155.00,0.0261
3154.00,0.0260
3153.00,0.0259
3152.00,0.0258
3151.00,0.0257
3150.00,0.0256
3149.00,0.0256
3148.00,0.0255
3147.00,0.0254
3146.00,0.0253
3145.00,0.0252
3144.00,0.0251
3143.00,0.0250
3142.00,0.0250
3141.00,0.0249
3140.00,0.0248
3139.00,0.0247
3138.00,0.0246
3137.00,0.0245
3136.00,0.0244
3135.00,0.0244
3134.00,0.0243
3133.00,0.0242
3132.00,0.0241
3131.00,0.0241
3130.00,0.0240
3129.00,0.0239
3128.00,0.0239
3127.00,0.0238
3126.00,0.0238
3125.00,0.0237
3124.00,0.0237
3123.00,0.0236
3122.00,0.0235
3121.00,0.0235
3120.00,0.0234
3119.00,0.0234
3118.00,0.0233
3117.00,0.0233
3116.00,0.0232
3115.00,0.0232
3114.00,0.0232
3113.00,0.0232
3112.00,0.0231
3111.00,0.0231
3110.00,0.0231
3109.00,0.0230
3108.00,0.0230
3107.00,0.0230
3106.00,0.0230
3105.00,0.0230
3104.00,0.0230
3103.00,0.0230
3102.00,0.0229
3101.00,0.0229
3100.00,0.0229
3099.00,0.0229
3098.00,0.0229
3097.00,0.0229
3096.00,0.0229
3095.00,0.0229
3094.00,0.0229
3093.00,0.0229
3092.00,0.0229
3091.00,0.0229
3090.00,0.0229
3089.00,0.0229
3088.00,0.0229
3087.00,0.0229
3086.00,0.0229
3085.00,0.0229
3084.00,0.0229
3083.00,0.0229
3082.00,0.0229
3081.00,0.0229
3080.00,0.0229
3079.00,0.0229
3078.00,0.0229
3077.00,0.0229
3076.00,0.0230
3075.00,0.0230
3074.00,0.0230
3073.00,0.0230
3072.00,0.0230
3071.00,0.0230
3070.00,0.0230
3069.00,0.0229
3068.00,0.0229
3067.00,0.0229
3066.00,0.0229
3065.00,0.0229
3064.00,0.0229
3063.00,0.0229
3062.00,0.0229
3061.00,0.0228
3060.00,0.0228
3059.00,0.0228
3058.00,0.0227
3057.00,0.0227
3056.00,0.0226
3055.00,0.0225
3054.00,0.0225
3053.00,0.0224
3052.00,0.0224
3051.00,0.0223
3050.00,0.0223
3049.00,0.0222
3048.00,0.0222
3047.00,0.0221
3046.00,0.0220
3045.00,0.0219
3044.00,0.0219
3043.00,0.0218
3042.00,0.0217
3041.00,0.0217
3040.00,0.0217
3039.00,0.0216
3038.00,0.0216
3037.00,0.0215
3036.00,0.0214
3035.00,0.0213
3034.00,0.0213
3033.00,0.0212
3032.00,0.0212
3031.00,0.0211
3030.00,0.0211
3029.00,0.0211
3028.00,0.0210
3027.00,0.0209
3026.00,0.0208
3025.00,0.0208
3024.00,0.0207
3023.00,0.0206
3022.00,0.0206
3021.00,0.0205
3020.00,0.0204
3019.00,0.0203
3018.00,0.0203
3017.00,0.0202
3016.00,0.0201
3015.00,0.0201
3014.00,0.0200
3013.00,0.0200
3012.00,0.0199
3011.00,0.0199
3010.00,0.0199
3009.00,0.0198
3008.00,0.0198
3007.00,0.0198
3006.00,0.0198
3005.00,0.0198
3004.00,0.0197
3003.00,0.0197
3002.00,0.0197
3001.00,0.0197
3000.00,0.0197
2999.00,0.0197
2998.00,0.0196
2997.00,0.0197
2996.00,0.0197
2995.00,0.0197
2994.00,0.0197
2993.00,0.0197
2992.00,0.0198
2991.00,0.0198
2990.00,0.0199
2989.00,0.0199
2988.00,0.0199
2987.00,0.0200
2986.00,0.0201
2985.00,0.0201
2984.00,0.0202
2983.00,0.0202
2982.00,0.0203
2981.00,0.0203
2980.00,0.0204
2979.00,0.0205
2978.00,0.0205
2977.00,0.0206
2976.00,0.0206
2975.00,0.0207
2974.00,0.0207
2973.00,0.0207
2972.00,0.0208
2971.00,0.0208
2970.00,0.0209
2969.00,0.0209
2968.00,0.0209
2967.00,0.0209
2966.00,0.0209
2965.00,0.0209
2964.00,0.0208
2963.00,0.0208
2962.00,0.0208
2961.00,0.0207
2960.00,0.0206
2959.00,0.0206
2958.00,0.0205
2957.00,0.0205
2956.00,0.0205
2955.00,0.0204
2954.00,0.0204
2953.00,0.0204
2952.00,0.0204
2951.00,0.0204
2950.00,0.0205
2949.00,0.0205
2948.00,0.0205
2947.00,0.0205
2946.00,0.0205
2945.00,0.0205
2944.00,0.0205
2943.00,0.0206
2942.00,0.0206
2941.00,0.0206
2940.00,0.0206
2939.00,0.0206
2938.00,0.0206
2937.00,0.0206
2936.00,0.0206
2935.00,0.0205
2934.00,0.0205
2933.00,0.0204
2932.00,0.0202
2931.00,0.0201
2930.00,0.0199
2929.00,0.0197
2928.00,0.0195
2927.00,0.0192
2926.00,0.0188
2925.00,0.0185
2924.00,0.0181
2923.00,0.0177
2922.00,0.0172
2921.00,0.0167
2920.00,0.0161
2919.00,0.0156
2918.00,0.0152
2917.00,0.0149
2916.00,0.0149
2915.00,0.0151
2914.00,0.0155
2913.00,0.0161
2912.00,0.0166
2911.00,0.0171
2910.00,0.0175
2909.00,0.0177
2908.00,0.0179
2907.00,0.0180
2906.00,0.0181
2905.00,0.0181
2904.00,0.0182
2903.00,0.0182
2902.00,0.0182
2901.00,0.0182
2900.00,0.0182
2899.00,0.0182
2898.00,0.0183
2897.00,0.0183
2896.00,0.0183
2895.00,0.0183
2894.00,0.0183
2893.00,0.0184
2892.00,0.0184
2891.00,0.0184
2890.00,0.0185
2889.00,0.0185
2888.00,0.0186
2887.00,0.0186
2886.00,0.0187
2885.00,0.0187
2884.00,0.0188
2883.00,0.0189
2882.00,0.0189
2881.00,0.0190
2880.00,0.0190
2879.00,0.0191
2878.00,0.0191
2877.00,0.0191
2876.00,0.0192
2875.00,0.0192
2874.00,0.0192
2873.00,0.0191
2872.00,0.0191
2871.00,0.0191
2870.00,0.0190
2869.00,0.0189
2868.00,0.0188
2867.00,0.0187
2866.00,0.0186
2865.00,0.0185
2864.00,0.0184
2863.00,0.0183
2862.00,0.0181
2861.00,0.0180
2860.00,0.0179
2859.00,0.0177
2858.00,0.0175
2857.00,0.0173
2856.00,0.0171
2855.00,0.0167
2854.00,0.0163
2853.00,0.0159
2852.00,0.0153
2851.00,0.0148
2850.00,0.0144
2849.00,0.0143
2848.00,0.0144
2847.00,0.0148
2846.00,0.0153
2845.00,0.0158
2844.00,0.0163
2843.00,0.0166
2842.00,0.0168
2841.00,0.0169
2840.00,0.0170
2839.00,0.0170
2838.00,0.0171
2837.00,0.0171
2836.00,0.0171
2835.00,0.0171
2834.00,0.0171
2833.00,0.0171
2832.00,0.0171
2831.00,0.0171
2830.00,0.0170
2829.00,0.0170
2828.00,0.0170
2827.00,0.0170
2826.00,0.0169
2825.00,0.0169
2824.00,0.0169
2823.00,0.0169
2822.00,0.0169
2821.00,0.0169
2820.00,0.0169
2819.00,0.0168
2818.00,0.0168
2817.00,0.0168
2816.00,0.0168
2815.00,0.0168
2814.00,0.0168
2813.00,0.0167
2812.00,0.0167
2811.00,0.0167
2810.00,0.0167
2809.00,0.0167
2808.00,0.0166
2807.00,0.0166
2806.00,0.0166
2805.00,0.0166
2804.00,0.0166
2803.00,0.0166
2802.00,0.0166
2801.00,0.0165
2800.00,0.0165
2799.00,0.0165
2798.00,0.0165
2797.00,0.0165
2796.00,0.0164
2795.00,0.0164
2794.00,0.0164
2793.00,0.0164
2792.00,0.0164
2791.00,0.0164
2790.00,0.0164
2789.00,0.0163
2788.00,0.0163
2787.00,0.0163
2786.00,0.0163
2785.00,0.0163
2784.00,0.0162
2783.00,0.0162
2782.00,0.0162
2781.00,0.0162
2780.00,0.0162
2779.00,0.0162
2778.00,0.0162
2777.00,0.0161
2776.00,0.0161
2775.00,0.0161
2774.00,0.0161
2773.00,0.0161
2772.00,0.0160
2771.00,0.0160
2770.00,0.0160
2769.00,0.0160
2768.00,0.0160
2767.00,0.0160
2766.00,0.0160
2765.00,0.0159
2764.00,0.0159
2763.00,0.0159
2762.00,0.0159
2761.00,0.0158
2760.00,0.0158
2759.00,0.0158
2758.00,0.0158
2757.00,0.0158
2756.00,0.0158
2755.00,0.0157
2754.00,0.0157
2753.00,0.0157
2752.00,0.0157
2751.00,0.0157
2750.00,0.0157
2749.00,0.0156
2748.00,0.0156
2747.00,0.0156
2746.00,0.0156
2745.00,0.0156
2744.00,0.0156
2743.00,0.0156
2742.00,0.0155
2741.00,0.0155
2740.00,0.0155
2739.00,0.0155
2738.00,0.0155
2737.00,0.0154
2736.00,0.0154
2735.00,0.0154
2734.00,0.0154
2733.00,0.0154
2732.00,0.0153
2731.00,0.0153
2730.00,0.0153
2729.00,0.0153
2728.00,0.0153
2727.00,0.0152
2726.00,0.0152
2725.00,0.0152
2724.00,0.0152
2723.00,0.0152
2722.00,0.0151
2721.00,0.0151
2720.00,0.0151
2719.00,0.0151
2718.00,0.0151
2717.00,0.0151
2716.00,0.0151
2715.00,0.0150
2714.00,0.0150
2713.00,0.0150
2712.00,0.0150
2711.00,0.0150
2710.00,0.0149
2709.00,0.0149
2708.00,0.0149
2707.00,0.0149
2706.00,0.0148
2705.00,0.0148
2704.00,0.0148
2703.00,0.0148
2702.00,0.0148
2701.00,0.0148
2700.00,0.0147
2699.00,0.0147
2698.00,0.0147
2697.00,0.0147
2696.00,0.0147
2695.00,0.0147
2694.00,0.0147
2693.00,0.0146
2692.00,0.0146
2691.00,0.0146
2690.00,0.0146
2689.00,0.0146
2688.00,0.0146
2687.00,0.0146
2686.00,0.0145
2685.00,0.0145
2684.00,0.0145
2683.00,0.0145
2682.00,0.0145
2681.00,0.0145
2680.00,0.0145
2679.00,0.0144
2678.00,0.0144
2677.00,0.0144
2676.00,0.0144
2675.00,0.0144
2674.00,0.0144
2673.00,0.0144
2672.00,0.0144
2671.00,0.0144
2670.00,0.0143
2669.00,0.0143
2668.00,0.0143
2667.00,0.0144
2666.00,0.0144
2665.00,0.0144
2664.00,0.0145
2663.00,0.0145
2662.00,0.0145
2661.00,0.0145
2660.00,0.0145
2659.00,0.0145
2658.00,0.0145
2657.00,0.0145
2656.00,0.0145
2655.00,0.0145
2654.00,0.0145
2653.00,0.0145
2652.00,0.0145
2651.00,0.0145
2650.00,0.0145
2649.00,0.0145
2648.00,0.0145
2647.00,0.0144
2646.00,0.0144
2645.00,0.0144
2644.00,0.0144
2643.00,0.0144
2642.00,0.0143
2641.00,0.0143
2640.00,0.0143
2639.00,0.0143
2638.00,0.0142
2637.00,0.0142
2636.00,0.0142
2635.00,0.0142
2634.00,0.0142
2633.00,0.0142
2632.00,0.0141
2631.00,0.0141
2630.00,0.0141
2629.00,0.0141
2628.00,0.0141
2627.00,0.0141
2626.00,0.0140
2625.00,0.0140
2624.00,0.0140
2623.00,0.0140
2622.00,0.0140
2621.00,0.0140
2620.00,0.0140
2619.00,0.0139
2618.00,0.0139
2617.00,0.0139
2616.00,0.0139
2615.00,0.0138
2614.00,0.0138
2613.00,0.0138
2612.00,0.0138
2611.00,0.0138
2610.00,0.0137
2609.00,0.0137
2608.00,0.0137
2607.00,0.0137
2606.00,0.0137
2605.00,0.0136
2604.00,0.0136
2603.00,0.0136
2602.00,0.0136
2601.00,0.0136
2600.00,0.0136
2599.00,0.0136
2598.00,0.0135
2597.00,0.0135
2596.00,0.0135
2595.00,0.0135
2594.00,0.0135
2593.00,0.0134
2592.00,0.0134
2591.00,0.0134
2590.00,0.0134
2589.00,0.0134
2588.00,0.0133
2587.00,0.0133
2586.00,0.0133
2585.00,0.0133
2584.00,0.0132
2583.00,0.0132
2582.00,0.0132
2581.00,0.0132
2580.00,0.0132
2579.00,0.0131
2578.00,0.0131
2577.00,0.0131
2576.00,0.0131
2575.00,0.0131
2574.00,0.0131
2573.00,0.0131
2572.00,0.0131
2571.00,0.0131
2570.00,0.0130
2569.00,0.0130
2568.00,0.0130
2567.00,0.0130
2566.00,0.0130
2565.00,0.0129
2564.00,0.0129
2563.00,0.0129
2562.00,0.0129
2561.00,0.0129
2560.00,0.0129
2559.00,0.0129
2558.00,0.0129
2557.00,0.0129
2556.00,0.0128
2555.00,0.0128
2554.00,0.0128
2553.00,0.0128
2552.00,0.0128
2551.00,0.0127
2550.00,0.0127
2549.00,0.0127
2548.00,0.0127
2547.00,0.0127
2546.00,0.0127
2545.00,0.0127
2544.00,0.0127
2543.00,0.0127
2542.00,0.0127
2541.00,0.0126
2540.00,0.0126
2539.00,0.0126
2538.00,0.0126
2537.00,0.0125
2536.00,0.0125
2535.00,0.0126
2534.00,0.0126
2533.00,0.0126
2532.00,0.0125
2531.00,0.0125
2530.00,0.0125
2529.00,0.0125
2528.00,0.0125
2527.00,0.0125
2526.00,0.0125
2525.00,0.0125
2524.00,0.0125
2523.00,0.0125
2522.00,0.0124
2521.00,0.0124
2520.00,0.0124
2519.00,0.0124
2518.00,0.0124
2517.00,0.0124
2516.00,0.0124
2515.00,0.0124
2514.00,0.0123
2513.00,0.0123
2512.00,0.0123
2511.00,0.0123
2510.00,0.0123
2509.00,0.0123
2508.00,0.0123
2507.00,0.0123
2506.00,0.0123
2505.00,0.0123
2504.00,0.0123
2503.00,0.0123
2502.00,0.0123
2501.00,0.0122
2500.00,0.0122
2499.00,0.0122
2498.00,0.0122
2497.00,0.0122
2496.00,0.0122
2495.00,0.0122
2494.00,0.0122
2493.00,0.0122
2492.00,0.0121
2491.00,0.0121
2490.00,0.0121
2489.00,0.0121
2488.00,0.0121
2487.00,0.0121
2486.00,0.0121
2485.00,0.0121
2484.00,0.0121
2483.00,0.0121
2482.00,0.0121
2481.00,0.0121
2480.00,0.0121
2479.00,0.0121
2478.00,0.0121
2477.00,0.0120
2476.00,0.0120
2475.00,0.0120
2474.00,0.0120
2473.00,0.0120
2472.00,0.0120
2471.00,0.0120
2470.00,0.0120
2469.00,0.0120
2468.00,0.0120
2467.00,0.0120
2466.00,0.0120
2465.00,0.0120
2464.00,0.0120
2463.00,0.0120
2462.00,0.0120
2461.00,0.0120
2460.00,0.0120
2459.00,0.0120
2458.00,0.0120
2457.00,0.0121
2456.00,0.0121
2455.00,0.0120
2454.00,0.0120
2453.00,0.0120
2452.00,0.0120
2451.00,0.0120
2450.00,0.0120
2449.00,0.0119
2448.00,0.0119
2447.00,0.0119
2446.00,0.0119
2445.00,0.0118
2444.00,0.0118
2443.00,0.0118
2442.00,0.0118
2441.00,0.0118
2440.00,0.0118
2439.00,0.0118
2438.00,0.0117
2437.00,0.0117
2436.00,0.0117
2435.00,0.0117
2434.00,0.0117
2433.00,0.0117
2432.00,0.0117
2431.00,0.0117
2430.00,0.0117
2429.00,0.0116
2428.00,0.0116
2427.00,0.0116
2426.00,0.0116
2425.00,0.0115
2424.00,0.0115
2423.00,0.0115
2422.00,0.0115
2421.00,0.0115
2420.00,0.0115
2419.00,0.0115
2418.00,0.0114
2417.00,0.0114
2416.00,0.0114
2415.00,0.0114
2414.00,0.0114
2413.00,0.0114
2412.00,0.0114
2411.00,0.0114
2410.00,0.0114
2409.00,0.0114
2408.00,0.0113
2407.00,0.0113
2406.00,0.0112
2405.00,0.0112
2404.00,0.0112
2403.00,0.0112
2402.00,0.0112
2401.00,0.0112
2400.00,0.0112
2399.00,0.0112
2398.00,0.0112
2397.00,0.0112
2396.00,0.0111
2395.00,0.0111
2394.00,0.0111
2393.00,0.0111
2392.00,0.0111
2391.00,0.0111
2390.00,0.0111
2389.00,0.0110
2388.00,0.0110
2387.00,0.0110
2386.00,0.0109
2385.00,0.0109
2384.00,0.0108
2383.00,0.0108
2382.00,0.0107
2381.00,0.0107
2380.00,0.0107
2379.00,0.0107
2378.00,0.0107
2377.00,0.0107
2376.00,0.0107
2375.00,0.0107
2374.00,0.0107
2373.00,0.0107
2372.00,0.0107
2371.00,0.0106
2370.00,0.0106
2369.00,0.0106
2368.00,0.0106
2367.00,0.0106
2366.00,0.0106
2365.00,0.0106
2364.00,0.0106
2363.00,0.0107
2362.00,0.0107
2361.00,0.0107
2360.00,0.0107
2359.00,0.0107
2358.00,0.0107
2357.00,0.0107
2356.00,0.0108
2355.00,0.0108
2354.00,0.0107
2353.00,0.0107
2352.00,0.0107
2351.00,0.0107
2350.00,0.0108
2349.00,0.0108
2348.00,0.0108
2347.00,0.0108
2346.00,0.0108
2345.00,0.0109
2344.00,0.0109
2343.00,0.0109
2342.00,0.0109
2341.00,0.0110
2340.00,0.0110
2339.00,0.0110
2338.00,0.0110
2337.00,0.0110
2336.00,0.0110
2335.00,0.0110
2334.00,0.0109
2333.00,0.0109
2332.00,0.0109
2331.00,0.0109
2330.00,0.0109
2329.00,0.0111
2328.00,0.0114
2327.00,0.0118
2326.00,0.0121
2325.00,0.0122
2324.00,0.0121
2323.00,0.0119
2322.00,0.0118
2321.00,0.0116
2320.00,0.0115
2319.00,0.0115
2318.00,0.0114
2317.00,0.0114
2316.00,0.0113
2315.00,0.0113
2314.00,0.0112
2313.00,0.0112
2312.00,0.0111
2311.00,0.0111
2310.00,0.0111
2309.00,0.0111
2308.00,0.0111
2307.00,0.0111
2306.00,0.0111
2305.00,0.0111
2304.00,0.0112
2303.00,0.0112
2302.00,0.0112
2301.00,0.0112
2300.00,0.0113
2299.00,0.0113
2298.00,0.0113
2297.00,0.0114
2296.00,0.0114
2295.00,0.0115
2294.00,0.0115
2293.00,0.0116
2292.00,0.0117
2291.00,0.0117
2290.00,0.0118
2289.00,0.0118
2288.00,0.0119
2287.00,0.0119
2286.00,0.0118
2285.00,0.0117
2284.00,0.0117
2283.00,0.0116
2282.00,0.0115
2281.00,0.0114
2280.00,0.0114
2279.00,0.0114
2278.00,0.0113
2277.00,0.0113
2276.00,0.0113
2275.00,0.0113
2274.00,0.0112
2273.00,0.0112
2272.00,0.0112
2271.00,0.0112
2270.00,0.0111
2269.00,0.0111
2268.00,0.0111
2267.00,0.0111
2266.00,0.0110
2265.00,0.0110
2264.00,0.0110
2263.00,0.0110
2262.00,0.0110
2261.00,0.0110
2260.00,0.0110
2259.00,0.0110
2258.00,0.0109
2257.00,0.0109
2256.00,0.0108
2255.00,0.0107
2254.00,0.0107
2253.00,0.0107
2252.00,0.0107
2251.00,0.0107
2250.00,0.0107
2249.00,0.0107
2248.00,0.0107
2247.00,0.0107
2246.00,0.0107
2245.00,0.0107
2244.00,0.0107
2243.00,0.0107
2242.00,0.0107
2241.00,0.0107
2240.00,0.0107
2239.00,0.0107
2238.00,0.0107
2237.00,0.0106
2236.00,0.0107
2235.00,0.0107
2234.00,0.0107
2233.00,0.0107
2232.00,0.0107
2231.00,0.0107
2230.00,0.0107
2229.00,0.0107
2228.00,0.0106
2227.00,0.0106
2226.00,0.0106
2225.00,0.0106
2224.00,0.0105
2223.00,0.0105
2222.00,0.0105
2221.00,0.0105
2220.00,0.0105
2219.00,0.0105
2218.00,0.0105
2217.00,0.0105
2216.00,0.0105
2215.00,0.0105
2214.00,0.0105
2213.00,0.0105
2212.00,0.0104
2211.00,0.0104
2210.00,0.0104
2209.00,0.0104
2208.00,0.0104
2207.00,0.0104
2206.00,0.0104
2205.00,0.0104
2204.00,0.0105
2203.00,0.0105
2202.00,0.0105
2201.00,0.0105
2200.00,0.0105
2199.00,0.0105
2198.00,0.0104
2197.00,0.0104
2196.00,0.0105
2195.00,0.0105
2194.00,0.0106
2193.00,0.0106
2192.00,0.0106
2191.00,0.0105
2190.00,0.0105
2189.00,0.0106
2188.00,0.0107
2187.00,0.0107
2186.00,0.0106
2185.00,0.0104
2184.00,0.0102
2183.00,0.0100
2182.00,0.0099
2181.00,0.0099
2180.00,0.0099
2179.00,0.0099
2178.00,0.0099
2177.00,0.0098
2176.00,0.0097
2175.00,0.0097
2174.00,0.0098
2173.00,0.0100
2172.00,0.0102
2171.00,0.0105
2170.00,0.0106
2169.00,0.0108
2168.00,0.0109
2167.00,0.0110
2166.00,0.0110
2165.00,0.0111
2164.00,0.0113
2163.00,0.0113
2162.00,0.0107
2161.00,0.0097
2160.00,0.0084
2159.00,0.0074
2158.00,0.0068
2157.00,0.0069
2156.00,0.0072
2155.00,0.0075
2154.00,0.0077
2153.00,0.0080
2152.00,0.0082
2151.00,0.0083
2150.00,0.0084
2149.00,0.0084
2148.00,0.0083
2147.00,0.0083
2146.00,0.0083
2145.00,0.0083
2144.00,0.0083
2143.00,0.0083
2142.00,0.0084
2141.00,0.0084
2140.00,0.0085
2139.00,0.0085
2138.00,0.0084
2137.00,0.0082
2136.00,0.0080
2135.00,0.0079
2134.00,0.0078
2133.00,0.0078
2132.00,0.0080
2131.00,0.0081
2130.00,0.0082
2129.00,0.0084
2128.00,0.0086
2127.00,0.0087
2126.00,0.0088
2125.00,0.0089
2124.00,0.0090
2123.00,0.0091
2122.00,0.0092
2121.00,0.0092
2120.00,0.0093
2119.00,0.0094
2118.00,0.0094
2117.00,0.0095
2116.00,0.0096
2115.00,0.0096
2114.00,0.0096
2113.00,0.0095
2112.00,0.0095
2111.00,0.0095
2110.00,0.0095
2109.00,0.0095
2108.00,0.0095
2107.00,0.0095
2106.00,0.0095
2105.00,0.0096
2104.00,0.0096
2103.00,0.0096
2102.00,0.0096
2101.00,0.0095
2100.00,0.0095
2099.00,0.0094
2098.00,0.0093
2097.00,0.0092
2096.00,0.0090
2095.00,0.0089
2094.00,0.0089
2093.00,0.0090
2092.00,0.0091
2091.00,0.0092
2090.00,0.0093
2089.00,0.0093
2088.00,0.0094
2087.00,0.0094
2086.00,0.0095
2085.00,0.0095
2084.00,0.0095
2083.00,0.0095
2082.00,0.0095
2081.00,0.0095
2080.00,0.0096
2079.00,0.0096
2078.00,0.0095
2077.00,0.0095
2076.00,0.0095
2075.00,0.0094
2074.00,0.0094
2073.00,0.0093
2072.00,0.0094
2071.00,0.0094
2070.00,0.0094
2069.00,0.0093
2068.00,0.0093
2067.00,0.0093
2066.00,0.0092
2065.00,0.0092
2064.00,0.0092
2063.00,0.0091
2062.00,0.0091
2061.00,0.0091
2060.00,0.0091
2059.00,0.0092
2058.00,0.0092
2057.00,0.0092
2056.00,0.0092
2055.00,0.0092
2054.00,0.0094
2053.00,0.0098
2052.00,0.0101
2051.00,0.0102
2050.00,0.0099
2049.00,0.0096
2048.00,0.0094
2047.00,0.0092
2046.00,0.0092
2045.00,0.0091
2044.00,0.0091
2043.00,0.0091
2042.00,0.0092
2041.00,0.0092
2040.00,0.0093
2039.00,0.0092
2038.00,0.0092
2037.00,0.0091
2036.00,0.0091
2035.00,0.0089
2034.00,0.0087
2033.00,0.0086
2032.00,0.0084
2031.00,0.0083
2030.00,0.0082
2029.00,0.0081
2028.00,0.0081
2027.00,0.0080
2026.00,0.0079
2025.00,0.0079
2024.00,0.0079
2023.00,0.0080
2022.00,0.0081
2021.00,0.0081
2020.00,0.0081
2019.00,0.0081
2018.00,0.0080
2017.00,0.0080
2016.00,0.0080
2015.00,0.0080
2014.00,0.0081
2013.00,0.0082
2012.00,0.0083
2011.00,0.0083
2010.00,0.0082
2009.00,0.0081
2008.00,0.0078
2007.00,0.0075
2006.00,0.0074
2005.00,0.0074
2004.00,0.0075
2003.00,0.0076
2002.00,0.0077
2001.00,0.0079
2000.00,0.0080
1999.00,0.0080
1998.00,0.0081
1997.00,0.0081
1996.00,0.0082
1995.00,0.0083
1994.00,0.0082
1993.00,0.0083
1992.00,0.0083
1991.00,0.0083
1990.00,0.0083
1989.00,0.0084
1988.00,0.0085
1987.00,0.0086
1986.00,0.0086
1985.00,0.0088
1984.00,0.0089
1983.00,0.0091
1982.00,0.0093
1981.00,0.0093
1980.00,0.0091
1979.00,0.0086
1978.00,0.0080
1977.00,0.0075
1976.00,0.0073
1975.00,0.0072
1974.00,0.0071
1973.00,0.0071
1972.00,0.0072
1971.00,0.0072
1970.00,0.0072
1969.00,0.0072
1968.00,0.0073
1967.00,0.0073
1966.00,0.0072
1965.00,0.0071
1964.00,0.0071
1963.00,0.0071
1962.00,0.0070
1961.00,0.0069
1960.00,0.0069
1959.00,0.0068
1958.00,0.0068
1957.00,0.0069
1956.00,0.0070
1955.00,0.0071
1954.00,0.0071
1953.00,0.0071
1952.00,0.0072
1951.00,0.0072
1950.00,0.0072
1949.00,0.0073
1948.00,0.0073
1947.00,0.0072
1946.00,0.0072
1945.00,0.0071
1944.00,0.0071
1943.00,0.0071
1942.00,0.0071
1941.00,0.0071
1940.00,0.0071
1939.00,0.0071
1938.00,0.0071
1937.00,0.0071
1936.00,0.0071
1935.00,0.0071
1934.00,0.0071
1933.00,0.0071
1932.00,0.0071
1931.00,0.0071
1930.00,0.0071
1929.00,0.0071
1928.00,0.0071
1927.00,0.0071
1926.00,0.0070
1925.00,0.0070
1924.00,0.0070
1923.00,0.0070
1922.00,0.0071
1921.00,0.0071
1920.00,0.0072
1919.00,0.0072
1918.00,0.0071
1917.00,0.0071
1916.00,0.0072
1915.00,0.0072
1914.00,0.0071
1913.00,0.0071
1912.00,0.0071
1911.00,0.0071
1910.00,0.0071
1909.00,0.0071
1908.00,0.0071
1907.00,0.0071
1906.00,0.0071
1905.00,0.0071
1904.00,0.0071
1903.00,0.0071
1902.00,0.0070
1901.00,0.0070
1900.00,0.0070
1899.00,0.0070
1898.00,0.0070
1897.00,0.0070
1896.00,0.0070
1895.00,0.0070
1894.00,0.0070
1893.00,0.0070
1892.00,0.0070
1891.00,0.0070
1890.00,0.0070
1889.00,0.0070
1888.00,0.0070
1887.00,0.0070
1886.00,0.0070
1885.00,0.0070
1884.00,0.0070
1883.00,0.0070
1882.00,0.0070
1881.00,0.0070
1880.00,0.0069
1879.00,0.0069
1878.00,0.0069
1877.00,0.0069
1876.00,0.0069
1875.00,0.0069
1874.00,0.0069
1873.00,0.0069
1872.00,0.0069
1871.00,0.0069
1870.00,0.0068
1869.00,0.0068
1868.00,0.0068
1867.00,0.0068
1866.00,0.0068
1865.00,0.0068
1864.00,0.0068
1863.00,0.0068
1862.00,0.0067
1861.00,0.0067
1860.00,0.0067
1859.00,0.0067
1858.00,0.0067
1857.00,0.0067
1856.00,0.0067
1855.00,0.0067
1854.00,0.0067
1853.00,0.0067
1852.00,0.0067
1851.00,0.0067
1850.00,0.0066
1849.00,0.0066
1848.00,0.0066
1847.00,0.0065
1846.00,0.0065
1845.00,0.0065
1844.00,0.0066
1843.00,0.0066
1842.00,0.0066
1841.00,0.0066
1840.00,0.0066
1839.00,0.0066
1838.00,0.0065
1837.00,0.0065
1836.00,0.0065
1835.00,0.0065
1834.00,0.0065
1833.00,0.0065
1832.00,0.0064
1831.00,0.0064
1830.00,0.0064
1829.00,0.0064
1828.00,0.0065
1827.00,0.0064
1826.00,0.0064
1825.00,0.0065
1824.00,0.0065
1823.00,0.0065
1822.00,0.0064
1821.00,0.0064
1820.00,0.0063
1819.00,0.0062
1818.00,0.0062
1817.00,0.0061
1816.00,0.0062
1815.00,0.0062
1814.00,0.0062
1813.00,0.0063
1812.00,0.0063
1811.00,0.0063
1810.00,0.0063
1809.00,0.0063
1808.00,0.0064
1807.00,0.0064
1806.00,0.0063
1805.00,0.0063
1804.00,0.0063
1803.00,0.0063
1802.00,0.0063
1801.00,0.0063
1800.00,0.0063
1799.00,0.0064
1798.00,0.0063
1797.00,0.0063
1796.00,0.0063
1795.00,0.0063
1794.00,0.0063
1793.00,0.0063
1792.00,0.0063
1791.00,0.0063
1790.00,0.0063
1789.00,0.0063
1788.00,0.0063
1787.00,0.0063
1786.00,0.0062
1785.00,0.0062
1784.00,0.0063
1783.00,0.0063
1782.00,0.0063
1781.00,0.0062
1780.00,0.0062
1779.00,0.0062
1778.00,0.0062
1777.00,0.0062
1776.00,0.0062
1775.00,0.0062
1774.00,0.0062
1773.00,0.0062
1772.00,0.0063
1771.00,0.0062
1770.00,0.0062
1769.00,0.0062
1768.00,0.0062
1767.00,0.0062
1766.00,0.0062
1765.00,0.0062
1764.00,0.0062
1763.00,0.0062
1762.00,0.0062
1761.00,0.0062
1760.00,0.0062
1759.00,0.0062
1758.00,0.0062
1757.00,0.0062
1756.00,0.0062
1755.00,0.0062
1754.00,0.0062
1753.00,0.0062
1752.00,0.0062
1751.00,0.0062
1750.00,0.0062
1749.00,0.0062
1748.00,0.0062
1747.00,0.0062
1746.00,0.0062
1745.00,0.0062
1744.00,0.0063
1743.00,0.0063
1742.00,0.0063
1741.00,0.0063
1740.00,0.0063
1739.00,0.0063
1738.00,0.0063
1737.00,0.0063
1736.00,0.0064
1735.00,0.0065
1734.00,0.0065
1733.00,0.0065
1732.00,0.0066
1731.00,0.0066
1730.00,0.0065
1729.00,0.0065
1728.00,0.0066
1727.00,0.0067
1726.00,0.0067
1725.00,0.0067
1724.00,0.0068
1723.00,0.0069
1722.00,0.0069
1721.00,0.0069
1720.00,0.0070
1719.00,0.0072
1718.00,0.0073
1717.00,0.0074
1716.00,0.0077
1715.00,0.0078
1714.00,0.0080
1713.00,0.0082
1712.00,0.0084
1711.00,0.0087
1710.00,0.0090
1709.00,0.0094
1708.00,0.0098
1707.00,0.0104
1706.00,0.0111
1705.00,0.0119
1704.00,0.0128
1703.00,0.0136
1702.00,0.0146
1701.00,0.0164
1700.00,0.0187
1699.00,0.0207
1698.00,0.0220
1697.00,0.0232
1696.00,0.0245
1695.00,0.0257
1694.00,0.0265
1693.00,0.0271
1692.00,0.0276
1691.00,0.0282
1690.00,0.0289
1689.00,0.0296
1688.00,0.0304
1687.00,0.0311
1686.00,0.0318
1685.00,0.0329
1684.00,0.0343
1683.00,0.0356
1682.00,0.0365
1681.00,0.0374
1680.00,0.0384
1679.00,0.0394
1678.00,0.0404
1677.00,0.0414
1676.00,0.0426
1675.00,0.0439
1674.00,0.0452
1673.00,0.0462
1672.00,0.0472
1671.00,0.0483
1670.00,0.0496
1669.00,0.0509
1668.00,0.0523
1667.00,0.0535
1666.00,0.0544
1665.00,0.0554
1664.00,0.0566
1663.00,0.0578
1662.00,0.0591
1661.00,0.0603
1660.00,0.0614
1659.00,0.0624
1658.00,0.0633
1657.00,0.0641
1656.00,0.0648
1655.00,0.0655
1654.00,0.0662
1653.00,0.0672
1652.00,0.0683
1651.00,0.0689
1650.00,0.0693
1649.00,0.0695
1648.00,0.0698
1647.00,0.0702
1646.00,0.0707
1645.00,0.0711
1644.00,0.0715
1643.00,0.0718
1642.00,0.0721
1641.00,0.0723
1640.00,0.0726
1639.00,0.0729
1638.00,0.0731
1637.00,0.0733
1636.00,0.0736
1635.00,0.0740
1634.00,0.0744
1633.00,0.0747
1632.00,0.0751
1631.00,0.0754
1630.00,0.0757
1629.00,0.0760
1628.00,0.0764
1627.00,0.0769
1626.00,0.0773
1625.00,0.0777
1624.00,0.0781
1623.00,0.0784
1622.00,0.0788
1621.00,0.0791
1620.00,0.0792
1619.00,0.0793
1618.00,0.0790
1617.00,0.0784
1616.00,0.0777
1615.00,0.0770
1614.00,0.0763
1613.00,0.0754
1612.00,0.0743
1611.00,0.0731
1610.00,0.0718
1609.00,0.0704
1608.00,0.0691
1607.00,0.0677
1606.00,0.0664
1605.00,0.0651
1604.00,0.0637
1603.00,0.0623
1602.00,0.0610
1601.00,0.0597
1600.00,0.0584
1599.00,0.0571
1598.00,0.0559
1597.00,0.0548
1596.00,0.0536
1595.00,0.0524
1594.00,0.0513
1593.00,0.0502
1592.00,0.0491
1591.00,0.0480
1590.00,0.0470
1589.00,0.0460
1588.00,0.0451
1587.00,0.0442
1586.00,0.0434
1585.00,0.0426
1584.00,0.0418
1583.00,0.0411
1582.00,0.0405
1581.00,0.0400
1580.00,0.0396
1579.00,0.0392
1578.00,0.0390
1577.00,0.0388
1576.00,0.0386
1575.00,0.0385
1574.00,0.0386
1573.00,0.0387
1572.00,0.0388
1571.00,0.0390
1570.00,0.0393
1569.00,0.0398
1568.00,0.0403
1567.00,0.0408
1566.00,0.0414
1565.00,0.0420
1564.00,0.0427
1563.00,0.0433
1562.00,0.0439
1561.00,0.0445
1560.00,0.0453
1559.00,0.0466
1558.00,0.0482
1557.00,0.0492
1556.00,0.0500
1555.00,0.0507
1554.00,0.0516
1553.00,0.0526
1552.00,0.0535
1551.00,0.0543
1550.00,0.0552
1549.00,0.0562
1548.00,0.0571
1547.00,0.0578
1546.00,0.0585
1545.00,0.0592
1544.00,0.0600
1543.00,0.0607
1542.00,0.0613
1541.00,0.0621
1540.00,0.0630
1539.00,0.0638
1538.00,0.0645
1537.00,0.0651
1536.00,0.0654
1535.00,0.0658
1534.00,0.0664
1533.00,0.0671
1532.00,0.0678
1531.00,0.0684
1530.00,0.0689
1529.00,0.0694
1528.00,0.0699
1527.00,0.0705
1526.00,0.0711
1525.00,0.0717
1524.00,0.0722
1523.00,0.0727
1522.00,0.0732
1521.00,0.0739
1520.00,0.0744
1519.00,0.0749
1518.00,0.0751
1517.00,0.0753
1516.00,0.0754
1515.00,0.0754
1514.00,0.0752
1513.00,0.0749
1512.00,0.0743
1511.00,0.0738
1510.00,0.0732
1509.00,0.0726
1508.00,0.0716
1507.00,0.0701
1506.00,0.0687
1505.00,0.0676
1504.00,0.0668
1503.00,0.0659
1502.00,0.0649
1501.00,0.0637
1500.00,0.0625
1499.00,0.0612
1498.00,0.0599
1497.00,0.0583
1496.00,0.0568
1495.00,0.0554
1494.00,0.0542
1493.00,0.0530
1492.00,0.0518
1491.00,0.0503
1490.00,0.0488
1489.00,0.0473
1488.00,0.0461
1487.00,0.0450
1486.00,0.0440
1485.00,0.0430
1484.00,0.0422
1483.00,0.0413
1482.00,0.0405
1481.00,0.0398
1480.00,0.0392
1479.00,0.0387
1478.00,0.0382
1477.00,0.0377
1476.00,0.0374
1475.00,0.0371
1474.00,0.0368
1473.00,0.0367
1472.00,0.0366
1471.00,0.0367
1470.00,0.0367
1469.00,0.0366
1468.00,0.0366
1467.00,0.0365
1466.00,0.0365
1465.00,0.0365
1464.00,0.0366
1463.00,0.0367
1462.00,0.0370
1461.00,0.0372
1460.00,0.0375
1459.00,0.0378
1458.00,0.0383
1457.00,0.0389
1456.00,0.0395
1455.00,0.0399
1454.00,0.0401
1453.00,0.0402
1452.00,0.0403
1451.00,0.0403
1450.00,0.0402
1449.00,0.0401
1448.00,0.0399
1447.00,0.0397
1446.00,0.0394
1445.00,0.0391
1444.00,0.0387
1443.00,0.0383
1442.00,0.0378
1441.00,0.0373
1440.00,0.0369
1439.00,0.0364
1438.00,0.0359
1437.00,0.0354
1436.00,0.0349
1435.00,0.0345
1434.00,0.0342
1433.00,0.0340
1432.00,0.0337
1431.00,0.0334
1430.00,0.0332
1429.00,0.0331
1428.00,0.0330
1427.00,0.0330
1426.00,0.0330
1425.00,0.0330
1424.00,0.0331
1423.00,0.0332
1422.00,0.0333
1421.00,0.0334
1420.00,0.0335
1419.00,0.0337
1418.00,0.0339
1417.00,0.0341
1416.00,0.0343
1415.00,0.0344
1414.00,0.0346
1413.00,0.0348
1412.00,0.0349
1411.00,0.0351
1410.00,0.0352
1409.00,0.0354
1408.00,0.0355
1407.00,0.0355
1406.00,0.0356
1405.00,0.0356
1404.00,0.0356
1403.00,0.0356
1402.00,0.0356
1401.00,0.0356
1400.00,0.0355
1399.00,0.0354
1398.00,0.0353
1397.00,0.0353
1396.00,0.0352
1395.00,0.0351
1394.00,0.0351
1393.00,0.0351
1392.00,0.0351
1391.00,0.0351
1390.00,0.0351
1389.00,0.0350
1388.00,0.0349
1387.00,0.0349
1386.00,0.0348
1385.00,0.0347
1384.00,0.0346
1383.00,0.0345
1382.00,0.0344
1381.00,0.0342
1380.00,0.0341
1379.00,0.0339
1378.00,0.0338
1377.00,0.0337
1376.00,0.0336
1375.00,0.0335
1374.00,0.0334
1373.00,0.0333
1372.00,0.0333
1371.00,0.0332
1370.00,0.0331
1369.00,0.0330
1368.00,0.0328
1367.00,0.0326
1366.00,0.0324
1365.00,0.0321
1364.00,0.0319
1363.00,0.0316
1362.00,0.0314
1361.00,0.0312
1360.00,0.0311
1359.00,0.0310
1358.00,0.0308
1357.00,0.0307
1356.00,0.0305
1355.00,0.0304
1354.00,0.0303
1353.00,0.0302
1352.00,0.0302
1351.00,0.0301
1350.00,0.0300
1349.00,0.0299
1348.00,0.0299
1347.00,0.0299
1346.00,0.0298
1345.00,0.0298
1344.00,0.0298
1343.00,0.0297
1342.00,0.0297
1341.00,0.0297
1340.00,0.0297
1339.00,0.0297
1338.00,0.0297
1337.00,0.0297
1336.00,0.0297
1335.00,0.0297
1334.00,0.0297
1333.00,0.0296
1332.00,0.0296
1331.00,0.0296
1330.00,0.0296
1329.00,0.0296
1328.00,0.0296
1327.00,0.0295
1326.00,0.0295
1325.00,0.0295
1324.00,0.0295
1323.00,0.0295
1322.00,0.0295
1321.00,0.0296
1320.00,0.0296
1319.00,0.0296
1318.00,0.0296
1317.00,0.0297
1316.00,0.0297
1315.00,0.0297
1314.00,0.0297
1313.00,0.0297
1312.00,0.0297
1311.00,0.0297
1310.00,0.0297
1309.00,0.0297
1308.00,0.0297
1307.00,0.0297
1306.00,0.0297
1305.00,0.0297
1304.00,0.0296
1303.00,0.0296
1302.00,0.0296
1301.00,0.0295
1300.00,0.0295
1299.00,0.0294
1298.00,0.0294
1297.00,0.0293
1296.00,0.0293
1295.00,0.0293
1294.00,0.0292
1293.00,0.0292
1292.00,0.0292
1291.00,0.0292
1290.00,0.0292
1289.00,0.0292
1288.00,0.0292
1287.00,0.0292
1286.00,0.0292
1285.00,0.0291
1284.00,0.0291
1283.00,0.0290
1282.00,0.0290
1281.00,0.0289
1280.00,0.0289
1279.00,0.0288
1278.00,0.0288
1277.00,0.0288
1276.00,0.0287
1275.00,0.0287
1274.00,0.0287
1273.00,0.0288
1272.00,0.0288
1271.00,0.0288
1270.00,0.0289
1269.00,0.0289
1268.00,0.0290
1267.00,0.0291
1266.00,0.0292
1265.00,0.0293
1264.00,0.0294
1263.00,0.0296
1262.00,0.0298
1261.00,0.0300
1260.00,0.0302
1259.00,0.0305
1258.00,0.0307
1257.00,0.0310
1256.00,0.0313
1255.00,0.0316
1254.00,0.0318
1253.00,0.0321
1252.00,0.0324
1251.00,0.0327
1250.00,0.0330
1249.00,0.0332
1248.00,0.0334
1247.00,0.0337
1246.00,0.0339
1245.00,0.0341
1244.00,0.0342
1243.00,0.0344
1242.00,0.0345
1241.00,0.0346
1240.00,0.0347
1239.00,0.0347
1238.00,0.0348
1237.00,0.0348
1236.00,0.0348
1235.00,0.0348
1234.00,0.0347
1233.00,0.0346
1232.00,0.0346
1231.00,0.0345
1230.00,0.0344
1229.00,0.0343
1228.00,0.0342
1227.00,0.0341
1226.00,0.0340
1225.00,0.0338
1224.00,0.0337
1223.00,0.0335
1222.00,0.0334
1221.00,0.0332
1220.00,0.0330
1219.00,0.0328
1218.00,0.0326
1217.00,0.0323
1216.00,0.0321
1215.00,0.0318
1214.00,0.0316
1213.00,0.0313
1212.00,0.0310
1211.00,0.0307
1210.00,0.0304
1209.00,0.0301
1208.00,0.0297
1207.00,0.0294
1206.00,0.0290
1205.00,0.0286
1204.00,0.0283
1203.00,0.0279
1202.00,0.0276
1201.00,0.0272
1200.00,0.0269
1199.00,0.0266
1198.00,0.0263
1197.00,0.0260
1196.00,0.0258
1195.00,0.0255
1194.00,0.0253
1193.00,0.0251
1192.00,0.0249
1191.00,0.0248
1190.00,0.0246
1189.00,0.0245
1188.00,0.0244
1187.00,0.0243
1186.00,0.0242
1185.00,0.0241
1184.00,0.0240
1183.00,0.0240
1182.00,0.0240
1181.00,0.0240
1180.00,0.0241
1179.00,0.0242
1178.00,0.0243
1177.00,0.0244
1176.00,0.0246
1175.00,0.0248
1174.00,0.0250
1173.00,0.0252
1172.00,0.0254
1171.00,0.0256
1170.00,0.0258
1169.00,0.0259
1168.00,0.0261
1167.00,0.0262
1166.00,0.0264
1165.00,0.0265
1164.00,0.0266
1163.00,0.0267
1162.00,0.0268
1161.00,0.0268
1160.00,0.0268
1159.00,0.0268
1158.00,0.0267
1157.00,0.0266
1156.00,0.0265
1155.00,0.0264
1154.00,0.0262
1153.00,0.0260
1152.00,0.0259
1151.00,0.0257
1150.00,0.0255
1149.00,0.0253
1148.00,0.0251
1147.00,0.0249
1146.00,0.0247
1145.00,0.0245
1144.00,0.0244
1143.00,0.0242
1142.00,0.0241
1141.00,0.0241
1140.00,0.0240
1139.00,0.0240
1138.00,0.0240
1137.00,0.0240
1136.00,0.0240
1135.00,0.0240
1134.00,0.0240
1133.00,0.0241
1132.00,0.0241
1131.00,0.0242
1130.00,0.0242
1129.00,0.0242
1128.00,0.0242
1127.00,0.0242
1126.00,0.0242
1125.00,0.0241
1124.00,0.0240
1123.00,0.0239
1122.00,0.0238
1121.00,0.0237
1120.00,0.0236
1119.00,0.0235
1118.00,0.0234
1117.00,0.0232
1116.00,0.0231
1115.00,0.0230
1114.00,0.0230
1113.00,0.0229
1112.00,0.0228
1111.00,0.0228
1110.00,0.0228
1109.00,0.0227
1108.00,0.0227
1107.00,0.0227
1106.00,0.0227
1105.00,0.0228
1104.00,0.0228
1103.00,0.0228
1102.00,0.0229
1101.00,0.0229
1100.00,0.0230
1099.00,0.0231
1098.00,0.0232
1097.00,0.0233
1096.00,0.0235
1095.00,0.0237
1094.00,0.0240
1093.00,0.0243
1092.00,0.0246
1091.00,0.0250
1090.00,0.0254
1089.00,0.0258
1088.00,0.0263
1087.00,0.0268
1086.00,0.0274
1085.00,0.0280
1084.00,0.0285
1083.00,0.0291
1082.00,0.0297
1081.00,0.0302
1080.00,0.0308
1079.00,0.0313
1078.00,0.0318
1077.00,0.0322
1076.00,0.0326
1075.00,0.0329
1074.00,0.0332
1073.00,0.0334
1072.00,0.0336
1071.00,0.0338
1070.00,0.0339
1069.00,0.0340
1068.00,0.0341
1067.00,0.0342
1066.00,0.0342
1065.00,0.0343
1064.00,0.0343
1063.00,0.0343
1062.00,0.0343
1061.00,0.0343
1060.00,0.0342
1059.00,0.0341
1058.00,0.0339
1057.00,0.0337
1056.00,0.0336
1055.00,0.0334
1054.00,0.0332
1053.00,0.0330
1052.00,0.0328
1051.00,0.0326
1050.00,0.0323
1049.00,0.0321
1048.00,0.0318
1047.00,0.0315
1046.00,0.0312
1045.00,0.0308
1044.00,0.0304
1043.00,0.0300
1042.00,0.0296
1041.00,0.0292
1040.00,0.0287
1039.00,0.0284
1038.00,0.0280
1037.00,0.0276
1036.00,0.0273
1035.00,0.0270
1034.00,0.0267
1033.00,0.0264
1032.00,0.0261
1031.00,0.0257
1030.00,0.0254
1029.00,0.0250
1028.00,0.0247
1027.00,0.0243
1026.00,0.0240
1025.00,0.0236
1024.00,0.0233
1023.00,0.0229
1022.00,0.0226
1021.00,0.0223
1020.00,0.0220
1019.00,0.0218
1018.00,0.0215
1017.00,0.0212
1016.00,0.0210
1015.00,0.0207
1014.00,0.0205
1013.00,0.0202
1012.00,0.0200
1011.00,0.0198
1010.00,0.0196
1009.00,0.0195
1008.00,0.0193
1007.00,0.0191
1006.00,0.0190
1005.00,0.0188
1004.00,0.0187
1003.00,0.0185
1002.00,0.0184
1001.00,0.0183
1000.00,0.0183
999.00,0.0182
998.00,0.0181
997.00,0.0181
996.00,0.0180
995.00,0.0179
994.00,0.0178
993.00,0.0177
992.00,0.0177
991.00,0.0176
990.00,0.0175
989.00,0.0175
988.00,0.0174
987.00,0.0174
986.00,0.0173
985.00,0.0173
984.00,0.0173
983.00,0.0172
982.00,0.0172
981.00,0.0172
980.00,0.0172
979.00,0.0172
978.00,0.0172
977.00,0.0172
976.00,0.0172
975.00,0.0173
974.00,0.0173
973.00,0.0173
972.00,0.0174
971.00,0.0175
970.00,0.0176
969.00,0.0177
968.00,0.0179
967.00,0.0181
966.00,0.0182
965.00,0.0184
964.00,0.0185
963.00,0.0186
962.00,0.0187
961.00,0.0187
960.00,0.0187
959.00,0.0187
958.00,0.0186
957.00,0.0186
956.00,0.0185
955.00,0.0184
954.00,0.0183
953.00,0.0182
952.00,0.0181
951.00,0.0181
950.00,0.0180
949.00,0.0180
948.00,0.0179
947.00,0.0179
946.00,0.0178
945.00,0.0178
944.00,0.0178
943.00,0.0177
942.00,0.0177
941.00,0.0177
940.00,0.0177
939.00,0.0177
938.00,0.0177
937.00,0.0177
936.00,0.0177
935.00,0.0177
934.00,0.0178
933.00,0.0178
932.00,0.0178
931.00,0.0178
930.00,0.0178
929.00,0.0178
928.00,0.0178
927.00,0.0177
926.00,0.0177
925.00,0.0176
924.00,0.0176
923.00,0.0175
922.00,0.0174
921.00,0.0173
920.00,0.0173
919.00,0.0172
918.00,0.0171
917.00,0.0170
916.00,0.0170
915.00,0.0170
914.00,0.0170
913.00,0.0170
912.00,0.0170
911.00,0.0170
910.00,0.0171
909.00,0.0171
908.00,0.0172
907.00,0.0172
906.00,0.0173
905.00,0.0174
904.00,0.0174
903.00,0.0175
902.00,0.0175
901.00,0.0175
900.00,0.0176
899.00,0.0176
898.00,0.0175
897.00,0.0175
896.00,0.0174
895.00,0.0174
894.00,0.0173
893.00,0.0172
892.00,0.0172
891.00,0.0171
890.00,0.0170
889.00,0.0169
888.00,0.0168
887.00,0.0167
886.00,0.0166
885.00,0.0165
884.00,0.0165
883.00,0.0165
882.00,0.0164
881.00,0.0164
880.00,0.0164
879.00,0.0164
878.00,0.0164
877.00,0.0164
876.00,0.0164
875.00,0.0164
874.00,0.0163
873.00,0.0163
872.00,0.0163
871.00,0.0163
870.00,0.0163
869.00,0.0163
868.00,0.0163
867.00,0.0163
866.00,0.0162
865.00,0.0162
864.00,0.0162
863.00,0.0161
862.00,0.0161
861.00,0.0161
860.00,0.0162
859.00,0.0162
858.00,0.0163
857.00,0.0163
856.00,0.0164
855.00,0.0164
854.00,0.0165
853.00,0.0165
852.00,0.0166
851.00,0.0166
850.00,0.0167
849.00,0.0167
848.00,0.0167
847.00,0.0167
846.00,0.0168
845.00,0.0169
844.00,0.0170
843.00,0.0171
842.00,0.0172
841.00,0.0173
840.00,0.0174
839.00,0.0176
838.00,0.0177
837.00,0.0179
836.00,0.0180
835.00,0.0182
834.00,0.0184
833.00,0.0186
832.00,0.0188
831.00,0.0190
830.00,0.0191
829.00,0.0193
828.00,0.0194
827.00,0.0196
826.00,0.0197
825.00,0.0198
824.00,0.0199
823.00,0.0200
822.00,0.0202
821.00,0.0203
820.00,0.0204
819.00,0.0205
818.00,0.0206
817.00,0.0207
816.00,0.0209
815.00,0.0210
814.00,0.0211
813.00,0.0213
812.00,0.0214
811.00,0.0216
810.00,0.0217
809.00,0.0219
808.00,0.0220
807.00,0.0221
806.00,0.0222
805.00,0.0223
804.00,0.0224
803.00,0.0225
802.00,0.0227
801.00,0.0228
800.00,0.0229
799.00,0.0230
798.00,0.0231
797.00,0.0232
796.00,0.0233
795.00,0.0235
794.00,0.0237
793.00,0.0239
792.00,0.0241
791.00,0.0244
790.00,0.0246
789.00,0.0248
788.00,0.0250
787.00,0.0253
786.00,0.0255
785.00,0.0257
784.00,0.0259
783.00,0.0261
782.00,0.0263
781.00,0.0265
780.00,0.0268
779.00,0.0270
778.00,0.0272
777.00,0.0274
776.00,0.0276
775.00,0.0278
774.00,0.0280
773.00,0.0282
772.00,0.0283
771.00,0.0285
770.00,0.0286
769.00,0.0288
768.00,0.0289
767.00,0.0290
766.00,0.0291
765.00,0.0292
764.00,0.0293
763.00,0.0294
762.00,0.0295
761.00,0.0296
760.00,0.0297
759.00,0.0298
758.00,0.0299
757.00,0.0301
756.00,0.0303
755.00,0.0304
754.00,0.0306
753.00,0.0308
752.00,0.0311
751.00,0.0313
750.00,0.0314
749.00,0.0316
748.00,0.0317
747.00,0.0319
746.00,0.0319
745.00,0.0320
744.00,0.0322
743.00,0.0323
742.00,0.0323
741.00,0.0325
740.00,0.0326
739.00,0.0327
738.00,0.0329
737.00,0.0331
736.00,0.0332
735.00,0.0334
734.00,0.0336
733.00,0.0339
732.00,0.0342
731.00,0.0345
730.00,0.0348
729.00,0.0352
728.00,0.0356
727.00,0.0361
726.00,0.0366
725.00,0.0371
724.00,0.0376
723.00,0.0381
722.00,0.0386
721.00,0.0391
720.00,0.0396
719.00,0.0402
718.00,0.0408
717.00,0.0415
716.00,0.0421
715.00,0.0427
714.00,0.0433
713.00,0.0439
712.00,0.0445
711.00,0.0450
710.00,0.0456
709.00,0.0462
708.00,0.0467
707.00,0.0473
706.00,0.0478
705.00,0.0483
704.00,0.0488
703.00,0.0492
702.00,0.0496
701.00,0.0499
700.00,0.0502
699.00,0.0504
698.00,0.0505
697.00,0.0506
696.00,0.0506
695.00,0.0506
694.00,0.0505
693.00,0.0505
692.00,0.0505
691.00,0.0506
690.00,0.0507
689.00,0.0507
688.00,0.0508
687.00,0.0509
686.00,0.0510
685.00,0.0510
684.00,0.0510
683.00,0.0511
682.00,0.0512
681.00,0.0513
680.00,0.0513
679.00,0.0514
678.00,0.0514
677.00,0.0514
676.00,0.0515
675.00,0.0516
674.00,0.0517
673.00,0.0518
672.00,0.0520
671.00,0.0520
670.00,0.0521
669.00,0.0522
668.00,0.0522
667.00,0.0522
666.00,0.0522
665.00,0.0523
664.00,0.0523
663.00,0.0524
662.00,0.0524
661.00,0.0524
660.00,0.0525
659.00,0.0526
658.00,0.0527
657.00,0.0528
656.00,0.0529
655.00,0.0530
654.00,0.0531
653.00,0.0533
652.00,0.0534
651.00,0.0535
650.00,0.0536
649.00,0.0538
648.00,0.0540
647.00,0.0541
646.00,0.0543
645.00,0.0544
644.00,0.0546
643.00,0.0548
642.00,0.0549
641.00,0.0551
640.00,0.0554
639.00,0.0556
638.00,0.0557
637.00,0.0559
636.00,0.0561
635.00,0.0562
634.00,0.0563
633.00,0.0565
632.00,0.0566
631.00,0.0568
630.00,0.0569
629.00,0.0570
628.00,0.0572
627.00,0.0572
626.00,0.0573
625.00,0.0574
624.00,0.0574
623.00,0.0574
622.00,0.0574
621.00,0.0574
620.00,0.0573
619.00,0.0571
618.00,0.0570
617.00,0.0569
616.00,0.0568
615.00,0.0566
614.00,0.0564
613.00,0.0563
612.00,0.0561
611.00,0.0560
610.00,0.0558
609.00,0.0557
608.00,0.0557
607.00,0.0556
606.00,0.0555
605.00,0.0554
604.00,0.0554
603.00,0.0553
602.00,0.0553
601.00,0.0552
600.00,0.0552
599.00,0.0552
598.00,0.0552
597.00,0.0551
596.00,0.0552
595.00,0.0552
594.00,0.0553
593.00,0.0553
592.00,0.0553
591.00,0.0553
590.00,0.0553
589.00,0.0552
588.00,0.0552
587.00,0.0553
586.00,0.0554
585.00,0.0555
584.00,0.0556
583.00,0.0556
582.00,0.0556
581.00,0.0556
580.00,0.0557
579.00,0.0558
578.00,0.0560
577.00,0.0561
576.00,0.0562
575.00,0.0563
574.00,0.0562
573.00,0.0562
572.00,0.0563
571.00,0.0563
570.00,0.0564
569.00,0.0564
568.00,0.0565
567.00,0.0566
566.00,0.0567
565.00,0.0567
564.00,0.0567
563.00,0.0568
562.00,0.0568
561.00,0.0569
560.00,0.0570
559.00,0.0570
558.00,0.0570
557.00,0.0570
556.00,0.0570
555.00,0.0571
554.00,0.0572
553.00,0.0573
552.00,0.0574
551.00,0.0574
550.00,0.0574
549.00,0.0574
548.00,0.0575
547.00,0.0575
546.00,0.0575
545.00,0.0574
544.00,0.0574
543.00,0.0574
542.00,0.0575
541.00,0.0575
540.00,0.0576
539.00,0.0576
538.00,0.0576
537.00,0.0576
536.00,0.0576
535.00,0.0576
534.00,0.0577
533.00,0.0578
532.00,0.0578
531.00,0.0579
530.00,0.0580
529.00,0.0580
528.00,0.0581
527.00,0.0581
526.00,0.0582
525.00,0.0582
524.00,0.0583
523.00,0.0583
522.00,0.0583
521.00,0.0583
520.00,0.0584
519.00,0.0584
518.00,0.0584
517.00,0.0584
516.00,0.0584
515.00,0.0583
514.00,0.0581
513.00,0.0580
512.00,0.0580
511.00,0.0580
510.00,0.0580
509.00,0.0579
508.00,0.0579
507.00,0.0578
506.00,0.0576
505.00,0.0575
504.00,0.0574
503.00,0.0574
502.00,0.0573
501.00,0.0574
500.00,0.0574
499.00,0.0575
498.00,0.0575
497.00,0.0575
496.00,0.0576
495.00,0.0576
494.00,0.0576
493.00,0.0576
492.00,0.0576
491.00,0.0575
490.00,0.0573
489.00,0.0572
488.00,0.0571
487.00,0.0571
486.00,0.0571
485.00,0.0571
484.00,0.0571
483.00,0.0571
482.00,0.0571
481.00,0.0571
480.00,0.0571
479.00,0.0572
478.00,0.0572
477.00,0.0571
476.00,0.0570
475.00,0.0570
474.00,0.0569
473.00,0.0568
472.00,0.0568
471.00,0.0568
470.00,0.0569
469.00,0.0570
468.00,0.0571
467.00,0.0572
466.00,0.0571
465.00,0.0571
464.00,0.0571
463.00,0.0571
462.00,0.0571
461.00,0.0570
460.00,0.0570
459.00,0.0568
458.00,0.0567
457.00,0.0565
456.00,0.0564
455.00,0.0563
454.00,0.0561
453.00,0.0560
452.00,0.0560
451.00,0.0560
450.00,0.0558
449.00,0.0557
448.00,0.0555
447.00,0.0553
446.00,0.0551
445.00,0.0549
444.00,0.0547
443.00,0.0546
442.00,0.0543
441.00,0.0540
440.00,0.0537
439.00,0.0534
438.00,0.0529
437.00,0.0524
436.00,0.0521
435.00,0.0517
434.00,0.0513
433.00,0.0510
432.00,0.0508
431.00,0.0505
430.00,0.0502
429.00,0.0499
428.00,0.0498
427.00,0.0497
426.00,0.0495
425.00,0.0491
424.00,0.0489
423.00,0.0488
422.00,0.0486
421.00,0.0484
420.00,0.0483
419.00,0.0480
418.00,0.0477
417.00,0.0475
416.00,0.0476
415.00,0.0477
414.00,0.0478
413.00,0.0480
412.00,0.0481
411.00,0.0481
410.00,0.0478
409.00,0.0474
408.00,0.0470
407.00,0.0467
406.00,0.0464
405.00,0.0461
404.00,0.0460
403.00,0.0460
402.00,0.0459
401.00,0.0456
400.00,0.0452
