Created as New Dataset,Sample 320 By YargerLab Date Monday, August 19 2024
cm-1,A
4000.00,0.0120
3999.00,0.0120
3998.00,0.0120
3997.00,0.0120
3996.00,0.0120
3995.00,0.0120
3994.00,0.0120
3993.00,0.0119
3992.00,0.0119
3991.00,0.0119
3990.00,0.0119
3989.00,0.0119
3988.00,0.0119
3987.00,0.0119
3986.00,0.0119
3985.00,0.0119
3984.00,0.0119
3983.00,0.0119
3982.00,0.0119
3981.00,0.0119
3980.00,0.0119
3979.00,0.0119
3978.00,0.0119
3977.00,0.0119
3976.00,0.0119
3975.00,0.0119
3974.00,0.0119
3973.00,0.0119
3972.00,0.0119
3971.00,0.0119
3970.00,0.0119
3969.00,0.0119
3968.00,0.0119
3967.00,0.0119
3966.00,0.0119
3965.00,0.0119
3964.00,0.0119
3963.00,0.0119
3962.00,0.0119
3961.00,0.0119
3960.00,0.0119
3959.00,0.0119
3958.00,0.0119
3957.00,0.0119
3956.00,0.0119
3955.00,0.0119
3954.00,0.0119
3953.00,0.0119
3952.00,0.0119
3951.00,0.0119
3950.00,0.0119
3949.00,0.0119
3948.00,0.0119
3947.00,0.0119
3946.00,0.0119
3945.00,0.0119
3944.00,0.0119
3943.00,0.0119
3942.00,0.0118
3941.00,0.0118
3940.00,0.0118
3939.00,0.0118
3938.00,0.0118
3937.00,0.0118
3936.00,0.0118
3935.00,0.0118
3934.00,0.0118
3933.00,0.0119
3932.00,0.0118
3931.00,0.0118
3930.00,0.0118
3929.00,0.0118
3928.00,0.0118
3927.00,0.0117
3926.00,0.0118
3925.00,0.0118
3924.00,0.0118
3923.00,0.0118
3922.00,0.0118
3921.00,0.0118
3920.00,0.0118
3919.00,0.0118
3918.00,0.0118
3917.00,0.0118
3916.00,0.0118
3915.00,0.0118
3914.00,0.0117
3913.00,0.0117
3912.00,0.0117
3911.00,0.0117
3910.00,0.0117
3909.00,0.0117
3908.00,0.0117
3907.00,0.0117
3906.00,0.0117
3905.00,0.0117
3904.00,0.0117
3903.00,0.0117
3902.00,0.0117
3901.00,0.0117
3900.00,0.0117
3899.00,0.0117
3898.00,0.0117
3897.00,0.0117
3896.00,0.0117
3895.00,0.0117
3894.00,0.0117
3893.00,0.0117
3892.00,0.0117
3891.00,0.0117
3890.00,0.0116
3889.00,0.0116
3888.00,0.0116
3887.00,0.0116
3886.00,0.0116
3885.00,0.0116
3884.00,0.0116
3883.00,0.0116
3882.00,0.0116
3881.00,0.0116
3880.00,0.0116
3879.00,0.0116
3878.00,0.0116
3877.00,0.0116
3876.00,0.0116
3875.00,0.0116
3874.00,0.0116
3873.00,0.0116
3872.00,0.0116
3871.00,0.0116
3870.00,0.0116
3869.00,0.0116
3868.00,0.0116
3867.00,0.0116
3866.00,0.0116
3865.00,0.0116
3864.00,0.0115
3863.00,0.0115
3862.00,0.0115
3861.00,0.0115
3860.00,0.0116
3859.00,0.0116
3858.00,0.0115
3857.00,0.0115
3856.00,0.0115
3855.00,0.0115
3854.00,0.0115
3853.00,0.0115
3852.00,0.0115
3851.00,0.0115
3850.00,0.0115
3849.00,0.0115
3848.00,0.0115
3847.00,0.0115
3846.00,0.0115
3845.00,0.0115
3844.00,0.0115
3843.00,0.0115
3842.00,0.0115
3841.00,0.0115
3840.00,0.0115
3839.00,0.0115
3838.00,0.0114
3837.00,0.0114
3836.00,0.0114
3835.00,0.0114
3834.00,0.0114
3833.00,0.0115
3832.00,0.0115
3831.00,0.0115
3830.00,0.0114
3829.00,0.0114
3828.00,0.0114
3827.00,0.0114
3826.00,0.0114
3825.00,0.0114
3824.00,0.0114
3823.00,0.0114
3822.00,0.0114
3821.00,0.0114
3820.00,0.0114
3819.00,0.0114
3818.00,0.0114
3817.00,0.0113
3816.00,0.0113
3815.00,0.0113
3814.00,0.0113
3813.00,0.0113
3812.00,0.0113
3811.00,0.0113
3810.00,0.0113
3809.00,0.0113
3808.00,0.0113
3807.00,0.0113
3806.00,0.0113
3805.00,0.0113
3804.00,0.0113
3803.00,0.0113
3802.00,0.0113
3801.00,0.0113
3800.00,0.0113
3799.00,0.0113
3798.00,0.0113
3797.00,0.0113
3796.00,0.0112
3795.00,0.0112
3794.00,0.0112
3793.00,0.0112
3792.00,0.0112
3791.00,0.0112
3790.00,0.0112
3789.00,0.0112
3788.00,0.0112
3787.00,0.0112
3786.00,0.0112
3785.00,0.0112
3784.00,0.0112
3783.00,0.0111
3782.00,0.0111
3781.00,0.0111
3780.00,0.0111
3779.00,0.0111
3778.00,0.0112
3777.00,0.0112
3776.00,0.0112
3775.00,0.0112
3774.00,0.0112
3773.00,0.0111
3772.00,0.0111
3771.00,0.0111
3770.00,0.0111
3769.00,0.0111
3768.00,0.0111
3767.00,0.0111
3766.00,0.0111
3765.00,0.0111
3764.00,0.0111
3763.00,0.0111
3762.00,0.0111
3761.00,0.0111
3760.00,0.0111
3759.00,0.0111
3758.00,0.0111
3757.00,0.0111
3756.00,0.0111
3755.00,0.0111
3754.00,0.0111
3753.00,0.0111
3752.00,0.0111
3751.00,0.0111
3750.00,0.0111
3749.00,0.0110
3748.00,0.0110
3747.00,0.0110
3746.00,0.0110
3745.00,0.0110
3744.00,0.0110
3743.00,0.0110
3742.00,0.0110
3741.00,0.0110
3740.00,0.0110
3739.00,0.0109
3738.00,0.0109
3737.00,0.0109
3736.00,0.0109
3735.00,0.0108
3734.00,0.0108
3733.00,0.0108
3732.00,0.0108
3731.00,0.0108
3730.00,0.0108
3729.00,0.0108
3728.00,0.0108
3727.00,0.0108
3726.00,0.0108
3725.00,0.0108
3724.00,0.0108
3723.00,0.0108
3722.00,0.0107
3721.00,0.0107
3720.00,0.0107
3719.00,0.0107
3718.00,0.0107
3717.00,0.0107
3716.00,0.0107
3715.00,0.0107
3714.00,0.0107
3713.00,0.0107
3712.00,0.0107
3711.00,0.0106
3710.00,0.0106
3709.00,0.0106
3708.00,0.0106
3707.00,0.0106
3706.00,0.0106
3705.00,0.0106
3704.00,0.0106
3703.00,0.0105
3702.00,0.0105
3701.00,0.0105
3700.00,0.0105
3699.00,0.0105
3698.00,0.0105
3697.00,0.0105
3696.00,0.0105
3695.00,0.0105
3694.00,0.0105
3693.00,0.0105
3692.00,0.0105
3691.00,0.0105
3690.00,0.0105
3689.00,0.0105
3688.00,0.0105
3687.00,0.0105
3686.00,0.0105
3685.00,0.0105
3684.00,0.0105
3683.00,0.0105
3682.00,0.0105
3681.00,0.0105
3680.00,0.0105
3679.00,0.0106
3678.00,0.0106
3677.00,0.0106
3676.00,0.0106
3675.00,0.0106
3674.00,0.0106
3673.00,0.0106
3672.00,0.0106
3671.00,0.0106
3670.00,0.0106
3669.00,0.0106
3668.00,0.0106
3667.00,0.0106
3666.00,0.0107
3665.00,0.0107
3664.00,0.0107
3663.00,0.0107
3662.00,0.0107
3661.00,0.0108
3660.00,0.0108
3659.00,0.0108
3658.00,0.0108
3657.00,0.0108
3656.00,0.0109
3655.00,0.0109
3654.00,0.0109
3653.00,0.0109
3652.00,0.0109
3651.00,0.0110
3650.00,0.0110
3649.00,0.0110
3648.00,0.0110
3647.00,0.0110
3646.00,0.0111
3645.00,0.0111
3644.00,0.0111
3643.00,0.0111
3642.00,0.0111
3641.00,0.0111
3640.00,0.0112
3639.00,0.0112
3638.00,0.0112
3637.00,0.0112
3636.00,0.0113
3635.00,0.0113
3634.00,0.0113
3633.00,0.0114
3632.00,0.0114
3631.00,0.0115
3630.00,0.0115
3629.00,0.0115
3628.00,0.0115
3627.00,0.0116
3626.00,0.0116
3625.00,0.0116
3624.00,0.0116
3623.00,0.0117
3622.00,0.0117
3621.00,0.0117
3620.00,0.0118
3619.00,0.0118
3618.00,0.0119
3617.00,0.0119
3616.00,0.0120
3615.00,0.0120
3614.00,0.0121
3613.00,0.0121
3612.00,0.0121
3611.00,0.0122
3610.00,0.0122
3609.00,0.0123
3608.00,0.0123
3607.00,0.0123
3606.00,0.0124
3605.00,0.0124
3604.00,0.0125
3603.00,0.0125
3602.00,0.0125
3601.00,0.0126
3600.00,0.0126
3599.00,0.0127
3598.00,0.0127
3597.00,0.0127
3596.00,0.0128
3595.00,0.0128
3594.00,0.0128
3593.00,0.0129
3592.00,0.0129
3591.00,0.0130
3590.00,0.0130
3589.00,0.0130
3588.00,0.0131
3587.00,0.0132
3586.00,0.0133
3585.00,0.0133
3584.00,0.0134
3583.00,0.0134
3582.00,0.0135
3581.00,0.0135
3580.00,0.0136
3579.00,0.0136
3578.00,0.0136
3577.00,0.0137
3576.00,0.0137
3575.00,0.0138
3574.00,0.0139
3573.00,0.0139
3572.00,0.0140
3571.00,0.0140
3570.00,0.0141
3569.00,0.0141
3568.00,0.0142
3567.00,0.0143
3566.00,0.0143
3565.00,0.0144
3564.00,0.0145
3563.00,0.0145
3562.00,0.0146
3561.00,0.0147
3560.00,0.0147
3559.00,0.0148
3558.00,0.0148
3557.00,0.0149
3556.00,0.0149
3555.00,0.0150
3554.00,0.0150
3553.00,0.0151
3552.00,0.0152
3551.00,0.0152
3550.00,0.0153
3549.00,0.0154
3548.00,0.0155
3547.00,0.0155
3546.00,0.0156
3545.00,0.0157
3544.00,0.0157
3543.00,0.0158
3542.00,0.0158
3541.00,0.0159
3540.00,0.0159
3539.00,0.0160
3538.00,0.0161
3537.00,0.0161
3536.00,0.0162
3535.00,0.0162
3534.00,0.0163
3533.00,0.0164
3532.00,0.0164
3531.00,0.0165
3530.00,0.0165
3529.00,0.0166
3528.00,0.0167
3527.00,0.0167
3526.00,0.0168
3525.00,0.0169
3524.00,0.0169
3523.00,0.0170
3522.00,0.0171
3521.00,0.0171
3520.00,0.0172
3519.00,0.0172
3518.00,0.0173
3517.00,0.0174
3516.00,0.0174
3515.00,0.0175
3514.00,0.0175
3513.00,0.0176
3512.00,0.0176
3511.00,0.0177
3510.00,0.0177
3509.00,0.0178
3508.00,0.0179
3507.00,0.0179
3506.00,0.0180
3505.00,0.0181
3504.00,0.0182
3503.00,0.0182
3502.00,0.0183
3501.00,0.0184
3500.00,0.0184
3499.00,0.0185
3498.00,0.0186
3497.00,0.0186
3496.00,0.0187
3495.00,0.0188
3494.00,0.0188
3493.00,0.0189
3492.00,0.0189
3491.00,0.0190
3490.00,0.0191
3489.00,0.0191
3488.00,0.0192
3487.00,0.0193
3486.00,0.0194
3485.00,0.0194
3484.00,0.0195
3483.00,0.0196
3482.00,0.0196
3481.00,0.0197
3480.00,0.0198
3479.00,0.0198
3478.00,0.0199
3477.00,0.0200
3476.00,0.0201
3475.00,0.0201
3474.00,0.0202
3473.00,0.0203
3472.00,0.0203
3471.00,0.0204
3470.00,0.0205
3469.00,0.0206
3468.00,0.0206
3467.00,0.0207
3466.00,0.0207
3465.00,0.0208
3464.00,0.0208
3463.00,0.0209
3462.00,0.0210
3461.00,0.0211
3460.00,0.0212
3459.00,0.0212
3458.00,0.0213
3457.00,0.0214
3456.00,0.0214
3455.00,0.0215
3454.00,0.0215
3453.00,0.0216
3452.00,0.0217
3451.00,0.0218
3450.00,0.0219
3449.00,0.0219
3448.00,0.0220
3447.00,0.0221
3446.00,0.0221
3445.00,0.0222
3444.00,0.0222
3443.00,0.0223
3442.00,0.0224
3441.00,0.0225
3440.00,0.0226
3439.00,0.0227
3438.00,0.0227
3437.00,0.0228
3436.00,0.0229
3435.00,0.0229
3434.00,0.0230
3433.00,0.0231
3432.00,0.0231
3431.00,0.0232
3430.00,0.0233
3429.00,0.0233
3428.00,0.0234
3427.00,0.0234
3426.00,0.0235
3425.00,0.0236
3424.00,0.0237
3423.00,0.0237
3422.00,0.0238
3421.00,0.0239
3420.00,0.0240
3419.00,0.0241
3418.00,0.0241
3417.00,0.0242
3416.00,0.0243
3415.00,0.0243
3414.00,0.0244
3413.00,0.0245
3412.00,0.0246
3411.00,0.0246
3410.00,0.0247
3409.00,0.0248
3408.00,0.0248
3407.00,0.0249
3406.00,0.0250
3405.00,0.0251
3404.00,0.0252
3403.00,0.0252
3402.00,0.0253
3401.00,0.0254
3400.00,0.0254
3399.00,0.0255
3398.00,0.0255
3397.00,0.0256
3396.00,0.0257
3395.00,0.0257
3394.00,0.0258
3393.00,0.0259
3392.00,0.0259
3391.00,0.0260
3390.00,0.0261
3389.00,0.0261
3388.00,0.0262
3387.00,0.0262
3386.00,0.0263
3385.00,0.0264
3384.00,0.0265
3383.00,0.0265
3382.00,0.0266
3381.00,0.0267
3380.00,0.0267
3379.00,0.0268
3378.00,0.0269
3377.00,0.0270
3376.00,0.0270
3375.00,0.0271
3374.00,0.0272
3373.00,0.0273
3372.00,0.0274
3371.00,0.0275
3370.00,0.0276
3369.00,0.0277
3368.00,0.0277
3367.00,0.0278
3366.00,0.0279
3365.00,0.0280
3364.00,0.0281
3363.00,0.0282
3362.00,0.0283
3361.00,0.0284
3360.00,0.0285
3359.00,0.0286
3358.00,0.0287
3357.00,0.0289
3356.00,0.0290
3355.00,0.0291
3354.00,0.0291
3353.00,0.0292
3352.00,0.0293
3351.00,0.0294
3350.00,0.0296
3349.00,0.0297
3348.00,0.0299
3347.00,0.0300
3346.00,0.0301
3345.00,0.0302
3344.00,0.0304
3343.00,0.0305
3342.00,0.0306
3341.00,0.0307
3340.00,0.0309
3339.00,0.0310
3338.00,0.0312
3337.00,0.0313
3336.00,0.0315
3335.00,0.0317
3334.00,0.0318
3333.00,0.0320
3332.00,0.0321
3331.00,0.0323
3330.00,0.0325
3329.00,0.0326
3328.00,0.0328
3327.00,0.0330
3326.00,0.0332
3325.00,0.0334
3324.00,0.0336
3323.00,0.0338
3322.00,0.0340
3321.00,0.0342
3320.00,0.0344
3319.00,0.0346
3318.00,0.0348
3317.00,0.0350
3316.00,0.0352
3315.00,0.0354
3314.00,0.0357
3313.00,0.0359
3312.00,0.0361
3311.00,0.0363
3310.00,0.0365
3309.00,0.0368
3308.00,0.0370
3307.00,0.0373
3306.00,0.0375
3305.00,0.0378
3304.00,0.0381
3303.00,0.0384
3302.00,0.0387
3301.00,0.0390
3300.00,0.0392
3299.00,0.0395
3298.00,0.0397
3297.00,0.0400
3296.00,0.0402
3295.00,0.0405
3294.00,0.0407
3293.00,0.0410
3292.00,0.0413
3291.00,0.0415
3290.00,0.0418
3289.00,0.0420
3288.00,0.0423
3287.00,0.0425
3286.00,0.0427
3285.00,0.0429
3284.00,0.0431
3283.00,0.0433
3282.00,0.0435
3281.00,0.0436
3280.00,0.0437
3279.00,0.0439
3278.00,0.0440
3277.00,0.0440
3276.00,0.0441
3275.00,0.0441
3274.00,0.0441
3273.00,0.0441
3272.00,0.0441
3271.00,0.0441
3270.00,0.0441
3269.00,0.0440
3268.00,0.0440
3267.00,0.0439
3266.00,0.0438
3265.00,0.0436
3264.00,0.0435
3263.00,0.0433
3262.00,0.0431
3261.00,0.0429
3260.00,0.0427
3259.00,0.0425
3258.00,0.0423
3257.00,0.0421
3256.00,0.0419
3255.00,0.0416
3254.00,0.0414
3253.00,0.0412
3252.00,0.0410
3251.00,0.0407
3250.00,0.0405
3249.00,0.0403
3248.00,0.0400
3247.00,0.0398
3246.00,0.0396
3245.00,0.0394
3244.00,0.0392
3243.00,0.0390
3242.00,0.0388
3241.00,0.0386
3240.00,0.0384
3239.00,0.0382
3238.00,0.0380
3237.00,0.0378
3236.00,0.0376
3235.00,0.0374
3234.00,0.0372
3233.00,0.0371
3232.00,0.0370
3231.00,0.0369
3230.00,0.0367
3229.00,0.0366
3228.00,0.0364
3227.00,0.0363
3226.00,0.0362
3225.00,0.0360
3224.00,0.0359
3223.00,0.0357
3222.00,0.0356
3221.00,0.0355
3220.00,0.0354
3219.00,0.0353
3218.00,0.0351
3217.00,0.0350
3216.00,0.0349
3215.00,0.0348
3214.00,0.0347
3213.00,0.0346
3212.00,0.0345
3211.00,0.0344
3210.00,0.0343
3209.00,0.0342
3208.00,0.0340
3207.00,0.0339
3206.00,0.0338
3205.00,0.0337
3204.00,0.0336
3203.00,0.0335
3202.00,0.0334
3201.00,0.0333
3200.00,0.0332
3199.00,0.0331
3198.00,0.0331
3197.00,0.0330
3196.00,0.0329
3195.00,0.0327
3194.00,0.0326
3193.00,0.0325
3192.00,0.0324
3191.00,0.0323
3190.00,0.0322
3189.00,0.0321
3188.00,0.0320
3187.00,0.0318
3186.00,0.0317
3185.00,0.0316
3184.00,0.0315
3183.00,0.0314
3182.00,0.0313
3181.00,0.0312
3180.00,0.0311
3179.00,0.0309
3178.00,0.0308
3177.00,0.0307
3176.00,0.0306
3175.00,0.0305
3174.00,0.0303
3173.00,0.0302
3172.00,0.0301
3171.00,0.0300
3170.00,0.0299
3169.00,0.0297
3168.00,0.0296
3167.00,0.0295
3166.00,0.0294
3165.00,0.0292
3164.00,0.0291
3163.00,0.0290
3162.00,0.0289
3161.00,0.0288
3160.00,0.0287
3159.00,0.0285
3158.00,0.0284
3157.00,0.0283
3156.00,0.0282
3155.00,0.0281
3154.00,0.0280
3153.00,0.0279
3152.00,0.0277
3151.00,0.0276
3150.00,0.0275
3149.00,0.0274
3148.00,0.0273
3147.00,0.0272
3146.00,0.0271
3145.00,0.0270
3144.00,0.0269
3143.00,0.0268
3142.00,0.0267
3141.00,0.0266
3140.00,0.0265
3139.00,0.0264
3138.00,0.0263
3137.00,0.0263
3136.00,0.0262
3135.00,0.0261
3134.00,0.0260
3133.00,0.0259
3132.00,0.0258
3131.00,0.0258
3130.00,0.0257
3129.00,0.0256
3128.00,0.0255
3127.00,0.0255
3126.00,0.0254
3125.00,0.0253
3124.00,0.0253
3123.00,0.0252
3122.00,0.0251
3121.00,0.0250
3120.00,0.0250
3119.00,0.0249
3118.00,0.0249
3117.00,0.0248
3116.00,0.0248
3115.00,0.0248
3114.00,0.0247
3113.00,0.0247
3112.00,0.0247
3111.00,0.0247
3110.00,0.0246
3109.00,0.0246
3108.00,0.0246
3107.00,0.0246
3106.00,0.0245
3105.00,0.0245
3104.00,0.0245
3103.00,0.0245
3102.00,0.0245
3101.00,0.0245
3100.00,0.0245
3099.00,0.0245
3098.00,0.0245
3097.00,0.0245
3096.00,0.0245
3095.00,0.0245
3094.00,0.0245
3093.00,0.0245
3092.00,0.0245
3091.00,0.0245
3090.00,0.0245
3089.00,0.0245
3088.00,0.0245
3087.00,0.0245
3086.00,0.0245
3085.00,0.0244
3084.00,0.0244
3083.00,0.0244
3082.00,0.0244
3081.00,0.0244
3080.00,0.0245
3079.00,0.0245
3078.00,0.0245
3077.00,0.0245
3076.00,0.0245
3075.00,0.0246
3074.00,0.0246
3073.00,0.0246
3072.00,0.0245
3071.00,0.0245
3070.00,0.0245
3069.00,0.0245
3068.00,0.0244
3067.00,0.0244
3066.00,0.0244
3065.00,0.0244
3064.00,0.0244
3063.00,0.0244
3062.00,0.0244
3061.00,0.0243
3060.00,0.0243
3059.00,0.0243
3058.00,0.0242
3057.00,0.0241
3056.00,0.0241
3055.00,0.0240
3054.00,0.0239
3053.00,0.0238
3052.00,0.0238
3051.00,0.0237
3050.00,0.0236
3049.00,0.0236
3048.00,0.0235
3047.00,0.0235
3046.00,0.0234
3045.00,0.0233
3044.00,0.0232
3043.00,0.0231
3042.00,0.0231
3041.00,0.0230
3040.00,0.0230
3039.00,0.0229
3038.00,0.0229
3037.00,0.0228
3036.00,0.0227
3035.00,0.0226
3034.00,0.0225
3033.00,0.0225
3032.00,0.0224
3031.00,0.0224
3030.00,0.0223
3029.00,0.0223
3028.00,0.0222
3027.00,0.0221
3026.00,0.0220
3025.00,0.0220
3024.00,0.0219
3023.00,0.0218
3022.00,0.0217
3021.00,0.0216
3020.00,0.0215
3019.00,0.0215
3018.00,0.0214
3017.00,0.0213
3016.00,0.0212
3015.00,0.0211
3014.00,0.0211
3013.00,0.0210
3012.00,0.0210
3011.00,0.0210
3010.00,0.0210
3009.00,0.0210
3008.00,0.0209
3007.00,0.0209
3006.00,0.0209
3005.00,0.0208
3004.00,0.0208
3003.00,0.0208
3002.00,0.0208
3001.00,0.0208
3000.00,0.0208
2999.00,0.0208
2998.00,0.0208
2997.00,0.0208
2996.00,0.0208
2995.00,0.0208
2994.00,0.0209
2993.00,0.0209
2992.00,0.0210
2991.00,0.0210
2990.00,0.0211
2989.00,0.0212
2988.00,0.0212
2987.00,0.0213
2986.00,0.0213
2985.00,0.0214
2984.00,0.0215
2983.00,0.0215
2982.00,0.0216
2981.00,0.0217
2980.00,0.0217
2979.00,0.0218
2978.00,0.0219
2977.00,0.0220
2976.00,0.0220
2975.00,0.0221
2974.00,0.0222
2973.00,0.0222
2972.00,0.0223
2971.00,0.0223
2970.00,0.0224
2969.00,0.0224
2968.00,0.0224
2967.00,0.0224
2966.00,0.0224
2965.00,0.0224
2964.00,0.0224
2963.00,0.0224
2962.00,0.0223
2961.00,0.0223
2960.00,0.0222
2959.00,0.0222
2958.00,0.0221
2957.00,0.0221
2956.00,0.0221
2955.00,0.0220
2954.00,0.0220
2953.00,0.0220
2952.00,0.0220
2951.00,0.0220
2950.00,0.0220
2949.00,0.0220
2948.00,0.0220
2947.00,0.0220
2946.00,0.0221
2945.00,0.0221
2944.00,0.0222
2943.00,0.0222
2942.00,0.0223
2941.00,0.0223
2940.00,0.0224
2939.00,0.0224
2938.00,0.0224
2937.00,0.0224
2936.00,0.0224
2935.00,0.0223
2934.00,0.0223
2933.00,0.0222
2932.00,0.0221
2931.00,0.0220
2930.00,0.0218
2929.00,0.0216
2928.00,0.0214
2927.00,0.0212
2926.00,0.0209
2925.00,0.0205
2924.00,0.0202
2923.00,0.0198
2922.00,0.0193
2921.00,0.0188
2920.00,0.0183
2919.00,0.0178
2918.00,0.0173
2917.00,0.0170
2916.00,0.0169
2915.00,0.0171
2914.00,0.0174
2913.00,0.0179
2912.00,0.0183
2911.00,0.0187
2910.00,0.0190
2909.00,0.0192
2908.00,0.0194
2907.00,0.0194
2906.00,0.0195
2905.00,0.0195
2904.00,0.0195
2903.00,0.0195
2902.00,0.0195
2901.00,0.0195
2900.00,0.0195
2899.00,0.0195
2898.00,0.0195
2897.00,0.0195
2896.00,0.0195
2895.00,0.0195
2894.00,0.0196
2893.00,0.0196
2892.00,0.0196
2891.00,0.0196
2890.00,0.0196
2889.00,0.0197
2888.00,0.0197
2887.00,0.0197
2886.00,0.0198
2885.00,0.0199
2884.00,0.0199
2883.00,0.0200
2882.00,0.0201
2881.00,0.0201
2880.00,0.0202
2879.00,0.0202
2878.00,0.0203
2877.00,0.0203
2876.00,0.0203
2875.00,0.0203
2874.00,0.0203
2873.00,0.0203
2872.00,0.0202
2871.00,0.0202
2870.00,0.0201
2869.00,0.0200
2868.00,0.0199
2867.00,0.0198
2866.00,0.0197
2865.00,0.0195
2864.00,0.0194
2863.00,0.0193
2862.00,0.0191
2861.00,0.0190
2860.00,0.0189
2859.00,0.0187
2858.00,0.0186
2857.00,0.0184
2856.00,0.0182
2855.00,0.0179
2854.00,0.0175
2853.00,0.0171
2852.00,0.0166
2851.00,0.0161
2850.00,0.0157
2849.00,0.0156
2848.00,0.0157
2847.00,0.0160
2846.00,0.0164
2845.00,0.0168
2844.00,0.0172
2843.00,0.0174
2842.00,0.0175
2841.00,0.0176
2840.00,0.0177
2839.00,0.0177
2838.00,0.0177
2837.00,0.0177
2836.00,0.0177
2835.00,0.0177
2834.00,0.0177
2833.00,0.0177
2832.00,0.0176
2831.00,0.0176
2830.00,0.0176
2829.00,0.0176
2828.00,0.0175
2827.00,0.0175
2826.00,0.0175
2825.00,0.0175
2824.00,0.0174
2823.00,0.0174
2822.00,0.0174
2821.00,0.0174
2820.00,0.0174
2819.00,0.0173
2818.00,0.0173
2817.00,0.0173
2816.00,0.0173
2815.00,0.0173
2814.00,0.0172
2813.00,0.0172
2812.00,0.0172
2811.00,0.0172
2810.00,0.0171
2809.00,0.0171
2808.00,0.0171
2807.00,0.0171
2806.00,0.0171
2805.00,0.0170
2804.00,0.0170
2803.00,0.0170
2802.00,0.0170
2801.00,0.0169
2800.00,0.0169
2799.00,0.0169
2798.00,0.0169
2797.00,0.0169
2796.00,0.0168
2795.00,0.0168
2794.00,0.0168
2793.00,0.0168
2792.00,0.0168
2791.00,0.0168
2790.00,0.0167
2789.00,0.0167
2788.00,0.0167
2787.00,0.0167
2786.00,0.0167
2785.00,0.0166
2784.00,0.0166
2783.00,0.0166
2782.00,0.0166
2781.00,0.0166
2780.00,0.0165
2779.00,0.0165
2778.00,0.0165
2777.00,0.0165
2776.00,0.0165
2775.00,0.0164
2774.00,0.0164
2773.00,0.0164
2772.00,0.0164
2771.00,0.0164
2770.00,0.0164
2769.00,0.0163
2768.00,0.0163
2767.00,0.0163
2766.00,0.0163
2765.00,0.0162
2764.00,0.0162
2763.00,0.0162
2762.00,0.0162
2761.00,0.0162
2760.00,0.0161
2759.00,0.0161
2758.00,0.0161
2757.00,0.0161
2756.00,0.0160
2755.00,0.0160
2754.00,0.0160
2753.00,0.0160
2752.00,0.0160
2751.00,0.0159
2750.00,0.0159
2749.00,0.0159
2748.00,0.0159
2747.00,0.0159
2746.00,0.0158
2745.00,0.0158
2744.00,0.0158
2743.00,0.0158
2742.00,0.0158
2741.00,0.0158
2740.00,0.0158
2739.00,0.0157
2738.00,0.0157
2737.00,0.0157
2736.00,0.0157
2735.00,0.0157
2734.00,0.0156
2733.00,0.0156
2732.00,0.0156
2731.00,0.0156
2730.00,0.0155
2729.00,0.0155
2728.00,0.0155
2727.00,0.0155
2726.00,0.0154
2725.00,0.0154
2724.00,0.0154
2723.00,0.0154
2722.00,0.0154
2721.00,0.0154
2720.00,0.0154
2719.00,0.0153
2718.00,0.0153
2717.00,0.0153
2716.00,0.0153
2715.00,0.0152
2714.00,0.0152
2713.00,0.0152
2712.00,0.0152
2711.00,0.0151
2710.00,0.0151
2709.00,0.0151
2708.00,0.0151
2707.00,0.0151
2706.00,0.0150
2705.00,0.0150
2704.00,0.0150
2703.00,0.0150
2702.00,0.0150
2701.00,0.0149
2700.00,0.0149
2699.00,0.0149
2698.00,0.0149
2697.00,0.0148
2696.00,0.0148
2695.00,0.0148
2694.00,0.0148
2693.00,0.0148
2692.00,0.0148
2691.00,0.0148
2690.00,0.0148
2689.00,0.0147
2688.00,0.0147
2687.00,0.0147
2686.00,0.0147
2685.00,0.0147
2684.00,0.0147
2683.00,0.0146
2682.00,0.0146
2681.00,0.0146
2680.00,0.0146
2679.00,0.0146
2678.00,0.0146
2677.00,0.0146
2676.00,0.0146
2675.00,0.0145
2674.00,0.0145
2673.00,0.0145
2672.00,0.0145
2671.00,0.0145
2670.00,0.0145
2669.00,0.0145
2668.00,0.0145
2667.00,0.0145
2666.00,0.0145
2665.00,0.0146
2664.00,0.0146
2663.00,0.0146
2662.00,0.0147
2661.00,0.0147
2660.00,0.0147
2659.00,0.0147
2658.00,0.0147
2657.00,0.0147
2656.00,0.0147
2655.00,0.0147
2654.00,0.0147
2653.00,0.0147
2652.00,0.0147
2651.00,0.0146
2650.00,0.0146
2649.00,0.0146
2648.00,0.0146
2647.00,0.0146
2646.00,0.0146
2645.00,0.0146
2644.00,0.0145
2643.00,0.0145
2642.00,0.0145
2641.00,0.0145
2640.00,0.0144
2639.00,0.0144
2638.00,0.0144
2637.00,0.0144
2636.00,0.0144
2635.00,0.0144
2634.00,0.0144
2633.00,0.0143
2632.00,0.0143
2631.00,0.0143
2630.00,0.0143
2629.00,0.0143
2628.00,0.0142
2627.00,0.0142
2626.00,0.0142
2625.00,0.0142
2624.00,0.0141
2623.00,0.0141
2622.00,0.0141
2621.00,0.0141
2620.00,0.0141
2619.00,0.0141
2618.00,0.0141
2617.00,0.0140
2616.00,0.0140
2615.00,0.0140
2614.00,0.0140
2613.00,0.0140
2612.00,0.0139
2611.00,0.0139
2610.00,0.0139
2609.00,0.0139
2608.00,0.0138
2607.00,0.0138
2606.00,0.0138
2605.00,0.0138
2604.00,0.0138
2603.00,0.0138
2602.00,0.0138
2601.00,0.0137
2600.00,0.0137
2599.00,0.0137
2598.00,0.0137
2597.00,0.0137
2596.00,0.0136
2595.00,0.0136
2594.00,0.0136
2593.00,0.0135
2592.00,0.0135
2591.00,0.0135
2590.00,0.0135
2589.00,0.0135
2588.00,0.0135
2587.00,0.0134
2586.00,0.0134
2585.00,0.0134
2584.00,0.0134
2583.00,0.0133
2582.00,0.0133
2581.00,0.0133
2580.00,0.0133
2579.00,0.0132
2578.00,0.0132
2577.00,0.0132
2576.00,0.0132
2575.00,0.0132
2574.00,0.0132
2573.00,0.0132
2572.00,0.0132
2571.00,0.0132
2570.00,0.0131
2569.00,0.0131
2568.00,0.0131
2567.00,0.0131
2566.00,0.0131
2565.00,0.0130
2564.00,0.0130
2563.00,0.0130
2562.00,0.0130
2561.00,0.0130
2560.00,0.0130
2559.00,0.0130
2558.00,0.0130
2557.00,0.0130
2556.00,0.0130
2555.00,0.0129
2554.00,0.0129
2553.00,0.0129
2552.00,0.0129
2551.00,0.0129
2550.00,0.0128
2549.00,0.0128
2548.00,0.0128
2547.00,0.0128
2546.00,0.0128
2545.00,0.0128
2544.00,0.0128
2543.00,0.0128
2542.00,0.0127
2541.00,0.0127
2540.00,0.0127
2539.00,0.0127
2538.00,0.0127
2537.00,0.0127
2536.00,0.0127
2535.00,0.0127
2534.00,0.0127
2533.00,0.0126
2532.00,0.0126
2531.00,0.0126
2530.00,0.0126
2529.00,0.0126
2528.00,0.0126
2527.00,0.0126
2526.00,0.0126
2525.00,0.0126
2524.00,0.0126
2523.00,0.0126
2522.00,0.0125
2521.00,0.0125
2520.00,0.0125
2519.00,0.0125
2518.00,0.0125
2517.00,0.0125
2516.00,0.0125
2515.00,0.0125
2514.00,0.0124
2513.00,0.0124
2512.00,0.0124
2511.00,0.0124
2510.00,0.0124
2509.00,0.0124
2508.00,0.0124
2507.00,0.0124
2506.00,0.0124
2505.00,0.0123
2504.00,0.0123
2503.00,0.0123
2502.00,0.0123
2501.00,0.0123
2500.00,0.0123
2499.00,0.0123
2498.00,0.0123
2497.00,0.0123
2496.00,0.0123
2495.00,0.0123
2494.00,0.0123
2493.00,0.0123
2492.00,0.0122
2491.00,0.0122
2490.00,0.0122
2489.00,0.0122
2488.00,0.0122
2487.00,0.0122
2486.00,0.0122
2485.00,0.0122
2484.00,0.0122
2483.00,0.0122
2482.00,0.0122
2481.00,0.0122
2480.00,0.0122
2479.00,0.0122
2478.00,0.0122
2477.00,0.0122
2476.00,0.0121
2475.00,0.0121
2474.00,0.0121
2473.00,0.0121
2472.00,0.0121
2471.00,0.0121
2470.00,0.0121
2469.00,0.0121
2468.00,0.0121
2467.00,0.0121
2466.00,0.0121
2465.00,0.0121
2464.00,0.0121
2463.00,0.0121
2462.00,0.0121
2461.00,0.0121
2460.00,0.0121
2459.00,0.0121
2458.00,0.0121
2457.00,0.0121
2456.00,0.0122
2455.00,0.0122
2454.00,0.0121
2453.00,0.0121
2452.00,0.0121
2451.00,0.0121
2450.00,0.0121
2449.00,0.0120
2448.00,0.0120
2447.00,0.0120
2446.00,0.0120
2445.00,0.0120
2444.00,0.0120
2443.00,0.0119
2442.00,0.0119
2441.00,0.0119
2440.00,0.0119
2439.00,0.0119
2438.00,0.0118
2437.00,0.0118
2436.00,0.0118
2435.00,0.0118
2434.00,0.0118
2433.00,0.0118
2432.00,0.0117
2431.00,0.0117
2430.00,0.0117
2429.00,0.0117
2428.00,0.0117
2427.00,0.0116
2426.00,0.0116
2425.00,0.0116
2424.00,0.0116
2423.00,0.0116
2422.00,0.0116
2421.00,0.0116
2420.00,0.0116
2419.00,0.0115
2418.00,0.0115
2417.00,0.0115
2416.00,0.0115
2415.00,0.0115
2414.00,0.0115
2413.00,0.0115
2412.00,0.0115
2411.00,0.0115
2410.00,0.0115
2409.00,0.0114
2408.00,0.0113
2407.00,0.0113
2406.00,0.0112
2405.00,0.0112
2404.00,0.0113
2403.00,0.0113
2402.00,0.0113
2401.00,0.0113
2400.00,0.0113
2399.00,0.0112
2398.00,0.0112
2397.00,0.0112
2396.00,0.0112
2395.00,0.0112
2394.00,0.0112
2393.00,0.0111
2392.00,0.0111
2391.00,0.0111
2390.00,0.0111
2389.00,0.0111
2388.00,0.0111
2387.00,0.0111
2386.00,0.0110
2385.00,0.0110
2384.00,0.0109
2383.00,0.0108
2382.00,0.0108
2381.00,0.0107
2380.00,0.0107
2379.00,0.0107
2378.00,0.0107
2377.00,0.0107
2376.00,0.0107
2375.00,0.0108
2374.00,0.0108
2373.00,0.0107
2372.00,0.0107
2371.00,0.0107
2370.00,0.0107
2369.00,0.0106
2368.00,0.0106
2367.00,0.0106
2366.00,0.0106
2365.00,0.0107
2364.00,0.0107
2363.00,0.0107
2362.00,0.0107
2361.00,0.0107
2360.00,0.0107
2359.00,0.0107
2358.00,0.0107
2357.00,0.0108
2356.00,0.0108
2355.00,0.0108
2354.00,0.0108
2353.00,0.0108
2352.00,0.0108
2351.00,0.0108
2350.00,0.0108
2349.00,0.0108
2348.00,0.0109
2347.00,0.0109
2346.00,0.0109
2345.00,0.0109
2344.00,0.0109
2343.00,0.0109
2342.00,0.0110
2341.00,0.0110
2340.00,0.0111
2339.00,0.0111
2338.00,0.0111
2337.00,0.0111
2336.00,0.0111
2335.00,0.0111
2334.00,0.0110
2333.00,0.0110
2332.00,0.0110
2331.00,0.0110
2330.00,0.0111
2329.00,0.0112
2328.00,0.0116
2327.00,0.0120
2326.00,0.0123
2325.00,0.0124
2324.00,0.0123
2323.00,0.0121
2322.00,0.0119
2321.00,0.0117
2320.00,0.0116
2319.00,0.0116
2318.00,0.0115
2317.00,0.0115
2316.00,0.0114
2315.00,0.0114
2314.00,0.0113
2313.00,0.0113
2312.00,0.0112
2311.00,0.0112
2310.00,0.0111
2309.00,0.0111
2308.00,0.0111
2307.00,0.0111
2306.00,0.0112
2305.00,0.0112
2304.00,0.0112
2303.00,0.0112
2302.00,0.0112
2301.00,0.0112
2300.00,0.0113
2299.00,0.0113
2298.00,0.0114
2297.00,0.0114
2296.00,0.0115
2295.00,0.0116
2294.00,0.0116
2293.00,0.0117
2292.00,0.0118
2291.00,0.0119
2290.00,0.0119
2289.00,0.0120
2288.00,0.0120
2287.00,0.0120
2286.00,0.0119
2285.00,0.0119
2284.00,0.0118
2283.00,0.0117
2282.00,0.0117
2281.00,0.0116
2280.00,0.0116
2279.00,0.0115
2278.00,0.0115
2277.00,0.0115
2276.00,0.0114
2275.00,0.0114
2274.00,0.0113
2273.00,0.0113
2272.00,0.0113
2271.00,0.0113
2270.00,0.0112
2269.00,0.0112
2268.00,0.0112
2267.00,0.0111
2266.00,0.0111
2265.00,0.0111
2264.00,0.0111
2263.00,0.0111
2262.00,0.0112
2261.00,0.0112
2260.00,0.0112
2259.00,0.0112
2258.00,0.0111
2257.00,0.0110
2256.00,0.0109
2255.00,0.0108
2254.00,0.0108
2253.00,0.0108
2252.00,0.0108
2251.00,0.0108
2250.00,0.0108
2249.00,0.0108
2248.00,0.0109
2247.00,0.0109
2246.00,0.0109
2245.00,0.0109
2244.00,0.0108
2243.00,0.0108
2242.00,0.0108
2241.00,0.0109
2240.00,0.0109
2239.00,0.0109
2238.00,0.0108
2237.00,0.0108
2236.00,0.0108
2235.00,0.0108
2234.00,0.0108
2233.00,0.0108
2232.00,0.0108
2231.00,0.0108
2230.00,0.0108
2229.00,0.0108
2228.00,0.0108
2227.00,0.0107
2226.00,0.0107
2225.00,0.0107
2224.00,0.0107
2223.00,0.0107
2222.00,0.0107
2221.00,0.0107
2220.00,0.0107
2219.00,0.0106
2218.00,0.0106
2217.00,0.0106
2216.00,0.0106
2215.00,0.0107
2214.00,0.0107
2213.00,0.0107
2212.00,0.0106
2211.00,0.0106
2210.00,0.0105
2209.00,0.0105
2208.00,0.0106
2207.00,0.0106
2206.00,0.0106
2205.00,0.0106
2204.00,0.0106
2203.00,0.0106
2202.00,0.0106
2201.00,0.0106
2200.00,0.0106
2199.00,0.0106
2198.00,0.0106
2197.00,0.0107
2196.00,0.0107
2195.00,0.0107
2194.00,0.0107
2193.00,0.0107
2192.00,0.0107
2191.00,0.0107
2190.00,0.0107
2189.00,0.0108
2188.00,0.0108
2187.00,0.0108
2186.00,0.0107
2185.00,0.0105
2184.00,0.0103
2183.00,0.0100
2182.00,0.0099
2181.00,0.0099
2180.00,0.0101
2179.00,0.0102
2178.00,0.0101
2177.00,0.0100
2176.00,0.0099
2175.00,0.0099
2174.00,0.0100
2173.00,0.0102
2172.00,0.0105
2171.00,0.0107
2170.00,0.0108
2169.00,0.0110
2168.00,0.0112
2167.00,0.0113
2166.00,0.0114
2165.00,0.0116
2164.00,0.0117
2163.00,0.0116
2162.00,0.0110
2161.00,0.0098
2160.00,0.0084
2159.00,0.0072
2158.00,0.0067
2157.00,0.0067
2156.00,0.0071
2155.00,0.0074
2154.00,0.0078
2153.00,0.0080
2152.00,0.0082
2151.00,0.0083
2150.00,0.0083
2149.00,0.0083
2148.00,0.0083
2147.00,0.0083
2146.00,0.0083
2145.00,0.0084
2144.00,0.0084
2143.00,0.0084
2142.00,0.0084
2141.00,0.0085
2140.00,0.0085
2139.00,0.0085
2138.00,0.0084
2137.00,0.0082
2136.00,0.0080
2135.00,0.0079
2134.00,0.0078
2133.00,0.0079
2132.00,0.0080
2131.00,0.0082
2130.00,0.0083
2129.00,0.0085
2128.00,0.0087
2127.00,0.0088
2126.00,0.0089
2125.00,0.0090
2124.00,0.0092
2123.00,0.0093
2122.00,0.0093
2121.00,0.0094
2120.00,0.0094
2119.00,0.0095
2118.00,0.0096
2117.00,0.0097
2116.00,0.0098
2115.00,0.0098
2114.00,0.0098
2113.00,0.0098
2112.00,0.0098
2111.00,0.0097
2110.00,0.0097
2109.00,0.0098
2108.00,0.0098
2107.00,0.0098
2106.00,0.0097
2105.00,0.0097
2104.00,0.0097
2103.00,0.0097
2102.00,0.0096
2101.00,0.0096
2100.00,0.0096
2099.00,0.0096
2098.00,0.0095
2097.00,0.0093
2096.00,0.0092
2095.00,0.0091
2094.00,0.0091
2093.00,0.0092
2092.00,0.0093
2091.00,0.0094
2090.00,0.0094
2089.00,0.0095
2088.00,0.0096
2087.00,0.0096
2086.00,0.0097
2085.00,0.0098
2084.00,0.0098
2083.00,0.0098
2082.00,0.0097
2081.00,0.0097
2080.00,0.0097
2079.00,0.0097
2078.00,0.0097
2077.00,0.0096
2076.00,0.0096
2075.00,0.0096
2074.00,0.0095
2073.00,0.0095
2072.00,0.0095
2071.00,0.0095
2070.00,0.0095
2069.00,0.0095
2068.00,0.0095
2067.00,0.0094
2066.00,0.0094
2065.00,0.0093
2064.00,0.0094
2063.00,0.0094
2062.00,0.0094
2061.00,0.0093
2060.00,0.0093
2059.00,0.0093
2058.00,0.0093
2057.00,0.0094
2056.00,0.0094
2055.00,0.0095
2054.00,0.0097
2053.00,0.0101
2052.00,0.0104
2051.00,0.0104
2050.00,0.0102
2049.00,0.0098
2048.00,0.0096
2047.00,0.0094
2046.00,0.0093
2045.00,0.0092
2044.00,0.0092
2043.00,0.0092
2042.00,0.0092
2041.00,0.0094
2040.00,0.0095
2039.00,0.0095
2038.00,0.0094
2037.00,0.0093
2036.00,0.0092
2035.00,0.0091
2034.00,0.0089
2033.00,0.0087
2032.00,0.0086
2031.00,0.0085
2030.00,0.0084
2029.00,0.0083
2028.00,0.0083
2027.00,0.0082
2026.00,0.0081
2025.00,0.0081
2024.00,0.0082
2023.00,0.0083
2022.00,0.0083
2021.00,0.0083
2020.00,0.0082
2019.00,0.0081
2018.00,0.0080
2017.00,0.0080
2016.00,0.0081
2015.00,0.0082
2014.00,0.0083
2013.00,0.0084
2012.00,0.0084
2011.00,0.0084
2010.00,0.0083
2009.00,0.0081
2008.00,0.0079
2007.00,0.0076
2006.00,0.0074
2005.00,0.0075
2004.00,0.0076
2003.00,0.0077
2002.00,0.0078
2001.00,0.0079
2000.00,0.0081
1999.00,0.0082
1998.00,0.0082
1997.00,0.0083
1996.00,0.0084
1995.00,0.0085
1994.00,0.0085
1993.00,0.0085
1992.00,0.0086
1991.00,0.0087
1990.00,0.0087
1989.00,0.0087
1988.00,0.0088
1987.00,0.0089
1986.00,0.0089
1985.00,0.0090
1984.00,0.0091
1983.00,0.0093
1982.00,0.0095
1981.00,0.0096
1980.00,0.0093
1979.00,0.0088
1978.00,0.0081
1977.00,0.0077
1976.00,0.0075
1975.00,0.0075
1974.00,0.0074
1973.00,0.0075
1972.00,0.0075
1971.00,0.0076
1970.00,0.0076
1969.00,0.0076
1968.00,0.0076
1967.00,0.0075
1966.00,0.0075
1965.00,0.0075
1964.00,0.0075
1963.00,0.0074
1962.00,0.0072
1961.00,0.0071
1960.00,0.0069
1959.00,0.0069
1958.00,0.0068
1957.00,0.0069
1956.00,0.0071
1955.00,0.0072
1954.00,0.0072
1953.00,0.0073
1952.00,0.0073
1951.00,0.0073
1950.00,0.0073
1949.00,0.0073
1948.00,0.0073
1947.00,0.0073
1946.00,0.0072
1945.00,0.0072
1944.00,0.0073
1943.00,0.0073
1942.00,0.0073
1941.00,0.0073
1940.00,0.0073
1939.00,0.0073
1938.00,0.0073
1937.00,0.0073
1936.00,0.0073
1935.00,0.0073
1934.00,0.0072
1933.00,0.0072
1932.00,0.0072
1931.00,0.0072
1930.00,0.0072
1929.00,0.0072
1928.00,0.0073
1927.00,0.0072
1926.00,0.0072
1925.00,0.0072
1924.00,0.0072
1923.00,0.0073
1922.00,0.0074
1921.00,0.0074
1920.00,0.0074
1919.00,0.0074
1918.00,0.0074
1917.00,0.0074
1916.00,0.0074
1915.00,0.0074
1914.00,0.0074
1913.00,0.0074
1912.00,0.0074
1911.00,0.0073
1910.00,0.0073
1909.00,0.0073
1908.00,0.0073
1907.00,0.0073
1906.00,0.0073
1905.00,0.0073
1904.00,0.0073
1903.00,0.0073
1902.00,0.0073
1901.00,0.0073
1900.00,0.0073
1899.00,0.0072
1898.00,0.0072
1897.00,0.0072
1896.00,0.0072
1895.00,0.0072
1894.00,0.0072
1893.00,0.0072
1892.00,0.0072
1891.00,0.0072
1890.00,0.0072
1889.00,0.0072
1888.00,0.0072
1887.00,0.0072
1886.00,0.0072
1885.00,0.0072
1884.00,0.0072
1883.00,0.0072
1882.00,0.0071
1881.00,0.0071
1880.00,0.0071
1879.00,0.0071
1878.00,0.0071
1877.00,0.0071
1876.00,0.0071
1875.00,0.0071
1874.00,0.0071
1873.00,0.0071
1872.00,0.0070
1871.00,0.0070
1870.00,0.0070
1869.00,0.0070
1868.00,0.0070
1867.00,0.0070
1866.00,0.0070
1865.00,0.0070
1864.00,0.0070
1863.00,0.0070
1862.00,0.0069
1861.00,0.0069
1860.00,0.0070
1859.00,0.0069
1858.00,0.0069
1857.00,0.0069
1856.00,0.0069
1855.00,0.0069
1854.00,0.0069
1853.00,0.0069
1852.00,0.0069
1851.00,0.0068
1850.00,0.0068
1849.00,0.0068
1848.00,0.0068
1847.00,0.0068
1846.00,0.0068
1845.00,0.0068
1844.00,0.0068
1843.00,0.0068
1842.00,0.0068
1841.00,0.0068
1840.00,0.0068
1839.00,0.0067
1838.00,0.0067
1837.00,0.0067
1836.00,0.0067
1835.00,0.0067
1834.00,0.0066
1833.00,0.0066
1832.00,0.0066
1831.00,0.0066
1830.00,0.0066
1829.00,0.0067
1828.00,0.0067
1827.00,0.0067
1826.00,0.0067
1825.00,0.0067
1824.00,0.0067
1823.00,0.0067
1822.00,0.0067
1821.00,0.0066
1820.00,0.0066
1819.00,0.0065
1818.00,0.0064
1817.00,0.0063
1816.00,0.0064
1815.00,0.0064
1814.00,0.0064
1813.00,0.0065
1812.00,0.0065
1811.00,0.0066
1810.00,0.0066
1809.00,0.0066
1808.00,0.0066
1807.00,0.0066
1806.00,0.0066
1805.00,0.0065
1804.00,0.0065
1803.00,0.0065
1802.00,0.0065
1801.00,0.0066
1800.00,0.0066
1799.00,0.0066
1798.00,0.0066
1797.00,0.0066
1796.00,0.0066
1795.00,0.0066
1794.00,0.0066
1793.00,0.0066
1792.00,0.0066
1791.00,0.0066
1790.00,0.0066
1789.00,0.0066
1788.00,0.0065
1787.00,0.0065
1786.00,0.0065
1785.00,0.0065
1784.00,0.0065
1783.00,0.0066
1782.00,0.0065
1781.00,0.0065
1780.00,0.0065
1779.00,0.0065
1778.00,0.0064
1777.00,0.0064
1776.00,0.0065
1775.00,0.0065
1774.00,0.0065
1773.00,0.0065
1772.00,0.0065
1771.00,0.0065
1770.00,0.0065
1769.00,0.0065
1768.00,0.0065
1767.00,0.0065
1766.00,0.0065
1765.00,0.0065
1764.00,0.0065
1763.00,0.0065
1762.00,0.0065
1761.00,0.0065
1760.00,0.0065
1759.00,0.0065
1758.00,0.0065
1757.00,0.0065
1756.00,0.0066
1755.00,0.0066
1754.00,0.0065
1753.00,0.0066
1752.00,0.0066
1751.00,0.0066
1750.00,0.0066
1749.00,0.0066
1748.00,0.0067
1747.00,0.0067
1746.00,0.0067
1745.00,0.0067
1744.00,0.0067
1743.00,0.0067
1742.00,0.0067
1741.00,0.0067
1740.00,0.0068
1739.00,0.0068
1738.00,0.0068
1737.00,0.0068
1736.00,0.0069
1735.00,0.0070
1734.00,0.0070
1733.00,0.0070
1732.00,0.0071
1731.00,0.0071
1730.00,0.0071
1729.00,0.0071
1728.00,0.0072
1727.00,0.0073
1726.00,0.0073
1725.00,0.0073
1724.00,0.0074
1723.00,0.0075
1722.00,0.0075
1721.00,0.0076
1720.00,0.0077
1719.00,0.0079
1718.00,0.0081
1717.00,0.0082
1716.00,0.0084
1715.00,0.0086
1714.00,0.0088
1713.00,0.0091
1712.00,0.0094
1711.00,0.0097
1710.00,0.0101
1709.00,0.0105
1708.00,0.0110
1707.00,0.0116
1706.00,0.0124
1705.00,0.0134
1704.00,0.0144
1703.00,0.0153
1702.00,0.0164
1701.00,0.0182
1700.00,0.0208
1699.00,0.0229
1698.00,0.0243
1697.00,0.0256
1696.00,0.0270
1695.00,0.0283
1694.00,0.0291
1693.00,0.0297
1692.00,0.0302
1691.00,0.0309
1690.00,0.0316
1689.00,0.0324
1688.00,0.0331
1687.00,0.0338
1686.00,0.0345
1685.00,0.0356
1684.00,0.0373
1683.00,0.0387
1682.00,0.0397
1681.00,0.0406
1680.00,0.0416
1679.00,0.0426
1678.00,0.0434
1677.00,0.0444
1676.00,0.0456
1675.00,0.0471
1674.00,0.0484
1673.00,0.0495
1672.00,0.0504
1671.00,0.0515
1670.00,0.0529
1669.00,0.0545
1668.00,0.0560
1667.00,0.0571
1666.00,0.0579
1665.00,0.0588
1664.00,0.0599
1663.00,0.0613
1662.00,0.0627
1661.00,0.0640
1660.00,0.0650
1659.00,0.0660
1658.00,0.0667
1657.00,0.0674
1656.00,0.0679
1655.00,0.0683
1654.00,0.0694
1653.00,0.0713
1652.00,0.0729
1651.00,0.0735
1650.00,0.0735
1649.00,0.0735
1648.00,0.0738
1647.00,0.0746
1646.00,0.0754
1645.00,0.0760
1644.00,0.0764
1643.00,0.0766
1642.00,0.0768
1641.00,0.0770
1640.00,0.0772
1639.00,0.0775
1638.00,0.0776
1637.00,0.0779
1636.00,0.0786
1635.00,0.0795
1634.00,0.0801
1633.00,0.0804
1632.00,0.0806
1631.00,0.0807
1630.00,0.0809
1629.00,0.0812
1628.00,0.0817
1627.00,0.0822
1626.00,0.0826
1625.00,0.0829
1624.00,0.0833
1623.00,0.0838
1622.00,0.0843
1621.00,0.0844
1620.00,0.0844
1619.00,0.0841
1618.00,0.0837
1617.00,0.0834
1616.00,0.0830
1615.00,0.0825
1614.00,0.0817
1613.00,0.0806
1612.00,0.0795
1611.00,0.0783
1610.00,0.0770
1609.00,0.0757
1608.00,0.0744
1607.00,0.0731
1606.00,0.0717
1605.00,0.0704
1604.00,0.0691
1603.00,0.0677
1602.00,0.0664
1601.00,0.0650
1600.00,0.0637
1599.00,0.0624
1598.00,0.0612
1597.00,0.0599
1596.00,0.0587
1595.00,0.0575
1594.00,0.0564
1593.00,0.0552
1592.00,0.0541
1591.00,0.0529
1590.00,0.0519
1589.00,0.0508
1588.00,0.0498
1587.00,0.0488
1586.00,0.0479
1585.00,0.0471
1584.00,0.0463
1583.00,0.0455
1582.00,0.0449
1581.00,0.0443
1580.00,0.0438
1579.00,0.0434
1578.00,0.0431
1577.00,0.0429
1576.00,0.0428
1575.00,0.0428
1574.00,0.0429
1573.00,0.0429
1572.00,0.0428
1571.00,0.0430
1570.00,0.0434
1569.00,0.0441
1568.00,0.0446
1567.00,0.0451
1566.00,0.0456
1565.00,0.0462
1564.00,0.0469
1563.00,0.0474
1562.00,0.0478
1561.00,0.0481
1560.00,0.0489
1559.00,0.0508
1558.00,0.0529
1557.00,0.0540
1556.00,0.0546
1555.00,0.0553
1554.00,0.0562
1553.00,0.0571
1552.00,0.0579
1551.00,0.0587
1550.00,0.0597
1549.00,0.0607
1548.00,0.0615
1547.00,0.0621
1546.00,0.0627
1545.00,0.0635
1544.00,0.0643
1543.00,0.0649
1542.00,0.0656
1541.00,0.0666
1540.00,0.0680
1539.00,0.0692
1538.00,0.0700
1537.00,0.0703
1536.00,0.0704
1535.00,0.0706
1534.00,0.0713
1533.00,0.0723
1532.00,0.0732
1531.00,0.0738
1530.00,0.0742
1529.00,0.0746
1528.00,0.0751
1527.00,0.0758
1526.00,0.0765
1525.00,0.0772
1524.00,0.0777
1523.00,0.0782
1522.00,0.0790
1521.00,0.0800
1520.00,0.0809
1519.00,0.0813
1518.00,0.0816
1517.00,0.0821
1516.00,0.0825
1515.00,0.0827
1514.00,0.0825
1513.00,0.0821
1512.00,0.0816
1511.00,0.0811
1510.00,0.0805
1509.00,0.0797
1508.00,0.0789
1507.00,0.0781
1506.00,0.0774
1505.00,0.0766
1504.00,0.0756
1503.00,0.0744
1502.00,0.0732
1501.00,0.0720
1500.00,0.0707
1499.00,0.0694
1498.00,0.0682
1497.00,0.0668
1496.00,0.0654
1495.00,0.0640
1494.00,0.0627
1493.00,0.0613
1492.00,0.0598
1491.00,0.0583
1490.00,0.0568
1489.00,0.0554
1488.00,0.0541
1487.00,0.0529
1486.00,0.0517
1485.00,0.0506
1484.00,0.0496
1483.00,0.0486
1482.00,0.0476
1481.00,0.0467
1480.00,0.0460
1479.00,0.0453
1478.00,0.0447
1477.00,0.0441
1476.00,0.0437
1475.00,0.0433
1474.00,0.0431
1473.00,0.0429
1472.00,0.0429
1471.00,0.0429
1470.00,0.0429
1469.00,0.0427
1468.00,0.0425
1467.00,0.0423
1466.00,0.0422
1465.00,0.0423
1464.00,0.0424
1463.00,0.0426
1462.00,0.0427
1461.00,0.0429
1460.00,0.0431
1459.00,0.0434
1458.00,0.0440
1457.00,0.0448
1456.00,0.0456
1455.00,0.0460
1454.00,0.0462
1453.00,0.0462
1452.00,0.0463
1451.00,0.0463
1450.00,0.0462
1449.00,0.0461
1448.00,0.0459
1447.00,0.0458
1446.00,0.0455
1445.00,0.0451
1444.00,0.0447
1443.00,0.0442
1442.00,0.0437
1441.00,0.0431
1440.00,0.0426
1439.00,0.0420
1438.00,0.0414
1437.00,0.0409
1436.00,0.0405
1435.00,0.0401
1434.00,0.0397
1433.00,0.0393
1432.00,0.0389
1431.00,0.0386
1430.00,0.0384
1429.00,0.0382
1428.00,0.0381
1427.00,0.0380
1426.00,0.0379
1425.00,0.0379
1424.00,0.0380
1423.00,0.0381
1422.00,0.0381
1421.00,0.0381
1420.00,0.0382
1419.00,0.0385
1418.00,0.0389
1417.00,0.0391
1416.00,0.0393
1415.00,0.0394
1414.00,0.0395
1413.00,0.0397
1412.00,0.0398
1411.00,0.0400
1410.00,0.0402
1409.00,0.0403
1408.00,0.0404
1407.00,0.0404
1406.00,0.0405
1405.00,0.0405
1404.00,0.0406
1403.00,0.0406
1402.00,0.0405
1401.00,0.0404
1400.00,0.0403
1399.00,0.0402
1398.00,0.0402
1397.00,0.0402
1396.00,0.0401
1395.00,0.0401
1394.00,0.0401
1393.00,0.0401
1392.00,0.0401
1391.00,0.0400
1390.00,0.0399
1389.00,0.0398
1388.00,0.0398
1387.00,0.0398
1386.00,0.0397
1385.00,0.0396
1384.00,0.0395
1383.00,0.0394
1382.00,0.0392
1381.00,0.0391
1380.00,0.0389
1379.00,0.0388
1378.00,0.0387
1377.00,0.0385
1376.00,0.0384
1375.00,0.0383
1374.00,0.0383
1373.00,0.0383
1372.00,0.0382
1371.00,0.0381
1370.00,0.0380
1369.00,0.0378
1368.00,0.0376
1367.00,0.0374
1366.00,0.0371
1365.00,0.0368
1364.00,0.0365
1363.00,0.0363
1362.00,0.0361
1361.00,0.0359
1360.00,0.0357
1359.00,0.0355
1358.00,0.0353
1357.00,0.0351
1356.00,0.0349
1355.00,0.0348
1354.00,0.0347
1353.00,0.0346
1352.00,0.0345
1351.00,0.0344
1350.00,0.0343
1349.00,0.0342
1348.00,0.0342
1347.00,0.0341
1346.00,0.0341
1345.00,0.0340
1344.00,0.0340
1343.00,0.0340
1342.00,0.0339
1341.00,0.0339
1340.00,0.0339
1339.00,0.0340
1338.00,0.0340
1337.00,0.0340
1336.00,0.0340
1335.00,0.0339
1334.00,0.0339
1333.00,0.0338
1332.00,0.0338
1331.00,0.0337
1330.00,0.0337
1329.00,0.0337
1328.00,0.0337
1327.00,0.0336
1326.00,0.0336
1325.00,0.0336
1324.00,0.0336
1323.00,0.0336
1322.00,0.0336
1321.00,0.0336
1320.00,0.0336
1319.00,0.0337
1318.00,0.0337
1317.00,0.0337
1316.00,0.0337
1315.00,0.0337
1314.00,0.0337
1313.00,0.0337
1312.00,0.0337
1311.00,0.0337
1310.00,0.0337
1309.00,0.0337
1308.00,0.0336
1307.00,0.0336
1306.00,0.0336
1305.00,0.0336
1304.00,0.0335
1303.00,0.0335
1302.00,0.0334
1301.00,0.0334
1300.00,0.0333
1299.00,0.0333
1298.00,0.0333
1297.00,0.0332
1296.00,0.0332
1295.00,0.0332
1294.00,0.0331
1293.00,0.0331
1292.00,0.0331
1291.00,0.0331
1290.00,0.0331
1289.00,0.0331
1288.00,0.0331
1287.00,0.0331
1286.00,0.0331
1285.00,0.0331
1284.00,0.0330
1283.00,0.0330
1282.00,0.0330
1281.00,0.0329
1280.00,0.0328
1279.00,0.0328
1278.00,0.0328
1277.00,0.0327
1276.00,0.0327
1275.00,0.0328
1274.00,0.0328
1273.00,0.0328
1272.00,0.0329
1271.00,0.0330
1270.00,0.0330
1269.00,0.0331
1268.00,0.0332
1267.00,0.0333
1266.00,0.0334
1265.00,0.0336
1264.00,0.0337
1263.00,0.0339
1262.00,0.0341
1261.00,0.0343
1260.00,0.0346
1259.00,0.0349
1258.00,0.0352
1257.00,0.0355
1256.00,0.0358
1255.00,0.0361
1254.00,0.0364
1253.00,0.0368
1252.00,0.0371
1251.00,0.0374
1250.00,0.0377
1249.00,0.0380
1248.00,0.0382
1247.00,0.0385
1246.00,0.0388
1245.00,0.0390
1244.00,0.0392
1243.00,0.0394
1242.00,0.0395
1241.00,0.0397
1240.00,0.0398
1239.00,0.0399
1238.00,0.0400
1237.00,0.0400
1236.00,0.0401
1235.00,0.0401
1234.00,0.0401
1233.00,0.0400
1232.00,0.0400
1231.00,0.0400
1230.00,0.0399
1229.00,0.0398
1228.00,0.0397
1227.00,0.0396
1226.00,0.0395
1225.00,0.0394
1224.00,0.0392
1223.00,0.0391
1222.00,0.0389
1221.00,0.0387
1220.00,0.0385
1219.00,0.0383
1218.00,0.0380
1217.00,0.0378
1216.00,0.0375
1215.00,0.0372
1214.00,0.0369
1213.00,0.0366
1212.00,0.0362
1211.00,0.0359
1210.00,0.0355
1209.00,0.0352
1208.00,0.0348
1207.00,0.0344
1206.00,0.0340
1205.00,0.0335
1204.00,0.0331
1203.00,0.0327
1202.00,0.0323
1201.00,0.0319
1200.00,0.0315
1199.00,0.0312
1198.00,0.0308
1197.00,0.0305
1196.00,0.0302
1195.00,0.0299
1194.00,0.0297
1193.00,0.0294
1192.00,0.0292
1191.00,0.0290
1190.00,0.0289
1189.00,0.0287
1188.00,0.0285
1187.00,0.0284
1186.00,0.0283
1185.00,0.0282
1184.00,0.0281
1183.00,0.0281
1182.00,0.0281
1181.00,0.0281
1180.00,0.0282
1179.00,0.0283
1178.00,0.0284
1177.00,0.0286
1176.00,0.0288
1175.00,0.0290
1174.00,0.0292
1173.00,0.0294
1172.00,0.0296
1171.00,0.0298
1170.00,0.0300
1169.00,0.0302
1168.00,0.0303
1167.00,0.0305
1166.00,0.0306
1165.00,0.0307
1164.00,0.0308
1163.00,0.0309
1162.00,0.0310
1161.00,0.0310
1160.00,0.0310
1159.00,0.0310
1158.00,0.0310
1157.00,0.0309
1156.00,0.0307
1155.00,0.0306
1154.00,0.0304
1153.00,0.0302
1152.00,0.0300
1151.00,0.0298
1150.00,0.0295
1149.00,0.0293
1148.00,0.0291
1147.00,0.0288
1146.00,0.0286
1145.00,0.0284
1144.00,0.0282
1143.00,0.0281
1142.00,0.0280
1141.00,0.0279
1140.00,0.0278
1139.00,0.0278
1138.00,0.0277
1137.00,0.0277
1136.00,0.0277
1135.00,0.0277
1134.00,0.0277
1133.00,0.0277
1132.00,0.0278
1131.00,0.0278
1130.00,0.0279
1129.00,0.0279
1128.00,0.0279
1127.00,0.0278
1126.00,0.0278
1125.00,0.0277
1124.00,0.0276
1123.00,0.0275
1122.00,0.0274
1121.00,0.0273
1120.00,0.0272
1119.00,0.0270
1118.00,0.0269
1117.00,0.0268
1116.00,0.0266
1115.00,0.0265
1114.00,0.0264
1113.00,0.0264
1112.00,0.0263
1111.00,0.0263
1110.00,0.0262
1109.00,0.0262
1108.00,0.0262
1107.00,0.0262
1106.00,0.0262
1105.00,0.0262
1104.00,0.0262
1103.00,0.0263
1102.00,0.0263
1101.00,0.0263
1100.00,0.0264
1099.00,0.0265
1098.00,0.0266
1097.00,0.0267
1096.00,0.0269
1095.00,0.0271
1094.00,0.0274
1093.00,0.0277
1092.00,0.0281
1091.00,0.0285
1090.00,0.0289
1089.00,0.0294
1088.00,0.0299
1087.00,0.0304
1086.00,0.0310
1085.00,0.0316
1084.00,0.0322
1083.00,0.0328
1082.00,0.0334
1081.00,0.0340
1080.00,0.0346
1079.00,0.0351
1078.00,0.0356
1077.00,0.0361
1076.00,0.0365
1075.00,0.0369
1074.00,0.0372
1073.00,0.0374
1072.00,0.0376
1071.00,0.0378
1070.00,0.0380
1069.00,0.0381
1068.00,0.0382
1067.00,0.0383
1066.00,0.0384
1065.00,0.0385
1064.00,0.0385
1063.00,0.0386
1062.00,0.0386
1061.00,0.0386
1060.00,0.0385
1059.00,0.0384
1058.00,0.0383
1057.00,0.0381
1056.00,0.0380
1055.00,0.0378
1054.00,0.0377
1053.00,0.0375
1052.00,0.0373
1051.00,0.0370
1050.00,0.0368
1049.00,0.0365
1048.00,0.0363
1047.00,0.0360
1046.00,0.0357
1045.00,0.0353
1044.00,0.0349
1043.00,0.0346
1042.00,0.0341
1041.00,0.0337
1040.00,0.0332
1039.00,0.0328
1038.00,0.0324
1037.00,0.0320
1036.00,0.0317
1035.00,0.0313
1034.00,0.0310
1033.00,0.0306
1032.00,0.0303
1031.00,0.0299
1030.00,0.0296
1029.00,0.0292
1028.00,0.0288
1027.00,0.0284
1026.00,0.0280
1025.00,0.0276
1024.00,0.0272
1023.00,0.0269
1022.00,0.0265
1021.00,0.0262
1020.00,0.0259
1019.00,0.0256
1018.00,0.0253
1017.00,0.0250
1016.00,0.0247
1015.00,0.0244
1014.00,0.0241
1013.00,0.0239
1012.00,0.0236
1011.00,0.0234
1010.00,0.0232
1009.00,0.0229
1008.00,0.0227
1007.00,0.0225
1006.00,0.0223
1005.00,0.0222
1004.00,0.0220
1003.00,0.0219
1002.00,0.0217
1001.00,0.0216
1000.00,0.0215
999.00,0.0214
998.00,0.0213
997.00,0.0212
996.00,0.0211
995.00,0.0210
994.00,0.0209
993.00,0.0208
992.00,0.0207
991.00,0.0206
990.00,0.0205
989.00,0.0204
988.00,0.0203
987.00,0.0202
986.00,0.0202
985.00,0.0201
984.00,0.0201
983.00,0.0200
982.00,0.0200
981.00,0.0200
980.00,0.0200
979.00,0.0200
978.00,0.0200
977.00,0.0200
976.00,0.0201
975.00,0.0201
974.00,0.0202
973.00,0.0202
972.00,0.0203
971.00,0.0204
970.00,0.0205
969.00,0.0207
968.00,0.0208
967.00,0.0210
966.00,0.0212
965.00,0.0213
964.00,0.0214
963.00,0.0216
962.00,0.0216
961.00,0.0216
960.00,0.0216
959.00,0.0216
958.00,0.0216
957.00,0.0215
956.00,0.0214
955.00,0.0213
954.00,0.0212
953.00,0.0211
952.00,0.0210
951.00,0.0210
950.00,0.0209
949.00,0.0208
948.00,0.0208
947.00,0.0207
946.00,0.0207
945.00,0.0206
944.00,0.0206
943.00,0.0205
942.00,0.0205
941.00,0.0205
940.00,0.0204
939.00,0.0204
938.00,0.0204
937.00,0.0205
936.00,0.0205
935.00,0.0205
934.00,0.0205
933.00,0.0205
932.00,0.0205
931.00,0.0205
930.00,0.0205
929.00,0.0205
928.00,0.0204
927.00,0.0204
926.00,0.0203
925.00,0.0203
924.00,0.0202
923.00,0.0201
922.00,0.0200
921.00,0.0200
920.00,0.0199
919.00,0.0198
918.00,0.0197
917.00,0.0196
916.00,0.0195
915.00,0.0195
914.00,0.0194
913.00,0.0195
912.00,0.0195
911.00,0.0195
910.00,0.0196
909.00,0.0196
908.00,0.0196
907.00,0.0197
906.00,0.0198
905.00,0.0198
904.00,0.0199
903.00,0.0200
902.00,0.0200
901.00,0.0200
900.00,0.0200
899.00,0.0200
898.00,0.0200
897.00,0.0200
896.00,0.0199
895.00,0.0198
894.00,0.0198
893.00,0.0197
892.00,0.0196
891.00,0.0195
890.00,0.0194
889.00,0.0193
888.00,0.0192
887.00,0.0191
886.00,0.0190
885.00,0.0190
884.00,0.0189
883.00,0.0189
882.00,0.0189
881.00,0.0188
880.00,0.0188
879.00,0.0188
878.00,0.0188
877.00,0.0188
876.00,0.0188
875.00,0.0187
874.00,0.0187
873.00,0.0187
872.00,0.0187
871.00,0.0187
870.00,0.0186
869.00,0.0186
868.00,0.0186
867.00,0.0186
866.00,0.0185
865.00,0.0185
864.00,0.0185
863.00,0.0185
862.00,0.0185
861.00,0.0185
860.00,0.0186
859.00,0.0186
858.00,0.0186
857.00,0.0187
856.00,0.0187
855.00,0.0188
854.00,0.0189
853.00,0.0189
852.00,0.0190
851.00,0.0190
850.00,0.0191
849.00,0.0191
848.00,0.0192
847.00,0.0192
846.00,0.0193
845.00,0.0193
844.00,0.0194
843.00,0.0195
842.00,0.0197
841.00,0.0198
840.00,0.0199
839.00,0.0201
838.00,0.0202
837.00,0.0204
836.00,0.0206
835.00,0.0208
834.00,0.0210
833.00,0.0212
832.00,0.0213
831.00,0.0215
830.00,0.0217
829.00,0.0219
828.00,0.0221
827.00,0.0222
826.00,0.0224
825.00,0.0225
824.00,0.0226
823.00,0.0227
822.00,0.0228
821.00,0.0229
820.00,0.0231
819.00,0.0232
818.00,0.0233
817.00,0.0234
816.00,0.0236
815.00,0.0237
814.00,0.0239
813.00,0.0241
812.00,0.0242
811.00,0.0244
810.00,0.0245
809.00,0.0246
808.00,0.0247
807.00,0.0248
806.00,0.0249
805.00,0.0250
804.00,0.0252
803.00,0.0253
802.00,0.0254
801.00,0.0255
800.00,0.0257
799.00,0.0258
798.00,0.0259
797.00,0.0260
796.00,0.0262
795.00,0.0263
794.00,0.0265
793.00,0.0267
792.00,0.0269
791.00,0.0271
790.00,0.0273
789.00,0.0276
788.00,0.0278
787.00,0.0281
786.00,0.0283
785.00,0.0285
784.00,0.0287
783.00,0.0290
782.00,0.0292
781.00,0.0294
780.00,0.0297
779.00,0.0299
778.00,0.0302
777.00,0.0304
776.00,0.0307
775.00,0.0309
774.00,0.0311
773.00,0.0312
772.00,0.0314
771.00,0.0316
770.00,0.0317
769.00,0.0319
768.00,0.0321
767.00,0.0322
766.00,0.0323
765.00,0.0324
764.00,0.0325
763.00,0.0326
762.00,0.0327
761.00,0.0328
760.00,0.0329
759.00,0.0331
758.00,0.0332
757.00,0.0334
756.00,0.0336
755.00,0.0338
754.00,0.0340
753.00,0.0342
752.00,0.0344
751.00,0.0346
750.00,0.0348
749.00,0.0350
748.00,0.0351
747.00,0.0353
746.00,0.0354
745.00,0.0355
744.00,0.0356
743.00,0.0357
742.00,0.0358
741.00,0.0360
740.00,0.0361
739.00,0.0363
738.00,0.0365
737.00,0.0366
736.00,0.0368
735.00,0.0370
734.00,0.0372
733.00,0.0375
732.00,0.0378
731.00,0.0381
730.00,0.0384
729.00,0.0388
728.00,0.0393
727.00,0.0398
726.00,0.0403
725.00,0.0408
724.00,0.0413
723.00,0.0418
722.00,0.0423
721.00,0.0428
720.00,0.0434
719.00,0.0440
718.00,0.0446
717.00,0.0453
716.00,0.0459
715.00,0.0466
714.00,0.0472
713.00,0.0478
712.00,0.0483
711.00,0.0489
710.00,0.0495
709.00,0.0501
708.00,0.0507
707.00,0.0513
706.00,0.0518
705.00,0.0524
704.00,0.0529
703.00,0.0534
702.00,0.0538
701.00,0.0542
700.00,0.0545
699.00,0.0547
698.00,0.0549
697.00,0.0550
696.00,0.0550
695.00,0.0551
694.00,0.0551
693.00,0.0551
692.00,0.0552
691.00,0.0553
690.00,0.0554
689.00,0.0554
688.00,0.0556
687.00,0.0557
686.00,0.0558
685.00,0.0558
684.00,0.0559
683.00,0.0560
682.00,0.0561
681.00,0.0562
680.00,0.0563
679.00,0.0563
678.00,0.0564
677.00,0.0565
676.00,0.0565
675.00,0.0566
674.00,0.0567
673.00,0.0567
672.00,0.0567
671.00,0.0568
670.00,0.0569
669.00,0.0572
668.00,0.0576
667.00,0.0579
666.00,0.0578
665.00,0.0576
664.00,0.0575
663.00,0.0575
662.00,0.0575
661.00,0.0576
660.00,0.0577
659.00,0.0578
658.00,0.0579
657.00,0.0580
656.00,0.0582
655.00,0.0583
654.00,0.0584
653.00,0.0586
652.00,0.0587
651.00,0.0588
650.00,0.0590
649.00,0.0591
648.00,0.0593
647.00,0.0595
646.00,0.0596
645.00,0.0598
644.00,0.0601
643.00,0.0603
642.00,0.0605
641.00,0.0607
640.00,0.0610
639.00,0.0612
638.00,0.0614
637.00,0.0616
636.00,0.0618
635.00,0.0620
634.00,0.0622
633.00,0.0624
632.00,0.0626
631.00,0.0627
630.00,0.0629
629.00,0.0630
628.00,0.0631
627.00,0.0632
626.00,0.0633
625.00,0.0633
624.00,0.0634
623.00,0.0635
622.00,0.0635
621.00,0.0635
620.00,0.0635
619.00,0.0634
618.00,0.0633
617.00,0.0631
616.00,0.0631
615.00,0.0630
614.00,0.0629
613.00,0.0627
612.00,0.0626
611.00,0.0624
610.00,0.0623
609.00,0.0622
608.00,0.0622
607.00,0.0622
606.00,0.0622
605.00,0.0621
604.00,0.0621
603.00,0.0620
602.00,0.0619
601.00,0.0619
600.00,0.0618
599.00,0.0617
598.00,0.0616
597.00,0.0616
596.00,0.0617
595.00,0.0617
594.00,0.0618
593.00,0.0618
592.00,0.0619
591.00,0.0619
590.00,0.0619
589.00,0.0620
588.00,0.0620
587.00,0.0621
586.00,0.0622
585.00,0.0622
584.00,0.0623
583.00,0.0623
582.00,0.0623
581.00,0.0624
580.00,0.0625
579.00,0.0626
578.00,0.0627
577.00,0.0628
576.00,0.0629
575.00,0.0630
574.00,0.0631
573.00,0.0631
572.00,0.0632
571.00,0.0633
570.00,0.0634
569.00,0.0635
568.00,0.0637
567.00,0.0638
566.00,0.0639
565.00,0.0639
564.00,0.0640
563.00,0.0640
562.00,0.0641
561.00,0.0642
560.00,0.0643
559.00,0.0644
558.00,0.0645
557.00,0.0645
556.00,0.0646
555.00,0.0647
554.00,0.0648
553.00,0.0649
552.00,0.0650
551.00,0.0651
550.00,0.0652
549.00,0.0652
548.00,0.0653
547.00,0.0653
546.00,0.0653
545.00,0.0652
544.00,0.0652
543.00,0.0653
542.00,0.0654
541.00,0.0654
540.00,0.0654
539.00,0.0655
538.00,0.0655
537.00,0.0655
536.00,0.0656
535.00,0.0656
534.00,0.0657
533.00,0.0657
532.00,0.0658
531.00,0.0658
530.00,0.0658
529.00,0.0659
528.00,0.0659
527.00,0.0659
526.00,0.0659
525.00,0.0659
524.00,0.0659
523.00,0.0659
522.00,0.0660
521.00,0.0661
520.00,0.0662
519.00,0.0664
518.00,0.0664
517.00,0.0664
516.00,0.0664
515.00,0.0663
514.00,0.0661
513.00,0.0660
512.00,0.0660
511.00,0.0660
510.00,0.0659
509.00,0.0659
508.00,0.0658
507.00,0.0657
506.00,0.0655
505.00,0.0654
504.00,0.0654
503.00,0.0654
502.00,0.0654
501.00,0.0654
500.00,0.0654
499.00,0.0654
498.00,0.0654
497.00,0.0653
496.00,0.0654
495.00,0.0654
494.00,0.0654
493.00,0.0653
492.00,0.0653
491.00,0.0652
490.00,0.0651
489.00,0.0651
488.00,0.0650
487.00,0.0650
486.00,0.0650
485.00,0.0650
484.00,0.0651
483.00,0.0651
482.00,0.0650
481.00,0.0649
480.00,0.0650
479.00,0.0650
478.00,0.0650
477.00,0.0650
476.00,0.0649
475.00,0.0649
474.00,0.0649
473.00,0.0649
472.00,0.0649
471.00,0.0650
470.00,0.0650
469.00,0.0650
468.00,0.0650
467.00,0.0649
466.00,0.0647
465.00,0.0646
464.00,0.0646
463.00,0.0648
462.00,0.0648
461.00,0.0648
460.00,0.0647
459.00,0.0645
458.00,0.0643
457.00,0.0643
456.00,0.0644
455.00,0.0643
454.00,0.0641
453.00,0.0640
452.00,0.0639
451.00,0.0638
450.00,0.0638
449.00,0.0637
448.00,0.0636
447.00,0.0634
446.00,0.0631
445.00,0.0628
444.00,0.0625
443.00,0.0622
442.00,0.0619
441.00,0.0618
440.00,0.0617
439.00,0.0615
438.00,0.0612
437.00,0.0609
436.00,0.0607
435.00,0.0605
434.00,0.0602
433.00,0.0599
432.00,0.0595
431.00,0.0590
430.00,0.0587
429.00,0.0585
428.00,0.0585
427.00,0.0583
426.00,0.0580
425.00,0.0578
424.00,0.0577
423.00,0.0577
422.00,0.0575
421.00,0.0573
420.00,0.0573
419.00,0.0574
418.00,0.0572
417.00,0.0568
416.00,0.0564
415.00,0.0562
414.00,0.0561
413.00,0.0561
412.00,0.0560
411.00,0.0557
410.00,0.0553
409.00,0.0551
408.00,0.0552
407.00,0.0553
406.00,0.0552
405.00,0.0548
404.00,0.0546
403.00,0.0545
402.00,0.0542
401.00,0.0536
400.00,0.0529
