Created as New Dataset,Sample 318 By YargerLab Date Monday, August 19 2024
cm-1,A
4000.00,0.0072
3999.00,0.0072
3998.00,0.0072
3997.00,0.0072
3996.00,0.0072
3995.00,0.0072
3994.00,0.0072
3993.00,0.0072
3992.00,0.0072
3991.00,0.0072
3990.00,0.0071
3989.00,0.0072
3988.00,0.0072
3987.00,0.0072
3986.00,0.0072
3985.00,0.0072
3984.00,0.0072
3983.00,0.0072
3982.00,0.0072
3981.00,0.0072
3980.00,0.0072
3979.00,0.0072
3978.00,0.0072
3977.00,0.0072
3976.00,0.0072
3975.00,0.0072
3974.00,0.0072
3973.00,0.0072
3972.00,0.0072
3971.00,0.0072
3970.00,0.0072
3969.00,0.0071
3968.00,0.0071
3967.00,0.0071
3966.00,0.0071
3965.00,0.0072
3964.00,0.0072
3963.00,0.0072
3962.00,0.0072
3961.00,0.0071
3960.00,0.0071
3959.00,0.0071
3958.00,0.0071
3957.00,0.0072
3956.00,0.0072
3955.00,0.0072
3954.00,0.0072
3953.00,0.0071
3952.00,0.0071
3951.00,0.0071
3950.00,0.0071
3949.00,0.0071
3948.00,0.0071
3947.00,0.0071
3946.00,0.0071
3945.00,0.0071
3944.00,0.0071
3943.00,0.0071
3942.00,0.0071
3941.00,0.0071
3940.00,0.0071
3939.00,0.0071
3938.00,0.0071
3937.00,0.0071
3936.00,0.0071
3935.00,0.0071
3934.00,0.0071
3933.00,0.0071
3932.00,0.0071
3931.00,0.0071
3930.00,0.0071
3929.00,0.0071
3928.00,0.0070
3927.00,0.0070
3926.00,0.0070
3925.00,0.0071
3924.00,0.0071
3923.00,0.0071
3922.00,0.0071
3921.00,0.0071
3920.00,0.0071
3919.00,0.0071
3918.00,0.0071
3917.00,0.0071
3916.00,0.0071
3915.00,0.0070
3914.00,0.0070
3913.00,0.0070
3912.00,0.0071
3911.00,0.0071
3910.00,0.0071
3909.00,0.0071
3908.00,0.0070
3907.00,0.0070
3906.00,0.0070
3905.00,0.0070
3904.00,0.0070
3903.00,0.0070
3902.00,0.0070
3901.00,0.0070
3900.00,0.0069
3899.00,0.0069
3898.00,0.0070
3897.00,0.0070
3896.00,0.0070
3895.00,0.0070
3894.00,0.0070
3893.00,0.0070
3892.00,0.0070
3891.00,0.0070
3890.00,0.0070
3889.00,0.0070
3888.00,0.0069
3887.00,0.0069
3886.00,0.0070
3885.00,0.0070
3884.00,0.0070
3883.00,0.0069
3882.00,0.0069
3881.00,0.0070
3880.00,0.0070
3879.00,0.0070
3878.00,0.0070
3877.00,0.0070
3876.00,0.0069
3875.00,0.0070
3874.00,0.0070
3873.00,0.0069
3872.00,0.0069
3871.00,0.0069
3870.00,0.0069
3869.00,0.0069
3868.00,0.0069
3867.00,0.0069
3866.00,0.0069
3865.00,0.0069
3864.00,0.0069
3863.00,0.0069
3862.00,0.0069
3861.00,0.0069
3860.00,0.0069
3859.00,0.0069
3858.00,0.0069
3857.00,0.0068
3856.00,0.0068
3855.00,0.0068
3854.00,0.0068
3853.00,0.0068
3852.00,0.0067
3851.00,0.0067
3850.00,0.0068
3849.00,0.0068
3848.00,0.0069
3847.00,0.0069
3846.00,0.0069
3845.00,0.0069
3844.00,0.0069
3843.00,0.0069
3842.00,0.0069
3841.00,0.0068
3840.00,0.0068
3839.00,0.0068
3838.00,0.0068
3837.00,0.0068
3836.00,0.0068
3835.00,0.0068
3834.00,0.0068
3833.00,0.0068
3832.00,0.0068
3831.00,0.0069
3830.00,0.0069
3829.00,0.0069
3828.00,0.0069
3827.00,0.0069
3826.00,0.0069
3825.00,0.0069
3824.00,0.0068
3823.00,0.0068
3822.00,0.0068
3821.00,0.0068
3820.00,0.0068
3819.00,0.0068
3818.00,0.0067
3817.00,0.0067
3816.00,0.0067
3815.00,0.0068
3814.00,0.0068
3813.00,0.0068
3812.00,0.0068
3811.00,0.0068
3810.00,0.0068
3809.00,0.0068
3808.00,0.0068
3807.00,0.0068
3806.00,0.0068
3805.00,0.0068
3804.00,0.0067
3803.00,0.0067
3802.00,0.0067
3801.00,0.0067
3800.00,0.0067
3799.00,0.0067
3798.00,0.0067
3797.00,0.0068
3796.00,0.0068
3795.00,0.0068
3794.00,0.0068
3793.00,0.0068
3792.00,0.0068
3791.00,0.0068
3790.00,0.0068
3789.00,0.0068
3788.00,0.0068
3787.00,0.0068
3786.00,0.0068
3785.00,0.0068
3784.00,0.0068
3783.00,0.0067
3782.00,0.0067
3781.00,0.0067
3780.00,0.0067
3779.00,0.0068
3778.00,0.0068
3777.00,0.0068
3776.00,0.0068
3775.00,0.0068
3774.00,0.0068
3773.00,0.0068
3772.00,0.0068
3771.00,0.0068
3770.00,0.0068
3769.00,0.0067
3768.00,0.0067
3767.00,0.0067
3766.00,0.0067
3765.00,0.0067
3764.00,0.0067
3763.00,0.0067
3762.00,0.0067
3761.00,0.0067
3760.00,0.0067
3759.00,0.0067
3758.00,0.0067
3757.00,0.0067
3756.00,0.0067
3755.00,0.0067
3754.00,0.0066
3753.00,0.0066
3752.00,0.0066
3751.00,0.0066
3750.00,0.0066
3749.00,0.0065
3748.00,0.0065
3747.00,0.0065
3746.00,0.0065
3745.00,0.0065
3744.00,0.0065
3743.00,0.0065
3742.00,0.0065
3741.00,0.0065
3740.00,0.0065
3739.00,0.0065
3738.00,0.0064
3737.00,0.0064
3736.00,0.0064
3735.00,0.0064
3734.00,0.0064
3733.00,0.0064
3732.00,0.0064
3731.00,0.0064
3730.00,0.0064
3729.00,0.0064
3728.00,0.0064
3727.00,0.0064
3726.00,0.0065
3725.00,0.0065
3724.00,0.0065
3723.00,0.0065
3722.00,0.0065
3721.00,0.0065
3720.00,0.0065
3719.00,0.0065
3718.00,0.0065
3717.00,0.0065
3716.00,0.0065
3715.00,0.0064
3714.00,0.0064
3713.00,0.0064
3712.00,0.0063
3711.00,0.0063
3710.00,0.0063
3709.00,0.0063
3708.00,0.0063
3707.00,0.0063
3706.00,0.0063
3705.00,0.0063
3704.00,0.0063
3703.00,0.0063
3702.00,0.0063
3701.00,0.0063
3700.00,0.0063
3699.00,0.0063
3698.00,0.0063
3697.00,0.0063
3696.00,0.0063
3695.00,0.0063
3694.00,0.0063
3693.00,0.0063
3692.00,0.0063
3691.00,0.0063
3690.00,0.0063
3689.00,0.0062
3688.00,0.0062
3687.00,0.0062
3686.00,0.0062
3685.00,0.0062
3684.00,0.0063
3683.00,0.0063
3682.00,0.0063
3681.00,0.0063
3680.00,0.0063
3679.00,0.0063
3678.00,0.0063
3677.00,0.0063
3676.00,0.0063
3675.00,0.0063
3674.00,0.0062
3673.00,0.0062
3672.00,0.0062
3671.00,0.0062
3670.00,0.0062
3669.00,0.0063
3668.00,0.0063
3667.00,0.0063
3666.00,0.0063
3665.00,0.0063
3664.00,0.0064
3663.00,0.0064
3662.00,0.0064
3661.00,0.0064
3660.00,0.0064
3659.00,0.0064
3658.00,0.0064
3657.00,0.0064
3656.00,0.0064
3655.00,0.0064
3654.00,0.0064
3653.00,0.0064
3652.00,0.0064
3651.00,0.0064
3650.00,0.0064
3649.00,0.0064
3648.00,0.0064
3647.00,0.0064
3646.00,0.0064
3645.00,0.0064
3644.00,0.0064
3643.00,0.0065
3642.00,0.0065
3641.00,0.0065
3640.00,0.0066
3639.00,0.0066
3638.00,0.0066
3637.00,0.0066
3636.00,0.0066
3635.00,0.0066
3634.00,0.0066
3633.00,0.0066
3632.00,0.0066
3631.00,0.0066
3630.00,0.0066
3629.00,0.0066
3628.00,0.0066
3627.00,0.0066
3626.00,0.0066
3625.00,0.0066
3624.00,0.0067
3623.00,0.0067
3622.00,0.0068
3621.00,0.0068
3620.00,0.0068
3619.00,0.0068
3618.00,0.0068
3617.00,0.0068
3616.00,0.0068
3615.00,0.0068
3614.00,0.0069
3613.00,0.0069
3612.00,0.0069
3611.00,0.0069
3610.00,0.0069
3609.00,0.0069
3608.00,0.0070
3607.00,0.0070
3606.00,0.0070
3605.00,0.0071
3604.00,0.0071
3603.00,0.0072
3602.00,0.0072
3601.00,0.0072
3600.00,0.0072
3599.00,0.0072
3598.00,0.0072
3597.00,0.0072
3596.00,0.0073
3595.00,0.0073
3594.00,0.0073
3593.00,0.0073
3592.00,0.0073
3591.00,0.0073
3590.00,0.0073
3589.00,0.0074
3588.00,0.0074
3587.00,0.0074
3586.00,0.0074
3585.00,0.0075
3584.00,0.0075
3583.00,0.0076
3582.00,0.0076
3581.00,0.0076
3580.00,0.0077
3579.00,0.0077
3578.00,0.0077
3577.00,0.0077
3576.00,0.0078
3575.00,0.0078
3574.00,0.0078
3573.00,0.0078
3572.00,0.0078
3571.00,0.0078
3570.00,0.0079
3569.00,0.0079
3568.00,0.0079
3567.00,0.0079
3566.00,0.0079
3565.00,0.0080
3564.00,0.0080
3563.00,0.0081
3562.00,0.0081
3561.00,0.0082
3560.00,0.0082
3559.00,0.0083
3558.00,0.0083
3557.00,0.0083
3556.00,0.0083
3555.00,0.0084
3554.00,0.0084
3553.00,0.0084
3552.00,0.0085
3551.00,0.0085
3550.00,0.0085
3549.00,0.0085
3548.00,0.0086
3547.00,0.0086
3546.00,0.0087
3545.00,0.0087
3544.00,0.0087
3543.00,0.0088
3542.00,0.0088
3541.00,0.0088
3540.00,0.0089
3539.00,0.0089
3538.00,0.0089
3537.00,0.0090
3536.00,0.0090
3535.00,0.0090
3534.00,0.0090
3533.00,0.0091
3532.00,0.0091
3531.00,0.0091
3530.00,0.0092
3529.00,0.0092
3528.00,0.0092
3527.00,0.0093
3526.00,0.0093
3525.00,0.0093
3524.00,0.0094
3523.00,0.0094
3522.00,0.0094
3521.00,0.0095
3520.00,0.0095
3519.00,0.0095
3518.00,0.0096
3517.00,0.0096
3516.00,0.0096
3515.00,0.0097
3514.00,0.0097
3513.00,0.0097
3512.00,0.0097
3511.00,0.0098
3510.00,0.0098
3509.00,0.0098
3508.00,0.0098
3507.00,0.0099
3506.00,0.0099
3505.00,0.0100
3504.00,0.0100
3503.00,0.0101
3502.00,0.0101
3501.00,0.0101
3500.00,0.0101
3499.00,0.0102
3498.00,0.0102
3497.00,0.0102
3496.00,0.0102
3495.00,0.0103
3494.00,0.0103
3493.00,0.0103
3492.00,0.0104
3491.00,0.0104
3490.00,0.0105
3489.00,0.0105
3488.00,0.0105
3487.00,0.0106
3486.00,0.0106
3485.00,0.0106
3484.00,0.0107
3483.00,0.0107
3482.00,0.0108
3481.00,0.0108
3480.00,0.0108
3479.00,0.0108
3478.00,0.0109
3477.00,0.0109
3476.00,0.0110
3475.00,0.0110
3474.00,0.0111
3473.00,0.0111
3472.00,0.0111
3471.00,0.0112
3470.00,0.0112
3469.00,0.0112
3468.00,0.0113
3467.00,0.0113
3466.00,0.0113
3465.00,0.0113
3464.00,0.0114
3463.00,0.0114
3462.00,0.0115
3461.00,0.0115
3460.00,0.0115
3459.00,0.0116
3458.00,0.0116
3457.00,0.0117
3456.00,0.0117
3455.00,0.0117
3454.00,0.0118
3453.00,0.0118
3452.00,0.0118
3451.00,0.0119
3450.00,0.0119
3449.00,0.0119
3448.00,0.0120
3447.00,0.0120
3446.00,0.0120
3445.00,0.0120
3444.00,0.0121
3443.00,0.0121
3442.00,0.0122
3441.00,0.0122
3440.00,0.0123
3439.00,0.0123
3438.00,0.0124
3437.00,0.0124
3436.00,0.0124
3435.00,0.0125
3434.00,0.0125
3433.00,0.0125
3432.00,0.0126
3431.00,0.0126
3430.00,0.0126
3429.00,0.0126
3428.00,0.0127
3427.00,0.0127
3426.00,0.0127
3425.00,0.0128
3424.00,0.0128
3423.00,0.0129
3422.00,0.0129
3421.00,0.0129
3420.00,0.0130
3419.00,0.0130
3418.00,0.0131
3417.00,0.0131
3416.00,0.0131
3415.00,0.0132
3414.00,0.0132
3413.00,0.0132
3412.00,0.0133
3411.00,0.0133
3410.00,0.0134
3409.00,0.0134
3408.00,0.0134
3407.00,0.0135
3406.00,0.0135
3405.00,0.0135
3404.00,0.0136
3403.00,0.0136
3402.00,0.0137
3401.00,0.0137
3400.00,0.0137
3399.00,0.0137
3398.00,0.0138
3397.00,0.0138
3396.00,0.0138
3395.00,0.0139
3394.00,0.0139
3393.00,0.0139
3392.00,0.0140
3391.00,0.0140
3390.00,0.0140
3389.00,0.0141
3388.00,0.0141
3387.00,0.0141
3386.00,0.0142
3385.00,0.0142
3384.00,0.0142
3383.00,0.0143
3382.00,0.0143
3381.00,0.0143
3380.00,0.0144
3379.00,0.0144
3378.00,0.0145
3377.00,0.0145
3376.00,0.0145
3375.00,0.0146
3374.00,0.0146
3373.00,0.0146
3372.00,0.0147
3371.00,0.0147
3370.00,0.0148
3369.00,0.0148
3368.00,0.0149
3367.00,0.0149
3366.00,0.0150
3365.00,0.0150
3364.00,0.0151
3363.00,0.0151
3362.00,0.0152
3361.00,0.0152
3360.00,0.0153
3359.00,0.0153
3358.00,0.0154
3357.00,0.0155
3356.00,0.0155
3355.00,0.0156
3354.00,0.0156
3353.00,0.0157
3352.00,0.0157
3351.00,0.0158
3350.00,0.0158
3349.00,0.0159
3348.00,0.0160
3347.00,0.0160
3346.00,0.0161
3345.00,0.0161
3344.00,0.0162
3343.00,0.0163
3342.00,0.0163
3341.00,0.0164
3340.00,0.0165
3339.00,0.0166
3338.00,0.0166
3337.00,0.0167
3336.00,0.0168
3335.00,0.0169
3334.00,0.0169
3333.00,0.0170
3332.00,0.0171
3331.00,0.0172
3330.00,0.0173
3329.00,0.0173
3328.00,0.0174
3327.00,0.0175
3326.00,0.0176
3325.00,0.0176
3324.00,0.0177
3323.00,0.0178
3322.00,0.0179
3321.00,0.0180
3320.00,0.0181
3319.00,0.0182
3318.00,0.0183
3317.00,0.0184
3316.00,0.0186
3315.00,0.0187
3314.00,0.0188
3313.00,0.0189
3312.00,0.0190
3311.00,0.0191
3310.00,0.0192
3309.00,0.0193
3308.00,0.0194
3307.00,0.0195
3306.00,0.0197
3305.00,0.0198
3304.00,0.0200
3303.00,0.0201
3302.00,0.0203
3301.00,0.0204
3300.00,0.0205
3299.00,0.0207
3298.00,0.0208
3297.00,0.0209
3296.00,0.0210
3295.00,0.0212
3294.00,0.0213
3293.00,0.0215
3292.00,0.0216
3291.00,0.0217
3290.00,0.0219
3289.00,0.0220
3288.00,0.0221
3287.00,0.0223
3286.00,0.0224
3285.00,0.0225
3284.00,0.0226
3283.00,0.0227
3282.00,0.0228
3281.00,0.0229
3280.00,0.0229
3279.00,0.0230
3278.00,0.0231
3277.00,0.0231
3276.00,0.0232
3275.00,0.0232
3274.00,0.0232
3273.00,0.0232
3272.00,0.0232
3271.00,0.0232
3270.00,0.0232
3269.00,0.0232
3268.00,0.0232
3267.00,0.0232
3266.00,0.0231
3265.00,0.0231
3264.00,0.0230
3263.00,0.0229
3262.00,0.0228
3261.00,0.0227
3260.00,0.0226
3259.00,0.0225
3258.00,0.0224
3257.00,0.0223
3256.00,0.0222
3255.00,0.0221
3254.00,0.0220
3253.00,0.0219
3252.00,0.0218
3251.00,0.0216
3250.00,0.0215
3249.00,0.0214
3248.00,0.0213
3247.00,0.0211
3246.00,0.0210
3245.00,0.0209
3244.00,0.0208
3243.00,0.0207
3242.00,0.0206
3241.00,0.0205
3240.00,0.0204
3239.00,0.0203
3238.00,0.0202
3237.00,0.0201
3236.00,0.0200
3235.00,0.0199
3234.00,0.0198
3233.00,0.0197
3232.00,0.0196
3231.00,0.0196
3230.00,0.0195
3229.00,0.0195
3228.00,0.0194
3227.00,0.0193
3226.00,0.0193
3225.00,0.0192
3224.00,0.0191
3223.00,0.0190
3222.00,0.0190
3221.00,0.0189
3220.00,0.0188
3219.00,0.0188
3218.00,0.0187
3217.00,0.0187
3216.00,0.0186
3215.00,0.0185
3214.00,0.0185
3213.00,0.0184
3212.00,0.0184
3211.00,0.0183
3210.00,0.0183
3209.00,0.0182
3208.00,0.0181
3207.00,0.0181
3206.00,0.0180
3205.00,0.0180
3204.00,0.0179
3203.00,0.0179
3202.00,0.0178
3201.00,0.0178
3200.00,0.0177
3199.00,0.0177
3198.00,0.0177
3197.00,0.0176
3196.00,0.0175
3195.00,0.0175
3194.00,0.0174
3193.00,0.0174
3192.00,0.0173
3191.00,0.0173
3190.00,0.0172
3189.00,0.0172
3188.00,0.0171
3187.00,0.0171
3186.00,0.0170
3185.00,0.0170
3184.00,0.0169
3183.00,0.0168
3182.00,0.0168
3181.00,0.0167
3180.00,0.0167
3179.00,0.0166
3178.00,0.0166
3177.00,0.0165
3176.00,0.0165
3175.00,0.0164
3174.00,0.0163
3173.00,0.0163
3172.00,0.0162
3171.00,0.0162
3170.00,0.0161
3169.00,0.0161
3168.00,0.0160
3167.00,0.0159
3166.00,0.0159
3165.00,0.0158
3164.00,0.0158
3163.00,0.0157
3162.00,0.0157
3161.00,0.0156
3160.00,0.0155
3159.00,0.0155
3158.00,0.0154
3157.00,0.0154
3156.00,0.0153
3155.00,0.0153
3154.00,0.0152
3153.00,0.0151
3152.00,0.0151
3151.00,0.0150
3150.00,0.0150
3149.00,0.0150
3148.00,0.0149
3147.00,0.0149
3146.00,0.0148
3145.00,0.0148
3144.00,0.0147
3143.00,0.0147
3142.00,0.0147
3141.00,0.0146
3140.00,0.0146
3139.00,0.0145
3138.00,0.0145
3137.00,0.0144
3136.00,0.0144
3135.00,0.0143
3134.00,0.0143
3133.00,0.0142
3132.00,0.0142
3131.00,0.0141
3130.00,0.0141
3129.00,0.0141
3128.00,0.0140
3127.00,0.0140
3126.00,0.0140
3125.00,0.0139
3124.00,0.0139
3123.00,0.0139
3122.00,0.0139
3121.00,0.0138
3120.00,0.0138
3119.00,0.0138
3118.00,0.0137
3117.00,0.0137
3116.00,0.0137
3115.00,0.0137
3114.00,0.0137
3113.00,0.0137
3112.00,0.0136
3111.00,0.0136
3110.00,0.0136
3109.00,0.0136
3108.00,0.0136
3107.00,0.0136
3106.00,0.0136
3105.00,0.0136
3104.00,0.0136
3103.00,0.0136
3102.00,0.0135
3101.00,0.0135
3100.00,0.0135
3099.00,0.0135
3098.00,0.0135
3097.00,0.0135
3096.00,0.0135
3095.00,0.0135
3094.00,0.0135
3093.00,0.0135
3092.00,0.0135
3091.00,0.0135
3090.00,0.0135
3089.00,0.0135
3088.00,0.0135
3087.00,0.0135
3086.00,0.0135
3085.00,0.0135
3084.00,0.0135
3083.00,0.0135
3082.00,0.0135
3081.00,0.0135
3080.00,0.0135
3079.00,0.0135
3078.00,0.0135
3077.00,0.0135
3076.00,0.0135
3075.00,0.0135
3074.00,0.0135
3073.00,0.0135
3072.00,0.0135
3071.00,0.0135
3070.00,0.0135
3069.00,0.0135
3068.00,0.0135
3067.00,0.0135
3066.00,0.0135
3065.00,0.0135
3064.00,0.0134
3063.00,0.0134
3062.00,0.0134
3061.00,0.0134
3060.00,0.0134
3059.00,0.0134
3058.00,0.0133
3057.00,0.0133
3056.00,0.0133
3055.00,0.0132
3054.00,0.0132
3053.00,0.0132
3052.00,0.0131
3051.00,0.0131
3050.00,0.0131
3049.00,0.0131
3048.00,0.0131
3047.00,0.0130
3046.00,0.0130
3045.00,0.0129
3044.00,0.0129
3043.00,0.0128
3042.00,0.0128
3041.00,0.0128
3040.00,0.0128
3039.00,0.0128
3038.00,0.0127
3037.00,0.0127
3036.00,0.0126
3035.00,0.0126
3034.00,0.0125
3033.00,0.0125
3032.00,0.0125
3031.00,0.0125
3030.00,0.0125
3029.00,0.0125
3028.00,0.0124
3027.00,0.0124
3026.00,0.0124
3025.00,0.0123
3024.00,0.0123
3023.00,0.0122
3022.00,0.0122
3021.00,0.0121
3020.00,0.0121
3019.00,0.0120
3018.00,0.0120
3017.00,0.0120
3016.00,0.0119
3015.00,0.0119
3014.00,0.0118
3013.00,0.0118
3012.00,0.0118
3011.00,0.0118
3010.00,0.0118
3009.00,0.0118
3008.00,0.0118
3007.00,0.0118
3006.00,0.0118
3005.00,0.0117
3004.00,0.0117
3003.00,0.0117
3002.00,0.0117
3001.00,0.0117
3000.00,0.0117
2999.00,0.0117
2998.00,0.0117
2997.00,0.0117
2996.00,0.0117
2995.00,0.0117
2994.00,0.0117
2993.00,0.0117
2992.00,0.0117
2991.00,0.0117
2990.00,0.0118
2989.00,0.0118
2988.00,0.0118
2987.00,0.0118
2986.00,0.0119
2985.00,0.0119
2984.00,0.0119
2983.00,0.0119
2982.00,0.0120
2981.00,0.0120
2980.00,0.0120
2979.00,0.0121
2978.00,0.0121
2977.00,0.0121
2976.00,0.0122
2975.00,0.0122
2974.00,0.0122
2973.00,0.0123
2972.00,0.0123
2971.00,0.0123
2970.00,0.0123
2969.00,0.0124
2968.00,0.0124
2967.00,0.0123
2966.00,0.0123
2965.00,0.0123
2964.00,0.0123
2963.00,0.0123
2962.00,0.0122
2961.00,0.0122
2960.00,0.0122
2959.00,0.0121
2958.00,0.0121
2957.00,0.0121
2956.00,0.0121
2955.00,0.0121
2954.00,0.0121
2953.00,0.0121
2952.00,0.0121
2951.00,0.0121
2950.00,0.0121
2949.00,0.0121
2948.00,0.0121
2947.00,0.0122
2946.00,0.0122
2945.00,0.0122
2944.00,0.0122
2943.00,0.0122
2942.00,0.0122
2941.00,0.0123
2940.00,0.0123
2939.00,0.0123
2938.00,0.0122
2937.00,0.0122
2936.00,0.0122
2935.00,0.0121
2934.00,0.0121
2933.00,0.0120
2932.00,0.0119
2931.00,0.0118
2930.00,0.0117
2929.00,0.0116
2928.00,0.0114
2927.00,0.0112
2926.00,0.0110
2925.00,0.0108
2924.00,0.0105
2923.00,0.0102
2922.00,0.0099
2921.00,0.0095
2920.00,0.0092
2919.00,0.0088
2918.00,0.0086
2917.00,0.0084
2916.00,0.0084
2915.00,0.0085
2914.00,0.0089
2913.00,0.0093
2912.00,0.0097
2911.00,0.0101
2910.00,0.0104
2909.00,0.0106
2908.00,0.0107
2907.00,0.0108
2906.00,0.0109
2905.00,0.0109
2904.00,0.0109
2903.00,0.0110
2902.00,0.0110
2901.00,0.0110
2900.00,0.0110
2899.00,0.0110
2898.00,0.0111
2897.00,0.0111
2896.00,0.0111
2895.00,0.0111
2894.00,0.0111
2893.00,0.0112
2892.00,0.0112
2891.00,0.0112
2890.00,0.0112
2889.00,0.0112
2888.00,0.0113
2887.00,0.0113
2886.00,0.0113
2885.00,0.0113
2884.00,0.0114
2883.00,0.0114
2882.00,0.0115
2881.00,0.0115
2880.00,0.0115
2879.00,0.0116
2878.00,0.0116
2877.00,0.0116
2876.00,0.0116
2875.00,0.0116
2874.00,0.0116
2873.00,0.0116
2872.00,0.0116
2871.00,0.0116
2870.00,0.0115
2869.00,0.0115
2868.00,0.0115
2867.00,0.0114
2866.00,0.0113
2865.00,0.0113
2864.00,0.0112
2863.00,0.0111
2862.00,0.0110
2861.00,0.0110
2860.00,0.0109
2859.00,0.0108
2858.00,0.0106
2857.00,0.0105
2856.00,0.0103
2855.00,0.0101
2854.00,0.0098
2853.00,0.0095
2852.00,0.0091
2851.00,0.0088
2850.00,0.0085
2849.00,0.0084
2848.00,0.0085
2847.00,0.0088
2846.00,0.0092
2845.00,0.0096
2844.00,0.0099
2843.00,0.0101
2842.00,0.0102
2841.00,0.0103
2840.00,0.0104
2839.00,0.0104
2838.00,0.0104
2837.00,0.0105
2836.00,0.0105
2835.00,0.0105
2834.00,0.0105
2833.00,0.0105
2832.00,0.0105
2831.00,0.0105
2830.00,0.0105
2829.00,0.0104
2828.00,0.0104
2827.00,0.0104
2826.00,0.0104
2825.00,0.0104
2824.00,0.0104
2823.00,0.0104
2822.00,0.0103
2821.00,0.0103
2820.00,0.0103
2819.00,0.0103
2818.00,0.0103
2817.00,0.0103
2816.00,0.0103
2815.00,0.0103
2814.00,0.0103
2813.00,0.0103
2812.00,0.0103
2811.00,0.0102
2810.00,0.0102
2809.00,0.0102
2808.00,0.0102
2807.00,0.0102
2806.00,0.0102
2805.00,0.0102
2804.00,0.0102
2803.00,0.0102
2802.00,0.0102
2801.00,0.0102
2800.00,0.0101
2799.00,0.0101
2798.00,0.0101
2797.00,0.0101
2796.00,0.0101
2795.00,0.0101
2794.00,0.0101
2793.00,0.0101
2792.00,0.0101
2791.00,0.0101
2790.00,0.0101
2789.00,0.0100
2788.00,0.0100
2787.00,0.0100
2786.00,0.0100
2785.00,0.0100
2784.00,0.0100
2783.00,0.0100
2782.00,0.0100
2781.00,0.0100
2780.00,0.0100
2779.00,0.0099
2778.00,0.0099
2777.00,0.0099
2776.00,0.0099
2775.00,0.0099
2774.00,0.0099
2773.00,0.0099
2772.00,0.0099
2771.00,0.0099
2770.00,0.0099
2769.00,0.0099
2768.00,0.0099
2767.00,0.0098
2766.00,0.0098
2765.00,0.0098
2764.00,0.0098
2763.00,0.0098
2762.00,0.0098
2761.00,0.0098
2760.00,0.0098
2759.00,0.0098
2758.00,0.0098
2757.00,0.0098
2756.00,0.0097
2755.00,0.0097
2754.00,0.0097
2753.00,0.0097
2752.00,0.0097
2751.00,0.0097
2750.00,0.0097
2749.00,0.0097
2748.00,0.0096
2747.00,0.0096
2746.00,0.0096
2745.00,0.0096
2744.00,0.0096
2743.00,0.0096
2742.00,0.0096
2741.00,0.0096
2740.00,0.0096
2739.00,0.0096
2738.00,0.0096
2737.00,0.0096
2736.00,0.0096
2735.00,0.0095
2734.00,0.0095
2733.00,0.0095
2732.00,0.0095
2731.00,0.0095
2730.00,0.0095
2729.00,0.0095
2728.00,0.0095
2727.00,0.0095
2726.00,0.0094
2725.00,0.0094
2724.00,0.0094
2723.00,0.0094
2722.00,0.0094
2721.00,0.0094
2720.00,0.0094
2719.00,0.0094
2718.00,0.0094
2717.00,0.0094
2716.00,0.0094
2715.00,0.0093
2714.00,0.0093
2713.00,0.0093
2712.00,0.0093
2711.00,0.0093
2710.00,0.0093
2709.00,0.0093
2708.00,0.0093
2707.00,0.0093
2706.00,0.0092
2705.00,0.0092
2704.00,0.0092
2703.00,0.0092
2702.00,0.0092
2701.00,0.0092
2700.00,0.0092
2699.00,0.0092
2698.00,0.0092
2697.00,0.0092
2696.00,0.0091
2695.00,0.0091
2694.00,0.0091
2693.00,0.0091
2692.00,0.0091
2691.00,0.0091
2690.00,0.0091
2689.00,0.0091
2688.00,0.0091
2687.00,0.0091
2686.00,0.0091
2685.00,0.0091
2684.00,0.0091
2683.00,0.0091
2682.00,0.0091
2681.00,0.0091
2680.00,0.0090
2679.00,0.0090
2678.00,0.0090
2677.00,0.0090
2676.00,0.0090
2675.00,0.0090
2674.00,0.0090
2673.00,0.0090
2672.00,0.0090
2671.00,0.0090
2670.00,0.0090
2669.00,0.0090
2668.00,0.0090
2667.00,0.0090
2666.00,0.0091
2665.00,0.0091
2664.00,0.0091
2663.00,0.0092
2662.00,0.0092
2661.00,0.0092
2660.00,0.0092
2659.00,0.0092
2658.00,0.0092
2657.00,0.0093
2656.00,0.0093
2655.00,0.0093
2654.00,0.0093
2653.00,0.0092
2652.00,0.0092
2651.00,0.0092
2650.00,0.0092
2649.00,0.0092
2648.00,0.0092
2647.00,0.0092
2646.00,0.0092
2645.00,0.0092
2644.00,0.0092
2643.00,0.0092
2642.00,0.0092
2641.00,0.0092
2640.00,0.0091
2639.00,0.0091
2638.00,0.0091
2637.00,0.0091
2636.00,0.0091
2635.00,0.0091
2634.00,0.0091
2633.00,0.0091
2632.00,0.0091
2631.00,0.0090
2630.00,0.0090
2629.00,0.0090
2628.00,0.0090
2627.00,0.0090
2626.00,0.0090
2625.00,0.0089
2624.00,0.0089
2623.00,0.0089
2622.00,0.0089
2621.00,0.0089
2620.00,0.0089
2619.00,0.0089
2618.00,0.0089
2617.00,0.0089
2616.00,0.0088
2615.00,0.0088
2614.00,0.0088
2613.00,0.0088
2612.00,0.0088
2611.00,0.0088
2610.00,0.0087
2609.00,0.0087
2608.00,0.0087
2607.00,0.0087
2606.00,0.0087
2605.00,0.0087
2604.00,0.0087
2603.00,0.0087
2602.00,0.0087
2601.00,0.0087
2600.00,0.0087
2599.00,0.0087
2598.00,0.0087
2597.00,0.0086
2596.00,0.0086
2595.00,0.0086
2594.00,0.0086
2593.00,0.0086
2592.00,0.0085
2591.00,0.0085
2590.00,0.0085
2589.00,0.0085
2588.00,0.0085
2587.00,0.0085
2586.00,0.0085
2585.00,0.0085
2584.00,0.0085
2583.00,0.0084
2582.00,0.0084
2581.00,0.0084
2580.00,0.0084
2579.00,0.0084
2578.00,0.0084
2577.00,0.0084
2576.00,0.0084
2575.00,0.0084
2574.00,0.0084
2573.00,0.0084
2572.00,0.0083
2571.00,0.0083
2570.00,0.0083
2569.00,0.0083
2568.00,0.0083
2567.00,0.0083
2566.00,0.0083
2565.00,0.0082
2564.00,0.0082
2563.00,0.0082
2562.00,0.0082
2561.00,0.0082
2560.00,0.0082
2559.00,0.0082
2558.00,0.0082
2557.00,0.0082
2556.00,0.0082
2555.00,0.0082
2554.00,0.0082
2553.00,0.0081
2552.00,0.0081
2551.00,0.0081
2550.00,0.0081
2549.00,0.0081
2548.00,0.0081
2547.00,0.0081
2546.00,0.0081
2545.00,0.0081
2544.00,0.0081
2543.00,0.0081
2542.00,0.0081
2541.00,0.0081
2540.00,0.0081
2539.00,0.0081
2538.00,0.0080
2537.00,0.0080
2536.00,0.0080
2535.00,0.0080
2534.00,0.0080
2533.00,0.0080
2532.00,0.0080
2531.00,0.0079
2530.00,0.0079
2529.00,0.0079
2528.00,0.0079
2527.00,0.0079
2526.00,0.0080
2525.00,0.0080
2524.00,0.0080
2523.00,0.0080
2522.00,0.0080
2521.00,0.0079
2520.00,0.0079
2519.00,0.0079
2518.00,0.0079
2517.00,0.0079
2516.00,0.0079
2515.00,0.0079
2514.00,0.0079
2513.00,0.0079
2512.00,0.0079
2511.00,0.0079
2510.00,0.0079
2509.00,0.0078
2508.00,0.0078
2507.00,0.0078
2506.00,0.0078
2505.00,0.0078
2504.00,0.0078
2503.00,0.0078
2502.00,0.0078
2501.00,0.0078
2500.00,0.0078
2499.00,0.0078
2498.00,0.0078
2497.00,0.0078
2496.00,0.0078
2495.00,0.0078
2494.00,0.0078
2493.00,0.0078
2492.00,0.0078
2491.00,0.0078
2490.00,0.0078
2489.00,0.0078
2488.00,0.0078
2487.00,0.0078
2486.00,0.0078
2485.00,0.0078
2484.00,0.0077
2483.00,0.0077
2482.00,0.0077
2481.00,0.0077
2480.00,0.0077
2479.00,0.0077
2478.00,0.0077
2477.00,0.0077
2476.00,0.0077
2475.00,0.0077
2474.00,0.0077
2473.00,0.0077
2472.00,0.0077
2471.00,0.0077
2470.00,0.0077
2469.00,0.0077
2468.00,0.0077
2467.00,0.0077
2466.00,0.0077
2465.00,0.0077
2464.00,0.0077
2463.00,0.0077
2462.00,0.0077
2461.00,0.0077
2460.00,0.0077
2459.00,0.0077
2458.00,0.0077
2457.00,0.0077
2456.00,0.0078
2455.00,0.0078
2454.00,0.0078
2453.00,0.0078
2452.00,0.0078
2451.00,0.0077
2450.00,0.0077
2449.00,0.0077
2448.00,0.0077
2447.00,0.0077
2446.00,0.0077
2445.00,0.0077
2444.00,0.0076
2443.00,0.0076
2442.00,0.0076
2441.00,0.0076
2440.00,0.0076
2439.00,0.0076
2438.00,0.0075
2437.00,0.0075
2436.00,0.0075
2435.00,0.0075
2434.00,0.0075
2433.00,0.0075
2432.00,0.0075
2431.00,0.0075
2430.00,0.0075
2429.00,0.0075
2428.00,0.0074
2427.00,0.0074
2426.00,0.0074
2425.00,0.0074
2424.00,0.0074
2423.00,0.0074
2422.00,0.0074
2421.00,0.0073
2420.00,0.0073
2419.00,0.0073
2418.00,0.0073
2417.00,0.0073
2416.00,0.0073
2415.00,0.0073
2414.00,0.0073
2413.00,0.0074
2412.00,0.0074
2411.00,0.0074
2410.00,0.0073
2409.00,0.0073
2408.00,0.0073
2407.00,0.0072
2406.00,0.0072
2405.00,0.0071
2404.00,0.0071
2403.00,0.0071
2402.00,0.0072
2401.00,0.0072
2400.00,0.0072
2399.00,0.0071
2398.00,0.0071
2397.00,0.0071
2396.00,0.0071
2395.00,0.0071
2394.00,0.0071
2393.00,0.0071
2392.00,0.0071
2391.00,0.0071
2390.00,0.0071
2389.00,0.0071
2388.00,0.0071
2387.00,0.0070
2386.00,0.0070
2385.00,0.0069
2384.00,0.0069
2383.00,0.0068
2382.00,0.0068
2381.00,0.0067
2380.00,0.0067
2379.00,0.0067
2378.00,0.0067
2377.00,0.0067
2376.00,0.0067
2375.00,0.0068
2374.00,0.0068
2373.00,0.0068
2372.00,0.0068
2371.00,0.0068
2370.00,0.0067
2369.00,0.0067
2368.00,0.0066
2367.00,0.0066
2366.00,0.0066
2365.00,0.0066
2364.00,0.0067
2363.00,0.0067
2362.00,0.0067
2361.00,0.0067
2360.00,0.0067
2359.00,0.0067
2358.00,0.0068
2357.00,0.0068
2356.00,0.0068
2355.00,0.0068
2354.00,0.0068
2353.00,0.0067
2352.00,0.0067
2351.00,0.0067
2350.00,0.0068
2349.00,0.0068
2348.00,0.0069
2347.00,0.0069
2346.00,0.0069
2345.00,0.0069
2344.00,0.0069
2343.00,0.0070
2342.00,0.0070
2341.00,0.0070
2340.00,0.0071
2339.00,0.0071
2338.00,0.0071
2337.00,0.0071
2336.00,0.0071
2335.00,0.0071
2334.00,0.0070
2333.00,0.0070
2332.00,0.0070
2331.00,0.0070
2330.00,0.0070
2329.00,0.0072
2328.00,0.0075
2327.00,0.0078
2326.00,0.0081
2325.00,0.0082
2324.00,0.0081
2323.00,0.0080
2322.00,0.0078
2321.00,0.0077
2320.00,0.0076
2319.00,0.0076
2318.00,0.0075
2317.00,0.0075
2316.00,0.0075
2315.00,0.0074
2314.00,0.0074
2313.00,0.0073
2312.00,0.0073
2311.00,0.0073
2310.00,0.0072
2309.00,0.0072
2308.00,0.0072
2307.00,0.0073
2306.00,0.0073
2305.00,0.0073
2304.00,0.0073
2303.00,0.0073
2302.00,0.0074
2301.00,0.0074
2300.00,0.0074
2299.00,0.0074
2298.00,0.0075
2297.00,0.0075
2296.00,0.0076
2295.00,0.0077
2294.00,0.0077
2293.00,0.0078
2292.00,0.0079
2291.00,0.0079
2290.00,0.0080
2289.00,0.0080
2288.00,0.0080
2287.00,0.0080
2286.00,0.0080
2285.00,0.0080
2284.00,0.0079
2283.00,0.0078
2282.00,0.0078
2281.00,0.0077
2280.00,0.0077
2279.00,0.0076
2278.00,0.0076
2277.00,0.0076
2276.00,0.0076
2275.00,0.0075
2274.00,0.0075
2273.00,0.0075
2272.00,0.0075
2271.00,0.0075
2270.00,0.0075
2269.00,0.0075
2268.00,0.0074
2267.00,0.0074
2266.00,0.0074
2265.00,0.0073
2264.00,0.0073
2263.00,0.0073
2262.00,0.0074
2261.00,0.0074
2260.00,0.0074
2259.00,0.0074
2258.00,0.0073
2257.00,0.0073
2256.00,0.0072
2255.00,0.0071
2254.00,0.0071
2253.00,0.0071
2252.00,0.0071
2251.00,0.0071
2250.00,0.0071
2249.00,0.0071
2248.00,0.0071
2247.00,0.0072
2246.00,0.0072
2245.00,0.0072
2244.00,0.0072
2243.00,0.0071
2242.00,0.0071
2241.00,0.0071
2240.00,0.0071
2239.00,0.0071
2238.00,0.0071
2237.00,0.0071
2236.00,0.0071
2235.00,0.0071
2234.00,0.0071
2233.00,0.0071
2232.00,0.0071
2231.00,0.0071
2230.00,0.0071
2229.00,0.0071
2228.00,0.0070
2227.00,0.0070
2226.00,0.0070
2225.00,0.0069
2224.00,0.0070
2223.00,0.0070
2222.00,0.0070
2221.00,0.0070
2220.00,0.0070
2219.00,0.0070
2218.00,0.0070
2217.00,0.0070
2216.00,0.0070
2215.00,0.0070
2214.00,0.0070
2213.00,0.0070
2212.00,0.0069
2211.00,0.0069
2210.00,0.0069
2209.00,0.0069
2208.00,0.0069
2207.00,0.0069
2206.00,0.0069
2205.00,0.0070
2204.00,0.0070
2203.00,0.0070
2202.00,0.0069
2201.00,0.0069
2200.00,0.0069
2199.00,0.0069
2198.00,0.0070
2197.00,0.0070
2196.00,0.0071
2195.00,0.0071
2194.00,0.0072
2193.00,0.0071
2192.00,0.0071
2191.00,0.0070
2190.00,0.0070
2189.00,0.0071
2188.00,0.0071
2187.00,0.0072
2186.00,0.0071
2185.00,0.0070
2184.00,0.0068
2183.00,0.0066
2182.00,0.0065
2181.00,0.0065
2180.00,0.0066
2179.00,0.0066
2178.00,0.0066
2177.00,0.0064
2176.00,0.0064
2175.00,0.0064
2174.00,0.0065
2173.00,0.0067
2172.00,0.0068
2171.00,0.0070
2170.00,0.0071
2169.00,0.0073
2168.00,0.0075
2167.00,0.0076
2166.00,0.0078
2165.00,0.0079
2164.00,0.0080
2163.00,0.0079
2162.00,0.0074
2161.00,0.0064
2160.00,0.0051
2159.00,0.0040
2158.00,0.0036
2157.00,0.0036
2156.00,0.0039
2155.00,0.0043
2154.00,0.0045
2153.00,0.0047
2152.00,0.0049
2151.00,0.0050
2150.00,0.0050
2149.00,0.0051
2148.00,0.0051
2147.00,0.0051
2146.00,0.0051
2145.00,0.0052
2144.00,0.0052
2143.00,0.0052
2142.00,0.0052
2141.00,0.0053
2140.00,0.0053
2139.00,0.0053
2138.00,0.0052
2137.00,0.0050
2136.00,0.0048
2135.00,0.0046
2134.00,0.0046
2133.00,0.0046
2132.00,0.0048
2131.00,0.0050
2130.00,0.0051
2129.00,0.0053
2128.00,0.0054
2127.00,0.0055
2126.00,0.0056
2125.00,0.0057
2124.00,0.0058
2123.00,0.0059
2122.00,0.0059
2121.00,0.0060
2120.00,0.0061
2119.00,0.0061
2118.00,0.0062
2117.00,0.0063
2116.00,0.0063
2115.00,0.0063
2114.00,0.0063
2113.00,0.0063
2112.00,0.0063
2111.00,0.0063
2110.00,0.0063
2109.00,0.0063
2108.00,0.0063
2107.00,0.0064
2106.00,0.0064
2105.00,0.0064
2104.00,0.0064
2103.00,0.0065
2102.00,0.0065
2101.00,0.0064
2100.00,0.0064
2099.00,0.0063
2098.00,0.0062
2097.00,0.0061
2096.00,0.0059
2095.00,0.0059
2094.00,0.0059
2093.00,0.0060
2092.00,0.0061
2091.00,0.0061
2090.00,0.0061
2089.00,0.0062
2088.00,0.0062
2087.00,0.0063
2086.00,0.0063
2085.00,0.0064
2084.00,0.0064
2083.00,0.0064
2082.00,0.0064
2081.00,0.0064
2080.00,0.0064
2079.00,0.0064
2078.00,0.0064
2077.00,0.0063
2076.00,0.0063
2075.00,0.0062
2074.00,0.0062
2073.00,0.0063
2072.00,0.0063
2071.00,0.0063
2070.00,0.0063
2069.00,0.0063
2068.00,0.0062
2067.00,0.0062
2066.00,0.0062
2065.00,0.0061
2064.00,0.0061
2063.00,0.0061
2062.00,0.0061
2061.00,0.0061
2060.00,0.0061
2059.00,0.0061
2058.00,0.0062
2057.00,0.0062
2056.00,0.0062
2055.00,0.0062
2054.00,0.0064
2053.00,0.0067
2052.00,0.0070
2051.00,0.0072
2050.00,0.0070
2049.00,0.0068
2048.00,0.0065
2047.00,0.0063
2046.00,0.0062
2045.00,0.0061
2044.00,0.0061
2043.00,0.0062
2042.00,0.0063
2041.00,0.0064
2040.00,0.0064
2039.00,0.0064
2038.00,0.0063
2037.00,0.0062
2036.00,0.0061
2035.00,0.0059
2034.00,0.0058
2033.00,0.0057
2032.00,0.0056
2031.00,0.0055
2030.00,0.0055
2029.00,0.0054
2028.00,0.0053
2027.00,0.0052
2026.00,0.0051
2025.00,0.0051
2024.00,0.0052
2023.00,0.0053
2022.00,0.0054
2021.00,0.0054
2020.00,0.0053
2019.00,0.0053
2018.00,0.0053
2017.00,0.0053
2016.00,0.0053
2015.00,0.0054
2014.00,0.0055
2013.00,0.0055
2012.00,0.0056
2011.00,0.0056
2010.00,0.0056
2009.00,0.0054
2008.00,0.0051
2007.00,0.0048
2006.00,0.0046
2005.00,0.0046
2004.00,0.0047
2003.00,0.0049
2002.00,0.0050
2001.00,0.0052
2000.00,0.0053
1999.00,0.0054
1998.00,0.0054
1997.00,0.0054
1996.00,0.0054
1995.00,0.0055
1994.00,0.0055
1993.00,0.0055
1992.00,0.0055
1991.00,0.0056
1990.00,0.0056
1989.00,0.0057
1988.00,0.0058
1987.00,0.0059
1986.00,0.0061
1985.00,0.0062
1984.00,0.0063
1983.00,0.0064
1982.00,0.0065
1981.00,0.0066
1980.00,0.0064
1979.00,0.0060
1978.00,0.0055
1977.00,0.0050
1976.00,0.0048
1975.00,0.0046
1974.00,0.0046
1973.00,0.0046
1972.00,0.0046
1971.00,0.0047
1970.00,0.0047
1969.00,0.0047
1968.00,0.0047
1967.00,0.0047
1966.00,0.0047
1965.00,0.0047
1964.00,0.0047
1963.00,0.0046
1962.00,0.0046
1961.00,0.0045
1960.00,0.0044
1959.00,0.0043
1958.00,0.0043
1957.00,0.0043
1956.00,0.0044
1955.00,0.0045
1954.00,0.0046
1953.00,0.0046
1952.00,0.0046
1951.00,0.0046
1950.00,0.0046
1949.00,0.0046
1948.00,0.0046
1947.00,0.0046
1946.00,0.0046
1945.00,0.0046
1944.00,0.0046
1943.00,0.0046
1942.00,0.0046
1941.00,0.0045
1940.00,0.0046
1939.00,0.0046
1938.00,0.0046
1937.00,0.0046
1936.00,0.0046
1935.00,0.0046
1934.00,0.0046
1933.00,0.0045
1932.00,0.0046
1931.00,0.0046
1930.00,0.0046
1929.00,0.0046
1928.00,0.0046
1927.00,0.0046
1926.00,0.0046
1925.00,0.0046
1924.00,0.0046
1923.00,0.0047
1922.00,0.0047
1921.00,0.0048
1920.00,0.0047
1919.00,0.0047
1918.00,0.0047
1917.00,0.0047
1916.00,0.0047
1915.00,0.0047
1914.00,0.0047
1913.00,0.0047
1912.00,0.0047
1911.00,0.0047
1910.00,0.0047
1909.00,0.0047
1908.00,0.0047
1907.00,0.0047
1906.00,0.0047
1905.00,0.0047
1904.00,0.0047
1903.00,0.0047
1902.00,0.0047
1901.00,0.0047
1900.00,0.0047
1899.00,0.0046
1898.00,0.0046
1897.00,0.0046
1896.00,0.0046
1895.00,0.0046
1894.00,0.0046
1893.00,0.0046
1892.00,0.0046
1891.00,0.0046
1890.00,0.0046
1889.00,0.0046
1888.00,0.0046
1887.00,0.0046
1886.00,0.0046
1885.00,0.0046
1884.00,0.0046
1883.00,0.0046
1882.00,0.0046
1881.00,0.0046
1880.00,0.0046
1879.00,0.0046
1878.00,0.0046
1877.00,0.0046
1876.00,0.0046
1875.00,0.0046
1874.00,0.0046
1873.00,0.0046
1872.00,0.0046
1871.00,0.0045
1870.00,0.0045
1869.00,0.0045
1868.00,0.0045
1867.00,0.0045
1866.00,0.0045
1865.00,0.0045
1864.00,0.0045
1863.00,0.0045
1862.00,0.0045
1861.00,0.0045
1860.00,0.0045
1859.00,0.0045
1858.00,0.0045
1857.00,0.0045
1856.00,0.0045
1855.00,0.0045
1854.00,0.0045
1853.00,0.0045
1852.00,0.0044
1851.00,0.0044
1850.00,0.0044
1849.00,0.0044
1848.00,0.0044
1847.00,0.0044
1846.00,0.0044
1845.00,0.0044
1844.00,0.0044
1843.00,0.0044
1842.00,0.0044
1841.00,0.0044
1840.00,0.0044
1839.00,0.0043
1838.00,0.0043
1837.00,0.0043
1836.00,0.0043
1835.00,0.0043
1834.00,0.0043
1833.00,0.0043
1832.00,0.0043
1831.00,0.0043
1830.00,0.0043
1829.00,0.0043
1828.00,0.0043
1827.00,0.0043
1826.00,0.0043
1825.00,0.0043
1824.00,0.0043
1823.00,0.0043
1822.00,0.0043
1821.00,0.0043
1820.00,0.0042
1819.00,0.0041
1818.00,0.0041
1817.00,0.0040
1816.00,0.0040
1815.00,0.0040
1814.00,0.0041
1813.00,0.0041
1812.00,0.0041
1811.00,0.0042
1810.00,0.0042
1809.00,0.0042
1808.00,0.0042
1807.00,0.0042
1806.00,0.0042
1805.00,0.0042
1804.00,0.0042
1803.00,0.0042
1802.00,0.0042
1801.00,0.0042
1800.00,0.0042
1799.00,0.0042
1798.00,0.0042
1797.00,0.0042
1796.00,0.0042
1795.00,0.0042
1794.00,0.0042
1793.00,0.0042
1792.00,0.0042
1791.00,0.0042
1790.00,0.0042
1789.00,0.0042
1788.00,0.0042
1787.00,0.0042
1786.00,0.0041
1785.00,0.0041
1784.00,0.0042
1783.00,0.0042
1782.00,0.0042
1781.00,0.0041
1780.00,0.0041
1779.00,0.0041
1778.00,0.0041
1777.00,0.0041
1776.00,0.0041
1775.00,0.0041
1774.00,0.0041
1773.00,0.0041
1772.00,0.0041
1771.00,0.0041
1770.00,0.0040
1769.00,0.0040
1768.00,0.0041
1767.00,0.0041
1766.00,0.0041
1765.00,0.0041
1764.00,0.0040
1763.00,0.0040
1762.00,0.0040
1761.00,0.0040
1760.00,0.0040
1759.00,0.0040
1758.00,0.0040
1757.00,0.0040
1756.00,0.0040
1755.00,0.0040
1754.00,0.0040
1753.00,0.0040
1752.00,0.0041
1751.00,0.0041
1750.00,0.0041
1749.00,0.0040
1748.00,0.0041
1747.00,0.0041
1746.00,0.0041
1745.00,0.0041
1744.00,0.0041
1743.00,0.0041
1742.00,0.0041
1741.00,0.0041
1740.00,0.0041
1739.00,0.0041
1738.00,0.0041
1737.00,0.0041
1736.00,0.0042
1735.00,0.0043
1734.00,0.0043
1733.00,0.0043
1732.00,0.0042
1731.00,0.0042
1730.00,0.0042
1729.00,0.0042
1728.00,0.0043
1727.00,0.0043
1726.00,0.0043
1725.00,0.0043
1724.00,0.0044
1723.00,0.0044
1722.00,0.0044
1721.00,0.0044
1720.00,0.0045
1719.00,0.0046
1718.00,0.0046
1717.00,0.0047
1716.00,0.0048
1715.00,0.0049
1714.00,0.0049
1713.00,0.0050
1712.00,0.0052
1711.00,0.0053
1710.00,0.0055
1709.00,0.0057
1708.00,0.0060
1707.00,0.0063
1706.00,0.0067
1705.00,0.0072
1704.00,0.0076
1703.00,0.0081
1702.00,0.0088
1701.00,0.0098
1700.00,0.0112
1699.00,0.0124
1698.00,0.0132
1697.00,0.0139
1696.00,0.0147
1695.00,0.0154
1694.00,0.0159
1693.00,0.0162
1692.00,0.0165
1691.00,0.0168
1690.00,0.0172
1689.00,0.0176
1688.00,0.0181
1687.00,0.0185
1686.00,0.0189
1685.00,0.0196
1684.00,0.0204
1683.00,0.0211
1682.00,0.0217
1681.00,0.0222
1680.00,0.0228
1679.00,0.0234
1678.00,0.0239
1677.00,0.0245
1676.00,0.0252
1675.00,0.0260
1674.00,0.0268
1673.00,0.0274
1672.00,0.0280
1671.00,0.0286
1670.00,0.0294
1669.00,0.0302
1668.00,0.0310
1667.00,0.0317
1666.00,0.0322
1665.00,0.0328
1664.00,0.0335
1663.00,0.0342
1662.00,0.0350
1661.00,0.0356
1660.00,0.0362
1659.00,0.0368
1658.00,0.0373
1657.00,0.0377
1656.00,0.0381
1655.00,0.0385
1654.00,0.0390
1653.00,0.0396
1652.00,0.0402
1651.00,0.0404
1650.00,0.0405
1649.00,0.0406
1648.00,0.0408
1647.00,0.0411
1646.00,0.0413
1645.00,0.0415
1644.00,0.0417
1643.00,0.0418
1642.00,0.0419
1641.00,0.0421
1640.00,0.0422
1639.00,0.0423
1638.00,0.0424
1637.00,0.0425
1636.00,0.0426
1635.00,0.0428
1634.00,0.0430
1633.00,0.0432
1632.00,0.0433
1631.00,0.0434
1630.00,0.0435
1629.00,0.0437
1628.00,0.0439
1627.00,0.0441
1626.00,0.0443
1625.00,0.0444
1624.00,0.0445
1623.00,0.0447
1622.00,0.0448
1621.00,0.0448
1620.00,0.0448
1619.00,0.0447
1618.00,0.0445
1617.00,0.0441
1616.00,0.0436
1615.00,0.0431
1614.00,0.0426
1613.00,0.0420
1612.00,0.0414
1611.00,0.0407
1610.00,0.0399
1609.00,0.0391
1608.00,0.0383
1607.00,0.0376
1606.00,0.0369
1605.00,0.0361
1604.00,0.0354
1603.00,0.0346
1602.00,0.0339
1601.00,0.0332
1600.00,0.0325
1599.00,0.0318
1598.00,0.0312
1597.00,0.0305
1596.00,0.0299
1595.00,0.0293
1594.00,0.0287
1593.00,0.0281
1592.00,0.0275
1591.00,0.0270
1590.00,0.0264
1589.00,0.0259
1588.00,0.0254
1587.00,0.0249
1586.00,0.0245
1585.00,0.0241
1584.00,0.0237
1583.00,0.0233
1582.00,0.0230
1581.00,0.0228
1580.00,0.0226
1579.00,0.0224
1578.00,0.0223
1577.00,0.0223
1576.00,0.0222
1575.00,0.0222
1574.00,0.0222
1573.00,0.0222
1572.00,0.0223
1571.00,0.0224
1570.00,0.0227
1569.00,0.0230
1568.00,0.0233
1567.00,0.0235
1566.00,0.0239
1565.00,0.0242
1564.00,0.0246
1563.00,0.0250
1562.00,0.0253
1561.00,0.0256
1560.00,0.0261
1559.00,0.0269
1558.00,0.0278
1557.00,0.0284
1556.00,0.0288
1555.00,0.0292
1554.00,0.0298
1553.00,0.0303
1552.00,0.0308
1551.00,0.0313
1550.00,0.0318
1549.00,0.0324
1548.00,0.0328
1547.00,0.0332
1546.00,0.0336
1545.00,0.0340
1544.00,0.0344
1543.00,0.0348
1542.00,0.0352
1541.00,0.0357
1540.00,0.0363
1539.00,0.0368
1538.00,0.0372
1537.00,0.0374
1536.00,0.0376
1535.00,0.0378
1534.00,0.0382
1533.00,0.0387
1532.00,0.0391
1531.00,0.0395
1530.00,0.0398
1529.00,0.0401
1528.00,0.0405
1527.00,0.0408
1526.00,0.0412
1525.00,0.0416
1524.00,0.0419
1523.00,0.0422
1522.00,0.0426
1521.00,0.0431
1520.00,0.0434
1519.00,0.0437
1518.00,0.0438
1517.00,0.0440
1516.00,0.0440
1515.00,0.0440
1514.00,0.0439
1513.00,0.0436
1512.00,0.0433
1511.00,0.0429
1510.00,0.0426
1509.00,0.0422
1508.00,0.0417
1507.00,0.0409
1506.00,0.0401
1505.00,0.0394
1504.00,0.0388
1503.00,0.0383
1502.00,0.0377
1501.00,0.0370
1500.00,0.0363
1499.00,0.0355
1498.00,0.0348
1497.00,0.0339
1496.00,0.0330
1495.00,0.0322
1494.00,0.0315
1493.00,0.0308
1492.00,0.0301
1491.00,0.0293
1490.00,0.0285
1489.00,0.0277
1488.00,0.0269
1487.00,0.0263
1486.00,0.0258
1485.00,0.0253
1484.00,0.0248
1483.00,0.0243
1482.00,0.0239
1481.00,0.0235
1480.00,0.0231
1479.00,0.0228
1478.00,0.0226
1477.00,0.0223
1476.00,0.0221
1475.00,0.0219
1474.00,0.0218
1473.00,0.0217
1472.00,0.0217
1471.00,0.0217
1470.00,0.0217
1469.00,0.0217
1468.00,0.0216
1467.00,0.0216
1466.00,0.0216
1465.00,0.0216
1464.00,0.0216
1463.00,0.0217
1462.00,0.0219
1461.00,0.0220
1460.00,0.0222
1459.00,0.0224
1458.00,0.0227
1457.00,0.0231
1456.00,0.0234
1455.00,0.0236
1454.00,0.0237
1453.00,0.0238
1452.00,0.0238
1451.00,0.0238
1450.00,0.0238
1449.00,0.0237
1448.00,0.0236
1447.00,0.0234
1446.00,0.0233
1445.00,0.0231
1444.00,0.0229
1443.00,0.0226
1442.00,0.0224
1441.00,0.0221
1440.00,0.0219
1439.00,0.0216
1438.00,0.0213
1437.00,0.0211
1436.00,0.0208
1435.00,0.0206
1434.00,0.0205
1433.00,0.0203
1432.00,0.0202
1431.00,0.0200
1430.00,0.0200
1429.00,0.0199
1428.00,0.0199
1427.00,0.0198
1426.00,0.0198
1425.00,0.0199
1424.00,0.0199
1423.00,0.0199
1422.00,0.0200
1421.00,0.0201
1420.00,0.0201
1419.00,0.0202
1418.00,0.0203
1417.00,0.0204
1416.00,0.0205
1415.00,0.0206
1414.00,0.0207
1413.00,0.0208
1412.00,0.0209
1411.00,0.0210
1410.00,0.0211
1409.00,0.0212
1408.00,0.0212
1407.00,0.0213
1406.00,0.0213
1405.00,0.0213
1404.00,0.0213
1403.00,0.0213
1402.00,0.0213
1401.00,0.0213
1400.00,0.0212
1399.00,0.0212
1398.00,0.0211
1397.00,0.0211
1396.00,0.0210
1395.00,0.0210
1394.00,0.0210
1393.00,0.0210
1392.00,0.0209
1391.00,0.0209
1390.00,0.0209
1389.00,0.0208
1388.00,0.0208
1387.00,0.0208
1386.00,0.0207
1385.00,0.0207
1384.00,0.0206
1383.00,0.0206
1382.00,0.0205
1381.00,0.0204
1380.00,0.0203
1379.00,0.0203
1378.00,0.0202
1377.00,0.0202
1376.00,0.0201
1375.00,0.0201
1374.00,0.0200
1373.00,0.0200
1372.00,0.0200
1371.00,0.0199
1370.00,0.0199
1369.00,0.0198
1368.00,0.0197
1367.00,0.0196
1366.00,0.0195
1365.00,0.0194
1364.00,0.0192
1363.00,0.0191
1362.00,0.0190
1361.00,0.0189
1360.00,0.0188
1359.00,0.0187
1358.00,0.0187
1357.00,0.0186
1356.00,0.0185
1355.00,0.0185
1354.00,0.0184
1353.00,0.0184
1352.00,0.0183
1351.00,0.0182
1350.00,0.0182
1349.00,0.0182
1348.00,0.0182
1347.00,0.0181
1346.00,0.0181
1345.00,0.0181
1344.00,0.0181
1343.00,0.0181
1342.00,0.0181
1341.00,0.0181
1340.00,0.0181
1339.00,0.0181
1338.00,0.0182
1337.00,0.0182
1336.00,0.0182
1335.00,0.0182
1334.00,0.0181
1333.00,0.0181
1332.00,0.0181
1331.00,0.0181
1330.00,0.0180
1329.00,0.0180
1328.00,0.0180
1327.00,0.0180
1326.00,0.0180
1325.00,0.0180
1324.00,0.0180
1323.00,0.0180
1322.00,0.0180
1321.00,0.0181
1320.00,0.0181
1319.00,0.0181
1318.00,0.0182
1317.00,0.0182
1316.00,0.0182
1315.00,0.0182
1314.00,0.0182
1313.00,0.0182
1312.00,0.0182
1311.00,0.0182
1310.00,0.0182
1309.00,0.0182
1308.00,0.0181
1307.00,0.0181
1306.00,0.0181
1305.00,0.0181
1304.00,0.0180
1303.00,0.0180
1302.00,0.0180
1301.00,0.0179
1300.00,0.0179
1299.00,0.0178
1298.00,0.0178
1297.00,0.0177
1296.00,0.0177
1295.00,0.0177
1294.00,0.0177
1293.00,0.0177
1292.00,0.0176
1291.00,0.0177
1290.00,0.0177
1289.00,0.0177
1288.00,0.0177
1287.00,0.0177
1286.00,0.0177
1285.00,0.0176
1284.00,0.0176
1283.00,0.0176
1282.00,0.0176
1281.00,0.0176
1280.00,0.0175
1279.00,0.0175
1278.00,0.0175
1277.00,0.0174
1276.00,0.0174
1275.00,0.0174
1274.00,0.0174
1273.00,0.0174
1272.00,0.0174
1271.00,0.0174
1270.00,0.0174
1269.00,0.0175
1268.00,0.0175
1267.00,0.0175
1266.00,0.0176
1265.00,0.0176
1264.00,0.0177
1263.00,0.0178
1262.00,0.0179
1261.00,0.0180
1260.00,0.0182
1259.00,0.0183
1258.00,0.0185
1257.00,0.0186
1256.00,0.0188
1255.00,0.0189
1254.00,0.0191
1253.00,0.0193
1252.00,0.0194
1251.00,0.0196
1250.00,0.0197
1249.00,0.0199
1248.00,0.0200
1247.00,0.0201
1246.00,0.0203
1245.00,0.0203
1244.00,0.0204
1243.00,0.0205
1242.00,0.0206
1241.00,0.0206
1240.00,0.0206
1239.00,0.0207
1238.00,0.0207
1237.00,0.0207
1236.00,0.0207
1235.00,0.0207
1234.00,0.0207
1233.00,0.0207
1232.00,0.0206
1231.00,0.0206
1230.00,0.0206
1229.00,0.0205
1228.00,0.0205
1227.00,0.0204
1226.00,0.0204
1225.00,0.0203
1224.00,0.0202
1223.00,0.0201
1222.00,0.0200
1221.00,0.0199
1220.00,0.0198
1219.00,0.0197
1218.00,0.0196
1217.00,0.0194
1216.00,0.0193
1215.00,0.0191
1214.00,0.0190
1213.00,0.0189
1212.00,0.0187
1211.00,0.0185
1210.00,0.0184
1209.00,0.0182
1208.00,0.0181
1207.00,0.0179
1206.00,0.0177
1205.00,0.0175
1204.00,0.0172
1203.00,0.0170
1202.00,0.0169
1201.00,0.0167
1200.00,0.0165
1199.00,0.0163
1198.00,0.0161
1197.00,0.0160
1196.00,0.0158
1195.00,0.0157
1194.00,0.0156
1193.00,0.0155
1192.00,0.0153
1191.00,0.0152
1190.00,0.0151
1189.00,0.0151
1188.00,0.0150
1187.00,0.0149
1186.00,0.0149
1185.00,0.0148
1184.00,0.0148
1183.00,0.0148
1182.00,0.0148
1181.00,0.0148
1180.00,0.0148
1179.00,0.0149
1178.00,0.0149
1177.00,0.0151
1176.00,0.0152
1175.00,0.0153
1174.00,0.0155
1173.00,0.0156
1172.00,0.0157
1171.00,0.0159
1170.00,0.0160
1169.00,0.0162
1168.00,0.0163
1167.00,0.0164
1166.00,0.0166
1165.00,0.0167
1164.00,0.0167
1163.00,0.0168
1162.00,0.0169
1161.00,0.0170
1160.00,0.0170
1159.00,0.0170
1158.00,0.0169
1157.00,0.0169
1156.00,0.0168
1155.00,0.0167
1154.00,0.0166
1153.00,0.0165
1152.00,0.0164
1151.00,0.0163
1150.00,0.0162
1149.00,0.0160
1148.00,0.0159
1147.00,0.0157
1146.00,0.0156
1145.00,0.0155
1144.00,0.0154
1143.00,0.0153
1142.00,0.0152
1141.00,0.0152
1140.00,0.0151
1139.00,0.0151
1138.00,0.0151
1137.00,0.0151
1136.00,0.0151
1135.00,0.0151
1134.00,0.0151
1133.00,0.0152
1132.00,0.0152
1131.00,0.0152
1130.00,0.0153
1129.00,0.0153
1128.00,0.0153
1127.00,0.0153
1126.00,0.0154
1125.00,0.0154
1124.00,0.0153
1123.00,0.0153
1122.00,0.0153
1121.00,0.0153
1120.00,0.0152
1119.00,0.0152
1118.00,0.0152
1117.00,0.0151
1116.00,0.0151
1115.00,0.0151
1114.00,0.0151
1113.00,0.0152
1112.00,0.0152
1111.00,0.0152
1110.00,0.0152
1109.00,0.0152
1108.00,0.0151
1107.00,0.0151
1106.00,0.0151
1105.00,0.0151
1104.00,0.0151
1103.00,0.0151
1102.00,0.0152
1101.00,0.0152
1100.00,0.0151
1099.00,0.0152
1098.00,0.0152
1097.00,0.0153
1096.00,0.0153
1095.00,0.0154
1094.00,0.0155
1093.00,0.0156
1092.00,0.0158
1091.00,0.0159
1090.00,0.0162
1089.00,0.0164
1088.00,0.0166
1087.00,0.0169
1086.00,0.0172
1085.00,0.0175
1084.00,0.0178
1083.00,0.0181
1082.00,0.0184
1081.00,0.0187
1080.00,0.0190
1079.00,0.0193
1078.00,0.0195
1077.00,0.0198
1076.00,0.0200
1075.00,0.0201
1074.00,0.0203
1073.00,0.0205
1072.00,0.0205
1071.00,0.0206
1070.00,0.0208
1069.00,0.0209
1068.00,0.0209
1067.00,0.0210
1066.00,0.0211
1065.00,0.0212
1064.00,0.0213
1063.00,0.0213
1062.00,0.0214
1061.00,0.0215
1060.00,0.0215
1059.00,0.0215
1058.00,0.0215
1057.00,0.0214
1056.00,0.0214
1055.00,0.0213
1054.00,0.0213
1053.00,0.0212
1052.00,0.0210
1051.00,0.0209
1050.00,0.0208
1049.00,0.0206
1048.00,0.0205
1047.00,0.0203
1046.00,0.0201
1045.00,0.0199
1044.00,0.0197
1043.00,0.0195
1042.00,0.0193
1041.00,0.0190
1040.00,0.0188
1039.00,0.0186
1038.00,0.0184
1037.00,0.0183
1036.00,0.0181
1035.00,0.0179
1034.00,0.0178
1033.00,0.0177
1032.00,0.0175
1031.00,0.0174
1030.00,0.0172
1029.00,0.0171
1028.00,0.0169
1027.00,0.0167
1026.00,0.0165
1025.00,0.0163
1024.00,0.0161
1023.00,0.0159
1022.00,0.0157
1021.00,0.0155
1020.00,0.0154
1019.00,0.0152
1018.00,0.0151
1017.00,0.0149
1016.00,0.0147
1015.00,0.0146
1014.00,0.0145
1013.00,0.0144
1012.00,0.0143
1011.00,0.0142
1010.00,0.0142
1009.00,0.0141
1008.00,0.0140
1007.00,0.0139
1006.00,0.0138
1005.00,0.0138
1004.00,0.0137
1003.00,0.0136
1002.00,0.0136
1001.00,0.0136
1000.00,0.0135
999.00,0.0134
998.00,0.0134
997.00,0.0134
996.00,0.0133
995.00,0.0132
994.00,0.0132
993.00,0.0132
992.00,0.0131
991.00,0.0131
990.00,0.0131
989.00,0.0130
988.00,0.0130
987.00,0.0129
986.00,0.0130
985.00,0.0130
984.00,0.0129
983.00,0.0129
982.00,0.0129
981.00,0.0129
980.00,0.0128
979.00,0.0128
978.00,0.0128
977.00,0.0128
976.00,0.0127
975.00,0.0127
974.00,0.0127
973.00,0.0127
972.00,0.0126
971.00,0.0126
970.00,0.0126
969.00,0.0127
968.00,0.0127
967.00,0.0128
966.00,0.0129
965.00,0.0130
964.00,0.0130
963.00,0.0130
962.00,0.0131
961.00,0.0131
960.00,0.0130
959.00,0.0129
958.00,0.0129
957.00,0.0128
956.00,0.0127
955.00,0.0126
954.00,0.0125
953.00,0.0125
952.00,0.0124
951.00,0.0123
950.00,0.0123
949.00,0.0123
948.00,0.0122
947.00,0.0121
946.00,0.0121
945.00,0.0121
944.00,0.0120
943.00,0.0119
942.00,0.0119
941.00,0.0119
940.00,0.0118
939.00,0.0118
938.00,0.0118
937.00,0.0118
936.00,0.0118
935.00,0.0118
934.00,0.0118
933.00,0.0118
932.00,0.0118
931.00,0.0118
930.00,0.0118
929.00,0.0117
928.00,0.0116
927.00,0.0116
926.00,0.0116
925.00,0.0115
924.00,0.0115
923.00,0.0114
922.00,0.0114
921.00,0.0113
920.00,0.0113
919.00,0.0112
918.00,0.0112
917.00,0.0111
916.00,0.0110
915.00,0.0110
914.00,0.0110
913.00,0.0110
912.00,0.0110
911.00,0.0111
910.00,0.0111
909.00,0.0112
908.00,0.0112
907.00,0.0112
906.00,0.0113
905.00,0.0113
904.00,0.0113
903.00,0.0113
902.00,0.0114
901.00,0.0114
900.00,0.0114
899.00,0.0113
898.00,0.0113
897.00,0.0113
896.00,0.0113
895.00,0.0112
894.00,0.0112
893.00,0.0112
892.00,0.0111
891.00,0.0110
890.00,0.0110
889.00,0.0109
888.00,0.0108
887.00,0.0107
886.00,0.0107
885.00,0.0107
884.00,0.0106
883.00,0.0106
882.00,0.0106
881.00,0.0106
880.00,0.0106
879.00,0.0105
878.00,0.0105
877.00,0.0105
876.00,0.0105
875.00,0.0104
874.00,0.0105
873.00,0.0105
872.00,0.0104
871.00,0.0104
870.00,0.0104
869.00,0.0104
868.00,0.0103
867.00,0.0103
866.00,0.0103
865.00,0.0103
864.00,0.0102
863.00,0.0102
862.00,0.0103
861.00,0.0103
860.00,0.0103
859.00,0.0103
858.00,0.0103
857.00,0.0104
856.00,0.0103
855.00,0.0103
854.00,0.0104
853.00,0.0104
852.00,0.0104
851.00,0.0105
850.00,0.0105
849.00,0.0105
848.00,0.0105
847.00,0.0105
846.00,0.0106
845.00,0.0106
844.00,0.0106
843.00,0.0107
842.00,0.0108
841.00,0.0109
840.00,0.0109
839.00,0.0110
838.00,0.0111
837.00,0.0112
836.00,0.0112
835.00,0.0113
834.00,0.0114
833.00,0.0116
832.00,0.0116
831.00,0.0117
830.00,0.0118
829.00,0.0119
828.00,0.0120
827.00,0.0120
826.00,0.0122
825.00,0.0122
824.00,0.0123
823.00,0.0123
822.00,0.0124
821.00,0.0125
820.00,0.0125
819.00,0.0126
818.00,0.0127
817.00,0.0127
816.00,0.0127
815.00,0.0128
814.00,0.0129
813.00,0.0130
812.00,0.0131
811.00,0.0131
810.00,0.0132
809.00,0.0133
808.00,0.0133
807.00,0.0134
806.00,0.0135
805.00,0.0136
804.00,0.0136
803.00,0.0136
802.00,0.0138
801.00,0.0139
800.00,0.0139
799.00,0.0139
798.00,0.0140
797.00,0.0141
796.00,0.0141
795.00,0.0142
794.00,0.0143
793.00,0.0145
792.00,0.0146
791.00,0.0147
790.00,0.0149
789.00,0.0150
788.00,0.0151
787.00,0.0152
786.00,0.0154
785.00,0.0155
784.00,0.0156
783.00,0.0157
782.00,0.0158
781.00,0.0160
780.00,0.0161
779.00,0.0162
778.00,0.0163
777.00,0.0165
776.00,0.0166
775.00,0.0167
774.00,0.0168
773.00,0.0169
772.00,0.0170
771.00,0.0170
770.00,0.0172
769.00,0.0173
768.00,0.0173
767.00,0.0174
766.00,0.0175
765.00,0.0176
764.00,0.0176
763.00,0.0176
762.00,0.0177
761.00,0.0178
760.00,0.0178
759.00,0.0178
758.00,0.0180
757.00,0.0181
756.00,0.0181
755.00,0.0182
754.00,0.0183
753.00,0.0185
752.00,0.0186
751.00,0.0187
750.00,0.0189
749.00,0.0190
748.00,0.0190
747.00,0.0190
746.00,0.0191
745.00,0.0192
744.00,0.0192
743.00,0.0193
742.00,0.0194
741.00,0.0194
740.00,0.0195
739.00,0.0196
738.00,0.0197
737.00,0.0199
736.00,0.0199
735.00,0.0200
734.00,0.0202
733.00,0.0204
732.00,0.0205
731.00,0.0206
730.00,0.0208
729.00,0.0211
728.00,0.0213
727.00,0.0216
726.00,0.0219
725.00,0.0223
724.00,0.0225
723.00,0.0228
722.00,0.0232
721.00,0.0235
720.00,0.0238
719.00,0.0241
718.00,0.0245
717.00,0.0250
716.00,0.0253
715.00,0.0256
714.00,0.0260
713.00,0.0264
712.00,0.0267
711.00,0.0270
710.00,0.0274
709.00,0.0277
708.00,0.0279
707.00,0.0282
706.00,0.0286
705.00,0.0289
704.00,0.0291
703.00,0.0293
702.00,0.0295
701.00,0.0297
700.00,0.0297
699.00,0.0298
698.00,0.0298
697.00,0.0299
696.00,0.0298
695.00,0.0298
694.00,0.0298
693.00,0.0298
692.00,0.0298
691.00,0.0297
690.00,0.0298
689.00,0.0299
688.00,0.0299
687.00,0.0299
686.00,0.0300
685.00,0.0300
684.00,0.0300
683.00,0.0300
682.00,0.0300
681.00,0.0301
680.00,0.0301
679.00,0.0301
678.00,0.0302
677.00,0.0302
676.00,0.0302
675.00,0.0302
674.00,0.0303
673.00,0.0304
672.00,0.0304
671.00,0.0304
670.00,0.0306
669.00,0.0308
668.00,0.0309
667.00,0.0310
666.00,0.0310
665.00,0.0309
664.00,0.0308
663.00,0.0308
662.00,0.0309
661.00,0.0310
660.00,0.0310
659.00,0.0310
658.00,0.0310
657.00,0.0311
656.00,0.0311
655.00,0.0311
654.00,0.0312
653.00,0.0313
652.00,0.0313
651.00,0.0313
650.00,0.0314
649.00,0.0315
648.00,0.0315
647.00,0.0316
646.00,0.0317
645.00,0.0319
644.00,0.0319
643.00,0.0320
642.00,0.0322
641.00,0.0324
640.00,0.0324
639.00,0.0325
638.00,0.0327
637.00,0.0328
636.00,0.0329
635.00,0.0330
634.00,0.0331
633.00,0.0332
632.00,0.0333
631.00,0.0333
630.00,0.0335
629.00,0.0336
628.00,0.0336
627.00,0.0336
626.00,0.0337
625.00,0.0337
624.00,0.0336
623.00,0.0336
622.00,0.0336
621.00,0.0337
620.00,0.0335
619.00,0.0334
618.00,0.0334
617.00,0.0333
616.00,0.0332
615.00,0.0331
614.00,0.0331
613.00,0.0330
612.00,0.0329
611.00,0.0327
610.00,0.0327
609.00,0.0327
608.00,0.0326
607.00,0.0325
606.00,0.0325
605.00,0.0325
604.00,0.0324
603.00,0.0323
602.00,0.0323
601.00,0.0324
600.00,0.0323
599.00,0.0322
598.00,0.0323
597.00,0.0323
596.00,0.0322
595.00,0.0321
594.00,0.0322
593.00,0.0322
592.00,0.0322
591.00,0.0321
590.00,0.0322
589.00,0.0322
588.00,0.0322
587.00,0.0322
586.00,0.0323
585.00,0.0324
584.00,0.0323
583.00,0.0323
582.00,0.0324
581.00,0.0324
580.00,0.0323
579.00,0.0323
578.00,0.0324
577.00,0.0325
576.00,0.0325
575.00,0.0325
574.00,0.0327
573.00,0.0327
572.00,0.0326
571.00,0.0326
570.00,0.0327
569.00,0.0328
568.00,0.0328
567.00,0.0327
566.00,0.0328
565.00,0.0329
564.00,0.0329
563.00,0.0329
562.00,0.0331
561.00,0.0332
560.00,0.0332
559.00,0.0331
558.00,0.0332
557.00,0.0332
556.00,0.0330
555.00,0.0329
554.00,0.0331
553.00,0.0332
552.00,0.0332
551.00,0.0331
550.00,0.0333
549.00,0.0334
548.00,0.0332
547.00,0.0331
546.00,0.0332
545.00,0.0332
544.00,0.0331
543.00,0.0330
542.00,0.0331
541.00,0.0332
540.00,0.0331
539.00,0.0330
538.00,0.0331
537.00,0.0332
536.00,0.0331
535.00,0.0330
534.00,0.0331
533.00,0.0333
532.00,0.0332
531.00,0.0331
530.00,0.0333
529.00,0.0334
528.00,0.0332
527.00,0.0331
526.00,0.0333
525.00,0.0335
524.00,0.0333
523.00,0.0333
522.00,0.0334
521.00,0.0334
520.00,0.0332
519.00,0.0332
518.00,0.0334
517.00,0.0336
516.00,0.0334
515.00,0.0331
514.00,0.0331
513.00,0.0330
512.00,0.0328
511.00,0.0327
510.00,0.0328
509.00,0.0329
508.00,0.0326
507.00,0.0324
506.00,0.0324
505.00,0.0325
504.00,0.0324
503.00,0.0323
502.00,0.0324
501.00,0.0325
500.00,0.0323
499.00,0.0322
498.00,0.0324
497.00,0.0325
496.00,0.0324
495.00,0.0322
494.00,0.0324
493.00,0.0325
492.00,0.0322
491.00,0.0320
490.00,0.0321
489.00,0.0322
488.00,0.0320
487.00,0.0319
486.00,0.0321
485.00,0.0322
484.00,0.0319
483.00,0.0317
482.00,0.0319
481.00,0.0321
480.00,0.0320
479.00,0.0320
478.00,0.0323
477.00,0.0324
476.00,0.0320
475.00,0.0317
474.00,0.0319
473.00,0.0321
472.00,0.0317
471.00,0.0315
470.00,0.0318
469.00,0.0321
468.00,0.0319
467.00,0.0317
466.00,0.0319
465.00,0.0320
464.00,0.0318
463.00,0.0317
462.00,0.0320
461.00,0.0322
460.00,0.0319
459.00,0.0315
458.00,0.0316
457.00,0.0316
456.00,0.0312
455.00,0.0309
454.00,0.0312
453.00,0.0314
452.00,0.0311
451.00,0.0307
450.00,0.0310
449.00,0.0311
448.00,0.0308
447.00,0.0306
446.00,0.0307
445.00,0.0308
444.00,0.0303
443.00,0.0300
442.00,0.0303
441.00,0.0304
440.00,0.0300
439.00,0.0296
438.00,0.0298
437.00,0.0299
436.00,0.0295
435.00,0.0291
434.00,0.0293
433.00,0.0294
432.00,0.0289
431.00,0.0285
430.00,0.0289
429.00,0.0293
428.00,0.0289
427.00,0.0285
426.00,0.0286
425.00,0.0285
424.00,0.0278
423.00,0.0273
422.00,0.0278
421.00,0.0282
420.00,0.0275
419.00,0.0269
418.00,0.0276
417.00,0.0279
416.00,0.0270
415.00,0.0264
414.00,0.0268
413.00,0.0271
412.00,0.0264
411.00,0.0260
410.00,0.0268
409.00,0.0274
408.00,0.0267
407.00,0.0261
406.00,0.0266
405.00,0.0268
404.00,0.0257
403.00,0.0248
402.00,0.0256
401.00,0.0259
400.00,0.0241
