Created as New Dataset,Sample 304 By YargerLab Date Sunday, August 18 2024
cm-1,A
4000.00,0.0100
3999.00,0.0100
3998.00,0.0100
3997.00,0.0100
3996.00,0.0100
3995.00,0.0100
3994.00,0.0100
3993.00,0.0100
3992.00,0.0100
3991.00,0.0100
3990.00,0.0100
3989.00,0.0100
3988.00,0.0101
3987.00,0.0101
3986.00,0.0101
3985.00,0.0100
3984.00,0.0100
3983.00,0.0100
3982.00,0.0100
3981.00,0.0100
3980.00,0.0100
3979.00,0.0100
3978.00,0.0100
3977.00,0.0100
3976.00,0.0100
3975.00,0.0100
3974.00,0.0100
3973.00,0.0100
3972.00,0.0100
3971.00,0.0100
3970.00,0.0100
3969.00,0.0100
3968.00,0.0100
3967.00,0.0100
3966.00,0.0100
3965.00,0.0100
3964.00,0.0100
3963.00,0.0100
3962.00,0.0100
3961.00,0.0100
3960.00,0.0100
3959.00,0.0100
3958.00,0.0100
3957.00,0.0100
3956.00,0.0100
3955.00,0.0100
3954.00,0.0100
3953.00,0.0100
3952.00,0.0100
3951.00,0.0100
3950.00,0.0100
3949.00,0.0100
3948.00,0.0100
3947.00,0.0100
3946.00,0.0099
3945.00,0.0099
3944.00,0.0099
3943.00,0.0099
3942.00,0.0099
3941.00,0.0099
3940.00,0.0099
3939.00,0.0099
3938.00,0.0099
3937.00,0.0099
3936.00,0.0099
3935.00,0.0099
3934.00,0.0099
3933.00,0.0099
3932.00,0.0099
3931.00,0.0099
3930.00,0.0099
3929.00,0.0099
3928.00,0.0099
3927.00,0.0099
3926.00,0.0099
3925.00,0.0099
3924.00,0.0099
3923.00,0.0099
3922.00,0.0099
3921.00,0.0099
3920.00,0.0099
3919.00,0.0099
3918.00,0.0099
3917.00,0.0099
3916.00,0.0099
3915.00,0.0099
3914.00,0.0099
3913.00,0.0099
3912.00,0.0099
3911.00,0.0099
3910.00,0.0099
3909.00,0.0099
3908.00,0.0098
3907.00,0.0098
3906.00,0.0098
3905.00,0.0098
3904.00,0.0098
3903.00,0.0098
3902.00,0.0098
3901.00,0.0098
3900.00,0.0098
3899.00,0.0098
3898.00,0.0098
3897.00,0.0098
3896.00,0.0098
3895.00,0.0098
3894.00,0.0098
3893.00,0.0098
3892.00,0.0098
3891.00,0.0098
3890.00,0.0098
3889.00,0.0098
3888.00,0.0098
3887.00,0.0098
3886.00,0.0098
3885.00,0.0098
3884.00,0.0098
3883.00,0.0098
3882.00,0.0097
3881.00,0.0097
3880.00,0.0097
3879.00,0.0097
3878.00,0.0098
3877.00,0.0098
3876.00,0.0097
3875.00,0.0097
3874.00,0.0097
3873.00,0.0097
3872.00,0.0097
3871.00,0.0097
3870.00,0.0097
3869.00,0.0097
3868.00,0.0097
3867.00,0.0097
3866.00,0.0097
3865.00,0.0097
3864.00,0.0097
3863.00,0.0097
3862.00,0.0097
3861.00,0.0097
3860.00,0.0097
3859.00,0.0097
3858.00,0.0097
3857.00,0.0097
3856.00,0.0096
3855.00,0.0096
3854.00,0.0096
3853.00,0.0096
3852.00,0.0096
3851.00,0.0096
3850.00,0.0096
3849.00,0.0096
3848.00,0.0096
3847.00,0.0096
3846.00,0.0096
3845.00,0.0096
3844.00,0.0096
3843.00,0.0096
3842.00,0.0096
3841.00,0.0096
3840.00,0.0096
3839.00,0.0096
3838.00,0.0096
3837.00,0.0096
3836.00,0.0096
3835.00,0.0096
3834.00,0.0096
3833.00,0.0096
3832.00,0.0096
3831.00,0.0096
3830.00,0.0096
3829.00,0.0096
3828.00,0.0096
3827.00,0.0096
3826.00,0.0096
3825.00,0.0096
3824.00,0.0095
3823.00,0.0095
3822.00,0.0095
3821.00,0.0095
3820.00,0.0095
3819.00,0.0095
3818.00,0.0095
3817.00,0.0095
3816.00,0.0095
3815.00,0.0095
3814.00,0.0095
3813.00,0.0095
3812.00,0.0095
3811.00,0.0095
3810.00,0.0095
3809.00,0.0095
3808.00,0.0095
3807.00,0.0095
3806.00,0.0095
3805.00,0.0095
3804.00,0.0095
3803.00,0.0094
3802.00,0.0094
3801.00,0.0094
3800.00,0.0094
3799.00,0.0094
3798.00,0.0094
3797.00,0.0094
3796.00,0.0095
3795.00,0.0095
3794.00,0.0094
3793.00,0.0094
3792.00,0.0094
3791.00,0.0094
3790.00,0.0094
3789.00,0.0094
3788.00,0.0094
3787.00,0.0094
3786.00,0.0094
3785.00,0.0094
3784.00,0.0094
3783.00,0.0094
3782.00,0.0094
3781.00,0.0094
3780.00,0.0094
3779.00,0.0094
3778.00,0.0094
3777.00,0.0094
3776.00,0.0094
3775.00,0.0094
3774.00,0.0094
3773.00,0.0094
3772.00,0.0094
3771.00,0.0094
3770.00,0.0094
3769.00,0.0094
3768.00,0.0093
3767.00,0.0093
3766.00,0.0093
3765.00,0.0093
3764.00,0.0093
3763.00,0.0093
3762.00,0.0093
3761.00,0.0093
3760.00,0.0093
3759.00,0.0093
3758.00,0.0093
3757.00,0.0093
3756.00,0.0093
3755.00,0.0093
3754.00,0.0093
3753.00,0.0093
3752.00,0.0093
3751.00,0.0092
3750.00,0.0092
3749.00,0.0092
3748.00,0.0092
3747.00,0.0092
3746.00,0.0092
3745.00,0.0092
3744.00,0.0092
3743.00,0.0092
3742.00,0.0092
3741.00,0.0092
3740.00,0.0091
3739.00,0.0091
3738.00,0.0091
3737.00,0.0091
3736.00,0.0091
3735.00,0.0090
3734.00,0.0090
3733.00,0.0090
3732.00,0.0090
3731.00,0.0090
3730.00,0.0090
3729.00,0.0090
3728.00,0.0091
3727.00,0.0091
3726.00,0.0091
3725.00,0.0091
3724.00,0.0091
3723.00,0.0090
3722.00,0.0090
3721.00,0.0090
3720.00,0.0090
3719.00,0.0090
3718.00,0.0090
3717.00,0.0090
3716.00,0.0090
3715.00,0.0090
3714.00,0.0089
3713.00,0.0089
3712.00,0.0090
3711.00,0.0090
3710.00,0.0090
3709.00,0.0089
3708.00,0.0089
3707.00,0.0089
3706.00,0.0089
3705.00,0.0089
3704.00,0.0089
3703.00,0.0088
3702.00,0.0088
3701.00,0.0088
3700.00,0.0088
3699.00,0.0088
3698.00,0.0088
3697.00,0.0088
3696.00,0.0089
3695.00,0.0089
3694.00,0.0088
3693.00,0.0088
3692.00,0.0088
3691.00,0.0088
3690.00,0.0088
3689.00,0.0087
3688.00,0.0087
3687.00,0.0088
3686.00,0.0088
3685.00,0.0088
3684.00,0.0088
3683.00,0.0088
3682.00,0.0088
3681.00,0.0089
3680.00,0.0089
3679.00,0.0089
3678.00,0.0089
3677.00,0.0089
3676.00,0.0088
3675.00,0.0088
3674.00,0.0088
3673.00,0.0088
3672.00,0.0088
3671.00,0.0088
3670.00,0.0088
3669.00,0.0088
3668.00,0.0088
3667.00,0.0089
3666.00,0.0089
3665.00,0.0089
3664.00,0.0089
3663.00,0.0089
3662.00,0.0089
3661.00,0.0090
3660.00,0.0090
3659.00,0.0090
3658.00,0.0090
3657.00,0.0090
3656.00,0.0090
3655.00,0.0090
3654.00,0.0090
3653.00,0.0090
3652.00,0.0090
3651.00,0.0090
3650.00,0.0090
3649.00,0.0090
3648.00,0.0090
3647.00,0.0090
3646.00,0.0091
3645.00,0.0091
3644.00,0.0091
3643.00,0.0091
3642.00,0.0092
3641.00,0.0092
3640.00,0.0092
3639.00,0.0092
3638.00,0.0093
3637.00,0.0093
3636.00,0.0093
3635.00,0.0093
3634.00,0.0093
3633.00,0.0093
3632.00,0.0093
3631.00,0.0093
3630.00,0.0093
3629.00,0.0093
3628.00,0.0093
3627.00,0.0094
3626.00,0.0094
3625.00,0.0094
3624.00,0.0095
3623.00,0.0095
3622.00,0.0095
3621.00,0.0095
3620.00,0.0095
3619.00,0.0095
3618.00,0.0096
3617.00,0.0096
3616.00,0.0097
3615.00,0.0097
3614.00,0.0098
3613.00,0.0098
3612.00,0.0099
3611.00,0.0099
3610.00,0.0099
3609.00,0.0099
3608.00,0.0099
3607.00,0.0099
3606.00,0.0099
3605.00,0.0100
3604.00,0.0100
3603.00,0.0100
3602.00,0.0100
3601.00,0.0101
3600.00,0.0101
3599.00,0.0101
3598.00,0.0101
3597.00,0.0101
3596.00,0.0102
3595.00,0.0102
3594.00,0.0103
3593.00,0.0103
3592.00,0.0103
3591.00,0.0103
3590.00,0.0103
3589.00,0.0104
3588.00,0.0104
3587.00,0.0104
3586.00,0.0105
3585.00,0.0105
3584.00,0.0106
3583.00,0.0106
3582.00,0.0106
3581.00,0.0107
3580.00,0.0107
3579.00,0.0107
3578.00,0.0108
3577.00,0.0108
3576.00,0.0108
3575.00,0.0109
3574.00,0.0109
3573.00,0.0109
3572.00,0.0110
3571.00,0.0110
3570.00,0.0110
3569.00,0.0111
3568.00,0.0111
3567.00,0.0112
3566.00,0.0112
3565.00,0.0113
3564.00,0.0113
3563.00,0.0113
3562.00,0.0114
3561.00,0.0114
3560.00,0.0114
3559.00,0.0115
3558.00,0.0115
3557.00,0.0116
3556.00,0.0116
3555.00,0.0117
3554.00,0.0117
3553.00,0.0118
3552.00,0.0118
3551.00,0.0119
3550.00,0.0119
3549.00,0.0120
3548.00,0.0120
3547.00,0.0121
3546.00,0.0121
3545.00,0.0122
3544.00,0.0122
3543.00,0.0122
3542.00,0.0122
3541.00,0.0123
3540.00,0.0123
3539.00,0.0123
3538.00,0.0124
3537.00,0.0124
3536.00,0.0125
3535.00,0.0125
3534.00,0.0125
3533.00,0.0126
3532.00,0.0126
3531.00,0.0127
3530.00,0.0127
3529.00,0.0128
3528.00,0.0128
3527.00,0.0128
3526.00,0.0129
3525.00,0.0129
3524.00,0.0130
3523.00,0.0130
3522.00,0.0130
3521.00,0.0131
3520.00,0.0131
3519.00,0.0131
3518.00,0.0132
3517.00,0.0132
3516.00,0.0133
3515.00,0.0133
3514.00,0.0134
3513.00,0.0134
3512.00,0.0134
3511.00,0.0135
3510.00,0.0135
3509.00,0.0135
3508.00,0.0136
3507.00,0.0136
3506.00,0.0136
3505.00,0.0137
3504.00,0.0137
3503.00,0.0138
3502.00,0.0139
3501.00,0.0139
3500.00,0.0140
3499.00,0.0140
3498.00,0.0140
3497.00,0.0141
3496.00,0.0141
3495.00,0.0142
3494.00,0.0142
3493.00,0.0142
3492.00,0.0142
3491.00,0.0143
3490.00,0.0143
3489.00,0.0144
3488.00,0.0144
3487.00,0.0145
3486.00,0.0145
3485.00,0.0146
3484.00,0.0146
3483.00,0.0147
3482.00,0.0147
3481.00,0.0148
3480.00,0.0148
3479.00,0.0148
3478.00,0.0149
3477.00,0.0149
3476.00,0.0149
3475.00,0.0150
3474.00,0.0150
3473.00,0.0151
3472.00,0.0152
3471.00,0.0152
3470.00,0.0153
3469.00,0.0153
3468.00,0.0154
3467.00,0.0154
3466.00,0.0154
3465.00,0.0155
3464.00,0.0155
3463.00,0.0156
3462.00,0.0156
3461.00,0.0157
3460.00,0.0157
3459.00,0.0157
3458.00,0.0158
3457.00,0.0158
3456.00,0.0159
3455.00,0.0159
3454.00,0.0159
3453.00,0.0160
3452.00,0.0160
3451.00,0.0161
3450.00,0.0161
3449.00,0.0162
3448.00,0.0162
3447.00,0.0162
3446.00,0.0163
3445.00,0.0163
3444.00,0.0164
3443.00,0.0164
3442.00,0.0165
3441.00,0.0165
3440.00,0.0166
3439.00,0.0166
3438.00,0.0167
3437.00,0.0167
3436.00,0.0168
3435.00,0.0168
3434.00,0.0168
3433.00,0.0169
3432.00,0.0169
3431.00,0.0170
3430.00,0.0170
3429.00,0.0171
3428.00,0.0171
3427.00,0.0172
3426.00,0.0172
3425.00,0.0173
3424.00,0.0173
3423.00,0.0173
3422.00,0.0174
3421.00,0.0174
3420.00,0.0174
3419.00,0.0175
3418.00,0.0175
3417.00,0.0176
3416.00,0.0176
3415.00,0.0177
3414.00,0.0177
3413.00,0.0178
3412.00,0.0178
3411.00,0.0179
3410.00,0.0179
3409.00,0.0179
3408.00,0.0180
3407.00,0.0180
3406.00,0.0181
3405.00,0.0181
3404.00,0.0181
3403.00,0.0182
3402.00,0.0182
3401.00,0.0183
3400.00,0.0183
3399.00,0.0183
3398.00,0.0184
3397.00,0.0184
3396.00,0.0184
3395.00,0.0185
3394.00,0.0185
3393.00,0.0185
3392.00,0.0186
3391.00,0.0186
3390.00,0.0187
3389.00,0.0187
3388.00,0.0188
3387.00,0.0188
3386.00,0.0188
3385.00,0.0189
3384.00,0.0189
3383.00,0.0190
3382.00,0.0190
3381.00,0.0190
3380.00,0.0191
3379.00,0.0191
3378.00,0.0192
3377.00,0.0192
3376.00,0.0192
3375.00,0.0193
3374.00,0.0193
3373.00,0.0194
3372.00,0.0194
3371.00,0.0195
3370.00,0.0196
3369.00,0.0196
3368.00,0.0197
3367.00,0.0197
3366.00,0.0198
3365.00,0.0198
3364.00,0.0199
3363.00,0.0200
3362.00,0.0200
3361.00,0.0201
3360.00,0.0201
3359.00,0.0202
3358.00,0.0203
3357.00,0.0203
3356.00,0.0204
3355.00,0.0205
3354.00,0.0206
3353.00,0.0206
3352.00,0.0207
3351.00,0.0208
3350.00,0.0208
3349.00,0.0209
3348.00,0.0210
3347.00,0.0211
3346.00,0.0211
3345.00,0.0212
3344.00,0.0213
3343.00,0.0213
3342.00,0.0214
3341.00,0.0215
3340.00,0.0216
3339.00,0.0217
3338.00,0.0218
3337.00,0.0219
3336.00,0.0220
3335.00,0.0221
3334.00,0.0222
3333.00,0.0223
3332.00,0.0225
3331.00,0.0226
3330.00,0.0227
3329.00,0.0228
3328.00,0.0229
3327.00,0.0230
3326.00,0.0231
3325.00,0.0233
3324.00,0.0234
3323.00,0.0236
3322.00,0.0237
3321.00,0.0238
3320.00,0.0240
3319.00,0.0241
3318.00,0.0243
3317.00,0.0244
3316.00,0.0246
3315.00,0.0248
3314.00,0.0249
3313.00,0.0251
3312.00,0.0252
3311.00,0.0254
3310.00,0.0255
3309.00,0.0257
3308.00,0.0259
3307.00,0.0261
3306.00,0.0263
3305.00,0.0265
3304.00,0.0267
3303.00,0.0269
3302.00,0.0271
3301.00,0.0274
3300.00,0.0276
3299.00,0.0277
3298.00,0.0279
3297.00,0.0281
3296.00,0.0283
3295.00,0.0285
3294.00,0.0287
3293.00,0.0289
3292.00,0.0291
3291.00,0.0293
3290.00,0.0295
3289.00,0.0297
3288.00,0.0299
3287.00,0.0301
3286.00,0.0303
3285.00,0.0305
3284.00,0.0307
3283.00,0.0308
3282.00,0.0309
3281.00,0.0311
3280.00,0.0312
3279.00,0.0313
3278.00,0.0314
3277.00,0.0315
3276.00,0.0315
3275.00,0.0316
3274.00,0.0316
3273.00,0.0316
3272.00,0.0316
3271.00,0.0316
3270.00,0.0316
3269.00,0.0316
3268.00,0.0316
3267.00,0.0316
3266.00,0.0315
3265.00,0.0314
3264.00,0.0313
3263.00,0.0312
3262.00,0.0311
3261.00,0.0310
3260.00,0.0308
3259.00,0.0307
3258.00,0.0305
3257.00,0.0304
3256.00,0.0302
3255.00,0.0301
3254.00,0.0299
3253.00,0.0298
3252.00,0.0296
3251.00,0.0295
3250.00,0.0293
3249.00,0.0291
3248.00,0.0289
3247.00,0.0288
3246.00,0.0286
3245.00,0.0285
3244.00,0.0283
3243.00,0.0282
3242.00,0.0281
3241.00,0.0279
3240.00,0.0278
3239.00,0.0276
3238.00,0.0275
3237.00,0.0274
3236.00,0.0272
3235.00,0.0271
3234.00,0.0269
3233.00,0.0268
3232.00,0.0267
3231.00,0.0266
3230.00,0.0265
3229.00,0.0264
3228.00,0.0263
3227.00,0.0262
3226.00,0.0261
3225.00,0.0260
3224.00,0.0259
3223.00,0.0258
3222.00,0.0257
3221.00,0.0256
3220.00,0.0255
3219.00,0.0255
3218.00,0.0254
3217.00,0.0253
3216.00,0.0253
3215.00,0.0252
3214.00,0.0251
3213.00,0.0250
3212.00,0.0249
3211.00,0.0249
3210.00,0.0248
3209.00,0.0247
3208.00,0.0247
3207.00,0.0246
3206.00,0.0245
3205.00,0.0244
3204.00,0.0244
3203.00,0.0243
3202.00,0.0242
3201.00,0.0241
3200.00,0.0241
3199.00,0.0240
3198.00,0.0239
3197.00,0.0238
3196.00,0.0238
3195.00,0.0237
3194.00,0.0236
3193.00,0.0236
3192.00,0.0235
3191.00,0.0234
3190.00,0.0233
3189.00,0.0232
3188.00,0.0232
3187.00,0.0231
3186.00,0.0230
3185.00,0.0230
3184.00,0.0229
3183.00,0.0228
3182.00,0.0227
3181.00,0.0226
3180.00,0.0226
3179.00,0.0225
3178.00,0.0224
3177.00,0.0223
3176.00,0.0222
3175.00,0.0222
3174.00,0.0221
3173.00,0.0220
3172.00,0.0219
3171.00,0.0219
3170.00,0.0218
3169.00,0.0217
3168.00,0.0217
3167.00,0.0216
3166.00,0.0215
3165.00,0.0214
3164.00,0.0213
3163.00,0.0213
3162.00,0.0212
3161.00,0.0211
3160.00,0.0211
3159.00,0.0210
3158.00,0.0209
3157.00,0.0209
3156.00,0.0208
3155.00,0.0207
3154.00,0.0206
3153.00,0.0205
3152.00,0.0205
3151.00,0.0204
3150.00,0.0203
3149.00,0.0203
3148.00,0.0202
3147.00,0.0202
3146.00,0.0201
3145.00,0.0201
3144.00,0.0200
3143.00,0.0199
3142.00,0.0199
3141.00,0.0198
3140.00,0.0197
3139.00,0.0197
3138.00,0.0196
3137.00,0.0196
3136.00,0.0196
3135.00,0.0195
3134.00,0.0194
3133.00,0.0194
3132.00,0.0193
3131.00,0.0193
3130.00,0.0192
3129.00,0.0192
3128.00,0.0192
3127.00,0.0191
3126.00,0.0191
3125.00,0.0190
3124.00,0.0190
3123.00,0.0189
3122.00,0.0189
3121.00,0.0188
3120.00,0.0188
3119.00,0.0188
3118.00,0.0187
3117.00,0.0187
3116.00,0.0187
3115.00,0.0187
3114.00,0.0187
3113.00,0.0187
3112.00,0.0187
3111.00,0.0187
3110.00,0.0186
3109.00,0.0186
3108.00,0.0186
3107.00,0.0186
3106.00,0.0186
3105.00,0.0186
3104.00,0.0186
3103.00,0.0186
3102.00,0.0185
3101.00,0.0185
3100.00,0.0185
3099.00,0.0186
3098.00,0.0186
3097.00,0.0186
3096.00,0.0186
3095.00,0.0186
3094.00,0.0186
3093.00,0.0186
3092.00,0.0186
3091.00,0.0186
3090.00,0.0186
3089.00,0.0186
3088.00,0.0186
3087.00,0.0186
3086.00,0.0186
3085.00,0.0186
3084.00,0.0186
3083.00,0.0186
3082.00,0.0186
3081.00,0.0186
3080.00,0.0186
3079.00,0.0186
3078.00,0.0186
3077.00,0.0186
3076.00,0.0187
3075.00,0.0187
3074.00,0.0187
3073.00,0.0187
3072.00,0.0187
3071.00,0.0186
3070.00,0.0186
3069.00,0.0186
3068.00,0.0186
3067.00,0.0186
3066.00,0.0186
3065.00,0.0186
3064.00,0.0186
3063.00,0.0186
3062.00,0.0186
3061.00,0.0186
3060.00,0.0185
3059.00,0.0185
3058.00,0.0184
3057.00,0.0184
3056.00,0.0184
3055.00,0.0183
3054.00,0.0183
3053.00,0.0182
3052.00,0.0182
3051.00,0.0181
3050.00,0.0181
3049.00,0.0181
3048.00,0.0180
3047.00,0.0179
3046.00,0.0179
3045.00,0.0178
3044.00,0.0178
3043.00,0.0177
3042.00,0.0177
3041.00,0.0176
3040.00,0.0176
3039.00,0.0176
3038.00,0.0176
3037.00,0.0175
3036.00,0.0175
3035.00,0.0174
3034.00,0.0173
3033.00,0.0173
3032.00,0.0173
3031.00,0.0173
3030.00,0.0172
3029.00,0.0172
3028.00,0.0172
3027.00,0.0171
3026.00,0.0171
3025.00,0.0170
3024.00,0.0169
3023.00,0.0169
3022.00,0.0168
3021.00,0.0168
3020.00,0.0167
3019.00,0.0167
3018.00,0.0166
3017.00,0.0165
3016.00,0.0165
3015.00,0.0164
3014.00,0.0164
3013.00,0.0163
3012.00,0.0163
3011.00,0.0163
3010.00,0.0163
3009.00,0.0163
3008.00,0.0164
3007.00,0.0163
3006.00,0.0163
3005.00,0.0163
3004.00,0.0163
3003.00,0.0162
3002.00,0.0162
3001.00,0.0162
3000.00,0.0162
2999.00,0.0162
2998.00,0.0162
2997.00,0.0162
2996.00,0.0162
2995.00,0.0162
2994.00,0.0162
2993.00,0.0162
2992.00,0.0163
2991.00,0.0163
2990.00,0.0164
2989.00,0.0164
2988.00,0.0165
2987.00,0.0165
2986.00,0.0166
2985.00,0.0166
2984.00,0.0167
2983.00,0.0167
2982.00,0.0167
2981.00,0.0168
2980.00,0.0168
2979.00,0.0168
2978.00,0.0169
2977.00,0.0169
2976.00,0.0170
2975.00,0.0170
2974.00,0.0171
2973.00,0.0171
2972.00,0.0172
2971.00,0.0172
2970.00,0.0172
2969.00,0.0172
2968.00,0.0172
2967.00,0.0172
2966.00,0.0172
2965.00,0.0172
2964.00,0.0172
2963.00,0.0172
2962.00,0.0171
2961.00,0.0171
2960.00,0.0171
2959.00,0.0171
2958.00,0.0170
2957.00,0.0170
2956.00,0.0170
2955.00,0.0170
2954.00,0.0169
2953.00,0.0169
2952.00,0.0169
2951.00,0.0169
2950.00,0.0169
2949.00,0.0169
2948.00,0.0169
2947.00,0.0169
2946.00,0.0169
2945.00,0.0169
2944.00,0.0169
2943.00,0.0170
2942.00,0.0170
2941.00,0.0170
2940.00,0.0171
2939.00,0.0171
2938.00,0.0171
2937.00,0.0171
2936.00,0.0171
2935.00,0.0171
2934.00,0.0170
2933.00,0.0170
2932.00,0.0169
2931.00,0.0168
2930.00,0.0168
2929.00,0.0167
2928.00,0.0166
2927.00,0.0165
2926.00,0.0164
2925.00,0.0163
2924.00,0.0161
2923.00,0.0160
2922.00,0.0158
2921.00,0.0156
2920.00,0.0154
2919.00,0.0152
2918.00,0.0150
2917.00,0.0149
2916.00,0.0149
2915.00,0.0149
2914.00,0.0150
2913.00,0.0152
2912.00,0.0153
2911.00,0.0155
2910.00,0.0156
2909.00,0.0156
2908.00,0.0156
2907.00,0.0157
2906.00,0.0157
2905.00,0.0157
2904.00,0.0157
2903.00,0.0157
2902.00,0.0157
2901.00,0.0156
2900.00,0.0156
2899.00,0.0156
2898.00,0.0156
2897.00,0.0156
2896.00,0.0156
2895.00,0.0156
2894.00,0.0156
2893.00,0.0156
2892.00,0.0156
2891.00,0.0156
2890.00,0.0157
2889.00,0.0157
2888.00,0.0157
2887.00,0.0157
2886.00,0.0158
2885.00,0.0158
2884.00,0.0158
2883.00,0.0159
2882.00,0.0159
2881.00,0.0159
2880.00,0.0159
2879.00,0.0160
2878.00,0.0160
2877.00,0.0160
2876.00,0.0160
2875.00,0.0160
2874.00,0.0160
2873.00,0.0160
2872.00,0.0160
2871.00,0.0159
2870.00,0.0159
2869.00,0.0159
2868.00,0.0158
2867.00,0.0157
2866.00,0.0157
2865.00,0.0156
2864.00,0.0155
2863.00,0.0154
2862.00,0.0153
2861.00,0.0152
2860.00,0.0151
2859.00,0.0150
2858.00,0.0150
2857.00,0.0149
2856.00,0.0148
2855.00,0.0146
2854.00,0.0145
2853.00,0.0144
2852.00,0.0142
2851.00,0.0140
2850.00,0.0138
2849.00,0.0138
2848.00,0.0138
2847.00,0.0139
2846.00,0.0140
2845.00,0.0142
2844.00,0.0143
2843.00,0.0144
2842.00,0.0145
2841.00,0.0145
2840.00,0.0145
2839.00,0.0145
2838.00,0.0145
2837.00,0.0145
2836.00,0.0145
2835.00,0.0145
2834.00,0.0144
2833.00,0.0144
2832.00,0.0144
2831.00,0.0144
2830.00,0.0144
2829.00,0.0144
2828.00,0.0144
2827.00,0.0143
2826.00,0.0143
2825.00,0.0143
2824.00,0.0143
2823.00,0.0143
2822.00,0.0143
2821.00,0.0143
2820.00,0.0142
2819.00,0.0142
2818.00,0.0142
2817.00,0.0142
2816.00,0.0142
2815.00,0.0141
2814.00,0.0141
2813.00,0.0141
2812.00,0.0141
2811.00,0.0141
2810.00,0.0141
2809.00,0.0141
2808.00,0.0140
2807.00,0.0140
2806.00,0.0140
2805.00,0.0140
2804.00,0.0140
2803.00,0.0140
2802.00,0.0140
2801.00,0.0140
2800.00,0.0139
2799.00,0.0139
2798.00,0.0139
2797.00,0.0139
2796.00,0.0139
2795.00,0.0139
2794.00,0.0139
2793.00,0.0139
2792.00,0.0138
2791.00,0.0138
2790.00,0.0138
2789.00,0.0138
2788.00,0.0138
2787.00,0.0138
2786.00,0.0138
2785.00,0.0138
2784.00,0.0138
2783.00,0.0137
2782.00,0.0137
2781.00,0.0137
2780.00,0.0137
2779.00,0.0137
2778.00,0.0137
2777.00,0.0136
2776.00,0.0136
2775.00,0.0136
2774.00,0.0136
2773.00,0.0136
2772.00,0.0136
2771.00,0.0136
2770.00,0.0136
2769.00,0.0136
2768.00,0.0136
2767.00,0.0136
2766.00,0.0135
2765.00,0.0135
2764.00,0.0135
2763.00,0.0135
2762.00,0.0135
2761.00,0.0135
2760.00,0.0134
2759.00,0.0134
2758.00,0.0134
2757.00,0.0134
2756.00,0.0134
2755.00,0.0134
2754.00,0.0134
2753.00,0.0134
2752.00,0.0134
2751.00,0.0133
2750.00,0.0133
2749.00,0.0133
2748.00,0.0133
2747.00,0.0133
2746.00,0.0133
2745.00,0.0133
2744.00,0.0132
2743.00,0.0132
2742.00,0.0132
2741.00,0.0132
2740.00,0.0132
2739.00,0.0132
2738.00,0.0131
2737.00,0.0131
2736.00,0.0131
2735.00,0.0131
2734.00,0.0131
2733.00,0.0131
2732.00,0.0131
2731.00,0.0131
2730.00,0.0131
2729.00,0.0130
2728.00,0.0130
2727.00,0.0130
2726.00,0.0130
2725.00,0.0130
2724.00,0.0130
2723.00,0.0129
2722.00,0.0129
2721.00,0.0129
2720.00,0.0129
2719.00,0.0129
2718.00,0.0129
2717.00,0.0129
2716.00,0.0129
2715.00,0.0128
2714.00,0.0128
2713.00,0.0128
2712.00,0.0128
2711.00,0.0128
2710.00,0.0128
2709.00,0.0128
2708.00,0.0128
2707.00,0.0127
2706.00,0.0127
2705.00,0.0127
2704.00,0.0127
2703.00,0.0127
2702.00,0.0127
2701.00,0.0127
2700.00,0.0127
2699.00,0.0127
2698.00,0.0126
2697.00,0.0126
2696.00,0.0126
2695.00,0.0126
2694.00,0.0126
2693.00,0.0126
2692.00,0.0126
2691.00,0.0125
2690.00,0.0125
2689.00,0.0125
2688.00,0.0125
2687.00,0.0125
2686.00,0.0125
2685.00,0.0125
2684.00,0.0125
2683.00,0.0125
2682.00,0.0125
2681.00,0.0124
2680.00,0.0124
2679.00,0.0124
2678.00,0.0124
2677.00,0.0124
2676.00,0.0124
2675.00,0.0124
2674.00,0.0124
2673.00,0.0124
2672.00,0.0124
2671.00,0.0124
2670.00,0.0124
2669.00,0.0124
2668.00,0.0124
2667.00,0.0124
2666.00,0.0124
2665.00,0.0124
2664.00,0.0125
2663.00,0.0125
2662.00,0.0125
2661.00,0.0126
2660.00,0.0126
2659.00,0.0126
2658.00,0.0126
2657.00,0.0126
2656.00,0.0126
2655.00,0.0126
2654.00,0.0126
2653.00,0.0126
2652.00,0.0125
2651.00,0.0125
2650.00,0.0125
2649.00,0.0125
2648.00,0.0125
2647.00,0.0125
2646.00,0.0125
2645.00,0.0125
2644.00,0.0125
2643.00,0.0125
2642.00,0.0124
2641.00,0.0124
2640.00,0.0124
2639.00,0.0124
2638.00,0.0124
2637.00,0.0124
2636.00,0.0124
2635.00,0.0123
2634.00,0.0123
2633.00,0.0123
2632.00,0.0123
2631.00,0.0123
2630.00,0.0123
2629.00,0.0122
2628.00,0.0122
2627.00,0.0122
2626.00,0.0122
2625.00,0.0122
2624.00,0.0122
2623.00,0.0122
2622.00,0.0121
2621.00,0.0121
2620.00,0.0121
2619.00,0.0121
2618.00,0.0121
2617.00,0.0121
2616.00,0.0121
2615.00,0.0120
2614.00,0.0120
2613.00,0.0120
2612.00,0.0120
2611.00,0.0120
2610.00,0.0120
2609.00,0.0120
2608.00,0.0119
2607.00,0.0119
2606.00,0.0119
2605.00,0.0119
2604.00,0.0119
2603.00,0.0118
2602.00,0.0118
2601.00,0.0118
2600.00,0.0118
2599.00,0.0118
2598.00,0.0118
2597.00,0.0118
2596.00,0.0118
2595.00,0.0118
2594.00,0.0117
2593.00,0.0117
2592.00,0.0117
2591.00,0.0117
2590.00,0.0117
2589.00,0.0117
2588.00,0.0117
2587.00,0.0116
2586.00,0.0116
2585.00,0.0116
2584.00,0.0116
2583.00,0.0116
2582.00,0.0115
2581.00,0.0115
2580.00,0.0115
2579.00,0.0115
2578.00,0.0115
2577.00,0.0115
2576.00,0.0115
2575.00,0.0114
2574.00,0.0114
2573.00,0.0114
2572.00,0.0114
2571.00,0.0114
2570.00,0.0114
2569.00,0.0114
2568.00,0.0114
2567.00,0.0113
2566.00,0.0113
2565.00,0.0113
2564.00,0.0113
2563.00,0.0113
2562.00,0.0113
2561.00,0.0113
2560.00,0.0113
2559.00,0.0113
2558.00,0.0113
2557.00,0.0113
2556.00,0.0113
2555.00,0.0112
2554.00,0.0112
2553.00,0.0112
2552.00,0.0112
2551.00,0.0112
2550.00,0.0112
2549.00,0.0112
2548.00,0.0112
2547.00,0.0112
2546.00,0.0112
2545.00,0.0111
2544.00,0.0111
2543.00,0.0111
2542.00,0.0111
2541.00,0.0111
2540.00,0.0111
2539.00,0.0111
2538.00,0.0110
2537.00,0.0110
2536.00,0.0110
2535.00,0.0110
2534.00,0.0110
2533.00,0.0110
2532.00,0.0110
2531.00,0.0110
2530.00,0.0110
2529.00,0.0110
2528.00,0.0110
2527.00,0.0110
2526.00,0.0110
2525.00,0.0110
2524.00,0.0110
2523.00,0.0110
2522.00,0.0109
2521.00,0.0109
2520.00,0.0109
2519.00,0.0109
2518.00,0.0109
2517.00,0.0109
2516.00,0.0109
2515.00,0.0108
2514.00,0.0108
2513.00,0.0108
2512.00,0.0108
2511.00,0.0108
2510.00,0.0108
2509.00,0.0108
2508.00,0.0108
2507.00,0.0108
2506.00,0.0108
2505.00,0.0108
2504.00,0.0108
2503.00,0.0108
2502.00,0.0108
2501.00,0.0108
2500.00,0.0108
2499.00,0.0108
2498.00,0.0108
2497.00,0.0108
2496.00,0.0107
2495.00,0.0107
2494.00,0.0107
2493.00,0.0107
2492.00,0.0107
2491.00,0.0107
2490.00,0.0107
2489.00,0.0107
2488.00,0.0107
2487.00,0.0107
2486.00,0.0107
2485.00,0.0107
2484.00,0.0106
2483.00,0.0106
2482.00,0.0106
2481.00,0.0106
2480.00,0.0106
2479.00,0.0106
2478.00,0.0106
2477.00,0.0106
2476.00,0.0106
2475.00,0.0106
2474.00,0.0106
2473.00,0.0106
2472.00,0.0106
2471.00,0.0106
2470.00,0.0106
2469.00,0.0105
2468.00,0.0105
2467.00,0.0106
2466.00,0.0106
2465.00,0.0106
2464.00,0.0106
2463.00,0.0106
2462.00,0.0106
2461.00,0.0106
2460.00,0.0106
2459.00,0.0106
2458.00,0.0106
2457.00,0.0106
2456.00,0.0106
2455.00,0.0106
2454.00,0.0106
2453.00,0.0106
2452.00,0.0106
2451.00,0.0106
2450.00,0.0106
2449.00,0.0106
2448.00,0.0106
2447.00,0.0105
2446.00,0.0105
2445.00,0.0105
2444.00,0.0104
2443.00,0.0104
2442.00,0.0104
2441.00,0.0104
2440.00,0.0104
2439.00,0.0104
2438.00,0.0104
2437.00,0.0104
2436.00,0.0104
2435.00,0.0104
2434.00,0.0103
2433.00,0.0103
2432.00,0.0103
2431.00,0.0103
2430.00,0.0103
2429.00,0.0102
2428.00,0.0102
2427.00,0.0102
2426.00,0.0102
2425.00,0.0102
2424.00,0.0102
2423.00,0.0102
2422.00,0.0102
2421.00,0.0102
2420.00,0.0102
2419.00,0.0102
2418.00,0.0102
2417.00,0.0101
2416.00,0.0101
2415.00,0.0101
2414.00,0.0101
2413.00,0.0101
2412.00,0.0101
2411.00,0.0101
2410.00,0.0101
2409.00,0.0101
2408.00,0.0100
2407.00,0.0100
2406.00,0.0100
2405.00,0.0100
2404.00,0.0100
2403.00,0.0099
2402.00,0.0099
2401.00,0.0099
2400.00,0.0099
2399.00,0.0099
2398.00,0.0099
2397.00,0.0099
2396.00,0.0099
2395.00,0.0098
2394.00,0.0098
2393.00,0.0098
2392.00,0.0098
2391.00,0.0098
2390.00,0.0098
2389.00,0.0098
2388.00,0.0098
2387.00,0.0097
2386.00,0.0097
2385.00,0.0097
2384.00,0.0096
2383.00,0.0096
2382.00,0.0095
2381.00,0.0094
2380.00,0.0094
2379.00,0.0094
2378.00,0.0095
2377.00,0.0095
2376.00,0.0096
2375.00,0.0096
2374.00,0.0096
2373.00,0.0096
2372.00,0.0095
2371.00,0.0095
2370.00,0.0094
2369.00,0.0094
2368.00,0.0095
2367.00,0.0095
2366.00,0.0095
2365.00,0.0095
2364.00,0.0095
2363.00,0.0095
2362.00,0.0096
2361.00,0.0096
2360.00,0.0096
2359.00,0.0096
2358.00,0.0096
2357.00,0.0096
2356.00,0.0096
2355.00,0.0096
2354.00,0.0096
2353.00,0.0096
2352.00,0.0095
2351.00,0.0095
2350.00,0.0096
2349.00,0.0097
2348.00,0.0097
2347.00,0.0097
2346.00,0.0097
2345.00,0.0096
2344.00,0.0097
2343.00,0.0098
2342.00,0.0098
2341.00,0.0098
2340.00,0.0099
2339.00,0.0099
2338.00,0.0099
2337.00,0.0099
2336.00,0.0099
2335.00,0.0099
2334.00,0.0099
2333.00,0.0098
2332.00,0.0097
2331.00,0.0097
2330.00,0.0097
2329.00,0.0099
2328.00,0.0102
2327.00,0.0106
2326.00,0.0109
2325.00,0.0110
2324.00,0.0109
2323.00,0.0107
2322.00,0.0105
2321.00,0.0104
2320.00,0.0103
2319.00,0.0103
2318.00,0.0103
2317.00,0.0102
2316.00,0.0102
2315.00,0.0101
2314.00,0.0101
2313.00,0.0100
2312.00,0.0099
2311.00,0.0099
2310.00,0.0099
2309.00,0.0099
2308.00,0.0099
2307.00,0.0099
2306.00,0.0099
2305.00,0.0099
2304.00,0.0099
2303.00,0.0099
2302.00,0.0099
2301.00,0.0099
2300.00,0.0099
2299.00,0.0100
2298.00,0.0100
2297.00,0.0101
2296.00,0.0101
2295.00,0.0102
2294.00,0.0102
2293.00,0.0103
2292.00,0.0104
2291.00,0.0104
2290.00,0.0105
2289.00,0.0105
2288.00,0.0105
2287.00,0.0105
2286.00,0.0105
2285.00,0.0105
2284.00,0.0105
2283.00,0.0104
2282.00,0.0104
2281.00,0.0103
2280.00,0.0103
2279.00,0.0102
2278.00,0.0102
2277.00,0.0101
2276.00,0.0101
2275.00,0.0100
2274.00,0.0100
2273.00,0.0100
2272.00,0.0100
2271.00,0.0100
2270.00,0.0100
2269.00,0.0099
2268.00,0.0099
2267.00,0.0098
2266.00,0.0097
2265.00,0.0097
2264.00,0.0097
2263.00,0.0097
2262.00,0.0098
2261.00,0.0098
2260.00,0.0099
2259.00,0.0099
2258.00,0.0099
2257.00,0.0098
2256.00,0.0097
2255.00,0.0096
2254.00,0.0096
2253.00,0.0096
2252.00,0.0096
2251.00,0.0096
2250.00,0.0096
2249.00,0.0096
2248.00,0.0096
2247.00,0.0096
2246.00,0.0096
2245.00,0.0096
2244.00,0.0096
2243.00,0.0097
2242.00,0.0097
2241.00,0.0097
2240.00,0.0097
2239.00,0.0097
2238.00,0.0096
2237.00,0.0096
2236.00,0.0096
2235.00,0.0096
2234.00,0.0096
2233.00,0.0096
2232.00,0.0096
2231.00,0.0095
2230.00,0.0095
2229.00,0.0095
2228.00,0.0095
2227.00,0.0095
2226.00,0.0095
2225.00,0.0094
2224.00,0.0094
2223.00,0.0094
2222.00,0.0094
2221.00,0.0094
2220.00,0.0094
2219.00,0.0094
2218.00,0.0094
2217.00,0.0094
2216.00,0.0094
2215.00,0.0095
2214.00,0.0095
2213.00,0.0095
2212.00,0.0094
2211.00,0.0094
2210.00,0.0094
2209.00,0.0094
2208.00,0.0095
2207.00,0.0095
2206.00,0.0095
2205.00,0.0094
2204.00,0.0094
2203.00,0.0093
2202.00,0.0093
2201.00,0.0094
2200.00,0.0094
2199.00,0.0094
2198.00,0.0094
2197.00,0.0094
2196.00,0.0094
2195.00,0.0094
2194.00,0.0094
2193.00,0.0094
2192.00,0.0094
2191.00,0.0094
2190.00,0.0095
2189.00,0.0095
2188.00,0.0096
2187.00,0.0096
2186.00,0.0096
2185.00,0.0095
2184.00,0.0094
2183.00,0.0092
2182.00,0.0090
2181.00,0.0090
2180.00,0.0091
2179.00,0.0091
2178.00,0.0091
2177.00,0.0090
2176.00,0.0088
2175.00,0.0088
2174.00,0.0089
2173.00,0.0091
2172.00,0.0093
2171.00,0.0095
2170.00,0.0097
2169.00,0.0098
2168.00,0.0098
2167.00,0.0098
2166.00,0.0099
2165.00,0.0100
2164.00,0.0102
2163.00,0.0103
2162.00,0.0100
2161.00,0.0092
2160.00,0.0081
2159.00,0.0071
2158.00,0.0065
2157.00,0.0064
2156.00,0.0066
2155.00,0.0068
2154.00,0.0070
2153.00,0.0072
2152.00,0.0073
2151.00,0.0074
2150.00,0.0074
2149.00,0.0075
2148.00,0.0075
2147.00,0.0074
2146.00,0.0074
2145.00,0.0075
2144.00,0.0075
2143.00,0.0076
2142.00,0.0076
2141.00,0.0076
2140.00,0.0076
2139.00,0.0076
2138.00,0.0074
2137.00,0.0073
2136.00,0.0071
2135.00,0.0070
2134.00,0.0070
2133.00,0.0071
2132.00,0.0073
2131.00,0.0074
2130.00,0.0075
2129.00,0.0077
2128.00,0.0078
2127.00,0.0079
2126.00,0.0080
2125.00,0.0080
2124.00,0.0081
2123.00,0.0082
2122.00,0.0082
2121.00,0.0082
2120.00,0.0083
2119.00,0.0083
2118.00,0.0084
2117.00,0.0085
2116.00,0.0086
2115.00,0.0087
2114.00,0.0087
2113.00,0.0087
2112.00,0.0087
2111.00,0.0087
2110.00,0.0087
2109.00,0.0087
2108.00,0.0087
2107.00,0.0086
2106.00,0.0086
2105.00,0.0086
2104.00,0.0086
2103.00,0.0086
2102.00,0.0086
2101.00,0.0086
2100.00,0.0086
2099.00,0.0085
2098.00,0.0084
2097.00,0.0083
2096.00,0.0082
2095.00,0.0081
2094.00,0.0081
2093.00,0.0082
2092.00,0.0083
2091.00,0.0084
2090.00,0.0085
2089.00,0.0085
2088.00,0.0085
2087.00,0.0085
2086.00,0.0085
2085.00,0.0085
2084.00,0.0086
2083.00,0.0086
2082.00,0.0087
2081.00,0.0087
2080.00,0.0087
2079.00,0.0087
2078.00,0.0086
2077.00,0.0086
2076.00,0.0086
2075.00,0.0085
2074.00,0.0085
2073.00,0.0085
2072.00,0.0084
2071.00,0.0083
2070.00,0.0083
2069.00,0.0082
2068.00,0.0083
2067.00,0.0083
2066.00,0.0083
2065.00,0.0083
2064.00,0.0083
2063.00,0.0083
2062.00,0.0083
2061.00,0.0083
2060.00,0.0083
2059.00,0.0083
2058.00,0.0084
2057.00,0.0085
2056.00,0.0085
2055.00,0.0085
2054.00,0.0087
2053.00,0.0090
2052.00,0.0093
2051.00,0.0093
2050.00,0.0091
2049.00,0.0088
2048.00,0.0085
2047.00,0.0083
2046.00,0.0083
2045.00,0.0083
2044.00,0.0083
2043.00,0.0083
2042.00,0.0083
2041.00,0.0083
2040.00,0.0085
2039.00,0.0086
2038.00,0.0086
2037.00,0.0086
2036.00,0.0084
2035.00,0.0082
2034.00,0.0080
2033.00,0.0079
2032.00,0.0078
2031.00,0.0076
2030.00,0.0074
2029.00,0.0074
2028.00,0.0074
2027.00,0.0075
2026.00,0.0075
2025.00,0.0075
2024.00,0.0075
2023.00,0.0075
2022.00,0.0074
2021.00,0.0074
2020.00,0.0073
2019.00,0.0073
2018.00,0.0073
2017.00,0.0073
2016.00,0.0074
2015.00,0.0073
2014.00,0.0073
2013.00,0.0073
2012.00,0.0073
2011.00,0.0074
2010.00,0.0074
2009.00,0.0074
2008.00,0.0072
2007.00,0.0070
2006.00,0.0068
2005.00,0.0068
2004.00,0.0069
2003.00,0.0070
2002.00,0.0071
2001.00,0.0072
2000.00,0.0073
1999.00,0.0073
1998.00,0.0074
1997.00,0.0074
1996.00,0.0075
1995.00,0.0075
1994.00,0.0076
1993.00,0.0076
1992.00,0.0077
1991.00,0.0077
1990.00,0.0077
1989.00,0.0078
1988.00,0.0079
1987.00,0.0079
1986.00,0.0079
1985.00,0.0079
1984.00,0.0081
1983.00,0.0083
1982.00,0.0086
1981.00,0.0087
1980.00,0.0085
1979.00,0.0080
1978.00,0.0074
1977.00,0.0070
1976.00,0.0068
1975.00,0.0067
1974.00,0.0066
1973.00,0.0066
1972.00,0.0066
1971.00,0.0067
1970.00,0.0067
1969.00,0.0067
1968.00,0.0067
1967.00,0.0067
1966.00,0.0066
1965.00,0.0067
1964.00,0.0067
1963.00,0.0067
1962.00,0.0065
1961.00,0.0064
1960.00,0.0063
1959.00,0.0063
1958.00,0.0063
1957.00,0.0064
1956.00,0.0065
1955.00,0.0066
1954.00,0.0065
1953.00,0.0065
1952.00,0.0065
1951.00,0.0065
1950.00,0.0066
1949.00,0.0066
1948.00,0.0066
1947.00,0.0066
1946.00,0.0066
1945.00,0.0066
1944.00,0.0066
1943.00,0.0066
1942.00,0.0066
1941.00,0.0066
1940.00,0.0065
1939.00,0.0065
1938.00,0.0064
1937.00,0.0064
1936.00,0.0064
1935.00,0.0064
1934.00,0.0064
1933.00,0.0065
1932.00,0.0065
1931.00,0.0065
1930.00,0.0065
1929.00,0.0065
1928.00,0.0065
1927.00,0.0065
1926.00,0.0065
1925.00,0.0065
1924.00,0.0065
1923.00,0.0066
1922.00,0.0066
1921.00,0.0067
1920.00,0.0067
1919.00,0.0067
1918.00,0.0066
1917.00,0.0066
1916.00,0.0066
1915.00,0.0066
1914.00,0.0066
1913.00,0.0066
1912.00,0.0066
1911.00,0.0066
1910.00,0.0066
1909.00,0.0066
1908.00,0.0066
1907.00,0.0066
1906.00,0.0066
1905.00,0.0066
1904.00,0.0066
1903.00,0.0066
1902.00,0.0066
1901.00,0.0066
1900.00,0.0065
1899.00,0.0065
1898.00,0.0065
1897.00,0.0065
1896.00,0.0065
1895.00,0.0065
1894.00,0.0065
1893.00,0.0065
1892.00,0.0065
1891.00,0.0065
1890.00,0.0065
1889.00,0.0064
1888.00,0.0064
1887.00,0.0064
1886.00,0.0064
1885.00,0.0064
1884.00,0.0064
1883.00,0.0064
1882.00,0.0064
1881.00,0.0064
1880.00,0.0064
1879.00,0.0064
1878.00,0.0064
1877.00,0.0064
1876.00,0.0064
1875.00,0.0064
1874.00,0.0063
1873.00,0.0063
1872.00,0.0062
1871.00,0.0062
1870.00,0.0062
1869.00,0.0062
1868.00,0.0063
1867.00,0.0063
1866.00,0.0063
1865.00,0.0063
1864.00,0.0063
1863.00,0.0062
1862.00,0.0062
1861.00,0.0062
1860.00,0.0062
1859.00,0.0062
1858.00,0.0062
1857.00,0.0062
1856.00,0.0062
1855.00,0.0061
1854.00,0.0061
1853.00,0.0061
1852.00,0.0061
1851.00,0.0061
1850.00,0.0060
1849.00,0.0060
1848.00,0.0060
1847.00,0.0060
1846.00,0.0059
1845.00,0.0059
1844.00,0.0060
1843.00,0.0060
1842.00,0.0060
1841.00,0.0060
1840.00,0.0060
1839.00,0.0060
1838.00,0.0060
1837.00,0.0060
1836.00,0.0060
1835.00,0.0060
1834.00,0.0059
1833.00,0.0059
1832.00,0.0059
1831.00,0.0059
1830.00,0.0059
1829.00,0.0059
1828.00,0.0058
1827.00,0.0058
1826.00,0.0059
1825.00,0.0059
1824.00,0.0059
1823.00,0.0059
1822.00,0.0059
1821.00,0.0058
1820.00,0.0058
1819.00,0.0057
1818.00,0.0056
1817.00,0.0056
1816.00,0.0056
1815.00,0.0056
1814.00,0.0057
1813.00,0.0057
1812.00,0.0057
1811.00,0.0058
1810.00,0.0058
1809.00,0.0058
1808.00,0.0058
1807.00,0.0058
1806.00,0.0057
1805.00,0.0057
1804.00,0.0057
1803.00,0.0057
1802.00,0.0057
1801.00,0.0057
1800.00,0.0058
1799.00,0.0058
1798.00,0.0057
1797.00,0.0057
1796.00,0.0057
1795.00,0.0057
1794.00,0.0057
1793.00,0.0057
1792.00,0.0057
1791.00,0.0058
1790.00,0.0058
1789.00,0.0058
1788.00,0.0057
1787.00,0.0057
1786.00,0.0057
1785.00,0.0057
1784.00,0.0057
1783.00,0.0057
1782.00,0.0057
1781.00,0.0057
1780.00,0.0057
1779.00,0.0057
1778.00,0.0056
1777.00,0.0056
1776.00,0.0056
1775.00,0.0056
1774.00,0.0056
1773.00,0.0056
1772.00,0.0056
1771.00,0.0056
1770.00,0.0056
1769.00,0.0057
1768.00,0.0057
1767.00,0.0057
1766.00,0.0057
1765.00,0.0057
1764.00,0.0057
1763.00,0.0057
1762.00,0.0057
1761.00,0.0057
1760.00,0.0057
1759.00,0.0057
1758.00,0.0057
1757.00,0.0057
1756.00,0.0058
1755.00,0.0057
1754.00,0.0057
1753.00,0.0057
1752.00,0.0057
1751.00,0.0057
1750.00,0.0057
1749.00,0.0057
1748.00,0.0058
1747.00,0.0058
1746.00,0.0058
1745.00,0.0058
1744.00,0.0059
1743.00,0.0060
1742.00,0.0060
1741.00,0.0061
1740.00,0.0061
1739.00,0.0061
1738.00,0.0061
1737.00,0.0061
1736.00,0.0062
1735.00,0.0064
1734.00,0.0064
1733.00,0.0064
1732.00,0.0065
1731.00,0.0066
1730.00,0.0067
1729.00,0.0068
1728.00,0.0069
1727.00,0.0070
1726.00,0.0070
1725.00,0.0070
1724.00,0.0072
1723.00,0.0072
1722.00,0.0073
1721.00,0.0073
1720.00,0.0074
1719.00,0.0075
1718.00,0.0077
1717.00,0.0078
1716.00,0.0080
1715.00,0.0082
1714.00,0.0084
1713.00,0.0085
1712.00,0.0088
1711.00,0.0090
1710.00,0.0093
1709.00,0.0095
1708.00,0.0099
1707.00,0.0103
1706.00,0.0108
1705.00,0.0115
1704.00,0.0121
1703.00,0.0128
1702.00,0.0137
1701.00,0.0151
1700.00,0.0170
1699.00,0.0186
1698.00,0.0198
1697.00,0.0209
1696.00,0.0219
1695.00,0.0227
1694.00,0.0233
1693.00,0.0236
1692.00,0.0240
1691.00,0.0243
1690.00,0.0247
1689.00,0.0252
1688.00,0.0256
1687.00,0.0261
1686.00,0.0266
1685.00,0.0273
1684.00,0.0283
1683.00,0.0292
1682.00,0.0299
1681.00,0.0307
1680.00,0.0314
1679.00,0.0322
1678.00,0.0329
1677.00,0.0336
1676.00,0.0345
1675.00,0.0354
1674.00,0.0363
1673.00,0.0371
1672.00,0.0379
1671.00,0.0387
1670.00,0.0396
1669.00,0.0406
1668.00,0.0416
1667.00,0.0424
1666.00,0.0432
1665.00,0.0439
1664.00,0.0447
1663.00,0.0456
1662.00,0.0464
1661.00,0.0473
1660.00,0.0481
1659.00,0.0488
1658.00,0.0494
1657.00,0.0499
1656.00,0.0505
1655.00,0.0510
1654.00,0.0517
1653.00,0.0525
1652.00,0.0533
1651.00,0.0539
1650.00,0.0543
1649.00,0.0547
1648.00,0.0552
1647.00,0.0557
1646.00,0.0562
1645.00,0.0567
1644.00,0.0572
1643.00,0.0577
1642.00,0.0581
1641.00,0.0584
1640.00,0.0588
1639.00,0.0592
1638.00,0.0596
1637.00,0.0599
1636.00,0.0604
1635.00,0.0609
1634.00,0.0613
1633.00,0.0618
1632.00,0.0622
1631.00,0.0625
1630.00,0.0628
1629.00,0.0631
1628.00,0.0634
1627.00,0.0638
1626.00,0.0640
1625.00,0.0643
1624.00,0.0644
1623.00,0.0646
1622.00,0.0647
1621.00,0.0648
1620.00,0.0648
1619.00,0.0648
1618.00,0.0645
1617.00,0.0641
1616.00,0.0636
1615.00,0.0633
1614.00,0.0629
1613.00,0.0625
1612.00,0.0619
1611.00,0.0612
1610.00,0.0604
1609.00,0.0596
1608.00,0.0587
1607.00,0.0578
1606.00,0.0568
1605.00,0.0558
1604.00,0.0546
1603.00,0.0535
1602.00,0.0523
1601.00,0.0511
1600.00,0.0499
1599.00,0.0487
1598.00,0.0476
1597.00,0.0465
1596.00,0.0454
1595.00,0.0443
1594.00,0.0432
1593.00,0.0422
1592.00,0.0413
1591.00,0.0403
1590.00,0.0394
1589.00,0.0386
1588.00,0.0377
1587.00,0.0369
1586.00,0.0362
1585.00,0.0356
1584.00,0.0349
1583.00,0.0344
1582.00,0.0339
1581.00,0.0335
1580.00,0.0331
1579.00,0.0329
1578.00,0.0327
1577.00,0.0325
1576.00,0.0323
1575.00,0.0322
1574.00,0.0323
1573.00,0.0324
1572.00,0.0326
1571.00,0.0327
1570.00,0.0330
1569.00,0.0334
1568.00,0.0338
1567.00,0.0341
1566.00,0.0346
1565.00,0.0351
1564.00,0.0356
1563.00,0.0360
1562.00,0.0364
1561.00,0.0367
1560.00,0.0373
1559.00,0.0383
1558.00,0.0393
1557.00,0.0401
1556.00,0.0407
1555.00,0.0413
1554.00,0.0419
1553.00,0.0426
1552.00,0.0432
1551.00,0.0438
1550.00,0.0444
1549.00,0.0451
1548.00,0.0457
1547.00,0.0461
1546.00,0.0466
1545.00,0.0471
1544.00,0.0477
1543.00,0.0482
1542.00,0.0487
1541.00,0.0493
1540.00,0.0500
1539.00,0.0506
1538.00,0.0512
1537.00,0.0517
1536.00,0.0521
1535.00,0.0524
1534.00,0.0529
1533.00,0.0536
1532.00,0.0542
1531.00,0.0547
1530.00,0.0552
1529.00,0.0556
1528.00,0.0561
1527.00,0.0566
1526.00,0.0572
1525.00,0.0578
1524.00,0.0582
1523.00,0.0586
1522.00,0.0591
1521.00,0.0596
1520.00,0.0601
1519.00,0.0605
1518.00,0.0608
1517.00,0.0610
1516.00,0.0612
1515.00,0.0613
1514.00,0.0612
1513.00,0.0610
1512.00,0.0606
1511.00,0.0602
1510.00,0.0598
1509.00,0.0593
1508.00,0.0586
1507.00,0.0575
1506.00,0.0564
1505.00,0.0555
1504.00,0.0548
1503.00,0.0542
1502.00,0.0534
1501.00,0.0525
1500.00,0.0515
1499.00,0.0504
1498.00,0.0493
1497.00,0.0481
1496.00,0.0468
1495.00,0.0457
1494.00,0.0448
1493.00,0.0438
1492.00,0.0428
1491.00,0.0417
1490.00,0.0405
1489.00,0.0394
1488.00,0.0384
1487.00,0.0375
1486.00,0.0367
1485.00,0.0360
1484.00,0.0353
1483.00,0.0346
1482.00,0.0340
1481.00,0.0334
1480.00,0.0329
1479.00,0.0324
1478.00,0.0321
1477.00,0.0317
1476.00,0.0314
1475.00,0.0313
1474.00,0.0311
1473.00,0.0310
1472.00,0.0309
1471.00,0.0309
1470.00,0.0309
1469.00,0.0309
1468.00,0.0309
1467.00,0.0308
1466.00,0.0307
1465.00,0.0307
1464.00,0.0308
1463.00,0.0309
1462.00,0.0310
1461.00,0.0311
1460.00,0.0313
1459.00,0.0315
1458.00,0.0319
1457.00,0.0324
1456.00,0.0329
1455.00,0.0333
1454.00,0.0335
1453.00,0.0337
1452.00,0.0338
1451.00,0.0339
1450.00,0.0339
1449.00,0.0338
1448.00,0.0337
1447.00,0.0336
1446.00,0.0334
1445.00,0.0332
1444.00,0.0329
1443.00,0.0326
1442.00,0.0322
1441.00,0.0319
1440.00,0.0315
1439.00,0.0312
1438.00,0.0308
1437.00,0.0304
1436.00,0.0300
1435.00,0.0297
1434.00,0.0295
1433.00,0.0293
1432.00,0.0291
1431.00,0.0289
1430.00,0.0288
1429.00,0.0286
1428.00,0.0285
1427.00,0.0285
1426.00,0.0285
1425.00,0.0285
1424.00,0.0285
1423.00,0.0286
1422.00,0.0287
1421.00,0.0287
1420.00,0.0288
1419.00,0.0289
1418.00,0.0292
1417.00,0.0294
1416.00,0.0296
1415.00,0.0298
1414.00,0.0299
1413.00,0.0301
1412.00,0.0302
1411.00,0.0304
1410.00,0.0305
1409.00,0.0306
1408.00,0.0307
1407.00,0.0308
1406.00,0.0308
1405.00,0.0309
1404.00,0.0309
1403.00,0.0309
1402.00,0.0309
1401.00,0.0308
1400.00,0.0308
1399.00,0.0307
1398.00,0.0307
1397.00,0.0306
1396.00,0.0306
1395.00,0.0305
1394.00,0.0305
1393.00,0.0305
1392.00,0.0305
1391.00,0.0304
1390.00,0.0304
1389.00,0.0303
1388.00,0.0303
1387.00,0.0302
1386.00,0.0301
1385.00,0.0301
1384.00,0.0299
1383.00,0.0298
1382.00,0.0297
1381.00,0.0296
1380.00,0.0295
1379.00,0.0294
1378.00,0.0293
1377.00,0.0292
1376.00,0.0291
1375.00,0.0290
1374.00,0.0290
1373.00,0.0290
1372.00,0.0290
1371.00,0.0289
1370.00,0.0288
1369.00,0.0287
1368.00,0.0286
1367.00,0.0284
1366.00,0.0282
1365.00,0.0280
1364.00,0.0278
1363.00,0.0277
1362.00,0.0275
1361.00,0.0274
1360.00,0.0273
1359.00,0.0272
1358.00,0.0271
1357.00,0.0270
1356.00,0.0269
1355.00,0.0268
1354.00,0.0267
1353.00,0.0266
1352.00,0.0266
1351.00,0.0265
1350.00,0.0265
1349.00,0.0265
1348.00,0.0265
1347.00,0.0265
1346.00,0.0265
1345.00,0.0265
1344.00,0.0265
1343.00,0.0264
1342.00,0.0264
1341.00,0.0264
1340.00,0.0264
1339.00,0.0265
1338.00,0.0265
1337.00,0.0266
1336.00,0.0266
1335.00,0.0266
1334.00,0.0266
1333.00,0.0265
1332.00,0.0265
1331.00,0.0265
1330.00,0.0265
1329.00,0.0265
1328.00,0.0264
1327.00,0.0264
1326.00,0.0264
1325.00,0.0264
1324.00,0.0263
1323.00,0.0263
1322.00,0.0263
1321.00,0.0263
1320.00,0.0262
1319.00,0.0262
1318.00,0.0262
1317.00,0.0262
1316.00,0.0261
1315.00,0.0261
1314.00,0.0261
1313.00,0.0260
1312.00,0.0260
1311.00,0.0259
1310.00,0.0259
1309.00,0.0258
1308.00,0.0258
1307.00,0.0257
1306.00,0.0257
1305.00,0.0256
1304.00,0.0256
1303.00,0.0255
1302.00,0.0255
1301.00,0.0254
1300.00,0.0253
1299.00,0.0253
1298.00,0.0252
1297.00,0.0252
1296.00,0.0252
1295.00,0.0251
1294.00,0.0251
1293.00,0.0251
1292.00,0.0251
1291.00,0.0251
1290.00,0.0251
1289.00,0.0251
1288.00,0.0251
1287.00,0.0251
1286.00,0.0251
1285.00,0.0251
1284.00,0.0250
1283.00,0.0250
1282.00,0.0250
1281.00,0.0249
1280.00,0.0249
1279.00,0.0249
1278.00,0.0248
1277.00,0.0248
1276.00,0.0247
1275.00,0.0247
1274.00,0.0247
1273.00,0.0247
1272.00,0.0247
1271.00,0.0247
1270.00,0.0247
1269.00,0.0247
1268.00,0.0248
1267.00,0.0249
1266.00,0.0249
1265.00,0.0250
1264.00,0.0251
1263.00,0.0253
1262.00,0.0254
1261.00,0.0256
1260.00,0.0258
1259.00,0.0260
1258.00,0.0262
1257.00,0.0264
1256.00,0.0267
1255.00,0.0269
1254.00,0.0272
1253.00,0.0274
1252.00,0.0277
1251.00,0.0279
1250.00,0.0281
1249.00,0.0283
1248.00,0.0285
1247.00,0.0287
1246.00,0.0288
1245.00,0.0290
1244.00,0.0291
1243.00,0.0293
1242.00,0.0294
1241.00,0.0295
1240.00,0.0296
1239.00,0.0296
1238.00,0.0297
1237.00,0.0297
1236.00,0.0297
1235.00,0.0297
1234.00,0.0298
1233.00,0.0297
1232.00,0.0297
1231.00,0.0297
1230.00,0.0296
1229.00,0.0296
1228.00,0.0295
1227.00,0.0294
1226.00,0.0293
1225.00,0.0292
1224.00,0.0291
1223.00,0.0290
1222.00,0.0288
1221.00,0.0287
1220.00,0.0285
1219.00,0.0284
1218.00,0.0282
1217.00,0.0280
1216.00,0.0278
1215.00,0.0276
1214.00,0.0273
1213.00,0.0271
1212.00,0.0269
1211.00,0.0266
1210.00,0.0263
1209.00,0.0261
1208.00,0.0258
1207.00,0.0255
1206.00,0.0252
1205.00,0.0249
1204.00,0.0247
1203.00,0.0244
1202.00,0.0241
1201.00,0.0239
1200.00,0.0236
1199.00,0.0234
1198.00,0.0231
1197.00,0.0229
1196.00,0.0228
1195.00,0.0226
1194.00,0.0224
1193.00,0.0223
1192.00,0.0221
1191.00,0.0220
1190.00,0.0219
1189.00,0.0218
1188.00,0.0217
1187.00,0.0216
1186.00,0.0216
1185.00,0.0215
1184.00,0.0215
1183.00,0.0215
1182.00,0.0215
1181.00,0.0215
1180.00,0.0216
1179.00,0.0216
1178.00,0.0217
1177.00,0.0218
1176.00,0.0219
1175.00,0.0221
1174.00,0.0223
1173.00,0.0225
1172.00,0.0227
1171.00,0.0229
1170.00,0.0231
1169.00,0.0232
1168.00,0.0234
1167.00,0.0235
1166.00,0.0237
1165.00,0.0238
1164.00,0.0240
1163.00,0.0241
1162.00,0.0242
1161.00,0.0243
1160.00,0.0243
1159.00,0.0243
1158.00,0.0243
1157.00,0.0243
1156.00,0.0242
1155.00,0.0241
1154.00,0.0240
1153.00,0.0239
1152.00,0.0237
1151.00,0.0235
1150.00,0.0234
1149.00,0.0232
1148.00,0.0230
1147.00,0.0228
1146.00,0.0226
1145.00,0.0224
1144.00,0.0222
1143.00,0.0221
1142.00,0.0220
1141.00,0.0219
1140.00,0.0218
1139.00,0.0217
1138.00,0.0216
1137.00,0.0216
1136.00,0.0215
1135.00,0.0215
1134.00,0.0214
1133.00,0.0214
1132.00,0.0214
1131.00,0.0213
1130.00,0.0213
1129.00,0.0213
1128.00,0.0212
1127.00,0.0212
1126.00,0.0212
1125.00,0.0211
1124.00,0.0211
1123.00,0.0211
1122.00,0.0210
1121.00,0.0210
1120.00,0.0209
1119.00,0.0209
1118.00,0.0209
1117.00,0.0209
1116.00,0.0209
1115.00,0.0209
1114.00,0.0208
1113.00,0.0208
1112.00,0.0208
1111.00,0.0208
1110.00,0.0208
1109.00,0.0208
1108.00,0.0208
1107.00,0.0209
1106.00,0.0209
1105.00,0.0210
1104.00,0.0210
1103.00,0.0211
1102.00,0.0212
1101.00,0.0212
1100.00,0.0213
1099.00,0.0214
1098.00,0.0215
1097.00,0.0216
1096.00,0.0217
1095.00,0.0219
1094.00,0.0221
1093.00,0.0223
1092.00,0.0226
1091.00,0.0228
1090.00,0.0231
1089.00,0.0235
1088.00,0.0238
1087.00,0.0242
1086.00,0.0246
1085.00,0.0250
1084.00,0.0254
1083.00,0.0258
1082.00,0.0262
1081.00,0.0266
1080.00,0.0270
1079.00,0.0274
1078.00,0.0278
1077.00,0.0281
1076.00,0.0285
1075.00,0.0288
1074.00,0.0290
1073.00,0.0292
1072.00,0.0294
1071.00,0.0296
1070.00,0.0297
1069.00,0.0299
1068.00,0.0300
1067.00,0.0300
1066.00,0.0301
1065.00,0.0301
1064.00,0.0301
1063.00,0.0300
1062.00,0.0300
1061.00,0.0299
1060.00,0.0298
1059.00,0.0296
1058.00,0.0295
1057.00,0.0293
1056.00,0.0292
1055.00,0.0290
1054.00,0.0289
1053.00,0.0287
1052.00,0.0285
1051.00,0.0283
1050.00,0.0282
1049.00,0.0280
1048.00,0.0278
1047.00,0.0277
1046.00,0.0275
1045.00,0.0273
1044.00,0.0271
1043.00,0.0268
1042.00,0.0266
1041.00,0.0263
1040.00,0.0261
1039.00,0.0258
1038.00,0.0255
1037.00,0.0253
1036.00,0.0250
1035.00,0.0248
1034.00,0.0246
1033.00,0.0244
1032.00,0.0242
1031.00,0.0239
1030.00,0.0237
1029.00,0.0234
1028.00,0.0231
1027.00,0.0228
1026.00,0.0225
1025.00,0.0222
1024.00,0.0220
1023.00,0.0217
1022.00,0.0215
1021.00,0.0212
1020.00,0.0210
1019.00,0.0207
1018.00,0.0205
1017.00,0.0203
1016.00,0.0201
1015.00,0.0199
1014.00,0.0197
1013.00,0.0195
1012.00,0.0194
1011.00,0.0192
1010.00,0.0191
1009.00,0.0189
1008.00,0.0188
1007.00,0.0187
1006.00,0.0186
1005.00,0.0185
1004.00,0.0184
1003.00,0.0182
1002.00,0.0181
1001.00,0.0180
1000.00,0.0179
999.00,0.0178
998.00,0.0177
997.00,0.0176
996.00,0.0176
995.00,0.0175
994.00,0.0175
993.00,0.0174
992.00,0.0173
991.00,0.0172
990.00,0.0171
989.00,0.0170
988.00,0.0169
987.00,0.0169
986.00,0.0168
985.00,0.0168
984.00,0.0168
983.00,0.0167
982.00,0.0166
981.00,0.0166
980.00,0.0166
979.00,0.0166
978.00,0.0166
977.00,0.0166
976.00,0.0166
975.00,0.0166
974.00,0.0166
973.00,0.0166
972.00,0.0167
971.00,0.0167
970.00,0.0168
969.00,0.0169
968.00,0.0170
967.00,0.0171
966.00,0.0173
965.00,0.0174
964.00,0.0175
963.00,0.0176
962.00,0.0177
961.00,0.0177
960.00,0.0176
959.00,0.0176
958.00,0.0175
957.00,0.0174
956.00,0.0173
955.00,0.0172
954.00,0.0172
953.00,0.0171
952.00,0.0170
951.00,0.0170
950.00,0.0169
949.00,0.0169
948.00,0.0168
947.00,0.0168
946.00,0.0167
945.00,0.0167
944.00,0.0166
943.00,0.0166
942.00,0.0166
941.00,0.0165
940.00,0.0165
939.00,0.0165
938.00,0.0165
937.00,0.0164
936.00,0.0164
935.00,0.0164
934.00,0.0164
933.00,0.0164
932.00,0.0164
931.00,0.0163
930.00,0.0163
929.00,0.0163
928.00,0.0162
927.00,0.0162
926.00,0.0161
925.00,0.0161
924.00,0.0160
923.00,0.0159
922.00,0.0158
921.00,0.0157
920.00,0.0156
919.00,0.0156
918.00,0.0155
917.00,0.0155
916.00,0.0155
915.00,0.0155
914.00,0.0154
913.00,0.0154
912.00,0.0154
911.00,0.0154
910.00,0.0154
909.00,0.0154
908.00,0.0155
907.00,0.0155
906.00,0.0155
905.00,0.0156
904.00,0.0156
903.00,0.0156
902.00,0.0157
901.00,0.0157
900.00,0.0156
899.00,0.0156
898.00,0.0156
897.00,0.0156
896.00,0.0155
895.00,0.0154
894.00,0.0154
893.00,0.0153
892.00,0.0153
891.00,0.0152
890.00,0.0152
889.00,0.0151
888.00,0.0151
887.00,0.0150
886.00,0.0150
885.00,0.0149
884.00,0.0149
883.00,0.0149
882.00,0.0149
881.00,0.0148
880.00,0.0148
879.00,0.0148
878.00,0.0148
877.00,0.0148
876.00,0.0148
875.00,0.0149
874.00,0.0149
873.00,0.0149
872.00,0.0149
871.00,0.0149
870.00,0.0149
869.00,0.0149
868.00,0.0149
867.00,0.0149
866.00,0.0149
865.00,0.0148
864.00,0.0148
863.00,0.0148
862.00,0.0148
861.00,0.0148
860.00,0.0148
859.00,0.0148
858.00,0.0148
857.00,0.0148
856.00,0.0149
855.00,0.0149
854.00,0.0150
853.00,0.0150
852.00,0.0150
851.00,0.0151
850.00,0.0151
849.00,0.0151
848.00,0.0151
847.00,0.0152
846.00,0.0152
845.00,0.0152
844.00,0.0153
843.00,0.0153
842.00,0.0154
841.00,0.0155
840.00,0.0156
839.00,0.0157
838.00,0.0158
837.00,0.0159
836.00,0.0160
835.00,0.0162
834.00,0.0163
833.00,0.0165
832.00,0.0167
831.00,0.0168
830.00,0.0170
829.00,0.0171
828.00,0.0172
827.00,0.0173
826.00,0.0174
825.00,0.0175
824.00,0.0176
823.00,0.0177
822.00,0.0177
821.00,0.0177
820.00,0.0178
819.00,0.0179
818.00,0.0181
817.00,0.0182
816.00,0.0183
815.00,0.0185
814.00,0.0186
813.00,0.0188
812.00,0.0188
811.00,0.0189
810.00,0.0190
809.00,0.0190
808.00,0.0191
807.00,0.0192
806.00,0.0193
805.00,0.0194
804.00,0.0194
803.00,0.0195
802.00,0.0196
801.00,0.0197
800.00,0.0198
799.00,0.0199
798.00,0.0200
797.00,0.0202
796.00,0.0203
795.00,0.0205
794.00,0.0207
793.00,0.0208
792.00,0.0210
791.00,0.0212
790.00,0.0214
789.00,0.0215
788.00,0.0217
787.00,0.0219
786.00,0.0222
785.00,0.0224
784.00,0.0226
783.00,0.0228
782.00,0.0230
781.00,0.0232
780.00,0.0234
779.00,0.0236
778.00,0.0238
777.00,0.0240
776.00,0.0242
775.00,0.0244
774.00,0.0245
773.00,0.0247
772.00,0.0248
771.00,0.0250
770.00,0.0251
769.00,0.0252
768.00,0.0253
767.00,0.0253
766.00,0.0254
765.00,0.0255
764.00,0.0255
763.00,0.0256
762.00,0.0256
761.00,0.0257
760.00,0.0258
759.00,0.0259
758.00,0.0260
757.00,0.0261
756.00,0.0263
755.00,0.0264
754.00,0.0266
753.00,0.0267
752.00,0.0268
751.00,0.0270
750.00,0.0271
749.00,0.0272
748.00,0.0273
747.00,0.0274
746.00,0.0275
745.00,0.0276
744.00,0.0276
743.00,0.0277
742.00,0.0278
741.00,0.0279
740.00,0.0280
739.00,0.0281
738.00,0.0282
737.00,0.0284
736.00,0.0285
735.00,0.0287
734.00,0.0289
733.00,0.0292
732.00,0.0294
731.00,0.0297
730.00,0.0300
729.00,0.0303
728.00,0.0307
727.00,0.0312
726.00,0.0316
725.00,0.0321
724.00,0.0325
723.00,0.0330
722.00,0.0335
721.00,0.0340
720.00,0.0345
719.00,0.0350
718.00,0.0355
717.00,0.0360
716.00,0.0365
715.00,0.0371
714.00,0.0376
713.00,0.0381
712.00,0.0386
711.00,0.0390
710.00,0.0395
709.00,0.0399
708.00,0.0404
707.00,0.0408
706.00,0.0413
705.00,0.0417
704.00,0.0421
703.00,0.0425
702.00,0.0429
701.00,0.0431
700.00,0.0433
699.00,0.0434
698.00,0.0435
697.00,0.0436
696.00,0.0436
695.00,0.0435
694.00,0.0435
693.00,0.0435
692.00,0.0434
691.00,0.0434
690.00,0.0435
689.00,0.0435
688.00,0.0436
687.00,0.0436
686.00,0.0436
685.00,0.0437
684.00,0.0437
683.00,0.0437
682.00,0.0437
681.00,0.0437
680.00,0.0437
679.00,0.0437
678.00,0.0438
677.00,0.0438
676.00,0.0438
675.00,0.0439
674.00,0.0439
673.00,0.0439
672.00,0.0438
671.00,0.0438
670.00,0.0439
669.00,0.0439
668.00,0.0440
667.00,0.0442
666.00,0.0442
665.00,0.0441
664.00,0.0441
663.00,0.0442
662.00,0.0443
661.00,0.0444
660.00,0.0445
659.00,0.0445
658.00,0.0446
657.00,0.0447
656.00,0.0447
655.00,0.0448
654.00,0.0449
653.00,0.0450
652.00,0.0451
651.00,0.0452
650.00,0.0454
649.00,0.0455
648.00,0.0456
647.00,0.0458
646.00,0.0460
645.00,0.0461
644.00,0.0462
643.00,0.0464
642.00,0.0465
641.00,0.0467
640.00,0.0469
639.00,0.0472
638.00,0.0473
637.00,0.0475
636.00,0.0476
635.00,0.0478
634.00,0.0479
633.00,0.0481
632.00,0.0483
631.00,0.0484
630.00,0.0485
629.00,0.0486
628.00,0.0487
627.00,0.0487
626.00,0.0487
625.00,0.0487
624.00,0.0487
623.00,0.0487
622.00,0.0487
621.00,0.0486
620.00,0.0486
619.00,0.0485
618.00,0.0484
617.00,0.0483
616.00,0.0481
615.00,0.0480
614.00,0.0478
613.00,0.0476
612.00,0.0475
611.00,0.0473
610.00,0.0471
609.00,0.0470
608.00,0.0470
607.00,0.0469
606.00,0.0469
605.00,0.0468
604.00,0.0467
603.00,0.0467
602.00,0.0466
601.00,0.0466
600.00,0.0465
599.00,0.0465
598.00,0.0465
597.00,0.0465
596.00,0.0464
595.00,0.0464
594.00,0.0464
593.00,0.0464
592.00,0.0464
591.00,0.0463
590.00,0.0463
589.00,0.0463
588.00,0.0463
587.00,0.0464
586.00,0.0464
585.00,0.0465
584.00,0.0465
583.00,0.0465
582.00,0.0465
581.00,0.0466
580.00,0.0466
579.00,0.0467
578.00,0.0467
577.00,0.0467
576.00,0.0467
575.00,0.0468
574.00,0.0468
573.00,0.0469
572.00,0.0470
571.00,0.0470
570.00,0.0471
569.00,0.0471
568.00,0.0471
567.00,0.0471
566.00,0.0471
565.00,0.0471
564.00,0.0472
563.00,0.0473
562.00,0.0474
561.00,0.0474
560.00,0.0474
559.00,0.0475
558.00,0.0476
557.00,0.0476
556.00,0.0476
555.00,0.0477
554.00,0.0477
553.00,0.0477
552.00,0.0478
551.00,0.0478
550.00,0.0478
549.00,0.0478
548.00,0.0478
547.00,0.0478
546.00,0.0478
545.00,0.0478
544.00,0.0478
543.00,0.0479
542.00,0.0479
541.00,0.0479
540.00,0.0478
539.00,0.0478
538.00,0.0478
537.00,0.0479
536.00,0.0479
535.00,0.0479
534.00,0.0479
533.00,0.0479
532.00,0.0479
531.00,0.0479
530.00,0.0479
529.00,0.0479
528.00,0.0480
527.00,0.0480
526.00,0.0481
525.00,0.0482
524.00,0.0483
523.00,0.0483
522.00,0.0483
521.00,0.0482
520.00,0.0482
519.00,0.0482
518.00,0.0482
517.00,0.0482
516.00,0.0482
515.00,0.0481
514.00,0.0481
513.00,0.0480
512.00,0.0479
511.00,0.0478
510.00,0.0478
509.00,0.0479
508.00,0.0480
507.00,0.0480
506.00,0.0480
505.00,0.0479
504.00,0.0478
503.00,0.0476
502.00,0.0476
501.00,0.0476
500.00,0.0476
499.00,0.0475
498.00,0.0475
497.00,0.0475
496.00,0.0475
495.00,0.0474
494.00,0.0474
493.00,0.0473
492.00,0.0473
491.00,0.0473
490.00,0.0473
489.00,0.0474
488.00,0.0475
487.00,0.0475
486.00,0.0476
485.00,0.0476
484.00,0.0475
483.00,0.0474
482.00,0.0472
481.00,0.0471
480.00,0.0470
479.00,0.0470
478.00,0.0471
477.00,0.0473
476.00,0.0474
475.00,0.0473
474.00,0.0472
473.00,0.0470
472.00,0.0469
471.00,0.0469
470.00,0.0470
469.00,0.0472
468.00,0.0474
467.00,0.0474
466.00,0.0473
465.00,0.0472
464.00,0.0470
463.00,0.0469
462.00,0.0469
461.00,0.0470
460.00,0.0471
459.00,0.0472
458.00,0.0472
457.00,0.0472
456.00,0.0471
455.00,0.0471
454.00,0.0469
453.00,0.0468
452.00,0.0467
451.00,0.0467
450.00,0.0467
449.00,0.0467
448.00,0.0467
447.00,0.0466
446.00,0.0465
445.00,0.0463
444.00,0.0462
443.00,0.0458
442.00,0.0454
441.00,0.0449
440.00,0.0446
439.00,0.0444
438.00,0.0443
437.00,0.0441
436.00,0.0438
435.00,0.0435
434.00,0.0431
433.00,0.0428
432.00,0.0426
431.00,0.0425
430.00,0.0424
429.00,0.0422
428.00,0.0420
427.00,0.0418
426.00,0.0417
425.00,0.0415
424.00,0.0413
423.00,0.0411
422.00,0.0408
421.00,0.0405
420.00,0.0402
419.00,0.0399
418.00,0.0397
417.00,0.0396
416.00,0.0396
415.00,0.0397
414.00,0.0398
413.00,0.0398
412.00,0.0397
411.00,0.0393
410.00,0.0388
409.00,0.0383
408.00,0.0380
407.00,0.0378
406.00,0.0376
405.00,0.0374
404.00,0.0372
403.00,0.0372
402.00,0.0372
401.00,0.0374
400.00,0.0378
