Created as New Dataset,Sample 308 By YargerLab Date Sunday, August 18 2024
cm-1,A
4000.00,0.0078
3999.00,0.0077
3998.00,0.0077
3997.00,0.0077
3996.00,0.0077
3995.00,0.0077
3994.00,0.0077
3993.00,0.0077
3992.00,0.0077
3991.00,0.0077
3990.00,0.0078
3989.00,0.0078
3988.00,0.0078
3987.00,0.0078
3986.00,0.0078
3985.00,0.0078
3984.00,0.0077
3983.00,0.0077
3982.00,0.0077
3981.00,0.0077
3980.00,0.0077
3979.00,0.0077
3978.00,0.0077
3977.00,0.0077
3976.00,0.0077
3975.00,0.0077
3974.00,0.0078
3973.00,0.0078
3972.00,0.0078
3971.00,0.0078
3970.00,0.0078
3969.00,0.0078
3968.00,0.0077
3967.00,0.0077
3966.00,0.0077
3965.00,0.0077
3964.00,0.0077
3963.00,0.0077
3962.00,0.0077
3961.00,0.0077
3960.00,0.0077
3959.00,0.0077
3958.00,0.0077
3957.00,0.0077
3956.00,0.0077
3955.00,0.0077
3954.00,0.0077
3953.00,0.0077
3952.00,0.0077
3951.00,0.0077
3950.00,0.0077
3949.00,0.0077
3948.00,0.0077
3947.00,0.0077
3946.00,0.0077
3945.00,0.0077
3944.00,0.0077
3943.00,0.0077
3942.00,0.0077
3941.00,0.0077
3940.00,0.0077
3939.00,0.0077
3938.00,0.0077
3937.00,0.0077
3936.00,0.0077
3935.00,0.0077
3934.00,0.0077
3933.00,0.0077
3932.00,0.0077
3931.00,0.0077
3930.00,0.0077
3929.00,0.0077
3928.00,0.0077
3927.00,0.0077
3926.00,0.0077
3925.00,0.0077
3924.00,0.0077
3923.00,0.0077
3922.00,0.0077
3921.00,0.0077
3920.00,0.0077
3919.00,0.0077
3918.00,0.0077
3917.00,0.0077
3916.00,0.0077
3915.00,0.0077
3914.00,0.0077
3913.00,0.0077
3912.00,0.0077
3911.00,0.0077
3910.00,0.0076
3909.00,0.0076
3908.00,0.0076
3907.00,0.0076
3906.00,0.0076
3905.00,0.0076
3904.00,0.0077
3903.00,0.0077
3902.00,0.0077
3901.00,0.0077
3900.00,0.0077
3899.00,0.0076
3898.00,0.0076
3897.00,0.0076
3896.00,0.0076
3895.00,0.0076
3894.00,0.0076
3893.00,0.0076
3892.00,0.0076
3891.00,0.0076
3890.00,0.0076
3889.00,0.0076
3888.00,0.0076
3887.00,0.0076
3886.00,0.0076
3885.00,0.0076
3884.00,0.0076
3883.00,0.0076
3882.00,0.0076
3881.00,0.0076
3880.00,0.0075
3879.00,0.0075
3878.00,0.0076
3877.00,0.0076
3876.00,0.0076
3875.00,0.0076
3874.00,0.0075
3873.00,0.0075
3872.00,0.0076
3871.00,0.0076
3870.00,0.0076
3869.00,0.0076
3868.00,0.0076
3867.00,0.0076
3866.00,0.0076
3865.00,0.0075
3864.00,0.0075
3863.00,0.0075
3862.00,0.0075
3861.00,0.0075
3860.00,0.0075
3859.00,0.0075
3858.00,0.0075
3857.00,0.0075
3856.00,0.0075
3855.00,0.0075
3854.00,0.0075
3853.00,0.0075
3852.00,0.0075
3851.00,0.0075
3850.00,0.0075
3849.00,0.0075
3848.00,0.0075
3847.00,0.0075
3846.00,0.0075
3845.00,0.0075
3844.00,0.0075
3843.00,0.0075
3842.00,0.0075
3841.00,0.0075
3840.00,0.0075
3839.00,0.0075
3838.00,0.0075
3837.00,0.0075
3836.00,0.0075
3835.00,0.0075
3834.00,0.0074
3833.00,0.0074
3832.00,0.0074
3831.00,0.0074
3830.00,0.0074
3829.00,0.0074
3828.00,0.0074
3827.00,0.0074
3826.00,0.0074
3825.00,0.0074
3824.00,0.0074
3823.00,0.0074
3822.00,0.0074
3821.00,0.0074
3820.00,0.0074
3819.00,0.0074
3818.00,0.0074
3817.00,0.0074
3816.00,0.0074
3815.00,0.0074
3814.00,0.0074
3813.00,0.0074
3812.00,0.0074
3811.00,0.0074
3810.00,0.0074
3809.00,0.0074
3808.00,0.0074
3807.00,0.0074
3806.00,0.0074
3805.00,0.0074
3804.00,0.0074
3803.00,0.0074
3802.00,0.0073
3801.00,0.0073
3800.00,0.0073
3799.00,0.0073
3798.00,0.0073
3797.00,0.0073
3796.00,0.0073
3795.00,0.0073
3794.00,0.0073
3793.00,0.0073
3792.00,0.0073
3791.00,0.0073
3790.00,0.0073
3789.00,0.0073
3788.00,0.0073
3787.00,0.0073
3786.00,0.0073
3785.00,0.0073
3784.00,0.0073
3783.00,0.0073
3782.00,0.0073
3781.00,0.0073
3780.00,0.0073
3779.00,0.0073
3778.00,0.0073
3777.00,0.0073
3776.00,0.0073
3775.00,0.0073
3774.00,0.0073
3773.00,0.0073
3772.00,0.0073
3771.00,0.0073
3770.00,0.0072
3769.00,0.0072
3768.00,0.0072
3767.00,0.0072
3766.00,0.0072
3765.00,0.0072
3764.00,0.0072
3763.00,0.0073
3762.00,0.0073
3761.00,0.0073
3760.00,0.0073
3759.00,0.0073
3758.00,0.0073
3757.00,0.0073
3756.00,0.0073
3755.00,0.0072
3754.00,0.0072
3753.00,0.0072
3752.00,0.0073
3751.00,0.0073
3750.00,0.0073
3749.00,0.0073
3748.00,0.0073
3747.00,0.0073
3746.00,0.0073
3745.00,0.0073
3744.00,0.0073
3743.00,0.0072
3742.00,0.0072
3741.00,0.0072
3740.00,0.0072
3739.00,0.0072
3738.00,0.0072
3737.00,0.0072
3736.00,0.0072
3735.00,0.0071
3734.00,0.0071
3733.00,0.0071
3732.00,0.0071
3731.00,0.0071
3730.00,0.0071
3729.00,0.0071
3728.00,0.0071
3727.00,0.0071
3726.00,0.0071
3725.00,0.0071
3724.00,0.0071
3723.00,0.0071
3722.00,0.0071
3721.00,0.0071
3720.00,0.0070
3719.00,0.0070
3718.00,0.0070
3717.00,0.0070
3716.00,0.0070
3715.00,0.0070
3714.00,0.0070
3713.00,0.0070
3712.00,0.0070
3711.00,0.0070
3710.00,0.0070
3709.00,0.0070
3708.00,0.0070
3707.00,0.0070
3706.00,0.0070
3705.00,0.0069
3704.00,0.0069
3703.00,0.0069
3702.00,0.0068
3701.00,0.0068
3700.00,0.0068
3699.00,0.0069
3698.00,0.0069
3697.00,0.0069
3696.00,0.0069
3695.00,0.0069
3694.00,0.0069
3693.00,0.0069
3692.00,0.0069
3691.00,0.0069
3690.00,0.0068
3689.00,0.0068
3688.00,0.0068
3687.00,0.0068
3686.00,0.0068
3685.00,0.0069
3684.00,0.0069
3683.00,0.0069
3682.00,0.0069
3681.00,0.0069
3680.00,0.0069
3679.00,0.0069
3678.00,0.0069
3677.00,0.0069
3676.00,0.0069
3675.00,0.0069
3674.00,0.0069
3673.00,0.0069
3672.00,0.0069
3671.00,0.0069
3670.00,0.0069
3669.00,0.0069
3668.00,0.0069
3667.00,0.0070
3666.00,0.0070
3665.00,0.0070
3664.00,0.0070
3663.00,0.0070
3662.00,0.0070
3661.00,0.0070
3660.00,0.0070
3659.00,0.0070
3658.00,0.0071
3657.00,0.0071
3656.00,0.0071
3655.00,0.0071
3654.00,0.0071
3653.00,0.0071
3652.00,0.0071
3651.00,0.0071
3650.00,0.0072
3649.00,0.0072
3648.00,0.0072
3647.00,0.0072
3646.00,0.0072
3645.00,0.0073
3644.00,0.0073
3643.00,0.0073
3642.00,0.0073
3641.00,0.0073
3640.00,0.0073
3639.00,0.0073
3638.00,0.0074
3637.00,0.0074
3636.00,0.0074
3635.00,0.0074
3634.00,0.0074
3633.00,0.0074
3632.00,0.0075
3631.00,0.0075
3630.00,0.0075
3629.00,0.0076
3628.00,0.0076
3627.00,0.0076
3626.00,0.0076
3625.00,0.0076
3624.00,0.0076
3623.00,0.0076
3622.00,0.0076
3621.00,0.0076
3620.00,0.0076
3619.00,0.0077
3618.00,0.0077
3617.00,0.0078
3616.00,0.0079
3615.00,0.0079
3614.00,0.0079
3613.00,0.0080
3612.00,0.0080
3611.00,0.0080
3610.00,0.0080
3609.00,0.0080
3608.00,0.0081
3607.00,0.0081
3606.00,0.0081
3605.00,0.0081
3604.00,0.0082
3603.00,0.0082
3602.00,0.0082
3601.00,0.0082
3600.00,0.0082
3599.00,0.0082
3598.00,0.0083
3597.00,0.0083
3596.00,0.0083
3595.00,0.0084
3594.00,0.0084
3593.00,0.0084
3592.00,0.0085
3591.00,0.0085
3590.00,0.0085
3589.00,0.0085
3588.00,0.0085
3587.00,0.0086
3586.00,0.0086
3585.00,0.0087
3584.00,0.0087
3583.00,0.0087
3582.00,0.0087
3581.00,0.0087
3580.00,0.0088
3579.00,0.0088
3578.00,0.0089
3577.00,0.0089
3576.00,0.0089
3575.00,0.0090
3574.00,0.0090
3573.00,0.0090
3572.00,0.0091
3571.00,0.0091
3570.00,0.0092
3569.00,0.0092
3568.00,0.0092
3567.00,0.0093
3566.00,0.0093
3565.00,0.0094
3564.00,0.0094
3563.00,0.0094
3562.00,0.0095
3561.00,0.0095
3560.00,0.0095
3559.00,0.0095
3558.00,0.0096
3557.00,0.0096
3556.00,0.0097
3555.00,0.0097
3554.00,0.0098
3553.00,0.0098
3552.00,0.0098
3551.00,0.0099
3550.00,0.0099
3549.00,0.0100
3548.00,0.0100
3547.00,0.0101
3546.00,0.0101
3545.00,0.0102
3544.00,0.0102
3543.00,0.0102
3542.00,0.0102
3541.00,0.0103
3540.00,0.0103
3539.00,0.0103
3538.00,0.0104
3537.00,0.0104
3536.00,0.0105
3535.00,0.0105
3534.00,0.0105
3533.00,0.0106
3532.00,0.0106
3531.00,0.0106
3530.00,0.0107
3529.00,0.0107
3528.00,0.0108
3527.00,0.0108
3526.00,0.0109
3525.00,0.0109
3524.00,0.0110
3523.00,0.0110
3522.00,0.0110
3521.00,0.0111
3520.00,0.0111
3519.00,0.0111
3518.00,0.0111
3517.00,0.0112
3516.00,0.0112
3515.00,0.0112
3514.00,0.0113
3513.00,0.0113
3512.00,0.0114
3511.00,0.0114
3510.00,0.0114
3509.00,0.0115
3508.00,0.0115
3507.00,0.0116
3506.00,0.0116
3505.00,0.0117
3504.00,0.0117
3503.00,0.0118
3502.00,0.0118
3501.00,0.0118
3500.00,0.0119
3499.00,0.0119
3498.00,0.0120
3497.00,0.0120
3496.00,0.0120
3495.00,0.0121
3494.00,0.0121
3493.00,0.0121
3492.00,0.0122
3491.00,0.0122
3490.00,0.0123
3489.00,0.0123
3488.00,0.0123
3487.00,0.0124
3486.00,0.0124
3485.00,0.0125
3484.00,0.0125
3483.00,0.0125
3482.00,0.0126
3481.00,0.0126
3480.00,0.0127
3479.00,0.0127
3478.00,0.0128
3477.00,0.0128
3476.00,0.0128
3475.00,0.0129
3474.00,0.0129
3473.00,0.0130
3472.00,0.0130
3471.00,0.0131
3470.00,0.0131
3469.00,0.0131
3468.00,0.0132
3467.00,0.0132
3466.00,0.0132
3465.00,0.0133
3464.00,0.0133
3463.00,0.0134
3462.00,0.0134
3461.00,0.0135
3460.00,0.0135
3459.00,0.0135
3458.00,0.0136
3457.00,0.0136
3456.00,0.0136
3455.00,0.0137
3454.00,0.0137
3453.00,0.0138
3452.00,0.0138
3451.00,0.0139
3450.00,0.0139
3449.00,0.0139
3448.00,0.0140
3447.00,0.0140
3446.00,0.0140
3445.00,0.0141
3444.00,0.0141
3443.00,0.0142
3442.00,0.0142
3441.00,0.0143
3440.00,0.0143
3439.00,0.0144
3438.00,0.0144
3437.00,0.0145
3436.00,0.0145
3435.00,0.0145
3434.00,0.0146
3433.00,0.0146
3432.00,0.0147
3431.00,0.0147
3430.00,0.0147
3429.00,0.0148
3428.00,0.0148
3427.00,0.0149
3426.00,0.0149
3425.00,0.0149
3424.00,0.0150
3423.00,0.0150
3422.00,0.0151
3421.00,0.0151
3420.00,0.0152
3419.00,0.0152
3418.00,0.0152
3417.00,0.0153
3416.00,0.0153
3415.00,0.0154
3414.00,0.0154
3413.00,0.0154
3412.00,0.0155
3411.00,0.0155
3410.00,0.0156
3409.00,0.0156
3408.00,0.0156
3407.00,0.0157
3406.00,0.0157
3405.00,0.0157
3404.00,0.0158
3403.00,0.0158
3402.00,0.0159
3401.00,0.0159
3400.00,0.0160
3399.00,0.0160
3398.00,0.0160
3397.00,0.0161
3396.00,0.0161
3395.00,0.0161
3394.00,0.0162
3393.00,0.0162
3392.00,0.0162
3391.00,0.0163
3390.00,0.0163
3389.00,0.0163
3388.00,0.0163
3387.00,0.0164
3386.00,0.0164
3385.00,0.0165
3384.00,0.0165
3383.00,0.0165
3382.00,0.0166
3381.00,0.0166
3380.00,0.0167
3379.00,0.0167
3378.00,0.0168
3377.00,0.0168
3376.00,0.0168
3375.00,0.0169
3374.00,0.0169
3373.00,0.0169
3372.00,0.0170
3371.00,0.0170
3370.00,0.0171
3369.00,0.0171
3368.00,0.0172
3367.00,0.0172
3366.00,0.0173
3365.00,0.0173
3364.00,0.0174
3363.00,0.0174
3362.00,0.0175
3361.00,0.0175
3360.00,0.0176
3359.00,0.0176
3358.00,0.0177
3357.00,0.0178
3356.00,0.0178
3355.00,0.0179
3354.00,0.0180
3353.00,0.0180
3352.00,0.0181
3351.00,0.0181
3350.00,0.0182
3349.00,0.0183
3348.00,0.0183
3347.00,0.0184
3346.00,0.0185
3345.00,0.0185
3344.00,0.0186
3343.00,0.0187
3342.00,0.0187
3341.00,0.0188
3340.00,0.0189
3339.00,0.0190
3338.00,0.0190
3337.00,0.0191
3336.00,0.0192
3335.00,0.0193
3334.00,0.0194
3333.00,0.0195
3332.00,0.0196
3331.00,0.0197
3330.00,0.0198
3329.00,0.0199
3328.00,0.0199
3327.00,0.0200
3326.00,0.0201
3325.00,0.0203
3324.00,0.0204
3323.00,0.0205
3322.00,0.0206
3321.00,0.0207
3320.00,0.0208
3319.00,0.0209
3318.00,0.0211
3317.00,0.0212
3316.00,0.0213
3315.00,0.0214
3314.00,0.0216
3313.00,0.0217
3312.00,0.0218
3311.00,0.0219
3310.00,0.0221
3309.00,0.0222
3308.00,0.0223
3307.00,0.0225
3306.00,0.0226
3305.00,0.0228
3304.00,0.0230
3303.00,0.0231
3302.00,0.0233
3301.00,0.0234
3300.00,0.0236
3299.00,0.0237
3298.00,0.0239
3297.00,0.0240
3296.00,0.0242
3295.00,0.0243
3294.00,0.0245
3293.00,0.0246
3292.00,0.0248
3291.00,0.0249
3290.00,0.0251
3289.00,0.0253
3288.00,0.0254
3287.00,0.0255
3286.00,0.0256
3285.00,0.0258
3284.00,0.0259
3283.00,0.0260
3282.00,0.0261
3281.00,0.0262
3280.00,0.0262
3279.00,0.0263
3278.00,0.0264
3277.00,0.0264
3276.00,0.0264
3275.00,0.0265
3274.00,0.0265
3273.00,0.0265
3272.00,0.0265
3271.00,0.0265
3270.00,0.0265
3269.00,0.0264
3268.00,0.0264
3267.00,0.0263
3266.00,0.0263
3265.00,0.0262
3264.00,0.0261
3263.00,0.0260
3262.00,0.0259
3261.00,0.0258
3260.00,0.0257
3259.00,0.0256
3258.00,0.0255
3257.00,0.0253
3256.00,0.0252
3255.00,0.0251
3254.00,0.0250
3253.00,0.0249
3252.00,0.0247
3251.00,0.0246
3250.00,0.0245
3249.00,0.0243
3248.00,0.0242
3247.00,0.0241
3246.00,0.0239
3245.00,0.0238
3244.00,0.0237
3243.00,0.0236
3242.00,0.0235
3241.00,0.0234
3240.00,0.0233
3239.00,0.0232
3238.00,0.0231
3237.00,0.0230
3236.00,0.0229
3235.00,0.0228
3234.00,0.0227
3233.00,0.0226
3232.00,0.0225
3231.00,0.0224
3230.00,0.0223
3229.00,0.0223
3228.00,0.0222
3227.00,0.0221
3226.00,0.0220
3225.00,0.0220
3224.00,0.0219
3223.00,0.0218
3222.00,0.0217
3221.00,0.0216
3220.00,0.0216
3219.00,0.0215
3218.00,0.0215
3217.00,0.0214
3216.00,0.0213
3215.00,0.0213
3214.00,0.0212
3213.00,0.0211
3212.00,0.0211
3211.00,0.0210
3210.00,0.0210
3209.00,0.0209
3208.00,0.0208
3207.00,0.0208
3206.00,0.0207
3205.00,0.0207
3204.00,0.0206
3203.00,0.0205
3202.00,0.0205
3201.00,0.0204
3200.00,0.0203
3199.00,0.0203
3198.00,0.0202
3197.00,0.0202
3196.00,0.0201
3195.00,0.0201
3194.00,0.0200
3193.00,0.0199
3192.00,0.0199
3191.00,0.0198
3190.00,0.0197
3189.00,0.0197
3188.00,0.0196
3187.00,0.0195
3186.00,0.0195
3185.00,0.0195
3184.00,0.0194
3183.00,0.0193
3182.00,0.0193
3181.00,0.0192
3180.00,0.0191
3179.00,0.0190
3178.00,0.0190
3177.00,0.0189
3176.00,0.0188
3175.00,0.0188
3174.00,0.0187
3173.00,0.0186
3172.00,0.0186
3171.00,0.0185
3170.00,0.0184
3169.00,0.0184
3168.00,0.0183
3167.00,0.0182
3166.00,0.0182
3165.00,0.0181
3164.00,0.0180
3163.00,0.0180
3162.00,0.0179
3161.00,0.0178
3160.00,0.0178
3159.00,0.0177
3158.00,0.0176
3157.00,0.0176
3156.00,0.0175
3155.00,0.0175
3154.00,0.0174
3153.00,0.0173
3152.00,0.0173
3151.00,0.0172
3150.00,0.0172
3149.00,0.0171
3148.00,0.0171
3147.00,0.0170
3146.00,0.0169
3145.00,0.0169
3144.00,0.0168
3143.00,0.0168
3142.00,0.0167
3141.00,0.0167
3140.00,0.0166
3139.00,0.0166
3138.00,0.0165
3137.00,0.0165
3136.00,0.0165
3135.00,0.0164
3134.00,0.0164
3133.00,0.0163
3132.00,0.0163
3131.00,0.0162
3130.00,0.0162
3129.00,0.0162
3128.00,0.0161
3127.00,0.0161
3126.00,0.0161
3125.00,0.0160
3124.00,0.0160
3123.00,0.0159
3122.00,0.0159
3121.00,0.0159
3120.00,0.0158
3119.00,0.0158
3118.00,0.0158
3117.00,0.0158
3116.00,0.0158
3115.00,0.0157
3114.00,0.0157
3113.00,0.0157
3112.00,0.0157
3111.00,0.0157
3110.00,0.0157
3109.00,0.0157
3108.00,0.0156
3107.00,0.0156
3106.00,0.0156
3105.00,0.0156
3104.00,0.0156
3103.00,0.0156
3102.00,0.0156
3101.00,0.0156
3100.00,0.0156
3099.00,0.0156
3098.00,0.0156
3097.00,0.0156
3096.00,0.0156
3095.00,0.0156
3094.00,0.0156
3093.00,0.0156
3092.00,0.0156
3091.00,0.0156
3090.00,0.0156
3089.00,0.0156
3088.00,0.0156
3087.00,0.0156
3086.00,0.0156
3085.00,0.0156
3084.00,0.0156
3083.00,0.0156
3082.00,0.0156
3081.00,0.0156
3080.00,0.0156
3079.00,0.0156
3078.00,0.0156
3077.00,0.0156
3076.00,0.0157
3075.00,0.0157
3074.00,0.0157
3073.00,0.0157
3072.00,0.0156
3071.00,0.0156
3070.00,0.0156
3069.00,0.0156
3068.00,0.0156
3067.00,0.0156
3066.00,0.0156
3065.00,0.0155
3064.00,0.0155
3063.00,0.0155
3062.00,0.0155
3061.00,0.0155
3060.00,0.0155
3059.00,0.0154
3058.00,0.0154
3057.00,0.0154
3056.00,0.0153
3055.00,0.0153
3054.00,0.0153
3053.00,0.0152
3052.00,0.0152
3051.00,0.0152
3050.00,0.0151
3049.00,0.0151
3048.00,0.0151
3047.00,0.0150
3046.00,0.0149
3045.00,0.0149
3044.00,0.0148
3043.00,0.0148
3042.00,0.0147
3041.00,0.0147
3040.00,0.0147
3039.00,0.0147
3038.00,0.0146
3037.00,0.0146
3036.00,0.0145
3035.00,0.0145
3034.00,0.0144
3033.00,0.0144
3032.00,0.0144
3031.00,0.0143
3030.00,0.0143
3029.00,0.0143
3028.00,0.0143
3027.00,0.0142
3026.00,0.0142
3025.00,0.0141
3024.00,0.0141
3023.00,0.0140
3022.00,0.0140
3021.00,0.0140
3020.00,0.0139
3019.00,0.0139
3018.00,0.0138
3017.00,0.0137
3016.00,0.0137
3015.00,0.0136
3014.00,0.0136
3013.00,0.0136
3012.00,0.0136
3011.00,0.0136
3010.00,0.0136
3009.00,0.0136
3008.00,0.0136
3007.00,0.0136
3006.00,0.0135
3005.00,0.0135
3004.00,0.0135
3003.00,0.0135
3002.00,0.0135
3001.00,0.0135
3000.00,0.0134
2999.00,0.0134
2998.00,0.0134
2997.00,0.0134
2996.00,0.0135
2995.00,0.0135
2994.00,0.0135
2993.00,0.0135
2992.00,0.0136
2991.00,0.0136
2990.00,0.0136
2989.00,0.0137
2988.00,0.0137
2987.00,0.0138
2986.00,0.0138
2985.00,0.0138
2984.00,0.0139
2983.00,0.0139
2982.00,0.0140
2981.00,0.0140
2980.00,0.0140
2979.00,0.0141
2978.00,0.0141
2977.00,0.0141
2976.00,0.0142
2975.00,0.0142
2974.00,0.0142
2973.00,0.0143
2972.00,0.0143
2971.00,0.0143
2970.00,0.0143
2969.00,0.0143
2968.00,0.0143
2967.00,0.0143
2966.00,0.0143
2965.00,0.0143
2964.00,0.0143
2963.00,0.0143
2962.00,0.0143
2961.00,0.0142
2960.00,0.0142
2959.00,0.0142
2958.00,0.0142
2957.00,0.0142
2956.00,0.0141
2955.00,0.0141
2954.00,0.0141
2953.00,0.0141
2952.00,0.0141
2951.00,0.0141
2950.00,0.0141
2949.00,0.0141
2948.00,0.0141
2947.00,0.0141
2946.00,0.0141
2945.00,0.0141
2944.00,0.0142
2943.00,0.0142
2942.00,0.0142
2941.00,0.0143
2940.00,0.0143
2939.00,0.0143
2938.00,0.0143
2937.00,0.0143
2936.00,0.0143
2935.00,0.0143
2934.00,0.0143
2933.00,0.0142
2932.00,0.0141
2931.00,0.0141
2930.00,0.0140
2929.00,0.0139
2928.00,0.0138
2927.00,0.0137
2926.00,0.0136
2925.00,0.0135
2924.00,0.0133
2923.00,0.0132
2922.00,0.0130
2921.00,0.0128
2920.00,0.0126
2919.00,0.0124
2918.00,0.0123
2917.00,0.0122
2916.00,0.0121
2915.00,0.0122
2914.00,0.0123
2913.00,0.0125
2912.00,0.0127
2911.00,0.0128
2910.00,0.0129
2909.00,0.0129
2908.00,0.0130
2907.00,0.0130
2906.00,0.0130
2905.00,0.0130
2904.00,0.0130
2903.00,0.0130
2902.00,0.0130
2901.00,0.0130
2900.00,0.0130
2899.00,0.0130
2898.00,0.0130
2897.00,0.0130
2896.00,0.0130
2895.00,0.0130
2894.00,0.0130
2893.00,0.0130
2892.00,0.0130
2891.00,0.0130
2890.00,0.0130
2889.00,0.0130
2888.00,0.0130
2887.00,0.0131
2886.00,0.0131
2885.00,0.0131
2884.00,0.0132
2883.00,0.0132
2882.00,0.0132
2881.00,0.0132
2880.00,0.0132
2879.00,0.0133
2878.00,0.0133
2877.00,0.0133
2876.00,0.0133
2875.00,0.0133
2874.00,0.0133
2873.00,0.0133
2872.00,0.0132
2871.00,0.0132
2870.00,0.0132
2869.00,0.0131
2868.00,0.0130
2867.00,0.0130
2866.00,0.0129
2865.00,0.0129
2864.00,0.0128
2863.00,0.0127
2862.00,0.0126
2861.00,0.0126
2860.00,0.0125
2859.00,0.0124
2858.00,0.0123
2857.00,0.0122
2856.00,0.0121
2855.00,0.0120
2854.00,0.0119
2853.00,0.0117
2852.00,0.0116
2851.00,0.0114
2850.00,0.0112
2849.00,0.0111
2848.00,0.0111
2847.00,0.0112
2846.00,0.0114
2845.00,0.0115
2844.00,0.0117
2843.00,0.0118
2842.00,0.0118
2841.00,0.0119
2840.00,0.0119
2839.00,0.0119
2838.00,0.0119
2837.00,0.0119
2836.00,0.0119
2835.00,0.0118
2834.00,0.0118
2833.00,0.0118
2832.00,0.0118
2831.00,0.0118
2830.00,0.0118
2829.00,0.0118
2828.00,0.0117
2827.00,0.0117
2826.00,0.0117
2825.00,0.0117
2824.00,0.0117
2823.00,0.0117
2822.00,0.0116
2821.00,0.0116
2820.00,0.0116
2819.00,0.0116
2818.00,0.0116
2817.00,0.0116
2816.00,0.0115
2815.00,0.0115
2814.00,0.0115
2813.00,0.0115
2812.00,0.0115
2811.00,0.0115
2810.00,0.0115
2809.00,0.0115
2808.00,0.0115
2807.00,0.0114
2806.00,0.0114
2805.00,0.0114
2804.00,0.0114
2803.00,0.0114
2802.00,0.0114
2801.00,0.0113
2800.00,0.0113
2799.00,0.0113
2798.00,0.0113
2797.00,0.0113
2796.00,0.0113
2795.00,0.0113
2794.00,0.0113
2793.00,0.0113
2792.00,0.0112
2791.00,0.0112
2790.00,0.0112
2789.00,0.0112
2788.00,0.0112
2787.00,0.0112
2786.00,0.0112
2785.00,0.0112
2784.00,0.0112
2783.00,0.0112
2782.00,0.0112
2781.00,0.0111
2780.00,0.0111
2779.00,0.0111
2778.00,0.0111
2777.00,0.0111
2776.00,0.0111
2775.00,0.0110
2774.00,0.0110
2773.00,0.0110
2772.00,0.0110
2771.00,0.0110
2770.00,0.0110
2769.00,0.0110
2768.00,0.0110
2767.00,0.0109
2766.00,0.0109
2765.00,0.0109
2764.00,0.0109
2763.00,0.0109
2762.00,0.0109
2761.00,0.0109
2760.00,0.0109
2759.00,0.0108
2758.00,0.0108
2757.00,0.0108
2756.00,0.0108
2755.00,0.0108
2754.00,0.0108
2753.00,0.0108
2752.00,0.0108
2751.00,0.0107
2750.00,0.0107
2749.00,0.0107
2748.00,0.0107
2747.00,0.0107
2746.00,0.0107
2745.00,0.0107
2744.00,0.0107
2743.00,0.0107
2742.00,0.0106
2741.00,0.0106
2740.00,0.0106
2739.00,0.0106
2738.00,0.0106
2737.00,0.0106
2736.00,0.0106
2735.00,0.0106
2734.00,0.0106
2733.00,0.0105
2732.00,0.0105
2731.00,0.0105
2730.00,0.0105
2729.00,0.0105
2728.00,0.0105
2727.00,0.0105
2726.00,0.0105
2725.00,0.0104
2724.00,0.0104
2723.00,0.0104
2722.00,0.0104
2721.00,0.0104
2720.00,0.0104
2719.00,0.0104
2718.00,0.0104
2717.00,0.0103
2716.00,0.0103
2715.00,0.0103
2714.00,0.0103
2713.00,0.0103
2712.00,0.0103
2711.00,0.0103
2710.00,0.0102
2709.00,0.0102
2708.00,0.0102
2707.00,0.0102
2706.00,0.0102
2705.00,0.0102
2704.00,0.0102
2703.00,0.0102
2702.00,0.0102
2701.00,0.0102
2700.00,0.0101
2699.00,0.0101
2698.00,0.0101
2697.00,0.0101
2696.00,0.0101
2695.00,0.0101
2694.00,0.0101
2693.00,0.0101
2692.00,0.0101
2691.00,0.0100
2690.00,0.0100
2689.00,0.0100
2688.00,0.0100
2687.00,0.0100
2686.00,0.0100
2685.00,0.0100
2684.00,0.0100
2683.00,0.0100
2682.00,0.0100
2681.00,0.0100
2680.00,0.0099
2679.00,0.0099
2678.00,0.0099
2677.00,0.0099
2676.00,0.0099
2675.00,0.0099
2674.00,0.0099
2673.00,0.0099
2672.00,0.0099
2671.00,0.0099
2670.00,0.0099
2669.00,0.0099
2668.00,0.0099
2667.00,0.0099
2666.00,0.0099
2665.00,0.0100
2664.00,0.0100
2663.00,0.0100
2662.00,0.0101
2661.00,0.0101
2660.00,0.0101
2659.00,0.0101
2658.00,0.0101
2657.00,0.0101
2656.00,0.0101
2655.00,0.0101
2654.00,0.0101
2653.00,0.0101
2652.00,0.0101
2651.00,0.0101
2650.00,0.0101
2649.00,0.0101
2648.00,0.0101
2647.00,0.0100
2646.00,0.0100
2645.00,0.0100
2644.00,0.0100
2643.00,0.0100
2642.00,0.0100
2641.00,0.0100
2640.00,0.0100
2639.00,0.0100
2638.00,0.0100
2637.00,0.0099
2636.00,0.0099
2635.00,0.0099
2634.00,0.0099
2633.00,0.0099
2632.00,0.0098
2631.00,0.0098
2630.00,0.0098
2629.00,0.0098
2628.00,0.0098
2627.00,0.0098
2626.00,0.0098
2625.00,0.0098
2624.00,0.0098
2623.00,0.0097
2622.00,0.0097
2621.00,0.0097
2620.00,0.0097
2619.00,0.0097
2618.00,0.0097
2617.00,0.0097
2616.00,0.0096
2615.00,0.0096
2614.00,0.0096
2613.00,0.0096
2612.00,0.0096
2611.00,0.0095
2610.00,0.0095
2609.00,0.0095
2608.00,0.0095
2607.00,0.0095
2606.00,0.0095
2605.00,0.0095
2604.00,0.0095
2603.00,0.0094
2602.00,0.0094
2601.00,0.0094
2600.00,0.0094
2599.00,0.0094
2598.00,0.0094
2597.00,0.0094
2596.00,0.0093
2595.00,0.0093
2594.00,0.0093
2593.00,0.0093
2592.00,0.0093
2591.00,0.0093
2590.00,0.0093
2589.00,0.0092
2588.00,0.0092
2587.00,0.0092
2586.00,0.0092
2585.00,0.0092
2584.00,0.0092
2583.00,0.0092
2582.00,0.0092
2581.00,0.0092
2580.00,0.0092
2579.00,0.0091
2578.00,0.0091
2577.00,0.0091
2576.00,0.0091
2575.00,0.0091
2574.00,0.0091
2573.00,0.0091
2572.00,0.0090
2571.00,0.0090
2570.00,0.0090
2569.00,0.0090
2568.00,0.0090
2567.00,0.0090
2566.00,0.0090
2565.00,0.0090
2564.00,0.0090
2563.00,0.0090
2562.00,0.0090
2561.00,0.0089
2560.00,0.0089
2559.00,0.0089
2558.00,0.0089
2557.00,0.0089
2556.00,0.0089
2555.00,0.0089
2554.00,0.0088
2553.00,0.0088
2552.00,0.0088
2551.00,0.0088
2550.00,0.0088
2549.00,0.0088
2548.00,0.0088
2547.00,0.0088
2546.00,0.0088
2545.00,0.0088
2544.00,0.0088
2543.00,0.0088
2542.00,0.0087
2541.00,0.0087
2540.00,0.0087
2539.00,0.0087
2538.00,0.0087
2537.00,0.0087
2536.00,0.0087
2535.00,0.0087
2534.00,0.0087
2533.00,0.0087
2532.00,0.0087
2531.00,0.0087
2530.00,0.0086
2529.00,0.0086
2528.00,0.0086
2527.00,0.0086
2526.00,0.0086
2525.00,0.0086
2524.00,0.0086
2523.00,0.0086
2522.00,0.0086
2521.00,0.0086
2520.00,0.0085
2519.00,0.0085
2518.00,0.0085
2517.00,0.0085
2516.00,0.0085
2515.00,0.0085
2514.00,0.0085
2513.00,0.0085
2512.00,0.0085
2511.00,0.0085
2510.00,0.0085
2509.00,0.0085
2508.00,0.0085
2507.00,0.0085
2506.00,0.0085
2505.00,0.0085
2504.00,0.0085
2503.00,0.0085
2502.00,0.0085
2501.00,0.0085
2500.00,0.0085
2499.00,0.0084
2498.00,0.0084
2497.00,0.0084
2496.00,0.0084
2495.00,0.0084
2494.00,0.0084
2493.00,0.0084
2492.00,0.0084
2491.00,0.0084
2490.00,0.0084
2489.00,0.0084
2488.00,0.0084
2487.00,0.0084
2486.00,0.0084
2485.00,0.0084
2484.00,0.0083
2483.00,0.0083
2482.00,0.0083
2481.00,0.0083
2480.00,0.0083
2479.00,0.0083
2478.00,0.0083
2477.00,0.0083
2476.00,0.0083
2475.00,0.0083
2474.00,0.0083
2473.00,0.0083
2472.00,0.0083
2471.00,0.0083
2470.00,0.0083
2469.00,0.0083
2468.00,0.0083
2467.00,0.0083
2466.00,0.0083
2465.00,0.0083
2464.00,0.0083
2463.00,0.0083
2462.00,0.0083
2461.00,0.0083
2460.00,0.0083
2459.00,0.0083
2458.00,0.0084
2457.00,0.0084
2456.00,0.0084
2455.00,0.0084
2454.00,0.0083
2453.00,0.0083
2452.00,0.0083
2451.00,0.0083
2450.00,0.0083
2449.00,0.0083
2448.00,0.0083
2447.00,0.0082
2446.00,0.0082
2445.00,0.0082
2444.00,0.0082
2443.00,0.0081
2442.00,0.0081
2441.00,0.0081
2440.00,0.0081
2439.00,0.0081
2438.00,0.0081
2437.00,0.0081
2436.00,0.0081
2435.00,0.0081
2434.00,0.0080
2433.00,0.0080
2432.00,0.0080
2431.00,0.0080
2430.00,0.0080
2429.00,0.0080
2428.00,0.0080
2427.00,0.0080
2426.00,0.0080
2425.00,0.0080
2424.00,0.0080
2423.00,0.0079
2422.00,0.0079
2421.00,0.0079
2420.00,0.0079
2419.00,0.0079
2418.00,0.0079
2417.00,0.0079
2416.00,0.0079
2415.00,0.0079
2414.00,0.0079
2413.00,0.0079
2412.00,0.0079
2411.00,0.0078
2410.00,0.0078
2409.00,0.0078
2408.00,0.0078
2407.00,0.0077
2406.00,0.0077
2405.00,0.0077
2404.00,0.0077
2403.00,0.0077
2402.00,0.0076
2401.00,0.0076
2400.00,0.0076
2399.00,0.0076
2398.00,0.0076
2397.00,0.0076
2396.00,0.0076
2395.00,0.0076
2394.00,0.0076
2393.00,0.0076
2392.00,0.0076
2391.00,0.0076
2390.00,0.0076
2389.00,0.0076
2388.00,0.0075
2387.00,0.0075
2386.00,0.0074
2385.00,0.0074
2384.00,0.0073
2383.00,0.0073
2382.00,0.0072
2381.00,0.0072
2380.00,0.0072
2379.00,0.0072
2378.00,0.0072
2377.00,0.0072
2376.00,0.0073
2375.00,0.0073
2374.00,0.0073
2373.00,0.0073
2372.00,0.0073
2371.00,0.0072
2370.00,0.0071
2369.00,0.0071
2368.00,0.0071
2367.00,0.0071
2366.00,0.0071
2365.00,0.0072
2364.00,0.0072
2363.00,0.0072
2362.00,0.0073
2361.00,0.0073
2360.00,0.0073
2359.00,0.0073
2358.00,0.0073
2357.00,0.0072
2356.00,0.0072
2355.00,0.0072
2354.00,0.0072
2353.00,0.0072
2352.00,0.0072
2351.00,0.0072
2350.00,0.0073
2349.00,0.0074
2348.00,0.0075
2347.00,0.0076
2346.00,0.0075
2345.00,0.0075
2344.00,0.0075
2343.00,0.0075
2342.00,0.0076
2341.00,0.0076
2340.00,0.0076
2339.00,0.0076
2338.00,0.0076
2337.00,0.0076
2336.00,0.0076
2335.00,0.0076
2334.00,0.0075
2333.00,0.0075
2332.00,0.0074
2331.00,0.0074
2330.00,0.0074
2329.00,0.0076
2328.00,0.0079
2327.00,0.0082
2326.00,0.0085
2325.00,0.0086
2324.00,0.0085
2323.00,0.0083
2322.00,0.0081
2321.00,0.0080
2320.00,0.0080
2319.00,0.0080
2318.00,0.0080
2317.00,0.0080
2316.00,0.0079
2315.00,0.0079
2314.00,0.0078
2313.00,0.0077
2312.00,0.0077
2311.00,0.0076
2310.00,0.0076
2309.00,0.0076
2308.00,0.0076
2307.00,0.0076
2306.00,0.0076
2305.00,0.0076
2304.00,0.0077
2303.00,0.0077
2302.00,0.0077
2301.00,0.0077
2300.00,0.0078
2299.00,0.0078
2298.00,0.0078
2297.00,0.0079
2296.00,0.0079
2295.00,0.0080
2294.00,0.0081
2293.00,0.0082
2292.00,0.0082
2291.00,0.0083
2290.00,0.0083
2289.00,0.0083
2288.00,0.0084
2287.00,0.0084
2286.00,0.0084
2285.00,0.0083
2284.00,0.0083
2283.00,0.0082
2282.00,0.0081
2281.00,0.0081
2280.00,0.0081
2279.00,0.0080
2278.00,0.0080
2277.00,0.0080
2276.00,0.0079
2275.00,0.0079
2274.00,0.0079
2273.00,0.0079
2272.00,0.0079
2271.00,0.0079
2270.00,0.0079
2269.00,0.0078
2268.00,0.0077
2267.00,0.0077
2266.00,0.0076
2265.00,0.0076
2264.00,0.0076
2263.00,0.0076
2262.00,0.0076
2261.00,0.0077
2260.00,0.0078
2259.00,0.0078
2258.00,0.0077
2257.00,0.0077
2256.00,0.0076
2255.00,0.0075
2254.00,0.0075
2253.00,0.0075
2252.00,0.0075
2251.00,0.0075
2250.00,0.0075
2249.00,0.0075
2248.00,0.0075
2247.00,0.0075
2246.00,0.0075
2245.00,0.0075
2244.00,0.0075
2243.00,0.0075
2242.00,0.0076
2241.00,0.0076
2240.00,0.0076
2239.00,0.0076
2238.00,0.0075
2237.00,0.0075
2236.00,0.0075
2235.00,0.0075
2234.00,0.0075
2233.00,0.0075
2232.00,0.0075
2231.00,0.0075
2230.00,0.0075
2229.00,0.0075
2228.00,0.0075
2227.00,0.0074
2226.00,0.0074
2225.00,0.0074
2224.00,0.0074
2223.00,0.0074
2222.00,0.0074
2221.00,0.0074
2220.00,0.0074
2219.00,0.0074
2218.00,0.0074
2217.00,0.0074
2216.00,0.0074
2215.00,0.0074
2214.00,0.0074
2213.00,0.0074
2212.00,0.0074
2211.00,0.0074
2210.00,0.0074
2209.00,0.0074
2208.00,0.0074
2207.00,0.0074
2206.00,0.0074
2205.00,0.0074
2204.00,0.0074
2203.00,0.0075
2202.00,0.0075
2201.00,0.0075
2200.00,0.0074
2199.00,0.0074
2198.00,0.0074
2197.00,0.0074
2196.00,0.0074
2195.00,0.0074
2194.00,0.0074
2193.00,0.0073
2192.00,0.0074
2191.00,0.0075
2190.00,0.0075
2189.00,0.0076
2188.00,0.0076
2187.00,0.0076
2186.00,0.0075
2185.00,0.0074
2184.00,0.0072
2183.00,0.0071
2182.00,0.0069
2181.00,0.0069
2180.00,0.0070
2179.00,0.0070
2178.00,0.0070
2177.00,0.0069
2176.00,0.0068
2175.00,0.0068
2174.00,0.0069
2173.00,0.0072
2172.00,0.0075
2171.00,0.0078
2170.00,0.0079
2169.00,0.0080
2168.00,0.0080
2167.00,0.0079
2166.00,0.0079
2165.00,0.0080
2164.00,0.0083
2163.00,0.0084
2162.00,0.0081
2161.00,0.0073
2160.00,0.0061
2159.00,0.0051
2158.00,0.0045
2157.00,0.0044
2156.00,0.0046
2155.00,0.0049
2154.00,0.0051
2153.00,0.0053
2152.00,0.0054
2151.00,0.0055
2150.00,0.0055
2149.00,0.0056
2148.00,0.0056
2147.00,0.0055
2146.00,0.0055
2145.00,0.0055
2144.00,0.0055
2143.00,0.0056
2142.00,0.0056
2141.00,0.0056
2140.00,0.0057
2139.00,0.0057
2138.00,0.0056
2137.00,0.0054
2136.00,0.0052
2135.00,0.0051
2134.00,0.0050
2133.00,0.0051
2132.00,0.0052
2131.00,0.0054
2130.00,0.0055
2129.00,0.0057
2128.00,0.0058
2127.00,0.0059
2126.00,0.0060
2125.00,0.0060
2124.00,0.0061
2123.00,0.0062
2122.00,0.0062
2121.00,0.0063
2120.00,0.0063
2119.00,0.0064
2118.00,0.0065
2117.00,0.0066
2116.00,0.0067
2115.00,0.0068
2114.00,0.0068
2113.00,0.0068
2112.00,0.0068
2111.00,0.0068
2110.00,0.0068
2109.00,0.0067
2108.00,0.0067
2107.00,0.0066
2106.00,0.0066
2105.00,0.0066
2104.00,0.0066
2103.00,0.0066
2102.00,0.0066
2101.00,0.0066
2100.00,0.0066
2099.00,0.0066
2098.00,0.0065
2097.00,0.0064
2096.00,0.0063
2095.00,0.0062
2094.00,0.0063
2093.00,0.0063
2092.00,0.0064
2091.00,0.0065
2090.00,0.0066
2089.00,0.0066
2088.00,0.0066
2087.00,0.0066
2086.00,0.0066
2085.00,0.0066
2084.00,0.0067
2083.00,0.0067
2082.00,0.0068
2081.00,0.0068
2080.00,0.0068
2079.00,0.0068
2078.00,0.0068
2077.00,0.0068
2076.00,0.0068
2075.00,0.0067
2074.00,0.0066
2073.00,0.0066
2072.00,0.0065
2071.00,0.0065
2070.00,0.0065
2069.00,0.0065
2068.00,0.0065
2067.00,0.0065
2066.00,0.0065
2065.00,0.0065
2064.00,0.0065
2063.00,0.0065
2062.00,0.0065
2061.00,0.0065
2060.00,0.0066
2059.00,0.0066
2058.00,0.0066
2057.00,0.0066
2056.00,0.0065
2055.00,0.0066
2054.00,0.0067
2053.00,0.0070
2052.00,0.0074
2051.00,0.0075
2050.00,0.0073
2049.00,0.0071
2048.00,0.0069
2047.00,0.0067
2046.00,0.0067
2045.00,0.0066
2044.00,0.0066
2043.00,0.0065
2042.00,0.0065
2041.00,0.0065
2040.00,0.0065
2039.00,0.0066
2038.00,0.0067
2037.00,0.0067
2036.00,0.0065
2035.00,0.0064
2034.00,0.0061
2033.00,0.0060
2032.00,0.0059
2031.00,0.0059
2030.00,0.0059
2029.00,0.0059
2028.00,0.0059
2027.00,0.0059
2026.00,0.0059
2025.00,0.0059
2024.00,0.0058
2023.00,0.0058
2022.00,0.0057
2021.00,0.0057
2020.00,0.0056
2019.00,0.0056
2018.00,0.0056
2017.00,0.0056
2016.00,0.0056
2015.00,0.0056
2014.00,0.0057
2013.00,0.0057
2012.00,0.0058
2011.00,0.0059
2010.00,0.0059
2009.00,0.0058
2008.00,0.0056
2007.00,0.0053
2006.00,0.0052
2005.00,0.0052
2004.00,0.0053
2003.00,0.0054
2002.00,0.0054
2001.00,0.0054
2000.00,0.0055
1999.00,0.0056
1998.00,0.0056
1997.00,0.0056
1996.00,0.0056
1995.00,0.0056
1994.00,0.0057
1993.00,0.0058
1992.00,0.0060
1991.00,0.0060
1990.00,0.0061
1989.00,0.0061
1988.00,0.0062
1987.00,0.0062
1986.00,0.0063
1985.00,0.0063
1984.00,0.0064
1983.00,0.0067
1982.00,0.0069
1981.00,0.0069
1980.00,0.0068
1979.00,0.0063
1978.00,0.0057
1977.00,0.0053
1976.00,0.0052
1975.00,0.0051
1974.00,0.0051
1973.00,0.0051
1972.00,0.0051
1971.00,0.0051
1970.00,0.0050
1969.00,0.0050
1968.00,0.0051
1967.00,0.0051
1966.00,0.0051
1965.00,0.0051
1964.00,0.0051
1963.00,0.0051
1962.00,0.0049
1961.00,0.0048
1960.00,0.0047
1959.00,0.0047
1958.00,0.0047
1957.00,0.0049
1956.00,0.0050
1955.00,0.0051
1954.00,0.0051
1953.00,0.0050
1952.00,0.0051
1951.00,0.0050
1950.00,0.0050
1949.00,0.0050
1948.00,0.0050
1947.00,0.0050
1946.00,0.0050
1945.00,0.0050
1944.00,0.0050
1943.00,0.0050
1942.00,0.0050
1941.00,0.0050
1940.00,0.0050
1939.00,0.0049
1938.00,0.0049
1937.00,0.0049
1936.00,0.0049
1935.00,0.0049
1934.00,0.0049
1933.00,0.0050
1932.00,0.0050
1931.00,0.0050
1930.00,0.0049
1929.00,0.0049
1928.00,0.0050
1927.00,0.0050
1926.00,0.0049
1925.00,0.0049
1924.00,0.0050
1923.00,0.0051
1922.00,0.0051
1921.00,0.0051
1920.00,0.0051
1919.00,0.0051
1918.00,0.0051
1917.00,0.0051
1916.00,0.0051
1915.00,0.0051
1914.00,0.0050
1913.00,0.0050
1912.00,0.0051
1911.00,0.0051
1910.00,0.0051
1909.00,0.0051
1908.00,0.0051
1907.00,0.0051
1906.00,0.0051
1905.00,0.0051
1904.00,0.0051
1903.00,0.0051
1902.00,0.0051
1901.00,0.0051
1900.00,0.0050
1899.00,0.0050
1898.00,0.0050
1897.00,0.0049
1896.00,0.0050
1895.00,0.0050
1894.00,0.0050
1893.00,0.0050
1892.00,0.0050
1891.00,0.0050
1890.00,0.0050
1889.00,0.0050
1888.00,0.0050
1887.00,0.0050
1886.00,0.0050
1885.00,0.0050
1884.00,0.0050
1883.00,0.0049
1882.00,0.0049
1881.00,0.0049
1880.00,0.0050
1879.00,0.0050
1878.00,0.0050
1877.00,0.0050
1876.00,0.0050
1875.00,0.0049
1874.00,0.0049
1873.00,0.0049
1872.00,0.0048
1871.00,0.0048
1870.00,0.0048
1869.00,0.0049
1868.00,0.0049
1867.00,0.0049
1866.00,0.0049
1865.00,0.0049
1864.00,0.0049
1863.00,0.0049
1862.00,0.0049
1861.00,0.0049
1860.00,0.0048
1859.00,0.0048
1858.00,0.0048
1857.00,0.0048
1856.00,0.0048
1855.00,0.0048
1854.00,0.0048
1853.00,0.0048
1852.00,0.0048
1851.00,0.0048
1850.00,0.0047
1849.00,0.0047
1848.00,0.0047
1847.00,0.0047
1846.00,0.0047
1845.00,0.0047
1844.00,0.0047
1843.00,0.0047
1842.00,0.0047
1841.00,0.0047
1840.00,0.0047
1839.00,0.0047
1838.00,0.0047
1837.00,0.0047
1836.00,0.0047
1835.00,0.0047
1834.00,0.0047
1833.00,0.0046
1832.00,0.0046
1831.00,0.0046
1830.00,0.0046
1829.00,0.0046
1828.00,0.0046
1827.00,0.0046
1826.00,0.0046
1825.00,0.0046
1824.00,0.0047
1823.00,0.0047
1822.00,0.0046
1821.00,0.0046
1820.00,0.0045
1819.00,0.0044
1818.00,0.0044
1817.00,0.0043
1816.00,0.0044
1815.00,0.0044
1814.00,0.0045
1813.00,0.0045
1812.00,0.0046
1811.00,0.0046
1810.00,0.0046
1809.00,0.0046
1808.00,0.0046
1807.00,0.0046
1806.00,0.0046
1805.00,0.0045
1804.00,0.0045
1803.00,0.0045
1802.00,0.0045
1801.00,0.0045
1800.00,0.0046
1799.00,0.0046
1798.00,0.0046
1797.00,0.0046
1796.00,0.0046
1795.00,0.0046
1794.00,0.0046
1793.00,0.0046
1792.00,0.0046
1791.00,0.0047
1790.00,0.0047
1789.00,0.0047
1788.00,0.0046
1787.00,0.0046
1786.00,0.0046
1785.00,0.0046
1784.00,0.0046
1783.00,0.0046
1782.00,0.0046
1781.00,0.0046
1780.00,0.0047
1779.00,0.0047
1778.00,0.0046
1777.00,0.0046
1776.00,0.0046
1775.00,0.0046
1774.00,0.0046
1773.00,0.0047
1772.00,0.0047
1771.00,0.0047
1770.00,0.0047
1769.00,0.0047
1768.00,0.0048
1767.00,0.0048
1766.00,0.0047
1765.00,0.0047
1764.00,0.0047
1763.00,0.0047
1762.00,0.0047
1761.00,0.0047
1760.00,0.0048
1759.00,0.0048
1758.00,0.0048
1757.00,0.0048
1756.00,0.0049
1755.00,0.0049
1754.00,0.0049
1753.00,0.0049
1752.00,0.0049
1751.00,0.0050
1750.00,0.0050
1749.00,0.0050
1748.00,0.0051
1747.00,0.0051
1746.00,0.0051
1745.00,0.0052
1744.00,0.0052
1743.00,0.0052
1742.00,0.0053
1741.00,0.0053
1740.00,0.0054
1739.00,0.0054
1738.00,0.0054
1737.00,0.0055
1736.00,0.0056
1735.00,0.0057
1734.00,0.0059
1733.00,0.0059
1732.00,0.0059
1731.00,0.0060
1730.00,0.0060
1729.00,0.0060
1728.00,0.0061
1727.00,0.0062
1726.00,0.0062
1725.00,0.0063
1724.00,0.0064
1723.00,0.0065
1722.00,0.0066
1721.00,0.0066
1720.00,0.0067
1719.00,0.0069
1718.00,0.0071
1717.00,0.0073
1716.00,0.0074
1715.00,0.0075
1714.00,0.0076
1713.00,0.0078
1712.00,0.0080
1711.00,0.0082
1710.00,0.0084
1709.00,0.0086
1708.00,0.0089
1707.00,0.0093
1706.00,0.0097
1705.00,0.0103
1704.00,0.0109
1703.00,0.0115
1702.00,0.0122
1701.00,0.0134
1700.00,0.0150
1699.00,0.0165
1698.00,0.0175
1697.00,0.0183
1696.00,0.0192
1695.00,0.0199
1694.00,0.0203
1693.00,0.0206
1692.00,0.0208
1691.00,0.0211
1690.00,0.0214
1689.00,0.0219
1688.00,0.0223
1687.00,0.0227
1686.00,0.0230
1685.00,0.0236
1684.00,0.0246
1683.00,0.0254
1682.00,0.0260
1681.00,0.0266
1680.00,0.0272
1679.00,0.0277
1678.00,0.0282
1677.00,0.0288
1676.00,0.0295
1675.00,0.0303
1674.00,0.0311
1673.00,0.0318
1672.00,0.0323
1671.00,0.0329
1670.00,0.0337
1669.00,0.0347
1668.00,0.0355
1667.00,0.0362
1666.00,0.0367
1665.00,0.0372
1664.00,0.0377
1663.00,0.0385
1662.00,0.0393
1661.00,0.0400
1660.00,0.0407
1659.00,0.0412
1658.00,0.0416
1657.00,0.0420
1656.00,0.0423
1655.00,0.0426
1654.00,0.0432
1653.00,0.0444
1652.00,0.0454
1651.00,0.0458
1650.00,0.0459
1649.00,0.0459
1648.00,0.0462
1647.00,0.0467
1646.00,0.0474
1645.00,0.0479
1644.00,0.0482
1643.00,0.0485
1642.00,0.0487
1641.00,0.0489
1640.00,0.0491
1639.00,0.0493
1638.00,0.0495
1637.00,0.0497
1636.00,0.0502
1635.00,0.0508
1634.00,0.0513
1633.00,0.0516
1632.00,0.0517
1631.00,0.0518
1630.00,0.0519
1629.00,0.0521
1628.00,0.0523
1627.00,0.0526
1626.00,0.0528
1625.00,0.0529
1624.00,0.0530
1623.00,0.0532
1622.00,0.0533
1621.00,0.0533
1620.00,0.0533
1619.00,0.0531
1618.00,0.0528
1617.00,0.0525
1616.00,0.0522
1615.00,0.0519
1614.00,0.0515
1613.00,0.0510
1612.00,0.0504
1611.00,0.0498
1610.00,0.0492
1609.00,0.0485
1608.00,0.0478
1607.00,0.0470
1606.00,0.0462
1605.00,0.0454
1604.00,0.0445
1603.00,0.0436
1602.00,0.0427
1601.00,0.0418
1600.00,0.0408
1599.00,0.0399
1598.00,0.0391
1597.00,0.0382
1596.00,0.0374
1595.00,0.0366
1594.00,0.0358
1593.00,0.0350
1592.00,0.0343
1591.00,0.0336
1590.00,0.0329
1589.00,0.0323
1588.00,0.0316
1587.00,0.0310
1586.00,0.0305
1585.00,0.0300
1584.00,0.0296
1583.00,0.0292
1582.00,0.0288
1581.00,0.0285
1580.00,0.0282
1579.00,0.0280
1578.00,0.0279
1577.00,0.0278
1576.00,0.0278
1575.00,0.0278
1574.00,0.0278
1573.00,0.0279
1572.00,0.0279
1571.00,0.0279
1570.00,0.0282
1569.00,0.0286
1568.00,0.0289
1567.00,0.0292
1566.00,0.0296
1565.00,0.0299
1564.00,0.0303
1563.00,0.0307
1562.00,0.0309
1561.00,0.0310
1560.00,0.0314
1559.00,0.0324
1558.00,0.0335
1557.00,0.0342
1556.00,0.0346
1555.00,0.0350
1554.00,0.0355
1553.00,0.0360
1552.00,0.0364
1551.00,0.0368
1550.00,0.0373
1549.00,0.0379
1548.00,0.0383
1547.00,0.0386
1546.00,0.0389
1545.00,0.0393
1544.00,0.0397
1543.00,0.0401
1542.00,0.0406
1541.00,0.0412
1540.00,0.0419
1539.00,0.0426
1538.00,0.0431
1537.00,0.0433
1536.00,0.0434
1535.00,0.0435
1534.00,0.0439
1533.00,0.0446
1532.00,0.0451
1531.00,0.0456
1530.00,0.0458
1529.00,0.0461
1528.00,0.0465
1527.00,0.0469
1526.00,0.0474
1525.00,0.0479
1524.00,0.0482
1523.00,0.0485
1522.00,0.0490
1521.00,0.0496
1520.00,0.0500
1519.00,0.0503
1518.00,0.0504
1517.00,0.0507
1516.00,0.0509
1515.00,0.0510
1514.00,0.0509
1513.00,0.0507
1512.00,0.0503
1511.00,0.0500
1510.00,0.0496
1509.00,0.0492
1508.00,0.0487
1507.00,0.0482
1506.00,0.0476
1505.00,0.0470
1504.00,0.0464
1503.00,0.0457
1502.00,0.0449
1501.00,0.0441
1500.00,0.0433
1499.00,0.0424
1498.00,0.0416
1497.00,0.0407
1496.00,0.0398
1495.00,0.0390
1494.00,0.0382
1493.00,0.0373
1492.00,0.0364
1491.00,0.0355
1490.00,0.0346
1489.00,0.0338
1488.00,0.0330
1487.00,0.0323
1486.00,0.0316
1485.00,0.0310
1484.00,0.0304
1483.00,0.0298
1482.00,0.0293
1481.00,0.0288
1480.00,0.0284
1479.00,0.0280
1478.00,0.0276
1477.00,0.0273
1476.00,0.0271
1475.00,0.0270
1474.00,0.0269
1473.00,0.0268
1472.00,0.0268
1471.00,0.0268
1470.00,0.0268
1469.00,0.0268
1468.00,0.0267
1467.00,0.0266
1466.00,0.0265
1465.00,0.0265
1464.00,0.0266
1463.00,0.0267
1462.00,0.0268
1461.00,0.0269
1460.00,0.0270
1459.00,0.0272
1458.00,0.0276
1457.00,0.0281
1456.00,0.0287
1455.00,0.0289
1454.00,0.0291
1453.00,0.0291
1452.00,0.0292
1451.00,0.0292
1450.00,0.0292
1449.00,0.0292
1448.00,0.0291
1447.00,0.0290
1446.00,0.0289
1445.00,0.0287
1444.00,0.0284
1443.00,0.0282
1442.00,0.0279
1441.00,0.0276
1440.00,0.0273
1439.00,0.0270
1438.00,0.0266
1437.00,0.0263
1436.00,0.0261
1435.00,0.0259
1434.00,0.0258
1433.00,0.0256
1432.00,0.0254
1431.00,0.0252
1430.00,0.0251
1429.00,0.0250
1428.00,0.0249
1427.00,0.0249
1426.00,0.0249
1425.00,0.0249
1424.00,0.0249
1423.00,0.0250
1422.00,0.0251
1421.00,0.0251
1420.00,0.0251
1419.00,0.0253
1418.00,0.0256
1417.00,0.0258
1416.00,0.0259
1415.00,0.0260
1414.00,0.0261
1413.00,0.0262
1412.00,0.0263
1411.00,0.0265
1410.00,0.0266
1409.00,0.0267
1408.00,0.0267
1407.00,0.0267
1406.00,0.0268
1405.00,0.0268
1404.00,0.0269
1403.00,0.0269
1402.00,0.0269
1401.00,0.0268
1400.00,0.0268
1399.00,0.0267
1398.00,0.0267
1397.00,0.0267
1396.00,0.0267
1395.00,0.0266
1394.00,0.0266
1393.00,0.0266
1392.00,0.0266
1391.00,0.0265
1390.00,0.0265
1389.00,0.0264
1388.00,0.0264
1387.00,0.0264
1386.00,0.0263
1385.00,0.0263
1384.00,0.0262
1383.00,0.0260
1382.00,0.0259
1381.00,0.0258
1380.00,0.0257
1379.00,0.0257
1378.00,0.0256
1377.00,0.0255
1376.00,0.0254
1375.00,0.0254
1374.00,0.0254
1373.00,0.0254
1372.00,0.0253
1371.00,0.0253
1370.00,0.0252
1369.00,0.0251
1368.00,0.0250
1367.00,0.0248
1366.00,0.0247
1365.00,0.0245
1364.00,0.0243
1363.00,0.0242
1362.00,0.0241
1361.00,0.0240
1360.00,0.0239
1359.00,0.0238
1358.00,0.0237
1357.00,0.0236
1356.00,0.0235
1355.00,0.0234
1354.00,0.0234
1353.00,0.0233
1352.00,0.0233
1351.00,0.0232
1350.00,0.0232
1349.00,0.0232
1348.00,0.0232
1347.00,0.0232
1346.00,0.0232
1345.00,0.0232
1344.00,0.0232
1343.00,0.0232
1342.00,0.0232
1341.00,0.0232
1340.00,0.0232
1339.00,0.0233
1338.00,0.0233
1337.00,0.0233
1336.00,0.0233
1335.00,0.0233
1334.00,0.0233
1333.00,0.0233
1332.00,0.0233
1331.00,0.0233
1330.00,0.0233
1329.00,0.0233
1328.00,0.0233
1327.00,0.0233
1326.00,0.0232
1325.00,0.0232
1324.00,0.0232
1323.00,0.0232
1322.00,0.0232
1321.00,0.0231
1320.00,0.0231
1319.00,0.0231
1318.00,0.0231
1317.00,0.0231
1316.00,0.0230
1315.00,0.0230
1314.00,0.0229
1313.00,0.0229
1312.00,0.0228
1311.00,0.0227
1310.00,0.0227
1309.00,0.0226
1308.00,0.0226
1307.00,0.0226
1306.00,0.0225
1305.00,0.0225
1304.00,0.0224
1303.00,0.0223
1302.00,0.0223
1301.00,0.0222
1300.00,0.0222
1299.00,0.0221
1298.00,0.0221
1297.00,0.0220
1296.00,0.0220
1295.00,0.0220
1294.00,0.0220
1293.00,0.0220
1292.00,0.0220
1291.00,0.0220
1290.00,0.0220
1289.00,0.0220
1288.00,0.0220
1287.00,0.0220
1286.00,0.0220
1285.00,0.0219
1284.00,0.0219
1283.00,0.0219
1282.00,0.0219
1281.00,0.0218
1280.00,0.0218
1279.00,0.0218
1278.00,0.0218
1277.00,0.0217
1276.00,0.0217
1275.00,0.0217
1274.00,0.0217
1273.00,0.0217
1272.00,0.0217
1271.00,0.0217
1270.00,0.0217
1269.00,0.0217
1268.00,0.0218
1267.00,0.0218
1266.00,0.0219
1265.00,0.0220
1264.00,0.0221
1263.00,0.0222
1262.00,0.0223
1261.00,0.0225
1260.00,0.0226
1259.00,0.0228
1258.00,0.0230
1257.00,0.0232
1256.00,0.0234
1255.00,0.0236
1254.00,0.0238
1253.00,0.0240
1252.00,0.0242
1251.00,0.0244
1250.00,0.0246
1249.00,0.0248
1248.00,0.0249
1247.00,0.0251
1246.00,0.0252
1245.00,0.0254
1244.00,0.0255
1243.00,0.0256
1242.00,0.0257
1241.00,0.0258
1240.00,0.0258
1239.00,0.0259
1238.00,0.0260
1237.00,0.0260
1236.00,0.0260
1235.00,0.0260
1234.00,0.0260
1233.00,0.0260
1232.00,0.0260
1231.00,0.0260
1230.00,0.0260
1229.00,0.0259
1228.00,0.0259
1227.00,0.0258
1226.00,0.0257
1225.00,0.0256
1224.00,0.0255
1223.00,0.0254
1222.00,0.0253
1221.00,0.0252
1220.00,0.0250
1219.00,0.0249
1218.00,0.0247
1217.00,0.0246
1216.00,0.0244
1215.00,0.0242
1214.00,0.0240
1213.00,0.0238
1212.00,0.0236
1211.00,0.0234
1210.00,0.0232
1209.00,0.0229
1208.00,0.0227
1207.00,0.0225
1206.00,0.0222
1205.00,0.0220
1204.00,0.0217
1203.00,0.0215
1202.00,0.0213
1201.00,0.0210
1200.00,0.0208
1199.00,0.0206
1198.00,0.0204
1197.00,0.0202
1196.00,0.0201
1195.00,0.0199
1194.00,0.0197
1193.00,0.0196
1192.00,0.0195
1191.00,0.0194
1190.00,0.0193
1189.00,0.0192
1188.00,0.0191
1187.00,0.0191
1186.00,0.0191
1185.00,0.0190
1184.00,0.0190
1183.00,0.0190
1182.00,0.0190
1181.00,0.0190
1180.00,0.0191
1179.00,0.0191
1178.00,0.0192
1177.00,0.0194
1176.00,0.0195
1175.00,0.0197
1174.00,0.0199
1173.00,0.0200
1172.00,0.0202
1171.00,0.0204
1170.00,0.0205
1169.00,0.0207
1168.00,0.0208
1167.00,0.0210
1166.00,0.0211
1165.00,0.0213
1164.00,0.0214
1163.00,0.0215
1162.00,0.0216
1161.00,0.0217
1160.00,0.0217
1159.00,0.0218
1158.00,0.0218
1157.00,0.0218
1156.00,0.0217
1155.00,0.0216
1154.00,0.0215
1153.00,0.0214
1152.00,0.0213
1151.00,0.0212
1150.00,0.0210
1149.00,0.0209
1148.00,0.0207
1147.00,0.0206
1146.00,0.0204
1145.00,0.0203
1144.00,0.0201
1143.00,0.0200
1142.00,0.0199
1141.00,0.0198
1140.00,0.0197
1139.00,0.0197
1138.00,0.0196
1137.00,0.0196
1136.00,0.0195
1135.00,0.0195
1134.00,0.0194
1133.00,0.0194
1132.00,0.0194
1131.00,0.0194
1130.00,0.0194
1129.00,0.0194
1128.00,0.0193
1127.00,0.0193
1126.00,0.0193
1125.00,0.0193
1124.00,0.0193
1123.00,0.0193
1122.00,0.0193
1121.00,0.0192
1120.00,0.0192
1119.00,0.0192
1118.00,0.0192
1117.00,0.0191
1116.00,0.0191
1115.00,0.0191
1114.00,0.0192
1113.00,0.0192
1112.00,0.0192
1111.00,0.0192
1110.00,0.0192
1109.00,0.0192
1108.00,0.0193
1107.00,0.0193
1106.00,0.0194
1105.00,0.0194
1104.00,0.0195
1103.00,0.0196
1102.00,0.0197
1101.00,0.0197
1100.00,0.0198
1099.00,0.0199
1098.00,0.0200
1097.00,0.0201
1096.00,0.0202
1095.00,0.0204
1094.00,0.0206
1093.00,0.0208
1092.00,0.0210
1091.00,0.0212
1090.00,0.0215
1089.00,0.0218
1088.00,0.0221
1087.00,0.0224
1086.00,0.0228
1085.00,0.0231
1084.00,0.0235
1083.00,0.0238
1082.00,0.0242
1081.00,0.0246
1080.00,0.0249
1079.00,0.0253
1078.00,0.0256
1077.00,0.0259
1076.00,0.0262
1075.00,0.0264
1074.00,0.0266
1073.00,0.0268
1072.00,0.0270
1071.00,0.0272
1070.00,0.0274
1069.00,0.0275
1068.00,0.0276
1067.00,0.0277
1066.00,0.0277
1065.00,0.0277
1064.00,0.0278
1063.00,0.0278
1062.00,0.0277
1061.00,0.0276
1060.00,0.0275
1059.00,0.0274
1058.00,0.0273
1057.00,0.0272
1056.00,0.0271
1055.00,0.0270
1054.00,0.0269
1053.00,0.0268
1052.00,0.0266
1051.00,0.0265
1050.00,0.0264
1049.00,0.0262
1048.00,0.0261
1047.00,0.0260
1046.00,0.0258
1045.00,0.0257
1044.00,0.0255
1043.00,0.0253
1042.00,0.0250
1041.00,0.0248
1040.00,0.0246
1039.00,0.0244
1038.00,0.0242
1037.00,0.0240
1036.00,0.0238
1035.00,0.0236
1034.00,0.0234
1033.00,0.0232
1032.00,0.0231
1031.00,0.0229
1030.00,0.0227
1029.00,0.0224
1028.00,0.0222
1027.00,0.0219
1026.00,0.0217
1025.00,0.0214
1024.00,0.0212
1023.00,0.0210
1022.00,0.0207
1021.00,0.0205
1020.00,0.0203
1019.00,0.0200
1018.00,0.0198
1017.00,0.0196
1016.00,0.0195
1015.00,0.0193
1014.00,0.0191
1013.00,0.0190
1012.00,0.0188
1011.00,0.0186
1010.00,0.0185
1009.00,0.0183
1008.00,0.0182
1007.00,0.0181
1006.00,0.0180
1005.00,0.0179
1004.00,0.0177
1003.00,0.0176
1002.00,0.0175
1001.00,0.0174
1000.00,0.0173
999.00,0.0172
998.00,0.0172
997.00,0.0171
996.00,0.0170
995.00,0.0169
994.00,0.0169
993.00,0.0168
992.00,0.0167
991.00,0.0166
990.00,0.0165
989.00,0.0164
988.00,0.0163
987.00,0.0163
986.00,0.0162
985.00,0.0161
984.00,0.0161
983.00,0.0160
982.00,0.0159
981.00,0.0159
980.00,0.0158
979.00,0.0158
978.00,0.0158
977.00,0.0158
976.00,0.0158
975.00,0.0157
974.00,0.0157
973.00,0.0157
972.00,0.0157
971.00,0.0158
970.00,0.0158
969.00,0.0158
968.00,0.0159
967.00,0.0160
966.00,0.0161
965.00,0.0162
964.00,0.0163
963.00,0.0164
962.00,0.0164
961.00,0.0164
960.00,0.0163
959.00,0.0163
958.00,0.0162
957.00,0.0162
956.00,0.0161
955.00,0.0160
954.00,0.0159
953.00,0.0158
952.00,0.0157
951.00,0.0157
950.00,0.0156
949.00,0.0156
948.00,0.0155
947.00,0.0155
946.00,0.0154
945.00,0.0154
944.00,0.0153
943.00,0.0152
942.00,0.0152
941.00,0.0152
940.00,0.0151
939.00,0.0151
938.00,0.0151
937.00,0.0151
936.00,0.0151
935.00,0.0150
934.00,0.0150
933.00,0.0150
932.00,0.0149
931.00,0.0149
930.00,0.0149
929.00,0.0149
928.00,0.0148
927.00,0.0148
926.00,0.0147
925.00,0.0146
924.00,0.0146
923.00,0.0145
922.00,0.0144
921.00,0.0143
920.00,0.0143
919.00,0.0142
918.00,0.0142
917.00,0.0141
916.00,0.0141
915.00,0.0141
914.00,0.0140
913.00,0.0140
912.00,0.0140
911.00,0.0140
910.00,0.0140
909.00,0.0140
908.00,0.0141
907.00,0.0141
906.00,0.0141
905.00,0.0142
904.00,0.0142
903.00,0.0142
902.00,0.0142
901.00,0.0143
900.00,0.0142
899.00,0.0142
898.00,0.0142
897.00,0.0142
896.00,0.0141
895.00,0.0141
894.00,0.0140
893.00,0.0140
892.00,0.0139
891.00,0.0139
890.00,0.0138
889.00,0.0137
888.00,0.0137
887.00,0.0136
886.00,0.0136
885.00,0.0135
884.00,0.0135
883.00,0.0135
882.00,0.0134
881.00,0.0134
880.00,0.0134
879.00,0.0134
878.00,0.0134
877.00,0.0134
876.00,0.0134
875.00,0.0134
874.00,0.0135
873.00,0.0135
872.00,0.0135
871.00,0.0134
870.00,0.0134
869.00,0.0134
868.00,0.0134
867.00,0.0134
866.00,0.0134
865.00,0.0134
864.00,0.0134
863.00,0.0134
862.00,0.0134
861.00,0.0134
860.00,0.0134
859.00,0.0134
858.00,0.0134
857.00,0.0134
856.00,0.0135
855.00,0.0135
854.00,0.0136
853.00,0.0136
852.00,0.0136
851.00,0.0137
850.00,0.0137
849.00,0.0137
848.00,0.0137
847.00,0.0138
846.00,0.0138
845.00,0.0138
844.00,0.0139
843.00,0.0140
842.00,0.0141
841.00,0.0142
840.00,0.0142
839.00,0.0143
838.00,0.0144
837.00,0.0145
836.00,0.0146
835.00,0.0147
834.00,0.0148
833.00,0.0150
832.00,0.0151
831.00,0.0153
830.00,0.0154
829.00,0.0155
828.00,0.0156
827.00,0.0157
826.00,0.0158
825.00,0.0158
824.00,0.0159
823.00,0.0159
822.00,0.0160
821.00,0.0160
820.00,0.0161
819.00,0.0163
818.00,0.0164
817.00,0.0165
816.00,0.0166
815.00,0.0167
814.00,0.0168
813.00,0.0170
812.00,0.0170
811.00,0.0171
810.00,0.0172
809.00,0.0172
808.00,0.0173
807.00,0.0173
806.00,0.0174
805.00,0.0175
804.00,0.0175
803.00,0.0176
802.00,0.0177
801.00,0.0178
800.00,0.0179
799.00,0.0180
798.00,0.0181
797.00,0.0182
796.00,0.0184
795.00,0.0185
794.00,0.0186
793.00,0.0188
792.00,0.0189
791.00,0.0190
790.00,0.0192
789.00,0.0194
788.00,0.0196
787.00,0.0198
786.00,0.0200
785.00,0.0202
784.00,0.0204
783.00,0.0206
782.00,0.0207
781.00,0.0209
780.00,0.0210
779.00,0.0212
778.00,0.0214
777.00,0.0215
776.00,0.0216
775.00,0.0218
774.00,0.0219
773.00,0.0220
772.00,0.0221
771.00,0.0222
770.00,0.0224
769.00,0.0224
768.00,0.0225
767.00,0.0226
766.00,0.0226
765.00,0.0227
764.00,0.0227
763.00,0.0228
762.00,0.0228
761.00,0.0229
760.00,0.0230
759.00,0.0230
758.00,0.0231
757.00,0.0232
756.00,0.0233
755.00,0.0234
754.00,0.0235
753.00,0.0236
752.00,0.0238
751.00,0.0239
750.00,0.0241
749.00,0.0242
748.00,0.0243
747.00,0.0244
746.00,0.0244
745.00,0.0245
744.00,0.0245
743.00,0.0246
742.00,0.0247
741.00,0.0248
740.00,0.0249
739.00,0.0249
738.00,0.0250
737.00,0.0252
736.00,0.0253
735.00,0.0255
734.00,0.0257
733.00,0.0259
732.00,0.0261
731.00,0.0263
730.00,0.0265
729.00,0.0268
728.00,0.0271
727.00,0.0275
726.00,0.0278
725.00,0.0282
724.00,0.0286
723.00,0.0289
722.00,0.0293
721.00,0.0297
720.00,0.0300
719.00,0.0304
718.00,0.0309
717.00,0.0313
716.00,0.0317
715.00,0.0321
714.00,0.0325
713.00,0.0330
712.00,0.0333
711.00,0.0337
710.00,0.0341
709.00,0.0344
708.00,0.0348
707.00,0.0352
706.00,0.0355
705.00,0.0359
704.00,0.0362
703.00,0.0365
702.00,0.0368
701.00,0.0371
700.00,0.0372
699.00,0.0373
698.00,0.0374
697.00,0.0374
696.00,0.0375
695.00,0.0375
694.00,0.0375
693.00,0.0374
692.00,0.0374
691.00,0.0374
690.00,0.0374
689.00,0.0375
688.00,0.0376
687.00,0.0377
686.00,0.0377
685.00,0.0378
684.00,0.0378
683.00,0.0378
682.00,0.0379
681.00,0.0379
680.00,0.0379
679.00,0.0380
678.00,0.0380
677.00,0.0381
676.00,0.0382
675.00,0.0382
674.00,0.0382
673.00,0.0382
672.00,0.0381
671.00,0.0381
670.00,0.0379
669.00,0.0378
668.00,0.0379
667.00,0.0382
666.00,0.0384
665.00,0.0385
664.00,0.0386
663.00,0.0387
662.00,0.0388
661.00,0.0388
660.00,0.0388
659.00,0.0389
658.00,0.0389
657.00,0.0390
656.00,0.0391
655.00,0.0392
654.00,0.0393
653.00,0.0394
652.00,0.0395
651.00,0.0396
650.00,0.0397
649.00,0.0398
648.00,0.0400
647.00,0.0401
646.00,0.0402
645.00,0.0404
644.00,0.0405
643.00,0.0406
642.00,0.0408
641.00,0.0409
640.00,0.0411
639.00,0.0413
638.00,0.0414
637.00,0.0415
636.00,0.0416
635.00,0.0417
634.00,0.0419
633.00,0.0420
632.00,0.0421
631.00,0.0423
630.00,0.0424
629.00,0.0425
628.00,0.0426
627.00,0.0427
626.00,0.0427
625.00,0.0427
624.00,0.0428
623.00,0.0428
622.00,0.0428
621.00,0.0428
620.00,0.0427
619.00,0.0427
618.00,0.0426
617.00,0.0425
616.00,0.0424
615.00,0.0423
614.00,0.0421
613.00,0.0420
612.00,0.0418
611.00,0.0417
610.00,0.0416
609.00,0.0416
608.00,0.0416
607.00,0.0416
606.00,0.0415
605.00,0.0415
604.00,0.0414
603.00,0.0413
602.00,0.0413
601.00,0.0412
600.00,0.0412
599.00,0.0412
598.00,0.0412
597.00,0.0412
596.00,0.0413
595.00,0.0413
594.00,0.0413
593.00,0.0413
592.00,0.0413
591.00,0.0413
590.00,0.0413
589.00,0.0413
588.00,0.0413
587.00,0.0413
586.00,0.0414
585.00,0.0415
584.00,0.0415
583.00,0.0416
582.00,0.0416
581.00,0.0416
580.00,0.0417
579.00,0.0417
578.00,0.0417
577.00,0.0417
576.00,0.0417
575.00,0.0418
574.00,0.0418
573.00,0.0419
572.00,0.0420
571.00,0.0421
570.00,0.0421
569.00,0.0422
568.00,0.0422
567.00,0.0422
566.00,0.0422
565.00,0.0422
564.00,0.0423
563.00,0.0423
562.00,0.0424
561.00,0.0425
560.00,0.0425
559.00,0.0426
558.00,0.0427
557.00,0.0427
556.00,0.0427
555.00,0.0427
554.00,0.0428
553.00,0.0428
552.00,0.0429
551.00,0.0429
550.00,0.0430
549.00,0.0430
548.00,0.0430
547.00,0.0431
546.00,0.0431
545.00,0.0431
544.00,0.0432
543.00,0.0431
542.00,0.0431
541.00,0.0430
540.00,0.0430
539.00,0.0430
538.00,0.0430
537.00,0.0430
536.00,0.0430
535.00,0.0431
534.00,0.0431
533.00,0.0432
532.00,0.0433
531.00,0.0433
530.00,0.0434
529.00,0.0434
528.00,0.0434
527.00,0.0434
526.00,0.0434
525.00,0.0435
524.00,0.0436
523.00,0.0437
522.00,0.0437
521.00,0.0437
520.00,0.0437
519.00,0.0438
518.00,0.0438
517.00,0.0438
516.00,0.0438
515.00,0.0437
514.00,0.0437
513.00,0.0435
512.00,0.0434
511.00,0.0434
510.00,0.0434
509.00,0.0434
508.00,0.0435
507.00,0.0436
506.00,0.0436
505.00,0.0436
504.00,0.0436
503.00,0.0436
502.00,0.0437
501.00,0.0436
500.00,0.0436
499.00,0.0435
498.00,0.0434
497.00,0.0433
496.00,0.0433
495.00,0.0433
494.00,0.0433
493.00,0.0434
492.00,0.0434
491.00,0.0434
490.00,0.0433
489.00,0.0433
488.00,0.0433
487.00,0.0433
486.00,0.0433
485.00,0.0432
484.00,0.0432
483.00,0.0431
482.00,0.0430
481.00,0.0430
480.00,0.0430
479.00,0.0430
478.00,0.0431
477.00,0.0432
476.00,0.0432
475.00,0.0431
474.00,0.0429
473.00,0.0429
472.00,0.0429
471.00,0.0430
470.00,0.0431
469.00,0.0431
468.00,0.0432
467.00,0.0433
466.00,0.0432
465.00,0.0431
464.00,0.0430
463.00,0.0429
462.00,0.0429
461.00,0.0430
460.00,0.0432
459.00,0.0433
458.00,0.0433
457.00,0.0433
456.00,0.0432
455.00,0.0431
454.00,0.0430
453.00,0.0429
452.00,0.0428
451.00,0.0427
450.00,0.0426
449.00,0.0425
448.00,0.0425
447.00,0.0424
446.00,0.0424
445.00,0.0423
444.00,0.0423
443.00,0.0422
442.00,0.0419
441.00,0.0415
440.00,0.0412
439.00,0.0409
438.00,0.0405
437.00,0.0402
436.00,0.0401
435.00,0.0399
434.00,0.0399
433.00,0.0399
432.00,0.0398
431.00,0.0397
430.00,0.0394
429.00,0.0392
428.00,0.0390
427.00,0.0388
426.00,0.0385
425.00,0.0383
424.00,0.0383
423.00,0.0383
422.00,0.0382
421.00,0.0382
420.00,0.0381
419.00,0.0379
418.00,0.0375
417.00,0.0370
416.00,0.0368
415.00,0.0367
414.00,0.0366
413.00,0.0366
412.00,0.0366
411.00,0.0365
410.00,0.0363
409.00,0.0360
408.00,0.0358
407.00,0.0359
406.00,0.0360
405.00,0.0362
404.00,0.0363
403.00,0.0363
402.00,0.0363
401.00,0.0365
400.00,0.0367
