Created as New Dataset,Sample 303 By YargerLab Date Sunday, August 18 2024
cm-1,A
4000.00,0.0097
3999.00,0.0097
3998.00,0.0096
3997.00,0.0096
3996.00,0.0096
3995.00,0.0096
3994.00,0.0096
3993.00,0.0096
3992.00,0.0096
3991.00,0.0096
3990.00,0.0097
3989.00,0.0097
3988.00,0.0097
3987.00,0.0097
3986.00,0.0097
3985.00,0.0097
3984.00,0.0097
3983.00,0.0096
3982.00,0.0096
3981.00,0.0096
3980.00,0.0096
3979.00,0.0097
3978.00,0.0097
3977.00,0.0097
3976.00,0.0097
3975.00,0.0097
3974.00,0.0097
3973.00,0.0097
3972.00,0.0097
3971.00,0.0096
3970.00,0.0096
3969.00,0.0096
3968.00,0.0096
3967.00,0.0096
3966.00,0.0096
3965.00,0.0096
3964.00,0.0096
3963.00,0.0096
3962.00,0.0096
3961.00,0.0096
3960.00,0.0096
3959.00,0.0096
3958.00,0.0096
3957.00,0.0096
3956.00,0.0096
3955.00,0.0096
3954.00,0.0096
3953.00,0.0096
3952.00,0.0096
3951.00,0.0096
3950.00,0.0096
3949.00,0.0096
3948.00,0.0096
3947.00,0.0096
3946.00,0.0096
3945.00,0.0096
3944.00,0.0096
3943.00,0.0096
3942.00,0.0096
3941.00,0.0096
3940.00,0.0096
3939.00,0.0096
3938.00,0.0096
3937.00,0.0096
3936.00,0.0096
3935.00,0.0096
3934.00,0.0096
3933.00,0.0096
3932.00,0.0096
3931.00,0.0095
3930.00,0.0095
3929.00,0.0095
3928.00,0.0095
3927.00,0.0095
3926.00,0.0095
3925.00,0.0095
3924.00,0.0095
3923.00,0.0095
3922.00,0.0095
3921.00,0.0095
3920.00,0.0095
3919.00,0.0095
3918.00,0.0095
3917.00,0.0095
3916.00,0.0095
3915.00,0.0095
3914.00,0.0095
3913.00,0.0095
3912.00,0.0095
3911.00,0.0095
3910.00,0.0095
3909.00,0.0095
3908.00,0.0095
3907.00,0.0095
3906.00,0.0095
3905.00,0.0095
3904.00,0.0095
3903.00,0.0095
3902.00,0.0095
3901.00,0.0095
3900.00,0.0095
3899.00,0.0095
3898.00,0.0095
3897.00,0.0094
3896.00,0.0094
3895.00,0.0094
3894.00,0.0094
3893.00,0.0094
3892.00,0.0094
3891.00,0.0095
3890.00,0.0095
3889.00,0.0094
3888.00,0.0094
3887.00,0.0094
3886.00,0.0094
3885.00,0.0094
3884.00,0.0094
3883.00,0.0094
3882.00,0.0094
3881.00,0.0094
3880.00,0.0094
3879.00,0.0094
3878.00,0.0094
3877.00,0.0094
3876.00,0.0094
3875.00,0.0094
3874.00,0.0094
3873.00,0.0094
3872.00,0.0094
3871.00,0.0094
3870.00,0.0094
3869.00,0.0093
3868.00,0.0093
3867.00,0.0093
3866.00,0.0093
3865.00,0.0093
3864.00,0.0093
3863.00,0.0093
3862.00,0.0093
3861.00,0.0093
3860.00,0.0093
3859.00,0.0093
3858.00,0.0093
3857.00,0.0093
3856.00,0.0093
3855.00,0.0093
3854.00,0.0093
3853.00,0.0093
3852.00,0.0093
3851.00,0.0092
3850.00,0.0092
3849.00,0.0093
3848.00,0.0093
3847.00,0.0093
3846.00,0.0093
3845.00,0.0093
3844.00,0.0093
3843.00,0.0093
3842.00,0.0093
3841.00,0.0093
3840.00,0.0092
3839.00,0.0093
3838.00,0.0093
3837.00,0.0093
3836.00,0.0092
3835.00,0.0092
3834.00,0.0092
3833.00,0.0092
3832.00,0.0092
3831.00,0.0092
3830.00,0.0092
3829.00,0.0092
3828.00,0.0092
3827.00,0.0092
3826.00,0.0092
3825.00,0.0092
3824.00,0.0092
3823.00,0.0092
3822.00,0.0092
3821.00,0.0092
3820.00,0.0092
3819.00,0.0091
3818.00,0.0091
3817.00,0.0091
3816.00,0.0091
3815.00,0.0091
3814.00,0.0091
3813.00,0.0091
3812.00,0.0091
3811.00,0.0092
3810.00,0.0092
3809.00,0.0092
3808.00,0.0092
3807.00,0.0092
3806.00,0.0091
3805.00,0.0091
3804.00,0.0091
3803.00,0.0091
3802.00,0.0091
3801.00,0.0091
3800.00,0.0091
3799.00,0.0091
3798.00,0.0091
3797.00,0.0091
3796.00,0.0091
3795.00,0.0091
3794.00,0.0091
3793.00,0.0091
3792.00,0.0091
3791.00,0.0091
3790.00,0.0091
3789.00,0.0091
3788.00,0.0091
3787.00,0.0091
3786.00,0.0091
3785.00,0.0091
3784.00,0.0091
3783.00,0.0091
3782.00,0.0091
3781.00,0.0090
3780.00,0.0090
3779.00,0.0090
3778.00,0.0090
3777.00,0.0090
3776.00,0.0090
3775.00,0.0090
3774.00,0.0090
3773.00,0.0090
3772.00,0.0090
3771.00,0.0090
3770.00,0.0090
3769.00,0.0090
3768.00,0.0090
3767.00,0.0090
3766.00,0.0090
3765.00,0.0090
3764.00,0.0090
3763.00,0.0090
3762.00,0.0090
3761.00,0.0090
3760.00,0.0090
3759.00,0.0090
3758.00,0.0090
3757.00,0.0090
3756.00,0.0090
3755.00,0.0090
3754.00,0.0089
3753.00,0.0089
3752.00,0.0089
3751.00,0.0089
3750.00,0.0089
3749.00,0.0089
3748.00,0.0089
3747.00,0.0089
3746.00,0.0089
3745.00,0.0089
3744.00,0.0089
3743.00,0.0089
3742.00,0.0089
3741.00,0.0089
3740.00,0.0088
3739.00,0.0088
3738.00,0.0088
3737.00,0.0088
3736.00,0.0088
3735.00,0.0088
3734.00,0.0088
3733.00,0.0088
3732.00,0.0088
3731.00,0.0088
3730.00,0.0088
3729.00,0.0088
3728.00,0.0088
3727.00,0.0088
3726.00,0.0088
3725.00,0.0088
3724.00,0.0088
3723.00,0.0087
3722.00,0.0087
3721.00,0.0087
3720.00,0.0087
3719.00,0.0087
3718.00,0.0087
3717.00,0.0087
3716.00,0.0087
3715.00,0.0087
3714.00,0.0086
3713.00,0.0086
3712.00,0.0086
3711.00,0.0087
3710.00,0.0087
3709.00,0.0087
3708.00,0.0087
3707.00,0.0087
3706.00,0.0086
3705.00,0.0086
3704.00,0.0086
3703.00,0.0086
3702.00,0.0086
3701.00,0.0086
3700.00,0.0086
3699.00,0.0086
3698.00,0.0086
3697.00,0.0086
3696.00,0.0086
3695.00,0.0086
3694.00,0.0086
3693.00,0.0086
3692.00,0.0086
3691.00,0.0086
3690.00,0.0085
3689.00,0.0085
3688.00,0.0085
3687.00,0.0085
3686.00,0.0085
3685.00,0.0086
3684.00,0.0086
3683.00,0.0086
3682.00,0.0086
3681.00,0.0086
3680.00,0.0086
3679.00,0.0086
3678.00,0.0086
3677.00,0.0086
3676.00,0.0086
3675.00,0.0086
3674.00,0.0085
3673.00,0.0085
3672.00,0.0086
3671.00,0.0086
3670.00,0.0086
3669.00,0.0086
3668.00,0.0087
3667.00,0.0087
3666.00,0.0087
3665.00,0.0087
3664.00,0.0087
3663.00,0.0087
3662.00,0.0088
3661.00,0.0088
3660.00,0.0088
3659.00,0.0088
3658.00,0.0088
3657.00,0.0088
3656.00,0.0089
3655.00,0.0089
3654.00,0.0089
3653.00,0.0089
3652.00,0.0089
3651.00,0.0089
3650.00,0.0089
3649.00,0.0089
3648.00,0.0089
3647.00,0.0090
3646.00,0.0090
3645.00,0.0090
3644.00,0.0091
3643.00,0.0091
3642.00,0.0091
3641.00,0.0092
3640.00,0.0092
3639.00,0.0092
3638.00,0.0093
3637.00,0.0093
3636.00,0.0093
3635.00,0.0094
3634.00,0.0094
3633.00,0.0094
3632.00,0.0094
3631.00,0.0094
3630.00,0.0095
3629.00,0.0095
3628.00,0.0095
3627.00,0.0095
3626.00,0.0096
3625.00,0.0096
3624.00,0.0096
3623.00,0.0097
3622.00,0.0097
3621.00,0.0097
3620.00,0.0097
3619.00,0.0097
3618.00,0.0098
3617.00,0.0098
3616.00,0.0099
3615.00,0.0099
3614.00,0.0100
3613.00,0.0100
3612.00,0.0101
3611.00,0.0101
3610.00,0.0101
3609.00,0.0102
3608.00,0.0102
3607.00,0.0102
3606.00,0.0103
3605.00,0.0103
3604.00,0.0103
3603.00,0.0104
3602.00,0.0104
3601.00,0.0104
3600.00,0.0105
3599.00,0.0105
3598.00,0.0105
3597.00,0.0106
3596.00,0.0106
3595.00,0.0106
3594.00,0.0107
3593.00,0.0108
3592.00,0.0108
3591.00,0.0108
3590.00,0.0108
3589.00,0.0109
3588.00,0.0109
3587.00,0.0110
3586.00,0.0110
3585.00,0.0111
3584.00,0.0111
3583.00,0.0111
3582.00,0.0112
3581.00,0.0112
3580.00,0.0113
3579.00,0.0113
3578.00,0.0113
3577.00,0.0114
3576.00,0.0114
3575.00,0.0115
3574.00,0.0115
3573.00,0.0116
3572.00,0.0116
3571.00,0.0117
3570.00,0.0117
3569.00,0.0118
3568.00,0.0118
3567.00,0.0119
3566.00,0.0119
3565.00,0.0120
3564.00,0.0120
3563.00,0.0121
3562.00,0.0121
3561.00,0.0122
3560.00,0.0122
3559.00,0.0123
3558.00,0.0124
3557.00,0.0124
3556.00,0.0125
3555.00,0.0125
3554.00,0.0126
3553.00,0.0126
3552.00,0.0127
3551.00,0.0127
3550.00,0.0128
3549.00,0.0128
3548.00,0.0129
3547.00,0.0130
3546.00,0.0130
3545.00,0.0131
3544.00,0.0131
3543.00,0.0132
3542.00,0.0132
3541.00,0.0132
3540.00,0.0133
3539.00,0.0133
3538.00,0.0134
3537.00,0.0135
3536.00,0.0135
3535.00,0.0136
3534.00,0.0136
3533.00,0.0136
3532.00,0.0137
3531.00,0.0137
3530.00,0.0138
3529.00,0.0138
3528.00,0.0139
3527.00,0.0140
3526.00,0.0140
3525.00,0.0141
3524.00,0.0142
3523.00,0.0142
3522.00,0.0143
3521.00,0.0143
3520.00,0.0143
3519.00,0.0144
3518.00,0.0144
3517.00,0.0144
3516.00,0.0145
3515.00,0.0146
3514.00,0.0146
3513.00,0.0147
3512.00,0.0147
3511.00,0.0147
3510.00,0.0148
3509.00,0.0149
3508.00,0.0149
3507.00,0.0150
3506.00,0.0150
3505.00,0.0151
3504.00,0.0151
3503.00,0.0152
3502.00,0.0152
3501.00,0.0153
3500.00,0.0154
3499.00,0.0154
3498.00,0.0155
3497.00,0.0155
3496.00,0.0156
3495.00,0.0156
3494.00,0.0157
3493.00,0.0157
3492.00,0.0158
3491.00,0.0158
3490.00,0.0158
3489.00,0.0159
3488.00,0.0160
3487.00,0.0160
3486.00,0.0161
3485.00,0.0161
3484.00,0.0162
3483.00,0.0162
3482.00,0.0163
3481.00,0.0163
3480.00,0.0164
3479.00,0.0165
3478.00,0.0165
3477.00,0.0166
3476.00,0.0166
3475.00,0.0167
3474.00,0.0167
3473.00,0.0168
3472.00,0.0169
3471.00,0.0169
3470.00,0.0170
3469.00,0.0170
3468.00,0.0171
3467.00,0.0171
3466.00,0.0172
3465.00,0.0172
3464.00,0.0173
3463.00,0.0173
3462.00,0.0174
3461.00,0.0175
3460.00,0.0175
3459.00,0.0176
3458.00,0.0176
3457.00,0.0177
3456.00,0.0177
3455.00,0.0177
3454.00,0.0178
3453.00,0.0178
3452.00,0.0179
3451.00,0.0179
3450.00,0.0180
3449.00,0.0180
3448.00,0.0181
3447.00,0.0182
3446.00,0.0182
3445.00,0.0183
3444.00,0.0183
3443.00,0.0184
3442.00,0.0184
3441.00,0.0185
3440.00,0.0186
3439.00,0.0186
3438.00,0.0187
3437.00,0.0187
3436.00,0.0188
3435.00,0.0188
3434.00,0.0189
3433.00,0.0190
3432.00,0.0190
3431.00,0.0191
3430.00,0.0191
3429.00,0.0192
3428.00,0.0192
3427.00,0.0193
3426.00,0.0193
3425.00,0.0193
3424.00,0.0194
3423.00,0.0195
3422.00,0.0195
3421.00,0.0195
3420.00,0.0196
3419.00,0.0196
3418.00,0.0197
3417.00,0.0197
3416.00,0.0198
3415.00,0.0198
3414.00,0.0199
3413.00,0.0199
3412.00,0.0200
3411.00,0.0200
3410.00,0.0201
3409.00,0.0201
3408.00,0.0202
3407.00,0.0202
3406.00,0.0203
3405.00,0.0203
3404.00,0.0204
3403.00,0.0204
3402.00,0.0205
3401.00,0.0205
3400.00,0.0205
3399.00,0.0206
3398.00,0.0206
3397.00,0.0207
3396.00,0.0207
3395.00,0.0207
3394.00,0.0208
3393.00,0.0209
3392.00,0.0209
3391.00,0.0210
3390.00,0.0210
3389.00,0.0210
3388.00,0.0211
3387.00,0.0211
3386.00,0.0211
3385.00,0.0212
3384.00,0.0212
3383.00,0.0213
3382.00,0.0213
3381.00,0.0213
3380.00,0.0214
3379.00,0.0215
3378.00,0.0215
3377.00,0.0216
3376.00,0.0216
3375.00,0.0217
3374.00,0.0217
3373.00,0.0217
3372.00,0.0218
3371.00,0.0218
3370.00,0.0219
3369.00,0.0220
3368.00,0.0220
3367.00,0.0221
3366.00,0.0221
3365.00,0.0222
3364.00,0.0222
3363.00,0.0223
3362.00,0.0223
3361.00,0.0224
3360.00,0.0225
3359.00,0.0226
3358.00,0.0226
3357.00,0.0227
3356.00,0.0228
3355.00,0.0228
3354.00,0.0229
3353.00,0.0230
3352.00,0.0230
3351.00,0.0231
3350.00,0.0232
3349.00,0.0233
3348.00,0.0234
3347.00,0.0234
3346.00,0.0235
3345.00,0.0236
3344.00,0.0236
3343.00,0.0237
3342.00,0.0238
3341.00,0.0238
3340.00,0.0239
3339.00,0.0240
3338.00,0.0241
3337.00,0.0242
3336.00,0.0243
3335.00,0.0244
3334.00,0.0245
3333.00,0.0246
3332.00,0.0247
3331.00,0.0248
3330.00,0.0249
3329.00,0.0250
3328.00,0.0251
3327.00,0.0252
3326.00,0.0254
3325.00,0.0255
3324.00,0.0256
3323.00,0.0257
3322.00,0.0259
3321.00,0.0260
3320.00,0.0261
3319.00,0.0263
3318.00,0.0264
3317.00,0.0266
3316.00,0.0267
3315.00,0.0269
3314.00,0.0270
3313.00,0.0271
3312.00,0.0273
3311.00,0.0274
3310.00,0.0275
3309.00,0.0277
3308.00,0.0278
3307.00,0.0280
3306.00,0.0282
3305.00,0.0284
3304.00,0.0286
3303.00,0.0288
3302.00,0.0290
3301.00,0.0292
3300.00,0.0294
3299.00,0.0296
3298.00,0.0297
3297.00,0.0299
3296.00,0.0301
3295.00,0.0303
3294.00,0.0304
3293.00,0.0306
3292.00,0.0308
3291.00,0.0310
3290.00,0.0312
3289.00,0.0314
3288.00,0.0316
3287.00,0.0318
3286.00,0.0320
3285.00,0.0321
3284.00,0.0323
3283.00,0.0324
3282.00,0.0325
3281.00,0.0326
3280.00,0.0328
3279.00,0.0329
3278.00,0.0329
3277.00,0.0330
3276.00,0.0331
3275.00,0.0331
3274.00,0.0331
3273.00,0.0331
3272.00,0.0332
3271.00,0.0332
3270.00,0.0332
3269.00,0.0331
3268.00,0.0331
3267.00,0.0331
3266.00,0.0331
3265.00,0.0330
3264.00,0.0329
3263.00,0.0328
3262.00,0.0327
3261.00,0.0326
3260.00,0.0324
3259.00,0.0323
3258.00,0.0322
3257.00,0.0320
3256.00,0.0319
3255.00,0.0317
3254.00,0.0316
3253.00,0.0315
3252.00,0.0313
3251.00,0.0312
3250.00,0.0310
3249.00,0.0308
3248.00,0.0307
3247.00,0.0305
3246.00,0.0304
3245.00,0.0303
3244.00,0.0301
3243.00,0.0300
3242.00,0.0299
3241.00,0.0298
3240.00,0.0296
3239.00,0.0295
3238.00,0.0294
3237.00,0.0292
3236.00,0.0291
3235.00,0.0289
3234.00,0.0288
3233.00,0.0287
3232.00,0.0286
3231.00,0.0285
3230.00,0.0284
3229.00,0.0284
3228.00,0.0283
3227.00,0.0282
3226.00,0.0281
3225.00,0.0280
3224.00,0.0279
3223.00,0.0278
3222.00,0.0277
3221.00,0.0276
3220.00,0.0275
3219.00,0.0275
3218.00,0.0274
3217.00,0.0273
3216.00,0.0273
3215.00,0.0272
3214.00,0.0271
3213.00,0.0270
3212.00,0.0269
3211.00,0.0269
3210.00,0.0268
3209.00,0.0267
3208.00,0.0267
3207.00,0.0266
3206.00,0.0265
3205.00,0.0265
3204.00,0.0264
3203.00,0.0263
3202.00,0.0262
3201.00,0.0262
3200.00,0.0261
3199.00,0.0260
3198.00,0.0259
3197.00,0.0259
3196.00,0.0258
3195.00,0.0257
3194.00,0.0256
3193.00,0.0256
3192.00,0.0255
3191.00,0.0254
3190.00,0.0253
3189.00,0.0253
3188.00,0.0252
3187.00,0.0251
3186.00,0.0251
3185.00,0.0250
3184.00,0.0249
3183.00,0.0248
3182.00,0.0247
3181.00,0.0247
3180.00,0.0246
3179.00,0.0245
3178.00,0.0244
3177.00,0.0243
3176.00,0.0243
3175.00,0.0242
3174.00,0.0241
3173.00,0.0240
3172.00,0.0240
3171.00,0.0239
3170.00,0.0238
3169.00,0.0237
3168.00,0.0237
3167.00,0.0236
3166.00,0.0235
3165.00,0.0234
3164.00,0.0233
3163.00,0.0233
3162.00,0.0232
3161.00,0.0231
3160.00,0.0230
3159.00,0.0230
3158.00,0.0229
3157.00,0.0228
3156.00,0.0227
3155.00,0.0226
3154.00,0.0225
3153.00,0.0225
3152.00,0.0224
3151.00,0.0224
3150.00,0.0223
3149.00,0.0222
3148.00,0.0222
3147.00,0.0221
3146.00,0.0220
3145.00,0.0220
3144.00,0.0219
3143.00,0.0218
3142.00,0.0217
3141.00,0.0217
3140.00,0.0216
3139.00,0.0216
3138.00,0.0215
3137.00,0.0215
3136.00,0.0214
3135.00,0.0214
3134.00,0.0213
3133.00,0.0213
3132.00,0.0212
3131.00,0.0212
3130.00,0.0211
3129.00,0.0211
3128.00,0.0210
3127.00,0.0210
3126.00,0.0209
3125.00,0.0209
3124.00,0.0208
3123.00,0.0208
3122.00,0.0207
3121.00,0.0207
3120.00,0.0206
3119.00,0.0206
3118.00,0.0205
3117.00,0.0205
3116.00,0.0205
3115.00,0.0205
3114.00,0.0205
3113.00,0.0205
3112.00,0.0204
3111.00,0.0204
3110.00,0.0204
3109.00,0.0204
3108.00,0.0204
3107.00,0.0204
3106.00,0.0204
3105.00,0.0203
3104.00,0.0203
3103.00,0.0203
3102.00,0.0203
3101.00,0.0202
3100.00,0.0202
3099.00,0.0203
3098.00,0.0203
3097.00,0.0203
3096.00,0.0203
3095.00,0.0203
3094.00,0.0203
3093.00,0.0203
3092.00,0.0202
3091.00,0.0202
3090.00,0.0202
3089.00,0.0202
3088.00,0.0202
3087.00,0.0202
3086.00,0.0202
3085.00,0.0202
3084.00,0.0202
3083.00,0.0202
3082.00,0.0202
3081.00,0.0202
3080.00,0.0202
3079.00,0.0201
3078.00,0.0202
3077.00,0.0202
3076.00,0.0202
3075.00,0.0203
3074.00,0.0203
3073.00,0.0203
3072.00,0.0202
3071.00,0.0202
3070.00,0.0202
3069.00,0.0201
3068.00,0.0201
3067.00,0.0201
3066.00,0.0201
3065.00,0.0201
3064.00,0.0201
3063.00,0.0201
3062.00,0.0201
3061.00,0.0200
3060.00,0.0200
3059.00,0.0200
3058.00,0.0199
3057.00,0.0199
3056.00,0.0198
3055.00,0.0198
3054.00,0.0197
3053.00,0.0197
3052.00,0.0196
3051.00,0.0196
3050.00,0.0195
3049.00,0.0195
3048.00,0.0194
3047.00,0.0194
3046.00,0.0193
3045.00,0.0192
3044.00,0.0192
3043.00,0.0191
3042.00,0.0191
3041.00,0.0191
3040.00,0.0190
3039.00,0.0190
3038.00,0.0190
3037.00,0.0189
3036.00,0.0188
3035.00,0.0188
3034.00,0.0187
3033.00,0.0187
3032.00,0.0186
3031.00,0.0186
3030.00,0.0186
3029.00,0.0186
3028.00,0.0186
3027.00,0.0185
3026.00,0.0184
3025.00,0.0184
3024.00,0.0183
3023.00,0.0183
3022.00,0.0182
3021.00,0.0182
3020.00,0.0181
3019.00,0.0180
3018.00,0.0179
3017.00,0.0179
3016.00,0.0178
3015.00,0.0178
3014.00,0.0177
3013.00,0.0177
3012.00,0.0176
3011.00,0.0176
3010.00,0.0177
3009.00,0.0177
3008.00,0.0177
3007.00,0.0177
3006.00,0.0176
3005.00,0.0176
3004.00,0.0176
3003.00,0.0175
3002.00,0.0175
3001.00,0.0175
3000.00,0.0175
2999.00,0.0175
2998.00,0.0175
2997.00,0.0175
2996.00,0.0175
2995.00,0.0175
2994.00,0.0175
2993.00,0.0175
2992.00,0.0175
2991.00,0.0176
2990.00,0.0176
2989.00,0.0177
2988.00,0.0177
2987.00,0.0178
2986.00,0.0178
2985.00,0.0178
2984.00,0.0179
2983.00,0.0179
2982.00,0.0180
2981.00,0.0180
2980.00,0.0180
2979.00,0.0181
2978.00,0.0181
2977.00,0.0182
2976.00,0.0182
2975.00,0.0182
2974.00,0.0183
2973.00,0.0183
2972.00,0.0184
2971.00,0.0184
2970.00,0.0184
2969.00,0.0184
2968.00,0.0184
2967.00,0.0185
2966.00,0.0185
2965.00,0.0184
2964.00,0.0184
2963.00,0.0184
2962.00,0.0184
2961.00,0.0184
2960.00,0.0184
2959.00,0.0183
2958.00,0.0183
2957.00,0.0183
2956.00,0.0183
2955.00,0.0182
2954.00,0.0182
2953.00,0.0182
2952.00,0.0183
2951.00,0.0183
2950.00,0.0183
2949.00,0.0183
2948.00,0.0183
2947.00,0.0183
2946.00,0.0183
2945.00,0.0183
2944.00,0.0184
2943.00,0.0184
2942.00,0.0185
2941.00,0.0185
2940.00,0.0185
2939.00,0.0186
2938.00,0.0186
2937.00,0.0186
2936.00,0.0186
2935.00,0.0186
2934.00,0.0186
2933.00,0.0185
2932.00,0.0185
2931.00,0.0184
2930.00,0.0184
2929.00,0.0183
2928.00,0.0182
2927.00,0.0181
2926.00,0.0180
2925.00,0.0179
2924.00,0.0178
2923.00,0.0176
2922.00,0.0175
2921.00,0.0173
2920.00,0.0171
2919.00,0.0169
2918.00,0.0168
2917.00,0.0167
2916.00,0.0166
2915.00,0.0166
2914.00,0.0167
2913.00,0.0169
2912.00,0.0170
2911.00,0.0171
2910.00,0.0172
2909.00,0.0173
2908.00,0.0173
2907.00,0.0173
2906.00,0.0173
2905.00,0.0173
2904.00,0.0173
2903.00,0.0173
2902.00,0.0173
2901.00,0.0173
2900.00,0.0173
2899.00,0.0173
2898.00,0.0173
2897.00,0.0172
2896.00,0.0172
2895.00,0.0172
2894.00,0.0172
2893.00,0.0172
2892.00,0.0172
2891.00,0.0172
2890.00,0.0172
2889.00,0.0173
2888.00,0.0173
2887.00,0.0173
2886.00,0.0173
2885.00,0.0173
2884.00,0.0174
2883.00,0.0174
2882.00,0.0174
2881.00,0.0174
2880.00,0.0175
2879.00,0.0175
2878.00,0.0175
2877.00,0.0175
2876.00,0.0175
2875.00,0.0175
2874.00,0.0175
2873.00,0.0174
2872.00,0.0174
2871.00,0.0174
2870.00,0.0173
2869.00,0.0173
2868.00,0.0172
2867.00,0.0171
2866.00,0.0171
2865.00,0.0170
2864.00,0.0169
2863.00,0.0168
2862.00,0.0167
2861.00,0.0166
2860.00,0.0166
2859.00,0.0165
2858.00,0.0164
2857.00,0.0163
2856.00,0.0162
2855.00,0.0161
2854.00,0.0160
2853.00,0.0158
2852.00,0.0157
2851.00,0.0155
2850.00,0.0153
2849.00,0.0152
2848.00,0.0152
2847.00,0.0153
2846.00,0.0154
2845.00,0.0156
2844.00,0.0157
2843.00,0.0157
2842.00,0.0158
2841.00,0.0158
2840.00,0.0158
2839.00,0.0158
2838.00,0.0157
2837.00,0.0157
2836.00,0.0157
2835.00,0.0157
2834.00,0.0157
2833.00,0.0156
2832.00,0.0156
2831.00,0.0156
2830.00,0.0156
2829.00,0.0156
2828.00,0.0155
2827.00,0.0155
2826.00,0.0155
2825.00,0.0154
2824.00,0.0154
2823.00,0.0154
2822.00,0.0154
2821.00,0.0153
2820.00,0.0153
2819.00,0.0153
2818.00,0.0153
2817.00,0.0153
2816.00,0.0153
2815.00,0.0152
2814.00,0.0152
2813.00,0.0152
2812.00,0.0152
2811.00,0.0151
2810.00,0.0151
2809.00,0.0151
2808.00,0.0151
2807.00,0.0151
2806.00,0.0151
2805.00,0.0150
2804.00,0.0150
2803.00,0.0150
2802.00,0.0150
2801.00,0.0150
2800.00,0.0150
2799.00,0.0149
2798.00,0.0149
2797.00,0.0149
2796.00,0.0149
2795.00,0.0149
2794.00,0.0149
2793.00,0.0148
2792.00,0.0148
2791.00,0.0148
2790.00,0.0148
2789.00,0.0148
2788.00,0.0147
2787.00,0.0147
2786.00,0.0147
2785.00,0.0147
2784.00,0.0147
2783.00,0.0147
2782.00,0.0147
2781.00,0.0147
2780.00,0.0146
2779.00,0.0146
2778.00,0.0146
2777.00,0.0146
2776.00,0.0146
2775.00,0.0145
2774.00,0.0145
2773.00,0.0145
2772.00,0.0145
2771.00,0.0145
2770.00,0.0145
2769.00,0.0145
2768.00,0.0145
2767.00,0.0144
2766.00,0.0144
2765.00,0.0144
2764.00,0.0144
2763.00,0.0144
2762.00,0.0144
2761.00,0.0143
2760.00,0.0143
2759.00,0.0143
2758.00,0.0143
2757.00,0.0142
2756.00,0.0142
2755.00,0.0142
2754.00,0.0142
2753.00,0.0142
2752.00,0.0142
2751.00,0.0142
2750.00,0.0141
2749.00,0.0141
2748.00,0.0141
2747.00,0.0141
2746.00,0.0141
2745.00,0.0141
2744.00,0.0141
2743.00,0.0140
2742.00,0.0140
2741.00,0.0140
2740.00,0.0140
2739.00,0.0140
2738.00,0.0140
2737.00,0.0140
2736.00,0.0139
2735.00,0.0139
2734.00,0.0139
2733.00,0.0139
2732.00,0.0139
2731.00,0.0139
2730.00,0.0139
2729.00,0.0139
2728.00,0.0138
2727.00,0.0138
2726.00,0.0138
2725.00,0.0138
2724.00,0.0138
2723.00,0.0138
2722.00,0.0137
2721.00,0.0137
2720.00,0.0137
2719.00,0.0137
2718.00,0.0137
2717.00,0.0136
2716.00,0.0136
2715.00,0.0136
2714.00,0.0136
2713.00,0.0136
2712.00,0.0136
2711.00,0.0136
2710.00,0.0135
2709.00,0.0135
2708.00,0.0135
2707.00,0.0135
2706.00,0.0135
2705.00,0.0134
2704.00,0.0134
2703.00,0.0134
2702.00,0.0134
2701.00,0.0134
2700.00,0.0134
2699.00,0.0134
2698.00,0.0134
2697.00,0.0134
2696.00,0.0134
2695.00,0.0133
2694.00,0.0133
2693.00,0.0133
2692.00,0.0133
2691.00,0.0133
2690.00,0.0132
2689.00,0.0132
2688.00,0.0132
2687.00,0.0132
2686.00,0.0132
2685.00,0.0132
2684.00,0.0132
2683.00,0.0132
2682.00,0.0131
2681.00,0.0131
2680.00,0.0131
2679.00,0.0131
2678.00,0.0131
2677.00,0.0131
2676.00,0.0131
2675.00,0.0131
2674.00,0.0131
2673.00,0.0131
2672.00,0.0131
2671.00,0.0130
2670.00,0.0130
2669.00,0.0130
2668.00,0.0130
2667.00,0.0130
2666.00,0.0131
2665.00,0.0131
2664.00,0.0131
2663.00,0.0132
2662.00,0.0132
2661.00,0.0132
2660.00,0.0132
2659.00,0.0132
2658.00,0.0132
2657.00,0.0132
2656.00,0.0132
2655.00,0.0132
2654.00,0.0132
2653.00,0.0132
2652.00,0.0132
2651.00,0.0132
2650.00,0.0131
2649.00,0.0131
2648.00,0.0131
2647.00,0.0131
2646.00,0.0131
2645.00,0.0131
2644.00,0.0131
2643.00,0.0131
2642.00,0.0130
2641.00,0.0130
2640.00,0.0130
2639.00,0.0130
2638.00,0.0130
2637.00,0.0130
2636.00,0.0130
2635.00,0.0129
2634.00,0.0129
2633.00,0.0129
2632.00,0.0129
2631.00,0.0129
2630.00,0.0128
2629.00,0.0128
2628.00,0.0128
2627.00,0.0128
2626.00,0.0128
2625.00,0.0127
2624.00,0.0127
2623.00,0.0127
2622.00,0.0127
2621.00,0.0127
2620.00,0.0126
2619.00,0.0126
2618.00,0.0126
2617.00,0.0126
2616.00,0.0126
2615.00,0.0126
2614.00,0.0126
2613.00,0.0125
2612.00,0.0125
2611.00,0.0125
2610.00,0.0125
2609.00,0.0125
2608.00,0.0125
2607.00,0.0125
2606.00,0.0124
2605.00,0.0124
2604.00,0.0124
2603.00,0.0124
2602.00,0.0123
2601.00,0.0123
2600.00,0.0123
2599.00,0.0123
2598.00,0.0123
2597.00,0.0123
2596.00,0.0123
2595.00,0.0123
2594.00,0.0122
2593.00,0.0122
2592.00,0.0122
2591.00,0.0122
2590.00,0.0122
2589.00,0.0121
2588.00,0.0121
2587.00,0.0121
2586.00,0.0121
2585.00,0.0121
2584.00,0.0121
2583.00,0.0120
2582.00,0.0120
2581.00,0.0120
2580.00,0.0120
2579.00,0.0120
2578.00,0.0120
2577.00,0.0119
2576.00,0.0119
2575.00,0.0119
2574.00,0.0119
2573.00,0.0119
2572.00,0.0119
2571.00,0.0119
2570.00,0.0118
2569.00,0.0118
2568.00,0.0118
2567.00,0.0118
2566.00,0.0118
2565.00,0.0118
2564.00,0.0118
2563.00,0.0118
2562.00,0.0118
2561.00,0.0118
2560.00,0.0118
2559.00,0.0118
2558.00,0.0117
2557.00,0.0117
2556.00,0.0117
2555.00,0.0117
2554.00,0.0117
2553.00,0.0116
2552.00,0.0116
2551.00,0.0116
2550.00,0.0116
2549.00,0.0116
2548.00,0.0116
2547.00,0.0116
2546.00,0.0116
2545.00,0.0116
2544.00,0.0115
2543.00,0.0115
2542.00,0.0115
2541.00,0.0115
2540.00,0.0115
2539.00,0.0115
2538.00,0.0115
2537.00,0.0115
2536.00,0.0115
2535.00,0.0115
2534.00,0.0114
2533.00,0.0114
2532.00,0.0114
2531.00,0.0114
2530.00,0.0114
2529.00,0.0114
2528.00,0.0114
2527.00,0.0114
2526.00,0.0114
2525.00,0.0114
2524.00,0.0114
2523.00,0.0114
2522.00,0.0113
2521.00,0.0113
2520.00,0.0113
2519.00,0.0113
2518.00,0.0113
2517.00,0.0113
2516.00,0.0113
2515.00,0.0113
2514.00,0.0113
2513.00,0.0113
2512.00,0.0113
2511.00,0.0112
2510.00,0.0112
2509.00,0.0112
2508.00,0.0112
2507.00,0.0112
2506.00,0.0112
2505.00,0.0112
2504.00,0.0112
2503.00,0.0112
2502.00,0.0112
2501.00,0.0112
2500.00,0.0112
2499.00,0.0112
2498.00,0.0111
2497.00,0.0111
2496.00,0.0111
2495.00,0.0111
2494.00,0.0111
2493.00,0.0111
2492.00,0.0111
2491.00,0.0111
2490.00,0.0111
2489.00,0.0111
2488.00,0.0111
2487.00,0.0111
2486.00,0.0111
2485.00,0.0111
2484.00,0.0110
2483.00,0.0110
2482.00,0.0110
2481.00,0.0110
2480.00,0.0110
2479.00,0.0110
2478.00,0.0110
2477.00,0.0110
2476.00,0.0110
2475.00,0.0110
2474.00,0.0110
2473.00,0.0110
2472.00,0.0110
2471.00,0.0110
2470.00,0.0110
2469.00,0.0109
2468.00,0.0110
2467.00,0.0110
2466.00,0.0110
2465.00,0.0110
2464.00,0.0110
2463.00,0.0110
2462.00,0.0110
2461.00,0.0110
2460.00,0.0110
2459.00,0.0110
2458.00,0.0110
2457.00,0.0110
2456.00,0.0110
2455.00,0.0110
2454.00,0.0110
2453.00,0.0110
2452.00,0.0110
2451.00,0.0110
2450.00,0.0110
2449.00,0.0109
2448.00,0.0109
2447.00,0.0109
2446.00,0.0109
2445.00,0.0108
2444.00,0.0108
2443.00,0.0108
2442.00,0.0107
2441.00,0.0107
2440.00,0.0107
2439.00,0.0107
2438.00,0.0107
2437.00,0.0107
2436.00,0.0107
2435.00,0.0107
2434.00,0.0107
2433.00,0.0107
2432.00,0.0106
2431.00,0.0106
2430.00,0.0106
2429.00,0.0106
2428.00,0.0106
2427.00,0.0105
2426.00,0.0105
2425.00,0.0105
2424.00,0.0105
2423.00,0.0105
2422.00,0.0105
2421.00,0.0105
2420.00,0.0105
2419.00,0.0105
2418.00,0.0105
2417.00,0.0105
2416.00,0.0105
2415.00,0.0105
2414.00,0.0105
2413.00,0.0105
2412.00,0.0105
2411.00,0.0104
2410.00,0.0104
2409.00,0.0104
2408.00,0.0103
2407.00,0.0103
2406.00,0.0103
2405.00,0.0103
2404.00,0.0102
2403.00,0.0102
2402.00,0.0102
2401.00,0.0102
2400.00,0.0102
2399.00,0.0102
2398.00,0.0102
2397.00,0.0102
2396.00,0.0101
2395.00,0.0102
2394.00,0.0102
2393.00,0.0102
2392.00,0.0102
2391.00,0.0102
2390.00,0.0101
2389.00,0.0101
2388.00,0.0101
2387.00,0.0100
2386.00,0.0100
2385.00,0.0100
2384.00,0.0099
2383.00,0.0099
2382.00,0.0099
2381.00,0.0098
2380.00,0.0098
2379.00,0.0098
2378.00,0.0098
2377.00,0.0099
2376.00,0.0099
2375.00,0.0099
2374.00,0.0099
2373.00,0.0099
2372.00,0.0099
2371.00,0.0098
2370.00,0.0098
2369.00,0.0098
2368.00,0.0098
2367.00,0.0098
2366.00,0.0098
2365.00,0.0099
2364.00,0.0099
2363.00,0.0099
2362.00,0.0099
2361.00,0.0100
2360.00,0.0100
2359.00,0.0100
2358.00,0.0100
2357.00,0.0100
2356.00,0.0100
2355.00,0.0100
2354.00,0.0100
2353.00,0.0099
2352.00,0.0099
2351.00,0.0099
2350.00,0.0099
2349.00,0.0100
2348.00,0.0101
2347.00,0.0102
2346.00,0.0102
2345.00,0.0102
2344.00,0.0101
2343.00,0.0102
2342.00,0.0102
2341.00,0.0102
2340.00,0.0102
2339.00,0.0102
2338.00,0.0102
2337.00,0.0101
2336.00,0.0101
2335.00,0.0101
2334.00,0.0101
2333.00,0.0101
2332.00,0.0100
2331.00,0.0100
2330.00,0.0100
2329.00,0.0102
2328.00,0.0105
2327.00,0.0109
2326.00,0.0111
2325.00,0.0112
2324.00,0.0112
2323.00,0.0110
2322.00,0.0108
2321.00,0.0106
2320.00,0.0106
2319.00,0.0105
2318.00,0.0105
2317.00,0.0105
2316.00,0.0105
2315.00,0.0104
2314.00,0.0103
2313.00,0.0103
2312.00,0.0102
2311.00,0.0102
2310.00,0.0101
2309.00,0.0101
2308.00,0.0101
2307.00,0.0101
2306.00,0.0102
2305.00,0.0102
2304.00,0.0102
2303.00,0.0102
2302.00,0.0102
2301.00,0.0102
2300.00,0.0103
2299.00,0.0103
2298.00,0.0103
2297.00,0.0104
2296.00,0.0104
2295.00,0.0105
2294.00,0.0105
2293.00,0.0106
2292.00,0.0107
2291.00,0.0107
2290.00,0.0108
2289.00,0.0108
2288.00,0.0108
2287.00,0.0108
2286.00,0.0108
2285.00,0.0108
2284.00,0.0107
2283.00,0.0106
2282.00,0.0106
2281.00,0.0105
2280.00,0.0105
2279.00,0.0104
2278.00,0.0104
2277.00,0.0104
2276.00,0.0104
2275.00,0.0103
2274.00,0.0103
2273.00,0.0103
2272.00,0.0103
2271.00,0.0103
2270.00,0.0102
2269.00,0.0102
2268.00,0.0101
2267.00,0.0101
2266.00,0.0100
2265.00,0.0100
2264.00,0.0100
2263.00,0.0100
2262.00,0.0101
2261.00,0.0101
2260.00,0.0102
2259.00,0.0102
2258.00,0.0101
2257.00,0.0100
2256.00,0.0099
2255.00,0.0099
2254.00,0.0098
2253.00,0.0098
2252.00,0.0098
2251.00,0.0098
2250.00,0.0098
2249.00,0.0099
2248.00,0.0099
2247.00,0.0099
2246.00,0.0099
2245.00,0.0099
2244.00,0.0099
2243.00,0.0099
2242.00,0.0099
2241.00,0.0099
2240.00,0.0099
2239.00,0.0099
2238.00,0.0099
2237.00,0.0099
2236.00,0.0099
2235.00,0.0099
2234.00,0.0098
2233.00,0.0098
2232.00,0.0098
2231.00,0.0098
2230.00,0.0098
2229.00,0.0098
2228.00,0.0097
2227.00,0.0097
2226.00,0.0097
2225.00,0.0097
2224.00,0.0097
2223.00,0.0097
2222.00,0.0097
2221.00,0.0097
2220.00,0.0097
2219.00,0.0097
2218.00,0.0097
2217.00,0.0097
2216.00,0.0097
2215.00,0.0097
2214.00,0.0097
2213.00,0.0097
2212.00,0.0097
2211.00,0.0097
2210.00,0.0097
2209.00,0.0097
2208.00,0.0097
2207.00,0.0097
2206.00,0.0097
2205.00,0.0097
2204.00,0.0097
2203.00,0.0097
2202.00,0.0097
2201.00,0.0097
2200.00,0.0097
2199.00,0.0097
2198.00,0.0097
2197.00,0.0097
2196.00,0.0097
2195.00,0.0097
2194.00,0.0097
2193.00,0.0097
2192.00,0.0097
2191.00,0.0097
2190.00,0.0098
2189.00,0.0098
2188.00,0.0099
2187.00,0.0099
2186.00,0.0099
2185.00,0.0098
2184.00,0.0097
2183.00,0.0094
2182.00,0.0092
2181.00,0.0091
2180.00,0.0091
2179.00,0.0092
2178.00,0.0091
2177.00,0.0090
2176.00,0.0090
2175.00,0.0090
2174.00,0.0091
2173.00,0.0093
2172.00,0.0096
2171.00,0.0098
2170.00,0.0100
2169.00,0.0102
2168.00,0.0103
2167.00,0.0103
2166.00,0.0103
2165.00,0.0104
2164.00,0.0106
2163.00,0.0106
2162.00,0.0103
2161.00,0.0094
2160.00,0.0083
2159.00,0.0072
2158.00,0.0067
2157.00,0.0066
2156.00,0.0067
2155.00,0.0070
2154.00,0.0072
2153.00,0.0074
2152.00,0.0076
2151.00,0.0077
2150.00,0.0078
2149.00,0.0078
2148.00,0.0077
2147.00,0.0077
2146.00,0.0077
2145.00,0.0077
2144.00,0.0078
2143.00,0.0078
2142.00,0.0078
2141.00,0.0078
2140.00,0.0078
2139.00,0.0078
2138.00,0.0077
2137.00,0.0076
2136.00,0.0074
2135.00,0.0073
2134.00,0.0073
2133.00,0.0073
2132.00,0.0075
2131.00,0.0076
2130.00,0.0078
2129.00,0.0079
2128.00,0.0080
2127.00,0.0082
2126.00,0.0082
2125.00,0.0083
2124.00,0.0084
2123.00,0.0084
2122.00,0.0085
2121.00,0.0085
2120.00,0.0085
2119.00,0.0086
2118.00,0.0087
2117.00,0.0088
2116.00,0.0088
2115.00,0.0089
2114.00,0.0089
2113.00,0.0089
2112.00,0.0089
2111.00,0.0089
2110.00,0.0089
2109.00,0.0089
2108.00,0.0089
2107.00,0.0089
2106.00,0.0088
2105.00,0.0088
2104.00,0.0088
2103.00,0.0088
2102.00,0.0088
2101.00,0.0088
2100.00,0.0088
2099.00,0.0088
2098.00,0.0087
2097.00,0.0086
2096.00,0.0085
2095.00,0.0085
2094.00,0.0085
2093.00,0.0085
2092.00,0.0086
2091.00,0.0087
2090.00,0.0087
2089.00,0.0088
2088.00,0.0088
2087.00,0.0088
2086.00,0.0088
2085.00,0.0089
2084.00,0.0089
2083.00,0.0089
2082.00,0.0089
2081.00,0.0089
2080.00,0.0089
2079.00,0.0089
2078.00,0.0089
2077.00,0.0089
2076.00,0.0088
2075.00,0.0088
2074.00,0.0087
2073.00,0.0087
2072.00,0.0086
2071.00,0.0086
2070.00,0.0086
2069.00,0.0086
2068.00,0.0086
2067.00,0.0086
2066.00,0.0086
2065.00,0.0086
2064.00,0.0086
2063.00,0.0086
2062.00,0.0086
2061.00,0.0086
2060.00,0.0086
2059.00,0.0087
2058.00,0.0087
2057.00,0.0086
2056.00,0.0086
2055.00,0.0087
2054.00,0.0088
2053.00,0.0091
2052.00,0.0095
2051.00,0.0096
2050.00,0.0094
2049.00,0.0091
2048.00,0.0089
2047.00,0.0087
2046.00,0.0086
2045.00,0.0086
2044.00,0.0086
2043.00,0.0086
2042.00,0.0085
2041.00,0.0085
2040.00,0.0086
2039.00,0.0087
2038.00,0.0088
2037.00,0.0088
2036.00,0.0087
2035.00,0.0085
2034.00,0.0083
2033.00,0.0080
2032.00,0.0079
2031.00,0.0078
2030.00,0.0078
2029.00,0.0078
2028.00,0.0078
2027.00,0.0078
2026.00,0.0077
2025.00,0.0077
2024.00,0.0077
2023.00,0.0077
2022.00,0.0077
2021.00,0.0076
2020.00,0.0076
2019.00,0.0076
2018.00,0.0077
2017.00,0.0077
2016.00,0.0078
2015.00,0.0077
2014.00,0.0077
2013.00,0.0078
2012.00,0.0080
2011.00,0.0082
2010.00,0.0081
2009.00,0.0078
2008.00,0.0074
2007.00,0.0071
2006.00,0.0071
2005.00,0.0072
2004.00,0.0073
2003.00,0.0074
2002.00,0.0074
2001.00,0.0074
2000.00,0.0075
1999.00,0.0076
1998.00,0.0076
1997.00,0.0075
1996.00,0.0076
1995.00,0.0077
1994.00,0.0077
1993.00,0.0078
1992.00,0.0078
1991.00,0.0079
1990.00,0.0079
1989.00,0.0080
1988.00,0.0082
1987.00,0.0083
1986.00,0.0083
1985.00,0.0084
1984.00,0.0085
1983.00,0.0087
1982.00,0.0089
1981.00,0.0089
1980.00,0.0087
1979.00,0.0082
1978.00,0.0077
1977.00,0.0073
1976.00,0.0071
1975.00,0.0070
1974.00,0.0070
1973.00,0.0071
1972.00,0.0071
1971.00,0.0071
1970.00,0.0070
1969.00,0.0069
1968.00,0.0069
1967.00,0.0069
1966.00,0.0068
1965.00,0.0068
1964.00,0.0068
1963.00,0.0067
1962.00,0.0066
1961.00,0.0065
1960.00,0.0065
1959.00,0.0065
1958.00,0.0066
1957.00,0.0067
1956.00,0.0068
1955.00,0.0069
1954.00,0.0069
1953.00,0.0068
1952.00,0.0068
1951.00,0.0068
1950.00,0.0068
1949.00,0.0068
1948.00,0.0068
1947.00,0.0068
1946.00,0.0068
1945.00,0.0067
1944.00,0.0068
1943.00,0.0068
1942.00,0.0068
1941.00,0.0068
1940.00,0.0068
1939.00,0.0068
1938.00,0.0068
1937.00,0.0068
1936.00,0.0068
1935.00,0.0067
1934.00,0.0067
1933.00,0.0067
1932.00,0.0068
1931.00,0.0068
1930.00,0.0068
1929.00,0.0068
1928.00,0.0068
1927.00,0.0068
1926.00,0.0068
1925.00,0.0068
1924.00,0.0068
1923.00,0.0069
1922.00,0.0069
1921.00,0.0070
1920.00,0.0070
1919.00,0.0070
1918.00,0.0069
1917.00,0.0069
1916.00,0.0069
1915.00,0.0069
1914.00,0.0069
1913.00,0.0069
1912.00,0.0069
1911.00,0.0069
1910.00,0.0069
1909.00,0.0069
1908.00,0.0069
1907.00,0.0069
1906.00,0.0068
1905.00,0.0068
1904.00,0.0068
1903.00,0.0069
1902.00,0.0068
1901.00,0.0068
1900.00,0.0068
1899.00,0.0068
1898.00,0.0067
1897.00,0.0067
1896.00,0.0067
1895.00,0.0068
1894.00,0.0068
1893.00,0.0068
1892.00,0.0067
1891.00,0.0067
1890.00,0.0067
1889.00,0.0067
1888.00,0.0067
1887.00,0.0067
1886.00,0.0067
1885.00,0.0067
1884.00,0.0067
1883.00,0.0067
1882.00,0.0067
1881.00,0.0066
1880.00,0.0066
1879.00,0.0066
1878.00,0.0066
1877.00,0.0066
1876.00,0.0067
1875.00,0.0067
1874.00,0.0066
1873.00,0.0066
1872.00,0.0066
1871.00,0.0065
1870.00,0.0065
1869.00,0.0066
1868.00,0.0066
1867.00,0.0066
1866.00,0.0066
1865.00,0.0066
1864.00,0.0066
1863.00,0.0066
1862.00,0.0065
1861.00,0.0065
1860.00,0.0065
1859.00,0.0065
1858.00,0.0065
1857.00,0.0065
1856.00,0.0065
1855.00,0.0065
1854.00,0.0064
1853.00,0.0064
1852.00,0.0064
1851.00,0.0064
1850.00,0.0064
1849.00,0.0064
1848.00,0.0064
1847.00,0.0064
1846.00,0.0064
1845.00,0.0064
1844.00,0.0064
1843.00,0.0064
1842.00,0.0064
1841.00,0.0063
1840.00,0.0063
1839.00,0.0063
1838.00,0.0063
1837.00,0.0063
1836.00,0.0063
1835.00,0.0063
1834.00,0.0063
1833.00,0.0063
1832.00,0.0063
1831.00,0.0063
1830.00,0.0063
1829.00,0.0063
1828.00,0.0062
1827.00,0.0062
1826.00,0.0063
1825.00,0.0063
1824.00,0.0063
1823.00,0.0063
1822.00,0.0062
1821.00,0.0062
1820.00,0.0061
1819.00,0.0060
1818.00,0.0059
1817.00,0.0059
1816.00,0.0060
1815.00,0.0060
1814.00,0.0060
1813.00,0.0060
1812.00,0.0061
1811.00,0.0061
1810.00,0.0062
1809.00,0.0062
1808.00,0.0062
1807.00,0.0062
1806.00,0.0062
1805.00,0.0061
1804.00,0.0061
1803.00,0.0061
1802.00,0.0061
1801.00,0.0062
1800.00,0.0062
1799.00,0.0062
1798.00,0.0062
1797.00,0.0062
1796.00,0.0062
1795.00,0.0062
1794.00,0.0062
1793.00,0.0062
1792.00,0.0063
1791.00,0.0063
1790.00,0.0063
1789.00,0.0062
1788.00,0.0062
1787.00,0.0062
1786.00,0.0062
1785.00,0.0062
1784.00,0.0063
1783.00,0.0063
1782.00,0.0063
1781.00,0.0063
1780.00,0.0063
1779.00,0.0063
1778.00,0.0062
1777.00,0.0062
1776.00,0.0063
1775.00,0.0063
1774.00,0.0063
1773.00,0.0063
1772.00,0.0064
1771.00,0.0064
1770.00,0.0064
1769.00,0.0064
1768.00,0.0064
1767.00,0.0064
1766.00,0.0064
1765.00,0.0064
1764.00,0.0064
1763.00,0.0065
1762.00,0.0065
1761.00,0.0065
1760.00,0.0065
1759.00,0.0065
1758.00,0.0066
1757.00,0.0066
1756.00,0.0067
1755.00,0.0067
1754.00,0.0067
1753.00,0.0067
1752.00,0.0067
1751.00,0.0068
1750.00,0.0068
1749.00,0.0068
1748.00,0.0068
1747.00,0.0069
1746.00,0.0069
1745.00,0.0069
1744.00,0.0070
1743.00,0.0071
1742.00,0.0071
1741.00,0.0072
1740.00,0.0073
1739.00,0.0074
1738.00,0.0074
1737.00,0.0075
1736.00,0.0076
1735.00,0.0077
1734.00,0.0079
1733.00,0.0079
1732.00,0.0079
1731.00,0.0080
1730.00,0.0080
1729.00,0.0081
1728.00,0.0082
1727.00,0.0083
1726.00,0.0083
1725.00,0.0084
1724.00,0.0086
1723.00,0.0087
1722.00,0.0088
1721.00,0.0089
1720.00,0.0090
1719.00,0.0092
1718.00,0.0094
1717.00,0.0095
1716.00,0.0097
1715.00,0.0099
1714.00,0.0100
1713.00,0.0101
1712.00,0.0104
1711.00,0.0106
1710.00,0.0109
1709.00,0.0111
1708.00,0.0115
1707.00,0.0119
1706.00,0.0125
1705.00,0.0131
1704.00,0.0139
1703.00,0.0145
1702.00,0.0154
1701.00,0.0168
1700.00,0.0187
1699.00,0.0203
1698.00,0.0214
1697.00,0.0223
1696.00,0.0233
1695.00,0.0241
1694.00,0.0246
1693.00,0.0249
1692.00,0.0252
1691.00,0.0255
1690.00,0.0259
1689.00,0.0264
1688.00,0.0269
1687.00,0.0274
1686.00,0.0279
1685.00,0.0286
1684.00,0.0297
1683.00,0.0307
1682.00,0.0314
1681.00,0.0320
1680.00,0.0327
1679.00,0.0334
1678.00,0.0340
1677.00,0.0348
1676.00,0.0357
1675.00,0.0367
1674.00,0.0376
1673.00,0.0384
1672.00,0.0390
1671.00,0.0398
1670.00,0.0408
1669.00,0.0419
1668.00,0.0429
1667.00,0.0437
1666.00,0.0443
1665.00,0.0449
1664.00,0.0457
1663.00,0.0466
1662.00,0.0476
1661.00,0.0484
1660.00,0.0491
1659.00,0.0498
1658.00,0.0504
1657.00,0.0509
1656.00,0.0514
1655.00,0.0519
1654.00,0.0527
1653.00,0.0539
1652.00,0.0549
1651.00,0.0553
1650.00,0.0554
1649.00,0.0556
1648.00,0.0560
1647.00,0.0566
1646.00,0.0573
1645.00,0.0578
1644.00,0.0582
1643.00,0.0585
1642.00,0.0588
1641.00,0.0591
1640.00,0.0594
1639.00,0.0598
1638.00,0.0600
1637.00,0.0604
1636.00,0.0610
1635.00,0.0617
1634.00,0.0622
1633.00,0.0625
1632.00,0.0627
1631.00,0.0629
1630.00,0.0631
1629.00,0.0634
1628.00,0.0637
1627.00,0.0641
1626.00,0.0643
1625.00,0.0645
1624.00,0.0646
1623.00,0.0649
1622.00,0.0650
1621.00,0.0651
1620.00,0.0650
1619.00,0.0649
1618.00,0.0646
1617.00,0.0643
1616.00,0.0640
1615.00,0.0637
1614.00,0.0632
1613.00,0.0627
1612.00,0.0621
1611.00,0.0614
1610.00,0.0607
1609.00,0.0599
1608.00,0.0590
1607.00,0.0582
1606.00,0.0572
1605.00,0.0562
1604.00,0.0552
1603.00,0.0541
1602.00,0.0530
1601.00,0.0519
1600.00,0.0507
1599.00,0.0497
1598.00,0.0486
1597.00,0.0476
1596.00,0.0465
1595.00,0.0456
1594.00,0.0446
1593.00,0.0437
1592.00,0.0428
1591.00,0.0419
1590.00,0.0411
1589.00,0.0403
1588.00,0.0395
1587.00,0.0388
1586.00,0.0381
1585.00,0.0375
1584.00,0.0370
1583.00,0.0364
1582.00,0.0360
1581.00,0.0356
1580.00,0.0353
1579.00,0.0350
1578.00,0.0348
1577.00,0.0347
1576.00,0.0346
1575.00,0.0346
1574.00,0.0346
1573.00,0.0346
1572.00,0.0346
1571.00,0.0347
1570.00,0.0350
1569.00,0.0354
1568.00,0.0358
1567.00,0.0361
1566.00,0.0364
1565.00,0.0369
1564.00,0.0373
1563.00,0.0378
1562.00,0.0381
1561.00,0.0384
1560.00,0.0389
1559.00,0.0400
1558.00,0.0412
1557.00,0.0419
1556.00,0.0423
1555.00,0.0427
1554.00,0.0433
1553.00,0.0438
1552.00,0.0443
1551.00,0.0448
1550.00,0.0454
1549.00,0.0460
1548.00,0.0465
1547.00,0.0469
1546.00,0.0473
1545.00,0.0478
1544.00,0.0484
1543.00,0.0488
1542.00,0.0493
1541.00,0.0499
1540.00,0.0507
1539.00,0.0515
1538.00,0.0519
1537.00,0.0522
1536.00,0.0523
1535.00,0.0526
1534.00,0.0531
1533.00,0.0538
1532.00,0.0544
1531.00,0.0548
1530.00,0.0552
1529.00,0.0556
1528.00,0.0560
1527.00,0.0565
1526.00,0.0571
1525.00,0.0576
1524.00,0.0580
1523.00,0.0583
1522.00,0.0589
1521.00,0.0596
1520.00,0.0601
1519.00,0.0604
1518.00,0.0606
1517.00,0.0608
1516.00,0.0611
1515.00,0.0611
1514.00,0.0610
1513.00,0.0607
1512.00,0.0603
1511.00,0.0598
1510.00,0.0594
1509.00,0.0588
1508.00,0.0581
1507.00,0.0572
1506.00,0.0562
1505.00,0.0553
1504.00,0.0545
1503.00,0.0536
1502.00,0.0527
1501.00,0.0517
1500.00,0.0507
1499.00,0.0496
1498.00,0.0486
1497.00,0.0475
1496.00,0.0463
1495.00,0.0452
1494.00,0.0443
1493.00,0.0433
1492.00,0.0423
1491.00,0.0413
1490.00,0.0402
1489.00,0.0392
1488.00,0.0383
1487.00,0.0375
1486.00,0.0367
1485.00,0.0360
1484.00,0.0353
1483.00,0.0347
1482.00,0.0342
1481.00,0.0336
1480.00,0.0332
1479.00,0.0329
1478.00,0.0326
1477.00,0.0323
1476.00,0.0321
1475.00,0.0320
1474.00,0.0320
1473.00,0.0319
1472.00,0.0320
1471.00,0.0320
1470.00,0.0320
1469.00,0.0320
1468.00,0.0319
1467.00,0.0319
1466.00,0.0319
1465.00,0.0320
1464.00,0.0321
1463.00,0.0322
1462.00,0.0324
1461.00,0.0325
1460.00,0.0327
1459.00,0.0330
1458.00,0.0335
1457.00,0.0341
1456.00,0.0347
1455.00,0.0350
1454.00,0.0352
1453.00,0.0353
1452.00,0.0353
1451.00,0.0354
1450.00,0.0354
1449.00,0.0354
1448.00,0.0353
1447.00,0.0352
1446.00,0.0351
1445.00,0.0349
1444.00,0.0346
1443.00,0.0343
1442.00,0.0341
1441.00,0.0338
1440.00,0.0334
1439.00,0.0331
1438.00,0.0329
1437.00,0.0326
1436.00,0.0323
1435.00,0.0321
1434.00,0.0319
1433.00,0.0316
1432.00,0.0314
1431.00,0.0313
1430.00,0.0312
1429.00,0.0311
1428.00,0.0310
1427.00,0.0310
1426.00,0.0310
1425.00,0.0310
1424.00,0.0311
1423.00,0.0312
1422.00,0.0313
1421.00,0.0314
1420.00,0.0315
1419.00,0.0317
1418.00,0.0319
1417.00,0.0321
1416.00,0.0322
1415.00,0.0323
1414.00,0.0325
1413.00,0.0326
1412.00,0.0327
1411.00,0.0329
1410.00,0.0330
1409.00,0.0331
1408.00,0.0332
1407.00,0.0332
1406.00,0.0332
1405.00,0.0333
1404.00,0.0333
1403.00,0.0334
1402.00,0.0333
1401.00,0.0332
1400.00,0.0331
1399.00,0.0331
1398.00,0.0331
1397.00,0.0330
1396.00,0.0329
1395.00,0.0329
1394.00,0.0329
1393.00,0.0328
1392.00,0.0328
1391.00,0.0327
1390.00,0.0327
1389.00,0.0326
1388.00,0.0326
1387.00,0.0326
1386.00,0.0325
1385.00,0.0324
1384.00,0.0323
1383.00,0.0322
1382.00,0.0320
1381.00,0.0319
1380.00,0.0318
1379.00,0.0318
1378.00,0.0317
1377.00,0.0316
1376.00,0.0315
1375.00,0.0315
1374.00,0.0314
1373.00,0.0314
1372.00,0.0314
1371.00,0.0313
1370.00,0.0312
1369.00,0.0311
1368.00,0.0310
1367.00,0.0308
1366.00,0.0306
1365.00,0.0304
1364.00,0.0302
1363.00,0.0301
1362.00,0.0299
1361.00,0.0298
1360.00,0.0297
1359.00,0.0295
1358.00,0.0294
1357.00,0.0293
1356.00,0.0292
1355.00,0.0291
1354.00,0.0290
1353.00,0.0290
1352.00,0.0289
1351.00,0.0289
1350.00,0.0288
1349.00,0.0288
1348.00,0.0288
1347.00,0.0287
1346.00,0.0287
1345.00,0.0287
1344.00,0.0287
1343.00,0.0287
1342.00,0.0287
1341.00,0.0287
1340.00,0.0287
1339.00,0.0288
1338.00,0.0288
1337.00,0.0288
1336.00,0.0288
1335.00,0.0288
1334.00,0.0288
1333.00,0.0287
1332.00,0.0287
1331.00,0.0287
1330.00,0.0287
1329.00,0.0286
1328.00,0.0286
1327.00,0.0286
1326.00,0.0286
1325.00,0.0286
1324.00,0.0286
1323.00,0.0285
1322.00,0.0285
1321.00,0.0285
1320.00,0.0284
1319.00,0.0284
1318.00,0.0284
1317.00,0.0283
1316.00,0.0283
1315.00,0.0282
1314.00,0.0282
1313.00,0.0281
1312.00,0.0280
1311.00,0.0280
1310.00,0.0279
1309.00,0.0279
1308.00,0.0278
1307.00,0.0277
1306.00,0.0277
1305.00,0.0276
1304.00,0.0275
1303.00,0.0275
1302.00,0.0274
1301.00,0.0274
1300.00,0.0273
1299.00,0.0272
1298.00,0.0272
1297.00,0.0271
1296.00,0.0271
1295.00,0.0270
1294.00,0.0270
1293.00,0.0270
1292.00,0.0270
1291.00,0.0270
1290.00,0.0270
1289.00,0.0270
1288.00,0.0270
1287.00,0.0270
1286.00,0.0270
1285.00,0.0270
1284.00,0.0269
1283.00,0.0269
1282.00,0.0269
1281.00,0.0269
1280.00,0.0268
1279.00,0.0268
1278.00,0.0268
1277.00,0.0267
1276.00,0.0267
1275.00,0.0267
1274.00,0.0267
1273.00,0.0267
1272.00,0.0267
1271.00,0.0267
1270.00,0.0267
1269.00,0.0268
1268.00,0.0268
1267.00,0.0269
1266.00,0.0269
1265.00,0.0270
1264.00,0.0271
1263.00,0.0272
1262.00,0.0274
1261.00,0.0275
1260.00,0.0277
1259.00,0.0279
1258.00,0.0281
1257.00,0.0283
1256.00,0.0285
1255.00,0.0288
1254.00,0.0290
1253.00,0.0292
1252.00,0.0294
1251.00,0.0296
1250.00,0.0299
1249.00,0.0300
1248.00,0.0302
1247.00,0.0304
1246.00,0.0305
1245.00,0.0307
1244.00,0.0308
1243.00,0.0309
1242.00,0.0310
1241.00,0.0311
1240.00,0.0311
1239.00,0.0312
1238.00,0.0313
1237.00,0.0313
1236.00,0.0313
1235.00,0.0313
1234.00,0.0313
1233.00,0.0313
1232.00,0.0313
1231.00,0.0312
1230.00,0.0312
1229.00,0.0311
1228.00,0.0310
1227.00,0.0309
1226.00,0.0308
1225.00,0.0307
1224.00,0.0305
1223.00,0.0304
1222.00,0.0302
1221.00,0.0301
1220.00,0.0299
1219.00,0.0297
1218.00,0.0295
1217.00,0.0293
1216.00,0.0291
1215.00,0.0289
1214.00,0.0286
1213.00,0.0284
1212.00,0.0281
1211.00,0.0279
1210.00,0.0276
1209.00,0.0274
1208.00,0.0271
1207.00,0.0268
1206.00,0.0266
1205.00,0.0263
1204.00,0.0260
1203.00,0.0257
1202.00,0.0255
1201.00,0.0253
1200.00,0.0250
1199.00,0.0247
1198.00,0.0245
1197.00,0.0243
1196.00,0.0241
1195.00,0.0239
1194.00,0.0238
1193.00,0.0236
1192.00,0.0235
1191.00,0.0233
1190.00,0.0232
1189.00,0.0231
1188.00,0.0230
1187.00,0.0230
1186.00,0.0230
1185.00,0.0230
1184.00,0.0230
1183.00,0.0230
1182.00,0.0231
1181.00,0.0231
1180.00,0.0232
1179.00,0.0233
1178.00,0.0235
1177.00,0.0236
1176.00,0.0238
1175.00,0.0240
1174.00,0.0243
1173.00,0.0246
1172.00,0.0248
1171.00,0.0250
1170.00,0.0253
1169.00,0.0255
1168.00,0.0257
1167.00,0.0259
1166.00,0.0261
1165.00,0.0264
1164.00,0.0265
1163.00,0.0267
1162.00,0.0269
1161.00,0.0270
1160.00,0.0271
1159.00,0.0271
1158.00,0.0272
1157.00,0.0272
1156.00,0.0271
1155.00,0.0271
1154.00,0.0270
1153.00,0.0269
1152.00,0.0267
1151.00,0.0266
1150.00,0.0264
1149.00,0.0263
1148.00,0.0261
1147.00,0.0259
1146.00,0.0258
1145.00,0.0256
1144.00,0.0254
1143.00,0.0253
1142.00,0.0252
1141.00,0.0251
1140.00,0.0250
1139.00,0.0250
1138.00,0.0249
1137.00,0.0249
1136.00,0.0248
1135.00,0.0248
1134.00,0.0248
1133.00,0.0248
1132.00,0.0248
1131.00,0.0248
1130.00,0.0249
1129.00,0.0249
1128.00,0.0249
1127.00,0.0249
1126.00,0.0250
1125.00,0.0250
1124.00,0.0250
1123.00,0.0250
1122.00,0.0250
1121.00,0.0250
1120.00,0.0250
1119.00,0.0250
1118.00,0.0250
1117.00,0.0251
1116.00,0.0251
1115.00,0.0251
1114.00,0.0251
1113.00,0.0252
1112.00,0.0252
1111.00,0.0253
1110.00,0.0254
1109.00,0.0254
1108.00,0.0255
1107.00,0.0255
1106.00,0.0257
1105.00,0.0258
1104.00,0.0259
1103.00,0.0260
1102.00,0.0261
1101.00,0.0262
1100.00,0.0263
1099.00,0.0264
1098.00,0.0266
1097.00,0.0267
1096.00,0.0269
1095.00,0.0271
1094.00,0.0274
1093.00,0.0276
1092.00,0.0279
1091.00,0.0282
1090.00,0.0285
1089.00,0.0288
1088.00,0.0292
1087.00,0.0296
1086.00,0.0300
1085.00,0.0304
1084.00,0.0308
1083.00,0.0312
1082.00,0.0317
1081.00,0.0321
1080.00,0.0326
1079.00,0.0330
1078.00,0.0334
1077.00,0.0338
1076.00,0.0341
1075.00,0.0344
1074.00,0.0348
1073.00,0.0351
1072.00,0.0353
1071.00,0.0355
1070.00,0.0357
1069.00,0.0359
1068.00,0.0360
1067.00,0.0361
1066.00,0.0362
1065.00,0.0363
1064.00,0.0363
1063.00,0.0363
1062.00,0.0363
1061.00,0.0362
1060.00,0.0361
1059.00,0.0360
1058.00,0.0359
1057.00,0.0358
1056.00,0.0357
1055.00,0.0356
1054.00,0.0355
1053.00,0.0354
1052.00,0.0352
1051.00,0.0351
1050.00,0.0350
1049.00,0.0349
1048.00,0.0348
1047.00,0.0346
1046.00,0.0345
1045.00,0.0344
1044.00,0.0342
1043.00,0.0340
1042.00,0.0338
1041.00,0.0336
1040.00,0.0334
1039.00,0.0331
1038.00,0.0330
1037.00,0.0328
1036.00,0.0326
1035.00,0.0325
1034.00,0.0323
1033.00,0.0322
1032.00,0.0319
1031.00,0.0317
1030.00,0.0315
1029.00,0.0313
1028.00,0.0310
1027.00,0.0307
1026.00,0.0305
1025.00,0.0303
1024.00,0.0300
1023.00,0.0298
1022.00,0.0295
1021.00,0.0293
1020.00,0.0290
1019.00,0.0288
1018.00,0.0286
1017.00,0.0284
1016.00,0.0282
1015.00,0.0280
1014.00,0.0278
1013.00,0.0276
1012.00,0.0274
1011.00,0.0272
1010.00,0.0271
1009.00,0.0269
1008.00,0.0267
1007.00,0.0265
1006.00,0.0264
1005.00,0.0263
1004.00,0.0261
1003.00,0.0259
1002.00,0.0258
1001.00,0.0256
1000.00,0.0255
999.00,0.0253
998.00,0.0252
997.00,0.0251
996.00,0.0249
995.00,0.0248
994.00,0.0247
993.00,0.0246
992.00,0.0245
991.00,0.0243
990.00,0.0242
989.00,0.0241
988.00,0.0239
987.00,0.0238
986.00,0.0237
985.00,0.0235
984.00,0.0233
983.00,0.0231
982.00,0.0230
981.00,0.0229
980.00,0.0227
979.00,0.0226
978.00,0.0225
977.00,0.0224
976.00,0.0223
975.00,0.0222
974.00,0.0221
973.00,0.0221
972.00,0.0220
971.00,0.0219
970.00,0.0219
969.00,0.0219
968.00,0.0219
967.00,0.0219
966.00,0.0220
965.00,0.0220
964.00,0.0220
963.00,0.0220
962.00,0.0220
961.00,0.0220
960.00,0.0219
959.00,0.0218
958.00,0.0217
957.00,0.0216
956.00,0.0215
955.00,0.0214
954.00,0.0213
953.00,0.0212
952.00,0.0211
951.00,0.0210
950.00,0.0209
949.00,0.0208
948.00,0.0207
947.00,0.0206
946.00,0.0206
945.00,0.0205
944.00,0.0204
943.00,0.0203
942.00,0.0202
941.00,0.0202
940.00,0.0201
939.00,0.0200
938.00,0.0199
937.00,0.0199
936.00,0.0198
935.00,0.0197
934.00,0.0197
933.00,0.0196
932.00,0.0196
931.00,0.0195
930.00,0.0195
929.00,0.0194
928.00,0.0193
927.00,0.0193
926.00,0.0192
925.00,0.0191
924.00,0.0190
923.00,0.0189
922.00,0.0189
921.00,0.0188
920.00,0.0187
919.00,0.0186
918.00,0.0186
917.00,0.0185
916.00,0.0185
915.00,0.0184
914.00,0.0184
913.00,0.0184
912.00,0.0183
911.00,0.0183
910.00,0.0184
909.00,0.0184
908.00,0.0184
907.00,0.0184
906.00,0.0185
905.00,0.0186
904.00,0.0186
903.00,0.0186
902.00,0.0187
901.00,0.0187
900.00,0.0187
899.00,0.0186
898.00,0.0186
897.00,0.0186
896.00,0.0185
895.00,0.0184
894.00,0.0184
893.00,0.0184
892.00,0.0183
891.00,0.0182
890.00,0.0182
889.00,0.0181
888.00,0.0180
887.00,0.0179
886.00,0.0179
885.00,0.0179
884.00,0.0178
883.00,0.0177
882.00,0.0177
881.00,0.0177
880.00,0.0177
879.00,0.0176
878.00,0.0176
877.00,0.0176
876.00,0.0176
875.00,0.0176
874.00,0.0176
873.00,0.0176
872.00,0.0176
871.00,0.0175
870.00,0.0176
869.00,0.0176
868.00,0.0175
867.00,0.0175
866.00,0.0175
865.00,0.0175
864.00,0.0175
863.00,0.0174
862.00,0.0175
861.00,0.0174
860.00,0.0174
859.00,0.0173
858.00,0.0174
857.00,0.0175
856.00,0.0175
855.00,0.0175
854.00,0.0176
853.00,0.0177
852.00,0.0177
851.00,0.0177
850.00,0.0178
849.00,0.0179
848.00,0.0179
847.00,0.0179
846.00,0.0180
845.00,0.0181
844.00,0.0181
843.00,0.0182
842.00,0.0183
841.00,0.0184
840.00,0.0185
839.00,0.0186
838.00,0.0188
837.00,0.0189
836.00,0.0190
835.00,0.0191
834.00,0.0192
833.00,0.0194
832.00,0.0195
831.00,0.0196
830.00,0.0198
829.00,0.0200
828.00,0.0201
827.00,0.0202
826.00,0.0204
825.00,0.0205
824.00,0.0205
823.00,0.0205
822.00,0.0206
821.00,0.0207
820.00,0.0208
819.00,0.0209
818.00,0.0211
817.00,0.0212
816.00,0.0213
815.00,0.0214
814.00,0.0216
813.00,0.0217
812.00,0.0218
811.00,0.0218
810.00,0.0220
809.00,0.0221
808.00,0.0221
807.00,0.0222
806.00,0.0223
805.00,0.0224
804.00,0.0225
803.00,0.0225
802.00,0.0227
801.00,0.0228
800.00,0.0229
799.00,0.0230
798.00,0.0231
797.00,0.0233
796.00,0.0234
795.00,0.0236
794.00,0.0238
793.00,0.0240
792.00,0.0241
791.00,0.0243
790.00,0.0245
789.00,0.0248
788.00,0.0249
787.00,0.0251
786.00,0.0254
785.00,0.0256
784.00,0.0258
783.00,0.0260
782.00,0.0262
781.00,0.0264
780.00,0.0266
779.00,0.0267
778.00,0.0270
777.00,0.0272
776.00,0.0273
775.00,0.0274
774.00,0.0276
773.00,0.0278
772.00,0.0279
771.00,0.0280
770.00,0.0282
769.00,0.0283
768.00,0.0283
767.00,0.0284
766.00,0.0285
765.00,0.0286
764.00,0.0286
763.00,0.0287
762.00,0.0288
761.00,0.0289
760.00,0.0289
759.00,0.0290
758.00,0.0291
757.00,0.0292
756.00,0.0293
755.00,0.0294
754.00,0.0296
753.00,0.0298
752.00,0.0299
751.00,0.0300
750.00,0.0302
749.00,0.0303
748.00,0.0304
747.00,0.0305
746.00,0.0306
745.00,0.0307
744.00,0.0308
743.00,0.0308
742.00,0.0309
741.00,0.0311
740.00,0.0311
739.00,0.0312
738.00,0.0314
737.00,0.0316
736.00,0.0317
735.00,0.0319
734.00,0.0322
733.00,0.0325
732.00,0.0327
731.00,0.0329
730.00,0.0332
729.00,0.0336
728.00,0.0340
727.00,0.0344
726.00,0.0349
725.00,0.0354
724.00,0.0358
723.00,0.0362
722.00,0.0367
721.00,0.0371
720.00,0.0375
719.00,0.0380
718.00,0.0386
717.00,0.0392
716.00,0.0396
715.00,0.0401
714.00,0.0407
713.00,0.0412
712.00,0.0416
711.00,0.0420
710.00,0.0424
709.00,0.0429
708.00,0.0433
707.00,0.0437
706.00,0.0442
705.00,0.0446
704.00,0.0450
703.00,0.0453
702.00,0.0457
701.00,0.0460
700.00,0.0461
699.00,0.0462
698.00,0.0463
697.00,0.0464
696.00,0.0463
695.00,0.0463
694.00,0.0464
693.00,0.0464
692.00,0.0463
691.00,0.0462
690.00,0.0463
689.00,0.0464
688.00,0.0464
687.00,0.0464
686.00,0.0465
685.00,0.0466
684.00,0.0466
683.00,0.0466
682.00,0.0467
681.00,0.0468
680.00,0.0467
679.00,0.0467
678.00,0.0468
677.00,0.0468
676.00,0.0468
675.00,0.0469
674.00,0.0470
673.00,0.0470
672.00,0.0469
671.00,0.0469
670.00,0.0469
669.00,0.0469
668.00,0.0468
667.00,0.0470
666.00,0.0471
665.00,0.0473
664.00,0.0473
663.00,0.0474
662.00,0.0475
661.00,0.0476
660.00,0.0476
659.00,0.0476
658.00,0.0477
657.00,0.0479
656.00,0.0479
655.00,0.0480
654.00,0.0481
653.00,0.0483
652.00,0.0483
651.00,0.0484
650.00,0.0486
649.00,0.0488
648.00,0.0489
647.00,0.0490
646.00,0.0493
645.00,0.0494
644.00,0.0495
643.00,0.0496
642.00,0.0499
641.00,0.0501
640.00,0.0502
639.00,0.0504
638.00,0.0506
637.00,0.0508
636.00,0.0509
635.00,0.0510
634.00,0.0512
633.00,0.0514
632.00,0.0515
631.00,0.0516
630.00,0.0518
629.00,0.0519
628.00,0.0519
627.00,0.0519
626.00,0.0520
625.00,0.0521
624.00,0.0521
623.00,0.0521
622.00,0.0521
621.00,0.0521
620.00,0.0520
619.00,0.0519
618.00,0.0519
617.00,0.0518
616.00,0.0516
615.00,0.0514
614.00,0.0514
613.00,0.0513
612.00,0.0510
611.00,0.0509
610.00,0.0509
609.00,0.0508
608.00,0.0507
607.00,0.0505
606.00,0.0505
605.00,0.0504
604.00,0.0503
603.00,0.0502
602.00,0.0503
601.00,0.0503
600.00,0.0502
599.00,0.0502
598.00,0.0502
597.00,0.0503
596.00,0.0502
595.00,0.0501
594.00,0.0502
593.00,0.0503
592.00,0.0502
591.00,0.0501
590.00,0.0502
589.00,0.0502
588.00,0.0501
587.00,0.0500
586.00,0.0502
585.00,0.0503
584.00,0.0502
583.00,0.0502
582.00,0.0504
581.00,0.0505
580.00,0.0505
579.00,0.0504
578.00,0.0505
577.00,0.0506
576.00,0.0505
575.00,0.0505
574.00,0.0507
573.00,0.0509
572.00,0.0509
571.00,0.0509
570.00,0.0511
569.00,0.0512
568.00,0.0511
567.00,0.0510
566.00,0.0512
565.00,0.0513
564.00,0.0513
563.00,0.0513
562.00,0.0515
561.00,0.0516
560.00,0.0514
559.00,0.0514
558.00,0.0515
557.00,0.0516
556.00,0.0515
555.00,0.0514
554.00,0.0516
553.00,0.0517
552.00,0.0516
551.00,0.0514
550.00,0.0516
549.00,0.0517
548.00,0.0516
547.00,0.0515
546.00,0.0517
545.00,0.0518
544.00,0.0517
543.00,0.0516
542.00,0.0518
541.00,0.0518
540.00,0.0517
539.00,0.0516
538.00,0.0518
537.00,0.0518
536.00,0.0517
535.00,0.0516
534.00,0.0518
533.00,0.0520
532.00,0.0520
531.00,0.0519
530.00,0.0520
529.00,0.0521
528.00,0.0519
527.00,0.0519
526.00,0.0521
525.00,0.0523
524.00,0.0522
523.00,0.0521
522.00,0.0522
521.00,0.0523
520.00,0.0521
519.00,0.0520
518.00,0.0522
517.00,0.0523
516.00,0.0521
515.00,0.0519
514.00,0.0520
513.00,0.0520
512.00,0.0517
511.00,0.0516
510.00,0.0517
509.00,0.0519
508.00,0.0518
507.00,0.0517
506.00,0.0519
505.00,0.0520
504.00,0.0518
503.00,0.0516
502.00,0.0517
501.00,0.0518
500.00,0.0516
499.00,0.0514
498.00,0.0515
497.00,0.0516
496.00,0.0513
495.00,0.0511
494.00,0.0513
493.00,0.0514
492.00,0.0512
491.00,0.0510
490.00,0.0512
489.00,0.0514
488.00,0.0511
487.00,0.0509
486.00,0.0511
485.00,0.0512
484.00,0.0510
483.00,0.0507
482.00,0.0508
481.00,0.0509
480.00,0.0507
479.00,0.0506
478.00,0.0508
477.00,0.0510
476.00,0.0506
475.00,0.0504
474.00,0.0507
473.00,0.0509
472.00,0.0507
471.00,0.0506
470.00,0.0510
469.00,0.0513
468.00,0.0511
467.00,0.0510
466.00,0.0513
465.00,0.0514
464.00,0.0510
463.00,0.0508
462.00,0.0511
461.00,0.0514
460.00,0.0511
459.00,0.0508
458.00,0.0511
457.00,0.0513
456.00,0.0509
455.00,0.0505
454.00,0.0507
453.00,0.0509
452.00,0.0506
451.00,0.0503
450.00,0.0506
449.00,0.0508
448.00,0.0504
447.00,0.0500
446.00,0.0502
445.00,0.0503
444.00,0.0498
443.00,0.0494
442.00,0.0496
441.00,0.0495
440.00,0.0488
439.00,0.0483
438.00,0.0483
437.00,0.0484
436.00,0.0479
435.00,0.0475
434.00,0.0477
433.00,0.0477
432.00,0.0470
431.00,0.0466
430.00,0.0469
429.00,0.0471
428.00,0.0465
427.00,0.0459
426.00,0.0460
425.00,0.0460
424.00,0.0451
423.00,0.0443
422.00,0.0446
421.00,0.0449
420.00,0.0441
419.00,0.0432
418.00,0.0437
417.00,0.0442
416.00,0.0435
415.00,0.0429
414.00,0.0433
413.00,0.0436
412.00,0.0430
411.00,0.0426
410.00,0.0434
409.00,0.0439
408.00,0.0431
407.00,0.0424
406.00,0.0430
405.00,0.0435
404.00,0.0424
403.00,0.0413
402.00,0.0419
401.00,0.0423
400.00,0.0409
