Created as New Dataset,Sample 305 By YargerLab Date Sunday, August 18 2024
cm-1,A
4000.00,0.0064
3999.00,0.0064
3998.00,0.0064
3997.00,0.0064
3996.00,0.0063
3995.00,0.0063
3994.00,0.0063
3993.00,0.0063
3992.00,0.0063
3991.00,0.0064
3990.00,0.0064
3989.00,0.0064
3988.00,0.0064
3987.00,0.0064
3986.00,0.0064
3985.00,0.0064
3984.00,0.0064
3983.00,0.0064
3982.00,0.0064
3981.00,0.0064
3980.00,0.0064
3979.00,0.0064
3978.00,0.0064
3977.00,0.0064
3976.00,0.0064
3975.00,0.0064
3974.00,0.0064
3973.00,0.0064
3972.00,0.0064
3971.00,0.0064
3970.00,0.0064
3969.00,0.0064
3968.00,0.0063
3967.00,0.0063
3966.00,0.0063
3965.00,0.0063
3964.00,0.0063
3963.00,0.0063
3962.00,0.0064
3961.00,0.0064
3960.00,0.0064
3959.00,0.0064
3958.00,0.0063
3957.00,0.0063
3956.00,0.0063
3955.00,0.0063
3954.00,0.0063
3953.00,0.0063
3952.00,0.0063
3951.00,0.0063
3950.00,0.0063
3949.00,0.0063
3948.00,0.0064
3947.00,0.0064
3946.00,0.0064
3945.00,0.0064
3944.00,0.0064
3943.00,0.0064
3942.00,0.0064
3941.00,0.0064
3940.00,0.0063
3939.00,0.0063
3938.00,0.0063
3937.00,0.0063
3936.00,0.0063
3935.00,0.0063
3934.00,0.0064
3933.00,0.0064
3932.00,0.0063
3931.00,0.0063
3930.00,0.0063
3929.00,0.0063
3928.00,0.0063
3927.00,0.0063
3926.00,0.0063
3925.00,0.0063
3924.00,0.0063
3923.00,0.0063
3922.00,0.0063
3921.00,0.0063
3920.00,0.0063
3919.00,0.0063
3918.00,0.0063
3917.00,0.0063
3916.00,0.0063
3915.00,0.0063
3914.00,0.0063
3913.00,0.0063
3912.00,0.0063
3911.00,0.0063
3910.00,0.0063
3909.00,0.0063
3908.00,0.0063
3907.00,0.0063
3906.00,0.0063
3905.00,0.0063
3904.00,0.0063
3903.00,0.0063
3902.00,0.0063
3901.00,0.0063
3900.00,0.0063
3899.00,0.0062
3898.00,0.0062
3897.00,0.0062
3896.00,0.0062
3895.00,0.0062
3894.00,0.0062
3893.00,0.0063
3892.00,0.0063
3891.00,0.0063
3890.00,0.0063
3889.00,0.0063
3888.00,0.0063
3887.00,0.0063
3886.00,0.0063
3885.00,0.0063
3884.00,0.0063
3883.00,0.0062
3882.00,0.0062
3881.00,0.0062
3880.00,0.0062
3879.00,0.0062
3878.00,0.0062
3877.00,0.0062
3876.00,0.0062
3875.00,0.0062
3874.00,0.0062
3873.00,0.0062
3872.00,0.0062
3871.00,0.0062
3870.00,0.0062
3869.00,0.0062
3868.00,0.0062
3867.00,0.0062
3866.00,0.0062
3865.00,0.0062
3864.00,0.0062
3863.00,0.0062
3862.00,0.0062
3861.00,0.0062
3860.00,0.0062
3859.00,0.0062
3858.00,0.0062
3857.00,0.0062
3856.00,0.0062
3855.00,0.0062
3854.00,0.0062
3853.00,0.0062
3852.00,0.0061
3851.00,0.0061
3850.00,0.0061
3849.00,0.0061
3848.00,0.0061
3847.00,0.0061
3846.00,0.0061
3845.00,0.0061
3844.00,0.0061
3843.00,0.0061
3842.00,0.0061
3841.00,0.0061
3840.00,0.0061
3839.00,0.0061
3838.00,0.0061
3837.00,0.0061
3836.00,0.0061
3835.00,0.0061
3834.00,0.0061
3833.00,0.0061
3832.00,0.0061
3831.00,0.0061
3830.00,0.0061
3829.00,0.0061
3828.00,0.0061
3827.00,0.0061
3826.00,0.0061
3825.00,0.0061
3824.00,0.0061
3823.00,0.0061
3822.00,0.0061
3821.00,0.0061
3820.00,0.0061
3819.00,0.0061
3818.00,0.0060
3817.00,0.0060
3816.00,0.0060
3815.00,0.0060
3814.00,0.0060
3813.00,0.0060
3812.00,0.0060
3811.00,0.0060
3810.00,0.0060
3809.00,0.0061
3808.00,0.0061
3807.00,0.0061
3806.00,0.0060
3805.00,0.0060
3804.00,0.0060
3803.00,0.0060
3802.00,0.0060
3801.00,0.0060
3800.00,0.0060
3799.00,0.0060
3798.00,0.0060
3797.00,0.0060
3796.00,0.0060
3795.00,0.0060
3794.00,0.0060
3793.00,0.0060
3792.00,0.0060
3791.00,0.0060
3790.00,0.0060
3789.00,0.0060
3788.00,0.0060
3787.00,0.0060
3786.00,0.0060
3785.00,0.0060
3784.00,0.0060
3783.00,0.0060
3782.00,0.0060
3781.00,0.0059
3780.00,0.0059
3779.00,0.0059
3778.00,0.0059
3777.00,0.0059
3776.00,0.0060
3775.00,0.0060
3774.00,0.0060
3773.00,0.0059
3772.00,0.0059
3771.00,0.0059
3770.00,0.0059
3769.00,0.0059
3768.00,0.0059
3767.00,0.0059
3766.00,0.0059
3765.00,0.0059
3764.00,0.0059
3763.00,0.0059
3762.00,0.0059
3761.00,0.0059
3760.00,0.0059
3759.00,0.0059
3758.00,0.0059
3757.00,0.0059
3756.00,0.0059
3755.00,0.0059
3754.00,0.0059
3753.00,0.0059
3752.00,0.0059
3751.00,0.0060
3750.00,0.0060
3749.00,0.0060
3748.00,0.0059
3747.00,0.0059
3746.00,0.0059
3745.00,0.0059
3744.00,0.0059
3743.00,0.0059
3742.00,0.0058
3741.00,0.0058
3740.00,0.0058
3739.00,0.0058
3738.00,0.0058
3737.00,0.0058
3736.00,0.0058
3735.00,0.0058
3734.00,0.0058
3733.00,0.0058
3732.00,0.0058
3731.00,0.0058
3730.00,0.0058
3729.00,0.0058
3728.00,0.0058
3727.00,0.0058
3726.00,0.0058
3725.00,0.0058
3724.00,0.0058
3723.00,0.0058
3722.00,0.0058
3721.00,0.0057
3720.00,0.0057
3719.00,0.0057
3718.00,0.0057
3717.00,0.0057
3716.00,0.0057
3715.00,0.0057
3714.00,0.0057
3713.00,0.0057
3712.00,0.0057
3711.00,0.0057
3710.00,0.0057
3709.00,0.0057
3708.00,0.0057
3707.00,0.0057
3706.00,0.0056
3705.00,0.0056
3704.00,0.0056
3703.00,0.0056
3702.00,0.0056
3701.00,0.0056
3700.00,0.0056
3699.00,0.0056
3698.00,0.0056
3697.00,0.0056
3696.00,0.0056
3695.00,0.0056
3694.00,0.0056
3693.00,0.0056
3692.00,0.0055
3691.00,0.0055
3690.00,0.0055
3689.00,0.0055
3688.00,0.0055
3687.00,0.0055
3686.00,0.0055
3685.00,0.0055
3684.00,0.0056
3683.00,0.0056
3682.00,0.0056
3681.00,0.0056
3680.00,0.0057
3679.00,0.0057
3678.00,0.0057
3677.00,0.0057
3676.00,0.0057
3675.00,0.0056
3674.00,0.0056
3673.00,0.0056
3672.00,0.0056
3671.00,0.0056
3670.00,0.0056
3669.00,0.0056
3668.00,0.0056
3667.00,0.0056
3666.00,0.0056
3665.00,0.0056
3664.00,0.0056
3663.00,0.0056
3662.00,0.0057
3661.00,0.0057
3660.00,0.0057
3659.00,0.0057
3658.00,0.0057
3657.00,0.0057
3656.00,0.0057
3655.00,0.0057
3654.00,0.0057
3653.00,0.0057
3652.00,0.0057
3651.00,0.0057
3650.00,0.0058
3649.00,0.0058
3648.00,0.0058
3647.00,0.0058
3646.00,0.0058
3645.00,0.0058
3644.00,0.0058
3643.00,0.0058
3642.00,0.0058
3641.00,0.0059
3640.00,0.0059
3639.00,0.0059
3638.00,0.0059
3637.00,0.0059
3636.00,0.0059
3635.00,0.0059
3634.00,0.0060
3633.00,0.0060
3632.00,0.0060
3631.00,0.0060
3630.00,0.0060
3629.00,0.0061
3628.00,0.0061
3627.00,0.0061
3626.00,0.0061
3625.00,0.0061
3624.00,0.0061
3623.00,0.0061
3622.00,0.0061
3621.00,0.0061
3620.00,0.0061
3619.00,0.0061
3618.00,0.0062
3617.00,0.0062
3616.00,0.0063
3615.00,0.0063
3614.00,0.0063
3613.00,0.0064
3612.00,0.0064
3611.00,0.0064
3610.00,0.0065
3609.00,0.0065
3608.00,0.0065
3607.00,0.0065
3606.00,0.0065
3605.00,0.0065
3604.00,0.0065
3603.00,0.0065
3602.00,0.0065
3601.00,0.0065
3600.00,0.0065
3599.00,0.0066
3598.00,0.0066
3597.00,0.0066
3596.00,0.0066
3595.00,0.0066
3594.00,0.0067
3593.00,0.0067
3592.00,0.0067
3591.00,0.0068
3590.00,0.0068
3589.00,0.0068
3588.00,0.0068
3587.00,0.0068
3586.00,0.0068
3585.00,0.0069
3584.00,0.0069
3583.00,0.0069
3582.00,0.0070
3581.00,0.0070
3580.00,0.0070
3579.00,0.0070
3578.00,0.0071
3577.00,0.0071
3576.00,0.0071
3575.00,0.0072
3574.00,0.0072
3573.00,0.0072
3572.00,0.0072
3571.00,0.0072
3570.00,0.0073
3569.00,0.0073
3568.00,0.0073
3567.00,0.0074
3566.00,0.0074
3565.00,0.0074
3564.00,0.0075
3563.00,0.0075
3562.00,0.0075
3561.00,0.0075
3560.00,0.0075
3559.00,0.0076
3558.00,0.0076
3557.00,0.0076
3556.00,0.0077
3555.00,0.0077
3554.00,0.0078
3553.00,0.0078
3552.00,0.0078
3551.00,0.0079
3550.00,0.0079
3549.00,0.0080
3548.00,0.0080
3547.00,0.0081
3546.00,0.0081
3545.00,0.0081
3544.00,0.0081
3543.00,0.0081
3542.00,0.0081
3541.00,0.0082
3540.00,0.0082
3539.00,0.0082
3538.00,0.0082
3537.00,0.0083
3536.00,0.0083
3535.00,0.0084
3534.00,0.0084
3533.00,0.0084
3532.00,0.0085
3531.00,0.0085
3530.00,0.0085
3529.00,0.0086
3528.00,0.0086
3527.00,0.0087
3526.00,0.0087
3525.00,0.0087
3524.00,0.0088
3523.00,0.0088
3522.00,0.0088
3521.00,0.0088
3520.00,0.0088
3519.00,0.0088
3518.00,0.0089
3517.00,0.0089
3516.00,0.0089
3515.00,0.0090
3514.00,0.0090
3513.00,0.0090
3512.00,0.0091
3511.00,0.0091
3510.00,0.0091
3509.00,0.0091
3508.00,0.0092
3507.00,0.0092
3506.00,0.0092
3505.00,0.0093
3504.00,0.0093
3503.00,0.0094
3502.00,0.0094
3501.00,0.0095
3500.00,0.0095
3499.00,0.0095
3498.00,0.0095
3497.00,0.0095
3496.00,0.0096
3495.00,0.0096
3494.00,0.0096
3493.00,0.0097
3492.00,0.0097
3491.00,0.0097
3490.00,0.0097
3489.00,0.0098
3488.00,0.0098
3487.00,0.0099
3486.00,0.0099
3485.00,0.0099
3484.00,0.0100
3483.00,0.0100
3482.00,0.0100
3481.00,0.0101
3480.00,0.0101
3479.00,0.0101
3478.00,0.0102
3477.00,0.0102
3476.00,0.0102
3475.00,0.0102
3474.00,0.0103
3473.00,0.0103
3472.00,0.0104
3471.00,0.0104
3470.00,0.0104
3469.00,0.0105
3468.00,0.0105
3467.00,0.0105
3466.00,0.0106
3465.00,0.0106
3464.00,0.0106
3463.00,0.0107
3462.00,0.0107
3461.00,0.0107
3460.00,0.0108
3459.00,0.0108
3458.00,0.0108
3457.00,0.0108
3456.00,0.0109
3455.00,0.0109
3454.00,0.0109
3453.00,0.0110
3452.00,0.0110
3451.00,0.0110
3450.00,0.0111
3449.00,0.0111
3448.00,0.0111
3447.00,0.0112
3446.00,0.0112
3445.00,0.0112
3444.00,0.0113
3443.00,0.0113
3442.00,0.0113
3441.00,0.0114
3440.00,0.0114
3439.00,0.0114
3438.00,0.0115
3437.00,0.0115
3436.00,0.0115
3435.00,0.0116
3434.00,0.0116
3433.00,0.0116
3432.00,0.0117
3431.00,0.0117
3430.00,0.0118
3429.00,0.0118
3428.00,0.0118
3427.00,0.0118
3426.00,0.0118
3425.00,0.0119
3424.00,0.0119
3423.00,0.0120
3422.00,0.0120
3421.00,0.0120
3420.00,0.0120
3419.00,0.0121
3418.00,0.0121
3417.00,0.0121
3416.00,0.0122
3415.00,0.0122
3414.00,0.0122
3413.00,0.0123
3412.00,0.0123
3411.00,0.0123
3410.00,0.0124
3409.00,0.0124
3408.00,0.0125
3407.00,0.0125
3406.00,0.0125
3405.00,0.0125
3404.00,0.0126
3403.00,0.0126
3402.00,0.0126
3401.00,0.0127
3400.00,0.0127
3399.00,0.0127
3398.00,0.0127
3397.00,0.0128
3396.00,0.0128
3395.00,0.0128
3394.00,0.0128
3393.00,0.0129
3392.00,0.0129
3391.00,0.0130
3390.00,0.0130
3389.00,0.0130
3388.00,0.0130
3387.00,0.0130
3386.00,0.0131
3385.00,0.0131
3384.00,0.0131
3383.00,0.0132
3382.00,0.0132
3381.00,0.0132
3380.00,0.0133
3379.00,0.0133
3378.00,0.0133
3377.00,0.0134
3376.00,0.0134
3375.00,0.0134
3374.00,0.0135
3373.00,0.0135
3372.00,0.0135
3371.00,0.0136
3370.00,0.0136
3369.00,0.0137
3368.00,0.0137
3367.00,0.0137
3366.00,0.0138
3365.00,0.0138
3364.00,0.0138
3363.00,0.0139
3362.00,0.0139
3361.00,0.0140
3360.00,0.0140
3359.00,0.0141
3358.00,0.0141
3357.00,0.0142
3356.00,0.0142
3355.00,0.0143
3354.00,0.0143
3353.00,0.0144
3352.00,0.0144
3351.00,0.0145
3350.00,0.0145
3349.00,0.0146
3348.00,0.0146
3347.00,0.0147
3346.00,0.0147
3345.00,0.0148
3344.00,0.0149
3343.00,0.0149
3342.00,0.0150
3341.00,0.0150
3340.00,0.0151
3339.00,0.0152
3338.00,0.0152
3337.00,0.0153
3336.00,0.0154
3335.00,0.0154
3334.00,0.0155
3333.00,0.0156
3332.00,0.0157
3331.00,0.0158
3330.00,0.0158
3329.00,0.0159
3328.00,0.0160
3327.00,0.0161
3326.00,0.0162
3325.00,0.0163
3324.00,0.0164
3323.00,0.0165
3322.00,0.0166
3321.00,0.0166
3320.00,0.0167
3319.00,0.0168
3318.00,0.0169
3317.00,0.0170
3316.00,0.0171
3315.00,0.0173
3314.00,0.0174
3313.00,0.0175
3312.00,0.0176
3311.00,0.0177
3310.00,0.0178
3309.00,0.0179
3308.00,0.0180
3307.00,0.0182
3306.00,0.0183
3305.00,0.0185
3304.00,0.0186
3303.00,0.0187
3302.00,0.0189
3301.00,0.0190
3300.00,0.0191
3299.00,0.0192
3298.00,0.0194
3297.00,0.0195
3296.00,0.0196
3295.00,0.0198
3294.00,0.0199
3293.00,0.0200
3292.00,0.0202
3291.00,0.0203
3290.00,0.0205
3289.00,0.0206
3288.00,0.0207
3287.00,0.0209
3286.00,0.0210
3285.00,0.0211
3284.00,0.0212
3283.00,0.0213
3282.00,0.0214
3281.00,0.0214
3280.00,0.0215
3279.00,0.0216
3278.00,0.0216
3277.00,0.0217
3276.00,0.0217
3275.00,0.0217
3274.00,0.0218
3273.00,0.0218
3272.00,0.0218
3271.00,0.0218
3270.00,0.0218
3269.00,0.0217
3268.00,0.0217
3267.00,0.0217
3266.00,0.0216
3265.00,0.0215
3264.00,0.0215
3263.00,0.0214
3262.00,0.0213
3261.00,0.0212
3260.00,0.0211
3259.00,0.0210
3258.00,0.0209
3257.00,0.0208
3256.00,0.0207
3255.00,0.0206
3254.00,0.0205
3253.00,0.0204
3252.00,0.0203
3251.00,0.0202
3250.00,0.0201
3249.00,0.0200
3248.00,0.0198
3247.00,0.0197
3246.00,0.0196
3245.00,0.0195
3244.00,0.0194
3243.00,0.0193
3242.00,0.0192
3241.00,0.0191
3240.00,0.0191
3239.00,0.0190
3238.00,0.0189
3237.00,0.0188
3236.00,0.0187
3235.00,0.0186
3234.00,0.0185
3233.00,0.0184
3232.00,0.0183
3231.00,0.0182
3230.00,0.0182
3229.00,0.0181
3228.00,0.0181
3227.00,0.0180
3226.00,0.0179
3225.00,0.0179
3224.00,0.0178
3223.00,0.0177
3222.00,0.0176
3221.00,0.0176
3220.00,0.0175
3219.00,0.0175
3218.00,0.0174
3217.00,0.0174
3216.00,0.0173
3215.00,0.0173
3214.00,0.0172
3213.00,0.0172
3212.00,0.0171
3211.00,0.0171
3210.00,0.0170
3209.00,0.0170
3208.00,0.0169
3207.00,0.0169
3206.00,0.0168
3205.00,0.0167
3204.00,0.0167
3203.00,0.0166
3202.00,0.0166
3201.00,0.0165
3200.00,0.0165
3199.00,0.0164
3198.00,0.0164
3197.00,0.0163
3196.00,0.0163
3195.00,0.0162
3194.00,0.0162
3193.00,0.0161
3192.00,0.0161
3191.00,0.0160
3190.00,0.0160
3189.00,0.0159
3188.00,0.0159
3187.00,0.0158
3186.00,0.0158
3185.00,0.0157
3184.00,0.0157
3183.00,0.0156
3182.00,0.0155
3181.00,0.0155
3180.00,0.0154
3179.00,0.0154
3178.00,0.0153
3177.00,0.0153
3176.00,0.0152
3175.00,0.0151
3174.00,0.0151
3173.00,0.0150
3172.00,0.0150
3171.00,0.0149
3170.00,0.0149
3169.00,0.0148
3168.00,0.0148
3167.00,0.0147
3166.00,0.0146
3165.00,0.0146
3164.00,0.0145
3163.00,0.0145
3162.00,0.0144
3161.00,0.0144
3160.00,0.0143
3159.00,0.0143
3158.00,0.0142
3157.00,0.0142
3156.00,0.0141
3155.00,0.0141
3154.00,0.0140
3153.00,0.0140
3152.00,0.0139
3151.00,0.0139
3150.00,0.0138
3149.00,0.0138
3148.00,0.0138
3147.00,0.0137
3146.00,0.0137
3145.00,0.0136
3144.00,0.0136
3143.00,0.0135
3142.00,0.0135
3141.00,0.0135
3140.00,0.0134
3139.00,0.0134
3138.00,0.0133
3137.00,0.0133
3136.00,0.0133
3135.00,0.0132
3134.00,0.0132
3133.00,0.0131
3132.00,0.0131
3131.00,0.0131
3130.00,0.0131
3129.00,0.0130
3128.00,0.0130
3127.00,0.0130
3126.00,0.0129
3125.00,0.0129
3124.00,0.0129
3123.00,0.0128
3122.00,0.0128
3121.00,0.0128
3120.00,0.0128
3119.00,0.0127
3118.00,0.0127
3117.00,0.0127
3116.00,0.0127
3115.00,0.0127
3114.00,0.0127
3113.00,0.0127
3112.00,0.0126
3111.00,0.0126
3110.00,0.0126
3109.00,0.0126
3108.00,0.0126
3107.00,0.0126
3106.00,0.0126
3105.00,0.0126
3104.00,0.0126
3103.00,0.0126
3102.00,0.0126
3101.00,0.0126
3100.00,0.0126
3099.00,0.0126
3098.00,0.0126
3097.00,0.0126
3096.00,0.0126
3095.00,0.0126
3094.00,0.0126
3093.00,0.0126
3092.00,0.0126
3091.00,0.0126
3090.00,0.0126
3089.00,0.0126
3088.00,0.0126
3087.00,0.0126
3086.00,0.0126
3085.00,0.0126
3084.00,0.0126
3083.00,0.0126
3082.00,0.0126
3081.00,0.0126
3080.00,0.0126
3079.00,0.0126
3078.00,0.0126
3077.00,0.0127
3076.00,0.0127
3075.00,0.0127
3074.00,0.0127
3073.00,0.0127
3072.00,0.0127
3071.00,0.0126
3070.00,0.0126
3069.00,0.0126
3068.00,0.0126
3067.00,0.0126
3066.00,0.0126
3065.00,0.0126
3064.00,0.0126
3063.00,0.0126
3062.00,0.0126
3061.00,0.0125
3060.00,0.0125
3059.00,0.0125
3058.00,0.0125
3057.00,0.0124
3056.00,0.0124
3055.00,0.0124
3054.00,0.0124
3053.00,0.0123
3052.00,0.0123
3051.00,0.0122
3050.00,0.0122
3049.00,0.0122
3048.00,0.0122
3047.00,0.0121
3046.00,0.0121
3045.00,0.0120
3044.00,0.0120
3043.00,0.0120
3042.00,0.0119
3041.00,0.0119
3040.00,0.0119
3039.00,0.0119
3038.00,0.0118
3037.00,0.0118
3036.00,0.0118
3035.00,0.0117
3034.00,0.0117
3033.00,0.0116
3032.00,0.0116
3031.00,0.0116
3030.00,0.0116
3029.00,0.0116
3028.00,0.0115
3027.00,0.0115
3026.00,0.0114
3025.00,0.0114
3024.00,0.0114
3023.00,0.0113
3022.00,0.0113
3021.00,0.0113
3020.00,0.0112
3019.00,0.0112
3018.00,0.0112
3017.00,0.0111
3016.00,0.0111
3015.00,0.0110
3014.00,0.0110
3013.00,0.0110
3012.00,0.0110
3011.00,0.0110
3010.00,0.0110
3009.00,0.0109
3008.00,0.0109
3007.00,0.0109
3006.00,0.0109
3005.00,0.0109
3004.00,0.0109
3003.00,0.0109
3002.00,0.0109
3001.00,0.0108
3000.00,0.0108
2999.00,0.0108
2998.00,0.0108
2997.00,0.0108
2996.00,0.0109
2995.00,0.0109
2994.00,0.0109
2993.00,0.0109
2992.00,0.0109
2991.00,0.0109
2990.00,0.0110
2989.00,0.0110
2988.00,0.0111
2987.00,0.0111
2986.00,0.0111
2985.00,0.0112
2984.00,0.0112
2983.00,0.0112
2982.00,0.0113
2981.00,0.0113
2980.00,0.0113
2979.00,0.0113
2978.00,0.0114
2977.00,0.0114
2976.00,0.0114
2975.00,0.0115
2974.00,0.0115
2973.00,0.0115
2972.00,0.0115
2971.00,0.0115
2970.00,0.0116
2969.00,0.0116
2968.00,0.0116
2967.00,0.0116
2966.00,0.0116
2965.00,0.0116
2964.00,0.0115
2963.00,0.0115
2962.00,0.0115
2961.00,0.0115
2960.00,0.0115
2959.00,0.0114
2958.00,0.0114
2957.00,0.0114
2956.00,0.0114
2955.00,0.0114
2954.00,0.0114
2953.00,0.0114
2952.00,0.0113
2951.00,0.0114
2950.00,0.0114
2949.00,0.0114
2948.00,0.0114
2947.00,0.0114
2946.00,0.0114
2945.00,0.0114
2944.00,0.0114
2943.00,0.0114
2942.00,0.0114
2941.00,0.0115
2940.00,0.0115
2939.00,0.0115
2938.00,0.0115
2937.00,0.0115
2936.00,0.0115
2935.00,0.0115
2934.00,0.0114
2933.00,0.0114
2932.00,0.0113
2931.00,0.0112
2930.00,0.0112
2929.00,0.0111
2928.00,0.0110
2927.00,0.0109
2926.00,0.0108
2925.00,0.0107
2924.00,0.0105
2923.00,0.0104
2922.00,0.0102
2921.00,0.0100
2920.00,0.0099
2919.00,0.0097
2918.00,0.0095
2917.00,0.0094
2916.00,0.0094
2915.00,0.0095
2914.00,0.0096
2913.00,0.0098
2912.00,0.0100
2911.00,0.0101
2910.00,0.0102
2909.00,0.0103
2908.00,0.0103
2907.00,0.0103
2906.00,0.0104
2905.00,0.0104
2904.00,0.0104
2903.00,0.0104
2902.00,0.0104
2901.00,0.0104
2900.00,0.0104
2899.00,0.0104
2898.00,0.0104
2897.00,0.0104
2896.00,0.0104
2895.00,0.0104
2894.00,0.0104
2893.00,0.0104
2892.00,0.0104
2891.00,0.0104
2890.00,0.0105
2889.00,0.0105
2888.00,0.0105
2887.00,0.0105
2886.00,0.0106
2885.00,0.0106
2884.00,0.0106
2883.00,0.0106
2882.00,0.0107
2881.00,0.0107
2880.00,0.0107
2879.00,0.0107
2878.00,0.0107
2877.00,0.0107
2876.00,0.0107
2875.00,0.0107
2874.00,0.0107
2873.00,0.0107
2872.00,0.0107
2871.00,0.0107
2870.00,0.0107
2869.00,0.0106
2868.00,0.0106
2867.00,0.0105
2866.00,0.0104
2865.00,0.0104
2864.00,0.0103
2863.00,0.0102
2862.00,0.0102
2861.00,0.0101
2860.00,0.0100
2859.00,0.0100
2858.00,0.0099
2857.00,0.0098
2856.00,0.0097
2855.00,0.0096
2854.00,0.0095
2853.00,0.0093
2852.00,0.0092
2851.00,0.0090
2850.00,0.0088
2849.00,0.0088
2848.00,0.0088
2847.00,0.0089
2846.00,0.0091
2845.00,0.0092
2844.00,0.0094
2843.00,0.0095
2842.00,0.0095
2841.00,0.0096
2840.00,0.0096
2839.00,0.0096
2838.00,0.0096
2837.00,0.0096
2836.00,0.0096
2835.00,0.0096
2834.00,0.0096
2833.00,0.0096
2832.00,0.0096
2831.00,0.0096
2830.00,0.0096
2829.00,0.0095
2828.00,0.0095
2827.00,0.0095
2826.00,0.0095
2825.00,0.0095
2824.00,0.0095
2823.00,0.0095
2822.00,0.0094
2821.00,0.0094
2820.00,0.0094
2819.00,0.0094
2818.00,0.0094
2817.00,0.0094
2816.00,0.0094
2815.00,0.0094
2814.00,0.0094
2813.00,0.0094
2812.00,0.0094
2811.00,0.0093
2810.00,0.0093
2809.00,0.0093
2808.00,0.0093
2807.00,0.0093
2806.00,0.0093
2805.00,0.0093
2804.00,0.0093
2803.00,0.0093
2802.00,0.0093
2801.00,0.0093
2800.00,0.0092
2799.00,0.0092
2798.00,0.0092
2797.00,0.0092
2796.00,0.0092
2795.00,0.0092
2794.00,0.0092
2793.00,0.0092
2792.00,0.0092
2791.00,0.0092
2790.00,0.0091
2789.00,0.0091
2788.00,0.0091
2787.00,0.0091
2786.00,0.0091
2785.00,0.0091
2784.00,0.0091
2783.00,0.0091
2782.00,0.0091
2781.00,0.0091
2780.00,0.0091
2779.00,0.0091
2778.00,0.0091
2777.00,0.0090
2776.00,0.0090
2775.00,0.0090
2774.00,0.0090
2773.00,0.0090
2772.00,0.0090
2771.00,0.0090
2770.00,0.0090
2769.00,0.0089
2768.00,0.0089
2767.00,0.0089
2766.00,0.0089
2765.00,0.0089
2764.00,0.0089
2763.00,0.0089
2762.00,0.0089
2761.00,0.0089
2760.00,0.0089
2759.00,0.0089
2758.00,0.0089
2757.00,0.0088
2756.00,0.0088
2755.00,0.0088
2754.00,0.0088
2753.00,0.0088
2752.00,0.0088
2751.00,0.0088
2750.00,0.0088
2749.00,0.0087
2748.00,0.0087
2747.00,0.0087
2746.00,0.0087
2745.00,0.0087
2744.00,0.0087
2743.00,0.0087
2742.00,0.0087
2741.00,0.0087
2740.00,0.0087
2739.00,0.0087
2738.00,0.0087
2737.00,0.0086
2736.00,0.0086
2735.00,0.0086
2734.00,0.0086
2733.00,0.0086
2732.00,0.0086
2731.00,0.0086
2730.00,0.0086
2729.00,0.0086
2728.00,0.0086
2727.00,0.0086
2726.00,0.0086
2725.00,0.0085
2724.00,0.0085
2723.00,0.0085
2722.00,0.0085
2721.00,0.0085
2720.00,0.0085
2719.00,0.0085
2718.00,0.0085
2717.00,0.0085
2716.00,0.0084
2715.00,0.0084
2714.00,0.0084
2713.00,0.0084
2712.00,0.0084
2711.00,0.0084
2710.00,0.0084
2709.00,0.0084
2708.00,0.0084
2707.00,0.0084
2706.00,0.0083
2705.00,0.0083
2704.00,0.0083
2703.00,0.0083
2702.00,0.0083
2701.00,0.0083
2700.00,0.0083
2699.00,0.0083
2698.00,0.0083
2697.00,0.0083
2696.00,0.0083
2695.00,0.0083
2694.00,0.0083
2693.00,0.0082
2692.00,0.0082
2691.00,0.0082
2690.00,0.0082
2689.00,0.0082
2688.00,0.0082
2687.00,0.0082
2686.00,0.0082
2685.00,0.0082
2684.00,0.0082
2683.00,0.0082
2682.00,0.0082
2681.00,0.0082
2680.00,0.0081
2679.00,0.0081
2678.00,0.0081
2677.00,0.0081
2676.00,0.0081
2675.00,0.0081
2674.00,0.0081
2673.00,0.0081
2672.00,0.0081
2671.00,0.0081
2670.00,0.0081
2669.00,0.0081
2668.00,0.0081
2667.00,0.0081
2666.00,0.0082
2665.00,0.0082
2664.00,0.0082
2663.00,0.0082
2662.00,0.0083
2661.00,0.0083
2660.00,0.0083
2659.00,0.0083
2658.00,0.0083
2657.00,0.0083
2656.00,0.0083
2655.00,0.0083
2654.00,0.0083
2653.00,0.0083
2652.00,0.0083
2651.00,0.0083
2650.00,0.0083
2649.00,0.0083
2648.00,0.0083
2647.00,0.0083
2646.00,0.0083
2645.00,0.0083
2644.00,0.0082
2643.00,0.0082
2642.00,0.0082
2641.00,0.0082
2640.00,0.0082
2639.00,0.0082
2638.00,0.0082
2637.00,0.0082
2636.00,0.0082
2635.00,0.0082
2634.00,0.0081
2633.00,0.0081
2632.00,0.0081
2631.00,0.0081
2630.00,0.0081
2629.00,0.0081
2628.00,0.0081
2627.00,0.0081
2626.00,0.0081
2625.00,0.0080
2624.00,0.0080
2623.00,0.0080
2622.00,0.0080
2621.00,0.0080
2620.00,0.0080
2619.00,0.0080
2618.00,0.0080
2617.00,0.0079
2616.00,0.0079
2615.00,0.0079
2614.00,0.0079
2613.00,0.0079
2612.00,0.0079
2611.00,0.0079
2610.00,0.0079
2609.00,0.0079
2608.00,0.0079
2607.00,0.0078
2606.00,0.0078
2605.00,0.0078
2604.00,0.0078
2603.00,0.0078
2602.00,0.0077
2601.00,0.0077
2600.00,0.0077
2599.00,0.0077
2598.00,0.0077
2597.00,0.0077
2596.00,0.0077
2595.00,0.0077
2594.00,0.0077
2593.00,0.0076
2592.00,0.0076
2591.00,0.0076
2590.00,0.0076
2589.00,0.0076
2588.00,0.0076
2587.00,0.0076
2586.00,0.0076
2585.00,0.0076
2584.00,0.0075
2583.00,0.0075
2582.00,0.0075
2581.00,0.0075
2580.00,0.0075
2579.00,0.0075
2578.00,0.0075
2577.00,0.0075
2576.00,0.0075
2575.00,0.0075
2574.00,0.0074
2573.00,0.0074
2572.00,0.0074
2571.00,0.0074
2570.00,0.0074
2569.00,0.0074
2568.00,0.0073
2567.00,0.0073
2566.00,0.0073
2565.00,0.0073
2564.00,0.0073
2563.00,0.0073
2562.00,0.0073
2561.00,0.0073
2560.00,0.0073
2559.00,0.0073
2558.00,0.0073
2557.00,0.0073
2556.00,0.0073
2555.00,0.0073
2554.00,0.0073
2553.00,0.0072
2552.00,0.0072
2551.00,0.0072
2550.00,0.0072
2549.00,0.0072
2548.00,0.0072
2547.00,0.0072
2546.00,0.0072
2545.00,0.0072
2544.00,0.0072
2543.00,0.0072
2542.00,0.0072
2541.00,0.0072
2540.00,0.0071
2539.00,0.0071
2538.00,0.0071
2537.00,0.0071
2536.00,0.0071
2535.00,0.0071
2534.00,0.0071
2533.00,0.0071
2532.00,0.0071
2531.00,0.0071
2530.00,0.0071
2529.00,0.0071
2528.00,0.0070
2527.00,0.0070
2526.00,0.0070
2525.00,0.0070
2524.00,0.0070
2523.00,0.0070
2522.00,0.0070
2521.00,0.0070
2520.00,0.0070
2519.00,0.0070
2518.00,0.0070
2517.00,0.0070
2516.00,0.0070
2515.00,0.0070
2514.00,0.0070
2513.00,0.0070
2512.00,0.0070
2511.00,0.0070
2510.00,0.0070
2509.00,0.0070
2508.00,0.0069
2507.00,0.0069
2506.00,0.0069
2505.00,0.0069
2504.00,0.0069
2503.00,0.0069
2502.00,0.0069
2501.00,0.0069
2500.00,0.0069
2499.00,0.0069
2498.00,0.0069
2497.00,0.0069
2496.00,0.0069
2495.00,0.0069
2494.00,0.0069
2493.00,0.0069
2492.00,0.0069
2491.00,0.0069
2490.00,0.0069
2489.00,0.0069
2488.00,0.0068
2487.00,0.0068
2486.00,0.0068
2485.00,0.0068
2484.00,0.0068
2483.00,0.0068
2482.00,0.0068
2481.00,0.0068
2480.00,0.0068
2479.00,0.0068
2478.00,0.0068
2477.00,0.0068
2476.00,0.0068
2475.00,0.0068
2474.00,0.0068
2473.00,0.0068
2472.00,0.0068
2471.00,0.0068
2470.00,0.0068
2469.00,0.0068
2468.00,0.0068
2467.00,0.0068
2466.00,0.0068
2465.00,0.0068
2464.00,0.0068
2463.00,0.0068
2462.00,0.0068
2461.00,0.0068
2460.00,0.0068
2459.00,0.0068
2458.00,0.0068
2457.00,0.0068
2456.00,0.0068
2455.00,0.0068
2454.00,0.0069
2453.00,0.0069
2452.00,0.0068
2451.00,0.0068
2450.00,0.0068
2449.00,0.0068
2448.00,0.0068
2447.00,0.0067
2446.00,0.0067
2445.00,0.0067
2444.00,0.0066
2443.00,0.0066
2442.00,0.0066
2441.00,0.0066
2440.00,0.0066
2439.00,0.0066
2438.00,0.0067
2437.00,0.0067
2436.00,0.0067
2435.00,0.0067
2434.00,0.0066
2433.00,0.0066
2432.00,0.0066
2431.00,0.0066
2430.00,0.0065
2429.00,0.0065
2428.00,0.0065
2427.00,0.0065
2426.00,0.0065
2425.00,0.0065
2424.00,0.0065
2423.00,0.0065
2422.00,0.0065
2421.00,0.0065
2420.00,0.0064
2419.00,0.0064
2418.00,0.0064
2417.00,0.0064
2416.00,0.0064
2415.00,0.0064
2414.00,0.0064
2413.00,0.0064
2412.00,0.0064
2411.00,0.0064
2410.00,0.0064
2409.00,0.0063
2408.00,0.0063
2407.00,0.0063
2406.00,0.0062
2405.00,0.0062
2404.00,0.0062
2403.00,0.0062
2402.00,0.0062
2401.00,0.0062
2400.00,0.0062
2399.00,0.0062
2398.00,0.0062
2397.00,0.0062
2396.00,0.0062
2395.00,0.0062
2394.00,0.0062
2393.00,0.0062
2392.00,0.0062
2391.00,0.0062
2390.00,0.0061
2389.00,0.0061
2388.00,0.0061
2387.00,0.0060
2386.00,0.0060
2385.00,0.0059
2384.00,0.0058
2383.00,0.0058
2382.00,0.0057
2381.00,0.0056
2380.00,0.0056
2379.00,0.0056
2378.00,0.0057
2377.00,0.0058
2376.00,0.0058
2375.00,0.0059
2374.00,0.0059
2373.00,0.0059
2372.00,0.0058
2371.00,0.0058
2370.00,0.0057
2369.00,0.0057
2368.00,0.0057
2367.00,0.0057
2366.00,0.0057
2365.00,0.0058
2364.00,0.0058
2363.00,0.0059
2362.00,0.0059
2361.00,0.0059
2360.00,0.0059
2359.00,0.0059
2358.00,0.0059
2357.00,0.0059
2356.00,0.0059
2355.00,0.0059
2354.00,0.0060
2353.00,0.0059
2352.00,0.0059
2351.00,0.0059
2350.00,0.0059
2349.00,0.0060
2348.00,0.0061
2347.00,0.0061
2346.00,0.0061
2345.00,0.0061
2344.00,0.0061
2343.00,0.0062
2342.00,0.0062
2341.00,0.0062
2340.00,0.0062
2339.00,0.0062
2338.00,0.0062
2337.00,0.0062
2336.00,0.0062
2335.00,0.0062
2334.00,0.0062
2333.00,0.0061
2332.00,0.0061
2331.00,0.0060
2330.00,0.0061
2329.00,0.0062
2328.00,0.0065
2327.00,0.0068
2326.00,0.0071
2325.00,0.0072
2324.00,0.0071
2323.00,0.0069
2322.00,0.0067
2321.00,0.0066
2320.00,0.0066
2319.00,0.0066
2318.00,0.0066
2317.00,0.0065
2316.00,0.0065
2315.00,0.0064
2314.00,0.0064
2313.00,0.0063
2312.00,0.0062
2311.00,0.0062
2310.00,0.0061
2309.00,0.0061
2308.00,0.0061
2307.00,0.0061
2306.00,0.0062
2305.00,0.0062
2304.00,0.0062
2303.00,0.0062
2302.00,0.0063
2301.00,0.0063
2300.00,0.0063
2299.00,0.0064
2298.00,0.0064
2297.00,0.0065
2296.00,0.0066
2295.00,0.0066
2294.00,0.0067
2293.00,0.0067
2292.00,0.0068
2291.00,0.0068
2290.00,0.0069
2289.00,0.0069
2288.00,0.0070
2287.00,0.0070
2286.00,0.0070
2285.00,0.0070
2284.00,0.0069
2283.00,0.0068
2282.00,0.0068
2281.00,0.0067
2280.00,0.0067
2279.00,0.0067
2278.00,0.0066
2277.00,0.0066
2276.00,0.0066
2275.00,0.0066
2274.00,0.0065
2273.00,0.0065
2272.00,0.0065
2271.00,0.0065
2270.00,0.0065
2269.00,0.0064
2268.00,0.0064
2267.00,0.0063
2266.00,0.0063
2265.00,0.0063
2264.00,0.0063
2263.00,0.0063
2262.00,0.0063
2261.00,0.0064
2260.00,0.0064
2259.00,0.0064
2258.00,0.0064
2257.00,0.0063
2256.00,0.0062
2255.00,0.0062
2254.00,0.0061
2253.00,0.0061
2252.00,0.0061
2251.00,0.0061
2250.00,0.0061
2249.00,0.0061
2248.00,0.0061
2247.00,0.0061
2246.00,0.0062
2245.00,0.0062
2244.00,0.0062
2243.00,0.0062
2242.00,0.0062
2241.00,0.0062
2240.00,0.0062
2239.00,0.0062
2238.00,0.0062
2237.00,0.0062
2236.00,0.0062
2235.00,0.0062
2234.00,0.0062
2233.00,0.0062
2232.00,0.0062
2231.00,0.0061
2230.00,0.0061
2229.00,0.0061
2228.00,0.0061
2227.00,0.0061
2226.00,0.0061
2225.00,0.0061
2224.00,0.0060
2223.00,0.0060
2222.00,0.0060
2221.00,0.0060
2220.00,0.0061
2219.00,0.0061
2218.00,0.0061
2217.00,0.0061
2216.00,0.0061
2215.00,0.0061
2214.00,0.0061
2213.00,0.0061
2212.00,0.0061
2211.00,0.0061
2210.00,0.0061
2209.00,0.0061
2208.00,0.0061
2207.00,0.0061
2206.00,0.0061
2205.00,0.0061
2204.00,0.0061
2203.00,0.0060
2202.00,0.0060
2201.00,0.0060
2200.00,0.0060
2199.00,0.0061
2198.00,0.0061
2197.00,0.0062
2196.00,0.0062
2195.00,0.0062
2194.00,0.0061
2193.00,0.0061
2192.00,0.0061
2191.00,0.0061
2190.00,0.0061
2189.00,0.0062
2188.00,0.0062
2187.00,0.0062
2186.00,0.0062
2185.00,0.0062
2184.00,0.0061
2183.00,0.0059
2182.00,0.0057
2181.00,0.0057
2180.00,0.0057
2179.00,0.0058
2178.00,0.0058
2177.00,0.0058
2176.00,0.0057
2175.00,0.0056
2174.00,0.0057
2173.00,0.0058
2172.00,0.0060
2171.00,0.0062
2170.00,0.0065
2169.00,0.0066
2168.00,0.0067
2167.00,0.0067
2166.00,0.0067
2165.00,0.0067
2164.00,0.0069
2163.00,0.0069
2162.00,0.0067
2161.00,0.0059
2160.00,0.0048
2159.00,0.0038
2158.00,0.0032
2157.00,0.0031
2156.00,0.0033
2155.00,0.0036
2154.00,0.0038
2153.00,0.0040
2152.00,0.0042
2151.00,0.0044
2150.00,0.0044
2149.00,0.0045
2148.00,0.0044
2147.00,0.0043
2146.00,0.0043
2145.00,0.0043
2144.00,0.0043
2143.00,0.0043
2142.00,0.0044
2141.00,0.0044
2140.00,0.0044
2139.00,0.0044
2138.00,0.0043
2137.00,0.0041
2136.00,0.0039
2135.00,0.0038
2134.00,0.0038
2133.00,0.0039
2132.00,0.0041
2131.00,0.0042
2130.00,0.0043
2129.00,0.0044
2128.00,0.0045
2127.00,0.0047
2126.00,0.0048
2125.00,0.0049
2124.00,0.0049
2123.00,0.0050
2122.00,0.0050
2121.00,0.0050
2120.00,0.0051
2119.00,0.0051
2118.00,0.0052
2117.00,0.0054
2116.00,0.0054
2115.00,0.0055
2114.00,0.0055
2113.00,0.0055
2112.00,0.0055
2111.00,0.0055
2110.00,0.0055
2109.00,0.0055
2108.00,0.0055
2107.00,0.0055
2106.00,0.0054
2105.00,0.0054
2104.00,0.0054
2103.00,0.0054
2102.00,0.0054
2101.00,0.0054
2100.00,0.0054
2099.00,0.0054
2098.00,0.0053
2097.00,0.0052
2096.00,0.0051
2095.00,0.0050
2094.00,0.0050
2093.00,0.0051
2092.00,0.0052
2091.00,0.0053
2090.00,0.0053
2089.00,0.0053
2088.00,0.0054
2087.00,0.0054
2086.00,0.0054
2085.00,0.0054
2084.00,0.0054
2083.00,0.0055
2082.00,0.0055
2081.00,0.0056
2080.00,0.0056
2079.00,0.0055
2078.00,0.0055
2077.00,0.0055
2076.00,0.0054
2075.00,0.0054
2074.00,0.0053
2073.00,0.0053
2072.00,0.0053
2071.00,0.0053
2070.00,0.0053
2069.00,0.0053
2068.00,0.0053
2067.00,0.0053
2066.00,0.0053
2065.00,0.0053
2064.00,0.0053
2063.00,0.0053
2062.00,0.0053
2061.00,0.0053
2060.00,0.0054
2059.00,0.0054
2058.00,0.0054
2057.00,0.0054
2056.00,0.0054
2055.00,0.0054
2054.00,0.0056
2053.00,0.0059
2052.00,0.0062
2051.00,0.0063
2050.00,0.0061
2049.00,0.0058
2048.00,0.0055
2047.00,0.0054
2046.00,0.0053
2045.00,0.0053
2044.00,0.0053
2043.00,0.0053
2042.00,0.0053
2041.00,0.0053
2040.00,0.0054
2039.00,0.0055
2038.00,0.0056
2037.00,0.0056
2036.00,0.0054
2035.00,0.0052
2034.00,0.0049
2033.00,0.0048
2032.00,0.0047
2031.00,0.0047
2030.00,0.0047
2029.00,0.0047
2028.00,0.0047
2027.00,0.0047
2026.00,0.0046
2025.00,0.0046
2024.00,0.0045
2023.00,0.0045
2022.00,0.0045
2021.00,0.0045
2020.00,0.0045
2019.00,0.0045
2018.00,0.0045
2017.00,0.0045
2016.00,0.0045
2015.00,0.0045
2014.00,0.0045
2013.00,0.0046
2012.00,0.0047
2011.00,0.0048
2010.00,0.0047
2009.00,0.0045
2008.00,0.0043
2007.00,0.0041
2006.00,0.0040
2005.00,0.0040
2004.00,0.0042
2003.00,0.0043
2002.00,0.0044
2001.00,0.0045
2000.00,0.0045
1999.00,0.0046
1998.00,0.0046
1997.00,0.0046
1996.00,0.0046
1995.00,0.0046
1994.00,0.0047
1993.00,0.0047
1992.00,0.0047
1991.00,0.0047
1990.00,0.0047
1989.00,0.0048
1988.00,0.0049
1987.00,0.0050
1986.00,0.0050
1985.00,0.0050
1984.00,0.0051
1983.00,0.0054
1982.00,0.0056
1981.00,0.0058
1980.00,0.0056
1979.00,0.0052
1978.00,0.0046
1977.00,0.0042
1976.00,0.0041
1975.00,0.0040
1974.00,0.0040
1973.00,0.0039
1972.00,0.0040
1971.00,0.0040
1970.00,0.0040
1969.00,0.0040
1968.00,0.0040
1967.00,0.0040
1966.00,0.0039
1965.00,0.0039
1964.00,0.0039
1963.00,0.0039
1962.00,0.0038
1961.00,0.0036
1960.00,0.0035
1959.00,0.0035
1958.00,0.0036
1957.00,0.0037
1956.00,0.0038
1955.00,0.0039
1954.00,0.0039
1953.00,0.0039
1952.00,0.0039
1951.00,0.0039
1950.00,0.0039
1949.00,0.0039
1948.00,0.0039
1947.00,0.0038
1946.00,0.0038
1945.00,0.0037
1944.00,0.0038
1943.00,0.0038
1942.00,0.0038
1941.00,0.0039
1940.00,0.0039
1939.00,0.0038
1938.00,0.0038
1937.00,0.0038
1936.00,0.0038
1935.00,0.0038
1934.00,0.0038
1933.00,0.0038
1932.00,0.0038
1931.00,0.0038
1930.00,0.0038
1929.00,0.0038
1928.00,0.0038
1927.00,0.0038
1926.00,0.0038
1925.00,0.0038
1924.00,0.0038
1923.00,0.0039
1922.00,0.0040
1921.00,0.0040
1920.00,0.0041
1919.00,0.0040
1918.00,0.0040
1917.00,0.0040
1916.00,0.0040
1915.00,0.0039
1914.00,0.0039
1913.00,0.0039
1912.00,0.0039
1911.00,0.0039
1910.00,0.0039
1909.00,0.0039
1908.00,0.0040
1907.00,0.0040
1906.00,0.0040
1905.00,0.0039
1904.00,0.0039
1903.00,0.0039
1902.00,0.0039
1901.00,0.0040
1900.00,0.0040
1899.00,0.0040
1898.00,0.0040
1897.00,0.0039
1896.00,0.0040
1895.00,0.0040
1894.00,0.0040
1893.00,0.0039
1892.00,0.0039
1891.00,0.0039
1890.00,0.0039
1889.00,0.0039
1888.00,0.0039
1887.00,0.0039
1886.00,0.0039
1885.00,0.0039
1884.00,0.0039
1883.00,0.0039
1882.00,0.0039
1881.00,0.0039
1880.00,0.0039
1879.00,0.0039
1878.00,0.0039
1877.00,0.0039
1876.00,0.0039
1875.00,0.0039
1874.00,0.0039
1873.00,0.0038
1872.00,0.0038
1871.00,0.0038
1870.00,0.0038
1869.00,0.0038
1868.00,0.0038
1867.00,0.0038
1866.00,0.0038
1865.00,0.0038
1864.00,0.0038
1863.00,0.0038
1862.00,0.0038
1861.00,0.0038
1860.00,0.0038
1859.00,0.0038
1858.00,0.0038
1857.00,0.0038
1856.00,0.0038
1855.00,0.0038
1854.00,0.0037
1853.00,0.0037
1852.00,0.0037
1851.00,0.0037
1850.00,0.0037
1849.00,0.0037
1848.00,0.0037
1847.00,0.0037
1846.00,0.0037
1845.00,0.0036
1844.00,0.0037
1843.00,0.0037
1842.00,0.0037
1841.00,0.0036
1840.00,0.0036
1839.00,0.0036
1838.00,0.0036
1837.00,0.0036
1836.00,0.0036
1835.00,0.0036
1834.00,0.0036
1833.00,0.0036
1832.00,0.0036
1831.00,0.0036
1830.00,0.0036
1829.00,0.0036
1828.00,0.0036
1827.00,0.0035
1826.00,0.0035
1825.00,0.0035
1824.00,0.0036
1823.00,0.0036
1822.00,0.0036
1821.00,0.0036
1820.00,0.0035
1819.00,0.0034
1818.00,0.0033
1817.00,0.0033
1816.00,0.0034
1815.00,0.0034
1814.00,0.0034
1813.00,0.0035
1812.00,0.0035
1811.00,0.0035
1810.00,0.0035
1809.00,0.0036
1808.00,0.0036
1807.00,0.0036
1806.00,0.0036
1805.00,0.0035
1804.00,0.0035
1803.00,0.0035
1802.00,0.0035
1801.00,0.0035
1800.00,0.0035
1799.00,0.0036
1798.00,0.0036
1797.00,0.0036
1796.00,0.0036
1795.00,0.0036
1794.00,0.0036
1793.00,0.0036
1792.00,0.0036
1791.00,0.0036
1790.00,0.0036
1789.00,0.0036
1788.00,0.0036
1787.00,0.0036
1786.00,0.0036
1785.00,0.0036
1784.00,0.0036
1783.00,0.0036
1782.00,0.0036
1781.00,0.0036
1780.00,0.0036
1779.00,0.0036
1778.00,0.0035
1777.00,0.0035
1776.00,0.0035
1775.00,0.0036
1774.00,0.0036
1773.00,0.0036
1772.00,0.0036
1771.00,0.0036
1770.00,0.0036
1769.00,0.0036
1768.00,0.0036
1767.00,0.0037
1766.00,0.0036
1765.00,0.0036
1764.00,0.0036
1763.00,0.0036
1762.00,0.0036
1761.00,0.0037
1760.00,0.0037
1759.00,0.0037
1758.00,0.0037
1757.00,0.0037
1756.00,0.0037
1755.00,0.0037
1754.00,0.0038
1753.00,0.0038
1752.00,0.0038
1751.00,0.0038
1750.00,0.0038
1749.00,0.0038
1748.00,0.0038
1747.00,0.0039
1746.00,0.0039
1745.00,0.0039
1744.00,0.0039
1743.00,0.0040
1742.00,0.0040
1741.00,0.0040
1740.00,0.0041
1739.00,0.0041
1738.00,0.0041
1737.00,0.0042
1736.00,0.0043
1735.00,0.0044
1734.00,0.0045
1733.00,0.0046
1732.00,0.0046
1731.00,0.0046
1730.00,0.0045
1729.00,0.0046
1728.00,0.0047
1727.00,0.0047
1726.00,0.0048
1725.00,0.0049
1724.00,0.0050
1723.00,0.0050
1722.00,0.0051
1721.00,0.0051
1720.00,0.0051
1719.00,0.0053
1718.00,0.0055
1717.00,0.0056
1716.00,0.0057
1715.00,0.0058
1714.00,0.0059
1713.00,0.0060
1712.00,0.0062
1711.00,0.0063
1710.00,0.0065
1709.00,0.0067
1708.00,0.0069
1707.00,0.0072
1706.00,0.0076
1705.00,0.0081
1704.00,0.0086
1703.00,0.0091
1702.00,0.0096
1701.00,0.0106
1700.00,0.0120
1699.00,0.0133
1698.00,0.0142
1697.00,0.0149
1696.00,0.0156
1695.00,0.0161
1694.00,0.0164
1693.00,0.0166
1692.00,0.0168
1691.00,0.0171
1690.00,0.0174
1689.00,0.0178
1688.00,0.0182
1687.00,0.0186
1686.00,0.0190
1685.00,0.0195
1684.00,0.0202
1683.00,0.0208
1682.00,0.0214
1681.00,0.0219
1680.00,0.0224
1679.00,0.0229
1678.00,0.0233
1677.00,0.0238
1676.00,0.0244
1675.00,0.0251
1674.00,0.0258
1673.00,0.0264
1672.00,0.0269
1671.00,0.0275
1670.00,0.0281
1669.00,0.0289
1668.00,0.0297
1667.00,0.0303
1666.00,0.0307
1665.00,0.0312
1664.00,0.0317
1663.00,0.0324
1662.00,0.0331
1661.00,0.0337
1660.00,0.0343
1659.00,0.0348
1658.00,0.0352
1657.00,0.0355
1656.00,0.0359
1655.00,0.0362
1654.00,0.0367
1653.00,0.0376
1652.00,0.0384
1651.00,0.0387
1650.00,0.0388
1649.00,0.0388
1648.00,0.0391
1647.00,0.0395
1646.00,0.0401
1645.00,0.0405
1644.00,0.0407
1643.00,0.0410
1642.00,0.0412
1641.00,0.0414
1640.00,0.0416
1639.00,0.0419
1638.00,0.0420
1637.00,0.0423
1636.00,0.0426
1635.00,0.0431
1634.00,0.0435
1633.00,0.0438
1632.00,0.0440
1631.00,0.0441
1630.00,0.0442
1629.00,0.0444
1628.00,0.0446
1627.00,0.0448
1626.00,0.0450
1625.00,0.0451
1624.00,0.0452
1623.00,0.0453
1622.00,0.0455
1621.00,0.0455
1620.00,0.0455
1619.00,0.0455
1618.00,0.0453
1617.00,0.0450
1616.00,0.0447
1615.00,0.0444
1614.00,0.0440
1613.00,0.0436
1612.00,0.0431
1611.00,0.0425
1610.00,0.0419
1609.00,0.0413
1608.00,0.0407
1607.00,0.0400
1606.00,0.0393
1605.00,0.0385
1604.00,0.0377
1603.00,0.0369
1602.00,0.0360
1601.00,0.0352
1600.00,0.0344
1599.00,0.0336
1598.00,0.0328
1597.00,0.0320
1596.00,0.0313
1595.00,0.0306
1594.00,0.0299
1593.00,0.0292
1592.00,0.0286
1591.00,0.0279
1590.00,0.0273
1589.00,0.0268
1588.00,0.0262
1587.00,0.0257
1586.00,0.0252
1585.00,0.0248
1584.00,0.0244
1583.00,0.0241
1582.00,0.0238
1581.00,0.0235
1580.00,0.0233
1579.00,0.0231
1578.00,0.0231
1577.00,0.0231
1576.00,0.0231
1575.00,0.0231
1574.00,0.0231
1573.00,0.0231
1572.00,0.0231
1571.00,0.0231
1570.00,0.0233
1569.00,0.0237
1568.00,0.0240
1567.00,0.0243
1566.00,0.0246
1565.00,0.0250
1564.00,0.0253
1563.00,0.0257
1562.00,0.0259
1561.00,0.0261
1560.00,0.0264
1559.00,0.0272
1558.00,0.0281
1557.00,0.0287
1556.00,0.0291
1555.00,0.0295
1554.00,0.0300
1553.00,0.0304
1552.00,0.0308
1551.00,0.0311
1550.00,0.0316
1549.00,0.0320
1548.00,0.0324
1547.00,0.0327
1546.00,0.0330
1545.00,0.0333
1544.00,0.0337
1543.00,0.0341
1542.00,0.0345
1541.00,0.0349
1540.00,0.0355
1539.00,0.0361
1538.00,0.0365
1537.00,0.0367
1536.00,0.0367
1535.00,0.0369
1534.00,0.0372
1533.00,0.0376
1532.00,0.0381
1531.00,0.0385
1530.00,0.0387
1529.00,0.0390
1528.00,0.0392
1527.00,0.0396
1526.00,0.0400
1525.00,0.0403
1524.00,0.0406
1523.00,0.0408
1522.00,0.0412
1521.00,0.0416
1520.00,0.0419
1519.00,0.0420
1518.00,0.0421
1517.00,0.0422
1516.00,0.0423
1515.00,0.0424
1514.00,0.0423
1513.00,0.0421
1512.00,0.0418
1511.00,0.0415
1510.00,0.0412
1509.00,0.0408
1508.00,0.0403
1507.00,0.0396
1506.00,0.0390
1505.00,0.0384
1504.00,0.0379
1503.00,0.0373
1502.00,0.0367
1501.00,0.0360
1500.00,0.0353
1499.00,0.0345
1498.00,0.0338
1497.00,0.0331
1496.00,0.0323
1495.00,0.0316
1494.00,0.0308
1493.00,0.0301
1492.00,0.0294
1491.00,0.0286
1490.00,0.0278
1489.00,0.0270
1488.00,0.0264
1487.00,0.0258
1486.00,0.0253
1485.00,0.0248
1484.00,0.0243
1483.00,0.0239
1482.00,0.0235
1481.00,0.0231
1480.00,0.0227
1479.00,0.0224
1478.00,0.0222
1477.00,0.0219
1476.00,0.0217
1475.00,0.0216
1474.00,0.0216
1473.00,0.0215
1472.00,0.0215
1471.00,0.0216
1470.00,0.0216
1469.00,0.0215
1468.00,0.0215
1467.00,0.0214
1466.00,0.0214
1465.00,0.0214
1464.00,0.0215
1463.00,0.0216
1462.00,0.0217
1461.00,0.0218
1460.00,0.0219
1459.00,0.0220
1458.00,0.0224
1457.00,0.0229
1456.00,0.0233
1455.00,0.0235
1454.00,0.0236
1453.00,0.0237
1452.00,0.0237
1451.00,0.0237
1450.00,0.0237
1449.00,0.0237
1448.00,0.0236
1447.00,0.0235
1446.00,0.0234
1445.00,0.0233
1444.00,0.0231
1443.00,0.0229
1442.00,0.0226
1441.00,0.0224
1440.00,0.0221
1439.00,0.0218
1438.00,0.0215
1437.00,0.0213
1436.00,0.0211
1435.00,0.0209
1434.00,0.0208
1433.00,0.0206
1432.00,0.0205
1431.00,0.0203
1430.00,0.0202
1429.00,0.0202
1428.00,0.0201
1427.00,0.0201
1426.00,0.0201
1425.00,0.0201
1424.00,0.0202
1423.00,0.0202
1422.00,0.0203
1421.00,0.0203
1420.00,0.0203
1419.00,0.0205
1418.00,0.0207
1417.00,0.0209
1416.00,0.0210
1415.00,0.0211
1414.00,0.0212
1413.00,0.0213
1412.00,0.0214
1411.00,0.0215
1410.00,0.0216
1409.00,0.0217
1408.00,0.0217
1407.00,0.0217
1406.00,0.0217
1405.00,0.0218
1404.00,0.0219
1403.00,0.0219
1402.00,0.0219
1401.00,0.0218
1400.00,0.0218
1399.00,0.0217
1398.00,0.0217
1397.00,0.0217
1396.00,0.0217
1395.00,0.0216
1394.00,0.0216
1393.00,0.0217
1392.00,0.0217
1391.00,0.0216
1390.00,0.0216
1389.00,0.0216
1388.00,0.0215
1387.00,0.0215
1386.00,0.0215
1385.00,0.0214
1384.00,0.0213
1383.00,0.0212
1382.00,0.0211
1381.00,0.0211
1380.00,0.0210
1379.00,0.0209
1378.00,0.0209
1377.00,0.0208
1376.00,0.0207
1375.00,0.0207
1374.00,0.0206
1373.00,0.0206
1372.00,0.0206
1371.00,0.0206
1370.00,0.0205
1369.00,0.0204
1368.00,0.0203
1367.00,0.0202
1366.00,0.0200
1365.00,0.0198
1364.00,0.0197
1363.00,0.0196
1362.00,0.0195
1361.00,0.0194
1360.00,0.0193
1359.00,0.0192
1358.00,0.0192
1357.00,0.0191
1356.00,0.0190
1355.00,0.0190
1354.00,0.0189
1353.00,0.0189
1352.00,0.0189
1351.00,0.0188
1350.00,0.0188
1349.00,0.0188
1348.00,0.0188
1347.00,0.0188
1346.00,0.0188
1345.00,0.0188
1344.00,0.0188
1343.00,0.0188
1342.00,0.0188
1341.00,0.0188
1340.00,0.0189
1339.00,0.0189
1338.00,0.0189
1337.00,0.0190
1336.00,0.0190
1335.00,0.0190
1334.00,0.0190
1333.00,0.0189
1332.00,0.0189
1331.00,0.0189
1330.00,0.0189
1329.00,0.0189
1328.00,0.0189
1327.00,0.0189
1326.00,0.0189
1325.00,0.0189
1324.00,0.0189
1323.00,0.0189
1322.00,0.0189
1321.00,0.0188
1320.00,0.0188
1319.00,0.0188
1318.00,0.0188
1317.00,0.0188
1316.00,0.0188
1315.00,0.0187
1314.00,0.0187
1313.00,0.0187
1312.00,0.0186
1311.00,0.0186
1310.00,0.0185
1309.00,0.0185
1308.00,0.0184
1307.00,0.0184
1306.00,0.0184
1305.00,0.0183
1304.00,0.0183
1303.00,0.0183
1302.00,0.0182
1301.00,0.0182
1300.00,0.0181
1299.00,0.0181
1298.00,0.0181
1297.00,0.0180
1296.00,0.0180
1295.00,0.0180
1294.00,0.0180
1293.00,0.0179
1292.00,0.0179
1291.00,0.0179
1290.00,0.0179
1289.00,0.0179
1288.00,0.0179
1287.00,0.0179
1286.00,0.0179
1285.00,0.0179
1284.00,0.0179
1283.00,0.0179
1282.00,0.0178
1281.00,0.0178
1280.00,0.0178
1279.00,0.0177
1278.00,0.0177
1277.00,0.0177
1276.00,0.0177
1275.00,0.0176
1274.00,0.0176
1273.00,0.0176
1272.00,0.0176
1271.00,0.0176
1270.00,0.0177
1269.00,0.0177
1268.00,0.0177
1267.00,0.0178
1266.00,0.0178
1265.00,0.0179
1264.00,0.0180
1263.00,0.0181
1262.00,0.0182
1261.00,0.0183
1260.00,0.0185
1259.00,0.0186
1258.00,0.0188
1257.00,0.0190
1256.00,0.0191
1255.00,0.0193
1254.00,0.0195
1253.00,0.0196
1252.00,0.0198
1251.00,0.0200
1250.00,0.0201
1249.00,0.0203
1248.00,0.0204
1247.00,0.0206
1246.00,0.0207
1245.00,0.0208
1244.00,0.0209
1243.00,0.0210
1242.00,0.0210
1241.00,0.0211
1240.00,0.0212
1239.00,0.0212
1238.00,0.0213
1237.00,0.0213
1236.00,0.0213
1235.00,0.0213
1234.00,0.0213
1233.00,0.0213
1232.00,0.0213
1231.00,0.0213
1230.00,0.0213
1229.00,0.0212
1228.00,0.0212
1227.00,0.0211
1226.00,0.0210
1225.00,0.0209
1224.00,0.0208
1223.00,0.0207
1222.00,0.0206
1221.00,0.0205
1220.00,0.0204
1219.00,0.0203
1218.00,0.0201
1217.00,0.0200
1216.00,0.0199
1215.00,0.0197
1214.00,0.0196
1213.00,0.0194
1212.00,0.0192
1211.00,0.0190
1210.00,0.0188
1209.00,0.0186
1208.00,0.0184
1207.00,0.0182
1206.00,0.0180
1205.00,0.0178
1204.00,0.0176
1203.00,0.0174
1202.00,0.0173
1201.00,0.0171
1200.00,0.0169
1199.00,0.0167
1198.00,0.0166
1197.00,0.0164
1196.00,0.0163
1195.00,0.0162
1194.00,0.0161
1193.00,0.0160
1192.00,0.0159
1191.00,0.0158
1190.00,0.0157
1189.00,0.0157
1188.00,0.0156
1187.00,0.0155
1186.00,0.0155
1185.00,0.0155
1184.00,0.0154
1183.00,0.0154
1182.00,0.0154
1181.00,0.0155
1180.00,0.0155
1179.00,0.0156
1178.00,0.0157
1177.00,0.0158
1176.00,0.0159
1175.00,0.0160
1174.00,0.0161
1173.00,0.0163
1172.00,0.0164
1171.00,0.0166
1170.00,0.0167
1169.00,0.0168
1168.00,0.0169
1167.00,0.0170
1166.00,0.0171
1165.00,0.0172
1164.00,0.0173
1163.00,0.0174
1162.00,0.0175
1161.00,0.0175
1160.00,0.0176
1159.00,0.0176
1158.00,0.0176
1157.00,0.0175
1156.00,0.0175
1155.00,0.0174
1154.00,0.0174
1153.00,0.0173
1152.00,0.0172
1151.00,0.0170
1150.00,0.0169
1149.00,0.0168
1148.00,0.0167
1147.00,0.0166
1146.00,0.0164
1145.00,0.0163
1144.00,0.0162
1143.00,0.0161
1142.00,0.0161
1141.00,0.0160
1140.00,0.0159
1139.00,0.0159
1138.00,0.0158
1137.00,0.0158
1136.00,0.0158
1135.00,0.0158
1134.00,0.0157
1133.00,0.0157
1132.00,0.0158
1131.00,0.0158
1130.00,0.0158
1129.00,0.0157
1128.00,0.0157
1127.00,0.0157
1126.00,0.0157
1125.00,0.0157
1124.00,0.0157
1123.00,0.0157
1122.00,0.0157
1121.00,0.0156
1120.00,0.0156
1119.00,0.0156
1118.00,0.0156
1117.00,0.0156
1116.00,0.0156
1115.00,0.0157
1114.00,0.0156
1113.00,0.0156
1112.00,0.0156
1111.00,0.0156
1110.00,0.0157
1109.00,0.0157
1108.00,0.0157
1107.00,0.0157
1106.00,0.0158
1105.00,0.0158
1104.00,0.0159
1103.00,0.0159
1102.00,0.0160
1101.00,0.0160
1100.00,0.0161
1099.00,0.0162
1098.00,0.0162
1097.00,0.0163
1096.00,0.0164
1095.00,0.0166
1094.00,0.0167
1093.00,0.0169
1092.00,0.0171
1091.00,0.0173
1090.00,0.0175
1089.00,0.0177
1088.00,0.0180
1087.00,0.0182
1086.00,0.0185
1085.00,0.0188
1084.00,0.0191
1083.00,0.0194
1082.00,0.0197
1081.00,0.0200
1080.00,0.0203
1079.00,0.0206
1078.00,0.0209
1077.00,0.0212
1076.00,0.0214
1075.00,0.0216
1074.00,0.0218
1073.00,0.0219
1072.00,0.0221
1071.00,0.0222
1070.00,0.0223
1069.00,0.0224
1068.00,0.0225
1067.00,0.0225
1066.00,0.0226
1065.00,0.0226
1064.00,0.0226
1063.00,0.0226
1062.00,0.0225
1061.00,0.0225
1060.00,0.0224
1059.00,0.0223
1058.00,0.0222
1057.00,0.0221
1056.00,0.0220
1055.00,0.0219
1054.00,0.0218
1053.00,0.0216
1052.00,0.0215
1051.00,0.0214
1050.00,0.0212
1049.00,0.0211
1048.00,0.0210
1047.00,0.0208
1046.00,0.0207
1045.00,0.0206
1044.00,0.0204
1043.00,0.0202
1042.00,0.0201
1041.00,0.0199
1040.00,0.0197
1039.00,0.0195
1038.00,0.0193
1037.00,0.0191
1036.00,0.0189
1035.00,0.0188
1034.00,0.0186
1033.00,0.0185
1032.00,0.0183
1031.00,0.0181
1030.00,0.0180
1029.00,0.0177
1028.00,0.0175
1027.00,0.0173
1026.00,0.0171
1025.00,0.0169
1024.00,0.0167
1023.00,0.0164
1022.00,0.0162
1021.00,0.0160
1020.00,0.0158
1019.00,0.0157
1018.00,0.0155
1017.00,0.0153
1016.00,0.0152
1015.00,0.0151
1014.00,0.0149
1013.00,0.0148
1012.00,0.0147
1011.00,0.0145
1010.00,0.0144
1009.00,0.0143
1008.00,0.0142
1007.00,0.0141
1006.00,0.0140
1005.00,0.0139
1004.00,0.0139
1003.00,0.0138
1002.00,0.0137
1001.00,0.0137
1000.00,0.0136
999.00,0.0135
998.00,0.0134
997.00,0.0134
996.00,0.0133
995.00,0.0133
994.00,0.0132
993.00,0.0131
992.00,0.0131
991.00,0.0130
990.00,0.0129
989.00,0.0129
988.00,0.0128
987.00,0.0128
986.00,0.0127
985.00,0.0127
984.00,0.0126
983.00,0.0126
982.00,0.0125
981.00,0.0125
980.00,0.0125
979.00,0.0125
978.00,0.0125
977.00,0.0125
976.00,0.0125
975.00,0.0125
974.00,0.0125
973.00,0.0125
972.00,0.0126
971.00,0.0126
970.00,0.0127
969.00,0.0127
968.00,0.0128
967.00,0.0129
966.00,0.0129
965.00,0.0130
964.00,0.0131
963.00,0.0132
962.00,0.0132
961.00,0.0132
960.00,0.0132
959.00,0.0131
958.00,0.0131
957.00,0.0130
956.00,0.0130
955.00,0.0129
954.00,0.0128
953.00,0.0128
952.00,0.0127
951.00,0.0126
950.00,0.0126
949.00,0.0125
948.00,0.0125
947.00,0.0124
946.00,0.0124
945.00,0.0124
944.00,0.0123
943.00,0.0123
942.00,0.0123
941.00,0.0123
940.00,0.0122
939.00,0.0122
938.00,0.0122
937.00,0.0122
936.00,0.0121
935.00,0.0121
934.00,0.0121
933.00,0.0121
932.00,0.0121
931.00,0.0121
930.00,0.0120
929.00,0.0120
928.00,0.0120
927.00,0.0119
926.00,0.0118
925.00,0.0118
924.00,0.0117
923.00,0.0116
922.00,0.0116
921.00,0.0115
920.00,0.0114
919.00,0.0114
918.00,0.0114
917.00,0.0114
916.00,0.0114
915.00,0.0114
914.00,0.0114
913.00,0.0113
912.00,0.0113
911.00,0.0113
910.00,0.0113
909.00,0.0113
908.00,0.0113
907.00,0.0113
906.00,0.0114
905.00,0.0114
904.00,0.0115
903.00,0.0115
902.00,0.0115
901.00,0.0115
900.00,0.0115
899.00,0.0115
898.00,0.0115
897.00,0.0114
896.00,0.0114
895.00,0.0114
894.00,0.0113
893.00,0.0113
892.00,0.0112
891.00,0.0112
890.00,0.0111
889.00,0.0111
888.00,0.0110
887.00,0.0110
886.00,0.0110
885.00,0.0110
884.00,0.0110
883.00,0.0109
882.00,0.0109
881.00,0.0109
880.00,0.0109
879.00,0.0108
878.00,0.0108
877.00,0.0108
876.00,0.0109
875.00,0.0109
874.00,0.0109
873.00,0.0109
872.00,0.0109
871.00,0.0109
870.00,0.0109
869.00,0.0109
868.00,0.0109
867.00,0.0109
866.00,0.0109
865.00,0.0109
864.00,0.0109
863.00,0.0109
862.00,0.0109
861.00,0.0108
860.00,0.0108
859.00,0.0108
858.00,0.0108
857.00,0.0109
856.00,0.0109
855.00,0.0109
854.00,0.0110
853.00,0.0110
852.00,0.0110
851.00,0.0110
850.00,0.0111
849.00,0.0111
848.00,0.0111
847.00,0.0111
846.00,0.0112
845.00,0.0112
844.00,0.0112
843.00,0.0113
842.00,0.0113
841.00,0.0114
840.00,0.0115
839.00,0.0115
838.00,0.0116
837.00,0.0117
836.00,0.0118
835.00,0.0119
834.00,0.0120
833.00,0.0121
832.00,0.0122
831.00,0.0124
830.00,0.0125
829.00,0.0126
828.00,0.0127
827.00,0.0127
826.00,0.0128
825.00,0.0129
824.00,0.0129
823.00,0.0129
822.00,0.0130
821.00,0.0131
820.00,0.0131
819.00,0.0132
818.00,0.0133
817.00,0.0134
816.00,0.0135
815.00,0.0136
814.00,0.0137
813.00,0.0138
812.00,0.0139
811.00,0.0140
810.00,0.0140
809.00,0.0141
808.00,0.0141
807.00,0.0142
806.00,0.0142
805.00,0.0143
804.00,0.0143
803.00,0.0144
802.00,0.0144
801.00,0.0145
800.00,0.0146
799.00,0.0147
798.00,0.0148
797.00,0.0149
796.00,0.0150
795.00,0.0152
794.00,0.0153
793.00,0.0154
792.00,0.0155
791.00,0.0157
790.00,0.0158
789.00,0.0160
788.00,0.0161
787.00,0.0163
786.00,0.0164
785.00,0.0166
784.00,0.0167
783.00,0.0169
782.00,0.0171
781.00,0.0173
780.00,0.0174
779.00,0.0175
778.00,0.0177
777.00,0.0178
776.00,0.0179
775.00,0.0181
774.00,0.0182
773.00,0.0183
772.00,0.0184
771.00,0.0185
770.00,0.0186
769.00,0.0187
768.00,0.0187
767.00,0.0188
766.00,0.0188
765.00,0.0188
764.00,0.0189
763.00,0.0189
762.00,0.0190
761.00,0.0190
760.00,0.0191
759.00,0.0191
758.00,0.0192
757.00,0.0193
756.00,0.0194
755.00,0.0195
754.00,0.0196
753.00,0.0197
752.00,0.0198
751.00,0.0199
750.00,0.0200
749.00,0.0201
748.00,0.0202
747.00,0.0203
746.00,0.0204
745.00,0.0204
744.00,0.0205
743.00,0.0206
742.00,0.0206
741.00,0.0207
740.00,0.0207
739.00,0.0208
738.00,0.0209
737.00,0.0210
736.00,0.0211
735.00,0.0213
734.00,0.0215
733.00,0.0216
732.00,0.0218
731.00,0.0220
730.00,0.0222
729.00,0.0225
728.00,0.0228
727.00,0.0231
726.00,0.0234
725.00,0.0237
724.00,0.0240
723.00,0.0243
722.00,0.0246
721.00,0.0250
720.00,0.0253
719.00,0.0257
718.00,0.0261
717.00,0.0265
716.00,0.0268
715.00,0.0272
714.00,0.0276
713.00,0.0279
712.00,0.0282
711.00,0.0285
710.00,0.0289
709.00,0.0292
708.00,0.0295
707.00,0.0298
706.00,0.0301
705.00,0.0304
704.00,0.0307
703.00,0.0309
702.00,0.0312
701.00,0.0314
700.00,0.0315
699.00,0.0316
698.00,0.0316
697.00,0.0316
696.00,0.0316
695.00,0.0316
694.00,0.0316
693.00,0.0316
692.00,0.0316
691.00,0.0316
690.00,0.0317
689.00,0.0317
688.00,0.0318
687.00,0.0318
686.00,0.0319
685.00,0.0319
684.00,0.0320
683.00,0.0320
682.00,0.0320
681.00,0.0320
680.00,0.0320
679.00,0.0320
678.00,0.0320
677.00,0.0320
676.00,0.0321
675.00,0.0322
674.00,0.0322
673.00,0.0322
672.00,0.0321
671.00,0.0320
670.00,0.0319
669.00,0.0318
668.00,0.0320
667.00,0.0322
666.00,0.0323
665.00,0.0324
664.00,0.0324
663.00,0.0325
662.00,0.0326
661.00,0.0326
660.00,0.0327
659.00,0.0327
658.00,0.0328
657.00,0.0329
656.00,0.0329
655.00,0.0330
654.00,0.0330
653.00,0.0331
652.00,0.0332
651.00,0.0333
650.00,0.0333
649.00,0.0334
648.00,0.0335
647.00,0.0337
646.00,0.0338
645.00,0.0339
644.00,0.0341
643.00,0.0342
642.00,0.0343
641.00,0.0344
640.00,0.0345
639.00,0.0347
638.00,0.0348
637.00,0.0349
636.00,0.0350
635.00,0.0351
634.00,0.0352
633.00,0.0353
632.00,0.0355
631.00,0.0356
630.00,0.0357
629.00,0.0358
628.00,0.0358
627.00,0.0359
626.00,0.0359
625.00,0.0359
624.00,0.0359
623.00,0.0359
622.00,0.0359
621.00,0.0358
620.00,0.0358
619.00,0.0358
618.00,0.0357
617.00,0.0357
616.00,0.0356
615.00,0.0355
614.00,0.0354
613.00,0.0352
612.00,0.0351
611.00,0.0350
610.00,0.0349
609.00,0.0348
608.00,0.0348
607.00,0.0348
606.00,0.0347
605.00,0.0347
604.00,0.0347
603.00,0.0346
602.00,0.0346
601.00,0.0346
600.00,0.0346
599.00,0.0346
598.00,0.0345
597.00,0.0345
596.00,0.0345
595.00,0.0346
594.00,0.0346
593.00,0.0346
592.00,0.0346
591.00,0.0345
590.00,0.0345
589.00,0.0345
588.00,0.0345
587.00,0.0346
586.00,0.0346
585.00,0.0346
584.00,0.0347
583.00,0.0347
582.00,0.0347
581.00,0.0347
580.00,0.0348
579.00,0.0348
578.00,0.0348
577.00,0.0349
576.00,0.0349
575.00,0.0350
574.00,0.0350
573.00,0.0350
572.00,0.0351
571.00,0.0352
570.00,0.0352
569.00,0.0352
568.00,0.0353
567.00,0.0353
566.00,0.0353
565.00,0.0354
564.00,0.0355
563.00,0.0355
562.00,0.0355
561.00,0.0355
560.00,0.0356
559.00,0.0357
558.00,0.0357
557.00,0.0357
556.00,0.0358
555.00,0.0358
554.00,0.0357
553.00,0.0357
552.00,0.0357
551.00,0.0357
550.00,0.0357
549.00,0.0357
548.00,0.0358
547.00,0.0359
546.00,0.0359
545.00,0.0360
544.00,0.0360
543.00,0.0360
542.00,0.0359
541.00,0.0359
540.00,0.0359
539.00,0.0359
538.00,0.0359
537.00,0.0359
536.00,0.0360
535.00,0.0360
534.00,0.0361
533.00,0.0361
532.00,0.0361
531.00,0.0361
530.00,0.0362
529.00,0.0362
528.00,0.0363
527.00,0.0363
526.00,0.0363
525.00,0.0364
524.00,0.0365
523.00,0.0365
522.00,0.0366
521.00,0.0366
520.00,0.0366
519.00,0.0367
518.00,0.0368
517.00,0.0367
516.00,0.0367
515.00,0.0366
514.00,0.0365
513.00,0.0364
512.00,0.0364
511.00,0.0363
510.00,0.0364
509.00,0.0364
508.00,0.0364
507.00,0.0364
506.00,0.0364
505.00,0.0364
504.00,0.0364
503.00,0.0364
502.00,0.0364
501.00,0.0364
500.00,0.0363
499.00,0.0362
498.00,0.0361
497.00,0.0361
496.00,0.0361
495.00,0.0362
494.00,0.0363
493.00,0.0363
492.00,0.0364
491.00,0.0364
490.00,0.0363
489.00,0.0363
488.00,0.0363
487.00,0.0364
486.00,0.0364
485.00,0.0363
484.00,0.0361
483.00,0.0360
482.00,0.0359
481.00,0.0358
480.00,0.0358
479.00,0.0358
478.00,0.0359
477.00,0.0358
476.00,0.0358
475.00,0.0358
474.00,0.0358
473.00,0.0357
472.00,0.0357
471.00,0.0357
470.00,0.0358
469.00,0.0360
468.00,0.0362
467.00,0.0362
466.00,0.0362
465.00,0.0360
464.00,0.0359
463.00,0.0358
462.00,0.0359
461.00,0.0360
460.00,0.0361
459.00,0.0362
458.00,0.0362
457.00,0.0361
456.00,0.0361
455.00,0.0360
454.00,0.0359
453.00,0.0358
452.00,0.0359
451.00,0.0360
450.00,0.0360
449.00,0.0359
448.00,0.0358
447.00,0.0357
446.00,0.0356
445.00,0.0355
444.00,0.0354
443.00,0.0352
442.00,0.0350
441.00,0.0347
440.00,0.0345
439.00,0.0342
438.00,0.0339
437.00,0.0336
436.00,0.0335
435.00,0.0335
434.00,0.0334
433.00,0.0332
432.00,0.0330
431.00,0.0327
430.00,0.0325
429.00,0.0323
428.00,0.0322
427.00,0.0321
426.00,0.0321
425.00,0.0321
424.00,0.0321
423.00,0.0319
422.00,0.0316
421.00,0.0314
420.00,0.0313
419.00,0.0312
418.00,0.0309
417.00,0.0305
416.00,0.0304
415.00,0.0303
414.00,0.0302
413.00,0.0302
412.00,0.0301
411.00,0.0299
410.00,0.0296
409.00,0.0292
408.00,0.0289
407.00,0.0290
406.00,0.0291
405.00,0.0291
404.00,0.0290
403.00,0.0288
402.00,0.0287
401.00,0.0292
400.00,0.0295
