Created as New Dataset,Sample 311 By YargerLab Date Sunday, August 18 2024
cm-1,A
4000.00,0.0070
3999.00,0.0070
3998.00,0.0070
3997.00,0.0070
3996.00,0.0071
3995.00,0.0071
3994.00,0.0070
3993.00,0.0070
3992.00,0.0070
3991.00,0.0070
3990.00,0.0070
3989.00,0.0070
3988.00,0.0071
3987.00,0.0071
3986.00,0.0070
3985.00,0.0070
3984.00,0.0070
3983.00,0.0070
3982.00,0.0070
3981.00,0.0070
3980.00,0.0070
3979.00,0.0070
3978.00,0.0070
3977.00,0.0070
3976.00,0.0070
3975.00,0.0070
3974.00,0.0070
3973.00,0.0070
3972.00,0.0070
3971.00,0.0070
3970.00,0.0070
3969.00,0.0070
3968.00,0.0070
3967.00,0.0070
3966.00,0.0070
3965.00,0.0070
3964.00,0.0070
3963.00,0.0070
3962.00,0.0070
3961.00,0.0070
3960.00,0.0070
3959.00,0.0070
3958.00,0.0070
3957.00,0.0070
3956.00,0.0070
3955.00,0.0070
3954.00,0.0070
3953.00,0.0070
3952.00,0.0070
3951.00,0.0070
3950.00,0.0070
3949.00,0.0070
3948.00,0.0070
3947.00,0.0070
3946.00,0.0070
3945.00,0.0070
3944.00,0.0070
3943.00,0.0070
3942.00,0.0070
3941.00,0.0070
3940.00,0.0070
3939.00,0.0070
3938.00,0.0070
3937.00,0.0070
3936.00,0.0070
3935.00,0.0070
3934.00,0.0070
3933.00,0.0070
3932.00,0.0070
3931.00,0.0070
3930.00,0.0069
3929.00,0.0069
3928.00,0.0069
3927.00,0.0069
3926.00,0.0069
3925.00,0.0069
3924.00,0.0070
3923.00,0.0070
3922.00,0.0070
3921.00,0.0070
3920.00,0.0070
3919.00,0.0070
3918.00,0.0070
3917.00,0.0070
3916.00,0.0070
3915.00,0.0070
3914.00,0.0069
3913.00,0.0069
3912.00,0.0069
3911.00,0.0069
3910.00,0.0069
3909.00,0.0069
3908.00,0.0069
3907.00,0.0069
3906.00,0.0069
3905.00,0.0069
3904.00,0.0070
3903.00,0.0070
3902.00,0.0070
3901.00,0.0070
3900.00,0.0069
3899.00,0.0069
3898.00,0.0069
3897.00,0.0069
3896.00,0.0069
3895.00,0.0069
3894.00,0.0069
3893.00,0.0069
3892.00,0.0069
3891.00,0.0069
3890.00,0.0069
3889.00,0.0069
3888.00,0.0069
3887.00,0.0069
3886.00,0.0069
3885.00,0.0069
3884.00,0.0069
3883.00,0.0069
3882.00,0.0069
3881.00,0.0069
3880.00,0.0069
3879.00,0.0069
3878.00,0.0069
3877.00,0.0068
3876.00,0.0068
3875.00,0.0068
3874.00,0.0068
3873.00,0.0069
3872.00,0.0069
3871.00,0.0069
3870.00,0.0069
3869.00,0.0069
3868.00,0.0069
3867.00,0.0069
3866.00,0.0068
3865.00,0.0068
3864.00,0.0068
3863.00,0.0068
3862.00,0.0068
3861.00,0.0068
3860.00,0.0068
3859.00,0.0068
3858.00,0.0068
3857.00,0.0068
3856.00,0.0068
3855.00,0.0068
3854.00,0.0068
3853.00,0.0068
3852.00,0.0068
3851.00,0.0068
3850.00,0.0068
3849.00,0.0068
3848.00,0.0068
3847.00,0.0068
3846.00,0.0068
3845.00,0.0068
3844.00,0.0068
3843.00,0.0068
3842.00,0.0068
3841.00,0.0068
3840.00,0.0068
3839.00,0.0068
3838.00,0.0068
3837.00,0.0068
3836.00,0.0068
3835.00,0.0067
3834.00,0.0067
3833.00,0.0067
3832.00,0.0067
3831.00,0.0067
3830.00,0.0067
3829.00,0.0067
3828.00,0.0067
3827.00,0.0067
3826.00,0.0067
3825.00,0.0067
3824.00,0.0067
3823.00,0.0067
3822.00,0.0067
3821.00,0.0067
3820.00,0.0067
3819.00,0.0067
3818.00,0.0067
3817.00,0.0066
3816.00,0.0066
3815.00,0.0066
3814.00,0.0067
3813.00,0.0067
3812.00,0.0067
3811.00,0.0067
3810.00,0.0067
3809.00,0.0067
3808.00,0.0067
3807.00,0.0067
3806.00,0.0067
3805.00,0.0067
3804.00,0.0067
3803.00,0.0066
3802.00,0.0066
3801.00,0.0066
3800.00,0.0066
3799.00,0.0066
3798.00,0.0066
3797.00,0.0066
3796.00,0.0066
3795.00,0.0066
3794.00,0.0066
3793.00,0.0066
3792.00,0.0066
3791.00,0.0066
3790.00,0.0066
3789.00,0.0066
3788.00,0.0066
3787.00,0.0066
3786.00,0.0066
3785.00,0.0066
3784.00,0.0066
3783.00,0.0066
3782.00,0.0066
3781.00,0.0066
3780.00,0.0065
3779.00,0.0065
3778.00,0.0066
3777.00,0.0066
3776.00,0.0066
3775.00,0.0066
3774.00,0.0066
3773.00,0.0066
3772.00,0.0066
3771.00,0.0066
3770.00,0.0066
3769.00,0.0066
3768.00,0.0066
3767.00,0.0066
3766.00,0.0065
3765.00,0.0066
3764.00,0.0066
3763.00,0.0066
3762.00,0.0066
3761.00,0.0065
3760.00,0.0065
3759.00,0.0065
3758.00,0.0065
3757.00,0.0065
3756.00,0.0065
3755.00,0.0066
3754.00,0.0066
3753.00,0.0066
3752.00,0.0066
3751.00,0.0066
3750.00,0.0066
3749.00,0.0066
3748.00,0.0066
3747.00,0.0066
3746.00,0.0066
3745.00,0.0066
3744.00,0.0065
3743.00,0.0065
3742.00,0.0065
3741.00,0.0065
3740.00,0.0065
3739.00,0.0065
3738.00,0.0065
3737.00,0.0065
3736.00,0.0065
3735.00,0.0065
3734.00,0.0065
3733.00,0.0065
3732.00,0.0064
3731.00,0.0064
3730.00,0.0065
3729.00,0.0065
3728.00,0.0065
3727.00,0.0065
3726.00,0.0065
3725.00,0.0065
3724.00,0.0065
3723.00,0.0064
3722.00,0.0064
3721.00,0.0064
3720.00,0.0064
3719.00,0.0063
3718.00,0.0063
3717.00,0.0063
3716.00,0.0063
3715.00,0.0063
3714.00,0.0063
3713.00,0.0063
3712.00,0.0063
3711.00,0.0063
3710.00,0.0063
3709.00,0.0063
3708.00,0.0063
3707.00,0.0063
3706.00,0.0063
3705.00,0.0063
3704.00,0.0062
3703.00,0.0062
3702.00,0.0062
3701.00,0.0062
3700.00,0.0062
3699.00,0.0062
3698.00,0.0062
3697.00,0.0062
3696.00,0.0062
3695.00,0.0062
3694.00,0.0062
3693.00,0.0062
3692.00,0.0062
3691.00,0.0061
3690.00,0.0061
3689.00,0.0062
3688.00,0.0062
3687.00,0.0062
3686.00,0.0062
3685.00,0.0062
3684.00,0.0062
3683.00,0.0062
3682.00,0.0062
3681.00,0.0062
3680.00,0.0062
3679.00,0.0062
3678.00,0.0062
3677.00,0.0062
3676.00,0.0062
3675.00,0.0062
3674.00,0.0062
3673.00,0.0062
3672.00,0.0062
3671.00,0.0062
3670.00,0.0062
3669.00,0.0062
3668.00,0.0062
3667.00,0.0062
3666.00,0.0062
3665.00,0.0062
3664.00,0.0063
3663.00,0.0063
3662.00,0.0063
3661.00,0.0063
3660.00,0.0063
3659.00,0.0063
3658.00,0.0063
3657.00,0.0063
3656.00,0.0063
3655.00,0.0063
3654.00,0.0063
3653.00,0.0063
3652.00,0.0063
3651.00,0.0063
3650.00,0.0064
3649.00,0.0064
3648.00,0.0064
3647.00,0.0064
3646.00,0.0064
3645.00,0.0064
3644.00,0.0064
3643.00,0.0064
3642.00,0.0064
3641.00,0.0065
3640.00,0.0065
3639.00,0.0065
3638.00,0.0065
3637.00,0.0065
3636.00,0.0065
3635.00,0.0066
3634.00,0.0066
3633.00,0.0066
3632.00,0.0066
3631.00,0.0066
3630.00,0.0067
3629.00,0.0067
3628.00,0.0067
3627.00,0.0067
3626.00,0.0067
3625.00,0.0067
3624.00,0.0067
3623.00,0.0067
3622.00,0.0067
3621.00,0.0067
3620.00,0.0067
3619.00,0.0068
3618.00,0.0068
3617.00,0.0069
3616.00,0.0069
3615.00,0.0069
3614.00,0.0069
3613.00,0.0070
3612.00,0.0070
3611.00,0.0071
3610.00,0.0071
3609.00,0.0071
3608.00,0.0071
3607.00,0.0071
3606.00,0.0071
3605.00,0.0071
3604.00,0.0071
3603.00,0.0071
3602.00,0.0071
3601.00,0.0071
3600.00,0.0071
3599.00,0.0072
3598.00,0.0072
3597.00,0.0072
3596.00,0.0072
3595.00,0.0072
3594.00,0.0073
3593.00,0.0073
3592.00,0.0074
3591.00,0.0074
3590.00,0.0074
3589.00,0.0074
3588.00,0.0074
3587.00,0.0075
3586.00,0.0075
3585.00,0.0075
3584.00,0.0075
3583.00,0.0075
3582.00,0.0075
3581.00,0.0076
3580.00,0.0076
3579.00,0.0076
3578.00,0.0076
3577.00,0.0077
3576.00,0.0077
3575.00,0.0077
3574.00,0.0078
3573.00,0.0078
3572.00,0.0078
3571.00,0.0079
3570.00,0.0079
3569.00,0.0079
3568.00,0.0080
3567.00,0.0080
3566.00,0.0080
3565.00,0.0080
3564.00,0.0081
3563.00,0.0081
3562.00,0.0081
3561.00,0.0081
3560.00,0.0081
3559.00,0.0082
3558.00,0.0082
3557.00,0.0082
3556.00,0.0083
3555.00,0.0083
3554.00,0.0083
3553.00,0.0084
3552.00,0.0084
3551.00,0.0084
3550.00,0.0085
3549.00,0.0086
3548.00,0.0086
3547.00,0.0087
3546.00,0.0087
3545.00,0.0087
3544.00,0.0087
3543.00,0.0087
3542.00,0.0087
3541.00,0.0087
3540.00,0.0088
3539.00,0.0088
3538.00,0.0089
3537.00,0.0089
3536.00,0.0089
3535.00,0.0090
3534.00,0.0090
3533.00,0.0090
3532.00,0.0090
3531.00,0.0090
3530.00,0.0091
3529.00,0.0091
3528.00,0.0092
3527.00,0.0092
3526.00,0.0093
3525.00,0.0093
3524.00,0.0093
3523.00,0.0094
3522.00,0.0094
3521.00,0.0094
3520.00,0.0094
3519.00,0.0094
3518.00,0.0094
3517.00,0.0095
3516.00,0.0095
3515.00,0.0095
3514.00,0.0096
3513.00,0.0096
3512.00,0.0096
3511.00,0.0096
3510.00,0.0097
3509.00,0.0097
3508.00,0.0097
3507.00,0.0098
3506.00,0.0098
3505.00,0.0099
3504.00,0.0099
3503.00,0.0099
3502.00,0.0100
3501.00,0.0100
3500.00,0.0100
3499.00,0.0101
3498.00,0.0101
3497.00,0.0101
3496.00,0.0101
3495.00,0.0102
3494.00,0.0102
3493.00,0.0102
3492.00,0.0102
3491.00,0.0103
3490.00,0.0103
3489.00,0.0103
3488.00,0.0104
3487.00,0.0104
3486.00,0.0105
3485.00,0.0105
3484.00,0.0105
3483.00,0.0106
3482.00,0.0106
3481.00,0.0106
3480.00,0.0107
3479.00,0.0107
3478.00,0.0107
3477.00,0.0107
3476.00,0.0108
3475.00,0.0108
3474.00,0.0108
3473.00,0.0109
3472.00,0.0109
3471.00,0.0110
3470.00,0.0110
3469.00,0.0111
3468.00,0.0111
3467.00,0.0111
3466.00,0.0111
3465.00,0.0112
3464.00,0.0112
3463.00,0.0112
3462.00,0.0113
3461.00,0.0113
3460.00,0.0113
3459.00,0.0114
3458.00,0.0114
3457.00,0.0114
3456.00,0.0114
3455.00,0.0114
3454.00,0.0115
3453.00,0.0115
3452.00,0.0115
3451.00,0.0116
3450.00,0.0116
3449.00,0.0117
3448.00,0.0117
3447.00,0.0117
3446.00,0.0118
3445.00,0.0118
3444.00,0.0118
3443.00,0.0119
3442.00,0.0119
3441.00,0.0119
3440.00,0.0120
3439.00,0.0120
3438.00,0.0121
3437.00,0.0121
3436.00,0.0121
3435.00,0.0121
3434.00,0.0122
3433.00,0.0122
3432.00,0.0122
3431.00,0.0123
3430.00,0.0123
3429.00,0.0123
3428.00,0.0124
3427.00,0.0124
3426.00,0.0124
3425.00,0.0125
3424.00,0.0125
3423.00,0.0125
3422.00,0.0126
3421.00,0.0126
3420.00,0.0126
3419.00,0.0126
3418.00,0.0127
3417.00,0.0127
3416.00,0.0128
3415.00,0.0128
3414.00,0.0128
3413.00,0.0129
3412.00,0.0129
3411.00,0.0129
3410.00,0.0130
3409.00,0.0130
3408.00,0.0130
3407.00,0.0130
3406.00,0.0131
3405.00,0.0131
3404.00,0.0131
3403.00,0.0132
3402.00,0.0132
3401.00,0.0133
3400.00,0.0133
3399.00,0.0133
3398.00,0.0133
3397.00,0.0133
3396.00,0.0134
3395.00,0.0134
3394.00,0.0134
3393.00,0.0135
3392.00,0.0135
3391.00,0.0135
3390.00,0.0135
3389.00,0.0136
3388.00,0.0136
3387.00,0.0136
3386.00,0.0137
3385.00,0.0137
3384.00,0.0137
3383.00,0.0138
3382.00,0.0138
3381.00,0.0138
3380.00,0.0139
3379.00,0.0139
3378.00,0.0139
3377.00,0.0140
3376.00,0.0140
3375.00,0.0140
3374.00,0.0141
3373.00,0.0141
3372.00,0.0141
3371.00,0.0142
3370.00,0.0142
3369.00,0.0143
3368.00,0.0143
3367.00,0.0143
3366.00,0.0144
3365.00,0.0144
3364.00,0.0144
3363.00,0.0145
3362.00,0.0145
3361.00,0.0146
3360.00,0.0146
3359.00,0.0147
3358.00,0.0147
3357.00,0.0148
3356.00,0.0148
3355.00,0.0149
3354.00,0.0149
3353.00,0.0150
3352.00,0.0151
3351.00,0.0151
3350.00,0.0152
3349.00,0.0152
3348.00,0.0153
3347.00,0.0153
3346.00,0.0153
3345.00,0.0154
3344.00,0.0155
3343.00,0.0155
3342.00,0.0156
3341.00,0.0157
3340.00,0.0157
3339.00,0.0158
3338.00,0.0159
3337.00,0.0159
3336.00,0.0160
3335.00,0.0161
3334.00,0.0161
3333.00,0.0162
3332.00,0.0163
3331.00,0.0164
3330.00,0.0165
3329.00,0.0165
3328.00,0.0166
3327.00,0.0167
3326.00,0.0168
3325.00,0.0169
3324.00,0.0170
3323.00,0.0171
3322.00,0.0171
3321.00,0.0172
3320.00,0.0173
3319.00,0.0174
3318.00,0.0176
3317.00,0.0177
3316.00,0.0178
3315.00,0.0179
3314.00,0.0180
3313.00,0.0181
3312.00,0.0182
3311.00,0.0184
3310.00,0.0185
3309.00,0.0186
3308.00,0.0187
3307.00,0.0188
3306.00,0.0189
3305.00,0.0191
3304.00,0.0192
3303.00,0.0193
3302.00,0.0195
3301.00,0.0196
3300.00,0.0197
3299.00,0.0199
3298.00,0.0200
3297.00,0.0201
3296.00,0.0202
3295.00,0.0204
3294.00,0.0205
3293.00,0.0207
3292.00,0.0208
3291.00,0.0209
3290.00,0.0210
3289.00,0.0212
3288.00,0.0213
3287.00,0.0214
3286.00,0.0215
3285.00,0.0216
3284.00,0.0217
3283.00,0.0218
3282.00,0.0219
3281.00,0.0220
3280.00,0.0220
3279.00,0.0221
3278.00,0.0221
3277.00,0.0222
3276.00,0.0222
3275.00,0.0223
3274.00,0.0223
3273.00,0.0223
3272.00,0.0223
3271.00,0.0223
3270.00,0.0223
3269.00,0.0223
3268.00,0.0222
3267.00,0.0222
3266.00,0.0221
3265.00,0.0220
3264.00,0.0220
3263.00,0.0219
3262.00,0.0218
3261.00,0.0217
3260.00,0.0216
3259.00,0.0215
3258.00,0.0214
3257.00,0.0213
3256.00,0.0212
3255.00,0.0211
3254.00,0.0210
3253.00,0.0209
3252.00,0.0208
3251.00,0.0207
3250.00,0.0206
3249.00,0.0205
3248.00,0.0204
3247.00,0.0203
3246.00,0.0201
3245.00,0.0200
3244.00,0.0199
3243.00,0.0198
3242.00,0.0197
3241.00,0.0196
3240.00,0.0195
3239.00,0.0194
3238.00,0.0194
3237.00,0.0193
3236.00,0.0192
3235.00,0.0191
3234.00,0.0190
3233.00,0.0189
3232.00,0.0188
3231.00,0.0188
3230.00,0.0187
3229.00,0.0186
3228.00,0.0186
3227.00,0.0185
3226.00,0.0184
3225.00,0.0184
3224.00,0.0183
3223.00,0.0182
3222.00,0.0182
3221.00,0.0181
3220.00,0.0181
3219.00,0.0180
3218.00,0.0180
3217.00,0.0179
3216.00,0.0179
3215.00,0.0178
3214.00,0.0177
3213.00,0.0177
3212.00,0.0176
3211.00,0.0176
3210.00,0.0175
3209.00,0.0175
3208.00,0.0174
3207.00,0.0174
3206.00,0.0173
3205.00,0.0173
3204.00,0.0172
3203.00,0.0172
3202.00,0.0171
3201.00,0.0171
3200.00,0.0170
3199.00,0.0169
3198.00,0.0169
3197.00,0.0168
3196.00,0.0168
3195.00,0.0168
3194.00,0.0167
3193.00,0.0167
3192.00,0.0166
3191.00,0.0166
3190.00,0.0165
3189.00,0.0165
3188.00,0.0164
3187.00,0.0164
3186.00,0.0163
3185.00,0.0163
3184.00,0.0162
3183.00,0.0162
3182.00,0.0161
3181.00,0.0161
3180.00,0.0160
3179.00,0.0159
3178.00,0.0159
3177.00,0.0158
3176.00,0.0157
3175.00,0.0157
3174.00,0.0156
3173.00,0.0156
3172.00,0.0155
3171.00,0.0155
3170.00,0.0154
3169.00,0.0154
3168.00,0.0153
3167.00,0.0153
3166.00,0.0152
3165.00,0.0152
3164.00,0.0151
3163.00,0.0150
3162.00,0.0150
3161.00,0.0149
3160.00,0.0149
3159.00,0.0148
3158.00,0.0148
3157.00,0.0148
3156.00,0.0147
3155.00,0.0147
3154.00,0.0146
3153.00,0.0146
3152.00,0.0145
3151.00,0.0145
3150.00,0.0144
3149.00,0.0144
3148.00,0.0143
3147.00,0.0142
3146.00,0.0142
3145.00,0.0142
3144.00,0.0141
3143.00,0.0141
3142.00,0.0141
3141.00,0.0140
3140.00,0.0140
3139.00,0.0139
3138.00,0.0139
3137.00,0.0138
3136.00,0.0138
3135.00,0.0138
3134.00,0.0137
3133.00,0.0137
3132.00,0.0136
3131.00,0.0136
3130.00,0.0136
3129.00,0.0136
3128.00,0.0135
3127.00,0.0135
3126.00,0.0135
3125.00,0.0134
3124.00,0.0134
3123.00,0.0134
3122.00,0.0134
3121.00,0.0133
3120.00,0.0133
3119.00,0.0133
3118.00,0.0133
3117.00,0.0133
3116.00,0.0133
3115.00,0.0132
3114.00,0.0132
3113.00,0.0132
3112.00,0.0132
3111.00,0.0132
3110.00,0.0132
3109.00,0.0132
3108.00,0.0131
3107.00,0.0131
3106.00,0.0131
3105.00,0.0131
3104.00,0.0131
3103.00,0.0131
3102.00,0.0131
3101.00,0.0131
3100.00,0.0131
3099.00,0.0131
3098.00,0.0131
3097.00,0.0131
3096.00,0.0131
3095.00,0.0131
3094.00,0.0132
3093.00,0.0132
3092.00,0.0132
3091.00,0.0132
3090.00,0.0132
3089.00,0.0132
3088.00,0.0132
3087.00,0.0132
3086.00,0.0132
3085.00,0.0132
3084.00,0.0132
3083.00,0.0132
3082.00,0.0132
3081.00,0.0132
3080.00,0.0132
3079.00,0.0132
3078.00,0.0132
3077.00,0.0132
3076.00,0.0132
3075.00,0.0132
3074.00,0.0132
3073.00,0.0132
3072.00,0.0132
3071.00,0.0132
3070.00,0.0132
3069.00,0.0132
3068.00,0.0132
3067.00,0.0132
3066.00,0.0132
3065.00,0.0132
3064.00,0.0132
3063.00,0.0131
3062.00,0.0131
3061.00,0.0131
3060.00,0.0131
3059.00,0.0130
3058.00,0.0130
3057.00,0.0130
3056.00,0.0130
3055.00,0.0129
3054.00,0.0129
3053.00,0.0129
3052.00,0.0129
3051.00,0.0128
3050.00,0.0128
3049.00,0.0128
3048.00,0.0127
3047.00,0.0127
3046.00,0.0127
3045.00,0.0126
3044.00,0.0126
3043.00,0.0125
3042.00,0.0125
3041.00,0.0125
3040.00,0.0124
3039.00,0.0124
3038.00,0.0124
3037.00,0.0124
3036.00,0.0123
3035.00,0.0123
3034.00,0.0123
3033.00,0.0122
3032.00,0.0122
3031.00,0.0122
3030.00,0.0122
3029.00,0.0121
3028.00,0.0121
3027.00,0.0121
3026.00,0.0120
3025.00,0.0120
3024.00,0.0120
3023.00,0.0119
3022.00,0.0119
3021.00,0.0118
3020.00,0.0118
3019.00,0.0118
3018.00,0.0117
3017.00,0.0117
3016.00,0.0117
3015.00,0.0116
3014.00,0.0116
3013.00,0.0116
3012.00,0.0116
3011.00,0.0116
3010.00,0.0115
3009.00,0.0115
3008.00,0.0115
3007.00,0.0115
3006.00,0.0115
3005.00,0.0115
3004.00,0.0115
3003.00,0.0115
3002.00,0.0114
3001.00,0.0114
3000.00,0.0114
2999.00,0.0114
2998.00,0.0114
2997.00,0.0114
2996.00,0.0115
2995.00,0.0115
2994.00,0.0115
2993.00,0.0115
2992.00,0.0115
2991.00,0.0116
2990.00,0.0116
2989.00,0.0116
2988.00,0.0117
2987.00,0.0117
2986.00,0.0117
2985.00,0.0118
2984.00,0.0118
2983.00,0.0118
2982.00,0.0119
2981.00,0.0119
2980.00,0.0119
2979.00,0.0119
2978.00,0.0120
2977.00,0.0120
2976.00,0.0120
2975.00,0.0121
2974.00,0.0121
2973.00,0.0121
2972.00,0.0121
2971.00,0.0121
2970.00,0.0121
2969.00,0.0121
2968.00,0.0121
2967.00,0.0121
2966.00,0.0121
2965.00,0.0121
2964.00,0.0121
2963.00,0.0121
2962.00,0.0120
2961.00,0.0120
2960.00,0.0120
2959.00,0.0120
2958.00,0.0120
2957.00,0.0119
2956.00,0.0119
2955.00,0.0119
2954.00,0.0119
2953.00,0.0119
2952.00,0.0119
2951.00,0.0119
2950.00,0.0119
2949.00,0.0119
2948.00,0.0119
2947.00,0.0119
2946.00,0.0119
2945.00,0.0119
2944.00,0.0120
2943.00,0.0120
2942.00,0.0120
2941.00,0.0120
2940.00,0.0120
2939.00,0.0120
2938.00,0.0120
2937.00,0.0120
2936.00,0.0120
2935.00,0.0120
2934.00,0.0119
2933.00,0.0119
2932.00,0.0118
2931.00,0.0118
2930.00,0.0117
2929.00,0.0116
2928.00,0.0115
2927.00,0.0114
2926.00,0.0113
2925.00,0.0112
2924.00,0.0110
2923.00,0.0109
2922.00,0.0107
2921.00,0.0105
2920.00,0.0103
2919.00,0.0102
2918.00,0.0101
2917.00,0.0100
2916.00,0.0100
2915.00,0.0100
2914.00,0.0102
2913.00,0.0104
2912.00,0.0105
2911.00,0.0107
2910.00,0.0108
2909.00,0.0108
2908.00,0.0109
2907.00,0.0109
2906.00,0.0109
2905.00,0.0109
2904.00,0.0109
2903.00,0.0110
2902.00,0.0110
2901.00,0.0110
2900.00,0.0110
2899.00,0.0110
2898.00,0.0110
2897.00,0.0110
2896.00,0.0110
2895.00,0.0110
2894.00,0.0110
2893.00,0.0110
2892.00,0.0110
2891.00,0.0110
2890.00,0.0110
2889.00,0.0110
2888.00,0.0111
2887.00,0.0111
2886.00,0.0111
2885.00,0.0111
2884.00,0.0112
2883.00,0.0112
2882.00,0.0112
2881.00,0.0112
2880.00,0.0113
2879.00,0.0113
2878.00,0.0113
2877.00,0.0113
2876.00,0.0113
2875.00,0.0113
2874.00,0.0113
2873.00,0.0113
2872.00,0.0113
2871.00,0.0112
2870.00,0.0112
2869.00,0.0112
2868.00,0.0111
2867.00,0.0111
2866.00,0.0110
2865.00,0.0109
2864.00,0.0109
2863.00,0.0108
2862.00,0.0107
2861.00,0.0107
2860.00,0.0106
2859.00,0.0105
2858.00,0.0104
2857.00,0.0104
2856.00,0.0103
2855.00,0.0101
2854.00,0.0100
2853.00,0.0099
2852.00,0.0097
2851.00,0.0095
2850.00,0.0094
2849.00,0.0093
2848.00,0.0093
2847.00,0.0095
2846.00,0.0096
2845.00,0.0098
2844.00,0.0099
2843.00,0.0100
2842.00,0.0101
2841.00,0.0102
2840.00,0.0102
2839.00,0.0102
2838.00,0.0102
2837.00,0.0102
2836.00,0.0102
2835.00,0.0102
2834.00,0.0102
2833.00,0.0102
2832.00,0.0102
2831.00,0.0101
2830.00,0.0101
2829.00,0.0101
2828.00,0.0101
2827.00,0.0101
2826.00,0.0101
2825.00,0.0101
2824.00,0.0101
2823.00,0.0101
2822.00,0.0100
2821.00,0.0100
2820.00,0.0100
2819.00,0.0100
2818.00,0.0100
2817.00,0.0100
2816.00,0.0100
2815.00,0.0100
2814.00,0.0100
2813.00,0.0100
2812.00,0.0099
2811.00,0.0099
2810.00,0.0099
2809.00,0.0099
2808.00,0.0099
2807.00,0.0099
2806.00,0.0099
2805.00,0.0099
2804.00,0.0099
2803.00,0.0098
2802.00,0.0098
2801.00,0.0098
2800.00,0.0098
2799.00,0.0098
2798.00,0.0098
2797.00,0.0098
2796.00,0.0098
2795.00,0.0098
2794.00,0.0098
2793.00,0.0098
2792.00,0.0098
2791.00,0.0097
2790.00,0.0097
2789.00,0.0097
2788.00,0.0097
2787.00,0.0097
2786.00,0.0097
2785.00,0.0097
2784.00,0.0097
2783.00,0.0097
2782.00,0.0097
2781.00,0.0097
2780.00,0.0097
2779.00,0.0097
2778.00,0.0097
2777.00,0.0096
2776.00,0.0096
2775.00,0.0096
2774.00,0.0096
2773.00,0.0096
2772.00,0.0096
2771.00,0.0095
2770.00,0.0095
2769.00,0.0095
2768.00,0.0095
2767.00,0.0095
2766.00,0.0095
2765.00,0.0095
2764.00,0.0095
2763.00,0.0095
2762.00,0.0095
2761.00,0.0095
2760.00,0.0095
2759.00,0.0095
2758.00,0.0094
2757.00,0.0094
2756.00,0.0094
2755.00,0.0094
2754.00,0.0094
2753.00,0.0094
2752.00,0.0094
2751.00,0.0094
2750.00,0.0094
2749.00,0.0094
2748.00,0.0094
2747.00,0.0094
2746.00,0.0094
2745.00,0.0093
2744.00,0.0093
2743.00,0.0093
2742.00,0.0093
2741.00,0.0093
2740.00,0.0093
2739.00,0.0093
2738.00,0.0092
2737.00,0.0092
2736.00,0.0092
2735.00,0.0092
2734.00,0.0092
2733.00,0.0092
2732.00,0.0092
2731.00,0.0092
2730.00,0.0092
2729.00,0.0092
2728.00,0.0092
2727.00,0.0092
2726.00,0.0091
2725.00,0.0091
2724.00,0.0091
2723.00,0.0091
2722.00,0.0091
2721.00,0.0091
2720.00,0.0091
2719.00,0.0091
2718.00,0.0091
2717.00,0.0090
2716.00,0.0090
2715.00,0.0090
2714.00,0.0090
2713.00,0.0090
2712.00,0.0090
2711.00,0.0090
2710.00,0.0090
2709.00,0.0090
2708.00,0.0089
2707.00,0.0089
2706.00,0.0089
2705.00,0.0089
2704.00,0.0089
2703.00,0.0089
2702.00,0.0089
2701.00,0.0089
2700.00,0.0089
2699.00,0.0089
2698.00,0.0089
2697.00,0.0089
2696.00,0.0088
2695.00,0.0088
2694.00,0.0088
2693.00,0.0088
2692.00,0.0088
2691.00,0.0088
2690.00,0.0088
2689.00,0.0088
2688.00,0.0088
2687.00,0.0088
2686.00,0.0088
2685.00,0.0087
2684.00,0.0087
2683.00,0.0087
2682.00,0.0087
2681.00,0.0087
2680.00,0.0087
2679.00,0.0087
2678.00,0.0087
2677.00,0.0087
2676.00,0.0087
2675.00,0.0087
2674.00,0.0087
2673.00,0.0087
2672.00,0.0087
2671.00,0.0087
2670.00,0.0087
2669.00,0.0087
2668.00,0.0087
2667.00,0.0087
2666.00,0.0087
2665.00,0.0088
2664.00,0.0088
2663.00,0.0088
2662.00,0.0088
2661.00,0.0089
2660.00,0.0089
2659.00,0.0089
2658.00,0.0089
2657.00,0.0089
2656.00,0.0089
2655.00,0.0089
2654.00,0.0089
2653.00,0.0089
2652.00,0.0089
2651.00,0.0089
2650.00,0.0089
2649.00,0.0089
2648.00,0.0089
2647.00,0.0089
2646.00,0.0088
2645.00,0.0088
2644.00,0.0088
2643.00,0.0088
2642.00,0.0088
2641.00,0.0088
2640.00,0.0088
2639.00,0.0088
2638.00,0.0088
2637.00,0.0088
2636.00,0.0087
2635.00,0.0087
2634.00,0.0087
2633.00,0.0087
2632.00,0.0087
2631.00,0.0087
2630.00,0.0087
2629.00,0.0086
2628.00,0.0086
2627.00,0.0086
2626.00,0.0086
2625.00,0.0086
2624.00,0.0086
2623.00,0.0086
2622.00,0.0085
2621.00,0.0085
2620.00,0.0085
2619.00,0.0085
2618.00,0.0085
2617.00,0.0085
2616.00,0.0085
2615.00,0.0085
2614.00,0.0084
2613.00,0.0084
2612.00,0.0084
2611.00,0.0084
2610.00,0.0084
2609.00,0.0084
2608.00,0.0084
2607.00,0.0084
2606.00,0.0084
2605.00,0.0083
2604.00,0.0083
2603.00,0.0083
2602.00,0.0083
2601.00,0.0083
2600.00,0.0083
2599.00,0.0082
2598.00,0.0082
2597.00,0.0082
2596.00,0.0082
2595.00,0.0082
2594.00,0.0082
2593.00,0.0082
2592.00,0.0082
2591.00,0.0081
2590.00,0.0081
2589.00,0.0081
2588.00,0.0081
2587.00,0.0081
2586.00,0.0081
2585.00,0.0081
2584.00,0.0081
2583.00,0.0080
2582.00,0.0080
2581.00,0.0080
2580.00,0.0080
2579.00,0.0080
2578.00,0.0080
2577.00,0.0080
2576.00,0.0080
2575.00,0.0080
2574.00,0.0080
2573.00,0.0080
2572.00,0.0080
2571.00,0.0080
2570.00,0.0079
2569.00,0.0079
2568.00,0.0079
2567.00,0.0079
2566.00,0.0079
2565.00,0.0079
2564.00,0.0079
2563.00,0.0079
2562.00,0.0078
2561.00,0.0078
2560.00,0.0078
2559.00,0.0078
2558.00,0.0078
2557.00,0.0078
2556.00,0.0078
2555.00,0.0078
2554.00,0.0078
2553.00,0.0078
2552.00,0.0078
2551.00,0.0078
2550.00,0.0078
2549.00,0.0078
2548.00,0.0078
2547.00,0.0077
2546.00,0.0077
2545.00,0.0077
2544.00,0.0077
2543.00,0.0077
2542.00,0.0077
2541.00,0.0077
2540.00,0.0077
2539.00,0.0077
2538.00,0.0077
2537.00,0.0077
2536.00,0.0077
2535.00,0.0076
2534.00,0.0076
2533.00,0.0076
2532.00,0.0076
2531.00,0.0076
2530.00,0.0076
2529.00,0.0076
2528.00,0.0076
2527.00,0.0076
2526.00,0.0076
2525.00,0.0076
2524.00,0.0076
2523.00,0.0076
2522.00,0.0076
2521.00,0.0075
2520.00,0.0075
2519.00,0.0075
2518.00,0.0075
2517.00,0.0075
2516.00,0.0075
2515.00,0.0075
2514.00,0.0075
2513.00,0.0075
2512.00,0.0075
2511.00,0.0075
2510.00,0.0075
2509.00,0.0075
2508.00,0.0075
2507.00,0.0075
2506.00,0.0074
2505.00,0.0074
2504.00,0.0074
2503.00,0.0074
2502.00,0.0074
2501.00,0.0074
2500.00,0.0075
2499.00,0.0075
2498.00,0.0075
2497.00,0.0075
2496.00,0.0075
2495.00,0.0075
2494.00,0.0075
2493.00,0.0074
2492.00,0.0074
2491.00,0.0074
2490.00,0.0074
2489.00,0.0074
2488.00,0.0074
2487.00,0.0074
2486.00,0.0074
2485.00,0.0073
2484.00,0.0073
2483.00,0.0073
2482.00,0.0073
2481.00,0.0073
2480.00,0.0073
2479.00,0.0073
2478.00,0.0073
2477.00,0.0073
2476.00,0.0073
2475.00,0.0073
2474.00,0.0073
2473.00,0.0073
2472.00,0.0073
2471.00,0.0073
2470.00,0.0073
2469.00,0.0073
2468.00,0.0073
2467.00,0.0073
2466.00,0.0073
2465.00,0.0073
2464.00,0.0073
2463.00,0.0073
2462.00,0.0073
2461.00,0.0073
2460.00,0.0074
2459.00,0.0074
2458.00,0.0074
2457.00,0.0074
2456.00,0.0074
2455.00,0.0074
2454.00,0.0074
2453.00,0.0073
2452.00,0.0073
2451.00,0.0073
2450.00,0.0073
2449.00,0.0073
2448.00,0.0073
2447.00,0.0073
2446.00,0.0073
2445.00,0.0072
2444.00,0.0072
2443.00,0.0072
2442.00,0.0072
2441.00,0.0071
2440.00,0.0071
2439.00,0.0071
2438.00,0.0071
2437.00,0.0072
2436.00,0.0072
2435.00,0.0072
2434.00,0.0071
2433.00,0.0071
2432.00,0.0071
2431.00,0.0070
2430.00,0.0070
2429.00,0.0070
2428.00,0.0070
2427.00,0.0070
2426.00,0.0070
2425.00,0.0070
2424.00,0.0070
2423.00,0.0070
2422.00,0.0070
2421.00,0.0070
2420.00,0.0070
2419.00,0.0069
2418.00,0.0069
2417.00,0.0069
2416.00,0.0069
2415.00,0.0069
2414.00,0.0069
2413.00,0.0069
2412.00,0.0069
2411.00,0.0069
2410.00,0.0069
2409.00,0.0069
2408.00,0.0068
2407.00,0.0068
2406.00,0.0068
2405.00,0.0068
2404.00,0.0068
2403.00,0.0068
2402.00,0.0068
2401.00,0.0067
2400.00,0.0067
2399.00,0.0067
2398.00,0.0067
2397.00,0.0067
2396.00,0.0067
2395.00,0.0067
2394.00,0.0067
2393.00,0.0067
2392.00,0.0067
2391.00,0.0067
2390.00,0.0067
2389.00,0.0066
2388.00,0.0066
2387.00,0.0065
2386.00,0.0065
2385.00,0.0064
2384.00,0.0064
2383.00,0.0063
2382.00,0.0062
2381.00,0.0062
2380.00,0.0062
2379.00,0.0062
2378.00,0.0062
2377.00,0.0062
2376.00,0.0063
2375.00,0.0063
2374.00,0.0063
2373.00,0.0063
2372.00,0.0062
2371.00,0.0062
2370.00,0.0061
2369.00,0.0061
2368.00,0.0061
2367.00,0.0061
2366.00,0.0061
2365.00,0.0061
2364.00,0.0062
2363.00,0.0062
2362.00,0.0063
2361.00,0.0063
2360.00,0.0063
2359.00,0.0063
2358.00,0.0063
2357.00,0.0063
2356.00,0.0063
2355.00,0.0063
2354.00,0.0063
2353.00,0.0063
2352.00,0.0063
2351.00,0.0063
2350.00,0.0063
2349.00,0.0064
2348.00,0.0065
2347.00,0.0065
2346.00,0.0065
2345.00,0.0065
2344.00,0.0065
2343.00,0.0065
2342.00,0.0066
2341.00,0.0066
2340.00,0.0066
2339.00,0.0066
2338.00,0.0066
2337.00,0.0066
2336.00,0.0066
2335.00,0.0066
2334.00,0.0065
2333.00,0.0065
2332.00,0.0064
2331.00,0.0064
2330.00,0.0064
2329.00,0.0066
2328.00,0.0069
2327.00,0.0072
2326.00,0.0074
2325.00,0.0075
2324.00,0.0075
2323.00,0.0073
2322.00,0.0072
2321.00,0.0071
2320.00,0.0070
2319.00,0.0070
2318.00,0.0070
2317.00,0.0070
2316.00,0.0070
2315.00,0.0069
2314.00,0.0069
2313.00,0.0068
2312.00,0.0068
2311.00,0.0067
2310.00,0.0067
2309.00,0.0067
2308.00,0.0067
2307.00,0.0067
2306.00,0.0067
2305.00,0.0067
2304.00,0.0067
2303.00,0.0068
2302.00,0.0068
2301.00,0.0068
2300.00,0.0069
2299.00,0.0069
2298.00,0.0070
2297.00,0.0070
2296.00,0.0070
2295.00,0.0071
2294.00,0.0072
2293.00,0.0072
2292.00,0.0073
2291.00,0.0074
2290.00,0.0074
2289.00,0.0075
2288.00,0.0075
2287.00,0.0075
2286.00,0.0075
2285.00,0.0074
2284.00,0.0074
2283.00,0.0073
2282.00,0.0073
2281.00,0.0072
2280.00,0.0072
2279.00,0.0071
2278.00,0.0071
2277.00,0.0071
2276.00,0.0071
2275.00,0.0071
2274.00,0.0071
2273.00,0.0071
2272.00,0.0070
2271.00,0.0070
2270.00,0.0070
2269.00,0.0069
2268.00,0.0069
2267.00,0.0068
2266.00,0.0068
2265.00,0.0068
2264.00,0.0068
2263.00,0.0068
2262.00,0.0068
2261.00,0.0069
2260.00,0.0069
2259.00,0.0069
2258.00,0.0069
2257.00,0.0068
2256.00,0.0068
2255.00,0.0067
2254.00,0.0066
2253.00,0.0066
2252.00,0.0067
2251.00,0.0067
2250.00,0.0067
2249.00,0.0067
2248.00,0.0067
2247.00,0.0067
2246.00,0.0067
2245.00,0.0067
2244.00,0.0067
2243.00,0.0067
2242.00,0.0068
2241.00,0.0068
2240.00,0.0068
2239.00,0.0068
2238.00,0.0068
2237.00,0.0067
2236.00,0.0067
2235.00,0.0067
2234.00,0.0067
2233.00,0.0067
2232.00,0.0067
2231.00,0.0066
2230.00,0.0066
2229.00,0.0066
2228.00,0.0066
2227.00,0.0066
2226.00,0.0066
2225.00,0.0066
2224.00,0.0066
2223.00,0.0066
2222.00,0.0066
2221.00,0.0066
2220.00,0.0066
2219.00,0.0067
2218.00,0.0067
2217.00,0.0067
2216.00,0.0067
2215.00,0.0067
2214.00,0.0067
2213.00,0.0066
2212.00,0.0066
2211.00,0.0066
2210.00,0.0066
2209.00,0.0066
2208.00,0.0066
2207.00,0.0066
2206.00,0.0066
2205.00,0.0066
2204.00,0.0066
2203.00,0.0065
2202.00,0.0065
2201.00,0.0065
2200.00,0.0065
2199.00,0.0066
2198.00,0.0066
2197.00,0.0066
2196.00,0.0067
2195.00,0.0067
2194.00,0.0067
2193.00,0.0067
2192.00,0.0067
2191.00,0.0067
2190.00,0.0067
2189.00,0.0067
2188.00,0.0068
2187.00,0.0068
2186.00,0.0068
2185.00,0.0067
2184.00,0.0065
2183.00,0.0063
2182.00,0.0062
2181.00,0.0062
2180.00,0.0063
2179.00,0.0063
2178.00,0.0063
2177.00,0.0061
2176.00,0.0060
2175.00,0.0060
2174.00,0.0062
2173.00,0.0064
2172.00,0.0066
2171.00,0.0068
2170.00,0.0070
2169.00,0.0071
2168.00,0.0072
2167.00,0.0071
2166.00,0.0071
2165.00,0.0072
2164.00,0.0074
2163.00,0.0075
2162.00,0.0072
2161.00,0.0064
2160.00,0.0053
2159.00,0.0044
2158.00,0.0038
2157.00,0.0037
2156.00,0.0039
2155.00,0.0041
2154.00,0.0043
2153.00,0.0045
2152.00,0.0046
2151.00,0.0047
2150.00,0.0048
2149.00,0.0048
2148.00,0.0048
2147.00,0.0047
2146.00,0.0047
2145.00,0.0047
2144.00,0.0047
2143.00,0.0048
2142.00,0.0048
2141.00,0.0048
2140.00,0.0048
2139.00,0.0048
2138.00,0.0047
2137.00,0.0046
2136.00,0.0044
2135.00,0.0043
2134.00,0.0043
2133.00,0.0044
2132.00,0.0045
2131.00,0.0046
2130.00,0.0047
2129.00,0.0049
2128.00,0.0050
2127.00,0.0051
2126.00,0.0052
2125.00,0.0053
2124.00,0.0054
2123.00,0.0055
2122.00,0.0055
2121.00,0.0055
2120.00,0.0055
2119.00,0.0056
2118.00,0.0057
2117.00,0.0058
2116.00,0.0059
2115.00,0.0059
2114.00,0.0060
2113.00,0.0060
2112.00,0.0060
2111.00,0.0060
2110.00,0.0060
2109.00,0.0060
2108.00,0.0059
2107.00,0.0059
2106.00,0.0058
2105.00,0.0058
2104.00,0.0058
2103.00,0.0058
2102.00,0.0059
2101.00,0.0059
2100.00,0.0059
2099.00,0.0059
2098.00,0.0058
2097.00,0.0057
2096.00,0.0056
2095.00,0.0055
2094.00,0.0056
2093.00,0.0057
2092.00,0.0057
2091.00,0.0058
2090.00,0.0058
2089.00,0.0058
2088.00,0.0059
2087.00,0.0059
2086.00,0.0059
2085.00,0.0060
2084.00,0.0060
2083.00,0.0060
2082.00,0.0060
2081.00,0.0060
2080.00,0.0061
2079.00,0.0061
2078.00,0.0061
2077.00,0.0061
2076.00,0.0060
2075.00,0.0059
2074.00,0.0059
2073.00,0.0058
2072.00,0.0058
2071.00,0.0058
2070.00,0.0058
2069.00,0.0058
2068.00,0.0058
2067.00,0.0058
2066.00,0.0058
2065.00,0.0058
2064.00,0.0058
2063.00,0.0059
2062.00,0.0058
2061.00,0.0059
2060.00,0.0059
2059.00,0.0059
2058.00,0.0059
2057.00,0.0059
2056.00,0.0059
2055.00,0.0059
2054.00,0.0061
2053.00,0.0064
2052.00,0.0067
2051.00,0.0067
2050.00,0.0066
2049.00,0.0063
2048.00,0.0060
2047.00,0.0059
2046.00,0.0059
2045.00,0.0058
2044.00,0.0058
2043.00,0.0058
2042.00,0.0058
2041.00,0.0058
2040.00,0.0059
2039.00,0.0059
2038.00,0.0060
2037.00,0.0060
2036.00,0.0059
2035.00,0.0057
2034.00,0.0056
2033.00,0.0054
2032.00,0.0053
2031.00,0.0052
2030.00,0.0051
2029.00,0.0051
2028.00,0.0051
2027.00,0.0052
2026.00,0.0052
2025.00,0.0051
2024.00,0.0051
2023.00,0.0051
2022.00,0.0050
2021.00,0.0051
2020.00,0.0051
2019.00,0.0051
2018.00,0.0051
2017.00,0.0051
2016.00,0.0050
2015.00,0.0050
2014.00,0.0050
2013.00,0.0051
2012.00,0.0052
2011.00,0.0053
2010.00,0.0053
2009.00,0.0052
2008.00,0.0050
2007.00,0.0048
2006.00,0.0047
2005.00,0.0047
2004.00,0.0047
2003.00,0.0048
2002.00,0.0049
2001.00,0.0049
2000.00,0.0050
1999.00,0.0051
1998.00,0.0051
1997.00,0.0052
1996.00,0.0052
1995.00,0.0052
1994.00,0.0052
1993.00,0.0053
1992.00,0.0054
1991.00,0.0054
1990.00,0.0054
1989.00,0.0055
1988.00,0.0055
1987.00,0.0056
1986.00,0.0057
1985.00,0.0058
1984.00,0.0059
1983.00,0.0061
1982.00,0.0063
1981.00,0.0064
1980.00,0.0062
1979.00,0.0057
1978.00,0.0051
1977.00,0.0047
1976.00,0.0045
1975.00,0.0045
1974.00,0.0044
1973.00,0.0044
1972.00,0.0045
1971.00,0.0045
1970.00,0.0045
1969.00,0.0045
1968.00,0.0045
1967.00,0.0045
1966.00,0.0044
1965.00,0.0044
1964.00,0.0044
1963.00,0.0043
1962.00,0.0042
1961.00,0.0041
1960.00,0.0041
1959.00,0.0041
1958.00,0.0042
1957.00,0.0043
1956.00,0.0044
1955.00,0.0045
1954.00,0.0044
1953.00,0.0044
1952.00,0.0044
1951.00,0.0044
1950.00,0.0044
1949.00,0.0044
1948.00,0.0044
1947.00,0.0044
1946.00,0.0044
1945.00,0.0044
1944.00,0.0044
1943.00,0.0044
1942.00,0.0044
1941.00,0.0044
1940.00,0.0043
1939.00,0.0043
1938.00,0.0043
1937.00,0.0043
1936.00,0.0043
1935.00,0.0043
1934.00,0.0043
1933.00,0.0043
1932.00,0.0043
1931.00,0.0043
1930.00,0.0043
1929.00,0.0043
1928.00,0.0044
1927.00,0.0044
1926.00,0.0044
1925.00,0.0043
1924.00,0.0044
1923.00,0.0044
1922.00,0.0044
1921.00,0.0045
1920.00,0.0045
1919.00,0.0045
1918.00,0.0045
1917.00,0.0045
1916.00,0.0045
1915.00,0.0045
1914.00,0.0044
1913.00,0.0044
1912.00,0.0044
1911.00,0.0044
1910.00,0.0044
1909.00,0.0044
1908.00,0.0044
1907.00,0.0044
1906.00,0.0044
1905.00,0.0044
1904.00,0.0044
1903.00,0.0044
1902.00,0.0044
1901.00,0.0044
1900.00,0.0044
1899.00,0.0044
1898.00,0.0044
1897.00,0.0044
1896.00,0.0044
1895.00,0.0044
1894.00,0.0044
1893.00,0.0044
1892.00,0.0044
1891.00,0.0044
1890.00,0.0043
1889.00,0.0043
1888.00,0.0043
1887.00,0.0043
1886.00,0.0043
1885.00,0.0043
1884.00,0.0044
1883.00,0.0044
1882.00,0.0043
1881.00,0.0043
1880.00,0.0043
1879.00,0.0043
1878.00,0.0043
1877.00,0.0043
1876.00,0.0044
1875.00,0.0044
1874.00,0.0044
1873.00,0.0043
1872.00,0.0043
1871.00,0.0043
1870.00,0.0043
1869.00,0.0043
1868.00,0.0043
1867.00,0.0043
1866.00,0.0043
1865.00,0.0043
1864.00,0.0043
1863.00,0.0043
1862.00,0.0043
1861.00,0.0043
1860.00,0.0043
1859.00,0.0042
1858.00,0.0042
1857.00,0.0042
1856.00,0.0042
1855.00,0.0042
1854.00,0.0042
1853.00,0.0042
1852.00,0.0042
1851.00,0.0042
1850.00,0.0041
1849.00,0.0041
1848.00,0.0041
1847.00,0.0041
1846.00,0.0040
1845.00,0.0040
1844.00,0.0041
1843.00,0.0041
1842.00,0.0041
1841.00,0.0041
1840.00,0.0041
1839.00,0.0041
1838.00,0.0040
1837.00,0.0040
1836.00,0.0041
1835.00,0.0041
1834.00,0.0041
1833.00,0.0041
1832.00,0.0041
1831.00,0.0040
1830.00,0.0040
1829.00,0.0040
1828.00,0.0040
1827.00,0.0040
1826.00,0.0040
1825.00,0.0040
1824.00,0.0040
1823.00,0.0040
1822.00,0.0040
1821.00,0.0040
1820.00,0.0039
1819.00,0.0039
1818.00,0.0038
1817.00,0.0038
1816.00,0.0038
1815.00,0.0038
1814.00,0.0038
1813.00,0.0039
1812.00,0.0039
1811.00,0.0039
1810.00,0.0040
1809.00,0.0040
1808.00,0.0040
1807.00,0.0040
1806.00,0.0040
1805.00,0.0040
1804.00,0.0039
1803.00,0.0039
1802.00,0.0039
1801.00,0.0039
1800.00,0.0040
1799.00,0.0040
1798.00,0.0040
1797.00,0.0040
1796.00,0.0040
1795.00,0.0040
1794.00,0.0040
1793.00,0.0040
1792.00,0.0040
1791.00,0.0040
1790.00,0.0040
1789.00,0.0040
1788.00,0.0040
1787.00,0.0040
1786.00,0.0040
1785.00,0.0040
1784.00,0.0040
1783.00,0.0040
1782.00,0.0040
1781.00,0.0040
1780.00,0.0040
1779.00,0.0040
1778.00,0.0039
1777.00,0.0039
1776.00,0.0039
1775.00,0.0039
1774.00,0.0040
1773.00,0.0040
1772.00,0.0041
1771.00,0.0040
1770.00,0.0040
1769.00,0.0040
1768.00,0.0040
1767.00,0.0040
1766.00,0.0040
1765.00,0.0040
1764.00,0.0040
1763.00,0.0040
1762.00,0.0040
1761.00,0.0040
1760.00,0.0041
1759.00,0.0041
1758.00,0.0041
1757.00,0.0041
1756.00,0.0041
1755.00,0.0041
1754.00,0.0041
1753.00,0.0042
1752.00,0.0042
1751.00,0.0042
1750.00,0.0042
1749.00,0.0042
1748.00,0.0042
1747.00,0.0043
1746.00,0.0043
1745.00,0.0043
1744.00,0.0043
1743.00,0.0043
1742.00,0.0043
1741.00,0.0044
1740.00,0.0045
1739.00,0.0045
1738.00,0.0045
1737.00,0.0045
1736.00,0.0046
1735.00,0.0048
1734.00,0.0049
1733.00,0.0049
1732.00,0.0050
1731.00,0.0049
1730.00,0.0049
1729.00,0.0050
1728.00,0.0050
1727.00,0.0051
1726.00,0.0052
1725.00,0.0052
1724.00,0.0053
1723.00,0.0054
1722.00,0.0054
1721.00,0.0055
1720.00,0.0055
1719.00,0.0057
1718.00,0.0058
1717.00,0.0060
1716.00,0.0061
1715.00,0.0062
1714.00,0.0063
1713.00,0.0064
1712.00,0.0066
1711.00,0.0068
1710.00,0.0070
1709.00,0.0072
1708.00,0.0074
1707.00,0.0077
1706.00,0.0081
1705.00,0.0086
1704.00,0.0091
1703.00,0.0096
1702.00,0.0102
1701.00,0.0112
1700.00,0.0126
1699.00,0.0139
1698.00,0.0147
1697.00,0.0154
1696.00,0.0160
1695.00,0.0166
1694.00,0.0171
1693.00,0.0173
1692.00,0.0176
1691.00,0.0179
1690.00,0.0182
1689.00,0.0185
1688.00,0.0189
1687.00,0.0193
1686.00,0.0197
1685.00,0.0202
1684.00,0.0208
1683.00,0.0214
1682.00,0.0219
1681.00,0.0224
1680.00,0.0229
1679.00,0.0235
1678.00,0.0240
1677.00,0.0245
1676.00,0.0251
1675.00,0.0257
1674.00,0.0264
1673.00,0.0270
1672.00,0.0276
1671.00,0.0282
1670.00,0.0287
1669.00,0.0293
1668.00,0.0300
1667.00,0.0307
1666.00,0.0312
1665.00,0.0318
1664.00,0.0323
1663.00,0.0329
1662.00,0.0334
1661.00,0.0340
1660.00,0.0346
1659.00,0.0352
1658.00,0.0357
1657.00,0.0362
1656.00,0.0366
1655.00,0.0371
1654.00,0.0374
1653.00,0.0376
1652.00,0.0382
1651.00,0.0388
1650.00,0.0392
1649.00,0.0395
1648.00,0.0397
1647.00,0.0399
1646.00,0.0401
1645.00,0.0405
1644.00,0.0409
1643.00,0.0412
1642.00,0.0415
1641.00,0.0417
1640.00,0.0420
1639.00,0.0423
1638.00,0.0426
1637.00,0.0427
1636.00,0.0428
1635.00,0.0429
1634.00,0.0432
1633.00,0.0435
1632.00,0.0439
1631.00,0.0441
1630.00,0.0443
1629.00,0.0444
1628.00,0.0446
1627.00,0.0448
1626.00,0.0450
1625.00,0.0452
1624.00,0.0452
1623.00,0.0452
1622.00,0.0452
1621.00,0.0453
1620.00,0.0455
1619.00,0.0455
1618.00,0.0453
1617.00,0.0448
1616.00,0.0443
1615.00,0.0439
1614.00,0.0436
1613.00,0.0433
1612.00,0.0428
1611.00,0.0423
1610.00,0.0417
1609.00,0.0410
1608.00,0.0403
1607.00,0.0396
1606.00,0.0389
1605.00,0.0382
1604.00,0.0374
1603.00,0.0366
1602.00,0.0357
1601.00,0.0349
1600.00,0.0341
1599.00,0.0334
1598.00,0.0326
1597.00,0.0319
1596.00,0.0311
1595.00,0.0304
1594.00,0.0297
1593.00,0.0290
1592.00,0.0284
1591.00,0.0278
1590.00,0.0272
1589.00,0.0266
1588.00,0.0261
1587.00,0.0256
1586.00,0.0251
1585.00,0.0247
1584.00,0.0244
1583.00,0.0240
1582.00,0.0237
1581.00,0.0235
1580.00,0.0233
1579.00,0.0232
1578.00,0.0231
1577.00,0.0230
1576.00,0.0229
1575.00,0.0229
1574.00,0.0229
1573.00,0.0230
1572.00,0.0232
1571.00,0.0233
1570.00,0.0234
1569.00,0.0237
1568.00,0.0240
1567.00,0.0243
1566.00,0.0246
1565.00,0.0250
1564.00,0.0254
1563.00,0.0257
1562.00,0.0261
1561.00,0.0265
1560.00,0.0268
1559.00,0.0273
1558.00,0.0279
1557.00,0.0285
1556.00,0.0290
1555.00,0.0294
1554.00,0.0299
1553.00,0.0304
1552.00,0.0308
1551.00,0.0312
1550.00,0.0316
1549.00,0.0321
1548.00,0.0326
1547.00,0.0330
1546.00,0.0334
1545.00,0.0337
1544.00,0.0341
1543.00,0.0345
1542.00,0.0349
1541.00,0.0353
1540.00,0.0356
1539.00,0.0360
1538.00,0.0364
1537.00,0.0369
1536.00,0.0372
1535.00,0.0375
1534.00,0.0377
1533.00,0.0381
1532.00,0.0385
1531.00,0.0390
1530.00,0.0394
1529.00,0.0398
1528.00,0.0401
1527.00,0.0405
1526.00,0.0409
1525.00,0.0413
1524.00,0.0417
1523.00,0.0420
1522.00,0.0422
1521.00,0.0425
1520.00,0.0428
1519.00,0.0431
1518.00,0.0433
1517.00,0.0435
1516.00,0.0435
1515.00,0.0436
1514.00,0.0437
1513.00,0.0437
1512.00,0.0435
1511.00,0.0433
1510.00,0.0432
1509.00,0.0430
1508.00,0.0424
1507.00,0.0413
1506.00,0.0403
1505.00,0.0398
1504.00,0.0395
1503.00,0.0392
1502.00,0.0387
1501.00,0.0381
1500.00,0.0375
1499.00,0.0367
1498.00,0.0359
1497.00,0.0350
1496.00,0.0341
1495.00,0.0333
1494.00,0.0327
1493.00,0.0321
1492.00,0.0314
1491.00,0.0305
1490.00,0.0296
1489.00,0.0287
1488.00,0.0279
1487.00,0.0273
1486.00,0.0267
1485.00,0.0262
1484.00,0.0257
1483.00,0.0253
1482.00,0.0248
1481.00,0.0244
1480.00,0.0240
1479.00,0.0237
1478.00,0.0234
1477.00,0.0232
1476.00,0.0230
1475.00,0.0228
1474.00,0.0227
1473.00,0.0226
1472.00,0.0224
1471.00,0.0224
1470.00,0.0224
1469.00,0.0225
1468.00,0.0224
1467.00,0.0224
1466.00,0.0223
1465.00,0.0223
1464.00,0.0223
1463.00,0.0224
1462.00,0.0226
1461.00,0.0227
1460.00,0.0229
1459.00,0.0230
1458.00,0.0233
1457.00,0.0236
1456.00,0.0239
1455.00,0.0242
1454.00,0.0244
1453.00,0.0245
1452.00,0.0246
1451.00,0.0246
1450.00,0.0246
1449.00,0.0245
1448.00,0.0244
1447.00,0.0243
1446.00,0.0242
1445.00,0.0240
1444.00,0.0239
1443.00,0.0237
1442.00,0.0234
1441.00,0.0232
1440.00,0.0229
1439.00,0.0227
1438.00,0.0224
1437.00,0.0220
1436.00,0.0217
1435.00,0.0216
1434.00,0.0215
1433.00,0.0213
1432.00,0.0212
1431.00,0.0210
1430.00,0.0209
1429.00,0.0208
1428.00,0.0208
1427.00,0.0208
1426.00,0.0208
1425.00,0.0208
1424.00,0.0208
1423.00,0.0208
1422.00,0.0209
1421.00,0.0209
1420.00,0.0210
1419.00,0.0211
1418.00,0.0212
1417.00,0.0213
1416.00,0.0215
1415.00,0.0216
1414.00,0.0217
1413.00,0.0219
1412.00,0.0220
1411.00,0.0221
1410.00,0.0222
1409.00,0.0223
1408.00,0.0223
1407.00,0.0224
1406.00,0.0224
1405.00,0.0224
1404.00,0.0224
1403.00,0.0225
1402.00,0.0225
1401.00,0.0224
1400.00,0.0224
1399.00,0.0223
1398.00,0.0223
1397.00,0.0223
1396.00,0.0222
1395.00,0.0221
1394.00,0.0221
1393.00,0.0221
1392.00,0.0221
1391.00,0.0221
1390.00,0.0221
1389.00,0.0221
1388.00,0.0220
1387.00,0.0219
1386.00,0.0219
1385.00,0.0218
1384.00,0.0218
1383.00,0.0217
1382.00,0.0216
1381.00,0.0215
1380.00,0.0215
1379.00,0.0214
1378.00,0.0213
1377.00,0.0213
1376.00,0.0212
1375.00,0.0212
1374.00,0.0211
1373.00,0.0210
1372.00,0.0210
1371.00,0.0210
1370.00,0.0210
1369.00,0.0209
1368.00,0.0208
1367.00,0.0207
1366.00,0.0206
1365.00,0.0204
1364.00,0.0203
1363.00,0.0201
1362.00,0.0200
1361.00,0.0199
1360.00,0.0198
1359.00,0.0198
1358.00,0.0197
1357.00,0.0197
1356.00,0.0196
1355.00,0.0195
1354.00,0.0195
1353.00,0.0195
1352.00,0.0194
1351.00,0.0194
1350.00,0.0194
1349.00,0.0194
1348.00,0.0194
1347.00,0.0194
1346.00,0.0194
1345.00,0.0194
1344.00,0.0194
1343.00,0.0194
1342.00,0.0194
1341.00,0.0194
1340.00,0.0194
1339.00,0.0194
1338.00,0.0194
1337.00,0.0194
1336.00,0.0195
1335.00,0.0195
1334.00,0.0195
1333.00,0.0195
1332.00,0.0195
1331.00,0.0195
1330.00,0.0194
1329.00,0.0194
1328.00,0.0194
1327.00,0.0194
1326.00,0.0194
1325.00,0.0194
1324.00,0.0194
1323.00,0.0194
1322.00,0.0193
1321.00,0.0193
1320.00,0.0193
1319.00,0.0193
1318.00,0.0192
1317.00,0.0192
1316.00,0.0192
1315.00,0.0192
1314.00,0.0192
1313.00,0.0191
1312.00,0.0191
1311.00,0.0190
1310.00,0.0190
1309.00,0.0190
1308.00,0.0189
1307.00,0.0189
1306.00,0.0189
1305.00,0.0189
1304.00,0.0188
1303.00,0.0188
1302.00,0.0188
1301.00,0.0187
1300.00,0.0187
1299.00,0.0186
1298.00,0.0186
1297.00,0.0186
1296.00,0.0186
1295.00,0.0185
1294.00,0.0185
1293.00,0.0185
1292.00,0.0185
1291.00,0.0185
1290.00,0.0185
1289.00,0.0185
1288.00,0.0185
1287.00,0.0185
1286.00,0.0185
1285.00,0.0185
1284.00,0.0185
1283.00,0.0185
1282.00,0.0184
1281.00,0.0184
1280.00,0.0184
1279.00,0.0184
1278.00,0.0183
1277.00,0.0183
1276.00,0.0183
1275.00,0.0183
1274.00,0.0183
1273.00,0.0182
1272.00,0.0183
1271.00,0.0183
1270.00,0.0183
1269.00,0.0183
1268.00,0.0183
1267.00,0.0184
1266.00,0.0184
1265.00,0.0185
1264.00,0.0186
1263.00,0.0187
1262.00,0.0188
1261.00,0.0189
1260.00,0.0191
1259.00,0.0192
1258.00,0.0194
1257.00,0.0196
1256.00,0.0198
1255.00,0.0199
1254.00,0.0201
1253.00,0.0203
1252.00,0.0205
1251.00,0.0207
1250.00,0.0209
1249.00,0.0210
1248.00,0.0212
1247.00,0.0213
1246.00,0.0214
1245.00,0.0215
1244.00,0.0217
1243.00,0.0218
1242.00,0.0218
1241.00,0.0219
1240.00,0.0220
1239.00,0.0220
1238.00,0.0221
1237.00,0.0221
1236.00,0.0222
1235.00,0.0222
1234.00,0.0222
1233.00,0.0222
1232.00,0.0222
1231.00,0.0222
1230.00,0.0222
1229.00,0.0221
1228.00,0.0221
1227.00,0.0220
1226.00,0.0220
1225.00,0.0219
1224.00,0.0218
1223.00,0.0217
1222.00,0.0216
1221.00,0.0215
1220.00,0.0214
1219.00,0.0213
1218.00,0.0211
1217.00,0.0210
1216.00,0.0208
1215.00,0.0207
1214.00,0.0205
1213.00,0.0204
1212.00,0.0202
1211.00,0.0200
1210.00,0.0198
1209.00,0.0196
1208.00,0.0194
1207.00,0.0192
1206.00,0.0190
1205.00,0.0188
1204.00,0.0186
1203.00,0.0184
1202.00,0.0182
1201.00,0.0180
1200.00,0.0178
1199.00,0.0176
1198.00,0.0175
1197.00,0.0173
1196.00,0.0172
1195.00,0.0171
1194.00,0.0169
1193.00,0.0168
1192.00,0.0167
1191.00,0.0166
1190.00,0.0166
1189.00,0.0165
1188.00,0.0164
1187.00,0.0164
1186.00,0.0164
1185.00,0.0163
1184.00,0.0163
1183.00,0.0163
1182.00,0.0163
1181.00,0.0164
1180.00,0.0164
1179.00,0.0164
1178.00,0.0165
1177.00,0.0166
1176.00,0.0167
1175.00,0.0169
1174.00,0.0170
1173.00,0.0172
1172.00,0.0173
1171.00,0.0175
1170.00,0.0176
1169.00,0.0177
1168.00,0.0178
1167.00,0.0180
1166.00,0.0181
1165.00,0.0182
1164.00,0.0183
1163.00,0.0184
1162.00,0.0185
1161.00,0.0186
1160.00,0.0186
1159.00,0.0186
1158.00,0.0186
1157.00,0.0186
1156.00,0.0185
1155.00,0.0185
1154.00,0.0184
1153.00,0.0183
1152.00,0.0181
1151.00,0.0180
1150.00,0.0179
1149.00,0.0178
1148.00,0.0176
1147.00,0.0175
1146.00,0.0174
1145.00,0.0172
1144.00,0.0171
1143.00,0.0170
1142.00,0.0169
1141.00,0.0169
1140.00,0.0168
1139.00,0.0167
1138.00,0.0167
1137.00,0.0166
1136.00,0.0166
1135.00,0.0166
1134.00,0.0166
1133.00,0.0166
1132.00,0.0166
1131.00,0.0165
1130.00,0.0165
1129.00,0.0165
1128.00,0.0165
1127.00,0.0165
1126.00,0.0165
1125.00,0.0165
1124.00,0.0165
1123.00,0.0164
1122.00,0.0164
1121.00,0.0164
1120.00,0.0163
1119.00,0.0163
1118.00,0.0163
1117.00,0.0163
1116.00,0.0163
1115.00,0.0163
1114.00,0.0163
1113.00,0.0163
1112.00,0.0163
1111.00,0.0163
1110.00,0.0163
1109.00,0.0163
1108.00,0.0163
1107.00,0.0164
1106.00,0.0164
1105.00,0.0165
1104.00,0.0165
1103.00,0.0166
1102.00,0.0167
1101.00,0.0167
1100.00,0.0168
1099.00,0.0168
1098.00,0.0169
1097.00,0.0170
1096.00,0.0171
1095.00,0.0173
1094.00,0.0174
1093.00,0.0176
1092.00,0.0178
1091.00,0.0180
1090.00,0.0182
1089.00,0.0184
1088.00,0.0187
1087.00,0.0190
1086.00,0.0193
1085.00,0.0196
1084.00,0.0199
1083.00,0.0202
1082.00,0.0205
1081.00,0.0208
1080.00,0.0211
1079.00,0.0214
1078.00,0.0217
1077.00,0.0220
1076.00,0.0222
1075.00,0.0224
1074.00,0.0226
1073.00,0.0228
1072.00,0.0229
1071.00,0.0231
1070.00,0.0232
1069.00,0.0233
1068.00,0.0234
1067.00,0.0234
1066.00,0.0234
1065.00,0.0234
1064.00,0.0235
1063.00,0.0234
1062.00,0.0234
1061.00,0.0233
1060.00,0.0232
1059.00,0.0231
1058.00,0.0230
1057.00,0.0229
1056.00,0.0228
1055.00,0.0227
1054.00,0.0226
1053.00,0.0225
1052.00,0.0223
1051.00,0.0222
1050.00,0.0220
1049.00,0.0219
1048.00,0.0218
1047.00,0.0217
1046.00,0.0215
1045.00,0.0214
1044.00,0.0212
1043.00,0.0210
1042.00,0.0208
1041.00,0.0206
1040.00,0.0204
1039.00,0.0202
1038.00,0.0200
1037.00,0.0198
1036.00,0.0196
1035.00,0.0195
1034.00,0.0193
1033.00,0.0191
1032.00,0.0190
1031.00,0.0188
1030.00,0.0186
1029.00,0.0184
1028.00,0.0182
1027.00,0.0179
1026.00,0.0177
1025.00,0.0175
1024.00,0.0173
1023.00,0.0171
1022.00,0.0169
1021.00,0.0167
1020.00,0.0165
1019.00,0.0163
1018.00,0.0161
1017.00,0.0159
1016.00,0.0158
1015.00,0.0157
1014.00,0.0155
1013.00,0.0154
1012.00,0.0152
1011.00,0.0151
1010.00,0.0150
1009.00,0.0149
1008.00,0.0148
1007.00,0.0147
1006.00,0.0146
1005.00,0.0145
1004.00,0.0144
1003.00,0.0143
1002.00,0.0142
1001.00,0.0142
1000.00,0.0141
999.00,0.0140
998.00,0.0139
997.00,0.0138
996.00,0.0138
995.00,0.0138
994.00,0.0137
993.00,0.0136
992.00,0.0136
991.00,0.0135
990.00,0.0134
989.00,0.0134
988.00,0.0133
987.00,0.0132
986.00,0.0132
985.00,0.0132
984.00,0.0131
983.00,0.0131
982.00,0.0130
981.00,0.0130
980.00,0.0130
979.00,0.0130
978.00,0.0130
977.00,0.0130
976.00,0.0130
975.00,0.0130
974.00,0.0130
973.00,0.0130
972.00,0.0130
971.00,0.0131
970.00,0.0131
969.00,0.0132
968.00,0.0133
967.00,0.0134
966.00,0.0135
965.00,0.0136
964.00,0.0136
963.00,0.0137
962.00,0.0138
961.00,0.0138
960.00,0.0137
959.00,0.0137
958.00,0.0136
957.00,0.0135
956.00,0.0135
955.00,0.0134
954.00,0.0134
953.00,0.0133
952.00,0.0132
951.00,0.0132
950.00,0.0131
949.00,0.0131
948.00,0.0130
947.00,0.0130
946.00,0.0130
945.00,0.0129
944.00,0.0129
943.00,0.0129
942.00,0.0128
941.00,0.0128
940.00,0.0128
939.00,0.0128
938.00,0.0128
937.00,0.0128
936.00,0.0127
935.00,0.0127
934.00,0.0127
933.00,0.0127
932.00,0.0127
931.00,0.0127
930.00,0.0126
929.00,0.0126
928.00,0.0126
927.00,0.0125
926.00,0.0125
925.00,0.0124
924.00,0.0124
923.00,0.0123
922.00,0.0122
921.00,0.0122
920.00,0.0121
919.00,0.0121
918.00,0.0120
917.00,0.0120
916.00,0.0120
915.00,0.0120
914.00,0.0120
913.00,0.0119
912.00,0.0119
911.00,0.0119
910.00,0.0119
909.00,0.0119
908.00,0.0119
907.00,0.0120
906.00,0.0120
905.00,0.0120
904.00,0.0121
903.00,0.0121
902.00,0.0121
901.00,0.0121
900.00,0.0121
899.00,0.0121
898.00,0.0120
897.00,0.0120
896.00,0.0119
895.00,0.0119
894.00,0.0118
893.00,0.0118
892.00,0.0118
891.00,0.0118
890.00,0.0117
889.00,0.0116
888.00,0.0116
887.00,0.0115
886.00,0.0115
885.00,0.0115
884.00,0.0115
883.00,0.0114
882.00,0.0114
881.00,0.0114
880.00,0.0114
879.00,0.0114
878.00,0.0114
877.00,0.0113
876.00,0.0114
875.00,0.0114
874.00,0.0114
873.00,0.0114
872.00,0.0114
871.00,0.0114
870.00,0.0114
869.00,0.0114
868.00,0.0114
867.00,0.0114
866.00,0.0113
865.00,0.0113
864.00,0.0113
863.00,0.0113
862.00,0.0113
861.00,0.0113
860.00,0.0113
859.00,0.0113
858.00,0.0113
857.00,0.0113
856.00,0.0114
855.00,0.0114
854.00,0.0115
853.00,0.0115
852.00,0.0115
851.00,0.0115
850.00,0.0115
849.00,0.0115
848.00,0.0116
847.00,0.0116
846.00,0.0116
845.00,0.0117
844.00,0.0117
843.00,0.0117
842.00,0.0118
841.00,0.0118
840.00,0.0119
839.00,0.0120
838.00,0.0121
837.00,0.0122
836.00,0.0123
835.00,0.0124
834.00,0.0125
833.00,0.0126
832.00,0.0127
831.00,0.0128
830.00,0.0129
829.00,0.0130
828.00,0.0131
827.00,0.0132
826.00,0.0133
825.00,0.0133
824.00,0.0134
823.00,0.0134
822.00,0.0135
821.00,0.0136
820.00,0.0136
819.00,0.0137
818.00,0.0138
817.00,0.0139
816.00,0.0140
815.00,0.0141
814.00,0.0142
813.00,0.0143
812.00,0.0144
811.00,0.0145
810.00,0.0145
809.00,0.0145
808.00,0.0146
807.00,0.0146
806.00,0.0147
805.00,0.0148
804.00,0.0148
803.00,0.0149
802.00,0.0149
801.00,0.0150
800.00,0.0151
799.00,0.0152
798.00,0.0153
797.00,0.0154
796.00,0.0155
795.00,0.0156
794.00,0.0157
793.00,0.0158
792.00,0.0159
791.00,0.0161
790.00,0.0162
789.00,0.0164
788.00,0.0165
787.00,0.0167
786.00,0.0168
785.00,0.0170
784.00,0.0172
783.00,0.0173
782.00,0.0175
781.00,0.0176
780.00,0.0177
779.00,0.0179
778.00,0.0180
777.00,0.0181
776.00,0.0183
775.00,0.0184
774.00,0.0185
773.00,0.0186
772.00,0.0187
771.00,0.0188
770.00,0.0188
769.00,0.0189
768.00,0.0190
767.00,0.0190
766.00,0.0191
765.00,0.0191
764.00,0.0191
763.00,0.0191
762.00,0.0191
761.00,0.0192
760.00,0.0192
759.00,0.0193
758.00,0.0194
757.00,0.0195
756.00,0.0196
755.00,0.0196
754.00,0.0197
753.00,0.0198
752.00,0.0199
751.00,0.0201
750.00,0.0202
749.00,0.0203
748.00,0.0204
747.00,0.0204
746.00,0.0205
745.00,0.0205
744.00,0.0206
743.00,0.0206
742.00,0.0206
741.00,0.0207
740.00,0.0208
739.00,0.0209
738.00,0.0210
737.00,0.0211
736.00,0.0212
735.00,0.0213
734.00,0.0215
733.00,0.0216
732.00,0.0218
731.00,0.0220
730.00,0.0222
729.00,0.0224
728.00,0.0227
727.00,0.0230
726.00,0.0233
725.00,0.0236
724.00,0.0239
723.00,0.0242
722.00,0.0245
721.00,0.0248
720.00,0.0252
719.00,0.0255
718.00,0.0259
717.00,0.0263
716.00,0.0267
715.00,0.0270
714.00,0.0274
713.00,0.0277
712.00,0.0280
711.00,0.0283
710.00,0.0286
709.00,0.0289
708.00,0.0292
707.00,0.0295
706.00,0.0298
705.00,0.0301
704.00,0.0304
703.00,0.0307
702.00,0.0310
701.00,0.0312
700.00,0.0313
699.00,0.0314
698.00,0.0315
697.00,0.0315
696.00,0.0315
695.00,0.0315
694.00,0.0315
693.00,0.0314
692.00,0.0314
691.00,0.0315
690.00,0.0315
689.00,0.0316
688.00,0.0316
687.00,0.0316
686.00,0.0317
685.00,0.0317
684.00,0.0317
683.00,0.0318
682.00,0.0318
681.00,0.0318
680.00,0.0318
679.00,0.0318
678.00,0.0318
677.00,0.0319
676.00,0.0319
675.00,0.0319
674.00,0.0320
673.00,0.0320
672.00,0.0319
671.00,0.0319
670.00,0.0318
669.00,0.0316
668.00,0.0317
667.00,0.0319
666.00,0.0320
665.00,0.0321
664.00,0.0322
663.00,0.0323
662.00,0.0324
661.00,0.0324
660.00,0.0324
659.00,0.0325
658.00,0.0325
657.00,0.0326
656.00,0.0326
655.00,0.0327
654.00,0.0328
653.00,0.0329
652.00,0.0330
651.00,0.0331
650.00,0.0332
649.00,0.0332
648.00,0.0333
647.00,0.0334
646.00,0.0335
645.00,0.0336
644.00,0.0337
643.00,0.0338
642.00,0.0339
641.00,0.0340
640.00,0.0342
639.00,0.0343
638.00,0.0344
637.00,0.0345
636.00,0.0346
635.00,0.0347
634.00,0.0348
633.00,0.0349
632.00,0.0351
631.00,0.0352
630.00,0.0353
629.00,0.0354
628.00,0.0355
627.00,0.0355
626.00,0.0355
625.00,0.0355
624.00,0.0355
623.00,0.0355
622.00,0.0355
621.00,0.0355
620.00,0.0355
619.00,0.0354
618.00,0.0353
617.00,0.0352
616.00,0.0351
615.00,0.0350
614.00,0.0349
613.00,0.0348
612.00,0.0348
611.00,0.0347
610.00,0.0346
609.00,0.0345
608.00,0.0345
607.00,0.0345
606.00,0.0344
605.00,0.0343
604.00,0.0343
603.00,0.0342
602.00,0.0342
601.00,0.0342
600.00,0.0341
599.00,0.0341
598.00,0.0341
597.00,0.0342
596.00,0.0342
595.00,0.0342
594.00,0.0342
593.00,0.0342
592.00,0.0342
591.00,0.0342
590.00,0.0342
589.00,0.0342
588.00,0.0342
587.00,0.0342
586.00,0.0343
585.00,0.0343
584.00,0.0343
583.00,0.0343
582.00,0.0344
581.00,0.0344
580.00,0.0344
579.00,0.0345
578.00,0.0345
577.00,0.0345
576.00,0.0345
575.00,0.0345
574.00,0.0346
573.00,0.0347
572.00,0.0348
571.00,0.0349
570.00,0.0349
569.00,0.0349
568.00,0.0350
567.00,0.0349
566.00,0.0349
565.00,0.0349
564.00,0.0351
563.00,0.0352
562.00,0.0353
561.00,0.0353
560.00,0.0353
559.00,0.0354
558.00,0.0354
557.00,0.0354
556.00,0.0355
555.00,0.0355
554.00,0.0355
553.00,0.0355
552.00,0.0356
551.00,0.0356
550.00,0.0356
549.00,0.0356
548.00,0.0357
547.00,0.0358
546.00,0.0358
545.00,0.0358
544.00,0.0358
543.00,0.0358
542.00,0.0358
541.00,0.0358
540.00,0.0358
539.00,0.0358
538.00,0.0358
537.00,0.0358
536.00,0.0358
535.00,0.0359
534.00,0.0359
533.00,0.0359
532.00,0.0359
531.00,0.0359
530.00,0.0359
529.00,0.0359
528.00,0.0360
527.00,0.0361
526.00,0.0362
525.00,0.0363
524.00,0.0364
523.00,0.0364
522.00,0.0364
521.00,0.0365
520.00,0.0365
519.00,0.0365
518.00,0.0365
517.00,0.0365
516.00,0.0365
515.00,0.0364
514.00,0.0363
513.00,0.0361
512.00,0.0361
511.00,0.0360
510.00,0.0360
509.00,0.0361
508.00,0.0362
507.00,0.0363
506.00,0.0363
505.00,0.0363
504.00,0.0363
503.00,0.0363
502.00,0.0363
501.00,0.0363
500.00,0.0364
499.00,0.0364
498.00,0.0364
497.00,0.0363
496.00,0.0362
495.00,0.0362
494.00,0.0361
493.00,0.0362
492.00,0.0363
491.00,0.0363
490.00,0.0362
489.00,0.0362
488.00,0.0363
487.00,0.0364
486.00,0.0364
485.00,0.0364
484.00,0.0364
483.00,0.0363
482.00,0.0361
481.00,0.0361
480.00,0.0362
479.00,0.0363
478.00,0.0363
477.00,0.0363
476.00,0.0362
475.00,0.0362
474.00,0.0361
473.00,0.0361
472.00,0.0362
471.00,0.0362
470.00,0.0362
469.00,0.0362
468.00,0.0364
467.00,0.0365
466.00,0.0364
465.00,0.0363
464.00,0.0362
463.00,0.0362
462.00,0.0361
461.00,0.0362
460.00,0.0364
459.00,0.0365
458.00,0.0365
457.00,0.0365
456.00,0.0365
455.00,0.0365
454.00,0.0363
453.00,0.0362
452.00,0.0362
451.00,0.0362
450.00,0.0361
449.00,0.0359
448.00,0.0357
447.00,0.0356
446.00,0.0354
445.00,0.0354
444.00,0.0354
443.00,0.0353
442.00,0.0350
441.00,0.0346
440.00,0.0342
439.00,0.0339
438.00,0.0337
437.00,0.0335
436.00,0.0334
435.00,0.0334
434.00,0.0332
433.00,0.0331
432.00,0.0329
431.00,0.0327
430.00,0.0323
429.00,0.0320
428.00,0.0317
427.00,0.0315
426.00,0.0313
425.00,0.0311
424.00,0.0311
423.00,0.0311
422.00,0.0310
421.00,0.0307
420.00,0.0303
419.00,0.0300
418.00,0.0297
417.00,0.0296
416.00,0.0297
415.00,0.0298
414.00,0.0297
413.00,0.0296
412.00,0.0297
411.00,0.0296
410.00,0.0292
409.00,0.0288
408.00,0.0286
407.00,0.0288
406.00,0.0291
405.00,0.0292
404.00,0.0293
403.00,0.0294
402.00,0.0298
401.00,0.0303
400.00,0.0309
