Created as New Dataset,Sample 313 By YargerLab Date Sunday, August 18 2024
cm-1,A
4000.00,0.0061
3999.00,0.0061
3998.00,0.0061
3997.00,0.0061
3996.00,0.0061
3995.00,0.0061
3994.00,0.0061
3993.00,0.0061
3992.00,0.0061
3991.00,0.0061
3990.00,0.0061
3989.00,0.0061
3988.00,0.0062
3987.00,0.0062
3986.00,0.0062
3985.00,0.0061
3984.00,0.0061
3983.00,0.0061
3982.00,0.0061
3981.00,0.0061
3980.00,0.0061
3979.00,0.0061
3978.00,0.0061
3977.00,0.0061
3976.00,0.0061
3975.00,0.0061
3974.00,0.0061
3973.00,0.0061
3972.00,0.0061
3971.00,0.0061
3970.00,0.0061
3969.00,0.0061
3968.00,0.0061
3967.00,0.0061
3966.00,0.0061
3965.00,0.0061
3964.00,0.0061
3963.00,0.0061
3962.00,0.0061
3961.00,0.0061
3960.00,0.0061
3959.00,0.0061
3958.00,0.0061
3957.00,0.0061
3956.00,0.0061
3955.00,0.0061
3954.00,0.0061
3953.00,0.0061
3952.00,0.0061
3951.00,0.0061
3950.00,0.0061
3949.00,0.0061
3948.00,0.0061
3947.00,0.0061
3946.00,0.0061
3945.00,0.0061
3944.00,0.0061
3943.00,0.0061
3942.00,0.0061
3941.00,0.0061
3940.00,0.0061
3939.00,0.0061
3938.00,0.0061
3937.00,0.0061
3936.00,0.0061
3935.00,0.0061
3934.00,0.0061
3933.00,0.0061
3932.00,0.0061
3931.00,0.0061
3930.00,0.0061
3929.00,0.0061
3928.00,0.0060
3927.00,0.0060
3926.00,0.0060
3925.00,0.0060
3924.00,0.0061
3923.00,0.0061
3922.00,0.0061
3921.00,0.0061
3920.00,0.0061
3919.00,0.0061
3918.00,0.0061
3917.00,0.0061
3916.00,0.0061
3915.00,0.0061
3914.00,0.0060
3913.00,0.0060
3912.00,0.0060
3911.00,0.0061
3910.00,0.0061
3909.00,0.0060
3908.00,0.0060
3907.00,0.0060
3906.00,0.0060
3905.00,0.0061
3904.00,0.0061
3903.00,0.0061
3902.00,0.0061
3901.00,0.0061
3900.00,0.0060
3899.00,0.0060
3898.00,0.0060
3897.00,0.0060
3896.00,0.0060
3895.00,0.0060
3894.00,0.0060
3893.00,0.0060
3892.00,0.0060
3891.00,0.0060
3890.00,0.0061
3889.00,0.0061
3888.00,0.0061
3887.00,0.0060
3886.00,0.0060
3885.00,0.0060
3884.00,0.0060
3883.00,0.0060
3882.00,0.0060
3881.00,0.0060
3880.00,0.0060
3879.00,0.0060
3878.00,0.0060
3877.00,0.0060
3876.00,0.0060
3875.00,0.0060
3874.00,0.0060
3873.00,0.0060
3872.00,0.0060
3871.00,0.0060
3870.00,0.0060
3869.00,0.0060
3868.00,0.0060
3867.00,0.0060
3866.00,0.0060
3865.00,0.0059
3864.00,0.0059
3863.00,0.0060
3862.00,0.0060
3861.00,0.0060
3860.00,0.0060
3859.00,0.0059
3858.00,0.0059
3857.00,0.0059
3856.00,0.0059
3855.00,0.0059
3854.00,0.0059
3853.00,0.0058
3852.00,0.0058
3851.00,0.0058
3850.00,0.0058
3849.00,0.0059
3848.00,0.0059
3847.00,0.0059
3846.00,0.0059
3845.00,0.0059
3844.00,0.0059
3843.00,0.0059
3842.00,0.0059
3841.00,0.0059
3840.00,0.0059
3839.00,0.0059
3838.00,0.0059
3837.00,0.0059
3836.00,0.0059
3835.00,0.0059
3834.00,0.0059
3833.00,0.0059
3832.00,0.0059
3831.00,0.0059
3830.00,0.0059
3829.00,0.0059
3828.00,0.0059
3827.00,0.0059
3826.00,0.0059
3825.00,0.0059
3824.00,0.0059
3823.00,0.0059
3822.00,0.0059
3821.00,0.0059
3820.00,0.0058
3819.00,0.0058
3818.00,0.0058
3817.00,0.0058
3816.00,0.0058
3815.00,0.0058
3814.00,0.0058
3813.00,0.0058
3812.00,0.0058
3811.00,0.0058
3810.00,0.0059
3809.00,0.0059
3808.00,0.0059
3807.00,0.0059
3806.00,0.0058
3805.00,0.0058
3804.00,0.0058
3803.00,0.0057
3802.00,0.0057
3801.00,0.0057
3800.00,0.0057
3799.00,0.0057
3798.00,0.0058
3797.00,0.0058
3796.00,0.0058
3795.00,0.0058
3794.00,0.0058
3793.00,0.0058
3792.00,0.0058
3791.00,0.0058
3790.00,0.0058
3789.00,0.0058
3788.00,0.0058
3787.00,0.0058
3786.00,0.0058
3785.00,0.0058
3784.00,0.0058
3783.00,0.0058
3782.00,0.0058
3781.00,0.0057
3780.00,0.0057
3779.00,0.0057
3778.00,0.0057
3777.00,0.0057
3776.00,0.0057
3775.00,0.0057
3774.00,0.0057
3773.00,0.0057
3772.00,0.0057
3771.00,0.0057
3770.00,0.0057
3769.00,0.0057
3768.00,0.0057
3767.00,0.0057
3766.00,0.0057
3765.00,0.0057
3764.00,0.0057
3763.00,0.0057
3762.00,0.0057
3761.00,0.0057
3760.00,0.0057
3759.00,0.0057
3758.00,0.0057
3757.00,0.0057
3756.00,0.0057
3755.00,0.0057
3754.00,0.0057
3753.00,0.0057
3752.00,0.0058
3751.00,0.0058
3750.00,0.0058
3749.00,0.0057
3748.00,0.0057
3747.00,0.0057
3746.00,0.0057
3745.00,0.0057
3744.00,0.0057
3743.00,0.0057
3742.00,0.0057
3741.00,0.0057
3740.00,0.0057
3739.00,0.0057
3738.00,0.0057
3737.00,0.0057
3736.00,0.0057
3735.00,0.0057
3734.00,0.0057
3733.00,0.0056
3732.00,0.0056
3731.00,0.0056
3730.00,0.0056
3729.00,0.0057
3728.00,0.0057
3727.00,0.0057
3726.00,0.0057
3725.00,0.0057
3724.00,0.0057
3723.00,0.0056
3722.00,0.0056
3721.00,0.0056
3720.00,0.0056
3719.00,0.0055
3718.00,0.0055
3717.00,0.0055
3716.00,0.0055
3715.00,0.0055
3714.00,0.0055
3713.00,0.0055
3712.00,0.0055
3711.00,0.0055
3710.00,0.0055
3709.00,0.0055
3708.00,0.0055
3707.00,0.0055
3706.00,0.0055
3705.00,0.0055
3704.00,0.0054
3703.00,0.0054
3702.00,0.0054
3701.00,0.0054
3700.00,0.0054
3699.00,0.0054
3698.00,0.0054
3697.00,0.0054
3696.00,0.0054
3695.00,0.0054
3694.00,0.0054
3693.00,0.0054
3692.00,0.0054
3691.00,0.0053
3690.00,0.0053
3689.00,0.0053
3688.00,0.0053
3687.00,0.0053
3686.00,0.0054
3685.00,0.0054
3684.00,0.0054
3683.00,0.0054
3682.00,0.0054
3681.00,0.0055
3680.00,0.0055
3679.00,0.0055
3678.00,0.0055
3677.00,0.0055
3676.00,0.0054
3675.00,0.0054
3674.00,0.0054
3673.00,0.0054
3672.00,0.0054
3671.00,0.0054
3670.00,0.0054
3669.00,0.0054
3668.00,0.0054
3667.00,0.0055
3666.00,0.0055
3665.00,0.0055
3664.00,0.0055
3663.00,0.0055
3662.00,0.0055
3661.00,0.0056
3660.00,0.0056
3659.00,0.0056
3658.00,0.0056
3657.00,0.0056
3656.00,0.0056
3655.00,0.0056
3654.00,0.0056
3653.00,0.0056
3652.00,0.0056
3651.00,0.0056
3650.00,0.0057
3649.00,0.0057
3648.00,0.0057
3647.00,0.0057
3646.00,0.0057
3645.00,0.0057
3644.00,0.0057
3643.00,0.0057
3642.00,0.0057
3641.00,0.0058
3640.00,0.0058
3639.00,0.0058
3638.00,0.0058
3637.00,0.0058
3636.00,0.0059
3635.00,0.0059
3634.00,0.0059
3633.00,0.0059
3632.00,0.0060
3631.00,0.0060
3630.00,0.0060
3629.00,0.0060
3628.00,0.0060
3627.00,0.0060
3626.00,0.0060
3625.00,0.0061
3624.00,0.0061
3623.00,0.0061
3622.00,0.0061
3621.00,0.0061
3620.00,0.0061
3619.00,0.0061
3618.00,0.0062
3617.00,0.0062
3616.00,0.0063
3615.00,0.0063
3614.00,0.0063
3613.00,0.0064
3612.00,0.0064
3611.00,0.0064
3610.00,0.0064
3609.00,0.0064
3608.00,0.0064
3607.00,0.0064
3606.00,0.0064
3605.00,0.0064
3604.00,0.0065
3603.00,0.0065
3602.00,0.0065
3601.00,0.0065
3600.00,0.0066
3599.00,0.0066
3598.00,0.0066
3597.00,0.0066
3596.00,0.0066
3595.00,0.0067
3594.00,0.0067
3593.00,0.0068
3592.00,0.0068
3591.00,0.0068
3590.00,0.0068
3589.00,0.0068
3588.00,0.0068
3587.00,0.0069
3586.00,0.0069
3585.00,0.0069
3584.00,0.0070
3583.00,0.0070
3582.00,0.0070
3581.00,0.0070
3580.00,0.0071
3579.00,0.0071
3578.00,0.0071
3577.00,0.0071
3576.00,0.0072
3575.00,0.0072
3574.00,0.0072
3573.00,0.0073
3572.00,0.0073
3571.00,0.0074
3570.00,0.0074
3569.00,0.0074
3568.00,0.0074
3567.00,0.0075
3566.00,0.0075
3565.00,0.0075
3564.00,0.0075
3563.00,0.0076
3562.00,0.0076
3561.00,0.0076
3560.00,0.0077
3559.00,0.0077
3558.00,0.0077
3557.00,0.0078
3556.00,0.0078
3555.00,0.0079
3554.00,0.0079
3553.00,0.0079
3552.00,0.0080
3551.00,0.0080
3550.00,0.0080
3549.00,0.0081
3548.00,0.0081
3547.00,0.0082
3546.00,0.0082
3545.00,0.0083
3544.00,0.0083
3543.00,0.0083
3542.00,0.0083
3541.00,0.0083
3540.00,0.0083
3539.00,0.0084
3538.00,0.0084
3537.00,0.0085
3536.00,0.0085
3535.00,0.0085
3534.00,0.0085
3533.00,0.0086
3532.00,0.0086
3531.00,0.0086
3530.00,0.0087
3529.00,0.0087
3528.00,0.0088
3527.00,0.0088
3526.00,0.0089
3525.00,0.0089
3524.00,0.0089
3523.00,0.0089
3522.00,0.0090
3521.00,0.0090
3520.00,0.0090
3519.00,0.0090
3518.00,0.0091
3517.00,0.0091
3516.00,0.0091
3515.00,0.0092
3514.00,0.0092
3513.00,0.0092
3512.00,0.0093
3511.00,0.0093
3510.00,0.0093
3509.00,0.0093
3508.00,0.0094
3507.00,0.0094
3506.00,0.0094
3505.00,0.0095
3504.00,0.0096
3503.00,0.0096
3502.00,0.0096
3501.00,0.0097
3500.00,0.0097
3499.00,0.0097
3498.00,0.0098
3497.00,0.0098
3496.00,0.0098
3495.00,0.0099
3494.00,0.0099
3493.00,0.0099
3492.00,0.0099
3491.00,0.0100
3490.00,0.0100
3489.00,0.0100
3488.00,0.0101
3487.00,0.0101
3486.00,0.0102
3485.00,0.0102
3484.00,0.0102
3483.00,0.0102
3482.00,0.0103
3481.00,0.0103
3480.00,0.0103
3479.00,0.0104
3478.00,0.0104
3477.00,0.0104
3476.00,0.0105
3475.00,0.0105
3474.00,0.0106
3473.00,0.0106
3472.00,0.0107
3471.00,0.0107
3470.00,0.0107
3469.00,0.0108
3468.00,0.0108
3467.00,0.0108
3466.00,0.0108
3465.00,0.0109
3464.00,0.0109
3463.00,0.0110
3462.00,0.0110
3461.00,0.0110
3460.00,0.0111
3459.00,0.0111
3458.00,0.0111
3457.00,0.0111
3456.00,0.0112
3455.00,0.0112
3454.00,0.0112
3453.00,0.0113
3452.00,0.0113
3451.00,0.0114
3450.00,0.0114
3449.00,0.0114
3448.00,0.0114
3447.00,0.0115
3446.00,0.0115
3445.00,0.0116
3444.00,0.0116
3443.00,0.0117
3442.00,0.0117
3441.00,0.0117
3440.00,0.0118
3439.00,0.0118
3438.00,0.0118
3437.00,0.0119
3436.00,0.0119
3435.00,0.0119
3434.00,0.0120
3433.00,0.0120
3432.00,0.0120
3431.00,0.0121
3430.00,0.0121
3429.00,0.0121
3428.00,0.0122
3427.00,0.0122
3426.00,0.0123
3425.00,0.0123
3424.00,0.0123
3423.00,0.0124
3422.00,0.0124
3421.00,0.0124
3420.00,0.0124
3419.00,0.0125
3418.00,0.0125
3417.00,0.0125
3416.00,0.0126
3415.00,0.0126
3414.00,0.0127
3413.00,0.0127
3412.00,0.0127
3411.00,0.0128
3410.00,0.0128
3409.00,0.0128
3408.00,0.0129
3407.00,0.0129
3406.00,0.0129
3405.00,0.0129
3404.00,0.0130
3403.00,0.0130
3402.00,0.0131
3401.00,0.0131
3400.00,0.0131
3399.00,0.0131
3398.00,0.0132
3397.00,0.0132
3396.00,0.0132
3395.00,0.0132
3394.00,0.0133
3393.00,0.0133
3392.00,0.0133
3391.00,0.0134
3390.00,0.0134
3389.00,0.0134
3388.00,0.0134
3387.00,0.0135
3386.00,0.0135
3385.00,0.0135
3384.00,0.0136
3383.00,0.0136
3382.00,0.0136
3381.00,0.0137
3380.00,0.0137
3379.00,0.0137
3378.00,0.0138
3377.00,0.0138
3376.00,0.0138
3375.00,0.0139
3374.00,0.0139
3373.00,0.0139
3372.00,0.0140
3371.00,0.0140
3370.00,0.0141
3369.00,0.0141
3368.00,0.0142
3367.00,0.0142
3366.00,0.0143
3365.00,0.0143
3364.00,0.0143
3363.00,0.0143
3362.00,0.0144
3361.00,0.0144
3360.00,0.0145
3359.00,0.0145
3358.00,0.0146
3357.00,0.0146
3356.00,0.0147
3355.00,0.0147
3354.00,0.0148
3353.00,0.0149
3352.00,0.0149
3351.00,0.0150
3350.00,0.0150
3349.00,0.0151
3348.00,0.0151
3347.00,0.0152
3346.00,0.0152
3345.00,0.0153
3344.00,0.0153
3343.00,0.0154
3342.00,0.0155
3341.00,0.0155
3340.00,0.0156
3339.00,0.0157
3338.00,0.0158
3337.00,0.0158
3336.00,0.0159
3335.00,0.0159
3334.00,0.0160
3333.00,0.0161
3332.00,0.0162
3331.00,0.0162
3330.00,0.0163
3329.00,0.0164
3328.00,0.0165
3327.00,0.0166
3326.00,0.0166
3325.00,0.0167
3324.00,0.0168
3323.00,0.0169
3322.00,0.0170
3321.00,0.0171
3320.00,0.0172
3319.00,0.0173
3318.00,0.0174
3317.00,0.0175
3316.00,0.0176
3315.00,0.0177
3314.00,0.0178
3313.00,0.0179
3312.00,0.0181
3311.00,0.0182
3310.00,0.0183
3309.00,0.0184
3308.00,0.0185
3307.00,0.0187
3306.00,0.0188
3305.00,0.0189
3304.00,0.0191
3303.00,0.0192
3302.00,0.0193
3301.00,0.0194
3300.00,0.0195
3299.00,0.0197
3298.00,0.0198
3297.00,0.0199
3296.00,0.0201
3295.00,0.0202
3294.00,0.0203
3293.00,0.0205
3292.00,0.0206
3291.00,0.0207
3290.00,0.0208
3289.00,0.0210
3288.00,0.0211
3287.00,0.0212
3286.00,0.0213
3285.00,0.0214
3284.00,0.0215
3283.00,0.0216
3282.00,0.0217
3281.00,0.0218
3280.00,0.0218
3279.00,0.0219
3278.00,0.0220
3277.00,0.0220
3276.00,0.0221
3275.00,0.0221
3274.00,0.0221
3273.00,0.0221
3272.00,0.0221
3271.00,0.0221
3270.00,0.0221
3269.00,0.0220
3268.00,0.0220
3267.00,0.0219
3266.00,0.0219
3265.00,0.0218
3264.00,0.0217
3263.00,0.0217
3262.00,0.0216
3261.00,0.0215
3260.00,0.0214
3259.00,0.0213
3258.00,0.0212
3257.00,0.0211
3256.00,0.0210
3255.00,0.0209
3254.00,0.0208
3253.00,0.0207
3252.00,0.0206
3251.00,0.0204
3250.00,0.0203
3249.00,0.0202
3248.00,0.0201
3247.00,0.0200
3246.00,0.0199
3245.00,0.0198
3244.00,0.0197
3243.00,0.0196
3242.00,0.0195
3241.00,0.0194
3240.00,0.0193
3239.00,0.0192
3238.00,0.0191
3237.00,0.0190
3236.00,0.0189
3235.00,0.0188
3234.00,0.0187
3233.00,0.0186
3232.00,0.0186
3231.00,0.0185
3230.00,0.0184
3229.00,0.0183
3228.00,0.0182
3227.00,0.0182
3226.00,0.0181
3225.00,0.0181
3224.00,0.0180
3223.00,0.0179
3222.00,0.0179
3221.00,0.0178
3220.00,0.0177
3219.00,0.0177
3218.00,0.0176
3217.00,0.0176
3216.00,0.0175
3215.00,0.0175
3214.00,0.0174
3213.00,0.0174
3212.00,0.0173
3211.00,0.0173
3210.00,0.0172
3209.00,0.0171
3208.00,0.0171
3207.00,0.0170
3206.00,0.0170
3205.00,0.0169
3204.00,0.0169
3203.00,0.0168
3202.00,0.0168
3201.00,0.0167
3200.00,0.0167
3199.00,0.0166
3198.00,0.0166
3197.00,0.0165
3196.00,0.0164
3195.00,0.0164
3194.00,0.0163
3193.00,0.0163
3192.00,0.0162
3191.00,0.0162
3190.00,0.0161
3189.00,0.0161
3188.00,0.0160
3187.00,0.0160
3186.00,0.0159
3185.00,0.0159
3184.00,0.0158
3183.00,0.0158
3182.00,0.0157
3181.00,0.0156
3180.00,0.0156
3179.00,0.0155
3178.00,0.0155
3177.00,0.0154
3176.00,0.0153
3175.00,0.0153
3174.00,0.0152
3173.00,0.0152
3172.00,0.0151
3171.00,0.0151
3170.00,0.0150
3169.00,0.0150
3168.00,0.0149
3167.00,0.0149
3166.00,0.0148
3165.00,0.0147
3164.00,0.0147
3163.00,0.0146
3162.00,0.0145
3161.00,0.0145
3160.00,0.0144
3159.00,0.0144
3158.00,0.0144
3157.00,0.0143
3156.00,0.0143
3155.00,0.0142
3154.00,0.0141
3153.00,0.0141
3152.00,0.0140
3151.00,0.0140
3150.00,0.0139
3149.00,0.0139
3148.00,0.0138
3147.00,0.0138
3146.00,0.0137
3145.00,0.0137
3144.00,0.0137
3143.00,0.0136
3142.00,0.0136
3141.00,0.0135
3140.00,0.0135
3139.00,0.0135
3138.00,0.0134
3137.00,0.0134
3136.00,0.0133
3135.00,0.0133
3134.00,0.0133
3133.00,0.0132
3132.00,0.0132
3131.00,0.0132
3130.00,0.0131
3129.00,0.0131
3128.00,0.0131
3127.00,0.0130
3126.00,0.0130
3125.00,0.0129
3124.00,0.0129
3123.00,0.0129
3122.00,0.0129
3121.00,0.0128
3120.00,0.0128
3119.00,0.0128
3118.00,0.0128
3117.00,0.0128
3116.00,0.0128
3115.00,0.0128
3114.00,0.0127
3113.00,0.0127
3112.00,0.0127
3111.00,0.0127
3110.00,0.0127
3109.00,0.0127
3108.00,0.0127
3107.00,0.0127
3106.00,0.0127
3105.00,0.0127
3104.00,0.0126
3103.00,0.0126
3102.00,0.0126
3101.00,0.0126
3100.00,0.0126
3099.00,0.0126
3098.00,0.0126
3097.00,0.0126
3096.00,0.0126
3095.00,0.0127
3094.00,0.0127
3093.00,0.0127
3092.00,0.0126
3091.00,0.0127
3090.00,0.0127
3089.00,0.0127
3088.00,0.0127
3087.00,0.0127
3086.00,0.0127
3085.00,0.0127
3084.00,0.0127
3083.00,0.0127
3082.00,0.0127
3081.00,0.0127
3080.00,0.0127
3079.00,0.0127
3078.00,0.0127
3077.00,0.0127
3076.00,0.0127
3075.00,0.0127
3074.00,0.0127
3073.00,0.0127
3072.00,0.0127
3071.00,0.0127
3070.00,0.0127
3069.00,0.0126
3068.00,0.0126
3067.00,0.0126
3066.00,0.0126
3065.00,0.0126
3064.00,0.0126
3063.00,0.0126
3062.00,0.0126
3061.00,0.0125
3060.00,0.0125
3059.00,0.0125
3058.00,0.0125
3057.00,0.0124
3056.00,0.0124
3055.00,0.0124
3054.00,0.0124
3053.00,0.0123
3052.00,0.0123
3051.00,0.0123
3050.00,0.0122
3049.00,0.0122
3048.00,0.0122
3047.00,0.0121
3046.00,0.0121
3045.00,0.0120
3044.00,0.0120
3043.00,0.0120
3042.00,0.0119
3041.00,0.0119
3040.00,0.0119
3039.00,0.0118
3038.00,0.0118
3037.00,0.0118
3036.00,0.0117
3035.00,0.0117
3034.00,0.0117
3033.00,0.0116
3032.00,0.0116
3031.00,0.0116
3030.00,0.0116
3029.00,0.0115
3028.00,0.0115
3027.00,0.0115
3026.00,0.0114
3025.00,0.0114
3024.00,0.0113
3023.00,0.0113
3022.00,0.0113
3021.00,0.0112
3020.00,0.0112
3019.00,0.0112
3018.00,0.0111
3017.00,0.0111
3016.00,0.0111
3015.00,0.0110
3014.00,0.0110
3013.00,0.0110
3012.00,0.0109
3011.00,0.0109
3010.00,0.0109
3009.00,0.0109
3008.00,0.0109
3007.00,0.0109
3006.00,0.0109
3005.00,0.0109
3004.00,0.0109
3003.00,0.0108
3002.00,0.0108
3001.00,0.0108
3000.00,0.0108
2999.00,0.0108
2998.00,0.0108
2997.00,0.0108
2996.00,0.0108
2995.00,0.0108
2994.00,0.0108
2993.00,0.0109
2992.00,0.0109
2991.00,0.0109
2990.00,0.0110
2989.00,0.0110
2988.00,0.0110
2987.00,0.0111
2986.00,0.0111
2985.00,0.0111
2984.00,0.0112
2983.00,0.0112
2982.00,0.0112
2981.00,0.0113
2980.00,0.0113
2979.00,0.0113
2978.00,0.0114
2977.00,0.0114
2976.00,0.0114
2975.00,0.0114
2974.00,0.0115
2973.00,0.0115
2972.00,0.0115
2971.00,0.0115
2970.00,0.0115
2969.00,0.0115
2968.00,0.0115
2967.00,0.0115
2966.00,0.0115
2965.00,0.0115
2964.00,0.0115
2963.00,0.0115
2962.00,0.0114
2961.00,0.0114
2960.00,0.0114
2959.00,0.0114
2958.00,0.0113
2957.00,0.0113
2956.00,0.0113
2955.00,0.0113
2954.00,0.0113
2953.00,0.0113
2952.00,0.0113
2951.00,0.0113
2950.00,0.0113
2949.00,0.0113
2948.00,0.0114
2947.00,0.0114
2946.00,0.0114
2945.00,0.0114
2944.00,0.0114
2943.00,0.0114
2942.00,0.0114
2941.00,0.0115
2940.00,0.0115
2939.00,0.0115
2938.00,0.0115
2937.00,0.0115
2936.00,0.0114
2935.00,0.0114
2934.00,0.0114
2933.00,0.0114
2932.00,0.0113
2931.00,0.0112
2930.00,0.0112
2929.00,0.0111
2928.00,0.0110
2927.00,0.0109
2926.00,0.0108
2925.00,0.0107
2924.00,0.0105
2923.00,0.0104
2922.00,0.0102
2921.00,0.0101
2920.00,0.0099
2919.00,0.0097
2918.00,0.0096
2917.00,0.0095
2916.00,0.0095
2915.00,0.0095
2914.00,0.0097
2913.00,0.0098
2912.00,0.0100
2911.00,0.0102
2910.00,0.0103
2909.00,0.0103
2908.00,0.0103
2907.00,0.0104
2906.00,0.0104
2905.00,0.0104
2904.00,0.0104
2903.00,0.0104
2902.00,0.0104
2901.00,0.0104
2900.00,0.0104
2899.00,0.0104
2898.00,0.0104
2897.00,0.0104
2896.00,0.0104
2895.00,0.0104
2894.00,0.0104
2893.00,0.0104
2892.00,0.0104
2891.00,0.0104
2890.00,0.0105
2889.00,0.0105
2888.00,0.0105
2887.00,0.0105
2886.00,0.0106
2885.00,0.0106
2884.00,0.0106
2883.00,0.0106
2882.00,0.0107
2881.00,0.0107
2880.00,0.0107
2879.00,0.0107
2878.00,0.0107
2877.00,0.0107
2876.00,0.0107
2875.00,0.0107
2874.00,0.0107
2873.00,0.0107
2872.00,0.0107
2871.00,0.0107
2870.00,0.0106
2869.00,0.0106
2868.00,0.0105
2867.00,0.0105
2866.00,0.0104
2865.00,0.0103
2864.00,0.0103
2863.00,0.0102
2862.00,0.0101
2861.00,0.0101
2860.00,0.0100
2859.00,0.0099
2858.00,0.0098
2857.00,0.0098
2856.00,0.0097
2855.00,0.0096
2854.00,0.0094
2853.00,0.0093
2852.00,0.0091
2851.00,0.0089
2850.00,0.0088
2849.00,0.0087
2848.00,0.0087
2847.00,0.0088
2846.00,0.0090
2845.00,0.0092
2844.00,0.0093
2843.00,0.0094
2842.00,0.0095
2841.00,0.0095
2840.00,0.0095
2839.00,0.0096
2838.00,0.0096
2837.00,0.0096
2836.00,0.0095
2835.00,0.0095
2834.00,0.0095
2833.00,0.0095
2832.00,0.0095
2831.00,0.0095
2830.00,0.0095
2829.00,0.0095
2828.00,0.0094
2827.00,0.0094
2826.00,0.0094
2825.00,0.0094
2824.00,0.0094
2823.00,0.0094
2822.00,0.0094
2821.00,0.0094
2820.00,0.0093
2819.00,0.0093
2818.00,0.0093
2817.00,0.0093
2816.00,0.0093
2815.00,0.0093
2814.00,0.0093
2813.00,0.0093
2812.00,0.0093
2811.00,0.0093
2810.00,0.0092
2809.00,0.0092
2808.00,0.0092
2807.00,0.0092
2806.00,0.0092
2805.00,0.0092
2804.00,0.0092
2803.00,0.0092
2802.00,0.0092
2801.00,0.0091
2800.00,0.0091
2799.00,0.0091
2798.00,0.0091
2797.00,0.0091
2796.00,0.0091
2795.00,0.0091
2794.00,0.0091
2793.00,0.0091
2792.00,0.0091
2791.00,0.0091
2790.00,0.0090
2789.00,0.0090
2788.00,0.0090
2787.00,0.0090
2786.00,0.0090
2785.00,0.0090
2784.00,0.0090
2783.00,0.0090
2782.00,0.0090
2781.00,0.0090
2780.00,0.0090
2779.00,0.0089
2778.00,0.0089
2777.00,0.0089
2776.00,0.0089
2775.00,0.0089
2774.00,0.0089
2773.00,0.0089
2772.00,0.0089
2771.00,0.0088
2770.00,0.0088
2769.00,0.0088
2768.00,0.0088
2767.00,0.0088
2766.00,0.0088
2765.00,0.0088
2764.00,0.0088
2763.00,0.0088
2762.00,0.0088
2761.00,0.0088
2760.00,0.0088
2759.00,0.0087
2758.00,0.0087
2757.00,0.0087
2756.00,0.0087
2755.00,0.0087
2754.00,0.0087
2753.00,0.0087
2752.00,0.0087
2751.00,0.0087
2750.00,0.0086
2749.00,0.0086
2748.00,0.0086
2747.00,0.0086
2746.00,0.0086
2745.00,0.0086
2744.00,0.0086
2743.00,0.0086
2742.00,0.0086
2741.00,0.0085
2740.00,0.0085
2739.00,0.0085
2738.00,0.0085
2737.00,0.0085
2736.00,0.0085
2735.00,0.0085
2734.00,0.0085
2733.00,0.0085
2732.00,0.0085
2731.00,0.0085
2730.00,0.0085
2729.00,0.0085
2728.00,0.0084
2727.00,0.0084
2726.00,0.0084
2725.00,0.0084
2724.00,0.0084
2723.00,0.0084
2722.00,0.0084
2721.00,0.0084
2720.00,0.0084
2719.00,0.0083
2718.00,0.0083
2717.00,0.0083
2716.00,0.0083
2715.00,0.0083
2714.00,0.0083
2713.00,0.0083
2712.00,0.0083
2711.00,0.0082
2710.00,0.0082
2709.00,0.0082
2708.00,0.0082
2707.00,0.0082
2706.00,0.0082
2705.00,0.0082
2704.00,0.0082
2703.00,0.0082
2702.00,0.0082
2701.00,0.0082
2700.00,0.0082
2699.00,0.0082
2698.00,0.0081
2697.00,0.0081
2696.00,0.0081
2695.00,0.0081
2694.00,0.0081
2693.00,0.0081
2692.00,0.0081
2691.00,0.0081
2690.00,0.0081
2689.00,0.0080
2688.00,0.0080
2687.00,0.0080
2686.00,0.0080
2685.00,0.0080
2684.00,0.0080
2683.00,0.0080
2682.00,0.0080
2681.00,0.0080
2680.00,0.0080
2679.00,0.0080
2678.00,0.0080
2677.00,0.0080
2676.00,0.0080
2675.00,0.0080
2674.00,0.0080
2673.00,0.0080
2672.00,0.0080
2671.00,0.0080
2670.00,0.0080
2669.00,0.0080
2668.00,0.0080
2667.00,0.0080
2666.00,0.0080
2665.00,0.0080
2664.00,0.0081
2663.00,0.0081
2662.00,0.0081
2661.00,0.0081
2660.00,0.0082
2659.00,0.0082
2658.00,0.0082
2657.00,0.0082
2656.00,0.0082
2655.00,0.0082
2654.00,0.0082
2653.00,0.0082
2652.00,0.0082
2651.00,0.0082
2650.00,0.0082
2649.00,0.0082
2648.00,0.0082
2647.00,0.0081
2646.00,0.0081
2645.00,0.0081
2644.00,0.0081
2643.00,0.0081
2642.00,0.0081
2641.00,0.0081
2640.00,0.0081
2639.00,0.0081
2638.00,0.0080
2637.00,0.0080
2636.00,0.0080
2635.00,0.0080
2634.00,0.0080
2633.00,0.0080
2632.00,0.0080
2631.00,0.0079
2630.00,0.0079
2629.00,0.0079
2628.00,0.0079
2627.00,0.0079
2626.00,0.0079
2625.00,0.0079
2624.00,0.0079
2623.00,0.0079
2622.00,0.0078
2621.00,0.0078
2620.00,0.0078
2619.00,0.0078
2618.00,0.0078
2617.00,0.0078
2616.00,0.0078
2615.00,0.0077
2614.00,0.0077
2613.00,0.0077
2612.00,0.0077
2611.00,0.0077
2610.00,0.0077
2609.00,0.0077
2608.00,0.0077
2607.00,0.0077
2606.00,0.0077
2605.00,0.0076
2604.00,0.0076
2603.00,0.0076
2602.00,0.0076
2601.00,0.0075
2600.00,0.0075
2599.00,0.0075
2598.00,0.0075
2597.00,0.0075
2596.00,0.0075
2595.00,0.0075
2594.00,0.0075
2593.00,0.0074
2592.00,0.0074
2591.00,0.0074
2590.00,0.0074
2589.00,0.0074
2588.00,0.0074
2587.00,0.0074
2586.00,0.0074
2585.00,0.0074
2584.00,0.0073
2583.00,0.0073
2582.00,0.0073
2581.00,0.0073
2580.00,0.0073
2579.00,0.0073
2578.00,0.0073
2577.00,0.0073
2576.00,0.0072
2575.00,0.0072
2574.00,0.0072
2573.00,0.0072
2572.00,0.0072
2571.00,0.0072
2570.00,0.0072
2569.00,0.0072
2568.00,0.0072
2567.00,0.0072
2566.00,0.0071
2565.00,0.0071
2564.00,0.0071
2563.00,0.0071
2562.00,0.0071
2561.00,0.0071
2560.00,0.0071
2559.00,0.0071
2558.00,0.0071
2557.00,0.0071
2556.00,0.0071
2555.00,0.0071
2554.00,0.0071
2553.00,0.0071
2552.00,0.0071
2551.00,0.0071
2550.00,0.0071
2549.00,0.0071
2548.00,0.0071
2547.00,0.0070
2546.00,0.0070
2545.00,0.0070
2544.00,0.0070
2543.00,0.0069
2542.00,0.0069
2541.00,0.0070
2540.00,0.0070
2539.00,0.0069
2538.00,0.0069
2537.00,0.0069
2536.00,0.0069
2535.00,0.0069
2534.00,0.0069
2533.00,0.0069
2532.00,0.0069
2531.00,0.0069
2530.00,0.0069
2529.00,0.0069
2528.00,0.0068
2527.00,0.0068
2526.00,0.0068
2525.00,0.0068
2524.00,0.0068
2523.00,0.0068
2522.00,0.0068
2521.00,0.0068
2520.00,0.0067
2519.00,0.0067
2518.00,0.0067
2517.00,0.0067
2516.00,0.0067
2515.00,0.0067
2514.00,0.0067
2513.00,0.0067
2512.00,0.0067
2511.00,0.0067
2510.00,0.0067
2509.00,0.0067
2508.00,0.0067
2507.00,0.0067
2506.00,0.0067
2505.00,0.0067
2504.00,0.0067
2503.00,0.0067
2502.00,0.0067
2501.00,0.0067
2500.00,0.0067
2499.00,0.0067
2498.00,0.0067
2497.00,0.0067
2496.00,0.0067
2495.00,0.0067
2494.00,0.0067
2493.00,0.0067
2492.00,0.0067
2491.00,0.0066
2490.00,0.0066
2489.00,0.0066
2488.00,0.0066
2487.00,0.0066
2486.00,0.0066
2485.00,0.0066
2484.00,0.0066
2483.00,0.0066
2482.00,0.0066
2481.00,0.0065
2480.00,0.0065
2479.00,0.0065
2478.00,0.0065
2477.00,0.0065
2476.00,0.0065
2475.00,0.0066
2474.00,0.0066
2473.00,0.0066
2472.00,0.0066
2471.00,0.0065
2470.00,0.0065
2469.00,0.0065
2468.00,0.0065
2467.00,0.0066
2466.00,0.0066
2465.00,0.0066
2464.00,0.0066
2463.00,0.0066
2462.00,0.0065
2461.00,0.0065
2460.00,0.0066
2459.00,0.0066
2458.00,0.0066
2457.00,0.0066
2456.00,0.0066
2455.00,0.0066
2454.00,0.0066
2453.00,0.0066
2452.00,0.0066
2451.00,0.0066
2450.00,0.0065
2449.00,0.0065
2448.00,0.0065
2447.00,0.0065
2446.00,0.0065
2445.00,0.0065
2444.00,0.0064
2443.00,0.0064
2442.00,0.0064
2441.00,0.0064
2440.00,0.0064
2439.00,0.0064
2438.00,0.0064
2437.00,0.0064
2436.00,0.0064
2435.00,0.0063
2434.00,0.0063
2433.00,0.0063
2432.00,0.0063
2431.00,0.0063
2430.00,0.0063
2429.00,0.0062
2428.00,0.0062
2427.00,0.0062
2426.00,0.0062
2425.00,0.0062
2424.00,0.0062
2423.00,0.0062
2422.00,0.0062
2421.00,0.0062
2420.00,0.0062
2419.00,0.0062
2418.00,0.0062
2417.00,0.0062
2416.00,0.0062
2415.00,0.0062
2414.00,0.0062
2413.00,0.0062
2412.00,0.0062
2411.00,0.0062
2410.00,0.0062
2409.00,0.0061
2408.00,0.0061
2407.00,0.0060
2406.00,0.0060
2405.00,0.0060
2404.00,0.0060
2403.00,0.0060
2402.00,0.0059
2401.00,0.0059
2400.00,0.0059
2399.00,0.0059
2398.00,0.0059
2397.00,0.0059
2396.00,0.0059
2395.00,0.0059
2394.00,0.0059
2393.00,0.0059
2392.00,0.0059
2391.00,0.0059
2390.00,0.0059
2389.00,0.0058
2388.00,0.0058
2387.00,0.0058
2386.00,0.0057
2385.00,0.0057
2384.00,0.0056
2383.00,0.0055
2382.00,0.0055
2381.00,0.0054
2380.00,0.0054
2379.00,0.0053
2378.00,0.0054
2377.00,0.0054
2376.00,0.0054
2375.00,0.0055
2374.00,0.0055
2373.00,0.0054
2372.00,0.0054
2371.00,0.0053
2370.00,0.0053
2369.00,0.0052
2368.00,0.0052
2367.00,0.0053
2366.00,0.0053
2365.00,0.0054
2364.00,0.0054
2363.00,0.0055
2362.00,0.0055
2361.00,0.0055
2360.00,0.0056
2359.00,0.0055
2358.00,0.0055
2357.00,0.0055
2356.00,0.0055
2355.00,0.0055
2354.00,0.0055
2353.00,0.0055
2352.00,0.0055
2351.00,0.0055
2350.00,0.0055
2349.00,0.0056
2348.00,0.0057
2347.00,0.0058
2346.00,0.0057
2345.00,0.0057
2344.00,0.0057
2343.00,0.0058
2342.00,0.0058
2341.00,0.0058
2340.00,0.0058
2339.00,0.0058
2338.00,0.0058
2337.00,0.0058
2336.00,0.0058
2335.00,0.0058
2334.00,0.0058
2333.00,0.0057
2332.00,0.0057
2331.00,0.0056
2330.00,0.0057
2329.00,0.0058
2328.00,0.0061
2327.00,0.0065
2326.00,0.0067
2325.00,0.0068
2324.00,0.0068
2323.00,0.0066
2322.00,0.0064
2321.00,0.0063
2320.00,0.0062
2319.00,0.0062
2318.00,0.0062
2317.00,0.0062
2316.00,0.0061
2315.00,0.0061
2314.00,0.0060
2313.00,0.0060
2312.00,0.0059
2311.00,0.0059
2310.00,0.0059
2309.00,0.0059
2308.00,0.0059
2307.00,0.0059
2306.00,0.0059
2305.00,0.0059
2304.00,0.0060
2303.00,0.0060
2302.00,0.0060
2301.00,0.0061
2300.00,0.0061
2299.00,0.0062
2298.00,0.0062
2297.00,0.0062
2296.00,0.0063
2295.00,0.0063
2294.00,0.0064
2293.00,0.0065
2292.00,0.0066
2291.00,0.0066
2290.00,0.0067
2289.00,0.0067
2288.00,0.0068
2287.00,0.0068
2286.00,0.0068
2285.00,0.0067
2284.00,0.0067
2283.00,0.0066
2282.00,0.0065
2281.00,0.0065
2280.00,0.0065
2279.00,0.0064
2278.00,0.0064
2277.00,0.0064
2276.00,0.0064
2275.00,0.0064
2274.00,0.0064
2273.00,0.0064
2272.00,0.0064
2271.00,0.0063
2270.00,0.0063
2269.00,0.0062
2268.00,0.0062
2267.00,0.0061
2266.00,0.0061
2265.00,0.0061
2264.00,0.0061
2263.00,0.0061
2262.00,0.0062
2261.00,0.0062
2260.00,0.0062
2259.00,0.0062
2258.00,0.0061
2257.00,0.0060
2256.00,0.0060
2255.00,0.0059
2254.00,0.0059
2253.00,0.0059
2252.00,0.0059
2251.00,0.0059
2250.00,0.0060
2249.00,0.0060
2248.00,0.0060
2247.00,0.0059
2246.00,0.0059
2245.00,0.0059
2244.00,0.0059
2243.00,0.0060
2242.00,0.0060
2241.00,0.0060
2240.00,0.0061
2239.00,0.0060
2238.00,0.0060
2237.00,0.0060
2236.00,0.0059
2235.00,0.0059
2234.00,0.0059
2233.00,0.0059
2232.00,0.0059
2231.00,0.0059
2230.00,0.0059
2229.00,0.0059
2228.00,0.0059
2227.00,0.0059
2226.00,0.0059
2225.00,0.0059
2224.00,0.0058
2223.00,0.0058
2222.00,0.0058
2221.00,0.0058
2220.00,0.0057
2219.00,0.0058
2218.00,0.0058
2217.00,0.0058
2216.00,0.0058
2215.00,0.0058
2214.00,0.0058
2213.00,0.0058
2212.00,0.0058
2211.00,0.0057
2210.00,0.0057
2209.00,0.0057
2208.00,0.0057
2207.00,0.0058
2206.00,0.0058
2205.00,0.0058
2204.00,0.0058
2203.00,0.0058
2202.00,0.0059
2201.00,0.0059
2200.00,0.0059
2199.00,0.0059
2198.00,0.0059
2197.00,0.0059
2196.00,0.0059
2195.00,0.0059
2194.00,0.0059
2193.00,0.0059
2192.00,0.0059
2191.00,0.0059
2190.00,0.0060
2189.00,0.0061
2188.00,0.0062
2187.00,0.0062
2186.00,0.0062
2185.00,0.0060
2184.00,0.0058
2183.00,0.0056
2182.00,0.0054
2181.00,0.0054
2180.00,0.0054
2179.00,0.0055
2178.00,0.0054
2177.00,0.0053
2176.00,0.0052
2175.00,0.0053
2174.00,0.0054
2173.00,0.0056
2172.00,0.0059
2171.00,0.0060
2170.00,0.0062
2169.00,0.0063
2168.00,0.0064
2167.00,0.0064
2166.00,0.0065
2165.00,0.0066
2164.00,0.0067
2163.00,0.0068
2162.00,0.0064
2161.00,0.0056
2160.00,0.0045
2159.00,0.0035
2158.00,0.0029
2157.00,0.0028
2156.00,0.0030
2155.00,0.0033
2154.00,0.0035
2153.00,0.0037
2152.00,0.0039
2151.00,0.0040
2150.00,0.0041
2149.00,0.0041
2148.00,0.0041
2147.00,0.0041
2146.00,0.0041
2145.00,0.0041
2144.00,0.0041
2143.00,0.0041
2142.00,0.0042
2141.00,0.0042
2140.00,0.0042
2139.00,0.0042
2138.00,0.0041
2137.00,0.0039
2136.00,0.0038
2135.00,0.0037
2134.00,0.0036
2133.00,0.0037
2132.00,0.0038
2131.00,0.0039
2130.00,0.0041
2129.00,0.0042
2128.00,0.0043
2127.00,0.0045
2126.00,0.0046
2125.00,0.0046
2124.00,0.0047
2123.00,0.0047
2122.00,0.0047
2121.00,0.0048
2120.00,0.0048
2119.00,0.0049
2118.00,0.0050
2117.00,0.0051
2116.00,0.0052
2115.00,0.0053
2114.00,0.0053
2113.00,0.0053
2112.00,0.0053
2111.00,0.0053
2110.00,0.0053
2109.00,0.0053
2108.00,0.0053
2107.00,0.0052
2106.00,0.0052
2105.00,0.0051
2104.00,0.0052
2103.00,0.0052
2102.00,0.0052
2101.00,0.0052
2100.00,0.0052
2099.00,0.0051
2098.00,0.0051
2097.00,0.0050
2096.00,0.0049
2095.00,0.0048
2094.00,0.0048
2093.00,0.0049
2092.00,0.0050
2091.00,0.0051
2090.00,0.0051
2089.00,0.0051
2088.00,0.0051
2087.00,0.0051
2086.00,0.0051
2085.00,0.0052
2084.00,0.0052
2083.00,0.0052
2082.00,0.0053
2081.00,0.0053
2080.00,0.0054
2079.00,0.0054
2078.00,0.0054
2077.00,0.0053
2076.00,0.0053
2075.00,0.0053
2074.00,0.0052
2073.00,0.0052
2072.00,0.0051
2071.00,0.0051
2070.00,0.0051
2069.00,0.0051
2068.00,0.0051
2067.00,0.0050
2066.00,0.0050
2065.00,0.0050
2064.00,0.0050
2063.00,0.0050
2062.00,0.0050
2061.00,0.0051
2060.00,0.0051
2059.00,0.0052
2058.00,0.0052
2057.00,0.0052
2056.00,0.0052
2055.00,0.0052
2054.00,0.0053
2053.00,0.0056
2052.00,0.0059
2051.00,0.0060
2050.00,0.0058
2049.00,0.0055
2048.00,0.0053
2047.00,0.0052
2046.00,0.0051
2045.00,0.0051
2044.00,0.0051
2043.00,0.0051
2042.00,0.0052
2041.00,0.0052
2040.00,0.0053
2039.00,0.0053
2038.00,0.0053
2037.00,0.0052
2036.00,0.0051
2035.00,0.0050
2034.00,0.0048
2033.00,0.0047
2032.00,0.0045
2031.00,0.0044
2030.00,0.0043
2029.00,0.0043
2028.00,0.0043
2027.00,0.0044
2026.00,0.0044
2025.00,0.0045
2024.00,0.0045
2023.00,0.0045
2022.00,0.0045
2021.00,0.0044
2020.00,0.0044
2019.00,0.0044
2018.00,0.0044
2017.00,0.0044
2016.00,0.0044
2015.00,0.0044
2014.00,0.0044
2013.00,0.0044
2012.00,0.0045
2011.00,0.0046
2010.00,0.0045
2009.00,0.0044
2008.00,0.0042
2007.00,0.0040
2006.00,0.0039
2005.00,0.0039
2004.00,0.0040
2003.00,0.0041
2002.00,0.0041
2001.00,0.0042
2000.00,0.0043
1999.00,0.0043
1998.00,0.0044
1997.00,0.0044
1996.00,0.0044
1995.00,0.0045
1994.00,0.0045
1993.00,0.0045
1992.00,0.0045
1991.00,0.0045
1990.00,0.0046
1989.00,0.0047
1988.00,0.0048
1987.00,0.0048
1986.00,0.0048
1985.00,0.0049
1984.00,0.0051
1983.00,0.0053
1982.00,0.0056
1981.00,0.0057
1980.00,0.0055
1979.00,0.0050
1978.00,0.0044
1977.00,0.0039
1976.00,0.0037
1975.00,0.0036
1974.00,0.0036
1973.00,0.0036
1972.00,0.0037
1971.00,0.0037
1970.00,0.0037
1969.00,0.0037
1968.00,0.0037
1967.00,0.0037
1966.00,0.0036
1965.00,0.0036
1964.00,0.0036
1963.00,0.0036
1962.00,0.0035
1961.00,0.0034
1960.00,0.0034
1959.00,0.0034
1958.00,0.0035
1957.00,0.0036
1956.00,0.0036
1955.00,0.0036
1954.00,0.0036
1953.00,0.0036
1952.00,0.0036
1951.00,0.0036
1950.00,0.0036
1949.00,0.0037
1948.00,0.0036
1947.00,0.0036
1946.00,0.0036
1945.00,0.0036
1944.00,0.0036
1943.00,0.0037
1942.00,0.0037
1941.00,0.0038
1940.00,0.0037
1939.00,0.0037
1938.00,0.0036
1937.00,0.0036
1936.00,0.0036
1935.00,0.0036
1934.00,0.0037
1933.00,0.0037
1932.00,0.0037
1931.00,0.0037
1930.00,0.0036
1929.00,0.0036
1928.00,0.0037
1927.00,0.0037
1926.00,0.0037
1925.00,0.0036
1924.00,0.0037
1923.00,0.0037
1922.00,0.0038
1921.00,0.0038
1920.00,0.0038
1919.00,0.0038
1918.00,0.0038
1917.00,0.0038
1916.00,0.0038
1915.00,0.0038
1914.00,0.0038
1913.00,0.0038
1912.00,0.0038
1911.00,0.0038
1910.00,0.0038
1909.00,0.0038
1908.00,0.0038
1907.00,0.0038
1906.00,0.0038
1905.00,0.0038
1904.00,0.0039
1903.00,0.0039
1902.00,0.0039
1901.00,0.0039
1900.00,0.0038
1899.00,0.0038
1898.00,0.0037
1897.00,0.0037
1896.00,0.0037
1895.00,0.0037
1894.00,0.0038
1893.00,0.0037
1892.00,0.0037
1891.00,0.0037
1890.00,0.0037
1889.00,0.0037
1888.00,0.0038
1887.00,0.0038
1886.00,0.0038
1885.00,0.0038
1884.00,0.0038
1883.00,0.0038
1882.00,0.0037
1881.00,0.0037
1880.00,0.0037
1879.00,0.0037
1878.00,0.0037
1877.00,0.0038
1876.00,0.0038
1875.00,0.0038
1874.00,0.0038
1873.00,0.0037
1872.00,0.0037
1871.00,0.0036
1870.00,0.0035
1869.00,0.0035
1868.00,0.0036
1867.00,0.0036
1866.00,0.0036
1865.00,0.0037
1864.00,0.0037
1863.00,0.0037
1862.00,0.0037
1861.00,0.0037
1860.00,0.0037
1859.00,0.0037
1858.00,0.0036
1857.00,0.0036
1856.00,0.0036
1855.00,0.0036
1854.00,0.0036
1853.00,0.0036
1852.00,0.0036
1851.00,0.0036
1850.00,0.0036
1849.00,0.0036
1848.00,0.0035
1847.00,0.0035
1846.00,0.0035
1845.00,0.0036
1844.00,0.0037
1843.00,0.0037
1842.00,0.0036
1841.00,0.0036
1840.00,0.0035
1839.00,0.0035
1838.00,0.0035
1837.00,0.0035
1836.00,0.0035
1835.00,0.0036
1834.00,0.0036
1833.00,0.0035
1832.00,0.0035
1831.00,0.0034
1830.00,0.0034
1829.00,0.0034
1828.00,0.0034
1827.00,0.0034
1826.00,0.0034
1825.00,0.0034
1824.00,0.0035
1823.00,0.0035
1822.00,0.0035
1821.00,0.0035
1820.00,0.0034
1819.00,0.0034
1818.00,0.0033
1817.00,0.0033
1816.00,0.0033
1815.00,0.0033
1814.00,0.0034
1813.00,0.0034
1812.00,0.0034
1811.00,0.0034
1810.00,0.0034
1809.00,0.0035
1808.00,0.0035
1807.00,0.0035
1806.00,0.0035
1805.00,0.0035
1804.00,0.0035
1803.00,0.0034
1802.00,0.0034
1801.00,0.0034
1800.00,0.0035
1799.00,0.0035
1798.00,0.0035
1797.00,0.0035
1796.00,0.0036
1795.00,0.0036
1794.00,0.0036
1793.00,0.0036
1792.00,0.0036
1791.00,0.0037
1790.00,0.0037
1789.00,0.0036
1788.00,0.0036
1787.00,0.0036
1786.00,0.0036
1785.00,0.0036
1784.00,0.0036
1783.00,0.0036
1782.00,0.0036
1781.00,0.0035
1780.00,0.0036
1779.00,0.0036
1778.00,0.0035
1777.00,0.0035
1776.00,0.0035
1775.00,0.0036
1774.00,0.0036
1773.00,0.0037
1772.00,0.0037
1771.00,0.0037
1770.00,0.0037
1769.00,0.0037
1768.00,0.0038
1767.00,0.0038
1766.00,0.0038
1765.00,0.0037
1764.00,0.0037
1763.00,0.0037
1762.00,0.0037
1761.00,0.0038
1760.00,0.0038
1759.00,0.0038
1758.00,0.0038
1757.00,0.0038
1756.00,0.0039
1755.00,0.0039
1754.00,0.0039
1753.00,0.0040
1752.00,0.0040
1751.00,0.0040
1750.00,0.0039
1749.00,0.0039
1748.00,0.0039
1747.00,0.0039
1746.00,0.0040
1745.00,0.0040
1744.00,0.0040
1743.00,0.0041
1742.00,0.0041
1741.00,0.0042
1740.00,0.0043
1739.00,0.0044
1738.00,0.0044
1737.00,0.0045
1736.00,0.0047
1735.00,0.0050
1734.00,0.0052
1733.00,0.0052
1732.00,0.0050
1731.00,0.0049
1730.00,0.0049
1729.00,0.0049
1728.00,0.0050
1727.00,0.0051
1726.00,0.0052
1725.00,0.0052
1724.00,0.0053
1723.00,0.0054
1722.00,0.0054
1721.00,0.0055
1720.00,0.0056
1719.00,0.0058
1718.00,0.0060
1717.00,0.0062
1716.00,0.0063
1715.00,0.0063
1714.00,0.0063
1713.00,0.0064
1712.00,0.0066
1711.00,0.0068
1710.00,0.0070
1709.00,0.0071
1708.00,0.0073
1707.00,0.0076
1706.00,0.0079
1705.00,0.0084
1704.00,0.0090
1703.00,0.0096
1702.00,0.0104
1701.00,0.0115
1700.00,0.0128
1699.00,0.0140
1698.00,0.0148
1697.00,0.0155
1696.00,0.0162
1695.00,0.0168
1694.00,0.0170
1693.00,0.0171
1692.00,0.0173
1691.00,0.0175
1690.00,0.0178
1689.00,0.0181
1688.00,0.0186
1687.00,0.0192
1686.00,0.0197
1685.00,0.0202
1684.00,0.0207
1683.00,0.0213
1682.00,0.0217
1681.00,0.0221
1680.00,0.0227
1679.00,0.0232
1678.00,0.0238
1677.00,0.0243
1676.00,0.0250
1675.00,0.0256
1674.00,0.0262
1673.00,0.0267
1672.00,0.0272
1671.00,0.0278
1670.00,0.0284
1669.00,0.0291
1668.00,0.0298
1667.00,0.0304
1666.00,0.0310
1665.00,0.0315
1664.00,0.0320
1663.00,0.0326
1662.00,0.0332
1661.00,0.0338
1660.00,0.0344
1659.00,0.0349
1658.00,0.0354
1657.00,0.0359
1656.00,0.0365
1655.00,0.0371
1654.00,0.0376
1653.00,0.0381
1652.00,0.0386
1651.00,0.0388
1650.00,0.0388
1649.00,0.0389
1648.00,0.0392
1647.00,0.0396
1646.00,0.0400
1645.00,0.0404
1644.00,0.0407
1643.00,0.0410
1642.00,0.0412
1641.00,0.0414
1640.00,0.0417
1639.00,0.0420
1638.00,0.0422
1637.00,0.0425
1636.00,0.0427
1635.00,0.0429
1634.00,0.0432
1633.00,0.0435
1632.00,0.0437
1631.00,0.0440
1630.00,0.0441
1629.00,0.0443
1628.00,0.0444
1627.00,0.0447
1626.00,0.0449
1625.00,0.0451
1624.00,0.0451
1623.00,0.0452
1622.00,0.0452
1621.00,0.0454
1620.00,0.0455
1619.00,0.0457
1618.00,0.0456
1617.00,0.0452
1616.00,0.0446
1615.00,0.0442
1614.00,0.0437
1613.00,0.0433
1612.00,0.0429
1611.00,0.0423
1610.00,0.0416
1609.00,0.0410
1608.00,0.0403
1607.00,0.0396
1606.00,0.0388
1605.00,0.0381
1604.00,0.0373
1603.00,0.0364
1602.00,0.0356
1601.00,0.0348
1600.00,0.0340
1599.00,0.0332
1598.00,0.0325
1597.00,0.0317
1596.00,0.0309
1595.00,0.0302
1594.00,0.0295
1593.00,0.0289
1592.00,0.0282
1591.00,0.0276
1590.00,0.0271
1589.00,0.0265
1588.00,0.0260
1587.00,0.0255
1586.00,0.0251
1585.00,0.0247
1584.00,0.0243
1583.00,0.0239
1582.00,0.0236
1581.00,0.0234
1580.00,0.0232
1579.00,0.0231
1578.00,0.0232
1577.00,0.0232
1576.00,0.0232
1575.00,0.0231
1574.00,0.0230
1573.00,0.0230
1572.00,0.0231
1571.00,0.0231
1570.00,0.0233
1569.00,0.0236
1568.00,0.0239
1567.00,0.0242
1566.00,0.0245
1565.00,0.0249
1564.00,0.0253
1563.00,0.0258
1562.00,0.0263
1561.00,0.0268
1560.00,0.0271
1559.00,0.0275
1558.00,0.0282
1557.00,0.0288
1556.00,0.0291
1555.00,0.0295
1554.00,0.0300
1553.00,0.0304
1552.00,0.0307
1551.00,0.0311
1550.00,0.0315
1549.00,0.0320
1548.00,0.0325
1547.00,0.0329
1546.00,0.0332
1545.00,0.0335
1544.00,0.0339
1543.00,0.0343
1542.00,0.0348
1541.00,0.0352
1540.00,0.0357
1539.00,0.0361
1538.00,0.0365
1537.00,0.0367
1536.00,0.0369
1535.00,0.0371
1534.00,0.0373
1533.00,0.0377
1532.00,0.0381
1531.00,0.0385
1530.00,0.0389
1529.00,0.0392
1528.00,0.0395
1527.00,0.0398
1526.00,0.0402
1525.00,0.0406
1524.00,0.0409
1523.00,0.0412
1522.00,0.0415
1521.00,0.0418
1520.00,0.0420
1519.00,0.0421
1518.00,0.0422
1517.00,0.0422
1516.00,0.0423
1515.00,0.0424
1514.00,0.0424
1513.00,0.0423
1512.00,0.0420
1511.00,0.0417
1510.00,0.0414
1509.00,0.0412
1508.00,0.0406
1507.00,0.0398
1506.00,0.0390
1505.00,0.0385
1504.00,0.0379
1503.00,0.0374
1502.00,0.0368
1501.00,0.0362
1500.00,0.0355
1499.00,0.0348
1498.00,0.0341
1497.00,0.0333
1496.00,0.0325
1495.00,0.0317
1494.00,0.0310
1493.00,0.0303
1492.00,0.0296
1491.00,0.0287
1490.00,0.0278
1489.00,0.0270
1488.00,0.0263
1487.00,0.0258
1486.00,0.0253
1485.00,0.0249
1484.00,0.0244
1483.00,0.0240
1482.00,0.0236
1481.00,0.0232
1480.00,0.0229
1479.00,0.0226
1478.00,0.0224
1477.00,0.0221
1476.00,0.0220
1475.00,0.0219
1474.00,0.0219
1473.00,0.0218
1472.00,0.0218
1471.00,0.0218
1470.00,0.0218
1469.00,0.0217
1468.00,0.0217
1467.00,0.0217
1466.00,0.0216
1465.00,0.0216
1464.00,0.0217
1463.00,0.0218
1462.00,0.0219
1461.00,0.0220
1460.00,0.0222
1459.00,0.0225
1458.00,0.0229
1457.00,0.0233
1456.00,0.0237
1455.00,0.0238
1454.00,0.0238
1453.00,0.0239
1452.00,0.0240
1451.00,0.0240
1450.00,0.0240
1449.00,0.0240
1448.00,0.0239
1447.00,0.0238
1446.00,0.0237
1445.00,0.0236
1444.00,0.0234
1443.00,0.0232
1442.00,0.0229
1441.00,0.0227
1440.00,0.0225
1439.00,0.0224
1438.00,0.0221
1437.00,0.0219
1436.00,0.0216
1435.00,0.0214
1434.00,0.0212
1433.00,0.0210
1432.00,0.0208
1431.00,0.0207
1430.00,0.0205
1429.00,0.0205
1428.00,0.0205
1427.00,0.0205
1426.00,0.0205
1425.00,0.0205
1424.00,0.0205
1423.00,0.0206
1422.00,0.0207
1421.00,0.0208
1420.00,0.0209
1419.00,0.0210
1418.00,0.0211
1417.00,0.0212
1416.00,0.0213
1415.00,0.0214
1414.00,0.0215
1413.00,0.0216
1412.00,0.0217
1411.00,0.0218
1410.00,0.0219
1409.00,0.0220
1408.00,0.0221
1407.00,0.0221
1406.00,0.0221
1405.00,0.0221
1404.00,0.0222
1403.00,0.0222
1402.00,0.0222
1401.00,0.0221
1400.00,0.0220
1399.00,0.0220
1398.00,0.0220
1397.00,0.0219
1396.00,0.0219
1395.00,0.0219
1394.00,0.0219
1393.00,0.0219
1392.00,0.0219
1391.00,0.0219
1390.00,0.0219
1389.00,0.0219
1388.00,0.0219
1387.00,0.0218
1386.00,0.0217
1385.00,0.0217
1384.00,0.0216
1383.00,0.0215
1382.00,0.0215
1381.00,0.0214
1380.00,0.0213
1379.00,0.0212
1378.00,0.0212
1377.00,0.0211
1376.00,0.0210
1375.00,0.0209
1374.00,0.0209
1373.00,0.0209
1372.00,0.0209
1371.00,0.0209
1370.00,0.0209
1369.00,0.0208
1368.00,0.0207
1367.00,0.0206
1366.00,0.0204
1365.00,0.0203
1364.00,0.0201
1363.00,0.0199
1362.00,0.0198
1361.00,0.0198
1360.00,0.0197
1359.00,0.0197
1358.00,0.0196
1357.00,0.0196
1356.00,0.0195
1355.00,0.0194
1354.00,0.0194
1353.00,0.0194
1352.00,0.0193
1351.00,0.0193
1350.00,0.0193
1349.00,0.0193
1348.00,0.0193
1347.00,0.0193
1346.00,0.0193
1345.00,0.0193
1344.00,0.0193
1343.00,0.0193
1342.00,0.0193
1341.00,0.0193
1340.00,0.0193
1339.00,0.0193
1338.00,0.0193
1337.00,0.0194
1336.00,0.0194
1335.00,0.0194
1334.00,0.0194
1333.00,0.0194
1332.00,0.0194
1331.00,0.0193
1330.00,0.0193
1329.00,0.0193
1328.00,0.0193
1327.00,0.0193
1326.00,0.0193
1325.00,0.0193
1324.00,0.0193
1323.00,0.0193
1322.00,0.0192
1321.00,0.0192
1320.00,0.0192
1319.00,0.0191
1318.00,0.0191
1317.00,0.0191
1316.00,0.0191
1315.00,0.0191
1314.00,0.0190
1313.00,0.0190
1312.00,0.0190
1311.00,0.0190
1310.00,0.0189
1309.00,0.0189
1308.00,0.0189
1307.00,0.0188
1306.00,0.0188
1305.00,0.0188
1304.00,0.0188
1303.00,0.0187
1302.00,0.0187
1301.00,0.0186
1300.00,0.0186
1299.00,0.0186
1298.00,0.0185
1297.00,0.0185
1296.00,0.0185
1295.00,0.0185
1294.00,0.0185
1293.00,0.0185
1292.00,0.0185
1291.00,0.0185
1290.00,0.0185
1289.00,0.0185
1288.00,0.0185
1287.00,0.0185
1286.00,0.0185
1285.00,0.0185
1284.00,0.0184
1283.00,0.0184
1282.00,0.0184
1281.00,0.0184
1280.00,0.0183
1279.00,0.0183
1278.00,0.0183
1277.00,0.0183
1276.00,0.0183
1275.00,0.0182
1274.00,0.0182
1273.00,0.0182
1272.00,0.0182
1271.00,0.0182
1270.00,0.0183
1269.00,0.0183
1268.00,0.0183
1267.00,0.0184
1266.00,0.0184
1265.00,0.0185
1264.00,0.0186
1263.00,0.0186
1262.00,0.0188
1261.00,0.0189
1260.00,0.0190
1259.00,0.0192
1258.00,0.0194
1257.00,0.0196
1256.00,0.0197
1255.00,0.0199
1254.00,0.0201
1253.00,0.0203
1252.00,0.0205
1251.00,0.0207
1250.00,0.0208
1249.00,0.0209
1248.00,0.0211
1247.00,0.0212
1246.00,0.0213
1245.00,0.0215
1244.00,0.0216
1243.00,0.0217
1242.00,0.0217
1241.00,0.0218
1240.00,0.0219
1239.00,0.0219
1238.00,0.0220
1237.00,0.0220
1236.00,0.0220
1235.00,0.0220
1234.00,0.0220
1233.00,0.0220
1232.00,0.0220
1231.00,0.0220
1230.00,0.0219
1229.00,0.0219
1228.00,0.0218
1227.00,0.0218
1226.00,0.0217
1225.00,0.0216
1224.00,0.0215
1223.00,0.0214
1222.00,0.0213
1221.00,0.0212
1220.00,0.0210
1219.00,0.0209
1218.00,0.0208
1217.00,0.0206
1216.00,0.0205
1215.00,0.0203
1214.00,0.0201
1213.00,0.0200
1212.00,0.0198
1211.00,0.0196
1210.00,0.0194
1209.00,0.0192
1208.00,0.0190
1207.00,0.0188
1206.00,0.0186
1205.00,0.0184
1204.00,0.0182
1203.00,0.0181
1202.00,0.0179
1201.00,0.0177
1200.00,0.0175
1199.00,0.0173
1198.00,0.0172
1197.00,0.0170
1196.00,0.0169
1195.00,0.0167
1194.00,0.0166
1193.00,0.0165
1192.00,0.0165
1191.00,0.0164
1190.00,0.0163
1189.00,0.0162
1188.00,0.0162
1187.00,0.0161
1186.00,0.0161
1185.00,0.0161
1184.00,0.0161
1183.00,0.0161
1182.00,0.0161
1181.00,0.0161
1180.00,0.0162
1179.00,0.0162
1178.00,0.0163
1177.00,0.0164
1176.00,0.0165
1175.00,0.0167
1174.00,0.0168
1173.00,0.0170
1172.00,0.0172
1171.00,0.0173
1170.00,0.0175
1169.00,0.0176
1168.00,0.0177
1167.00,0.0178
1166.00,0.0180
1165.00,0.0181
1164.00,0.0182
1163.00,0.0183
1162.00,0.0183
1161.00,0.0184
1160.00,0.0184
1159.00,0.0184
1158.00,0.0184
1157.00,0.0184
1156.00,0.0184
1155.00,0.0183
1154.00,0.0182
1153.00,0.0181
1152.00,0.0180
1151.00,0.0179
1150.00,0.0178
1149.00,0.0176
1148.00,0.0175
1147.00,0.0174
1146.00,0.0173
1145.00,0.0171
1144.00,0.0170
1143.00,0.0169
1142.00,0.0169
1141.00,0.0168
1140.00,0.0167
1139.00,0.0167
1138.00,0.0166
1137.00,0.0166
1136.00,0.0166
1135.00,0.0166
1134.00,0.0166
1133.00,0.0166
1132.00,0.0166
1131.00,0.0166
1130.00,0.0166
1129.00,0.0165
1128.00,0.0165
1127.00,0.0165
1126.00,0.0165
1125.00,0.0165
1124.00,0.0165
1123.00,0.0165
1122.00,0.0165
1121.00,0.0165
1120.00,0.0165
1119.00,0.0165
1118.00,0.0165
1117.00,0.0165
1116.00,0.0165
1115.00,0.0165
1114.00,0.0165
1113.00,0.0164
1112.00,0.0165
1111.00,0.0165
1110.00,0.0165
1109.00,0.0165
1108.00,0.0166
1107.00,0.0166
1106.00,0.0167
1105.00,0.0167
1104.00,0.0168
1103.00,0.0169
1102.00,0.0169
1101.00,0.0170
1100.00,0.0170
1099.00,0.0171
1098.00,0.0172
1097.00,0.0173
1096.00,0.0174
1095.00,0.0175
1094.00,0.0177
1093.00,0.0179
1092.00,0.0181
1091.00,0.0183
1090.00,0.0185
1089.00,0.0188
1088.00,0.0190
1087.00,0.0193
1086.00,0.0196
1085.00,0.0199
1084.00,0.0202
1083.00,0.0205
1082.00,0.0208
1081.00,0.0211
1080.00,0.0214
1079.00,0.0217
1078.00,0.0220
1077.00,0.0223
1076.00,0.0225
1075.00,0.0227
1074.00,0.0229
1073.00,0.0231
1072.00,0.0233
1071.00,0.0234
1070.00,0.0235
1069.00,0.0237
1068.00,0.0237
1067.00,0.0238
1066.00,0.0238
1065.00,0.0238
1064.00,0.0238
1063.00,0.0238
1062.00,0.0238
1061.00,0.0238
1060.00,0.0237
1059.00,0.0236
1058.00,0.0235
1057.00,0.0234
1056.00,0.0233
1055.00,0.0232
1054.00,0.0231
1053.00,0.0230
1052.00,0.0228
1051.00,0.0227
1050.00,0.0226
1049.00,0.0224
1048.00,0.0223
1047.00,0.0222
1046.00,0.0220
1045.00,0.0219
1044.00,0.0217
1043.00,0.0215
1042.00,0.0214
1041.00,0.0212
1040.00,0.0210
1039.00,0.0208
1038.00,0.0207
1037.00,0.0205
1036.00,0.0203
1035.00,0.0201
1034.00,0.0200
1033.00,0.0198
1032.00,0.0197
1031.00,0.0195
1030.00,0.0193
1029.00,0.0191
1028.00,0.0189
1027.00,0.0187
1026.00,0.0185
1025.00,0.0183
1024.00,0.0181
1023.00,0.0179
1022.00,0.0177
1021.00,0.0175
1020.00,0.0173
1019.00,0.0171
1018.00,0.0169
1017.00,0.0167
1016.00,0.0166
1015.00,0.0164
1014.00,0.0163
1013.00,0.0162
1012.00,0.0161
1011.00,0.0159
1010.00,0.0158
1009.00,0.0157
1008.00,0.0156
1007.00,0.0155
1006.00,0.0154
1005.00,0.0153
1004.00,0.0152
1003.00,0.0151
1002.00,0.0150
1001.00,0.0150
1000.00,0.0149
999.00,0.0148
998.00,0.0147
997.00,0.0147
996.00,0.0146
995.00,0.0146
994.00,0.0145
993.00,0.0144
992.00,0.0144
991.00,0.0143
990.00,0.0142
989.00,0.0141
988.00,0.0140
987.00,0.0140
986.00,0.0139
985.00,0.0139
984.00,0.0138
983.00,0.0138
982.00,0.0137
981.00,0.0137
980.00,0.0136
979.00,0.0136
978.00,0.0136
977.00,0.0136
976.00,0.0135
975.00,0.0135
974.00,0.0135
973.00,0.0135
972.00,0.0135
971.00,0.0136
970.00,0.0136
969.00,0.0136
968.00,0.0137
967.00,0.0138
966.00,0.0138
965.00,0.0139
964.00,0.0139
963.00,0.0140
962.00,0.0140
961.00,0.0140
960.00,0.0140
959.00,0.0139
958.00,0.0139
957.00,0.0138
956.00,0.0137
955.00,0.0136
954.00,0.0136
953.00,0.0135
952.00,0.0134
951.00,0.0134
950.00,0.0133
949.00,0.0133
948.00,0.0133
947.00,0.0132
946.00,0.0132
945.00,0.0131
944.00,0.0131
943.00,0.0131
942.00,0.0130
941.00,0.0130
940.00,0.0130
939.00,0.0130
938.00,0.0129
937.00,0.0129
936.00,0.0129
935.00,0.0128
934.00,0.0128
933.00,0.0128
932.00,0.0128
931.00,0.0128
930.00,0.0128
929.00,0.0127
928.00,0.0127
927.00,0.0126
926.00,0.0126
925.00,0.0126
924.00,0.0125
923.00,0.0124
922.00,0.0124
921.00,0.0123
920.00,0.0122
919.00,0.0122
918.00,0.0121
917.00,0.0121
916.00,0.0121
915.00,0.0121
914.00,0.0121
913.00,0.0121
912.00,0.0120
911.00,0.0120
910.00,0.0120
909.00,0.0120
908.00,0.0121
907.00,0.0121
906.00,0.0121
905.00,0.0122
904.00,0.0122
903.00,0.0122
902.00,0.0123
901.00,0.0123
900.00,0.0122
899.00,0.0122
898.00,0.0122
897.00,0.0121
896.00,0.0121
895.00,0.0120
894.00,0.0120
893.00,0.0119
892.00,0.0119
891.00,0.0118
890.00,0.0118
889.00,0.0117
888.00,0.0117
887.00,0.0116
886.00,0.0116
885.00,0.0116
884.00,0.0115
883.00,0.0115
882.00,0.0115
881.00,0.0115
880.00,0.0114
879.00,0.0114
878.00,0.0114
877.00,0.0114
876.00,0.0114
875.00,0.0114
874.00,0.0114
873.00,0.0114
872.00,0.0114
871.00,0.0114
870.00,0.0114
869.00,0.0114
868.00,0.0114
867.00,0.0114
866.00,0.0114
865.00,0.0113
864.00,0.0113
863.00,0.0113
862.00,0.0113
861.00,0.0113
860.00,0.0113
859.00,0.0113
858.00,0.0113
857.00,0.0113
856.00,0.0113
855.00,0.0114
854.00,0.0114
853.00,0.0115
852.00,0.0115
851.00,0.0115
850.00,0.0115
849.00,0.0115
848.00,0.0116
847.00,0.0116
846.00,0.0117
845.00,0.0117
844.00,0.0117
843.00,0.0117
842.00,0.0117
841.00,0.0118
840.00,0.0119
839.00,0.0120
838.00,0.0121
837.00,0.0122
836.00,0.0122
835.00,0.0123
834.00,0.0125
833.00,0.0126
832.00,0.0127
831.00,0.0129
830.00,0.0130
829.00,0.0131
828.00,0.0132
827.00,0.0133
826.00,0.0133
825.00,0.0133
824.00,0.0134
823.00,0.0134
822.00,0.0134
821.00,0.0135
820.00,0.0136
819.00,0.0137
818.00,0.0138
817.00,0.0139
816.00,0.0140
815.00,0.0141
814.00,0.0142
813.00,0.0143
812.00,0.0144
811.00,0.0144
810.00,0.0145
809.00,0.0145
808.00,0.0145
807.00,0.0146
806.00,0.0146
805.00,0.0147
804.00,0.0147
803.00,0.0148
802.00,0.0148
801.00,0.0149
800.00,0.0150
799.00,0.0151
798.00,0.0152
797.00,0.0153
796.00,0.0154
795.00,0.0155
794.00,0.0156
793.00,0.0157
792.00,0.0159
791.00,0.0160
790.00,0.0162
789.00,0.0163
788.00,0.0165
787.00,0.0166
786.00,0.0168
785.00,0.0170
784.00,0.0171
783.00,0.0173
782.00,0.0174
781.00,0.0175
780.00,0.0177
779.00,0.0178
778.00,0.0180
777.00,0.0181
776.00,0.0182
775.00,0.0183
774.00,0.0184
773.00,0.0186
772.00,0.0187
771.00,0.0188
770.00,0.0188
769.00,0.0189
768.00,0.0190
767.00,0.0190
766.00,0.0191
765.00,0.0191
764.00,0.0191
763.00,0.0191
762.00,0.0192
761.00,0.0193
760.00,0.0194
759.00,0.0194
758.00,0.0195
757.00,0.0196
756.00,0.0197
755.00,0.0198
754.00,0.0198
753.00,0.0199
752.00,0.0200
751.00,0.0201
750.00,0.0202
749.00,0.0203
748.00,0.0204
747.00,0.0205
746.00,0.0205
745.00,0.0206
744.00,0.0207
743.00,0.0207
742.00,0.0208
741.00,0.0209
740.00,0.0209
739.00,0.0210
738.00,0.0212
737.00,0.0213
736.00,0.0214
735.00,0.0216
734.00,0.0217
733.00,0.0218
732.00,0.0220
731.00,0.0222
730.00,0.0224
729.00,0.0226
728.00,0.0230
727.00,0.0233
726.00,0.0236
725.00,0.0239
724.00,0.0242
723.00,0.0245
722.00,0.0248
721.00,0.0251
720.00,0.0254
719.00,0.0258
718.00,0.0262
717.00,0.0266
716.00,0.0269
715.00,0.0273
714.00,0.0277
713.00,0.0280
712.00,0.0284
711.00,0.0287
710.00,0.0290
709.00,0.0293
708.00,0.0296
707.00,0.0299
706.00,0.0302
705.00,0.0304
704.00,0.0307
703.00,0.0310
702.00,0.0313
701.00,0.0315
700.00,0.0316
699.00,0.0317
698.00,0.0317
697.00,0.0317
696.00,0.0317
695.00,0.0317
694.00,0.0317
693.00,0.0317
692.00,0.0317
691.00,0.0317
690.00,0.0317
689.00,0.0317
688.00,0.0318
687.00,0.0318
686.00,0.0319
685.00,0.0319
684.00,0.0320
683.00,0.0320
682.00,0.0320
681.00,0.0321
680.00,0.0321
679.00,0.0321
678.00,0.0321
677.00,0.0321
676.00,0.0322
675.00,0.0323
674.00,0.0323
673.00,0.0323
672.00,0.0322
671.00,0.0321
670.00,0.0320
669.00,0.0318
668.00,0.0318
667.00,0.0320
666.00,0.0322
665.00,0.0323
664.00,0.0324
663.00,0.0325
662.00,0.0326
661.00,0.0326
660.00,0.0327
659.00,0.0327
658.00,0.0328
657.00,0.0329
656.00,0.0330
655.00,0.0330
654.00,0.0331
653.00,0.0332
652.00,0.0333
651.00,0.0333
650.00,0.0334
649.00,0.0335
648.00,0.0335
647.00,0.0337
646.00,0.0338
645.00,0.0339
644.00,0.0340
643.00,0.0341
642.00,0.0342
641.00,0.0343
640.00,0.0345
639.00,0.0346
638.00,0.0347
637.00,0.0348
636.00,0.0349
635.00,0.0351
634.00,0.0352
633.00,0.0353
632.00,0.0354
631.00,0.0355
630.00,0.0356
629.00,0.0356
628.00,0.0357
627.00,0.0357
626.00,0.0357
625.00,0.0357
624.00,0.0357
623.00,0.0357
622.00,0.0357
621.00,0.0357
620.00,0.0357
619.00,0.0356
618.00,0.0356
617.00,0.0355
616.00,0.0354
615.00,0.0354
614.00,0.0352
613.00,0.0351
612.00,0.0350
611.00,0.0350
610.00,0.0349
609.00,0.0348
608.00,0.0349
607.00,0.0349
606.00,0.0348
605.00,0.0348
604.00,0.0347
603.00,0.0346
602.00,0.0346
601.00,0.0346
600.00,0.0346
599.00,0.0346
598.00,0.0346
597.00,0.0345
596.00,0.0345
595.00,0.0345
594.00,0.0345
593.00,0.0346
592.00,0.0346
591.00,0.0346
590.00,0.0346
589.00,0.0346
588.00,0.0346
587.00,0.0346
586.00,0.0346
585.00,0.0346
584.00,0.0346
583.00,0.0346
582.00,0.0346
581.00,0.0346
580.00,0.0347
579.00,0.0347
578.00,0.0348
577.00,0.0348
576.00,0.0349
575.00,0.0349
574.00,0.0350
573.00,0.0350
572.00,0.0351
571.00,0.0351
570.00,0.0352
569.00,0.0352
568.00,0.0352
567.00,0.0353
566.00,0.0353
565.00,0.0353
564.00,0.0355
563.00,0.0356
562.00,0.0356
561.00,0.0356
560.00,0.0356
559.00,0.0356
558.00,0.0357
557.00,0.0357
556.00,0.0358
555.00,0.0358
554.00,0.0358
553.00,0.0358
552.00,0.0359
551.00,0.0359
550.00,0.0359
549.00,0.0359
548.00,0.0360
547.00,0.0361
546.00,0.0362
545.00,0.0361
544.00,0.0361
543.00,0.0360
542.00,0.0359
541.00,0.0359
540.00,0.0360
539.00,0.0360
538.00,0.0361
537.00,0.0361
536.00,0.0361
535.00,0.0362
534.00,0.0362
533.00,0.0362
532.00,0.0362
531.00,0.0362
530.00,0.0361
529.00,0.0361
528.00,0.0362
527.00,0.0362
526.00,0.0362
525.00,0.0363
524.00,0.0364
523.00,0.0366
522.00,0.0367
521.00,0.0367
520.00,0.0368
519.00,0.0367
518.00,0.0366
517.00,0.0366
516.00,0.0366
515.00,0.0366
514.00,0.0365
513.00,0.0364
512.00,0.0363
511.00,0.0363
510.00,0.0363
509.00,0.0363
508.00,0.0364
507.00,0.0365
506.00,0.0365
505.00,0.0365
504.00,0.0365
503.00,0.0364
502.00,0.0364
501.00,0.0364
500.00,0.0364
499.00,0.0365
498.00,0.0364
497.00,0.0363
496.00,0.0362
495.00,0.0362
494.00,0.0363
493.00,0.0363
492.00,0.0364
491.00,0.0363
490.00,0.0363
489.00,0.0362
488.00,0.0362
487.00,0.0363
486.00,0.0363
485.00,0.0363
484.00,0.0363
483.00,0.0363
482.00,0.0363
481.00,0.0362
480.00,0.0362
479.00,0.0363
478.00,0.0363
477.00,0.0363
476.00,0.0364
475.00,0.0364
474.00,0.0363
473.00,0.0361
472.00,0.0360
471.00,0.0360
470.00,0.0360
469.00,0.0362
468.00,0.0363
467.00,0.0364
466.00,0.0363
465.00,0.0361
464.00,0.0361
463.00,0.0360
462.00,0.0360
461.00,0.0361
460.00,0.0363
459.00,0.0364
458.00,0.0364
457.00,0.0364
456.00,0.0365
455.00,0.0364
454.00,0.0362
453.00,0.0360
452.00,0.0359
451.00,0.0360
450.00,0.0361
449.00,0.0362
448.00,0.0362
447.00,0.0361
446.00,0.0358
445.00,0.0355
444.00,0.0353
443.00,0.0350
442.00,0.0347
441.00,0.0344
440.00,0.0343
439.00,0.0342
438.00,0.0340
437.00,0.0338
436.00,0.0337
435.00,0.0335
434.00,0.0334
433.00,0.0333
432.00,0.0331
431.00,0.0329
430.00,0.0325
429.00,0.0321
428.00,0.0318
427.00,0.0317
426.00,0.0317
425.00,0.0317
424.00,0.0318
423.00,0.0318
422.00,0.0316
421.00,0.0313
420.00,0.0311
419.00,0.0308
418.00,0.0304
417.00,0.0302
416.00,0.0303
415.00,0.0303
414.00,0.0302
413.00,0.0301
412.00,0.0303
411.00,0.0305
410.00,0.0304
409.00,0.0301
408.00,0.0300
407.00,0.0299
406.00,0.0299
405.00,0.0300
404.00,0.0301
403.00,0.0301
402.00,0.0302
401.00,0.0306
400.00,0.0313
