Created as New Dataset,Sample 323 By YargerLab Date Monday, August 19 2024
cm-1,A
4000.00,0.0080
3999.00,0.0080
3998.00,0.0080
3997.00,0.0080
3996.00,0.0080
3995.00,0.0080
3994.00,0.0080
3993.00,0.0080
3992.00,0.0080
3991.00,0.0080
3990.00,0.0080
3989.00,0.0080
3988.00,0.0080
3987.00,0.0080
3986.00,0.0081
3985.00,0.0081
3984.00,0.0080
3983.00,0.0080
3982.00,0.0080
3981.00,0.0080
3980.00,0.0080
3979.00,0.0080
3978.00,0.0080
3977.00,0.0080
3976.00,0.0080
3975.00,0.0080
3974.00,0.0080
3973.00,0.0080
3972.00,0.0080
3971.00,0.0080
3970.00,0.0080
3969.00,0.0080
3968.00,0.0080
3967.00,0.0080
3966.00,0.0080
3965.00,0.0080
3964.00,0.0080
3963.00,0.0080
3962.00,0.0080
3961.00,0.0080
3960.00,0.0080
3959.00,0.0080
3958.00,0.0080
3957.00,0.0080
3956.00,0.0080
3955.00,0.0080
3954.00,0.0080
3953.00,0.0080
3952.00,0.0080
3951.00,0.0080
3950.00,0.0080
3949.00,0.0080
3948.00,0.0080
3947.00,0.0080
3946.00,0.0080
3945.00,0.0080
3944.00,0.0080
3943.00,0.0080
3942.00,0.0080
3941.00,0.0080
3940.00,0.0080
3939.00,0.0080
3938.00,0.0080
3937.00,0.0080
3936.00,0.0080
3935.00,0.0080
3934.00,0.0080
3933.00,0.0080
3932.00,0.0080
3931.00,0.0080
3930.00,0.0080
3929.00,0.0080
3928.00,0.0079
3927.00,0.0079
3926.00,0.0079
3925.00,0.0080
3924.00,0.0080
3923.00,0.0080
3922.00,0.0080
3921.00,0.0080
3920.00,0.0080
3919.00,0.0080
3918.00,0.0080
3917.00,0.0080
3916.00,0.0080
3915.00,0.0079
3914.00,0.0079
3913.00,0.0079
3912.00,0.0079
3911.00,0.0079
3910.00,0.0080
3909.00,0.0080
3908.00,0.0079
3907.00,0.0079
3906.00,0.0079
3905.00,0.0079
3904.00,0.0079
3903.00,0.0079
3902.00,0.0079
3901.00,0.0079
3900.00,0.0079
3899.00,0.0079
3898.00,0.0079
3897.00,0.0079
3896.00,0.0079
3895.00,0.0079
3894.00,0.0079
3893.00,0.0079
3892.00,0.0079
3891.00,0.0079
3890.00,0.0079
3889.00,0.0079
3888.00,0.0079
3887.00,0.0079
3886.00,0.0079
3885.00,0.0079
3884.00,0.0079
3883.00,0.0079
3882.00,0.0078
3881.00,0.0078
3880.00,0.0079
3879.00,0.0079
3878.00,0.0079
3877.00,0.0078
3876.00,0.0078
3875.00,0.0078
3874.00,0.0078
3873.00,0.0078
3872.00,0.0078
3871.00,0.0078
3870.00,0.0078
3869.00,0.0078
3868.00,0.0078
3867.00,0.0078
3866.00,0.0078
3865.00,0.0078
3864.00,0.0078
3863.00,0.0078
3862.00,0.0078
3861.00,0.0078
3860.00,0.0078
3859.00,0.0078
3858.00,0.0078
3857.00,0.0078
3856.00,0.0078
3855.00,0.0078
3854.00,0.0078
3853.00,0.0078
3852.00,0.0078
3851.00,0.0077
3850.00,0.0077
3849.00,0.0077
3848.00,0.0077
3847.00,0.0078
3846.00,0.0078
3845.00,0.0078
3844.00,0.0078
3843.00,0.0078
3842.00,0.0078
3841.00,0.0078
3840.00,0.0078
3839.00,0.0077
3838.00,0.0077
3837.00,0.0077
3836.00,0.0077
3835.00,0.0077
3834.00,0.0077
3833.00,0.0077
3832.00,0.0077
3831.00,0.0077
3830.00,0.0077
3829.00,0.0077
3828.00,0.0077
3827.00,0.0077
3826.00,0.0077
3825.00,0.0077
3824.00,0.0077
3823.00,0.0077
3822.00,0.0077
3821.00,0.0077
3820.00,0.0077
3819.00,0.0077
3818.00,0.0076
3817.00,0.0076
3816.00,0.0076
3815.00,0.0076
3814.00,0.0076
3813.00,0.0077
3812.00,0.0077
3811.00,0.0077
3810.00,0.0077
3809.00,0.0077
3808.00,0.0077
3807.00,0.0077
3806.00,0.0077
3805.00,0.0077
3804.00,0.0076
3803.00,0.0076
3802.00,0.0076
3801.00,0.0076
3800.00,0.0076
3799.00,0.0076
3798.00,0.0076
3797.00,0.0076
3796.00,0.0076
3795.00,0.0076
3794.00,0.0076
3793.00,0.0076
3792.00,0.0076
3791.00,0.0076
3790.00,0.0076
3789.00,0.0076
3788.00,0.0076
3787.00,0.0076
3786.00,0.0076
3785.00,0.0076
3784.00,0.0076
3783.00,0.0075
3782.00,0.0075
3781.00,0.0075
3780.00,0.0075
3779.00,0.0075
3778.00,0.0075
3777.00,0.0076
3776.00,0.0076
3775.00,0.0076
3774.00,0.0076
3773.00,0.0076
3772.00,0.0076
3771.00,0.0076
3770.00,0.0076
3769.00,0.0075
3768.00,0.0075
3767.00,0.0075
3766.00,0.0075
3765.00,0.0075
3764.00,0.0075
3763.00,0.0075
3762.00,0.0075
3761.00,0.0075
3760.00,0.0075
3759.00,0.0075
3758.00,0.0075
3757.00,0.0075
3756.00,0.0075
3755.00,0.0075
3754.00,0.0075
3753.00,0.0075
3752.00,0.0075
3751.00,0.0075
3750.00,0.0075
3749.00,0.0074
3748.00,0.0074
3747.00,0.0074
3746.00,0.0074
3745.00,0.0074
3744.00,0.0074
3743.00,0.0074
3742.00,0.0074
3741.00,0.0073
3740.00,0.0073
3739.00,0.0074
3738.00,0.0074
3737.00,0.0073
3736.00,0.0073
3735.00,0.0073
3734.00,0.0073
3733.00,0.0073
3732.00,0.0072
3731.00,0.0073
3730.00,0.0073
3729.00,0.0073
3728.00,0.0073
3727.00,0.0073
3726.00,0.0073
3725.00,0.0073
3724.00,0.0072
3723.00,0.0072
3722.00,0.0072
3721.00,0.0072
3720.00,0.0072
3719.00,0.0072
3718.00,0.0072
3717.00,0.0072
3716.00,0.0073
3715.00,0.0072
3714.00,0.0072
3713.00,0.0072
3712.00,0.0072
3711.00,0.0072
3710.00,0.0071
3709.00,0.0071
3708.00,0.0071
3707.00,0.0071
3706.00,0.0071
3705.00,0.0071
3704.00,0.0071
3703.00,0.0071
3702.00,0.0071
3701.00,0.0071
3700.00,0.0071
3699.00,0.0071
3698.00,0.0071
3697.00,0.0071
3696.00,0.0071
3695.00,0.0071
3694.00,0.0071
3693.00,0.0071
3692.00,0.0071
3691.00,0.0071
3690.00,0.0071
3689.00,0.0071
3688.00,0.0071
3687.00,0.0071
3686.00,0.0071
3685.00,0.0071
3684.00,0.0070
3683.00,0.0070
3682.00,0.0071
3681.00,0.0071
3680.00,0.0071
3679.00,0.0071
3678.00,0.0071
3677.00,0.0071
3676.00,0.0071
3675.00,0.0071
3674.00,0.0071
3673.00,0.0071
3672.00,0.0070
3671.00,0.0070
3670.00,0.0070
3669.00,0.0070
3668.00,0.0070
3667.00,0.0070
3666.00,0.0071
3665.00,0.0071
3664.00,0.0071
3663.00,0.0071
3662.00,0.0072
3661.00,0.0072
3660.00,0.0072
3659.00,0.0072
3658.00,0.0072
3657.00,0.0072
3656.00,0.0072
3655.00,0.0072
3654.00,0.0072
3653.00,0.0072
3652.00,0.0072
3651.00,0.0072
3650.00,0.0072
3649.00,0.0072
3648.00,0.0072
3647.00,0.0072
3646.00,0.0072
3645.00,0.0072
3644.00,0.0072
3643.00,0.0072
3642.00,0.0072
3641.00,0.0073
3640.00,0.0073
3639.00,0.0073
3638.00,0.0073
3637.00,0.0073
3636.00,0.0073
3635.00,0.0073
3634.00,0.0073
3633.00,0.0074
3632.00,0.0074
3631.00,0.0074
3630.00,0.0073
3629.00,0.0073
3628.00,0.0074
3627.00,0.0074
3626.00,0.0074
3625.00,0.0074
3624.00,0.0074
3623.00,0.0074
3622.00,0.0075
3621.00,0.0075
3620.00,0.0075
3619.00,0.0075
3618.00,0.0075
3617.00,0.0076
3616.00,0.0076
3615.00,0.0076
3614.00,0.0076
3613.00,0.0076
3612.00,0.0077
3611.00,0.0077
3610.00,0.0077
3609.00,0.0077
3608.00,0.0077
3607.00,0.0077
3606.00,0.0078
3605.00,0.0078
3604.00,0.0078
3603.00,0.0078
3602.00,0.0078
3601.00,0.0079
3600.00,0.0079
3599.00,0.0079
3598.00,0.0079
3597.00,0.0079
3596.00,0.0079
3595.00,0.0080
3594.00,0.0080
3593.00,0.0080
3592.00,0.0080
3591.00,0.0080
3590.00,0.0081
3589.00,0.0081
3588.00,0.0081
3587.00,0.0081
3586.00,0.0082
3585.00,0.0082
3584.00,0.0082
3583.00,0.0082
3582.00,0.0083
3581.00,0.0083
3580.00,0.0083
3579.00,0.0083
3578.00,0.0083
3577.00,0.0084
3576.00,0.0084
3575.00,0.0084
3574.00,0.0084
3573.00,0.0085
3572.00,0.0085
3571.00,0.0085
3570.00,0.0085
3569.00,0.0086
3568.00,0.0086
3567.00,0.0086
3566.00,0.0087
3565.00,0.0087
3564.00,0.0087
3563.00,0.0088
3562.00,0.0088
3561.00,0.0088
3560.00,0.0089
3559.00,0.0089
3558.00,0.0089
3557.00,0.0089
3556.00,0.0089
3555.00,0.0090
3554.00,0.0090
3553.00,0.0090
3552.00,0.0091
3551.00,0.0091
3550.00,0.0091
3549.00,0.0092
3548.00,0.0092
3547.00,0.0093
3546.00,0.0093
3545.00,0.0093
3544.00,0.0094
3543.00,0.0094
3542.00,0.0094
3541.00,0.0094
3540.00,0.0094
3539.00,0.0095
3538.00,0.0095
3537.00,0.0095
3536.00,0.0096
3535.00,0.0096
3534.00,0.0096
3533.00,0.0096
3532.00,0.0097
3531.00,0.0097
3530.00,0.0097
3529.00,0.0098
3528.00,0.0098
3527.00,0.0098
3526.00,0.0099
3525.00,0.0099
3524.00,0.0099
3523.00,0.0100
3522.00,0.0100
3521.00,0.0100
3520.00,0.0100
3519.00,0.0101
3518.00,0.0101
3517.00,0.0101
3516.00,0.0102
3515.00,0.0102
3514.00,0.0102
3513.00,0.0103
3512.00,0.0103
3511.00,0.0103
3510.00,0.0103
3509.00,0.0103
3508.00,0.0104
3507.00,0.0104
3506.00,0.0104
3505.00,0.0105
3504.00,0.0106
3503.00,0.0106
3502.00,0.0106
3501.00,0.0106
3500.00,0.0107
3499.00,0.0107
3498.00,0.0107
3497.00,0.0107
3496.00,0.0108
3495.00,0.0108
3494.00,0.0109
3493.00,0.0109
3492.00,0.0109
3491.00,0.0109
3490.00,0.0110
3489.00,0.0110
3488.00,0.0110
3487.00,0.0111
3486.00,0.0111
3485.00,0.0111
3484.00,0.0112
3483.00,0.0112
3482.00,0.0113
3481.00,0.0113
3480.00,0.0113
3479.00,0.0113
3478.00,0.0114
3477.00,0.0114
3476.00,0.0114
3475.00,0.0115
3474.00,0.0115
3473.00,0.0115
3472.00,0.0116
3471.00,0.0116
3470.00,0.0117
3469.00,0.0117
3468.00,0.0117
3467.00,0.0117
3466.00,0.0118
3465.00,0.0118
3464.00,0.0118
3463.00,0.0118
3462.00,0.0119
3461.00,0.0119
3460.00,0.0120
3459.00,0.0120
3458.00,0.0120
3457.00,0.0120
3456.00,0.0121
3455.00,0.0121
3454.00,0.0121
3453.00,0.0122
3452.00,0.0122
3451.00,0.0122
3450.00,0.0123
3449.00,0.0123
3448.00,0.0123
3447.00,0.0124
3446.00,0.0124
3445.00,0.0124
3444.00,0.0125
3443.00,0.0125
3442.00,0.0125
3441.00,0.0126
3440.00,0.0126
3439.00,0.0127
3438.00,0.0127
3437.00,0.0128
3436.00,0.0128
3435.00,0.0128
3434.00,0.0129
3433.00,0.0129
3432.00,0.0129
3431.00,0.0130
3430.00,0.0130
3429.00,0.0130
3428.00,0.0130
3427.00,0.0131
3426.00,0.0131
3425.00,0.0131
3424.00,0.0131
3423.00,0.0132
3422.00,0.0132
3421.00,0.0132
3420.00,0.0133
3419.00,0.0133
3418.00,0.0134
3417.00,0.0134
3416.00,0.0134
3415.00,0.0135
3414.00,0.0135
3413.00,0.0135
3412.00,0.0136
3411.00,0.0136
3410.00,0.0136
3409.00,0.0137
3408.00,0.0137
3407.00,0.0137
3406.00,0.0138
3405.00,0.0138
3404.00,0.0138
3403.00,0.0139
3402.00,0.0139
3401.00,0.0139
3400.00,0.0140
3399.00,0.0140
3398.00,0.0140
3397.00,0.0140
3396.00,0.0141
3395.00,0.0141
3394.00,0.0141
3393.00,0.0142
3392.00,0.0142
3391.00,0.0142
3390.00,0.0142
3389.00,0.0143
3388.00,0.0143
3387.00,0.0143
3386.00,0.0144
3385.00,0.0144
3384.00,0.0144
3383.00,0.0145
3382.00,0.0145
3381.00,0.0145
3380.00,0.0146
3379.00,0.0146
3378.00,0.0146
3377.00,0.0147
3376.00,0.0147
3375.00,0.0148
3374.00,0.0148
3373.00,0.0148
3372.00,0.0149
3371.00,0.0149
3370.00,0.0150
3369.00,0.0150
3368.00,0.0151
3367.00,0.0151
3366.00,0.0151
3365.00,0.0152
3364.00,0.0152
3363.00,0.0153
3362.00,0.0153
3361.00,0.0154
3360.00,0.0154
3359.00,0.0155
3358.00,0.0155
3357.00,0.0156
3356.00,0.0156
3355.00,0.0157
3354.00,0.0157
3353.00,0.0158
3352.00,0.0158
3351.00,0.0159
3350.00,0.0159
3349.00,0.0160
3348.00,0.0161
3347.00,0.0162
3346.00,0.0162
3345.00,0.0163
3344.00,0.0163
3343.00,0.0164
3342.00,0.0164
3341.00,0.0165
3340.00,0.0166
3339.00,0.0166
3338.00,0.0167
3337.00,0.0168
3336.00,0.0169
3335.00,0.0170
3334.00,0.0170
3333.00,0.0171
3332.00,0.0172
3331.00,0.0173
3330.00,0.0174
3329.00,0.0175
3328.00,0.0175
3327.00,0.0176
3326.00,0.0177
3325.00,0.0178
3324.00,0.0179
3323.00,0.0180
3322.00,0.0181
3321.00,0.0182
3320.00,0.0183
3319.00,0.0184
3318.00,0.0186
3317.00,0.0187
3316.00,0.0188
3315.00,0.0189
3314.00,0.0190
3313.00,0.0191
3312.00,0.0192
3311.00,0.0193
3310.00,0.0195
3309.00,0.0196
3308.00,0.0197
3307.00,0.0198
3306.00,0.0200
3305.00,0.0201
3304.00,0.0203
3303.00,0.0204
3302.00,0.0206
3301.00,0.0207
3300.00,0.0209
3299.00,0.0210
3298.00,0.0212
3297.00,0.0213
3296.00,0.0214
3295.00,0.0216
3294.00,0.0217
3293.00,0.0219
3292.00,0.0220
3291.00,0.0222
3290.00,0.0223
3289.00,0.0225
3288.00,0.0226
3287.00,0.0227
3286.00,0.0229
3285.00,0.0230
3284.00,0.0231
3283.00,0.0232
3282.00,0.0233
3281.00,0.0234
3280.00,0.0235
3279.00,0.0236
3278.00,0.0237
3277.00,0.0237
3276.00,0.0238
3275.00,0.0238
3274.00,0.0238
3273.00,0.0238
3272.00,0.0238
3271.00,0.0238
3270.00,0.0238
3269.00,0.0238
3268.00,0.0238
3267.00,0.0238
3266.00,0.0237
3265.00,0.0236
3264.00,0.0236
3263.00,0.0235
3262.00,0.0234
3261.00,0.0233
3260.00,0.0232
3259.00,0.0231
3258.00,0.0229
3257.00,0.0228
3256.00,0.0227
3255.00,0.0226
3254.00,0.0225
3253.00,0.0224
3252.00,0.0222
3251.00,0.0221
3250.00,0.0220
3249.00,0.0219
3248.00,0.0217
3247.00,0.0216
3246.00,0.0215
3245.00,0.0214
3244.00,0.0213
3243.00,0.0212
3242.00,0.0211
3241.00,0.0210
3240.00,0.0209
3239.00,0.0208
3238.00,0.0206
3237.00,0.0205
3236.00,0.0204
3235.00,0.0203
3234.00,0.0202
3233.00,0.0202
3232.00,0.0201
3231.00,0.0200
3230.00,0.0200
3229.00,0.0199
3228.00,0.0198
3227.00,0.0197
3226.00,0.0197
3225.00,0.0196
3224.00,0.0195
3223.00,0.0194
3222.00,0.0194
3221.00,0.0193
3220.00,0.0193
3219.00,0.0192
3218.00,0.0191
3217.00,0.0191
3216.00,0.0190
3215.00,0.0189
3214.00,0.0189
3213.00,0.0188
3212.00,0.0188
3211.00,0.0187
3210.00,0.0187
3209.00,0.0186
3208.00,0.0186
3207.00,0.0185
3206.00,0.0184
3205.00,0.0184
3204.00,0.0183
3203.00,0.0183
3202.00,0.0182
3201.00,0.0182
3200.00,0.0181
3199.00,0.0181
3198.00,0.0180
3197.00,0.0180
3196.00,0.0179
3195.00,0.0179
3194.00,0.0178
3193.00,0.0178
3192.00,0.0177
3191.00,0.0177
3190.00,0.0176
3189.00,0.0176
3188.00,0.0175
3187.00,0.0175
3186.00,0.0174
3185.00,0.0173
3184.00,0.0173
3183.00,0.0172
3182.00,0.0172
3181.00,0.0171
3180.00,0.0171
3179.00,0.0170
3178.00,0.0170
3177.00,0.0169
3176.00,0.0169
3175.00,0.0168
3174.00,0.0167
3173.00,0.0167
3172.00,0.0166
3171.00,0.0166
3170.00,0.0165
3169.00,0.0165
3168.00,0.0164
3167.00,0.0163
3166.00,0.0163
3165.00,0.0162
3164.00,0.0161
3163.00,0.0161
3162.00,0.0160
3161.00,0.0160
3160.00,0.0159
3159.00,0.0159
3158.00,0.0158
3157.00,0.0158
3156.00,0.0157
3155.00,0.0157
3154.00,0.0156
3153.00,0.0156
3152.00,0.0155
3151.00,0.0155
3150.00,0.0154
3149.00,0.0154
3148.00,0.0153
3147.00,0.0153
3146.00,0.0152
3145.00,0.0152
3144.00,0.0152
3143.00,0.0151
3142.00,0.0150
3141.00,0.0150
3140.00,0.0149
3139.00,0.0149
3138.00,0.0149
3137.00,0.0148
3136.00,0.0148
3135.00,0.0147
3134.00,0.0147
3133.00,0.0147
3132.00,0.0146
3131.00,0.0146
3130.00,0.0145
3129.00,0.0145
3128.00,0.0145
3127.00,0.0144
3126.00,0.0144
3125.00,0.0144
3124.00,0.0143
3123.00,0.0143
3122.00,0.0143
3121.00,0.0142
3120.00,0.0142
3119.00,0.0142
3118.00,0.0142
3117.00,0.0141
3116.00,0.0141
3115.00,0.0141
3114.00,0.0141
3113.00,0.0141
3112.00,0.0141
3111.00,0.0140
3110.00,0.0140
3109.00,0.0140
3108.00,0.0140
3107.00,0.0140
3106.00,0.0140
3105.00,0.0140
3104.00,0.0140
3103.00,0.0140
3102.00,0.0140
3101.00,0.0140
3100.00,0.0139
3099.00,0.0139
3098.00,0.0140
3097.00,0.0140
3096.00,0.0140
3095.00,0.0140
3094.00,0.0140
3093.00,0.0140
3092.00,0.0140
3091.00,0.0140
3090.00,0.0140
3089.00,0.0140
3088.00,0.0140
3087.00,0.0140
3086.00,0.0140
3085.00,0.0140
3084.00,0.0140
3083.00,0.0139
3082.00,0.0139
3081.00,0.0139
3080.00,0.0139
3079.00,0.0140
3078.00,0.0140
3077.00,0.0140
3076.00,0.0140
3075.00,0.0140
3074.00,0.0140
3073.00,0.0140
3072.00,0.0140
3071.00,0.0140
3070.00,0.0140
3069.00,0.0140
3068.00,0.0139
3067.00,0.0139
3066.00,0.0139
3065.00,0.0139
3064.00,0.0139
3063.00,0.0139
3062.00,0.0139
3061.00,0.0139
3060.00,0.0139
3059.00,0.0139
3058.00,0.0138
3057.00,0.0138
3056.00,0.0138
3055.00,0.0137
3054.00,0.0137
3053.00,0.0137
3052.00,0.0136
3051.00,0.0136
3050.00,0.0136
3049.00,0.0136
3048.00,0.0135
3047.00,0.0135
3046.00,0.0135
3045.00,0.0134
3044.00,0.0134
3043.00,0.0133
3042.00,0.0133
3041.00,0.0133
3040.00,0.0133
3039.00,0.0132
3038.00,0.0132
3037.00,0.0132
3036.00,0.0131
3035.00,0.0131
3034.00,0.0130
3033.00,0.0130
3032.00,0.0130
3031.00,0.0130
3030.00,0.0130
3029.00,0.0129
3028.00,0.0129
3027.00,0.0128
3026.00,0.0128
3025.00,0.0127
3024.00,0.0127
3023.00,0.0127
3022.00,0.0126
3021.00,0.0126
3020.00,0.0126
3019.00,0.0125
3018.00,0.0125
3017.00,0.0125
3016.00,0.0124
3015.00,0.0124
3014.00,0.0123
3013.00,0.0123
3012.00,0.0123
3011.00,0.0123
3010.00,0.0123
3009.00,0.0123
3008.00,0.0123
3007.00,0.0122
3006.00,0.0122
3005.00,0.0122
3004.00,0.0122
3003.00,0.0121
3002.00,0.0121
3001.00,0.0121
3000.00,0.0121
2999.00,0.0121
2998.00,0.0121
2997.00,0.0121
2996.00,0.0121
2995.00,0.0121
2994.00,0.0121
2993.00,0.0121
2992.00,0.0122
2991.00,0.0122
2990.00,0.0122
2989.00,0.0122
2988.00,0.0123
2987.00,0.0123
2986.00,0.0123
2985.00,0.0123
2984.00,0.0124
2983.00,0.0124
2982.00,0.0124
2981.00,0.0125
2980.00,0.0125
2979.00,0.0125
2978.00,0.0125
2977.00,0.0126
2976.00,0.0126
2975.00,0.0126
2974.00,0.0126
2973.00,0.0127
2972.00,0.0127
2971.00,0.0127
2970.00,0.0127
2969.00,0.0127
2968.00,0.0127
2967.00,0.0127
2966.00,0.0126
2965.00,0.0126
2964.00,0.0126
2963.00,0.0125
2962.00,0.0125
2961.00,0.0124
2960.00,0.0124
2959.00,0.0123
2958.00,0.0123
2957.00,0.0123
2956.00,0.0123
2955.00,0.0123
2954.00,0.0123
2953.00,0.0123
2952.00,0.0123
2951.00,0.0123
2950.00,0.0123
2949.00,0.0124
2948.00,0.0124
2947.00,0.0124
2946.00,0.0124
2945.00,0.0124
2944.00,0.0124
2943.00,0.0124
2942.00,0.0124
2941.00,0.0124
2940.00,0.0124
2939.00,0.0124
2938.00,0.0123
2937.00,0.0123
2936.00,0.0122
2935.00,0.0122
2934.00,0.0121
2933.00,0.0120
2932.00,0.0118
2931.00,0.0117
2930.00,0.0115
2929.00,0.0113
2928.00,0.0111
2927.00,0.0108
2926.00,0.0105
2925.00,0.0102
2924.00,0.0098
2923.00,0.0094
2922.00,0.0089
2921.00,0.0085
2920.00,0.0080
2919.00,0.0075
2918.00,0.0071
2917.00,0.0068
2916.00,0.0068
2915.00,0.0071
2914.00,0.0076
2913.00,0.0082
2912.00,0.0089
2911.00,0.0094
2910.00,0.0098
2909.00,0.0101
2908.00,0.0103
2907.00,0.0104
2906.00,0.0105
2905.00,0.0106
2904.00,0.0107
2903.00,0.0107
2902.00,0.0108
2901.00,0.0108
2900.00,0.0108
2899.00,0.0108
2898.00,0.0109
2897.00,0.0109
2896.00,0.0109
2895.00,0.0109
2894.00,0.0110
2893.00,0.0110
2892.00,0.0110
2891.00,0.0111
2890.00,0.0111
2889.00,0.0111
2888.00,0.0112
2887.00,0.0112
2886.00,0.0113
2885.00,0.0113
2884.00,0.0114
2883.00,0.0114
2882.00,0.0115
2881.00,0.0115
2880.00,0.0116
2879.00,0.0116
2878.00,0.0116
2877.00,0.0117
2876.00,0.0117
2875.00,0.0117
2874.00,0.0117
2873.00,0.0117
2872.00,0.0117
2871.00,0.0116
2870.00,0.0116
2869.00,0.0116
2868.00,0.0115
2867.00,0.0115
2866.00,0.0114
2865.00,0.0113
2864.00,0.0112
2863.00,0.0111
2862.00,0.0110
2861.00,0.0109
2860.00,0.0108
2859.00,0.0107
2858.00,0.0105
2857.00,0.0103
2856.00,0.0101
2855.00,0.0098
2854.00,0.0094
2853.00,0.0089
2852.00,0.0084
2851.00,0.0079
2850.00,0.0075
2849.00,0.0074
2848.00,0.0076
2847.00,0.0080
2846.00,0.0086
2845.00,0.0091
2844.00,0.0096
2843.00,0.0100
2842.00,0.0102
2841.00,0.0103
2840.00,0.0105
2839.00,0.0105
2838.00,0.0106
2837.00,0.0106
2836.00,0.0106
2835.00,0.0107
2834.00,0.0107
2833.00,0.0107
2832.00,0.0107
2831.00,0.0107
2830.00,0.0107
2829.00,0.0107
2828.00,0.0107
2827.00,0.0107
2826.00,0.0106
2825.00,0.0106
2824.00,0.0106
2823.00,0.0106
2822.00,0.0106
2821.00,0.0106
2820.00,0.0106
2819.00,0.0106
2818.00,0.0106
2817.00,0.0106
2816.00,0.0106
2815.00,0.0106
2814.00,0.0106
2813.00,0.0106
2812.00,0.0106
2811.00,0.0105
2810.00,0.0105
2809.00,0.0105
2808.00,0.0105
2807.00,0.0105
2806.00,0.0105
2805.00,0.0105
2804.00,0.0105
2803.00,0.0105
2802.00,0.0105
2801.00,0.0105
2800.00,0.0105
2799.00,0.0105
2798.00,0.0104
2797.00,0.0104
2796.00,0.0104
2795.00,0.0104
2794.00,0.0104
2793.00,0.0104
2792.00,0.0104
2791.00,0.0104
2790.00,0.0104
2789.00,0.0104
2788.00,0.0104
2787.00,0.0104
2786.00,0.0103
2785.00,0.0103
2784.00,0.0103
2783.00,0.0103
2782.00,0.0103
2781.00,0.0103
2780.00,0.0103
2779.00,0.0103
2778.00,0.0103
2777.00,0.0103
2776.00,0.0103
2775.00,0.0103
2774.00,0.0103
2773.00,0.0102
2772.00,0.0102
2771.00,0.0102
2770.00,0.0102
2769.00,0.0102
2768.00,0.0102
2767.00,0.0102
2766.00,0.0102
2765.00,0.0102
2764.00,0.0101
2763.00,0.0101
2762.00,0.0101
2761.00,0.0101
2760.00,0.0101
2759.00,0.0101
2758.00,0.0101
2757.00,0.0101
2756.00,0.0101
2755.00,0.0101
2754.00,0.0101
2753.00,0.0100
2752.00,0.0100
2751.00,0.0100
2750.00,0.0100
2749.00,0.0100
2748.00,0.0100
2747.00,0.0100
2746.00,0.0099
2745.00,0.0099
2744.00,0.0099
2743.00,0.0099
2742.00,0.0099
2741.00,0.0099
2740.00,0.0099
2739.00,0.0099
2738.00,0.0099
2737.00,0.0099
2736.00,0.0099
2735.00,0.0099
2734.00,0.0098
2733.00,0.0098
2732.00,0.0098
2731.00,0.0098
2730.00,0.0098
2729.00,0.0098
2728.00,0.0098
2727.00,0.0098
2726.00,0.0098
2725.00,0.0098
2724.00,0.0097
2723.00,0.0097
2722.00,0.0097
2721.00,0.0097
2720.00,0.0097
2719.00,0.0097
2718.00,0.0097
2717.00,0.0097
2716.00,0.0097
2715.00,0.0097
2714.00,0.0096
2713.00,0.0096
2712.00,0.0096
2711.00,0.0096
2710.00,0.0096
2709.00,0.0096
2708.00,0.0096
2707.00,0.0096
2706.00,0.0096
2705.00,0.0095
2704.00,0.0095
2703.00,0.0095
2702.00,0.0095
2701.00,0.0095
2700.00,0.0095
2699.00,0.0095
2698.00,0.0095
2697.00,0.0095
2696.00,0.0095
2695.00,0.0095
2694.00,0.0094
2693.00,0.0094
2692.00,0.0094
2691.00,0.0095
2690.00,0.0094
2689.00,0.0094
2688.00,0.0094
2687.00,0.0094
2686.00,0.0094
2685.00,0.0094
2684.00,0.0094
2683.00,0.0094
2682.00,0.0094
2681.00,0.0094
2680.00,0.0094
2679.00,0.0094
2678.00,0.0093
2677.00,0.0093
2676.00,0.0093
2675.00,0.0093
2674.00,0.0093
2673.00,0.0093
2672.00,0.0093
2671.00,0.0093
2670.00,0.0093
2669.00,0.0093
2668.00,0.0093
2667.00,0.0093
2666.00,0.0094
2665.00,0.0094
2664.00,0.0094
2663.00,0.0094
2662.00,0.0095
2661.00,0.0095
2660.00,0.0095
2659.00,0.0095
2658.00,0.0095
2657.00,0.0095
2656.00,0.0095
2655.00,0.0095
2654.00,0.0095
2653.00,0.0095
2652.00,0.0095
2651.00,0.0095
2650.00,0.0095
2649.00,0.0095
2648.00,0.0095
2647.00,0.0095
2646.00,0.0095
2645.00,0.0094
2644.00,0.0094
2643.00,0.0094
2642.00,0.0094
2641.00,0.0094
2640.00,0.0094
2639.00,0.0094
2638.00,0.0093
2637.00,0.0093
2636.00,0.0093
2635.00,0.0093
2634.00,0.0093
2633.00,0.0093
2632.00,0.0093
2631.00,0.0093
2630.00,0.0092
2629.00,0.0092
2628.00,0.0092
2627.00,0.0092
2626.00,0.0092
2625.00,0.0092
2624.00,0.0092
2623.00,0.0091
2622.00,0.0091
2621.00,0.0091
2620.00,0.0091
2619.00,0.0091
2618.00,0.0091
2617.00,0.0091
2616.00,0.0091
2615.00,0.0091
2614.00,0.0090
2613.00,0.0090
2612.00,0.0090
2611.00,0.0090
2610.00,0.0090
2609.00,0.0090
2608.00,0.0090
2607.00,0.0089
2606.00,0.0089
2605.00,0.0089
2604.00,0.0089
2603.00,0.0089
2602.00,0.0089
2601.00,0.0089
2600.00,0.0089
2599.00,0.0089
2598.00,0.0089
2597.00,0.0089
2596.00,0.0089
2595.00,0.0088
2594.00,0.0088
2593.00,0.0088
2592.00,0.0087
2591.00,0.0087
2590.00,0.0087
2589.00,0.0087
2588.00,0.0087
2587.00,0.0087
2586.00,0.0087
2585.00,0.0087
2584.00,0.0086
2583.00,0.0086
2582.00,0.0086
2581.00,0.0086
2580.00,0.0086
2579.00,0.0086
2578.00,0.0086
2577.00,0.0086
2576.00,0.0085
2575.00,0.0085
2574.00,0.0085
2573.00,0.0085
2572.00,0.0085
2571.00,0.0085
2570.00,0.0085
2569.00,0.0085
2568.00,0.0085
2567.00,0.0085
2566.00,0.0084
2565.00,0.0084
2564.00,0.0084
2563.00,0.0084
2562.00,0.0084
2561.00,0.0084
2560.00,0.0084
2559.00,0.0084
2558.00,0.0084
2557.00,0.0084
2556.00,0.0084
2555.00,0.0084
2554.00,0.0084
2553.00,0.0083
2552.00,0.0083
2551.00,0.0083
2550.00,0.0083
2549.00,0.0083
2548.00,0.0083
2547.00,0.0083
2546.00,0.0083
2545.00,0.0083
2544.00,0.0083
2543.00,0.0083
2542.00,0.0082
2541.00,0.0082
2540.00,0.0082
2539.00,0.0082
2538.00,0.0082
2537.00,0.0082
2536.00,0.0082
2535.00,0.0082
2534.00,0.0082
2533.00,0.0082
2532.00,0.0082
2531.00,0.0081
2530.00,0.0081
2529.00,0.0081
2528.00,0.0081
2527.00,0.0082
2526.00,0.0082
2525.00,0.0082
2524.00,0.0082
2523.00,0.0082
2522.00,0.0081
2521.00,0.0081
2520.00,0.0081
2519.00,0.0081
2518.00,0.0081
2517.00,0.0081
2516.00,0.0081
2515.00,0.0081
2514.00,0.0080
2513.00,0.0080
2512.00,0.0080
2511.00,0.0080
2510.00,0.0080
2509.00,0.0080
2508.00,0.0080
2507.00,0.0080
2506.00,0.0080
2505.00,0.0080
2504.00,0.0080
2503.00,0.0080
2502.00,0.0080
2501.00,0.0080
2500.00,0.0080
2499.00,0.0080
2498.00,0.0080
2497.00,0.0080
2496.00,0.0080
2495.00,0.0080
2494.00,0.0080
2493.00,0.0079
2492.00,0.0079
2491.00,0.0079
2490.00,0.0079
2489.00,0.0079
2488.00,0.0079
2487.00,0.0079
2486.00,0.0079
2485.00,0.0079
2484.00,0.0079
2483.00,0.0079
2482.00,0.0079
2481.00,0.0079
2480.00,0.0079
2479.00,0.0079
2478.00,0.0079
2477.00,0.0079
2476.00,0.0079
2475.00,0.0079
2474.00,0.0078
2473.00,0.0078
2472.00,0.0078
2471.00,0.0079
2470.00,0.0079
2469.00,0.0079
2468.00,0.0079
2467.00,0.0079
2466.00,0.0079
2465.00,0.0079
2464.00,0.0079
2463.00,0.0079
2462.00,0.0079
2461.00,0.0079
2460.00,0.0079
2459.00,0.0079
2458.00,0.0079
2457.00,0.0079
2456.00,0.0079
2455.00,0.0079
2454.00,0.0079
2453.00,0.0079
2452.00,0.0079
2451.00,0.0079
2450.00,0.0079
2449.00,0.0078
2448.00,0.0078
2447.00,0.0078
2446.00,0.0078
2445.00,0.0078
2444.00,0.0078
2443.00,0.0078
2442.00,0.0078
2441.00,0.0077
2440.00,0.0077
2439.00,0.0077
2438.00,0.0077
2437.00,0.0077
2436.00,0.0077
2435.00,0.0077
2434.00,0.0076
2433.00,0.0076
2432.00,0.0076
2431.00,0.0076
2430.00,0.0076
2429.00,0.0076
2428.00,0.0076
2427.00,0.0076
2426.00,0.0076
2425.00,0.0076
2424.00,0.0075
2423.00,0.0075
2422.00,0.0075
2421.00,0.0075
2420.00,0.0075
2419.00,0.0075
2418.00,0.0075
2417.00,0.0075
2416.00,0.0074
2415.00,0.0075
2414.00,0.0075
2413.00,0.0075
2412.00,0.0075
2411.00,0.0075
2410.00,0.0075
2409.00,0.0074
2408.00,0.0074
2407.00,0.0073
2406.00,0.0073
2405.00,0.0073
2404.00,0.0073
2403.00,0.0073
2402.00,0.0073
2401.00,0.0073
2400.00,0.0073
2399.00,0.0073
2398.00,0.0073
2397.00,0.0073
2396.00,0.0073
2395.00,0.0073
2394.00,0.0073
2393.00,0.0073
2392.00,0.0073
2391.00,0.0073
2390.00,0.0072
2389.00,0.0072
2388.00,0.0072
2387.00,0.0071
2386.00,0.0071
2385.00,0.0070
2384.00,0.0070
2383.00,0.0070
2382.00,0.0069
2381.00,0.0069
2380.00,0.0070
2379.00,0.0070
2378.00,0.0070
2377.00,0.0070
2376.00,0.0071
2375.00,0.0071
2374.00,0.0071
2373.00,0.0071
2372.00,0.0071
2371.00,0.0071
2370.00,0.0071
2369.00,0.0070
2368.00,0.0070
2367.00,0.0070
2366.00,0.0070
2365.00,0.0070
2364.00,0.0070
2363.00,0.0071
2362.00,0.0071
2361.00,0.0071
2360.00,0.0071
2359.00,0.0071
2358.00,0.0071
2357.00,0.0071
2356.00,0.0072
2355.00,0.0071
2354.00,0.0071
2353.00,0.0070
2352.00,0.0070
2351.00,0.0071
2350.00,0.0071
2349.00,0.0072
2348.00,0.0072
2347.00,0.0072
2346.00,0.0072
2345.00,0.0072
2344.00,0.0073
2343.00,0.0073
2342.00,0.0073
2341.00,0.0074
2340.00,0.0074
2339.00,0.0074
2338.00,0.0074
2337.00,0.0074
2336.00,0.0074
2335.00,0.0074
2334.00,0.0074
2333.00,0.0073
2332.00,0.0073
2331.00,0.0073
2330.00,0.0073
2329.00,0.0074
2328.00,0.0077
2327.00,0.0080
2326.00,0.0083
2325.00,0.0085
2324.00,0.0084
2323.00,0.0083
2322.00,0.0081
2321.00,0.0079
2320.00,0.0078
2319.00,0.0077
2318.00,0.0077
2317.00,0.0076
2316.00,0.0076
2315.00,0.0075
2314.00,0.0075
2313.00,0.0074
2312.00,0.0074
2311.00,0.0074
2310.00,0.0074
2309.00,0.0074
2308.00,0.0074
2307.00,0.0074
2306.00,0.0074
2305.00,0.0074
2304.00,0.0074
2303.00,0.0074
2302.00,0.0074
2301.00,0.0074
2300.00,0.0074
2299.00,0.0075
2298.00,0.0075
2297.00,0.0075
2296.00,0.0076
2295.00,0.0077
2294.00,0.0077
2293.00,0.0078
2292.00,0.0079
2291.00,0.0079
2290.00,0.0080
2289.00,0.0080
2288.00,0.0080
2287.00,0.0080
2286.00,0.0080
2285.00,0.0080
2284.00,0.0079
2283.00,0.0078
2282.00,0.0078
2281.00,0.0077
2280.00,0.0077
2279.00,0.0077
2278.00,0.0077
2277.00,0.0077
2276.00,0.0076
2275.00,0.0076
2274.00,0.0075
2273.00,0.0075
2272.00,0.0075
2271.00,0.0075
2270.00,0.0075
2269.00,0.0075
2268.00,0.0075
2267.00,0.0074
2266.00,0.0073
2265.00,0.0073
2264.00,0.0073
2263.00,0.0073
2262.00,0.0073
2261.00,0.0074
2260.00,0.0074
2259.00,0.0074
2258.00,0.0073
2257.00,0.0073
2256.00,0.0072
2255.00,0.0071
2254.00,0.0070
2253.00,0.0071
2252.00,0.0071
2251.00,0.0071
2250.00,0.0072
2249.00,0.0072
2248.00,0.0072
2247.00,0.0072
2246.00,0.0072
2245.00,0.0072
2244.00,0.0072
2243.00,0.0072
2242.00,0.0072
2241.00,0.0072
2240.00,0.0071
2239.00,0.0071
2238.00,0.0071
2237.00,0.0071
2236.00,0.0071
2235.00,0.0071
2234.00,0.0071
2233.00,0.0072
2232.00,0.0071
2231.00,0.0071
2230.00,0.0071
2229.00,0.0071
2228.00,0.0071
2227.00,0.0071
2226.00,0.0071
2225.00,0.0071
2224.00,0.0071
2223.00,0.0071
2222.00,0.0070
2221.00,0.0070
2220.00,0.0070
2219.00,0.0070
2218.00,0.0070
2217.00,0.0070
2216.00,0.0070
2215.00,0.0070
2214.00,0.0071
2213.00,0.0071
2212.00,0.0070
2211.00,0.0069
2210.00,0.0069
2209.00,0.0069
2208.00,0.0069
2207.00,0.0069
2206.00,0.0069
2205.00,0.0069
2204.00,0.0069
2203.00,0.0069
2202.00,0.0069
2201.00,0.0069
2200.00,0.0070
2199.00,0.0070
2198.00,0.0070
2197.00,0.0070
2196.00,0.0070
2195.00,0.0070
2194.00,0.0071
2193.00,0.0071
2192.00,0.0071
2191.00,0.0071
2190.00,0.0071
2189.00,0.0072
2188.00,0.0072
2187.00,0.0073
2186.00,0.0072
2185.00,0.0071
2184.00,0.0069
2183.00,0.0067
2182.00,0.0065
2181.00,0.0065
2180.00,0.0066
2179.00,0.0067
2178.00,0.0066
2177.00,0.0065
2176.00,0.0064
2175.00,0.0064
2174.00,0.0064
2173.00,0.0066
2172.00,0.0067
2171.00,0.0069
2170.00,0.0071
2169.00,0.0073
2168.00,0.0073
2167.00,0.0074
2166.00,0.0075
2165.00,0.0076
2164.00,0.0078
2163.00,0.0078
2162.00,0.0074
2161.00,0.0065
2160.00,0.0053
2159.00,0.0044
2158.00,0.0039
2157.00,0.0039
2156.00,0.0041
2155.00,0.0044
2154.00,0.0046
2153.00,0.0048
2152.00,0.0050
2151.00,0.0051
2150.00,0.0051
2149.00,0.0051
2148.00,0.0051
2147.00,0.0051
2146.00,0.0051
2145.00,0.0051
2144.00,0.0052
2143.00,0.0052
2142.00,0.0052
2141.00,0.0053
2140.00,0.0053
2139.00,0.0053
2138.00,0.0053
2137.00,0.0051
2136.00,0.0050
2135.00,0.0048
2134.00,0.0048
2133.00,0.0048
2132.00,0.0050
2131.00,0.0051
2130.00,0.0052
2129.00,0.0053
2128.00,0.0054
2127.00,0.0055
2126.00,0.0056
2125.00,0.0057
2124.00,0.0058
2123.00,0.0058
2122.00,0.0059
2121.00,0.0060
2120.00,0.0060
2119.00,0.0061
2118.00,0.0062
2117.00,0.0062
2116.00,0.0063
2115.00,0.0063
2114.00,0.0063
2113.00,0.0063
2112.00,0.0063
2111.00,0.0063
2110.00,0.0063
2109.00,0.0064
2108.00,0.0064
2107.00,0.0064
2106.00,0.0063
2105.00,0.0063
2104.00,0.0063
2103.00,0.0063
2102.00,0.0063
2101.00,0.0063
2100.00,0.0063
2099.00,0.0062
2098.00,0.0061
2097.00,0.0060
2096.00,0.0059
2095.00,0.0058
2094.00,0.0058
2093.00,0.0058
2092.00,0.0059
2091.00,0.0060
2090.00,0.0061
2089.00,0.0061
2088.00,0.0062
2087.00,0.0063
2086.00,0.0063
2085.00,0.0063
2084.00,0.0063
2083.00,0.0063
2082.00,0.0063
2081.00,0.0064
2080.00,0.0064
2079.00,0.0064
2078.00,0.0064
2077.00,0.0064
2076.00,0.0063
2075.00,0.0063
2074.00,0.0063
2073.00,0.0062
2072.00,0.0062
2071.00,0.0062
2070.00,0.0062
2069.00,0.0062
2068.00,0.0062
2067.00,0.0062
2066.00,0.0061
2065.00,0.0061
2064.00,0.0060
2063.00,0.0060
2062.00,0.0060
2061.00,0.0060
2060.00,0.0060
2059.00,0.0061
2058.00,0.0061
2057.00,0.0061
2056.00,0.0061
2055.00,0.0062
2054.00,0.0063
2053.00,0.0066
2052.00,0.0069
2051.00,0.0070
2050.00,0.0069
2049.00,0.0066
2048.00,0.0064
2047.00,0.0063
2046.00,0.0062
2045.00,0.0061
2044.00,0.0060
2043.00,0.0061
2042.00,0.0061
2041.00,0.0061
2040.00,0.0062
2039.00,0.0061
2038.00,0.0061
2037.00,0.0060
2036.00,0.0059
2035.00,0.0057
2034.00,0.0056
2033.00,0.0055
2032.00,0.0055
2031.00,0.0055
2030.00,0.0055
2029.00,0.0054
2028.00,0.0053
2027.00,0.0052
2026.00,0.0052
2025.00,0.0051
2024.00,0.0052
2023.00,0.0052
2022.00,0.0053
2021.00,0.0053
2020.00,0.0052
2019.00,0.0052
2018.00,0.0052
2017.00,0.0052
2016.00,0.0052
2015.00,0.0053
2014.00,0.0054
2013.00,0.0054
2012.00,0.0054
2011.00,0.0054
2010.00,0.0054
2009.00,0.0052
2008.00,0.0050
2007.00,0.0048
2006.00,0.0047
2005.00,0.0047
2004.00,0.0048
2003.00,0.0048
2002.00,0.0049
2001.00,0.0050
2000.00,0.0051
1999.00,0.0052
1998.00,0.0053
1997.00,0.0053
1996.00,0.0054
1995.00,0.0054
1994.00,0.0055
1993.00,0.0055
1992.00,0.0056
1991.00,0.0056
1990.00,0.0056
1989.00,0.0056
1988.00,0.0056
1987.00,0.0057
1986.00,0.0058
1985.00,0.0059
1984.00,0.0060
1983.00,0.0062
1982.00,0.0064
1981.00,0.0065
1980.00,0.0063
1979.00,0.0059
1978.00,0.0053
1977.00,0.0049
1976.00,0.0046
1975.00,0.0045
1974.00,0.0045
1973.00,0.0045
1972.00,0.0045
1971.00,0.0046
1970.00,0.0046
1969.00,0.0046
1968.00,0.0046
1967.00,0.0046
1966.00,0.0046
1965.00,0.0046
1964.00,0.0046
1963.00,0.0045
1962.00,0.0044
1961.00,0.0043
1960.00,0.0042
1959.00,0.0042
1958.00,0.0042
1957.00,0.0042
1956.00,0.0043
1955.00,0.0044
1954.00,0.0044
1953.00,0.0045
1952.00,0.0046
1951.00,0.0046
1950.00,0.0046
1949.00,0.0047
1948.00,0.0046
1947.00,0.0046
1946.00,0.0045
1945.00,0.0045
1944.00,0.0045
1943.00,0.0045
1942.00,0.0045
1941.00,0.0045
1940.00,0.0045
1939.00,0.0045
1938.00,0.0045
1937.00,0.0045
1936.00,0.0045
1935.00,0.0045
1934.00,0.0045
1933.00,0.0045
1932.00,0.0045
1931.00,0.0045
1930.00,0.0045
1929.00,0.0045
1928.00,0.0046
1927.00,0.0046
1926.00,0.0046
1925.00,0.0046
1924.00,0.0046
1923.00,0.0047
1922.00,0.0047
1921.00,0.0047
1920.00,0.0047
1919.00,0.0047
1918.00,0.0047
1917.00,0.0047
1916.00,0.0047
1915.00,0.0047
1914.00,0.0047
1913.00,0.0047
1912.00,0.0047
1911.00,0.0046
1910.00,0.0046
1909.00,0.0046
1908.00,0.0046
1907.00,0.0046
1906.00,0.0047
1905.00,0.0047
1904.00,0.0046
1903.00,0.0046
1902.00,0.0046
1901.00,0.0046
1900.00,0.0046
1899.00,0.0046
1898.00,0.0046
1897.00,0.0046
1896.00,0.0046
1895.00,0.0046
1894.00,0.0046
1893.00,0.0046
1892.00,0.0046
1891.00,0.0046
1890.00,0.0046
1889.00,0.0046
1888.00,0.0046
1887.00,0.0046
1886.00,0.0046
1885.00,0.0046
1884.00,0.0046
1883.00,0.0046
1882.00,0.0046
1881.00,0.0046
1880.00,0.0046
1879.00,0.0046
1878.00,0.0045
1877.00,0.0045
1876.00,0.0045
1875.00,0.0045
1874.00,0.0045
1873.00,0.0045
1872.00,0.0045
1871.00,0.0045
1870.00,0.0045
1869.00,0.0045
1868.00,0.0045
1867.00,0.0045
1866.00,0.0045
1865.00,0.0045
1864.00,0.0045
1863.00,0.0045
1862.00,0.0045
1861.00,0.0045
1860.00,0.0045
1859.00,0.0045
1858.00,0.0044
1857.00,0.0044
1856.00,0.0044
1855.00,0.0044
1854.00,0.0044
1853.00,0.0044
1852.00,0.0044
1851.00,0.0044
1850.00,0.0044
1849.00,0.0044
1848.00,0.0044
1847.00,0.0044
1846.00,0.0044
1845.00,0.0044
1844.00,0.0044
1843.00,0.0044
1842.00,0.0043
1841.00,0.0043
1840.00,0.0043
1839.00,0.0043
1838.00,0.0043
1837.00,0.0043
1836.00,0.0043
1835.00,0.0043
1834.00,0.0043
1833.00,0.0043
1832.00,0.0043
1831.00,0.0043
1830.00,0.0043
1829.00,0.0043
1828.00,0.0043
1827.00,0.0043
1826.00,0.0043
1825.00,0.0043
1824.00,0.0044
1823.00,0.0044
1822.00,0.0043
1821.00,0.0043
1820.00,0.0042
1819.00,0.0041
1818.00,0.0041
1817.00,0.0040
1816.00,0.0040
1815.00,0.0040
1814.00,0.0041
1813.00,0.0041
1812.00,0.0041
1811.00,0.0042
1810.00,0.0042
1809.00,0.0042
1808.00,0.0042
1807.00,0.0042
1806.00,0.0042
1805.00,0.0042
1804.00,0.0042
1803.00,0.0042
1802.00,0.0042
1801.00,0.0042
1800.00,0.0042
1799.00,0.0042
1798.00,0.0042
1797.00,0.0042
1796.00,0.0042
1795.00,0.0042
1794.00,0.0042
1793.00,0.0042
1792.00,0.0042
1791.00,0.0043
1790.00,0.0042
1789.00,0.0042
1788.00,0.0042
1787.00,0.0042
1786.00,0.0042
1785.00,0.0042
1784.00,0.0042
1783.00,0.0042
1782.00,0.0042
1781.00,0.0042
1780.00,0.0042
1779.00,0.0042
1778.00,0.0041
1777.00,0.0041
1776.00,0.0041
1775.00,0.0041
1774.00,0.0042
1773.00,0.0042
1772.00,0.0042
1771.00,0.0042
1770.00,0.0042
1769.00,0.0041
1768.00,0.0041
1767.00,0.0041
1766.00,0.0041
1765.00,0.0041
1764.00,0.0041
1763.00,0.0041
1762.00,0.0041
1761.00,0.0041
1760.00,0.0041
1759.00,0.0041
1758.00,0.0041
1757.00,0.0041
1756.00,0.0041
1755.00,0.0041
1754.00,0.0041
1753.00,0.0041
1752.00,0.0041
1751.00,0.0041
1750.00,0.0041
1749.00,0.0041
1748.00,0.0041
1747.00,0.0041
1746.00,0.0041
1745.00,0.0041
1744.00,0.0041
1743.00,0.0041
1742.00,0.0041
1741.00,0.0041
1740.00,0.0042
1739.00,0.0042
1738.00,0.0042
1737.00,0.0042
1736.00,0.0042
1735.00,0.0043
1734.00,0.0044
1733.00,0.0044
1732.00,0.0044
1731.00,0.0043
1730.00,0.0043
1729.00,0.0043
1728.00,0.0043
1727.00,0.0043
1726.00,0.0043
1725.00,0.0043
1724.00,0.0044
1723.00,0.0044
1722.00,0.0045
1721.00,0.0045
1720.00,0.0046
1719.00,0.0047
1718.00,0.0048
1717.00,0.0049
1716.00,0.0050
1715.00,0.0050
1714.00,0.0051
1713.00,0.0052
1712.00,0.0053
1711.00,0.0055
1710.00,0.0057
1709.00,0.0059
1708.00,0.0061
1707.00,0.0065
1706.00,0.0069
1705.00,0.0074
1704.00,0.0079
1703.00,0.0085
1702.00,0.0091
1701.00,0.0102
1700.00,0.0118
1699.00,0.0130
1698.00,0.0138
1697.00,0.0145
1696.00,0.0153
1695.00,0.0160
1694.00,0.0165
1693.00,0.0167
1692.00,0.0170
1691.00,0.0174
1690.00,0.0178
1689.00,0.0183
1688.00,0.0188
1687.00,0.0193
1686.00,0.0197
1685.00,0.0205
1684.00,0.0215
1683.00,0.0223
1682.00,0.0228
1681.00,0.0234
1680.00,0.0239
1679.00,0.0245
1678.00,0.0251
1677.00,0.0257
1676.00,0.0265
1675.00,0.0274
1674.00,0.0282
1673.00,0.0289
1672.00,0.0294
1671.00,0.0301
1670.00,0.0310
1669.00,0.0320
1668.00,0.0328
1667.00,0.0335
1666.00,0.0340
1665.00,0.0346
1664.00,0.0353
1663.00,0.0362
1662.00,0.0370
1661.00,0.0377
1660.00,0.0384
1659.00,0.0389
1658.00,0.0394
1657.00,0.0399
1656.00,0.0403
1655.00,0.0407
1654.00,0.0413
1653.00,0.0423
1652.00,0.0429
1651.00,0.0431
1650.00,0.0430
1649.00,0.0430
1648.00,0.0432
1647.00,0.0436
1646.00,0.0440
1645.00,0.0442
1644.00,0.0442
1643.00,0.0443
1642.00,0.0444
1641.00,0.0445
1640.00,0.0446
1639.00,0.0447
1638.00,0.0448
1637.00,0.0450
1636.00,0.0453
1635.00,0.0456
1634.00,0.0458
1633.00,0.0459
1632.00,0.0459
1631.00,0.0460
1630.00,0.0461
1629.00,0.0463
1628.00,0.0466
1627.00,0.0468
1626.00,0.0470
1625.00,0.0471
1624.00,0.0473
1623.00,0.0476
1622.00,0.0477
1621.00,0.0478
1620.00,0.0477
1619.00,0.0476
1618.00,0.0474
1617.00,0.0470
1616.00,0.0466
1615.00,0.0460
1614.00,0.0453
1613.00,0.0446
1612.00,0.0438
1611.00,0.0430
1610.00,0.0422
1609.00,0.0413
1608.00,0.0405
1607.00,0.0396
1606.00,0.0388
1605.00,0.0379
1604.00,0.0371
1603.00,0.0362
1602.00,0.0354
1601.00,0.0346
1600.00,0.0338
1599.00,0.0331
1598.00,0.0324
1597.00,0.0317
1596.00,0.0310
1595.00,0.0304
1594.00,0.0297
1593.00,0.0291
1592.00,0.0285
1591.00,0.0279
1590.00,0.0273
1589.00,0.0268
1588.00,0.0262
1587.00,0.0257
1586.00,0.0253
1585.00,0.0249
1584.00,0.0244
1583.00,0.0241
1582.00,0.0237
1581.00,0.0235
1580.00,0.0233
1579.00,0.0231
1578.00,0.0230
1577.00,0.0230
1576.00,0.0230
1575.00,0.0230
1574.00,0.0230
1573.00,0.0230
1572.00,0.0231
1571.00,0.0232
1570.00,0.0235
1569.00,0.0239
1568.00,0.0242
1567.00,0.0245
1566.00,0.0248
1565.00,0.0252
1564.00,0.0257
1563.00,0.0260
1562.00,0.0264
1561.00,0.0267
1560.00,0.0272
1559.00,0.0284
1558.00,0.0294
1557.00,0.0300
1556.00,0.0304
1555.00,0.0308
1554.00,0.0314
1553.00,0.0319
1552.00,0.0324
1551.00,0.0329
1550.00,0.0335
1549.00,0.0341
1548.00,0.0346
1547.00,0.0350
1546.00,0.0354
1545.00,0.0359
1544.00,0.0364
1543.00,0.0368
1542.00,0.0373
1541.00,0.0378
1540.00,0.0385
1539.00,0.0391
1538.00,0.0394
1537.00,0.0395
1536.00,0.0396
1535.00,0.0398
1534.00,0.0402
1533.00,0.0407
1532.00,0.0412
1531.00,0.0415
1530.00,0.0417
1529.00,0.0420
1528.00,0.0423
1527.00,0.0427
1526.00,0.0431
1525.00,0.0435
1524.00,0.0437
1523.00,0.0440
1522.00,0.0444
1521.00,0.0449
1520.00,0.0452
1519.00,0.0453
1518.00,0.0454
1517.00,0.0455
1516.00,0.0455
1515.00,0.0454
1514.00,0.0452
1513.00,0.0448
1512.00,0.0444
1511.00,0.0439
1510.00,0.0435
1509.00,0.0431
1508.00,0.0425
1507.00,0.0417
1506.00,0.0409
1505.00,0.0400
1504.00,0.0393
1503.00,0.0386
1502.00,0.0379
1501.00,0.0372
1500.00,0.0364
1499.00,0.0356
1498.00,0.0348
1497.00,0.0339
1496.00,0.0330
1495.00,0.0321
1494.00,0.0314
1493.00,0.0306
1492.00,0.0298
1491.00,0.0290
1490.00,0.0282
1489.00,0.0274
1488.00,0.0267
1487.00,0.0260
1486.00,0.0255
1485.00,0.0249
1484.00,0.0244
1483.00,0.0240
1482.00,0.0236
1481.00,0.0232
1480.00,0.0228
1479.00,0.0225
1478.00,0.0222
1477.00,0.0220
1476.00,0.0218
1475.00,0.0216
1474.00,0.0215
1473.00,0.0214
1472.00,0.0215
1471.00,0.0215
1470.00,0.0215
1469.00,0.0215
1468.00,0.0214
1467.00,0.0214
1466.00,0.0213
1465.00,0.0213
1464.00,0.0214
1463.00,0.0215
1462.00,0.0216
1461.00,0.0218
1460.00,0.0220
1459.00,0.0223
1458.00,0.0227
1457.00,0.0231
1456.00,0.0235
1455.00,0.0236
1454.00,0.0237
1453.00,0.0237
1452.00,0.0238
1451.00,0.0238
1450.00,0.0237
1449.00,0.0236
1448.00,0.0235
1447.00,0.0234
1446.00,0.0232
1445.00,0.0230
1444.00,0.0228
1443.00,0.0225
1442.00,0.0223
1441.00,0.0220
1440.00,0.0217
1439.00,0.0215
1438.00,0.0212
1437.00,0.0210
1436.00,0.0207
1435.00,0.0205
1434.00,0.0203
1433.00,0.0201
1432.00,0.0200
1431.00,0.0198
1430.00,0.0197
1429.00,0.0197
1428.00,0.0197
1427.00,0.0196
1426.00,0.0196
1425.00,0.0197
1424.00,0.0197
1423.00,0.0198
1422.00,0.0199
1421.00,0.0199
1420.00,0.0200
1419.00,0.0201
1418.00,0.0203
1417.00,0.0204
1416.00,0.0205
1415.00,0.0206
1414.00,0.0207
1413.00,0.0208
1412.00,0.0208
1411.00,0.0209
1410.00,0.0210
1409.00,0.0211
1408.00,0.0212
1407.00,0.0212
1406.00,0.0212
1405.00,0.0213
1404.00,0.0213
1403.00,0.0213
1402.00,0.0212
1401.00,0.0212
1400.00,0.0211
1399.00,0.0211
1398.00,0.0211
1397.00,0.0210
1396.00,0.0210
1395.00,0.0209
1394.00,0.0209
1393.00,0.0209
1392.00,0.0209
1391.00,0.0208
1390.00,0.0208
1389.00,0.0208
1388.00,0.0207
1387.00,0.0207
1386.00,0.0207
1385.00,0.0206
1384.00,0.0205
1383.00,0.0204
1382.00,0.0204
1381.00,0.0203
1380.00,0.0202
1379.00,0.0201
1378.00,0.0200
1377.00,0.0199
1376.00,0.0199
1375.00,0.0198
1374.00,0.0198
1373.00,0.0198
1372.00,0.0197
1371.00,0.0196
1370.00,0.0196
1369.00,0.0195
1368.00,0.0194
1367.00,0.0193
1366.00,0.0191
1365.00,0.0190
1364.00,0.0188
1363.00,0.0187
1362.00,0.0186
1361.00,0.0185
1360.00,0.0184
1359.00,0.0183
1358.00,0.0183
1357.00,0.0182
1356.00,0.0181
1355.00,0.0180
1354.00,0.0180
1353.00,0.0179
1352.00,0.0179
1351.00,0.0178
1350.00,0.0178
1349.00,0.0178
1348.00,0.0177
1347.00,0.0177
1346.00,0.0177
1345.00,0.0177
1344.00,0.0177
1343.00,0.0177
1342.00,0.0177
1341.00,0.0176
1340.00,0.0176
1339.00,0.0177
1338.00,0.0177
1337.00,0.0177
1336.00,0.0177
1335.00,0.0176
1334.00,0.0176
1333.00,0.0176
1332.00,0.0176
1331.00,0.0176
1330.00,0.0176
1329.00,0.0176
1328.00,0.0175
1327.00,0.0175
1326.00,0.0175
1325.00,0.0175
1324.00,0.0175
1323.00,0.0176
1322.00,0.0176
1321.00,0.0176
1320.00,0.0176
1319.00,0.0176
1318.00,0.0176
1317.00,0.0177
1316.00,0.0176
1315.00,0.0177
1314.00,0.0177
1313.00,0.0177
1312.00,0.0177
1311.00,0.0177
1310.00,0.0177
1309.00,0.0177
1308.00,0.0177
1307.00,0.0176
1306.00,0.0177
1305.00,0.0176
1304.00,0.0176
1303.00,0.0176
1302.00,0.0176
1301.00,0.0176
1300.00,0.0175
1299.00,0.0175
1298.00,0.0175
1297.00,0.0174
1296.00,0.0174
1295.00,0.0174
1294.00,0.0174
1293.00,0.0174
1292.00,0.0174
1291.00,0.0174
1290.00,0.0174
1289.00,0.0174
1288.00,0.0174
1287.00,0.0174
1286.00,0.0174
1285.00,0.0173
1284.00,0.0173
1283.00,0.0173
1282.00,0.0173
1281.00,0.0172
1280.00,0.0172
1279.00,0.0172
1278.00,0.0171
1277.00,0.0171
1276.00,0.0171
1275.00,0.0171
1274.00,0.0171
1273.00,0.0171
1272.00,0.0171
1271.00,0.0172
1270.00,0.0172
1269.00,0.0173
1268.00,0.0173
1267.00,0.0173
1266.00,0.0174
1265.00,0.0175
1264.00,0.0175
1263.00,0.0176
1262.00,0.0177
1261.00,0.0179
1260.00,0.0180
1259.00,0.0181
1258.00,0.0183
1257.00,0.0185
1256.00,0.0186
1255.00,0.0188
1254.00,0.0190
1253.00,0.0191
1252.00,0.0193
1251.00,0.0194
1250.00,0.0196
1249.00,0.0197
1248.00,0.0199
1247.00,0.0200
1246.00,0.0201
1245.00,0.0202
1244.00,0.0203
1243.00,0.0204
1242.00,0.0204
1241.00,0.0205
1240.00,0.0205
1239.00,0.0205
1238.00,0.0206
1237.00,0.0206
1236.00,0.0205
1235.00,0.0205
1234.00,0.0205
1233.00,0.0205
1232.00,0.0204
1231.00,0.0204
1230.00,0.0203
1229.00,0.0203
1228.00,0.0202
1227.00,0.0202
1226.00,0.0201
1225.00,0.0200
1224.00,0.0199
1223.00,0.0198
1222.00,0.0197
1221.00,0.0196
1220.00,0.0195
1219.00,0.0194
1218.00,0.0193
1217.00,0.0191
1216.00,0.0190
1215.00,0.0188
1214.00,0.0187
1213.00,0.0185
1212.00,0.0183
1211.00,0.0181
1210.00,0.0179
1209.00,0.0178
1208.00,0.0176
1207.00,0.0173
1206.00,0.0171
1205.00,0.0169
1204.00,0.0167
1203.00,0.0165
1202.00,0.0163
1201.00,0.0161
1200.00,0.0159
1199.00,0.0157
1198.00,0.0156
1197.00,0.0154
1196.00,0.0153
1195.00,0.0152
1194.00,0.0151
1193.00,0.0150
1192.00,0.0148
1191.00,0.0148
1190.00,0.0147
1189.00,0.0146
1188.00,0.0145
1187.00,0.0144
1186.00,0.0144
1185.00,0.0144
1184.00,0.0143
1183.00,0.0143
1182.00,0.0144
1181.00,0.0144
1180.00,0.0144
1179.00,0.0144
1178.00,0.0145
1177.00,0.0146
1176.00,0.0147
1175.00,0.0148
1174.00,0.0150
1173.00,0.0151
1172.00,0.0152
1171.00,0.0153
1170.00,0.0155
1169.00,0.0156
1168.00,0.0157
1167.00,0.0157
1166.00,0.0158
1165.00,0.0159
1164.00,0.0159
1163.00,0.0160
1162.00,0.0160
1161.00,0.0161
1160.00,0.0161
1159.00,0.0160
1158.00,0.0160
1157.00,0.0159
1156.00,0.0158
1155.00,0.0158
1154.00,0.0157
1153.00,0.0156
1152.00,0.0155
1151.00,0.0154
1150.00,0.0153
1149.00,0.0152
1148.00,0.0150
1147.00,0.0149
1146.00,0.0148
1145.00,0.0147
1144.00,0.0146
1143.00,0.0145
1142.00,0.0145
1141.00,0.0145
1140.00,0.0144
1139.00,0.0144
1138.00,0.0144
1137.00,0.0144
1136.00,0.0144
1135.00,0.0144
1134.00,0.0144
1133.00,0.0144
1132.00,0.0144
1131.00,0.0145
1130.00,0.0145
1129.00,0.0145
1128.00,0.0145
1127.00,0.0145
1126.00,0.0145
1125.00,0.0144
1124.00,0.0143
1123.00,0.0143
1122.00,0.0142
1121.00,0.0142
1120.00,0.0141
1119.00,0.0140
1118.00,0.0140
1117.00,0.0139
1116.00,0.0139
1115.00,0.0138
1114.00,0.0138
1113.00,0.0137
1112.00,0.0137
1111.00,0.0136
1110.00,0.0136
1109.00,0.0136
1108.00,0.0136
1107.00,0.0136
1106.00,0.0136
1105.00,0.0136
1104.00,0.0136
1103.00,0.0136
1102.00,0.0137
1101.00,0.0137
1100.00,0.0138
1099.00,0.0138
1098.00,0.0139
1097.00,0.0140
1096.00,0.0140
1095.00,0.0142
1094.00,0.0143
1093.00,0.0145
1092.00,0.0147
1091.00,0.0149
1090.00,0.0151
1089.00,0.0154
1088.00,0.0156
1087.00,0.0159
1086.00,0.0162
1085.00,0.0166
1084.00,0.0169
1083.00,0.0172
1082.00,0.0175
1081.00,0.0178
1080.00,0.0181
1079.00,0.0183
1078.00,0.0186
1077.00,0.0189
1076.00,0.0191
1075.00,0.0192
1074.00,0.0194
1073.00,0.0195
1072.00,0.0196
1071.00,0.0197
1070.00,0.0198
1069.00,0.0198
1068.00,0.0198
1067.00,0.0198
1066.00,0.0199
1065.00,0.0199
1064.00,0.0199
1063.00,0.0199
1062.00,0.0199
1061.00,0.0199
1060.00,0.0198
1059.00,0.0197
1058.00,0.0196
1057.00,0.0195
1056.00,0.0194
1055.00,0.0193
1054.00,0.0192
1053.00,0.0191
1052.00,0.0189
1051.00,0.0188
1050.00,0.0187
1049.00,0.0185
1048.00,0.0184
1047.00,0.0182
1046.00,0.0180
1045.00,0.0178
1044.00,0.0175
1043.00,0.0173
1042.00,0.0171
1041.00,0.0168
1040.00,0.0166
1039.00,0.0163
1038.00,0.0162
1037.00,0.0160
1036.00,0.0158
1035.00,0.0156
1034.00,0.0155
1033.00,0.0153
1032.00,0.0151
1031.00,0.0149
1030.00,0.0147
1029.00,0.0146
1028.00,0.0143
1027.00,0.0141
1026.00,0.0139
1025.00,0.0137
1024.00,0.0135
1023.00,0.0133
1022.00,0.0132
1021.00,0.0130
1020.00,0.0128
1019.00,0.0127
1018.00,0.0126
1017.00,0.0124
1016.00,0.0123
1015.00,0.0121
1014.00,0.0120
1013.00,0.0119
1012.00,0.0118
1011.00,0.0116
1010.00,0.0116
1009.00,0.0115
1008.00,0.0114
1007.00,0.0113
1006.00,0.0112
1005.00,0.0112
1004.00,0.0111
1003.00,0.0110
1002.00,0.0110
1001.00,0.0109
1000.00,0.0109
999.00,0.0108
998.00,0.0108
997.00,0.0108
996.00,0.0107
995.00,0.0107
994.00,0.0106
993.00,0.0106
992.00,0.0106
991.00,0.0105
990.00,0.0105
989.00,0.0105
988.00,0.0105
987.00,0.0104
986.00,0.0104
985.00,0.0104
984.00,0.0103
983.00,0.0103
982.00,0.0103
981.00,0.0103
980.00,0.0103
979.00,0.0103
978.00,0.0103
977.00,0.0104
976.00,0.0104
975.00,0.0104
974.00,0.0104
973.00,0.0105
972.00,0.0105
971.00,0.0105
970.00,0.0106
969.00,0.0107
968.00,0.0108
967.00,0.0109
966.00,0.0110
965.00,0.0111
964.00,0.0112
963.00,0.0112
962.00,0.0113
961.00,0.0113
960.00,0.0113
959.00,0.0113
958.00,0.0113
957.00,0.0112
956.00,0.0112
955.00,0.0111
954.00,0.0111
953.00,0.0110
952.00,0.0109
951.00,0.0109
950.00,0.0109
949.00,0.0108
948.00,0.0108
947.00,0.0108
946.00,0.0108
945.00,0.0108
944.00,0.0107
943.00,0.0107
942.00,0.0107
941.00,0.0107
940.00,0.0106
939.00,0.0106
938.00,0.0107
937.00,0.0107
936.00,0.0107
935.00,0.0107
934.00,0.0107
933.00,0.0107
932.00,0.0107
931.00,0.0107
930.00,0.0107
929.00,0.0107
928.00,0.0107
927.00,0.0106
926.00,0.0106
925.00,0.0106
924.00,0.0105
923.00,0.0105
922.00,0.0105
921.00,0.0105
920.00,0.0104
919.00,0.0103
918.00,0.0103
917.00,0.0102
916.00,0.0102
915.00,0.0101
914.00,0.0102
913.00,0.0102
912.00,0.0102
911.00,0.0102
910.00,0.0102
909.00,0.0103
908.00,0.0103
907.00,0.0103
906.00,0.0104
905.00,0.0104
904.00,0.0104
903.00,0.0104
902.00,0.0105
901.00,0.0105
900.00,0.0105
899.00,0.0105
898.00,0.0105
897.00,0.0105
896.00,0.0104
895.00,0.0104
894.00,0.0104
893.00,0.0104
892.00,0.0103
891.00,0.0102
890.00,0.0102
889.00,0.0101
888.00,0.0100
887.00,0.0100
886.00,0.0100
885.00,0.0100
884.00,0.0099
883.00,0.0099
882.00,0.0099
881.00,0.0099
880.00,0.0099
879.00,0.0098
878.00,0.0099
877.00,0.0099
876.00,0.0099
875.00,0.0098
874.00,0.0098
873.00,0.0099
872.00,0.0098
871.00,0.0098
870.00,0.0098
869.00,0.0098
868.00,0.0098
867.00,0.0098
866.00,0.0098
865.00,0.0098
864.00,0.0097
863.00,0.0097
862.00,0.0097
861.00,0.0098
860.00,0.0098
859.00,0.0098
858.00,0.0098
857.00,0.0098
856.00,0.0098
855.00,0.0098
854.00,0.0099
853.00,0.0100
852.00,0.0100
851.00,0.0100
850.00,0.0101
849.00,0.0101
848.00,0.0101
847.00,0.0101
846.00,0.0101
845.00,0.0102
844.00,0.0102
843.00,0.0103
842.00,0.0104
841.00,0.0105
840.00,0.0105
839.00,0.0105
838.00,0.0107
837.00,0.0108
836.00,0.0108
835.00,0.0109
834.00,0.0111
833.00,0.0112
832.00,0.0113
831.00,0.0114
830.00,0.0115
829.00,0.0116
828.00,0.0117
827.00,0.0117
826.00,0.0119
825.00,0.0119
824.00,0.0120
823.00,0.0120
822.00,0.0121
821.00,0.0122
820.00,0.0123
819.00,0.0123
818.00,0.0124
817.00,0.0125
816.00,0.0126
815.00,0.0126
814.00,0.0127
813.00,0.0128
812.00,0.0129
811.00,0.0130
810.00,0.0131
809.00,0.0132
808.00,0.0132
807.00,0.0132
806.00,0.0134
805.00,0.0135
804.00,0.0135
803.00,0.0136
802.00,0.0137
801.00,0.0138
800.00,0.0138
799.00,0.0139
798.00,0.0139
797.00,0.0140
796.00,0.0141
795.00,0.0141
794.00,0.0143
793.00,0.0144
792.00,0.0145
791.00,0.0146
790.00,0.0148
789.00,0.0150
788.00,0.0151
787.00,0.0152
786.00,0.0154
785.00,0.0155
784.00,0.0156
783.00,0.0157
782.00,0.0159
781.00,0.0161
780.00,0.0162
779.00,0.0163
778.00,0.0165
777.00,0.0167
776.00,0.0167
775.00,0.0169
774.00,0.0170
773.00,0.0171
772.00,0.0172
771.00,0.0172
770.00,0.0173
769.00,0.0174
768.00,0.0174
767.00,0.0175
766.00,0.0176
765.00,0.0177
764.00,0.0178
763.00,0.0178
762.00,0.0179
761.00,0.0180
760.00,0.0179
759.00,0.0180
758.00,0.0181
757.00,0.0182
756.00,0.0182
755.00,0.0183
754.00,0.0185
753.00,0.0186
752.00,0.0187
751.00,0.0189
750.00,0.0190
749.00,0.0191
748.00,0.0191
747.00,0.0192
746.00,0.0193
745.00,0.0194
744.00,0.0194
743.00,0.0195
742.00,0.0196
741.00,0.0197
740.00,0.0197
739.00,0.0198
738.00,0.0199
737.00,0.0200
736.00,0.0201
735.00,0.0202
734.00,0.0203
733.00,0.0205
732.00,0.0206
731.00,0.0208
730.00,0.0210
729.00,0.0213
728.00,0.0215
727.00,0.0218
726.00,0.0222
725.00,0.0225
724.00,0.0228
723.00,0.0231
722.00,0.0234
721.00,0.0237
720.00,0.0240
719.00,0.0243
718.00,0.0248
717.00,0.0253
716.00,0.0256
715.00,0.0260
714.00,0.0264
713.00,0.0268
712.00,0.0270
711.00,0.0273
710.00,0.0277
709.00,0.0281
708.00,0.0283
707.00,0.0286
706.00,0.0289
705.00,0.0292
704.00,0.0294
703.00,0.0297
702.00,0.0299
701.00,0.0301
700.00,0.0302
699.00,0.0303
698.00,0.0304
697.00,0.0304
696.00,0.0303
695.00,0.0303
694.00,0.0303
693.00,0.0303
692.00,0.0302
691.00,0.0302
690.00,0.0303
689.00,0.0304
688.00,0.0304
687.00,0.0304
686.00,0.0305
685.00,0.0306
684.00,0.0305
683.00,0.0305
682.00,0.0306
681.00,0.0306
680.00,0.0306
679.00,0.0306
678.00,0.0307
677.00,0.0307
676.00,0.0307
675.00,0.0306
674.00,0.0307
673.00,0.0308
672.00,0.0308
671.00,0.0308
670.00,0.0311
669.00,0.0315
668.00,0.0317
667.00,0.0316
666.00,0.0314
665.00,0.0312
664.00,0.0310
663.00,0.0310
662.00,0.0311
661.00,0.0312
660.00,0.0312
659.00,0.0312
658.00,0.0313
657.00,0.0314
656.00,0.0314
655.00,0.0314
654.00,0.0315
653.00,0.0316
652.00,0.0316
651.00,0.0316
650.00,0.0318
649.00,0.0319
648.00,0.0319
647.00,0.0319
646.00,0.0321
645.00,0.0323
644.00,0.0323
643.00,0.0324
642.00,0.0326
641.00,0.0327
640.00,0.0327
639.00,0.0328
638.00,0.0330
637.00,0.0331
636.00,0.0332
635.00,0.0333
634.00,0.0334
633.00,0.0335
632.00,0.0336
631.00,0.0336
630.00,0.0337
629.00,0.0338
628.00,0.0338
627.00,0.0338
626.00,0.0339
625.00,0.0339
624.00,0.0338
623.00,0.0337
622.00,0.0338
621.00,0.0338
620.00,0.0336
619.00,0.0335
618.00,0.0335
617.00,0.0334
616.00,0.0332
615.00,0.0331
614.00,0.0331
613.00,0.0330
612.00,0.0328
611.00,0.0326
610.00,0.0326
609.00,0.0326
608.00,0.0325
607.00,0.0325
606.00,0.0325
605.00,0.0326
604.00,0.0324
603.00,0.0323
602.00,0.0323
601.00,0.0324
600.00,0.0322
599.00,0.0322
598.00,0.0322
597.00,0.0322
596.00,0.0321
595.00,0.0320
594.00,0.0321
593.00,0.0322
592.00,0.0322
591.00,0.0321
590.00,0.0322
589.00,0.0323
588.00,0.0322
587.00,0.0321
586.00,0.0323
585.00,0.0324
584.00,0.0323
583.00,0.0322
582.00,0.0323
581.00,0.0324
580.00,0.0323
579.00,0.0323
578.00,0.0325
577.00,0.0326
576.00,0.0326
575.00,0.0326
574.00,0.0327
573.00,0.0328
572.00,0.0327
571.00,0.0327
570.00,0.0328
569.00,0.0329
568.00,0.0327
567.00,0.0326
566.00,0.0327
565.00,0.0329
564.00,0.0328
563.00,0.0328
562.00,0.0330
561.00,0.0331
560.00,0.0330
559.00,0.0330
558.00,0.0331
557.00,0.0332
556.00,0.0330
555.00,0.0329
554.00,0.0330
553.00,0.0331
552.00,0.0330
551.00,0.0329
550.00,0.0331
549.00,0.0332
548.00,0.0331
547.00,0.0330
546.00,0.0332
545.00,0.0332
544.00,0.0331
543.00,0.0330
542.00,0.0331
541.00,0.0332
540.00,0.0331
539.00,0.0330
538.00,0.0331
537.00,0.0331
536.00,0.0329
535.00,0.0329
534.00,0.0331
533.00,0.0332
532.00,0.0331
531.00,0.0331
530.00,0.0333
529.00,0.0334
528.00,0.0333
527.00,0.0333
526.00,0.0335
525.00,0.0336
524.00,0.0335
523.00,0.0333
522.00,0.0334
521.00,0.0335
520.00,0.0333
519.00,0.0332
518.00,0.0334
517.00,0.0336
516.00,0.0334
515.00,0.0332
514.00,0.0333
513.00,0.0333
512.00,0.0331
511.00,0.0329
510.00,0.0330
509.00,0.0330
508.00,0.0328
507.00,0.0327
506.00,0.0328
505.00,0.0327
504.00,0.0325
503.00,0.0323
502.00,0.0324
501.00,0.0325
500.00,0.0324
499.00,0.0324
498.00,0.0326
497.00,0.0327
496.00,0.0325
495.00,0.0323
494.00,0.0324
493.00,0.0325
492.00,0.0322
491.00,0.0320
490.00,0.0321
489.00,0.0322
488.00,0.0320
487.00,0.0318
486.00,0.0321
485.00,0.0323
484.00,0.0322
483.00,0.0321
482.00,0.0323
481.00,0.0323
480.00,0.0320
479.00,0.0318
478.00,0.0321
477.00,0.0322
476.00,0.0320
475.00,0.0318
474.00,0.0321
473.00,0.0324
472.00,0.0321
471.00,0.0319
470.00,0.0321
469.00,0.0323
468.00,0.0320
467.00,0.0318
466.00,0.0320
465.00,0.0322
464.00,0.0320
463.00,0.0319
462.00,0.0321
461.00,0.0322
460.00,0.0318
459.00,0.0314
458.00,0.0316
457.00,0.0318
456.00,0.0313
455.00,0.0311
454.00,0.0314
453.00,0.0316
452.00,0.0312
451.00,0.0310
450.00,0.0312
449.00,0.0314
448.00,0.0311
447.00,0.0307
446.00,0.0307
445.00,0.0307
444.00,0.0301
443.00,0.0297
442.00,0.0299
441.00,0.0300
440.00,0.0296
439.00,0.0293
438.00,0.0295
437.00,0.0296
436.00,0.0290
435.00,0.0285
434.00,0.0288
433.00,0.0290
432.00,0.0285
431.00,0.0280
430.00,0.0281
429.00,0.0284
428.00,0.0280
427.00,0.0277
426.00,0.0280
425.00,0.0281
424.00,0.0274
423.00,0.0268
422.00,0.0271
421.00,0.0271
420.00,0.0262
419.00,0.0257
418.00,0.0267
417.00,0.0274
416.00,0.0268
415.00,0.0264
414.00,0.0269
413.00,0.0273
412.00,0.0268
411.00,0.0263
410.00,0.0268
409.00,0.0271
408.00,0.0260
407.00,0.0251
406.00,0.0257
405.00,0.0263
404.00,0.0255
403.00,0.0247
402.00,0.0252
401.00,0.0255
400.00,0.0239
