Created as New Dataset,Sample 315 By YargerLab Date Sunday, August 18 2024
cm-1,A
4000.00,0.0043
3999.00,0.0043
3998.00,0.0043
3997.00,0.0043
3996.00,0.0043
3995.00,0.0043
3994.00,0.0043
3993.00,0.0043
3992.00,0.0043
3991.00,0.0043
3990.00,0.0043
3989.00,0.0043
3988.00,0.0043
3987.00,0.0043
3986.00,0.0043
3985.00,0.0043
3984.00,0.0043
3983.00,0.0043
3982.00,0.0043
3981.00,0.0043
3980.00,0.0043
3979.00,0.0043
3978.00,0.0043
3977.00,0.0043
3976.00,0.0043
3975.00,0.0043
3974.00,0.0043
3973.00,0.0043
3972.00,0.0043
3971.00,0.0043
3970.00,0.0043
3969.00,0.0043
3968.00,0.0043
3967.00,0.0043
3966.00,0.0043
3965.00,0.0043
3964.00,0.0043
3963.00,0.0043
3962.00,0.0043
3961.00,0.0043
3960.00,0.0043
3959.00,0.0043
3958.00,0.0043
3957.00,0.0043
3956.00,0.0043
3955.00,0.0043
3954.00,0.0043
3953.00,0.0043
3952.00,0.0043
3951.00,0.0043
3950.00,0.0043
3949.00,0.0043
3948.00,0.0043
3947.00,0.0043
3946.00,0.0043
3945.00,0.0043
3944.00,0.0043
3943.00,0.0043
3942.00,0.0043
3941.00,0.0043
3940.00,0.0043
3939.00,0.0043
3938.00,0.0043
3937.00,0.0043
3936.00,0.0043
3935.00,0.0043
3934.00,0.0043
3933.00,0.0043
3932.00,0.0043
3931.00,0.0043
3930.00,0.0043
3929.00,0.0043
3928.00,0.0043
3927.00,0.0043
3926.00,0.0043
3925.00,0.0043
3924.00,0.0043
3923.00,0.0044
3922.00,0.0044
3921.00,0.0043
3920.00,0.0043
3919.00,0.0043
3918.00,0.0043
3917.00,0.0043
3916.00,0.0043
3915.00,0.0043
3914.00,0.0042
3913.00,0.0042
3912.00,0.0042
3911.00,0.0043
3910.00,0.0043
3909.00,0.0043
3908.00,0.0043
3907.00,0.0044
3906.00,0.0044
3905.00,0.0044
3904.00,0.0044
3903.00,0.0044
3902.00,0.0044
3901.00,0.0043
3900.00,0.0043
3899.00,0.0043
3898.00,0.0043
3897.00,0.0043
3896.00,0.0043
3895.00,0.0043
3894.00,0.0043
3893.00,0.0043
3892.00,0.0043
3891.00,0.0043
3890.00,0.0043
3889.00,0.0043
3888.00,0.0043
3887.00,0.0042
3886.00,0.0043
3885.00,0.0043
3884.00,0.0044
3883.00,0.0043
3882.00,0.0043
3881.00,0.0043
3880.00,0.0043
3879.00,0.0043
3878.00,0.0043
3877.00,0.0043
3876.00,0.0043
3875.00,0.0043
3874.00,0.0044
3873.00,0.0044
3872.00,0.0043
3871.00,0.0043
3870.00,0.0043
3869.00,0.0043
3868.00,0.0043
3867.00,0.0043
3866.00,0.0042
3865.00,0.0042
3864.00,0.0042
3863.00,0.0042
3862.00,0.0042
3861.00,0.0042
3860.00,0.0043
3859.00,0.0043
3858.00,0.0044
3857.00,0.0044
3856.00,0.0045
3855.00,0.0044
3854.00,0.0044
3853.00,0.0043
3852.00,0.0044
3851.00,0.0043
3850.00,0.0042
3849.00,0.0042
3848.00,0.0042
3847.00,0.0042
3846.00,0.0042
3845.00,0.0043
3844.00,0.0043
3843.00,0.0043
3842.00,0.0043
3841.00,0.0043
3840.00,0.0043
3839.00,0.0043
3838.00,0.0043
3837.00,0.0043
3836.00,0.0043
3835.00,0.0043
3834.00,0.0042
3833.00,0.0042
3832.00,0.0042
3831.00,0.0042
3830.00,0.0042
3829.00,0.0042
3828.00,0.0042
3827.00,0.0042
3826.00,0.0043
3825.00,0.0043
3824.00,0.0043
3823.00,0.0043
3822.00,0.0042
3821.00,0.0043
3820.00,0.0043
3819.00,0.0043
3818.00,0.0042
3817.00,0.0041
3816.00,0.0041
3815.00,0.0042
3814.00,0.0042
3813.00,0.0041
3812.00,0.0041
3811.00,0.0042
3810.00,0.0042
3809.00,0.0042
3808.00,0.0042
3807.00,0.0042
3806.00,0.0042
3805.00,0.0043
3804.00,0.0043
3803.00,0.0042
3802.00,0.0042
3801.00,0.0042
3800.00,0.0043
3799.00,0.0042
3798.00,0.0042
3797.00,0.0041
3796.00,0.0041
3795.00,0.0041
3794.00,0.0041
3793.00,0.0041
3792.00,0.0041
3791.00,0.0041
3790.00,0.0041
3789.00,0.0041
3788.00,0.0041
3787.00,0.0041
3786.00,0.0041
3785.00,0.0041
3784.00,0.0041
3783.00,0.0041
3782.00,0.0041
3781.00,0.0041
3780.00,0.0041
3779.00,0.0041
3778.00,0.0041
3777.00,0.0041
3776.00,0.0041
3775.00,0.0041
3774.00,0.0041
3773.00,0.0042
3772.00,0.0042
3771.00,0.0041
3770.00,0.0041
3769.00,0.0041
3768.00,0.0041
3767.00,0.0041
3766.00,0.0041
3765.00,0.0041
3764.00,0.0041
3763.00,0.0041
3762.00,0.0041
3761.00,0.0041
3760.00,0.0041
3759.00,0.0041
3758.00,0.0041
3757.00,0.0042
3756.00,0.0042
3755.00,0.0042
3754.00,0.0042
3753.00,0.0043
3752.00,0.0042
3751.00,0.0042
3750.00,0.0042
3749.00,0.0042
3748.00,0.0042
3747.00,0.0042
3746.00,0.0041
3745.00,0.0041
3744.00,0.0041
3743.00,0.0042
3742.00,0.0042
3741.00,0.0041
3740.00,0.0041
3739.00,0.0041
3738.00,0.0041
3737.00,0.0042
3736.00,0.0041
3735.00,0.0041
3734.00,0.0040
3733.00,0.0040
3732.00,0.0039
3731.00,0.0039
3730.00,0.0039
3729.00,0.0039
3728.00,0.0039
3727.00,0.0039
3726.00,0.0039
3725.00,0.0039
3724.00,0.0039
3723.00,0.0039
3722.00,0.0039
3721.00,0.0039
3720.00,0.0039
3719.00,0.0039
3718.00,0.0039
3717.00,0.0039
3716.00,0.0039
3715.00,0.0039
3714.00,0.0040
3713.00,0.0040
3712.00,0.0040
3711.00,0.0039
3710.00,0.0039
3709.00,0.0039
3708.00,0.0038
3707.00,0.0038
3706.00,0.0038
3705.00,0.0038
3704.00,0.0038
3703.00,0.0038
3702.00,0.0038
3701.00,0.0038
3700.00,0.0038
3699.00,0.0038
3698.00,0.0037
3697.00,0.0037
3696.00,0.0038
3695.00,0.0038
3694.00,0.0038
3693.00,0.0039
3692.00,0.0039
3691.00,0.0039
3690.00,0.0039
3689.00,0.0038
3688.00,0.0038
3687.00,0.0038
3686.00,0.0038
3685.00,0.0037
3684.00,0.0037
3683.00,0.0037
3682.00,0.0038
3681.00,0.0038
3680.00,0.0039
3679.00,0.0039
3678.00,0.0040
3677.00,0.0039
3676.00,0.0039
3675.00,0.0039
3674.00,0.0040
3673.00,0.0039
3672.00,0.0039
3671.00,0.0038
3670.00,0.0038
3669.00,0.0038
3668.00,0.0038
3667.00,0.0038
3666.00,0.0038
3665.00,0.0037
3664.00,0.0038
3663.00,0.0038
3662.00,0.0038
3661.00,0.0038
3660.00,0.0039
3659.00,0.0039
3658.00,0.0039
3657.00,0.0039
3656.00,0.0039
3655.00,0.0039
3654.00,0.0040
3653.00,0.0040
3652.00,0.0040
3651.00,0.0041
3650.00,0.0041
3649.00,0.0041
3648.00,0.0040
3647.00,0.0040
3646.00,0.0039
3645.00,0.0039
3644.00,0.0038
3643.00,0.0038
3642.00,0.0039
3641.00,0.0039
3640.00,0.0039
3639.00,0.0039
3638.00,0.0039
3637.00,0.0039
3636.00,0.0039
3635.00,0.0039
3634.00,0.0040
3633.00,0.0040
3632.00,0.0041
3631.00,0.0041
3630.00,0.0040
3629.00,0.0040
3628.00,0.0040
3627.00,0.0040
3626.00,0.0040
3625.00,0.0039
3624.00,0.0040
3623.00,0.0040
3622.00,0.0041
3621.00,0.0041
3620.00,0.0041
3619.00,0.0041
3618.00,0.0041
3617.00,0.0041
3616.00,0.0041
3615.00,0.0041
3614.00,0.0041
3613.00,0.0042
3612.00,0.0042
3611.00,0.0042
3610.00,0.0042
3609.00,0.0042
3608.00,0.0042
3607.00,0.0042
3606.00,0.0042
3605.00,0.0042
3604.00,0.0043
3603.00,0.0043
3602.00,0.0043
3601.00,0.0043
3600.00,0.0043
3599.00,0.0043
3598.00,0.0043
3597.00,0.0043
3596.00,0.0043
3595.00,0.0043
3594.00,0.0043
3593.00,0.0043
3592.00,0.0044
3591.00,0.0044
3590.00,0.0044
3589.00,0.0044
3588.00,0.0044
3587.00,0.0044
3586.00,0.0044
3585.00,0.0044
3584.00,0.0044
3583.00,0.0044
3582.00,0.0044
3581.00,0.0045
3580.00,0.0045
3579.00,0.0045
3578.00,0.0045
3577.00,0.0045
3576.00,0.0045
3575.00,0.0046
3574.00,0.0046
3573.00,0.0046
3572.00,0.0046
3571.00,0.0047
3570.00,0.0047
3569.00,0.0048
3568.00,0.0048
3567.00,0.0048
3566.00,0.0048
3565.00,0.0048
3564.00,0.0048
3563.00,0.0048
3562.00,0.0048
3561.00,0.0048
3560.00,0.0048
3559.00,0.0048
3558.00,0.0049
3557.00,0.0049
3556.00,0.0049
3555.00,0.0049
3554.00,0.0050
3553.00,0.0050
3552.00,0.0050
3551.00,0.0050
3550.00,0.0051
3549.00,0.0051
3548.00,0.0052
3547.00,0.0052
3546.00,0.0052
3545.00,0.0052
3544.00,0.0052
3543.00,0.0052
3542.00,0.0052
3541.00,0.0052
3540.00,0.0053
3539.00,0.0053
3538.00,0.0053
3537.00,0.0053
3536.00,0.0053
3535.00,0.0053
3534.00,0.0053
3533.00,0.0054
3532.00,0.0054
3531.00,0.0054
3530.00,0.0055
3529.00,0.0055
3528.00,0.0055
3527.00,0.0055
3526.00,0.0055
3525.00,0.0056
3524.00,0.0056
3523.00,0.0056
3522.00,0.0056
3521.00,0.0056
3520.00,0.0056
3519.00,0.0056
3518.00,0.0056
3517.00,0.0057
3516.00,0.0057
3515.00,0.0057
3514.00,0.0057
3513.00,0.0058
3512.00,0.0058
3511.00,0.0058
3510.00,0.0058
3509.00,0.0058
3508.00,0.0058
3507.00,0.0059
3506.00,0.0059
3505.00,0.0059
3504.00,0.0059
3503.00,0.0060
3502.00,0.0060
3501.00,0.0060
3500.00,0.0060
3499.00,0.0060
3498.00,0.0060
3497.00,0.0060
3496.00,0.0060
3495.00,0.0061
3494.00,0.0061
3493.00,0.0061
3492.00,0.0062
3491.00,0.0062
3490.00,0.0062
3489.00,0.0062
3488.00,0.0062
3487.00,0.0062
3486.00,0.0063
3485.00,0.0063
3484.00,0.0063
3483.00,0.0064
3482.00,0.0064
3481.00,0.0064
3480.00,0.0064
3479.00,0.0064
3478.00,0.0064
3477.00,0.0064
3476.00,0.0065
3475.00,0.0065
3474.00,0.0065
3473.00,0.0065
3472.00,0.0066
3471.00,0.0066
3470.00,0.0066
3469.00,0.0066
3468.00,0.0067
3467.00,0.0067
3466.00,0.0067
3465.00,0.0067
3464.00,0.0067
3463.00,0.0067
3462.00,0.0068
3461.00,0.0068
3460.00,0.0068
3459.00,0.0068
3458.00,0.0068
3457.00,0.0068
3456.00,0.0069
3455.00,0.0069
3454.00,0.0069
3453.00,0.0069
3452.00,0.0070
3451.00,0.0070
3450.00,0.0070
3449.00,0.0070
3448.00,0.0071
3447.00,0.0071
3446.00,0.0071
3445.00,0.0071
3444.00,0.0071
3443.00,0.0071
3442.00,0.0071
3441.00,0.0072
3440.00,0.0072
3439.00,0.0073
3438.00,0.0073
3437.00,0.0073
3436.00,0.0073
3435.00,0.0073
3434.00,0.0074
3433.00,0.0074
3432.00,0.0074
3431.00,0.0074
3430.00,0.0074
3429.00,0.0074
3428.00,0.0074
3427.00,0.0074
3426.00,0.0075
3425.00,0.0075
3424.00,0.0075
3423.00,0.0076
3422.00,0.0076
3421.00,0.0076
3420.00,0.0076
3419.00,0.0076
3418.00,0.0076
3417.00,0.0077
3416.00,0.0077
3415.00,0.0077
3414.00,0.0077
3413.00,0.0077
3412.00,0.0078
3411.00,0.0078
3410.00,0.0078
3409.00,0.0078
3408.00,0.0078
3407.00,0.0078
3406.00,0.0079
3405.00,0.0079
3404.00,0.0079
3403.00,0.0080
3402.00,0.0080
3401.00,0.0080
3400.00,0.0080
3399.00,0.0080
3398.00,0.0080
3397.00,0.0081
3396.00,0.0081
3395.00,0.0081
3394.00,0.0081
3393.00,0.0081
3392.00,0.0081
3391.00,0.0081
3390.00,0.0082
3389.00,0.0082
3388.00,0.0082
3387.00,0.0082
3386.00,0.0082
3385.00,0.0082
3384.00,0.0083
3383.00,0.0083
3382.00,0.0083
3381.00,0.0083
3380.00,0.0084
3379.00,0.0084
3378.00,0.0084
3377.00,0.0084
3376.00,0.0084
3375.00,0.0085
3374.00,0.0085
3373.00,0.0085
3372.00,0.0085
3371.00,0.0086
3370.00,0.0086
3369.00,0.0086
3368.00,0.0087
3367.00,0.0087
3366.00,0.0087
3365.00,0.0087
3364.00,0.0087
3363.00,0.0088
3362.00,0.0088
3361.00,0.0088
3360.00,0.0089
3359.00,0.0089
3358.00,0.0089
3357.00,0.0089
3356.00,0.0090
3355.00,0.0090
3354.00,0.0090
3353.00,0.0091
3352.00,0.0091
3351.00,0.0091
3350.00,0.0092
3349.00,0.0092
3348.00,0.0092
3347.00,0.0092
3346.00,0.0093
3345.00,0.0093
3344.00,0.0094
3343.00,0.0094
3342.00,0.0094
3341.00,0.0095
3340.00,0.0095
3339.00,0.0096
3338.00,0.0096
3337.00,0.0096
3336.00,0.0097
3335.00,0.0097
3334.00,0.0097
3333.00,0.0098
3332.00,0.0098
3331.00,0.0099
3330.00,0.0099
3329.00,0.0100
3328.00,0.0100
3327.00,0.0101
3326.00,0.0101
3325.00,0.0102
3324.00,0.0102
3323.00,0.0103
3322.00,0.0103
3321.00,0.0104
3320.00,0.0104
3319.00,0.0105
3318.00,0.0106
3317.00,0.0106
3316.00,0.0107
3315.00,0.0108
3314.00,0.0108
3313.00,0.0109
3312.00,0.0110
3311.00,0.0110
3310.00,0.0111
3309.00,0.0112
3308.00,0.0113
3307.00,0.0113
3306.00,0.0114
3305.00,0.0115
3304.00,0.0116
3303.00,0.0116
3302.00,0.0117
3301.00,0.0118
3300.00,0.0119
3299.00,0.0119
3298.00,0.0120
3297.00,0.0121
3296.00,0.0122
3295.00,0.0123
3294.00,0.0123
3293.00,0.0124
3292.00,0.0125
3291.00,0.0126
3290.00,0.0126
3289.00,0.0127
3288.00,0.0128
3287.00,0.0128
3286.00,0.0129
3285.00,0.0130
3284.00,0.0130
3283.00,0.0131
3282.00,0.0132
3281.00,0.0132
3280.00,0.0133
3279.00,0.0133
3278.00,0.0134
3277.00,0.0134
3276.00,0.0134
3275.00,0.0134
3274.00,0.0135
3273.00,0.0135
3272.00,0.0135
3271.00,0.0135
3270.00,0.0135
3269.00,0.0135
3268.00,0.0134
3267.00,0.0134
3266.00,0.0134
3265.00,0.0134
3264.00,0.0133
3263.00,0.0133
3262.00,0.0132
3261.00,0.0132
3260.00,0.0131
3259.00,0.0130
3258.00,0.0130
3257.00,0.0129
3256.00,0.0129
3255.00,0.0128
3254.00,0.0128
3253.00,0.0127
3252.00,0.0126
3251.00,0.0126
3250.00,0.0125
3249.00,0.0124
3248.00,0.0124
3247.00,0.0123
3246.00,0.0123
3245.00,0.0122
3244.00,0.0122
3243.00,0.0121
3242.00,0.0120
3241.00,0.0119
3240.00,0.0119
3239.00,0.0118
3238.00,0.0118
3237.00,0.0117
3236.00,0.0117
3235.00,0.0116
3234.00,0.0116
3233.00,0.0115
3232.00,0.0115
3231.00,0.0114
3230.00,0.0114
3229.00,0.0113
3228.00,0.0113
3227.00,0.0113
3226.00,0.0112
3225.00,0.0112
3224.00,0.0111
3223.00,0.0111
3222.00,0.0111
3221.00,0.0110
3220.00,0.0110
3219.00,0.0109
3218.00,0.0109
3217.00,0.0109
3216.00,0.0108
3215.00,0.0108
3214.00,0.0108
3213.00,0.0108
3212.00,0.0107
3211.00,0.0107
3210.00,0.0107
3209.00,0.0106
3208.00,0.0106
3207.00,0.0106
3206.00,0.0105
3205.00,0.0105
3204.00,0.0105
3203.00,0.0105
3202.00,0.0104
3201.00,0.0104
3200.00,0.0104
3199.00,0.0104
3198.00,0.0103
3197.00,0.0103
3196.00,0.0103
3195.00,0.0102
3194.00,0.0102
3193.00,0.0102
3192.00,0.0102
3191.00,0.0101
3190.00,0.0101
3189.00,0.0101
3188.00,0.0100
3187.00,0.0100
3186.00,0.0100
3185.00,0.0099
3184.00,0.0099
3183.00,0.0099
3182.00,0.0098
3181.00,0.0098
3180.00,0.0098
3179.00,0.0098
3178.00,0.0097
3177.00,0.0097
3176.00,0.0097
3175.00,0.0096
3174.00,0.0096
3173.00,0.0096
3172.00,0.0095
3171.00,0.0095
3170.00,0.0095
3169.00,0.0094
3168.00,0.0094
3167.00,0.0094
3166.00,0.0093
3165.00,0.0093
3164.00,0.0092
3163.00,0.0092
3162.00,0.0091
3161.00,0.0091
3160.00,0.0091
3159.00,0.0090
3158.00,0.0090
3157.00,0.0090
3156.00,0.0090
3155.00,0.0090
3154.00,0.0089
3153.00,0.0089
3152.00,0.0089
3151.00,0.0088
3150.00,0.0088
3149.00,0.0088
3148.00,0.0087
3147.00,0.0087
3146.00,0.0087
3145.00,0.0087
3144.00,0.0086
3143.00,0.0086
3142.00,0.0086
3141.00,0.0086
3140.00,0.0085
3139.00,0.0085
3138.00,0.0085
3137.00,0.0084
3136.00,0.0084
3135.00,0.0084
3134.00,0.0083
3133.00,0.0083
3132.00,0.0083
3131.00,0.0083
3130.00,0.0082
3129.00,0.0082
3128.00,0.0082
3127.00,0.0082
3126.00,0.0082
3125.00,0.0082
3124.00,0.0082
3123.00,0.0081
3122.00,0.0081
3121.00,0.0081
3120.00,0.0081
3119.00,0.0081
3118.00,0.0081
3117.00,0.0080
3116.00,0.0080
3115.00,0.0080
3114.00,0.0080
3113.00,0.0080
3112.00,0.0080
3111.00,0.0080
3110.00,0.0079
3109.00,0.0079
3108.00,0.0079
3107.00,0.0079
3106.00,0.0079
3105.00,0.0079
3104.00,0.0079
3103.00,0.0079
3102.00,0.0079
3101.00,0.0079
3100.00,0.0079
3099.00,0.0079
3098.00,0.0079
3097.00,0.0079
3096.00,0.0079
3095.00,0.0079
3094.00,0.0079
3093.00,0.0079
3092.00,0.0079
3091.00,0.0079
3090.00,0.0079
3089.00,0.0079
3088.00,0.0079
3087.00,0.0079
3086.00,0.0079
3085.00,0.0079
3084.00,0.0079
3083.00,0.0079
3082.00,0.0079
3081.00,0.0079
3080.00,0.0079
3079.00,0.0079
3078.00,0.0079
3077.00,0.0079
3076.00,0.0079
3075.00,0.0079
3074.00,0.0079
3073.00,0.0079
3072.00,0.0079
3071.00,0.0079
3070.00,0.0079
3069.00,0.0079
3068.00,0.0079
3067.00,0.0079
3066.00,0.0079
3065.00,0.0078
3064.00,0.0078
3063.00,0.0078
3062.00,0.0078
3061.00,0.0078
3060.00,0.0078
3059.00,0.0078
3058.00,0.0078
3057.00,0.0078
3056.00,0.0078
3055.00,0.0077
3054.00,0.0077
3053.00,0.0077
3052.00,0.0077
3051.00,0.0077
3050.00,0.0076
3049.00,0.0076
3048.00,0.0076
3047.00,0.0076
3046.00,0.0076
3045.00,0.0075
3044.00,0.0075
3043.00,0.0075
3042.00,0.0075
3041.00,0.0075
3040.00,0.0075
3039.00,0.0074
3038.00,0.0074
3037.00,0.0074
3036.00,0.0074
3035.00,0.0074
3034.00,0.0073
3033.00,0.0073
3032.00,0.0073
3031.00,0.0073
3030.00,0.0073
3029.00,0.0072
3028.00,0.0072
3027.00,0.0072
3026.00,0.0072
3025.00,0.0071
3024.00,0.0071
3023.00,0.0071
3022.00,0.0071
3021.00,0.0071
3020.00,0.0070
3019.00,0.0070
3018.00,0.0070
3017.00,0.0070
3016.00,0.0070
3015.00,0.0070
3014.00,0.0069
3013.00,0.0069
3012.00,0.0069
3011.00,0.0069
3010.00,0.0069
3009.00,0.0068
3008.00,0.0068
3007.00,0.0068
3006.00,0.0068
3005.00,0.0068
3004.00,0.0068
3003.00,0.0068
3002.00,0.0068
3001.00,0.0068
3000.00,0.0068
2999.00,0.0068
2998.00,0.0068
2997.00,0.0068
2996.00,0.0068
2995.00,0.0068
2994.00,0.0068
2993.00,0.0068
2992.00,0.0068
2991.00,0.0068
2990.00,0.0068
2989.00,0.0068
2988.00,0.0068
2987.00,0.0069
2986.00,0.0069
2985.00,0.0069
2984.00,0.0069
2983.00,0.0070
2982.00,0.0070
2981.00,0.0070
2980.00,0.0070
2979.00,0.0070
2978.00,0.0070
2977.00,0.0071
2976.00,0.0071
2975.00,0.0071
2974.00,0.0071
2973.00,0.0071
2972.00,0.0071
2971.00,0.0072
2970.00,0.0072
2969.00,0.0072
2968.00,0.0072
2967.00,0.0072
2966.00,0.0072
2965.00,0.0072
2964.00,0.0072
2963.00,0.0072
2962.00,0.0072
2961.00,0.0072
2960.00,0.0072
2959.00,0.0072
2958.00,0.0072
2957.00,0.0071
2956.00,0.0071
2955.00,0.0071
2954.00,0.0071
2953.00,0.0071
2952.00,0.0071
2951.00,0.0071
2950.00,0.0071
2949.00,0.0071
2948.00,0.0071
2947.00,0.0071
2946.00,0.0071
2945.00,0.0071
2944.00,0.0071
2943.00,0.0071
2942.00,0.0071
2941.00,0.0072
2940.00,0.0072
2939.00,0.0072
2938.00,0.0072
2937.00,0.0072
2936.00,0.0072
2935.00,0.0072
2934.00,0.0072
2933.00,0.0071
2932.00,0.0071
2931.00,0.0071
2930.00,0.0071
2929.00,0.0071
2928.00,0.0070
2927.00,0.0070
2926.00,0.0069
2925.00,0.0069
2924.00,0.0068
2923.00,0.0068
2922.00,0.0067
2921.00,0.0067
2920.00,0.0066
2919.00,0.0066
2918.00,0.0065
2917.00,0.0065
2916.00,0.0065
2915.00,0.0065
2914.00,0.0066
2913.00,0.0066
2912.00,0.0066
2911.00,0.0067
2910.00,0.0067
2909.00,0.0067
2908.00,0.0067
2907.00,0.0067
2906.00,0.0067
2905.00,0.0067
2904.00,0.0067
2903.00,0.0067
2902.00,0.0067
2901.00,0.0067
2900.00,0.0067
2899.00,0.0067
2898.00,0.0067
2897.00,0.0067
2896.00,0.0067
2895.00,0.0067
2894.00,0.0067
2893.00,0.0067
2892.00,0.0067
2891.00,0.0067
2890.00,0.0067
2889.00,0.0067
2888.00,0.0067
2887.00,0.0067
2886.00,0.0067
2885.00,0.0067
2884.00,0.0067
2883.00,0.0067
2882.00,0.0067
2881.00,0.0068
2880.00,0.0068
2879.00,0.0068
2878.00,0.0068
2877.00,0.0068
2876.00,0.0068
2875.00,0.0068
2874.00,0.0068
2873.00,0.0068
2872.00,0.0068
2871.00,0.0068
2870.00,0.0067
2869.00,0.0067
2868.00,0.0067
2867.00,0.0066
2866.00,0.0066
2865.00,0.0066
2864.00,0.0065
2863.00,0.0065
2862.00,0.0065
2861.00,0.0064
2860.00,0.0064
2859.00,0.0064
2858.00,0.0063
2857.00,0.0063
2856.00,0.0062
2855.00,0.0062
2854.00,0.0061
2853.00,0.0061
2852.00,0.0060
2851.00,0.0060
2850.00,0.0060
2849.00,0.0060
2848.00,0.0060
2847.00,0.0061
2846.00,0.0061
2845.00,0.0062
2844.00,0.0062
2843.00,0.0062
2842.00,0.0062
2841.00,0.0062
2840.00,0.0062
2839.00,0.0062
2838.00,0.0062
2837.00,0.0061
2836.00,0.0061
2835.00,0.0061
2834.00,0.0061
2833.00,0.0061
2832.00,0.0061
2831.00,0.0061
2830.00,0.0061
2829.00,0.0061
2828.00,0.0061
2827.00,0.0060
2826.00,0.0060
2825.00,0.0060
2824.00,0.0060
2823.00,0.0060
2822.00,0.0060
2821.00,0.0060
2820.00,0.0060
2819.00,0.0060
2818.00,0.0060
2817.00,0.0060
2816.00,0.0059
2815.00,0.0059
2814.00,0.0059
2813.00,0.0059
2812.00,0.0059
2811.00,0.0059
2810.00,0.0059
2809.00,0.0059
2808.00,0.0059
2807.00,0.0059
2806.00,0.0059
2805.00,0.0059
2804.00,0.0059
2803.00,0.0059
2802.00,0.0059
2801.00,0.0059
2800.00,0.0058
2799.00,0.0058
2798.00,0.0058
2797.00,0.0058
2796.00,0.0058
2795.00,0.0058
2794.00,0.0058
2793.00,0.0058
2792.00,0.0058
2791.00,0.0058
2790.00,0.0058
2789.00,0.0058
2788.00,0.0058
2787.00,0.0057
2786.00,0.0057
2785.00,0.0057
2784.00,0.0057
2783.00,0.0057
2782.00,0.0057
2781.00,0.0057
2780.00,0.0057
2779.00,0.0057
2778.00,0.0057
2777.00,0.0057
2776.00,0.0057
2775.00,0.0057
2774.00,0.0057
2773.00,0.0057
2772.00,0.0057
2771.00,0.0057
2770.00,0.0056
2769.00,0.0056
2768.00,0.0056
2767.00,0.0056
2766.00,0.0056
2765.00,0.0056
2764.00,0.0056
2763.00,0.0056
2762.00,0.0056
2761.00,0.0056
2760.00,0.0056
2759.00,0.0056
2758.00,0.0056
2757.00,0.0056
2756.00,0.0056
2755.00,0.0056
2754.00,0.0055
2753.00,0.0055
2752.00,0.0055
2751.00,0.0055
2750.00,0.0055
2749.00,0.0055
2748.00,0.0055
2747.00,0.0055
2746.00,0.0055
2745.00,0.0055
2744.00,0.0055
2743.00,0.0055
2742.00,0.0055
2741.00,0.0055
2740.00,0.0055
2739.00,0.0054
2738.00,0.0054
2737.00,0.0054
2736.00,0.0054
2735.00,0.0054
2734.00,0.0054
2733.00,0.0054
2732.00,0.0054
2731.00,0.0054
2730.00,0.0054
2729.00,0.0054
2728.00,0.0054
2727.00,0.0054
2726.00,0.0054
2725.00,0.0054
2724.00,0.0054
2723.00,0.0053
2722.00,0.0053
2721.00,0.0053
2720.00,0.0053
2719.00,0.0053
2718.00,0.0053
2717.00,0.0053
2716.00,0.0053
2715.00,0.0053
2714.00,0.0053
2713.00,0.0053
2712.00,0.0053
2711.00,0.0053
2710.00,0.0053
2709.00,0.0053
2708.00,0.0052
2707.00,0.0052
2706.00,0.0052
2705.00,0.0052
2704.00,0.0052
2703.00,0.0052
2702.00,0.0052
2701.00,0.0052
2700.00,0.0052
2699.00,0.0052
2698.00,0.0052
2697.00,0.0052
2696.00,0.0052
2695.00,0.0052
2694.00,0.0052
2693.00,0.0052
2692.00,0.0052
2691.00,0.0052
2690.00,0.0051
2689.00,0.0051
2688.00,0.0051
2687.00,0.0051
2686.00,0.0051
2685.00,0.0051
2684.00,0.0051
2683.00,0.0051
2682.00,0.0051
2681.00,0.0051
2680.00,0.0051
2679.00,0.0051
2678.00,0.0051
2677.00,0.0051
2676.00,0.0051
2675.00,0.0051
2674.00,0.0051
2673.00,0.0051
2672.00,0.0051
2671.00,0.0051
2670.00,0.0051
2669.00,0.0051
2668.00,0.0051
2667.00,0.0051
2666.00,0.0052
2665.00,0.0052
2664.00,0.0052
2663.00,0.0053
2662.00,0.0053
2661.00,0.0053
2660.00,0.0054
2659.00,0.0054
2658.00,0.0054
2657.00,0.0054
2656.00,0.0054
2655.00,0.0054
2654.00,0.0054
2653.00,0.0054
2652.00,0.0054
2651.00,0.0054
2650.00,0.0054
2649.00,0.0054
2648.00,0.0054
2647.00,0.0054
2646.00,0.0054
2645.00,0.0054
2644.00,0.0054
2643.00,0.0054
2642.00,0.0054
2641.00,0.0054
2640.00,0.0054
2639.00,0.0053
2638.00,0.0053
2637.00,0.0053
2636.00,0.0053
2635.00,0.0053
2634.00,0.0053
2633.00,0.0053
2632.00,0.0053
2631.00,0.0053
2630.00,0.0053
2629.00,0.0053
2628.00,0.0052
2627.00,0.0052
2626.00,0.0052
2625.00,0.0052
2624.00,0.0052
2623.00,0.0052
2622.00,0.0052
2621.00,0.0052
2620.00,0.0052
2619.00,0.0052
2618.00,0.0052
2617.00,0.0051
2616.00,0.0051
2615.00,0.0051
2614.00,0.0051
2613.00,0.0051
2612.00,0.0051
2611.00,0.0051
2610.00,0.0050
2609.00,0.0050
2608.00,0.0050
2607.00,0.0050
2606.00,0.0050
2605.00,0.0050
2604.00,0.0050
2603.00,0.0050
2602.00,0.0050
2601.00,0.0050
2600.00,0.0050
2599.00,0.0050
2598.00,0.0049
2597.00,0.0049
2596.00,0.0049
2595.00,0.0049
2594.00,0.0049
2593.00,0.0049
2592.00,0.0049
2591.00,0.0049
2590.00,0.0049
2589.00,0.0049
2588.00,0.0048
2587.00,0.0048
2586.00,0.0048
2585.00,0.0048
2584.00,0.0048
2583.00,0.0048
2582.00,0.0048
2581.00,0.0048
2580.00,0.0047
2579.00,0.0047
2578.00,0.0047
2577.00,0.0047
2576.00,0.0047
2575.00,0.0047
2574.00,0.0047
2573.00,0.0047
2572.00,0.0047
2571.00,0.0046
2570.00,0.0046
2569.00,0.0046
2568.00,0.0046
2567.00,0.0046
2566.00,0.0046
2565.00,0.0046
2564.00,0.0046
2563.00,0.0046
2562.00,0.0046
2561.00,0.0046
2560.00,0.0046
2559.00,0.0046
2558.00,0.0046
2557.00,0.0046
2556.00,0.0046
2555.00,0.0045
2554.00,0.0045
2553.00,0.0045
2552.00,0.0045
2551.00,0.0045
2550.00,0.0045
2549.00,0.0045
2548.00,0.0045
2547.00,0.0045
2546.00,0.0045
2545.00,0.0045
2544.00,0.0045
2543.00,0.0045
2542.00,0.0045
2541.00,0.0045
2540.00,0.0044
2539.00,0.0044
2538.00,0.0044
2537.00,0.0044
2536.00,0.0044
2535.00,0.0044
2534.00,0.0044
2533.00,0.0044
2532.00,0.0044
2531.00,0.0043
2530.00,0.0043
2529.00,0.0043
2528.00,0.0043
2527.00,0.0044
2526.00,0.0044
2525.00,0.0044
2524.00,0.0044
2523.00,0.0044
2522.00,0.0043
2521.00,0.0043
2520.00,0.0043
2519.00,0.0043
2518.00,0.0043
2517.00,0.0043
2516.00,0.0043
2515.00,0.0043
2514.00,0.0043
2513.00,0.0043
2512.00,0.0043
2511.00,0.0043
2510.00,0.0043
2509.00,0.0043
2508.00,0.0043
2507.00,0.0043
2506.00,0.0043
2505.00,0.0043
2504.00,0.0043
2503.00,0.0043
2502.00,0.0043
2501.00,0.0043
2500.00,0.0043
2499.00,0.0043
2498.00,0.0043
2497.00,0.0043
2496.00,0.0043
2495.00,0.0043
2494.00,0.0043
2493.00,0.0042
2492.00,0.0042
2491.00,0.0042
2490.00,0.0042
2489.00,0.0042
2488.00,0.0043
2487.00,0.0042
2486.00,0.0042
2485.00,0.0042
2484.00,0.0042
2483.00,0.0042
2482.00,0.0042
2481.00,0.0042
2480.00,0.0042
2479.00,0.0042
2478.00,0.0042
2477.00,0.0042
2476.00,0.0042
2475.00,0.0042
2474.00,0.0042
2473.00,0.0042
2472.00,0.0042
2471.00,0.0042
2470.00,0.0042
2469.00,0.0042
2468.00,0.0042
2467.00,0.0042
2466.00,0.0042
2465.00,0.0042
2464.00,0.0042
2463.00,0.0042
2462.00,0.0042
2461.00,0.0042
2460.00,0.0042
2459.00,0.0042
2458.00,0.0043
2457.00,0.0043
2456.00,0.0043
2455.00,0.0043
2454.00,0.0043
2453.00,0.0043
2452.00,0.0043
2451.00,0.0043
2450.00,0.0042
2449.00,0.0042
2448.00,0.0042
2447.00,0.0042
2446.00,0.0042
2445.00,0.0041
2444.00,0.0041
2443.00,0.0041
2442.00,0.0041
2441.00,0.0041
2440.00,0.0041
2439.00,0.0041
2438.00,0.0041
2437.00,0.0041
2436.00,0.0041
2435.00,0.0041
2434.00,0.0041
2433.00,0.0041
2432.00,0.0040
2431.00,0.0040
2430.00,0.0040
2429.00,0.0040
2428.00,0.0040
2427.00,0.0039
2426.00,0.0039
2425.00,0.0039
2424.00,0.0040
2423.00,0.0040
2422.00,0.0040
2421.00,0.0039
2420.00,0.0039
2419.00,0.0039
2418.00,0.0039
2417.00,0.0039
2416.00,0.0039
2415.00,0.0039
2414.00,0.0039
2413.00,0.0039
2412.00,0.0039
2411.00,0.0039
2410.00,0.0039
2409.00,0.0039
2408.00,0.0038
2407.00,0.0038
2406.00,0.0037
2405.00,0.0037
2404.00,0.0037
2403.00,0.0037
2402.00,0.0037
2401.00,0.0037
2400.00,0.0037
2399.00,0.0037
2398.00,0.0037
2397.00,0.0037
2396.00,0.0037
2395.00,0.0037
2394.00,0.0037
2393.00,0.0037
2392.00,0.0037
2391.00,0.0037
2390.00,0.0037
2389.00,0.0037
2388.00,0.0037
2387.00,0.0036
2386.00,0.0036
2385.00,0.0036
2384.00,0.0035
2383.00,0.0034
2382.00,0.0034
2381.00,0.0033
2380.00,0.0033
2379.00,0.0033
2378.00,0.0033
2377.00,0.0033
2376.00,0.0033
2375.00,0.0033
2374.00,0.0033
2373.00,0.0033
2372.00,0.0033
2371.00,0.0033
2370.00,0.0033
2369.00,0.0033
2368.00,0.0033
2367.00,0.0033
2366.00,0.0033
2365.00,0.0033
2364.00,0.0033
2363.00,0.0033
2362.00,0.0033
2361.00,0.0033
2360.00,0.0033
2359.00,0.0033
2358.00,0.0033
2357.00,0.0033
2356.00,0.0033
2355.00,0.0033
2354.00,0.0033
2353.00,0.0033
2352.00,0.0033
2351.00,0.0033
2350.00,0.0033
2349.00,0.0033
2348.00,0.0034
2347.00,0.0035
2346.00,0.0036
2345.00,0.0036
2344.00,0.0036
2343.00,0.0036
2342.00,0.0036
2341.00,0.0036
2340.00,0.0036
2339.00,0.0036
2338.00,0.0037
2337.00,0.0037
2336.00,0.0037
2335.00,0.0037
2334.00,0.0037
2333.00,0.0037
2332.00,0.0037
2331.00,0.0037
2330.00,0.0037
2329.00,0.0038
2328.00,0.0041
2327.00,0.0044
2326.00,0.0047
2325.00,0.0048
2324.00,0.0048
2323.00,0.0046
2322.00,0.0044
2321.00,0.0043
2320.00,0.0042
2319.00,0.0041
2318.00,0.0041
2317.00,0.0040
2316.00,0.0040
2315.00,0.0040
2314.00,0.0040
2313.00,0.0039
2312.00,0.0039
2311.00,0.0038
2310.00,0.0037
2309.00,0.0037
2308.00,0.0037
2307.00,0.0037
2306.00,0.0037
2305.00,0.0037
2304.00,0.0038
2303.00,0.0038
2302.00,0.0039
2301.00,0.0039
2300.00,0.0039
2299.00,0.0040
2298.00,0.0040
2297.00,0.0041
2296.00,0.0042
2295.00,0.0042
2294.00,0.0043
2293.00,0.0044
2292.00,0.0045
2291.00,0.0046
2290.00,0.0046
2289.00,0.0047
2288.00,0.0047
2287.00,0.0047
2286.00,0.0047
2285.00,0.0047
2284.00,0.0046
2283.00,0.0046
2282.00,0.0045
2281.00,0.0045
2280.00,0.0045
2279.00,0.0044
2278.00,0.0044
2277.00,0.0044
2276.00,0.0044
2275.00,0.0044
2274.00,0.0044
2273.00,0.0043
2272.00,0.0043
2271.00,0.0043
2270.00,0.0042
2269.00,0.0042
2268.00,0.0042
2267.00,0.0041
2266.00,0.0041
2265.00,0.0041
2264.00,0.0041
2263.00,0.0041
2262.00,0.0042
2261.00,0.0042
2260.00,0.0042
2259.00,0.0042
2258.00,0.0042
2257.00,0.0041
2256.00,0.0040
2255.00,0.0039
2254.00,0.0039
2253.00,0.0039
2252.00,0.0039
2251.00,0.0039
2250.00,0.0039
2249.00,0.0039
2248.00,0.0039
2247.00,0.0039
2246.00,0.0039
2245.00,0.0039
2244.00,0.0039
2243.00,0.0039
2242.00,0.0040
2241.00,0.0040
2240.00,0.0040
2239.00,0.0040
2238.00,0.0040
2237.00,0.0040
2236.00,0.0040
2235.00,0.0040
2234.00,0.0040
2233.00,0.0039
2232.00,0.0039
2231.00,0.0039
2230.00,0.0039
2229.00,0.0039
2228.00,0.0039
2227.00,0.0039
2226.00,0.0039
2225.00,0.0039
2224.00,0.0039
2223.00,0.0038
2222.00,0.0038
2221.00,0.0038
2220.00,0.0038
2219.00,0.0038
2218.00,0.0038
2217.00,0.0038
2216.00,0.0039
2215.00,0.0039
2214.00,0.0040
2213.00,0.0040
2212.00,0.0039
2211.00,0.0038
2210.00,0.0037
2209.00,0.0037
2208.00,0.0038
2207.00,0.0038
2206.00,0.0039
2205.00,0.0039
2204.00,0.0039
2203.00,0.0039
2202.00,0.0039
2201.00,0.0039
2200.00,0.0039
2199.00,0.0038
2198.00,0.0038
2197.00,0.0039
2196.00,0.0039
2195.00,0.0040
2194.00,0.0040
2193.00,0.0041
2192.00,0.0041
2191.00,0.0040
2190.00,0.0040
2189.00,0.0041
2188.00,0.0042
2187.00,0.0042
2186.00,0.0041
2185.00,0.0039
2184.00,0.0037
2183.00,0.0035
2182.00,0.0034
2181.00,0.0034
2180.00,0.0035
2179.00,0.0036
2178.00,0.0035
2177.00,0.0034
2176.00,0.0033
2175.00,0.0033
2174.00,0.0034
2173.00,0.0036
2172.00,0.0039
2171.00,0.0041
2170.00,0.0042
2169.00,0.0044
2168.00,0.0045
2167.00,0.0046
2166.00,0.0047
2165.00,0.0047
2164.00,0.0049
2163.00,0.0048
2162.00,0.0044
2161.00,0.0034
2160.00,0.0022
2159.00,0.0011
2158.00,0.0005
2157.00,0.0004
2156.00,0.0007
2155.00,0.0010
2154.00,0.0013
2153.00,0.0016
2152.00,0.0018
2151.00,0.0020
2150.00,0.0020
2149.00,0.0020
2148.00,0.0020
2147.00,0.0020
2146.00,0.0020
2145.00,0.0021
2144.00,0.0021
2143.00,0.0021
2142.00,0.0021
2141.00,0.0021
2140.00,0.0022
2139.00,0.0022
2138.00,0.0021
2137.00,0.0020
2136.00,0.0018
2135.00,0.0016
2134.00,0.0015
2133.00,0.0015
2132.00,0.0016
2131.00,0.0018
2130.00,0.0019
2129.00,0.0021
2128.00,0.0022
2127.00,0.0023
2126.00,0.0024
2125.00,0.0025
2124.00,0.0026
2123.00,0.0027
2122.00,0.0028
2121.00,0.0029
2120.00,0.0029
2119.00,0.0030
2118.00,0.0031
2117.00,0.0032
2116.00,0.0032
2115.00,0.0033
2114.00,0.0032
2113.00,0.0032
2112.00,0.0032
2111.00,0.0032
2110.00,0.0032
2109.00,0.0033
2108.00,0.0033
2107.00,0.0033
2106.00,0.0033
2105.00,0.0033
2104.00,0.0033
2103.00,0.0033
2102.00,0.0033
2101.00,0.0033
2100.00,0.0033
2099.00,0.0032
2098.00,0.0031
2097.00,0.0030
2096.00,0.0028
2095.00,0.0028
2094.00,0.0028
2093.00,0.0029
2092.00,0.0030
2091.00,0.0031
2090.00,0.0032
2089.00,0.0032
2088.00,0.0033
2087.00,0.0033
2086.00,0.0034
2085.00,0.0034
2084.00,0.0034
2083.00,0.0035
2082.00,0.0035
2081.00,0.0035
2080.00,0.0035
2079.00,0.0035
2078.00,0.0035
2077.00,0.0034
2076.00,0.0034
2075.00,0.0033
2074.00,0.0033
2073.00,0.0033
2072.00,0.0033
2071.00,0.0033
2070.00,0.0033
2069.00,0.0032
2068.00,0.0032
2067.00,0.0033
2066.00,0.0032
2065.00,0.0032
2064.00,0.0032
2063.00,0.0032
2062.00,0.0032
2061.00,0.0032
2060.00,0.0032
2059.00,0.0033
2058.00,0.0033
2057.00,0.0034
2056.00,0.0033
2055.00,0.0034
2054.00,0.0035
2053.00,0.0039
2052.00,0.0042
2051.00,0.0043
2050.00,0.0041
2049.00,0.0038
2048.00,0.0036
2047.00,0.0034
2046.00,0.0034
2045.00,0.0033
2044.00,0.0033
2043.00,0.0033
2042.00,0.0034
2041.00,0.0034
2040.00,0.0035
2039.00,0.0035
2038.00,0.0035
2037.00,0.0035
2036.00,0.0034
2035.00,0.0033
2034.00,0.0031
2033.00,0.0029
2032.00,0.0027
2031.00,0.0026
2030.00,0.0025
2029.00,0.0024
2028.00,0.0024
2027.00,0.0024
2026.00,0.0024
2025.00,0.0024
2024.00,0.0025
2023.00,0.0025
2022.00,0.0026
2021.00,0.0026
2020.00,0.0025
2019.00,0.0025
2018.00,0.0025
2017.00,0.0024
2016.00,0.0025
2015.00,0.0025
2014.00,0.0026
2013.00,0.0027
2012.00,0.0028
2011.00,0.0028
2010.00,0.0028
2009.00,0.0026
2008.00,0.0023
2007.00,0.0020
2006.00,0.0018
2005.00,0.0018
2004.00,0.0019
2003.00,0.0020
2002.00,0.0022
2001.00,0.0023
2000.00,0.0025
1999.00,0.0026
1998.00,0.0027
1997.00,0.0027
1996.00,0.0028
1995.00,0.0028
1994.00,0.0028
1993.00,0.0029
1992.00,0.0029
1991.00,0.0029
1990.00,0.0028
1989.00,0.0029
1988.00,0.0030
1987.00,0.0031
1986.00,0.0032
1985.00,0.0033
1984.00,0.0034
1983.00,0.0036
1982.00,0.0038
1981.00,0.0039
1980.00,0.0037
1979.00,0.0032
1978.00,0.0027
1977.00,0.0023
1976.00,0.0021
1975.00,0.0020
1974.00,0.0020
1973.00,0.0019
1972.00,0.0019
1971.00,0.0019
1970.00,0.0020
1969.00,0.0021
1968.00,0.0021
1967.00,0.0021
1966.00,0.0021
1965.00,0.0020
1964.00,0.0020
1963.00,0.0019
1962.00,0.0018
1961.00,0.0018
1960.00,0.0017
1959.00,0.0017
1958.00,0.0016
1957.00,0.0017
1956.00,0.0018
1955.00,0.0018
1954.00,0.0019
1953.00,0.0019
1952.00,0.0019
1951.00,0.0019
1950.00,0.0020
1949.00,0.0020
1948.00,0.0020
1947.00,0.0020
1946.00,0.0020
1945.00,0.0020
1944.00,0.0020
1943.00,0.0020
1942.00,0.0019
1941.00,0.0019
1940.00,0.0019
1939.00,0.0019
1938.00,0.0019
1937.00,0.0019
1936.00,0.0019
1935.00,0.0019
1934.00,0.0019
1933.00,0.0020
1932.00,0.0020
1931.00,0.0020
1930.00,0.0020
1929.00,0.0020
1928.00,0.0020
1927.00,0.0020
1926.00,0.0020
1925.00,0.0020
1924.00,0.0020
1923.00,0.0021
1922.00,0.0021
1921.00,0.0022
1920.00,0.0021
1919.00,0.0021
1918.00,0.0021
1917.00,0.0021
1916.00,0.0021
1915.00,0.0022
1914.00,0.0021
1913.00,0.0021
1912.00,0.0021
1911.00,0.0021
1910.00,0.0021
1909.00,0.0021
1908.00,0.0021
1907.00,0.0022
1906.00,0.0022
1905.00,0.0022
1904.00,0.0022
1903.00,0.0022
1902.00,0.0022
1901.00,0.0022
1900.00,0.0021
1899.00,0.0021
1898.00,0.0021
1897.00,0.0021
1896.00,0.0021
1895.00,0.0021
1894.00,0.0021
1893.00,0.0021
1892.00,0.0021
1891.00,0.0021
1890.00,0.0021
1889.00,0.0021
1888.00,0.0021
1887.00,0.0022
1886.00,0.0022
1885.00,0.0021
1884.00,0.0021
1883.00,0.0021
1882.00,0.0021
1881.00,0.0021
1880.00,0.0021
1879.00,0.0021
1878.00,0.0021
1877.00,0.0021
1876.00,0.0021
1875.00,0.0021
1874.00,0.0021
1873.00,0.0021
1872.00,0.0021
1871.00,0.0021
1870.00,0.0021
1869.00,0.0020
1868.00,0.0020
1867.00,0.0020
1866.00,0.0020
1865.00,0.0021
1864.00,0.0021
1863.00,0.0021
1862.00,0.0021
1861.00,0.0021
1860.00,0.0021
1859.00,0.0021
1858.00,0.0020
1857.00,0.0020
1856.00,0.0020
1855.00,0.0020
1854.00,0.0020
1853.00,0.0020
1852.00,0.0020
1851.00,0.0020
1850.00,0.0020
1849.00,0.0020
1848.00,0.0020
1847.00,0.0020
1846.00,0.0019
1845.00,0.0019
1844.00,0.0020
1843.00,0.0020
1842.00,0.0020
1841.00,0.0020
1840.00,0.0020
1839.00,0.0020
1838.00,0.0020
1837.00,0.0020
1836.00,0.0020
1835.00,0.0020
1834.00,0.0020
1833.00,0.0020
1832.00,0.0019
1831.00,0.0019
1830.00,0.0019
1829.00,0.0020
1828.00,0.0020
1827.00,0.0020
1826.00,0.0020
1825.00,0.0020
1824.00,0.0020
1823.00,0.0020
1822.00,0.0020
1821.00,0.0020
1820.00,0.0019
1819.00,0.0018
1818.00,0.0017
1817.00,0.0017
1816.00,0.0017
1815.00,0.0018
1814.00,0.0018
1813.00,0.0019
1812.00,0.0019
1811.00,0.0019
1810.00,0.0019
1809.00,0.0019
1808.00,0.0019
1807.00,0.0019
1806.00,0.0019
1805.00,0.0019
1804.00,0.0019
1803.00,0.0019
1802.00,0.0019
1801.00,0.0019
1800.00,0.0019
1799.00,0.0019
1798.00,0.0020
1797.00,0.0020
1796.00,0.0020
1795.00,0.0020
1794.00,0.0020
1793.00,0.0020
1792.00,0.0020
1791.00,0.0020
1790.00,0.0020
1789.00,0.0020
1788.00,0.0020
1787.00,0.0020
1786.00,0.0020
1785.00,0.0020
1784.00,0.0020
1783.00,0.0020
1782.00,0.0020
1781.00,0.0020
1780.00,0.0019
1779.00,0.0019
1778.00,0.0019
1777.00,0.0019
1776.00,0.0019
1775.00,0.0019
1774.00,0.0020
1773.00,0.0020
1772.00,0.0020
1771.00,0.0020
1770.00,0.0020
1769.00,0.0019
1768.00,0.0019
1767.00,0.0019
1766.00,0.0020
1765.00,0.0020
1764.00,0.0019
1763.00,0.0019
1762.00,0.0019
1761.00,0.0019
1760.00,0.0020
1759.00,0.0020
1758.00,0.0019
1757.00,0.0019
1756.00,0.0019
1755.00,0.0020
1754.00,0.0019
1753.00,0.0019
1752.00,0.0020
1751.00,0.0020
1750.00,0.0019
1749.00,0.0019
1748.00,0.0019
1747.00,0.0019
1746.00,0.0019
1745.00,0.0020
1744.00,0.0020
1743.00,0.0020
1742.00,0.0020
1741.00,0.0020
1740.00,0.0020
1739.00,0.0020
1738.00,0.0020
1737.00,0.0020
1736.00,0.0020
1735.00,0.0021
1734.00,0.0021
1733.00,0.0022
1732.00,0.0022
1731.00,0.0021
1730.00,0.0021
1729.00,0.0021
1728.00,0.0021
1727.00,0.0021
1726.00,0.0021
1725.00,0.0021
1724.00,0.0022
1723.00,0.0022
1722.00,0.0022
1721.00,0.0022
1720.00,0.0022
1719.00,0.0023
1718.00,0.0024
1717.00,0.0025
1716.00,0.0026
1715.00,0.0026
1714.00,0.0026
1713.00,0.0026
1712.00,0.0027
1711.00,0.0028
1710.00,0.0029
1709.00,0.0030
1708.00,0.0031
1707.00,0.0033
1706.00,0.0035
1705.00,0.0038
1704.00,0.0041
1703.00,0.0043
1702.00,0.0047
1701.00,0.0053
1700.00,0.0061
1699.00,0.0068
1698.00,0.0073
1697.00,0.0076
1696.00,0.0081
1695.00,0.0085
1694.00,0.0088
1693.00,0.0089
1692.00,0.0091
1691.00,0.0092
1690.00,0.0094
1689.00,0.0097
1688.00,0.0099
1687.00,0.0102
1686.00,0.0105
1685.00,0.0109
1684.00,0.0113
1683.00,0.0116
1682.00,0.0119
1681.00,0.0121
1680.00,0.0124
1679.00,0.0128
1678.00,0.0131
1677.00,0.0135
1676.00,0.0138
1675.00,0.0142
1674.00,0.0146
1673.00,0.0150
1672.00,0.0153
1671.00,0.0157
1670.00,0.0160
1669.00,0.0164
1668.00,0.0168
1667.00,0.0173
1666.00,0.0176
1665.00,0.0180
1664.00,0.0183
1663.00,0.0187
1662.00,0.0190
1661.00,0.0194
1660.00,0.0198
1659.00,0.0201
1658.00,0.0205
1657.00,0.0208
1656.00,0.0211
1655.00,0.0214
1654.00,0.0215
1653.00,0.0216
1652.00,0.0220
1651.00,0.0223
1650.00,0.0224
1649.00,0.0224
1648.00,0.0225
1647.00,0.0225
1646.00,0.0225
1645.00,0.0226
1644.00,0.0228
1643.00,0.0229
1642.00,0.0230
1641.00,0.0231
1640.00,0.0233
1639.00,0.0234
1638.00,0.0235
1637.00,0.0236
1636.00,0.0235
1635.00,0.0235
1634.00,0.0236
1633.00,0.0237
1632.00,0.0239
1631.00,0.0240
1630.00,0.0241
1629.00,0.0241
1628.00,0.0242
1627.00,0.0244
1626.00,0.0245
1625.00,0.0246
1624.00,0.0247
1623.00,0.0247
1622.00,0.0247
1621.00,0.0249
1620.00,0.0250
1619.00,0.0250
1618.00,0.0250
1617.00,0.0247
1616.00,0.0245
1615.00,0.0242
1614.00,0.0240
1613.00,0.0237
1612.00,0.0234
1611.00,0.0230
1610.00,0.0226
1609.00,0.0222
1608.00,0.0218
1607.00,0.0214
1606.00,0.0210
1605.00,0.0206
1604.00,0.0202
1603.00,0.0198
1602.00,0.0194
1601.00,0.0190
1600.00,0.0186
1599.00,0.0183
1598.00,0.0179
1597.00,0.0176
1596.00,0.0173
1595.00,0.0169
1594.00,0.0166
1593.00,0.0163
1592.00,0.0159
1591.00,0.0156
1590.00,0.0153
1589.00,0.0150
1588.00,0.0148
1587.00,0.0145
1586.00,0.0142
1585.00,0.0140
1584.00,0.0138
1583.00,0.0135
1582.00,0.0134
1581.00,0.0132
1580.00,0.0131
1579.00,0.0131
1578.00,0.0130
1577.00,0.0130
1576.00,0.0129
1575.00,0.0129
1574.00,0.0129
1573.00,0.0129
1572.00,0.0129
1571.00,0.0130
1570.00,0.0131
1569.00,0.0132
1568.00,0.0134
1567.00,0.0135
1566.00,0.0137
1565.00,0.0138
1564.00,0.0141
1563.00,0.0143
1562.00,0.0146
1561.00,0.0149
1560.00,0.0151
1559.00,0.0154
1558.00,0.0157
1557.00,0.0161
1556.00,0.0163
1555.00,0.0165
1554.00,0.0168
1553.00,0.0171
1552.00,0.0174
1551.00,0.0176
1550.00,0.0179
1549.00,0.0181
1548.00,0.0184
1547.00,0.0187
1546.00,0.0189
1545.00,0.0192
1544.00,0.0194
1543.00,0.0196
1542.00,0.0199
1541.00,0.0201
1540.00,0.0203
1539.00,0.0206
1538.00,0.0209
1537.00,0.0211
1536.00,0.0212
1535.00,0.0213
1534.00,0.0214
1533.00,0.0215
1532.00,0.0218
1531.00,0.0220
1530.00,0.0223
1529.00,0.0225
1528.00,0.0226
1527.00,0.0228
1526.00,0.0230
1525.00,0.0232
1524.00,0.0234
1523.00,0.0236
1522.00,0.0238
1521.00,0.0239
1520.00,0.0241
1519.00,0.0242
1518.00,0.0242
1517.00,0.0242
1516.00,0.0241
1515.00,0.0241
1514.00,0.0241
1513.00,0.0241
1512.00,0.0239
1511.00,0.0238
1510.00,0.0237
1509.00,0.0235
1508.00,0.0232
1507.00,0.0226
1506.00,0.0221
1505.00,0.0218
1504.00,0.0217
1503.00,0.0214
1502.00,0.0212
1501.00,0.0208
1500.00,0.0205
1499.00,0.0201
1498.00,0.0197
1497.00,0.0192
1496.00,0.0187
1495.00,0.0184
1494.00,0.0180
1493.00,0.0177
1492.00,0.0173
1491.00,0.0169
1490.00,0.0163
1489.00,0.0158
1488.00,0.0154
1487.00,0.0151
1486.00,0.0149
1485.00,0.0146
1484.00,0.0144
1483.00,0.0142
1482.00,0.0139
1481.00,0.0137
1480.00,0.0135
1479.00,0.0134
1478.00,0.0132
1477.00,0.0131
1476.00,0.0129
1475.00,0.0129
1474.00,0.0128
1473.00,0.0127
1472.00,0.0127
1471.00,0.0127
1470.00,0.0127
1469.00,0.0127
1468.00,0.0127
1467.00,0.0126
1466.00,0.0126
1465.00,0.0126
1464.00,0.0126
1463.00,0.0127
1462.00,0.0128
1461.00,0.0129
1460.00,0.0130
1459.00,0.0131
1458.00,0.0132
1457.00,0.0133
1456.00,0.0134
1455.00,0.0135
1454.00,0.0136
1453.00,0.0136
1452.00,0.0136
1451.00,0.0137
1450.00,0.0137
1449.00,0.0136
1448.00,0.0135
1447.00,0.0134
1446.00,0.0134
1445.00,0.0133
1444.00,0.0132
1443.00,0.0131
1442.00,0.0129
1441.00,0.0128
1440.00,0.0127
1439.00,0.0125
1438.00,0.0124
1437.00,0.0122
1436.00,0.0120
1435.00,0.0119
1434.00,0.0118
1433.00,0.0117
1432.00,0.0116
1431.00,0.0115
1430.00,0.0115
1429.00,0.0114
1428.00,0.0114
1427.00,0.0114
1426.00,0.0114
1425.00,0.0114
1424.00,0.0114
1423.00,0.0115
1422.00,0.0115
1421.00,0.0116
1420.00,0.0116
1419.00,0.0116
1418.00,0.0116
1417.00,0.0117
1416.00,0.0117
1415.00,0.0118
1414.00,0.0119
1413.00,0.0120
1412.00,0.0120
1411.00,0.0121
1410.00,0.0121
1409.00,0.0122
1408.00,0.0122
1407.00,0.0122
1406.00,0.0122
1405.00,0.0122
1404.00,0.0122
1403.00,0.0122
1402.00,0.0123
1401.00,0.0122
1400.00,0.0122
1399.00,0.0121
1398.00,0.0121
1397.00,0.0121
1396.00,0.0121
1395.00,0.0121
1394.00,0.0121
1393.00,0.0121
1392.00,0.0121
1391.00,0.0121
1390.00,0.0121
1389.00,0.0121
1388.00,0.0120
1387.00,0.0120
1386.00,0.0119
1385.00,0.0119
1384.00,0.0119
1383.00,0.0119
1382.00,0.0119
1381.00,0.0118
1380.00,0.0118
1379.00,0.0117
1378.00,0.0117
1377.00,0.0116
1376.00,0.0116
1375.00,0.0115
1374.00,0.0115
1373.00,0.0115
1372.00,0.0115
1371.00,0.0115
1370.00,0.0114
1369.00,0.0114
1368.00,0.0113
1367.00,0.0113
1366.00,0.0112
1365.00,0.0111
1364.00,0.0110
1363.00,0.0109
1362.00,0.0108
1361.00,0.0108
1360.00,0.0108
1359.00,0.0107
1358.00,0.0107
1357.00,0.0107
1356.00,0.0106
1355.00,0.0106
1354.00,0.0106
1353.00,0.0105
1352.00,0.0105
1351.00,0.0105
1350.00,0.0105
1349.00,0.0105
1348.00,0.0105
1347.00,0.0104
1346.00,0.0104
1345.00,0.0104
1344.00,0.0104
1343.00,0.0104
1342.00,0.0104
1341.00,0.0104
1340.00,0.0103
1339.00,0.0103
1338.00,0.0103
1337.00,0.0103
1336.00,0.0103
1335.00,0.0103
1334.00,0.0103
1333.00,0.0103
1332.00,0.0103
1331.00,0.0103
1330.00,0.0103
1329.00,0.0103
1328.00,0.0103
1327.00,0.0103
1326.00,0.0103
1325.00,0.0103
1324.00,0.0103
1323.00,0.0103
1322.00,0.0103
1321.00,0.0103
1320.00,0.0103
1319.00,0.0103
1318.00,0.0103
1317.00,0.0103
1316.00,0.0103
1315.00,0.0103
1314.00,0.0103
1313.00,0.0103
1312.00,0.0103
1311.00,0.0103
1310.00,0.0103
1309.00,0.0103
1308.00,0.0103
1307.00,0.0103
1306.00,0.0103
1305.00,0.0103
1304.00,0.0103
1303.00,0.0103
1302.00,0.0103
1301.00,0.0103
1300.00,0.0102
1299.00,0.0102
1298.00,0.0102
1297.00,0.0102
1296.00,0.0102
1295.00,0.0102
1294.00,0.0102
1293.00,0.0102
1292.00,0.0102
1291.00,0.0102
1290.00,0.0102
1289.00,0.0102
1288.00,0.0102
1287.00,0.0102
1286.00,0.0102
1285.00,0.0102
1284.00,0.0102
1283.00,0.0101
1282.00,0.0101
1281.00,0.0101
1280.00,0.0101
1279.00,0.0101
1278.00,0.0100
1277.00,0.0100
1276.00,0.0100
1275.00,0.0100
1274.00,0.0100
1273.00,0.0100
1272.00,0.0100
1271.00,0.0100
1270.00,0.0101
1269.00,0.0101
1268.00,0.0101
1267.00,0.0101
1266.00,0.0102
1265.00,0.0102
1264.00,0.0102
1263.00,0.0103
1262.00,0.0103
1261.00,0.0104
1260.00,0.0105
1259.00,0.0106
1258.00,0.0107
1257.00,0.0108
1256.00,0.0109
1255.00,0.0109
1254.00,0.0110
1253.00,0.0111
1252.00,0.0112
1251.00,0.0113
1250.00,0.0114
1249.00,0.0115
1248.00,0.0116
1247.00,0.0116
1246.00,0.0117
1245.00,0.0118
1244.00,0.0118
1243.00,0.0119
1242.00,0.0119
1241.00,0.0119
1240.00,0.0120
1239.00,0.0120
1238.00,0.0120
1237.00,0.0120
1236.00,0.0120
1235.00,0.0120
1234.00,0.0120
1233.00,0.0120
1232.00,0.0120
1231.00,0.0120
1230.00,0.0120
1229.00,0.0120
1228.00,0.0119
1227.00,0.0119
1226.00,0.0119
1225.00,0.0118
1224.00,0.0118
1223.00,0.0118
1222.00,0.0117
1221.00,0.0117
1220.00,0.0116
1219.00,0.0115
1218.00,0.0115
1217.00,0.0114
1216.00,0.0113
1215.00,0.0112
1214.00,0.0112
1213.00,0.0111
1212.00,0.0110
1211.00,0.0109
1210.00,0.0108
1209.00,0.0107
1208.00,0.0106
1207.00,0.0105
1206.00,0.0104
1205.00,0.0102
1204.00,0.0101
1203.00,0.0100
1202.00,0.0099
1201.00,0.0098
1200.00,0.0097
1199.00,0.0096
1198.00,0.0095
1197.00,0.0094
1196.00,0.0093
1195.00,0.0092
1194.00,0.0092
1193.00,0.0091
1192.00,0.0091
1191.00,0.0090
1190.00,0.0089
1189.00,0.0089
1188.00,0.0089
1187.00,0.0088
1186.00,0.0088
1185.00,0.0088
1184.00,0.0088
1183.00,0.0088
1182.00,0.0088
1181.00,0.0088
1180.00,0.0088
1179.00,0.0088
1178.00,0.0088
1177.00,0.0089
1176.00,0.0090
1175.00,0.0090
1174.00,0.0091
1173.00,0.0092
1172.00,0.0092
1171.00,0.0093
1170.00,0.0094
1169.00,0.0094
1168.00,0.0095
1167.00,0.0096
1166.00,0.0096
1165.00,0.0097
1164.00,0.0097
1163.00,0.0097
1162.00,0.0098
1161.00,0.0098
1160.00,0.0098
1159.00,0.0098
1158.00,0.0098
1157.00,0.0098
1156.00,0.0097
1155.00,0.0097
1154.00,0.0096
1153.00,0.0096
1152.00,0.0095
1151.00,0.0094
1150.00,0.0094
1149.00,0.0093
1148.00,0.0092
1147.00,0.0092
1146.00,0.0091
1145.00,0.0090
1144.00,0.0090
1143.00,0.0089
1142.00,0.0089
1141.00,0.0089
1140.00,0.0089
1139.00,0.0089
1138.00,0.0089
1137.00,0.0089
1136.00,0.0089
1135.00,0.0089
1134.00,0.0089
1133.00,0.0089
1132.00,0.0089
1131.00,0.0089
1130.00,0.0089
1129.00,0.0090
1128.00,0.0090
1127.00,0.0090
1126.00,0.0090
1125.00,0.0089
1124.00,0.0089
1123.00,0.0089
1122.00,0.0089
1121.00,0.0088
1120.00,0.0088
1119.00,0.0087
1118.00,0.0087
1117.00,0.0087
1116.00,0.0087
1115.00,0.0086
1114.00,0.0086
1113.00,0.0086
1112.00,0.0086
1111.00,0.0086
1110.00,0.0085
1109.00,0.0085
1108.00,0.0085
1107.00,0.0085
1106.00,0.0085
1105.00,0.0085
1104.00,0.0086
1103.00,0.0086
1102.00,0.0086
1101.00,0.0086
1100.00,0.0086
1099.00,0.0087
1098.00,0.0087
1097.00,0.0088
1096.00,0.0088
1095.00,0.0089
1094.00,0.0090
1093.00,0.0091
1092.00,0.0092
1091.00,0.0093
1090.00,0.0094
1089.00,0.0096
1088.00,0.0097
1087.00,0.0099
1086.00,0.0101
1085.00,0.0103
1084.00,0.0105
1083.00,0.0106
1082.00,0.0108
1081.00,0.0110
1080.00,0.0112
1079.00,0.0114
1078.00,0.0115
1077.00,0.0117
1076.00,0.0118
1075.00,0.0119
1074.00,0.0120
1073.00,0.0121
1072.00,0.0121
1071.00,0.0122
1070.00,0.0122
1069.00,0.0122
1068.00,0.0123
1067.00,0.0123
1066.00,0.0123
1065.00,0.0123
1064.00,0.0123
1063.00,0.0123
1062.00,0.0123
1061.00,0.0123
1060.00,0.0123
1059.00,0.0123
1058.00,0.0122
1057.00,0.0122
1056.00,0.0121
1055.00,0.0121
1054.00,0.0120
1053.00,0.0119
1052.00,0.0119
1051.00,0.0118
1050.00,0.0117
1049.00,0.0116
1048.00,0.0115
1047.00,0.0114
1046.00,0.0113
1045.00,0.0112
1044.00,0.0111
1043.00,0.0110
1042.00,0.0108
1041.00,0.0107
1040.00,0.0106
1039.00,0.0105
1038.00,0.0104
1037.00,0.0103
1036.00,0.0102
1035.00,0.0101
1034.00,0.0100
1033.00,0.0099
1032.00,0.0098
1031.00,0.0096
1030.00,0.0095
1029.00,0.0094
1028.00,0.0093
1027.00,0.0092
1026.00,0.0091
1025.00,0.0090
1024.00,0.0088
1023.00,0.0087
1022.00,0.0086
1021.00,0.0085
1020.00,0.0085
1019.00,0.0084
1018.00,0.0083
1017.00,0.0082
1016.00,0.0081
1015.00,0.0080
1014.00,0.0080
1013.00,0.0079
1012.00,0.0078
1011.00,0.0078
1010.00,0.0077
1009.00,0.0076
1008.00,0.0076
1007.00,0.0075
1006.00,0.0074
1005.00,0.0074
1004.00,0.0073
1003.00,0.0073
1002.00,0.0073
1001.00,0.0072
1000.00,0.0072
999.00,0.0072
998.00,0.0071
997.00,0.0071
996.00,0.0071
995.00,0.0070
994.00,0.0070
993.00,0.0069
992.00,0.0069
991.00,0.0069
990.00,0.0069
989.00,0.0069
988.00,0.0069
987.00,0.0068
986.00,0.0068
985.00,0.0068
984.00,0.0068
983.00,0.0067
982.00,0.0067
981.00,0.0067
980.00,0.0067
979.00,0.0067
978.00,0.0067
977.00,0.0067
976.00,0.0067
975.00,0.0067
974.00,0.0067
973.00,0.0068
972.00,0.0068
971.00,0.0068
970.00,0.0068
969.00,0.0068
968.00,0.0069
967.00,0.0069
966.00,0.0070
965.00,0.0071
964.00,0.0071
963.00,0.0071
962.00,0.0071
961.00,0.0071
960.00,0.0071
959.00,0.0071
958.00,0.0071
957.00,0.0071
956.00,0.0070
955.00,0.0070
954.00,0.0069
953.00,0.0069
952.00,0.0069
951.00,0.0068
950.00,0.0068
949.00,0.0068
948.00,0.0068
947.00,0.0068
946.00,0.0067
945.00,0.0067
944.00,0.0067
943.00,0.0067
942.00,0.0067
941.00,0.0066
940.00,0.0066
939.00,0.0066
938.00,0.0066
937.00,0.0066
936.00,0.0067
935.00,0.0067
934.00,0.0067
933.00,0.0066
932.00,0.0066
931.00,0.0066
930.00,0.0066
929.00,0.0066
928.00,0.0066
927.00,0.0066
926.00,0.0065
925.00,0.0065
924.00,0.0065
923.00,0.0065
922.00,0.0064
921.00,0.0064
920.00,0.0064
919.00,0.0064
918.00,0.0063
917.00,0.0063
916.00,0.0062
915.00,0.0062
914.00,0.0062
913.00,0.0062
912.00,0.0062
911.00,0.0063
910.00,0.0063
909.00,0.0063
908.00,0.0063
907.00,0.0063
906.00,0.0064
905.00,0.0064
904.00,0.0064
903.00,0.0064
902.00,0.0064
901.00,0.0064
900.00,0.0064
899.00,0.0064
898.00,0.0063
897.00,0.0063
896.00,0.0063
895.00,0.0063
894.00,0.0063
893.00,0.0063
892.00,0.0062
891.00,0.0062
890.00,0.0061
889.00,0.0061
888.00,0.0060
887.00,0.0060
886.00,0.0060
885.00,0.0059
884.00,0.0059
883.00,0.0059
882.00,0.0059
881.00,0.0059
880.00,0.0059
879.00,0.0059
878.00,0.0059
877.00,0.0059
876.00,0.0059
875.00,0.0059
874.00,0.0058
873.00,0.0058
872.00,0.0058
871.00,0.0058
870.00,0.0058
869.00,0.0058
868.00,0.0058
867.00,0.0058
866.00,0.0058
865.00,0.0058
864.00,0.0057
863.00,0.0057
862.00,0.0057
861.00,0.0057
860.00,0.0058
859.00,0.0058
858.00,0.0058
857.00,0.0058
856.00,0.0058
855.00,0.0058
854.00,0.0058
853.00,0.0059
852.00,0.0059
851.00,0.0059
850.00,0.0059
849.00,0.0059
848.00,0.0059
847.00,0.0059
846.00,0.0059
845.00,0.0060
844.00,0.0060
843.00,0.0060
842.00,0.0061
841.00,0.0061
840.00,0.0061
839.00,0.0062
838.00,0.0062
837.00,0.0063
836.00,0.0063
835.00,0.0064
834.00,0.0064
833.00,0.0065
832.00,0.0065
831.00,0.0065
830.00,0.0066
829.00,0.0066
828.00,0.0067
827.00,0.0068
826.00,0.0068
825.00,0.0069
824.00,0.0069
823.00,0.0070
822.00,0.0071
821.00,0.0071
820.00,0.0071
819.00,0.0072
818.00,0.0072
817.00,0.0072
816.00,0.0072
815.00,0.0073
814.00,0.0073
813.00,0.0073
812.00,0.0074
811.00,0.0074
810.00,0.0075
809.00,0.0075
808.00,0.0076
807.00,0.0076
806.00,0.0076
805.00,0.0076
804.00,0.0077
803.00,0.0077
802.00,0.0078
801.00,0.0078
800.00,0.0079
799.00,0.0079
798.00,0.0079
797.00,0.0079
796.00,0.0080
795.00,0.0080
794.00,0.0081
793.00,0.0082
792.00,0.0083
791.00,0.0083
790.00,0.0084
789.00,0.0085
788.00,0.0085
787.00,0.0086
786.00,0.0086
785.00,0.0087
784.00,0.0087
783.00,0.0088
782.00,0.0089
781.00,0.0090
780.00,0.0091
779.00,0.0091
778.00,0.0092
777.00,0.0092
776.00,0.0093
775.00,0.0094
774.00,0.0095
773.00,0.0095
772.00,0.0096
771.00,0.0096
770.00,0.0096
769.00,0.0097
768.00,0.0097
767.00,0.0098
766.00,0.0098
765.00,0.0098
764.00,0.0098
763.00,0.0099
762.00,0.0099
761.00,0.0099
760.00,0.0099
759.00,0.0099
758.00,0.0100
757.00,0.0100
756.00,0.0101
755.00,0.0101
754.00,0.0102
753.00,0.0102
752.00,0.0103
751.00,0.0104
750.00,0.0105
749.00,0.0105
748.00,0.0106
747.00,0.0106
746.00,0.0106
745.00,0.0107
744.00,0.0107
743.00,0.0107
742.00,0.0108
741.00,0.0108
740.00,0.0108
739.00,0.0109
738.00,0.0109
737.00,0.0110
736.00,0.0110
735.00,0.0111
734.00,0.0111
733.00,0.0112
732.00,0.0113
731.00,0.0114
730.00,0.0115
729.00,0.0117
728.00,0.0118
727.00,0.0119
726.00,0.0121
725.00,0.0122
724.00,0.0123
723.00,0.0125
722.00,0.0127
721.00,0.0128
720.00,0.0129
719.00,0.0131
718.00,0.0133
717.00,0.0135
716.00,0.0137
715.00,0.0139
714.00,0.0141
713.00,0.0142
712.00,0.0144
711.00,0.0146
710.00,0.0147
709.00,0.0149
708.00,0.0150
707.00,0.0152
706.00,0.0153
705.00,0.0155
704.00,0.0156
703.00,0.0157
702.00,0.0158
701.00,0.0158
700.00,0.0159
699.00,0.0160
698.00,0.0160
697.00,0.0160
696.00,0.0160
695.00,0.0160
694.00,0.0160
693.00,0.0160
692.00,0.0160
691.00,0.0160
690.00,0.0160
689.00,0.0160
688.00,0.0160
687.00,0.0161
686.00,0.0161
685.00,0.0162
684.00,0.0162
683.00,0.0163
682.00,0.0163
681.00,0.0163
680.00,0.0163
679.00,0.0163
678.00,0.0163
677.00,0.0163
676.00,0.0163
675.00,0.0163
674.00,0.0163
673.00,0.0163
672.00,0.0163
671.00,0.0164
670.00,0.0165
669.00,0.0166
668.00,0.0168
667.00,0.0169
666.00,0.0168
665.00,0.0166
664.00,0.0165
663.00,0.0165
662.00,0.0165
661.00,0.0165
660.00,0.0165
659.00,0.0165
658.00,0.0165
657.00,0.0165
656.00,0.0166
655.00,0.0166
654.00,0.0167
653.00,0.0167
652.00,0.0167
651.00,0.0167
650.00,0.0167
649.00,0.0168
648.00,0.0168
647.00,0.0168
646.00,0.0169
645.00,0.0169
644.00,0.0170
643.00,0.0171
642.00,0.0171
641.00,0.0172
640.00,0.0172
639.00,0.0173
638.00,0.0174
637.00,0.0174
636.00,0.0175
635.00,0.0175
634.00,0.0175
633.00,0.0176
632.00,0.0177
631.00,0.0177
630.00,0.0178
629.00,0.0178
628.00,0.0179
627.00,0.0179
626.00,0.0179
625.00,0.0179
624.00,0.0179
623.00,0.0178
622.00,0.0178
621.00,0.0178
620.00,0.0178
619.00,0.0177
618.00,0.0176
617.00,0.0175
616.00,0.0175
615.00,0.0175
614.00,0.0174
613.00,0.0174
612.00,0.0173
611.00,0.0172
610.00,0.0172
609.00,0.0172
608.00,0.0172
607.00,0.0173
606.00,0.0173
605.00,0.0173
604.00,0.0172
603.00,0.0172
602.00,0.0172
601.00,0.0171
600.00,0.0171
599.00,0.0170
598.00,0.0169
597.00,0.0169
596.00,0.0169
595.00,0.0170
594.00,0.0170
593.00,0.0170
592.00,0.0170
591.00,0.0170
590.00,0.0170
589.00,0.0170
588.00,0.0171
587.00,0.0171
586.00,0.0171
585.00,0.0172
584.00,0.0171
583.00,0.0171
582.00,0.0171
581.00,0.0172
580.00,0.0172
579.00,0.0173
578.00,0.0173
577.00,0.0173
576.00,0.0174
575.00,0.0174
574.00,0.0174
573.00,0.0175
572.00,0.0175
571.00,0.0174
570.00,0.0174
569.00,0.0174
568.00,0.0175
567.00,0.0175
566.00,0.0175
565.00,0.0175
564.00,0.0174
563.00,0.0174
562.00,0.0175
561.00,0.0175
560.00,0.0176
559.00,0.0177
558.00,0.0177
557.00,0.0176
556.00,0.0176
555.00,0.0176
554.00,0.0175
553.00,0.0176
552.00,0.0176
551.00,0.0176
550.00,0.0176
549.00,0.0176
548.00,0.0176
547.00,0.0177
546.00,0.0177
545.00,0.0176
544.00,0.0176
543.00,0.0177
542.00,0.0177
541.00,0.0176
540.00,0.0176
539.00,0.0177
538.00,0.0177
537.00,0.0178
536.00,0.0178
535.00,0.0178
534.00,0.0178
533.00,0.0177
532.00,0.0178
531.00,0.0178
530.00,0.0179
529.00,0.0178
528.00,0.0178
527.00,0.0177
526.00,0.0177
525.00,0.0178
524.00,0.0179
523.00,0.0179
522.00,0.0179
521.00,0.0179
520.00,0.0178
519.00,0.0178
518.00,0.0178
517.00,0.0178
516.00,0.0179
515.00,0.0179
514.00,0.0179
513.00,0.0179
512.00,0.0179
511.00,0.0179
510.00,0.0179
509.00,0.0178
508.00,0.0178
507.00,0.0178
506.00,0.0178
505.00,0.0178
504.00,0.0177
503.00,0.0177
502.00,0.0177
501.00,0.0177
500.00,0.0178
499.00,0.0179
498.00,0.0179
497.00,0.0180
496.00,0.0180
495.00,0.0180
494.00,0.0180
493.00,0.0179
492.00,0.0178
491.00,0.0178
490.00,0.0178
489.00,0.0178
488.00,0.0177
487.00,0.0176
486.00,0.0176
485.00,0.0177
484.00,0.0178
483.00,0.0178
482.00,0.0179
481.00,0.0179
480.00,0.0179
479.00,0.0180
478.00,0.0180
477.00,0.0180
476.00,0.0180
475.00,0.0180
474.00,0.0179
473.00,0.0179
472.00,0.0178
471.00,0.0178
470.00,0.0178
469.00,0.0179
468.00,0.0179
467.00,0.0178
466.00,0.0178
465.00,0.0178
464.00,0.0179
463.00,0.0179
462.00,0.0179
461.00,0.0178
460.00,0.0177
459.00,0.0176
458.00,0.0174
457.00,0.0174
456.00,0.0174
455.00,0.0174
454.00,0.0174
453.00,0.0174
452.00,0.0175
451.00,0.0175
450.00,0.0174
449.00,0.0173
448.00,0.0172
447.00,0.0170
446.00,0.0169
445.00,0.0168
444.00,0.0167
443.00,0.0166
442.00,0.0164
441.00,0.0162
440.00,0.0162
439.00,0.0162
438.00,0.0162
437.00,0.0161
436.00,0.0161
435.00,0.0159
434.00,0.0157
433.00,0.0155
432.00,0.0154
431.00,0.0152
430.00,0.0149
429.00,0.0148
428.00,0.0148
427.00,0.0148
426.00,0.0147
425.00,0.0147
424.00,0.0148
423.00,0.0150
422.00,0.0151
421.00,0.0151
420.00,0.0149
419.00,0.0146
418.00,0.0142
417.00,0.0141
416.00,0.0142
415.00,0.0144
414.00,0.0146
413.00,0.0149
412.00,0.0151
411.00,0.0152
410.00,0.0149
409.00,0.0146
408.00,0.0144
407.00,0.0143
406.00,0.0143
405.00,0.0143
404.00,0.0143
403.00,0.0142
402.00,0.0139
401.00,0.0132
400.00,0.0124
