Created as New Dataset,Sample 316 By YargerLab Date Monday, August 19 2024
cm-1,A
4000.00,0.0074
3999.00,0.0074
3998.00,0.0074
3997.00,0.0074
3996.00,0.0074
3995.00,0.0074
3994.00,0.0074
3993.00,0.0074
3992.00,0.0074
3991.00,0.0074
3990.00,0.0074
3989.00,0.0074
3988.00,0.0074
3987.00,0.0074
3986.00,0.0074
3985.00,0.0074
3984.00,0.0074
3983.00,0.0074
3982.00,0.0074
3981.00,0.0074
3980.00,0.0074
3979.00,0.0074
3978.00,0.0074
3977.00,0.0074
3976.00,0.0074
3975.00,0.0074
3974.00,0.0074
3973.00,0.0074
3972.00,0.0074
3971.00,0.0074
3970.00,0.0074
3969.00,0.0074
3968.00,0.0074
3967.00,0.0074
3966.00,0.0074
3965.00,0.0074
3964.00,0.0074
3963.00,0.0074
3962.00,0.0074
3961.00,0.0074
3960.00,0.0074
3959.00,0.0074
3958.00,0.0074
3957.00,0.0074
3956.00,0.0074
3955.00,0.0074
3954.00,0.0074
3953.00,0.0073
3952.00,0.0073
3951.00,0.0073
3950.00,0.0073
3949.00,0.0073
3948.00,0.0074
3947.00,0.0074
3946.00,0.0074
3945.00,0.0073
3944.00,0.0073
3943.00,0.0073
3942.00,0.0073
3941.00,0.0073
3940.00,0.0073
3939.00,0.0073
3938.00,0.0073
3937.00,0.0073
3936.00,0.0073
3935.00,0.0073
3934.00,0.0073
3933.00,0.0073
3932.00,0.0073
3931.00,0.0073
3930.00,0.0073
3929.00,0.0073
3928.00,0.0073
3927.00,0.0073
3926.00,0.0073
3925.00,0.0073
3924.00,0.0073
3923.00,0.0073
3922.00,0.0073
3921.00,0.0073
3920.00,0.0073
3919.00,0.0073
3918.00,0.0073
3917.00,0.0073
3916.00,0.0073
3915.00,0.0073
3914.00,0.0073
3913.00,0.0073
3912.00,0.0073
3911.00,0.0073
3910.00,0.0073
3909.00,0.0073
3908.00,0.0073
3907.00,0.0072
3906.00,0.0072
3905.00,0.0072
3904.00,0.0072
3903.00,0.0072
3902.00,0.0072
3901.00,0.0072
3900.00,0.0072
3899.00,0.0071
3898.00,0.0072
3897.00,0.0072
3896.00,0.0072
3895.00,0.0072
3894.00,0.0072
3893.00,0.0072
3892.00,0.0072
3891.00,0.0072
3890.00,0.0072
3889.00,0.0072
3888.00,0.0072
3887.00,0.0072
3886.00,0.0072
3885.00,0.0072
3884.00,0.0072
3883.00,0.0072
3882.00,0.0071
3881.00,0.0071
3880.00,0.0071
3879.00,0.0072
3878.00,0.0072
3877.00,0.0072
3876.00,0.0072
3875.00,0.0072
3874.00,0.0072
3873.00,0.0072
3872.00,0.0071
3871.00,0.0071
3870.00,0.0071
3869.00,0.0071
3868.00,0.0071
3867.00,0.0071
3866.00,0.0070
3865.00,0.0070
3864.00,0.0071
3863.00,0.0071
3862.00,0.0071
3861.00,0.0071
3860.00,0.0071
3859.00,0.0071
3858.00,0.0071
3857.00,0.0071
3856.00,0.0071
3855.00,0.0071
3854.00,0.0071
3853.00,0.0070
3852.00,0.0070
3851.00,0.0070
3850.00,0.0070
3849.00,0.0070
3848.00,0.0070
3847.00,0.0071
3846.00,0.0071
3845.00,0.0071
3844.00,0.0071
3843.00,0.0071
3842.00,0.0071
3841.00,0.0070
3840.00,0.0070
3839.00,0.0070
3838.00,0.0070
3837.00,0.0070
3836.00,0.0070
3835.00,0.0070
3834.00,0.0070
3833.00,0.0070
3832.00,0.0070
3831.00,0.0070
3830.00,0.0070
3829.00,0.0070
3828.00,0.0070
3827.00,0.0071
3826.00,0.0071
3825.00,0.0070
3824.00,0.0070
3823.00,0.0070
3822.00,0.0070
3821.00,0.0070
3820.00,0.0070
3819.00,0.0069
3818.00,0.0069
3817.00,0.0069
3816.00,0.0069
3815.00,0.0069
3814.00,0.0070
3813.00,0.0070
3812.00,0.0070
3811.00,0.0070
3810.00,0.0070
3809.00,0.0070
3808.00,0.0070
3807.00,0.0070
3806.00,0.0070
3805.00,0.0069
3804.00,0.0069
3803.00,0.0069
3802.00,0.0069
3801.00,0.0069
3800.00,0.0069
3799.00,0.0069
3798.00,0.0069
3797.00,0.0069
3796.00,0.0069
3795.00,0.0069
3794.00,0.0070
3793.00,0.0070
3792.00,0.0070
3791.00,0.0070
3790.00,0.0070
3789.00,0.0070
3788.00,0.0070
3787.00,0.0069
3786.00,0.0069
3785.00,0.0069
3784.00,0.0069
3783.00,0.0069
3782.00,0.0069
3781.00,0.0069
3780.00,0.0069
3779.00,0.0069
3778.00,0.0069
3777.00,0.0069
3776.00,0.0069
3775.00,0.0069
3774.00,0.0069
3773.00,0.0069
3772.00,0.0069
3771.00,0.0069
3770.00,0.0069
3769.00,0.0069
3768.00,0.0069
3767.00,0.0069
3766.00,0.0069
3765.00,0.0069
3764.00,0.0069
3763.00,0.0069
3762.00,0.0069
3761.00,0.0069
3760.00,0.0068
3759.00,0.0068
3758.00,0.0068
3757.00,0.0068
3756.00,0.0068
3755.00,0.0068
3754.00,0.0067
3753.00,0.0067
3752.00,0.0067
3751.00,0.0067
3750.00,0.0067
3749.00,0.0067
3748.00,0.0067
3747.00,0.0067
3746.00,0.0066
3745.00,0.0066
3744.00,0.0067
3743.00,0.0067
3742.00,0.0067
3741.00,0.0067
3740.00,0.0067
3739.00,0.0067
3738.00,0.0067
3737.00,0.0066
3736.00,0.0066
3735.00,0.0065
3734.00,0.0065
3733.00,0.0065
3732.00,0.0065
3731.00,0.0065
3730.00,0.0066
3729.00,0.0066
3728.00,0.0066
3727.00,0.0066
3726.00,0.0066
3725.00,0.0066
3724.00,0.0066
3723.00,0.0066
3722.00,0.0066
3721.00,0.0065
3720.00,0.0065
3719.00,0.0066
3718.00,0.0066
3717.00,0.0066
3716.00,0.0066
3715.00,0.0066
3714.00,0.0066
3713.00,0.0065
3712.00,0.0065
3711.00,0.0065
3710.00,0.0065
3709.00,0.0064
3708.00,0.0065
3707.00,0.0065
3706.00,0.0065
3705.00,0.0065
3704.00,0.0065
3703.00,0.0065
3702.00,0.0065
3701.00,0.0065
3700.00,0.0064
3699.00,0.0064
3698.00,0.0064
3697.00,0.0064
3696.00,0.0065
3695.00,0.0065
3694.00,0.0065
3693.00,0.0065
3692.00,0.0064
3691.00,0.0064
3690.00,0.0064
3689.00,0.0064
3688.00,0.0064
3687.00,0.0064
3686.00,0.0064
3685.00,0.0064
3684.00,0.0064
3683.00,0.0064
3682.00,0.0064
3681.00,0.0064
3680.00,0.0064
3679.00,0.0064
3678.00,0.0064
3677.00,0.0064
3676.00,0.0064
3675.00,0.0064
3674.00,0.0064
3673.00,0.0064
3672.00,0.0063
3671.00,0.0063
3670.00,0.0064
3669.00,0.0064
3668.00,0.0064
3667.00,0.0065
3666.00,0.0065
3665.00,0.0065
3664.00,0.0065
3663.00,0.0065
3662.00,0.0066
3661.00,0.0066
3660.00,0.0066
3659.00,0.0066
3658.00,0.0066
3657.00,0.0066
3656.00,0.0066
3655.00,0.0066
3654.00,0.0066
3653.00,0.0066
3652.00,0.0066
3651.00,0.0066
3650.00,0.0066
3649.00,0.0065
3648.00,0.0065
3647.00,0.0065
3646.00,0.0066
3645.00,0.0066
3644.00,0.0066
3643.00,0.0067
3642.00,0.0067
3641.00,0.0067
3640.00,0.0068
3639.00,0.0068
3638.00,0.0068
3637.00,0.0068
3636.00,0.0068
3635.00,0.0068
3634.00,0.0068
3633.00,0.0068
3632.00,0.0068
3631.00,0.0068
3630.00,0.0068
3629.00,0.0068
3628.00,0.0068
3627.00,0.0068
3626.00,0.0068
3625.00,0.0069
3624.00,0.0069
3623.00,0.0069
3622.00,0.0070
3621.00,0.0070
3620.00,0.0070
3619.00,0.0070
3618.00,0.0070
3617.00,0.0070
3616.00,0.0071
3615.00,0.0071
3614.00,0.0071
3613.00,0.0071
3612.00,0.0072
3611.00,0.0072
3610.00,0.0072
3609.00,0.0072
3608.00,0.0072
3607.00,0.0073
3606.00,0.0073
3605.00,0.0074
3604.00,0.0074
3603.00,0.0074
3602.00,0.0074
3601.00,0.0075
3600.00,0.0075
3599.00,0.0075
3598.00,0.0075
3597.00,0.0075
3596.00,0.0075
3595.00,0.0076
3594.00,0.0076
3593.00,0.0076
3592.00,0.0076
3591.00,0.0077
3590.00,0.0077
3589.00,0.0077
3588.00,0.0077
3587.00,0.0077
3586.00,0.0078
3585.00,0.0078
3584.00,0.0078
3583.00,0.0079
3582.00,0.0079
3581.00,0.0080
3580.00,0.0080
3579.00,0.0080
3578.00,0.0080
3577.00,0.0081
3576.00,0.0081
3575.00,0.0081
3574.00,0.0081
3573.00,0.0082
3572.00,0.0082
3571.00,0.0082
3570.00,0.0083
3569.00,0.0083
3568.00,0.0083
3567.00,0.0083
3566.00,0.0083
3565.00,0.0083
3564.00,0.0084
3563.00,0.0084
3562.00,0.0085
3561.00,0.0085
3560.00,0.0086
3559.00,0.0087
3558.00,0.0087
3557.00,0.0087
3556.00,0.0088
3555.00,0.0088
3554.00,0.0088
3553.00,0.0088
3552.00,0.0089
3551.00,0.0089
3550.00,0.0089
3549.00,0.0090
3548.00,0.0090
3547.00,0.0090
3546.00,0.0091
3545.00,0.0091
3544.00,0.0091
3543.00,0.0092
3542.00,0.0092
3541.00,0.0093
3540.00,0.0093
3539.00,0.0093
3538.00,0.0094
3537.00,0.0094
3536.00,0.0094
3535.00,0.0095
3534.00,0.0095
3533.00,0.0095
3532.00,0.0096
3531.00,0.0096
3530.00,0.0096
3529.00,0.0097
3528.00,0.0097
3527.00,0.0097
3526.00,0.0098
3525.00,0.0098
3524.00,0.0098
3523.00,0.0099
3522.00,0.0099
3521.00,0.0099
3520.00,0.0100
3519.00,0.0100
3518.00,0.0100
3517.00,0.0101
3516.00,0.0101
3515.00,0.0101
3514.00,0.0102
3513.00,0.0102
3512.00,0.0102
3511.00,0.0103
3510.00,0.0103
3509.00,0.0103
3508.00,0.0104
3507.00,0.0104
3506.00,0.0104
3505.00,0.0105
3504.00,0.0105
3503.00,0.0106
3502.00,0.0106
3501.00,0.0106
3500.00,0.0107
3499.00,0.0107
3498.00,0.0107
3497.00,0.0108
3496.00,0.0108
3495.00,0.0108
3494.00,0.0109
3493.00,0.0109
3492.00,0.0109
3491.00,0.0110
3490.00,0.0110
3489.00,0.0111
3488.00,0.0111
3487.00,0.0112
3486.00,0.0112
3485.00,0.0112
3484.00,0.0113
3483.00,0.0113
3482.00,0.0113
3481.00,0.0114
3480.00,0.0114
3479.00,0.0114
3478.00,0.0115
3477.00,0.0115
3476.00,0.0116
3475.00,0.0116
3474.00,0.0116
3473.00,0.0117
3472.00,0.0117
3471.00,0.0118
3470.00,0.0118
3469.00,0.0118
3468.00,0.0119
3467.00,0.0119
3466.00,0.0119
3465.00,0.0119
3464.00,0.0120
3463.00,0.0120
3462.00,0.0121
3461.00,0.0121
3460.00,0.0122
3459.00,0.0122
3458.00,0.0122
3457.00,0.0122
3456.00,0.0123
3455.00,0.0123
3454.00,0.0123
3453.00,0.0124
3452.00,0.0124
3451.00,0.0125
3450.00,0.0125
3449.00,0.0126
3448.00,0.0126
3447.00,0.0126
3446.00,0.0126
3445.00,0.0127
3444.00,0.0127
3443.00,0.0127
3442.00,0.0128
3441.00,0.0129
3440.00,0.0129
3439.00,0.0130
3438.00,0.0130
3437.00,0.0130
3436.00,0.0131
3435.00,0.0131
3434.00,0.0131
3433.00,0.0132
3432.00,0.0132
3431.00,0.0132
3430.00,0.0133
3429.00,0.0133
3428.00,0.0133
3427.00,0.0134
3426.00,0.0134
3425.00,0.0134
3424.00,0.0135
3423.00,0.0135
3422.00,0.0136
3421.00,0.0136
3420.00,0.0137
3419.00,0.0137
3418.00,0.0137
3417.00,0.0137
3416.00,0.0138
3415.00,0.0138
3414.00,0.0139
3413.00,0.0139
3412.00,0.0140
3411.00,0.0140
3410.00,0.0140
3409.00,0.0141
3408.00,0.0141
3407.00,0.0141
3406.00,0.0141
3405.00,0.0142
3404.00,0.0142
3403.00,0.0143
3402.00,0.0143
3401.00,0.0144
3400.00,0.0144
3399.00,0.0144
3398.00,0.0145
3397.00,0.0145
3396.00,0.0145
3395.00,0.0146
3394.00,0.0146
3393.00,0.0146
3392.00,0.0146
3391.00,0.0147
3390.00,0.0147
3389.00,0.0147
3388.00,0.0148
3387.00,0.0148
3386.00,0.0149
3385.00,0.0149
3384.00,0.0149
3383.00,0.0150
3382.00,0.0150
3381.00,0.0150
3380.00,0.0151
3379.00,0.0151
3378.00,0.0152
3377.00,0.0152
3376.00,0.0153
3375.00,0.0153
3374.00,0.0153
3373.00,0.0154
3372.00,0.0154
3371.00,0.0155
3370.00,0.0155
3369.00,0.0156
3368.00,0.0156
3367.00,0.0157
3366.00,0.0157
3365.00,0.0158
3364.00,0.0158
3363.00,0.0159
3362.00,0.0159
3361.00,0.0160
3360.00,0.0160
3359.00,0.0161
3358.00,0.0161
3357.00,0.0162
3356.00,0.0163
3355.00,0.0163
3354.00,0.0164
3353.00,0.0164
3352.00,0.0165
3351.00,0.0165
3350.00,0.0166
3349.00,0.0167
3348.00,0.0167
3347.00,0.0168
3346.00,0.0169
3345.00,0.0169
3344.00,0.0170
3343.00,0.0170
3342.00,0.0171
3341.00,0.0172
3340.00,0.0173
3339.00,0.0173
3338.00,0.0174
3337.00,0.0175
3336.00,0.0176
3335.00,0.0177
3334.00,0.0177
3333.00,0.0178
3332.00,0.0179
3331.00,0.0180
3330.00,0.0181
3329.00,0.0182
3328.00,0.0183
3327.00,0.0184
3326.00,0.0185
3325.00,0.0186
3324.00,0.0187
3323.00,0.0188
3322.00,0.0189
3321.00,0.0190
3320.00,0.0191
3319.00,0.0192
3318.00,0.0193
3317.00,0.0195
3316.00,0.0196
3315.00,0.0197
3314.00,0.0198
3313.00,0.0199
3312.00,0.0201
3311.00,0.0202
3310.00,0.0203
3309.00,0.0204
3308.00,0.0205
3307.00,0.0207
3306.00,0.0208
3305.00,0.0210
3304.00,0.0212
3303.00,0.0213
3302.00,0.0215
3301.00,0.0216
3300.00,0.0218
3299.00,0.0219
3298.00,0.0220
3297.00,0.0222
3296.00,0.0223
3295.00,0.0225
3294.00,0.0226
3293.00,0.0228
3292.00,0.0229
3291.00,0.0231
3290.00,0.0232
3289.00,0.0234
3288.00,0.0235
3287.00,0.0236
3286.00,0.0238
3285.00,0.0239
3284.00,0.0240
3283.00,0.0241
3282.00,0.0242
3281.00,0.0243
3280.00,0.0244
3279.00,0.0245
3278.00,0.0245
3277.00,0.0246
3276.00,0.0246
3275.00,0.0247
3274.00,0.0247
3273.00,0.0247
3272.00,0.0247
3271.00,0.0247
3270.00,0.0247
3269.00,0.0247
3268.00,0.0246
3267.00,0.0246
3266.00,0.0246
3265.00,0.0245
3264.00,0.0244
3263.00,0.0243
3262.00,0.0242
3261.00,0.0241
3260.00,0.0240
3259.00,0.0239
3258.00,0.0237
3257.00,0.0236
3256.00,0.0235
3255.00,0.0234
3254.00,0.0233
3253.00,0.0232
3252.00,0.0230
3251.00,0.0229
3250.00,0.0228
3249.00,0.0226
3248.00,0.0225
3247.00,0.0224
3246.00,0.0223
3245.00,0.0222
3244.00,0.0221
3243.00,0.0219
3242.00,0.0218
3241.00,0.0217
3240.00,0.0216
3239.00,0.0215
3238.00,0.0214
3237.00,0.0213
3236.00,0.0212
3235.00,0.0210
3234.00,0.0209
3233.00,0.0209
3232.00,0.0208
3231.00,0.0207
3230.00,0.0206
3229.00,0.0205
3228.00,0.0205
3227.00,0.0204
3226.00,0.0203
3225.00,0.0203
3224.00,0.0202
3223.00,0.0201
3222.00,0.0200
3221.00,0.0200
3220.00,0.0199
3219.00,0.0198
3218.00,0.0198
3217.00,0.0197
3216.00,0.0196
3215.00,0.0196
3214.00,0.0195
3213.00,0.0195
3212.00,0.0194
3211.00,0.0194
3210.00,0.0193
3209.00,0.0192
3208.00,0.0192
3207.00,0.0191
3206.00,0.0190
3205.00,0.0190
3204.00,0.0190
3203.00,0.0189
3202.00,0.0189
3201.00,0.0188
3200.00,0.0188
3199.00,0.0187
3198.00,0.0187
3197.00,0.0186
3196.00,0.0185
3195.00,0.0185
3194.00,0.0184
3193.00,0.0183
3192.00,0.0183
3191.00,0.0182
3190.00,0.0182
3189.00,0.0181
3188.00,0.0181
3187.00,0.0180
3186.00,0.0180
3185.00,0.0179
3184.00,0.0178
3183.00,0.0178
3182.00,0.0177
3181.00,0.0176
3180.00,0.0176
3179.00,0.0175
3178.00,0.0175
3177.00,0.0174
3176.00,0.0174
3175.00,0.0173
3174.00,0.0172
3173.00,0.0172
3172.00,0.0171
3171.00,0.0171
3170.00,0.0170
3169.00,0.0169
3168.00,0.0168
3167.00,0.0168
3166.00,0.0167
3165.00,0.0166
3164.00,0.0166
3163.00,0.0165
3162.00,0.0164
3161.00,0.0164
3160.00,0.0163
3159.00,0.0163
3158.00,0.0162
3157.00,0.0161
3156.00,0.0161
3155.00,0.0161
3154.00,0.0160
3153.00,0.0159
3152.00,0.0159
3151.00,0.0158
3150.00,0.0158
3149.00,0.0157
3148.00,0.0157
3147.00,0.0156
3146.00,0.0155
3145.00,0.0155
3144.00,0.0154
3143.00,0.0154
3142.00,0.0153
3141.00,0.0153
3140.00,0.0152
3139.00,0.0152
3138.00,0.0151
3137.00,0.0151
3136.00,0.0150
3135.00,0.0150
3134.00,0.0150
3133.00,0.0149
3132.00,0.0149
3131.00,0.0148
3130.00,0.0148
3129.00,0.0147
3128.00,0.0147
3127.00,0.0147
3126.00,0.0146
3125.00,0.0146
3124.00,0.0146
3123.00,0.0145
3122.00,0.0145
3121.00,0.0145
3120.00,0.0144
3119.00,0.0144
3118.00,0.0144
3117.00,0.0144
3116.00,0.0143
3115.00,0.0143
3114.00,0.0143
3113.00,0.0143
3112.00,0.0143
3111.00,0.0142
3110.00,0.0142
3109.00,0.0142
3108.00,0.0142
3107.00,0.0142
3106.00,0.0142
3105.00,0.0142
3104.00,0.0142
3103.00,0.0142
3102.00,0.0141
3101.00,0.0141
3100.00,0.0141
3099.00,0.0141
3098.00,0.0142
3097.00,0.0142
3096.00,0.0142
3095.00,0.0142
3094.00,0.0142
3093.00,0.0141
3092.00,0.0141
3091.00,0.0142
3090.00,0.0142
3089.00,0.0142
3088.00,0.0142
3087.00,0.0142
3086.00,0.0142
3085.00,0.0141
3084.00,0.0141
3083.00,0.0141
3082.00,0.0141
3081.00,0.0141
3080.00,0.0141
3079.00,0.0141
3078.00,0.0141
3077.00,0.0141
3076.00,0.0142
3075.00,0.0142
3074.00,0.0142
3073.00,0.0142
3072.00,0.0142
3071.00,0.0142
3070.00,0.0141
3069.00,0.0141
3068.00,0.0141
3067.00,0.0141
3066.00,0.0141
3065.00,0.0141
3064.00,0.0141
3063.00,0.0141
3062.00,0.0141
3061.00,0.0141
3060.00,0.0141
3059.00,0.0141
3058.00,0.0140
3057.00,0.0140
3056.00,0.0139
3055.00,0.0139
3054.00,0.0139
3053.00,0.0138
3052.00,0.0138
3051.00,0.0138
3050.00,0.0137
3049.00,0.0137
3048.00,0.0137
3047.00,0.0136
3046.00,0.0136
3045.00,0.0135
3044.00,0.0135
3043.00,0.0134
3042.00,0.0134
3041.00,0.0134
3040.00,0.0134
3039.00,0.0133
3038.00,0.0133
3037.00,0.0132
3036.00,0.0132
3035.00,0.0131
3034.00,0.0131
3033.00,0.0131
3032.00,0.0131
3031.00,0.0130
3030.00,0.0130
3029.00,0.0130
3028.00,0.0130
3027.00,0.0129
3026.00,0.0129
3025.00,0.0128
3024.00,0.0128
3023.00,0.0127
3022.00,0.0127
3021.00,0.0126
3020.00,0.0126
3019.00,0.0125
3018.00,0.0125
3017.00,0.0125
3016.00,0.0124
3015.00,0.0124
3014.00,0.0124
3013.00,0.0123
3012.00,0.0123
3011.00,0.0123
3010.00,0.0123
3009.00,0.0123
3008.00,0.0123
3007.00,0.0122
3006.00,0.0122
3005.00,0.0122
3004.00,0.0122
3003.00,0.0122
3002.00,0.0122
3001.00,0.0122
3000.00,0.0122
2999.00,0.0122
2998.00,0.0122
2997.00,0.0122
2996.00,0.0122
2995.00,0.0122
2994.00,0.0122
2993.00,0.0122
2992.00,0.0122
2991.00,0.0122
2990.00,0.0123
2989.00,0.0123
2988.00,0.0124
2987.00,0.0124
2986.00,0.0124
2985.00,0.0124
2984.00,0.0125
2983.00,0.0125
2982.00,0.0125
2981.00,0.0126
2980.00,0.0126
2979.00,0.0127
2978.00,0.0127
2977.00,0.0127
2976.00,0.0128
2975.00,0.0128
2974.00,0.0129
2973.00,0.0129
2972.00,0.0129
2971.00,0.0130
2970.00,0.0130
2969.00,0.0130
2968.00,0.0130
2967.00,0.0130
2966.00,0.0130
2965.00,0.0130
2964.00,0.0130
2963.00,0.0130
2962.00,0.0129
2961.00,0.0129
2960.00,0.0129
2959.00,0.0129
2958.00,0.0128
2957.00,0.0128
2956.00,0.0128
2955.00,0.0128
2954.00,0.0128
2953.00,0.0128
2952.00,0.0128
2951.00,0.0128
2950.00,0.0128
2949.00,0.0128
2948.00,0.0128
2947.00,0.0127
2946.00,0.0128
2945.00,0.0128
2944.00,0.0128
2943.00,0.0128
2942.00,0.0128
2941.00,0.0129
2940.00,0.0129
2939.00,0.0129
2938.00,0.0129
2937.00,0.0129
2936.00,0.0129
2935.00,0.0129
2934.00,0.0128
2933.00,0.0128
2932.00,0.0127
2931.00,0.0127
2930.00,0.0126
2929.00,0.0125
2928.00,0.0124
2927.00,0.0123
2926.00,0.0122
2925.00,0.0121
2924.00,0.0119
2923.00,0.0118
2922.00,0.0116
2921.00,0.0114
2920.00,0.0112
2919.00,0.0111
2918.00,0.0109
2917.00,0.0108
2916.00,0.0108
2915.00,0.0108
2914.00,0.0109
2913.00,0.0111
2912.00,0.0112
2911.00,0.0114
2910.00,0.0115
2909.00,0.0115
2908.00,0.0116
2907.00,0.0116
2906.00,0.0116
2905.00,0.0116
2904.00,0.0116
2903.00,0.0116
2902.00,0.0116
2901.00,0.0116
2900.00,0.0116
2899.00,0.0116
2898.00,0.0116
2897.00,0.0116
2896.00,0.0116
2895.00,0.0116
2894.00,0.0116
2893.00,0.0116
2892.00,0.0116
2891.00,0.0117
2890.00,0.0117
2889.00,0.0117
2888.00,0.0117
2887.00,0.0117
2886.00,0.0118
2885.00,0.0118
2884.00,0.0118
2883.00,0.0119
2882.00,0.0119
2881.00,0.0119
2880.00,0.0119
2879.00,0.0120
2878.00,0.0120
2877.00,0.0120
2876.00,0.0120
2875.00,0.0120
2874.00,0.0120
2873.00,0.0120
2872.00,0.0120
2871.00,0.0120
2870.00,0.0119
2869.00,0.0119
2868.00,0.0118
2867.00,0.0117
2866.00,0.0117
2865.00,0.0116
2864.00,0.0115
2863.00,0.0115
2862.00,0.0114
2861.00,0.0113
2860.00,0.0113
2859.00,0.0112
2858.00,0.0111
2857.00,0.0110
2856.00,0.0109
2855.00,0.0108
2854.00,0.0106
2853.00,0.0105
2852.00,0.0103
2851.00,0.0102
2850.00,0.0100
2849.00,0.0100
2848.00,0.0101
2847.00,0.0102
2846.00,0.0103
2845.00,0.0105
2844.00,0.0106
2843.00,0.0106
2842.00,0.0107
2841.00,0.0107
2840.00,0.0107
2839.00,0.0107
2838.00,0.0107
2837.00,0.0107
2836.00,0.0107
2835.00,0.0107
2834.00,0.0107
2833.00,0.0107
2832.00,0.0107
2831.00,0.0107
2830.00,0.0106
2829.00,0.0106
2828.00,0.0106
2827.00,0.0106
2826.00,0.0106
2825.00,0.0106
2824.00,0.0106
2823.00,0.0105
2822.00,0.0105
2821.00,0.0105
2820.00,0.0105
2819.00,0.0105
2818.00,0.0105
2817.00,0.0105
2816.00,0.0105
2815.00,0.0105
2814.00,0.0105
2813.00,0.0105
2812.00,0.0105
2811.00,0.0104
2810.00,0.0104
2809.00,0.0104
2808.00,0.0104
2807.00,0.0104
2806.00,0.0104
2805.00,0.0104
2804.00,0.0103
2803.00,0.0103
2802.00,0.0103
2801.00,0.0103
2800.00,0.0103
2799.00,0.0103
2798.00,0.0103
2797.00,0.0103
2796.00,0.0103
2795.00,0.0103
2794.00,0.0102
2793.00,0.0102
2792.00,0.0102
2791.00,0.0102
2790.00,0.0102
2789.00,0.0102
2788.00,0.0102
2787.00,0.0102
2786.00,0.0102
2785.00,0.0102
2784.00,0.0101
2783.00,0.0101
2782.00,0.0101
2781.00,0.0101
2780.00,0.0101
2779.00,0.0101
2778.00,0.0101
2777.00,0.0101
2776.00,0.0100
2775.00,0.0100
2774.00,0.0100
2773.00,0.0100
2772.00,0.0100
2771.00,0.0100
2770.00,0.0100
2769.00,0.0100
2768.00,0.0100
2767.00,0.0100
2766.00,0.0100
2765.00,0.0099
2764.00,0.0099
2763.00,0.0099
2762.00,0.0099
2761.00,0.0099
2760.00,0.0099
2759.00,0.0099
2758.00,0.0099
2757.00,0.0098
2756.00,0.0098
2755.00,0.0098
2754.00,0.0098
2753.00,0.0098
2752.00,0.0098
2751.00,0.0098
2750.00,0.0098
2749.00,0.0098
2748.00,0.0097
2747.00,0.0097
2746.00,0.0097
2745.00,0.0097
2744.00,0.0097
2743.00,0.0097
2742.00,0.0097
2741.00,0.0097
2740.00,0.0097
2739.00,0.0097
2738.00,0.0096
2737.00,0.0096
2736.00,0.0096
2735.00,0.0096
2734.00,0.0096
2733.00,0.0096
2732.00,0.0096
2731.00,0.0096
2730.00,0.0096
2729.00,0.0095
2728.00,0.0095
2727.00,0.0095
2726.00,0.0095
2725.00,0.0095
2724.00,0.0095
2723.00,0.0095
2722.00,0.0095
2721.00,0.0095
2720.00,0.0095
2719.00,0.0095
2718.00,0.0094
2717.00,0.0094
2716.00,0.0094
2715.00,0.0094
2714.00,0.0094
2713.00,0.0094
2712.00,0.0094
2711.00,0.0094
2710.00,0.0093
2709.00,0.0093
2708.00,0.0093
2707.00,0.0093
2706.00,0.0093
2705.00,0.0093
2704.00,0.0093
2703.00,0.0093
2702.00,0.0093
2701.00,0.0093
2700.00,0.0092
2699.00,0.0092
2698.00,0.0092
2697.00,0.0092
2696.00,0.0092
2695.00,0.0092
2694.00,0.0092
2693.00,0.0092
2692.00,0.0092
2691.00,0.0092
2690.00,0.0092
2689.00,0.0091
2688.00,0.0091
2687.00,0.0091
2686.00,0.0091
2685.00,0.0091
2684.00,0.0091
2683.00,0.0091
2682.00,0.0091
2681.00,0.0091
2680.00,0.0091
2679.00,0.0091
2678.00,0.0090
2677.00,0.0090
2676.00,0.0090
2675.00,0.0090
2674.00,0.0090
2673.00,0.0090
2672.00,0.0090
2671.00,0.0090
2670.00,0.0090
2669.00,0.0090
2668.00,0.0090
2667.00,0.0090
2666.00,0.0091
2665.00,0.0091
2664.00,0.0091
2663.00,0.0092
2662.00,0.0092
2661.00,0.0092
2660.00,0.0092
2659.00,0.0093
2658.00,0.0093
2657.00,0.0093
2656.00,0.0093
2655.00,0.0093
2654.00,0.0093
2653.00,0.0093
2652.00,0.0093
2651.00,0.0093
2650.00,0.0093
2649.00,0.0093
2648.00,0.0093
2647.00,0.0092
2646.00,0.0092
2645.00,0.0092
2644.00,0.0092
2643.00,0.0092
2642.00,0.0092
2641.00,0.0091
2640.00,0.0091
2639.00,0.0091
2638.00,0.0091
2637.00,0.0091
2636.00,0.0091
2635.00,0.0091
2634.00,0.0091
2633.00,0.0091
2632.00,0.0090
2631.00,0.0090
2630.00,0.0090
2629.00,0.0090
2628.00,0.0090
2627.00,0.0090
2626.00,0.0090
2625.00,0.0089
2624.00,0.0089
2623.00,0.0089
2622.00,0.0089
2621.00,0.0089
2620.00,0.0089
2619.00,0.0089
2618.00,0.0089
2617.00,0.0088
2616.00,0.0088
2615.00,0.0088
2614.00,0.0088
2613.00,0.0088
2612.00,0.0088
2611.00,0.0087
2610.00,0.0087
2609.00,0.0087
2608.00,0.0087
2607.00,0.0087
2606.00,0.0087
2605.00,0.0087
2604.00,0.0087
2603.00,0.0087
2602.00,0.0086
2601.00,0.0086
2600.00,0.0086
2599.00,0.0086
2598.00,0.0086
2597.00,0.0086
2596.00,0.0086
2595.00,0.0086
2594.00,0.0085
2593.00,0.0085
2592.00,0.0085
2591.00,0.0085
2590.00,0.0085
2589.00,0.0085
2588.00,0.0085
2587.00,0.0084
2586.00,0.0084
2585.00,0.0084
2584.00,0.0084
2583.00,0.0084
2582.00,0.0084
2581.00,0.0083
2580.00,0.0083
2579.00,0.0083
2578.00,0.0083
2577.00,0.0083
2576.00,0.0083
2575.00,0.0083
2574.00,0.0083
2573.00,0.0082
2572.00,0.0082
2571.00,0.0082
2570.00,0.0082
2569.00,0.0082
2568.00,0.0082
2567.00,0.0082
2566.00,0.0081
2565.00,0.0081
2564.00,0.0081
2563.00,0.0081
2562.00,0.0081
2561.00,0.0081
2560.00,0.0081
2559.00,0.0081
2558.00,0.0081
2557.00,0.0081
2556.00,0.0081
2555.00,0.0081
2554.00,0.0081
2553.00,0.0080
2552.00,0.0080
2551.00,0.0080
2550.00,0.0080
2549.00,0.0080
2548.00,0.0080
2547.00,0.0080
2546.00,0.0080
2545.00,0.0080
2544.00,0.0080
2543.00,0.0080
2542.00,0.0080
2541.00,0.0080
2540.00,0.0079
2539.00,0.0079
2538.00,0.0079
2537.00,0.0079
2536.00,0.0079
2535.00,0.0079
2534.00,0.0079
2533.00,0.0079
2532.00,0.0079
2531.00,0.0079
2530.00,0.0078
2529.00,0.0078
2528.00,0.0078
2527.00,0.0078
2526.00,0.0078
2525.00,0.0079
2524.00,0.0079
2523.00,0.0079
2522.00,0.0078
2521.00,0.0078
2520.00,0.0078
2519.00,0.0078
2518.00,0.0078
2517.00,0.0078
2516.00,0.0078
2515.00,0.0078
2514.00,0.0078
2513.00,0.0078
2512.00,0.0077
2511.00,0.0077
2510.00,0.0077
2509.00,0.0077
2508.00,0.0077
2507.00,0.0077
2506.00,0.0077
2505.00,0.0078
2504.00,0.0077
2503.00,0.0077
2502.00,0.0077
2501.00,0.0077
2500.00,0.0077
2499.00,0.0077
2498.00,0.0077
2497.00,0.0077
2496.00,0.0077
2495.00,0.0077
2494.00,0.0077
2493.00,0.0077
2492.00,0.0076
2491.00,0.0076
2490.00,0.0076
2489.00,0.0076
2488.00,0.0076
2487.00,0.0076
2486.00,0.0076
2485.00,0.0076
2484.00,0.0076
2483.00,0.0076
2482.00,0.0076
2481.00,0.0076
2480.00,0.0076
2479.00,0.0076
2478.00,0.0076
2477.00,0.0076
2476.00,0.0076
2475.00,0.0076
2474.00,0.0076
2473.00,0.0076
2472.00,0.0076
2471.00,0.0076
2470.00,0.0076
2469.00,0.0076
2468.00,0.0076
2467.00,0.0076
2466.00,0.0076
2465.00,0.0076
2464.00,0.0076
2463.00,0.0076
2462.00,0.0076
2461.00,0.0076
2460.00,0.0076
2459.00,0.0076
2458.00,0.0076
2457.00,0.0077
2456.00,0.0077
2455.00,0.0077
2454.00,0.0077
2453.00,0.0076
2452.00,0.0076
2451.00,0.0076
2450.00,0.0076
2449.00,0.0076
2448.00,0.0075
2447.00,0.0075
2446.00,0.0075
2445.00,0.0075
2444.00,0.0075
2443.00,0.0075
2442.00,0.0074
2441.00,0.0074
2440.00,0.0074
2439.00,0.0074
2438.00,0.0074
2437.00,0.0074
2436.00,0.0074
2435.00,0.0074
2434.00,0.0073
2433.00,0.0073
2432.00,0.0073
2431.00,0.0073
2430.00,0.0073
2429.00,0.0073
2428.00,0.0073
2427.00,0.0073
2426.00,0.0073
2425.00,0.0073
2424.00,0.0073
2423.00,0.0073
2422.00,0.0072
2421.00,0.0072
2420.00,0.0072
2419.00,0.0072
2418.00,0.0072
2417.00,0.0072
2416.00,0.0072
2415.00,0.0072
2414.00,0.0072
2413.00,0.0072
2412.00,0.0072
2411.00,0.0072
2410.00,0.0071
2409.00,0.0071
2408.00,0.0071
2407.00,0.0070
2406.00,0.0070
2405.00,0.0070
2404.00,0.0070
2403.00,0.0070
2402.00,0.0070
2401.00,0.0070
2400.00,0.0070
2399.00,0.0070
2398.00,0.0070
2397.00,0.0069
2396.00,0.0069
2395.00,0.0069
2394.00,0.0069
2393.00,0.0069
2392.00,0.0069
2391.00,0.0069
2390.00,0.0069
2389.00,0.0069
2388.00,0.0069
2387.00,0.0069
2386.00,0.0069
2385.00,0.0068
2384.00,0.0068
2383.00,0.0067
2382.00,0.0067
2381.00,0.0067
2380.00,0.0066
2379.00,0.0066
2378.00,0.0066
2377.00,0.0066
2376.00,0.0066
2375.00,0.0066
2374.00,0.0067
2373.00,0.0066
2372.00,0.0066
2371.00,0.0066
2370.00,0.0066
2369.00,0.0066
2368.00,0.0066
2367.00,0.0065
2366.00,0.0065
2365.00,0.0065
2364.00,0.0065
2363.00,0.0066
2362.00,0.0066
2361.00,0.0066
2360.00,0.0066
2359.00,0.0066
2358.00,0.0066
2357.00,0.0066
2356.00,0.0066
2355.00,0.0066
2354.00,0.0066
2353.00,0.0066
2352.00,0.0065
2351.00,0.0065
2350.00,0.0066
2349.00,0.0067
2348.00,0.0068
2347.00,0.0068
2346.00,0.0068
2345.00,0.0068
2344.00,0.0068
2343.00,0.0068
2342.00,0.0069
2341.00,0.0069
2340.00,0.0069
2339.00,0.0069
2338.00,0.0069
2337.00,0.0069
2336.00,0.0069
2335.00,0.0070
2334.00,0.0069
2333.00,0.0069
2332.00,0.0069
2331.00,0.0069
2330.00,0.0069
2329.00,0.0071
2328.00,0.0074
2327.00,0.0078
2326.00,0.0081
2325.00,0.0083
2324.00,0.0082
2323.00,0.0080
2322.00,0.0078
2321.00,0.0077
2320.00,0.0076
2319.00,0.0075
2318.00,0.0075
2317.00,0.0075
2316.00,0.0075
2315.00,0.0074
2314.00,0.0074
2313.00,0.0073
2312.00,0.0073
2311.00,0.0073
2310.00,0.0072
2309.00,0.0072
2308.00,0.0072
2307.00,0.0072
2306.00,0.0072
2305.00,0.0073
2304.00,0.0073
2303.00,0.0073
2302.00,0.0073
2301.00,0.0073
2300.00,0.0073
2299.00,0.0074
2298.00,0.0074
2297.00,0.0074
2296.00,0.0075
2295.00,0.0075
2294.00,0.0076
2293.00,0.0077
2292.00,0.0078
2291.00,0.0078
2290.00,0.0079
2289.00,0.0079
2288.00,0.0079
2287.00,0.0079
2286.00,0.0079
2285.00,0.0078
2284.00,0.0078
2283.00,0.0077
2282.00,0.0077
2281.00,0.0076
2280.00,0.0076
2279.00,0.0075
2278.00,0.0075
2277.00,0.0075
2276.00,0.0074
2275.00,0.0074
2274.00,0.0074
2273.00,0.0074
2272.00,0.0073
2271.00,0.0073
2270.00,0.0073
2269.00,0.0073
2268.00,0.0072
2267.00,0.0071
2266.00,0.0071
2265.00,0.0071
2264.00,0.0071
2263.00,0.0071
2262.00,0.0071
2261.00,0.0072
2260.00,0.0072
2259.00,0.0072
2258.00,0.0072
2257.00,0.0071
2256.00,0.0070
2255.00,0.0069
2254.00,0.0069
2253.00,0.0069
2252.00,0.0069
2251.00,0.0069
2250.00,0.0069
2249.00,0.0069
2248.00,0.0069
2247.00,0.0069
2246.00,0.0069
2245.00,0.0069
2244.00,0.0070
2243.00,0.0070
2242.00,0.0070
2241.00,0.0070
2240.00,0.0070
2239.00,0.0070
2238.00,0.0070
2237.00,0.0070
2236.00,0.0070
2235.00,0.0070
2234.00,0.0070
2233.00,0.0070
2232.00,0.0070
2231.00,0.0069
2230.00,0.0069
2229.00,0.0069
2228.00,0.0069
2227.00,0.0069
2226.00,0.0069
2225.00,0.0069
2224.00,0.0069
2223.00,0.0069
2222.00,0.0069
2221.00,0.0068
2220.00,0.0068
2219.00,0.0067
2218.00,0.0067
2217.00,0.0067
2216.00,0.0068
2215.00,0.0068
2214.00,0.0068
2213.00,0.0068
2212.00,0.0068
2211.00,0.0068
2210.00,0.0067
2209.00,0.0067
2208.00,0.0067
2207.00,0.0067
2206.00,0.0068
2205.00,0.0068
2204.00,0.0068
2203.00,0.0068
2202.00,0.0068
2201.00,0.0068
2200.00,0.0068
2199.00,0.0068
2198.00,0.0069
2197.00,0.0069
2196.00,0.0070
2195.00,0.0070
2194.00,0.0070
2193.00,0.0069
2192.00,0.0069
2191.00,0.0068
2190.00,0.0068
2189.00,0.0069
2188.00,0.0069
2187.00,0.0070
2186.00,0.0069
2185.00,0.0067
2184.00,0.0065
2183.00,0.0063
2182.00,0.0062
2181.00,0.0062
2180.00,0.0062
2179.00,0.0063
2178.00,0.0062
2177.00,0.0062
2176.00,0.0061
2175.00,0.0062
2174.00,0.0063
2173.00,0.0064
2172.00,0.0066
2171.00,0.0068
2170.00,0.0069
2169.00,0.0071
2168.00,0.0073
2167.00,0.0074
2166.00,0.0075
2165.00,0.0076
2164.00,0.0077
2163.00,0.0076
2162.00,0.0071
2161.00,0.0061
2160.00,0.0049
2159.00,0.0039
2158.00,0.0033
2157.00,0.0034
2156.00,0.0036
2155.00,0.0040
2154.00,0.0042
2153.00,0.0045
2152.00,0.0046
2151.00,0.0047
2150.00,0.0047
2149.00,0.0047
2148.00,0.0047
2147.00,0.0048
2146.00,0.0048
2145.00,0.0049
2144.00,0.0050
2143.00,0.0050
2142.00,0.0050
2141.00,0.0050
2140.00,0.0050
2139.00,0.0049
2138.00,0.0048
2137.00,0.0047
2136.00,0.0045
2135.00,0.0043
2134.00,0.0043
2133.00,0.0044
2132.00,0.0045
2131.00,0.0047
2130.00,0.0048
2129.00,0.0049
2128.00,0.0050
2127.00,0.0051
2126.00,0.0052
2125.00,0.0053
2124.00,0.0054
2123.00,0.0055
2122.00,0.0056
2121.00,0.0056
2120.00,0.0057
2119.00,0.0058
2118.00,0.0059
2117.00,0.0060
2116.00,0.0061
2115.00,0.0061
2114.00,0.0061
2113.00,0.0061
2112.00,0.0061
2111.00,0.0061
2110.00,0.0061
2109.00,0.0061
2108.00,0.0061
2107.00,0.0061
2106.00,0.0061
2105.00,0.0061
2104.00,0.0061
2103.00,0.0061
2102.00,0.0061
2101.00,0.0061
2100.00,0.0060
2099.00,0.0060
2098.00,0.0059
2097.00,0.0057
2096.00,0.0056
2095.00,0.0055
2094.00,0.0055
2093.00,0.0056
2092.00,0.0057
2091.00,0.0058
2090.00,0.0059
2089.00,0.0060
2088.00,0.0060
2087.00,0.0061
2086.00,0.0061
2085.00,0.0062
2084.00,0.0062
2083.00,0.0062
2082.00,0.0062
2081.00,0.0062
2080.00,0.0062
2079.00,0.0062
2078.00,0.0062
2077.00,0.0062
2076.00,0.0061
2075.00,0.0061
2074.00,0.0060
2073.00,0.0060
2072.00,0.0060
2071.00,0.0059
2070.00,0.0059
2069.00,0.0060
2068.00,0.0060
2067.00,0.0060
2066.00,0.0059
2065.00,0.0059
2064.00,0.0059
2063.00,0.0059
2062.00,0.0059
2061.00,0.0059
2060.00,0.0059
2059.00,0.0059
2058.00,0.0060
2057.00,0.0060
2056.00,0.0060
2055.00,0.0061
2054.00,0.0063
2053.00,0.0066
2052.00,0.0069
2051.00,0.0070
2050.00,0.0067
2049.00,0.0063
2048.00,0.0061
2047.00,0.0060
2046.00,0.0059
2045.00,0.0059
2044.00,0.0059
2043.00,0.0060
2042.00,0.0060
2041.00,0.0060
2040.00,0.0060
2039.00,0.0060
2038.00,0.0059
2037.00,0.0059
2036.00,0.0059
2035.00,0.0057
2034.00,0.0056
2033.00,0.0055
2032.00,0.0053
2031.00,0.0052
2030.00,0.0051
2029.00,0.0050
2028.00,0.0051
2027.00,0.0051
2026.00,0.0049
2025.00,0.0048
2024.00,0.0048
2023.00,0.0048
2022.00,0.0048
2021.00,0.0049
2020.00,0.0049
2019.00,0.0048
2018.00,0.0048
2017.00,0.0048
2016.00,0.0049
2015.00,0.0050
2014.00,0.0050
2013.00,0.0051
2012.00,0.0051
2011.00,0.0051
2010.00,0.0051
2009.00,0.0050
2008.00,0.0048
2007.00,0.0046
2006.00,0.0044
2005.00,0.0043
2004.00,0.0044
2003.00,0.0045
2002.00,0.0046
2001.00,0.0048
2000.00,0.0049
1999.00,0.0050
1998.00,0.0050
1997.00,0.0051
1996.00,0.0052
1995.00,0.0053
1994.00,0.0052
1993.00,0.0052
1992.00,0.0053
1991.00,0.0053
1990.00,0.0054
1989.00,0.0055
1988.00,0.0056
1987.00,0.0056
1986.00,0.0057
1985.00,0.0058
1984.00,0.0059
1983.00,0.0060
1982.00,0.0062
1981.00,0.0063
1980.00,0.0061
1979.00,0.0057
1978.00,0.0051
1977.00,0.0046
1976.00,0.0044
1975.00,0.0043
1974.00,0.0042
1973.00,0.0041
1972.00,0.0041
1971.00,0.0042
1970.00,0.0043
1969.00,0.0043
1968.00,0.0044
1967.00,0.0044
1966.00,0.0043
1965.00,0.0043
1964.00,0.0043
1963.00,0.0043
1962.00,0.0042
1961.00,0.0041
1960.00,0.0039
1959.00,0.0039
1958.00,0.0038
1957.00,0.0039
1956.00,0.0041
1955.00,0.0042
1954.00,0.0042
1953.00,0.0042
1952.00,0.0042
1951.00,0.0042
1950.00,0.0043
1949.00,0.0043
1948.00,0.0043
1947.00,0.0043
1946.00,0.0042
1945.00,0.0041
1944.00,0.0042
1943.00,0.0042
1942.00,0.0042
1941.00,0.0042
1940.00,0.0042
1939.00,0.0042
1938.00,0.0042
1937.00,0.0042
1936.00,0.0042
1935.00,0.0042
1934.00,0.0042
1933.00,0.0042
1932.00,0.0042
1931.00,0.0042
1930.00,0.0042
1929.00,0.0042
1928.00,0.0042
1927.00,0.0042
1926.00,0.0042
1925.00,0.0042
1924.00,0.0043
1923.00,0.0043
1922.00,0.0044
1921.00,0.0044
1920.00,0.0044
1919.00,0.0044
1918.00,0.0044
1917.00,0.0044
1916.00,0.0044
1915.00,0.0044
1914.00,0.0044
1913.00,0.0044
1912.00,0.0044
1911.00,0.0043
1910.00,0.0043
1909.00,0.0043
1908.00,0.0043
1907.00,0.0044
1906.00,0.0044
1905.00,0.0044
1904.00,0.0045
1903.00,0.0044
1902.00,0.0044
1901.00,0.0044
1900.00,0.0044
1899.00,0.0044
1898.00,0.0044
1897.00,0.0043
1896.00,0.0044
1895.00,0.0044
1894.00,0.0043
1893.00,0.0043
1892.00,0.0043
1891.00,0.0043
1890.00,0.0043
1889.00,0.0043
1888.00,0.0043
1887.00,0.0043
1886.00,0.0043
1885.00,0.0043
1884.00,0.0044
1883.00,0.0044
1882.00,0.0044
1881.00,0.0044
1880.00,0.0044
1879.00,0.0043
1878.00,0.0043
1877.00,0.0043
1876.00,0.0043
1875.00,0.0043
1874.00,0.0042
1873.00,0.0042
1872.00,0.0042
1871.00,0.0042
1870.00,0.0042
1869.00,0.0042
1868.00,0.0042
1867.00,0.0042
1866.00,0.0042
1865.00,0.0042
1864.00,0.0042
1863.00,0.0042
1862.00,0.0042
1861.00,0.0042
1860.00,0.0042
1859.00,0.0042
1858.00,0.0042
1857.00,0.0042
1856.00,0.0042
1855.00,0.0042
1854.00,0.0042
1853.00,0.0041
1852.00,0.0041
1851.00,0.0041
1850.00,0.0041
1849.00,0.0041
1848.00,0.0041
1847.00,0.0041
1846.00,0.0041
1845.00,0.0041
1844.00,0.0041
1843.00,0.0041
1842.00,0.0041
1841.00,0.0041
1840.00,0.0041
1839.00,0.0041
1838.00,0.0041
1837.00,0.0041
1836.00,0.0041
1835.00,0.0041
1834.00,0.0040
1833.00,0.0040
1832.00,0.0040
1831.00,0.0040
1830.00,0.0040
1829.00,0.0040
1828.00,0.0040
1827.00,0.0040
1826.00,0.0040
1825.00,0.0041
1824.00,0.0041
1823.00,0.0041
1822.00,0.0040
1821.00,0.0040
1820.00,0.0040
1819.00,0.0039
1818.00,0.0038
1817.00,0.0038
1816.00,0.0038
1815.00,0.0038
1814.00,0.0039
1813.00,0.0039
1812.00,0.0039
1811.00,0.0040
1810.00,0.0040
1809.00,0.0040
1808.00,0.0040
1807.00,0.0040
1806.00,0.0040
1805.00,0.0040
1804.00,0.0040
1803.00,0.0040
1802.00,0.0040
1801.00,0.0040
1800.00,0.0040
1799.00,0.0040
1798.00,0.0040
1797.00,0.0040
1796.00,0.0040
1795.00,0.0040
1794.00,0.0040
1793.00,0.0040
1792.00,0.0040
1791.00,0.0040
1790.00,0.0040
1789.00,0.0040
1788.00,0.0040
1787.00,0.0040
1786.00,0.0040
1785.00,0.0040
1784.00,0.0040
1783.00,0.0040
1782.00,0.0040
1781.00,0.0040
1780.00,0.0040
1779.00,0.0040
1778.00,0.0039
1777.00,0.0039
1776.00,0.0039
1775.00,0.0040
1774.00,0.0040
1773.00,0.0040
1772.00,0.0040
1771.00,0.0039
1770.00,0.0039
1769.00,0.0039
1768.00,0.0040
1767.00,0.0040
1766.00,0.0040
1765.00,0.0040
1764.00,0.0040
1763.00,0.0040
1762.00,0.0040
1761.00,0.0040
1760.00,0.0040
1759.00,0.0040
1758.00,0.0040
1757.00,0.0040
1756.00,0.0040
1755.00,0.0040
1754.00,0.0040
1753.00,0.0040
1752.00,0.0040
1751.00,0.0040
1750.00,0.0040
1749.00,0.0039
1748.00,0.0040
1747.00,0.0040
1746.00,0.0040
1745.00,0.0040
1744.00,0.0040
1743.00,0.0040
1742.00,0.0040
1741.00,0.0040
1740.00,0.0040
1739.00,0.0041
1738.00,0.0041
1737.00,0.0041
1736.00,0.0041
1735.00,0.0041
1734.00,0.0041
1733.00,0.0041
1732.00,0.0041
1731.00,0.0042
1730.00,0.0042
1729.00,0.0042
1728.00,0.0043
1727.00,0.0043
1726.00,0.0043
1725.00,0.0044
1724.00,0.0044
1723.00,0.0045
1722.00,0.0045
1721.00,0.0045
1720.00,0.0046
1719.00,0.0047
1718.00,0.0047
1717.00,0.0048
1716.00,0.0048
1715.00,0.0049
1714.00,0.0050
1713.00,0.0052
1712.00,0.0054
1711.00,0.0056
1710.00,0.0058
1709.00,0.0060
1708.00,0.0063
1707.00,0.0067
1706.00,0.0071
1705.00,0.0077
1704.00,0.0082
1703.00,0.0087
1702.00,0.0094
1701.00,0.0106
1700.00,0.0121
1699.00,0.0134
1698.00,0.0143
1697.00,0.0150
1696.00,0.0159
1695.00,0.0167
1694.00,0.0172
1693.00,0.0176
1692.00,0.0179
1691.00,0.0183
1690.00,0.0188
1689.00,0.0193
1688.00,0.0197
1687.00,0.0202
1686.00,0.0206
1685.00,0.0213
1684.00,0.0223
1683.00,0.0231
1682.00,0.0238
1681.00,0.0244
1680.00,0.0250
1679.00,0.0257
1678.00,0.0262
1677.00,0.0268
1676.00,0.0276
1675.00,0.0285
1674.00,0.0294
1673.00,0.0300
1672.00,0.0306
1671.00,0.0313
1670.00,0.0322
1669.00,0.0332
1668.00,0.0341
1667.00,0.0348
1666.00,0.0354
1665.00,0.0360
1664.00,0.0367
1663.00,0.0375
1662.00,0.0384
1661.00,0.0392
1660.00,0.0399
1659.00,0.0405
1658.00,0.0410
1657.00,0.0414
1656.00,0.0417
1655.00,0.0420
1654.00,0.0425
1653.00,0.0435
1652.00,0.0443
1651.00,0.0446
1650.00,0.0447
1649.00,0.0447
1648.00,0.0448
1647.00,0.0452
1646.00,0.0456
1645.00,0.0459
1644.00,0.0461
1643.00,0.0462
1642.00,0.0463
1641.00,0.0464
1640.00,0.0465
1639.00,0.0466
1638.00,0.0466
1637.00,0.0467
1636.00,0.0470
1635.00,0.0474
1634.00,0.0477
1633.00,0.0479
1632.00,0.0480
1631.00,0.0480
1630.00,0.0481
1629.00,0.0483
1628.00,0.0485
1627.00,0.0488
1626.00,0.0490
1625.00,0.0491
1624.00,0.0493
1623.00,0.0496
1622.00,0.0498
1621.00,0.0499
1620.00,0.0498
1619.00,0.0497
1618.00,0.0494
1617.00,0.0491
1616.00,0.0487
1615.00,0.0483
1614.00,0.0477
1613.00,0.0471
1612.00,0.0464
1611.00,0.0456
1610.00,0.0447
1609.00,0.0439
1608.00,0.0430
1607.00,0.0422
1606.00,0.0414
1605.00,0.0406
1604.00,0.0397
1603.00,0.0389
1602.00,0.0381
1601.00,0.0373
1600.00,0.0365
1599.00,0.0357
1598.00,0.0350
1597.00,0.0343
1596.00,0.0336
1595.00,0.0329
1594.00,0.0322
1593.00,0.0316
1592.00,0.0309
1591.00,0.0303
1590.00,0.0297
1589.00,0.0291
1588.00,0.0286
1587.00,0.0280
1586.00,0.0275
1585.00,0.0271
1584.00,0.0266
1583.00,0.0262
1582.00,0.0258
1581.00,0.0256
1580.00,0.0253
1579.00,0.0251
1578.00,0.0250
1577.00,0.0249
1576.00,0.0248
1575.00,0.0248
1574.00,0.0248
1573.00,0.0249
1572.00,0.0249
1571.00,0.0250
1570.00,0.0253
1569.00,0.0257
1568.00,0.0261
1567.00,0.0264
1566.00,0.0267
1565.00,0.0271
1564.00,0.0276
1563.00,0.0280
1562.00,0.0282
1561.00,0.0285
1560.00,0.0290
1559.00,0.0300
1558.00,0.0311
1557.00,0.0318
1556.00,0.0323
1555.00,0.0327
1554.00,0.0333
1553.00,0.0339
1552.00,0.0345
1551.00,0.0350
1550.00,0.0356
1549.00,0.0362
1548.00,0.0367
1547.00,0.0371
1546.00,0.0375
1545.00,0.0379
1544.00,0.0384
1543.00,0.0388
1542.00,0.0392
1541.00,0.0397
1540.00,0.0405
1539.00,0.0411
1538.00,0.0416
1537.00,0.0419
1536.00,0.0420
1535.00,0.0422
1534.00,0.0426
1533.00,0.0432
1532.00,0.0437
1531.00,0.0441
1530.00,0.0444
1529.00,0.0446
1528.00,0.0450
1527.00,0.0453
1526.00,0.0458
1525.00,0.0462
1524.00,0.0464
1523.00,0.0467
1522.00,0.0471
1521.00,0.0476
1520.00,0.0480
1519.00,0.0482
1518.00,0.0483
1517.00,0.0484
1516.00,0.0485
1515.00,0.0485
1514.00,0.0484
1513.00,0.0480
1512.00,0.0476
1511.00,0.0472
1510.00,0.0467
1509.00,0.0462
1508.00,0.0455
1507.00,0.0448
1506.00,0.0441
1505.00,0.0434
1504.00,0.0428
1503.00,0.0422
1502.00,0.0414
1501.00,0.0407
1500.00,0.0398
1499.00,0.0390
1498.00,0.0382
1497.00,0.0373
1496.00,0.0363
1495.00,0.0355
1494.00,0.0347
1493.00,0.0339
1492.00,0.0331
1491.00,0.0322
1490.00,0.0313
1489.00,0.0304
1488.00,0.0297
1487.00,0.0290
1486.00,0.0284
1485.00,0.0278
1484.00,0.0273
1483.00,0.0268
1482.00,0.0263
1481.00,0.0258
1480.00,0.0254
1479.00,0.0251
1478.00,0.0248
1477.00,0.0245
1476.00,0.0243
1475.00,0.0242
1474.00,0.0240
1473.00,0.0240
1472.00,0.0240
1471.00,0.0240
1470.00,0.0240
1469.00,0.0239
1468.00,0.0239
1467.00,0.0238
1466.00,0.0238
1465.00,0.0239
1464.00,0.0240
1463.00,0.0241
1462.00,0.0242
1461.00,0.0243
1460.00,0.0244
1459.00,0.0246
1458.00,0.0249
1457.00,0.0253
1456.00,0.0258
1455.00,0.0260
1454.00,0.0261
1453.00,0.0262
1452.00,0.0262
1451.00,0.0262
1450.00,0.0262
1449.00,0.0261
1448.00,0.0260
1447.00,0.0258
1446.00,0.0256
1445.00,0.0254
1444.00,0.0252
1443.00,0.0249
1442.00,0.0246
1441.00,0.0243
1440.00,0.0240
1439.00,0.0237
1438.00,0.0234
1437.00,0.0231
1436.00,0.0228
1435.00,0.0226
1434.00,0.0224
1433.00,0.0222
1432.00,0.0220
1431.00,0.0218
1430.00,0.0217
1429.00,0.0217
1428.00,0.0216
1427.00,0.0216
1426.00,0.0216
1425.00,0.0216
1424.00,0.0217
1423.00,0.0217
1422.00,0.0218
1421.00,0.0218
1420.00,0.0219
1419.00,0.0221
1418.00,0.0222
1417.00,0.0224
1416.00,0.0225
1415.00,0.0226
1414.00,0.0227
1413.00,0.0228
1412.00,0.0229
1411.00,0.0230
1410.00,0.0231
1409.00,0.0232
1408.00,0.0233
1407.00,0.0233
1406.00,0.0233
1405.00,0.0234
1404.00,0.0234
1403.00,0.0234
1402.00,0.0233
1401.00,0.0233
1400.00,0.0232
1399.00,0.0232
1398.00,0.0231
1397.00,0.0231
1396.00,0.0230
1395.00,0.0230
1394.00,0.0230
1393.00,0.0230
1392.00,0.0230
1391.00,0.0230
1390.00,0.0230
1389.00,0.0229
1388.00,0.0229
1387.00,0.0229
1386.00,0.0229
1385.00,0.0228
1384.00,0.0227
1383.00,0.0227
1382.00,0.0226
1381.00,0.0225
1380.00,0.0224
1379.00,0.0223
1378.00,0.0222
1377.00,0.0221
1376.00,0.0220
1375.00,0.0219
1374.00,0.0219
1373.00,0.0219
1372.00,0.0218
1371.00,0.0218
1370.00,0.0217
1369.00,0.0216
1368.00,0.0215
1367.00,0.0214
1366.00,0.0212
1365.00,0.0210
1364.00,0.0209
1363.00,0.0208
1362.00,0.0206
1361.00,0.0205
1360.00,0.0204
1359.00,0.0203
1358.00,0.0202
1357.00,0.0202
1356.00,0.0201
1355.00,0.0200
1354.00,0.0199
1353.00,0.0199
1352.00,0.0198
1351.00,0.0198
1350.00,0.0198
1349.00,0.0197
1348.00,0.0197
1347.00,0.0197
1346.00,0.0196
1345.00,0.0196
1344.00,0.0196
1343.00,0.0196
1342.00,0.0196
1341.00,0.0195
1340.00,0.0195
1339.00,0.0195
1338.00,0.0195
1337.00,0.0196
1336.00,0.0196
1335.00,0.0196
1334.00,0.0195
1333.00,0.0195
1332.00,0.0195
1331.00,0.0195
1330.00,0.0195
1329.00,0.0194
1328.00,0.0194
1327.00,0.0194
1326.00,0.0194
1325.00,0.0194
1324.00,0.0194
1323.00,0.0194
1322.00,0.0194
1321.00,0.0195
1320.00,0.0195
1319.00,0.0195
1318.00,0.0195
1317.00,0.0195
1316.00,0.0195
1315.00,0.0196
1314.00,0.0196
1313.00,0.0196
1312.00,0.0196
1311.00,0.0196
1310.00,0.0196
1309.00,0.0196
1308.00,0.0196
1307.00,0.0196
1306.00,0.0195
1305.00,0.0195
1304.00,0.0195
1303.00,0.0195
1302.00,0.0195
1301.00,0.0194
1300.00,0.0194
1299.00,0.0194
1298.00,0.0193
1297.00,0.0193
1296.00,0.0193
1295.00,0.0193
1294.00,0.0193
1293.00,0.0193
1292.00,0.0193
1291.00,0.0193
1290.00,0.0193
1289.00,0.0193
1288.00,0.0193
1287.00,0.0193
1286.00,0.0192
1285.00,0.0192
1284.00,0.0192
1283.00,0.0192
1282.00,0.0192
1281.00,0.0191
1280.00,0.0191
1279.00,0.0190
1278.00,0.0190
1277.00,0.0190
1276.00,0.0190
1275.00,0.0190
1274.00,0.0190
1273.00,0.0190
1272.00,0.0190
1271.00,0.0190
1270.00,0.0191
1269.00,0.0191
1268.00,0.0192
1267.00,0.0192
1266.00,0.0193
1265.00,0.0194
1264.00,0.0195
1263.00,0.0196
1262.00,0.0197
1261.00,0.0198
1260.00,0.0200
1259.00,0.0202
1258.00,0.0203
1257.00,0.0205
1256.00,0.0207
1255.00,0.0209
1254.00,0.0211
1253.00,0.0212
1252.00,0.0214
1251.00,0.0216
1250.00,0.0217
1249.00,0.0219
1248.00,0.0221
1247.00,0.0222
1246.00,0.0223
1245.00,0.0225
1244.00,0.0226
1243.00,0.0226
1242.00,0.0227
1241.00,0.0228
1240.00,0.0228
1239.00,0.0229
1238.00,0.0229
1237.00,0.0229
1236.00,0.0229
1235.00,0.0229
1234.00,0.0229
1233.00,0.0228
1232.00,0.0228
1231.00,0.0228
1230.00,0.0227
1229.00,0.0226
1228.00,0.0226
1227.00,0.0225
1226.00,0.0224
1225.00,0.0224
1224.00,0.0223
1223.00,0.0222
1222.00,0.0220
1221.00,0.0219
1220.00,0.0218
1219.00,0.0217
1218.00,0.0215
1217.00,0.0214
1216.00,0.0212
1215.00,0.0210
1214.00,0.0209
1213.00,0.0207
1212.00,0.0205
1211.00,0.0203
1210.00,0.0201
1209.00,0.0199
1208.00,0.0196
1207.00,0.0194
1206.00,0.0192
1205.00,0.0189
1204.00,0.0187
1203.00,0.0185
1202.00,0.0182
1201.00,0.0180
1200.00,0.0178
1199.00,0.0176
1198.00,0.0174
1197.00,0.0173
1196.00,0.0171
1195.00,0.0170
1194.00,0.0168
1193.00,0.0167
1192.00,0.0166
1191.00,0.0165
1190.00,0.0164
1189.00,0.0163
1188.00,0.0162
1187.00,0.0161
1186.00,0.0160
1185.00,0.0160
1184.00,0.0160
1183.00,0.0159
1182.00,0.0160
1181.00,0.0160
1180.00,0.0160
1179.00,0.0161
1178.00,0.0162
1177.00,0.0163
1176.00,0.0164
1175.00,0.0165
1174.00,0.0167
1173.00,0.0168
1172.00,0.0169
1171.00,0.0171
1170.00,0.0172
1169.00,0.0173
1168.00,0.0174
1167.00,0.0175
1166.00,0.0176
1165.00,0.0177
1164.00,0.0177
1163.00,0.0178
1162.00,0.0178
1161.00,0.0178
1160.00,0.0178
1159.00,0.0178
1158.00,0.0178
1157.00,0.0178
1156.00,0.0177
1155.00,0.0176
1154.00,0.0175
1153.00,0.0174
1152.00,0.0172
1151.00,0.0171
1150.00,0.0170
1149.00,0.0169
1148.00,0.0167
1147.00,0.0166
1146.00,0.0165
1145.00,0.0164
1144.00,0.0163
1143.00,0.0162
1142.00,0.0161
1141.00,0.0161
1140.00,0.0161
1139.00,0.0160
1138.00,0.0160
1137.00,0.0160
1136.00,0.0160
1135.00,0.0160
1134.00,0.0160
1133.00,0.0161
1132.00,0.0161
1131.00,0.0161
1130.00,0.0161
1129.00,0.0161
1128.00,0.0162
1127.00,0.0161
1126.00,0.0161
1125.00,0.0161
1124.00,0.0160
1123.00,0.0159
1122.00,0.0159
1121.00,0.0158
1120.00,0.0157
1119.00,0.0157
1118.00,0.0156
1117.00,0.0155
1116.00,0.0155
1115.00,0.0154
1114.00,0.0153
1113.00,0.0153
1112.00,0.0153
1111.00,0.0152
1110.00,0.0152
1109.00,0.0152
1108.00,0.0152
1107.00,0.0152
1106.00,0.0152
1105.00,0.0152
1104.00,0.0152
1103.00,0.0152
1102.00,0.0153
1101.00,0.0153
1100.00,0.0153
1099.00,0.0154
1098.00,0.0155
1097.00,0.0156
1096.00,0.0157
1095.00,0.0159
1094.00,0.0160
1093.00,0.0162
1092.00,0.0164
1091.00,0.0167
1090.00,0.0169
1089.00,0.0172
1088.00,0.0175
1087.00,0.0179
1086.00,0.0182
1085.00,0.0186
1084.00,0.0190
1083.00,0.0194
1082.00,0.0197
1081.00,0.0201
1080.00,0.0204
1079.00,0.0207
1078.00,0.0210
1077.00,0.0213
1076.00,0.0215
1075.00,0.0217
1074.00,0.0219
1073.00,0.0221
1072.00,0.0222
1071.00,0.0223
1070.00,0.0223
1069.00,0.0224
1068.00,0.0225
1067.00,0.0225
1066.00,0.0226
1065.00,0.0226
1064.00,0.0226
1063.00,0.0226
1062.00,0.0226
1061.00,0.0226
1060.00,0.0225
1059.00,0.0225
1058.00,0.0224
1057.00,0.0223
1056.00,0.0221
1055.00,0.0220
1054.00,0.0219
1053.00,0.0218
1052.00,0.0217
1051.00,0.0215
1050.00,0.0214
1049.00,0.0212
1048.00,0.0210
1047.00,0.0208
1046.00,0.0206
1045.00,0.0204
1044.00,0.0201
1043.00,0.0199
1042.00,0.0196
1041.00,0.0193
1040.00,0.0191
1039.00,0.0188
1038.00,0.0186
1037.00,0.0184
1036.00,0.0181
1035.00,0.0179
1034.00,0.0177
1033.00,0.0175
1032.00,0.0173
1031.00,0.0171
1030.00,0.0169
1029.00,0.0167
1028.00,0.0164
1027.00,0.0162
1026.00,0.0160
1025.00,0.0157
1024.00,0.0155
1023.00,0.0153
1022.00,0.0151
1021.00,0.0149
1020.00,0.0147
1019.00,0.0146
1018.00,0.0144
1017.00,0.0142
1016.00,0.0141
1015.00,0.0139
1014.00,0.0137
1013.00,0.0136
1012.00,0.0134
1011.00,0.0133
1010.00,0.0132
1009.00,0.0130
1008.00,0.0129
1007.00,0.0128
1006.00,0.0127
1005.00,0.0126
1004.00,0.0126
1003.00,0.0125
1002.00,0.0124
1001.00,0.0123
1000.00,0.0123
999.00,0.0122
998.00,0.0122
997.00,0.0122
996.00,0.0121
995.00,0.0121
994.00,0.0120
993.00,0.0120
992.00,0.0119
991.00,0.0119
990.00,0.0118
989.00,0.0118
988.00,0.0117
987.00,0.0117
986.00,0.0117
985.00,0.0116
984.00,0.0116
983.00,0.0116
982.00,0.0115
981.00,0.0115
980.00,0.0115
979.00,0.0115
978.00,0.0116
977.00,0.0116
976.00,0.0116
975.00,0.0116
974.00,0.0117
973.00,0.0117
972.00,0.0117
971.00,0.0118
970.00,0.0119
969.00,0.0119
968.00,0.0120
967.00,0.0122
966.00,0.0123
965.00,0.0124
964.00,0.0125
963.00,0.0126
962.00,0.0126
961.00,0.0126
960.00,0.0126
959.00,0.0126
958.00,0.0126
957.00,0.0125
956.00,0.0125
955.00,0.0124
954.00,0.0123
953.00,0.0123
952.00,0.0122
951.00,0.0122
950.00,0.0122
949.00,0.0121
948.00,0.0121
947.00,0.0121
946.00,0.0120
945.00,0.0120
944.00,0.0120
943.00,0.0120
942.00,0.0120
941.00,0.0119
940.00,0.0119
939.00,0.0119
938.00,0.0120
937.00,0.0120
936.00,0.0120
935.00,0.0120
934.00,0.0120
933.00,0.0120
932.00,0.0120
931.00,0.0120
930.00,0.0120
929.00,0.0120
928.00,0.0120
927.00,0.0119
926.00,0.0119
925.00,0.0119
924.00,0.0118
923.00,0.0118
922.00,0.0117
921.00,0.0117
920.00,0.0116
919.00,0.0116
918.00,0.0115
917.00,0.0115
916.00,0.0114
915.00,0.0114
914.00,0.0114
913.00,0.0114
912.00,0.0115
911.00,0.0115
910.00,0.0116
909.00,0.0116
908.00,0.0116
907.00,0.0117
906.00,0.0117
905.00,0.0118
904.00,0.0118
903.00,0.0118
902.00,0.0119
901.00,0.0119
900.00,0.0119
899.00,0.0119
898.00,0.0118
897.00,0.0118
896.00,0.0118
895.00,0.0117
894.00,0.0117
893.00,0.0116
892.00,0.0116
891.00,0.0115
890.00,0.0115
889.00,0.0114
888.00,0.0113
887.00,0.0113
886.00,0.0112
885.00,0.0112
884.00,0.0112
883.00,0.0112
882.00,0.0112
881.00,0.0111
880.00,0.0111
879.00,0.0111
878.00,0.0111
877.00,0.0111
876.00,0.0111
875.00,0.0111
874.00,0.0111
873.00,0.0111
872.00,0.0111
871.00,0.0111
870.00,0.0111
869.00,0.0111
868.00,0.0111
867.00,0.0110
866.00,0.0110
865.00,0.0110
864.00,0.0110
863.00,0.0110
862.00,0.0110
861.00,0.0110
860.00,0.0110
859.00,0.0111
858.00,0.0111
857.00,0.0111
856.00,0.0111
855.00,0.0112
854.00,0.0112
853.00,0.0113
852.00,0.0113
851.00,0.0113
850.00,0.0114
849.00,0.0114
848.00,0.0114
847.00,0.0115
846.00,0.0115
845.00,0.0116
844.00,0.0116
843.00,0.0117
842.00,0.0118
841.00,0.0119
840.00,0.0120
839.00,0.0120
838.00,0.0121
837.00,0.0122
836.00,0.0123
835.00,0.0124
834.00,0.0126
833.00,0.0127
832.00,0.0128
831.00,0.0129
830.00,0.0131
829.00,0.0132
828.00,0.0133
827.00,0.0134
826.00,0.0135
825.00,0.0136
824.00,0.0137
823.00,0.0137
822.00,0.0138
821.00,0.0139
820.00,0.0139
819.00,0.0140
818.00,0.0141
817.00,0.0142
816.00,0.0143
815.00,0.0144
814.00,0.0145
813.00,0.0146
812.00,0.0147
811.00,0.0148
810.00,0.0149
809.00,0.0150
808.00,0.0150
807.00,0.0151
806.00,0.0152
805.00,0.0153
804.00,0.0154
803.00,0.0155
802.00,0.0156
801.00,0.0157
800.00,0.0157
799.00,0.0158
798.00,0.0159
797.00,0.0159
796.00,0.0161
795.00,0.0162
794.00,0.0163
793.00,0.0164
792.00,0.0166
791.00,0.0167
790.00,0.0169
789.00,0.0170
788.00,0.0172
787.00,0.0173
786.00,0.0175
785.00,0.0176
784.00,0.0177
783.00,0.0179
782.00,0.0180
781.00,0.0182
780.00,0.0184
779.00,0.0185
778.00,0.0187
777.00,0.0188
776.00,0.0189
775.00,0.0191
774.00,0.0192
773.00,0.0193
772.00,0.0194
771.00,0.0195
770.00,0.0196
769.00,0.0197
768.00,0.0198
767.00,0.0199
766.00,0.0199
765.00,0.0200
764.00,0.0201
763.00,0.0201
762.00,0.0202
761.00,0.0203
760.00,0.0203
759.00,0.0204
758.00,0.0205
757.00,0.0206
756.00,0.0207
755.00,0.0208
754.00,0.0209
753.00,0.0211
752.00,0.0212
751.00,0.0214
750.00,0.0215
749.00,0.0216
748.00,0.0217
747.00,0.0218
746.00,0.0219
745.00,0.0219
744.00,0.0220
743.00,0.0221
742.00,0.0221
741.00,0.0222
740.00,0.0223
739.00,0.0224
738.00,0.0225
737.00,0.0226
736.00,0.0227
735.00,0.0229
734.00,0.0230
733.00,0.0232
732.00,0.0235
731.00,0.0237
730.00,0.0239
729.00,0.0242
728.00,0.0245
727.00,0.0248
726.00,0.0251
725.00,0.0254
724.00,0.0258
723.00,0.0261
722.00,0.0265
721.00,0.0268
720.00,0.0272
719.00,0.0276
718.00,0.0280
717.00,0.0284
716.00,0.0288
715.00,0.0292
714.00,0.0296
713.00,0.0300
712.00,0.0303
711.00,0.0307
710.00,0.0311
709.00,0.0314
708.00,0.0318
707.00,0.0321
706.00,0.0325
705.00,0.0328
704.00,0.0331
703.00,0.0334
702.00,0.0336
701.00,0.0338
700.00,0.0339
699.00,0.0340
698.00,0.0341
697.00,0.0341
696.00,0.0341
695.00,0.0341
694.00,0.0340
693.00,0.0340
692.00,0.0341
691.00,0.0341
690.00,0.0341
689.00,0.0342
688.00,0.0342
687.00,0.0343
686.00,0.0344
685.00,0.0344
684.00,0.0344
683.00,0.0345
682.00,0.0345
681.00,0.0345
680.00,0.0346
679.00,0.0346
678.00,0.0346
677.00,0.0347
676.00,0.0347
675.00,0.0348
674.00,0.0348
673.00,0.0349
672.00,0.0349
671.00,0.0350
670.00,0.0350
669.00,0.0352
668.00,0.0354
667.00,0.0355
666.00,0.0355
665.00,0.0353
664.00,0.0353
663.00,0.0353
662.00,0.0353
661.00,0.0353
660.00,0.0354
659.00,0.0355
658.00,0.0356
657.00,0.0356
656.00,0.0357
655.00,0.0358
654.00,0.0359
653.00,0.0360
652.00,0.0361
651.00,0.0361
650.00,0.0362
649.00,0.0363
648.00,0.0364
647.00,0.0366
646.00,0.0367
645.00,0.0368
644.00,0.0369
643.00,0.0370
642.00,0.0372
641.00,0.0373
640.00,0.0375
639.00,0.0376
638.00,0.0377
637.00,0.0378
636.00,0.0379
635.00,0.0380
634.00,0.0381
633.00,0.0382
632.00,0.0383
631.00,0.0384
630.00,0.0385
629.00,0.0386
628.00,0.0387
627.00,0.0387
626.00,0.0387
625.00,0.0387
624.00,0.0388
623.00,0.0388
622.00,0.0388
621.00,0.0387
620.00,0.0387
619.00,0.0386
618.00,0.0385
617.00,0.0384
616.00,0.0383
615.00,0.0381
614.00,0.0380
613.00,0.0379
612.00,0.0378
611.00,0.0378
610.00,0.0376
609.00,0.0376
608.00,0.0375
607.00,0.0375
606.00,0.0375
605.00,0.0375
604.00,0.0375
603.00,0.0375
602.00,0.0374
601.00,0.0374
600.00,0.0374
599.00,0.0374
598.00,0.0373
597.00,0.0373
596.00,0.0373
595.00,0.0373
594.00,0.0374
593.00,0.0374
592.00,0.0374
591.00,0.0374
590.00,0.0374
589.00,0.0374
588.00,0.0374
587.00,0.0374
586.00,0.0375
585.00,0.0375
584.00,0.0376
583.00,0.0376
582.00,0.0377
581.00,0.0377
580.00,0.0378
579.00,0.0378
578.00,0.0379
577.00,0.0379
576.00,0.0380
575.00,0.0380
574.00,0.0381
573.00,0.0380
572.00,0.0380
571.00,0.0380
570.00,0.0380
569.00,0.0380
568.00,0.0381
567.00,0.0382
566.00,0.0382
565.00,0.0382
564.00,0.0383
563.00,0.0384
562.00,0.0385
561.00,0.0386
560.00,0.0386
559.00,0.0386
558.00,0.0386
557.00,0.0386
556.00,0.0386
555.00,0.0386
554.00,0.0386
553.00,0.0386
552.00,0.0386
551.00,0.0386
550.00,0.0386
549.00,0.0387
548.00,0.0387
547.00,0.0387
546.00,0.0387
545.00,0.0387
544.00,0.0387
543.00,0.0387
542.00,0.0387
541.00,0.0387
540.00,0.0387
539.00,0.0387
538.00,0.0387
537.00,0.0387
536.00,0.0387
535.00,0.0387
534.00,0.0387
533.00,0.0387
532.00,0.0388
531.00,0.0388
530.00,0.0389
529.00,0.0389
528.00,0.0389
527.00,0.0388
526.00,0.0388
525.00,0.0388
524.00,0.0389
523.00,0.0389
522.00,0.0389
521.00,0.0390
520.00,0.0391
519.00,0.0391
518.00,0.0392
517.00,0.0391
516.00,0.0391
515.00,0.0390
514.00,0.0389
513.00,0.0388
512.00,0.0387
511.00,0.0386
510.00,0.0386
509.00,0.0385
508.00,0.0386
507.00,0.0386
506.00,0.0386
505.00,0.0386
504.00,0.0385
503.00,0.0385
502.00,0.0384
501.00,0.0385
500.00,0.0385
499.00,0.0385
498.00,0.0385
497.00,0.0384
496.00,0.0384
495.00,0.0383
494.00,0.0382
493.00,0.0381
492.00,0.0381
491.00,0.0381
490.00,0.0381
489.00,0.0381
488.00,0.0381
487.00,0.0381
486.00,0.0380
485.00,0.0379
484.00,0.0380
483.00,0.0381
482.00,0.0381
481.00,0.0381
480.00,0.0381
479.00,0.0381
478.00,0.0381
477.00,0.0379
476.00,0.0378
475.00,0.0377
474.00,0.0377
473.00,0.0377
472.00,0.0378
471.00,0.0378
470.00,0.0378
469.00,0.0378
468.00,0.0379
467.00,0.0379
466.00,0.0379
465.00,0.0379
464.00,0.0380
463.00,0.0380
462.00,0.0379
461.00,0.0378
460.00,0.0377
459.00,0.0376
458.00,0.0376
457.00,0.0377
456.00,0.0376
455.00,0.0375
454.00,0.0374
453.00,0.0373
452.00,0.0373
451.00,0.0373
450.00,0.0373
449.00,0.0372
448.00,0.0371
447.00,0.0370
446.00,0.0368
445.00,0.0365
444.00,0.0362
443.00,0.0360
442.00,0.0359
441.00,0.0359
440.00,0.0360
439.00,0.0360
438.00,0.0359
437.00,0.0358
436.00,0.0356
435.00,0.0354
434.00,0.0352
433.00,0.0349
432.00,0.0346
431.00,0.0342
430.00,0.0339
429.00,0.0337
428.00,0.0337
427.00,0.0337
426.00,0.0337
425.00,0.0336
424.00,0.0336
423.00,0.0336
422.00,0.0335
421.00,0.0333
420.00,0.0333
419.00,0.0333
418.00,0.0332
417.00,0.0329
416.00,0.0327
415.00,0.0324
414.00,0.0322
413.00,0.0319
412.00,0.0317
411.00,0.0315
410.00,0.0315
409.00,0.0316
408.00,0.0319
407.00,0.0321
406.00,0.0320
405.00,0.0317
404.00,0.0314
403.00,0.0309
402.00,0.0302
401.00,0.0294
400.00,0.0286
