Created as New Dataset,Sample 324 By YargerLab Date Monday, August 19 2024
cm-1,A
4000.00,0.0118
3999.00,0.0118
3998.00,0.0118
3997.00,0.0118
3996.00,0.0118
3995.00,0.0118
3994.00,0.0118
3993.00,0.0118
3992.00,0.0117
3991.00,0.0117
3990.00,0.0117
3989.00,0.0117
3988.00,0.0118
3987.00,0.0118
3986.00,0.0118
3985.00,0.0118
3984.00,0.0118
3983.00,0.0118
3982.00,0.0118
3981.00,0.0118
3980.00,0.0118
3979.00,0.0118
3978.00,0.0118
3977.00,0.0118
3976.00,0.0117
3975.00,0.0117
3974.00,0.0117
3973.00,0.0117
3972.00,0.0117
3971.00,0.0117
3970.00,0.0117
3969.00,0.0117
3968.00,0.0117
3967.00,0.0117
3966.00,0.0117
3965.00,0.0117
3964.00,0.0117
3963.00,0.0117
3962.00,0.0117
3961.00,0.0117
3960.00,0.0117
3959.00,0.0117
3958.00,0.0117
3957.00,0.0117
3956.00,0.0117
3955.00,0.0117
3954.00,0.0117
3953.00,0.0117
3952.00,0.0117
3951.00,0.0117
3950.00,0.0117
3949.00,0.0117
3948.00,0.0117
3947.00,0.0117
3946.00,0.0117
3945.00,0.0117
3944.00,0.0117
3943.00,0.0116
3942.00,0.0116
3941.00,0.0116
3940.00,0.0117
3939.00,0.0116
3938.00,0.0116
3937.00,0.0116
3936.00,0.0116
3935.00,0.0116
3934.00,0.0116
3933.00,0.0117
3932.00,0.0117
3931.00,0.0116
3930.00,0.0116
3929.00,0.0116
3928.00,0.0116
3927.00,0.0116
3926.00,0.0116
3925.00,0.0116
3924.00,0.0116
3923.00,0.0116
3922.00,0.0116
3921.00,0.0116
3920.00,0.0116
3919.00,0.0116
3918.00,0.0116
3917.00,0.0116
3916.00,0.0116
3915.00,0.0116
3914.00,0.0116
3913.00,0.0116
3912.00,0.0116
3911.00,0.0116
3910.00,0.0116
3909.00,0.0115
3908.00,0.0115
3907.00,0.0115
3906.00,0.0115
3905.00,0.0115
3904.00,0.0115
3903.00,0.0116
3902.00,0.0115
3901.00,0.0115
3900.00,0.0115
3899.00,0.0115
3898.00,0.0115
3897.00,0.0115
3896.00,0.0115
3895.00,0.0115
3894.00,0.0115
3893.00,0.0115
3892.00,0.0115
3891.00,0.0115
3890.00,0.0115
3889.00,0.0115
3888.00,0.0115
3887.00,0.0115
3886.00,0.0115
3885.00,0.0115
3884.00,0.0114
3883.00,0.0114
3882.00,0.0114
3881.00,0.0114
3880.00,0.0114
3879.00,0.0115
3878.00,0.0115
3877.00,0.0114
3876.00,0.0114
3875.00,0.0114
3874.00,0.0114
3873.00,0.0114
3872.00,0.0114
3871.00,0.0113
3870.00,0.0113
3869.00,0.0113
3868.00,0.0113
3867.00,0.0113
3866.00,0.0113
3865.00,0.0113
3864.00,0.0113
3863.00,0.0113
3862.00,0.0113
3861.00,0.0114
3860.00,0.0114
3859.00,0.0114
3858.00,0.0114
3857.00,0.0113
3856.00,0.0113
3855.00,0.0113
3854.00,0.0113
3853.00,0.0113
3852.00,0.0112
3851.00,0.0112
3850.00,0.0112
3849.00,0.0112
3848.00,0.0113
3847.00,0.0113
3846.00,0.0113
3845.00,0.0113
3844.00,0.0113
3843.00,0.0113
3842.00,0.0113
3841.00,0.0113
3840.00,0.0113
3839.00,0.0113
3838.00,0.0112
3837.00,0.0112
3836.00,0.0112
3835.00,0.0112
3834.00,0.0112
3833.00,0.0112
3832.00,0.0112
3831.00,0.0112
3830.00,0.0112
3829.00,0.0112
3828.00,0.0112
3827.00,0.0112
3826.00,0.0112
3825.00,0.0112
3824.00,0.0112
3823.00,0.0112
3822.00,0.0112
3821.00,0.0112
3820.00,0.0112
3819.00,0.0111
3818.00,0.0111
3817.00,0.0111
3816.00,0.0111
3815.00,0.0111
3814.00,0.0111
3813.00,0.0111
3812.00,0.0111
3811.00,0.0112
3810.00,0.0112
3809.00,0.0111
3808.00,0.0111
3807.00,0.0111
3806.00,0.0111
3805.00,0.0111
3804.00,0.0111
3803.00,0.0111
3802.00,0.0111
3801.00,0.0111
3800.00,0.0111
3799.00,0.0111
3798.00,0.0111
3797.00,0.0111
3796.00,0.0111
3795.00,0.0111
3794.00,0.0111
3793.00,0.0110
3792.00,0.0110
3791.00,0.0110
3790.00,0.0110
3789.00,0.0110
3788.00,0.0110
3787.00,0.0110
3786.00,0.0110
3785.00,0.0110
3784.00,0.0110
3783.00,0.0110
3782.00,0.0110
3781.00,0.0110
3780.00,0.0110
3779.00,0.0110
3778.00,0.0110
3777.00,0.0110
3776.00,0.0110
3775.00,0.0110
3774.00,0.0110
3773.00,0.0110
3772.00,0.0110
3771.00,0.0110
3770.00,0.0110
3769.00,0.0110
3768.00,0.0109
3767.00,0.0109
3766.00,0.0109
3765.00,0.0109
3764.00,0.0109
3763.00,0.0109
3762.00,0.0109
3761.00,0.0109
3760.00,0.0109
3759.00,0.0109
3758.00,0.0109
3757.00,0.0109
3756.00,0.0109
3755.00,0.0109
3754.00,0.0108
3753.00,0.0108
3752.00,0.0108
3751.00,0.0108
3750.00,0.0108
3749.00,0.0108
3748.00,0.0108
3747.00,0.0107
3746.00,0.0107
3745.00,0.0107
3744.00,0.0108
3743.00,0.0108
3742.00,0.0107
3741.00,0.0107
3740.00,0.0107
3739.00,0.0107
3738.00,0.0107
3737.00,0.0107
3736.00,0.0107
3735.00,0.0107
3734.00,0.0106
3733.00,0.0106
3732.00,0.0106
3731.00,0.0106
3730.00,0.0106
3729.00,0.0106
3728.00,0.0106
3727.00,0.0106
3726.00,0.0106
3725.00,0.0106
3724.00,0.0106
3723.00,0.0106
3722.00,0.0106
3721.00,0.0106
3720.00,0.0106
3719.00,0.0106
3718.00,0.0106
3717.00,0.0106
3716.00,0.0106
3715.00,0.0105
3714.00,0.0105
3713.00,0.0105
3712.00,0.0105
3711.00,0.0104
3710.00,0.0104
3709.00,0.0104
3708.00,0.0104
3707.00,0.0104
3706.00,0.0104
3705.00,0.0104
3704.00,0.0104
3703.00,0.0104
3702.00,0.0104
3701.00,0.0104
3700.00,0.0104
3699.00,0.0104
3698.00,0.0104
3697.00,0.0104
3696.00,0.0104
3695.00,0.0104
3694.00,0.0104
3693.00,0.0104
3692.00,0.0104
3691.00,0.0103
3690.00,0.0103
3689.00,0.0103
3688.00,0.0103
3687.00,0.0103
3686.00,0.0103
3685.00,0.0103
3684.00,0.0103
3683.00,0.0103
3682.00,0.0103
3681.00,0.0103
3680.00,0.0103
3679.00,0.0103
3678.00,0.0103
3677.00,0.0103
3676.00,0.0103
3675.00,0.0103
3674.00,0.0103
3673.00,0.0103
3672.00,0.0103
3671.00,0.0103
3670.00,0.0103
3669.00,0.0103
3668.00,0.0103
3667.00,0.0103
3666.00,0.0103
3665.00,0.0104
3664.00,0.0104
3663.00,0.0104
3662.00,0.0104
3661.00,0.0105
3660.00,0.0105
3659.00,0.0105
3658.00,0.0105
3657.00,0.0105
3656.00,0.0105
3655.00,0.0105
3654.00,0.0105
3653.00,0.0105
3652.00,0.0105
3651.00,0.0105
3650.00,0.0105
3649.00,0.0106
3648.00,0.0106
3647.00,0.0106
3646.00,0.0106
3645.00,0.0106
3644.00,0.0106
3643.00,0.0106
3642.00,0.0107
3641.00,0.0107
3640.00,0.0107
3639.00,0.0107
3638.00,0.0108
3637.00,0.0108
3636.00,0.0108
3635.00,0.0108
3634.00,0.0108
3633.00,0.0109
3632.00,0.0109
3631.00,0.0109
3630.00,0.0109
3629.00,0.0109
3628.00,0.0109
3627.00,0.0109
3626.00,0.0109
3625.00,0.0110
3624.00,0.0110
3623.00,0.0110
3622.00,0.0111
3621.00,0.0111
3620.00,0.0111
3619.00,0.0111
3618.00,0.0111
3617.00,0.0112
3616.00,0.0112
3615.00,0.0112
3614.00,0.0113
3613.00,0.0113
3612.00,0.0114
3611.00,0.0114
3610.00,0.0114
3609.00,0.0114
3608.00,0.0114
3607.00,0.0115
3606.00,0.0115
3605.00,0.0115
3604.00,0.0116
3603.00,0.0116
3602.00,0.0116
3601.00,0.0117
3600.00,0.0117
3599.00,0.0117
3598.00,0.0117
3597.00,0.0118
3596.00,0.0118
3595.00,0.0118
3594.00,0.0119
3593.00,0.0119
3592.00,0.0120
3591.00,0.0120
3590.00,0.0120
3589.00,0.0120
3588.00,0.0120
3587.00,0.0121
3586.00,0.0121
3585.00,0.0122
3584.00,0.0122
3583.00,0.0123
3582.00,0.0123
3581.00,0.0123
3580.00,0.0123
3579.00,0.0124
3578.00,0.0124
3577.00,0.0124
3576.00,0.0125
3575.00,0.0125
3574.00,0.0126
3573.00,0.0126
3572.00,0.0126
3571.00,0.0127
3570.00,0.0127
3569.00,0.0127
3568.00,0.0128
3567.00,0.0128
3566.00,0.0129
3565.00,0.0129
3564.00,0.0130
3563.00,0.0130
3562.00,0.0131
3561.00,0.0131
3560.00,0.0132
3559.00,0.0132
3558.00,0.0133
3557.00,0.0133
3556.00,0.0134
3555.00,0.0134
3554.00,0.0134
3553.00,0.0135
3552.00,0.0135
3551.00,0.0136
3550.00,0.0136
3549.00,0.0137
3548.00,0.0137
3547.00,0.0138
3546.00,0.0138
3545.00,0.0139
3544.00,0.0139
3543.00,0.0140
3542.00,0.0140
3541.00,0.0141
3540.00,0.0141
3539.00,0.0141
3538.00,0.0142
3537.00,0.0142
3536.00,0.0143
3535.00,0.0143
3534.00,0.0144
3533.00,0.0144
3532.00,0.0145
3531.00,0.0145
3530.00,0.0145
3529.00,0.0146
3528.00,0.0146
3527.00,0.0147
3526.00,0.0147
3525.00,0.0148
3524.00,0.0148
3523.00,0.0149
3522.00,0.0149
3521.00,0.0150
3520.00,0.0150
3519.00,0.0151
3518.00,0.0151
3517.00,0.0152
3516.00,0.0152
3515.00,0.0153
3514.00,0.0153
3513.00,0.0154
3512.00,0.0154
3511.00,0.0154
3510.00,0.0155
3509.00,0.0155
3508.00,0.0156
3507.00,0.0156
3506.00,0.0157
3505.00,0.0157
3504.00,0.0158
3503.00,0.0158
3502.00,0.0159
3501.00,0.0159
3500.00,0.0160
3499.00,0.0160
3498.00,0.0161
3497.00,0.0161
3496.00,0.0162
3495.00,0.0162
3494.00,0.0163
3493.00,0.0163
3492.00,0.0164
3491.00,0.0164
3490.00,0.0165
3489.00,0.0165
3488.00,0.0166
3487.00,0.0166
3486.00,0.0167
3485.00,0.0167
3484.00,0.0168
3483.00,0.0168
3482.00,0.0169
3481.00,0.0169
3480.00,0.0170
3479.00,0.0170
3478.00,0.0171
3477.00,0.0171
3476.00,0.0172
3475.00,0.0172
3474.00,0.0173
3473.00,0.0173
3472.00,0.0174
3471.00,0.0175
3470.00,0.0175
3469.00,0.0176
3468.00,0.0176
3467.00,0.0177
3466.00,0.0177
3465.00,0.0177
3464.00,0.0178
3463.00,0.0178
3462.00,0.0179
3461.00,0.0180
3460.00,0.0180
3459.00,0.0181
3458.00,0.0181
3457.00,0.0182
3456.00,0.0182
3455.00,0.0183
3454.00,0.0183
3453.00,0.0184
3452.00,0.0184
3451.00,0.0185
3450.00,0.0185
3449.00,0.0186
3448.00,0.0186
3447.00,0.0187
3446.00,0.0187
3445.00,0.0187
3444.00,0.0188
3443.00,0.0189
3442.00,0.0189
3441.00,0.0190
3440.00,0.0191
3439.00,0.0191
3438.00,0.0192
3437.00,0.0192
3436.00,0.0193
3435.00,0.0193
3434.00,0.0194
3433.00,0.0194
3432.00,0.0195
3431.00,0.0195
3430.00,0.0196
3429.00,0.0196
3428.00,0.0197
3427.00,0.0197
3426.00,0.0198
3425.00,0.0198
3424.00,0.0199
3423.00,0.0199
3422.00,0.0200
3421.00,0.0200
3420.00,0.0201
3419.00,0.0202
3418.00,0.0202
3417.00,0.0203
3416.00,0.0203
3415.00,0.0204
3414.00,0.0204
3413.00,0.0205
3412.00,0.0205
3411.00,0.0206
3410.00,0.0207
3409.00,0.0207
3408.00,0.0207
3407.00,0.0208
3406.00,0.0208
3405.00,0.0209
3404.00,0.0209
3403.00,0.0210
3402.00,0.0211
3401.00,0.0211
3400.00,0.0212
3399.00,0.0212
3398.00,0.0212
3397.00,0.0213
3396.00,0.0213
3395.00,0.0214
3394.00,0.0214
3393.00,0.0215
3392.00,0.0215
3391.00,0.0216
3390.00,0.0216
3389.00,0.0217
3388.00,0.0217
3387.00,0.0218
3386.00,0.0218
3385.00,0.0219
3384.00,0.0219
3383.00,0.0220
3382.00,0.0220
3381.00,0.0221
3380.00,0.0221
3379.00,0.0222
3378.00,0.0223
3377.00,0.0223
3376.00,0.0224
3375.00,0.0224
3374.00,0.0225
3373.00,0.0226
3372.00,0.0226
3371.00,0.0227
3370.00,0.0228
3369.00,0.0228
3368.00,0.0229
3367.00,0.0230
3366.00,0.0230
3365.00,0.0231
3364.00,0.0232
3363.00,0.0233
3362.00,0.0234
3361.00,0.0234
3360.00,0.0235
3359.00,0.0236
3358.00,0.0236
3357.00,0.0237
3356.00,0.0238
3355.00,0.0239
3354.00,0.0240
3353.00,0.0240
3352.00,0.0241
3351.00,0.0242
3350.00,0.0243
3349.00,0.0244
3348.00,0.0245
3347.00,0.0246
3346.00,0.0247
3345.00,0.0248
3344.00,0.0249
3343.00,0.0250
3342.00,0.0251
3341.00,0.0252
3340.00,0.0253
3339.00,0.0254
3338.00,0.0255
3337.00,0.0256
3336.00,0.0258
3335.00,0.0259
3334.00,0.0260
3333.00,0.0261
3332.00,0.0263
3331.00,0.0264
3330.00,0.0265
3329.00,0.0266
3328.00,0.0268
3327.00,0.0269
3326.00,0.0270
3325.00,0.0272
3324.00,0.0273
3323.00,0.0275
3322.00,0.0277
3321.00,0.0278
3320.00,0.0280
3319.00,0.0281
3318.00,0.0283
3317.00,0.0285
3316.00,0.0287
3315.00,0.0289
3314.00,0.0290
3313.00,0.0292
3312.00,0.0294
3311.00,0.0295
3310.00,0.0297
3309.00,0.0299
3308.00,0.0301
3307.00,0.0303
3306.00,0.0305
3305.00,0.0307
3304.00,0.0310
3303.00,0.0312
3302.00,0.0314
3301.00,0.0316
3300.00,0.0318
3299.00,0.0320
3298.00,0.0322
3297.00,0.0324
3296.00,0.0327
3295.00,0.0329
3294.00,0.0331
3293.00,0.0333
3292.00,0.0335
3291.00,0.0337
3290.00,0.0340
3289.00,0.0342
3288.00,0.0344
3287.00,0.0346
3286.00,0.0347
3285.00,0.0349
3284.00,0.0351
3283.00,0.0352
3282.00,0.0354
3281.00,0.0355
3280.00,0.0356
3279.00,0.0357
3278.00,0.0358
3277.00,0.0359
3276.00,0.0360
3275.00,0.0360
3274.00,0.0360
3273.00,0.0360
3272.00,0.0360
3271.00,0.0360
3270.00,0.0360
3269.00,0.0360
3268.00,0.0360
3267.00,0.0359
3266.00,0.0358
3265.00,0.0357
3264.00,0.0356
3263.00,0.0355
3262.00,0.0353
3261.00,0.0352
3260.00,0.0350
3259.00,0.0348
3258.00,0.0347
3257.00,0.0345
3256.00,0.0343
3255.00,0.0342
3254.00,0.0340
3253.00,0.0338
3252.00,0.0336
3251.00,0.0334
3250.00,0.0332
3249.00,0.0330
3248.00,0.0328
3247.00,0.0327
3246.00,0.0325
3245.00,0.0324
3244.00,0.0322
3243.00,0.0320
3242.00,0.0319
3241.00,0.0317
3240.00,0.0316
3239.00,0.0314
3238.00,0.0312
3237.00,0.0311
3236.00,0.0309
3235.00,0.0307
3234.00,0.0306
3233.00,0.0305
3232.00,0.0304
3231.00,0.0303
3230.00,0.0302
3229.00,0.0301
3228.00,0.0300
3227.00,0.0298
3226.00,0.0297
3225.00,0.0296
3224.00,0.0295
3223.00,0.0294
3222.00,0.0293
3221.00,0.0292
3220.00,0.0291
3219.00,0.0290
3218.00,0.0289
3217.00,0.0288
3216.00,0.0287
3215.00,0.0287
3214.00,0.0286
3213.00,0.0285
3212.00,0.0284
3211.00,0.0283
3210.00,0.0282
3209.00,0.0282
3208.00,0.0281
3207.00,0.0280
3206.00,0.0279
3205.00,0.0278
3204.00,0.0278
3203.00,0.0277
3202.00,0.0276
3201.00,0.0276
3200.00,0.0275
3199.00,0.0274
3198.00,0.0273
3197.00,0.0273
3196.00,0.0272
3195.00,0.0271
3194.00,0.0270
3193.00,0.0269
3192.00,0.0268
3191.00,0.0267
3190.00,0.0267
3189.00,0.0266
3188.00,0.0265
3187.00,0.0264
3186.00,0.0263
3185.00,0.0262
3184.00,0.0262
3183.00,0.0261
3182.00,0.0260
3181.00,0.0259
3180.00,0.0258
3179.00,0.0258
3178.00,0.0257
3177.00,0.0256
3176.00,0.0255
3175.00,0.0254
3174.00,0.0253
3173.00,0.0252
3172.00,0.0252
3171.00,0.0251
3170.00,0.0250
3169.00,0.0249
3168.00,0.0248
3167.00,0.0247
3166.00,0.0246
3165.00,0.0245
3164.00,0.0244
3163.00,0.0243
3162.00,0.0242
3161.00,0.0242
3160.00,0.0241
3159.00,0.0240
3158.00,0.0239
3157.00,0.0238
3156.00,0.0237
3155.00,0.0237
3154.00,0.0236
3153.00,0.0235
3152.00,0.0234
3151.00,0.0233
3150.00,0.0232
3149.00,0.0232
3148.00,0.0231
3147.00,0.0230
3146.00,0.0229
3145.00,0.0229
3144.00,0.0228
3143.00,0.0227
3142.00,0.0227
3141.00,0.0226
3140.00,0.0225
3139.00,0.0224
3138.00,0.0224
3137.00,0.0223
3136.00,0.0222
3135.00,0.0222
3134.00,0.0221
3133.00,0.0221
3132.00,0.0220
3131.00,0.0219
3130.00,0.0219
3129.00,0.0218
3128.00,0.0218
3127.00,0.0217
3126.00,0.0217
3125.00,0.0216
3124.00,0.0216
3123.00,0.0215
3122.00,0.0214
3121.00,0.0214
3120.00,0.0213
3119.00,0.0213
3118.00,0.0213
3117.00,0.0212
3116.00,0.0212
3115.00,0.0212
3114.00,0.0212
3113.00,0.0211
3112.00,0.0211
3111.00,0.0211
3110.00,0.0210
3109.00,0.0210
3108.00,0.0210
3107.00,0.0210
3106.00,0.0210
3105.00,0.0210
3104.00,0.0210
3103.00,0.0210
3102.00,0.0209
3101.00,0.0209
3100.00,0.0209
3099.00,0.0209
3098.00,0.0209
3097.00,0.0209
3096.00,0.0209
3095.00,0.0209
3094.00,0.0209
3093.00,0.0209
3092.00,0.0209
3091.00,0.0209
3090.00,0.0209
3089.00,0.0210
3088.00,0.0210
3087.00,0.0210
3086.00,0.0209
3085.00,0.0209
3084.00,0.0209
3083.00,0.0209
3082.00,0.0209
3081.00,0.0209
3080.00,0.0209
3079.00,0.0209
3078.00,0.0209
3077.00,0.0210
3076.00,0.0210
3075.00,0.0210
3074.00,0.0210
3073.00,0.0210
3072.00,0.0210
3071.00,0.0210
3070.00,0.0210
3069.00,0.0209
3068.00,0.0209
3067.00,0.0209
3066.00,0.0209
3065.00,0.0209
3064.00,0.0209
3063.00,0.0209
3062.00,0.0209
3061.00,0.0209
3060.00,0.0208
3059.00,0.0208
3058.00,0.0208
3057.00,0.0207
3056.00,0.0207
3055.00,0.0206
3054.00,0.0206
3053.00,0.0205
3052.00,0.0204
3051.00,0.0204
3050.00,0.0204
3049.00,0.0203
3048.00,0.0203
3047.00,0.0202
3046.00,0.0202
3045.00,0.0201
3044.00,0.0200
3043.00,0.0200
3042.00,0.0199
3041.00,0.0199
3040.00,0.0199
3039.00,0.0198
3038.00,0.0198
3037.00,0.0197
3036.00,0.0196
3035.00,0.0196
3034.00,0.0195
3033.00,0.0195
3032.00,0.0195
3031.00,0.0194
3030.00,0.0194
3029.00,0.0194
3028.00,0.0193
3027.00,0.0192
3026.00,0.0192
3025.00,0.0191
3024.00,0.0191
3023.00,0.0190
3022.00,0.0189
3021.00,0.0189
3020.00,0.0188
3019.00,0.0187
3018.00,0.0187
3017.00,0.0186
3016.00,0.0185
3015.00,0.0185
3014.00,0.0184
3013.00,0.0184
3012.00,0.0184
3011.00,0.0184
3010.00,0.0183
3009.00,0.0183
3008.00,0.0183
3007.00,0.0183
3006.00,0.0183
3005.00,0.0182
3004.00,0.0182
3003.00,0.0182
3002.00,0.0182
3001.00,0.0182
3000.00,0.0182
2999.00,0.0181
2998.00,0.0181
2997.00,0.0181
2996.00,0.0181
2995.00,0.0181
2994.00,0.0181
2993.00,0.0182
2992.00,0.0182
2991.00,0.0182
2990.00,0.0183
2989.00,0.0183
2988.00,0.0184
2987.00,0.0184
2986.00,0.0185
2985.00,0.0185
2984.00,0.0186
2983.00,0.0186
2982.00,0.0187
2981.00,0.0187
2980.00,0.0188
2979.00,0.0188
2978.00,0.0189
2977.00,0.0189
2976.00,0.0190
2975.00,0.0190
2974.00,0.0191
2973.00,0.0191
2972.00,0.0192
2971.00,0.0192
2970.00,0.0192
2969.00,0.0192
2968.00,0.0192
2967.00,0.0192
2966.00,0.0192
2965.00,0.0192
2964.00,0.0192
2963.00,0.0191
2962.00,0.0191
2961.00,0.0190
2960.00,0.0190
2959.00,0.0190
2958.00,0.0189
2957.00,0.0189
2956.00,0.0189
2955.00,0.0188
2954.00,0.0188
2953.00,0.0189
2952.00,0.0189
2951.00,0.0189
2950.00,0.0189
2949.00,0.0189
2948.00,0.0189
2947.00,0.0189
2946.00,0.0189
2945.00,0.0190
2944.00,0.0190
2943.00,0.0190
2942.00,0.0191
2941.00,0.0191
2940.00,0.0191
2939.00,0.0191
2938.00,0.0191
2937.00,0.0191
2936.00,0.0190
2935.00,0.0190
2934.00,0.0189
2933.00,0.0188
2932.00,0.0187
2931.00,0.0186
2930.00,0.0184
2929.00,0.0182
2928.00,0.0180
2927.00,0.0177
2926.00,0.0174
2925.00,0.0171
2924.00,0.0167
2923.00,0.0162
2922.00,0.0158
2921.00,0.0152
2920.00,0.0147
2919.00,0.0141
2918.00,0.0137
2917.00,0.0134
2916.00,0.0133
2915.00,0.0136
2914.00,0.0140
2913.00,0.0146
2912.00,0.0152
2911.00,0.0157
2910.00,0.0161
2909.00,0.0164
2908.00,0.0165
2907.00,0.0167
2906.00,0.0168
2905.00,0.0168
2904.00,0.0168
2903.00,0.0169
2902.00,0.0169
2901.00,0.0169
2900.00,0.0169
2899.00,0.0169
2898.00,0.0170
2897.00,0.0170
2896.00,0.0170
2895.00,0.0170
2894.00,0.0170
2893.00,0.0171
2892.00,0.0171
2891.00,0.0171
2890.00,0.0171
2889.00,0.0172
2888.00,0.0172
2887.00,0.0173
2886.00,0.0173
2885.00,0.0174
2884.00,0.0174
2883.00,0.0175
2882.00,0.0175
2881.00,0.0176
2880.00,0.0176
2879.00,0.0177
2878.00,0.0177
2877.00,0.0178
2876.00,0.0178
2875.00,0.0178
2874.00,0.0178
2873.00,0.0178
2872.00,0.0177
2871.00,0.0177
2870.00,0.0177
2869.00,0.0176
2868.00,0.0175
2867.00,0.0174
2866.00,0.0173
2865.00,0.0172
2864.00,0.0171
2863.00,0.0170
2862.00,0.0169
2861.00,0.0168
2860.00,0.0167
2859.00,0.0165
2858.00,0.0164
2857.00,0.0162
2856.00,0.0159
2855.00,0.0156
2854.00,0.0152
2853.00,0.0147
2852.00,0.0142
2851.00,0.0136
2850.00,0.0132
2849.00,0.0130
2848.00,0.0132
2847.00,0.0136
2846.00,0.0141
2845.00,0.0147
2844.00,0.0151
2843.00,0.0154
2842.00,0.0156
2841.00,0.0158
2840.00,0.0159
2839.00,0.0159
2838.00,0.0160
2837.00,0.0160
2836.00,0.0160
2835.00,0.0160
2834.00,0.0160
2833.00,0.0160
2832.00,0.0160
2831.00,0.0160
2830.00,0.0159
2829.00,0.0159
2828.00,0.0159
2827.00,0.0159
2826.00,0.0159
2825.00,0.0158
2824.00,0.0158
2823.00,0.0158
2822.00,0.0158
2821.00,0.0158
2820.00,0.0158
2819.00,0.0158
2818.00,0.0157
2817.00,0.0157
2816.00,0.0157
2815.00,0.0157
2814.00,0.0157
2813.00,0.0157
2812.00,0.0157
2811.00,0.0156
2810.00,0.0156
2809.00,0.0156
2808.00,0.0156
2807.00,0.0156
2806.00,0.0156
2805.00,0.0156
2804.00,0.0155
2803.00,0.0155
2802.00,0.0155
2801.00,0.0155
2800.00,0.0155
2799.00,0.0155
2798.00,0.0154
2797.00,0.0154
2796.00,0.0154
2795.00,0.0154
2794.00,0.0154
2793.00,0.0154
2792.00,0.0154
2791.00,0.0153
2790.00,0.0153
2789.00,0.0153
2788.00,0.0153
2787.00,0.0153
2786.00,0.0153
2785.00,0.0153
2784.00,0.0152
2783.00,0.0152
2782.00,0.0152
2781.00,0.0152
2780.00,0.0152
2779.00,0.0152
2778.00,0.0152
2777.00,0.0151
2776.00,0.0151
2775.00,0.0151
2774.00,0.0151
2773.00,0.0151
2772.00,0.0151
2771.00,0.0150
2770.00,0.0150
2769.00,0.0150
2768.00,0.0150
2767.00,0.0150
2766.00,0.0150
2765.00,0.0150
2764.00,0.0149
2763.00,0.0149
2762.00,0.0149
2761.00,0.0149
2760.00,0.0149
2759.00,0.0148
2758.00,0.0148
2757.00,0.0148
2756.00,0.0148
2755.00,0.0148
2754.00,0.0148
2753.00,0.0148
2752.00,0.0147
2751.00,0.0147
2750.00,0.0147
2749.00,0.0147
2748.00,0.0147
2747.00,0.0147
2746.00,0.0146
2745.00,0.0146
2744.00,0.0146
2743.00,0.0146
2742.00,0.0146
2741.00,0.0146
2740.00,0.0146
2739.00,0.0145
2738.00,0.0145
2737.00,0.0145
2736.00,0.0145
2735.00,0.0145
2734.00,0.0145
2733.00,0.0145
2732.00,0.0144
2731.00,0.0144
2730.00,0.0144
2729.00,0.0144
2728.00,0.0144
2727.00,0.0144
2726.00,0.0143
2725.00,0.0143
2724.00,0.0143
2723.00,0.0143
2722.00,0.0143
2721.00,0.0143
2720.00,0.0143
2719.00,0.0142
2718.00,0.0142
2717.00,0.0142
2716.00,0.0142
2715.00,0.0142
2714.00,0.0141
2713.00,0.0141
2712.00,0.0141
2711.00,0.0141
2710.00,0.0141
2709.00,0.0141
2708.00,0.0140
2707.00,0.0140
2706.00,0.0140
2705.00,0.0140
2704.00,0.0140
2703.00,0.0140
2702.00,0.0140
2701.00,0.0139
2700.00,0.0139
2699.00,0.0139
2698.00,0.0139
2697.00,0.0139
2696.00,0.0139
2695.00,0.0138
2694.00,0.0138
2693.00,0.0138
2692.00,0.0138
2691.00,0.0138
2690.00,0.0138
2689.00,0.0138
2688.00,0.0138
2687.00,0.0138
2686.00,0.0137
2685.00,0.0137
2684.00,0.0137
2683.00,0.0137
2682.00,0.0137
2681.00,0.0137
2680.00,0.0137
2679.00,0.0137
2678.00,0.0136
2677.00,0.0136
2676.00,0.0136
2675.00,0.0136
2674.00,0.0136
2673.00,0.0136
2672.00,0.0136
2671.00,0.0136
2670.00,0.0136
2669.00,0.0136
2668.00,0.0136
2667.00,0.0136
2666.00,0.0136
2665.00,0.0136
2664.00,0.0137
2663.00,0.0137
2662.00,0.0137
2661.00,0.0137
2660.00,0.0137
2659.00,0.0137
2658.00,0.0137
2657.00,0.0137
2656.00,0.0137
2655.00,0.0137
2654.00,0.0137
2653.00,0.0137
2652.00,0.0137
2651.00,0.0137
2650.00,0.0137
2649.00,0.0137
2648.00,0.0136
2647.00,0.0136
2646.00,0.0136
2645.00,0.0136
2644.00,0.0136
2643.00,0.0136
2642.00,0.0135
2641.00,0.0135
2640.00,0.0135
2639.00,0.0135
2638.00,0.0135
2637.00,0.0135
2636.00,0.0134
2635.00,0.0134
2634.00,0.0134
2633.00,0.0134
2632.00,0.0134
2631.00,0.0134
2630.00,0.0133
2629.00,0.0133
2628.00,0.0133
2627.00,0.0133
2626.00,0.0133
2625.00,0.0133
2624.00,0.0133
2623.00,0.0132
2622.00,0.0132
2621.00,0.0132
2620.00,0.0132
2619.00,0.0132
2618.00,0.0131
2617.00,0.0131
2616.00,0.0131
2615.00,0.0131
2614.00,0.0131
2613.00,0.0130
2612.00,0.0130
2611.00,0.0130
2610.00,0.0130
2609.00,0.0130
2608.00,0.0130
2607.00,0.0130
2606.00,0.0129
2605.00,0.0129
2604.00,0.0129
2603.00,0.0129
2602.00,0.0129
2601.00,0.0129
2600.00,0.0128
2599.00,0.0128
2598.00,0.0128
2597.00,0.0128
2596.00,0.0128
2595.00,0.0128
2594.00,0.0127
2593.00,0.0127
2592.00,0.0127
2591.00,0.0127
2590.00,0.0126
2589.00,0.0126
2588.00,0.0126
2587.00,0.0126
2586.00,0.0126
2585.00,0.0126
2584.00,0.0126
2583.00,0.0126
2582.00,0.0125
2581.00,0.0125
2580.00,0.0125
2579.00,0.0125
2578.00,0.0125
2577.00,0.0124
2576.00,0.0124
2575.00,0.0124
2574.00,0.0124
2573.00,0.0124
2572.00,0.0124
2571.00,0.0124
2570.00,0.0123
2569.00,0.0123
2568.00,0.0123
2567.00,0.0123
2566.00,0.0123
2565.00,0.0123
2564.00,0.0123
2563.00,0.0122
2562.00,0.0122
2561.00,0.0122
2560.00,0.0122
2559.00,0.0122
2558.00,0.0122
2557.00,0.0122
2556.00,0.0122
2555.00,0.0122
2554.00,0.0122
2553.00,0.0122
2552.00,0.0122
2551.00,0.0122
2550.00,0.0121
2549.00,0.0121
2548.00,0.0121
2547.00,0.0121
2546.00,0.0121
2545.00,0.0121
2544.00,0.0121
2543.00,0.0120
2542.00,0.0120
2541.00,0.0120
2540.00,0.0120
2539.00,0.0120
2538.00,0.0120
2537.00,0.0120
2536.00,0.0119
2535.00,0.0119
2534.00,0.0119
2533.00,0.0119
2532.00,0.0119
2531.00,0.0119
2530.00,0.0119
2529.00,0.0119
2528.00,0.0119
2527.00,0.0119
2526.00,0.0119
2525.00,0.0119
2524.00,0.0119
2523.00,0.0119
2522.00,0.0118
2521.00,0.0118
2520.00,0.0118
2519.00,0.0118
2518.00,0.0118
2517.00,0.0118
2516.00,0.0118
2515.00,0.0118
2514.00,0.0117
2513.00,0.0117
2512.00,0.0117
2511.00,0.0117
2510.00,0.0117
2509.00,0.0117
2508.00,0.0117
2507.00,0.0117
2506.00,0.0117
2505.00,0.0117
2504.00,0.0117
2503.00,0.0117
2502.00,0.0117
2501.00,0.0117
2500.00,0.0117
2499.00,0.0117
2498.00,0.0117
2497.00,0.0117
2496.00,0.0117
2495.00,0.0117
2494.00,0.0116
2493.00,0.0116
2492.00,0.0116
2491.00,0.0116
2490.00,0.0116
2489.00,0.0116
2488.00,0.0116
2487.00,0.0116
2486.00,0.0115
2485.00,0.0115
2484.00,0.0115
2483.00,0.0115
2482.00,0.0115
2481.00,0.0115
2480.00,0.0115
2479.00,0.0115
2478.00,0.0115
2477.00,0.0115
2476.00,0.0115
2475.00,0.0115
2474.00,0.0114
2473.00,0.0114
2472.00,0.0114
2471.00,0.0114
2470.00,0.0114
2469.00,0.0114
2468.00,0.0115
2467.00,0.0115
2466.00,0.0115
2465.00,0.0115
2464.00,0.0115
2463.00,0.0115
2462.00,0.0115
2461.00,0.0115
2460.00,0.0115
2459.00,0.0115
2458.00,0.0115
2457.00,0.0115
2456.00,0.0115
2455.00,0.0115
2454.00,0.0115
2453.00,0.0115
2452.00,0.0114
2451.00,0.0114
2450.00,0.0114
2449.00,0.0113
2448.00,0.0113
2447.00,0.0113
2446.00,0.0113
2445.00,0.0113
2444.00,0.0113
2443.00,0.0113
2442.00,0.0113
2441.00,0.0112
2440.00,0.0112
2439.00,0.0112
2438.00,0.0112
2437.00,0.0112
2436.00,0.0112
2435.00,0.0112
2434.00,0.0112
2433.00,0.0112
2432.00,0.0111
2431.00,0.0111
2430.00,0.0111
2429.00,0.0111
2428.00,0.0111
2427.00,0.0111
2426.00,0.0111
2425.00,0.0110
2424.00,0.0110
2423.00,0.0110
2422.00,0.0110
2421.00,0.0110
2420.00,0.0110
2419.00,0.0110
2418.00,0.0109
2417.00,0.0109
2416.00,0.0109
2415.00,0.0109
2414.00,0.0109
2413.00,0.0109
2412.00,0.0109
2411.00,0.0109
2410.00,0.0109
2409.00,0.0109
2408.00,0.0108
2407.00,0.0108
2406.00,0.0108
2405.00,0.0107
2404.00,0.0107
2403.00,0.0107
2402.00,0.0107
2401.00,0.0107
2400.00,0.0107
2399.00,0.0107
2398.00,0.0107
2397.00,0.0107
2396.00,0.0107
2395.00,0.0107
2394.00,0.0107
2393.00,0.0107
2392.00,0.0107
2391.00,0.0107
2390.00,0.0106
2389.00,0.0106
2388.00,0.0106
2387.00,0.0106
2386.00,0.0106
2385.00,0.0105
2384.00,0.0105
2383.00,0.0105
2382.00,0.0104
2381.00,0.0104
2380.00,0.0104
2379.00,0.0104
2378.00,0.0104
2377.00,0.0104
2376.00,0.0104
2375.00,0.0104
2374.00,0.0104
2373.00,0.0104
2372.00,0.0104
2371.00,0.0104
2370.00,0.0103
2369.00,0.0103
2368.00,0.0103
2367.00,0.0103
2366.00,0.0103
2365.00,0.0103
2364.00,0.0103
2363.00,0.0103
2362.00,0.0103
2361.00,0.0103
2360.00,0.0103
2359.00,0.0103
2358.00,0.0104
2357.00,0.0104
2356.00,0.0103
2355.00,0.0103
2354.00,0.0103
2353.00,0.0102
2352.00,0.0102
2351.00,0.0103
2350.00,0.0104
2349.00,0.0105
2348.00,0.0105
2347.00,0.0105
2346.00,0.0105
2345.00,0.0105
2344.00,0.0105
2343.00,0.0105
2342.00,0.0106
2341.00,0.0106
2340.00,0.0106
2339.00,0.0106
2338.00,0.0106
2337.00,0.0106
2336.00,0.0106
2335.00,0.0106
2334.00,0.0105
2333.00,0.0105
2332.00,0.0105
2331.00,0.0105
2330.00,0.0106
2329.00,0.0107
2328.00,0.0110
2327.00,0.0113
2326.00,0.0115
2325.00,0.0116
2324.00,0.0116
2323.00,0.0114
2322.00,0.0113
2321.00,0.0111
2320.00,0.0110
2319.00,0.0110
2318.00,0.0109
2317.00,0.0109
2316.00,0.0109
2315.00,0.0108
2314.00,0.0108
2313.00,0.0108
2312.00,0.0108
2311.00,0.0108
2310.00,0.0107
2309.00,0.0107
2308.00,0.0107
2307.00,0.0107
2306.00,0.0107
2305.00,0.0107
2304.00,0.0108
2303.00,0.0108
2302.00,0.0108
2301.00,0.0108
2300.00,0.0108
2299.00,0.0108
2298.00,0.0109
2297.00,0.0109
2296.00,0.0109
2295.00,0.0110
2294.00,0.0110
2293.00,0.0111
2292.00,0.0111
2291.00,0.0112
2290.00,0.0112
2289.00,0.0112
2288.00,0.0113
2287.00,0.0112
2286.00,0.0112
2285.00,0.0111
2284.00,0.0111
2283.00,0.0110
2282.00,0.0109
2281.00,0.0109
2280.00,0.0109
2279.00,0.0108
2278.00,0.0108
2277.00,0.0108
2276.00,0.0108
2275.00,0.0107
2274.00,0.0107
2273.00,0.0107
2272.00,0.0107
2271.00,0.0107
2270.00,0.0106
2269.00,0.0106
2268.00,0.0106
2267.00,0.0106
2266.00,0.0105
2265.00,0.0105
2264.00,0.0105
2263.00,0.0105
2262.00,0.0105
2261.00,0.0105
2260.00,0.0105
2259.00,0.0105
2258.00,0.0104
2257.00,0.0104
2256.00,0.0103
2255.00,0.0102
2254.00,0.0102
2253.00,0.0102
2252.00,0.0102
2251.00,0.0102
2250.00,0.0102
2249.00,0.0102
2248.00,0.0102
2247.00,0.0102
2246.00,0.0102
2245.00,0.0102
2244.00,0.0102
2243.00,0.0102
2242.00,0.0102
2241.00,0.0102
2240.00,0.0102
2239.00,0.0102
2238.00,0.0102
2237.00,0.0102
2236.00,0.0102
2235.00,0.0102
2234.00,0.0103
2233.00,0.0103
2232.00,0.0102
2231.00,0.0102
2230.00,0.0101
2229.00,0.0101
2228.00,0.0101
2227.00,0.0100
2226.00,0.0100
2225.00,0.0100
2224.00,0.0101
2223.00,0.0101
2222.00,0.0101
2221.00,0.0100
2220.00,0.0100
2219.00,0.0100
2218.00,0.0100
2217.00,0.0100
2216.00,0.0100
2215.00,0.0100
2214.00,0.0101
2213.00,0.0101
2212.00,0.0100
2211.00,0.0100
2210.00,0.0100
2209.00,0.0099
2208.00,0.0099
2207.00,0.0099
2206.00,0.0099
2205.00,0.0099
2204.00,0.0100
2203.00,0.0100
2202.00,0.0100
2201.00,0.0100
2200.00,0.0100
2199.00,0.0099
2198.00,0.0099
2197.00,0.0099
2196.00,0.0100
2195.00,0.0100
2194.00,0.0100
2193.00,0.0100
2192.00,0.0100
2191.00,0.0100
2190.00,0.0100
2189.00,0.0101
2188.00,0.0101
2187.00,0.0102
2186.00,0.0102
2185.00,0.0101
2184.00,0.0099
2183.00,0.0097
2182.00,0.0096
2181.00,0.0096
2180.00,0.0096
2179.00,0.0097
2178.00,0.0096
2177.00,0.0095
2176.00,0.0094
2175.00,0.0094
2174.00,0.0095
2173.00,0.0096
2172.00,0.0098
2171.00,0.0099
2170.00,0.0101
2169.00,0.0102
2168.00,0.0103
2167.00,0.0103
2166.00,0.0104
2165.00,0.0105
2164.00,0.0106
2163.00,0.0106
2162.00,0.0103
2161.00,0.0094
2160.00,0.0083
2159.00,0.0073
2158.00,0.0068
2157.00,0.0067
2156.00,0.0070
2155.00,0.0073
2154.00,0.0075
2153.00,0.0077
2152.00,0.0079
2151.00,0.0079
2150.00,0.0080
2149.00,0.0080
2148.00,0.0080
2147.00,0.0080
2146.00,0.0081
2145.00,0.0081
2144.00,0.0082
2143.00,0.0082
2142.00,0.0082
2141.00,0.0082
2140.00,0.0083
2139.00,0.0083
2138.00,0.0082
2137.00,0.0080
2136.00,0.0078
2135.00,0.0077
2134.00,0.0076
2133.00,0.0077
2132.00,0.0078
2131.00,0.0079
2130.00,0.0081
2129.00,0.0082
2128.00,0.0083
2127.00,0.0084
2126.00,0.0085
2125.00,0.0086
2124.00,0.0086
2123.00,0.0087
2122.00,0.0088
2121.00,0.0088
2120.00,0.0089
2119.00,0.0090
2118.00,0.0091
2117.00,0.0091
2116.00,0.0092
2115.00,0.0092
2114.00,0.0092
2113.00,0.0092
2112.00,0.0092
2111.00,0.0092
2110.00,0.0092
2109.00,0.0092
2108.00,0.0092
2107.00,0.0091
2106.00,0.0091
2105.00,0.0091
2104.00,0.0092
2103.00,0.0092
2102.00,0.0092
2101.00,0.0092
2100.00,0.0091
2099.00,0.0091
2098.00,0.0090
2097.00,0.0089
2096.00,0.0088
2095.00,0.0087
2094.00,0.0087
2093.00,0.0087
2092.00,0.0088
2091.00,0.0089
2090.00,0.0089
2089.00,0.0089
2088.00,0.0090
2087.00,0.0091
2086.00,0.0091
2085.00,0.0091
2084.00,0.0091
2083.00,0.0091
2082.00,0.0091
2081.00,0.0091
2080.00,0.0092
2079.00,0.0092
2078.00,0.0091
2077.00,0.0091
2076.00,0.0090
2075.00,0.0090
2074.00,0.0090
2073.00,0.0090
2072.00,0.0090
2071.00,0.0090
2070.00,0.0089
2069.00,0.0089
2068.00,0.0089
2067.00,0.0089
2066.00,0.0088
2065.00,0.0088
2064.00,0.0088
2063.00,0.0088
2062.00,0.0088
2061.00,0.0088
2060.00,0.0088
2059.00,0.0089
2058.00,0.0089
2057.00,0.0089
2056.00,0.0089
2055.00,0.0089
2054.00,0.0091
2053.00,0.0094
2052.00,0.0097
2051.00,0.0097
2050.00,0.0095
2049.00,0.0092
2048.00,0.0090
2047.00,0.0089
2046.00,0.0089
2045.00,0.0089
2044.00,0.0088
2043.00,0.0088
2042.00,0.0088
2041.00,0.0088
2040.00,0.0088
2039.00,0.0087
2038.00,0.0087
2037.00,0.0086
2036.00,0.0086
2035.00,0.0085
2034.00,0.0084
2033.00,0.0083
2032.00,0.0082
2031.00,0.0081
2030.00,0.0080
2029.00,0.0079
2028.00,0.0079
2027.00,0.0079
2026.00,0.0078
2025.00,0.0077
2024.00,0.0077
2023.00,0.0078
2022.00,0.0078
2021.00,0.0078
2020.00,0.0078
2019.00,0.0077
2018.00,0.0076
2017.00,0.0077
2016.00,0.0078
2015.00,0.0078
2014.00,0.0079
2013.00,0.0079
2012.00,0.0080
2011.00,0.0080
2010.00,0.0079
2009.00,0.0078
2008.00,0.0076
2007.00,0.0074
2006.00,0.0073
2005.00,0.0072
2004.00,0.0073
2003.00,0.0074
2002.00,0.0075
2001.00,0.0076
2000.00,0.0077
1999.00,0.0078
1998.00,0.0078
1997.00,0.0078
1996.00,0.0079
1995.00,0.0079
1994.00,0.0080
1993.00,0.0080
1992.00,0.0080
1991.00,0.0080
1990.00,0.0080
1989.00,0.0081
1988.00,0.0081
1987.00,0.0082
1986.00,0.0083
1985.00,0.0084
1984.00,0.0085
1983.00,0.0087
1982.00,0.0089
1981.00,0.0089
1980.00,0.0088
1979.00,0.0083
1978.00,0.0078
1977.00,0.0074
1976.00,0.0072
1975.00,0.0072
1974.00,0.0072
1973.00,0.0071
1972.00,0.0071
1971.00,0.0070
1970.00,0.0070
1969.00,0.0071
1968.00,0.0071
1967.00,0.0072
1966.00,0.0072
1965.00,0.0072
1964.00,0.0071
1963.00,0.0071
1962.00,0.0070
1961.00,0.0069
1960.00,0.0069
1959.00,0.0068
1958.00,0.0068
1957.00,0.0068
1956.00,0.0069
1955.00,0.0069
1954.00,0.0069
1953.00,0.0069
1952.00,0.0069
1951.00,0.0069
1950.00,0.0069
1949.00,0.0070
1948.00,0.0070
1947.00,0.0070
1946.00,0.0070
1945.00,0.0070
1944.00,0.0070
1943.00,0.0069
1942.00,0.0069
1941.00,0.0069
1940.00,0.0069
1939.00,0.0069
1938.00,0.0069
1937.00,0.0069
1936.00,0.0070
1935.00,0.0070
1934.00,0.0070
1933.00,0.0070
1932.00,0.0070
1931.00,0.0069
1930.00,0.0069
1929.00,0.0069
1928.00,0.0069
1927.00,0.0069
1926.00,0.0069
1925.00,0.0069
1924.00,0.0069
1923.00,0.0070
1922.00,0.0071
1921.00,0.0071
1920.00,0.0071
1919.00,0.0070
1918.00,0.0070
1917.00,0.0070
1916.00,0.0070
1915.00,0.0070
1914.00,0.0070
1913.00,0.0070
1912.00,0.0070
1911.00,0.0069
1910.00,0.0069
1909.00,0.0069
1908.00,0.0069
1907.00,0.0069
1906.00,0.0070
1905.00,0.0070
1904.00,0.0070
1903.00,0.0070
1902.00,0.0070
1901.00,0.0070
1900.00,0.0070
1899.00,0.0069
1898.00,0.0069
1897.00,0.0069
1896.00,0.0069
1895.00,0.0069
1894.00,0.0069
1893.00,0.0069
1892.00,0.0069
1891.00,0.0069
1890.00,0.0069
1889.00,0.0069
1888.00,0.0069
1887.00,0.0069
1886.00,0.0069
1885.00,0.0069
1884.00,0.0068
1883.00,0.0068
1882.00,0.0068
1881.00,0.0068
1880.00,0.0068
1879.00,0.0068
1878.00,0.0068
1877.00,0.0068
1876.00,0.0068
1875.00,0.0068
1874.00,0.0067
1873.00,0.0067
1872.00,0.0067
1871.00,0.0067
1870.00,0.0066
1869.00,0.0066
1868.00,0.0066
1867.00,0.0067
1866.00,0.0067
1865.00,0.0067
1864.00,0.0066
1863.00,0.0066
1862.00,0.0066
1861.00,0.0066
1860.00,0.0066
1859.00,0.0066
1858.00,0.0066
1857.00,0.0066
1856.00,0.0066
1855.00,0.0066
1854.00,0.0066
1853.00,0.0065
1852.00,0.0065
1851.00,0.0065
1850.00,0.0065
1849.00,0.0064
1848.00,0.0064
1847.00,0.0064
1846.00,0.0064
1845.00,0.0064
1844.00,0.0065
1843.00,0.0065
1842.00,0.0065
1841.00,0.0064
1840.00,0.0064
1839.00,0.0064
1838.00,0.0064
1837.00,0.0064
1836.00,0.0064
1835.00,0.0064
1834.00,0.0064
1833.00,0.0064
1832.00,0.0063
1831.00,0.0063
1830.00,0.0063
1829.00,0.0063
1828.00,0.0063
1827.00,0.0063
1826.00,0.0063
1825.00,0.0063
1824.00,0.0064
1823.00,0.0064
1822.00,0.0063
1821.00,0.0063
1820.00,0.0062
1819.00,0.0061
1818.00,0.0060
1817.00,0.0060
1816.00,0.0060
1815.00,0.0061
1814.00,0.0061
1813.00,0.0061
1812.00,0.0061
1811.00,0.0061
1810.00,0.0062
1809.00,0.0062
1808.00,0.0062
1807.00,0.0062
1806.00,0.0062
1805.00,0.0062
1804.00,0.0062
1803.00,0.0061
1802.00,0.0061
1801.00,0.0061
1800.00,0.0061
1799.00,0.0062
1798.00,0.0062
1797.00,0.0062
1796.00,0.0062
1795.00,0.0062
1794.00,0.0062
1793.00,0.0061
1792.00,0.0061
1791.00,0.0062
1790.00,0.0062
1789.00,0.0062
1788.00,0.0061
1787.00,0.0061
1786.00,0.0061
1785.00,0.0061
1784.00,0.0061
1783.00,0.0061
1782.00,0.0061
1781.00,0.0061
1780.00,0.0061
1779.00,0.0061
1778.00,0.0060
1777.00,0.0060
1776.00,0.0060
1775.00,0.0060
1774.00,0.0061
1773.00,0.0061
1772.00,0.0061
1771.00,0.0061
1770.00,0.0060
1769.00,0.0060
1768.00,0.0060
1767.00,0.0060
1766.00,0.0061
1765.00,0.0060
1764.00,0.0060
1763.00,0.0060
1762.00,0.0060
1761.00,0.0060
1760.00,0.0061
1759.00,0.0061
1758.00,0.0060
1757.00,0.0060
1756.00,0.0061
1755.00,0.0061
1754.00,0.0061
1753.00,0.0061
1752.00,0.0062
1751.00,0.0062
1750.00,0.0062
1749.00,0.0062
1748.00,0.0062
1747.00,0.0062
1746.00,0.0062
1745.00,0.0062
1744.00,0.0062
1743.00,0.0062
1742.00,0.0062
1741.00,0.0062
1740.00,0.0063
1739.00,0.0063
1738.00,0.0064
1737.00,0.0064
1736.00,0.0064
1735.00,0.0065
1734.00,0.0065
1733.00,0.0066
1732.00,0.0066
1731.00,0.0065
1730.00,0.0065
1729.00,0.0065
1728.00,0.0065
1727.00,0.0065
1726.00,0.0065
1725.00,0.0066
1724.00,0.0066
1723.00,0.0067
1722.00,0.0067
1721.00,0.0068
1720.00,0.0068
1719.00,0.0070
1718.00,0.0071
1717.00,0.0072
1716.00,0.0074
1715.00,0.0075
1714.00,0.0076
1713.00,0.0077
1712.00,0.0080
1711.00,0.0082
1710.00,0.0085
1709.00,0.0088
1708.00,0.0092
1707.00,0.0096
1706.00,0.0102
1705.00,0.0110
1704.00,0.0118
1703.00,0.0126
1702.00,0.0135
1701.00,0.0151
1700.00,0.0173
1699.00,0.0191
1698.00,0.0203
1697.00,0.0213
1696.00,0.0225
1695.00,0.0236
1694.00,0.0244
1693.00,0.0248
1692.00,0.0253
1691.00,0.0258
1690.00,0.0264
1689.00,0.0271
1688.00,0.0277
1687.00,0.0284
1686.00,0.0291
1685.00,0.0301
1684.00,0.0314
1683.00,0.0326
1682.00,0.0335
1681.00,0.0342
1680.00,0.0351
1679.00,0.0359
1678.00,0.0368
1677.00,0.0377
1676.00,0.0388
1675.00,0.0400
1674.00,0.0412
1673.00,0.0421
1672.00,0.0430
1671.00,0.0440
1670.00,0.0452
1669.00,0.0465
1668.00,0.0477
1667.00,0.0487
1666.00,0.0496
1665.00,0.0504
1664.00,0.0515
1663.00,0.0526
1662.00,0.0538
1661.00,0.0549
1660.00,0.0558
1659.00,0.0567
1658.00,0.0575
1657.00,0.0581
1656.00,0.0588
1655.00,0.0594
1654.00,0.0602
1653.00,0.0614
1652.00,0.0624
1651.00,0.0629
1650.00,0.0629
1649.00,0.0630
1648.00,0.0632
1647.00,0.0637
1646.00,0.0642
1645.00,0.0646
1644.00,0.0648
1643.00,0.0650
1642.00,0.0652
1641.00,0.0654
1640.00,0.0656
1639.00,0.0658
1638.00,0.0660
1637.00,0.0662
1636.00,0.0665
1635.00,0.0670
1634.00,0.0673
1633.00,0.0675
1632.00,0.0676
1631.00,0.0678
1630.00,0.0680
1629.00,0.0683
1628.00,0.0686
1627.00,0.0690
1626.00,0.0693
1625.00,0.0695
1624.00,0.0698
1623.00,0.0701
1622.00,0.0703
1621.00,0.0704
1620.00,0.0704
1619.00,0.0703
1618.00,0.0700
1617.00,0.0695
1616.00,0.0689
1615.00,0.0682
1614.00,0.0674
1613.00,0.0665
1612.00,0.0655
1611.00,0.0644
1610.00,0.0632
1609.00,0.0620
1608.00,0.0608
1607.00,0.0596
1606.00,0.0584
1605.00,0.0572
1604.00,0.0560
1603.00,0.0548
1602.00,0.0537
1601.00,0.0525
1600.00,0.0514
1599.00,0.0503
1598.00,0.0493
1597.00,0.0483
1596.00,0.0472
1595.00,0.0462
1594.00,0.0453
1593.00,0.0444
1592.00,0.0434
1591.00,0.0425
1590.00,0.0417
1589.00,0.0409
1588.00,0.0401
1587.00,0.0393
1586.00,0.0386
1585.00,0.0380
1584.00,0.0373
1583.00,0.0367
1582.00,0.0362
1581.00,0.0358
1580.00,0.0354
1579.00,0.0351
1578.00,0.0350
1577.00,0.0349
1576.00,0.0348
1575.00,0.0348
1574.00,0.0348
1573.00,0.0348
1572.00,0.0349
1571.00,0.0350
1570.00,0.0354
1569.00,0.0359
1568.00,0.0363
1567.00,0.0367
1566.00,0.0372
1565.00,0.0378
1564.00,0.0384
1563.00,0.0389
1562.00,0.0394
1561.00,0.0399
1560.00,0.0407
1559.00,0.0420
1558.00,0.0435
1557.00,0.0444
1556.00,0.0450
1555.00,0.0456
1554.00,0.0464
1553.00,0.0473
1552.00,0.0480
1551.00,0.0487
1550.00,0.0496
1549.00,0.0504
1548.00,0.0512
1547.00,0.0518
1546.00,0.0524
1545.00,0.0531
1544.00,0.0538
1543.00,0.0544
1542.00,0.0551
1541.00,0.0559
1540.00,0.0568
1539.00,0.0576
1538.00,0.0582
1537.00,0.0585
1536.00,0.0587
1535.00,0.0590
1534.00,0.0596
1533.00,0.0603
1532.00,0.0609
1531.00,0.0614
1530.00,0.0619
1529.00,0.0623
1528.00,0.0628
1527.00,0.0633
1526.00,0.0639
1525.00,0.0645
1524.00,0.0649
1523.00,0.0654
1522.00,0.0660
1521.00,0.0667
1520.00,0.0672
1519.00,0.0675
1518.00,0.0678
1517.00,0.0680
1516.00,0.0681
1515.00,0.0682
1514.00,0.0680
1513.00,0.0677
1512.00,0.0673
1511.00,0.0668
1510.00,0.0663
1509.00,0.0657
1508.00,0.0649
1507.00,0.0638
1506.00,0.0627
1505.00,0.0618
1504.00,0.0609
1503.00,0.0600
1502.00,0.0590
1501.00,0.0580
1500.00,0.0569
1499.00,0.0558
1498.00,0.0546
1497.00,0.0532
1496.00,0.0519
1495.00,0.0506
1494.00,0.0495
1493.00,0.0484
1492.00,0.0472
1491.00,0.0459
1490.00,0.0445
1489.00,0.0432
1488.00,0.0420
1487.00,0.0410
1486.00,0.0401
1485.00,0.0393
1484.00,0.0384
1483.00,0.0377
1482.00,0.0370
1481.00,0.0363
1480.00,0.0357
1479.00,0.0352
1478.00,0.0348
1477.00,0.0343
1476.00,0.0340
1475.00,0.0337
1474.00,0.0335
1473.00,0.0334
1472.00,0.0333
1471.00,0.0334
1470.00,0.0334
1469.00,0.0334
1468.00,0.0333
1467.00,0.0332
1466.00,0.0332
1465.00,0.0332
1464.00,0.0332
1463.00,0.0334
1462.00,0.0336
1461.00,0.0338
1460.00,0.0340
1459.00,0.0343
1458.00,0.0348
1457.00,0.0354
1456.00,0.0360
1455.00,0.0363
1454.00,0.0364
1453.00,0.0365
1452.00,0.0365
1451.00,0.0365
1450.00,0.0365
1449.00,0.0363
1448.00,0.0362
1447.00,0.0360
1446.00,0.0357
1445.00,0.0354
1444.00,0.0351
1443.00,0.0347
1442.00,0.0343
1441.00,0.0339
1440.00,0.0335
1439.00,0.0331
1438.00,0.0327
1437.00,0.0322
1436.00,0.0318
1435.00,0.0315
1434.00,0.0312
1433.00,0.0309
1432.00,0.0306
1431.00,0.0304
1430.00,0.0302
1429.00,0.0301
1428.00,0.0301
1427.00,0.0300
1426.00,0.0300
1425.00,0.0300
1424.00,0.0301
1423.00,0.0302
1422.00,0.0303
1421.00,0.0304
1420.00,0.0305
1419.00,0.0307
1418.00,0.0309
1417.00,0.0311
1416.00,0.0312
1415.00,0.0314
1414.00,0.0315
1413.00,0.0317
1412.00,0.0318
1411.00,0.0319
1410.00,0.0321
1409.00,0.0322
1408.00,0.0323
1407.00,0.0323
1406.00,0.0324
1405.00,0.0324
1404.00,0.0325
1403.00,0.0325
1402.00,0.0325
1401.00,0.0324
1400.00,0.0323
1399.00,0.0322
1398.00,0.0322
1397.00,0.0321
1396.00,0.0321
1395.00,0.0320
1394.00,0.0320
1393.00,0.0320
1392.00,0.0320
1391.00,0.0320
1390.00,0.0319
1389.00,0.0319
1388.00,0.0318
1387.00,0.0318
1386.00,0.0317
1385.00,0.0316
1384.00,0.0315
1383.00,0.0314
1382.00,0.0313
1381.00,0.0311
1380.00,0.0310
1379.00,0.0309
1378.00,0.0308
1377.00,0.0306
1376.00,0.0305
1375.00,0.0304
1374.00,0.0303
1373.00,0.0303
1372.00,0.0302
1371.00,0.0302
1370.00,0.0301
1369.00,0.0299
1368.00,0.0298
1367.00,0.0296
1366.00,0.0294
1365.00,0.0292
1364.00,0.0289
1363.00,0.0287
1362.00,0.0285
1361.00,0.0284
1360.00,0.0282
1359.00,0.0281
1358.00,0.0280
1357.00,0.0279
1356.00,0.0278
1355.00,0.0277
1354.00,0.0276
1353.00,0.0275
1352.00,0.0274
1351.00,0.0274
1350.00,0.0273
1349.00,0.0273
1348.00,0.0272
1347.00,0.0272
1346.00,0.0271
1345.00,0.0271
1344.00,0.0271
1343.00,0.0271
1342.00,0.0270
1341.00,0.0270
1340.00,0.0270
1339.00,0.0270
1338.00,0.0270
1337.00,0.0270
1336.00,0.0270
1335.00,0.0270
1334.00,0.0270
1333.00,0.0270
1332.00,0.0269
1331.00,0.0269
1330.00,0.0269
1329.00,0.0269
1328.00,0.0268
1327.00,0.0268
1326.00,0.0269
1325.00,0.0269
1324.00,0.0269
1323.00,0.0269
1322.00,0.0269
1321.00,0.0269
1320.00,0.0269
1319.00,0.0269
1318.00,0.0269
1317.00,0.0269
1316.00,0.0270
1315.00,0.0270
1314.00,0.0270
1313.00,0.0270
1312.00,0.0270
1311.00,0.0270
1310.00,0.0270
1309.00,0.0270
1308.00,0.0270
1307.00,0.0270
1306.00,0.0270
1305.00,0.0269
1304.00,0.0269
1303.00,0.0269
1302.00,0.0268
1301.00,0.0268
1300.00,0.0268
1299.00,0.0267
1298.00,0.0267
1297.00,0.0267
1296.00,0.0266
1295.00,0.0266
1294.00,0.0266
1293.00,0.0266
1292.00,0.0265
1291.00,0.0265
1290.00,0.0265
1289.00,0.0265
1288.00,0.0265
1287.00,0.0265
1286.00,0.0265
1285.00,0.0265
1284.00,0.0265
1283.00,0.0264
1282.00,0.0264
1281.00,0.0263
1280.00,0.0263
1279.00,0.0262
1278.00,0.0262
1277.00,0.0262
1276.00,0.0261
1275.00,0.0261
1274.00,0.0262
1273.00,0.0262
1272.00,0.0262
1271.00,0.0262
1270.00,0.0263
1269.00,0.0263
1268.00,0.0264
1267.00,0.0264
1266.00,0.0265
1265.00,0.0266
1264.00,0.0267
1263.00,0.0269
1262.00,0.0271
1261.00,0.0272
1260.00,0.0274
1259.00,0.0276
1258.00,0.0279
1257.00,0.0281
1256.00,0.0284
1255.00,0.0286
1254.00,0.0289
1253.00,0.0292
1252.00,0.0294
1251.00,0.0296
1250.00,0.0299
1249.00,0.0301
1248.00,0.0303
1247.00,0.0305
1246.00,0.0307
1245.00,0.0308
1244.00,0.0310
1243.00,0.0311
1242.00,0.0312
1241.00,0.0313
1240.00,0.0314
1239.00,0.0314
1238.00,0.0315
1237.00,0.0315
1236.00,0.0315
1235.00,0.0315
1234.00,0.0315
1233.00,0.0314
1232.00,0.0313
1231.00,0.0313
1230.00,0.0312
1229.00,0.0311
1228.00,0.0311
1227.00,0.0310
1226.00,0.0309
1225.00,0.0307
1224.00,0.0306
1223.00,0.0304
1222.00,0.0303
1221.00,0.0302
1220.00,0.0300
1219.00,0.0298
1218.00,0.0296
1217.00,0.0294
1216.00,0.0292
1215.00,0.0290
1214.00,0.0287
1213.00,0.0285
1212.00,0.0282
1211.00,0.0279
1210.00,0.0277
1209.00,0.0274
1208.00,0.0271
1207.00,0.0268
1206.00,0.0265
1205.00,0.0262
1204.00,0.0258
1203.00,0.0255
1202.00,0.0252
1201.00,0.0249
1200.00,0.0246
1199.00,0.0243
1198.00,0.0241
1197.00,0.0238
1196.00,0.0236
1195.00,0.0234
1194.00,0.0232
1193.00,0.0231
1192.00,0.0229
1191.00,0.0227
1190.00,0.0226
1189.00,0.0225
1188.00,0.0224
1187.00,0.0223
1186.00,0.0222
1185.00,0.0222
1184.00,0.0221
1183.00,0.0221
1182.00,0.0221
1181.00,0.0221
1180.00,0.0221
1179.00,0.0222
1178.00,0.0223
1177.00,0.0224
1176.00,0.0226
1175.00,0.0227
1174.00,0.0229
1173.00,0.0231
1172.00,0.0233
1171.00,0.0235
1170.00,0.0237
1169.00,0.0238
1168.00,0.0239
1167.00,0.0241
1166.00,0.0242
1165.00,0.0243
1164.00,0.0244
1163.00,0.0245
1162.00,0.0246
1161.00,0.0246
1160.00,0.0246
1159.00,0.0246
1158.00,0.0245
1157.00,0.0245
1156.00,0.0244
1155.00,0.0242
1154.00,0.0241
1153.00,0.0240
1152.00,0.0238
1151.00,0.0236
1150.00,0.0235
1149.00,0.0233
1148.00,0.0231
1147.00,0.0229
1146.00,0.0228
1145.00,0.0226
1144.00,0.0225
1143.00,0.0223
1142.00,0.0223
1141.00,0.0222
1140.00,0.0221
1139.00,0.0221
1138.00,0.0221
1137.00,0.0221
1136.00,0.0220
1135.00,0.0220
1134.00,0.0221
1133.00,0.0221
1132.00,0.0221
1131.00,0.0221
1130.00,0.0222
1129.00,0.0222
1128.00,0.0222
1127.00,0.0221
1126.00,0.0221
1125.00,0.0221
1124.00,0.0220
1123.00,0.0219
1122.00,0.0219
1121.00,0.0218
1120.00,0.0217
1119.00,0.0216
1118.00,0.0215
1117.00,0.0214
1116.00,0.0213
1115.00,0.0212
1114.00,0.0211
1113.00,0.0211
1112.00,0.0210
1111.00,0.0210
1110.00,0.0209
1109.00,0.0209
1108.00,0.0209
1107.00,0.0209
1106.00,0.0209
1105.00,0.0210
1104.00,0.0210
1103.00,0.0210
1102.00,0.0211
1101.00,0.0212
1100.00,0.0212
1099.00,0.0213
1098.00,0.0214
1097.00,0.0215
1096.00,0.0216
1095.00,0.0217
1094.00,0.0220
1093.00,0.0222
1092.00,0.0225
1091.00,0.0228
1090.00,0.0232
1089.00,0.0236
1088.00,0.0240
1087.00,0.0244
1086.00,0.0249
1085.00,0.0254
1084.00,0.0258
1083.00,0.0263
1082.00,0.0268
1081.00,0.0273
1080.00,0.0277
1079.00,0.0281
1078.00,0.0285
1077.00,0.0289
1076.00,0.0292
1075.00,0.0295
1074.00,0.0298
1073.00,0.0300
1072.00,0.0301
1071.00,0.0302
1070.00,0.0303
1069.00,0.0305
1068.00,0.0305
1067.00,0.0306
1066.00,0.0307
1065.00,0.0307
1064.00,0.0307
1063.00,0.0307
1062.00,0.0307
1061.00,0.0307
1060.00,0.0306
1059.00,0.0305
1058.00,0.0304
1057.00,0.0302
1056.00,0.0301
1055.00,0.0299
1054.00,0.0298
1053.00,0.0297
1052.00,0.0295
1051.00,0.0293
1050.00,0.0291
1049.00,0.0289
1048.00,0.0286
1047.00,0.0283
1046.00,0.0280
1045.00,0.0277
1044.00,0.0274
1043.00,0.0270
1042.00,0.0267
1041.00,0.0264
1040.00,0.0260
1039.00,0.0256
1038.00,0.0253
1037.00,0.0250
1036.00,0.0247
1035.00,0.0244
1034.00,0.0242
1033.00,0.0239
1032.00,0.0236
1031.00,0.0234
1030.00,0.0231
1029.00,0.0228
1028.00,0.0225
1027.00,0.0221
1026.00,0.0219
1025.00,0.0215
1024.00,0.0212
1023.00,0.0209
1022.00,0.0207
1021.00,0.0204
1020.00,0.0202
1019.00,0.0199
1018.00,0.0197
1017.00,0.0195
1016.00,0.0192
1015.00,0.0190
1014.00,0.0188
1013.00,0.0186
1012.00,0.0184
1011.00,0.0182
1010.00,0.0181
1009.00,0.0180
1008.00,0.0178
1007.00,0.0176
1006.00,0.0175
1005.00,0.0174
1004.00,0.0173
1003.00,0.0172
1002.00,0.0171
1001.00,0.0170
1000.00,0.0169
999.00,0.0168
998.00,0.0167
997.00,0.0167
996.00,0.0166
995.00,0.0165
994.00,0.0165
993.00,0.0164
992.00,0.0163
991.00,0.0163
990.00,0.0162
989.00,0.0162
988.00,0.0161
987.00,0.0160
986.00,0.0160
985.00,0.0160
984.00,0.0159
983.00,0.0159
982.00,0.0159
981.00,0.0158
980.00,0.0158
979.00,0.0158
978.00,0.0159
977.00,0.0160
976.00,0.0160
975.00,0.0160
974.00,0.0160
973.00,0.0161
972.00,0.0161
971.00,0.0162
970.00,0.0163
969.00,0.0164
968.00,0.0165
967.00,0.0166
966.00,0.0168
965.00,0.0170
964.00,0.0171
963.00,0.0171
962.00,0.0172
961.00,0.0173
960.00,0.0172
959.00,0.0172
958.00,0.0171
957.00,0.0171
956.00,0.0170
955.00,0.0169
954.00,0.0168
953.00,0.0168
952.00,0.0167
951.00,0.0166
950.00,0.0166
949.00,0.0166
948.00,0.0165
947.00,0.0164
946.00,0.0164
945.00,0.0164
944.00,0.0163
943.00,0.0163
942.00,0.0163
941.00,0.0163
940.00,0.0162
939.00,0.0162
938.00,0.0163
937.00,0.0163
936.00,0.0163
935.00,0.0163
934.00,0.0163
933.00,0.0163
932.00,0.0163
931.00,0.0163
930.00,0.0163
929.00,0.0163
928.00,0.0162
927.00,0.0162
926.00,0.0162
925.00,0.0162
924.00,0.0161
923.00,0.0160
922.00,0.0160
921.00,0.0159
920.00,0.0159
919.00,0.0158
918.00,0.0157
917.00,0.0156
916.00,0.0156
915.00,0.0155
914.00,0.0155
913.00,0.0156
912.00,0.0156
911.00,0.0156
910.00,0.0157
909.00,0.0158
908.00,0.0158
907.00,0.0158
906.00,0.0159
905.00,0.0160
904.00,0.0160
903.00,0.0160
902.00,0.0161
901.00,0.0161
900.00,0.0161
899.00,0.0160
898.00,0.0160
897.00,0.0160
896.00,0.0160
895.00,0.0159
894.00,0.0159
893.00,0.0158
892.00,0.0157
891.00,0.0156
890.00,0.0156
889.00,0.0155
888.00,0.0154
887.00,0.0153
886.00,0.0153
885.00,0.0152
884.00,0.0152
883.00,0.0151
882.00,0.0152
881.00,0.0152
880.00,0.0151
879.00,0.0151
878.00,0.0152
877.00,0.0152
876.00,0.0151
875.00,0.0151
874.00,0.0151
873.00,0.0151
872.00,0.0151
871.00,0.0150
870.00,0.0151
869.00,0.0151
868.00,0.0150
867.00,0.0150
866.00,0.0150
865.00,0.0150
864.00,0.0149
863.00,0.0149
862.00,0.0149
861.00,0.0150
860.00,0.0150
859.00,0.0150
858.00,0.0151
857.00,0.0151
856.00,0.0151
855.00,0.0152
854.00,0.0152
853.00,0.0153
852.00,0.0153
851.00,0.0154
850.00,0.0154
849.00,0.0155
848.00,0.0155
847.00,0.0155
846.00,0.0155
845.00,0.0156
844.00,0.0157
843.00,0.0158
842.00,0.0159
841.00,0.0161
840.00,0.0161
839.00,0.0162
838.00,0.0164
837.00,0.0165
836.00,0.0166
835.00,0.0168
834.00,0.0170
833.00,0.0171
832.00,0.0173
831.00,0.0174
830.00,0.0176
829.00,0.0178
828.00,0.0179
827.00,0.0179
826.00,0.0181
825.00,0.0182
824.00,0.0182
823.00,0.0183
822.00,0.0185
821.00,0.0186
820.00,0.0186
819.00,0.0187
818.00,0.0189
817.00,0.0191
816.00,0.0191
815.00,0.0192
814.00,0.0194
813.00,0.0195
812.00,0.0196
811.00,0.0197
810.00,0.0199
809.00,0.0200
808.00,0.0201
807.00,0.0202
806.00,0.0203
805.00,0.0204
804.00,0.0205
803.00,0.0206
802.00,0.0207
801.00,0.0209
800.00,0.0209
799.00,0.0210
798.00,0.0211
797.00,0.0212
796.00,0.0213
795.00,0.0214
794.00,0.0216
793.00,0.0218
792.00,0.0220
791.00,0.0222
790.00,0.0224
789.00,0.0226
788.00,0.0227
787.00,0.0229
786.00,0.0231
785.00,0.0233
784.00,0.0235
783.00,0.0237
782.00,0.0239
781.00,0.0241
780.00,0.0243
779.00,0.0245
778.00,0.0247
777.00,0.0249
776.00,0.0251
775.00,0.0252
774.00,0.0255
773.00,0.0256
772.00,0.0258
771.00,0.0259
770.00,0.0260
769.00,0.0262
768.00,0.0263
767.00,0.0263
766.00,0.0265
765.00,0.0266
764.00,0.0266
763.00,0.0267
762.00,0.0268
761.00,0.0269
760.00,0.0270
759.00,0.0270
758.00,0.0272
757.00,0.0273
756.00,0.0274
755.00,0.0276
754.00,0.0278
753.00,0.0280
752.00,0.0282
751.00,0.0283
750.00,0.0286
749.00,0.0287
748.00,0.0288
747.00,0.0289
746.00,0.0290
745.00,0.0292
744.00,0.0292
743.00,0.0293
742.00,0.0294
741.00,0.0295
740.00,0.0296
739.00,0.0297
738.00,0.0299
737.00,0.0301
736.00,0.0302
735.00,0.0304
734.00,0.0306
733.00,0.0308
732.00,0.0310
731.00,0.0312
730.00,0.0316
729.00,0.0319
728.00,0.0323
727.00,0.0327
726.00,0.0332
725.00,0.0337
724.00,0.0341
723.00,0.0345
722.00,0.0350
721.00,0.0355
720.00,0.0360
719.00,0.0365
718.00,0.0371
717.00,0.0377
716.00,0.0382
715.00,0.0387
714.00,0.0393
713.00,0.0398
712.00,0.0403
711.00,0.0408
710.00,0.0413
709.00,0.0419
708.00,0.0423
707.00,0.0428
706.00,0.0433
705.00,0.0438
704.00,0.0442
703.00,0.0445
702.00,0.0449
701.00,0.0452
700.00,0.0454
699.00,0.0455
698.00,0.0457
697.00,0.0457
696.00,0.0457
695.00,0.0457
694.00,0.0457
693.00,0.0457
692.00,0.0457
691.00,0.0457
690.00,0.0458
689.00,0.0459
688.00,0.0459
687.00,0.0459
686.00,0.0461
685.00,0.0461
684.00,0.0461
683.00,0.0461
682.00,0.0463
681.00,0.0463
680.00,0.0463
679.00,0.0463
678.00,0.0464
677.00,0.0465
676.00,0.0465
675.00,0.0465
674.00,0.0467
673.00,0.0467
672.00,0.0467
671.00,0.0467
670.00,0.0469
669.00,0.0470
668.00,0.0471
667.00,0.0472
666.00,0.0473
665.00,0.0473
664.00,0.0472
663.00,0.0472
662.00,0.0473
661.00,0.0474
660.00,0.0474
659.00,0.0475
658.00,0.0477
657.00,0.0478
656.00,0.0478
655.00,0.0479
654.00,0.0481
653.00,0.0482
652.00,0.0483
651.00,0.0483
650.00,0.0485
649.00,0.0486
648.00,0.0487
647.00,0.0488
646.00,0.0490
645.00,0.0493
644.00,0.0494
643.00,0.0495
642.00,0.0497
641.00,0.0499
640.00,0.0500
639.00,0.0501
638.00,0.0504
637.00,0.0506
636.00,0.0507
635.00,0.0508
634.00,0.0510
633.00,0.0512
632.00,0.0512
631.00,0.0513
630.00,0.0515
629.00,0.0517
628.00,0.0517
627.00,0.0517
626.00,0.0518
625.00,0.0519
624.00,0.0518
623.00,0.0518
622.00,0.0518
621.00,0.0518
620.00,0.0517
619.00,0.0516
618.00,0.0515
617.00,0.0515
616.00,0.0513
615.00,0.0511
614.00,0.0511
613.00,0.0509
612.00,0.0507
611.00,0.0504
610.00,0.0503
609.00,0.0503
608.00,0.0502
607.00,0.0501
606.00,0.0502
605.00,0.0502
604.00,0.0500
603.00,0.0499
602.00,0.0499
601.00,0.0500
600.00,0.0498
599.00,0.0497
598.00,0.0498
597.00,0.0498
596.00,0.0497
595.00,0.0497
594.00,0.0498
593.00,0.0499
592.00,0.0498
591.00,0.0498
590.00,0.0499
589.00,0.0499
588.00,0.0498
587.00,0.0498
586.00,0.0500
585.00,0.0501
584.00,0.0501
583.00,0.0501
582.00,0.0502
581.00,0.0503
580.00,0.0503
579.00,0.0502
578.00,0.0504
577.00,0.0505
576.00,0.0505
575.00,0.0506
574.00,0.0507
573.00,0.0508
572.00,0.0507
571.00,0.0507
570.00,0.0508
569.00,0.0509
568.00,0.0508
567.00,0.0508
566.00,0.0510
565.00,0.0511
564.00,0.0511
563.00,0.0510
562.00,0.0511
561.00,0.0513
560.00,0.0512
559.00,0.0512
558.00,0.0513
557.00,0.0514
556.00,0.0512
555.00,0.0512
554.00,0.0514
553.00,0.0515
552.00,0.0514
551.00,0.0513
550.00,0.0515
549.00,0.0516
548.00,0.0515
547.00,0.0515
546.00,0.0517
545.00,0.0517
544.00,0.0516
543.00,0.0515
542.00,0.0517
541.00,0.0517
540.00,0.0515
539.00,0.0514
538.00,0.0515
537.00,0.0516
536.00,0.0515
535.00,0.0514
534.00,0.0516
533.00,0.0518
532.00,0.0518
531.00,0.0517
530.00,0.0519
529.00,0.0520
528.00,0.0519
527.00,0.0518
526.00,0.0520
525.00,0.0522
524.00,0.0520
523.00,0.0519
522.00,0.0521
521.00,0.0521
520.00,0.0520
519.00,0.0520
518.00,0.0522
517.00,0.0523
516.00,0.0521
515.00,0.0519
514.00,0.0520
513.00,0.0520
512.00,0.0518
511.00,0.0515
510.00,0.0516
509.00,0.0516
508.00,0.0514
507.00,0.0512
506.00,0.0513
505.00,0.0513
504.00,0.0510
503.00,0.0509
502.00,0.0510
501.00,0.0511
500.00,0.0509
499.00,0.0509
498.00,0.0511
497.00,0.0513
496.00,0.0511
495.00,0.0510
494.00,0.0510
493.00,0.0511
492.00,0.0508
491.00,0.0505
490.00,0.0506
489.00,0.0506
488.00,0.0503
487.00,0.0502
486.00,0.0504
485.00,0.0506
484.00,0.0505
483.00,0.0504
482.00,0.0505
481.00,0.0506
480.00,0.0503
479.00,0.0502
478.00,0.0504
477.00,0.0505
476.00,0.0503
475.00,0.0500
474.00,0.0502
473.00,0.0504
472.00,0.0502
471.00,0.0500
470.00,0.0503
469.00,0.0504
468.00,0.0500
467.00,0.0498
466.00,0.0500
465.00,0.0503
464.00,0.0501
463.00,0.0499
462.00,0.0502
461.00,0.0503
460.00,0.0499
459.00,0.0496
458.00,0.0498
457.00,0.0500
456.00,0.0496
455.00,0.0494
454.00,0.0496
453.00,0.0498
452.00,0.0494
451.00,0.0491
450.00,0.0493
449.00,0.0493
448.00,0.0487
447.00,0.0482
446.00,0.0483
445.00,0.0484
444.00,0.0480
443.00,0.0477
442.00,0.0480
441.00,0.0482
440.00,0.0477
439.00,0.0472
438.00,0.0472
437.00,0.0471
436.00,0.0466
435.00,0.0461
434.00,0.0462
433.00,0.0462
432.00,0.0455
431.00,0.0449
430.00,0.0451
429.00,0.0452
428.00,0.0447
427.00,0.0443
426.00,0.0444
425.00,0.0443
424.00,0.0436
423.00,0.0433
422.00,0.0439
421.00,0.0443
420.00,0.0435
419.00,0.0426
418.00,0.0431
417.00,0.0433
416.00,0.0425
415.00,0.0420
414.00,0.0426
413.00,0.0430
412.00,0.0424
411.00,0.0420
410.00,0.0428
409.00,0.0432
408.00,0.0422
407.00,0.0413
406.00,0.0419
405.00,0.0424
404.00,0.0416
403.00,0.0408
402.00,0.0413
401.00,0.0415
400.00,0.0398
