Created as New Dataset,Sample 314 By YargerLab Date Sunday, August 18 2024
cm-1,A
4000.00,0.0081
3999.00,0.0081
3998.00,0.0081
3997.00,0.0081
3996.00,0.0081
3995.00,0.0081
3994.00,0.0081
3993.00,0.0081
3992.00,0.0081
3991.00,0.0081
3990.00,0.0081
3989.00,0.0081
3988.00,0.0081
3987.00,0.0081
3986.00,0.0081
3985.00,0.0081
3984.00,0.0081
3983.00,0.0081
3982.00,0.0081
3981.00,0.0081
3980.00,0.0081
3979.00,0.0081
3978.00,0.0081
3977.00,0.0081
3976.00,0.0081
3975.00,0.0081
3974.00,0.0081
3973.00,0.0081
3972.00,0.0081
3971.00,0.0081
3970.00,0.0081
3969.00,0.0081
3968.00,0.0081
3967.00,0.0081
3966.00,0.0081
3965.00,0.0081
3964.00,0.0081
3963.00,0.0081
3962.00,0.0081
3961.00,0.0081
3960.00,0.0081
3959.00,0.0081
3958.00,0.0081
3957.00,0.0081
3956.00,0.0080
3955.00,0.0080
3954.00,0.0080
3953.00,0.0080
3952.00,0.0080
3951.00,0.0080
3950.00,0.0081
3949.00,0.0081
3948.00,0.0081
3947.00,0.0081
3946.00,0.0081
3945.00,0.0080
3944.00,0.0080
3943.00,0.0080
3942.00,0.0080
3941.00,0.0081
3940.00,0.0081
3939.00,0.0081
3938.00,0.0081
3937.00,0.0081
3936.00,0.0081
3935.00,0.0081
3934.00,0.0081
3933.00,0.0080
3932.00,0.0080
3931.00,0.0080
3930.00,0.0080
3929.00,0.0080
3928.00,0.0080
3927.00,0.0080
3926.00,0.0080
3925.00,0.0080
3924.00,0.0080
3923.00,0.0080
3922.00,0.0080
3921.00,0.0080
3920.00,0.0080
3919.00,0.0080
3918.00,0.0080
3917.00,0.0080
3916.00,0.0080
3915.00,0.0080
3914.00,0.0080
3913.00,0.0080
3912.00,0.0080
3911.00,0.0080
3910.00,0.0080
3909.00,0.0080
3908.00,0.0080
3907.00,0.0080
3906.00,0.0080
3905.00,0.0080
3904.00,0.0080
3903.00,0.0080
3902.00,0.0080
3901.00,0.0080
3900.00,0.0080
3899.00,0.0079
3898.00,0.0079
3897.00,0.0079
3896.00,0.0080
3895.00,0.0080
3894.00,0.0080
3893.00,0.0079
3892.00,0.0079
3891.00,0.0079
3890.00,0.0080
3889.00,0.0080
3888.00,0.0079
3887.00,0.0079
3886.00,0.0079
3885.00,0.0079
3884.00,0.0079
3883.00,0.0079
3882.00,0.0079
3881.00,0.0079
3880.00,0.0079
3879.00,0.0079
3878.00,0.0079
3877.00,0.0079
3876.00,0.0079
3875.00,0.0079
3874.00,0.0079
3873.00,0.0079
3872.00,0.0079
3871.00,0.0079
3870.00,0.0079
3869.00,0.0079
3868.00,0.0079
3867.00,0.0079
3866.00,0.0079
3865.00,0.0078
3864.00,0.0078
3863.00,0.0078
3862.00,0.0078
3861.00,0.0078
3860.00,0.0078
3859.00,0.0078
3858.00,0.0078
3857.00,0.0078
3856.00,0.0078
3855.00,0.0078
3854.00,0.0078
3853.00,0.0078
3852.00,0.0078
3851.00,0.0078
3850.00,0.0078
3849.00,0.0078
3848.00,0.0078
3847.00,0.0078
3846.00,0.0079
3845.00,0.0079
3844.00,0.0078
3843.00,0.0078
3842.00,0.0078
3841.00,0.0078
3840.00,0.0078
3839.00,0.0078
3838.00,0.0078
3837.00,0.0078
3836.00,0.0078
3835.00,0.0078
3834.00,0.0078
3833.00,0.0078
3832.00,0.0078
3831.00,0.0078
3830.00,0.0078
3829.00,0.0078
3828.00,0.0078
3827.00,0.0078
3826.00,0.0078
3825.00,0.0078
3824.00,0.0078
3823.00,0.0078
3822.00,0.0078
3821.00,0.0078
3820.00,0.0078
3819.00,0.0077
3818.00,0.0077
3817.00,0.0077
3816.00,0.0077
3815.00,0.0077
3814.00,0.0077
3813.00,0.0077
3812.00,0.0077
3811.00,0.0077
3810.00,0.0078
3809.00,0.0078
3808.00,0.0077
3807.00,0.0077
3806.00,0.0077
3805.00,0.0077
3804.00,0.0077
3803.00,0.0077
3802.00,0.0076
3801.00,0.0076
3800.00,0.0076
3799.00,0.0076
3798.00,0.0076
3797.00,0.0076
3796.00,0.0077
3795.00,0.0077
3794.00,0.0077
3793.00,0.0077
3792.00,0.0077
3791.00,0.0077
3790.00,0.0077
3789.00,0.0077
3788.00,0.0077
3787.00,0.0076
3786.00,0.0076
3785.00,0.0076
3784.00,0.0076
3783.00,0.0076
3782.00,0.0076
3781.00,0.0076
3780.00,0.0076
3779.00,0.0076
3778.00,0.0076
3777.00,0.0076
3776.00,0.0076
3775.00,0.0076
3774.00,0.0076
3773.00,0.0076
3772.00,0.0076
3771.00,0.0076
3770.00,0.0076
3769.00,0.0076
3768.00,0.0076
3767.00,0.0075
3766.00,0.0075
3765.00,0.0075
3764.00,0.0076
3763.00,0.0076
3762.00,0.0076
3761.00,0.0076
3760.00,0.0076
3759.00,0.0076
3758.00,0.0076
3757.00,0.0076
3756.00,0.0076
3755.00,0.0076
3754.00,0.0076
3753.00,0.0076
3752.00,0.0076
3751.00,0.0076
3750.00,0.0076
3749.00,0.0076
3748.00,0.0076
3747.00,0.0076
3746.00,0.0076
3745.00,0.0075
3744.00,0.0075
3743.00,0.0075
3742.00,0.0075
3741.00,0.0075
3740.00,0.0075
3739.00,0.0075
3738.00,0.0075
3737.00,0.0074
3736.00,0.0074
3735.00,0.0074
3734.00,0.0074
3733.00,0.0074
3732.00,0.0074
3731.00,0.0074
3730.00,0.0074
3729.00,0.0074
3728.00,0.0074
3727.00,0.0074
3726.00,0.0074
3725.00,0.0074
3724.00,0.0074
3723.00,0.0074
3722.00,0.0074
3721.00,0.0073
3720.00,0.0073
3719.00,0.0073
3718.00,0.0073
3717.00,0.0073
3716.00,0.0073
3715.00,0.0073
3714.00,0.0073
3713.00,0.0073
3712.00,0.0073
3711.00,0.0073
3710.00,0.0073
3709.00,0.0073
3708.00,0.0073
3707.00,0.0072
3706.00,0.0072
3705.00,0.0072
3704.00,0.0072
3703.00,0.0072
3702.00,0.0072
3701.00,0.0071
3700.00,0.0072
3699.00,0.0072
3698.00,0.0072
3697.00,0.0072
3696.00,0.0072
3695.00,0.0072
3694.00,0.0072
3693.00,0.0072
3692.00,0.0071
3691.00,0.0071
3690.00,0.0071
3689.00,0.0071
3688.00,0.0071
3687.00,0.0071
3686.00,0.0071
3685.00,0.0071
3684.00,0.0071
3683.00,0.0072
3682.00,0.0072
3681.00,0.0072
3680.00,0.0072
3679.00,0.0072
3678.00,0.0072
3677.00,0.0072
3676.00,0.0072
3675.00,0.0072
3674.00,0.0072
3673.00,0.0071
3672.00,0.0071
3671.00,0.0071
3670.00,0.0072
3669.00,0.0072
3668.00,0.0072
3667.00,0.0072
3666.00,0.0072
3665.00,0.0072
3664.00,0.0072
3663.00,0.0072
3662.00,0.0072
3661.00,0.0073
3660.00,0.0073
3659.00,0.0073
3658.00,0.0073
3657.00,0.0074
3656.00,0.0074
3655.00,0.0074
3654.00,0.0074
3653.00,0.0074
3652.00,0.0074
3651.00,0.0074
3650.00,0.0074
3649.00,0.0074
3648.00,0.0074
3647.00,0.0074
3646.00,0.0074
3645.00,0.0074
3644.00,0.0074
3643.00,0.0074
3642.00,0.0074
3641.00,0.0074
3640.00,0.0075
3639.00,0.0075
3638.00,0.0075
3637.00,0.0075
3636.00,0.0076
3635.00,0.0076
3634.00,0.0076
3633.00,0.0076
3632.00,0.0076
3631.00,0.0076
3630.00,0.0077
3629.00,0.0077
3628.00,0.0077
3627.00,0.0077
3626.00,0.0077
3625.00,0.0077
3624.00,0.0077
3623.00,0.0077
3622.00,0.0078
3621.00,0.0078
3620.00,0.0078
3619.00,0.0078
3618.00,0.0079
3617.00,0.0079
3616.00,0.0079
3615.00,0.0080
3614.00,0.0080
3613.00,0.0080
3612.00,0.0081
3611.00,0.0081
3610.00,0.0081
3609.00,0.0081
3608.00,0.0081
3607.00,0.0081
3606.00,0.0082
3605.00,0.0082
3604.00,0.0082
3603.00,0.0082
3602.00,0.0082
3601.00,0.0082
3600.00,0.0082
3599.00,0.0083
3598.00,0.0083
3597.00,0.0083
3596.00,0.0083
3595.00,0.0084
3594.00,0.0084
3593.00,0.0084
3592.00,0.0085
3591.00,0.0085
3590.00,0.0085
3589.00,0.0085
3588.00,0.0085
3587.00,0.0086
3586.00,0.0086
3585.00,0.0086
3584.00,0.0087
3583.00,0.0087
3582.00,0.0087
3581.00,0.0087
3580.00,0.0088
3579.00,0.0088
3578.00,0.0088
3577.00,0.0088
3576.00,0.0089
3575.00,0.0089
3574.00,0.0089
3573.00,0.0090
3572.00,0.0090
3571.00,0.0091
3570.00,0.0091
3569.00,0.0091
3568.00,0.0092
3567.00,0.0092
3566.00,0.0092
3565.00,0.0092
3564.00,0.0093
3563.00,0.0093
3562.00,0.0093
3561.00,0.0093
3560.00,0.0094
3559.00,0.0094
3558.00,0.0095
3557.00,0.0095
3556.00,0.0096
3555.00,0.0096
3554.00,0.0096
3553.00,0.0097
3552.00,0.0097
3551.00,0.0098
3550.00,0.0098
3549.00,0.0098
3548.00,0.0099
3547.00,0.0099
3546.00,0.0100
3545.00,0.0100
3544.00,0.0100
3543.00,0.0100
3542.00,0.0101
3541.00,0.0101
3540.00,0.0101
3539.00,0.0102
3538.00,0.0102
3537.00,0.0102
3536.00,0.0103
3535.00,0.0103
3534.00,0.0103
3533.00,0.0104
3532.00,0.0104
3531.00,0.0104
3530.00,0.0105
3529.00,0.0105
3528.00,0.0106
3527.00,0.0106
3526.00,0.0107
3525.00,0.0107
3524.00,0.0107
3523.00,0.0108
3522.00,0.0108
3521.00,0.0108
3520.00,0.0108
3519.00,0.0109
3518.00,0.0109
3517.00,0.0109
3516.00,0.0110
3515.00,0.0110
3514.00,0.0110
3513.00,0.0111
3512.00,0.0111
3511.00,0.0111
3510.00,0.0112
3509.00,0.0112
3508.00,0.0113
3507.00,0.0113
3506.00,0.0113
3505.00,0.0114
3504.00,0.0114
3503.00,0.0114
3502.00,0.0115
3501.00,0.0115
3500.00,0.0116
3499.00,0.0116
3498.00,0.0116
3497.00,0.0117
3496.00,0.0117
3495.00,0.0117
3494.00,0.0117
3493.00,0.0118
3492.00,0.0118
3491.00,0.0118
3490.00,0.0119
3489.00,0.0119
3488.00,0.0120
3487.00,0.0120
3486.00,0.0121
3485.00,0.0121
3484.00,0.0121
3483.00,0.0122
3482.00,0.0122
3481.00,0.0123
3480.00,0.0123
3479.00,0.0123
3478.00,0.0124
3477.00,0.0124
3476.00,0.0124
3475.00,0.0125
3474.00,0.0125
3473.00,0.0125
3472.00,0.0126
3471.00,0.0126
3470.00,0.0127
3469.00,0.0127
3468.00,0.0128
3467.00,0.0128
3466.00,0.0128
3465.00,0.0128
3464.00,0.0129
3463.00,0.0129
3462.00,0.0130
3461.00,0.0130
3460.00,0.0131
3459.00,0.0131
3458.00,0.0131
3457.00,0.0131
3456.00,0.0132
3455.00,0.0132
3454.00,0.0132
3453.00,0.0133
3452.00,0.0133
3451.00,0.0134
3450.00,0.0134
3449.00,0.0134
3448.00,0.0135
3447.00,0.0135
3446.00,0.0136
3445.00,0.0136
3444.00,0.0137
3443.00,0.0137
3442.00,0.0137
3441.00,0.0138
3440.00,0.0138
3439.00,0.0138
3438.00,0.0139
3437.00,0.0139
3436.00,0.0140
3435.00,0.0140
3434.00,0.0140
3433.00,0.0141
3432.00,0.0141
3431.00,0.0142
3430.00,0.0142
3429.00,0.0142
3428.00,0.0143
3427.00,0.0143
3426.00,0.0144
3425.00,0.0144
3424.00,0.0145
3423.00,0.0145
3422.00,0.0145
3421.00,0.0146
3420.00,0.0146
3419.00,0.0146
3418.00,0.0146
3417.00,0.0147
3416.00,0.0147
3415.00,0.0148
3414.00,0.0148
3413.00,0.0148
3412.00,0.0149
3411.00,0.0149
3410.00,0.0150
3409.00,0.0150
3408.00,0.0150
3407.00,0.0151
3406.00,0.0151
3405.00,0.0151
3404.00,0.0152
3403.00,0.0152
3402.00,0.0152
3401.00,0.0153
3400.00,0.0153
3399.00,0.0154
3398.00,0.0154
3397.00,0.0154
3396.00,0.0154
3395.00,0.0155
3394.00,0.0155
3393.00,0.0155
3392.00,0.0156
3391.00,0.0156
3390.00,0.0156
3389.00,0.0157
3388.00,0.0157
3387.00,0.0157
3386.00,0.0158
3385.00,0.0158
3384.00,0.0159
3383.00,0.0159
3382.00,0.0159
3381.00,0.0160
3380.00,0.0160
3379.00,0.0160
3378.00,0.0161
3377.00,0.0161
3376.00,0.0162
3375.00,0.0162
3374.00,0.0162
3373.00,0.0163
3372.00,0.0163
3371.00,0.0164
3370.00,0.0164
3369.00,0.0165
3368.00,0.0165
3367.00,0.0166
3366.00,0.0166
3365.00,0.0167
3364.00,0.0167
3363.00,0.0167
3362.00,0.0168
3361.00,0.0169
3360.00,0.0169
3359.00,0.0170
3358.00,0.0170
3357.00,0.0171
3356.00,0.0172
3355.00,0.0172
3354.00,0.0173
3353.00,0.0173
3352.00,0.0174
3351.00,0.0174
3350.00,0.0175
3349.00,0.0176
3348.00,0.0176
3347.00,0.0177
3346.00,0.0178
3345.00,0.0178
3344.00,0.0179
3343.00,0.0180
3342.00,0.0180
3341.00,0.0181
3340.00,0.0182
3339.00,0.0183
3338.00,0.0184
3337.00,0.0185
3336.00,0.0186
3335.00,0.0187
3334.00,0.0187
3333.00,0.0188
3332.00,0.0189
3331.00,0.0190
3330.00,0.0191
3329.00,0.0192
3328.00,0.0193
3327.00,0.0194
3326.00,0.0195
3325.00,0.0196
3324.00,0.0197
3323.00,0.0199
3322.00,0.0200
3321.00,0.0201
3320.00,0.0202
3319.00,0.0203
3318.00,0.0205
3317.00,0.0206
3316.00,0.0208
3315.00,0.0209
3314.00,0.0210
3313.00,0.0212
3312.00,0.0213
3311.00,0.0214
3310.00,0.0215
3309.00,0.0217
3308.00,0.0218
3307.00,0.0220
3306.00,0.0221
3305.00,0.0223
3304.00,0.0225
3303.00,0.0227
3302.00,0.0229
3301.00,0.0230
3300.00,0.0232
3299.00,0.0234
3298.00,0.0235
3297.00,0.0237
3296.00,0.0238
3295.00,0.0240
3294.00,0.0241
3293.00,0.0243
3292.00,0.0245
3291.00,0.0247
3290.00,0.0248
3289.00,0.0250
3288.00,0.0252
3287.00,0.0253
3286.00,0.0255
3285.00,0.0256
3284.00,0.0258
3283.00,0.0259
3282.00,0.0260
3281.00,0.0261
3280.00,0.0262
3279.00,0.0263
3278.00,0.0263
3277.00,0.0264
3276.00,0.0264
3275.00,0.0265
3274.00,0.0265
3273.00,0.0265
3272.00,0.0265
3271.00,0.0265
3270.00,0.0265
3269.00,0.0265
3268.00,0.0265
3267.00,0.0264
3266.00,0.0264
3265.00,0.0263
3264.00,0.0262
3263.00,0.0261
3262.00,0.0260
3261.00,0.0259
3260.00,0.0258
3259.00,0.0257
3258.00,0.0255
3257.00,0.0254
3256.00,0.0253
3255.00,0.0252
3254.00,0.0250
3253.00,0.0249
3252.00,0.0248
3251.00,0.0246
3250.00,0.0244
3249.00,0.0243
3248.00,0.0241
3247.00,0.0240
3246.00,0.0239
3245.00,0.0238
3244.00,0.0236
3243.00,0.0235
3242.00,0.0234
3241.00,0.0233
3240.00,0.0232
3239.00,0.0230
3238.00,0.0229
3237.00,0.0228
3236.00,0.0227
3235.00,0.0225
3234.00,0.0224
3233.00,0.0223
3232.00,0.0222
3231.00,0.0222
3230.00,0.0221
3229.00,0.0220
3228.00,0.0219
3227.00,0.0218
3226.00,0.0218
3225.00,0.0217
3224.00,0.0216
3223.00,0.0215
3222.00,0.0214
3221.00,0.0213
3220.00,0.0212
3219.00,0.0212
3218.00,0.0211
3217.00,0.0210
3216.00,0.0210
3215.00,0.0209
3214.00,0.0208
3213.00,0.0208
3212.00,0.0207
3211.00,0.0206
3210.00,0.0206
3209.00,0.0205
3208.00,0.0204
3207.00,0.0204
3206.00,0.0203
3205.00,0.0202
3204.00,0.0202
3203.00,0.0201
3202.00,0.0200
3201.00,0.0200
3200.00,0.0199
3199.00,0.0199
3198.00,0.0198
3197.00,0.0197
3196.00,0.0197
3195.00,0.0196
3194.00,0.0195
3193.00,0.0195
3192.00,0.0194
3191.00,0.0193
3190.00,0.0193
3189.00,0.0192
3188.00,0.0192
3187.00,0.0191
3186.00,0.0190
3185.00,0.0190
3184.00,0.0189
3183.00,0.0189
3182.00,0.0188
3181.00,0.0187
3180.00,0.0186
3179.00,0.0186
3178.00,0.0185
3177.00,0.0184
3176.00,0.0184
3175.00,0.0183
3174.00,0.0182
3173.00,0.0182
3172.00,0.0181
3171.00,0.0180
3170.00,0.0180
3169.00,0.0179
3168.00,0.0179
3167.00,0.0178
3166.00,0.0177
3165.00,0.0176
3164.00,0.0176
3163.00,0.0175
3162.00,0.0174
3161.00,0.0174
3160.00,0.0173
3159.00,0.0173
3158.00,0.0172
3157.00,0.0171
3156.00,0.0171
3155.00,0.0170
3154.00,0.0169
3153.00,0.0169
3152.00,0.0168
3151.00,0.0168
3150.00,0.0167
3149.00,0.0167
3148.00,0.0166
3147.00,0.0166
3146.00,0.0165
3145.00,0.0165
3144.00,0.0164
3143.00,0.0164
3142.00,0.0163
3141.00,0.0162
3140.00,0.0162
3139.00,0.0161
3138.00,0.0161
3137.00,0.0161
3136.00,0.0160
3135.00,0.0160
3134.00,0.0159
3133.00,0.0159
3132.00,0.0159
3131.00,0.0159
3130.00,0.0158
3129.00,0.0158
3128.00,0.0157
3127.00,0.0157
3126.00,0.0157
3125.00,0.0156
3124.00,0.0156
3123.00,0.0155
3122.00,0.0155
3121.00,0.0155
3120.00,0.0154
3119.00,0.0154
3118.00,0.0154
3117.00,0.0154
3116.00,0.0154
3115.00,0.0154
3114.00,0.0154
3113.00,0.0154
3112.00,0.0153
3111.00,0.0153
3110.00,0.0153
3109.00,0.0153
3108.00,0.0153
3107.00,0.0153
3106.00,0.0153
3105.00,0.0153
3104.00,0.0153
3103.00,0.0153
3102.00,0.0153
3101.00,0.0153
3100.00,0.0153
3099.00,0.0153
3098.00,0.0153
3097.00,0.0153
3096.00,0.0153
3095.00,0.0153
3094.00,0.0153
3093.00,0.0153
3092.00,0.0153
3091.00,0.0153
3090.00,0.0153
3089.00,0.0153
3088.00,0.0153
3087.00,0.0153
3086.00,0.0153
3085.00,0.0153
3084.00,0.0153
3083.00,0.0153
3082.00,0.0153
3081.00,0.0153
3080.00,0.0153
3079.00,0.0153
3078.00,0.0153
3077.00,0.0154
3076.00,0.0154
3075.00,0.0154
3074.00,0.0154
3073.00,0.0154
3072.00,0.0154
3071.00,0.0154
3070.00,0.0154
3069.00,0.0153
3068.00,0.0153
3067.00,0.0153
3066.00,0.0153
3065.00,0.0153
3064.00,0.0153
3063.00,0.0153
3062.00,0.0153
3061.00,0.0153
3060.00,0.0153
3059.00,0.0152
3058.00,0.0152
3057.00,0.0151
3056.00,0.0151
3055.00,0.0151
3054.00,0.0150
3053.00,0.0150
3052.00,0.0150
3051.00,0.0149
3050.00,0.0149
3049.00,0.0148
3048.00,0.0148
3047.00,0.0147
3046.00,0.0147
3045.00,0.0146
3044.00,0.0146
3043.00,0.0146
3042.00,0.0145
3041.00,0.0145
3040.00,0.0145
3039.00,0.0145
3038.00,0.0144
3037.00,0.0144
3036.00,0.0143
3035.00,0.0143
3034.00,0.0142
3033.00,0.0142
3032.00,0.0142
3031.00,0.0142
3030.00,0.0141
3029.00,0.0141
3028.00,0.0141
3027.00,0.0140
3026.00,0.0140
3025.00,0.0139
3024.00,0.0139
3023.00,0.0138
3022.00,0.0138
3021.00,0.0137
3020.00,0.0137
3019.00,0.0137
3018.00,0.0136
3017.00,0.0136
3016.00,0.0135
3015.00,0.0135
3014.00,0.0134
3013.00,0.0134
3012.00,0.0134
3011.00,0.0134
3010.00,0.0134
3009.00,0.0134
3008.00,0.0134
3007.00,0.0134
3006.00,0.0133
3005.00,0.0133
3004.00,0.0133
3003.00,0.0133
3002.00,0.0133
3001.00,0.0133
3000.00,0.0133
2999.00,0.0133
2998.00,0.0132
2997.00,0.0133
2996.00,0.0133
2995.00,0.0133
2994.00,0.0133
2993.00,0.0133
2992.00,0.0134
2991.00,0.0134
2990.00,0.0134
2989.00,0.0135
2988.00,0.0135
2987.00,0.0136
2986.00,0.0136
2985.00,0.0136
2984.00,0.0137
2983.00,0.0137
2982.00,0.0137
2981.00,0.0138
2980.00,0.0138
2979.00,0.0139
2978.00,0.0139
2977.00,0.0139
2976.00,0.0140
2975.00,0.0140
2974.00,0.0141
2973.00,0.0141
2972.00,0.0141
2971.00,0.0142
2970.00,0.0142
2969.00,0.0142
2968.00,0.0142
2967.00,0.0142
2966.00,0.0142
2965.00,0.0142
2964.00,0.0142
2963.00,0.0142
2962.00,0.0141
2961.00,0.0141
2960.00,0.0141
2959.00,0.0141
2958.00,0.0141
2957.00,0.0140
2956.00,0.0140
2955.00,0.0140
2954.00,0.0140
2953.00,0.0140
2952.00,0.0139
2951.00,0.0139
2950.00,0.0139
2949.00,0.0139
2948.00,0.0140
2947.00,0.0140
2946.00,0.0140
2945.00,0.0140
2944.00,0.0140
2943.00,0.0140
2942.00,0.0141
2941.00,0.0141
2940.00,0.0141
2939.00,0.0142
2938.00,0.0142
2937.00,0.0142
2936.00,0.0142
2935.00,0.0142
2934.00,0.0141
2933.00,0.0141
2932.00,0.0140
2931.00,0.0139
2930.00,0.0139
2929.00,0.0138
2928.00,0.0137
2927.00,0.0136
2926.00,0.0135
2925.00,0.0134
2924.00,0.0132
2923.00,0.0130
2922.00,0.0129
2921.00,0.0127
2920.00,0.0125
2919.00,0.0123
2918.00,0.0122
2917.00,0.0120
2916.00,0.0120
2915.00,0.0120
2914.00,0.0122
2913.00,0.0123
2912.00,0.0125
2911.00,0.0126
2910.00,0.0127
2909.00,0.0127
2908.00,0.0128
2907.00,0.0128
2906.00,0.0128
2905.00,0.0128
2904.00,0.0128
2903.00,0.0128
2902.00,0.0128
2901.00,0.0128
2900.00,0.0128
2899.00,0.0128
2898.00,0.0128
2897.00,0.0128
2896.00,0.0128
2895.00,0.0128
2894.00,0.0128
2893.00,0.0128
2892.00,0.0129
2891.00,0.0129
2890.00,0.0129
2889.00,0.0129
2888.00,0.0129
2887.00,0.0130
2886.00,0.0130
2885.00,0.0130
2884.00,0.0130
2883.00,0.0131
2882.00,0.0131
2881.00,0.0131
2880.00,0.0132
2879.00,0.0132
2878.00,0.0132
2877.00,0.0132
2876.00,0.0132
2875.00,0.0132
2874.00,0.0132
2873.00,0.0132
2872.00,0.0132
2871.00,0.0132
2870.00,0.0131
2869.00,0.0131
2868.00,0.0130
2867.00,0.0130
2866.00,0.0129
2865.00,0.0128
2864.00,0.0127
2863.00,0.0127
2862.00,0.0126
2861.00,0.0125
2860.00,0.0125
2859.00,0.0124
2858.00,0.0123
2857.00,0.0122
2856.00,0.0121
2855.00,0.0120
2854.00,0.0119
2853.00,0.0117
2852.00,0.0115
2851.00,0.0113
2850.00,0.0112
2849.00,0.0111
2848.00,0.0111
2847.00,0.0112
2846.00,0.0114
2845.00,0.0115
2844.00,0.0117
2843.00,0.0118
2842.00,0.0118
2841.00,0.0119
2840.00,0.0119
2839.00,0.0119
2838.00,0.0119
2837.00,0.0119
2836.00,0.0119
2835.00,0.0119
2834.00,0.0119
2833.00,0.0118
2832.00,0.0118
2831.00,0.0118
2830.00,0.0118
2829.00,0.0118
2828.00,0.0118
2827.00,0.0117
2826.00,0.0117
2825.00,0.0117
2824.00,0.0117
2823.00,0.0117
2822.00,0.0117
2821.00,0.0117
2820.00,0.0117
2819.00,0.0117
2818.00,0.0116
2817.00,0.0116
2816.00,0.0116
2815.00,0.0116
2814.00,0.0116
2813.00,0.0116
2812.00,0.0116
2811.00,0.0116
2810.00,0.0115
2809.00,0.0115
2808.00,0.0115
2807.00,0.0115
2806.00,0.0115
2805.00,0.0115
2804.00,0.0115
2803.00,0.0115
2802.00,0.0115
2801.00,0.0115
2800.00,0.0114
2799.00,0.0114
2798.00,0.0114
2797.00,0.0114
2796.00,0.0114
2795.00,0.0114
2794.00,0.0114
2793.00,0.0114
2792.00,0.0114
2791.00,0.0113
2790.00,0.0113
2789.00,0.0113
2788.00,0.0113
2787.00,0.0113
2786.00,0.0113
2785.00,0.0113
2784.00,0.0113
2783.00,0.0113
2782.00,0.0113
2781.00,0.0113
2780.00,0.0113
2779.00,0.0112
2778.00,0.0112
2777.00,0.0112
2776.00,0.0112
2775.00,0.0112
2774.00,0.0112
2773.00,0.0112
2772.00,0.0112
2771.00,0.0112
2770.00,0.0111
2769.00,0.0111
2768.00,0.0111
2767.00,0.0111
2766.00,0.0111
2765.00,0.0111
2764.00,0.0111
2763.00,0.0111
2762.00,0.0111
2761.00,0.0110
2760.00,0.0110
2759.00,0.0110
2758.00,0.0110
2757.00,0.0110
2756.00,0.0110
2755.00,0.0110
2754.00,0.0110
2753.00,0.0109
2752.00,0.0109
2751.00,0.0109
2750.00,0.0109
2749.00,0.0109
2748.00,0.0109
2747.00,0.0109
2746.00,0.0109
2745.00,0.0109
2744.00,0.0109
2743.00,0.0109
2742.00,0.0108
2741.00,0.0108
2740.00,0.0108
2739.00,0.0108
2738.00,0.0108
2737.00,0.0108
2736.00,0.0108
2735.00,0.0108
2734.00,0.0107
2733.00,0.0107
2732.00,0.0107
2731.00,0.0107
2730.00,0.0107
2729.00,0.0107
2728.00,0.0107
2727.00,0.0107
2726.00,0.0107
2725.00,0.0106
2724.00,0.0106
2723.00,0.0106
2722.00,0.0106
2721.00,0.0106
2720.00,0.0106
2719.00,0.0106
2718.00,0.0106
2717.00,0.0106
2716.00,0.0105
2715.00,0.0105
2714.00,0.0105
2713.00,0.0105
2712.00,0.0105
2711.00,0.0105
2710.00,0.0105
2709.00,0.0105
2708.00,0.0105
2707.00,0.0104
2706.00,0.0104
2705.00,0.0104
2704.00,0.0104
2703.00,0.0104
2702.00,0.0104
2701.00,0.0104
2700.00,0.0104
2699.00,0.0104
2698.00,0.0104
2697.00,0.0104
2696.00,0.0103
2695.00,0.0103
2694.00,0.0103
2693.00,0.0103
2692.00,0.0103
2691.00,0.0103
2690.00,0.0103
2689.00,0.0103
2688.00,0.0103
2687.00,0.0103
2686.00,0.0102
2685.00,0.0102
2684.00,0.0102
2683.00,0.0102
2682.00,0.0102
2681.00,0.0102
2680.00,0.0102
2679.00,0.0102
2678.00,0.0102
2677.00,0.0102
2676.00,0.0102
2675.00,0.0102
2674.00,0.0102
2673.00,0.0102
2672.00,0.0102
2671.00,0.0101
2670.00,0.0101
2669.00,0.0101
2668.00,0.0102
2667.00,0.0102
2666.00,0.0102
2665.00,0.0102
2664.00,0.0103
2663.00,0.0103
2662.00,0.0103
2661.00,0.0103
2660.00,0.0104
2659.00,0.0104
2658.00,0.0104
2657.00,0.0104
2656.00,0.0104
2655.00,0.0104
2654.00,0.0104
2653.00,0.0104
2652.00,0.0104
2651.00,0.0104
2650.00,0.0103
2649.00,0.0103
2648.00,0.0103
2647.00,0.0103
2646.00,0.0103
2645.00,0.0103
2644.00,0.0103
2643.00,0.0103
2642.00,0.0103
2641.00,0.0103
2640.00,0.0102
2639.00,0.0102
2638.00,0.0102
2637.00,0.0102
2636.00,0.0102
2635.00,0.0102
2634.00,0.0102
2633.00,0.0102
2632.00,0.0101
2631.00,0.0101
2630.00,0.0101
2629.00,0.0101
2628.00,0.0101
2627.00,0.0101
2626.00,0.0101
2625.00,0.0101
2624.00,0.0100
2623.00,0.0100
2622.00,0.0100
2621.00,0.0100
2620.00,0.0100
2619.00,0.0100
2618.00,0.0099
2617.00,0.0099
2616.00,0.0099
2615.00,0.0099
2614.00,0.0099
2613.00,0.0099
2612.00,0.0099
2611.00,0.0099
2610.00,0.0098
2609.00,0.0098
2608.00,0.0098
2607.00,0.0098
2606.00,0.0098
2605.00,0.0098
2604.00,0.0097
2603.00,0.0097
2602.00,0.0097
2601.00,0.0097
2600.00,0.0097
2599.00,0.0097
2598.00,0.0097
2597.00,0.0097
2596.00,0.0097
2595.00,0.0097
2594.00,0.0097
2593.00,0.0096
2592.00,0.0096
2591.00,0.0096
2590.00,0.0096
2589.00,0.0096
2588.00,0.0096
2587.00,0.0095
2586.00,0.0095
2585.00,0.0095
2584.00,0.0095
2583.00,0.0095
2582.00,0.0095
2581.00,0.0095
2580.00,0.0095
2579.00,0.0094
2578.00,0.0094
2577.00,0.0094
2576.00,0.0094
2575.00,0.0094
2574.00,0.0094
2573.00,0.0094
2572.00,0.0094
2571.00,0.0094
2570.00,0.0093
2569.00,0.0093
2568.00,0.0093
2567.00,0.0093
2566.00,0.0093
2565.00,0.0093
2564.00,0.0093
2563.00,0.0093
2562.00,0.0093
2561.00,0.0093
2560.00,0.0092
2559.00,0.0092
2558.00,0.0092
2557.00,0.0092
2556.00,0.0092
2555.00,0.0092
2554.00,0.0091
2553.00,0.0091
2552.00,0.0091
2551.00,0.0091
2550.00,0.0091
2549.00,0.0091
2548.00,0.0091
2547.00,0.0091
2546.00,0.0091
2545.00,0.0091
2544.00,0.0091
2543.00,0.0091
2542.00,0.0091
2541.00,0.0091
2540.00,0.0091
2539.00,0.0090
2538.00,0.0090
2537.00,0.0090
2536.00,0.0090
2535.00,0.0090
2534.00,0.0090
2533.00,0.0090
2532.00,0.0090
2531.00,0.0090
2530.00,0.0090
2529.00,0.0090
2528.00,0.0090
2527.00,0.0089
2526.00,0.0089
2525.00,0.0089
2524.00,0.0089
2523.00,0.0089
2522.00,0.0089
2521.00,0.0089
2520.00,0.0089
2519.00,0.0089
2518.00,0.0089
2517.00,0.0089
2516.00,0.0089
2515.00,0.0089
2514.00,0.0089
2513.00,0.0088
2512.00,0.0088
2511.00,0.0088
2510.00,0.0088
2509.00,0.0088
2508.00,0.0088
2507.00,0.0088
2506.00,0.0088
2505.00,0.0088
2504.00,0.0088
2503.00,0.0088
2502.00,0.0088
2501.00,0.0088
2500.00,0.0088
2499.00,0.0088
2498.00,0.0088
2497.00,0.0088
2496.00,0.0088
2495.00,0.0087
2494.00,0.0087
2493.00,0.0087
2492.00,0.0087
2491.00,0.0087
2490.00,0.0087
2489.00,0.0087
2488.00,0.0087
2487.00,0.0087
2486.00,0.0087
2485.00,0.0086
2484.00,0.0086
2483.00,0.0086
2482.00,0.0086
2481.00,0.0086
2480.00,0.0087
2479.00,0.0087
2478.00,0.0087
2477.00,0.0087
2476.00,0.0087
2475.00,0.0087
2474.00,0.0087
2473.00,0.0087
2472.00,0.0087
2471.00,0.0086
2470.00,0.0086
2469.00,0.0086
2468.00,0.0086
2467.00,0.0086
2466.00,0.0086
2465.00,0.0086
2464.00,0.0086
2463.00,0.0086
2462.00,0.0086
2461.00,0.0086
2460.00,0.0086
2459.00,0.0086
2458.00,0.0086
2457.00,0.0087
2456.00,0.0087
2455.00,0.0087
2454.00,0.0087
2453.00,0.0087
2452.00,0.0087
2451.00,0.0087
2450.00,0.0087
2449.00,0.0086
2448.00,0.0086
2447.00,0.0086
2446.00,0.0086
2445.00,0.0085
2444.00,0.0085
2443.00,0.0085
2442.00,0.0084
2441.00,0.0084
2440.00,0.0084
2439.00,0.0084
2438.00,0.0084
2437.00,0.0084
2436.00,0.0085
2435.00,0.0084
2434.00,0.0084
2433.00,0.0084
2432.00,0.0083
2431.00,0.0083
2430.00,0.0083
2429.00,0.0083
2428.00,0.0083
2427.00,0.0083
2426.00,0.0083
2425.00,0.0083
2424.00,0.0083
2423.00,0.0083
2422.00,0.0083
2421.00,0.0083
2420.00,0.0083
2419.00,0.0082
2418.00,0.0082
2417.00,0.0082
2416.00,0.0082
2415.00,0.0082
2414.00,0.0082
2413.00,0.0082
2412.00,0.0082
2411.00,0.0082
2410.00,0.0082
2409.00,0.0081
2408.00,0.0081
2407.00,0.0081
2406.00,0.0080
2405.00,0.0080
2404.00,0.0080
2403.00,0.0080
2402.00,0.0080
2401.00,0.0080
2400.00,0.0080
2399.00,0.0080
2398.00,0.0080
2397.00,0.0079
2396.00,0.0079
2395.00,0.0079
2394.00,0.0079
2393.00,0.0079
2392.00,0.0079
2391.00,0.0079
2390.00,0.0079
2389.00,0.0079
2388.00,0.0078
2387.00,0.0078
2386.00,0.0077
2385.00,0.0077
2384.00,0.0076
2383.00,0.0075
2382.00,0.0075
2381.00,0.0074
2380.00,0.0074
2379.00,0.0074
2378.00,0.0074
2377.00,0.0074
2376.00,0.0075
2375.00,0.0075
2374.00,0.0075
2373.00,0.0075
2372.00,0.0074
2371.00,0.0074
2370.00,0.0073
2369.00,0.0073
2368.00,0.0073
2367.00,0.0072
2366.00,0.0073
2365.00,0.0073
2364.00,0.0073
2363.00,0.0074
2362.00,0.0074
2361.00,0.0074
2360.00,0.0074
2359.00,0.0074
2358.00,0.0074
2357.00,0.0074
2356.00,0.0074
2355.00,0.0075
2354.00,0.0075
2353.00,0.0074
2352.00,0.0074
2351.00,0.0074
2350.00,0.0074
2349.00,0.0075
2348.00,0.0076
2347.00,0.0076
2346.00,0.0076
2345.00,0.0076
2344.00,0.0076
2343.00,0.0077
2342.00,0.0077
2341.00,0.0077
2340.00,0.0078
2339.00,0.0078
2338.00,0.0078
2337.00,0.0078
2336.00,0.0078
2335.00,0.0078
2334.00,0.0078
2333.00,0.0077
2332.00,0.0077
2331.00,0.0076
2330.00,0.0077
2329.00,0.0078
2328.00,0.0081
2327.00,0.0085
2326.00,0.0087
2325.00,0.0088
2324.00,0.0088
2323.00,0.0086
2322.00,0.0084
2321.00,0.0083
2320.00,0.0082
2319.00,0.0082
2318.00,0.0082
2317.00,0.0082
2316.00,0.0082
2315.00,0.0081
2314.00,0.0080
2313.00,0.0080
2312.00,0.0079
2311.00,0.0079
2310.00,0.0078
2309.00,0.0078
2308.00,0.0078
2307.00,0.0078
2306.00,0.0079
2305.00,0.0079
2304.00,0.0079
2303.00,0.0079
2302.00,0.0080
2301.00,0.0080
2300.00,0.0080
2299.00,0.0081
2298.00,0.0081
2297.00,0.0081
2296.00,0.0082
2295.00,0.0083
2294.00,0.0084
2293.00,0.0084
2292.00,0.0085
2291.00,0.0086
2290.00,0.0086
2289.00,0.0087
2288.00,0.0087
2287.00,0.0087
2286.00,0.0087
2285.00,0.0087
2284.00,0.0086
2283.00,0.0086
2282.00,0.0085
2281.00,0.0084
2280.00,0.0084
2279.00,0.0083
2278.00,0.0083
2277.00,0.0083
2276.00,0.0083
2275.00,0.0083
2274.00,0.0082
2273.00,0.0082
2272.00,0.0082
2271.00,0.0082
2270.00,0.0082
2269.00,0.0081
2268.00,0.0081
2267.00,0.0080
2266.00,0.0079
2265.00,0.0079
2264.00,0.0079
2263.00,0.0080
2262.00,0.0080
2261.00,0.0081
2260.00,0.0081
2259.00,0.0081
2258.00,0.0081
2257.00,0.0080
2256.00,0.0079
2255.00,0.0078
2254.00,0.0078
2253.00,0.0078
2252.00,0.0078
2251.00,0.0078
2250.00,0.0078
2249.00,0.0078
2248.00,0.0078
2247.00,0.0078
2246.00,0.0078
2245.00,0.0078
2244.00,0.0078
2243.00,0.0078
2242.00,0.0079
2241.00,0.0079
2240.00,0.0079
2239.00,0.0079
2238.00,0.0079
2237.00,0.0078
2236.00,0.0078
2235.00,0.0078
2234.00,0.0078
2233.00,0.0078
2232.00,0.0078
2231.00,0.0078
2230.00,0.0078
2229.00,0.0078
2228.00,0.0078
2227.00,0.0078
2226.00,0.0078
2225.00,0.0078
2224.00,0.0078
2223.00,0.0078
2222.00,0.0078
2221.00,0.0078
2220.00,0.0078
2219.00,0.0078
2218.00,0.0078
2217.00,0.0078
2216.00,0.0078
2215.00,0.0078
2214.00,0.0077
2213.00,0.0077
2212.00,0.0077
2211.00,0.0076
2210.00,0.0076
2209.00,0.0076
2208.00,0.0077
2207.00,0.0077
2206.00,0.0077
2205.00,0.0077
2204.00,0.0077
2203.00,0.0076
2202.00,0.0077
2201.00,0.0077
2200.00,0.0078
2199.00,0.0078
2198.00,0.0078
2197.00,0.0078
2196.00,0.0078
2195.00,0.0078
2194.00,0.0078
2193.00,0.0078
2192.00,0.0077
2191.00,0.0077
2190.00,0.0077
2189.00,0.0077
2188.00,0.0078
2187.00,0.0078
2186.00,0.0078
2185.00,0.0077
2184.00,0.0075
2183.00,0.0073
2182.00,0.0072
2181.00,0.0072
2180.00,0.0073
2179.00,0.0074
2178.00,0.0073
2177.00,0.0072
2176.00,0.0071
2175.00,0.0071
2174.00,0.0072
2173.00,0.0074
2172.00,0.0076
2171.00,0.0079
2170.00,0.0081
2169.00,0.0082
2168.00,0.0082
2167.00,0.0082
2166.00,0.0082
2165.00,0.0083
2164.00,0.0085
2163.00,0.0086
2162.00,0.0082
2161.00,0.0074
2160.00,0.0063
2159.00,0.0053
2158.00,0.0047
2157.00,0.0047
2156.00,0.0049
2155.00,0.0051
2154.00,0.0053
2153.00,0.0054
2152.00,0.0056
2151.00,0.0057
2150.00,0.0058
2149.00,0.0059
2148.00,0.0059
2147.00,0.0058
2146.00,0.0058
2145.00,0.0058
2144.00,0.0058
2143.00,0.0058
2142.00,0.0058
2141.00,0.0058
2140.00,0.0058
2139.00,0.0059
2138.00,0.0058
2137.00,0.0057
2136.00,0.0055
2135.00,0.0054
2134.00,0.0053
2133.00,0.0054
2132.00,0.0056
2131.00,0.0057
2130.00,0.0058
2129.00,0.0059
2128.00,0.0061
2127.00,0.0062
2126.00,0.0063
2125.00,0.0064
2124.00,0.0064
2123.00,0.0065
2122.00,0.0065
2121.00,0.0065
2120.00,0.0066
2119.00,0.0066
2118.00,0.0067
2117.00,0.0069
2116.00,0.0070
2115.00,0.0071
2114.00,0.0071
2113.00,0.0071
2112.00,0.0071
2111.00,0.0071
2110.00,0.0070
2109.00,0.0070
2108.00,0.0070
2107.00,0.0069
2106.00,0.0069
2105.00,0.0069
2104.00,0.0069
2103.00,0.0069
2102.00,0.0069
2101.00,0.0069
2100.00,0.0069
2099.00,0.0069
2098.00,0.0068
2097.00,0.0067
2096.00,0.0065
2095.00,0.0065
2094.00,0.0065
2093.00,0.0066
2092.00,0.0067
2091.00,0.0067
2090.00,0.0068
2089.00,0.0068
2088.00,0.0069
2087.00,0.0069
2086.00,0.0069
2085.00,0.0069
2084.00,0.0070
2083.00,0.0070
2082.00,0.0070
2081.00,0.0071
2080.00,0.0071
2079.00,0.0071
2078.00,0.0070
2077.00,0.0070
2076.00,0.0069
2075.00,0.0069
2074.00,0.0069
2073.00,0.0068
2072.00,0.0068
2071.00,0.0067
2070.00,0.0067
2069.00,0.0067
2068.00,0.0068
2067.00,0.0068
2066.00,0.0068
2065.00,0.0068
2064.00,0.0068
2063.00,0.0068
2062.00,0.0068
2061.00,0.0068
2060.00,0.0068
2059.00,0.0068
2058.00,0.0068
2057.00,0.0069
2056.00,0.0068
2055.00,0.0068
2054.00,0.0070
2053.00,0.0073
2052.00,0.0076
2051.00,0.0077
2050.00,0.0076
2049.00,0.0073
2048.00,0.0070
2047.00,0.0069
2046.00,0.0068
2045.00,0.0067
2044.00,0.0067
2043.00,0.0066
2042.00,0.0066
2041.00,0.0067
2040.00,0.0068
2039.00,0.0069
2038.00,0.0070
2037.00,0.0069
2036.00,0.0068
2035.00,0.0066
2034.00,0.0064
2033.00,0.0063
2032.00,0.0063
2031.00,0.0062
2030.00,0.0061
2029.00,0.0060
2028.00,0.0060
2027.00,0.0060
2026.00,0.0060
2025.00,0.0060
2024.00,0.0059
2023.00,0.0059
2022.00,0.0059
2021.00,0.0059
2020.00,0.0060
2019.00,0.0060
2018.00,0.0060
2017.00,0.0059
2016.00,0.0059
2015.00,0.0059
2014.00,0.0059
2013.00,0.0059
2012.00,0.0060
2011.00,0.0060
2010.00,0.0060
2009.00,0.0059
2008.00,0.0057
2007.00,0.0055
2006.00,0.0054
2005.00,0.0054
2004.00,0.0056
2003.00,0.0056
2002.00,0.0057
2001.00,0.0057
2000.00,0.0058
1999.00,0.0059
1998.00,0.0059
1997.00,0.0060
1996.00,0.0061
1995.00,0.0061
1994.00,0.0062
1993.00,0.0062
1992.00,0.0063
1991.00,0.0063
1990.00,0.0063
1989.00,0.0063
1988.00,0.0064
1987.00,0.0065
1986.00,0.0066
1985.00,0.0066
1984.00,0.0067
1983.00,0.0069
1982.00,0.0071
1981.00,0.0072
1980.00,0.0071
1979.00,0.0066
1978.00,0.0060
1977.00,0.0056
1976.00,0.0054
1975.00,0.0053
1974.00,0.0052
1973.00,0.0051
1972.00,0.0052
1971.00,0.0052
1970.00,0.0052
1969.00,0.0052
1968.00,0.0052
1967.00,0.0052
1966.00,0.0052
1965.00,0.0052
1964.00,0.0051
1963.00,0.0051
1962.00,0.0050
1961.00,0.0049
1960.00,0.0049
1959.00,0.0049
1958.00,0.0050
1957.00,0.0051
1956.00,0.0052
1955.00,0.0052
1954.00,0.0052
1953.00,0.0052
1952.00,0.0052
1951.00,0.0052
1950.00,0.0052
1949.00,0.0052
1948.00,0.0052
1947.00,0.0051
1946.00,0.0051
1945.00,0.0051
1944.00,0.0051
1943.00,0.0052
1942.00,0.0052
1941.00,0.0052
1940.00,0.0052
1939.00,0.0052
1938.00,0.0051
1937.00,0.0051
1936.00,0.0051
1935.00,0.0052
1934.00,0.0052
1933.00,0.0052
1932.00,0.0052
1931.00,0.0052
1930.00,0.0052
1929.00,0.0052
1928.00,0.0052
1927.00,0.0052
1926.00,0.0052
1925.00,0.0052
1924.00,0.0052
1923.00,0.0052
1922.00,0.0053
1921.00,0.0053
1920.00,0.0054
1919.00,0.0054
1918.00,0.0054
1917.00,0.0054
1916.00,0.0054
1915.00,0.0054
1914.00,0.0053
1913.00,0.0053
1912.00,0.0053
1911.00,0.0053
1910.00,0.0053
1909.00,0.0053
1908.00,0.0053
1907.00,0.0053
1906.00,0.0052
1905.00,0.0052
1904.00,0.0052
1903.00,0.0053
1902.00,0.0053
1901.00,0.0053
1900.00,0.0053
1899.00,0.0052
1898.00,0.0052
1897.00,0.0052
1896.00,0.0052
1895.00,0.0052
1894.00,0.0053
1893.00,0.0053
1892.00,0.0052
1891.00,0.0052
1890.00,0.0052
1889.00,0.0052
1888.00,0.0052
1887.00,0.0052
1886.00,0.0052
1885.00,0.0052
1884.00,0.0052
1883.00,0.0051
1882.00,0.0051
1881.00,0.0051
1880.00,0.0052
1879.00,0.0052
1878.00,0.0052
1877.00,0.0052
1876.00,0.0052
1875.00,0.0052
1874.00,0.0052
1873.00,0.0052
1872.00,0.0051
1871.00,0.0051
1870.00,0.0050
1869.00,0.0050
1868.00,0.0051
1867.00,0.0051
1866.00,0.0051
1865.00,0.0051
1864.00,0.0051
1863.00,0.0051
1862.00,0.0051
1861.00,0.0051
1860.00,0.0051
1859.00,0.0051
1858.00,0.0051
1857.00,0.0050
1856.00,0.0050
1855.00,0.0050
1854.00,0.0050
1853.00,0.0050
1852.00,0.0050
1851.00,0.0049
1850.00,0.0049
1849.00,0.0049
1848.00,0.0049
1847.00,0.0049
1846.00,0.0048
1845.00,0.0049
1844.00,0.0049
1843.00,0.0049
1842.00,0.0049
1841.00,0.0049
1840.00,0.0049
1839.00,0.0049
1838.00,0.0049
1837.00,0.0049
1836.00,0.0049
1835.00,0.0049
1834.00,0.0049
1833.00,0.0048
1832.00,0.0048
1831.00,0.0048
1830.00,0.0048
1829.00,0.0048
1828.00,0.0048
1827.00,0.0048
1826.00,0.0048
1825.00,0.0048
1824.00,0.0048
1823.00,0.0048
1822.00,0.0048
1821.00,0.0048
1820.00,0.0047
1819.00,0.0046
1818.00,0.0046
1817.00,0.0045
1816.00,0.0045
1815.00,0.0046
1814.00,0.0046
1813.00,0.0046
1812.00,0.0047
1811.00,0.0047
1810.00,0.0047
1809.00,0.0047
1808.00,0.0048
1807.00,0.0048
1806.00,0.0048
1805.00,0.0047
1804.00,0.0047
1803.00,0.0047
1802.00,0.0047
1801.00,0.0047
1800.00,0.0047
1799.00,0.0048
1798.00,0.0048
1797.00,0.0048
1796.00,0.0048
1795.00,0.0048
1794.00,0.0048
1793.00,0.0048
1792.00,0.0048
1791.00,0.0048
1790.00,0.0048
1789.00,0.0048
1788.00,0.0048
1787.00,0.0048
1786.00,0.0048
1785.00,0.0048
1784.00,0.0048
1783.00,0.0048
1782.00,0.0048
1781.00,0.0048
1780.00,0.0048
1779.00,0.0047
1778.00,0.0047
1777.00,0.0047
1776.00,0.0047
1775.00,0.0047
1774.00,0.0047
1773.00,0.0047
1772.00,0.0048
1771.00,0.0048
1770.00,0.0048
1769.00,0.0048
1768.00,0.0048
1767.00,0.0048
1766.00,0.0048
1765.00,0.0048
1764.00,0.0047
1763.00,0.0047
1762.00,0.0047
1761.00,0.0048
1760.00,0.0048
1759.00,0.0048
1758.00,0.0048
1757.00,0.0048
1756.00,0.0049
1755.00,0.0049
1754.00,0.0049
1753.00,0.0050
1752.00,0.0050
1751.00,0.0050
1750.00,0.0050
1749.00,0.0050
1748.00,0.0050
1747.00,0.0050
1746.00,0.0051
1745.00,0.0051
1744.00,0.0051
1743.00,0.0052
1742.00,0.0052
1741.00,0.0052
1740.00,0.0053
1739.00,0.0054
1738.00,0.0054
1737.00,0.0054
1736.00,0.0055
1735.00,0.0057
1734.00,0.0058
1733.00,0.0059
1732.00,0.0059
1731.00,0.0059
1730.00,0.0059
1729.00,0.0059
1728.00,0.0060
1727.00,0.0061
1726.00,0.0061
1725.00,0.0062
1724.00,0.0063
1723.00,0.0064
1722.00,0.0064
1721.00,0.0065
1720.00,0.0065
1719.00,0.0067
1718.00,0.0069
1717.00,0.0071
1716.00,0.0072
1715.00,0.0073
1714.00,0.0074
1713.00,0.0075
1712.00,0.0077
1711.00,0.0079
1710.00,0.0082
1709.00,0.0084
1708.00,0.0087
1707.00,0.0090
1706.00,0.0095
1705.00,0.0101
1704.00,0.0107
1703.00,0.0113
1702.00,0.0121
1701.00,0.0134
1700.00,0.0152
1699.00,0.0167
1698.00,0.0177
1697.00,0.0185
1696.00,0.0194
1695.00,0.0201
1694.00,0.0206
1693.00,0.0208
1692.00,0.0210
1691.00,0.0213
1690.00,0.0217
1689.00,0.0221
1688.00,0.0226
1687.00,0.0230
1686.00,0.0235
1685.00,0.0243
1684.00,0.0252
1683.00,0.0260
1682.00,0.0266
1681.00,0.0272
1680.00,0.0278
1679.00,0.0284
1678.00,0.0290
1677.00,0.0297
1676.00,0.0305
1675.00,0.0314
1674.00,0.0322
1673.00,0.0329
1672.00,0.0335
1671.00,0.0342
1670.00,0.0351
1669.00,0.0361
1668.00,0.0370
1667.00,0.0377
1666.00,0.0383
1665.00,0.0389
1664.00,0.0396
1663.00,0.0405
1662.00,0.0413
1661.00,0.0420
1660.00,0.0427
1659.00,0.0433
1658.00,0.0438
1657.00,0.0443
1656.00,0.0447
1655.00,0.0453
1654.00,0.0461
1653.00,0.0471
1652.00,0.0479
1651.00,0.0482
1650.00,0.0482
1649.00,0.0483
1648.00,0.0487
1647.00,0.0494
1646.00,0.0500
1645.00,0.0504
1644.00,0.0507
1643.00,0.0509
1642.00,0.0512
1641.00,0.0515
1640.00,0.0518
1639.00,0.0521
1638.00,0.0523
1637.00,0.0527
1636.00,0.0532
1635.00,0.0538
1634.00,0.0542
1633.00,0.0544
1632.00,0.0546
1631.00,0.0548
1630.00,0.0551
1629.00,0.0554
1628.00,0.0557
1627.00,0.0560
1626.00,0.0562
1625.00,0.0564
1624.00,0.0566
1623.00,0.0569
1622.00,0.0570
1621.00,0.0570
1620.00,0.0569
1619.00,0.0568
1618.00,0.0567
1617.00,0.0564
1616.00,0.0559
1615.00,0.0554
1614.00,0.0548
1613.00,0.0542
1612.00,0.0535
1611.00,0.0528
1610.00,0.0520
1609.00,0.0511
1608.00,0.0502
1607.00,0.0493
1606.00,0.0483
1605.00,0.0473
1604.00,0.0462
1603.00,0.0451
1602.00,0.0441
1601.00,0.0430
1600.00,0.0419
1599.00,0.0409
1598.00,0.0399
1597.00,0.0389
1596.00,0.0379
1595.00,0.0370
1594.00,0.0361
1593.00,0.0352
1592.00,0.0344
1591.00,0.0336
1590.00,0.0329
1589.00,0.0322
1588.00,0.0315
1587.00,0.0308
1586.00,0.0303
1585.00,0.0297
1584.00,0.0293
1583.00,0.0288
1582.00,0.0285
1581.00,0.0282
1580.00,0.0279
1579.00,0.0277
1578.00,0.0276
1577.00,0.0276
1576.00,0.0277
1575.00,0.0276
1574.00,0.0276
1573.00,0.0276
1572.00,0.0277
1571.00,0.0279
1570.00,0.0282
1569.00,0.0286
1568.00,0.0290
1567.00,0.0293
1566.00,0.0297
1565.00,0.0302
1564.00,0.0307
1563.00,0.0311
1562.00,0.0314
1561.00,0.0318
1560.00,0.0324
1559.00,0.0335
1558.00,0.0345
1557.00,0.0351
1556.00,0.0356
1555.00,0.0361
1554.00,0.0367
1553.00,0.0373
1552.00,0.0378
1551.00,0.0382
1550.00,0.0388
1549.00,0.0394
1548.00,0.0399
1547.00,0.0404
1546.00,0.0408
1545.00,0.0413
1544.00,0.0418
1543.00,0.0422
1542.00,0.0427
1541.00,0.0434
1540.00,0.0441
1539.00,0.0447
1538.00,0.0452
1537.00,0.0454
1536.00,0.0456
1535.00,0.0459
1534.00,0.0464
1533.00,0.0470
1532.00,0.0475
1531.00,0.0479
1530.00,0.0483
1529.00,0.0487
1528.00,0.0491
1527.00,0.0496
1526.00,0.0501
1525.00,0.0505
1524.00,0.0509
1523.00,0.0512
1522.00,0.0517
1521.00,0.0522
1520.00,0.0525
1519.00,0.0526
1518.00,0.0528
1517.00,0.0530
1516.00,0.0531
1515.00,0.0530
1514.00,0.0529
1513.00,0.0527
1512.00,0.0523
1511.00,0.0518
1510.00,0.0514
1509.00,0.0509
1508.00,0.0503
1507.00,0.0493
1506.00,0.0483
1505.00,0.0475
1504.00,0.0468
1503.00,0.0460
1502.00,0.0453
1501.00,0.0444
1500.00,0.0435
1499.00,0.0426
1498.00,0.0417
1497.00,0.0407
1496.00,0.0396
1495.00,0.0386
1494.00,0.0378
1493.00,0.0369
1492.00,0.0360
1491.00,0.0351
1490.00,0.0341
1489.00,0.0331
1488.00,0.0322
1487.00,0.0315
1486.00,0.0308
1485.00,0.0302
1484.00,0.0296
1483.00,0.0291
1482.00,0.0286
1481.00,0.0281
1480.00,0.0277
1479.00,0.0274
1478.00,0.0271
1477.00,0.0268
1476.00,0.0266
1475.00,0.0265
1474.00,0.0264
1473.00,0.0263
1472.00,0.0263
1471.00,0.0263
1470.00,0.0263
1469.00,0.0263
1468.00,0.0262
1467.00,0.0262
1466.00,0.0262
1465.00,0.0262
1464.00,0.0263
1463.00,0.0264
1462.00,0.0265
1461.00,0.0266
1460.00,0.0268
1459.00,0.0270
1458.00,0.0275
1457.00,0.0280
1456.00,0.0285
1455.00,0.0287
1454.00,0.0288
1453.00,0.0289
1452.00,0.0290
1451.00,0.0290
1450.00,0.0290
1449.00,0.0290
1448.00,0.0289
1447.00,0.0287
1446.00,0.0286
1445.00,0.0284
1444.00,0.0281
1443.00,0.0279
1442.00,0.0276
1441.00,0.0273
1440.00,0.0269
1439.00,0.0266
1438.00,0.0263
1437.00,0.0260
1436.00,0.0257
1435.00,0.0255
1434.00,0.0253
1433.00,0.0251
1432.00,0.0249
1431.00,0.0247
1430.00,0.0246
1429.00,0.0245
1428.00,0.0244
1427.00,0.0244
1426.00,0.0244
1425.00,0.0244
1424.00,0.0245
1423.00,0.0245
1422.00,0.0246
1421.00,0.0246
1420.00,0.0248
1419.00,0.0249
1418.00,0.0251
1417.00,0.0253
1416.00,0.0254
1415.00,0.0255
1414.00,0.0257
1413.00,0.0258
1412.00,0.0259
1411.00,0.0261
1410.00,0.0262
1409.00,0.0263
1408.00,0.0263
1407.00,0.0264
1406.00,0.0264
1405.00,0.0265
1404.00,0.0265
1403.00,0.0265
1402.00,0.0265
1401.00,0.0264
1400.00,0.0264
1399.00,0.0263
1398.00,0.0263
1397.00,0.0263
1396.00,0.0262
1395.00,0.0262
1394.00,0.0261
1393.00,0.0261
1392.00,0.0261
1391.00,0.0261
1390.00,0.0261
1389.00,0.0260
1388.00,0.0260
1387.00,0.0260
1386.00,0.0259
1385.00,0.0258
1384.00,0.0257
1383.00,0.0256
1382.00,0.0255
1381.00,0.0254
1380.00,0.0253
1379.00,0.0253
1378.00,0.0252
1377.00,0.0251
1376.00,0.0250
1375.00,0.0250
1374.00,0.0249
1373.00,0.0249
1372.00,0.0249
1371.00,0.0248
1370.00,0.0248
1369.00,0.0247
1368.00,0.0245
1367.00,0.0244
1366.00,0.0242
1365.00,0.0241
1364.00,0.0239
1363.00,0.0237
1362.00,0.0236
1361.00,0.0235
1360.00,0.0234
1359.00,0.0233
1358.00,0.0232
1357.00,0.0231
1356.00,0.0230
1355.00,0.0230
1354.00,0.0229
1353.00,0.0229
1352.00,0.0228
1351.00,0.0228
1350.00,0.0228
1349.00,0.0228
1348.00,0.0228
1347.00,0.0228
1346.00,0.0228
1345.00,0.0228
1344.00,0.0228
1343.00,0.0228
1342.00,0.0228
1341.00,0.0229
1340.00,0.0229
1339.00,0.0229
1338.00,0.0229
1337.00,0.0229
1336.00,0.0229
1335.00,0.0229
1334.00,0.0229
1333.00,0.0229
1332.00,0.0228
1331.00,0.0228
1330.00,0.0228
1329.00,0.0228
1328.00,0.0228
1327.00,0.0228
1326.00,0.0228
1325.00,0.0227
1324.00,0.0227
1323.00,0.0227
1322.00,0.0227
1321.00,0.0226
1320.00,0.0226
1319.00,0.0226
1318.00,0.0226
1317.00,0.0226
1316.00,0.0225
1315.00,0.0225
1314.00,0.0225
1313.00,0.0225
1312.00,0.0224
1311.00,0.0224
1310.00,0.0223
1309.00,0.0223
1308.00,0.0223
1307.00,0.0222
1306.00,0.0222
1305.00,0.0221
1304.00,0.0221
1303.00,0.0221
1302.00,0.0220
1301.00,0.0220
1300.00,0.0219
1299.00,0.0219
1298.00,0.0218
1297.00,0.0218
1296.00,0.0218
1295.00,0.0217
1294.00,0.0217
1293.00,0.0217
1292.00,0.0217
1291.00,0.0217
1290.00,0.0217
1289.00,0.0217
1288.00,0.0217
1287.00,0.0217
1286.00,0.0217
1285.00,0.0217
1284.00,0.0217
1283.00,0.0217
1282.00,0.0216
1281.00,0.0216
1280.00,0.0216
1279.00,0.0215
1278.00,0.0215
1277.00,0.0215
1276.00,0.0214
1275.00,0.0214
1274.00,0.0214
1273.00,0.0214
1272.00,0.0214
1271.00,0.0214
1270.00,0.0215
1269.00,0.0215
1268.00,0.0215
1267.00,0.0216
1266.00,0.0217
1265.00,0.0218
1264.00,0.0219
1263.00,0.0220
1262.00,0.0221
1261.00,0.0223
1260.00,0.0225
1259.00,0.0227
1258.00,0.0229
1257.00,0.0231
1256.00,0.0233
1255.00,0.0235
1254.00,0.0237
1253.00,0.0239
1252.00,0.0241
1251.00,0.0243
1250.00,0.0245
1249.00,0.0247
1248.00,0.0248
1247.00,0.0250
1246.00,0.0251
1245.00,0.0252
1244.00,0.0254
1243.00,0.0255
1242.00,0.0256
1241.00,0.0256
1240.00,0.0257
1239.00,0.0257
1238.00,0.0258
1237.00,0.0258
1236.00,0.0258
1235.00,0.0258
1234.00,0.0258
1233.00,0.0258
1232.00,0.0258
1231.00,0.0258
1230.00,0.0257
1229.00,0.0257
1228.00,0.0256
1227.00,0.0255
1226.00,0.0254
1225.00,0.0253
1224.00,0.0252
1223.00,0.0251
1222.00,0.0249
1221.00,0.0248
1220.00,0.0246
1219.00,0.0245
1218.00,0.0243
1217.00,0.0242
1216.00,0.0240
1215.00,0.0238
1214.00,0.0236
1213.00,0.0234
1212.00,0.0231
1211.00,0.0229
1210.00,0.0227
1209.00,0.0224
1208.00,0.0222
1207.00,0.0220
1206.00,0.0217
1205.00,0.0215
1204.00,0.0212
1203.00,0.0210
1202.00,0.0208
1201.00,0.0206
1200.00,0.0203
1199.00,0.0201
1198.00,0.0200
1197.00,0.0198
1196.00,0.0196
1195.00,0.0195
1194.00,0.0193
1193.00,0.0192
1192.00,0.0191
1191.00,0.0190
1190.00,0.0189
1189.00,0.0188
1188.00,0.0187
1187.00,0.0187
1186.00,0.0186
1185.00,0.0186
1184.00,0.0186
1183.00,0.0186
1182.00,0.0186
1181.00,0.0186
1180.00,0.0186
1179.00,0.0187
1178.00,0.0188
1177.00,0.0189
1176.00,0.0190
1175.00,0.0192
1174.00,0.0193
1173.00,0.0195
1172.00,0.0197
1171.00,0.0198
1170.00,0.0200
1169.00,0.0201
1168.00,0.0203
1167.00,0.0204
1166.00,0.0205
1165.00,0.0207
1164.00,0.0208
1163.00,0.0208
1162.00,0.0209
1161.00,0.0210
1160.00,0.0210
1159.00,0.0210
1158.00,0.0210
1157.00,0.0210
1156.00,0.0209
1155.00,0.0208
1154.00,0.0207
1153.00,0.0206
1152.00,0.0204
1151.00,0.0203
1150.00,0.0201
1149.00,0.0200
1148.00,0.0198
1147.00,0.0197
1146.00,0.0195
1145.00,0.0194
1144.00,0.0192
1143.00,0.0191
1142.00,0.0190
1141.00,0.0189
1140.00,0.0188
1139.00,0.0187
1138.00,0.0187
1137.00,0.0186
1136.00,0.0186
1135.00,0.0186
1134.00,0.0186
1133.00,0.0186
1132.00,0.0185
1131.00,0.0185
1130.00,0.0185
1129.00,0.0184
1128.00,0.0184
1127.00,0.0184
1126.00,0.0184
1125.00,0.0184
1124.00,0.0183
1123.00,0.0183
1122.00,0.0183
1121.00,0.0182
1120.00,0.0182
1119.00,0.0181
1118.00,0.0181
1117.00,0.0181
1116.00,0.0181
1115.00,0.0180
1114.00,0.0180
1113.00,0.0180
1112.00,0.0180
1111.00,0.0180
1110.00,0.0181
1109.00,0.0181
1108.00,0.0181
1107.00,0.0181
1106.00,0.0182
1105.00,0.0182
1104.00,0.0183
1103.00,0.0183
1102.00,0.0184
1101.00,0.0185
1100.00,0.0186
1099.00,0.0186
1098.00,0.0187
1097.00,0.0188
1096.00,0.0189
1095.00,0.0190
1094.00,0.0193
1093.00,0.0195
1092.00,0.0197
1091.00,0.0199
1090.00,0.0202
1089.00,0.0204
1088.00,0.0207
1087.00,0.0210
1086.00,0.0214
1085.00,0.0217
1084.00,0.0220
1083.00,0.0224
1082.00,0.0228
1081.00,0.0232
1080.00,0.0235
1079.00,0.0238
1078.00,0.0242
1077.00,0.0245
1076.00,0.0247
1075.00,0.0250
1074.00,0.0252
1073.00,0.0254
1072.00,0.0256
1071.00,0.0257
1070.00,0.0259
1069.00,0.0260
1068.00,0.0260
1067.00,0.0261
1066.00,0.0261
1065.00,0.0262
1064.00,0.0261
1063.00,0.0261
1062.00,0.0260
1061.00,0.0260
1060.00,0.0258
1059.00,0.0257
1058.00,0.0256
1057.00,0.0255
1056.00,0.0253
1055.00,0.0252
1054.00,0.0251
1053.00,0.0249
1052.00,0.0247
1051.00,0.0246
1050.00,0.0244
1049.00,0.0243
1048.00,0.0241
1047.00,0.0240
1046.00,0.0238
1045.00,0.0237
1044.00,0.0234
1043.00,0.0232
1042.00,0.0230
1041.00,0.0228
1040.00,0.0225
1039.00,0.0223
1038.00,0.0221
1037.00,0.0218
1036.00,0.0216
1035.00,0.0214
1034.00,0.0212
1033.00,0.0211
1032.00,0.0208
1031.00,0.0206
1030.00,0.0204
1029.00,0.0202
1028.00,0.0199
1027.00,0.0197
1026.00,0.0194
1025.00,0.0192
1024.00,0.0189
1023.00,0.0187
1022.00,0.0185
1021.00,0.0182
1020.00,0.0180
1019.00,0.0178
1018.00,0.0176
1017.00,0.0174
1016.00,0.0172
1015.00,0.0170
1014.00,0.0169
1013.00,0.0168
1012.00,0.0166
1011.00,0.0164
1010.00,0.0163
1009.00,0.0162
1008.00,0.0161
1007.00,0.0160
1006.00,0.0159
1005.00,0.0158
1004.00,0.0157
1003.00,0.0156
1002.00,0.0155
1001.00,0.0155
1000.00,0.0154
999.00,0.0153
998.00,0.0152
997.00,0.0152
996.00,0.0151
995.00,0.0150
994.00,0.0150
993.00,0.0149
992.00,0.0148
991.00,0.0148
990.00,0.0147
989.00,0.0146
988.00,0.0145
987.00,0.0145
986.00,0.0145
985.00,0.0145
984.00,0.0144
983.00,0.0143
982.00,0.0143
981.00,0.0143
980.00,0.0143
979.00,0.0143
978.00,0.0143
977.00,0.0143
976.00,0.0143
975.00,0.0143
974.00,0.0143
973.00,0.0143
972.00,0.0144
971.00,0.0144
970.00,0.0145
969.00,0.0146
968.00,0.0146
967.00,0.0147
966.00,0.0149
965.00,0.0150
964.00,0.0151
963.00,0.0151
962.00,0.0152
961.00,0.0152
960.00,0.0152
959.00,0.0151
958.00,0.0151
957.00,0.0150
956.00,0.0149
955.00,0.0148
954.00,0.0148
953.00,0.0147
952.00,0.0146
951.00,0.0146
950.00,0.0146
949.00,0.0145
948.00,0.0144
947.00,0.0144
946.00,0.0144
945.00,0.0144
944.00,0.0143
943.00,0.0143
942.00,0.0143
941.00,0.0143
940.00,0.0142
939.00,0.0142
938.00,0.0142
937.00,0.0142
936.00,0.0142
935.00,0.0141
934.00,0.0142
933.00,0.0142
932.00,0.0141
931.00,0.0141
930.00,0.0141
929.00,0.0141
928.00,0.0140
927.00,0.0139
926.00,0.0139
925.00,0.0139
924.00,0.0138
923.00,0.0137
922.00,0.0136
921.00,0.0136
920.00,0.0135
919.00,0.0134
918.00,0.0134
917.00,0.0134
916.00,0.0134
915.00,0.0133
914.00,0.0134
913.00,0.0134
912.00,0.0133
911.00,0.0133
910.00,0.0133
909.00,0.0134
908.00,0.0133
907.00,0.0134
906.00,0.0134
905.00,0.0135
904.00,0.0135
903.00,0.0135
902.00,0.0135
901.00,0.0136
900.00,0.0135
899.00,0.0135
898.00,0.0135
897.00,0.0135
896.00,0.0134
895.00,0.0133
894.00,0.0133
893.00,0.0133
892.00,0.0132
891.00,0.0132
890.00,0.0131
889.00,0.0131
888.00,0.0130
887.00,0.0129
886.00,0.0129
885.00,0.0129
884.00,0.0128
883.00,0.0128
882.00,0.0128
881.00,0.0128
880.00,0.0128
879.00,0.0127
878.00,0.0128
877.00,0.0128
876.00,0.0128
875.00,0.0128
874.00,0.0128
873.00,0.0128
872.00,0.0128
871.00,0.0127
870.00,0.0128
869.00,0.0128
868.00,0.0128
867.00,0.0127
866.00,0.0128
865.00,0.0128
864.00,0.0127
863.00,0.0127
862.00,0.0127
861.00,0.0127
860.00,0.0127
859.00,0.0127
858.00,0.0127
857.00,0.0128
856.00,0.0128
855.00,0.0128
854.00,0.0129
853.00,0.0129
852.00,0.0129
851.00,0.0129
850.00,0.0130
849.00,0.0130
848.00,0.0130
847.00,0.0130
846.00,0.0131
845.00,0.0131
844.00,0.0131
843.00,0.0132
842.00,0.0133
841.00,0.0134
840.00,0.0134
839.00,0.0135
838.00,0.0136
837.00,0.0138
836.00,0.0138
835.00,0.0139
834.00,0.0141
833.00,0.0142
832.00,0.0143
831.00,0.0145
830.00,0.0147
829.00,0.0148
828.00,0.0149
827.00,0.0149
826.00,0.0150
825.00,0.0151
824.00,0.0151
823.00,0.0151
822.00,0.0152
821.00,0.0153
820.00,0.0154
819.00,0.0155
818.00,0.0156
817.00,0.0157
816.00,0.0158
815.00,0.0159
814.00,0.0160
813.00,0.0162
812.00,0.0163
811.00,0.0163
810.00,0.0164
809.00,0.0165
808.00,0.0165
807.00,0.0165
806.00,0.0166
805.00,0.0167
804.00,0.0167
803.00,0.0168
802.00,0.0169
801.00,0.0170
800.00,0.0171
799.00,0.0172
798.00,0.0173
797.00,0.0175
796.00,0.0176
795.00,0.0177
794.00,0.0179
793.00,0.0180
792.00,0.0181
791.00,0.0183
790.00,0.0185
789.00,0.0187
788.00,0.0188
787.00,0.0190
786.00,0.0192
785.00,0.0194
784.00,0.0196
783.00,0.0197
782.00,0.0200
781.00,0.0202
780.00,0.0203
779.00,0.0204
778.00,0.0206
777.00,0.0208
776.00,0.0209
775.00,0.0211
774.00,0.0212
773.00,0.0214
772.00,0.0214
771.00,0.0215
770.00,0.0217
769.00,0.0218
768.00,0.0218
767.00,0.0219
766.00,0.0220
765.00,0.0220
764.00,0.0220
763.00,0.0221
762.00,0.0222
761.00,0.0222
760.00,0.0223
759.00,0.0223
758.00,0.0225
757.00,0.0226
756.00,0.0227
755.00,0.0227
754.00,0.0229
753.00,0.0230
752.00,0.0231
751.00,0.0232
750.00,0.0234
749.00,0.0235
748.00,0.0236
747.00,0.0236
746.00,0.0237
745.00,0.0239
744.00,0.0239
743.00,0.0239
742.00,0.0241
741.00,0.0242
740.00,0.0242
739.00,0.0243
738.00,0.0244
737.00,0.0245
736.00,0.0247
735.00,0.0248
734.00,0.0251
733.00,0.0253
732.00,0.0255
731.00,0.0257
730.00,0.0260
729.00,0.0264
728.00,0.0267
727.00,0.0270
726.00,0.0275
725.00,0.0279
724.00,0.0283
723.00,0.0287
722.00,0.0291
721.00,0.0295
720.00,0.0299
719.00,0.0304
718.00,0.0309
717.00,0.0314
716.00,0.0318
715.00,0.0322
714.00,0.0327
713.00,0.0331
712.00,0.0335
711.00,0.0338
710.00,0.0343
709.00,0.0347
708.00,0.0350
707.00,0.0353
706.00,0.0358
705.00,0.0361
704.00,0.0364
703.00,0.0367
702.00,0.0371
701.00,0.0373
700.00,0.0375
699.00,0.0375
698.00,0.0376
697.00,0.0377
696.00,0.0376
695.00,0.0376
694.00,0.0376
693.00,0.0376
692.00,0.0375
691.00,0.0375
690.00,0.0375
689.00,0.0376
688.00,0.0376
687.00,0.0376
686.00,0.0376
685.00,0.0377
684.00,0.0377
683.00,0.0377
682.00,0.0378
681.00,0.0378
680.00,0.0378
679.00,0.0378
678.00,0.0378
677.00,0.0379
676.00,0.0378
675.00,0.0378
674.00,0.0378
673.00,0.0379
672.00,0.0377
671.00,0.0376
670.00,0.0377
669.00,0.0377
668.00,0.0378
667.00,0.0380
666.00,0.0381
665.00,0.0381
664.00,0.0381
663.00,0.0382
662.00,0.0383
661.00,0.0384
660.00,0.0383
659.00,0.0383
658.00,0.0384
657.00,0.0385
656.00,0.0386
655.00,0.0386
654.00,0.0388
653.00,0.0389
652.00,0.0390
651.00,0.0391
650.00,0.0392
649.00,0.0394
648.00,0.0394
647.00,0.0395
646.00,0.0397
645.00,0.0399
644.00,0.0400
643.00,0.0401
642.00,0.0403
641.00,0.0404
640.00,0.0406
639.00,0.0407
638.00,0.0409
637.00,0.0410
636.00,0.0411
635.00,0.0411
634.00,0.0414
633.00,0.0416
632.00,0.0416
631.00,0.0417
630.00,0.0419
629.00,0.0420
628.00,0.0421
627.00,0.0421
626.00,0.0421
625.00,0.0422
624.00,0.0421
623.00,0.0420
622.00,0.0420
621.00,0.0420
620.00,0.0419
619.00,0.0418
618.00,0.0417
617.00,0.0416
616.00,0.0414
615.00,0.0413
614.00,0.0412
613.00,0.0411
612.00,0.0409
611.00,0.0408
610.00,0.0407
609.00,0.0407
608.00,0.0405
607.00,0.0404
606.00,0.0405
605.00,0.0405
604.00,0.0403
603.00,0.0402
602.00,0.0403
601.00,0.0403
600.00,0.0402
599.00,0.0401
598.00,0.0402
597.00,0.0402
596.00,0.0401
595.00,0.0400
594.00,0.0401
593.00,0.0402
592.00,0.0401
591.00,0.0400
590.00,0.0401
589.00,0.0401
588.00,0.0400
587.00,0.0400
586.00,0.0402
585.00,0.0403
584.00,0.0402
583.00,0.0401
582.00,0.0402
581.00,0.0403
580.00,0.0402
579.00,0.0402
578.00,0.0403
577.00,0.0404
576.00,0.0403
575.00,0.0403
574.00,0.0405
573.00,0.0407
572.00,0.0406
571.00,0.0406
570.00,0.0407
569.00,0.0407
568.00,0.0406
567.00,0.0406
566.00,0.0407
565.00,0.0409
564.00,0.0408
563.00,0.0408
562.00,0.0410
561.00,0.0411
560.00,0.0409
559.00,0.0409
558.00,0.0410
557.00,0.0412
556.00,0.0411
555.00,0.0411
554.00,0.0413
553.00,0.0414
552.00,0.0412
551.00,0.0411
550.00,0.0412
549.00,0.0413
548.00,0.0412
547.00,0.0411
546.00,0.0413
545.00,0.0413
544.00,0.0412
543.00,0.0412
542.00,0.0413
541.00,0.0414
540.00,0.0412
539.00,0.0411
538.00,0.0412
537.00,0.0413
536.00,0.0412
535.00,0.0411
534.00,0.0412
533.00,0.0413
532.00,0.0411
531.00,0.0411
530.00,0.0412
529.00,0.0414
528.00,0.0413
527.00,0.0412
526.00,0.0414
525.00,0.0414
524.00,0.0413
523.00,0.0413
522.00,0.0415
521.00,0.0416
520.00,0.0414
519.00,0.0413
518.00,0.0414
517.00,0.0414
516.00,0.0412
515.00,0.0411
514.00,0.0412
513.00,0.0413
512.00,0.0411
511.00,0.0409
510.00,0.0411
509.00,0.0413
508.00,0.0411
507.00,0.0410
506.00,0.0411
505.00,0.0411
504.00,0.0409
503.00,0.0407
502.00,0.0409
501.00,0.0410
500.00,0.0408
499.00,0.0406
498.00,0.0407
497.00,0.0408
496.00,0.0406
495.00,0.0404
494.00,0.0406
493.00,0.0406
492.00,0.0404
491.00,0.0401
490.00,0.0403
489.00,0.0403
488.00,0.0402
487.00,0.0401
486.00,0.0403
485.00,0.0405
484.00,0.0402
483.00,0.0399
482.00,0.0400
481.00,0.0400
480.00,0.0397
479.00,0.0396
478.00,0.0399
477.00,0.0402
476.00,0.0400
475.00,0.0399
474.00,0.0401
473.00,0.0402
472.00,0.0399
471.00,0.0396
470.00,0.0399
469.00,0.0401
468.00,0.0400
467.00,0.0399
466.00,0.0401
465.00,0.0403
464.00,0.0401
463.00,0.0399
462.00,0.0402
461.00,0.0405
460.00,0.0403
459.00,0.0400
458.00,0.0402
457.00,0.0403
456.00,0.0399
455.00,0.0396
454.00,0.0399
453.00,0.0401
452.00,0.0397
451.00,0.0395
450.00,0.0398
449.00,0.0400
448.00,0.0396
447.00,0.0392
446.00,0.0392
445.00,0.0392
444.00,0.0388
443.00,0.0385
442.00,0.0386
441.00,0.0387
440.00,0.0380
439.00,0.0375
438.00,0.0376
437.00,0.0376
436.00,0.0371
435.00,0.0367
434.00,0.0370
433.00,0.0371
432.00,0.0366
431.00,0.0360
430.00,0.0362
429.00,0.0363
428.00,0.0358
427.00,0.0355
426.00,0.0357
425.00,0.0357
424.00,0.0350
423.00,0.0345
422.00,0.0348
421.00,0.0350
420.00,0.0341
419.00,0.0334
418.00,0.0340
417.00,0.0343
416.00,0.0335
415.00,0.0329
414.00,0.0334
413.00,0.0338
412.00,0.0331
411.00,0.0324
410.00,0.0328
409.00,0.0332
408.00,0.0325
407.00,0.0320
406.00,0.0327
405.00,0.0331
404.00,0.0321
403.00,0.0313
402.00,0.0322
401.00,0.0330
400.00,0.0319
