Created as New Dataset,Sample 307 By YargerLab Date Sunday, August 18 2024
cm-1,A
4000.00,0.0099
3999.00,0.0099
3998.00,0.0099
3997.00,0.0098
3996.00,0.0098
3995.00,0.0098
3994.00,0.0098
3993.00,0.0099
3992.00,0.0099
3991.00,0.0099
3990.00,0.0099
3989.00,0.0099
3988.00,0.0099
3987.00,0.0099
3986.00,0.0099
3985.00,0.0099
3984.00,0.0099
3983.00,0.0099
3982.00,0.0099
3981.00,0.0099
3980.00,0.0099
3979.00,0.0099
3978.00,0.0099
3977.00,0.0099
3976.00,0.0099
3975.00,0.0099
3974.00,0.0099
3973.00,0.0099
3972.00,0.0099
3971.00,0.0099
3970.00,0.0099
3969.00,0.0099
3968.00,0.0098
3967.00,0.0098
3966.00,0.0098
3965.00,0.0098
3964.00,0.0098
3963.00,0.0098
3962.00,0.0098
3961.00,0.0098
3960.00,0.0098
3959.00,0.0098
3958.00,0.0098
3957.00,0.0098
3956.00,0.0098
3955.00,0.0098
3954.00,0.0098
3953.00,0.0098
3952.00,0.0098
3951.00,0.0098
3950.00,0.0098
3949.00,0.0098
3948.00,0.0098
3947.00,0.0098
3946.00,0.0098
3945.00,0.0098
3944.00,0.0098
3943.00,0.0098
3942.00,0.0098
3941.00,0.0098
3940.00,0.0098
3939.00,0.0098
3938.00,0.0098
3937.00,0.0098
3936.00,0.0098
3935.00,0.0098
3934.00,0.0098
3933.00,0.0098
3932.00,0.0098
3931.00,0.0098
3930.00,0.0098
3929.00,0.0098
3928.00,0.0098
3927.00,0.0098
3926.00,0.0098
3925.00,0.0098
3924.00,0.0098
3923.00,0.0098
3922.00,0.0098
3921.00,0.0098
3920.00,0.0098
3919.00,0.0098
3918.00,0.0097
3917.00,0.0097
3916.00,0.0097
3915.00,0.0097
3914.00,0.0097
3913.00,0.0097
3912.00,0.0097
3911.00,0.0097
3910.00,0.0097
3909.00,0.0097
3908.00,0.0097
3907.00,0.0097
3906.00,0.0097
3905.00,0.0097
3904.00,0.0097
3903.00,0.0098
3902.00,0.0098
3901.00,0.0097
3900.00,0.0097
3899.00,0.0097
3898.00,0.0097
3897.00,0.0097
3896.00,0.0097
3895.00,0.0097
3894.00,0.0097
3893.00,0.0097
3892.00,0.0097
3891.00,0.0097
3890.00,0.0097
3889.00,0.0097
3888.00,0.0097
3887.00,0.0097
3886.00,0.0097
3885.00,0.0097
3884.00,0.0097
3883.00,0.0097
3882.00,0.0097
3881.00,0.0097
3880.00,0.0096
3879.00,0.0096
3878.00,0.0096
3877.00,0.0096
3876.00,0.0096
3875.00,0.0096
3874.00,0.0096
3873.00,0.0096
3872.00,0.0096
3871.00,0.0096
3870.00,0.0096
3869.00,0.0096
3868.00,0.0096
3867.00,0.0096
3866.00,0.0096
3865.00,0.0096
3864.00,0.0096
3863.00,0.0096
3862.00,0.0096
3861.00,0.0096
3860.00,0.0096
3859.00,0.0096
3858.00,0.0096
3857.00,0.0096
3856.00,0.0096
3855.00,0.0096
3854.00,0.0096
3853.00,0.0096
3852.00,0.0095
3851.00,0.0095
3850.00,0.0095
3849.00,0.0095
3848.00,0.0095
3847.00,0.0095
3846.00,0.0095
3845.00,0.0095
3844.00,0.0095
3843.00,0.0095
3842.00,0.0095
3841.00,0.0095
3840.00,0.0095
3839.00,0.0095
3838.00,0.0095
3837.00,0.0095
3836.00,0.0095
3835.00,0.0095
3834.00,0.0095
3833.00,0.0095
3832.00,0.0095
3831.00,0.0095
3830.00,0.0095
3829.00,0.0095
3828.00,0.0095
3827.00,0.0095
3826.00,0.0095
3825.00,0.0095
3824.00,0.0095
3823.00,0.0095
3822.00,0.0095
3821.00,0.0094
3820.00,0.0094
3819.00,0.0094
3818.00,0.0094
3817.00,0.0094
3816.00,0.0094
3815.00,0.0094
3814.00,0.0094
3813.00,0.0094
3812.00,0.0094
3811.00,0.0094
3810.00,0.0094
3809.00,0.0094
3808.00,0.0094
3807.00,0.0094
3806.00,0.0094
3805.00,0.0094
3804.00,0.0094
3803.00,0.0094
3802.00,0.0094
3801.00,0.0094
3800.00,0.0093
3799.00,0.0093
3798.00,0.0093
3797.00,0.0093
3796.00,0.0093
3795.00,0.0093
3794.00,0.0093
3793.00,0.0093
3792.00,0.0093
3791.00,0.0093
3790.00,0.0093
3789.00,0.0093
3788.00,0.0093
3787.00,0.0093
3786.00,0.0093
3785.00,0.0093
3784.00,0.0093
3783.00,0.0093
3782.00,0.0093
3781.00,0.0093
3780.00,0.0093
3779.00,0.0093
3778.00,0.0092
3777.00,0.0092
3776.00,0.0092
3775.00,0.0092
3774.00,0.0092
3773.00,0.0092
3772.00,0.0092
3771.00,0.0092
3770.00,0.0092
3769.00,0.0092
3768.00,0.0092
3767.00,0.0092
3766.00,0.0092
3765.00,0.0092
3764.00,0.0092
3763.00,0.0092
3762.00,0.0092
3761.00,0.0092
3760.00,0.0092
3759.00,0.0092
3758.00,0.0092
3757.00,0.0092
3756.00,0.0093
3755.00,0.0093
3754.00,0.0093
3753.00,0.0093
3752.00,0.0093
3751.00,0.0093
3750.00,0.0093
3749.00,0.0093
3748.00,0.0092
3747.00,0.0092
3746.00,0.0092
3745.00,0.0092
3744.00,0.0092
3743.00,0.0092
3742.00,0.0091
3741.00,0.0091
3740.00,0.0092
3739.00,0.0092
3738.00,0.0091
3737.00,0.0091
3736.00,0.0091
3735.00,0.0091
3734.00,0.0091
3733.00,0.0091
3732.00,0.0091
3731.00,0.0090
3730.00,0.0090
3729.00,0.0091
3728.00,0.0091
3727.00,0.0091
3726.00,0.0091
3725.00,0.0090
3724.00,0.0090
3723.00,0.0090
3722.00,0.0090
3721.00,0.0090
3720.00,0.0089
3719.00,0.0089
3718.00,0.0089
3717.00,0.0089
3716.00,0.0089
3715.00,0.0089
3714.00,0.0089
3713.00,0.0089
3712.00,0.0089
3711.00,0.0089
3710.00,0.0089
3709.00,0.0089
3708.00,0.0089
3707.00,0.0089
3706.00,0.0088
3705.00,0.0088
3704.00,0.0088
3703.00,0.0088
3702.00,0.0087
3701.00,0.0087
3700.00,0.0087
3699.00,0.0088
3698.00,0.0088
3697.00,0.0088
3696.00,0.0088
3695.00,0.0088
3694.00,0.0088
3693.00,0.0088
3692.00,0.0088
3691.00,0.0088
3690.00,0.0087
3689.00,0.0087
3688.00,0.0087
3687.00,0.0087
3686.00,0.0087
3685.00,0.0088
3684.00,0.0088
3683.00,0.0088
3682.00,0.0088
3681.00,0.0088
3680.00,0.0088
3679.00,0.0088
3678.00,0.0088
3677.00,0.0088
3676.00,0.0088
3675.00,0.0088
3674.00,0.0088
3673.00,0.0088
3672.00,0.0088
3671.00,0.0088
3670.00,0.0088
3669.00,0.0088
3668.00,0.0088
3667.00,0.0088
3666.00,0.0088
3665.00,0.0088
3664.00,0.0088
3663.00,0.0088
3662.00,0.0089
3661.00,0.0089
3660.00,0.0089
3659.00,0.0089
3658.00,0.0089
3657.00,0.0089
3656.00,0.0090
3655.00,0.0090
3654.00,0.0090
3653.00,0.0090
3652.00,0.0090
3651.00,0.0090
3650.00,0.0091
3649.00,0.0091
3648.00,0.0091
3647.00,0.0091
3646.00,0.0091
3645.00,0.0091
3644.00,0.0091
3643.00,0.0091
3642.00,0.0091
3641.00,0.0092
3640.00,0.0092
3639.00,0.0092
3638.00,0.0093
3637.00,0.0093
3636.00,0.0093
3635.00,0.0093
3634.00,0.0093
3633.00,0.0094
3632.00,0.0094
3631.00,0.0094
3630.00,0.0094
3629.00,0.0095
3628.00,0.0095
3627.00,0.0095
3626.00,0.0095
3625.00,0.0096
3624.00,0.0096
3623.00,0.0096
3622.00,0.0096
3621.00,0.0096
3620.00,0.0096
3619.00,0.0097
3618.00,0.0097
3617.00,0.0098
3616.00,0.0098
3615.00,0.0098
3614.00,0.0099
3613.00,0.0099
3612.00,0.0100
3611.00,0.0100
3610.00,0.0100
3609.00,0.0100
3608.00,0.0100
3607.00,0.0100
3606.00,0.0101
3605.00,0.0101
3604.00,0.0101
3603.00,0.0101
3602.00,0.0101
3601.00,0.0102
3600.00,0.0102
3599.00,0.0102
3598.00,0.0103
3597.00,0.0103
3596.00,0.0103
3595.00,0.0104
3594.00,0.0104
3593.00,0.0105
3592.00,0.0105
3591.00,0.0105
3590.00,0.0106
3589.00,0.0106
3588.00,0.0106
3587.00,0.0106
3586.00,0.0107
3585.00,0.0107
3584.00,0.0107
3583.00,0.0108
3582.00,0.0108
3581.00,0.0108
3580.00,0.0109
3579.00,0.0109
3578.00,0.0109
3577.00,0.0110
3576.00,0.0110
3575.00,0.0110
3574.00,0.0111
3573.00,0.0111
3572.00,0.0112
3571.00,0.0113
3570.00,0.0113
3569.00,0.0113
3568.00,0.0114
3567.00,0.0114
3566.00,0.0114
3565.00,0.0115
3564.00,0.0115
3563.00,0.0116
3562.00,0.0116
3561.00,0.0116
3560.00,0.0117
3559.00,0.0117
3558.00,0.0118
3557.00,0.0118
3556.00,0.0119
3555.00,0.0119
3554.00,0.0120
3553.00,0.0120
3552.00,0.0121
3551.00,0.0121
3550.00,0.0122
3549.00,0.0122
3548.00,0.0123
3547.00,0.0123
3546.00,0.0124
3545.00,0.0124
3544.00,0.0124
3543.00,0.0125
3542.00,0.0125
3541.00,0.0125
3540.00,0.0126
3539.00,0.0126
3538.00,0.0127
3537.00,0.0127
3536.00,0.0128
3535.00,0.0128
3534.00,0.0129
3533.00,0.0129
3532.00,0.0129
3531.00,0.0130
3530.00,0.0131
3529.00,0.0131
3528.00,0.0132
3527.00,0.0132
3526.00,0.0133
3525.00,0.0133
3524.00,0.0133
3523.00,0.0134
3522.00,0.0134
3521.00,0.0135
3520.00,0.0135
3519.00,0.0135
3518.00,0.0135
3517.00,0.0136
3516.00,0.0136
3515.00,0.0137
3514.00,0.0137
3513.00,0.0138
3512.00,0.0138
3511.00,0.0139
3510.00,0.0139
3509.00,0.0140
3508.00,0.0140
3507.00,0.0140
3506.00,0.0141
3505.00,0.0142
3504.00,0.0142
3503.00,0.0143
3502.00,0.0143
3501.00,0.0144
3500.00,0.0144
3499.00,0.0144
3498.00,0.0145
3497.00,0.0145
3496.00,0.0146
3495.00,0.0146
3494.00,0.0147
3493.00,0.0147
3492.00,0.0147
3491.00,0.0148
3490.00,0.0148
3489.00,0.0149
3488.00,0.0150
3487.00,0.0150
3486.00,0.0151
3485.00,0.0151
3484.00,0.0152
3483.00,0.0152
3482.00,0.0153
3481.00,0.0153
3480.00,0.0154
3479.00,0.0154
3478.00,0.0155
3477.00,0.0155
3476.00,0.0155
3475.00,0.0156
3474.00,0.0156
3473.00,0.0157
3472.00,0.0157
3471.00,0.0158
3470.00,0.0159
3469.00,0.0159
3468.00,0.0160
3467.00,0.0160
3466.00,0.0160
3465.00,0.0161
3464.00,0.0161
3463.00,0.0162
3462.00,0.0163
3461.00,0.0163
3460.00,0.0164
3459.00,0.0164
3458.00,0.0164
3457.00,0.0165
3456.00,0.0165
3455.00,0.0166
3454.00,0.0166
3453.00,0.0166
3452.00,0.0167
3451.00,0.0168
3450.00,0.0168
3449.00,0.0169
3448.00,0.0169
3447.00,0.0170
3446.00,0.0170
3445.00,0.0171
3444.00,0.0171
3443.00,0.0172
3442.00,0.0172
3441.00,0.0173
3440.00,0.0173
3439.00,0.0174
3438.00,0.0174
3437.00,0.0175
3436.00,0.0175
3435.00,0.0176
3434.00,0.0176
3433.00,0.0177
3432.00,0.0177
3431.00,0.0178
3430.00,0.0178
3429.00,0.0179
3428.00,0.0179
3427.00,0.0180
3426.00,0.0180
3425.00,0.0181
3424.00,0.0182
3423.00,0.0182
3422.00,0.0182
3421.00,0.0183
3420.00,0.0183
3419.00,0.0184
3418.00,0.0184
3417.00,0.0185
3416.00,0.0185
3415.00,0.0186
3414.00,0.0186
3413.00,0.0187
3412.00,0.0187
3411.00,0.0188
3410.00,0.0188
3409.00,0.0189
3408.00,0.0189
3407.00,0.0189
3406.00,0.0190
3405.00,0.0190
3404.00,0.0191
3403.00,0.0191
3402.00,0.0192
3401.00,0.0192
3400.00,0.0193
3399.00,0.0193
3398.00,0.0193
3397.00,0.0194
3396.00,0.0194
3395.00,0.0195
3394.00,0.0195
3393.00,0.0195
3392.00,0.0196
3391.00,0.0196
3390.00,0.0197
3389.00,0.0197
3388.00,0.0198
3387.00,0.0198
3386.00,0.0199
3385.00,0.0199
3384.00,0.0200
3383.00,0.0200
3382.00,0.0201
3381.00,0.0201
3380.00,0.0201
3379.00,0.0202
3378.00,0.0203
3377.00,0.0203
3376.00,0.0204
3375.00,0.0204
3374.00,0.0205
3373.00,0.0205
3372.00,0.0206
3371.00,0.0206
3370.00,0.0207
3369.00,0.0208
3368.00,0.0208
3367.00,0.0209
3366.00,0.0209
3365.00,0.0210
3364.00,0.0211
3363.00,0.0211
3362.00,0.0212
3361.00,0.0212
3360.00,0.0213
3359.00,0.0214
3358.00,0.0215
3357.00,0.0215
3356.00,0.0216
3355.00,0.0217
3354.00,0.0218
3353.00,0.0219
3352.00,0.0219
3351.00,0.0220
3350.00,0.0221
3349.00,0.0222
3348.00,0.0223
3347.00,0.0224
3346.00,0.0224
3345.00,0.0225
3344.00,0.0226
3343.00,0.0227
3342.00,0.0228
3341.00,0.0229
3340.00,0.0230
3339.00,0.0231
3338.00,0.0232
3337.00,0.0233
3336.00,0.0234
3335.00,0.0235
3334.00,0.0236
3333.00,0.0238
3332.00,0.0239
3331.00,0.0240
3330.00,0.0241
3329.00,0.0242
3328.00,0.0243
3327.00,0.0245
3326.00,0.0246
3325.00,0.0248
3324.00,0.0249
3323.00,0.0251
3322.00,0.0252
3321.00,0.0253
3320.00,0.0255
3319.00,0.0257
3318.00,0.0258
3317.00,0.0260
3316.00,0.0261
3315.00,0.0263
3314.00,0.0265
3313.00,0.0266
3312.00,0.0268
3311.00,0.0269
3310.00,0.0271
3309.00,0.0272
3308.00,0.0274
3307.00,0.0276
3306.00,0.0278
3305.00,0.0281
3304.00,0.0283
3303.00,0.0285
3302.00,0.0287
3301.00,0.0289
3300.00,0.0291
3299.00,0.0293
3298.00,0.0295
3297.00,0.0297
3296.00,0.0299
3295.00,0.0301
3294.00,0.0303
3293.00,0.0305
3292.00,0.0307
3291.00,0.0309
3290.00,0.0311
3289.00,0.0313
3288.00,0.0315
3287.00,0.0317
3286.00,0.0319
3285.00,0.0320
3284.00,0.0322
3283.00,0.0323
3282.00,0.0324
3281.00,0.0325
3280.00,0.0326
3279.00,0.0327
3278.00,0.0328
3277.00,0.0329
3276.00,0.0329
3275.00,0.0330
3274.00,0.0330
3273.00,0.0330
3272.00,0.0330
3271.00,0.0330
3270.00,0.0330
3269.00,0.0330
3268.00,0.0329
3267.00,0.0329
3266.00,0.0328
3265.00,0.0327
3264.00,0.0326
3263.00,0.0324
3262.00,0.0323
3261.00,0.0322
3260.00,0.0320
3259.00,0.0319
3258.00,0.0317
3257.00,0.0315
3256.00,0.0314
3255.00,0.0312
3254.00,0.0311
3253.00,0.0309
3252.00,0.0308
3251.00,0.0306
3250.00,0.0304
3249.00,0.0302
3248.00,0.0300
3247.00,0.0298
3246.00,0.0297
3245.00,0.0295
3244.00,0.0294
3243.00,0.0293
3242.00,0.0291
3241.00,0.0290
3240.00,0.0288
3239.00,0.0287
3238.00,0.0285
3237.00,0.0284
3236.00,0.0282
3235.00,0.0281
3234.00,0.0279
3233.00,0.0278
3232.00,0.0277
3231.00,0.0276
3230.00,0.0275
3229.00,0.0274
3228.00,0.0273
3227.00,0.0272
3226.00,0.0271
3225.00,0.0270
3224.00,0.0269
3223.00,0.0268
3222.00,0.0267
3221.00,0.0266
3220.00,0.0265
3219.00,0.0265
3218.00,0.0264
3217.00,0.0263
3216.00,0.0262
3215.00,0.0261
3214.00,0.0260
3213.00,0.0259
3212.00,0.0259
3211.00,0.0258
3210.00,0.0257
3209.00,0.0257
3208.00,0.0256
3207.00,0.0255
3206.00,0.0254
3205.00,0.0253
3204.00,0.0253
3203.00,0.0252
3202.00,0.0251
3201.00,0.0250
3200.00,0.0249
3199.00,0.0249
3198.00,0.0248
3197.00,0.0247
3196.00,0.0246
3195.00,0.0245
3194.00,0.0245
3193.00,0.0244
3192.00,0.0243
3191.00,0.0242
3190.00,0.0242
3189.00,0.0241
3188.00,0.0240
3187.00,0.0239
3186.00,0.0239
3185.00,0.0238
3184.00,0.0237
3183.00,0.0236
3182.00,0.0235
3181.00,0.0234
3180.00,0.0234
3179.00,0.0233
3178.00,0.0232
3177.00,0.0231
3176.00,0.0230
3175.00,0.0229
3174.00,0.0228
3173.00,0.0227
3172.00,0.0227
3171.00,0.0226
3170.00,0.0225
3169.00,0.0224
3168.00,0.0224
3167.00,0.0223
3166.00,0.0222
3165.00,0.0221
3164.00,0.0220
3163.00,0.0219
3162.00,0.0218
3161.00,0.0218
3160.00,0.0217
3159.00,0.0216
3158.00,0.0215
3157.00,0.0215
3156.00,0.0214
3155.00,0.0213
3154.00,0.0212
3153.00,0.0211
3152.00,0.0211
3151.00,0.0210
3150.00,0.0209
3149.00,0.0209
3148.00,0.0208
3147.00,0.0207
3146.00,0.0206
3145.00,0.0206
3144.00,0.0205
3143.00,0.0204
3142.00,0.0204
3141.00,0.0203
3140.00,0.0202
3139.00,0.0202
3138.00,0.0202
3137.00,0.0201
3136.00,0.0201
3135.00,0.0200
3134.00,0.0199
3133.00,0.0199
3132.00,0.0198
3131.00,0.0198
3130.00,0.0197
3129.00,0.0197
3128.00,0.0197
3127.00,0.0196
3126.00,0.0196
3125.00,0.0195
3124.00,0.0195
3123.00,0.0194
3122.00,0.0194
3121.00,0.0193
3120.00,0.0193
3119.00,0.0192
3118.00,0.0192
3117.00,0.0192
3116.00,0.0192
3115.00,0.0192
3114.00,0.0191
3113.00,0.0191
3112.00,0.0191
3111.00,0.0191
3110.00,0.0191
3109.00,0.0191
3108.00,0.0190
3107.00,0.0191
3106.00,0.0191
3105.00,0.0191
3104.00,0.0191
3103.00,0.0190
3102.00,0.0190
3101.00,0.0190
3100.00,0.0190
3099.00,0.0190
3098.00,0.0191
3097.00,0.0191
3096.00,0.0191
3095.00,0.0191
3094.00,0.0191
3093.00,0.0191
3092.00,0.0191
3091.00,0.0191
3090.00,0.0191
3089.00,0.0191
3088.00,0.0191
3087.00,0.0191
3086.00,0.0191
3085.00,0.0191
3084.00,0.0191
3083.00,0.0191
3082.00,0.0191
3081.00,0.0191
3080.00,0.0191
3079.00,0.0191
3078.00,0.0191
3077.00,0.0191
3076.00,0.0191
3075.00,0.0191
3074.00,0.0192
3073.00,0.0191
3072.00,0.0191
3071.00,0.0191
3070.00,0.0191
3069.00,0.0190
3068.00,0.0190
3067.00,0.0190
3066.00,0.0190
3065.00,0.0190
3064.00,0.0190
3063.00,0.0190
3062.00,0.0190
3061.00,0.0190
3060.00,0.0189
3059.00,0.0189
3058.00,0.0188
3057.00,0.0188
3056.00,0.0188
3055.00,0.0187
3054.00,0.0187
3053.00,0.0186
3052.00,0.0186
3051.00,0.0185
3050.00,0.0185
3049.00,0.0184
3048.00,0.0184
3047.00,0.0183
3046.00,0.0183
3045.00,0.0182
3044.00,0.0181
3043.00,0.0181
3042.00,0.0180
3041.00,0.0180
3040.00,0.0180
3039.00,0.0179
3038.00,0.0179
3037.00,0.0178
3036.00,0.0178
3035.00,0.0177
3034.00,0.0176
3033.00,0.0176
3032.00,0.0176
3031.00,0.0175
3030.00,0.0175
3029.00,0.0175
3028.00,0.0174
3027.00,0.0174
3026.00,0.0173
3025.00,0.0173
3024.00,0.0172
3023.00,0.0172
3022.00,0.0171
3021.00,0.0171
3020.00,0.0170
3019.00,0.0169
3018.00,0.0169
3017.00,0.0168
3016.00,0.0168
3015.00,0.0167
3014.00,0.0167
3013.00,0.0166
3012.00,0.0166
3011.00,0.0166
3010.00,0.0166
3009.00,0.0166
3008.00,0.0166
3007.00,0.0165
3006.00,0.0165
3005.00,0.0165
3004.00,0.0165
3003.00,0.0165
3002.00,0.0165
3001.00,0.0165
3000.00,0.0165
2999.00,0.0165
2998.00,0.0165
2997.00,0.0165
2996.00,0.0165
2995.00,0.0165
2994.00,0.0165
2993.00,0.0165
2992.00,0.0166
2991.00,0.0166
2990.00,0.0167
2989.00,0.0167
2988.00,0.0168
2987.00,0.0168
2986.00,0.0169
2985.00,0.0169
2984.00,0.0170
2983.00,0.0170
2982.00,0.0171
2981.00,0.0171
2980.00,0.0172
2979.00,0.0172
2978.00,0.0173
2977.00,0.0173
2976.00,0.0174
2975.00,0.0174
2974.00,0.0175
2973.00,0.0175
2972.00,0.0176
2971.00,0.0176
2970.00,0.0176
2969.00,0.0177
2968.00,0.0177
2967.00,0.0177
2966.00,0.0177
2965.00,0.0176
2964.00,0.0176
2963.00,0.0176
2962.00,0.0176
2961.00,0.0176
2960.00,0.0176
2959.00,0.0175
2958.00,0.0175
2957.00,0.0175
2956.00,0.0174
2955.00,0.0174
2954.00,0.0174
2953.00,0.0174
2952.00,0.0174
2951.00,0.0174
2950.00,0.0174
2949.00,0.0174
2948.00,0.0174
2947.00,0.0174
2946.00,0.0174
2945.00,0.0174
2944.00,0.0175
2943.00,0.0175
2942.00,0.0175
2941.00,0.0176
2940.00,0.0176
2939.00,0.0176
2938.00,0.0176
2937.00,0.0176
2936.00,0.0176
2935.00,0.0176
2934.00,0.0176
2933.00,0.0176
2932.00,0.0175
2931.00,0.0174
2930.00,0.0173
2929.00,0.0172
2928.00,0.0171
2927.00,0.0170
2926.00,0.0169
2925.00,0.0167
2924.00,0.0166
2923.00,0.0164
2922.00,0.0162
2921.00,0.0160
2920.00,0.0158
2919.00,0.0156
2918.00,0.0155
2917.00,0.0153
2916.00,0.0153
2915.00,0.0153
2914.00,0.0154
2913.00,0.0156
2912.00,0.0157
2911.00,0.0158
2910.00,0.0159
2909.00,0.0160
2908.00,0.0160
2907.00,0.0160
2906.00,0.0160
2905.00,0.0160
2904.00,0.0160
2903.00,0.0160
2902.00,0.0160
2901.00,0.0159
2900.00,0.0159
2899.00,0.0159
2898.00,0.0159
2897.00,0.0159
2896.00,0.0159
2895.00,0.0159
2894.00,0.0159
2893.00,0.0159
2892.00,0.0159
2891.00,0.0160
2890.00,0.0160
2889.00,0.0160
2888.00,0.0160
2887.00,0.0160
2886.00,0.0161
2885.00,0.0161
2884.00,0.0161
2883.00,0.0162
2882.00,0.0162
2881.00,0.0162
2880.00,0.0163
2879.00,0.0163
2878.00,0.0163
2877.00,0.0163
2876.00,0.0163
2875.00,0.0163
2874.00,0.0163
2873.00,0.0163
2872.00,0.0163
2871.00,0.0162
2870.00,0.0162
2869.00,0.0161
2868.00,0.0161
2867.00,0.0160
2866.00,0.0159
2865.00,0.0158
2864.00,0.0157
2863.00,0.0156
2862.00,0.0155
2861.00,0.0155
2860.00,0.0154
2859.00,0.0153
2858.00,0.0152
2857.00,0.0151
2856.00,0.0150
2855.00,0.0149
2854.00,0.0147
2853.00,0.0146
2852.00,0.0144
2851.00,0.0142
2850.00,0.0140
2849.00,0.0139
2848.00,0.0139
2847.00,0.0140
2846.00,0.0142
2845.00,0.0143
2844.00,0.0144
2843.00,0.0145
2842.00,0.0146
2841.00,0.0146
2840.00,0.0146
2839.00,0.0146
2838.00,0.0146
2837.00,0.0146
2836.00,0.0145
2835.00,0.0145
2834.00,0.0145
2833.00,0.0145
2832.00,0.0145
2831.00,0.0145
2830.00,0.0144
2829.00,0.0144
2828.00,0.0144
2827.00,0.0144
2826.00,0.0144
2825.00,0.0143
2824.00,0.0143
2823.00,0.0143
2822.00,0.0143
2821.00,0.0143
2820.00,0.0142
2819.00,0.0142
2818.00,0.0142
2817.00,0.0142
2816.00,0.0142
2815.00,0.0142
2814.00,0.0142
2813.00,0.0141
2812.00,0.0141
2811.00,0.0141
2810.00,0.0141
2809.00,0.0141
2808.00,0.0141
2807.00,0.0140
2806.00,0.0140
2805.00,0.0140
2804.00,0.0140
2803.00,0.0140
2802.00,0.0140
2801.00,0.0140
2800.00,0.0139
2799.00,0.0139
2798.00,0.0139
2797.00,0.0139
2796.00,0.0139
2795.00,0.0139
2794.00,0.0139
2793.00,0.0138
2792.00,0.0138
2791.00,0.0138
2790.00,0.0138
2789.00,0.0138
2788.00,0.0138
2787.00,0.0138
2786.00,0.0137
2785.00,0.0137
2784.00,0.0137
2783.00,0.0137
2782.00,0.0137
2781.00,0.0137
2780.00,0.0137
2779.00,0.0137
2778.00,0.0137
2777.00,0.0136
2776.00,0.0136
2775.00,0.0136
2774.00,0.0136
2773.00,0.0136
2772.00,0.0136
2771.00,0.0135
2770.00,0.0135
2769.00,0.0135
2768.00,0.0135
2767.00,0.0135
2766.00,0.0135
2765.00,0.0135
2764.00,0.0134
2763.00,0.0134
2762.00,0.0134
2761.00,0.0134
2760.00,0.0134
2759.00,0.0134
2758.00,0.0134
2757.00,0.0133
2756.00,0.0133
2755.00,0.0133
2754.00,0.0133
2753.00,0.0133
2752.00,0.0133
2751.00,0.0132
2750.00,0.0132
2749.00,0.0132
2748.00,0.0132
2747.00,0.0132
2746.00,0.0132
2745.00,0.0132
2744.00,0.0132
2743.00,0.0131
2742.00,0.0131
2741.00,0.0131
2740.00,0.0131
2739.00,0.0131
2738.00,0.0131
2737.00,0.0131
2736.00,0.0130
2735.00,0.0130
2734.00,0.0130
2733.00,0.0130
2732.00,0.0130
2731.00,0.0130
2730.00,0.0130
2729.00,0.0130
2728.00,0.0130
2727.00,0.0129
2726.00,0.0129
2725.00,0.0129
2724.00,0.0129
2723.00,0.0129
2722.00,0.0128
2721.00,0.0128
2720.00,0.0128
2719.00,0.0128
2718.00,0.0128
2717.00,0.0128
2716.00,0.0128
2715.00,0.0127
2714.00,0.0127
2713.00,0.0127
2712.00,0.0127
2711.00,0.0127
2710.00,0.0127
2709.00,0.0126
2708.00,0.0126
2707.00,0.0126
2706.00,0.0126
2705.00,0.0126
2704.00,0.0125
2703.00,0.0125
2702.00,0.0125
2701.00,0.0125
2700.00,0.0125
2699.00,0.0125
2698.00,0.0125
2697.00,0.0125
2696.00,0.0125
2695.00,0.0125
2694.00,0.0124
2693.00,0.0124
2692.00,0.0124
2691.00,0.0124
2690.00,0.0124
2689.00,0.0124
2688.00,0.0124
2687.00,0.0123
2686.00,0.0123
2685.00,0.0123
2684.00,0.0123
2683.00,0.0123
2682.00,0.0123
2681.00,0.0123
2680.00,0.0123
2679.00,0.0123
2678.00,0.0122
2677.00,0.0122
2676.00,0.0122
2675.00,0.0122
2674.00,0.0122
2673.00,0.0122
2672.00,0.0122
2671.00,0.0122
2670.00,0.0122
2669.00,0.0122
2668.00,0.0122
2667.00,0.0122
2666.00,0.0123
2665.00,0.0123
2664.00,0.0123
2663.00,0.0123
2662.00,0.0124
2661.00,0.0124
2660.00,0.0124
2659.00,0.0124
2658.00,0.0124
2657.00,0.0124
2656.00,0.0124
2655.00,0.0124
2654.00,0.0124
2653.00,0.0124
2652.00,0.0124
2651.00,0.0124
2650.00,0.0124
2649.00,0.0124
2648.00,0.0124
2647.00,0.0123
2646.00,0.0123
2645.00,0.0123
2644.00,0.0123
2643.00,0.0123
2642.00,0.0123
2641.00,0.0123
2640.00,0.0123
2639.00,0.0123
2638.00,0.0122
2637.00,0.0122
2636.00,0.0122
2635.00,0.0122
2634.00,0.0122
2633.00,0.0121
2632.00,0.0121
2631.00,0.0121
2630.00,0.0121
2629.00,0.0121
2628.00,0.0121
2627.00,0.0121
2626.00,0.0121
2625.00,0.0120
2624.00,0.0120
2623.00,0.0120
2622.00,0.0120
2621.00,0.0119
2620.00,0.0119
2619.00,0.0119
2618.00,0.0119
2617.00,0.0119
2616.00,0.0119
2615.00,0.0119
2614.00,0.0119
2613.00,0.0118
2612.00,0.0118
2611.00,0.0118
2610.00,0.0118
2609.00,0.0118
2608.00,0.0118
2607.00,0.0118
2606.00,0.0117
2605.00,0.0117
2604.00,0.0117
2603.00,0.0117
2602.00,0.0116
2601.00,0.0116
2600.00,0.0116
2599.00,0.0116
2598.00,0.0116
2597.00,0.0116
2596.00,0.0116
2595.00,0.0116
2594.00,0.0116
2593.00,0.0115
2592.00,0.0115
2591.00,0.0115
2590.00,0.0115
2589.00,0.0115
2588.00,0.0115
2587.00,0.0115
2586.00,0.0115
2585.00,0.0114
2584.00,0.0114
2583.00,0.0114
2582.00,0.0114
2581.00,0.0114
2580.00,0.0113
2579.00,0.0113
2578.00,0.0113
2577.00,0.0113
2576.00,0.0113
2575.00,0.0113
2574.00,0.0113
2573.00,0.0112
2572.00,0.0112
2571.00,0.0112
2570.00,0.0112
2569.00,0.0112
2568.00,0.0112
2567.00,0.0112
2566.00,0.0112
2565.00,0.0112
2564.00,0.0112
2563.00,0.0111
2562.00,0.0111
2561.00,0.0111
2560.00,0.0111
2559.00,0.0111
2558.00,0.0111
2557.00,0.0111
2556.00,0.0111
2555.00,0.0110
2554.00,0.0110
2553.00,0.0110
2552.00,0.0110
2551.00,0.0110
2550.00,0.0110
2549.00,0.0110
2548.00,0.0110
2547.00,0.0110
2546.00,0.0110
2545.00,0.0110
2544.00,0.0109
2543.00,0.0109
2542.00,0.0109
2541.00,0.0109
2540.00,0.0109
2539.00,0.0109
2538.00,0.0109
2537.00,0.0109
2536.00,0.0108
2535.00,0.0108
2534.00,0.0108
2533.00,0.0108
2532.00,0.0108
2531.00,0.0108
2530.00,0.0108
2529.00,0.0108
2528.00,0.0108
2527.00,0.0108
2526.00,0.0108
2525.00,0.0108
2524.00,0.0108
2523.00,0.0107
2522.00,0.0107
2521.00,0.0107
2520.00,0.0107
2519.00,0.0107
2518.00,0.0106
2517.00,0.0106
2516.00,0.0106
2515.00,0.0106
2514.00,0.0106
2513.00,0.0106
2512.00,0.0106
2511.00,0.0106
2510.00,0.0106
2509.00,0.0106
2508.00,0.0106
2507.00,0.0106
2506.00,0.0106
2505.00,0.0106
2504.00,0.0105
2503.00,0.0105
2502.00,0.0105
2501.00,0.0105
2500.00,0.0105
2499.00,0.0105
2498.00,0.0105
2497.00,0.0105
2496.00,0.0105
2495.00,0.0105
2494.00,0.0105
2493.00,0.0105
2492.00,0.0105
2491.00,0.0105
2490.00,0.0105
2489.00,0.0105
2488.00,0.0105
2487.00,0.0105
2486.00,0.0105
2485.00,0.0104
2484.00,0.0104
2483.00,0.0104
2482.00,0.0104
2481.00,0.0104
2480.00,0.0104
2479.00,0.0104
2478.00,0.0104
2477.00,0.0104
2476.00,0.0104
2475.00,0.0104
2474.00,0.0104
2473.00,0.0104
2472.00,0.0104
2471.00,0.0104
2470.00,0.0103
2469.00,0.0103
2468.00,0.0103
2467.00,0.0103
2466.00,0.0103
2465.00,0.0103
2464.00,0.0103
2463.00,0.0103
2462.00,0.0103
2461.00,0.0104
2460.00,0.0104
2459.00,0.0104
2458.00,0.0104
2457.00,0.0104
2456.00,0.0104
2455.00,0.0104
2454.00,0.0104
2453.00,0.0104
2452.00,0.0104
2451.00,0.0103
2450.00,0.0103
2449.00,0.0103
2448.00,0.0103
2447.00,0.0103
2446.00,0.0103
2445.00,0.0102
2444.00,0.0102
2443.00,0.0102
2442.00,0.0101
2441.00,0.0101
2440.00,0.0101
2439.00,0.0101
2438.00,0.0101
2437.00,0.0101
2436.00,0.0101
2435.00,0.0101
2434.00,0.0101
2433.00,0.0101
2432.00,0.0100
2431.00,0.0100
2430.00,0.0100
2429.00,0.0100
2428.00,0.0100
2427.00,0.0100
2426.00,0.0100
2425.00,0.0100
2424.00,0.0099
2423.00,0.0099
2422.00,0.0099
2421.00,0.0099
2420.00,0.0099
2419.00,0.0099
2418.00,0.0099
2417.00,0.0099
2416.00,0.0098
2415.00,0.0098
2414.00,0.0098
2413.00,0.0098
2412.00,0.0098
2411.00,0.0098
2410.00,0.0098
2409.00,0.0097
2408.00,0.0097
2407.00,0.0097
2406.00,0.0097
2405.00,0.0097
2404.00,0.0097
2403.00,0.0096
2402.00,0.0096
2401.00,0.0096
2400.00,0.0096
2399.00,0.0096
2398.00,0.0096
2397.00,0.0096
2396.00,0.0096
2395.00,0.0095
2394.00,0.0095
2393.00,0.0095
2392.00,0.0096
2391.00,0.0095
2390.00,0.0095
2389.00,0.0095
2388.00,0.0095
2387.00,0.0094
2386.00,0.0094
2385.00,0.0093
2384.00,0.0093
2383.00,0.0092
2382.00,0.0091
2381.00,0.0091
2380.00,0.0090
2379.00,0.0090
2378.00,0.0091
2377.00,0.0091
2376.00,0.0092
2375.00,0.0092
2374.00,0.0092
2373.00,0.0092
2372.00,0.0092
2371.00,0.0091
2370.00,0.0091
2369.00,0.0091
2368.00,0.0091
2367.00,0.0091
2366.00,0.0091
2365.00,0.0091
2364.00,0.0092
2363.00,0.0092
2362.00,0.0092
2361.00,0.0093
2360.00,0.0093
2359.00,0.0093
2358.00,0.0093
2357.00,0.0093
2356.00,0.0093
2355.00,0.0093
2354.00,0.0093
2353.00,0.0093
2352.00,0.0092
2351.00,0.0092
2350.00,0.0093
2349.00,0.0094
2348.00,0.0095
2347.00,0.0095
2346.00,0.0095
2345.00,0.0095
2344.00,0.0095
2343.00,0.0095
2342.00,0.0095
2341.00,0.0096
2340.00,0.0096
2339.00,0.0096
2338.00,0.0096
2337.00,0.0095
2336.00,0.0095
2335.00,0.0095
2334.00,0.0095
2333.00,0.0094
2332.00,0.0094
2331.00,0.0093
2330.00,0.0094
2329.00,0.0095
2328.00,0.0098
2327.00,0.0102
2326.00,0.0105
2325.00,0.0106
2324.00,0.0105
2323.00,0.0103
2322.00,0.0101
2321.00,0.0100
2320.00,0.0099
2319.00,0.0099
2318.00,0.0099
2317.00,0.0098
2316.00,0.0098
2315.00,0.0097
2314.00,0.0097
2313.00,0.0096
2312.00,0.0095
2311.00,0.0095
2310.00,0.0095
2309.00,0.0094
2308.00,0.0094
2307.00,0.0094
2306.00,0.0094
2305.00,0.0095
2304.00,0.0095
2303.00,0.0095
2302.00,0.0095
2301.00,0.0096
2300.00,0.0096
2299.00,0.0096
2298.00,0.0097
2297.00,0.0097
2296.00,0.0098
2295.00,0.0098
2294.00,0.0099
2293.00,0.0100
2292.00,0.0100
2291.00,0.0101
2290.00,0.0102
2289.00,0.0102
2288.00,0.0103
2287.00,0.0103
2286.00,0.0102
2285.00,0.0102
2284.00,0.0102
2283.00,0.0101
2282.00,0.0100
2281.00,0.0100
2280.00,0.0099
2279.00,0.0099
2278.00,0.0099
2277.00,0.0098
2276.00,0.0098
2275.00,0.0098
2274.00,0.0098
2273.00,0.0097
2272.00,0.0097
2271.00,0.0097
2270.00,0.0097
2269.00,0.0096
2268.00,0.0096
2267.00,0.0095
2266.00,0.0095
2265.00,0.0095
2264.00,0.0095
2263.00,0.0095
2262.00,0.0095
2261.00,0.0096
2260.00,0.0096
2259.00,0.0096
2258.00,0.0095
2257.00,0.0095
2256.00,0.0094
2255.00,0.0093
2254.00,0.0092
2253.00,0.0092
2252.00,0.0093
2251.00,0.0093
2250.00,0.0093
2249.00,0.0093
2248.00,0.0094
2247.00,0.0094
2246.00,0.0094
2245.00,0.0094
2244.00,0.0093
2243.00,0.0094
2242.00,0.0094
2241.00,0.0094
2240.00,0.0094
2239.00,0.0094
2238.00,0.0094
2237.00,0.0094
2236.00,0.0094
2235.00,0.0093
2234.00,0.0093
2233.00,0.0093
2232.00,0.0093
2231.00,0.0092
2230.00,0.0092
2229.00,0.0092
2228.00,0.0092
2227.00,0.0092
2226.00,0.0092
2225.00,0.0092
2224.00,0.0093
2223.00,0.0093
2222.00,0.0092
2221.00,0.0092
2220.00,0.0091
2219.00,0.0091
2218.00,0.0091
2217.00,0.0091
2216.00,0.0091
2215.00,0.0091
2214.00,0.0092
2213.00,0.0092
2212.00,0.0092
2211.00,0.0091
2210.00,0.0091
2209.00,0.0091
2208.00,0.0091
2207.00,0.0091
2206.00,0.0092
2205.00,0.0092
2204.00,0.0092
2203.00,0.0091
2202.00,0.0091
2201.00,0.0091
2200.00,0.0091
2199.00,0.0091
2198.00,0.0091
2197.00,0.0091
2196.00,0.0091
2195.00,0.0091
2194.00,0.0091
2193.00,0.0091
2192.00,0.0092
2191.00,0.0092
2190.00,0.0092
2189.00,0.0092
2188.00,0.0093
2187.00,0.0093
2186.00,0.0093
2185.00,0.0092
2184.00,0.0090
2183.00,0.0088
2182.00,0.0086
2181.00,0.0086
2180.00,0.0087
2179.00,0.0087
2178.00,0.0087
2177.00,0.0086
2176.00,0.0085
2175.00,0.0085
2174.00,0.0086
2173.00,0.0088
2172.00,0.0091
2171.00,0.0093
2170.00,0.0095
2169.00,0.0097
2168.00,0.0097
2167.00,0.0097
2166.00,0.0098
2165.00,0.0098
2164.00,0.0100
2163.00,0.0100
2162.00,0.0097
2161.00,0.0088
2160.00,0.0077
2159.00,0.0067
2158.00,0.0061
2157.00,0.0060
2156.00,0.0062
2155.00,0.0064
2154.00,0.0066
2153.00,0.0068
2152.00,0.0069
2151.00,0.0070
2150.00,0.0071
2149.00,0.0072
2148.00,0.0072
2147.00,0.0072
2146.00,0.0071
2145.00,0.0071
2144.00,0.0072
2143.00,0.0072
2142.00,0.0073
2141.00,0.0073
2140.00,0.0073
2139.00,0.0073
2138.00,0.0072
2137.00,0.0070
2136.00,0.0068
2135.00,0.0067
2134.00,0.0067
2133.00,0.0067
2132.00,0.0069
2131.00,0.0070
2130.00,0.0071
2129.00,0.0072
2128.00,0.0074
2127.00,0.0075
2126.00,0.0076
2125.00,0.0077
2124.00,0.0078
2123.00,0.0079
2122.00,0.0079
2121.00,0.0080
2120.00,0.0080
2119.00,0.0081
2118.00,0.0082
2117.00,0.0083
2116.00,0.0084
2115.00,0.0084
2114.00,0.0084
2113.00,0.0084
2112.00,0.0084
2111.00,0.0084
2110.00,0.0084
2109.00,0.0084
2108.00,0.0084
2107.00,0.0083
2106.00,0.0083
2105.00,0.0083
2104.00,0.0083
2103.00,0.0083
2102.00,0.0083
2101.00,0.0083
2100.00,0.0083
2099.00,0.0082
2098.00,0.0081
2097.00,0.0080
2096.00,0.0079
2095.00,0.0078
2094.00,0.0078
2093.00,0.0079
2092.00,0.0080
2091.00,0.0081
2090.00,0.0081
2089.00,0.0081
2088.00,0.0082
2087.00,0.0082
2086.00,0.0082
2085.00,0.0082
2084.00,0.0083
2083.00,0.0083
2082.00,0.0083
2081.00,0.0084
2080.00,0.0084
2079.00,0.0084
2078.00,0.0084
2077.00,0.0084
2076.00,0.0084
2075.00,0.0083
2074.00,0.0082
2073.00,0.0081
2072.00,0.0081
2071.00,0.0080
2070.00,0.0080
2069.00,0.0080
2068.00,0.0080
2067.00,0.0080
2066.00,0.0080
2065.00,0.0079
2064.00,0.0080
2063.00,0.0080
2062.00,0.0080
2061.00,0.0080
2060.00,0.0080
2059.00,0.0080
2058.00,0.0081
2057.00,0.0081
2056.00,0.0081
2055.00,0.0082
2054.00,0.0084
2053.00,0.0087
2052.00,0.0090
2051.00,0.0091
2050.00,0.0089
2049.00,0.0085
2048.00,0.0083
2047.00,0.0081
2046.00,0.0081
2045.00,0.0081
2044.00,0.0081
2043.00,0.0081
2042.00,0.0080
2041.00,0.0080
2040.00,0.0081
2039.00,0.0082
2038.00,0.0082
2037.00,0.0081
2036.00,0.0080
2035.00,0.0078
2034.00,0.0076
2033.00,0.0075
2032.00,0.0074
2031.00,0.0074
2030.00,0.0074
2029.00,0.0074
2028.00,0.0074
2027.00,0.0074
2026.00,0.0074
2025.00,0.0073
2024.00,0.0073
2023.00,0.0072
2022.00,0.0071
2021.00,0.0071
2020.00,0.0071
2019.00,0.0072
2018.00,0.0073
2017.00,0.0073
2016.00,0.0072
2015.00,0.0072
2014.00,0.0071
2013.00,0.0071
2012.00,0.0072
2011.00,0.0073
2010.00,0.0073
2009.00,0.0072
2008.00,0.0069
2007.00,0.0067
2006.00,0.0065
2005.00,0.0065
2004.00,0.0067
2003.00,0.0068
2002.00,0.0068
2001.00,0.0069
2000.00,0.0070
1999.00,0.0070
1998.00,0.0070
1997.00,0.0071
1996.00,0.0072
1995.00,0.0072
1994.00,0.0073
1993.00,0.0074
1992.00,0.0074
1991.00,0.0074
1990.00,0.0074
1989.00,0.0075
1988.00,0.0075
1987.00,0.0076
1986.00,0.0076
1985.00,0.0077
1984.00,0.0079
1983.00,0.0081
1982.00,0.0083
1981.00,0.0084
1980.00,0.0081
1979.00,0.0076
1978.00,0.0070
1977.00,0.0067
1976.00,0.0066
1975.00,0.0065
1974.00,0.0064
1973.00,0.0063
1972.00,0.0064
1971.00,0.0064
1970.00,0.0065
1969.00,0.0065
1968.00,0.0065
1967.00,0.0064
1966.00,0.0064
1965.00,0.0063
1964.00,0.0063
1963.00,0.0063
1962.00,0.0062
1961.00,0.0061
1960.00,0.0060
1959.00,0.0060
1958.00,0.0060
1957.00,0.0061
1956.00,0.0062
1955.00,0.0062
1954.00,0.0062
1953.00,0.0062
1952.00,0.0062
1951.00,0.0062
1950.00,0.0062
1949.00,0.0063
1948.00,0.0063
1947.00,0.0062
1946.00,0.0062
1945.00,0.0062
1944.00,0.0062
1943.00,0.0062
1942.00,0.0063
1941.00,0.0063
1940.00,0.0063
1939.00,0.0062
1938.00,0.0062
1937.00,0.0062
1936.00,0.0062
1935.00,0.0062
1934.00,0.0062
1933.00,0.0062
1932.00,0.0062
1931.00,0.0062
1930.00,0.0062
1929.00,0.0062
1928.00,0.0062
1927.00,0.0062
1926.00,0.0061
1925.00,0.0061
1924.00,0.0062
1923.00,0.0062
1922.00,0.0063
1921.00,0.0063
1920.00,0.0063
1919.00,0.0063
1918.00,0.0063
1917.00,0.0063
1916.00,0.0063
1915.00,0.0063
1914.00,0.0062
1913.00,0.0062
1912.00,0.0063
1911.00,0.0063
1910.00,0.0063
1909.00,0.0063
1908.00,0.0063
1907.00,0.0063
1906.00,0.0063
1905.00,0.0063
1904.00,0.0063
1903.00,0.0063
1902.00,0.0063
1901.00,0.0063
1900.00,0.0063
1899.00,0.0062
1898.00,0.0062
1897.00,0.0062
1896.00,0.0062
1895.00,0.0062
1894.00,0.0062
1893.00,0.0062
1892.00,0.0062
1891.00,0.0062
1890.00,0.0061
1889.00,0.0062
1888.00,0.0062
1887.00,0.0062
1886.00,0.0061
1885.00,0.0061
1884.00,0.0061
1883.00,0.0061
1882.00,0.0061
1881.00,0.0061
1880.00,0.0061
1879.00,0.0061
1878.00,0.0061
1877.00,0.0061
1876.00,0.0061
1875.00,0.0061
1874.00,0.0061
1873.00,0.0060
1872.00,0.0060
1871.00,0.0059
1870.00,0.0059
1869.00,0.0060
1868.00,0.0061
1867.00,0.0061
1866.00,0.0061
1865.00,0.0061
1864.00,0.0061
1863.00,0.0060
1862.00,0.0060
1861.00,0.0060
1860.00,0.0060
1859.00,0.0060
1858.00,0.0059
1857.00,0.0059
1856.00,0.0059
1855.00,0.0059
1854.00,0.0059
1853.00,0.0059
1852.00,0.0059
1851.00,0.0059
1850.00,0.0058
1849.00,0.0058
1848.00,0.0058
1847.00,0.0057
1846.00,0.0057
1845.00,0.0057
1844.00,0.0058
1843.00,0.0058
1842.00,0.0058
1841.00,0.0058
1840.00,0.0058
1839.00,0.0058
1838.00,0.0057
1837.00,0.0058
1836.00,0.0058
1835.00,0.0058
1834.00,0.0057
1833.00,0.0057
1832.00,0.0057
1831.00,0.0056
1830.00,0.0056
1829.00,0.0056
1828.00,0.0056
1827.00,0.0056
1826.00,0.0056
1825.00,0.0056
1824.00,0.0057
1823.00,0.0057
1822.00,0.0057
1821.00,0.0056
1820.00,0.0055
1819.00,0.0055
1818.00,0.0054
1817.00,0.0054
1816.00,0.0054
1815.00,0.0054
1814.00,0.0055
1813.00,0.0055
1812.00,0.0055
1811.00,0.0056
1810.00,0.0056
1809.00,0.0056
1808.00,0.0056
1807.00,0.0056
1806.00,0.0056
1805.00,0.0056
1804.00,0.0055
1803.00,0.0055
1802.00,0.0055
1801.00,0.0055
1800.00,0.0056
1799.00,0.0056
1798.00,0.0056
1797.00,0.0056
1796.00,0.0056
1795.00,0.0056
1794.00,0.0056
1793.00,0.0056
1792.00,0.0056
1791.00,0.0057
1790.00,0.0057
1789.00,0.0057
1788.00,0.0056
1787.00,0.0056
1786.00,0.0056
1785.00,0.0056
1784.00,0.0056
1783.00,0.0056
1782.00,0.0056
1781.00,0.0056
1780.00,0.0056
1779.00,0.0056
1778.00,0.0056
1777.00,0.0055
1776.00,0.0055
1775.00,0.0055
1774.00,0.0056
1773.00,0.0056
1772.00,0.0056
1771.00,0.0056
1770.00,0.0056
1769.00,0.0056
1768.00,0.0057
1767.00,0.0057
1766.00,0.0057
1765.00,0.0057
1764.00,0.0056
1763.00,0.0056
1762.00,0.0056
1761.00,0.0057
1760.00,0.0057
1759.00,0.0057
1758.00,0.0057
1757.00,0.0058
1756.00,0.0058
1755.00,0.0058
1754.00,0.0058
1753.00,0.0058
1752.00,0.0059
1751.00,0.0059
1750.00,0.0059
1749.00,0.0059
1748.00,0.0060
1747.00,0.0060
1746.00,0.0060
1745.00,0.0060
1744.00,0.0061
1743.00,0.0062
1742.00,0.0062
1741.00,0.0062
1740.00,0.0063
1739.00,0.0064
1738.00,0.0064
1737.00,0.0065
1736.00,0.0066
1735.00,0.0068
1734.00,0.0070
1733.00,0.0070
1732.00,0.0070
1731.00,0.0070
1730.00,0.0070
1729.00,0.0071
1728.00,0.0072
1727.00,0.0073
1726.00,0.0074
1725.00,0.0075
1724.00,0.0076
1723.00,0.0077
1722.00,0.0077
1721.00,0.0078
1720.00,0.0079
1719.00,0.0081
1718.00,0.0083
1717.00,0.0086
1716.00,0.0088
1715.00,0.0089
1714.00,0.0091
1713.00,0.0092
1712.00,0.0095
1711.00,0.0097
1710.00,0.0100
1709.00,0.0103
1708.00,0.0106
1707.00,0.0111
1706.00,0.0117
1705.00,0.0124
1704.00,0.0132
1703.00,0.0139
1702.00,0.0148
1701.00,0.0163
1700.00,0.0185
1699.00,0.0203
1698.00,0.0216
1697.00,0.0226
1696.00,0.0237
1695.00,0.0246
1694.00,0.0251
1693.00,0.0254
1692.00,0.0257
1691.00,0.0261
1690.00,0.0265
1689.00,0.0270
1688.00,0.0276
1687.00,0.0281
1686.00,0.0286
1685.00,0.0294
1684.00,0.0305
1683.00,0.0316
1682.00,0.0323
1681.00,0.0330
1680.00,0.0337
1679.00,0.0345
1678.00,0.0351
1677.00,0.0359
1676.00,0.0368
1675.00,0.0379
1674.00,0.0389
1673.00,0.0397
1672.00,0.0404
1671.00,0.0412
1670.00,0.0423
1669.00,0.0435
1668.00,0.0445
1667.00,0.0454
1666.00,0.0461
1665.00,0.0467
1664.00,0.0475
1663.00,0.0485
1662.00,0.0495
1661.00,0.0504
1660.00,0.0512
1659.00,0.0519
1658.00,0.0525
1657.00,0.0530
1656.00,0.0535
1655.00,0.0541
1654.00,0.0549
1653.00,0.0563
1652.00,0.0574
1651.00,0.0578
1650.00,0.0578
1649.00,0.0580
1648.00,0.0584
1647.00,0.0592
1646.00,0.0600
1645.00,0.0606
1644.00,0.0610
1643.00,0.0613
1642.00,0.0616
1641.00,0.0619
1640.00,0.0623
1639.00,0.0626
1638.00,0.0628
1637.00,0.0632
1636.00,0.0638
1635.00,0.0646
1634.00,0.0652
1633.00,0.0655
1632.00,0.0657
1631.00,0.0660
1630.00,0.0662
1629.00,0.0665
1628.00,0.0668
1627.00,0.0672
1626.00,0.0675
1625.00,0.0676
1624.00,0.0678
1623.00,0.0681
1622.00,0.0683
1621.00,0.0683
1620.00,0.0683
1619.00,0.0681
1618.00,0.0678
1617.00,0.0675
1616.00,0.0670
1615.00,0.0665
1614.00,0.0659
1613.00,0.0652
1612.00,0.0645
1611.00,0.0636
1610.00,0.0627
1609.00,0.0618
1608.00,0.0608
1607.00,0.0598
1606.00,0.0587
1605.00,0.0575
1604.00,0.0563
1603.00,0.0551
1602.00,0.0538
1601.00,0.0526
1600.00,0.0513
1599.00,0.0501
1598.00,0.0489
1597.00,0.0478
1596.00,0.0466
1595.00,0.0455
1594.00,0.0445
1593.00,0.0435
1592.00,0.0425
1591.00,0.0415
1590.00,0.0406
1589.00,0.0398
1588.00,0.0389
1587.00,0.0382
1586.00,0.0375
1585.00,0.0368
1584.00,0.0362
1583.00,0.0357
1582.00,0.0352
1581.00,0.0348
1580.00,0.0345
1579.00,0.0342
1578.00,0.0341
1577.00,0.0341
1576.00,0.0341
1575.00,0.0341
1574.00,0.0341
1573.00,0.0341
1572.00,0.0341
1571.00,0.0342
1570.00,0.0346
1569.00,0.0351
1568.00,0.0355
1567.00,0.0359
1566.00,0.0363
1565.00,0.0369
1564.00,0.0374
1563.00,0.0378
1562.00,0.0382
1561.00,0.0385
1560.00,0.0391
1559.00,0.0403
1558.00,0.0417
1557.00,0.0425
1556.00,0.0430
1555.00,0.0436
1554.00,0.0442
1553.00,0.0449
1552.00,0.0454
1551.00,0.0459
1550.00,0.0466
1549.00,0.0473
1548.00,0.0479
1547.00,0.0483
1546.00,0.0488
1545.00,0.0493
1544.00,0.0499
1543.00,0.0504
1542.00,0.0510
1541.00,0.0517
1540.00,0.0527
1539.00,0.0536
1538.00,0.0541
1537.00,0.0544
1536.00,0.0545
1535.00,0.0548
1534.00,0.0553
1533.00,0.0561
1532.00,0.0568
1531.00,0.0573
1530.00,0.0578
1529.00,0.0582
1528.00,0.0586
1527.00,0.0592
1526.00,0.0598
1525.00,0.0604
1524.00,0.0608
1523.00,0.0612
1522.00,0.0618
1521.00,0.0626
1520.00,0.0631
1519.00,0.0634
1518.00,0.0636
1517.00,0.0639
1516.00,0.0642
1515.00,0.0643
1514.00,0.0642
1513.00,0.0640
1512.00,0.0635
1511.00,0.0631
1510.00,0.0626
1509.00,0.0621
1508.00,0.0614
1507.00,0.0605
1506.00,0.0596
1505.00,0.0588
1504.00,0.0580
1503.00,0.0571
1502.00,0.0562
1501.00,0.0552
1500.00,0.0541
1499.00,0.0531
1498.00,0.0520
1497.00,0.0508
1496.00,0.0495
1495.00,0.0484
1494.00,0.0473
1493.00,0.0462
1492.00,0.0451
1491.00,0.0438
1490.00,0.0426
1489.00,0.0414
1488.00,0.0404
1487.00,0.0395
1486.00,0.0386
1485.00,0.0378
1484.00,0.0371
1483.00,0.0364
1482.00,0.0357
1481.00,0.0351
1480.00,0.0345
1479.00,0.0341
1478.00,0.0336
1477.00,0.0332
1476.00,0.0330
1475.00,0.0328
1474.00,0.0327
1473.00,0.0326
1472.00,0.0326
1471.00,0.0326
1470.00,0.0326
1469.00,0.0325
1468.00,0.0324
1467.00,0.0323
1466.00,0.0323
1465.00,0.0323
1464.00,0.0324
1463.00,0.0325
1462.00,0.0327
1461.00,0.0328
1460.00,0.0329
1459.00,0.0332
1458.00,0.0337
1457.00,0.0344
1456.00,0.0350
1455.00,0.0353
1454.00,0.0355
1453.00,0.0356
1452.00,0.0357
1451.00,0.0357
1450.00,0.0357
1449.00,0.0356
1448.00,0.0355
1447.00,0.0354
1446.00,0.0352
1445.00,0.0350
1444.00,0.0347
1443.00,0.0343
1442.00,0.0339
1441.00,0.0335
1440.00,0.0332
1439.00,0.0328
1438.00,0.0323
1437.00,0.0319
1436.00,0.0316
1435.00,0.0313
1434.00,0.0311
1433.00,0.0308
1432.00,0.0306
1431.00,0.0303
1430.00,0.0302
1429.00,0.0301
1428.00,0.0300
1427.00,0.0300
1426.00,0.0299
1425.00,0.0300
1424.00,0.0300
1423.00,0.0301
1422.00,0.0302
1421.00,0.0302
1420.00,0.0303
1419.00,0.0305
1418.00,0.0308
1417.00,0.0310
1416.00,0.0312
1415.00,0.0314
1414.00,0.0315
1413.00,0.0317
1412.00,0.0318
1411.00,0.0320
1410.00,0.0321
1409.00,0.0322
1408.00,0.0323
1407.00,0.0323
1406.00,0.0324
1405.00,0.0325
1404.00,0.0325
1403.00,0.0326
1402.00,0.0325
1401.00,0.0324
1400.00,0.0324
1399.00,0.0323
1398.00,0.0323
1397.00,0.0322
1396.00,0.0322
1395.00,0.0322
1394.00,0.0321
1393.00,0.0322
1392.00,0.0321
1391.00,0.0321
1390.00,0.0320
1389.00,0.0319
1388.00,0.0319
1387.00,0.0319
1386.00,0.0318
1385.00,0.0317
1384.00,0.0316
1383.00,0.0315
1382.00,0.0314
1381.00,0.0312
1380.00,0.0311
1379.00,0.0310
1378.00,0.0309
1377.00,0.0308
1376.00,0.0307
1375.00,0.0307
1374.00,0.0306
1373.00,0.0306
1372.00,0.0306
1371.00,0.0306
1370.00,0.0305
1369.00,0.0303
1368.00,0.0302
1367.00,0.0300
1366.00,0.0298
1365.00,0.0296
1364.00,0.0293
1363.00,0.0291
1362.00,0.0290
1361.00,0.0289
1360.00,0.0288
1359.00,0.0286
1358.00,0.0285
1357.00,0.0284
1356.00,0.0283
1355.00,0.0282
1354.00,0.0281
1353.00,0.0280
1352.00,0.0280
1351.00,0.0279
1350.00,0.0279
1349.00,0.0279
1348.00,0.0279
1347.00,0.0279
1346.00,0.0279
1345.00,0.0279
1344.00,0.0279
1343.00,0.0279
1342.00,0.0279
1341.00,0.0279
1340.00,0.0280
1339.00,0.0280
1338.00,0.0280
1337.00,0.0281
1336.00,0.0281
1335.00,0.0281
1334.00,0.0281
1333.00,0.0281
1332.00,0.0281
1331.00,0.0281
1330.00,0.0281
1329.00,0.0281
1328.00,0.0281
1327.00,0.0281
1326.00,0.0281
1325.00,0.0281
1324.00,0.0281
1323.00,0.0281
1322.00,0.0280
1321.00,0.0280
1320.00,0.0280
1319.00,0.0279
1318.00,0.0279
1317.00,0.0278
1316.00,0.0277
1315.00,0.0277
1314.00,0.0276
1313.00,0.0275
1312.00,0.0275
1311.00,0.0274
1310.00,0.0273
1309.00,0.0273
1308.00,0.0272
1307.00,0.0271
1306.00,0.0271
1305.00,0.0270
1304.00,0.0270
1303.00,0.0269
1302.00,0.0268
1301.00,0.0268
1300.00,0.0267
1299.00,0.0266
1298.00,0.0266
1297.00,0.0265
1296.00,0.0265
1295.00,0.0264
1294.00,0.0264
1293.00,0.0264
1292.00,0.0264
1291.00,0.0264
1290.00,0.0264
1289.00,0.0264
1288.00,0.0264
1287.00,0.0264
1286.00,0.0264
1285.00,0.0264
1284.00,0.0263
1283.00,0.0263
1282.00,0.0263
1281.00,0.0262
1280.00,0.0262
1279.00,0.0262
1278.00,0.0261
1277.00,0.0261
1276.00,0.0260
1275.00,0.0260
1274.00,0.0260
1273.00,0.0260
1272.00,0.0260
1271.00,0.0260
1270.00,0.0260
1269.00,0.0261
1268.00,0.0262
1267.00,0.0262
1266.00,0.0263
1265.00,0.0264
1264.00,0.0265
1263.00,0.0267
1262.00,0.0268
1261.00,0.0270
1260.00,0.0273
1259.00,0.0275
1258.00,0.0278
1257.00,0.0280
1256.00,0.0282
1255.00,0.0285
1254.00,0.0288
1253.00,0.0290
1252.00,0.0293
1251.00,0.0295
1250.00,0.0297
1249.00,0.0300
1248.00,0.0302
1247.00,0.0303
1246.00,0.0305
1245.00,0.0307
1244.00,0.0308
1243.00,0.0310
1242.00,0.0311
1241.00,0.0312
1240.00,0.0312
1239.00,0.0313
1238.00,0.0314
1237.00,0.0314
1236.00,0.0315
1235.00,0.0315
1234.00,0.0315
1233.00,0.0315
1232.00,0.0314
1231.00,0.0314
1230.00,0.0314
1229.00,0.0313
1228.00,0.0312
1227.00,0.0311
1226.00,0.0310
1225.00,0.0309
1224.00,0.0308
1223.00,0.0306
1222.00,0.0305
1221.00,0.0303
1220.00,0.0301
1219.00,0.0300
1218.00,0.0298
1217.00,0.0295
1216.00,0.0293
1215.00,0.0291
1214.00,0.0289
1213.00,0.0286
1212.00,0.0283
1211.00,0.0280
1210.00,0.0278
1209.00,0.0275
1208.00,0.0272
1207.00,0.0269
1206.00,0.0266
1205.00,0.0263
1204.00,0.0260
1203.00,0.0257
1202.00,0.0254
1201.00,0.0251
1200.00,0.0248
1199.00,0.0246
1198.00,0.0243
1197.00,0.0241
1196.00,0.0239
1195.00,0.0237
1194.00,0.0235
1193.00,0.0234
1192.00,0.0232
1191.00,0.0231
1190.00,0.0230
1189.00,0.0229
1188.00,0.0228
1187.00,0.0227
1186.00,0.0226
1185.00,0.0226
1184.00,0.0226
1183.00,0.0225
1182.00,0.0225
1181.00,0.0226
1180.00,0.0226
1179.00,0.0227
1178.00,0.0228
1177.00,0.0230
1176.00,0.0231
1175.00,0.0233
1174.00,0.0235
1173.00,0.0238
1172.00,0.0240
1171.00,0.0242
1170.00,0.0244
1169.00,0.0246
1168.00,0.0248
1167.00,0.0249
1166.00,0.0251
1165.00,0.0253
1164.00,0.0254
1163.00,0.0256
1162.00,0.0257
1161.00,0.0258
1160.00,0.0258
1159.00,0.0258
1158.00,0.0258
1157.00,0.0258
1156.00,0.0257
1155.00,0.0256
1154.00,0.0255
1153.00,0.0253
1152.00,0.0251
1151.00,0.0249
1150.00,0.0247
1149.00,0.0245
1148.00,0.0243
1147.00,0.0241
1146.00,0.0239
1145.00,0.0237
1144.00,0.0236
1143.00,0.0234
1142.00,0.0233
1141.00,0.0232
1140.00,0.0230
1139.00,0.0229
1138.00,0.0229
1137.00,0.0228
1136.00,0.0228
1135.00,0.0227
1134.00,0.0227
1133.00,0.0227
1132.00,0.0226
1131.00,0.0226
1130.00,0.0226
1129.00,0.0226
1128.00,0.0225
1127.00,0.0225
1126.00,0.0225
1125.00,0.0225
1124.00,0.0224
1123.00,0.0224
1122.00,0.0224
1121.00,0.0223
1120.00,0.0223
1119.00,0.0223
1118.00,0.0222
1117.00,0.0222
1116.00,0.0222
1115.00,0.0222
1114.00,0.0222
1113.00,0.0222
1112.00,0.0222
1111.00,0.0223
1110.00,0.0223
1109.00,0.0223
1108.00,0.0223
1107.00,0.0223
1106.00,0.0224
1105.00,0.0225
1104.00,0.0225
1103.00,0.0226
1102.00,0.0227
1101.00,0.0227
1100.00,0.0228
1099.00,0.0229
1098.00,0.0230
1097.00,0.0231
1096.00,0.0233
1095.00,0.0235
1094.00,0.0237
1093.00,0.0240
1092.00,0.0243
1091.00,0.0246
1090.00,0.0249
1089.00,0.0252
1088.00,0.0256
1087.00,0.0260
1086.00,0.0264
1085.00,0.0268
1084.00,0.0272
1083.00,0.0277
1082.00,0.0281
1081.00,0.0286
1080.00,0.0290
1079.00,0.0295
1078.00,0.0299
1077.00,0.0303
1076.00,0.0307
1075.00,0.0310
1074.00,0.0312
1073.00,0.0315
1072.00,0.0317
1071.00,0.0319
1070.00,0.0321
1069.00,0.0322
1068.00,0.0323
1067.00,0.0324
1066.00,0.0325
1065.00,0.0325
1064.00,0.0325
1063.00,0.0325
1062.00,0.0325
1061.00,0.0324
1060.00,0.0323
1059.00,0.0322
1058.00,0.0320
1057.00,0.0319
1056.00,0.0317
1055.00,0.0315
1054.00,0.0313
1053.00,0.0312
1052.00,0.0310
1051.00,0.0308
1050.00,0.0306
1049.00,0.0305
1048.00,0.0303
1047.00,0.0301
1046.00,0.0299
1045.00,0.0297
1044.00,0.0294
1043.00,0.0291
1042.00,0.0288
1041.00,0.0286
1040.00,0.0283
1039.00,0.0280
1038.00,0.0277
1037.00,0.0274
1036.00,0.0272
1035.00,0.0269
1034.00,0.0267
1033.00,0.0265
1032.00,0.0262
1031.00,0.0260
1030.00,0.0258
1029.00,0.0255
1028.00,0.0252
1027.00,0.0248
1026.00,0.0245
1025.00,0.0242
1024.00,0.0239
1023.00,0.0236
1022.00,0.0233
1021.00,0.0230
1020.00,0.0227
1019.00,0.0224
1018.00,0.0222
1017.00,0.0220
1016.00,0.0217
1015.00,0.0215
1014.00,0.0213
1013.00,0.0212
1012.00,0.0210
1011.00,0.0208
1010.00,0.0206
1009.00,0.0204
1008.00,0.0203
1007.00,0.0201
1006.00,0.0200
1005.00,0.0199
1004.00,0.0198
1003.00,0.0197
1002.00,0.0196
1001.00,0.0194
1000.00,0.0193
999.00,0.0192
998.00,0.0191
997.00,0.0190
996.00,0.0190
995.00,0.0189
994.00,0.0188
993.00,0.0187
992.00,0.0186
991.00,0.0185
990.00,0.0184
989.00,0.0183
988.00,0.0183
987.00,0.0182
986.00,0.0182
985.00,0.0181
984.00,0.0180
983.00,0.0180
982.00,0.0179
981.00,0.0179
980.00,0.0178
979.00,0.0178
978.00,0.0178
977.00,0.0178
976.00,0.0178
975.00,0.0178
974.00,0.0178
973.00,0.0178
972.00,0.0178
971.00,0.0179
970.00,0.0180
969.00,0.0181
968.00,0.0182
967.00,0.0183
966.00,0.0184
965.00,0.0185
964.00,0.0187
963.00,0.0188
962.00,0.0188
961.00,0.0188
960.00,0.0188
959.00,0.0188
958.00,0.0187
957.00,0.0186
956.00,0.0185
955.00,0.0184
954.00,0.0183
953.00,0.0182
952.00,0.0181
951.00,0.0180
950.00,0.0179
949.00,0.0179
948.00,0.0178
947.00,0.0178
946.00,0.0177
945.00,0.0176
944.00,0.0176
943.00,0.0176
942.00,0.0175
941.00,0.0175
940.00,0.0175
939.00,0.0175
938.00,0.0174
937.00,0.0174
936.00,0.0174
935.00,0.0174
934.00,0.0173
933.00,0.0173
932.00,0.0173
931.00,0.0172
930.00,0.0172
929.00,0.0172
928.00,0.0171
927.00,0.0171
926.00,0.0170
925.00,0.0169
924.00,0.0168
923.00,0.0167
922.00,0.0166
921.00,0.0165
920.00,0.0165
919.00,0.0164
918.00,0.0164
917.00,0.0163
916.00,0.0163
915.00,0.0163
914.00,0.0162
913.00,0.0162
912.00,0.0162
911.00,0.0162
910.00,0.0162
909.00,0.0162
908.00,0.0162
907.00,0.0163
906.00,0.0164
905.00,0.0164
904.00,0.0165
903.00,0.0165
902.00,0.0165
901.00,0.0165
900.00,0.0165
899.00,0.0165
898.00,0.0165
897.00,0.0164
896.00,0.0163
895.00,0.0163
894.00,0.0162
893.00,0.0162
892.00,0.0161
891.00,0.0161
890.00,0.0160
889.00,0.0159
888.00,0.0159
887.00,0.0158
886.00,0.0157
885.00,0.0157
884.00,0.0156
883.00,0.0156
882.00,0.0156
881.00,0.0156
880.00,0.0156
879.00,0.0155
878.00,0.0155
877.00,0.0155
876.00,0.0155
875.00,0.0156
874.00,0.0156
873.00,0.0156
872.00,0.0156
871.00,0.0156
870.00,0.0156
869.00,0.0156
868.00,0.0156
867.00,0.0155
866.00,0.0155
865.00,0.0155
864.00,0.0155
863.00,0.0155
862.00,0.0155
861.00,0.0155
860.00,0.0155
859.00,0.0155
858.00,0.0155
857.00,0.0155
856.00,0.0156
855.00,0.0156
854.00,0.0156
853.00,0.0157
852.00,0.0157
851.00,0.0158
850.00,0.0158
849.00,0.0159
848.00,0.0159
847.00,0.0160
846.00,0.0160
845.00,0.0160
844.00,0.0161
843.00,0.0161
842.00,0.0162
841.00,0.0163
840.00,0.0164
839.00,0.0165
838.00,0.0166
837.00,0.0167
836.00,0.0169
835.00,0.0171
834.00,0.0172
833.00,0.0174
832.00,0.0176
831.00,0.0177
830.00,0.0179
829.00,0.0180
828.00,0.0181
827.00,0.0183
826.00,0.0184
825.00,0.0185
824.00,0.0185
823.00,0.0186
822.00,0.0187
821.00,0.0188
820.00,0.0189
819.00,0.0190
818.00,0.0191
817.00,0.0192
816.00,0.0194
815.00,0.0195
814.00,0.0197
813.00,0.0198
812.00,0.0199
811.00,0.0200
810.00,0.0201
809.00,0.0202
808.00,0.0202
807.00,0.0203
806.00,0.0204
805.00,0.0205
804.00,0.0206
803.00,0.0207
802.00,0.0207
801.00,0.0208
800.00,0.0210
799.00,0.0211
798.00,0.0212
797.00,0.0214
796.00,0.0216
795.00,0.0217
794.00,0.0219
793.00,0.0221
792.00,0.0222
791.00,0.0224
790.00,0.0226
789.00,0.0229
788.00,0.0231
787.00,0.0234
786.00,0.0236
785.00,0.0239
784.00,0.0241
783.00,0.0243
782.00,0.0246
781.00,0.0248
780.00,0.0250
779.00,0.0252
778.00,0.0254
777.00,0.0256
776.00,0.0258
775.00,0.0259
774.00,0.0261
773.00,0.0262
772.00,0.0264
771.00,0.0265
770.00,0.0266
769.00,0.0267
768.00,0.0268
767.00,0.0269
766.00,0.0270
765.00,0.0271
764.00,0.0271
763.00,0.0272
762.00,0.0273
761.00,0.0274
760.00,0.0275
759.00,0.0276
758.00,0.0277
757.00,0.0278
756.00,0.0279
755.00,0.0280
754.00,0.0281
753.00,0.0283
752.00,0.0285
751.00,0.0286
750.00,0.0288
749.00,0.0289
748.00,0.0290
747.00,0.0291
746.00,0.0292
745.00,0.0293
744.00,0.0294
743.00,0.0294
742.00,0.0295
741.00,0.0296
740.00,0.0297
739.00,0.0298
738.00,0.0299
737.00,0.0301
736.00,0.0303
735.00,0.0305
734.00,0.0307
733.00,0.0310
732.00,0.0312
731.00,0.0315
730.00,0.0319
729.00,0.0322
728.00,0.0326
727.00,0.0331
726.00,0.0335
725.00,0.0340
724.00,0.0345
723.00,0.0350
722.00,0.0354
721.00,0.0359
720.00,0.0364
719.00,0.0370
718.00,0.0376
717.00,0.0381
716.00,0.0387
715.00,0.0392
714.00,0.0397
713.00,0.0402
712.00,0.0407
711.00,0.0412
710.00,0.0417
709.00,0.0422
708.00,0.0426
707.00,0.0431
706.00,0.0436
705.00,0.0441
704.00,0.0445
703.00,0.0449
702.00,0.0453
701.00,0.0456
700.00,0.0458
699.00,0.0459
698.00,0.0460
697.00,0.0461
696.00,0.0461
695.00,0.0461
694.00,0.0460
693.00,0.0460
692.00,0.0460
691.00,0.0460
690.00,0.0461
689.00,0.0461
688.00,0.0462
687.00,0.0463
686.00,0.0463
685.00,0.0464
684.00,0.0464
683.00,0.0464
682.00,0.0465
681.00,0.0465
680.00,0.0465
679.00,0.0465
678.00,0.0466
677.00,0.0466
676.00,0.0467
675.00,0.0467
674.00,0.0468
673.00,0.0467
672.00,0.0466
671.00,0.0466
670.00,0.0465
669.00,0.0465
668.00,0.0466
667.00,0.0469
666.00,0.0470
665.00,0.0470
664.00,0.0471
663.00,0.0472
662.00,0.0473
661.00,0.0473
660.00,0.0474
659.00,0.0475
658.00,0.0475
657.00,0.0476
656.00,0.0477
655.00,0.0478
654.00,0.0479
653.00,0.0481
652.00,0.0482
651.00,0.0484
650.00,0.0485
649.00,0.0486
648.00,0.0488
647.00,0.0489
646.00,0.0491
645.00,0.0493
644.00,0.0494
643.00,0.0496
642.00,0.0498
641.00,0.0500
640.00,0.0502
639.00,0.0504
638.00,0.0506
637.00,0.0507
636.00,0.0509
635.00,0.0511
634.00,0.0513
633.00,0.0514
632.00,0.0516
631.00,0.0518
630.00,0.0519
629.00,0.0520
628.00,0.0521
627.00,0.0522
626.00,0.0522
625.00,0.0522
624.00,0.0522
623.00,0.0522
622.00,0.0522
621.00,0.0522
620.00,0.0522
619.00,0.0521
618.00,0.0520
617.00,0.0519
616.00,0.0518
615.00,0.0517
614.00,0.0515
613.00,0.0514
612.00,0.0513
611.00,0.0511
610.00,0.0509
609.00,0.0508
608.00,0.0507
607.00,0.0507
606.00,0.0506
605.00,0.0506
604.00,0.0505
603.00,0.0505
602.00,0.0504
601.00,0.0503
600.00,0.0503
599.00,0.0503
598.00,0.0503
597.00,0.0503
596.00,0.0503
595.00,0.0503
594.00,0.0503
593.00,0.0503
592.00,0.0503
591.00,0.0504
590.00,0.0504
589.00,0.0503
588.00,0.0503
587.00,0.0504
586.00,0.0504
585.00,0.0504
584.00,0.0504
583.00,0.0505
582.00,0.0505
581.00,0.0505
580.00,0.0505
579.00,0.0506
578.00,0.0506
577.00,0.0506
576.00,0.0507
575.00,0.0508
574.00,0.0509
573.00,0.0510
572.00,0.0511
571.00,0.0512
570.00,0.0512
569.00,0.0512
568.00,0.0513
567.00,0.0514
566.00,0.0514
565.00,0.0514
564.00,0.0515
563.00,0.0516
562.00,0.0516
561.00,0.0517
560.00,0.0517
559.00,0.0518
558.00,0.0518
557.00,0.0519
556.00,0.0519
555.00,0.0519
554.00,0.0519
553.00,0.0519
552.00,0.0519
551.00,0.0520
550.00,0.0520
549.00,0.0521
548.00,0.0522
547.00,0.0522
546.00,0.0523
545.00,0.0522
544.00,0.0523
543.00,0.0522
542.00,0.0522
541.00,0.0522
540.00,0.0521
539.00,0.0522
538.00,0.0522
537.00,0.0522
536.00,0.0523
535.00,0.0523
534.00,0.0524
533.00,0.0524
532.00,0.0525
531.00,0.0525
530.00,0.0525
529.00,0.0525
528.00,0.0526
527.00,0.0527
526.00,0.0528
525.00,0.0529
524.00,0.0530
523.00,0.0531
522.00,0.0530
521.00,0.0530
520.00,0.0530
519.00,0.0530
518.00,0.0530
517.00,0.0530
516.00,0.0530
515.00,0.0529
514.00,0.0528
513.00,0.0526
512.00,0.0525
511.00,0.0525
510.00,0.0525
509.00,0.0526
508.00,0.0527
507.00,0.0528
506.00,0.0527
505.00,0.0526
504.00,0.0525
503.00,0.0524
502.00,0.0523
501.00,0.0524
500.00,0.0525
499.00,0.0525
498.00,0.0524
497.00,0.0523
496.00,0.0522
495.00,0.0521
494.00,0.0521
493.00,0.0521
492.00,0.0522
491.00,0.0522
490.00,0.0521
489.00,0.0521
488.00,0.0522
487.00,0.0523
486.00,0.0523
485.00,0.0521
484.00,0.0519
483.00,0.0518
482.00,0.0517
481.00,0.0518
480.00,0.0519
479.00,0.0519
478.00,0.0518
477.00,0.0518
476.00,0.0518
475.00,0.0518
474.00,0.0518
473.00,0.0518
472.00,0.0518
471.00,0.0518
470.00,0.0519
469.00,0.0520
468.00,0.0521
467.00,0.0522
466.00,0.0521
465.00,0.0520
464.00,0.0519
463.00,0.0519
462.00,0.0519
461.00,0.0520
460.00,0.0520
459.00,0.0520
458.00,0.0518
457.00,0.0517
456.00,0.0517
455.00,0.0517
454.00,0.0517
453.00,0.0516
452.00,0.0515
451.00,0.0515
450.00,0.0514
449.00,0.0514
448.00,0.0514
447.00,0.0513
446.00,0.0510
445.00,0.0508
444.00,0.0505
443.00,0.0501
442.00,0.0497
441.00,0.0494
440.00,0.0493
439.00,0.0492
438.00,0.0490
437.00,0.0486
436.00,0.0483
435.00,0.0479
434.00,0.0476
433.00,0.0474
432.00,0.0472
431.00,0.0471
430.00,0.0470
429.00,0.0468
428.00,0.0466
427.00,0.0464
426.00,0.0460
425.00,0.0456
424.00,0.0454
423.00,0.0454
422.00,0.0454
421.00,0.0452
420.00,0.0449
419.00,0.0443
418.00,0.0437
417.00,0.0435
416.00,0.0435
415.00,0.0435
414.00,0.0434
413.00,0.0434
412.00,0.0434
411.00,0.0433
410.00,0.0431
409.00,0.0428
408.00,0.0427
407.00,0.0429
406.00,0.0431
405.00,0.0433
404.00,0.0433
403.00,0.0432
402.00,0.0432
401.00,0.0433
400.00,0.0435
