Created as New Dataset,Sample 319 By YargerLab Date Monday, August 19 2024
cm-1,A
4000.00,0.0097
3999.00,0.0097
3998.00,0.0097
3997.00,0.0097
3996.00,0.0097
3995.00,0.0097
3994.00,0.0097
3993.00,0.0097
3992.00,0.0097
3991.00,0.0097
3990.00,0.0097
3989.00,0.0097
3988.00,0.0097
3987.00,0.0097
3986.00,0.0097
3985.00,0.0097
3984.00,0.0097
3983.00,0.0097
3982.00,0.0097
3981.00,0.0097
3980.00,0.0097
3979.00,0.0097
3978.00,0.0097
3977.00,0.0097
3976.00,0.0097
3975.00,0.0097
3974.00,0.0097
3973.00,0.0097
3972.00,0.0097
3971.00,0.0097
3970.00,0.0097
3969.00,0.0097
3968.00,0.0097
3967.00,0.0097
3966.00,0.0097
3965.00,0.0097
3964.00,0.0097
3963.00,0.0097
3962.00,0.0097
3961.00,0.0097
3960.00,0.0097
3959.00,0.0097
3958.00,0.0097
3957.00,0.0097
3956.00,0.0097
3955.00,0.0097
3954.00,0.0097
3953.00,0.0097
3952.00,0.0097
3951.00,0.0097
3950.00,0.0097
3949.00,0.0097
3948.00,0.0097
3947.00,0.0097
3946.00,0.0096
3945.00,0.0096
3944.00,0.0096
3943.00,0.0096
3942.00,0.0096
3941.00,0.0096
3940.00,0.0096
3939.00,0.0096
3938.00,0.0096
3937.00,0.0096
3936.00,0.0096
3935.00,0.0096
3934.00,0.0096
3933.00,0.0096
3932.00,0.0096
3931.00,0.0096
3930.00,0.0096
3929.00,0.0096
3928.00,0.0095
3927.00,0.0095
3926.00,0.0095
3925.00,0.0096
3924.00,0.0096
3923.00,0.0096
3922.00,0.0096
3921.00,0.0096
3920.00,0.0096
3919.00,0.0096
3918.00,0.0096
3917.00,0.0096
3916.00,0.0096
3915.00,0.0095
3914.00,0.0095
3913.00,0.0095
3912.00,0.0095
3911.00,0.0096
3910.00,0.0095
3909.00,0.0095
3908.00,0.0095
3907.00,0.0095
3906.00,0.0095
3905.00,0.0095
3904.00,0.0095
3903.00,0.0095
3902.00,0.0095
3901.00,0.0094
3900.00,0.0094
3899.00,0.0094
3898.00,0.0094
3897.00,0.0094
3896.00,0.0095
3895.00,0.0095
3894.00,0.0095
3893.00,0.0095
3892.00,0.0095
3891.00,0.0095
3890.00,0.0095
3889.00,0.0094
3888.00,0.0094
3887.00,0.0094
3886.00,0.0094
3885.00,0.0094
3884.00,0.0094
3883.00,0.0094
3882.00,0.0094
3881.00,0.0094
3880.00,0.0094
3879.00,0.0094
3878.00,0.0094
3877.00,0.0094
3876.00,0.0094
3875.00,0.0094
3874.00,0.0094
3873.00,0.0094
3872.00,0.0093
3871.00,0.0093
3870.00,0.0093
3869.00,0.0093
3868.00,0.0093
3867.00,0.0093
3866.00,0.0093
3865.00,0.0093
3864.00,0.0093
3863.00,0.0093
3862.00,0.0093
3861.00,0.0093
3860.00,0.0093
3859.00,0.0093
3858.00,0.0093
3857.00,0.0093
3856.00,0.0092
3855.00,0.0092
3854.00,0.0092
3853.00,0.0092
3852.00,0.0092
3851.00,0.0092
3850.00,0.0092
3849.00,0.0092
3848.00,0.0093
3847.00,0.0093
3846.00,0.0093
3845.00,0.0093
3844.00,0.0093
3843.00,0.0093
3842.00,0.0093
3841.00,0.0092
3840.00,0.0092
3839.00,0.0092
3838.00,0.0092
3837.00,0.0092
3836.00,0.0092
3835.00,0.0092
3834.00,0.0092
3833.00,0.0092
3832.00,0.0092
3831.00,0.0093
3830.00,0.0093
3829.00,0.0092
3828.00,0.0093
3827.00,0.0093
3826.00,0.0093
3825.00,0.0092
3824.00,0.0092
3823.00,0.0092
3822.00,0.0092
3821.00,0.0092
3820.00,0.0092
3819.00,0.0092
3818.00,0.0091
3817.00,0.0091
3816.00,0.0091
3815.00,0.0092
3814.00,0.0092
3813.00,0.0092
3812.00,0.0092
3811.00,0.0092
3810.00,0.0092
3809.00,0.0092
3808.00,0.0092
3807.00,0.0092
3806.00,0.0091
3805.00,0.0091
3804.00,0.0091
3803.00,0.0091
3802.00,0.0091
3801.00,0.0091
3800.00,0.0091
3799.00,0.0091
3798.00,0.0091
3797.00,0.0091
3796.00,0.0091
3795.00,0.0091
3794.00,0.0091
3793.00,0.0092
3792.00,0.0092
3791.00,0.0092
3790.00,0.0091
3789.00,0.0091
3788.00,0.0091
3787.00,0.0091
3786.00,0.0091
3785.00,0.0091
3784.00,0.0091
3783.00,0.0091
3782.00,0.0090
3781.00,0.0090
3780.00,0.0091
3779.00,0.0091
3778.00,0.0091
3777.00,0.0091
3776.00,0.0091
3775.00,0.0091
3774.00,0.0091
3773.00,0.0091
3772.00,0.0090
3771.00,0.0090
3770.00,0.0090
3769.00,0.0090
3768.00,0.0090
3767.00,0.0090
3766.00,0.0090
3765.00,0.0090
3764.00,0.0090
3763.00,0.0090
3762.00,0.0090
3761.00,0.0090
3760.00,0.0090
3759.00,0.0090
3758.00,0.0090
3757.00,0.0090
3756.00,0.0090
3755.00,0.0089
3754.00,0.0089
3753.00,0.0089
3752.00,0.0089
3751.00,0.0089
3750.00,0.0088
3749.00,0.0088
3748.00,0.0088
3747.00,0.0087
3746.00,0.0087
3745.00,0.0087
3744.00,0.0088
3743.00,0.0088
3742.00,0.0087
3741.00,0.0087
3740.00,0.0088
3739.00,0.0087
3738.00,0.0087
3737.00,0.0087
3736.00,0.0087
3735.00,0.0087
3734.00,0.0087
3733.00,0.0087
3732.00,0.0087
3731.00,0.0087
3730.00,0.0087
3729.00,0.0087
3728.00,0.0087
3727.00,0.0087
3726.00,0.0087
3725.00,0.0087
3724.00,0.0087
3723.00,0.0087
3722.00,0.0087
3721.00,0.0087
3720.00,0.0087
3719.00,0.0087
3718.00,0.0087
3717.00,0.0087
3716.00,0.0087
3715.00,0.0086
3714.00,0.0086
3713.00,0.0086
3712.00,0.0086
3711.00,0.0086
3710.00,0.0085
3709.00,0.0085
3708.00,0.0085
3707.00,0.0085
3706.00,0.0085
3705.00,0.0085
3704.00,0.0085
3703.00,0.0085
3702.00,0.0085
3701.00,0.0085
3700.00,0.0085
3699.00,0.0085
3698.00,0.0085
3697.00,0.0085
3696.00,0.0085
3695.00,0.0085
3694.00,0.0085
3693.00,0.0085
3692.00,0.0085
3691.00,0.0085
3690.00,0.0085
3689.00,0.0084
3688.00,0.0084
3687.00,0.0084
3686.00,0.0084
3685.00,0.0084
3684.00,0.0085
3683.00,0.0085
3682.00,0.0085
3681.00,0.0085
3680.00,0.0085
3679.00,0.0085
3678.00,0.0085
3677.00,0.0085
3676.00,0.0085
3675.00,0.0085
3674.00,0.0085
3673.00,0.0085
3672.00,0.0084
3671.00,0.0084
3670.00,0.0085
3669.00,0.0085
3668.00,0.0085
3667.00,0.0085
3666.00,0.0085
3665.00,0.0086
3664.00,0.0086
3663.00,0.0086
3662.00,0.0086
3661.00,0.0086
3660.00,0.0086
3659.00,0.0086
3658.00,0.0086
3657.00,0.0086
3656.00,0.0086
3655.00,0.0086
3654.00,0.0086
3653.00,0.0086
3652.00,0.0086
3651.00,0.0086
3650.00,0.0086
3649.00,0.0087
3648.00,0.0087
3647.00,0.0087
3646.00,0.0087
3645.00,0.0087
3644.00,0.0087
3643.00,0.0088
3642.00,0.0088
3641.00,0.0088
3640.00,0.0089
3639.00,0.0089
3638.00,0.0089
3637.00,0.0089
3636.00,0.0089
3635.00,0.0089
3634.00,0.0090
3633.00,0.0090
3632.00,0.0090
3631.00,0.0090
3630.00,0.0089
3629.00,0.0090
3628.00,0.0090
3627.00,0.0090
3626.00,0.0090
3625.00,0.0090
3624.00,0.0091
3623.00,0.0091
3622.00,0.0091
3621.00,0.0092
3620.00,0.0092
3619.00,0.0092
3618.00,0.0092
3617.00,0.0092
3616.00,0.0093
3615.00,0.0093
3614.00,0.0093
3613.00,0.0094
3612.00,0.0094
3611.00,0.0094
3610.00,0.0095
3609.00,0.0095
3608.00,0.0095
3607.00,0.0095
3606.00,0.0096
3605.00,0.0096
3604.00,0.0097
3603.00,0.0097
3602.00,0.0097
3601.00,0.0098
3600.00,0.0098
3599.00,0.0098
3598.00,0.0098
3597.00,0.0098
3596.00,0.0098
3595.00,0.0099
3594.00,0.0099
3593.00,0.0099
3592.00,0.0099
3591.00,0.0100
3590.00,0.0100
3589.00,0.0100
3588.00,0.0100
3587.00,0.0101
3586.00,0.0101
3585.00,0.0102
3584.00,0.0102
3583.00,0.0102
3582.00,0.0103
3581.00,0.0103
3580.00,0.0104
3579.00,0.0104
3578.00,0.0104
3577.00,0.0105
3576.00,0.0105
3575.00,0.0105
3574.00,0.0106
3573.00,0.0106
3572.00,0.0106
3571.00,0.0107
3570.00,0.0107
3569.00,0.0107
3568.00,0.0107
3567.00,0.0108
3566.00,0.0108
3565.00,0.0108
3564.00,0.0109
3563.00,0.0110
3562.00,0.0110
3561.00,0.0111
3560.00,0.0111
3559.00,0.0112
3558.00,0.0112
3557.00,0.0112
3556.00,0.0113
3555.00,0.0113
3554.00,0.0114
3553.00,0.0114
3552.00,0.0114
3551.00,0.0115
3550.00,0.0115
3549.00,0.0116
3548.00,0.0116
3547.00,0.0117
3546.00,0.0117
3545.00,0.0118
3544.00,0.0118
3543.00,0.0119
3542.00,0.0119
3541.00,0.0119
3540.00,0.0120
3539.00,0.0120
3538.00,0.0121
3537.00,0.0121
3536.00,0.0122
3535.00,0.0122
3534.00,0.0122
3533.00,0.0123
3532.00,0.0123
3531.00,0.0123
3530.00,0.0124
3529.00,0.0124
3528.00,0.0125
3527.00,0.0125
3526.00,0.0125
3525.00,0.0126
3524.00,0.0126
3523.00,0.0127
3522.00,0.0127
3521.00,0.0128
3520.00,0.0128
3519.00,0.0129
3518.00,0.0129
3517.00,0.0129
3516.00,0.0130
3515.00,0.0130
3514.00,0.0131
3513.00,0.0131
3512.00,0.0131
3511.00,0.0132
3510.00,0.0132
3509.00,0.0132
3508.00,0.0133
3507.00,0.0133
3506.00,0.0134
3505.00,0.0135
3504.00,0.0135
3503.00,0.0136
3502.00,0.0136
3501.00,0.0136
3500.00,0.0137
3499.00,0.0137
3498.00,0.0137
3497.00,0.0138
3496.00,0.0138
3495.00,0.0139
3494.00,0.0139
3493.00,0.0140
3492.00,0.0140
3491.00,0.0141
3490.00,0.0141
3489.00,0.0142
3488.00,0.0142
3487.00,0.0143
3486.00,0.0143
3485.00,0.0143
3484.00,0.0144
3483.00,0.0144
3482.00,0.0145
3481.00,0.0145
3480.00,0.0146
3479.00,0.0146
3478.00,0.0147
3477.00,0.0147
3476.00,0.0148
3475.00,0.0148
3474.00,0.0149
3473.00,0.0149
3472.00,0.0150
3471.00,0.0150
3470.00,0.0151
3469.00,0.0152
3468.00,0.0152
3467.00,0.0152
3466.00,0.0153
3465.00,0.0153
3464.00,0.0153
3463.00,0.0154
3462.00,0.0154
3461.00,0.0155
3460.00,0.0155
3459.00,0.0156
3458.00,0.0156
3457.00,0.0157
3456.00,0.0157
3455.00,0.0157
3454.00,0.0158
3453.00,0.0158
3452.00,0.0159
3451.00,0.0159
3450.00,0.0160
3449.00,0.0160
3448.00,0.0160
3447.00,0.0161
3446.00,0.0161
3445.00,0.0162
3444.00,0.0162
3443.00,0.0163
3442.00,0.0164
3441.00,0.0164
3440.00,0.0165
3439.00,0.0165
3438.00,0.0166
3437.00,0.0166
3436.00,0.0167
3435.00,0.0167
3434.00,0.0168
3433.00,0.0168
3432.00,0.0168
3431.00,0.0169
3430.00,0.0169
3429.00,0.0170
3428.00,0.0170
3427.00,0.0170
3426.00,0.0171
3425.00,0.0171
3424.00,0.0172
3423.00,0.0172
3422.00,0.0173
3421.00,0.0173
3420.00,0.0174
3419.00,0.0174
3418.00,0.0175
3417.00,0.0175
3416.00,0.0176
3415.00,0.0176
3414.00,0.0177
3413.00,0.0177
3412.00,0.0178
3411.00,0.0178
3410.00,0.0179
3409.00,0.0179
3408.00,0.0180
3407.00,0.0180
3406.00,0.0181
3405.00,0.0181
3404.00,0.0182
3403.00,0.0182
3402.00,0.0183
3401.00,0.0183
3400.00,0.0183
3399.00,0.0184
3398.00,0.0184
3397.00,0.0184
3396.00,0.0185
3395.00,0.0185
3394.00,0.0186
3393.00,0.0186
3392.00,0.0187
3391.00,0.0187
3390.00,0.0187
3389.00,0.0188
3388.00,0.0188
3387.00,0.0189
3386.00,0.0189
3385.00,0.0190
3384.00,0.0190
3383.00,0.0190
3382.00,0.0191
3381.00,0.0191
3380.00,0.0192
3379.00,0.0192
3378.00,0.0193
3377.00,0.0194
3376.00,0.0194
3375.00,0.0195
3374.00,0.0195
3373.00,0.0196
3372.00,0.0196
3371.00,0.0197
3370.00,0.0198
3369.00,0.0198
3368.00,0.0199
3367.00,0.0200
3366.00,0.0200
3365.00,0.0201
3364.00,0.0202
3363.00,0.0202
3362.00,0.0203
3361.00,0.0203
3360.00,0.0204
3359.00,0.0205
3358.00,0.0205
3357.00,0.0206
3356.00,0.0207
3355.00,0.0207
3354.00,0.0208
3353.00,0.0209
3352.00,0.0209
3351.00,0.0210
3350.00,0.0211
3349.00,0.0212
3348.00,0.0213
3347.00,0.0214
3346.00,0.0215
3345.00,0.0216
3344.00,0.0217
3343.00,0.0217
3342.00,0.0218
3341.00,0.0219
3340.00,0.0220
3339.00,0.0221
3338.00,0.0222
3337.00,0.0223
3336.00,0.0224
3335.00,0.0225
3334.00,0.0226
3333.00,0.0227
3332.00,0.0229
3331.00,0.0230
3330.00,0.0231
3329.00,0.0232
3328.00,0.0233
3327.00,0.0234
3326.00,0.0236
3325.00,0.0237
3324.00,0.0238
3323.00,0.0240
3322.00,0.0241
3321.00,0.0243
3320.00,0.0244
3319.00,0.0246
3318.00,0.0247
3317.00,0.0249
3316.00,0.0250
3315.00,0.0252
3314.00,0.0254
3313.00,0.0255
3312.00,0.0257
3311.00,0.0258
3310.00,0.0260
3309.00,0.0261
3308.00,0.0263
3307.00,0.0265
3306.00,0.0267
3305.00,0.0269
3304.00,0.0271
3303.00,0.0273
3302.00,0.0275
3301.00,0.0277
3300.00,0.0279
3299.00,0.0281
3298.00,0.0283
3297.00,0.0285
3296.00,0.0287
3295.00,0.0289
3294.00,0.0291
3293.00,0.0293
3292.00,0.0295
3291.00,0.0297
3290.00,0.0299
3289.00,0.0301
3288.00,0.0303
3287.00,0.0304
3286.00,0.0306
3285.00,0.0308
3284.00,0.0309
3283.00,0.0311
3282.00,0.0312
3281.00,0.0314
3280.00,0.0315
3279.00,0.0316
3278.00,0.0317
3277.00,0.0317
3276.00,0.0318
3275.00,0.0319
3274.00,0.0319
3273.00,0.0319
3272.00,0.0319
3271.00,0.0319
3270.00,0.0319
3269.00,0.0319
3268.00,0.0318
3267.00,0.0318
3266.00,0.0317
3265.00,0.0316
3264.00,0.0315
3263.00,0.0314
3262.00,0.0313
3261.00,0.0312
3260.00,0.0310
3259.00,0.0309
3258.00,0.0307
3257.00,0.0305
3256.00,0.0304
3255.00,0.0302
3254.00,0.0301
3253.00,0.0299
3252.00,0.0297
3251.00,0.0296
3250.00,0.0294
3249.00,0.0292
3248.00,0.0291
3247.00,0.0289
3246.00,0.0287
3245.00,0.0286
3244.00,0.0284
3243.00,0.0283
3242.00,0.0281
3241.00,0.0280
3240.00,0.0278
3239.00,0.0277
3238.00,0.0275
3237.00,0.0274
3236.00,0.0272
3235.00,0.0271
3234.00,0.0270
3233.00,0.0269
3232.00,0.0268
3231.00,0.0267
3230.00,0.0266
3229.00,0.0265
3228.00,0.0263
3227.00,0.0262
3226.00,0.0261
3225.00,0.0260
3224.00,0.0259
3223.00,0.0258
3222.00,0.0258
3221.00,0.0257
3220.00,0.0256
3219.00,0.0255
3218.00,0.0254
3217.00,0.0253
3216.00,0.0252
3215.00,0.0251
3214.00,0.0251
3213.00,0.0250
3212.00,0.0249
3211.00,0.0248
3210.00,0.0248
3209.00,0.0247
3208.00,0.0246
3207.00,0.0245
3206.00,0.0244
3205.00,0.0244
3204.00,0.0243
3203.00,0.0242
3202.00,0.0242
3201.00,0.0241
3200.00,0.0240
3199.00,0.0240
3198.00,0.0239
3197.00,0.0238
3196.00,0.0238
3195.00,0.0237
3194.00,0.0236
3193.00,0.0236
3192.00,0.0235
3191.00,0.0234
3190.00,0.0233
3189.00,0.0233
3188.00,0.0232
3187.00,0.0231
3186.00,0.0230
3185.00,0.0229
3184.00,0.0229
3183.00,0.0228
3182.00,0.0227
3181.00,0.0226
3180.00,0.0226
3179.00,0.0225
3178.00,0.0224
3177.00,0.0223
3176.00,0.0223
3175.00,0.0222
3174.00,0.0221
3173.00,0.0220
3172.00,0.0219
3171.00,0.0218
3170.00,0.0217
3169.00,0.0217
3168.00,0.0216
3167.00,0.0215
3166.00,0.0214
3165.00,0.0213
3164.00,0.0213
3163.00,0.0212
3162.00,0.0211
3161.00,0.0210
3160.00,0.0209
3159.00,0.0209
3158.00,0.0208
3157.00,0.0207
3156.00,0.0207
3155.00,0.0206
3154.00,0.0205
3153.00,0.0204
3152.00,0.0203
3151.00,0.0203
3150.00,0.0202
3149.00,0.0201
3148.00,0.0201
3147.00,0.0200
3146.00,0.0199
3145.00,0.0199
3144.00,0.0198
3143.00,0.0198
3142.00,0.0197
3141.00,0.0196
3140.00,0.0195
3139.00,0.0195
3138.00,0.0194
3137.00,0.0193
3136.00,0.0193
3135.00,0.0192
3134.00,0.0192
3133.00,0.0191
3132.00,0.0191
3131.00,0.0190
3130.00,0.0189
3129.00,0.0189
3128.00,0.0189
3127.00,0.0188
3126.00,0.0188
3125.00,0.0187
3124.00,0.0187
3123.00,0.0186
3122.00,0.0186
3121.00,0.0185
3120.00,0.0185
3119.00,0.0185
3118.00,0.0184
3117.00,0.0184
3116.00,0.0184
3115.00,0.0184
3114.00,0.0183
3113.00,0.0183
3112.00,0.0183
3111.00,0.0183
3110.00,0.0182
3109.00,0.0182
3108.00,0.0182
3107.00,0.0182
3106.00,0.0182
3105.00,0.0182
3104.00,0.0182
3103.00,0.0182
3102.00,0.0181
3101.00,0.0181
3100.00,0.0181
3099.00,0.0181
3098.00,0.0181
3097.00,0.0181
3096.00,0.0181
3095.00,0.0181
3094.00,0.0181
3093.00,0.0181
3092.00,0.0181
3091.00,0.0181
3090.00,0.0181
3089.00,0.0182
3088.00,0.0182
3087.00,0.0182
3086.00,0.0181
3085.00,0.0181
3084.00,0.0181
3083.00,0.0181
3082.00,0.0181
3081.00,0.0181
3080.00,0.0181
3079.00,0.0182
3078.00,0.0182
3077.00,0.0182
3076.00,0.0182
3075.00,0.0182
3074.00,0.0182
3073.00,0.0182
3072.00,0.0182
3071.00,0.0182
3070.00,0.0182
3069.00,0.0182
3068.00,0.0182
3067.00,0.0181
3066.00,0.0181
3065.00,0.0181
3064.00,0.0181
3063.00,0.0181
3062.00,0.0181
3061.00,0.0181
3060.00,0.0180
3059.00,0.0180
3058.00,0.0180
3057.00,0.0179
3056.00,0.0179
3055.00,0.0178
3054.00,0.0178
3053.00,0.0178
3052.00,0.0177
3051.00,0.0177
3050.00,0.0176
3049.00,0.0176
3048.00,0.0176
3047.00,0.0175
3046.00,0.0174
3045.00,0.0174
3044.00,0.0173
3043.00,0.0173
3042.00,0.0172
3041.00,0.0172
3040.00,0.0171
3039.00,0.0171
3038.00,0.0171
3037.00,0.0170
3036.00,0.0170
3035.00,0.0169
3034.00,0.0169
3033.00,0.0168
3032.00,0.0168
3031.00,0.0168
3030.00,0.0167
3029.00,0.0167
3028.00,0.0167
3027.00,0.0166
3026.00,0.0165
3025.00,0.0165
3024.00,0.0164
3023.00,0.0164
3022.00,0.0163
3021.00,0.0163
3020.00,0.0162
3019.00,0.0161
3018.00,0.0161
3017.00,0.0160
3016.00,0.0160
3015.00,0.0159
3014.00,0.0159
3013.00,0.0158
3012.00,0.0158
3011.00,0.0158
3010.00,0.0158
3009.00,0.0158
3008.00,0.0157
3007.00,0.0157
3006.00,0.0157
3005.00,0.0157
3004.00,0.0156
3003.00,0.0156
3002.00,0.0156
3001.00,0.0156
3000.00,0.0156
2999.00,0.0156
2998.00,0.0156
2997.00,0.0156
2996.00,0.0156
2995.00,0.0156
2994.00,0.0156
2993.00,0.0156
2992.00,0.0157
2991.00,0.0157
2990.00,0.0158
2989.00,0.0158
2988.00,0.0158
2987.00,0.0159
2986.00,0.0159
2985.00,0.0160
2984.00,0.0160
2983.00,0.0161
2982.00,0.0161
2981.00,0.0162
2980.00,0.0162
2979.00,0.0162
2978.00,0.0163
2977.00,0.0163
2976.00,0.0164
2975.00,0.0164
2974.00,0.0165
2973.00,0.0165
2972.00,0.0165
2971.00,0.0165
2970.00,0.0165
2969.00,0.0165
2968.00,0.0166
2967.00,0.0166
2966.00,0.0166
2965.00,0.0165
2964.00,0.0165
2963.00,0.0165
2962.00,0.0164
2961.00,0.0164
2960.00,0.0163
2959.00,0.0163
2958.00,0.0163
2957.00,0.0162
2956.00,0.0162
2955.00,0.0162
2954.00,0.0162
2953.00,0.0162
2952.00,0.0162
2951.00,0.0162
2950.00,0.0162
2949.00,0.0162
2948.00,0.0162
2947.00,0.0163
2946.00,0.0163
2945.00,0.0163
2944.00,0.0163
2943.00,0.0163
2942.00,0.0163
2941.00,0.0163
2940.00,0.0163
2939.00,0.0163
2938.00,0.0163
2937.00,0.0163
2936.00,0.0163
2935.00,0.0162
2934.00,0.0162
2933.00,0.0161
2932.00,0.0160
2931.00,0.0158
2930.00,0.0157
2929.00,0.0155
2928.00,0.0153
2927.00,0.0151
2926.00,0.0148
2925.00,0.0145
2924.00,0.0142
2923.00,0.0138
2922.00,0.0134
2921.00,0.0130
2920.00,0.0126
2919.00,0.0122
2918.00,0.0118
2917.00,0.0116
2916.00,0.0116
2915.00,0.0118
2914.00,0.0121
2913.00,0.0126
2912.00,0.0130
2911.00,0.0134
2910.00,0.0138
2909.00,0.0140
2908.00,0.0141
2907.00,0.0142
2906.00,0.0143
2905.00,0.0144
2904.00,0.0144
2903.00,0.0144
2902.00,0.0144
2901.00,0.0144
2900.00,0.0145
2899.00,0.0145
2898.00,0.0145
2897.00,0.0145
2896.00,0.0145
2895.00,0.0146
2894.00,0.0146
2893.00,0.0146
2892.00,0.0146
2891.00,0.0146
2890.00,0.0147
2889.00,0.0147
2888.00,0.0147
2887.00,0.0148
2886.00,0.0148
2885.00,0.0149
2884.00,0.0149
2883.00,0.0150
2882.00,0.0150
2881.00,0.0151
2880.00,0.0151
2879.00,0.0152
2878.00,0.0152
2877.00,0.0152
2876.00,0.0153
2875.00,0.0153
2874.00,0.0152
2873.00,0.0152
2872.00,0.0152
2871.00,0.0152
2870.00,0.0151
2869.00,0.0151
2868.00,0.0150
2867.00,0.0149
2866.00,0.0148
2865.00,0.0147
2864.00,0.0146
2863.00,0.0145
2862.00,0.0144
2861.00,0.0143
2860.00,0.0142
2859.00,0.0141
2858.00,0.0139
2857.00,0.0137
2856.00,0.0135
2855.00,0.0133
2854.00,0.0129
2853.00,0.0125
2852.00,0.0121
2851.00,0.0117
2850.00,0.0114
2849.00,0.0113
2848.00,0.0114
2847.00,0.0117
2846.00,0.0122
2845.00,0.0126
2844.00,0.0129
2843.00,0.0132
2842.00,0.0134
2841.00,0.0135
2840.00,0.0135
2839.00,0.0136
2838.00,0.0136
2837.00,0.0136
2836.00,0.0136
2835.00,0.0136
2834.00,0.0136
2833.00,0.0136
2832.00,0.0136
2831.00,0.0136
2830.00,0.0136
2829.00,0.0136
2828.00,0.0136
2827.00,0.0136
2826.00,0.0135
2825.00,0.0135
2824.00,0.0135
2823.00,0.0135
2822.00,0.0135
2821.00,0.0135
2820.00,0.0135
2819.00,0.0135
2818.00,0.0134
2817.00,0.0134
2816.00,0.0134
2815.00,0.0134
2814.00,0.0134
2813.00,0.0134
2812.00,0.0134
2811.00,0.0133
2810.00,0.0133
2809.00,0.0133
2808.00,0.0133
2807.00,0.0133
2806.00,0.0133
2805.00,0.0133
2804.00,0.0133
2803.00,0.0132
2802.00,0.0132
2801.00,0.0132
2800.00,0.0132
2799.00,0.0132
2798.00,0.0132
2797.00,0.0131
2796.00,0.0131
2795.00,0.0131
2794.00,0.0131
2793.00,0.0131
2792.00,0.0131
2791.00,0.0131
2790.00,0.0131
2789.00,0.0131
2788.00,0.0130
2787.00,0.0130
2786.00,0.0130
2785.00,0.0130
2784.00,0.0130
2783.00,0.0130
2782.00,0.0130
2781.00,0.0130
2780.00,0.0130
2779.00,0.0129
2778.00,0.0129
2777.00,0.0129
2776.00,0.0129
2775.00,0.0129
2774.00,0.0129
2773.00,0.0129
2772.00,0.0129
2771.00,0.0128
2770.00,0.0128
2769.00,0.0128
2768.00,0.0128
2767.00,0.0128
2766.00,0.0128
2765.00,0.0127
2764.00,0.0127
2763.00,0.0127
2762.00,0.0127
2761.00,0.0127
2760.00,0.0127
2759.00,0.0127
2758.00,0.0127
2757.00,0.0126
2756.00,0.0126
2755.00,0.0126
2754.00,0.0126
2753.00,0.0126
2752.00,0.0126
2751.00,0.0126
2750.00,0.0125
2749.00,0.0125
2748.00,0.0125
2747.00,0.0125
2746.00,0.0125
2745.00,0.0125
2744.00,0.0124
2743.00,0.0124
2742.00,0.0124
2741.00,0.0124
2740.00,0.0124
2739.00,0.0124
2738.00,0.0124
2737.00,0.0124
2736.00,0.0124
2735.00,0.0123
2734.00,0.0123
2733.00,0.0123
2732.00,0.0123
2731.00,0.0123
2730.00,0.0123
2729.00,0.0122
2728.00,0.0122
2727.00,0.0122
2726.00,0.0122
2725.00,0.0122
2724.00,0.0122
2723.00,0.0122
2722.00,0.0121
2721.00,0.0121
2720.00,0.0121
2719.00,0.0121
2718.00,0.0121
2717.00,0.0121
2716.00,0.0121
2715.00,0.0121
2714.00,0.0120
2713.00,0.0120
2712.00,0.0120
2711.00,0.0120
2710.00,0.0120
2709.00,0.0120
2708.00,0.0119
2707.00,0.0119
2706.00,0.0119
2705.00,0.0119
2704.00,0.0119
2703.00,0.0119
2702.00,0.0119
2701.00,0.0118
2700.00,0.0118
2699.00,0.0118
2698.00,0.0118
2697.00,0.0118
2696.00,0.0118
2695.00,0.0118
2694.00,0.0118
2693.00,0.0118
2692.00,0.0117
2691.00,0.0117
2690.00,0.0117
2689.00,0.0117
2688.00,0.0117
2687.00,0.0117
2686.00,0.0117
2685.00,0.0117
2684.00,0.0117
2683.00,0.0116
2682.00,0.0116
2681.00,0.0116
2680.00,0.0116
2679.00,0.0116
2678.00,0.0116
2677.00,0.0116
2676.00,0.0116
2675.00,0.0116
2674.00,0.0116
2673.00,0.0115
2672.00,0.0115
2671.00,0.0115
2670.00,0.0115
2669.00,0.0115
2668.00,0.0115
2667.00,0.0116
2666.00,0.0116
2665.00,0.0116
2664.00,0.0116
2663.00,0.0117
2662.00,0.0117
2661.00,0.0117
2660.00,0.0117
2659.00,0.0117
2658.00,0.0117
2657.00,0.0117
2656.00,0.0117
2655.00,0.0117
2654.00,0.0117
2653.00,0.0117
2652.00,0.0117
2651.00,0.0117
2650.00,0.0117
2649.00,0.0117
2648.00,0.0117
2647.00,0.0116
2646.00,0.0116
2645.00,0.0116
2644.00,0.0116
2643.00,0.0116
2642.00,0.0116
2641.00,0.0116
2640.00,0.0116
2639.00,0.0115
2638.00,0.0115
2637.00,0.0115
2636.00,0.0115
2635.00,0.0115
2634.00,0.0115
2633.00,0.0115
2632.00,0.0114
2631.00,0.0114
2630.00,0.0114
2629.00,0.0114
2628.00,0.0114
2627.00,0.0113
2626.00,0.0113
2625.00,0.0113
2624.00,0.0113
2623.00,0.0113
2622.00,0.0113
2621.00,0.0113
2620.00,0.0113
2619.00,0.0112
2618.00,0.0112
2617.00,0.0112
2616.00,0.0112
2615.00,0.0112
2614.00,0.0111
2613.00,0.0111
2612.00,0.0111
2611.00,0.0111
2610.00,0.0111
2609.00,0.0111
2608.00,0.0111
2607.00,0.0110
2606.00,0.0110
2605.00,0.0110
2604.00,0.0110
2603.00,0.0110
2602.00,0.0110
2601.00,0.0109
2600.00,0.0109
2599.00,0.0109
2598.00,0.0109
2597.00,0.0109
2596.00,0.0109
2595.00,0.0109
2594.00,0.0108
2593.00,0.0108
2592.00,0.0108
2591.00,0.0108
2590.00,0.0107
2589.00,0.0107
2588.00,0.0107
2587.00,0.0107
2586.00,0.0107
2585.00,0.0107
2584.00,0.0107
2583.00,0.0107
2582.00,0.0106
2581.00,0.0106
2580.00,0.0106
2579.00,0.0106
2578.00,0.0106
2577.00,0.0106
2576.00,0.0106
2575.00,0.0105
2574.00,0.0105
2573.00,0.0105
2572.00,0.0105
2571.00,0.0105
2570.00,0.0105
2569.00,0.0104
2568.00,0.0104
2567.00,0.0104
2566.00,0.0104
2565.00,0.0104
2564.00,0.0104
2563.00,0.0104
2562.00,0.0104
2561.00,0.0104
2560.00,0.0104
2559.00,0.0104
2558.00,0.0104
2557.00,0.0103
2556.00,0.0103
2555.00,0.0103
2554.00,0.0103
2553.00,0.0103
2552.00,0.0103
2551.00,0.0103
2550.00,0.0103
2549.00,0.0103
2548.00,0.0103
2547.00,0.0103
2546.00,0.0103
2545.00,0.0103
2544.00,0.0102
2543.00,0.0102
2542.00,0.0102
2541.00,0.0102
2540.00,0.0101
2539.00,0.0101
2538.00,0.0101
2537.00,0.0101
2536.00,0.0101
2535.00,0.0101
2534.00,0.0101
2533.00,0.0101
2532.00,0.0101
2531.00,0.0101
2530.00,0.0101
2529.00,0.0100
2528.00,0.0100
2527.00,0.0100
2526.00,0.0100
2525.00,0.0100
2524.00,0.0100
2523.00,0.0100
2522.00,0.0100
2521.00,0.0100
2520.00,0.0100
2519.00,0.0100
2518.00,0.0100
2517.00,0.0100
2516.00,0.0100
2515.00,0.0099
2514.00,0.0099
2513.00,0.0099
2512.00,0.0099
2511.00,0.0099
2510.00,0.0099
2509.00,0.0099
2508.00,0.0099
2507.00,0.0099
2506.00,0.0099
2505.00,0.0099
2504.00,0.0099
2503.00,0.0099
2502.00,0.0099
2501.00,0.0099
2500.00,0.0099
2499.00,0.0099
2498.00,0.0099
2497.00,0.0099
2496.00,0.0099
2495.00,0.0099
2494.00,0.0099
2493.00,0.0098
2492.00,0.0098
2491.00,0.0098
2490.00,0.0098
2489.00,0.0098
2488.00,0.0098
2487.00,0.0098
2486.00,0.0097
2485.00,0.0097
2484.00,0.0097
2483.00,0.0097
2482.00,0.0097
2481.00,0.0097
2480.00,0.0097
2479.00,0.0097
2478.00,0.0097
2477.00,0.0097
2476.00,0.0097
2475.00,0.0097
2474.00,0.0097
2473.00,0.0097
2472.00,0.0097
2471.00,0.0097
2470.00,0.0097
2469.00,0.0097
2468.00,0.0097
2467.00,0.0097
2466.00,0.0097
2465.00,0.0097
2464.00,0.0097
2463.00,0.0097
2462.00,0.0097
2461.00,0.0097
2460.00,0.0097
2459.00,0.0097
2458.00,0.0097
2457.00,0.0097
2456.00,0.0098
2455.00,0.0097
2454.00,0.0097
2453.00,0.0097
2452.00,0.0097
2451.00,0.0097
2450.00,0.0097
2449.00,0.0097
2448.00,0.0096
2447.00,0.0096
2446.00,0.0096
2445.00,0.0096
2444.00,0.0096
2443.00,0.0096
2442.00,0.0095
2441.00,0.0095
2440.00,0.0095
2439.00,0.0095
2438.00,0.0095
2437.00,0.0095
2436.00,0.0095
2435.00,0.0095
2434.00,0.0095
2433.00,0.0094
2432.00,0.0094
2431.00,0.0094
2430.00,0.0094
2429.00,0.0094
2428.00,0.0094
2427.00,0.0093
2426.00,0.0093
2425.00,0.0093
2424.00,0.0093
2423.00,0.0093
2422.00,0.0093
2421.00,0.0093
2420.00,0.0092
2419.00,0.0092
2418.00,0.0092
2417.00,0.0092
2416.00,0.0092
2415.00,0.0092
2414.00,0.0092
2413.00,0.0092
2412.00,0.0092
2411.00,0.0092
2410.00,0.0092
2409.00,0.0092
2408.00,0.0091
2407.00,0.0090
2406.00,0.0090
2405.00,0.0090
2404.00,0.0090
2403.00,0.0090
2402.00,0.0090
2401.00,0.0090
2400.00,0.0090
2399.00,0.0090
2398.00,0.0090
2397.00,0.0090
2396.00,0.0090
2395.00,0.0090
2394.00,0.0090
2393.00,0.0089
2392.00,0.0089
2391.00,0.0089
2390.00,0.0089
2389.00,0.0089
2388.00,0.0089
2387.00,0.0088
2386.00,0.0088
2385.00,0.0088
2384.00,0.0087
2383.00,0.0087
2382.00,0.0086
2381.00,0.0086
2380.00,0.0085
2379.00,0.0085
2378.00,0.0085
2377.00,0.0086
2376.00,0.0086
2375.00,0.0086
2374.00,0.0086
2373.00,0.0086
2372.00,0.0086
2371.00,0.0086
2370.00,0.0086
2369.00,0.0085
2368.00,0.0085
2367.00,0.0085
2366.00,0.0085
2365.00,0.0085
2364.00,0.0086
2363.00,0.0086
2362.00,0.0086
2361.00,0.0086
2360.00,0.0086
2359.00,0.0086
2358.00,0.0086
2357.00,0.0087
2356.00,0.0087
2355.00,0.0087
2354.00,0.0086
2353.00,0.0086
2352.00,0.0086
2351.00,0.0086
2350.00,0.0087
2349.00,0.0087
2348.00,0.0087
2347.00,0.0087
2346.00,0.0087
2345.00,0.0087
2344.00,0.0088
2343.00,0.0089
2342.00,0.0089
2341.00,0.0089
2340.00,0.0089
2339.00,0.0089
2338.00,0.0089
2337.00,0.0089
2336.00,0.0089
2335.00,0.0089
2334.00,0.0089
2333.00,0.0089
2332.00,0.0088
2331.00,0.0088
2330.00,0.0089
2329.00,0.0090
2328.00,0.0093
2327.00,0.0097
2326.00,0.0099
2325.00,0.0100
2324.00,0.0100
2323.00,0.0098
2322.00,0.0096
2321.00,0.0095
2320.00,0.0094
2319.00,0.0094
2318.00,0.0094
2317.00,0.0093
2316.00,0.0093
2315.00,0.0092
2314.00,0.0091
2313.00,0.0091
2312.00,0.0091
2311.00,0.0091
2310.00,0.0091
2309.00,0.0091
2308.00,0.0090
2307.00,0.0091
2306.00,0.0091
2305.00,0.0091
2304.00,0.0091
2303.00,0.0091
2302.00,0.0091
2301.00,0.0092
2300.00,0.0092
2299.00,0.0092
2298.00,0.0092
2297.00,0.0093
2296.00,0.0093
2295.00,0.0094
2294.00,0.0095
2293.00,0.0095
2292.00,0.0096
2291.00,0.0096
2290.00,0.0096
2289.00,0.0097
2288.00,0.0097
2287.00,0.0097
2286.00,0.0097
2285.00,0.0096
2284.00,0.0096
2283.00,0.0095
2282.00,0.0094
2281.00,0.0094
2280.00,0.0093
2279.00,0.0093
2278.00,0.0093
2277.00,0.0093
2276.00,0.0093
2275.00,0.0092
2274.00,0.0092
2273.00,0.0092
2272.00,0.0091
2271.00,0.0091
2270.00,0.0091
2269.00,0.0091
2268.00,0.0090
2267.00,0.0090
2266.00,0.0089
2265.00,0.0089
2264.00,0.0089
2263.00,0.0089
2262.00,0.0090
2261.00,0.0090
2260.00,0.0090
2259.00,0.0090
2258.00,0.0089
2257.00,0.0089
2256.00,0.0088
2255.00,0.0087
2254.00,0.0086
2253.00,0.0086
2252.00,0.0087
2251.00,0.0087
2250.00,0.0087
2249.00,0.0087
2248.00,0.0087
2247.00,0.0087
2246.00,0.0087
2245.00,0.0087
2244.00,0.0087
2243.00,0.0087
2242.00,0.0087
2241.00,0.0087
2240.00,0.0088
2239.00,0.0087
2238.00,0.0087
2237.00,0.0087
2236.00,0.0087
2235.00,0.0088
2234.00,0.0088
2233.00,0.0088
2232.00,0.0088
2231.00,0.0087
2230.00,0.0087
2229.00,0.0087
2228.00,0.0086
2227.00,0.0086
2226.00,0.0086
2225.00,0.0086
2224.00,0.0086
2223.00,0.0086
2222.00,0.0087
2221.00,0.0086
2220.00,0.0086
2219.00,0.0086
2218.00,0.0085
2217.00,0.0085
2216.00,0.0086
2215.00,0.0086
2214.00,0.0086
2213.00,0.0086
2212.00,0.0085
2211.00,0.0084
2210.00,0.0084
2209.00,0.0084
2208.00,0.0084
2207.00,0.0084
2206.00,0.0085
2205.00,0.0085
2204.00,0.0085
2203.00,0.0085
2202.00,0.0085
2201.00,0.0085
2200.00,0.0084
2199.00,0.0084
2198.00,0.0084
2197.00,0.0084
2196.00,0.0085
2195.00,0.0085
2194.00,0.0086
2193.00,0.0085
2192.00,0.0085
2191.00,0.0085
2190.00,0.0086
2189.00,0.0087
2188.00,0.0087
2187.00,0.0087
2186.00,0.0087
2185.00,0.0085
2184.00,0.0083
2183.00,0.0081
2182.00,0.0080
2181.00,0.0080
2180.00,0.0081
2179.00,0.0082
2178.00,0.0081
2177.00,0.0080
2176.00,0.0080
2175.00,0.0080
2174.00,0.0081
2173.00,0.0083
2172.00,0.0085
2171.00,0.0086
2170.00,0.0088
2169.00,0.0089
2168.00,0.0090
2167.00,0.0091
2166.00,0.0091
2165.00,0.0092
2164.00,0.0094
2163.00,0.0093
2162.00,0.0089
2161.00,0.0080
2160.00,0.0068
2159.00,0.0057
2158.00,0.0052
2157.00,0.0052
2156.00,0.0054
2155.00,0.0057
2154.00,0.0060
2153.00,0.0062
2152.00,0.0064
2151.00,0.0065
2150.00,0.0066
2149.00,0.0066
2148.00,0.0066
2147.00,0.0066
2146.00,0.0067
2145.00,0.0067
2144.00,0.0068
2143.00,0.0068
2142.00,0.0068
2141.00,0.0068
2140.00,0.0068
2139.00,0.0068
2138.00,0.0067
2137.00,0.0065
2136.00,0.0063
2135.00,0.0061
2134.00,0.0061
2133.00,0.0062
2132.00,0.0063
2131.00,0.0065
2130.00,0.0066
2129.00,0.0067
2128.00,0.0068
2127.00,0.0069
2126.00,0.0070
2125.00,0.0071
2124.00,0.0072
2123.00,0.0073
2122.00,0.0074
2121.00,0.0075
2120.00,0.0075
2119.00,0.0076
2118.00,0.0077
2117.00,0.0077
2116.00,0.0078
2115.00,0.0078
2114.00,0.0078
2113.00,0.0078
2112.00,0.0078
2111.00,0.0078
2110.00,0.0078
2109.00,0.0078
2108.00,0.0078
2107.00,0.0078
2106.00,0.0078
2105.00,0.0078
2104.00,0.0077
2103.00,0.0077
2102.00,0.0077
2101.00,0.0077
2100.00,0.0077
2099.00,0.0076
2098.00,0.0076
2097.00,0.0074
2096.00,0.0073
2095.00,0.0072
2094.00,0.0072
2093.00,0.0073
2092.00,0.0074
2091.00,0.0075
2090.00,0.0075
2089.00,0.0076
2088.00,0.0077
2087.00,0.0077
2086.00,0.0077
2085.00,0.0078
2084.00,0.0078
2083.00,0.0078
2082.00,0.0078
2081.00,0.0078
2080.00,0.0078
2079.00,0.0078
2078.00,0.0078
2077.00,0.0078
2076.00,0.0078
2075.00,0.0077
2074.00,0.0077
2073.00,0.0076
2072.00,0.0076
2071.00,0.0076
2070.00,0.0076
2069.00,0.0076
2068.00,0.0075
2067.00,0.0075
2066.00,0.0075
2065.00,0.0075
2064.00,0.0075
2063.00,0.0075
2062.00,0.0075
2061.00,0.0075
2060.00,0.0075
2059.00,0.0075
2058.00,0.0075
2057.00,0.0076
2056.00,0.0076
2055.00,0.0076
2054.00,0.0078
2053.00,0.0081
2052.00,0.0084
2051.00,0.0085
2050.00,0.0083
2049.00,0.0080
2048.00,0.0078
2047.00,0.0076
2046.00,0.0075
2045.00,0.0075
2044.00,0.0075
2043.00,0.0075
2042.00,0.0075
2041.00,0.0075
2040.00,0.0074
2039.00,0.0074
2038.00,0.0073
2037.00,0.0073
2036.00,0.0073
2035.00,0.0071
2034.00,0.0070
2033.00,0.0069
2032.00,0.0068
2031.00,0.0067
2030.00,0.0066
2029.00,0.0065
2028.00,0.0065
2027.00,0.0065
2026.00,0.0065
2025.00,0.0065
2024.00,0.0065
2023.00,0.0066
2022.00,0.0066
2021.00,0.0066
2020.00,0.0065
2019.00,0.0065
2018.00,0.0064
2017.00,0.0064
2016.00,0.0064
2015.00,0.0065
2014.00,0.0066
2013.00,0.0066
2012.00,0.0067
2011.00,0.0067
2010.00,0.0066
2009.00,0.0064
2008.00,0.0061
2007.00,0.0059
2006.00,0.0058
2005.00,0.0059
2004.00,0.0060
2003.00,0.0062
2002.00,0.0063
2001.00,0.0064
2000.00,0.0065
1999.00,0.0066
1998.00,0.0066
1997.00,0.0067
1996.00,0.0067
1995.00,0.0067
1994.00,0.0068
1993.00,0.0068
1992.00,0.0068
1991.00,0.0068
1990.00,0.0069
1989.00,0.0069
1988.00,0.0070
1987.00,0.0070
1986.00,0.0071
1985.00,0.0072
1984.00,0.0073
1983.00,0.0075
1982.00,0.0077
1981.00,0.0078
1980.00,0.0076
1979.00,0.0071
1978.00,0.0065
1977.00,0.0061
1976.00,0.0060
1975.00,0.0059
1974.00,0.0059
1973.00,0.0059
1972.00,0.0059
1971.00,0.0059
1970.00,0.0059
1969.00,0.0059
1968.00,0.0059
1967.00,0.0059
1966.00,0.0058
1965.00,0.0058
1964.00,0.0058
1963.00,0.0057
1962.00,0.0057
1961.00,0.0056
1960.00,0.0055
1959.00,0.0055
1958.00,0.0055
1957.00,0.0055
1956.00,0.0056
1955.00,0.0057
1954.00,0.0057
1953.00,0.0057
1952.00,0.0057
1951.00,0.0057
1950.00,0.0057
1949.00,0.0058
1948.00,0.0058
1947.00,0.0058
1946.00,0.0057
1945.00,0.0057
1944.00,0.0057
1943.00,0.0056
1942.00,0.0056
1941.00,0.0057
1940.00,0.0057
1939.00,0.0058
1938.00,0.0057
1937.00,0.0057
1936.00,0.0057
1935.00,0.0057
1934.00,0.0056
1933.00,0.0056
1932.00,0.0057
1931.00,0.0057
1930.00,0.0057
1929.00,0.0057
1928.00,0.0057
1927.00,0.0057
1926.00,0.0056
1925.00,0.0056
1924.00,0.0057
1923.00,0.0058
1922.00,0.0059
1921.00,0.0059
1920.00,0.0059
1919.00,0.0059
1918.00,0.0058
1917.00,0.0058
1916.00,0.0058
1915.00,0.0058
1914.00,0.0058
1913.00,0.0058
1912.00,0.0058
1911.00,0.0057
1910.00,0.0057
1909.00,0.0057
1908.00,0.0058
1907.00,0.0058
1906.00,0.0058
1905.00,0.0058
1904.00,0.0057
1903.00,0.0057
1902.00,0.0057
1901.00,0.0058
1900.00,0.0057
1899.00,0.0057
1898.00,0.0057
1897.00,0.0056
1896.00,0.0056
1895.00,0.0056
1894.00,0.0056
1893.00,0.0056
1892.00,0.0057
1891.00,0.0057
1890.00,0.0057
1889.00,0.0057
1888.00,0.0057
1887.00,0.0057
1886.00,0.0057
1885.00,0.0057
1884.00,0.0057
1883.00,0.0056
1882.00,0.0056
1881.00,0.0056
1880.00,0.0056
1879.00,0.0056
1878.00,0.0056
1877.00,0.0056
1876.00,0.0056
1875.00,0.0056
1874.00,0.0056
1873.00,0.0056
1872.00,0.0055
1871.00,0.0055
1870.00,0.0055
1869.00,0.0055
1868.00,0.0055
1867.00,0.0055
1866.00,0.0055
1865.00,0.0055
1864.00,0.0055
1863.00,0.0055
1862.00,0.0055
1861.00,0.0055
1860.00,0.0055
1859.00,0.0055
1858.00,0.0055
1857.00,0.0054
1856.00,0.0054
1855.00,0.0054
1854.00,0.0054
1853.00,0.0054
1852.00,0.0054
1851.00,0.0054
1850.00,0.0054
1849.00,0.0053
1848.00,0.0053
1847.00,0.0053
1846.00,0.0053
1845.00,0.0053
1844.00,0.0053
1843.00,0.0053
1842.00,0.0053
1841.00,0.0053
1840.00,0.0053
1839.00,0.0053
1838.00,0.0053
1837.00,0.0053
1836.00,0.0053
1835.00,0.0053
1834.00,0.0052
1833.00,0.0052
1832.00,0.0052
1831.00,0.0052
1830.00,0.0052
1829.00,0.0052
1828.00,0.0052
1827.00,0.0052
1826.00,0.0052
1825.00,0.0052
1824.00,0.0053
1823.00,0.0053
1822.00,0.0052
1821.00,0.0052
1820.00,0.0051
1819.00,0.0050
1818.00,0.0050
1817.00,0.0049
1816.00,0.0049
1815.00,0.0050
1814.00,0.0050
1813.00,0.0050
1812.00,0.0051
1811.00,0.0051
1810.00,0.0051
1809.00,0.0051
1808.00,0.0051
1807.00,0.0051
1806.00,0.0051
1805.00,0.0051
1804.00,0.0051
1803.00,0.0051
1802.00,0.0051
1801.00,0.0051
1800.00,0.0051
1799.00,0.0051
1798.00,0.0051
1797.00,0.0051
1796.00,0.0051
1795.00,0.0051
1794.00,0.0051
1793.00,0.0051
1792.00,0.0051
1791.00,0.0051
1790.00,0.0051
1789.00,0.0051
1788.00,0.0051
1787.00,0.0051
1786.00,0.0051
1785.00,0.0051
1784.00,0.0051
1783.00,0.0051
1782.00,0.0051
1781.00,0.0050
1780.00,0.0050
1779.00,0.0050
1778.00,0.0050
1777.00,0.0050
1776.00,0.0050
1775.00,0.0050
1774.00,0.0050
1773.00,0.0051
1772.00,0.0051
1771.00,0.0051
1770.00,0.0050
1769.00,0.0050
1768.00,0.0050
1767.00,0.0050
1766.00,0.0050
1765.00,0.0050
1764.00,0.0050
1763.00,0.0050
1762.00,0.0050
1761.00,0.0050
1760.00,0.0050
1759.00,0.0050
1758.00,0.0050
1757.00,0.0050
1756.00,0.0050
1755.00,0.0050
1754.00,0.0050
1753.00,0.0050
1752.00,0.0050
1751.00,0.0050
1750.00,0.0050
1749.00,0.0050
1748.00,0.0050
1747.00,0.0050
1746.00,0.0050
1745.00,0.0050
1744.00,0.0050
1743.00,0.0050
1742.00,0.0050
1741.00,0.0050
1740.00,0.0051
1739.00,0.0051
1738.00,0.0051
1737.00,0.0052
1736.00,0.0052
1735.00,0.0053
1734.00,0.0053
1733.00,0.0053
1732.00,0.0053
1731.00,0.0053
1730.00,0.0053
1729.00,0.0053
1728.00,0.0054
1727.00,0.0054
1726.00,0.0054
1725.00,0.0054
1724.00,0.0055
1723.00,0.0055
1722.00,0.0056
1721.00,0.0056
1720.00,0.0057
1719.00,0.0058
1718.00,0.0059
1717.00,0.0060
1716.00,0.0061
1715.00,0.0063
1714.00,0.0064
1713.00,0.0065
1712.00,0.0067
1711.00,0.0070
1710.00,0.0072
1709.00,0.0075
1708.00,0.0078
1707.00,0.0083
1706.00,0.0088
1705.00,0.0094
1704.00,0.0101
1703.00,0.0109
1702.00,0.0117
1701.00,0.0131
1700.00,0.0148
1699.00,0.0164
1698.00,0.0175
1697.00,0.0184
1696.00,0.0194
1695.00,0.0203
1694.00,0.0210
1693.00,0.0214
1692.00,0.0219
1691.00,0.0224
1690.00,0.0229
1689.00,0.0235
1688.00,0.0241
1687.00,0.0247
1686.00,0.0253
1685.00,0.0261
1684.00,0.0270
1683.00,0.0280
1682.00,0.0287
1681.00,0.0295
1680.00,0.0303
1679.00,0.0311
1678.00,0.0319
1677.00,0.0327
1676.00,0.0336
1675.00,0.0346
1674.00,0.0356
1673.00,0.0364
1672.00,0.0372
1671.00,0.0381
1670.00,0.0390
1669.00,0.0400
1668.00,0.0410
1667.00,0.0419
1666.00,0.0428
1665.00,0.0436
1664.00,0.0445
1663.00,0.0454
1662.00,0.0463
1661.00,0.0472
1660.00,0.0481
1659.00,0.0489
1658.00,0.0496
1657.00,0.0503
1656.00,0.0510
1655.00,0.0516
1654.00,0.0520
1653.00,0.0525
1652.00,0.0531
1651.00,0.0536
1650.00,0.0540
1649.00,0.0543
1648.00,0.0546
1647.00,0.0548
1646.00,0.0550
1645.00,0.0553
1644.00,0.0556
1643.00,0.0560
1642.00,0.0562
1641.00,0.0565
1640.00,0.0568
1639.00,0.0570
1638.00,0.0573
1637.00,0.0574
1636.00,0.0575
1635.00,0.0576
1634.00,0.0579
1633.00,0.0582
1632.00,0.0586
1631.00,0.0589
1630.00,0.0592
1629.00,0.0594
1628.00,0.0597
1627.00,0.0600
1626.00,0.0604
1625.00,0.0607
1624.00,0.0609
1623.00,0.0611
1622.00,0.0613
1621.00,0.0615
1620.00,0.0617
1619.00,0.0618
1618.00,0.0616
1617.00,0.0610
1616.00,0.0603
1615.00,0.0597
1614.00,0.0591
1613.00,0.0584
1612.00,0.0577
1611.00,0.0567
1610.00,0.0557
1609.00,0.0546
1608.00,0.0535
1607.00,0.0525
1606.00,0.0515
1605.00,0.0505
1604.00,0.0494
1603.00,0.0484
1602.00,0.0473
1601.00,0.0463
1600.00,0.0453
1599.00,0.0444
1598.00,0.0435
1597.00,0.0426
1596.00,0.0417
1595.00,0.0408
1594.00,0.0399
1593.00,0.0391
1592.00,0.0383
1591.00,0.0374
1590.00,0.0367
1589.00,0.0359
1588.00,0.0352
1587.00,0.0345
1586.00,0.0339
1585.00,0.0333
1584.00,0.0327
1583.00,0.0321
1582.00,0.0317
1581.00,0.0313
1580.00,0.0310
1579.00,0.0308
1578.00,0.0306
1577.00,0.0304
1576.00,0.0302
1575.00,0.0301
1574.00,0.0302
1573.00,0.0303
1572.00,0.0305
1571.00,0.0306
1570.00,0.0309
1569.00,0.0312
1568.00,0.0316
1567.00,0.0320
1566.00,0.0324
1565.00,0.0330
1564.00,0.0335
1563.00,0.0340
1562.00,0.0346
1561.00,0.0351
1560.00,0.0357
1559.00,0.0365
1558.00,0.0375
1557.00,0.0384
1556.00,0.0390
1555.00,0.0396
1554.00,0.0404
1553.00,0.0411
1552.00,0.0418
1551.00,0.0425
1550.00,0.0432
1549.00,0.0439
1548.00,0.0446
1547.00,0.0452
1546.00,0.0458
1545.00,0.0463
1544.00,0.0469
1543.00,0.0475
1542.00,0.0480
1541.00,0.0486
1540.00,0.0490
1539.00,0.0495
1538.00,0.0501
1537.00,0.0506
1536.00,0.0510
1535.00,0.0514
1534.00,0.0519
1533.00,0.0523
1532.00,0.0529
1531.00,0.0534
1530.00,0.0539
1529.00,0.0543
1528.00,0.0548
1527.00,0.0552
1526.00,0.0557
1525.00,0.0562
1524.00,0.0567
1523.00,0.0571
1522.00,0.0574
1521.00,0.0578
1520.00,0.0582
1519.00,0.0585
1518.00,0.0588
1517.00,0.0589
1516.00,0.0589
1515.00,0.0589
1514.00,0.0588
1513.00,0.0586
1512.00,0.0582
1511.00,0.0578
1510.00,0.0575
1509.00,0.0571
1508.00,0.0562
1507.00,0.0549
1506.00,0.0535
1505.00,0.0526
1504.00,0.0520
1503.00,0.0514
1502.00,0.0508
1501.00,0.0500
1500.00,0.0491
1499.00,0.0481
1498.00,0.0471
1497.00,0.0458
1496.00,0.0446
1495.00,0.0435
1494.00,0.0426
1493.00,0.0418
1492.00,0.0409
1491.00,0.0398
1490.00,0.0386
1489.00,0.0374
1488.00,0.0363
1487.00,0.0355
1486.00,0.0348
1485.00,0.0341
1484.00,0.0335
1483.00,0.0329
1482.00,0.0323
1481.00,0.0317
1480.00,0.0312
1479.00,0.0308
1478.00,0.0305
1477.00,0.0301
1476.00,0.0298
1475.00,0.0296
1474.00,0.0294
1473.00,0.0291
1472.00,0.0290
1471.00,0.0290
1470.00,0.0291
1469.00,0.0291
1468.00,0.0291
1467.00,0.0291
1466.00,0.0290
1465.00,0.0289
1464.00,0.0290
1463.00,0.0291
1462.00,0.0293
1461.00,0.0296
1460.00,0.0298
1459.00,0.0301
1458.00,0.0304
1457.00,0.0308
1456.00,0.0311
1455.00,0.0314
1454.00,0.0316
1453.00,0.0318
1452.00,0.0318
1451.00,0.0319
1450.00,0.0319
1449.00,0.0318
1448.00,0.0316
1447.00,0.0314
1446.00,0.0311
1445.00,0.0309
1444.00,0.0306
1443.00,0.0303
1442.00,0.0299
1441.00,0.0296
1440.00,0.0293
1439.00,0.0289
1438.00,0.0286
1437.00,0.0281
1436.00,0.0276
1435.00,0.0273
1434.00,0.0271
1433.00,0.0269
1432.00,0.0267
1431.00,0.0265
1430.00,0.0264
1429.00,0.0262
1428.00,0.0262
1427.00,0.0261
1426.00,0.0262
1425.00,0.0262
1424.00,0.0262
1423.00,0.0263
1422.00,0.0264
1421.00,0.0265
1420.00,0.0266
1419.00,0.0267
1418.00,0.0268
1417.00,0.0270
1416.00,0.0271
1415.00,0.0273
1414.00,0.0274
1413.00,0.0276
1412.00,0.0277
1411.00,0.0278
1410.00,0.0280
1409.00,0.0281
1408.00,0.0282
1407.00,0.0282
1406.00,0.0283
1405.00,0.0283
1404.00,0.0283
1403.00,0.0283
1402.00,0.0283
1401.00,0.0283
1400.00,0.0282
1399.00,0.0281
1398.00,0.0280
1397.00,0.0280
1396.00,0.0279
1395.00,0.0279
1394.00,0.0279
1393.00,0.0278
1392.00,0.0278
1391.00,0.0278
1390.00,0.0278
1389.00,0.0278
1388.00,0.0277
1387.00,0.0276
1386.00,0.0276
1385.00,0.0275
1384.00,0.0274
1383.00,0.0273
1382.00,0.0272
1381.00,0.0271
1380.00,0.0270
1379.00,0.0269
1378.00,0.0268
1377.00,0.0267
1376.00,0.0266
1375.00,0.0265
1374.00,0.0265
1373.00,0.0264
1372.00,0.0264
1371.00,0.0263
1370.00,0.0263
1369.00,0.0261
1368.00,0.0260
1367.00,0.0258
1366.00,0.0257
1365.00,0.0255
1364.00,0.0253
1363.00,0.0251
1362.00,0.0249
1361.00,0.0248
1360.00,0.0247
1359.00,0.0246
1358.00,0.0245
1357.00,0.0244
1356.00,0.0243
1355.00,0.0242
1354.00,0.0241
1353.00,0.0241
1352.00,0.0240
1351.00,0.0239
1350.00,0.0239
1349.00,0.0238
1348.00,0.0238
1347.00,0.0237
1346.00,0.0237
1345.00,0.0237
1344.00,0.0237
1343.00,0.0237
1342.00,0.0237
1341.00,0.0236
1340.00,0.0236
1339.00,0.0236
1338.00,0.0236
1337.00,0.0236
1336.00,0.0236
1335.00,0.0236
1334.00,0.0236
1333.00,0.0236
1332.00,0.0235
1331.00,0.0235
1330.00,0.0235
1329.00,0.0235
1328.00,0.0235
1327.00,0.0235
1326.00,0.0235
1325.00,0.0235
1324.00,0.0234
1323.00,0.0234
1322.00,0.0234
1321.00,0.0235
1320.00,0.0235
1319.00,0.0235
1318.00,0.0235
1317.00,0.0235
1316.00,0.0235
1315.00,0.0235
1314.00,0.0236
1313.00,0.0236
1312.00,0.0236
1311.00,0.0236
1310.00,0.0236
1309.00,0.0236
1308.00,0.0235
1307.00,0.0235
1306.00,0.0235
1305.00,0.0235
1304.00,0.0235
1303.00,0.0235
1302.00,0.0234
1301.00,0.0234
1300.00,0.0233
1299.00,0.0233
1298.00,0.0233
1297.00,0.0233
1296.00,0.0232
1295.00,0.0232
1294.00,0.0232
1293.00,0.0232
1292.00,0.0232
1291.00,0.0232
1290.00,0.0232
1289.00,0.0232
1288.00,0.0231
1287.00,0.0231
1286.00,0.0231
1285.00,0.0231
1284.00,0.0231
1283.00,0.0230
1282.00,0.0230
1281.00,0.0230
1280.00,0.0229
1279.00,0.0229
1278.00,0.0229
1277.00,0.0228
1276.00,0.0228
1275.00,0.0228
1274.00,0.0229
1273.00,0.0229
1272.00,0.0229
1271.00,0.0229
1270.00,0.0230
1269.00,0.0230
1268.00,0.0231
1267.00,0.0231
1266.00,0.0232
1265.00,0.0233
1264.00,0.0234
1263.00,0.0235
1262.00,0.0237
1261.00,0.0238
1260.00,0.0240
1259.00,0.0242
1258.00,0.0244
1257.00,0.0247
1256.00,0.0249
1255.00,0.0251
1254.00,0.0253
1253.00,0.0256
1252.00,0.0258
1251.00,0.0260
1250.00,0.0262
1249.00,0.0264
1248.00,0.0266
1247.00,0.0267
1246.00,0.0269
1245.00,0.0271
1244.00,0.0272
1243.00,0.0273
1242.00,0.0274
1241.00,0.0275
1240.00,0.0275
1239.00,0.0276
1238.00,0.0276
1237.00,0.0276
1236.00,0.0276
1235.00,0.0276
1234.00,0.0276
1233.00,0.0275
1232.00,0.0275
1231.00,0.0274
1230.00,0.0274
1229.00,0.0274
1228.00,0.0273
1227.00,0.0272
1226.00,0.0271
1225.00,0.0270
1224.00,0.0269
1223.00,0.0268
1222.00,0.0267
1221.00,0.0266
1220.00,0.0264
1219.00,0.0263
1218.00,0.0261
1217.00,0.0260
1216.00,0.0258
1215.00,0.0256
1214.00,0.0254
1213.00,0.0252
1212.00,0.0249
1211.00,0.0247
1210.00,0.0244
1209.00,0.0242
1208.00,0.0239
1207.00,0.0236
1206.00,0.0233
1205.00,0.0231
1204.00,0.0228
1203.00,0.0225
1202.00,0.0222
1201.00,0.0220
1200.00,0.0217
1199.00,0.0214
1198.00,0.0212
1197.00,0.0210
1196.00,0.0208
1195.00,0.0206
1194.00,0.0205
1193.00,0.0203
1192.00,0.0202
1191.00,0.0200
1190.00,0.0199
1189.00,0.0198
1188.00,0.0197
1187.00,0.0196
1186.00,0.0196
1185.00,0.0195
1184.00,0.0195
1183.00,0.0194
1182.00,0.0195
1181.00,0.0195
1180.00,0.0195
1179.00,0.0195
1178.00,0.0196
1177.00,0.0198
1176.00,0.0199
1175.00,0.0200
1174.00,0.0202
1173.00,0.0204
1172.00,0.0205
1171.00,0.0207
1170.00,0.0208
1169.00,0.0210
1168.00,0.0211
1167.00,0.0212
1166.00,0.0213
1165.00,0.0214
1164.00,0.0215
1163.00,0.0215
1162.00,0.0216
1161.00,0.0216
1160.00,0.0216
1159.00,0.0216
1158.00,0.0215
1157.00,0.0215
1156.00,0.0214
1155.00,0.0213
1154.00,0.0212
1153.00,0.0210
1152.00,0.0209
1151.00,0.0207
1150.00,0.0205
1149.00,0.0204
1148.00,0.0202
1147.00,0.0200
1146.00,0.0199
1145.00,0.0198
1144.00,0.0196
1143.00,0.0195
1142.00,0.0195
1141.00,0.0194
1140.00,0.0193
1139.00,0.0193
1138.00,0.0193
1137.00,0.0193
1136.00,0.0193
1135.00,0.0193
1134.00,0.0193
1133.00,0.0194
1132.00,0.0194
1131.00,0.0194
1130.00,0.0194
1129.00,0.0195
1128.00,0.0194
1127.00,0.0194
1126.00,0.0194
1125.00,0.0193
1124.00,0.0192
1123.00,0.0192
1122.00,0.0191
1121.00,0.0190
1120.00,0.0189
1119.00,0.0188
1118.00,0.0187
1117.00,0.0187
1116.00,0.0185
1115.00,0.0185
1114.00,0.0184
1113.00,0.0184
1112.00,0.0183
1111.00,0.0183
1110.00,0.0183
1109.00,0.0183
1108.00,0.0182
1107.00,0.0182
1106.00,0.0182
1105.00,0.0182
1104.00,0.0182
1103.00,0.0183
1102.00,0.0183
1101.00,0.0184
1100.00,0.0184
1099.00,0.0185
1098.00,0.0186
1097.00,0.0187
1096.00,0.0188
1095.00,0.0190
1094.00,0.0192
1093.00,0.0194
1092.00,0.0197
1091.00,0.0199
1090.00,0.0203
1089.00,0.0206
1088.00,0.0210
1087.00,0.0214
1086.00,0.0218
1085.00,0.0223
1084.00,0.0227
1083.00,0.0232
1082.00,0.0236
1081.00,0.0241
1080.00,0.0244
1079.00,0.0248
1078.00,0.0252
1077.00,0.0256
1076.00,0.0258
1075.00,0.0260
1074.00,0.0263
1073.00,0.0264
1072.00,0.0266
1071.00,0.0267
1070.00,0.0268
1069.00,0.0269
1068.00,0.0269
1067.00,0.0270
1066.00,0.0270
1065.00,0.0271
1064.00,0.0270
1063.00,0.0270
1062.00,0.0271
1061.00,0.0270
1060.00,0.0269
1059.00,0.0268
1058.00,0.0267
1057.00,0.0266
1056.00,0.0265
1055.00,0.0263
1054.00,0.0262
1053.00,0.0261
1052.00,0.0259
1051.00,0.0257
1050.00,0.0255
1049.00,0.0253
1048.00,0.0251
1047.00,0.0249
1046.00,0.0247
1045.00,0.0245
1044.00,0.0242
1043.00,0.0239
1042.00,0.0236
1041.00,0.0233
1040.00,0.0229
1039.00,0.0226
1038.00,0.0223
1037.00,0.0221
1036.00,0.0217
1035.00,0.0214
1034.00,0.0212
1033.00,0.0209
1032.00,0.0206
1031.00,0.0203
1030.00,0.0201
1029.00,0.0198
1028.00,0.0195
1027.00,0.0192
1026.00,0.0190
1025.00,0.0187
1024.00,0.0184
1023.00,0.0181
1022.00,0.0179
1021.00,0.0177
1020.00,0.0174
1019.00,0.0172
1018.00,0.0170
1017.00,0.0168
1016.00,0.0166
1015.00,0.0164
1014.00,0.0162
1013.00,0.0160
1012.00,0.0158
1011.00,0.0156
1010.00,0.0155
1009.00,0.0154
1008.00,0.0153
1007.00,0.0151
1006.00,0.0150
1005.00,0.0149
1004.00,0.0148
1003.00,0.0147
1002.00,0.0146
1001.00,0.0145
1000.00,0.0144
999.00,0.0144
998.00,0.0143
997.00,0.0143
996.00,0.0142
995.00,0.0141
994.00,0.0141
993.00,0.0140
992.00,0.0140
991.00,0.0139
990.00,0.0139
989.00,0.0139
988.00,0.0138
987.00,0.0137
986.00,0.0137
985.00,0.0137
984.00,0.0136
983.00,0.0136
982.00,0.0136
981.00,0.0136
980.00,0.0135
979.00,0.0136
978.00,0.0136
977.00,0.0136
976.00,0.0136
975.00,0.0137
974.00,0.0137
973.00,0.0138
972.00,0.0138
971.00,0.0139
970.00,0.0140
969.00,0.0141
968.00,0.0142
967.00,0.0143
966.00,0.0145
965.00,0.0146
964.00,0.0147
963.00,0.0147
962.00,0.0148
961.00,0.0149
960.00,0.0148
959.00,0.0148
958.00,0.0148
957.00,0.0147
956.00,0.0146
955.00,0.0146
954.00,0.0145
953.00,0.0145
952.00,0.0144
951.00,0.0143
950.00,0.0143
949.00,0.0143
948.00,0.0142
947.00,0.0142
946.00,0.0142
945.00,0.0142
944.00,0.0141
943.00,0.0141
942.00,0.0141
941.00,0.0140
940.00,0.0140
939.00,0.0140
938.00,0.0140
937.00,0.0140
936.00,0.0140
935.00,0.0141
934.00,0.0141
933.00,0.0141
932.00,0.0141
931.00,0.0141
930.00,0.0141
929.00,0.0141
928.00,0.0140
927.00,0.0140
926.00,0.0140
925.00,0.0139
924.00,0.0138
923.00,0.0138
922.00,0.0138
921.00,0.0137
920.00,0.0136
919.00,0.0136
918.00,0.0135
917.00,0.0135
916.00,0.0134
915.00,0.0133
914.00,0.0133
913.00,0.0134
912.00,0.0133
911.00,0.0134
910.00,0.0135
909.00,0.0135
908.00,0.0135
907.00,0.0136
906.00,0.0136
905.00,0.0137
904.00,0.0137
903.00,0.0137
902.00,0.0138
901.00,0.0138
900.00,0.0138
899.00,0.0138
898.00,0.0138
897.00,0.0138
896.00,0.0137
895.00,0.0136
894.00,0.0136
893.00,0.0136
892.00,0.0135
891.00,0.0134
890.00,0.0133
889.00,0.0133
888.00,0.0132
887.00,0.0131
886.00,0.0130
885.00,0.0130
884.00,0.0129
883.00,0.0129
882.00,0.0129
881.00,0.0129
880.00,0.0129
879.00,0.0129
878.00,0.0129
877.00,0.0129
876.00,0.0128
875.00,0.0128
874.00,0.0128
873.00,0.0128
872.00,0.0128
871.00,0.0128
870.00,0.0128
869.00,0.0129
868.00,0.0128
867.00,0.0128
866.00,0.0128
865.00,0.0128
864.00,0.0127
863.00,0.0127
862.00,0.0127
861.00,0.0127
860.00,0.0127
859.00,0.0127
858.00,0.0128
857.00,0.0128
856.00,0.0128
855.00,0.0128
854.00,0.0129
853.00,0.0130
852.00,0.0130
851.00,0.0130
850.00,0.0130
849.00,0.0131
848.00,0.0131
847.00,0.0131
846.00,0.0132
845.00,0.0132
844.00,0.0133
843.00,0.0134
842.00,0.0135
841.00,0.0136
840.00,0.0137
839.00,0.0137
838.00,0.0139
837.00,0.0140
836.00,0.0141
835.00,0.0142
834.00,0.0144
833.00,0.0146
832.00,0.0147
831.00,0.0148
830.00,0.0150
829.00,0.0151
828.00,0.0152
827.00,0.0153
826.00,0.0154
825.00,0.0155
824.00,0.0155
823.00,0.0156
822.00,0.0157
821.00,0.0158
820.00,0.0159
819.00,0.0159
818.00,0.0161
817.00,0.0162
816.00,0.0163
815.00,0.0163
814.00,0.0165
813.00,0.0166
812.00,0.0167
811.00,0.0168
810.00,0.0170
809.00,0.0171
808.00,0.0171
807.00,0.0172
806.00,0.0173
805.00,0.0174
804.00,0.0174
803.00,0.0175
802.00,0.0177
801.00,0.0178
800.00,0.0178
799.00,0.0179
798.00,0.0180
797.00,0.0181
796.00,0.0181
795.00,0.0182
794.00,0.0184
793.00,0.0186
792.00,0.0187
791.00,0.0189
790.00,0.0191
789.00,0.0193
788.00,0.0194
787.00,0.0196
786.00,0.0198
785.00,0.0199
784.00,0.0201
783.00,0.0202
782.00,0.0205
781.00,0.0207
780.00,0.0208
779.00,0.0209
778.00,0.0212
777.00,0.0214
776.00,0.0215
775.00,0.0217
774.00,0.0218
773.00,0.0220
772.00,0.0220
771.00,0.0221
770.00,0.0223
769.00,0.0224
768.00,0.0225
767.00,0.0225
766.00,0.0227
765.00,0.0228
764.00,0.0228
763.00,0.0228
762.00,0.0230
761.00,0.0230
760.00,0.0231
759.00,0.0231
758.00,0.0233
757.00,0.0234
756.00,0.0235
755.00,0.0236
754.00,0.0238
753.00,0.0240
752.00,0.0241
751.00,0.0242
750.00,0.0245
749.00,0.0246
748.00,0.0247
747.00,0.0247
746.00,0.0249
745.00,0.0250
744.00,0.0250
743.00,0.0251
742.00,0.0252
741.00,0.0253
740.00,0.0253
739.00,0.0254
738.00,0.0255
737.00,0.0257
736.00,0.0258
735.00,0.0259
734.00,0.0261
733.00,0.0263
732.00,0.0265
731.00,0.0267
730.00,0.0270
729.00,0.0273
728.00,0.0276
727.00,0.0279
726.00,0.0284
725.00,0.0288
724.00,0.0291
723.00,0.0295
722.00,0.0300
721.00,0.0304
720.00,0.0308
719.00,0.0312
718.00,0.0317
717.00,0.0322
716.00,0.0326
715.00,0.0331
714.00,0.0336
713.00,0.0340
712.00,0.0344
711.00,0.0348
710.00,0.0353
709.00,0.0358
708.00,0.0361
707.00,0.0365
706.00,0.0370
705.00,0.0374
704.00,0.0377
703.00,0.0380
702.00,0.0383
701.00,0.0386
700.00,0.0387
699.00,0.0388
698.00,0.0389
697.00,0.0390
696.00,0.0389
695.00,0.0389
694.00,0.0389
693.00,0.0389
692.00,0.0388
691.00,0.0388
690.00,0.0389
689.00,0.0390
688.00,0.0390
687.00,0.0390
686.00,0.0391
685.00,0.0392
684.00,0.0391
683.00,0.0391
682.00,0.0393
681.00,0.0393
680.00,0.0393
679.00,0.0393
678.00,0.0394
677.00,0.0394
676.00,0.0394
675.00,0.0394
674.00,0.0395
673.00,0.0395
672.00,0.0395
671.00,0.0396
670.00,0.0397
669.00,0.0399
668.00,0.0400
667.00,0.0400
666.00,0.0400
665.00,0.0399
664.00,0.0399
663.00,0.0399
662.00,0.0400
661.00,0.0401
660.00,0.0401
659.00,0.0401
658.00,0.0403
657.00,0.0403
656.00,0.0403
655.00,0.0404
654.00,0.0405
653.00,0.0406
652.00,0.0406
651.00,0.0407
650.00,0.0408
649.00,0.0409
648.00,0.0410
647.00,0.0411
646.00,0.0413
645.00,0.0415
644.00,0.0416
643.00,0.0417
642.00,0.0419
641.00,0.0420
640.00,0.0421
639.00,0.0422
638.00,0.0424
637.00,0.0426
636.00,0.0427
635.00,0.0428
634.00,0.0429
633.00,0.0431
632.00,0.0432
631.00,0.0432
630.00,0.0434
629.00,0.0436
628.00,0.0436
627.00,0.0436
626.00,0.0436
625.00,0.0437
624.00,0.0436
623.00,0.0435
622.00,0.0436
621.00,0.0436
620.00,0.0435
619.00,0.0433
618.00,0.0433
617.00,0.0432
616.00,0.0430
615.00,0.0428
614.00,0.0428
613.00,0.0427
612.00,0.0424
611.00,0.0423
610.00,0.0422
609.00,0.0422
608.00,0.0421
607.00,0.0420
606.00,0.0421
605.00,0.0421
604.00,0.0419
603.00,0.0418
602.00,0.0419
601.00,0.0419
600.00,0.0418
599.00,0.0416
598.00,0.0416
597.00,0.0417
596.00,0.0416
595.00,0.0416
594.00,0.0417
593.00,0.0418
592.00,0.0417
591.00,0.0416
590.00,0.0416
589.00,0.0417
588.00,0.0416
587.00,0.0417
586.00,0.0418
585.00,0.0419
584.00,0.0419
583.00,0.0418
582.00,0.0420
581.00,0.0421
580.00,0.0420
579.00,0.0420
578.00,0.0422
577.00,0.0423
576.00,0.0423
575.00,0.0422
574.00,0.0424
573.00,0.0424
572.00,0.0424
571.00,0.0423
570.00,0.0425
569.00,0.0426
568.00,0.0425
567.00,0.0425
566.00,0.0426
565.00,0.0427
564.00,0.0427
563.00,0.0426
562.00,0.0428
561.00,0.0429
560.00,0.0429
559.00,0.0429
558.00,0.0430
557.00,0.0431
556.00,0.0429
555.00,0.0429
554.00,0.0430
553.00,0.0430
552.00,0.0429
551.00,0.0429
550.00,0.0431
549.00,0.0432
548.00,0.0431
547.00,0.0430
546.00,0.0431
545.00,0.0432
544.00,0.0430
543.00,0.0430
542.00,0.0432
541.00,0.0433
540.00,0.0431
539.00,0.0430
538.00,0.0431
537.00,0.0433
536.00,0.0432
535.00,0.0431
534.00,0.0433
533.00,0.0435
532.00,0.0434
531.00,0.0434
530.00,0.0436
529.00,0.0437
528.00,0.0436
527.00,0.0435
526.00,0.0437
525.00,0.0438
524.00,0.0436
523.00,0.0435
522.00,0.0437
521.00,0.0438
520.00,0.0437
519.00,0.0436
518.00,0.0438
517.00,0.0439
516.00,0.0436
515.00,0.0435
514.00,0.0435
513.00,0.0435
512.00,0.0433
511.00,0.0431
510.00,0.0432
509.00,0.0432
508.00,0.0430
507.00,0.0429
506.00,0.0431
505.00,0.0431
504.00,0.0429
503.00,0.0427
502.00,0.0428
501.00,0.0429
500.00,0.0427
499.00,0.0426
498.00,0.0429
497.00,0.0430
496.00,0.0429
495.00,0.0428
494.00,0.0429
493.00,0.0429
492.00,0.0426
491.00,0.0424
490.00,0.0425
489.00,0.0427
488.00,0.0425
487.00,0.0424
486.00,0.0426
485.00,0.0427
484.00,0.0424
483.00,0.0422
482.00,0.0425
481.00,0.0427
480.00,0.0426
479.00,0.0424
478.00,0.0426
477.00,0.0427
476.00,0.0424
475.00,0.0421
474.00,0.0423
473.00,0.0424
472.00,0.0422
471.00,0.0421
470.00,0.0425
469.00,0.0428
468.00,0.0426
467.00,0.0423
466.00,0.0425
465.00,0.0426
464.00,0.0423
463.00,0.0421
462.00,0.0424
461.00,0.0426
460.00,0.0422
459.00,0.0418
458.00,0.0419
457.00,0.0419
456.00,0.0416
455.00,0.0414
454.00,0.0417
453.00,0.0419
452.00,0.0417
451.00,0.0414
450.00,0.0417
449.00,0.0417
448.00,0.0412
447.00,0.0407
446.00,0.0407
445.00,0.0407
444.00,0.0402
443.00,0.0397
442.00,0.0397
441.00,0.0397
440.00,0.0391
439.00,0.0387
438.00,0.0388
437.00,0.0389
436.00,0.0383
435.00,0.0377
434.00,0.0378
433.00,0.0378
432.00,0.0372
431.00,0.0366
430.00,0.0367
429.00,0.0368
428.00,0.0363
427.00,0.0360
426.00,0.0365
425.00,0.0368
424.00,0.0364
423.00,0.0360
422.00,0.0363
421.00,0.0364
420.00,0.0355
419.00,0.0347
418.00,0.0352
417.00,0.0355
416.00,0.0348
415.00,0.0345
414.00,0.0354
413.00,0.0361
412.00,0.0356
411.00,0.0351
410.00,0.0355
409.00,0.0358
408.00,0.0348
407.00,0.0340
406.00,0.0347
405.00,0.0352
404.00,0.0343
403.00,0.0334
402.00,0.0341
401.00,0.0344
400.00,0.0328
