Created as New Dataset,Sample 310 By YargerLab Date Sunday, August 18 2024
cm-1,A
4000.00,0.0065
3999.00,0.0065
3998.00,0.0065
3997.00,0.0065
3996.00,0.0065
3995.00,0.0065
3994.00,0.0065
3993.00,0.0065
3992.00,0.0065
3991.00,0.0065
3990.00,0.0065
3989.00,0.0065
3988.00,0.0066
3987.00,0.0066
3986.00,0.0065
3985.00,0.0065
3984.00,0.0065
3983.00,0.0065
3982.00,0.0065
3981.00,0.0065
3980.00,0.0065
3979.00,0.0065
3978.00,0.0065
3977.00,0.0065
3976.00,0.0065
3975.00,0.0065
3974.00,0.0065
3973.00,0.0065
3972.00,0.0065
3971.00,0.0065
3970.00,0.0065
3969.00,0.0065
3968.00,0.0065
3967.00,0.0065
3966.00,0.0065
3965.00,0.0065
3964.00,0.0065
3963.00,0.0065
3962.00,0.0065
3961.00,0.0065
3960.00,0.0065
3959.00,0.0065
3958.00,0.0065
3957.00,0.0065
3956.00,0.0065
3955.00,0.0065
3954.00,0.0065
3953.00,0.0065
3952.00,0.0065
3951.00,0.0065
3950.00,0.0065
3949.00,0.0065
3948.00,0.0065
3947.00,0.0065
3946.00,0.0065
3945.00,0.0065
3944.00,0.0065
3943.00,0.0065
3942.00,0.0065
3941.00,0.0065
3940.00,0.0065
3939.00,0.0065
3938.00,0.0065
3937.00,0.0065
3936.00,0.0065
3935.00,0.0065
3934.00,0.0065
3933.00,0.0065
3932.00,0.0065
3931.00,0.0065
3930.00,0.0065
3929.00,0.0065
3928.00,0.0065
3927.00,0.0065
3926.00,0.0065
3925.00,0.0065
3924.00,0.0065
3923.00,0.0065
3922.00,0.0065
3921.00,0.0065
3920.00,0.0065
3919.00,0.0065
3918.00,0.0065
3917.00,0.0065
3916.00,0.0065
3915.00,0.0065
3914.00,0.0065
3913.00,0.0064
3912.00,0.0065
3911.00,0.0065
3910.00,0.0065
3909.00,0.0065
3908.00,0.0065
3907.00,0.0065
3906.00,0.0065
3905.00,0.0065
3904.00,0.0065
3903.00,0.0065
3902.00,0.0065
3901.00,0.0065
3900.00,0.0065
3899.00,0.0065
3898.00,0.0065
3897.00,0.0065
3896.00,0.0065
3895.00,0.0065
3894.00,0.0065
3893.00,0.0065
3892.00,0.0065
3891.00,0.0065
3890.00,0.0065
3889.00,0.0065
3888.00,0.0065
3887.00,0.0065
3886.00,0.0065
3885.00,0.0064
3884.00,0.0064
3883.00,0.0064
3882.00,0.0064
3881.00,0.0064
3880.00,0.0064
3879.00,0.0064
3878.00,0.0064
3877.00,0.0064
3876.00,0.0064
3875.00,0.0064
3874.00,0.0064
3873.00,0.0064
3872.00,0.0064
3871.00,0.0064
3870.00,0.0064
3869.00,0.0064
3868.00,0.0064
3867.00,0.0064
3866.00,0.0064
3865.00,0.0064
3864.00,0.0064
3863.00,0.0064
3862.00,0.0064
3861.00,0.0064
3860.00,0.0064
3859.00,0.0064
3858.00,0.0064
3857.00,0.0063
3856.00,0.0063
3855.00,0.0063
3854.00,0.0063
3853.00,0.0063
3852.00,0.0063
3851.00,0.0063
3850.00,0.0063
3849.00,0.0063
3848.00,0.0064
3847.00,0.0064
3846.00,0.0064
3845.00,0.0064
3844.00,0.0064
3843.00,0.0064
3842.00,0.0063
3841.00,0.0063
3840.00,0.0063
3839.00,0.0063
3838.00,0.0063
3837.00,0.0063
3836.00,0.0063
3835.00,0.0063
3834.00,0.0063
3833.00,0.0063
3832.00,0.0063
3831.00,0.0063
3830.00,0.0063
3829.00,0.0063
3828.00,0.0063
3827.00,0.0063
3826.00,0.0063
3825.00,0.0063
3824.00,0.0063
3823.00,0.0063
3822.00,0.0063
3821.00,0.0063
3820.00,0.0063
3819.00,0.0063
3818.00,0.0062
3817.00,0.0062
3816.00,0.0062
3815.00,0.0062
3814.00,0.0062
3813.00,0.0062
3812.00,0.0062
3811.00,0.0063
3810.00,0.0063
3809.00,0.0063
3808.00,0.0063
3807.00,0.0063
3806.00,0.0063
3805.00,0.0062
3804.00,0.0062
3803.00,0.0062
3802.00,0.0062
3801.00,0.0062
3800.00,0.0062
3799.00,0.0062
3798.00,0.0062
3797.00,0.0062
3796.00,0.0062
3795.00,0.0062
3794.00,0.0062
3793.00,0.0062
3792.00,0.0062
3791.00,0.0062
3790.00,0.0062
3789.00,0.0062
3788.00,0.0062
3787.00,0.0062
3786.00,0.0062
3785.00,0.0062
3784.00,0.0062
3783.00,0.0062
3782.00,0.0062
3781.00,0.0062
3780.00,0.0062
3779.00,0.0062
3778.00,0.0062
3777.00,0.0062
3776.00,0.0062
3775.00,0.0062
3774.00,0.0062
3773.00,0.0062
3772.00,0.0062
3771.00,0.0062
3770.00,0.0062
3769.00,0.0062
3768.00,0.0062
3767.00,0.0062
3766.00,0.0062
3765.00,0.0062
3764.00,0.0062
3763.00,0.0062
3762.00,0.0062
3761.00,0.0062
3760.00,0.0062
3759.00,0.0062
3758.00,0.0062
3757.00,0.0062
3756.00,0.0062
3755.00,0.0062
3754.00,0.0062
3753.00,0.0062
3752.00,0.0062
3751.00,0.0062
3750.00,0.0062
3749.00,0.0062
3748.00,0.0062
3747.00,0.0062
3746.00,0.0062
3745.00,0.0061
3744.00,0.0061
3743.00,0.0061
3742.00,0.0061
3741.00,0.0061
3740.00,0.0061
3739.00,0.0061
3738.00,0.0061
3737.00,0.0061
3736.00,0.0061
3735.00,0.0061
3734.00,0.0061
3733.00,0.0061
3732.00,0.0060
3731.00,0.0060
3730.00,0.0060
3729.00,0.0060
3728.00,0.0061
3727.00,0.0061
3726.00,0.0061
3725.00,0.0061
3724.00,0.0061
3723.00,0.0060
3722.00,0.0060
3721.00,0.0060
3720.00,0.0060
3719.00,0.0060
3718.00,0.0059
3717.00,0.0059
3716.00,0.0059
3715.00,0.0060
3714.00,0.0060
3713.00,0.0059
3712.00,0.0059
3711.00,0.0059
3710.00,0.0059
3709.00,0.0059
3708.00,0.0059
3707.00,0.0059
3706.00,0.0059
3705.00,0.0059
3704.00,0.0059
3703.00,0.0058
3702.00,0.0058
3701.00,0.0058
3700.00,0.0058
3699.00,0.0058
3698.00,0.0058
3697.00,0.0058
3696.00,0.0058
3695.00,0.0058
3694.00,0.0058
3693.00,0.0058
3692.00,0.0058
3691.00,0.0058
3690.00,0.0057
3689.00,0.0057
3688.00,0.0057
3687.00,0.0057
3686.00,0.0058
3685.00,0.0058
3684.00,0.0058
3683.00,0.0058
3682.00,0.0059
3681.00,0.0059
3680.00,0.0059
3679.00,0.0059
3678.00,0.0059
3677.00,0.0059
3676.00,0.0059
3675.00,0.0058
3674.00,0.0058
3673.00,0.0058
3672.00,0.0058
3671.00,0.0058
3670.00,0.0058
3669.00,0.0058
3668.00,0.0059
3667.00,0.0059
3666.00,0.0059
3665.00,0.0059
3664.00,0.0059
3663.00,0.0059
3662.00,0.0059
3661.00,0.0059
3660.00,0.0059
3659.00,0.0059
3658.00,0.0059
3657.00,0.0059
3656.00,0.0059
3655.00,0.0060
3654.00,0.0060
3653.00,0.0060
3652.00,0.0060
3651.00,0.0060
3650.00,0.0060
3649.00,0.0061
3648.00,0.0061
3647.00,0.0061
3646.00,0.0061
3645.00,0.0061
3644.00,0.0061
3643.00,0.0061
3642.00,0.0061
3641.00,0.0061
3640.00,0.0061
3639.00,0.0061
3638.00,0.0061
3637.00,0.0061
3636.00,0.0062
3635.00,0.0062
3634.00,0.0062
3633.00,0.0062
3632.00,0.0062
3631.00,0.0062
3630.00,0.0063
3629.00,0.0063
3628.00,0.0063
3627.00,0.0063
3626.00,0.0063
3625.00,0.0063
3624.00,0.0064
3623.00,0.0064
3622.00,0.0064
3621.00,0.0064
3620.00,0.0064
3619.00,0.0064
3618.00,0.0065
3617.00,0.0065
3616.00,0.0065
3615.00,0.0066
3614.00,0.0066
3613.00,0.0066
3612.00,0.0067
3611.00,0.0067
3610.00,0.0067
3609.00,0.0067
3608.00,0.0067
3607.00,0.0067
3606.00,0.0067
3605.00,0.0067
3604.00,0.0067
3603.00,0.0067
3602.00,0.0067
3601.00,0.0067
3600.00,0.0068
3599.00,0.0068
3598.00,0.0068
3597.00,0.0068
3596.00,0.0069
3595.00,0.0069
3594.00,0.0069
3593.00,0.0069
3592.00,0.0070
3591.00,0.0070
3590.00,0.0070
3589.00,0.0070
3588.00,0.0070
3587.00,0.0070
3586.00,0.0071
3585.00,0.0071
3584.00,0.0071
3583.00,0.0071
3582.00,0.0071
3581.00,0.0072
3580.00,0.0072
3579.00,0.0072
3578.00,0.0072
3577.00,0.0072
3576.00,0.0073
3575.00,0.0073
3574.00,0.0073
3573.00,0.0073
3572.00,0.0074
3571.00,0.0074
3570.00,0.0075
3569.00,0.0075
3568.00,0.0075
3567.00,0.0076
3566.00,0.0076
3565.00,0.0076
3564.00,0.0077
3563.00,0.0077
3562.00,0.0077
3561.00,0.0077
3560.00,0.0077
3559.00,0.0077
3558.00,0.0078
3557.00,0.0078
3556.00,0.0079
3555.00,0.0079
3554.00,0.0079
3553.00,0.0080
3552.00,0.0080
3551.00,0.0080
3550.00,0.0081
3549.00,0.0081
3548.00,0.0082
3547.00,0.0082
3546.00,0.0082
3545.00,0.0083
3544.00,0.0083
3543.00,0.0083
3542.00,0.0083
3541.00,0.0083
3540.00,0.0083
3539.00,0.0084
3538.00,0.0084
3537.00,0.0084
3536.00,0.0085
3535.00,0.0085
3534.00,0.0085
3533.00,0.0085
3532.00,0.0086
3531.00,0.0086
3530.00,0.0086
3529.00,0.0087
3528.00,0.0087
3527.00,0.0088
3526.00,0.0088
3525.00,0.0088
3524.00,0.0089
3523.00,0.0089
3522.00,0.0089
3521.00,0.0089
3520.00,0.0089
3519.00,0.0089
3518.00,0.0090
3517.00,0.0090
3516.00,0.0090
3515.00,0.0091
3514.00,0.0091
3513.00,0.0091
3512.00,0.0092
3511.00,0.0092
3510.00,0.0092
3509.00,0.0092
3508.00,0.0093
3507.00,0.0093
3506.00,0.0093
3505.00,0.0094
3504.00,0.0094
3503.00,0.0095
3502.00,0.0095
3501.00,0.0095
3500.00,0.0096
3499.00,0.0096
3498.00,0.0096
3497.00,0.0096
3496.00,0.0097
3495.00,0.0097
3494.00,0.0097
3493.00,0.0097
3492.00,0.0098
3491.00,0.0098
3490.00,0.0098
3489.00,0.0099
3488.00,0.0099
3487.00,0.0100
3486.00,0.0100
3485.00,0.0100
3484.00,0.0101
3483.00,0.0101
3482.00,0.0101
3481.00,0.0101
3480.00,0.0101
3479.00,0.0102
3478.00,0.0102
3477.00,0.0102
3476.00,0.0102
3475.00,0.0103
3474.00,0.0103
3473.00,0.0104
3472.00,0.0104
3471.00,0.0105
3470.00,0.0105
3469.00,0.0105
3468.00,0.0106
3467.00,0.0106
3466.00,0.0106
3465.00,0.0106
3464.00,0.0107
3463.00,0.0107
3462.00,0.0107
3461.00,0.0108
3460.00,0.0108
3459.00,0.0109
3458.00,0.0109
3457.00,0.0109
3456.00,0.0109
3455.00,0.0109
3454.00,0.0109
3453.00,0.0110
3452.00,0.0110
3451.00,0.0110
3450.00,0.0111
3449.00,0.0111
3448.00,0.0111
3447.00,0.0112
3446.00,0.0112
3445.00,0.0113
3444.00,0.0113
3443.00,0.0113
3442.00,0.0114
3441.00,0.0114
3440.00,0.0115
3439.00,0.0115
3438.00,0.0115
3437.00,0.0116
3436.00,0.0116
3435.00,0.0116
3434.00,0.0117
3433.00,0.0117
3432.00,0.0117
3431.00,0.0117
3430.00,0.0118
3429.00,0.0118
3428.00,0.0118
3427.00,0.0119
3426.00,0.0119
3425.00,0.0119
3424.00,0.0120
3423.00,0.0120
3422.00,0.0121
3421.00,0.0121
3420.00,0.0121
3419.00,0.0121
3418.00,0.0122
3417.00,0.0122
3416.00,0.0122
3415.00,0.0123
3414.00,0.0123
3413.00,0.0123
3412.00,0.0123
3411.00,0.0124
3410.00,0.0124
3409.00,0.0124
3408.00,0.0125
3407.00,0.0125
3406.00,0.0125
3405.00,0.0126
3404.00,0.0126
3403.00,0.0126
3402.00,0.0127
3401.00,0.0127
3400.00,0.0127
3399.00,0.0127
3398.00,0.0128
3397.00,0.0128
3396.00,0.0128
3395.00,0.0128
3394.00,0.0128
3393.00,0.0129
3392.00,0.0129
3391.00,0.0129
3390.00,0.0130
3389.00,0.0130
3388.00,0.0130
3387.00,0.0130
3386.00,0.0131
3385.00,0.0131
3384.00,0.0131
3383.00,0.0132
3382.00,0.0132
3381.00,0.0132
3380.00,0.0133
3379.00,0.0133
3378.00,0.0134
3377.00,0.0134
3376.00,0.0134
3375.00,0.0135
3374.00,0.0135
3373.00,0.0135
3372.00,0.0135
3371.00,0.0136
3370.00,0.0136
3369.00,0.0137
3368.00,0.0137
3367.00,0.0137
3366.00,0.0138
3365.00,0.0138
3364.00,0.0138
3363.00,0.0139
3362.00,0.0139
3361.00,0.0140
3360.00,0.0140
3359.00,0.0141
3358.00,0.0141
3357.00,0.0142
3356.00,0.0142
3355.00,0.0143
3354.00,0.0143
3353.00,0.0144
3352.00,0.0144
3351.00,0.0145
3350.00,0.0145
3349.00,0.0146
3348.00,0.0146
3347.00,0.0147
3346.00,0.0147
3345.00,0.0148
3344.00,0.0148
3343.00,0.0149
3342.00,0.0150
3341.00,0.0150
3340.00,0.0151
3339.00,0.0152
3338.00,0.0152
3337.00,0.0153
3336.00,0.0154
3335.00,0.0154
3334.00,0.0155
3333.00,0.0156
3332.00,0.0157
3331.00,0.0157
3330.00,0.0158
3329.00,0.0159
3328.00,0.0160
3327.00,0.0160
3326.00,0.0161
3325.00,0.0162
3324.00,0.0163
3323.00,0.0164
3322.00,0.0165
3321.00,0.0166
3320.00,0.0167
3319.00,0.0168
3318.00,0.0169
3317.00,0.0170
3316.00,0.0171
3315.00,0.0172
3314.00,0.0173
3313.00,0.0174
3312.00,0.0175
3311.00,0.0176
3310.00,0.0177
3309.00,0.0178
3308.00,0.0179
3307.00,0.0181
3306.00,0.0182
3305.00,0.0183
3304.00,0.0185
3303.00,0.0186
3302.00,0.0187
3301.00,0.0189
3300.00,0.0190
3299.00,0.0191
3298.00,0.0192
3297.00,0.0194
3296.00,0.0195
3295.00,0.0196
3294.00,0.0197
3293.00,0.0199
3292.00,0.0200
3291.00,0.0201
3290.00,0.0203
3289.00,0.0204
3288.00,0.0205
3287.00,0.0206
3286.00,0.0207
3285.00,0.0208
3284.00,0.0209
3283.00,0.0210
3282.00,0.0211
3281.00,0.0212
3280.00,0.0213
3279.00,0.0213
3278.00,0.0214
3277.00,0.0214
3276.00,0.0215
3275.00,0.0215
3274.00,0.0215
3273.00,0.0215
3272.00,0.0215
3271.00,0.0215
3270.00,0.0215
3269.00,0.0214
3268.00,0.0214
3267.00,0.0214
3266.00,0.0213
3265.00,0.0213
3264.00,0.0212
3263.00,0.0211
3262.00,0.0210
3261.00,0.0210
3260.00,0.0209
3259.00,0.0208
3258.00,0.0206
3257.00,0.0205
3256.00,0.0204
3255.00,0.0204
3254.00,0.0203
3253.00,0.0202
3252.00,0.0201
3251.00,0.0200
3250.00,0.0198
3249.00,0.0197
3248.00,0.0196
3247.00,0.0195
3246.00,0.0194
3245.00,0.0193
3244.00,0.0192
3243.00,0.0191
3242.00,0.0190
3241.00,0.0189
3240.00,0.0188
3239.00,0.0187
3238.00,0.0186
3237.00,0.0186
3236.00,0.0185
3235.00,0.0184
3234.00,0.0183
3233.00,0.0182
3232.00,0.0181
3231.00,0.0181
3230.00,0.0180
3229.00,0.0180
3228.00,0.0179
3227.00,0.0178
3226.00,0.0178
3225.00,0.0177
3224.00,0.0176
3223.00,0.0176
3222.00,0.0175
3221.00,0.0175
3220.00,0.0174
3219.00,0.0173
3218.00,0.0173
3217.00,0.0173
3216.00,0.0172
3215.00,0.0172
3214.00,0.0171
3213.00,0.0171
3212.00,0.0170
3211.00,0.0170
3210.00,0.0169
3209.00,0.0169
3208.00,0.0168
3207.00,0.0168
3206.00,0.0167
3205.00,0.0167
3204.00,0.0166
3203.00,0.0165
3202.00,0.0165
3201.00,0.0164
3200.00,0.0164
3199.00,0.0163
3198.00,0.0163
3197.00,0.0162
3196.00,0.0162
3195.00,0.0161
3194.00,0.0161
3193.00,0.0160
3192.00,0.0160
3191.00,0.0159
3190.00,0.0159
3189.00,0.0158
3188.00,0.0158
3187.00,0.0157
3186.00,0.0157
3185.00,0.0156
3184.00,0.0156
3183.00,0.0155
3182.00,0.0155
3181.00,0.0154
3180.00,0.0154
3179.00,0.0153
3178.00,0.0153
3177.00,0.0152
3176.00,0.0152
3175.00,0.0151
3174.00,0.0151
3173.00,0.0150
3172.00,0.0149
3171.00,0.0149
3170.00,0.0148
3169.00,0.0148
3168.00,0.0148
3167.00,0.0147
3166.00,0.0146
3165.00,0.0146
3164.00,0.0145
3163.00,0.0145
3162.00,0.0144
3161.00,0.0144
3160.00,0.0143
3159.00,0.0143
3158.00,0.0142
3157.00,0.0142
3156.00,0.0142
3155.00,0.0141
3154.00,0.0140
3153.00,0.0140
3152.00,0.0140
3151.00,0.0139
3150.00,0.0139
3149.00,0.0138
3148.00,0.0138
3147.00,0.0137
3146.00,0.0137
3145.00,0.0136
3144.00,0.0136
3143.00,0.0136
3142.00,0.0135
3141.00,0.0135
3140.00,0.0134
3139.00,0.0134
3138.00,0.0134
3137.00,0.0133
3136.00,0.0133
3135.00,0.0133
3134.00,0.0132
3133.00,0.0132
3132.00,0.0131
3131.00,0.0131
3130.00,0.0131
3129.00,0.0131
3128.00,0.0131
3127.00,0.0130
3126.00,0.0130
3125.00,0.0130
3124.00,0.0129
3123.00,0.0129
3122.00,0.0129
3121.00,0.0128
3120.00,0.0128
3119.00,0.0128
3118.00,0.0128
3117.00,0.0127
3116.00,0.0127
3115.00,0.0127
3114.00,0.0127
3113.00,0.0127
3112.00,0.0127
3111.00,0.0127
3110.00,0.0127
3109.00,0.0127
3108.00,0.0127
3107.00,0.0127
3106.00,0.0127
3105.00,0.0127
3104.00,0.0127
3103.00,0.0126
3102.00,0.0126
3101.00,0.0126
3100.00,0.0126
3099.00,0.0126
3098.00,0.0126
3097.00,0.0127
3096.00,0.0127
3095.00,0.0127
3094.00,0.0127
3093.00,0.0127
3092.00,0.0127
3091.00,0.0127
3090.00,0.0127
3089.00,0.0127
3088.00,0.0127
3087.00,0.0127
3086.00,0.0127
3085.00,0.0127
3084.00,0.0127
3083.00,0.0127
3082.00,0.0127
3081.00,0.0127
3080.00,0.0127
3079.00,0.0127
3078.00,0.0127
3077.00,0.0127
3076.00,0.0127
3075.00,0.0127
3074.00,0.0127
3073.00,0.0127
3072.00,0.0127
3071.00,0.0127
3070.00,0.0127
3069.00,0.0127
3068.00,0.0127
3067.00,0.0126
3066.00,0.0126
3065.00,0.0127
3064.00,0.0127
3063.00,0.0127
3062.00,0.0126
3061.00,0.0126
3060.00,0.0126
3059.00,0.0126
3058.00,0.0125
3057.00,0.0125
3056.00,0.0125
3055.00,0.0125
3054.00,0.0124
3053.00,0.0124
3052.00,0.0124
3051.00,0.0123
3050.00,0.0123
3049.00,0.0123
3048.00,0.0123
3047.00,0.0122
3046.00,0.0122
3045.00,0.0121
3044.00,0.0121
3043.00,0.0121
3042.00,0.0120
3041.00,0.0120
3040.00,0.0120
3039.00,0.0120
3038.00,0.0119
3037.00,0.0119
3036.00,0.0119
3035.00,0.0118
3034.00,0.0118
3033.00,0.0118
3032.00,0.0117
3031.00,0.0117
3030.00,0.0117
3029.00,0.0117
3028.00,0.0117
3027.00,0.0116
3026.00,0.0116
3025.00,0.0115
3024.00,0.0115
3023.00,0.0114
3022.00,0.0114
3021.00,0.0114
3020.00,0.0114
3019.00,0.0113
3018.00,0.0113
3017.00,0.0112
3016.00,0.0112
3015.00,0.0111
3014.00,0.0111
3013.00,0.0111
3012.00,0.0111
3011.00,0.0111
3010.00,0.0111
3009.00,0.0111
3008.00,0.0111
3007.00,0.0111
3006.00,0.0111
3005.00,0.0111
3004.00,0.0110
3003.00,0.0110
3002.00,0.0110
3001.00,0.0110
3000.00,0.0110
2999.00,0.0110
2998.00,0.0110
2997.00,0.0110
2996.00,0.0110
2995.00,0.0110
2994.00,0.0110
2993.00,0.0110
2992.00,0.0111
2991.00,0.0111
2990.00,0.0111
2989.00,0.0112
2988.00,0.0112
2987.00,0.0112
2986.00,0.0112
2985.00,0.0113
2984.00,0.0113
2983.00,0.0114
2982.00,0.0114
2981.00,0.0114
2980.00,0.0114
2979.00,0.0115
2978.00,0.0115
2977.00,0.0115
2976.00,0.0116
2975.00,0.0116
2974.00,0.0116
2973.00,0.0116
2972.00,0.0117
2971.00,0.0117
2970.00,0.0117
2969.00,0.0117
2968.00,0.0117
2967.00,0.0117
2966.00,0.0117
2965.00,0.0117
2964.00,0.0116
2963.00,0.0116
2962.00,0.0116
2961.00,0.0116
2960.00,0.0116
2959.00,0.0115
2958.00,0.0115
2957.00,0.0115
2956.00,0.0115
2955.00,0.0115
2954.00,0.0115
2953.00,0.0115
2952.00,0.0115
2951.00,0.0115
2950.00,0.0115
2949.00,0.0115
2948.00,0.0115
2947.00,0.0115
2946.00,0.0115
2945.00,0.0115
2944.00,0.0115
2943.00,0.0115
2942.00,0.0116
2941.00,0.0116
2940.00,0.0116
2939.00,0.0116
2938.00,0.0116
2937.00,0.0116
2936.00,0.0116
2935.00,0.0115
2934.00,0.0115
2933.00,0.0115
2932.00,0.0114
2931.00,0.0113
2930.00,0.0113
2929.00,0.0112
2928.00,0.0111
2927.00,0.0110
2926.00,0.0109
2925.00,0.0108
2924.00,0.0106
2923.00,0.0105
2922.00,0.0103
2921.00,0.0102
2920.00,0.0100
2919.00,0.0098
2918.00,0.0097
2917.00,0.0096
2916.00,0.0095
2915.00,0.0096
2914.00,0.0097
2913.00,0.0099
2912.00,0.0101
2911.00,0.0102
2910.00,0.0103
2909.00,0.0104
2908.00,0.0104
2907.00,0.0105
2906.00,0.0105
2905.00,0.0105
2904.00,0.0105
2903.00,0.0105
2902.00,0.0105
2901.00,0.0105
2900.00,0.0105
2899.00,0.0106
2898.00,0.0105
2897.00,0.0105
2896.00,0.0105
2895.00,0.0105
2894.00,0.0105
2893.00,0.0105
2892.00,0.0106
2891.00,0.0106
2890.00,0.0106
2889.00,0.0106
2888.00,0.0106
2887.00,0.0107
2886.00,0.0107
2885.00,0.0107
2884.00,0.0107
2883.00,0.0108
2882.00,0.0108
2881.00,0.0108
2880.00,0.0108
2879.00,0.0109
2878.00,0.0109
2877.00,0.0109
2876.00,0.0109
2875.00,0.0109
2874.00,0.0109
2873.00,0.0108
2872.00,0.0108
2871.00,0.0108
2870.00,0.0108
2869.00,0.0107
2868.00,0.0107
2867.00,0.0106
2866.00,0.0106
2865.00,0.0105
2864.00,0.0105
2863.00,0.0104
2862.00,0.0103
2861.00,0.0102
2860.00,0.0102
2859.00,0.0101
2858.00,0.0100
2857.00,0.0100
2856.00,0.0099
2855.00,0.0098
2854.00,0.0096
2853.00,0.0095
2852.00,0.0093
2851.00,0.0091
2850.00,0.0090
2849.00,0.0089
2848.00,0.0089
2847.00,0.0091
2846.00,0.0092
2845.00,0.0094
2844.00,0.0095
2843.00,0.0096
2842.00,0.0097
2841.00,0.0098
2840.00,0.0098
2839.00,0.0098
2838.00,0.0098
2837.00,0.0098
2836.00,0.0098
2835.00,0.0098
2834.00,0.0098
2833.00,0.0098
2832.00,0.0098
2831.00,0.0098
2830.00,0.0098
2829.00,0.0097
2828.00,0.0097
2827.00,0.0097
2826.00,0.0097
2825.00,0.0097
2824.00,0.0097
2823.00,0.0097
2822.00,0.0097
2821.00,0.0096
2820.00,0.0096
2819.00,0.0096
2818.00,0.0096
2817.00,0.0096
2816.00,0.0096
2815.00,0.0096
2814.00,0.0096
2813.00,0.0096
2812.00,0.0096
2811.00,0.0095
2810.00,0.0095
2809.00,0.0095
2808.00,0.0095
2807.00,0.0095
2806.00,0.0095
2805.00,0.0095
2804.00,0.0095
2803.00,0.0095
2802.00,0.0095
2801.00,0.0094
2800.00,0.0094
2799.00,0.0094
2798.00,0.0094
2797.00,0.0094
2796.00,0.0094
2795.00,0.0094
2794.00,0.0094
2793.00,0.0094
2792.00,0.0094
2791.00,0.0094
2790.00,0.0094
2789.00,0.0093
2788.00,0.0093
2787.00,0.0093
2786.00,0.0093
2785.00,0.0093
2784.00,0.0093
2783.00,0.0093
2782.00,0.0093
2781.00,0.0093
2780.00,0.0093
2779.00,0.0093
2778.00,0.0093
2777.00,0.0093
2776.00,0.0092
2775.00,0.0092
2774.00,0.0092
2773.00,0.0092
2772.00,0.0092
2771.00,0.0092
2770.00,0.0092
2769.00,0.0092
2768.00,0.0092
2767.00,0.0092
2766.00,0.0092
2765.00,0.0091
2764.00,0.0091
2763.00,0.0091
2762.00,0.0091
2761.00,0.0091
2760.00,0.0091
2759.00,0.0091
2758.00,0.0091
2757.00,0.0091
2756.00,0.0091
2755.00,0.0091
2754.00,0.0091
2753.00,0.0090
2752.00,0.0090
2751.00,0.0090
2750.00,0.0090
2749.00,0.0090
2748.00,0.0090
2747.00,0.0090
2746.00,0.0090
2745.00,0.0090
2744.00,0.0090
2743.00,0.0090
2742.00,0.0089
2741.00,0.0089
2740.00,0.0089
2739.00,0.0089
2738.00,0.0089
2737.00,0.0089
2736.00,0.0089
2735.00,0.0089
2734.00,0.0089
2733.00,0.0089
2732.00,0.0088
2731.00,0.0088
2730.00,0.0088
2729.00,0.0088
2728.00,0.0088
2727.00,0.0088
2726.00,0.0088
2725.00,0.0088
2724.00,0.0088
2723.00,0.0088
2722.00,0.0088
2721.00,0.0087
2720.00,0.0087
2719.00,0.0087
2718.00,0.0087
2717.00,0.0087
2716.00,0.0087
2715.00,0.0087
2714.00,0.0087
2713.00,0.0087
2712.00,0.0087
2711.00,0.0087
2710.00,0.0086
2709.00,0.0086
2708.00,0.0086
2707.00,0.0086
2706.00,0.0086
2705.00,0.0086
2704.00,0.0086
2703.00,0.0086
2702.00,0.0086
2701.00,0.0086
2700.00,0.0086
2699.00,0.0085
2698.00,0.0085
2697.00,0.0085
2696.00,0.0085
2695.00,0.0085
2694.00,0.0085
2693.00,0.0085
2692.00,0.0085
2691.00,0.0085
2690.00,0.0085
2689.00,0.0085
2688.00,0.0085
2687.00,0.0085
2686.00,0.0084
2685.00,0.0084
2684.00,0.0084
2683.00,0.0084
2682.00,0.0084
2681.00,0.0084
2680.00,0.0084
2679.00,0.0084
2678.00,0.0084
2677.00,0.0084
2676.00,0.0084
2675.00,0.0084
2674.00,0.0084
2673.00,0.0084
2672.00,0.0084
2671.00,0.0084
2670.00,0.0084
2669.00,0.0084
2668.00,0.0084
2667.00,0.0084
2666.00,0.0084
2665.00,0.0084
2664.00,0.0085
2663.00,0.0085
2662.00,0.0085
2661.00,0.0086
2660.00,0.0086
2659.00,0.0086
2658.00,0.0086
2657.00,0.0086
2656.00,0.0086
2655.00,0.0086
2654.00,0.0086
2653.00,0.0086
2652.00,0.0086
2651.00,0.0086
2650.00,0.0086
2649.00,0.0086
2648.00,0.0086
2647.00,0.0086
2646.00,0.0086
2645.00,0.0085
2644.00,0.0085
2643.00,0.0085
2642.00,0.0085
2641.00,0.0085
2640.00,0.0085
2639.00,0.0085
2638.00,0.0085
2637.00,0.0085
2636.00,0.0084
2635.00,0.0084
2634.00,0.0084
2633.00,0.0084
2632.00,0.0084
2631.00,0.0084
2630.00,0.0084
2629.00,0.0083
2628.00,0.0083
2627.00,0.0083
2626.00,0.0083
2625.00,0.0083
2624.00,0.0083
2623.00,0.0083
2622.00,0.0082
2621.00,0.0082
2620.00,0.0082
2619.00,0.0082
2618.00,0.0082
2617.00,0.0082
2616.00,0.0082
2615.00,0.0082
2614.00,0.0082
2613.00,0.0082
2612.00,0.0082
2611.00,0.0081
2610.00,0.0081
2609.00,0.0081
2608.00,0.0081
2607.00,0.0081
2606.00,0.0081
2605.00,0.0081
2604.00,0.0080
2603.00,0.0080
2602.00,0.0080
2601.00,0.0080
2600.00,0.0080
2599.00,0.0080
2598.00,0.0080
2597.00,0.0080
2596.00,0.0080
2595.00,0.0080
2594.00,0.0080
2593.00,0.0079
2592.00,0.0079
2591.00,0.0079
2590.00,0.0079
2589.00,0.0079
2588.00,0.0079
2587.00,0.0078
2586.00,0.0078
2585.00,0.0078
2584.00,0.0078
2583.00,0.0078
2582.00,0.0078
2581.00,0.0078
2580.00,0.0078
2579.00,0.0078
2578.00,0.0078
2577.00,0.0078
2576.00,0.0078
2575.00,0.0077
2574.00,0.0077
2573.00,0.0077
2572.00,0.0077
2571.00,0.0077
2570.00,0.0077
2569.00,0.0077
2568.00,0.0077
2567.00,0.0077
2566.00,0.0076
2565.00,0.0076
2564.00,0.0076
2563.00,0.0076
2562.00,0.0076
2561.00,0.0076
2560.00,0.0076
2559.00,0.0076
2558.00,0.0076
2557.00,0.0076
2556.00,0.0076
2555.00,0.0076
2554.00,0.0075
2553.00,0.0075
2552.00,0.0075
2551.00,0.0075
2550.00,0.0075
2549.00,0.0075
2548.00,0.0075
2547.00,0.0075
2546.00,0.0075
2545.00,0.0075
2544.00,0.0075
2543.00,0.0075
2542.00,0.0075
2541.00,0.0075
2540.00,0.0075
2539.00,0.0074
2538.00,0.0074
2537.00,0.0074
2536.00,0.0074
2535.00,0.0074
2534.00,0.0074
2533.00,0.0074
2532.00,0.0074
2531.00,0.0074
2530.00,0.0074
2529.00,0.0074
2528.00,0.0073
2527.00,0.0073
2526.00,0.0073
2525.00,0.0073
2524.00,0.0073
2523.00,0.0073
2522.00,0.0073
2521.00,0.0073
2520.00,0.0073
2519.00,0.0073
2518.00,0.0073
2517.00,0.0073
2516.00,0.0073
2515.00,0.0073
2514.00,0.0073
2513.00,0.0072
2512.00,0.0072
2511.00,0.0072
2510.00,0.0072
2509.00,0.0072
2508.00,0.0072
2507.00,0.0072
2506.00,0.0072
2505.00,0.0072
2504.00,0.0072
2503.00,0.0072
2502.00,0.0072
2501.00,0.0072
2500.00,0.0072
2499.00,0.0072
2498.00,0.0072
2497.00,0.0072
2496.00,0.0072
2495.00,0.0072
2494.00,0.0072
2493.00,0.0072
2492.00,0.0071
2491.00,0.0071
2490.00,0.0071
2489.00,0.0071
2488.00,0.0071
2487.00,0.0071
2486.00,0.0071
2485.00,0.0071
2484.00,0.0071
2483.00,0.0071
2482.00,0.0071
2481.00,0.0071
2480.00,0.0071
2479.00,0.0071
2478.00,0.0071
2477.00,0.0071
2476.00,0.0071
2475.00,0.0071
2474.00,0.0071
2473.00,0.0071
2472.00,0.0071
2471.00,0.0071
2470.00,0.0071
2469.00,0.0071
2468.00,0.0071
2467.00,0.0071
2466.00,0.0071
2465.00,0.0071
2464.00,0.0071
2463.00,0.0071
2462.00,0.0071
2461.00,0.0071
2460.00,0.0071
2459.00,0.0071
2458.00,0.0071
2457.00,0.0072
2456.00,0.0072
2455.00,0.0072
2454.00,0.0071
2453.00,0.0071
2452.00,0.0071
2451.00,0.0071
2450.00,0.0071
2449.00,0.0071
2448.00,0.0071
2447.00,0.0071
2446.00,0.0071
2445.00,0.0070
2444.00,0.0070
2443.00,0.0070
2442.00,0.0070
2441.00,0.0069
2440.00,0.0069
2439.00,0.0069
2438.00,0.0069
2437.00,0.0069
2436.00,0.0069
2435.00,0.0069
2434.00,0.0069
2433.00,0.0069
2432.00,0.0069
2431.00,0.0068
2430.00,0.0068
2429.00,0.0068
2428.00,0.0068
2427.00,0.0068
2426.00,0.0068
2425.00,0.0068
2424.00,0.0068
2423.00,0.0068
2422.00,0.0068
2421.00,0.0068
2420.00,0.0067
2419.00,0.0067
2418.00,0.0067
2417.00,0.0067
2416.00,0.0067
2415.00,0.0067
2414.00,0.0067
2413.00,0.0067
2412.00,0.0068
2411.00,0.0067
2410.00,0.0067
2409.00,0.0067
2408.00,0.0066
2407.00,0.0066
2406.00,0.0066
2405.00,0.0066
2404.00,0.0066
2403.00,0.0065
2402.00,0.0065
2401.00,0.0065
2400.00,0.0065
2399.00,0.0065
2398.00,0.0065
2397.00,0.0065
2396.00,0.0065
2395.00,0.0065
2394.00,0.0065
2393.00,0.0065
2392.00,0.0065
2391.00,0.0065
2390.00,0.0064
2389.00,0.0064
2388.00,0.0064
2387.00,0.0063
2386.00,0.0063
2385.00,0.0062
2384.00,0.0062
2383.00,0.0061
2382.00,0.0061
2381.00,0.0060
2380.00,0.0060
2379.00,0.0060
2378.00,0.0060
2377.00,0.0061
2376.00,0.0061
2375.00,0.0061
2374.00,0.0061
2373.00,0.0061
2372.00,0.0061
2371.00,0.0060
2370.00,0.0059
2369.00,0.0059
2368.00,0.0059
2367.00,0.0059
2366.00,0.0059
2365.00,0.0060
2364.00,0.0060
2363.00,0.0061
2362.00,0.0062
2361.00,0.0062
2360.00,0.0062
2359.00,0.0062
2358.00,0.0062
2357.00,0.0062
2356.00,0.0062
2355.00,0.0062
2354.00,0.0062
2353.00,0.0062
2352.00,0.0062
2351.00,0.0062
2350.00,0.0063
2349.00,0.0064
2348.00,0.0064
2347.00,0.0064
2346.00,0.0064
2345.00,0.0063
2344.00,0.0064
2343.00,0.0064
2342.00,0.0064
2341.00,0.0064
2340.00,0.0064
2339.00,0.0065
2338.00,0.0065
2337.00,0.0065
2336.00,0.0065
2335.00,0.0065
2334.00,0.0064
2333.00,0.0064
2332.00,0.0063
2331.00,0.0063
2330.00,0.0063
2329.00,0.0065
2328.00,0.0067
2327.00,0.0071
2326.00,0.0074
2325.00,0.0075
2324.00,0.0074
2323.00,0.0072
2322.00,0.0070
2321.00,0.0069
2320.00,0.0068
2319.00,0.0068
2318.00,0.0068
2317.00,0.0068
2316.00,0.0068
2315.00,0.0067
2314.00,0.0067
2313.00,0.0066
2312.00,0.0065
2311.00,0.0065
2310.00,0.0065
2309.00,0.0065
2308.00,0.0065
2307.00,0.0065
2306.00,0.0065
2305.00,0.0065
2304.00,0.0066
2303.00,0.0066
2302.00,0.0066
2301.00,0.0066
2300.00,0.0067
2299.00,0.0067
2298.00,0.0067
2297.00,0.0068
2296.00,0.0068
2295.00,0.0069
2294.00,0.0070
2293.00,0.0071
2292.00,0.0071
2291.00,0.0072
2290.00,0.0072
2289.00,0.0073
2288.00,0.0073
2287.00,0.0073
2286.00,0.0073
2285.00,0.0072
2284.00,0.0072
2283.00,0.0071
2282.00,0.0071
2281.00,0.0070
2280.00,0.0070
2279.00,0.0070
2278.00,0.0070
2277.00,0.0070
2276.00,0.0069
2275.00,0.0069
2274.00,0.0069
2273.00,0.0068
2272.00,0.0068
2271.00,0.0068
2270.00,0.0068
2269.00,0.0067
2268.00,0.0067
2267.00,0.0067
2266.00,0.0066
2265.00,0.0066
2264.00,0.0066
2263.00,0.0066
2262.00,0.0067
2261.00,0.0067
2260.00,0.0068
2259.00,0.0068
2258.00,0.0067
2257.00,0.0066
2256.00,0.0066
2255.00,0.0065
2254.00,0.0065
2253.00,0.0065
2252.00,0.0065
2251.00,0.0065
2250.00,0.0065
2249.00,0.0065
2248.00,0.0065
2247.00,0.0065
2246.00,0.0065
2245.00,0.0065
2244.00,0.0066
2243.00,0.0066
2242.00,0.0066
2241.00,0.0066
2240.00,0.0066
2239.00,0.0066
2238.00,0.0066
2237.00,0.0066
2236.00,0.0065
2235.00,0.0065
2234.00,0.0065
2233.00,0.0065
2232.00,0.0065
2231.00,0.0065
2230.00,0.0065
2229.00,0.0065
2228.00,0.0064
2227.00,0.0064
2226.00,0.0064
2225.00,0.0064
2224.00,0.0064
2223.00,0.0064
2222.00,0.0064
2221.00,0.0064
2220.00,0.0064
2219.00,0.0064
2218.00,0.0064
2217.00,0.0064
2216.00,0.0064
2215.00,0.0064
2214.00,0.0064
2213.00,0.0064
2212.00,0.0064
2211.00,0.0063
2210.00,0.0064
2209.00,0.0064
2208.00,0.0064
2207.00,0.0065
2206.00,0.0065
2205.00,0.0065
2204.00,0.0064
2203.00,0.0064
2202.00,0.0064
2201.00,0.0065
2200.00,0.0065
2199.00,0.0065
2198.00,0.0065
2197.00,0.0065
2196.00,0.0065
2195.00,0.0065
2194.00,0.0065
2193.00,0.0064
2192.00,0.0064
2191.00,0.0065
2190.00,0.0065
2189.00,0.0065
2188.00,0.0066
2187.00,0.0066
2186.00,0.0065
2185.00,0.0065
2184.00,0.0063
2183.00,0.0061
2182.00,0.0060
2181.00,0.0060
2180.00,0.0060
2179.00,0.0060
2178.00,0.0060
2177.00,0.0059
2176.00,0.0058
2175.00,0.0059
2174.00,0.0060
2173.00,0.0062
2172.00,0.0064
2171.00,0.0066
2170.00,0.0068
2169.00,0.0069
2168.00,0.0069
2167.00,0.0070
2166.00,0.0070
2165.00,0.0071
2164.00,0.0073
2163.00,0.0073
2162.00,0.0070
2161.00,0.0063
2160.00,0.0052
2159.00,0.0043
2158.00,0.0037
2157.00,0.0036
2156.00,0.0038
2155.00,0.0040
2154.00,0.0042
2153.00,0.0043
2152.00,0.0045
2151.00,0.0046
2150.00,0.0047
2149.00,0.0048
2148.00,0.0048
2147.00,0.0047
2146.00,0.0046
2145.00,0.0046
2144.00,0.0046
2143.00,0.0047
2142.00,0.0047
2141.00,0.0047
2140.00,0.0047
2139.00,0.0047
2138.00,0.0046
2137.00,0.0045
2136.00,0.0043
2135.00,0.0042
2134.00,0.0042
2133.00,0.0043
2132.00,0.0044
2131.00,0.0045
2130.00,0.0046
2129.00,0.0048
2128.00,0.0049
2127.00,0.0050
2126.00,0.0051
2125.00,0.0051
2124.00,0.0052
2123.00,0.0053
2122.00,0.0054
2121.00,0.0054
2120.00,0.0054
2119.00,0.0055
2118.00,0.0056
2117.00,0.0057
2116.00,0.0058
2115.00,0.0058
2114.00,0.0058
2113.00,0.0058
2112.00,0.0058
2111.00,0.0058
2110.00,0.0058
2109.00,0.0059
2108.00,0.0058
2107.00,0.0058
2106.00,0.0058
2105.00,0.0057
2104.00,0.0057
2103.00,0.0057
2102.00,0.0058
2101.00,0.0058
2100.00,0.0057
2099.00,0.0057
2098.00,0.0056
2097.00,0.0054
2096.00,0.0054
2095.00,0.0053
2094.00,0.0054
2093.00,0.0054
2092.00,0.0055
2091.00,0.0056
2090.00,0.0056
2089.00,0.0057
2088.00,0.0057
2087.00,0.0057
2086.00,0.0057
2085.00,0.0058
2084.00,0.0058
2083.00,0.0058
2082.00,0.0059
2081.00,0.0059
2080.00,0.0059
2079.00,0.0059
2078.00,0.0058
2077.00,0.0058
2076.00,0.0058
2075.00,0.0058
2074.00,0.0057
2073.00,0.0057
2072.00,0.0056
2071.00,0.0056
2070.00,0.0056
2069.00,0.0056
2068.00,0.0056
2067.00,0.0056
2066.00,0.0056
2065.00,0.0056
2064.00,0.0056
2063.00,0.0057
2062.00,0.0057
2061.00,0.0057
2060.00,0.0057
2059.00,0.0057
2058.00,0.0057
2057.00,0.0057
2056.00,0.0057
2055.00,0.0058
2054.00,0.0059
2053.00,0.0063
2052.00,0.0066
2051.00,0.0067
2050.00,0.0065
2049.00,0.0062
2048.00,0.0059
2047.00,0.0057
2046.00,0.0056
2045.00,0.0056
2044.00,0.0056
2043.00,0.0056
2042.00,0.0056
2041.00,0.0056
2040.00,0.0057
2039.00,0.0057
2038.00,0.0058
2037.00,0.0058
2036.00,0.0057
2035.00,0.0056
2034.00,0.0054
2033.00,0.0053
2032.00,0.0052
2031.00,0.0051
2030.00,0.0050
2029.00,0.0049
2028.00,0.0049
2027.00,0.0049
2026.00,0.0049
2025.00,0.0048
2024.00,0.0048
2023.00,0.0048
2022.00,0.0048
2021.00,0.0049
2020.00,0.0049
2019.00,0.0050
2018.00,0.0049
2017.00,0.0049
2016.00,0.0049
2015.00,0.0049
2014.00,0.0049
2013.00,0.0049
2012.00,0.0050
2011.00,0.0050
2010.00,0.0050
2009.00,0.0049
2008.00,0.0047
2007.00,0.0044
2006.00,0.0043
2005.00,0.0043
2004.00,0.0044
2003.00,0.0045
2002.00,0.0046
2001.00,0.0047
2000.00,0.0048
1999.00,0.0048
1998.00,0.0049
1997.00,0.0049
1996.00,0.0050
1995.00,0.0050
1994.00,0.0051
1993.00,0.0051
1992.00,0.0051
1991.00,0.0051
1990.00,0.0051
1989.00,0.0051
1988.00,0.0053
1987.00,0.0053
1986.00,0.0054
1985.00,0.0055
1984.00,0.0057
1983.00,0.0059
1982.00,0.0061
1981.00,0.0062
1980.00,0.0060
1979.00,0.0055
1978.00,0.0050
1977.00,0.0046
1976.00,0.0044
1975.00,0.0044
1974.00,0.0043
1973.00,0.0043
1972.00,0.0043
1971.00,0.0043
1970.00,0.0043
1969.00,0.0043
1968.00,0.0043
1967.00,0.0042
1966.00,0.0041
1965.00,0.0041
1964.00,0.0042
1963.00,0.0041
1962.00,0.0040
1961.00,0.0039
1960.00,0.0039
1959.00,0.0039
1958.00,0.0040
1957.00,0.0041
1956.00,0.0042
1955.00,0.0042
1954.00,0.0042
1953.00,0.0042
1952.00,0.0042
1951.00,0.0042
1950.00,0.0042
1949.00,0.0042
1948.00,0.0042
1947.00,0.0042
1946.00,0.0042
1945.00,0.0042
1944.00,0.0042
1943.00,0.0042
1942.00,0.0042
1941.00,0.0042
1940.00,0.0042
1939.00,0.0042
1938.00,0.0042
1937.00,0.0042
1936.00,0.0042
1935.00,0.0042
1934.00,0.0042
1933.00,0.0042
1932.00,0.0042
1931.00,0.0042
1930.00,0.0042
1929.00,0.0042
1928.00,0.0042
1927.00,0.0042
1926.00,0.0042
1925.00,0.0042
1924.00,0.0042
1923.00,0.0043
1922.00,0.0044
1921.00,0.0044
1920.00,0.0044
1919.00,0.0044
1918.00,0.0044
1917.00,0.0044
1916.00,0.0044
1915.00,0.0044
1914.00,0.0044
1913.00,0.0044
1912.00,0.0044
1911.00,0.0043
1910.00,0.0043
1909.00,0.0043
1908.00,0.0043
1907.00,0.0043
1906.00,0.0043
1905.00,0.0044
1904.00,0.0044
1903.00,0.0044
1902.00,0.0044
1901.00,0.0043
1900.00,0.0043
1899.00,0.0043
1898.00,0.0042
1897.00,0.0042
1896.00,0.0043
1895.00,0.0043
1894.00,0.0043
1893.00,0.0043
1892.00,0.0043
1891.00,0.0043
1890.00,0.0042
1889.00,0.0042
1888.00,0.0043
1887.00,0.0043
1886.00,0.0043
1885.00,0.0043
1884.00,0.0043
1883.00,0.0043
1882.00,0.0042
1881.00,0.0042
1880.00,0.0042
1879.00,0.0042
1878.00,0.0043
1877.00,0.0043
1876.00,0.0043
1875.00,0.0043
1874.00,0.0042
1873.00,0.0042
1872.00,0.0042
1871.00,0.0041
1870.00,0.0041
1869.00,0.0041
1868.00,0.0042
1867.00,0.0042
1866.00,0.0042
1865.00,0.0042
1864.00,0.0042
1863.00,0.0042
1862.00,0.0042
1861.00,0.0042
1860.00,0.0042
1859.00,0.0041
1858.00,0.0041
1857.00,0.0041
1856.00,0.0041
1855.00,0.0041
1854.00,0.0041
1853.00,0.0041
1852.00,0.0041
1851.00,0.0041
1850.00,0.0041
1849.00,0.0041
1848.00,0.0041
1847.00,0.0040
1846.00,0.0040
1845.00,0.0040
1844.00,0.0040
1843.00,0.0041
1842.00,0.0041
1841.00,0.0040
1840.00,0.0040
1839.00,0.0040
1838.00,0.0040
1837.00,0.0040
1836.00,0.0040
1835.00,0.0040
1834.00,0.0040
1833.00,0.0040
1832.00,0.0039
1831.00,0.0039
1830.00,0.0039
1829.00,0.0039
1828.00,0.0039
1827.00,0.0039
1826.00,0.0039
1825.00,0.0039
1824.00,0.0040
1823.00,0.0040
1822.00,0.0040
1821.00,0.0039
1820.00,0.0039
1819.00,0.0038
1818.00,0.0037
1817.00,0.0037
1816.00,0.0038
1815.00,0.0038
1814.00,0.0038
1813.00,0.0038
1812.00,0.0039
1811.00,0.0039
1810.00,0.0039
1809.00,0.0039
1808.00,0.0039
1807.00,0.0039
1806.00,0.0039
1805.00,0.0039
1804.00,0.0039
1803.00,0.0038
1802.00,0.0038
1801.00,0.0039
1800.00,0.0039
1799.00,0.0039
1798.00,0.0040
1797.00,0.0040
1796.00,0.0040
1795.00,0.0040
1794.00,0.0039
1793.00,0.0039
1792.00,0.0040
1791.00,0.0040
1790.00,0.0040
1789.00,0.0040
1788.00,0.0040
1787.00,0.0040
1786.00,0.0040
1785.00,0.0040
1784.00,0.0040
1783.00,0.0040
1782.00,0.0040
1781.00,0.0040
1780.00,0.0040
1779.00,0.0039
1778.00,0.0039
1777.00,0.0039
1776.00,0.0039
1775.00,0.0039
1774.00,0.0039
1773.00,0.0039
1772.00,0.0040
1771.00,0.0039
1770.00,0.0039
1769.00,0.0040
1768.00,0.0040
1767.00,0.0040
1766.00,0.0040
1765.00,0.0040
1764.00,0.0040
1763.00,0.0040
1762.00,0.0040
1761.00,0.0040
1760.00,0.0040
1759.00,0.0040
1758.00,0.0040
1757.00,0.0040
1756.00,0.0041
1755.00,0.0041
1754.00,0.0041
1753.00,0.0041
1752.00,0.0041
1751.00,0.0042
1750.00,0.0041
1749.00,0.0042
1748.00,0.0042
1747.00,0.0042
1746.00,0.0042
1745.00,0.0043
1744.00,0.0043
1743.00,0.0043
1742.00,0.0043
1741.00,0.0043
1740.00,0.0044
1739.00,0.0044
1738.00,0.0045
1737.00,0.0045
1736.00,0.0046
1735.00,0.0047
1734.00,0.0048
1733.00,0.0049
1732.00,0.0049
1731.00,0.0049
1730.00,0.0049
1729.00,0.0049
1728.00,0.0050
1727.00,0.0050
1726.00,0.0051
1725.00,0.0051
1724.00,0.0052
1723.00,0.0053
1722.00,0.0054
1721.00,0.0054
1720.00,0.0054
1719.00,0.0056
1718.00,0.0057
1717.00,0.0059
1716.00,0.0060
1715.00,0.0061
1714.00,0.0062
1713.00,0.0063
1712.00,0.0065
1711.00,0.0067
1710.00,0.0068
1709.00,0.0070
1708.00,0.0073
1707.00,0.0075
1706.00,0.0079
1705.00,0.0084
1704.00,0.0089
1703.00,0.0094
1702.00,0.0100
1701.00,0.0110
1700.00,0.0125
1699.00,0.0137
1698.00,0.0146
1697.00,0.0153
1696.00,0.0160
1695.00,0.0166
1694.00,0.0170
1693.00,0.0172
1692.00,0.0175
1691.00,0.0177
1690.00,0.0180
1689.00,0.0184
1688.00,0.0188
1687.00,0.0191
1686.00,0.0195
1685.00,0.0200
1684.00,0.0207
1683.00,0.0214
1682.00,0.0220
1681.00,0.0225
1680.00,0.0230
1679.00,0.0235
1678.00,0.0239
1677.00,0.0244
1676.00,0.0250
1675.00,0.0257
1674.00,0.0264
1673.00,0.0270
1672.00,0.0275
1671.00,0.0280
1670.00,0.0287
1669.00,0.0294
1668.00,0.0302
1667.00,0.0308
1666.00,0.0313
1665.00,0.0317
1664.00,0.0322
1663.00,0.0328
1662.00,0.0335
1661.00,0.0342
1660.00,0.0347
1659.00,0.0352
1658.00,0.0356
1657.00,0.0359
1656.00,0.0362
1655.00,0.0365
1654.00,0.0370
1653.00,0.0379
1652.00,0.0387
1651.00,0.0391
1650.00,0.0392
1649.00,0.0392
1648.00,0.0395
1647.00,0.0399
1646.00,0.0405
1645.00,0.0409
1644.00,0.0412
1643.00,0.0414
1642.00,0.0416
1641.00,0.0418
1640.00,0.0420
1639.00,0.0422
1638.00,0.0424
1637.00,0.0426
1636.00,0.0429
1635.00,0.0434
1634.00,0.0438
1633.00,0.0440
1632.00,0.0441
1631.00,0.0443
1630.00,0.0444
1629.00,0.0445
1628.00,0.0447
1627.00,0.0449
1626.00,0.0450
1625.00,0.0451
1624.00,0.0452
1623.00,0.0453
1622.00,0.0454
1621.00,0.0454
1620.00,0.0454
1619.00,0.0452
1618.00,0.0450
1617.00,0.0447
1616.00,0.0444
1615.00,0.0441
1614.00,0.0437
1613.00,0.0433
1612.00,0.0428
1611.00,0.0423
1610.00,0.0417
1609.00,0.0411
1608.00,0.0405
1607.00,0.0398
1606.00,0.0391
1605.00,0.0384
1604.00,0.0376
1603.00,0.0368
1602.00,0.0360
1601.00,0.0352
1600.00,0.0344
1599.00,0.0336
1598.00,0.0329
1597.00,0.0321
1596.00,0.0314
1595.00,0.0307
1594.00,0.0300
1593.00,0.0293
1592.00,0.0287
1591.00,0.0280
1590.00,0.0275
1589.00,0.0269
1588.00,0.0263
1587.00,0.0258
1586.00,0.0254
1585.00,0.0249
1584.00,0.0246
1583.00,0.0242
1582.00,0.0239
1581.00,0.0237
1580.00,0.0235
1579.00,0.0233
1578.00,0.0232
1577.00,0.0232
1576.00,0.0231
1575.00,0.0232
1574.00,0.0232
1573.00,0.0232
1572.00,0.0232
1571.00,0.0233
1570.00,0.0235
1569.00,0.0239
1568.00,0.0242
1567.00,0.0245
1566.00,0.0248
1565.00,0.0251
1564.00,0.0254
1563.00,0.0258
1562.00,0.0260
1561.00,0.0261
1560.00,0.0264
1559.00,0.0272
1558.00,0.0282
1557.00,0.0288
1556.00,0.0292
1555.00,0.0296
1554.00,0.0300
1553.00,0.0304
1552.00,0.0308
1551.00,0.0312
1550.00,0.0316
1549.00,0.0321
1548.00,0.0325
1547.00,0.0328
1546.00,0.0331
1545.00,0.0334
1544.00,0.0338
1543.00,0.0341
1542.00,0.0345
1541.00,0.0350
1540.00,0.0356
1539.00,0.0363
1538.00,0.0367
1537.00,0.0369
1536.00,0.0370
1535.00,0.0371
1534.00,0.0375
1533.00,0.0380
1532.00,0.0385
1531.00,0.0389
1530.00,0.0392
1529.00,0.0395
1528.00,0.0398
1527.00,0.0401
1526.00,0.0406
1525.00,0.0410
1524.00,0.0413
1523.00,0.0415
1522.00,0.0419
1521.00,0.0424
1520.00,0.0428
1519.00,0.0430
1518.00,0.0431
1517.00,0.0433
1516.00,0.0435
1515.00,0.0436
1514.00,0.0435
1513.00,0.0434
1512.00,0.0431
1511.00,0.0428
1510.00,0.0425
1509.00,0.0421
1508.00,0.0416
1507.00,0.0410
1506.00,0.0404
1505.00,0.0399
1504.00,0.0394
1503.00,0.0388
1502.00,0.0382
1501.00,0.0375
1500.00,0.0367
1499.00,0.0359
1498.00,0.0352
1497.00,0.0345
1496.00,0.0337
1495.00,0.0329
1494.00,0.0322
1493.00,0.0315
1492.00,0.0307
1491.00,0.0298
1490.00,0.0290
1489.00,0.0283
1488.00,0.0276
1487.00,0.0270
1486.00,0.0264
1485.00,0.0259
1484.00,0.0254
1483.00,0.0249
1482.00,0.0244
1481.00,0.0240
1480.00,0.0237
1479.00,0.0233
1478.00,0.0230
1477.00,0.0228
1476.00,0.0226
1475.00,0.0224
1474.00,0.0224
1473.00,0.0223
1472.00,0.0223
1471.00,0.0223
1470.00,0.0223
1469.00,0.0223
1468.00,0.0222
1467.00,0.0221
1466.00,0.0220
1465.00,0.0220
1464.00,0.0221
1463.00,0.0222
1462.00,0.0223
1461.00,0.0224
1460.00,0.0225
1459.00,0.0226
1458.00,0.0230
1457.00,0.0235
1456.00,0.0239
1455.00,0.0241
1454.00,0.0242
1453.00,0.0243
1452.00,0.0244
1451.00,0.0244
1450.00,0.0244
1449.00,0.0243
1448.00,0.0242
1447.00,0.0242
1446.00,0.0241
1445.00,0.0239
1444.00,0.0237
1443.00,0.0235
1442.00,0.0232
1441.00,0.0230
1440.00,0.0227
1439.00,0.0224
1438.00,0.0221
1437.00,0.0219
1436.00,0.0217
1435.00,0.0215
1434.00,0.0214
1433.00,0.0212
1432.00,0.0210
1431.00,0.0209
1430.00,0.0208
1429.00,0.0207
1428.00,0.0207
1427.00,0.0207
1426.00,0.0206
1425.00,0.0206
1424.00,0.0207
1423.00,0.0207
1422.00,0.0208
1421.00,0.0208
1420.00,0.0209
1419.00,0.0210
1418.00,0.0212
1417.00,0.0214
1416.00,0.0215
1415.00,0.0216
1414.00,0.0217
1413.00,0.0218
1412.00,0.0219
1411.00,0.0220
1410.00,0.0221
1409.00,0.0222
1408.00,0.0222
1407.00,0.0223
1406.00,0.0223
1405.00,0.0223
1404.00,0.0224
1403.00,0.0224
1402.00,0.0224
1401.00,0.0223
1400.00,0.0223
1399.00,0.0222
1398.00,0.0222
1397.00,0.0222
1396.00,0.0222
1395.00,0.0221
1394.00,0.0221
1393.00,0.0221
1392.00,0.0221
1391.00,0.0221
1390.00,0.0221
1389.00,0.0220
1388.00,0.0220
1387.00,0.0219
1386.00,0.0219
1385.00,0.0218
1384.00,0.0218
1383.00,0.0217
1382.00,0.0216
1381.00,0.0215
1380.00,0.0214
1379.00,0.0214
1378.00,0.0213
1377.00,0.0212
1376.00,0.0212
1375.00,0.0211
1374.00,0.0211
1373.00,0.0211
1372.00,0.0211
1371.00,0.0210
1370.00,0.0210
1369.00,0.0209
1368.00,0.0208
1367.00,0.0207
1366.00,0.0205
1365.00,0.0204
1364.00,0.0202
1363.00,0.0201
1362.00,0.0200
1361.00,0.0199
1360.00,0.0198
1359.00,0.0198
1358.00,0.0197
1357.00,0.0196
1356.00,0.0196
1355.00,0.0195
1354.00,0.0195
1353.00,0.0194
1352.00,0.0194
1351.00,0.0194
1350.00,0.0193
1349.00,0.0193
1348.00,0.0193
1347.00,0.0193
1346.00,0.0194
1345.00,0.0194
1344.00,0.0194
1343.00,0.0194
1342.00,0.0194
1341.00,0.0194
1340.00,0.0194
1339.00,0.0195
1338.00,0.0195
1337.00,0.0195
1336.00,0.0195
1335.00,0.0195
1334.00,0.0195
1333.00,0.0195
1332.00,0.0195
1331.00,0.0195
1330.00,0.0195
1329.00,0.0195
1328.00,0.0195
1327.00,0.0195
1326.00,0.0195
1325.00,0.0195
1324.00,0.0195
1323.00,0.0195
1322.00,0.0194
1321.00,0.0194
1320.00,0.0194
1319.00,0.0194
1318.00,0.0194
1317.00,0.0193
1316.00,0.0193
1315.00,0.0193
1314.00,0.0192
1313.00,0.0192
1312.00,0.0192
1311.00,0.0191
1310.00,0.0191
1309.00,0.0190
1308.00,0.0190
1307.00,0.0189
1306.00,0.0189
1305.00,0.0188
1304.00,0.0188
1303.00,0.0188
1302.00,0.0187
1301.00,0.0187
1300.00,0.0186
1299.00,0.0186
1298.00,0.0185
1297.00,0.0185
1296.00,0.0185
1295.00,0.0185
1294.00,0.0184
1293.00,0.0184
1292.00,0.0184
1291.00,0.0184
1290.00,0.0184
1289.00,0.0184
1288.00,0.0184
1287.00,0.0184
1286.00,0.0184
1285.00,0.0184
1284.00,0.0184
1283.00,0.0184
1282.00,0.0184
1281.00,0.0183
1280.00,0.0183
1279.00,0.0183
1278.00,0.0182
1277.00,0.0182
1276.00,0.0182
1275.00,0.0182
1274.00,0.0182
1273.00,0.0181
1272.00,0.0181
1271.00,0.0182
1270.00,0.0182
1269.00,0.0182
1268.00,0.0183
1267.00,0.0183
1266.00,0.0184
1265.00,0.0184
1264.00,0.0185
1263.00,0.0186
1262.00,0.0187
1261.00,0.0188
1260.00,0.0190
1259.00,0.0191
1258.00,0.0193
1257.00,0.0195
1256.00,0.0196
1255.00,0.0198
1254.00,0.0200
1253.00,0.0202
1252.00,0.0204
1251.00,0.0206
1250.00,0.0207
1249.00,0.0209
1248.00,0.0210
1247.00,0.0211
1246.00,0.0213
1245.00,0.0214
1244.00,0.0215
1243.00,0.0216
1242.00,0.0216
1241.00,0.0217
1240.00,0.0218
1239.00,0.0218
1238.00,0.0219
1237.00,0.0219
1236.00,0.0219
1235.00,0.0219
1234.00,0.0219
1233.00,0.0219
1232.00,0.0219
1231.00,0.0219
1230.00,0.0219
1229.00,0.0219
1228.00,0.0218
1227.00,0.0217
1226.00,0.0217
1225.00,0.0216
1224.00,0.0215
1223.00,0.0214
1222.00,0.0213
1221.00,0.0212
1220.00,0.0211
1219.00,0.0210
1218.00,0.0209
1217.00,0.0207
1216.00,0.0206
1215.00,0.0204
1214.00,0.0202
1213.00,0.0201
1212.00,0.0199
1211.00,0.0197
1210.00,0.0195
1209.00,0.0193
1208.00,0.0191
1207.00,0.0189
1206.00,0.0187
1205.00,0.0185
1204.00,0.0183
1203.00,0.0181
1202.00,0.0179
1201.00,0.0177
1200.00,0.0175
1199.00,0.0173
1198.00,0.0172
1197.00,0.0170
1196.00,0.0169
1195.00,0.0167
1194.00,0.0166
1193.00,0.0165
1192.00,0.0164
1191.00,0.0163
1190.00,0.0162
1189.00,0.0162
1188.00,0.0161
1187.00,0.0161
1186.00,0.0160
1185.00,0.0160
1184.00,0.0160
1183.00,0.0159
1182.00,0.0159
1181.00,0.0160
1180.00,0.0160
1179.00,0.0160
1178.00,0.0161
1177.00,0.0162
1176.00,0.0163
1175.00,0.0165
1174.00,0.0166
1173.00,0.0168
1172.00,0.0169
1171.00,0.0170
1170.00,0.0172
1169.00,0.0173
1168.00,0.0174
1167.00,0.0175
1166.00,0.0176
1165.00,0.0177
1164.00,0.0178
1163.00,0.0179
1162.00,0.0180
1161.00,0.0181
1160.00,0.0181
1159.00,0.0181
1158.00,0.0181
1157.00,0.0181
1156.00,0.0181
1155.00,0.0180
1154.00,0.0179
1153.00,0.0178
1152.00,0.0177
1151.00,0.0176
1150.00,0.0175
1149.00,0.0173
1148.00,0.0172
1147.00,0.0170
1146.00,0.0169
1145.00,0.0168
1144.00,0.0166
1143.00,0.0165
1142.00,0.0164
1141.00,0.0164
1140.00,0.0163
1139.00,0.0162
1138.00,0.0162
1137.00,0.0161
1136.00,0.0161
1135.00,0.0161
1134.00,0.0160
1133.00,0.0160
1132.00,0.0160
1131.00,0.0160
1130.00,0.0160
1129.00,0.0160
1128.00,0.0159
1127.00,0.0159
1126.00,0.0159
1125.00,0.0159
1124.00,0.0159
1123.00,0.0159
1122.00,0.0158
1121.00,0.0158
1120.00,0.0158
1119.00,0.0157
1118.00,0.0157
1117.00,0.0157
1116.00,0.0157
1115.00,0.0157
1114.00,0.0157
1113.00,0.0157
1112.00,0.0157
1111.00,0.0157
1110.00,0.0157
1109.00,0.0157
1108.00,0.0157
1107.00,0.0158
1106.00,0.0158
1105.00,0.0158
1104.00,0.0159
1103.00,0.0160
1102.00,0.0160
1101.00,0.0161
1100.00,0.0161
1099.00,0.0162
1098.00,0.0162
1097.00,0.0163
1096.00,0.0164
1095.00,0.0166
1094.00,0.0167
1093.00,0.0169
1092.00,0.0171
1091.00,0.0173
1090.00,0.0175
1089.00,0.0177
1088.00,0.0180
1087.00,0.0183
1086.00,0.0185
1085.00,0.0188
1084.00,0.0191
1083.00,0.0194
1082.00,0.0197
1081.00,0.0200
1080.00,0.0203
1079.00,0.0206
1078.00,0.0209
1077.00,0.0212
1076.00,0.0214
1075.00,0.0216
1074.00,0.0218
1073.00,0.0219
1072.00,0.0221
1071.00,0.0222
1070.00,0.0223
1069.00,0.0224
1068.00,0.0225
1067.00,0.0226
1066.00,0.0226
1065.00,0.0226
1064.00,0.0226
1063.00,0.0226
1062.00,0.0225
1061.00,0.0225
1060.00,0.0224
1059.00,0.0223
1058.00,0.0222
1057.00,0.0221
1056.00,0.0220
1055.00,0.0219
1054.00,0.0218
1053.00,0.0217
1052.00,0.0216
1051.00,0.0215
1050.00,0.0214
1049.00,0.0212
1048.00,0.0211
1047.00,0.0210
1046.00,0.0209
1045.00,0.0207
1044.00,0.0206
1043.00,0.0204
1042.00,0.0202
1041.00,0.0200
1040.00,0.0198
1039.00,0.0196
1038.00,0.0194
1037.00,0.0192
1036.00,0.0191
1035.00,0.0189
1034.00,0.0187
1033.00,0.0186
1032.00,0.0184
1031.00,0.0182
1030.00,0.0181
1029.00,0.0179
1028.00,0.0176
1027.00,0.0174
1026.00,0.0172
1025.00,0.0170
1024.00,0.0168
1023.00,0.0166
1022.00,0.0164
1021.00,0.0162
1020.00,0.0160
1019.00,0.0158
1018.00,0.0156
1017.00,0.0155
1016.00,0.0153
1015.00,0.0152
1014.00,0.0150
1013.00,0.0149
1012.00,0.0148
1011.00,0.0147
1010.00,0.0146
1009.00,0.0144
1008.00,0.0143
1007.00,0.0142
1006.00,0.0141
1005.00,0.0141
1004.00,0.0140
1003.00,0.0139
1002.00,0.0138
1001.00,0.0138
1000.00,0.0137
999.00,0.0136
998.00,0.0136
997.00,0.0135
996.00,0.0135
995.00,0.0134
994.00,0.0134
993.00,0.0133
992.00,0.0133
991.00,0.0132
990.00,0.0131
989.00,0.0131
988.00,0.0130
987.00,0.0130
986.00,0.0129
985.00,0.0128
984.00,0.0128
983.00,0.0128
982.00,0.0127
981.00,0.0127
980.00,0.0126
979.00,0.0126
978.00,0.0126
977.00,0.0126
976.00,0.0126
975.00,0.0127
974.00,0.0127
973.00,0.0127
972.00,0.0127
971.00,0.0127
970.00,0.0128
969.00,0.0129
968.00,0.0130
967.00,0.0131
966.00,0.0132
965.00,0.0132
964.00,0.0133
963.00,0.0134
962.00,0.0134
961.00,0.0134
960.00,0.0134
959.00,0.0134
958.00,0.0133
957.00,0.0133
956.00,0.0132
955.00,0.0131
954.00,0.0131
953.00,0.0130
952.00,0.0130
951.00,0.0129
950.00,0.0129
949.00,0.0128
948.00,0.0128
947.00,0.0127
946.00,0.0127
945.00,0.0127
944.00,0.0126
943.00,0.0126
942.00,0.0126
941.00,0.0126
940.00,0.0126
939.00,0.0125
938.00,0.0125
937.00,0.0125
936.00,0.0125
935.00,0.0125
934.00,0.0125
933.00,0.0124
932.00,0.0124
931.00,0.0124
930.00,0.0124
929.00,0.0124
928.00,0.0123
927.00,0.0123
926.00,0.0122
925.00,0.0122
924.00,0.0121
923.00,0.0121
922.00,0.0120
921.00,0.0119
920.00,0.0119
919.00,0.0119
918.00,0.0118
917.00,0.0118
916.00,0.0118
915.00,0.0118
914.00,0.0118
913.00,0.0118
912.00,0.0118
911.00,0.0118
910.00,0.0118
909.00,0.0118
908.00,0.0118
907.00,0.0118
906.00,0.0118
905.00,0.0118
904.00,0.0119
903.00,0.0119
902.00,0.0119
901.00,0.0120
900.00,0.0120
899.00,0.0119
898.00,0.0119
897.00,0.0119
896.00,0.0118
895.00,0.0118
894.00,0.0117
893.00,0.0117
892.00,0.0116
891.00,0.0116
890.00,0.0115
889.00,0.0115
888.00,0.0114
887.00,0.0114
886.00,0.0114
885.00,0.0113
884.00,0.0113
883.00,0.0113
882.00,0.0113
881.00,0.0113
880.00,0.0112
879.00,0.0112
878.00,0.0112
877.00,0.0112
876.00,0.0113
875.00,0.0113
874.00,0.0113
873.00,0.0113
872.00,0.0113
871.00,0.0113
870.00,0.0113
869.00,0.0113
868.00,0.0113
867.00,0.0113
866.00,0.0113
865.00,0.0113
864.00,0.0113
863.00,0.0113
862.00,0.0113
861.00,0.0113
860.00,0.0113
859.00,0.0113
858.00,0.0113
857.00,0.0113
856.00,0.0114
855.00,0.0114
854.00,0.0114
853.00,0.0115
852.00,0.0115
851.00,0.0115
850.00,0.0115
849.00,0.0115
848.00,0.0115
847.00,0.0116
846.00,0.0116
845.00,0.0117
844.00,0.0117
843.00,0.0117
842.00,0.0118
841.00,0.0118
840.00,0.0119
839.00,0.0120
838.00,0.0121
837.00,0.0122
836.00,0.0123
835.00,0.0124
834.00,0.0125
833.00,0.0126
832.00,0.0127
831.00,0.0128
830.00,0.0129
829.00,0.0130
828.00,0.0131
827.00,0.0132
826.00,0.0133
825.00,0.0133
824.00,0.0134
823.00,0.0134
822.00,0.0135
821.00,0.0136
820.00,0.0136
819.00,0.0137
818.00,0.0138
817.00,0.0139
816.00,0.0140
815.00,0.0141
814.00,0.0142
813.00,0.0143
812.00,0.0144
811.00,0.0145
810.00,0.0145
809.00,0.0145
808.00,0.0146
807.00,0.0146
806.00,0.0147
805.00,0.0147
804.00,0.0148
803.00,0.0149
802.00,0.0149
801.00,0.0150
800.00,0.0151
799.00,0.0152
798.00,0.0153
797.00,0.0154
796.00,0.0155
795.00,0.0156
794.00,0.0158
793.00,0.0159
792.00,0.0160
791.00,0.0162
790.00,0.0163
789.00,0.0164
788.00,0.0166
787.00,0.0168
786.00,0.0170
785.00,0.0171
784.00,0.0173
783.00,0.0175
782.00,0.0177
781.00,0.0178
780.00,0.0179
779.00,0.0181
778.00,0.0183
777.00,0.0184
776.00,0.0185
775.00,0.0186
774.00,0.0187
773.00,0.0188
772.00,0.0189
771.00,0.0190
770.00,0.0191
769.00,0.0191
768.00,0.0192
767.00,0.0193
766.00,0.0193
765.00,0.0194
764.00,0.0194
763.00,0.0194
762.00,0.0195
761.00,0.0195
760.00,0.0196
759.00,0.0197
758.00,0.0198
757.00,0.0198
756.00,0.0199
755.00,0.0200
754.00,0.0201
753.00,0.0202
752.00,0.0203
751.00,0.0204
750.00,0.0205
749.00,0.0206
748.00,0.0207
747.00,0.0208
746.00,0.0209
745.00,0.0209
744.00,0.0210
743.00,0.0211
742.00,0.0212
741.00,0.0212
740.00,0.0213
739.00,0.0214
738.00,0.0215
737.00,0.0216
736.00,0.0217
735.00,0.0219
734.00,0.0220
733.00,0.0222
732.00,0.0224
731.00,0.0226
730.00,0.0228
729.00,0.0230
728.00,0.0233
727.00,0.0236
726.00,0.0240
725.00,0.0243
724.00,0.0246
723.00,0.0249
722.00,0.0252
721.00,0.0256
720.00,0.0259
719.00,0.0263
718.00,0.0267
717.00,0.0271
716.00,0.0275
715.00,0.0279
714.00,0.0282
713.00,0.0286
712.00,0.0289
711.00,0.0293
710.00,0.0296
709.00,0.0299
708.00,0.0302
707.00,0.0306
706.00,0.0309
705.00,0.0312
704.00,0.0315
703.00,0.0318
702.00,0.0321
701.00,0.0323
700.00,0.0324
699.00,0.0325
698.00,0.0326
697.00,0.0326
696.00,0.0325
695.00,0.0325
694.00,0.0325
693.00,0.0325
692.00,0.0325
691.00,0.0326
690.00,0.0326
689.00,0.0326
688.00,0.0327
687.00,0.0327
686.00,0.0328
685.00,0.0329
684.00,0.0329
683.00,0.0329
682.00,0.0329
681.00,0.0329
680.00,0.0329
679.00,0.0330
678.00,0.0330
677.00,0.0330
676.00,0.0331
675.00,0.0331
674.00,0.0331
673.00,0.0331
672.00,0.0330
671.00,0.0329
670.00,0.0327
669.00,0.0326
668.00,0.0328
667.00,0.0330
666.00,0.0332
665.00,0.0333
664.00,0.0335
663.00,0.0336
662.00,0.0336
661.00,0.0337
660.00,0.0337
659.00,0.0338
658.00,0.0338
657.00,0.0339
656.00,0.0339
655.00,0.0340
654.00,0.0341
653.00,0.0341
652.00,0.0342
651.00,0.0343
650.00,0.0344
649.00,0.0345
648.00,0.0346
647.00,0.0348
646.00,0.0349
645.00,0.0350
644.00,0.0351
643.00,0.0352
642.00,0.0353
641.00,0.0355
640.00,0.0357
639.00,0.0358
638.00,0.0360
637.00,0.0361
636.00,0.0362
635.00,0.0363
634.00,0.0364
633.00,0.0365
632.00,0.0366
631.00,0.0368
630.00,0.0369
629.00,0.0370
628.00,0.0371
627.00,0.0371
626.00,0.0371
625.00,0.0371
624.00,0.0372
623.00,0.0372
622.00,0.0371
621.00,0.0371
620.00,0.0371
619.00,0.0370
618.00,0.0369
617.00,0.0369
616.00,0.0368
615.00,0.0367
614.00,0.0366
613.00,0.0365
612.00,0.0364
611.00,0.0363
610.00,0.0362
609.00,0.0361
608.00,0.0361
607.00,0.0360
606.00,0.0360
605.00,0.0359
604.00,0.0359
603.00,0.0359
602.00,0.0358
601.00,0.0359
600.00,0.0359
599.00,0.0359
598.00,0.0359
597.00,0.0358
596.00,0.0358
595.00,0.0358
594.00,0.0358
593.00,0.0358
592.00,0.0358
591.00,0.0358
590.00,0.0358
589.00,0.0358
588.00,0.0358
587.00,0.0358
586.00,0.0359
585.00,0.0360
584.00,0.0360
583.00,0.0361
582.00,0.0360
581.00,0.0360
580.00,0.0360
579.00,0.0360
578.00,0.0360
577.00,0.0361
576.00,0.0362
575.00,0.0363
574.00,0.0363
573.00,0.0364
572.00,0.0365
571.00,0.0366
570.00,0.0366
569.00,0.0366
568.00,0.0366
567.00,0.0367
566.00,0.0366
565.00,0.0366
564.00,0.0366
563.00,0.0367
562.00,0.0367
561.00,0.0368
560.00,0.0369
559.00,0.0369
558.00,0.0370
557.00,0.0370
556.00,0.0370
555.00,0.0370
554.00,0.0370
553.00,0.0370
552.00,0.0371
551.00,0.0371
550.00,0.0372
549.00,0.0372
548.00,0.0372
547.00,0.0373
546.00,0.0373
545.00,0.0374
544.00,0.0374
543.00,0.0374
542.00,0.0374
541.00,0.0374
540.00,0.0374
539.00,0.0375
538.00,0.0375
537.00,0.0375
536.00,0.0375
535.00,0.0375
534.00,0.0375
533.00,0.0375
532.00,0.0375
531.00,0.0375
530.00,0.0375
529.00,0.0375
528.00,0.0376
527.00,0.0377
526.00,0.0377
525.00,0.0378
524.00,0.0379
523.00,0.0380
522.00,0.0380
521.00,0.0380
520.00,0.0380
519.00,0.0380
518.00,0.0379
517.00,0.0379
516.00,0.0379
515.00,0.0379
514.00,0.0379
513.00,0.0377
512.00,0.0376
511.00,0.0374
510.00,0.0374
509.00,0.0375
508.00,0.0376
507.00,0.0377
506.00,0.0378
505.00,0.0378
504.00,0.0378
503.00,0.0378
502.00,0.0377
501.00,0.0376
500.00,0.0376
499.00,0.0376
498.00,0.0376
497.00,0.0375
496.00,0.0375
495.00,0.0374
494.00,0.0374
493.00,0.0375
492.00,0.0376
491.00,0.0376
490.00,0.0375
489.00,0.0374
488.00,0.0374
487.00,0.0375
486.00,0.0376
485.00,0.0375
484.00,0.0375
483.00,0.0374
482.00,0.0373
481.00,0.0373
480.00,0.0374
479.00,0.0375
478.00,0.0375
477.00,0.0375
476.00,0.0376
475.00,0.0376
474.00,0.0375
473.00,0.0373
472.00,0.0372
471.00,0.0371
470.00,0.0371
469.00,0.0372
468.00,0.0373
467.00,0.0373
466.00,0.0372
465.00,0.0371
464.00,0.0370
463.00,0.0370
462.00,0.0370
461.00,0.0372
460.00,0.0373
459.00,0.0374
458.00,0.0375
457.00,0.0375
456.00,0.0375
455.00,0.0375
454.00,0.0374
453.00,0.0373
452.00,0.0373
451.00,0.0373
450.00,0.0373
449.00,0.0372
448.00,0.0372
447.00,0.0370
446.00,0.0369
445.00,0.0368
444.00,0.0367
443.00,0.0366
442.00,0.0363
441.00,0.0360
440.00,0.0358
439.00,0.0357
438.00,0.0355
437.00,0.0354
436.00,0.0353
435.00,0.0351
434.00,0.0348
433.00,0.0345
432.00,0.0343
431.00,0.0342
430.00,0.0340
429.00,0.0338
428.00,0.0337
427.00,0.0336
426.00,0.0335
425.00,0.0333
424.00,0.0333
423.00,0.0332
422.00,0.0331
421.00,0.0331
420.00,0.0329
419.00,0.0327
418.00,0.0322
417.00,0.0318
416.00,0.0317
415.00,0.0316
414.00,0.0315
413.00,0.0314
412.00,0.0314
411.00,0.0314
410.00,0.0313
409.00,0.0314
408.00,0.0315
407.00,0.0314
406.00,0.0312
405.00,0.0309
404.00,0.0308
403.00,0.0307
402.00,0.0306
401.00,0.0306
400.00,0.0308
