PE IR       SUBTECH     SPECTRUM    ASCII       PEDS        4.00        
   -1
pre_benzoic_acid_PE_8_18_24.ASC
24/08/18
20:41:12.00
24/08/18
20:44:09.00
Yarger Lab
Sample 293 By YargerLab Date Sunday, August 18 2024
400.000000
#HDR
-1
-1
#GR
cm-1
%T
1.0
0.0
4000.000000
-1.000000
3601
8
95.498104
24.221615
#DATA
4000.000000	95.151324
3999.000000	95.160648
3998.000000	95.169971
3997.000000	95.179301
3996.000000	95.187021
3995.000000	95.192529
3994.000000	95.197055
3993.000000	95.198958
3992.000000	95.199619
3991.000000	95.199847
3990.000000	95.200149
3989.000000	95.200487
3988.000000	95.200600
3987.000000	95.200584
3986.000000	95.200966
3985.000000	95.202067
3984.000000	95.203326
3983.000000	95.203545
3982.000000	95.202039
3981.000000	95.199584
3980.000000	95.197953
3979.000000	95.198322
3978.000000	95.200275
3977.000000	95.202433
3976.000000	95.203843
3975.000000	95.204684
3974.000000	95.205832
3973.000000	95.207997
3972.000000	95.211238
3971.000000	95.214973
3970.000000	95.218273
3969.000000	95.220392
3968.000000	95.221207
3967.000000	95.221203
3966.000000	95.221116
3965.000000	95.221514
3964.000000	95.222558
3963.000000	95.223880
3962.000000	95.224749
3961.000000	95.224608
3960.000000	95.223506
3959.000000	95.221992
3958.000000	95.220670
3957.000000	95.219842
3956.000000	95.219477
3955.000000	95.219218
3954.000000	95.218494
3953.000000	95.216843
3952.000000	95.214270
3951.000000	95.211282
3950.000000	95.208576
3949.000000	95.206825
3948.000000	95.206381
3947.000000	95.206758
3946.000000	95.206646
3945.000000	95.204985
3944.000000	95.202164
3943.000000	95.199939
3942.000000	95.199880
3941.000000	95.201825
3940.000000	95.204193
3939.000000	95.205734
3938.000000	95.206411
3937.000000	95.206756
3936.000000	95.207002
3935.000000	95.206879
3934.000000	95.206275
3933.000000	95.205903
3932.000000	95.207029
3931.000000	95.210157
3930.000000	95.214023
3929.000000	95.216543
3928.000000	95.216291
3927.000000	95.213148
3926.000000	95.208447
3925.000000	95.204648
3924.000000	95.203759
3923.000000	95.205342
3922.000000	95.207091
3921.000000	95.207438
3920.000000	95.206494
3919.000000	95.205017
3918.000000	95.203839
3917.000000	95.203940
3916.000000	95.205857
3915.000000	95.208590
3914.000000	95.210276
3913.000000	95.210247
3912.000000	95.209673
3911.000000	95.210154
3910.000000	95.212538
3909.000000	95.216666
3908.000000	95.221982
3907.000000	95.227364
3906.000000	95.231366
3905.000000	95.233337
3904.000000	95.234382
3903.000000	95.235711
3902.000000	95.236104
3901.000000	95.233735
3900.000000	95.229645
3899.000000	95.226680
3898.000000	95.225708
3897.000000	95.225307
3896.000000	95.224625
3895.000000	95.224316
3894.000000	95.224339
3893.000000	95.223420
3892.000000	95.222134
3891.000000	95.223769
3890.000000	95.229467
3889.000000	95.234968
3888.000000	95.236061
3887.000000	95.232768
3886.000000	95.228433
3885.000000	95.227258
3884.000000	95.229574
3883.000000	95.231056
3882.000000	95.229222
3881.000000	95.226050
3880.000000	95.224892
3879.000000	95.226468
3878.000000	95.227195
3877.000000	95.224126
3876.000000	95.219290
3875.000000	95.216945
3874.000000	95.219255
3873.000000	95.224042
3872.000000	95.226220
3871.000000	95.223406
3870.000000	95.219279
3869.000000	95.219057
3868.000000	95.221524
3867.000000	95.221084
3866.000000	95.217110
3865.000000	95.213548
3864.000000	95.213322
3863.000000	95.216016
3862.000000	95.218755
3861.000000	95.219541
3860.000000	95.219471
3859.000000	95.221016
3858.000000	95.226725
3857.000000	95.237430
3856.000000	95.250156
3855.000000	95.256558
3854.000000	95.250972
3853.000000	95.243680
3852.000000	95.245857
3851.000000	95.247929
3850.000000	95.241334
3849.000000	95.232593
3848.000000	95.228910
3847.000000	95.231017
3846.000000	95.236098
3845.000000	95.241590
3844.000000	95.247015
3843.000000	95.252895
3842.000000	95.257993
3841.000000	95.259250
3840.000000	95.255439
3839.000000	95.249190
3838.000000	95.245419
3837.000000	95.246669
3836.000000	95.250885
3835.000000	95.253925
3834.000000	95.253960
3833.000000	95.252520
3832.000000	95.252502
3831.000000	95.254914
3830.000000	95.257337
3829.000000	95.256601
3828.000000	95.252912
3827.000000	95.250212
3826.000000	95.252250
3825.000000	95.258510
3824.000000	95.264709
3823.000000	95.266270
3822.000000	95.262328
3821.000000	95.258754
3820.000000	95.262309
3819.000000	95.268407
3818.000000	95.268546
3817.000000	95.263303
3816.000000	95.259549
3815.000000	95.262166
3814.000000	95.267122
3813.000000	95.267550
3812.000000	95.264403
3811.000000	95.263081
3810.000000	95.264828
3809.000000	95.266524
3808.000000	95.265921
3807.000000	95.265289
3806.000000	95.267756
3805.000000	95.271155
3804.000000	95.271192
3803.000000	95.267720
3802.000000	95.263848
3801.000000	95.264247
3800.000000	95.270085
3799.000000	95.274703
3798.000000	95.273918
3797.000000	95.271343
3796.000000	95.271415
3795.000000	95.274750
3794.000000	95.278578
3793.000000	95.280946
3792.000000	95.282827
3791.000000	95.285355
3790.000000	95.287617
3789.000000	95.288287
3788.000000	95.287372
3787.000000	95.285585
3786.000000	95.283281
3785.000000	95.281233
3784.000000	95.280880
3783.000000	95.282374
3782.000000	95.283700
3781.000000	95.283134
3780.000000	95.281518
3779.000000	95.281183
3778.000000	95.282544
3777.000000	95.283483
3776.000000	95.283395
3775.000000	95.284364
3774.000000	95.287758
3773.000000	95.291973
3772.000000	95.294537
3771.000000	95.295004
3770.000000	95.295357
3769.000000	95.297215
3768.000000	95.299201
3767.000000	95.298586
3766.000000	95.295403
3765.000000	95.292629
3764.000000	95.292483
3763.000000	95.293692
3762.000000	95.293372
3761.000000	95.290677
3760.000000	95.287030
3759.000000	95.284515
3758.000000	95.284375
3757.000000	95.286791
3756.000000	95.291950
3755.000000	95.299308
3754.000000	95.306660
3753.000000	95.310255
3752.000000	95.307472
3751.000000	95.300821
3750.000000	95.296901
3749.000000	95.299037
3748.000000	95.304903
3747.000000	95.311269
3746.000000	95.315499
3745.000000	95.316069
3744.000000	95.318065
3743.000000	95.325544
3742.000000	95.329518
3741.000000	95.325884
3740.000000	95.323973
3739.000000	95.329290
3738.000000	95.337304
3737.000000	95.340943
3736.000000	95.339549
3735.000000	95.337866
3734.000000	95.337110
3733.000000	95.334342
3732.000000	95.329322
3731.000000	95.323821
3730.000000	95.316667
3729.000000	95.306040
3728.000000	95.293724
3727.000000	95.283850
3726.000000	95.278566
3725.000000	95.276439
3724.000000	95.274972
3723.000000	95.273700
3722.000000	95.273447
3721.000000	95.274828
3720.000000	95.278436
3719.000000	95.284692
3718.000000	95.293406
3717.000000	95.303760
3716.000000	95.314966
3715.000000	95.325914
3714.000000	95.334154
3713.000000	95.336484
3712.000000	95.332044
3711.000000	95.324422
3710.000000	95.316955
3709.000000	95.310286
3708.000000	95.306114
3707.000000	95.307485
3706.000000	95.315410
3705.000000	95.327970
3704.000000	95.342414
3703.000000	95.356204
3702.000000	95.367497
3701.000000	95.375698
3700.000000	95.381127
3699.000000	95.383418
3698.000000	95.382692
3697.000000	95.380999
3696.000000	95.381126
3695.000000	95.383935
3694.000000	95.387769
3693.000000	95.391159
3692.000000	95.394340
3691.000000	95.397603
3690.000000	95.399507
3689.000000	95.399324
3688.000000	95.398691
3687.000000	95.397086
3686.000000	95.391317
3685.000000	95.381724
3684.000000	95.372758
3683.000000	95.367044
3682.000000	95.363180
3681.000000	95.359432
3680.000000	95.357385
3679.000000	95.359036
3678.000000	95.361667
3677.000000	95.360025
3676.000000	95.355339
3675.000000	95.357019
3674.000000	95.365523
3673.000000	95.367996
3672.000000	95.359071
3671.000000	95.344968
3670.000000	95.332146
3669.000000	95.323614
3668.000000	95.316422
3667.000000	95.305454
3666.000000	95.291273
3665.000000	95.278300
3664.000000	95.269842
3663.000000	95.266926
3662.000000	95.269087
3661.000000	95.275619
3660.000000	95.285985
3659.000000	95.298694
3658.000000	95.310873
3657.000000	95.321112
3656.000000	95.331564
3655.000000	95.343994
3654.000000	95.355401
3653.000000	95.362894
3652.000000	95.367187
3651.000000	95.368394
3650.000000	95.365874
3649.000000	95.364529
3648.000000	95.371416
3647.000000	95.385221
3646.000000	95.398469
3645.000000	95.407075
3644.000000	95.412798
3643.000000	95.418892
3642.000000	95.426034
3641.000000	95.432478
3640.000000	95.437016
3639.000000	95.440085
3638.000000	95.442645
3637.000000	95.445070
3636.000000	95.447577
3635.000000	95.450929
3634.000000	95.455836
3633.000000	95.461952
3632.000000	95.467548
3631.000000	95.470152
3630.000000	95.468040
3629.000000	95.464885
3628.000000	95.468215
3627.000000	95.474936
3626.000000	95.474883
3625.000000	95.468542
3624.000000	95.463919
3623.000000	95.464333
3622.000000	95.466111
3621.000000	95.464183
3620.000000	95.458739
3619.000000	95.455063
3618.000000	95.455690
3617.000000	95.456822
3616.000000	95.454919
3615.000000	95.451348
3614.000000	95.449482
3613.000000	95.451617
3612.000000	95.457797
3611.000000	95.465234
3610.000000	95.470037
3609.000000	95.471490
3608.000000	95.473428
3607.000000	95.479080
3606.000000	95.486295
3605.000000	95.490929
3604.000000	95.492331
3603.000000	95.492481
3602.000000	95.492731
3601.000000	95.493244
3600.000000	95.493829
3599.000000	95.493458
3598.000000	95.490282
3597.000000	95.484273
3596.000000	95.478632
3595.000000	95.477323
3594.000000	95.480865
3593.000000	95.486494
3592.000000	95.491233
3591.000000	95.493552
3590.000000	95.492538
3589.000000	95.488636
3588.000000	95.485602
3587.000000	95.487838
3586.000000	95.493888
3585.000000	95.498021
3584.000000	95.498104
3583.000000	95.495950
3582.000000	95.492699
3581.000000	95.488251
3580.000000	95.483665
3579.000000	95.480598
3578.000000	95.478969
3577.000000	95.477804
3576.000000	95.477414
3575.000000	95.478746
3574.000000	95.480968
3573.000000	95.482349
3572.000000	95.482587
3571.000000	95.482343
3570.000000	95.481068
3569.000000	95.477708
3568.000000	95.473953
3567.000000	95.473889
3566.000000	95.478297
3565.000000	95.483248
3564.000000	95.486119
3563.000000	95.488053
3562.000000	95.490050
3561.000000	95.491232
3560.000000	95.490954
3559.000000	95.489579
3558.000000	95.487220
3557.000000	95.483916
3556.000000	95.480873
3555.000000	95.479660
3554.000000	95.480433
3553.000000	95.482367
3552.000000	95.485102
3551.000000	95.487963
3550.000000	95.489062
3549.000000	95.487399
3548.000000	95.484894
3547.000000	95.484321
3546.000000	95.485940
3545.000000	95.487988
3544.000000	95.489492
3543.000000	95.490505
3542.000000	95.490704
3541.000000	95.489923
3540.000000	95.489217
3539.000000	95.489356
3538.000000	95.489107
3537.000000	95.486990
3536.000000	95.484009
3535.000000	95.482310
3534.000000	95.481954
3533.000000	95.481421
3532.000000	95.480299
3531.000000	95.479294
3530.000000	95.478233
3529.000000	95.476655
3528.000000	95.475688
3527.000000	95.476743
3526.000000	95.478729
3525.000000	95.479051
3524.000000	95.477027
3523.000000	95.474206
3522.000000	95.471842
3521.000000	95.470145
3520.000000	95.469476
3519.000000	95.469958
3518.000000	95.470386
3517.000000	95.469551
3516.000000	95.468050
3515.000000	95.467024
3514.000000	95.465818
3513.000000	95.463008
3512.000000	95.459162
3511.000000	95.456453
3510.000000	95.455728
3509.000000	95.456065
3508.000000	95.456749
3507.000000	95.457597
3506.000000	95.457903
3505.000000	95.457089
3504.000000	95.455956
3503.000000	95.455543
3502.000000	95.455209
3501.000000	95.453763
3500.000000	95.451743
3499.000000	95.450391
3498.000000	95.449236
3497.000000	95.447014
3496.000000	95.444211
3495.000000	95.442464
3494.000000	95.442016
3493.000000	95.441934
3492.000000	95.441999
3491.000000	95.442243
3490.000000	95.441449
3489.000000	95.438487
3488.000000	95.434554
3487.000000	95.431816
3486.000000	95.430423
3485.000000	95.429199
3484.000000	95.428474
3483.000000	95.429650
3482.000000	95.432434
3481.000000	95.435009
3480.000000	95.436563
3479.000000	95.437365
3478.000000	95.436952
3477.000000	95.434603
3476.000000	95.431223
3475.000000	95.428666
3474.000000	95.427548
3473.000000	95.427453
3472.000000	95.428526
3471.000000	95.430697
3470.000000	95.432114
3469.000000	95.430752
3468.000000	95.427158
3467.000000	95.423430
3466.000000	95.420113
3465.000000	95.416327
3464.000000	95.412301
3463.000000	95.409155
3462.000000	95.406658
3461.000000	95.403640
3460.000000	95.400288
3459.000000	95.397757
3458.000000	95.395982
3457.000000	95.394037
3456.000000	95.392055
3455.000000	95.390539
3454.000000	95.388427
3453.000000	95.384324
3452.000000	95.379192
3451.000000	95.375461
3450.000000	95.373748
3449.000000	95.372486
3448.000000	95.370282
3447.000000	95.366647
3446.000000	95.361026
3445.000000	95.353545
3444.000000	95.346419
3443.000000	95.342372
3442.000000	95.341902
3441.000000	95.343835
3440.000000	95.347730
3439.000000	95.353421
3438.000000	95.358811
3437.000000	95.360572
3436.000000	95.357084
3435.000000	95.349214
3434.000000	95.338946
3433.000000	95.328827
3432.000000	95.321399
3431.000000	95.316857
3430.000000	95.312085
3429.000000	95.304034
3428.000000	95.293056
3427.000000	95.281283
3426.000000	95.269545
3425.000000	95.258240
3424.000000	95.249395
3423.000000	95.244665
3422.000000	95.242242
3421.000000	95.238638
3420.000000	95.233050
3419.000000	95.227502
3418.000000	95.223785
3417.000000	95.222840
3416.000000	95.225570
3415.000000	95.231088
3414.000000	95.235290
3413.000000	95.234327
3412.000000	95.228736
3411.000000	95.221306
3410.000000	95.212030
3409.000000	95.198837
3408.000000	95.182872
3407.000000	95.169772
3406.000000	95.165644
3405.000000	95.173821
3404.000000	95.193999
3403.000000	95.220360
3402.000000	95.240990
3401.000000	95.243888
3400.000000	95.225996
3399.000000	95.195279
3398.000000	95.164461
3397.000000	95.144227
3396.000000	95.140156
3395.000000	95.150966
3394.000000	95.167607
3393.000000	95.176847
3392.000000	95.168639
3391.000000	95.141207
3390.000000	95.100652
3389.000000	95.057103
3388.000000	95.019688
3387.000000	94.991915
3386.000000	94.971545
3385.000000	94.956168
3384.000000	94.947366
3383.000000	94.947072
3382.000000	94.951937
3381.000000	94.955254
3380.000000	94.953531
3379.000000	94.947538
3378.000000	94.937460
3377.000000	94.921795
3376.000000	94.902795
3375.000000	94.889651
3374.000000	94.893704
3373.000000	94.920401
3372.000000	94.964739
3371.000000	95.012161
3370.000000	95.044398
3369.000000	95.047955
3368.000000	95.019993
3367.000000	94.967827
3366.000000	94.904834
3365.000000	94.846984
3364.000000	94.807997
3363.000000	94.791338
3362.000000	94.786357
3361.000000	94.776376
3360.000000	94.752447
3359.000000	94.718087
3358.000000	94.682382
3357.000000	94.653132
3356.000000	94.637114
3355.000000	94.641043
3354.000000	94.666694
3353.000000	94.704598
3352.000000	94.734902
3351.000000	94.737520
3350.000000	94.705319
3349.000000	94.650532
3348.000000	94.597804
3347.000000	94.567587
3346.000000	94.563250
3345.000000	94.572687
3344.000000	94.581167
3343.000000	94.582768
3342.000000	94.581400
3341.000000	94.582556
3340.000000	94.584109
3339.000000	94.574962
3338.000000	94.544301
3337.000000	94.493053
3336.000000	94.434435
3335.000000	94.382696
3334.000000	94.343337
3333.000000	94.314507
3332.000000	94.293884
3331.000000	94.281468
3330.000000	94.278066
3329.000000	94.283650
3328.000000	94.295058
3327.000000	94.303148
3326.000000	94.295723
3325.000000	94.267380
3324.000000	94.225171
3323.000000	94.181836
3322.000000	94.145163
3321.000000	94.116183
3320.000000	94.094304
3319.000000	94.079170
3318.000000	94.068851
3317.000000	94.060647
3316.000000	94.054014
3315.000000	94.050467
3314.000000	94.051528
3313.000000	94.059239
3312.000000	94.076372
3311.000000	94.102429
3310.000000	94.130636
3309.000000	94.152056
3308.000000	94.161551
3307.000000	94.157326
3306.000000	94.137368
3305.000000	94.101368
3304.000000	94.055332
3303.000000	94.009347
3302.000000	93.970992
3301.000000	93.943687
3300.000000	93.929454
3299.000000	93.928259
3298.000000	93.934693
3297.000000	93.940211
3296.000000	93.939669
3295.000000	93.932698
3294.000000	93.919107
3293.000000	93.896845
3292.000000	93.865359
3291.000000	93.827774
3290.000000	93.789022
3289.000000	93.754187
3288.000000	93.727791
3287.000000	93.711233
3286.000000	93.700691
3285.000000	93.690462
3284.000000	93.678391
3283.000000	93.665883
3282.000000	93.653808
3281.000000	93.641708
3280.000000	93.630695
3279.000000	93.623060
3278.000000	93.618492
3277.000000	93.613802
3276.000000	93.606898
3275.000000	93.598546
3274.000000	93.589626
3273.000000	93.578856
3272.000000	93.563486
3271.000000	93.540592
3270.000000	93.508330
3269.000000	93.468343
3268.000000	93.426470
3267.000000	93.388642
3266.000000	93.356475
3265.000000	93.328159
3264.000000	93.302075
3263.000000	93.277164
3262.000000	93.251467
3261.000000	93.223948
3260.000000	93.196822
3259.000000	93.172713
3258.000000	93.149782
3257.000000	93.122877
3256.000000	93.089218
3255.000000	93.050351
3254.000000	93.009353
3253.000000	92.969140
3252.000000	92.932995
3251.000000	92.903192
3250.000000	92.878386
3249.000000	92.854321
3248.000000	92.827112
3247.000000	92.794474
3246.000000	92.755415
3245.000000	92.711453
3244.000000	92.667054
3243.000000	92.625988
3242.000000	92.587942
3241.000000	92.550779
3240.000000	92.514793
3239.000000	92.482469
3238.000000	92.455410
3237.000000	92.433940
3236.000000	92.417593
3235.000000	92.402820
3234.000000	92.382433
3233.000000	92.351520
3232.000000	92.313040
3231.000000	92.274304
3230.000000	92.238937
3229.000000	92.205742
3228.000000	92.173724
3227.000000	92.143609
3226.000000	92.114977
3225.000000	92.086119
3224.000000	92.056896
3223.000000	92.028359
3222.000000	91.999571
3221.000000	91.967948
3220.000000	91.932736
3219.000000	91.895328
3218.000000	91.856553
3217.000000	91.816349
3216.000000	91.775415
3215.000000	91.734141
3214.000000	91.690555
3213.000000	91.642600
3212.000000	91.591888
3211.000000	91.542284
3210.000000	91.495395
3209.000000	91.450266
3208.000000	91.406622
3207.000000	91.365224
3206.000000	91.325779
3205.000000	91.287546
3204.000000	91.251500
3203.000000	91.218958
3202.000000	91.188802
3201.000000	91.158927
3200.000000	91.129473
3199.000000	91.101889
3198.000000	91.075908
3197.000000	91.050438
3196.000000	91.026149
3195.000000	91.003683
3194.000000	90.980614
3193.000000	90.953785
3192.000000	90.923693
3191.000000	90.893005
3190.000000	90.861708
3189.000000	90.827556
3188.000000	90.790632
3187.000000	90.753710
3186.000000	90.718305
3185.000000	90.683862
3184.000000	90.650345
3183.000000	90.618107
3182.000000	90.585545
3181.000000	90.550233
3180.000000	90.512198
3179.000000	90.472840
3178.000000	90.431054
3177.000000	90.383672
3176.000000	90.329305
3175.000000	90.268877
3174.000000	90.203044
3173.000000	90.132344
3172.000000	90.059498
3171.000000	89.988375
3170.000000	89.921123
3169.000000	89.859071
3168.000000	89.805245
3167.000000	89.762399
3166.000000	89.729240
3165.000000	89.701635
3164.000000	89.676991
3163.000000	89.654546
3162.000000	89.632265
3161.000000	89.607448
3160.000000	89.580042
3159.000000	89.552354
3158.000000	89.525996
3157.000000	89.501667
3156.000000	89.480273
3155.000000	89.460219
3154.000000	89.434634
3153.000000	89.395680
3152.000000	89.342360
3151.000000	89.281004
3150.000000	89.218640
3149.000000	89.158989
3148.000000	89.103651
3147.000000	89.052862
3146.000000	89.004741
3145.000000	88.957474
3144.000000	88.912629
3143.000000	88.873280
3142.000000	88.838664
3141.000000	88.803253
3140.000000	88.761135
3139.000000	88.709339
3138.000000	88.648074
3137.000000	88.580918
3136.000000	88.514025
3135.000000	88.451836
3134.000000	88.393510
3133.000000	88.335411
3132.000000	88.275849
3131.000000	88.214708
3130.000000	88.150364
3129.000000	88.081151
3128.000000	88.008980
3127.000000	87.937828
3126.000000	87.869227
3125.000000	87.802467
3124.000000	87.738118
3123.000000	87.677260
3122.000000	87.617891
3121.000000	87.556204
3120.000000	87.491273
3119.000000	87.424965
3118.000000	87.357547
3117.000000	87.286976
3116.000000	87.212403
3115.000000	87.134986
3114.000000	87.055745
3113.000000	86.975900
3112.000000	86.898680
3111.000000	86.827043
3110.000000	86.759589
3109.000000	86.691984
3108.000000	86.622214
3107.000000	86.551481
3106.000000	86.480559
3105.000000	86.408601
3104.000000	86.335055
3103.000000	86.259208
3102.000000	86.178197
3101.000000	86.088808
3100.000000	85.990836
3099.000000	85.885812
3098.000000	85.773727
3097.000000	85.655368
3096.000000	85.537634
3095.000000	85.432139
3094.000000	85.347321
3093.000000	85.284032
3092.000000	85.237732
3091.000000	85.201190
3090.000000	85.165834
3089.000000	85.124598
3088.000000	85.074771
3087.000000	85.015855
3086.000000	84.945430
3085.000000	84.859612
3084.000000	84.755857
3083.000000	84.631642
3082.000000	84.477855
3081.000000	84.276196
3080.000000	83.998411
3079.000000	83.606208
3078.000000	83.060547
3077.000000	82.346670
3076.000000	81.504436
3075.000000	80.634219
3074.000000	79.868378
3073.000000	79.322818
3072.000000	79.057437
3071.000000	79.060536
3070.000000	79.263346
3069.000000	79.573249
3068.000000	79.903889
3067.000000	80.194863
3066.000000	80.416836
3065.000000	80.570916
3064.000000	80.682853
3063.000000	80.788237
3062.000000	80.916496
3061.000000	81.081912
3060.000000	81.283371
3059.000000	81.507262
3058.000000	81.732058
3057.000000	81.936257
3056.000000	82.106574
3055.000000	82.239961
3054.000000	82.339263
3053.000000	82.410186
3052.000000	82.460292
3051.000000	82.496452
3050.000000	82.521824
3049.000000	82.535999
3048.000000	82.538330
3047.000000	82.528259
3046.000000	82.503873
3045.000000	82.463447
3044.000000	82.407764
3043.000000	82.339270
3042.000000	82.259118
3041.000000	82.167949
3040.000000	82.068869
3039.000000	81.966440
3038.000000	81.863629
3037.000000	81.762149
3036.000000	81.664773
3035.000000	81.573855
3034.000000	81.487705
3033.000000	81.401761
3032.000000	81.313435
3031.000000	81.223283
3030.000000	81.131929
3029.000000	81.038928
3028.000000	80.944722
3027.000000	80.850984
3026.000000	80.758859
3025.000000	80.668769
3024.000000	80.581296
3023.000000	80.496068
3022.000000	80.410746
3021.000000	80.323772
3020.000000	80.237249
3019.000000	80.154564
3018.000000	80.076115
3017.000000	80.000137
3016.000000	79.926689
3015.000000	79.857642
3014.000000	79.793828
3013.000000	79.735574
3012.000000	79.685209
3011.000000	79.645496
3010.000000	79.615542
3009.000000	79.591265
3008.000000	79.569332
3007.000000	79.547783
3006.000000	79.523920
3005.000000	79.495246
3004.000000	79.462580
3003.000000	79.429179
3002.000000	79.396818
3001.000000	79.365572
3000.000000	79.336988
2999.000000	79.314218
2998.000000	79.299023
2997.000000	79.291256
2996.000000	79.291101
2995.000000	79.298819
2994.000000	79.312492
2993.000000	79.328903
2992.000000	79.346548
2991.000000	79.365197
2990.000000	79.382768
2989.000000	79.395336
2988.000000	79.399629
2987.000000	79.392970
2986.000000	79.371926
2985.000000	79.335480
2984.000000	79.290105
2983.000000	79.248592
2982.000000	79.222604
2981.000000	79.217214
2980.000000	79.230894
2979.000000	79.256910
2978.000000	79.285249
2977.000000	79.307373
2976.000000	79.321132
2975.000000	79.329587
2974.000000	79.335623
2973.000000	79.339900
2972.000000	79.342955
2971.000000	79.345776
2970.000000	79.347978
2969.000000	79.348427
2968.000000	79.347855
2967.000000	79.348434
2966.000000	79.350953
2965.000000	79.355018
2964.000000	79.361544
2963.000000	79.371867
2962.000000	79.384438
2961.000000	79.395378
2960.000000	79.402385
2959.000000	79.405510
2958.000000	79.404300
2957.000000	79.397164
2956.000000	79.383826
2955.000000	79.366141
2954.000000	79.346699
2953.000000	79.328486
2952.000000	79.314809
2951.000000	79.306815
2950.000000	79.302254
2949.000000	79.299465
2948.000000	79.301750
2947.000000	79.314939
2946.000000	79.341746
2945.000000	79.381724
2944.000000	79.434903
2943.000000	79.501316
2942.000000	79.577368
2941.000000	79.657089
2940.000000	79.737350
2939.000000	79.818444
2938.000000	79.899995
2937.000000	79.979841
2936.000000	80.056863
2935.000000	80.130861
2934.000000	80.199308
2933.000000	80.257918
2932.000000	80.304640
2931.000000	80.340111
2930.000000	80.364026
2929.000000	80.374480
2928.000000	80.370612
2927.000000	80.352322
2926.000000	80.317799
2925.000000	80.264740
2924.000000	80.194369
2923.000000	80.111031
2922.000000	80.018463
2921.000000	79.919824
2920.000000	79.820862
2919.000000	79.729549
2918.000000	79.652186
2917.000000	79.592184
2916.000000	79.550864
2915.000000	79.525656
2914.000000	79.508171
2913.000000	79.488135
2912.000000	79.459577
2911.000000	79.420993
2910.000000	79.371624
2909.000000	79.311864
2908.000000	79.246419
2907.000000	79.181703
2906.000000	79.119070
2905.000000	79.054034
2904.000000	78.982287
2903.000000	78.903149
2902.000000	78.817265
2901.000000	78.725053
2900.000000	78.628204
2899.000000	78.529267
2898.000000	78.428937
2897.000000	78.326450
2896.000000	78.222898
2895.000000	78.121080
2894.000000	78.021840
2893.000000	77.923542
2892.000000	77.825667
2891.000000	77.730280
2890.000000	77.639632
2889.000000	77.555201
2888.000000	77.479228
2887.000000	77.414306
2886.000000	77.360820
2885.000000	77.316962
2884.000000	77.281236
2883.000000	77.252448
2882.000000	77.227458
2881.000000	77.202065
2880.000000	77.174728
2879.000000	77.147025
2878.000000	77.120480
2877.000000	77.095557
2876.000000	77.073752
2875.000000	77.057700
2874.000000	77.048943
2873.000000	77.048209
2872.000000	77.057940
2871.000000	77.081601
2870.000000	77.119985
2869.000000	77.170706
2868.000000	77.231309
2867.000000	77.300077
2866.000000	77.373480
2865.000000	77.445962
2864.000000	77.512453
2863.000000	77.568228
2862.000000	77.606349
2861.000000	77.618277
2860.000000	77.598363
2859.000000	77.545289
2858.000000	77.459116
2857.000000	77.340201
2856.000000	77.191106
2855.000000	77.016541
2854.000000	76.821209
2853.000000	76.611070
2852.000000	76.396885
2851.000000	76.193132
2850.000000	76.011201
2849.000000	75.854686
2848.000000	75.721142
2847.000000	75.605449
2846.000000	75.501598
2845.000000	75.404573
2844.000000	75.312472
2843.000000	75.225797
2842.000000	75.144208
2841.000000	75.065051
2840.000000	74.985148
2839.000000	74.902790
2838.000000	74.818415
2837.000000	74.735136
2836.000000	74.658086
2835.000000	74.591204
2834.000000	74.534757
2833.000000	74.487465
2832.000000	74.449964
2831.000000	74.424060
2830.000000	74.409589
2829.000000	74.404668
2828.000000	74.408673
2827.000000	74.422340
2826.000000	74.445130
2825.000000	74.475148
2824.000000	74.511547
2823.000000	74.554601
2822.000000	74.603636
2821.000000	74.657222
2820.000000	74.715387
2819.000000	74.779199
2818.000000	74.848325
2817.000000	74.921556
2816.000000	74.999471
2815.000000	75.084085
2814.000000	75.175814
2813.000000	75.273238
2812.000000	75.375783
2811.000000	75.483952
2810.000000	75.597051
2809.000000	75.713369
2808.000000	75.832714
2807.000000	75.956240
2806.000000	76.083617
2805.000000	76.212955
2804.000000	76.343610
2803.000000	76.476436
2802.000000	76.611159
2801.000000	76.746058
2800.000000	76.880353
2799.000000	77.014476
2798.000000	77.148008
2797.000000	77.280015
2796.000000	77.411467
2795.000000	77.544520
2794.000000	77.679216
2793.000000	77.813230
2792.000000	77.944509
2791.000000	78.071424
2790.000000	78.190264
2789.000000	78.295684
2788.000000	78.384231
2787.000000	78.454879
2786.000000	78.506848
2785.000000	78.540449
2784.000000	78.560568
2783.000000	78.576853
2782.000000	78.599575
2781.000000	78.636793
2780.000000	78.694423
2779.000000	78.774969
2778.000000	78.875364
2777.000000	78.988696
2776.000000	79.108688
2775.000000	79.230799
2774.000000	79.349929
2773.000000	79.460200
2772.000000	79.557106
2771.000000	79.637595
2770.000000	79.698617
2769.000000	79.739033
2768.000000	79.763389
2767.000000	79.780800
2766.000000	79.799623
2765.000000	79.825246
2764.000000	79.861496
2763.000000	79.910141
2762.000000	79.968596
2761.000000	80.031211
2760.000000	80.093739
2759.000000	80.154572
2758.000000	80.212402
2757.000000	80.266283
2756.000000	80.318268
2755.000000	80.372811
2754.000000	80.433262
2753.000000	80.501160
2752.000000	80.578338
2751.000000	80.666280
2750.000000	80.763136
2749.000000	80.864424
2748.000000	80.966581
2747.000000	81.066839
2746.000000	81.160177
2745.000000	81.240183
2744.000000	81.303140
2743.000000	81.348451
2742.000000	81.375150
2741.000000	81.381231
2740.000000	81.366807
2739.000000	81.334177
2738.000000	81.284705
2737.000000	81.218854
2736.000000	81.138938
2735.000000	81.049150
2734.000000	80.952835
2733.000000	80.852843
2732.000000	80.754409
2731.000000	80.663895
2730.000000	80.584667
2729.000000	80.517790
2728.000000	80.466391
2727.000000	80.435463
2726.000000	80.427188
2725.000000	80.439478
2724.000000	80.469954
2723.000000	80.517989
2722.000000	80.582003
2721.000000	80.658855
2720.000000	80.746349
2719.000000	80.843613
2718.000000	80.948565
2717.000000	81.057320
2716.000000	81.166761
2715.000000	81.274705
2714.000000	81.377280
2713.000000	81.469218
2712.000000	81.546998
2711.000000	81.608417
2710.000000	81.649400
2709.000000	81.664428
2708.000000	81.649939
2707.000000	81.604982
2706.000000	81.527618
2705.000000	81.414766
2704.000000	81.265988
2703.000000	81.083449
2702.000000	80.869449
2701.000000	80.626218
2700.000000	80.358529
2699.000000	80.073466
2698.000000	79.776371
2697.000000	79.470877
2696.000000	79.162220
2695.000000	78.857169
2694.000000	78.560668
2693.000000	78.275006
2692.000000	78.002221
2691.000000	77.744381
2690.000000	77.501447
2689.000000	77.271919
2688.000000	77.056122
2687.000000	76.855628
2686.000000	76.669717
2685.000000	76.495607
2684.000000	76.332045
2683.000000	76.180280
2682.000000	76.040937
2681.000000	75.913090
2680.000000	75.797072
2679.000000	75.694497
2678.000000	75.605386
2677.000000	75.527568
2676.000000	75.459541
2675.000000	75.401636
2674.000000	75.353400
2673.000000	75.313077
2672.000000	75.279880
2671.000000	75.254211
2670.000000	75.235281
2669.000000	75.220680
2668.000000	75.209270
2667.000000	75.202170
2666.000000	75.200325
2665.000000	75.203624
2664.000000	75.212359
2663.000000	75.227363
2662.000000	75.248370
2661.000000	75.274452
2660.000000	75.306467
2659.000000	75.346279
2658.000000	75.393597
2657.000000	75.446128
2656.000000	75.502791
2655.000000	75.563987
2654.000000	75.628232
2653.000000	75.691451
2652.000000	75.749989
2651.000000	75.801496
2650.000000	75.842877
2649.000000	75.871353
2648.000000	75.888781
2647.000000	75.902106
2646.000000	75.918736
2645.000000	75.943556
2644.000000	75.979941
2643.000000	76.029785
2642.000000	76.091665
2641.000000	76.162002
2640.000000	76.239191
2639.000000	76.324059
2638.000000	76.416645
2637.000000	76.516387
2636.000000	76.625055
2635.000000	76.745785
2634.000000	76.878416
2633.000000	77.019214
2632.000000	77.165490
2631.000000	77.316198
2630.000000	77.467881
2629.000000	77.614655
2628.000000	77.753142
2627.000000	77.882869
2626.000000	78.001285
2625.000000	78.102450
2624.000000	78.181960
2623.000000	78.239506
2622.000000	78.275212
2621.000000	78.288831
2620.000000	78.282339
2619.000000	78.258588
2618.000000	78.216758
2617.000000	78.152189
2616.000000	78.062259
2615.000000	77.947656
2614.000000	77.808278
2613.000000	77.644284
2612.000000	77.461667
2611.000000	77.272702
2610.000000	77.090059
2609.000000	76.924499
2608.000000	76.787428
2607.000000	76.689576
2606.000000	76.634913
2605.000000	76.620166
2604.000000	76.641460
2603.000000	76.695992
2602.000000	76.778797
2601.000000	76.883209
2600.000000	77.005728
2599.000000	77.146187
2598.000000	77.301005
2597.000000	77.462282
2596.000000	77.623992
2595.000000	77.783329
2594.000000	77.935355
2593.000000	78.072175
2592.000000	78.188582
2591.000000	78.283016
2590.000000	78.352451
2589.000000	78.391431
2588.000000	78.397845
2587.000000	78.372685
2586.000000	78.313523
2585.000000	78.215618
2584.000000	78.078697
2583.000000	77.907617
2582.000000	77.704636
2581.000000	77.467859
2580.000000	77.199435
2579.000000	76.907200
2578.000000	76.598382
2577.000000	76.277373
2576.000000	75.950531
2575.000000	75.627126
2574.000000	75.313442
2573.000000	75.011772
2572.000000	74.725937
2571.000000	74.462272
2570.000000	74.223528
2569.000000	74.008003
2568.000000	73.814875
2567.000000	73.644878
2566.000000	73.495711
2565.000000	73.361707
2564.000000	73.240451
2563.000000	73.133837
2562.000000	73.041457
2561.000000	72.959341
2560.000000	72.885653
2559.000000	72.822942
2558.000000	72.773050
2557.000000	72.734818
2556.000000	72.708647
2555.000000	72.696952
2554.000000	72.699410
2553.000000	72.712688
2552.000000	72.735732
2551.000000	72.770729
2550.000000	72.817472
2549.000000	72.872919
2548.000000	72.937122
2547.000000	73.012998
2546.000000	73.099326
2545.000000	73.189714
2544.000000	73.280563
2543.000000	73.374418
2542.000000	73.473522
2541.000000	73.576307
2540.000000	73.681541
2539.000000	73.790028
2538.000000	73.900486
2537.000000	74.009466
2536.000000	74.117115
2535.000000	74.227256
2534.000000	74.340455
2533.000000	74.453068
2532.000000	74.564105
2531.000000	74.676529
2530.000000	74.790366
2529.000000	74.901371
2528.000000	75.008492
2527.000000	75.116069
2526.000000	75.226855
2525.000000	75.339052
2524.000000	75.451800
2523.000000	75.566759
2522.000000	75.682430
2521.000000	75.793716
2520.000000	75.899202
2519.000000	76.002549
2518.000000	76.104845
2517.000000	76.202305
2516.000000	76.293198
2515.000000	76.380415
2514.000000	76.465331
2513.000000	76.545576
2512.000000	76.620761
2511.000000	76.693752
2510.000000	76.764688
2509.000000	76.830502
2508.000000	76.891723
2507.000000	76.953270
2506.000000	77.017070
2505.000000	77.080821
2504.000000	77.145327
2503.000000	77.215905
2502.000000	77.295006
2501.000000	77.380246
2500.000000	77.471088
2499.000000	77.569878
2498.000000	77.674937
2497.000000	77.779831
2496.000000	77.881617
2495.000000	77.982987
2494.000000	78.084805
2493.000000	78.183914
2492.000000	78.279519
2491.000000	78.374222
2490.000000	78.466976
2489.000000	78.552626
2488.000000	78.629819
2487.000000	78.702221
2486.000000	78.770684
2485.000000	78.831748
2484.000000	78.885394
2483.000000	78.936267
2482.000000	78.985974
2481.000000	79.032044
2480.000000	79.075455
2479.000000	79.121201
2478.000000	79.170020
2477.000000	79.217721
2476.000000	79.264023
2475.000000	79.313880
2474.000000	79.368878
2473.000000	79.425590
2472.000000	79.483781
2471.000000	79.547485
2470.000000	79.616652
2469.000000	79.686361
2468.000000	79.756206
2467.000000	79.831833
2466.000000	79.914913
2465.000000	80.000227
2464.000000	80.084512
2463.000000	80.169885
2462.000000	80.256514
2461.000000	80.340552
2460.000000	80.421638
2459.000000	80.504068
2458.000000	80.588238
2457.000000	80.669024
2456.000000	80.744606
2455.000000	80.818529
2454.000000	80.891428
2453.000000	80.959600
2452.000000	81.023726
2451.000000	81.090003
2450.000000	81.160209
2449.000000	81.229321
2448.000000	81.295195
2447.000000	81.361475
2446.000000	81.428817
2445.000000	81.492297
2444.000000	81.550246
2443.000000	81.607021
2442.000000	81.664438
2441.000000	81.718980
2440.000000	81.769509
2439.000000	81.819293
2438.000000	81.868551
2437.000000	81.913439
2436.000000	81.954174
2435.000000	81.995565
2434.000000	82.038094
2433.000000	82.077385
2432.000000	82.113587
2431.000000	82.152109
2430.000000	82.193720
2429.000000	82.233204
2428.000000	82.269205
2427.000000	82.305924
2426.000000	82.343879
2425.000000	82.378682
2424.000000	82.410340
2423.000000	82.443918
2422.000000	82.479469
2421.000000	82.511161
2420.000000	82.538115
2419.000000	82.566376
2418.000000	82.598514
2417.000000	82.630968
2416.000000	82.663282
2415.000000	82.700067
2414.000000	82.741994
2413.000000	82.784568
2412.000000	82.827943
2411.000000	82.878214
2410.000000	82.936622
2409.000000	82.996785
2408.000000	83.054367
2407.000000	83.110556
2406.000000	83.164428
2405.000000	83.211632
2404.000000	83.252697
2403.000000	83.293395
2402.000000	83.335205
2401.000000	83.374340
2400.000000	83.411138
2399.000000	83.450790
2398.000000	83.493767
2397.000000	83.535191
2396.000000	83.574951
2395.000000	83.618487
2394.000000	83.666220
2393.000000	83.712252
2392.000000	83.755266
2391.000000	83.800847
2390.000000	83.851125
2389.000000	83.902000
2388.000000	83.952645
2387.000000	84.008004
2386.000000	84.069512
2385.000000	84.132565
2384.000000	84.195338
2383.000000	84.260978
2382.000000	84.328595
2381.000000	84.390946
2380.000000	84.443687
2379.000000	84.488274
2378.000000	84.523763
2377.000000	84.545793
2376.000000	84.557280
2375.000000	84.569934
2374.000000	84.590503
2373.000000	84.615318
2372.000000	84.642419
2371.000000	84.676672
2370.000000	84.718077
2369.000000	84.758045
2368.000000	84.792771
2367.000000	84.827565
2366.000000	84.863922
2365.000000	84.896179
2364.000000	84.924118
2363.000000	84.955124
2362.000000	84.990684
2361.000000	85.022386
2360.000000	85.048427
2359.000000	85.077043
2358.000000	85.105867
2357.000000	85.124545
2356.000000	85.132069
2355.000000	85.141765
2354.000000	85.162104
2353.000000	85.191391
2352.000000	85.229666
2351.000000	85.275341
2350.000000	85.317508
2349.000000	85.344478
2348.000000	85.361841
2347.000000	85.385870
2346.000000	85.416933
2345.000000	85.442309
2344.000000	85.458109
2343.000000	85.476642
2342.000000	85.503904
2341.000000	85.531927
2340.000000	85.557037
2339.000000	85.584627
2338.000000	85.615444
2337.000000	85.641407
2336.000000	85.662388
2335.000000	85.686320
2334.000000	85.715204
2333.000000	85.737313
2332.000000	85.746686
2331.000000	85.744010
2330.000000	85.730913
2329.000000	85.701784
2328.000000	85.662984
2327.000000	85.636897
2326.000000	85.645838
2325.000000	85.696168
2324.000000	85.778139
2323.000000	85.873493
2322.000000	85.961115
2321.000000	86.025038
2320.000000	86.069096
2319.000000	86.107919
2318.000000	86.151552
2317.000000	86.196843
2316.000000	86.243483
2315.000000	86.293796
2314.000000	86.345010
2313.000000	86.386639
2312.000000	86.417228
2311.000000	86.444001
2310.000000	86.469988
2309.000000	86.488721
2308.000000	86.498661
2307.000000	86.506275
2306.000000	86.514843
2305.000000	86.520319
2304.000000	86.523460
2303.000000	86.530462
2302.000000	86.542321
2301.000000	86.552162
2300.000000	86.560579
2299.000000	86.575254
2298.000000	86.597366
2297.000000	86.617282
2296.000000	86.631285
2295.000000	86.644965
2294.000000	86.659688
2293.000000	86.669017
2292.000000	86.673472
2291.000000	86.683291
2290.000000	86.701689
2289.000000	86.721360
2288.000000	86.741141
2287.000000	86.770984
2286.000000	86.813897
2285.000000	86.860639
2284.000000	86.907120
2283.000000	86.960544
2282.000000	87.021250
2281.000000	87.077220
2280.000000	87.123702
2279.000000	87.170209
2278.000000	87.221355
2277.000000	87.269074
2276.000000	87.311000
2275.000000	87.355875
2274.000000	87.404453
2273.000000	87.444867
2272.000000	87.473940
2271.000000	87.502446
2270.000000	87.533336
2269.000000	87.556719
2268.000000	87.571732
2267.000000	87.589586
2266.000000	87.609409
2265.000000	87.616072
2264.000000	87.608413
2263.000000	87.603981
2262.000000	87.609373
2261.000000	87.613181
2260.000000	87.614212
2259.000000	87.628711
2258.000000	87.660793
2257.000000	87.692835
2256.000000	87.714332
2255.000000	87.732497
2254.000000	87.747649
2253.000000	87.747454
2252.000000	87.734979
2251.000000	87.731401
2250.000000	87.742961
2249.000000	87.754278
2248.000000	87.761994
2247.000000	87.783036
2246.000000	87.820960
2245.000000	87.856768
2244.000000	87.883358
2243.000000	87.917017
2242.000000	87.964009
2241.000000	88.009301
2240.000000	88.048754
2239.000000	88.098814
2238.000000	88.162130
2237.000000	88.218151
2236.000000	88.259989
2235.000000	88.306111
2234.000000	88.363392
2233.000000	88.413690
2232.000000	88.449811
2231.000000	88.487990
2230.000000	88.532790
2229.000000	88.566149
2228.000000	88.584592
2227.000000	88.608814
2226.000000	88.643926
2225.000000	88.668564
2224.000000	88.676111
2223.000000	88.687230
2222.000000	88.708711
2221.000000	88.721034
2220.000000	88.719559
2219.000000	88.726748
2218.000000	88.749139
2217.000000	88.764346
2216.000000	88.764500
2215.000000	88.771386
2214.000000	88.794575
2213.000000	88.817486
2212.000000	88.837031
2211.000000	88.872500
2210.000000	88.921979
2209.000000	88.955724
2208.000000	88.967170
2207.000000	88.984298
2206.000000	89.018008
2205.000000	89.045856
2204.000000	89.059907
2203.000000	89.080659
2202.000000	89.110663
2201.000000	89.124501
2200.000000	89.119072
2199.000000	89.121498
2198.000000	89.134813
2197.000000	89.129830
2196.000000	89.103868
2195.000000	89.091137
2194.000000	89.099146
2193.000000	89.093920
2192.000000	89.064401
2191.000000	89.042752
2190.000000	89.041295
2189.000000	89.030723
2188.000000	89.001307
2187.000000	88.986609
2186.000000	89.003820
2185.000000	89.029710
2184.000000	89.055137
2183.000000	89.099695
2182.000000	89.153571
2181.000000	89.174003
2180.000000	89.162387
2179.000000	89.172139
2178.000000	89.220738
2177.000000	89.263290
2176.000000	89.274255
2175.000000	89.282366
2174.000000	89.300834
2173.000000	89.298901
2172.000000	89.269008
2171.000000	89.250117
2170.000000	89.259128
2169.000000	89.267470
2168.000000	89.268986
2167.000000	89.299375
2166.000000	89.357875
2165.000000	89.388476
2164.000000	89.379352
2163.000000	89.407736
2162.000000	89.540158
2161.000000	89.755159
2160.000000	89.996028
2159.000000	90.223856
2158.000000	90.384870
2157.000000	90.429167
2156.000000	90.393201
2155.000000	90.369624
2154.000000	90.390171
2153.000000	90.414357
2152.000000	90.427597
2151.000000	90.465079
2150.000000	90.532544
2149.000000	90.586206
2148.000000	90.607739
2147.000000	90.624805
2146.000000	90.643897
2145.000000	90.637494
2144.000000	90.608325
2143.000000	90.595188
2142.000000	90.602983
2141.000000	90.595907
2140.000000	90.568874
2139.000000	90.561883
2138.000000	90.590738
2137.000000	90.625320
2136.000000	90.645342
2135.000000	90.659045
2134.000000	90.659119
2133.000000	90.621396
2132.000000	90.554877
2131.000000	90.496782
2130.000000	90.454396
2129.000000	90.401465
2128.000000	90.335599
2127.000000	90.287115
2126.000000	90.265130
2125.000000	90.242982
2124.000000	90.207234
2123.000000	90.174971
2122.000000	90.152596
2121.000000	90.122430
2120.000000	90.081795
2119.000000	90.053257
2118.000000	90.043872
2117.000000	90.034156
2116.000000	90.017506
2115.000000	90.010628
2114.000000	90.014164
2113.000000	90.005167
2112.000000	89.980019
2111.000000	89.963709
2110.000000	89.963629
2109.000000	89.957437
2108.000000	89.938622
2107.000000	89.929395
2106.000000	89.935004
2105.000000	89.929556
2104.000000	89.901923
2103.000000	89.871002
2102.000000	89.842108
2101.000000	89.793667
2100.000000	89.722834
2099.000000	89.657355
2098.000000	89.606096
2097.000000	89.541929
2096.000000	89.450311
2095.000000	89.350344
2094.000000	89.253792
2093.000000	89.150279
2092.000000	89.046394
2091.000000	88.973912
2090.000000	88.944132
2089.000000	88.935976
2088.000000	88.941246
2087.000000	88.978964
2086.000000	89.051000
2085.000000	89.128892
2084.000000	89.200337
2083.000000	89.285834
2082.000000	89.393061
2081.000000	89.500366
2080.000000	89.601705
2079.000000	89.719405
2078.000000	89.854682
2077.000000	89.974607
2076.000000	90.068222
2075.000000	90.164037
2074.000000	90.273305
2073.000000	90.369056
2072.000000	90.441688
2071.000000	90.518707
2070.000000	90.608512
2069.000000	90.682067
2068.000000	90.731585
2067.000000	90.788717
2066.000000	90.862128
2065.000000	90.917395
2064.000000	90.942482
2063.000000	90.971791
2062.000000	91.021174
2061.000000	91.063992
2060.000000	91.092183
2059.000000	91.138070
2058.000000	91.212439
2057.000000	91.282734
2056.000000	91.331059
2055.000000	91.369537
2054.000000	91.384468
2053.000000	91.341957
2052.000000	91.268986
2051.000000	91.248944
2050.000000	91.306589
2049.000000	91.369487
2048.000000	91.385392
2047.000000	91.389049
2046.000000	91.407385
2045.000000	91.404852
2044.000000	91.371552
2043.000000	91.360158
2042.000000	91.385934
2041.000000	91.389426
2040.000000	91.346172
2039.000000	91.313372
2038.000000	91.321532
2037.000000	91.327626
2036.000000	91.317963
2035.000000	91.346099
2034.000000	91.416947
2033.000000	91.454067
2032.000000	91.433860
2031.000000	91.425663
2030.000000	91.453178
2029.000000	91.449828
2028.000000	91.395088
2027.000000	91.360510
2026.000000	91.375761
2025.000000	91.380952
2024.000000	91.355338
2023.000000	91.359744
2022.000000	91.408515
2021.000000	91.431030
2020.000000	91.405986
2019.000000	91.403094
2018.000000	91.447956
2017.000000	91.474432
2016.000000	91.457481
2015.000000	91.458897
2014.000000	91.495651
2013.000000	91.502118
2012.000000	91.461463
2011.000000	91.445910
2010.000000	91.485468
2009.000000	91.521418
2008.000000	91.528651
2007.000000	91.557288
2006.000000	91.612299
2005.000000	91.629740
2004.000000	91.603931
2003.000000	91.601610
2002.000000	91.626592
2001.000000	91.599446
2000.000000	91.498492
1999.000000	91.397231
1998.000000	91.331848
1997.000000	91.249965
1996.000000	91.124997
1995.000000	91.004390
1994.000000	90.907659
1993.000000	90.788980
1992.000000	90.646505
1991.000000	90.557373
1990.000000	90.550774
1989.000000	90.565861
1988.000000	90.572645
1987.000000	90.615491
1986.000000	90.698880
1985.000000	90.746015
1984.000000	90.718983
1983.000000	90.673230
1982.000000	90.650082
1981.000000	90.625313
1980.000000	90.605189
1979.000000	90.648520
1978.000000	90.730519
1977.000000	90.721120
1976.000000	90.573081
1975.000000	90.379695
1974.000000	90.204268
1973.000000	90.023105
1972.000000	89.866575
1971.000000	89.846902
1970.000000	89.997475
1969.000000	90.222961
1968.000000	90.448092
1967.000000	90.686482
1966.000000	90.920564
1965.000000	91.067192
1964.000000	91.115829
1963.000000	91.152672
1962.000000	91.211069
1961.000000	91.226874
1960.000000	91.175306
1959.000000	91.119147
1958.000000	91.085953
1957.000000	91.028848
1956.000000	90.940233
1955.000000	90.884132
1954.000000	90.883102
1953.000000	90.882498
1952.000000	90.858822
1951.000000	90.856893
1950.000000	90.888881
1949.000000	90.902434
1948.000000	90.880243
1947.000000	90.870366
1946.000000	90.885640
1945.000000	90.870695
1944.000000	90.799377
1943.000000	90.713966
1942.000000	90.632261
1941.000000	90.508874
1940.000000	90.328308
1939.000000	90.133475
1938.000000	89.942016
1937.000000	89.726682
1936.000000	89.498949
1935.000000	89.329184
1934.000000	89.254701
1933.000000	89.239828
1932.000000	89.250405
1931.000000	89.292095
1930.000000	89.348963
1929.000000	89.366127
1928.000000	89.326133
1927.000000	89.269924
1926.000000	89.216906
1925.000000	89.135208
1924.000000	89.015115
1923.000000	88.901943
1922.000000	88.820230
1921.000000	88.735160
1920.000000	88.624015
1919.000000	88.513676
1918.000000	88.424059
1917.000000	88.340844
1916.000000	88.273955
1915.000000	88.273581
1914.000000	88.360239
1913.000000	88.497198
1912.000000	88.651153
1911.000000	88.827283
1910.000000	89.015615
1909.000000	89.167031
1908.000000	89.263530
1907.000000	89.343667
1906.000000	89.428441
1905.000000	89.490805
1904.000000	89.521774
1903.000000	89.555590
1902.000000	89.605875
1901.000000	89.643223
1900.000000	89.659059
1899.000000	89.686650
1898.000000	89.735595
1897.000000	89.770442
1896.000000	89.778406
1895.000000	89.795481
1894.000000	89.836470
1893.000000	89.868551
1892.000000	89.880045
1891.000000	89.905489
1890.000000	89.958478
1889.000000	90.002463
1888.000000	90.019799
1887.000000	90.040412
1886.000000	90.077185
1885.000000	90.103006
1884.000000	90.110542
1883.000000	90.132334
1882.000000	90.177997
1881.000000	90.213419
1880.000000	90.225429
1879.000000	90.244889
1878.000000	90.284445
1877.000000	90.314317
1876.000000	90.324209
1875.000000	90.346268
1874.000000	90.391927
1873.000000	90.430242
1872.000000	90.451649
1871.000000	90.491505
1870.000000	90.562601
1869.000000	90.621322
1868.000000	90.645477
1867.000000	90.672757
1866.000000	90.718428
1865.000000	90.754007
1864.000000	90.773750
1863.000000	90.809076
1862.000000	90.867241
1861.000000	90.913764
1860.000000	90.936396
1859.000000	90.966750
1858.000000	91.015759
1857.000000	91.050653
1856.000000	91.059597
1855.000000	91.073603
1854.000000	91.103203
1853.000000	91.116555
1852.000000	91.102565
1851.000000	91.092683
1850.000000	91.099706
1849.000000	91.093507
1848.000000	91.062179
1847.000000	91.040013
1846.000000	91.046416
1845.000000	91.050839
1844.000000	91.033194
1843.000000	91.017899
1842.000000	91.001106
1841.000000	90.950685
1840.000000	90.875788
1839.000000	90.819697
1838.000000	90.790955
1837.000000	90.749485
1836.000000	90.678505
1835.000000	90.607527
1834.000000	90.546378
1833.000000	90.463998
1832.000000	90.347182
1831.000000	90.224164
1830.000000	90.113023
1829.000000	89.993681
1828.000000	89.861556
1827.000000	89.748942
1826.000000	89.670475
1825.000000	89.602361
1824.000000	89.542974
1823.000000	89.528753
1822.000000	89.569364
1821.000000	89.632554
1820.000000	89.698380
1819.000000	89.778984
1818.000000	89.865172
1817.000000	89.912058
1816.000000	89.906758
1815.000000	89.889184
1814.000000	89.881043
1813.000000	89.858479
1812.000000	89.811126
1811.000000	89.772227
1810.000000	89.755698
1809.000000	89.725885
1808.000000	89.666674
1807.000000	89.606688
1806.000000	89.556491
1805.000000	89.486932
1804.000000	89.387628
1803.000000	89.288370
1802.000000	89.201839
1801.000000	89.099850
1800.000000	88.977118
1799.000000	88.873706
1798.000000	88.802025
1797.000000	88.726851
1796.000000	88.633805
1795.000000	88.553750
1794.000000	88.504192
1793.000000	88.456324
1792.000000	88.398138
1791.000000	88.370980
1790.000000	88.381319
1789.000000	88.393370
1788.000000	88.411626
1787.000000	88.483514
1786.000000	88.627213
1785.000000	88.797855
1784.000000	88.952195
1783.000000	89.101393
1782.000000	89.265630
1781.000000	89.429313
1780.000000	89.576113
1779.000000	89.722069
1778.000000	89.871740
1777.000000	89.995814
1776.000000	90.083351
1775.000000	90.172198
1774.000000	90.301324
1773.000000	90.457865
1772.000000	90.614629
1771.000000	90.780715
1770.000000	90.946859
1769.000000	91.078450
1768.000000	91.179030
1767.000000	91.284415
1766.000000	91.390314
1765.000000	91.458283
1764.000000	91.495789
1763.000000	91.564417
1762.000000	91.684527
1761.000000	91.780958
1760.000000	91.796631
1759.000000	91.772663
1758.000000	91.752776
1757.000000	91.711899
1756.000000	91.626088
1755.000000	91.529477
1754.000000	91.449375
1753.000000	91.367744
1752.000000	91.281572
1751.000000	91.244764
1750.000000	91.280386
1749.000000	91.324300
1748.000000	91.358202
1747.000000	91.448482
1746.000000	91.614986
1745.000000	91.798105
1744.000000	91.965176
1743.000000	92.151483
1742.000000	92.366307
1741.000000	92.557443
1740.000000	92.705821
1739.000000	92.851743
1738.000000	92.976734
1737.000000	93.011233
1736.000000	92.969495
1735.000000	92.972269
1734.000000	93.079745
1733.000000	93.133768
1732.000000	93.015104
1731.000000	92.813496
1730.000000	92.599309
1729.000000	92.317541
1728.000000	91.928791
1727.000000	91.479472
1726.000000	90.987432
1725.000000	90.378911
1724.000000	89.622466
1723.000000	88.823032
1722.000000	88.078167
1721.000000	87.346383
1720.000000	86.534744
1719.000000	85.615008
1718.000000	84.612130
1717.000000	83.566844
1716.000000	82.559786
1715.000000	81.677389
1714.000000	80.899684
1713.000000	80.109599
1712.000000	79.236196
1711.000000	78.296125
1710.000000	77.284376
1709.000000	76.128397
1708.000000	74.765810
1707.000000	73.189097
1706.000000	71.446641
1705.000000	69.726041
1704.000000	68.281676
1703.000000	67.152236
1702.000000	66.080111
1701.000000	64.644465
1700.000000	62.869275
1699.000000	61.377933
1698.000000	60.231849
1697.000000	58.868883
1696.000000	56.942414
1695.000000	54.820848
1694.000000	52.978083
1693.000000	51.309241
1692.000000	49.509456
1691.000000	47.446075
1690.000000	45.206046
1689.000000	43.027856
1688.000000	41.139690
1687.000000	39.582878
1686.000000	38.148889
1685.000000	36.488829
1684.000000	34.707805
1683.000000	33.486073
1682.000000	32.932914
1681.000000	32.672560
1680.000000	32.513290
1679.000000	32.456822
1678.000000	32.540126
1677.000000	32.769779
1676.000000	33.159339
1675.000000	33.730473
1674.000000	34.440019
1673.000000	35.216062
1672.000000	36.076040
1671.000000	37.127372
1670.000000	38.468567
1669.000000	40.024096
1668.000000	41.558477
1667.000000	42.933745
1666.000000	44.201656
1665.000000	45.493755
1664.000000	46.898023
1663.000000	48.368814
1662.000000	49.763026
1661.000000	51.013769
1660.000000	52.164812
1659.000000	53.259180
1658.000000	54.311068
1657.000000	55.327344
1656.000000	56.322482
1655.000000	57.334819
1654.000000	58.470664
1653.000000	59.773154
1652.000000	60.972004
1651.000000	61.887562
1650.000000	62.682387
1649.000000	63.568988
1648.000000	64.642832
1647.000000	65.820021
1646.000000	66.905886
1645.000000	67.842566
1644.000000	68.687883
1643.000000	69.485595
1642.000000	70.259509
1641.000000	71.029262
1640.000000	71.780675
1639.000000	72.472326
1638.000000	73.105322
1637.000000	73.745286
1636.000000	74.426629
1635.000000	75.070080
1634.000000	75.608518
1633.000000	76.081449
1632.000000	76.539440
1631.000000	76.973335
1630.000000	77.352568
1629.000000	77.667025
1628.000000	77.913627
1627.000000	78.080308
1626.000000	78.175665
1625.000000	78.229713
1624.000000	78.221667
1623.000000	78.060680
1622.000000	77.704791
1621.000000	77.232024
1620.000000	76.766350
1619.000000	76.465260
1618.000000	76.566945
1617.000000	77.244277
1616.000000	78.241472
1615.000000	79.051116
1614.000000	79.485831
1613.000000	79.618391
1612.000000	79.467254
1611.000000	78.950398
1610.000000	78.012976
1609.000000	76.687246
1608.000000	75.046035
1607.000000	73.188959
1606.000000	71.248821
1605.000000	69.342715
1604.000000	67.558367
1603.000000	66.047763
1602.000000	65.051386
1601.000000	64.778914
1600.000000	65.300216
1599.000000	66.560047
1598.000000	68.398412
1597.000000	70.571275
1596.000000	72.831000
1595.000000	74.979616
1594.000000	76.881966
1593.000000	78.449144
1592.000000	79.584735
1591.000000	80.091643
1590.000000	79.676886
1589.000000	78.090522
1588.000000	75.318775
1587.000000	71.728716
1586.000000	68.041071
1585.000000	65.037208
1584.000000	63.177417
1583.000000	62.508799
1582.000000	62.805333
1581.000000	63.698892
1580.000000	64.823914
1579.000000	65.992086
1578.000000	67.239214
1577.000000	68.660851
1576.000000	70.150473
1575.000000	71.414147
1574.000000	72.353923
1573.000000	73.095033
1572.000000	73.753475
1571.000000	74.376015
1570.000000	74.975346
1569.000000	75.542024
1568.000000	76.046446
1567.000000	76.494781
1566.000000	76.946199
1565.000000	77.430666
1564.000000	77.897003
1563.000000	78.291020
1562.000000	78.636502
1561.000000	79.002098
1560.000000	79.359962
1559.000000	79.569582
1558.000000	79.714203
1557.000000	79.907869
1556.000000	80.082187
1555.000000	80.226198
1554.000000	80.366542
1553.000000	80.527389
1552.000000	80.697067
1551.000000	80.863973
1550.000000	81.046297
1549.000000	81.261399
1548.000000	81.494250
1547.000000	81.727955
1546.000000	81.973001
1545.000000	82.230819
1544.000000	82.466108
1543.000000	82.646331
1542.000000	82.787506
1541.000000	82.917802
1540.000000	83.042050
1539.000000	83.176463
1538.000000	83.321319
1537.000000	83.457116
1536.000000	83.584837
1535.000000	83.700611
1534.000000	83.800579
1533.000000	83.892076
1532.000000	83.970123
1531.000000	84.019244
1530.000000	84.053777
1529.000000	84.096048
1528.000000	84.142857
1527.000000	84.187070
1526.000000	84.248075
1525.000000	84.345763
1524.000000	84.476138
1523.000000	84.654308
1522.000000	84.937118
1521.000000	85.330268
1520.000000	85.725475
1519.000000	86.059417
1518.000000	86.397343
1517.000000	86.787187
1516.000000	87.172468
1515.000000	87.489512
1514.000000	87.755840
1513.000000	88.009041
1512.000000	88.240081
1511.000000	88.432733
1510.000000	88.601186
1509.000000	88.762769
1508.000000	88.893862
1507.000000	88.990331
1506.000000	89.110418
1505.000000	89.189914
1504.000000	89.123863
1503.000000	88.916515
1502.000000	88.530272
1501.000000	87.815781
1500.000000	86.601804
1499.000000	84.924371
1498.000000	83.207978
1497.000000	82.188486
1496.000000	82.359978
1495.000000	83.450051
1494.000000	84.840347
1493.000000	86.179036
1492.000000	87.380918
1491.000000	88.427230
1490.000000	89.286008
1489.000000	89.934630
1488.000000	90.400132
1487.000000	90.746683
1486.000000	91.026499
1485.000000	91.253156
1484.000000	91.425650
1483.000000	91.562638
1482.000000	91.692312
1481.000000	91.812843
1480.000000	91.900423
1479.000000	91.957611
1478.000000	92.010892
1477.000000	92.061555
1476.000000	92.084830
1475.000000	92.080199
1474.000000	92.074575
1473.000000	92.066704
1472.000000	92.019954
1471.000000	91.911539
1470.000000	91.730617
1469.000000	91.462715
1468.000000	91.097264
1467.000000	90.627311
1466.000000	90.031339
1465.000000	89.305540
1464.000000	88.545040
1463.000000	87.886429
1462.000000	87.331455
1461.000000	86.774693
1460.000000	86.014006
1459.000000	84.556680
1458.000000	81.172601
1457.000000	74.844115
1456.000000	67.295428
1455.000000	61.299083
1454.000000	57.847749
1453.000000	57.153614
1452.000000	59.228405
1451.000000	63.329282
1450.000000	68.208100
1449.000000	72.920487
1448.000000	76.989132
1447.000000	80.118358
1446.000000	82.268812
1445.000000	83.689746
1444.000000	84.640756
1443.000000	85.226107
1442.000000	85.469125
1441.000000	85.408957
1440.000000	85.092419
1439.000000	84.490291
1438.000000	83.432679
1437.000000	81.716140
1436.000000	79.487464
1435.000000	77.171119
1434.000000	74.887299
1433.000000	72.474628
1432.000000	69.844944
1431.000000	67.086994
1430.000000	64.380913
1429.000000	61.935023
1428.000000	59.952602
1427.000000	58.452838
1426.000000	57.210267
1425.000000	56.003910
1424.000000	54.879730
1423.000000	54.025677
1422.000000	53.453741
1421.000000	53.057092
1420.000000	52.866419
1419.000000	53.009102
1418.000000	53.450896
1417.000000	54.076244
1416.000000	54.912570
1415.000000	55.992630
1414.000000	57.228920
1413.000000	58.548185
1412.000000	59.977861
1411.000000	61.513806
1410.000000	63.037188
1409.000000	64.460285
1408.000000	65.808772
1407.000000	67.104503
1406.000000	68.295098
1405.000000	69.341163
1404.000000	70.262853
1403.000000	71.074327
1402.000000	71.792792
1401.000000	72.514112
1400.000000	73.366486
1399.000000	74.346720
1398.000000	75.317042
1397.000000	76.226358
1396.000000	77.159930
1395.000000	78.138344
1394.000000	79.050263
1393.000000	79.822533
1392.000000	80.492711
1391.000000	81.100626
1390.000000	81.651835
1389.000000	82.171141
1388.000000	82.693086
1387.000000	83.190856
1386.000000	83.608316
1385.000000	83.964546
1384.000000	84.324320
1383.000000	84.703218
1382.000000	85.075997
1381.000000	85.445096
1380.000000	85.831869
1379.000000	86.215296
1378.000000	86.554039
1377.000000	86.857373
1376.000000	87.168037
1375.000000	87.487787
1374.000000	87.781665
1373.000000	88.043140
1372.000000	88.287923
1371.000000	88.511148
1370.000000	88.708117
1369.000000	88.901957
1368.000000	89.107811
1367.000000	89.296802
1366.000000	89.442711
1365.000000	89.569944
1364.000000	89.711307
1363.000000	89.848046
1362.000000	89.938976
1361.000000	89.985178
1360.000000	90.005305
1359.000000	89.985063
1358.000000	89.902089
1357.000000	89.763840
1356.000000	89.587792
1355.000000	89.376803
1354.000000	89.149981
1353.000000	88.965257
1352.000000	88.868634
1351.000000	88.847650
1350.000000	88.864923
1349.000000	88.905412
1348.000000	88.959157
1347.000000	88.992466
1346.000000	88.974525
1345.000000	88.907520
1344.000000	88.798847
1343.000000	88.628730
1342.000000	88.367442
1341.000000	87.997956
1340.000000	87.498032
1339.000000	86.819828
1338.000000	85.921490
1337.000000	84.778750
1336.000000	83.340817
1335.000000	81.512012
1334.000000	79.181964
1333.000000	76.276705
1332.000000	72.789191
1331.000000	68.803751
1330.000000	64.507483
1329.000000	60.140896
1328.000000	55.942599
1327.000000	52.141567
1326.000000	48.962038
1325.000000	46.615150
1324.000000	45.308400
1323.000000	45.214900
1322.000000	46.401167
1321.000000	48.777666
1320.000000	52.047719
1319.000000	55.716179
1318.000000	59.240821
1317.000000	62.288095
1316.000000	64.839343
1315.000000	67.029834
1314.000000	68.950388
1313.000000	70.581003
1312.000000	71.811302
1311.000000	72.475262
1310.000000	72.422624
1309.000000	71.582817
1308.000000	70.001779
1307.000000	67.856837
1306.000000	65.409026
1305.000000	62.921783
1304.000000	60.571427
1303.000000	58.402110
1302.000000	56.351553
1301.000000	54.314288
1300.000000	52.203952
1299.000000	49.972370
1298.000000	47.607274
1297.000000	45.143252
1296.000000	42.671283
1295.000000	40.308121
1294.000000	38.150045
1293.000000	36.267097
1292.000000	34.720805
1291.000000	33.561753
1290.000000	32.799541
1289.000000	32.412782
1288.000000	32.386598
1287.000000	32.693069
1286.000000	33.266849
1285.000000	34.028262
1284.000000	34.920132
1283.000000	35.895297
1282.000000	36.874150
1281.000000	37.758208
1280.000000	38.474542
1279.000000	38.990674
1278.000000	39.312954
1277.000000	39.498806
1276.000000	39.660092
1275.000000	39.927283
1274.000000	40.405456
1273.000000	41.161800
1272.000000	42.220088
1271.000000	43.542535
1270.000000	45.034864
1269.000000	46.596497
1268.000000	48.161038
1267.000000	49.681400
1266.000000	51.115667
1265.000000	52.444830
1264.000000	53.676101
1263.000000	54.813655
1262.000000	55.848789
1261.000000	56.780067
1260.000000	57.618067
1259.000000	58.372059
1258.000000	59.052539
1257.000000	59.691182
1256.000000	60.330913
1255.000000	60.994487
1254.000000	61.684416
1253.000000	62.404845
1252.000000	63.158829
1251.000000	63.927163
1250.000000	64.677294
1249.000000	65.393553
1248.000000	66.076642
1247.000000	66.722687
1246.000000	67.329166
1245.000000	67.913333
1244.000000	68.498687
1243.000000	69.088247
1242.000000	69.674158
1241.000000	70.262582
1240.000000	70.863227
1239.000000	71.466574
1238.000000	72.056546
1237.000000	72.634542
1236.000000	73.206296
1235.000000	73.757948
1234.000000	74.272784
1233.000000	74.756265
1232.000000	75.219069
1231.000000	75.651850
1230.000000	76.041206
1229.000000	76.396102
1228.000000	76.730382
1227.000000	77.036584
1226.000000	77.304579
1225.000000	77.546362
1224.000000	77.778037
1223.000000	77.993033
1222.000000	78.178184
1221.000000	78.338864
1220.000000	78.479470
1219.000000	78.579315
1218.000000	78.612068
1217.000000	78.573503
1216.000000	78.474760
1215.000000	78.334689
1214.000000	78.203951
1213.000000	78.167018
1212.000000	78.284093
1211.000000	78.540853
1210.000000	78.880064
1209.000000	79.260636
1208.000000	79.661010
1207.000000	80.055443
1206.000000	80.424566
1205.000000	80.775694
1204.000000	81.119302
1203.000000	81.441110
1202.000000	81.722297
1201.000000	81.966692
1200.000000	82.176479
1199.000000	82.323383
1198.000000	82.374667
1197.000000	82.314199
1196.000000	82.116281
1195.000000	81.705330
1194.000000	80.964692
1193.000000	79.760856
1192.000000	77.931689
1191.000000	75.349680
1190.000000	72.088681
1189.000000	68.551386
1188.000000	65.385044
1187.000000	63.186801
1186.000000	62.185637
1185.000000	62.131917
1184.000000	62.465170
1183.000000	62.620126
1182.000000	62.323695
1181.000000	61.712831
1180.000000	61.219907
1179.000000	61.310894
1178.000000	62.220981
1177.000000	63.871696
1176.000000	65.963831
1175.000000	68.143936
1174.000000	70.145931
1173.000000	71.828404
1172.000000	73.127740
1171.000000	74.030912
1170.000000	74.623349
1169.000000	75.100891
1168.000000	75.662727
1167.000000	76.378479
1166.000000	77.181880
1165.000000	77.972583
1164.000000	78.684317
1163.000000	79.288657
1162.000000	79.786596
1161.000000	80.204140
1160.000000	80.567182
1159.000000	80.878860
1158.000000	81.141597
1157.000000	81.377802
1156.000000	81.604848
1155.000000	81.810572
1154.000000	81.976240
1153.000000	82.107967
1152.000000	82.220088
1151.000000	82.310476
1150.000000	82.379731
1149.000000	82.451300
1148.000000	82.546595
1147.000000	82.659142
1146.000000	82.776500
1145.000000	82.905376
1144.000000	83.049193
1143.000000	83.184366
1142.000000	83.284811
1141.000000	83.343900
1140.000000	83.351544
1139.000000	83.266632
1138.000000	83.041332
1137.000000	82.642059
1136.000000	82.009217
1135.000000	81.028290
1134.000000	79.551220
1133.000000	77.455706
1132.000000	74.720202
1131.000000	71.530666
1130.000000	68.356605
1129.000000	65.854959
1128.000000	64.590584
1127.000000	64.758404
1126.000000	66.131615
1125.000000	68.225419
1124.000000	70.538175
1123.000000	72.710964
1122.000000	74.579116
1121.000000	76.150861
1120.000000	77.499342
1119.000000	78.671146
1118.000000	79.685188
1117.000000	80.568898
1116.000000	81.344362
1115.000000	82.007516
1114.000000	82.554958
1113.000000	83.007394
1112.000000	83.387217
1111.000000	83.685741
1110.000000	83.889562
1109.000000	84.003521
1108.000000	84.013754
1107.000000	83.859110
1106.000000	83.456117
1105.000000	82.746056
1104.000000	81.732689
1103.000000	80.548776
1102.000000	79.504372
1101.000000	78.977222
1100.000000	79.161859
1099.000000	79.924553
1098.000000	80.935653
1097.000000	81.915763
1096.000000	82.743400
1095.000000	83.398759
1094.000000	83.904288
1093.000000	84.311606
1092.000000	84.667481
1091.000000	84.980090
1090.000000	85.245043
1089.000000	85.484752
1088.000000	85.722451
1087.000000	85.944693
1086.000000	86.126245
1085.000000	86.266964
1084.000000	86.371245
1083.000000	86.405119
1082.000000	86.318272
1081.000000	86.062618
1080.000000	85.528604
1079.000000	84.480670
1078.000000	82.608125
1077.000000	79.734970
1076.000000	76.067830
1075.000000	72.297426
1074.000000	69.365301
1073.000000	67.961565
1072.000000	68.133804
1071.000000	69.362838
1070.000000	71.016834
1069.000000	72.708114
1068.000000	74.303111
1067.000000	75.742858
1066.000000	76.980289
1065.000000	78.025542
1064.000000	78.916173
1063.000000	79.654430
1062.000000	80.234402
1061.000000	80.698124
1060.000000	81.093442
1059.000000	81.417016
1058.000000	81.653533
1057.000000	81.836024
1056.000000	82.007583
1055.000000	82.157236
1054.000000	82.260618
1053.000000	82.345229
1052.000000	82.452062
1051.000000	82.568286
1050.000000	82.665004
1049.000000	82.766376
1048.000000	82.909189
1047.000000	83.072451
1046.000000	83.219150
1045.000000	83.368145
1044.000000	83.553931
1043.000000	83.753893
1042.000000	83.928578
1041.000000	84.097278
1040.000000	84.299641
1039.000000	84.515235
1038.000000	84.703057
1037.000000	84.880701
1036.000000	85.085508
1035.000000	85.282765
1034.000000	85.396529
1033.000000	85.321755
1032.000000	84.705128
1031.000000	82.809868
1030.000000	78.979741
1029.000000	73.560834
1028.000000	68.252057
1027.000000	65.203073
1026.000000	65.491294
1025.000000	68.423431
1024.000000	72.291292
1023.000000	75.669811
1022.000000	78.054093
1021.000000	79.592327
1020.000000	80.574070
1019.000000	81.227693
1018.000000	81.750688
1017.000000	82.270334
1016.000000	82.772433
1015.000000	83.176228
1014.000000	83.477213
1013.000000	83.741940
1012.000000	83.986129
1011.000000	84.172966
1010.000000	84.315453
1009.000000	84.469506
1008.000000	84.634216
1007.000000	84.765561
1006.000000	84.861275
1005.000000	84.848637
1004.000000	84.392278
1003.000000	83.106573
1002.000000	81.144806
1001.000000	79.389487
1000.000000	78.763103
999.000000	79.371212
998.000000	80.498077
997.000000	81.418261
996.000000	82.014420
995.000000	82.576435
994.000000	83.273381
993.000000	83.986464
992.000000	84.523457
991.000000	84.811594
990.000000	84.895623
989.000000	84.872897
988.000000	84.852730
987.000000	84.908300
986.000000	85.035000
985.000000	85.174144
984.000000	85.272665
983.000000	85.311553
982.000000	85.291437
981.000000	85.212774
980.000000	85.067749
979.000000	84.844500
978.000000	84.555776
977.000000	84.266287
976.000000	84.065143
975.000000	83.991870
974.000000	83.997781
973.000000	83.991464
972.000000	83.912416
971.000000	83.753818
970.000000	83.536578
969.000000	83.281487
968.000000	83.000074
967.000000	82.695406
966.000000	82.364415
965.000000	82.002660
964.000000	81.603829
963.000000	81.157194
962.000000	80.649839
961.000000	80.068817
960.000000	79.401829
959.000000	78.634953
958.000000	77.756946
957.000000	76.765519
956.000000	75.664392
955.000000	74.461836
954.000000	73.170976
953.000000	71.811091
952.000000	70.406234
951.000000	68.979564
950.000000	67.549662
949.000000	66.129179
948.000000	64.725497
947.000000	63.340255
946.000000	61.975308
945.000000	60.657514
944.000000	59.466685
943.000000	58.507450
942.000000	57.801290
941.000000	57.191462
940.000000	56.389811
939.000000	55.175655
938.000000	53.576847
937.000000	51.851661
936.000000	50.301424
935.000000	49.095809
934.000000	48.249392
933.000000	47.711538
932.000000	47.433487
931.000000	47.371612
930.000000	47.471300
929.000000	47.675510
928.000000	47.938999
927.000000	48.220135
926.000000	48.482439
925.000000	48.712488
924.000000	48.923485
923.000000	49.136470
922.000000	49.367266
921.000000	49.635249
920.000000	49.965199
919.000000	50.371376
918.000000	50.853093
917.000000	51.408078
916.000000	52.038018
915.000000	52.737327
914.000000	53.491787
913.000000	54.294206
912.000000	55.143904
911.000000	56.030386
910.000000	56.934718
909.000000	57.848064
908.000000	58.772500
907.000000	59.702617
906.000000	60.624979
905.000000	61.534432
904.000000	62.432545
903.000000	63.311865
902.000000	64.160984
901.000000	64.981673
900.000000	65.781321
899.000000	66.554592
898.000000	67.290269
897.000000	67.991035
896.000000	68.666584
895.000000	69.313720
894.000000	69.924618
893.000000	70.505262
892.000000	71.066665
891.000000	71.606257
890.000000	72.116572
889.000000	72.603509
888.000000	73.075683
887.000000	73.527346
886.000000	73.951754
885.000000	74.358566
884.000000	74.759526
883.000000	75.149243
882.000000	75.520451
881.000000	75.883690
880.000000	76.250046
879.000000	76.610113
878.000000	76.951311
877.000000	77.280748
876.000000	77.609243
875.000000	77.929269
874.000000	78.230832
873.000000	78.521238
872.000000	78.807564
871.000000	79.079027
870.000000	79.327296
869.000000	79.564616
868.000000	79.800715
867.000000	80.022650
866.000000	80.218936
865.000000	80.401331
864.000000	80.582724
863.000000	80.752961
862.000000	80.891268
861.000000	80.975661
860.000000	80.965646
859.000000	80.821387
858.000000	80.576976
857.000000	80.361162
856.000000	80.304404
855.000000	80.439774
854.000000	80.716726
853.000000	81.078805
852.000000	81.484922
851.000000	81.882785
850.000000	82.221465
849.000000	82.489695
848.000000	82.705731
847.000000	82.877379
846.000000	83.003136
845.000000	83.097024
844.000000	83.175802
843.000000	83.231896
842.000000	83.249542
841.000000	83.236896
840.000000	83.211544
839.000000	83.168258
838.000000	83.093540
837.000000	82.997480
836.000000	82.899542
835.000000	82.796007
834.000000	82.675256
833.000000	82.552542
832.000000	82.455918
831.000000	82.389530
830.000000	82.344627
829.000000	82.332408
828.000000	82.365643
827.000000	82.416782
826.000000	82.434674
825.000000	82.391475
824.000000	82.265342
823.000000	81.993050
822.000000	81.499409
821.000000	80.779611
820.000000	79.915600
819.000000	79.025014
818.000000	78.223262
817.000000	77.554521
816.000000	76.831516
815.000000	75.570810
814.000000	73.299709
813.000000	70.107220
812.000000	66.831850
811.000000	64.502196
810.000000	63.496593
809.000000	63.295636
808.000000	63.056236
807.000000	62.357440
806.000000	61.405554
805.000000	60.684381
804.000000	60.566155
803.000000	61.177777
802.000000	62.444590
801.000000	64.171003
800.000000	66.122730
799.000000	68.109132
798.000000	70.014046
797.000000	71.768000
796.000000	73.320109
795.000000	74.651894
794.000000	75.792809
793.000000	76.791463
792.000000	77.676826
791.000000	78.460055
790.000000	79.158409
789.000000	79.790992
788.000000	80.362104
787.000000	80.872313
786.000000	81.338393
785.000000	81.782726
784.000000	82.209724
783.000000	82.614315
782.000000	83.005269
781.000000	83.396875
780.000000	83.784818
779.000000	84.153730
778.000000	84.503473
777.000000	84.844669
776.000000	85.173526
775.000000	85.476680
774.000000	85.757460
773.000000	86.032015
772.000000	86.301235
771.000000	86.550273
770.000000	86.774610
769.000000	86.983031
768.000000	87.176640
767.000000	87.348914
766.000000	87.505591
765.000000	87.661427
764.000000	87.817836
763.000000	87.965183
762.000000	88.104700
761.000000	88.245427
760.000000	88.382471
759.000000	88.502045
758.000000	88.606224
757.000000	88.709795
756.000000	88.814426
755.000000	88.908906
754.000000	88.992555
753.000000	89.075290
752.000000	89.156274
751.000000	89.225570
750.000000	89.286281
749.000000	89.353995
748.000000	89.435760
747.000000	89.528976
746.000000	89.637554
745.000000	89.768176
744.000000	89.913227
743.000000	90.057303
742.000000	90.198223
741.000000	90.343563
740.000000	90.491032
739.000000	90.630657
738.000000	90.761597
737.000000	90.889315
736.000000	91.011833
735.000000	91.124975
734.000000	91.233587
733.000000	91.341464
732.000000	91.439226
731.000000	91.518020
730.000000	91.584336
729.000000	91.645360
728.000000	91.691553
727.000000	91.709881
726.000000	91.701498
725.000000	91.670255
724.000000	91.605798
723.000000	91.490165
722.000000	91.304574
721.000000	91.015825
720.000000	90.562245
719.000000	89.840614
718.000000	88.658738
717.000000	86.692365
716.000000	83.572684
715.000000	79.123091
714.000000	73.545665
713.000000	67.334584
712.000000	60.963774
711.000000	54.626056
710.000000	48.267279
709.000000	41.895757
708.000000	35.846150
707.000000	30.708835
706.000000	26.996640
705.000000	24.884082
704.000000	24.221615
703.000000	24.717294
702.000000	26.085464
701.000000	28.091251
700.000000	30.544599
699.000000	33.305786
698.000000	36.282013
697.000000	39.388417
696.000000	42.530773
695.000000	45.640785
694.000000	48.688865
693.000000	51.636513
692.000000	54.411248
691.000000	56.919171
690.000000	58.957009
689.000000	60.033037
688.000000	59.440435
687.000000	56.784483
686.000000	52.562953
685.000000	48.203534
684.000000	45.414440
683.000000	45.278444
682.000000	47.771565
681.000000	52.012387
680.000000	56.903200
679.000000	61.651011
678.000000	65.870892
677.000000	69.409148
676.000000	72.215736
675.000000	74.197426
674.000000	74.915042
673.000000	73.574579
672.000000	69.767288
671.000000	63.843403
670.000000	56.281997
669.000000	47.270312
668.000000	38.229169
667.000000	32.273082
666.000000	30.608586
665.000000	31.868869
664.000000	34.728132
663.000000	38.381498
662.000000	42.154174
661.000000	45.598445
660.000000	48.598247
659.000000	51.167693
658.000000	53.329340
657.000000	55.200537
656.000000	56.913620
655.000000	58.477531
654.000000	59.859565
653.000000	61.118133
652.000000	62.316784
651.000000	63.411638
650.000000	64.356312
649.000000	65.217247
648.000000	66.062646
647.000000	66.848087
646.000000	67.527786
645.000000	68.161634
644.000000	68.805186
643.000000	69.407127
642.000000	69.923577
641.000000	70.417347
640.000000	70.941334
639.000000	71.437580
638.000000	71.852811
637.000000	72.242074
636.000000	72.658402
635.000000	73.054029
634.000000	73.389553
633.000000	73.726315
632.000000	74.108568
631.000000	74.472446
630.000000	74.766633
629.000000	75.052358
628.000000	75.388308
627.000000	75.728359
626.000000	76.024341
625.000000	76.320201
624.000000	76.652891
623.000000	76.967377
622.000000	77.203685
621.000000	77.335301
620.000000	77.262084
619.000000	76.857027
618.000000	76.249196
617.000000	75.878744
616.000000	76.089800
615.000000	76.770352
614.000000	77.542301
613.000000	78.177752
612.000000	78.670028
611.000000	79.050198
610.000000	79.336829
609.000000	79.594453
608.000000	79.873173
607.000000	80.128720
606.000000	80.314411
605.000000	80.485027
604.000000	80.701196
603.000000	80.919739
602.000000	81.087090
601.000000	81.248940
600.000000	81.457503
599.000000	81.666415
598.000000	81.827823
597.000000	81.992929
596.000000	82.209584
595.000000	82.422156
594.000000	82.579334
593.000000	82.738100
592.000000	82.953450
591.000000	83.164851
590.000000	83.311393
589.000000	83.447966
588.000000	83.631796
587.000000	83.810584
586.000000	83.932100
585.000000	84.054919
584.000000	84.235455
583.000000	84.415456
582.000000	84.536227
581.000000	84.654018
580.000000	84.822532
579.000000	84.978692
578.000000	85.063234
577.000000	85.134343
576.000000	85.242406
575.000000	85.313796
574.000000	85.283118
573.000000	85.212931
572.000000	85.156247
571.000000	85.033267
570.000000	84.759070
569.000000	84.364042
568.000000	83.870568
567.000000	83.173787
566.000000	82.173086
565.000000	80.883723
564.000000	79.307100
563.000000	77.347142
562.000000	74.954761
561.000000	72.224004
560.000000	69.274887
559.000000	66.181032
558.000000	63.067156
557.000000	60.137653
556.000000	57.557847
555.000000	55.388970
554.000000	53.644356
553.000000	52.326055
552.000000	51.395336
551.000000	50.761019
550.000000	50.325749
549.000000	50.037765
548.000000	49.866904
547.000000	49.763001
546.000000	49.684732
545.000000	49.642086
544.000000	49.667553
543.000000	49.762134
542.000000	49.916425
541.000000	50.158774
540.000000	50.529216
539.000000	51.026972
538.000000	51.629990
537.000000	52.344707
536.000000	53.180477
535.000000	54.093584
534.000000	55.024215
533.000000	55.967005
532.000000	56.935043
531.000000	57.886829
530.000000	58.769090
529.000000	59.598158
528.000000	60.414105
527.000000	61.192640
526.000000	61.885855
525.000000	62.514899
524.000000	63.122641
523.000000	63.689460
522.000000	64.192681
521.000000	64.678698
520.000000	65.193816
519.000000	65.700969
518.000000	66.155728
517.000000	66.600889
516.000000	67.080327
515.000000	67.548434
514.000000	67.970096
513.000000	68.405060
512.000000	68.899861
511.000000	69.390897
510.000000	69.815056
509.000000	70.223732
508.000000	70.676014
507.000000	71.118422
506.000000	71.492288
505.000000	71.856446
504.000000	72.273114
503.000000	72.682315
502.000000	73.014882
501.000000	73.329751
500.000000	73.693389
499.000000	74.050467
498.000000	74.346228
497.000000	74.642159
496.000000	74.992556
495.000000	75.325745
494.000000	75.576698
493.000000	75.819183
492.000000	76.128423
491.000000	76.434607
490.000000	76.664955
489.000000	76.891287
488.000000	77.183708
487.000000	77.466435
486.000000	77.665125
485.000000	77.857339
484.000000	78.118680
483.000000	78.360650
482.000000	78.504953
481.000000	78.648949
480.000000	78.881018
479.000000	79.113246
478.000000	79.256122
477.000000	79.395028
476.000000	79.613952
475.000000	79.818119
474.000000	79.913625
473.000000	80.005041
472.000000	80.200545
471.000000	80.383950
470.000000	80.449269
469.000000	80.515173
468.000000	80.683140
467.000000	80.838628
466.000000	80.883261
465.000000	80.944384
464.000000	81.132824
463.000000	81.319646
462.000000	81.376417
461.000000	81.419396
460.000000	81.580882
459.000000	81.748523
458.000000	81.780498
457.000000	81.803661
456.000000	81.952399
455.000000	82.091647
454.000000	82.110007
453.000000	82.136456
452.000000	82.284858
451.000000	82.425653
450.000000	82.433157
449.000000	82.419294
448.000000	82.492305
447.000000	82.540189
446.000000	82.468720
445.000000	82.416142
444.000000	82.482575
443.000000	82.495529
442.000000	82.306071
441.000000	82.059893
440.000000	81.881748
439.000000	81.608563
438.000000	81.065787
437.000000	80.311366
436.000000	79.411238
435.000000	78.234136
434.000000	76.750589
433.000000	75.264751
432.000000	74.138631
431.000000	73.522360
430.000000	73.471041
429.000000	74.076454
428.000000	75.255324
427.000000	76.602846
426.000000	77.754190
425.000000	78.763752
424.000000	79.785820
423.000000	80.629412
422.000000	81.101865
421.000000	81.445820
420.000000	81.966996
419.000000	82.430087
418.000000	82.505086
417.000000	82.537842
416.000000	82.790178
415.000000	82.966825
414.000000	82.851928
413.000000	82.717455
412.000000	82.848934
411.000000	83.012110
410.000000	82.927728
409.000000	82.839451
408.000000	83.007449
407.000000	83.142503
406.000000	82.963468
405.000000	82.818030
404.000000	83.017727
403.000000	83.210548
402.000000	83.000410
401.000000	82.791447
400.000000	83.028715
