Created as New Dataset,Sample 804 By YargerLab Date Wednesday, July 09 2025
cm-1,A
4000.00,0.0020
3999.00,0.0020
3998.00,0.0020
3997.00,0.0020
3996.00,0.0020
3995.00,0.0020
3994.00,0.0020
3993.00,0.0020
3992.00,0.0020
3991.00,0.0020
3990.00,0.0020
3989.00,0.0020
3988.00,0.0020
3987.00,0.0020
3986.00,0.0020
3985.00,0.0020
3984.00,0.0020
3983.00,0.0019
3982.00,0.0019
3981.00,0.0020
3980.00,0.0020
3979.00,0.0020
3978.00,0.0020
3977.00,0.0020
3976.00,0.0020
3975.00,0.0020
3974.00,0.0020
3973.00,0.0020
3972.00,0.0020
3971.00,0.0020
3970.00,0.0020
3969.00,0.0020
3968.00,0.0021
3967.00,0.0021
3966.00,0.0021
3965.00,0.0021
3964.00,0.0021
3963.00,0.0021
3962.00,0.0021
3961.00,0.0021
3960.00,0.0021
3959.00,0.0020
3958.00,0.0020
3957.00,0.0020
3956.00,0.0020
3955.00,0.0020
3954.00,0.0020
3953.00,0.0020
3952.00,0.0020
3951.00,0.0020
3950.00,0.0020
3949.00,0.0020
3948.00,0.0020
3947.00,0.0020
3946.00,0.0019
3945.00,0.0019
3944.00,0.0019
3943.00,0.0019
3942.00,0.0019
3941.00,0.0019
3940.00,0.0019
3939.00,0.0019
3938.00,0.0019
3937.00,0.0019
3936.00,0.0019
3935.00,0.0019
3934.00,0.0019
3933.00,0.0019
3932.00,0.0019
3931.00,0.0019
3930.00,0.0018
3929.00,0.0018
3928.00,0.0018
3927.00,0.0018
3926.00,0.0018
3925.00,0.0018
3924.00,0.0018
3923.00,0.0019
3922.00,0.0019
3921.00,0.0019
3920.00,0.0019
3919.00,0.0019
3918.00,0.0019
3917.00,0.0019
3916.00,0.0019
3915.00,0.0019
3914.00,0.0019
3913.00,0.0019
3912.00,0.0019
3911.00,0.0018
3910.00,0.0018
3909.00,0.0018
3908.00,0.0018
3907.00,0.0018
3906.00,0.0018
3905.00,0.0017
3904.00,0.0017
3903.00,0.0017
3902.00,0.0017
3901.00,0.0017
3900.00,0.0017
3899.00,0.0017
3898.00,0.0017
3897.00,0.0017
3896.00,0.0017
3895.00,0.0017
3894.00,0.0017
3893.00,0.0017
3892.00,0.0017
3891.00,0.0017
3890.00,0.0017
3889.00,0.0017
3888.00,0.0016
3887.00,0.0016
3886.00,0.0016
3885.00,0.0016
3884.00,0.0017
3883.00,0.0017
3882.00,0.0016
3881.00,0.0016
3880.00,0.0016
3879.00,0.0016
3878.00,0.0016
3877.00,0.0016
3876.00,0.0016
3875.00,0.0016
3874.00,0.0017
3873.00,0.0017
3872.00,0.0016
3871.00,0.0016
3870.00,0.0016
3869.00,0.0016
3868.00,0.0016
3867.00,0.0015
3866.00,0.0015
3865.00,0.0015
3864.00,0.0015
3863.00,0.0016
3862.00,0.0016
3861.00,0.0016
3860.00,0.0016
3859.00,0.0016
3858.00,0.0016
3857.00,0.0016
3856.00,0.0016
3855.00,0.0016
3854.00,0.0015
3853.00,0.0015
3852.00,0.0015
3851.00,0.0015
3850.00,0.0015
3849.00,0.0015
3848.00,0.0016
3847.00,0.0016
3846.00,0.0016
3845.00,0.0016
3844.00,0.0016
3843.00,0.0016
3842.00,0.0016
3841.00,0.0016
3840.00,0.0015
3839.00,0.0015
3838.00,0.0015
3837.00,0.0014
3836.00,0.0014
3835.00,0.0014
3834.00,0.0014
3833.00,0.0015
3832.00,0.0015
3831.00,0.0015
3830.00,0.0015
3829.00,0.0015
3828.00,0.0015
3827.00,0.0015
3826.00,0.0015
3825.00,0.0015
3824.00,0.0015
3823.00,0.0015
3822.00,0.0015
3821.00,0.0014
3820.00,0.0014
3819.00,0.0014
3818.00,0.0013
3817.00,0.0013
3816.00,0.0013
3815.00,0.0013
3814.00,0.0014
3813.00,0.0014
3812.00,0.0015
3811.00,0.0015
3810.00,0.0015
3809.00,0.0015
3808.00,0.0015
3807.00,0.0015
3806.00,0.0014
3805.00,0.0014
3804.00,0.0013
3803.00,0.0013
3802.00,0.0013
3801.00,0.0013
3800.00,0.0013
3799.00,0.0013
3798.00,0.0013
3797.00,0.0013
3796.00,0.0014
3795.00,0.0014
3794.00,0.0014
3793.00,0.0015
3792.00,0.0015
3791.00,0.0015
3790.00,0.0015
3789.00,0.0015
3788.00,0.0015
3787.00,0.0015
3786.00,0.0015
3785.00,0.0015
3784.00,0.0015
3783.00,0.0015
3782.00,0.0015
3781.00,0.0015
3780.00,0.0015
3779.00,0.0015
3778.00,0.0014
3777.00,0.0014
3776.00,0.0014
3775.00,0.0014
3774.00,0.0014
3773.00,0.0014
3772.00,0.0013
3771.00,0.0013
3770.00,0.0013
3769.00,0.0014
3768.00,0.0014
3767.00,0.0014
3766.00,0.0014
3765.00,0.0014
3764.00,0.0014
3763.00,0.0014
3762.00,0.0014
3761.00,0.0014
3760.00,0.0014
3759.00,0.0014
3758.00,0.0014
3757.00,0.0014
3756.00,0.0014
3755.00,0.0014
3754.00,0.0013
3753.00,0.0013
3752.00,0.0013
3751.00,0.0013
3750.00,0.0012
3749.00,0.0012
3748.00,0.0012
3747.00,0.0011
3746.00,0.0011
3745.00,0.0012
3744.00,0.0012
3743.00,0.0012
3742.00,0.0012
3741.00,0.0012
3740.00,0.0012
3739.00,0.0011
3738.00,0.0011
3737.00,0.0011
3736.00,0.0011
3735.00,0.0011
3734.00,0.0011
3733.00,0.0011
3732.00,0.0012
3731.00,0.0012
3730.00,0.0012
3729.00,0.0012
3728.00,0.0012
3727.00,0.0012
3726.00,0.0012
3725.00,0.0012
3724.00,0.0012
3723.00,0.0012
3722.00,0.0012
3721.00,0.0012
3720.00,0.0012
3719.00,0.0012
3718.00,0.0012
3717.00,0.0012
3716.00,0.0012
3715.00,0.0012
3714.00,0.0012
3713.00,0.0012
3712.00,0.0012
3711.00,0.0012
3710.00,0.0011
3709.00,0.0011
3708.00,0.0011
3707.00,0.0012
3706.00,0.0012
3705.00,0.0012
3704.00,0.0012
3703.00,0.0012
3702.00,0.0012
3701.00,0.0012
3700.00,0.0012
3699.00,0.0012
3698.00,0.0012
3697.00,0.0012
3696.00,0.0013
3695.00,0.0013
3694.00,0.0013
3693.00,0.0013
3692.00,0.0013
3691.00,0.0012
3690.00,0.0012
3689.00,0.0012
3688.00,0.0012
3687.00,0.0012
3686.00,0.0012
3685.00,0.0012
3684.00,0.0012
3683.00,0.0012
3682.00,0.0013
3681.00,0.0013
3680.00,0.0013
3679.00,0.0013
3678.00,0.0012
3677.00,0.0012
3676.00,0.0012
3675.00,0.0012
3674.00,0.0012
3673.00,0.0011
3672.00,0.0011
3671.00,0.0012
3670.00,0.0012
3669.00,0.0013
3668.00,0.0013
3667.00,0.0013
3666.00,0.0013
3665.00,0.0013
3664.00,0.0014
3663.00,0.0014
3662.00,0.0014
3661.00,0.0014
3660.00,0.0015
3659.00,0.0015
3658.00,0.0015
3657.00,0.0014
3656.00,0.0014
3655.00,0.0014
3654.00,0.0013
3653.00,0.0013
3652.00,0.0013
3651.00,0.0013
3650.00,0.0013
3649.00,0.0013
3648.00,0.0013
3647.00,0.0014
3646.00,0.0014
3645.00,0.0014
3644.00,0.0014
3643.00,0.0015
3642.00,0.0015
3641.00,0.0015
3640.00,0.0015
3639.00,0.0016
3638.00,0.0016
3637.00,0.0016
3636.00,0.0016
3635.00,0.0016
3634.00,0.0016
3633.00,0.0016
3632.00,0.0016
3631.00,0.0016
3630.00,0.0016
3629.00,0.0016
3628.00,0.0017
3627.00,0.0017
3626.00,0.0018
3625.00,0.0018
3624.00,0.0019
3623.00,0.0020
3622.00,0.0020
3621.00,0.0021
3620.00,0.0021
3619.00,0.0021
3618.00,0.0022
3617.00,0.0022
3616.00,0.0023
3615.00,0.0023
3614.00,0.0024
3613.00,0.0024
3612.00,0.0024
3611.00,0.0023
3610.00,0.0023
3609.00,0.0023
3608.00,0.0024
3607.00,0.0024
3606.00,0.0024
3605.00,0.0025
3604.00,0.0025
3603.00,0.0026
3602.00,0.0026
3601.00,0.0026
3600.00,0.0027
3599.00,0.0027
3598.00,0.0027
3597.00,0.0028
3596.00,0.0028
3595.00,0.0028
3594.00,0.0028
3593.00,0.0029
3592.00,0.0029
3591.00,0.0029
3590.00,0.0030
3589.00,0.0030
3588.00,0.0030
3587.00,0.0031
3586.00,0.0031
3585.00,0.0032
3584.00,0.0032
3583.00,0.0033
3582.00,0.0034
3581.00,0.0035
3580.00,0.0036
3579.00,0.0036
3578.00,0.0037
3577.00,0.0038
3576.00,0.0039
3575.00,0.0040
3574.00,0.0041
3573.00,0.0041
3572.00,0.0042
3571.00,0.0043
3570.00,0.0044
3569.00,0.0045
3568.00,0.0046
3567.00,0.0047
3566.00,0.0048
3565.00,0.0048
3564.00,0.0049
3563.00,0.0050
3562.00,0.0051
3561.00,0.0053
3560.00,0.0054
3559.00,0.0056
3558.00,0.0057
3557.00,0.0058
3556.00,0.0059
3555.00,0.0060
3554.00,0.0061
3553.00,0.0063
3552.00,0.0064
3551.00,0.0066
3550.00,0.0068
3549.00,0.0069
3548.00,0.0071
3547.00,0.0073
3546.00,0.0075
3545.00,0.0077
3544.00,0.0079
3543.00,0.0082
3542.00,0.0084
3541.00,0.0086
3540.00,0.0088
3539.00,0.0091
3538.00,0.0094
3537.00,0.0097
3536.00,0.0101
3535.00,0.0105
3534.00,0.0109
3533.00,0.0113
3532.00,0.0118
3531.00,0.0123
3530.00,0.0130
3529.00,0.0137
3528.00,0.0145
3527.00,0.0153
3526.00,0.0160
3525.00,0.0167
3524.00,0.0174
3523.00,0.0179
3522.00,0.0183
3521.00,0.0186
3520.00,0.0187
3519.00,0.0187
3518.00,0.0186
3517.00,0.0184
3516.00,0.0183
3515.00,0.0180
3514.00,0.0178
3513.00,0.0175
3512.00,0.0173
3511.00,0.0172
3510.00,0.0171
3509.00,0.0171
3508.00,0.0172
3507.00,0.0173
3506.00,0.0174
3505.00,0.0175
3504.00,0.0177
3503.00,0.0180
3502.00,0.0182
3501.00,0.0185
3500.00,0.0189
3499.00,0.0192
3498.00,0.0196
3497.00,0.0200
3496.00,0.0204
3495.00,0.0208
3494.00,0.0212
3493.00,0.0217
3492.00,0.0222
3491.00,0.0227
3490.00,0.0232
3489.00,0.0238
3488.00,0.0244
3487.00,0.0250
3486.00,0.0256
3485.00,0.0262
3484.00,0.0268
3483.00,0.0274
3482.00,0.0281
3481.00,0.0289
3480.00,0.0296
3479.00,0.0303
3478.00,0.0311
3477.00,0.0319
3476.00,0.0327
3475.00,0.0336
3474.00,0.0346
3473.00,0.0356
3472.00,0.0368
3471.00,0.0381
3470.00,0.0396
3469.00,0.0412
3468.00,0.0429
3467.00,0.0449
3466.00,0.0470
3465.00,0.0493
3464.00,0.0519
3463.00,0.0548
3462.00,0.0580
3461.00,0.0616
3460.00,0.0656
3459.00,0.0699
3458.00,0.0745
3457.00,0.0794
3456.00,0.0844
3455.00,0.0894
3454.00,0.0942
3453.00,0.0983
3452.00,0.1017
3451.00,0.1039
3450.00,0.1048
3449.00,0.1044
3448.00,0.1027
3447.00,0.1000
3446.00,0.0964
3445.00,0.0924
3444.00,0.0881
3443.00,0.0837
3442.00,0.0794
3441.00,0.0753
3440.00,0.0715
3439.00,0.0681
3438.00,0.0650
3437.00,0.0623
3436.00,0.0600
3435.00,0.0580
3434.00,0.0562
3433.00,0.0547
3432.00,0.0534
3431.00,0.0523
3430.00,0.0513
3429.00,0.0505
3428.00,0.0498
3427.00,0.0491
3426.00,0.0485
3425.00,0.0480
3424.00,0.0476
3423.00,0.0472
3422.00,0.0469
3421.00,0.0466
3420.00,0.0464
3419.00,0.0462
3418.00,0.0460
3417.00,0.0459
3416.00,0.0457
3415.00,0.0456
3414.00,0.0454
3413.00,0.0452
3412.00,0.0450
3411.00,0.0448
3410.00,0.0445
3409.00,0.0442
3408.00,0.0439
3407.00,0.0436
3406.00,0.0432
3405.00,0.0427
3404.00,0.0423
3403.00,0.0418
3402.00,0.0413
3401.00,0.0407
3400.00,0.0402
3399.00,0.0396
3398.00,0.0390
3397.00,0.0384
3396.00,0.0379
3395.00,0.0374
3394.00,0.0369
3393.00,0.0365
3392.00,0.0360
3391.00,0.0356
3390.00,0.0352
3389.00,0.0348
3388.00,0.0344
3387.00,0.0341
3386.00,0.0338
3385.00,0.0336
3384.00,0.0333
3383.00,0.0331
3382.00,0.0328
3381.00,0.0326
3380.00,0.0323
3379.00,0.0321
3378.00,0.0318
3377.00,0.0316
3376.00,0.0314
3375.00,0.0311
3374.00,0.0309
3373.00,0.0307
3372.00,0.0305
3371.00,0.0303
3370.00,0.0302
3369.00,0.0300
3368.00,0.0298
3367.00,0.0296
3366.00,0.0295
3365.00,0.0293
3364.00,0.0291
3363.00,0.0290
3362.00,0.0288
3361.00,0.0286
3360.00,0.0285
3359.00,0.0283
3358.00,0.0281
3357.00,0.0279
3356.00,0.0278
3355.00,0.0277
3354.00,0.0276
3353.00,0.0275
3352.00,0.0274
3351.00,0.0273
3350.00,0.0272
3349.00,0.0271
3348.00,0.0269
3347.00,0.0268
3346.00,0.0267
3345.00,0.0265
3344.00,0.0264
3343.00,0.0263
3342.00,0.0262
3341.00,0.0260
3340.00,0.0259
3339.00,0.0258
3338.00,0.0257
3337.00,0.0256
3336.00,0.0255
3335.00,0.0254
3334.00,0.0254
3333.00,0.0253
3332.00,0.0251
3331.00,0.0250
3330.00,0.0250
3329.00,0.0249
3328.00,0.0249
3327.00,0.0249
3326.00,0.0248
3325.00,0.0248
3324.00,0.0247
3323.00,0.0246
3322.00,0.0246
3321.00,0.0245
3320.00,0.0245
3319.00,0.0244
3318.00,0.0244
3317.00,0.0244
3316.00,0.0244
3315.00,0.0244
3314.00,0.0243
3313.00,0.0243
3312.00,0.0243
3311.00,0.0243
3310.00,0.0242
3309.00,0.0242
3308.00,0.0242
3307.00,0.0241
3306.00,0.0241
3305.00,0.0241
3304.00,0.0242
3303.00,0.0242
3302.00,0.0242
3301.00,0.0243
3300.00,0.0243
3299.00,0.0243
3298.00,0.0243
3297.00,0.0243
3296.00,0.0243
3295.00,0.0243
3294.00,0.0243
3293.00,0.0244
3292.00,0.0245
3291.00,0.0246
3290.00,0.0247
3289.00,0.0248
3288.00,0.0249
3287.00,0.0250
3286.00,0.0250
3285.00,0.0251
3284.00,0.0252
3283.00,0.0253
3282.00,0.0253
3281.00,0.0254
3280.00,0.0255
3279.00,0.0256
3278.00,0.0256
3277.00,0.0256
3276.00,0.0257
3275.00,0.0257
3274.00,0.0257
3273.00,0.0258
3272.00,0.0258
3271.00,0.0259
3270.00,0.0261
3269.00,0.0263
3268.00,0.0266
3267.00,0.0268
3266.00,0.0269
3265.00,0.0271
3264.00,0.0272
3263.00,0.0273
3262.00,0.0274
3261.00,0.0275
3260.00,0.0276
3259.00,0.0276
3258.00,0.0277
3257.00,0.0277
3256.00,0.0277
3255.00,0.0278
3254.00,0.0279
3253.00,0.0281
3252.00,0.0281
3251.00,0.0282
3250.00,0.0282
3249.00,0.0282
3248.00,0.0282
3247.00,0.0283
3246.00,0.0285
3245.00,0.0286
3244.00,0.0288
3243.00,0.0289
3242.00,0.0290
3241.00,0.0291
3240.00,0.0292
3239.00,0.0293
3238.00,0.0294
3237.00,0.0295
3236.00,0.0295
3235.00,0.0296
3234.00,0.0297
3233.00,0.0298
3232.00,0.0300
3231.00,0.0302
3230.00,0.0303
3229.00,0.0304
3228.00,0.0305
3227.00,0.0306
3226.00,0.0307
3225.00,0.0308
3224.00,0.0309
3223.00,0.0310
3222.00,0.0311
3221.00,0.0312
3220.00,0.0313
3219.00,0.0314
3218.00,0.0315
3217.00,0.0316
3216.00,0.0317
3215.00,0.0318
3214.00,0.0320
3213.00,0.0321
3212.00,0.0323
3211.00,0.0324
3210.00,0.0325
3209.00,0.0327
3208.00,0.0328
3207.00,0.0330
3206.00,0.0331
3205.00,0.0332
3204.00,0.0333
3203.00,0.0334
3202.00,0.0336
3201.00,0.0337
3200.00,0.0339
3199.00,0.0340
3198.00,0.0340
3197.00,0.0341
3196.00,0.0341
3195.00,0.0342
3194.00,0.0342
3193.00,0.0343
3192.00,0.0343
3191.00,0.0343
3190.00,0.0344
3189.00,0.0344
3188.00,0.0345
3187.00,0.0346
3186.00,0.0347
3185.00,0.0347
3184.00,0.0348
3183.00,0.0348
3182.00,0.0348
3181.00,0.0349
3180.00,0.0349
3179.00,0.0350
3178.00,0.0351
3177.00,0.0351
3176.00,0.0352
3175.00,0.0352
3174.00,0.0352
3173.00,0.0352
3172.00,0.0352
3171.00,0.0353
3170.00,0.0353
3169.00,0.0353
3168.00,0.0353
3167.00,0.0354
3166.00,0.0354
3165.00,0.0354
3164.00,0.0354
3163.00,0.0354
3162.00,0.0354
3161.00,0.0354
3160.00,0.0354
3159.00,0.0354
3158.00,0.0354
3157.00,0.0353
3156.00,0.0353
3155.00,0.0352
3154.00,0.0351
3153.00,0.0352
3152.00,0.0353
3151.00,0.0355
3150.00,0.0358
3149.00,0.0360
3148.00,0.0362
3147.00,0.0364
3146.00,0.0365
3145.00,0.0367
3144.00,0.0368
3143.00,0.0369
3142.00,0.0369
3141.00,0.0370
3140.00,0.0371
3139.00,0.0372
3138.00,0.0374
3137.00,0.0376
3136.00,0.0377
3135.00,0.0379
3134.00,0.0380
3133.00,0.0380
3132.00,0.0381
3131.00,0.0381
3130.00,0.0382
3129.00,0.0383
3128.00,0.0384
3127.00,0.0385
3126.00,0.0386
3125.00,0.0386
3124.00,0.0387
3123.00,0.0387
3122.00,0.0387
3121.00,0.0387
3120.00,0.0387
3119.00,0.0387
3118.00,0.0388
3117.00,0.0389
3116.00,0.0391
3115.00,0.0392
3114.00,0.0394
3113.00,0.0395
3112.00,0.0397
3111.00,0.0398
3110.00,0.0399
3109.00,0.0401
3108.00,0.0403
3107.00,0.0404
3106.00,0.0406
3105.00,0.0407
3104.00,0.0409
3103.00,0.0409
3102.00,0.0410
3101.00,0.0411
3100.00,0.0412
3099.00,0.0412
3098.00,0.0413
3097.00,0.0413
3096.00,0.0413
3095.00,0.0414
3094.00,0.0413
3093.00,0.0413
3092.00,0.0413
3091.00,0.0414
3090.00,0.0414
3089.00,0.0415
3088.00,0.0416
3087.00,0.0417
3086.00,0.0419
3085.00,0.0420
3084.00,0.0423
3083.00,0.0425
3082.00,0.0428
3081.00,0.0432
3080.00,0.0437
3079.00,0.0442
3078.00,0.0449
3077.00,0.0457
3076.00,0.0465
3075.00,0.0473
3074.00,0.0478
3073.00,0.0483
3072.00,0.0485
3071.00,0.0485
3070.00,0.0483
3069.00,0.0480
3068.00,0.0475
3067.00,0.0468
3066.00,0.0460
3065.00,0.0452
3064.00,0.0444
3063.00,0.0436
3062.00,0.0428
3061.00,0.0419
3060.00,0.0411
3059.00,0.0403
3058.00,0.0397
3057.00,0.0391
3056.00,0.0386
3055.00,0.0383
3054.00,0.0379
3053.00,0.0376
3052.00,0.0373
3051.00,0.0370
3050.00,0.0368
3049.00,0.0366
3048.00,0.0365
3047.00,0.0363
3046.00,0.0362
3045.00,0.0362
3044.00,0.0361
3043.00,0.0361
3042.00,0.0362
3041.00,0.0362
3040.00,0.0362
3039.00,0.0363
3038.00,0.0363
3037.00,0.0363
3036.00,0.0363
3035.00,0.0363
3034.00,0.0362
3033.00,0.0362
3032.00,0.0361
3031.00,0.0359
3030.00,0.0357
3029.00,0.0355
3028.00,0.0352
3027.00,0.0350
3026.00,0.0347
3025.00,0.0344
3024.00,0.0342
3023.00,0.0339
3022.00,0.0337
3021.00,0.0335
3020.00,0.0333
3019.00,0.0332
3018.00,0.0330
3017.00,0.0329
3016.00,0.0328
3015.00,0.0327
3014.00,0.0327
3013.00,0.0327
3012.00,0.0328
3011.00,0.0328
3010.00,0.0330
3009.00,0.0331
3008.00,0.0332
3007.00,0.0334
3006.00,0.0336
3005.00,0.0337
3004.00,0.0340
3003.00,0.0342
3002.00,0.0344
3001.00,0.0347
3000.00,0.0350
2999.00,0.0353
2998.00,0.0357
2997.00,0.0362
2996.00,0.0367
2995.00,0.0373
2994.00,0.0380
2993.00,0.0387
2992.00,0.0395
2991.00,0.0402
2990.00,0.0409
2989.00,0.0414
2988.00,0.0419
2987.00,0.0423
2986.00,0.0426
2985.00,0.0430
2984.00,0.0435
2983.00,0.0442
2982.00,0.0451
2981.00,0.0462
2980.00,0.0475
2979.00,0.0489
2978.00,0.0503
2977.00,0.0518
2976.00,0.0532
2975.00,0.0546
2974.00,0.0560
2973.00,0.0573
2972.00,0.0587
2971.00,0.0602
2970.00,0.0616
2969.00,0.0632
2968.00,0.0647
2967.00,0.0662
2966.00,0.0677
2965.00,0.0694
2964.00,0.0713
2963.00,0.0734
2962.00,0.0758
2961.00,0.0783
2960.00,0.0807
2959.00,0.0830
2958.00,0.0850
2957.00,0.0865
2956.00,0.0877
2955.00,0.0884
2954.00,0.0887
2953.00,0.0885
2952.00,0.0878
2951.00,0.0867
2950.00,0.0851
2949.00,0.0834
2948.00,0.0818
2947.00,0.0806
2946.00,0.0801
2945.00,0.0804
2944.00,0.0816
2943.00,0.0835
2942.00,0.0860
2941.00,0.0890
2940.00,0.0923
2939.00,0.0960
2938.00,0.0998
2937.00,0.1038
2936.00,0.1081
2935.00,0.1126
2934.00,0.1175
2933.00,0.1227
2932.00,0.1282
2931.00,0.1339
2930.00,0.1395
2929.00,0.1448
2928.00,0.1493
2927.00,0.1528
2926.00,0.1552
2925.00,0.1563
2924.00,0.1563
2923.00,0.1553
2922.00,0.1535
2921.00,0.1510
2920.00,0.1479
2919.00,0.1445
2918.00,0.1409
2917.00,0.1372
2916.00,0.1333
2915.00,0.1294
2914.00,0.1253
2913.00,0.1211
2912.00,0.1168
2911.00,0.1124
2910.00,0.1081
2909.00,0.1038
2908.00,0.0998
2907.00,0.0960
2906.00,0.0926
2905.00,0.0896
2904.00,0.0869
2903.00,0.0846
2902.00,0.0825
2901.00,0.0806
2900.00,0.0789
2899.00,0.0772
2898.00,0.0756
2897.00,0.0740
2896.00,0.0725
2895.00,0.0712
2894.00,0.0700
2893.00,0.0689
2892.00,0.0679
2891.00,0.0670
2890.00,0.0663
2889.00,0.0657
2888.00,0.0652
2887.00,0.0649
2886.00,0.0645
2885.00,0.0642
2884.00,0.0640
2883.00,0.0638
2882.00,0.0637
2881.00,0.0638
2880.00,0.0641
2879.00,0.0646
2878.00,0.0655
2877.00,0.0666
2876.00,0.0681
2875.00,0.0698
2874.00,0.0717
2873.00,0.0736
2872.00,0.0751
2871.00,0.0759
2870.00,0.0759
2869.00,0.0752
2868.00,0.0739
2867.00,0.0727
2866.00,0.0719
2865.00,0.0719
2864.00,0.0730
2863.00,0.0749
2862.00,0.0776
2861.00,0.0809
2860.00,0.0844
2859.00,0.0876
2858.00,0.0901
2857.00,0.0916
2856.00,0.0917
2855.00,0.0906
2854.00,0.0883
2853.00,0.0852
2852.00,0.0816
2851.00,0.0776
2850.00,0.0737
2849.00,0.0698
2848.00,0.0663
2847.00,0.0631
2846.00,0.0604
2845.00,0.0582
2844.00,0.0564
2843.00,0.0548
2842.00,0.0534
2841.00,0.0522
2840.00,0.0511
2839.00,0.0504
2838.00,0.0502
2837.00,0.0505
2836.00,0.0511
2835.00,0.0517
2834.00,0.0522
2833.00,0.0524
2832.00,0.0520
2831.00,0.0511
2830.00,0.0495
2829.00,0.0475
2828.00,0.0451
2827.00,0.0427
2826.00,0.0403
2825.00,0.0381
2824.00,0.0363
2823.00,0.0348
2822.00,0.0335
2821.00,0.0324
2820.00,0.0315
2819.00,0.0307
2818.00,0.0301
2817.00,0.0295
2816.00,0.0290
2815.00,0.0285
2814.00,0.0281
2813.00,0.0277
2812.00,0.0274
2811.00,0.0271
2810.00,0.0267
2809.00,0.0264
2808.00,0.0262
2807.00,0.0259
2806.00,0.0257
2805.00,0.0255
2804.00,0.0253
2803.00,0.0252
2802.00,0.0250
2801.00,0.0248
2800.00,0.0246
2799.00,0.0245
2798.00,0.0243
2797.00,0.0242
2796.00,0.0241
2795.00,0.0240
2794.00,0.0239
2793.00,0.0237
2792.00,0.0236
2791.00,0.0235
2790.00,0.0234
2789.00,0.0233
2788.00,0.0233
2787.00,0.0232
2786.00,0.0232
2785.00,0.0232
2784.00,0.0232
2783.00,0.0232
2782.00,0.0232
2781.00,0.0232
2780.00,0.0233
2779.00,0.0233
2778.00,0.0233
2777.00,0.0234
2776.00,0.0235
2775.00,0.0235
2774.00,0.0236
2773.00,0.0237
2772.00,0.0238
2771.00,0.0238
2770.00,0.0239
2769.00,0.0240
2768.00,0.0241
2767.00,0.0242
2766.00,0.0242
2765.00,0.0243
2764.00,0.0244
2763.00,0.0245
2762.00,0.0245
2761.00,0.0246
2760.00,0.0247
2759.00,0.0247
2758.00,0.0248
2757.00,0.0248
2756.00,0.0249
2755.00,0.0249
2754.00,0.0249
2753.00,0.0250
2752.00,0.0250
2751.00,0.0250
2750.00,0.0250
2749.00,0.0251
2748.00,0.0251
2747.00,0.0252
2746.00,0.0252
2745.00,0.0253
2744.00,0.0254
2743.00,0.0255
2742.00,0.0255
2741.00,0.0256
2740.00,0.0257
2739.00,0.0258
2738.00,0.0260
2737.00,0.0261
2736.00,0.0263
2735.00,0.0265
2734.00,0.0267
2733.00,0.0269
2732.00,0.0270
2731.00,0.0271
2730.00,0.0272
2729.00,0.0272
2728.00,0.0272
2727.00,0.0271
2726.00,0.0271
2725.00,0.0271
2724.00,0.0270
2723.00,0.0269
2722.00,0.0268
2721.00,0.0268
2720.00,0.0267
2719.00,0.0267
2718.00,0.0266
2717.00,0.0266
2716.00,0.0265
2715.00,0.0265
2714.00,0.0265
2713.00,0.0265
2712.00,0.0265
2711.00,0.0265
2710.00,0.0265
2709.00,0.0265
2708.00,0.0265
2707.00,0.0266
2706.00,0.0266
2705.00,0.0266
2704.00,0.0266
2703.00,0.0267
2702.00,0.0267
2701.00,0.0267
2700.00,0.0268
2699.00,0.0268
2698.00,0.0268
2697.00,0.0268
2696.00,0.0269
2695.00,0.0269
2694.00,0.0270
2693.00,0.0270
2692.00,0.0270
2691.00,0.0271
2690.00,0.0271
2689.00,0.0271
2688.00,0.0271
2687.00,0.0271
2686.00,0.0271
2685.00,0.0271
2684.00,0.0271
2683.00,0.0271
2682.00,0.0271
2681.00,0.0270
2680.00,0.0270
2679.00,0.0270
2678.00,0.0270
2677.00,0.0270
2676.00,0.0270
2675.00,0.0271
2674.00,0.0271
2673.00,0.0271
2672.00,0.0272
2671.00,0.0272
2670.00,0.0273
2669.00,0.0273
2668.00,0.0274
2667.00,0.0274
2666.00,0.0275
2665.00,0.0276
2664.00,0.0276
2663.00,0.0277
2662.00,0.0276
2661.00,0.0276
2660.00,0.0276
2659.00,0.0275
2658.00,0.0274
2657.00,0.0273
2656.00,0.0272
2655.00,0.0271
2654.00,0.0270
2653.00,0.0269
2652.00,0.0268
2651.00,0.0267
2650.00,0.0267
2649.00,0.0266
2648.00,0.0265
2647.00,0.0264
2646.00,0.0264
2645.00,0.0263
2644.00,0.0263
2643.00,0.0262
2642.00,0.0262
2641.00,0.0262
2640.00,0.0261
2639.00,0.0260
2638.00,0.0260
2637.00,0.0259
2636.00,0.0259
2635.00,0.0258
2634.00,0.0257
2633.00,0.0257
2632.00,0.0256
2631.00,0.0256
2630.00,0.0256
2629.00,0.0255
2628.00,0.0255
2627.00,0.0255
2626.00,0.0254
2625.00,0.0254
2624.00,0.0254
2623.00,0.0254
2622.00,0.0253
2621.00,0.0253
2620.00,0.0252
2619.00,0.0252
2618.00,0.0251
2617.00,0.0251
2616.00,0.0250
2615.00,0.0250
2614.00,0.0250
2613.00,0.0249
2612.00,0.0249
2611.00,0.0248
2610.00,0.0248
2609.00,0.0247
2608.00,0.0247
2607.00,0.0247
2606.00,0.0246
2605.00,0.0246
2604.00,0.0245
2603.00,0.0244
2602.00,0.0243
2601.00,0.0242
2600.00,0.0241
2599.00,0.0240
2598.00,0.0239
2597.00,0.0238
2596.00,0.0237
2595.00,0.0236
2594.00,0.0235
2593.00,0.0234
2592.00,0.0233
2591.00,0.0232
2590.00,0.0232
2589.00,0.0231
2588.00,0.0230
2587.00,0.0229
2586.00,0.0229
2585.00,0.0228
2584.00,0.0227
2583.00,0.0227
2582.00,0.0226
2581.00,0.0226
2580.00,0.0226
2579.00,0.0225
2578.00,0.0225
2577.00,0.0224
2576.00,0.0224
2575.00,0.0224
2574.00,0.0224
2573.00,0.0224
2572.00,0.0224
2571.00,0.0225
2570.00,0.0225
2569.00,0.0226
2568.00,0.0227
2567.00,0.0227
2566.00,0.0228
2565.00,0.0228
2564.00,0.0229
2563.00,0.0230
2562.00,0.0231
2561.00,0.0232
2560.00,0.0232
2559.00,0.0233
2558.00,0.0233
2557.00,0.0233
2556.00,0.0233
2555.00,0.0233
2554.00,0.0233
2553.00,0.0233
2552.00,0.0232
2551.00,0.0232
2550.00,0.0232
2549.00,0.0231
2548.00,0.0230
2547.00,0.0229
2546.00,0.0229
2545.00,0.0228
2544.00,0.0227
2543.00,0.0226
2542.00,0.0225
2541.00,0.0224
2540.00,0.0223
2539.00,0.0221
2538.00,0.0220
2537.00,0.0219
2536.00,0.0218
2535.00,0.0217
2534.00,0.0216
2533.00,0.0215
2532.00,0.0214
2531.00,0.0214
2530.00,0.0213
2529.00,0.0213
2528.00,0.0212
2527.00,0.0212
2526.00,0.0212
2525.00,0.0211
2524.00,0.0210
2523.00,0.0210
2522.00,0.0209
2521.00,0.0209
2520.00,0.0208
2519.00,0.0208
2518.00,0.0207
2517.00,0.0206
2516.00,0.0205
2515.00,0.0203
2514.00,0.0202
2513.00,0.0201
2512.00,0.0199
2511.00,0.0198
2510.00,0.0197
2509.00,0.0196
2508.00,0.0195
2507.00,0.0194
2506.00,0.0193
2505.00,0.0193
2504.00,0.0192
2503.00,0.0192
2502.00,0.0191
2501.00,0.0190
2500.00,0.0190
2499.00,0.0189
2498.00,0.0189
2497.00,0.0188
2496.00,0.0187
2495.00,0.0187
2494.00,0.0187
2493.00,0.0187
2492.00,0.0187
2491.00,0.0187
2490.00,0.0187
2489.00,0.0187
2488.00,0.0188
2487.00,0.0188
2486.00,0.0188
2485.00,0.0188
2484.00,0.0187
2483.00,0.0187
2482.00,0.0187
2481.00,0.0187
2480.00,0.0187
2479.00,0.0187
2478.00,0.0187
2477.00,0.0187
2476.00,0.0186
2475.00,0.0186
2474.00,0.0186
2473.00,0.0185
2472.00,0.0185
2471.00,0.0185
2470.00,0.0185
2469.00,0.0184
2468.00,0.0184
2467.00,0.0184
2466.00,0.0184
2465.00,0.0184
2464.00,0.0184
2463.00,0.0184
2462.00,0.0185
2461.00,0.0186
2460.00,0.0186
2459.00,0.0187
2458.00,0.0188
2457.00,0.0188
2456.00,0.0189
2455.00,0.0189
2454.00,0.0190
2453.00,0.0190
2452.00,0.0190
2451.00,0.0190
2450.00,0.0190
2449.00,0.0190
2448.00,0.0191
2447.00,0.0191
2446.00,0.0191
2445.00,0.0190
2444.00,0.0190
2443.00,0.0189
2442.00,0.0189
2441.00,0.0188
2440.00,0.0188
2439.00,0.0187
2438.00,0.0187
2437.00,0.0187
2436.00,0.0187
2435.00,0.0186
2434.00,0.0186
2433.00,0.0186
2432.00,0.0185
2431.00,0.0185
2430.00,0.0184
2429.00,0.0183
2428.00,0.0183
2427.00,0.0183
2426.00,0.0183
2425.00,0.0183
2424.00,0.0182
2423.00,0.0182
2422.00,0.0181
2421.00,0.0181
2420.00,0.0180
2419.00,0.0180
2418.00,0.0179
2417.00,0.0178
2416.00,0.0177
2415.00,0.0176
2414.00,0.0175
2413.00,0.0175
2412.00,0.0174
2411.00,0.0172
2410.00,0.0171
2409.00,0.0169
2408.00,0.0167
2407.00,0.0166
2406.00,0.0165
2405.00,0.0163
2404.00,0.0162
2403.00,0.0161
2402.00,0.0160
2401.00,0.0158
2400.00,0.0157
2399.00,0.0156
2398.00,0.0154
2397.00,0.0153
2396.00,0.0152
2395.00,0.0150
2394.00,0.0149
2393.00,0.0148
2392.00,0.0147
2391.00,0.0146
2390.00,0.0145
2389.00,0.0144
2388.00,0.0143
2387.00,0.0142
2386.00,0.0141
2385.00,0.0139
2384.00,0.0138
2383.00,0.0137
2382.00,0.0136
2381.00,0.0135
2380.00,0.0134
2379.00,0.0133
2378.00,0.0131
2377.00,0.0130
2376.00,0.0130
2375.00,0.0129
2374.00,0.0128
2373.00,0.0127
2372.00,0.0126
2371.00,0.0124
2370.00,0.0123
2369.00,0.0122
2368.00,0.0121
2367.00,0.0120
2366.00,0.0120
2365.00,0.0119
2364.00,0.0119
2363.00,0.0118
2362.00,0.0117
2361.00,0.0116
2360.00,0.0115
2359.00,0.0115
2358.00,0.0114
2357.00,0.0114
2356.00,0.0113
2355.00,0.0112
2354.00,0.0111
2353.00,0.0110
2352.00,0.0109
2351.00,0.0108
2350.00,0.0108
2349.00,0.0107
2348.00,0.0107
2347.00,0.0106
2346.00,0.0106
2345.00,0.0105
2344.00,0.0104
2343.00,0.0104
2342.00,0.0103
2341.00,0.0103
2340.00,0.0103
2339.00,0.0102
2338.00,0.0102
2337.00,0.0101
2336.00,0.0100
2335.00,0.0099
2334.00,0.0098
2333.00,0.0096
2332.00,0.0095
2331.00,0.0094
2330.00,0.0094
2329.00,0.0095
2328.00,0.0097
2327.00,0.0100
2326.00,0.0102
2325.00,0.0102
2324.00,0.0101
2323.00,0.0099
2322.00,0.0097
2321.00,0.0095
2320.00,0.0093
2319.00,0.0092
2318.00,0.0090
2317.00,0.0089
2316.00,0.0089
2315.00,0.0088
2314.00,0.0086
2313.00,0.0085
2312.00,0.0085
2311.00,0.0084
2310.00,0.0084
2309.00,0.0083
2308.00,0.0083
2307.00,0.0082
2306.00,0.0082
2305.00,0.0081
2304.00,0.0081
2303.00,0.0081
2302.00,0.0081
2301.00,0.0080
2300.00,0.0080
2299.00,0.0079
2298.00,0.0079
2297.00,0.0079
2296.00,0.0079
2295.00,0.0079
2294.00,0.0079
2293.00,0.0079
2292.00,0.0079
2291.00,0.0079
2290.00,0.0079
2289.00,0.0079
2288.00,0.0078
2287.00,0.0077
2286.00,0.0076
2285.00,0.0075
2284.00,0.0074
2283.00,0.0073
2282.00,0.0073
2281.00,0.0072
2280.00,0.0071
2279.00,0.0071
2278.00,0.0070
2277.00,0.0070
2276.00,0.0069
2275.00,0.0068
2274.00,0.0067
2273.00,0.0067
2272.00,0.0066
2271.00,0.0066
2270.00,0.0066
2269.00,0.0066
2268.00,0.0066
2267.00,0.0067
2266.00,0.0067
2265.00,0.0067
2264.00,0.0067
2263.00,0.0067
2262.00,0.0067
2261.00,0.0068
2260.00,0.0068
2259.00,0.0067
2258.00,0.0066
2257.00,0.0065
2256.00,0.0064
2255.00,0.0063
2254.00,0.0061
2253.00,0.0060
2252.00,0.0059
2251.00,0.0059
2250.00,0.0059
2249.00,0.0058
2248.00,0.0058
2247.00,0.0057
2246.00,0.0057
2245.00,0.0056
2244.00,0.0056
2243.00,0.0056
2242.00,0.0055
2241.00,0.0055
2240.00,0.0055
2239.00,0.0055
2238.00,0.0054
2237.00,0.0053
2236.00,0.0053
2235.00,0.0053
2234.00,0.0053
2233.00,0.0053
2232.00,0.0053
2231.00,0.0052
2230.00,0.0052
2229.00,0.0051
2228.00,0.0051
2227.00,0.0050
2226.00,0.0049
2225.00,0.0048
2224.00,0.0047
2223.00,0.0046
2222.00,0.0046
2221.00,0.0047
2220.00,0.0048
2219.00,0.0050
2218.00,0.0050
2217.00,0.0049
2216.00,0.0048
2215.00,0.0047
2214.00,0.0046
2213.00,0.0045
2212.00,0.0045
2211.00,0.0044
2210.00,0.0043
2209.00,0.0043
2208.00,0.0043
2207.00,0.0043
2206.00,0.0042
2205.00,0.0042
2204.00,0.0043
2203.00,0.0042
2202.00,0.0042
2201.00,0.0042
2200.00,0.0042
2199.00,0.0043
2198.00,0.0043
2197.00,0.0043
2196.00,0.0043
2195.00,0.0043
2194.00,0.0042
2193.00,0.0042
2192.00,0.0041
2191.00,0.0041
2190.00,0.0041
2189.00,0.0042
2188.00,0.0045
2187.00,0.0046
2186.00,0.0046
2185.00,0.0045
2184.00,0.0042
2183.00,0.0039
2182.00,0.0036
2181.00,0.0036
2180.00,0.0037
2179.00,0.0037
2178.00,0.0035
2177.00,0.0034
2176.00,0.0033
2175.00,0.0033
2174.00,0.0034
2173.00,0.0036
2172.00,0.0039
2171.00,0.0041
2170.00,0.0042
2169.00,0.0043
2168.00,0.0044
2167.00,0.0044
2166.00,0.0043
2165.00,0.0044
2164.00,0.0044
2163.00,0.0043
2162.00,0.0037
2161.00,0.0027
2160.00,0.0016
2159.00,0.0006
2158.00,0.0001
2157.00,0.0001
2156.00,0.0004
2155.00,0.0006
2154.00,0.0007
2153.00,0.0010
2152.00,0.0013
2151.00,0.0017
2150.00,0.0018
2149.00,0.0019
2148.00,0.0018
2147.00,0.0017
2146.00,0.0015
2145.00,0.0014
2144.00,0.0014
2143.00,0.0015
2142.00,0.0015
2141.00,0.0015
2140.00,0.0015
2139.00,0.0015
2138.00,0.0013
2137.00,0.0012
2136.00,0.0010
2135.00,0.0009
2134.00,0.0008
2133.00,0.0008
2132.00,0.0009
2131.00,0.0011
2130.00,0.0013
2129.00,0.0014
2128.00,0.0015
2127.00,0.0016
2126.00,0.0016
2125.00,0.0017
2124.00,0.0018
2123.00,0.0019
2122.00,0.0020
2121.00,0.0020
2120.00,0.0021
2119.00,0.0021
2118.00,0.0022
2117.00,0.0023
2116.00,0.0024
2115.00,0.0024
2114.00,0.0024
2113.00,0.0024
2112.00,0.0024
2111.00,0.0023
2110.00,0.0023
2109.00,0.0023
2108.00,0.0022
2107.00,0.0022
2106.00,0.0021
2105.00,0.0020
2104.00,0.0020
2103.00,0.0020
2102.00,0.0020
2101.00,0.0020
2100.00,0.0020
2099.00,0.0019
2098.00,0.0018
2097.00,0.0017
2096.00,0.0017
2095.00,0.0016
2094.00,0.0017
2093.00,0.0017
2092.00,0.0019
2091.00,0.0020
2090.00,0.0021
2089.00,0.0021
2088.00,0.0022
2087.00,0.0022
2086.00,0.0022
2085.00,0.0022
2084.00,0.0023
2083.00,0.0023
2082.00,0.0022
2081.00,0.0021
2080.00,0.0020
2079.00,0.0019
2078.00,0.0018
2077.00,0.0018
2076.00,0.0018
2075.00,0.0018
2074.00,0.0017
2073.00,0.0016
2072.00,0.0015
2071.00,0.0015
2070.00,0.0014
2069.00,0.0014
2068.00,0.0013
2067.00,0.0013
2066.00,0.0012
2065.00,0.0012
2064.00,0.0011
2063.00,0.0011
2062.00,0.0010
2061.00,0.0010
2060.00,0.0011
2059.00,0.0011
2058.00,0.0011
2057.00,0.0010
2056.00,0.0010
2055.00,0.0010
2054.00,0.0012
2053.00,0.0016
2052.00,0.0019
2051.00,0.0019
2050.00,0.0017
2049.00,0.0015
2048.00,0.0014
2047.00,0.0013
2046.00,0.0010
2045.00,0.0009
2044.00,0.0009
2043.00,0.0009
2042.00,0.0010
2041.00,0.0011
2040.00,0.0011
2039.00,0.0011
2038.00,0.0011
2037.00,0.0011
2036.00,0.0012
2035.00,0.0011
2034.00,0.0009
2033.00,0.0007
2032.00,0.0006
2031.00,0.0005
2030.00,0.0003
2029.00,0.0002
2028.00,0.0003
2027.00,0.0005
2026.00,0.0006
2025.00,0.0007
2024.00,0.0007
2023.00,0.0007
2022.00,0.0007
2021.00,0.0008
2020.00,0.0010
2019.00,0.0011
2018.00,0.0010
2017.00,0.0010
2016.00,0.0009
2015.00,0.0007
2014.00,0.0006
2013.00,0.0006
2012.00,0.0008
2011.00,0.0009
2010.00,0.0009
2009.00,0.0008
2008.00,0.0007
2007.00,0.0005
2006.00,0.0004
2005.00,0.0006
2004.00,0.0009
2003.00,0.0010
2002.00,0.0009
2001.00,0.0009
2000.00,0.0009
1999.00,0.0010
1998.00,0.0010
1997.00,0.0011
1996.00,0.0013
1995.00,0.0014
1994.00,0.0014
1993.00,0.0015
1992.00,0.0016
1991.00,0.0016
1990.00,0.0017
1989.00,0.0018
1988.00,0.0020
1987.00,0.0022
1986.00,0.0022
1985.00,0.0023
1984.00,0.0025
1983.00,0.0027
1982.00,0.0028
1981.00,0.0029
1980.00,0.0027
1979.00,0.0022
1978.00,0.0015
1977.00,0.0010
1976.00,0.0008
1975.00,0.0006
1974.00,0.0005
1973.00,0.0005
1972.00,0.0006
1971.00,0.0006
1970.00,0.0005
1969.00,0.0006
1968.00,0.0008
1967.00,0.0009
1966.00,0.0009
1965.00,0.0009
1964.00,0.0008
1963.00,0.0008
1962.00,0.0006
1961.00,0.0006
1960.00,0.0006
1959.00,0.0007
1958.00,0.0008
1957.00,0.0009
1956.00,0.0011
1955.00,0.0011
1954.00,0.0011
1953.00,0.0010
1952.00,0.0011
1951.00,0.0011
1950.00,0.0012
1949.00,0.0013
1948.00,0.0014
1947.00,0.0015
1946.00,0.0014
1945.00,0.0015
1944.00,0.0015
1943.00,0.0016
1942.00,0.0015
1941.00,0.0014
1940.00,0.0014
1939.00,0.0014
1938.00,0.0013
1937.00,0.0014
1936.00,0.0014
1935.00,0.0015
1934.00,0.0015
1933.00,0.0015
1932.00,0.0016
1931.00,0.0017
1930.00,0.0017
1929.00,0.0017
1928.00,0.0017
1927.00,0.0017
1926.00,0.0017
1925.00,0.0016
1924.00,0.0017
1923.00,0.0017
1922.00,0.0018
1921.00,0.0019
1920.00,0.0021
1919.00,0.0021
1918.00,0.0021
1917.00,0.0021
1916.00,0.0020
1915.00,0.0019
1914.00,0.0019
1913.00,0.0019
1912.00,0.0019
1911.00,0.0020
1910.00,0.0020
1909.00,0.0020
1908.00,0.0020
1907.00,0.0019
1906.00,0.0019
1905.00,0.0019
1904.00,0.0019
1903.00,0.0019
1902.00,0.0019
1901.00,0.0018
1900.00,0.0019
1899.00,0.0019
1898.00,0.0019
1897.00,0.0019
1896.00,0.0019
1895.00,0.0019
1894.00,0.0018
1893.00,0.0018
1892.00,0.0019
1891.00,0.0020
1890.00,0.0020
1889.00,0.0020
1888.00,0.0021
1887.00,0.0020
1886.00,0.0020
1885.00,0.0020
1884.00,0.0020
1883.00,0.0020
1882.00,0.0020
1881.00,0.0020
1880.00,0.0021
1879.00,0.0021
1878.00,0.0021
1877.00,0.0021
1876.00,0.0022
1875.00,0.0022
1874.00,0.0022
1873.00,0.0022
1872.00,0.0022
1871.00,0.0022
1870.00,0.0022
1869.00,0.0023
1868.00,0.0023
1867.00,0.0022
1866.00,0.0022
1865.00,0.0023
1864.00,0.0023
1863.00,0.0023
1862.00,0.0023
1861.00,0.0023
1860.00,0.0023
1859.00,0.0023
1858.00,0.0023
1857.00,0.0023
1856.00,0.0024
1855.00,0.0024
1854.00,0.0024
1853.00,0.0024
1852.00,0.0024
1851.00,0.0025
1850.00,0.0025
1849.00,0.0025
1848.00,0.0025
1847.00,0.0025
1846.00,0.0025
1845.00,0.0026
1844.00,0.0027
1843.00,0.0027
1842.00,0.0027
1841.00,0.0027
1840.00,0.0028
1839.00,0.0028
1838.00,0.0027
1837.00,0.0027
1836.00,0.0027
1835.00,0.0027
1834.00,0.0027
1833.00,0.0027
1832.00,0.0028
1831.00,0.0028
1830.00,0.0027
1829.00,0.0027
1828.00,0.0028
1827.00,0.0028
1826.00,0.0029
1825.00,0.0029
1824.00,0.0029
1823.00,0.0029
1822.00,0.0029
1821.00,0.0029
1820.00,0.0029
1819.00,0.0029
1818.00,0.0028
1817.00,0.0027
1816.00,0.0028
1815.00,0.0028
1814.00,0.0028
1813.00,0.0029
1812.00,0.0030
1811.00,0.0031
1810.00,0.0031
1809.00,0.0032
1808.00,0.0033
1807.00,0.0034
1806.00,0.0034
1805.00,0.0035
1804.00,0.0036
1803.00,0.0037
1802.00,0.0037
1801.00,0.0037
1800.00,0.0038
1799.00,0.0038
1798.00,0.0039
1797.00,0.0039
1796.00,0.0040
1795.00,0.0040
1794.00,0.0041
1793.00,0.0043
1792.00,0.0046
1791.00,0.0047
1790.00,0.0048
1789.00,0.0050
1788.00,0.0052
1787.00,0.0055
1786.00,0.0057
1785.00,0.0059
1784.00,0.0059
1783.00,0.0058
1782.00,0.0057
1781.00,0.0056
1780.00,0.0055
1779.00,0.0054
1778.00,0.0054
1777.00,0.0055
1776.00,0.0056
1775.00,0.0057
1774.00,0.0056
1773.00,0.0056
1772.00,0.0056
1771.00,0.0055
1770.00,0.0055
1769.00,0.0054
1768.00,0.0054
1767.00,0.0052
1766.00,0.0051
1765.00,0.0050
1764.00,0.0050
1763.00,0.0051
1762.00,0.0051
1761.00,0.0051
1760.00,0.0050
1759.00,0.0050
1758.00,0.0050
1757.00,0.0050
1756.00,0.0050
1755.00,0.0050
1754.00,0.0050
1753.00,0.0051
1752.00,0.0052
1751.00,0.0052
1750.00,0.0051
1749.00,0.0050
1748.00,0.0051
1747.00,0.0051
1746.00,0.0051
1745.00,0.0051
1744.00,0.0052
1743.00,0.0051
1742.00,0.0050
1741.00,0.0050
1740.00,0.0051
1739.00,0.0052
1738.00,0.0052
1737.00,0.0052
1736.00,0.0054
1735.00,0.0056
1734.00,0.0057
1733.00,0.0058
1732.00,0.0059
1731.00,0.0060
1730.00,0.0060
1729.00,0.0061
1728.00,0.0062
1727.00,0.0063
1726.00,0.0063
1725.00,0.0064
1724.00,0.0065
1723.00,0.0065
1722.00,0.0065
1721.00,0.0065
1720.00,0.0065
1719.00,0.0065
1718.00,0.0066
1717.00,0.0067
1716.00,0.0069
1715.00,0.0070
1714.00,0.0071
1713.00,0.0072
1712.00,0.0073
1711.00,0.0074
1710.00,0.0075
1709.00,0.0075
1708.00,0.0076
1707.00,0.0077
1706.00,0.0078
1705.00,0.0079
1704.00,0.0080
1703.00,0.0081
1702.00,0.0081
1701.00,0.0082
1700.00,0.0083
1699.00,0.0084
1698.00,0.0083
1697.00,0.0085
1696.00,0.0087
1695.00,0.0089
1694.00,0.0090
1693.00,0.0091
1692.00,0.0092
1691.00,0.0094
1690.00,0.0094
1689.00,0.0095
1688.00,0.0095
1687.00,0.0095
1686.00,0.0095
1685.00,0.0097
1684.00,0.0102
1683.00,0.0106
1682.00,0.0109
1681.00,0.0111
1680.00,0.0114
1679.00,0.0116
1678.00,0.0118
1677.00,0.0121
1676.00,0.0126
1675.00,0.0131
1674.00,0.0134
1673.00,0.0138
1672.00,0.0142
1671.00,0.0149
1670.00,0.0156
1669.00,0.0166
1668.00,0.0175
1667.00,0.0183
1666.00,0.0190
1665.00,0.0197
1664.00,0.0207
1663.00,0.0219
1662.00,0.0231
1661.00,0.0242
1660.00,0.0254
1659.00,0.0266
1658.00,0.0278
1657.00,0.0289
1656.00,0.0302
1655.00,0.0318
1654.00,0.0348
1653.00,0.0400
1652.00,0.0450
1651.00,0.0484
1650.00,0.0512
1649.00,0.0549
1648.00,0.0613
1647.00,0.0711
1646.00,0.0828
1645.00,0.0940
1644.00,0.1041
1643.00,0.1133
1642.00,0.1220
1641.00,0.1301
1640.00,0.1374
1639.00,0.1440
1638.00,0.1506
1637.00,0.1594
1636.00,0.1716
1635.00,0.1845
1634.00,0.1938
1633.00,0.1988
1632.00,0.2012
1631.00,0.2014
1630.00,0.1990
1629.00,0.1939
1628.00,0.1863
1627.00,0.1773
1626.00,0.1679
1625.00,0.1582
1624.00,0.1476
1623.00,0.1364
1622.00,0.1258
1621.00,0.1167
1620.00,0.1086
1619.00,0.1010
1618.00,0.0933
1617.00,0.0857
1616.00,0.0790
1615.00,0.0737
1614.00,0.0698
1613.00,0.0665
1612.00,0.0635
1611.00,0.0608
1610.00,0.0585
1609.00,0.0569
1608.00,0.0556
1607.00,0.0546
1606.00,0.0540
1605.00,0.0539
1604.00,0.0541
1603.00,0.0546
1602.00,0.0555
1601.00,0.0570
1600.00,0.0589
1599.00,0.0613
1598.00,0.0643
1597.00,0.0682
1596.00,0.0732
1595.00,0.0795
1594.00,0.0872
1593.00,0.0966
1592.00,0.1076
1591.00,0.1199
1590.00,0.1331
1589.00,0.1468
1588.00,0.1604
1587.00,0.1733
1586.00,0.1850
1585.00,0.1958
1584.00,0.2056
1583.00,0.2140
1582.00,0.2206
1581.00,0.2253
1580.00,0.2283
1579.00,0.2296
1578.00,0.2292
1577.00,0.2279
1576.00,0.2262
1575.00,0.2236
1574.00,0.2199
1573.00,0.2155
1572.00,0.2109
1571.00,0.2054
1570.00,0.1987
1569.00,0.1917
1568.00,0.1852
1567.00,0.1788
1566.00,0.1719
1565.00,0.1645
1564.00,0.1573
1563.00,0.1508
1562.00,0.1447
1561.00,0.1384
1560.00,0.1307
1559.00,0.1211
1558.00,0.1126
1557.00,0.1067
1556.00,0.1020
1555.00,0.0973
1554.00,0.0924
1553.00,0.0877
1552.00,0.0837
1551.00,0.0799
1550.00,0.0761
1549.00,0.0725
1548.00,0.0695
1547.00,0.0669
1546.00,0.0644
1545.00,0.0620
1544.00,0.0597
1543.00,0.0577
1542.00,0.0558
1541.00,0.0542
1540.00,0.0529
1539.00,0.0519
1538.00,0.0511
1537.00,0.0505
1536.00,0.0500
1535.00,0.0496
1534.00,0.0497
1533.00,0.0501
1532.00,0.0508
1531.00,0.0516
1530.00,0.0527
1529.00,0.0542
1528.00,0.0561
1527.00,0.0582
1526.00,0.0601
1525.00,0.0615
1524.00,0.0622
1523.00,0.0624
1522.00,0.0621
1521.00,0.0613
1520.00,0.0600
1519.00,0.0583
1518.00,0.0563
1517.00,0.0540
1516.00,0.0518
1515.00,0.0499
1514.00,0.0482
1513.00,0.0465
1512.00,0.0449
1511.00,0.0433
1510.00,0.0418
1509.00,0.0403
1508.00,0.0389
1507.00,0.0374
1506.00,0.0361
1505.00,0.0350
1504.00,0.0342
1503.00,0.0335
1502.00,0.0327
1501.00,0.0318
1500.00,0.0310
1499.00,0.0303
1498.00,0.0296
1497.00,0.0291
1496.00,0.0287
1495.00,0.0284
1494.00,0.0280
1493.00,0.0277
1492.00,0.0276
1491.00,0.0274
1490.00,0.0273
1489.00,0.0272
1488.00,0.0272
1487.00,0.0273
1486.00,0.0274
1485.00,0.0277
1484.00,0.0282
1483.00,0.0288
1482.00,0.0296
1481.00,0.0306
1480.00,0.0318
1479.00,0.0331
1478.00,0.0345
1477.00,0.0361
1476.00,0.0379
1475.00,0.0397
1474.00,0.0421
1473.00,0.0459
1472.00,0.0514
1471.00,0.0573
1470.00,0.0627
1469.00,0.0672
1468.00,0.0705
1467.00,0.0720
1466.00,0.0722
1465.00,0.0722
1464.00,0.0730
1463.00,0.0751
1462.00,0.0780
1461.00,0.0819
1460.00,0.0867
1459.00,0.0928
1458.00,0.1017
1457.00,0.1136
1456.00,0.1254
1455.00,0.1348
1454.00,0.1435
1453.00,0.1538
1452.00,0.1660
1451.00,0.1794
1450.00,0.1932
1449.00,0.2076
1448.00,0.2219
1447.00,0.2343
1446.00,0.2440
1445.00,0.2511
1444.00,0.2557
1443.00,0.2571
1442.00,0.2554
1441.00,0.2508
1440.00,0.2439
1439.00,0.2354
1438.00,0.2258
1437.00,0.2154
1436.00,0.2051
1435.00,0.1959
1434.00,0.1877
1433.00,0.1797
1432.00,0.1709
1431.00,0.1609
1430.00,0.1502
1429.00,0.1396
1428.00,0.1297
1427.00,0.1209
1426.00,0.1131
1425.00,0.1059
1424.00,0.0994
1423.00,0.0941
1422.00,0.0901
1421.00,0.0869
1420.00,0.0843
1419.00,0.0823
1418.00,0.0808
1417.00,0.0797
1416.00,0.0788
1415.00,0.0783
1414.00,0.0779
1413.00,0.0777
1412.00,0.0776
1411.00,0.0777
1410.00,0.0779
1409.00,0.0783
1408.00,0.0787
1407.00,0.0793
1406.00,0.0802
1405.00,0.0812
1404.00,0.0821
1403.00,0.0829
1402.00,0.0834
1401.00,0.0838
1400.00,0.0839
1399.00,0.0838
1398.00,0.0834
1397.00,0.0826
1396.00,0.0814
1395.00,0.0799
1394.00,0.0781
1393.00,0.0763
1392.00,0.0745
1391.00,0.0729
1390.00,0.0714
1389.00,0.0702
1388.00,0.0692
1387.00,0.0688
1386.00,0.0690
1385.00,0.0701
1384.00,0.0724
1383.00,0.0766
1382.00,0.0828
1381.00,0.0906
1380.00,0.0993
1379.00,0.1076
1378.00,0.1139
1377.00,0.1171
1376.00,0.1171
1375.00,0.1142
1374.00,0.1092
1373.00,0.1040
1372.00,0.0999
1371.00,0.0978
1370.00,0.0973
1369.00,0.0979
1368.00,0.0988
1367.00,0.0992
1366.00,0.0985
1365.00,0.0968
1364.00,0.0945
1363.00,0.0923
1362.00,0.0904
1361.00,0.0893
1360.00,0.0889
1359.00,0.0893
1358.00,0.0906
1357.00,0.0928
1356.00,0.0961
1355.00,0.1004
1354.00,0.1052
1353.00,0.1099
1352.00,0.1142
1351.00,0.1177
1350.00,0.1202
1349.00,0.1213
1348.00,0.1206
1347.00,0.1185
1346.00,0.1153
1345.00,0.1118
1344.00,0.1085
1343.00,0.1060
1342.00,0.1043
1341.00,0.1036
1340.00,0.1039
1339.00,0.1052
1338.00,0.1070
1337.00,0.1088
1336.00,0.1100
1335.00,0.1099
1334.00,0.1083
1333.00,0.1055
1332.00,0.1021
1331.00,0.0991
1330.00,0.0972
1329.00,0.0967
1328.00,0.0979
1327.00,0.1009
1326.00,0.1054
1325.00,0.1114
1324.00,0.1186
1323.00,0.1268
1322.00,0.1353
1321.00,0.1434
1320.00,0.1497
1319.00,0.1533
1318.00,0.1532
1317.00,0.1497
1316.00,0.1439
1315.00,0.1370
1314.00,0.1301
1313.00,0.1236
1312.00,0.1181
1311.00,0.1136
1310.00,0.1105
1309.00,0.1087
1308.00,0.1084
1307.00,0.1093
1306.00,0.1106
1305.00,0.1114
1304.00,0.1108
1303.00,0.1090
1302.00,0.1064
1301.00,0.1037
1300.00,0.1016
1299.00,0.1003
1298.00,0.0999
1297.00,0.0999
1296.00,0.1000
1295.00,0.1003
1294.00,0.1009
1293.00,0.1021
1292.00,0.1042
1291.00,0.1073
1290.00,0.1112
1289.00,0.1156
1288.00,0.1200
1287.00,0.1243
1286.00,0.1288
1285.00,0.1336
1284.00,0.1389
1283.00,0.1444
1282.00,0.1495
1281.00,0.1529
1280.00,0.1538
1279.00,0.1516
1278.00,0.1463
1277.00,0.1387
1276.00,0.1298
1275.00,0.1205
1274.00,0.1115
1273.00,0.1032
1272.00,0.0958
1271.00,0.0892
1270.00,0.0834
1269.00,0.0782
1268.00,0.0734
1267.00,0.0692
1266.00,0.0655
1265.00,0.0624
1264.00,0.0597
1263.00,0.0576
1262.00,0.0561
1261.00,0.0551
1260.00,0.0547
1259.00,0.0551
1258.00,0.0564
1257.00,0.0589
1256.00,0.0626
1255.00,0.0672
1254.00,0.0724
1253.00,0.0772
1252.00,0.0813
1251.00,0.0847
1250.00,0.0882
1249.00,0.0926
1248.00,0.0987
1247.00,0.1061
1246.00,0.1141
1245.00,0.1211
1244.00,0.1261
1243.00,0.1284
1242.00,0.1280
1241.00,0.1255
1240.00,0.1217
1239.00,0.1173
1238.00,0.1129
1237.00,0.1085
1236.00,0.1043
1235.00,0.1003
1234.00,0.0972
1233.00,0.0951
1232.00,0.0946
1231.00,0.0956
1230.00,0.0979
1229.00,0.1006
1228.00,0.1028
1227.00,0.1041
1226.00,0.1044
1225.00,0.1042
1224.00,0.1041
1223.00,0.1047
1222.00,0.1063
1221.00,0.1091
1220.00,0.1127
1219.00,0.1164
1218.00,0.1194
1217.00,0.1209
1216.00,0.1208
1215.00,0.1192
1214.00,0.1167
1213.00,0.1139
1212.00,0.1117
1211.00,0.1112
1210.00,0.1135
1209.00,0.1191
1208.00,0.1274
1207.00,0.1367
1206.00,0.1438
1205.00,0.1459
1204.00,0.1423
1203.00,0.1338
1202.00,0.1226
1201.00,0.1106
1200.00,0.0991
1199.00,0.0891
1198.00,0.0807
1197.00,0.0738
1196.00,0.0685
1195.00,0.0645
1194.00,0.0619
1193.00,0.0605
1192.00,0.0599
1191.00,0.0599
1190.00,0.0601
1189.00,0.0603
1188.00,0.0601
1187.00,0.0599
1186.00,0.0597
1185.00,0.0596
1184.00,0.0597
1183.00,0.0602
1182.00,0.0613
1181.00,0.0634
1180.00,0.0669
1179.00,0.0721
1178.00,0.0789
1177.00,0.0869
1176.00,0.0957
1175.00,0.1048
1174.00,0.1139
1173.00,0.1222
1172.00,0.1278
1171.00,0.1292
1170.00,0.1255
1169.00,0.1178
1168.00,0.1078
1167.00,0.0975
1166.00,0.0879
1165.00,0.0795
1164.00,0.0725
1163.00,0.0669
1162.00,0.0626
1161.00,0.0594
1160.00,0.0572
1159.00,0.0560
1158.00,0.0556
1157.00,0.0560
1156.00,0.0574
1155.00,0.0602
1154.00,0.0648
1153.00,0.0720
1152.00,0.0818
1151.00,0.0935
1150.00,0.1044
1149.00,0.1109
1148.00,0.1100
1147.00,0.1013
1146.00,0.0877
1145.00,0.0729
1144.00,0.0600
1143.00,0.0504
1142.00,0.0439
1141.00,0.0397
1140.00,0.0373
1139.00,0.0360
1138.00,0.0356
1137.00,0.0355
1136.00,0.0354
1135.00,0.0350
1134.00,0.0343
1133.00,0.0331
1132.00,0.0315
1131.00,0.0297
1130.00,0.0280
1129.00,0.0264
1128.00,0.0249
1127.00,0.0237
1126.00,0.0227
1125.00,0.0218
1124.00,0.0211
1123.00,0.0205
1122.00,0.0202
1121.00,0.0200
1120.00,0.0198
1119.00,0.0197
1118.00,0.0198
1117.00,0.0200
1116.00,0.0203
1115.00,0.0208
1114.00,0.0215
1113.00,0.0223
1112.00,0.0231
1111.00,0.0242
1110.00,0.0254
1109.00,0.0268
1108.00,0.0282
1107.00,0.0297
1106.00,0.0313
1105.00,0.0331
1104.00,0.0351
1103.00,0.0373
1102.00,0.0397
1101.00,0.0419
1100.00,0.0434
1099.00,0.0440
1098.00,0.0434
1097.00,0.0418
1096.00,0.0397
1095.00,0.0375
1094.00,0.0356
1093.00,0.0338
1092.00,0.0322
1091.00,0.0308
1090.00,0.0297
1089.00,0.0289
1088.00,0.0285
1087.00,0.0286
1086.00,0.0292
1085.00,0.0301
1084.00,0.0310
1083.00,0.0320
1082.00,0.0329
1081.00,0.0334
1080.00,0.0335
1079.00,0.0330
1078.00,0.0322
1077.00,0.0309
1076.00,0.0296
1075.00,0.0285
1074.00,0.0276
1073.00,0.0269
1072.00,0.0265
1071.00,0.0262
1070.00,0.0263
1069.00,0.0265
1068.00,0.0270
1067.00,0.0279
1066.00,0.0292
1065.00,0.0309
1064.00,0.0333
1063.00,0.0365
1062.00,0.0407
1061.00,0.0460
1060.00,0.0526
1059.00,0.0608
1058.00,0.0711
1057.00,0.0836
1056.00,0.0977
1055.00,0.1118
1054.00,0.1228
1053.00,0.1277
1052.00,0.1255
1051.00,0.1174
1050.00,0.1063
1049.00,0.0948
1048.00,0.0848
1047.00,0.0773
1046.00,0.0727
1045.00,0.0707
1044.00,0.0707
1043.00,0.0724
1042.00,0.0755
1041.00,0.0800
1040.00,0.0859
1039.00,0.0935
1038.00,0.1030
1037.00,0.1141
1036.00,0.1262
1035.00,0.1382
1034.00,0.1488
1033.00,0.1570
1032.00,0.1624
1031.00,0.1650
1030.00,0.1651
1029.00,0.1629
1028.00,0.1586
1027.00,0.1529
1026.00,0.1462
1025.00,0.1390
1024.00,0.1317
1023.00,0.1251
1022.00,0.1196
1021.00,0.1153
1020.00,0.1116
1019.00,0.1081
1018.00,0.1041
1017.00,0.0992
1016.00,0.0937
1015.00,0.0881
1014.00,0.0828
1013.00,0.0782
1012.00,0.0744
1011.00,0.0715
1010.00,0.0693
1009.00,0.0674
1008.00,0.0655
1007.00,0.0636
1006.00,0.0617
1005.00,0.0600
1004.00,0.0590
1003.00,0.0590
1002.00,0.0604
1001.00,0.0627
1000.00,0.0650
999.00,0.0661
998.00,0.0650
997.00,0.0616
996.00,0.0569
995.00,0.0524
994.00,0.0490
993.00,0.0467
992.00,0.0455
991.00,0.0453
990.00,0.0458
989.00,0.0467
988.00,0.0478
987.00,0.0487
986.00,0.0493
985.00,0.0491
984.00,0.0480
983.00,0.0462
982.00,0.0439
981.00,0.0415
980.00,0.0394
979.00,0.0376
978.00,0.0363
977.00,0.0353
976.00,0.0345
975.00,0.0340
974.00,0.0338
973.00,0.0340
972.00,0.0343
971.00,0.0350
970.00,0.0358
969.00,0.0367
968.00,0.0377
967.00,0.0391
966.00,0.0410
965.00,0.0435
964.00,0.0467
963.00,0.0504
962.00,0.0541
961.00,0.0570
960.00,0.0586
959.00,0.0588
958.00,0.0579
957.00,0.0559
956.00,0.0533
955.00,0.0505
954.00,0.0480
953.00,0.0458
952.00,0.0439
951.00,0.0424
950.00,0.0413
949.00,0.0403
948.00,0.0396
947.00,0.0392
946.00,0.0391
945.00,0.0393
944.00,0.0397
943.00,0.0400
942.00,0.0402
941.00,0.0399
940.00,0.0391
939.00,0.0379
938.00,0.0366
937.00,0.0354
936.00,0.0344
935.00,0.0338
934.00,0.0336
933.00,0.0339
932.00,0.0345
931.00,0.0355
930.00,0.0368
929.00,0.0382
928.00,0.0397
927.00,0.0412
926.00,0.0425
925.00,0.0436
924.00,0.0444
923.00,0.0454
922.00,0.0468
921.00,0.0486
920.00,0.0509
919.00,0.0534
918.00,0.0558
917.00,0.0582
916.00,0.0603
915.00,0.0620
914.00,0.0628
913.00,0.0622
912.00,0.0601
911.00,0.0575
910.00,0.0552
909.00,0.0541
908.00,0.0544
907.00,0.0564
906.00,0.0600
905.00,0.0648
904.00,0.0702
903.00,0.0755
902.00,0.0799
901.00,0.0830
900.00,0.0849
899.00,0.0858
898.00,0.0864
897.00,0.0871
896.00,0.0885
895.00,0.0920
894.00,0.0991
893.00,0.1114
892.00,0.1288
891.00,0.1480
890.00,0.1630
889.00,0.1692
888.00,0.1677
887.00,0.1647
886.00,0.1649
885.00,0.1673
884.00,0.1663
883.00,0.1577
882.00,0.1425
881.00,0.1254
880.00,0.1105
879.00,0.0995
878.00,0.0919
877.00,0.0865
876.00,0.0825
875.00,0.0794
874.00,0.0773
873.00,0.0762
872.00,0.0761
871.00,0.0769
870.00,0.0785
869.00,0.0807
868.00,0.0837
867.00,0.0882
866.00,0.0947
865.00,0.1034
864.00,0.1139
863.00,0.1249
862.00,0.1344
861.00,0.1404
860.00,0.1427
859.00,0.1428
858.00,0.1425
857.00,0.1425
856.00,0.1424
855.00,0.1409
854.00,0.1377
853.00,0.1329
852.00,0.1276
851.00,0.1230
850.00,0.1196
849.00,0.1175
848.00,0.1164
847.00,0.1161
846.00,0.1167
845.00,0.1176
844.00,0.1185
843.00,0.1189
842.00,0.1192
841.00,0.1199
840.00,0.1214
839.00,0.1231
838.00,0.1233
837.00,0.1209
836.00,0.1161
835.00,0.1104
834.00,0.1055
833.00,0.1023
832.00,0.1009
831.00,0.1014
830.00,0.1031
829.00,0.1047
828.00,0.1049
827.00,0.1025
826.00,0.0976
825.00,0.0910
824.00,0.0840
823.00,0.0778
822.00,0.0727
821.00,0.0684
820.00,0.0647
819.00,0.0616
818.00,0.0590
817.00,0.0570
816.00,0.0555
815.00,0.0547
814.00,0.0545
813.00,0.0548
812.00,0.0554
811.00,0.0563
810.00,0.0579
809.00,0.0606
808.00,0.0651
807.00,0.0721
806.00,0.0810
805.00,0.0896
804.00,0.0954
803.00,0.0967
802.00,0.0942
801.00,0.0901
800.00,0.0868
799.00,0.0856
798.00,0.0867
797.00,0.0894
796.00,0.0923
795.00,0.0939
794.00,0.0931
793.00,0.0897
792.00,0.0841
791.00,0.0778
790.00,0.0718
789.00,0.0669
788.00,0.0631
787.00,0.0606
786.00,0.0589
785.00,0.0576
784.00,0.0564
783.00,0.0551
782.00,0.0541
781.00,0.0533
780.00,0.0529
779.00,0.0529
778.00,0.0533
777.00,0.0540
776.00,0.0549
775.00,0.0561
774.00,0.0575
773.00,0.0590
772.00,0.0602
771.00,0.0611
770.00,0.0615
769.00,0.0613
768.00,0.0606
767.00,0.0595
766.00,0.0584
765.00,0.0571
764.00,0.0557
763.00,0.0546
762.00,0.0537
761.00,0.0530
760.00,0.0526
759.00,0.0526
758.00,0.0529
757.00,0.0535
756.00,0.0541
755.00,0.0548
754.00,0.0551
753.00,0.0548
752.00,0.0539
751.00,0.0527
750.00,0.0517
749.00,0.0510
748.00,0.0503
747.00,0.0495
746.00,0.0488
745.00,0.0480
744.00,0.0473
743.00,0.0471
742.00,0.0474
741.00,0.0482
740.00,0.0496
739.00,0.0516
738.00,0.0544
737.00,0.0577
736.00,0.0615
735.00,0.0655
734.00,0.0691
733.00,0.0714
732.00,0.0714
731.00,0.0694
730.00,0.0660
729.00,0.0622
728.00,0.0589
727.00,0.0564
726.00,0.0547
725.00,0.0534
724.00,0.0523
723.00,0.0513
722.00,0.0505
721.00,0.0498
720.00,0.0492
719.00,0.0488
718.00,0.0485
717.00,0.0483
716.00,0.0482
715.00,0.0482
714.00,0.0484
713.00,0.0486
712.00,0.0486
711.00,0.0485
710.00,0.0482
709.00,0.0478
708.00,0.0474
707.00,0.0470
706.00,0.0467
705.00,0.0466
704.00,0.0464
703.00,0.0463
702.00,0.0463
701.00,0.0464
700.00,0.0464
699.00,0.0465
698.00,0.0468
697.00,0.0471
696.00,0.0474
695.00,0.0477
694.00,0.0482
693.00,0.0487
692.00,0.0494
691.00,0.0502
690.00,0.0513
689.00,0.0525
688.00,0.0538
687.00,0.0552
686.00,0.0569
685.00,0.0588
684.00,0.0607
683.00,0.0628
682.00,0.0650
681.00,0.0671
680.00,0.0689
679.00,0.0703
678.00,0.0715
677.00,0.0720
676.00,0.0721
675.00,0.0718
674.00,0.0714
673.00,0.0713
672.00,0.0713
671.00,0.0714
670.00,0.0716
669.00,0.0710
668.00,0.0690
667.00,0.0660
666.00,0.0630
665.00,0.0603
664.00,0.0580
663.00,0.0561
662.00,0.0548
661.00,0.0541
660.00,0.0536
659.00,0.0533
658.00,0.0531
657.00,0.0528
656.00,0.0524
655.00,0.0522
654.00,0.0524
653.00,0.0530
652.00,0.0538
651.00,0.0547
650.00,0.0556
649.00,0.0559
648.00,0.0556
647.00,0.0547
646.00,0.0538
645.00,0.0528
644.00,0.0520
643.00,0.0515
642.00,0.0515
641.00,0.0517
640.00,0.0521
639.00,0.0528
638.00,0.0537
637.00,0.0546
636.00,0.0553
635.00,0.0559
634.00,0.0564
633.00,0.0568
632.00,0.0567
631.00,0.0564
630.00,0.0558
629.00,0.0551
628.00,0.0541
627.00,0.0532
626.00,0.0524
625.00,0.0517
624.00,0.0510
623.00,0.0504
622.00,0.0500
621.00,0.0498
620.00,0.0499
619.00,0.0505
618.00,0.0521
617.00,0.0542
616.00,0.0565
615.00,0.0584
614.00,0.0596
613.00,0.0602
612.00,0.0601
611.00,0.0600
610.00,0.0600
609.00,0.0600
608.00,0.0599
607.00,0.0599
606.00,0.0600
605.00,0.0600
604.00,0.0599
603.00,0.0599
602.00,0.0603
601.00,0.0607
600.00,0.0612
599.00,0.0617
598.00,0.0624
597.00,0.0631
596.00,0.0636
595.00,0.0642
594.00,0.0647
593.00,0.0649
592.00,0.0646
591.00,0.0641
590.00,0.0637
589.00,0.0633
588.00,0.0628
587.00,0.0624
586.00,0.0624
585.00,0.0629
584.00,0.0642
583.00,0.0671
582.00,0.0724
581.00,0.0803
580.00,0.0894
579.00,0.0971
578.00,0.1002
577.00,0.0972
576.00,0.0891
575.00,0.0792
574.00,0.0704
573.00,0.0638
572.00,0.0590
571.00,0.0556
570.00,0.0534
569.00,0.0518
568.00,0.0505
567.00,0.0497
566.00,0.0495
565.00,0.0497
564.00,0.0501
563.00,0.0510
562.00,0.0525
561.00,0.0542
560.00,0.0561
559.00,0.0586
558.00,0.0621
557.00,0.0668
556.00,0.0732
555.00,0.0817
554.00,0.0918
553.00,0.1009
552.00,0.1063
551.00,0.1065
550.00,0.1020
549.00,0.0950
548.00,0.0881
547.00,0.0831
546.00,0.0805
545.00,0.0797
544.00,0.0795
543.00,0.0798
542.00,0.0803
541.00,0.0813
540.00,0.0833
539.00,0.0872
538.00,0.0933
537.00,0.1010
536.00,0.1084
535.00,0.1134
534.00,0.1142
533.00,0.1103
532.00,0.1034
531.00,0.0966
530.00,0.0923
529.00,0.0917
528.00,0.0946
527.00,0.0996
526.00,0.1041
525.00,0.1061
524.00,0.1055
523.00,0.1037
522.00,0.1012
521.00,0.0971
520.00,0.0906
519.00,0.0830
518.00,0.0763
517.00,0.0712
516.00,0.0675
515.00,0.0655
514.00,0.0647
513.00,0.0646
512.00,0.0645
511.00,0.0648
510.00,0.0657
509.00,0.0669
508.00,0.0681
507.00,0.0697
506.00,0.0720
505.00,0.0745
504.00,0.0773
503.00,0.0808
502.00,0.0853
501.00,0.0903
500.00,0.0953
499.00,0.1008
498.00,0.1072
497.00,0.1140
496.00,0.1207
495.00,0.1275
494.00,0.1346
493.00,0.1416
492.00,0.1479
491.00,0.1534
490.00,0.1582
489.00,0.1618
488.00,0.1639
487.00,0.1650
486.00,0.1656
485.00,0.1655
484.00,0.1648
483.00,0.1643
482.00,0.1643
481.00,0.1646
480.00,0.1646
479.00,0.1648
478.00,0.1653
477.00,0.1658
476.00,0.1656
475.00,0.1654
474.00,0.1652
473.00,0.1645
472.00,0.1630
471.00,0.1615
470.00,0.1606
469.00,0.1600
468.00,0.1592
467.00,0.1587
466.00,0.1583
465.00,0.1574
464.00,0.1549
463.00,0.1511
462.00,0.1465
461.00,0.1413
460.00,0.1361
459.00,0.1320
458.00,0.1295
457.00,0.1277
456.00,0.1260
455.00,0.1248
454.00,0.1244
453.00,0.1239
452.00,0.1228
451.00,0.1218
450.00,0.1212
449.00,0.1202
448.00,0.1185
447.00,0.1169
446.00,0.1160
445.00,0.1149
444.00,0.1132
443.00,0.1117
442.00,0.1110
441.00,0.1106
440.00,0.1101
439.00,0.1101
438.00,0.1108
437.00,0.1113
436.00,0.1107
435.00,0.1095
434.00,0.1082
433.00,0.1060
432.00,0.1029
431.00,0.1002
430.00,0.0986
429.00,0.0974
428.00,0.0959
427.00,0.0947
426.00,0.0945
425.00,0.0938
424.00,0.0920
423.00,0.0906
422.00,0.0908
421.00,0.0912
420.00,0.0899
419.00,0.0876
418.00,0.0865
417.00,0.0856
416.00,0.0840
415.00,0.0827
414.00,0.0826
413.00,0.0824
412.00,0.0813
411.00,0.0804
410.00,0.0807
409.00,0.0807
408.00,0.0795
407.00,0.0786
406.00,0.0794
405.00,0.0802
404.00,0.0793
403.00,0.0782
402.00,0.0790
401.00,0.0803
400.00,0.0807
