Created as New Dataset,Sample 145 By YargerLab Date Wednesday, June 05 2024
cm-1,A
4000.00,0.0028
3999.00,0.0028
3998.00,0.0028
3997.00,0.0028
3996.00,0.0028
3995.00,0.0028
3994.00,0.0028
3993.00,0.0028
3992.00,0.0028
3991.00,0.0028
3990.00,0.0028
3989.00,0.0028
3988.00,0.0028
3987.00,0.0028
3986.00,0.0028
3985.00,0.0028
3984.00,0.0028
3983.00,0.0028
3982.00,0.0028
3981.00,0.0028
3980.00,0.0028
3979.00,0.0028
3978.00,0.0028
3977.00,0.0028
3976.00,0.0028
3975.00,0.0028
3974.00,0.0028
3973.00,0.0028
3972.00,0.0028
3971.00,0.0028
3970.00,0.0028
3969.00,0.0028
3968.00,0.0028
3967.00,0.0028
3966.00,0.0028
3965.00,0.0028
3964.00,0.0028
3963.00,0.0028
3962.00,0.0028
3961.00,0.0028
3960.00,0.0028
3959.00,0.0028
3958.00,0.0028
3957.00,0.0028
3956.00,0.0028
3955.00,0.0028
3954.00,0.0028
3953.00,0.0028
3952.00,0.0028
3951.00,0.0028
3950.00,0.0028
3949.00,0.0028
3948.00,0.0028
3947.00,0.0028
3946.00,0.0028
3945.00,0.0028
3944.00,0.0028
3943.00,0.0028
3942.00,0.0028
3941.00,0.0028
3940.00,0.0028
3939.00,0.0028
3938.00,0.0028
3937.00,0.0028
3936.00,0.0028
3935.00,0.0028
3934.00,0.0028
3933.00,0.0028
3932.00,0.0028
3931.00,0.0028
3930.00,0.0028
3929.00,0.0028
3928.00,0.0028
3927.00,0.0028
3926.00,0.0028
3925.00,0.0028
3924.00,0.0028
3923.00,0.0028
3922.00,0.0028
3921.00,0.0028
3920.00,0.0028
3919.00,0.0028
3918.00,0.0028
3917.00,0.0028
3916.00,0.0028
3915.00,0.0028
3914.00,0.0028
3913.00,0.0028
3912.00,0.0028
3911.00,0.0028
3910.00,0.0028
3909.00,0.0028
3908.00,0.0028
3907.00,0.0028
3906.00,0.0028
3905.00,0.0028
3904.00,0.0028
3903.00,0.0028
3902.00,0.0028
3901.00,0.0027
3900.00,0.0027
3899.00,0.0027
3898.00,0.0027
3897.00,0.0027
3896.00,0.0027
3895.00,0.0027
3894.00,0.0027
3893.00,0.0027
3892.00,0.0027
3891.00,0.0027
3890.00,0.0027
3889.00,0.0027
3888.00,0.0027
3887.00,0.0027
3886.00,0.0027
3885.00,0.0027
3884.00,0.0027
3883.00,0.0027
3882.00,0.0027
3881.00,0.0027
3880.00,0.0027
3879.00,0.0028
3878.00,0.0028
3877.00,0.0027
3876.00,0.0027
3875.00,0.0027
3874.00,0.0027
3873.00,0.0027
3872.00,0.0027
3871.00,0.0027
3870.00,0.0027
3869.00,0.0027
3868.00,0.0026
3867.00,0.0026
3866.00,0.0026
3865.00,0.0026
3864.00,0.0026
3863.00,0.0027
3862.00,0.0027
3861.00,0.0027
3860.00,0.0027
3859.00,0.0027
3858.00,0.0027
3857.00,0.0027
3856.00,0.0027
3855.00,0.0027
3854.00,0.0027
3853.00,0.0027
3852.00,0.0027
3851.00,0.0027
3850.00,0.0026
3849.00,0.0027
3848.00,0.0027
3847.00,0.0027
3846.00,0.0027
3845.00,0.0027
3844.00,0.0027
3843.00,0.0026
3842.00,0.0026
3841.00,0.0026
3840.00,0.0026
3839.00,0.0026
3838.00,0.0026
3837.00,0.0026
3836.00,0.0026
3835.00,0.0026
3834.00,0.0026
3833.00,0.0026
3832.00,0.0027
3831.00,0.0027
3830.00,0.0026
3829.00,0.0026
3828.00,0.0026
3827.00,0.0026
3826.00,0.0027
3825.00,0.0027
3824.00,0.0026
3823.00,0.0026
3822.00,0.0026
3821.00,0.0026
3820.00,0.0026
3819.00,0.0026
3818.00,0.0026
3817.00,0.0026
3816.00,0.0026
3815.00,0.0026
3814.00,0.0027
3813.00,0.0027
3812.00,0.0027
3811.00,0.0027
3810.00,0.0027
3809.00,0.0027
3808.00,0.0027
3807.00,0.0027
3806.00,0.0027
3805.00,0.0026
3804.00,0.0026
3803.00,0.0026
3802.00,0.0026
3801.00,0.0026
3800.00,0.0026
3799.00,0.0026
3798.00,0.0026
3797.00,0.0026
3796.00,0.0026
3795.00,0.0027
3794.00,0.0027
3793.00,0.0027
3792.00,0.0027
3791.00,0.0027
3790.00,0.0027
3789.00,0.0027
3788.00,0.0027
3787.00,0.0027
3786.00,0.0027
3785.00,0.0027
3784.00,0.0027
3783.00,0.0027
3782.00,0.0027
3781.00,0.0027
3780.00,0.0027
3779.00,0.0027
3778.00,0.0027
3777.00,0.0027
3776.00,0.0027
3775.00,0.0027
3774.00,0.0027
3773.00,0.0027
3772.00,0.0027
3771.00,0.0027
3770.00,0.0027
3769.00,0.0027
3768.00,0.0027
3767.00,0.0027
3766.00,0.0027
3765.00,0.0027
3764.00,0.0027
3763.00,0.0027
3762.00,0.0026
3761.00,0.0026
3760.00,0.0026
3759.00,0.0026
3758.00,0.0026
3757.00,0.0026
3756.00,0.0026
3755.00,0.0026
3754.00,0.0025
3753.00,0.0025
3752.00,0.0025
3751.00,0.0025
3750.00,0.0025
3749.00,0.0025
3748.00,0.0025
3747.00,0.0025
3746.00,0.0025
3745.00,0.0025
3744.00,0.0026
3743.00,0.0026
3742.00,0.0025
3741.00,0.0025
3740.00,0.0025
3739.00,0.0025
3738.00,0.0025
3737.00,0.0025
3736.00,0.0025
3735.00,0.0025
3734.00,0.0025
3733.00,0.0025
3732.00,0.0026
3731.00,0.0026
3730.00,0.0026
3729.00,0.0026
3728.00,0.0026
3727.00,0.0026
3726.00,0.0026
3725.00,0.0026
3724.00,0.0026
3723.00,0.0026
3722.00,0.0026
3721.00,0.0026
3720.00,0.0026
3719.00,0.0026
3718.00,0.0026
3717.00,0.0026
3716.00,0.0026
3715.00,0.0026
3714.00,0.0026
3713.00,0.0026
3712.00,0.0026
3711.00,0.0026
3710.00,0.0026
3709.00,0.0026
3708.00,0.0026
3707.00,0.0026
3706.00,0.0026
3705.00,0.0026
3704.00,0.0026
3703.00,0.0026
3702.00,0.0026
3701.00,0.0027
3700.00,0.0027
3699.00,0.0027
3698.00,0.0027
3697.00,0.0026
3696.00,0.0026
3695.00,0.0026
3694.00,0.0026
3693.00,0.0026
3692.00,0.0026
3691.00,0.0026
3690.00,0.0026
3689.00,0.0026
3688.00,0.0026
3687.00,0.0026
3686.00,0.0026
3685.00,0.0026
3684.00,0.0026
3683.00,0.0026
3682.00,0.0026
3681.00,0.0026
3680.00,0.0026
3679.00,0.0026
3678.00,0.0026
3677.00,0.0026
3676.00,0.0026
3675.00,0.0026
3674.00,0.0026
3673.00,0.0026
3672.00,0.0026
3671.00,0.0026
3670.00,0.0026
3669.00,0.0026
3668.00,0.0027
3667.00,0.0027
3666.00,0.0027
3665.00,0.0027
3664.00,0.0027
3663.00,0.0028
3662.00,0.0028
3661.00,0.0028
3660.00,0.0028
3659.00,0.0028
3658.00,0.0028
3657.00,0.0028
3656.00,0.0028
3655.00,0.0028
3654.00,0.0028
3653.00,0.0028
3652.00,0.0027
3651.00,0.0027
3650.00,0.0027
3649.00,0.0027
3648.00,0.0028
3647.00,0.0028
3646.00,0.0028
3645.00,0.0028
3644.00,0.0028
3643.00,0.0029
3642.00,0.0029
3641.00,0.0029
3640.00,0.0029
3639.00,0.0029
3638.00,0.0029
3637.00,0.0029
3636.00,0.0029
3635.00,0.0029
3634.00,0.0029
3633.00,0.0029
3632.00,0.0030
3631.00,0.0030
3630.00,0.0030
3629.00,0.0030
3628.00,0.0030
3627.00,0.0030
3626.00,0.0030
3625.00,0.0030
3624.00,0.0030
3623.00,0.0030
3622.00,0.0030
3621.00,0.0030
3620.00,0.0031
3619.00,0.0031
3618.00,0.0031
3617.00,0.0031
3616.00,0.0031
3615.00,0.0031
3614.00,0.0031
3613.00,0.0031
3612.00,0.0031
3611.00,0.0032
3610.00,0.0032
3609.00,0.0032
3608.00,0.0032
3607.00,0.0032
3606.00,0.0032
3605.00,0.0032
3604.00,0.0032
3603.00,0.0032
3602.00,0.0032
3601.00,0.0033
3600.00,0.0033
3599.00,0.0033
3598.00,0.0033
3597.00,0.0033
3596.00,0.0033
3595.00,0.0034
3594.00,0.0034
3593.00,0.0034
3592.00,0.0034
3591.00,0.0034
3590.00,0.0034
3589.00,0.0034
3588.00,0.0035
3587.00,0.0035
3586.00,0.0035
3585.00,0.0035
3584.00,0.0035
3583.00,0.0035
3582.00,0.0036
3581.00,0.0036
3580.00,0.0036
3579.00,0.0036
3578.00,0.0036
3577.00,0.0037
3576.00,0.0037
3575.00,0.0037
3574.00,0.0037
3573.00,0.0037
3572.00,0.0037
3571.00,0.0038
3570.00,0.0038
3569.00,0.0038
3568.00,0.0038
3567.00,0.0038
3566.00,0.0038
3565.00,0.0038
3564.00,0.0038
3563.00,0.0038
3562.00,0.0039
3561.00,0.0039
3560.00,0.0039
3559.00,0.0039
3558.00,0.0040
3557.00,0.0040
3556.00,0.0040
3555.00,0.0040
3554.00,0.0040
3553.00,0.0040
3552.00,0.0040
3551.00,0.0041
3550.00,0.0041
3549.00,0.0041
3548.00,0.0041
3547.00,0.0041
3546.00,0.0041
3545.00,0.0041
3544.00,0.0042
3543.00,0.0042
3542.00,0.0042
3541.00,0.0042
3540.00,0.0042
3539.00,0.0043
3538.00,0.0043
3537.00,0.0043
3536.00,0.0043
3535.00,0.0043
3534.00,0.0043
3533.00,0.0044
3532.00,0.0044
3531.00,0.0044
3530.00,0.0044
3529.00,0.0044
3528.00,0.0044
3527.00,0.0044
3526.00,0.0045
3525.00,0.0045
3524.00,0.0045
3523.00,0.0045
3522.00,0.0045
3521.00,0.0045
3520.00,0.0046
3519.00,0.0046
3518.00,0.0046
3517.00,0.0046
3516.00,0.0047
3515.00,0.0047
3514.00,0.0047
3513.00,0.0047
3512.00,0.0047
3511.00,0.0048
3510.00,0.0048
3509.00,0.0048
3508.00,0.0048
3507.00,0.0048
3506.00,0.0048
3505.00,0.0049
3504.00,0.0049
3503.00,0.0049
3502.00,0.0049
3501.00,0.0049
3500.00,0.0049
3499.00,0.0050
3498.00,0.0050
3497.00,0.0050
3496.00,0.0050
3495.00,0.0050
3494.00,0.0051
3493.00,0.0051
3492.00,0.0051
3491.00,0.0051
3490.00,0.0052
3489.00,0.0052
3488.00,0.0052
3487.00,0.0052
3486.00,0.0052
3485.00,0.0053
3484.00,0.0053
3483.00,0.0053
3482.00,0.0053
3481.00,0.0053
3480.00,0.0053
3479.00,0.0054
3478.00,0.0054
3477.00,0.0054
3476.00,0.0055
3475.00,0.0055
3474.00,0.0055
3473.00,0.0055
3472.00,0.0055
3471.00,0.0056
3470.00,0.0056
3469.00,0.0056
3468.00,0.0056
3467.00,0.0056
3466.00,0.0056
3465.00,0.0057
3464.00,0.0057
3463.00,0.0057
3462.00,0.0057
3461.00,0.0057
3460.00,0.0058
3459.00,0.0058
3458.00,0.0058
3457.00,0.0058
3456.00,0.0058
3455.00,0.0058
3454.00,0.0059
3453.00,0.0059
3452.00,0.0059
3451.00,0.0060
3450.00,0.0060
3449.00,0.0060
3448.00,0.0060
3447.00,0.0060
3446.00,0.0060
3445.00,0.0061
3444.00,0.0061
3443.00,0.0061
3442.00,0.0061
3441.00,0.0061
3440.00,0.0062
3439.00,0.0062
3438.00,0.0062
3437.00,0.0062
3436.00,0.0063
3435.00,0.0063
3434.00,0.0063
3433.00,0.0063
3432.00,0.0063
3431.00,0.0063
3430.00,0.0064
3429.00,0.0064
3428.00,0.0064
3427.00,0.0064
3426.00,0.0064
3425.00,0.0065
3424.00,0.0065
3423.00,0.0065
3422.00,0.0065
3421.00,0.0065
3420.00,0.0065
3419.00,0.0065
3418.00,0.0066
3417.00,0.0066
3416.00,0.0067
3415.00,0.0067
3414.00,0.0067
3413.00,0.0067
3412.00,0.0067
3411.00,0.0067
3410.00,0.0068
3409.00,0.0068
3408.00,0.0068
3407.00,0.0068
3406.00,0.0068
3405.00,0.0068
3404.00,0.0069
3403.00,0.0069
3402.00,0.0069
3401.00,0.0069
3400.00,0.0069
3399.00,0.0070
3398.00,0.0070
3397.00,0.0070
3396.00,0.0070
3395.00,0.0070
3394.00,0.0071
3393.00,0.0071
3392.00,0.0071
3391.00,0.0071
3390.00,0.0071
3389.00,0.0071
3388.00,0.0071
3387.00,0.0071
3386.00,0.0072
3385.00,0.0072
3384.00,0.0072
3383.00,0.0072
3382.00,0.0072
3381.00,0.0073
3380.00,0.0073
3379.00,0.0073
3378.00,0.0073
3377.00,0.0074
3376.00,0.0074
3375.00,0.0074
3374.00,0.0074
3373.00,0.0074
3372.00,0.0075
3371.00,0.0075
3370.00,0.0075
3369.00,0.0076
3368.00,0.0076
3367.00,0.0076
3366.00,0.0076
3365.00,0.0076
3364.00,0.0077
3363.00,0.0077
3362.00,0.0077
3361.00,0.0078
3360.00,0.0078
3359.00,0.0078
3358.00,0.0078
3357.00,0.0079
3356.00,0.0079
3355.00,0.0079
3354.00,0.0080
3353.00,0.0080
3352.00,0.0080
3351.00,0.0081
3350.00,0.0081
3349.00,0.0081
3348.00,0.0082
3347.00,0.0082
3346.00,0.0082
3345.00,0.0083
3344.00,0.0083
3343.00,0.0084
3342.00,0.0084
3341.00,0.0084
3340.00,0.0085
3339.00,0.0085
3338.00,0.0086
3337.00,0.0086
3336.00,0.0086
3335.00,0.0087
3334.00,0.0087
3333.00,0.0088
3332.00,0.0088
3331.00,0.0089
3330.00,0.0089
3329.00,0.0090
3328.00,0.0090
3327.00,0.0091
3326.00,0.0091
3325.00,0.0091
3324.00,0.0092
3323.00,0.0092
3322.00,0.0093
3321.00,0.0093
3320.00,0.0094
3319.00,0.0094
3318.00,0.0095
3317.00,0.0095
3316.00,0.0096
3315.00,0.0097
3314.00,0.0097
3313.00,0.0098
3312.00,0.0098
3311.00,0.0099
3310.00,0.0099
3309.00,0.0100
3308.00,0.0100
3307.00,0.0101
3306.00,0.0101
3305.00,0.0102
3304.00,0.0102
3303.00,0.0103
3302.00,0.0103
3301.00,0.0104
3300.00,0.0104
3299.00,0.0105
3298.00,0.0105
3297.00,0.0106
3296.00,0.0106
3295.00,0.0107
3294.00,0.0107
3293.00,0.0108
3292.00,0.0108
3291.00,0.0109
3290.00,0.0109
3289.00,0.0109
3288.00,0.0109
3287.00,0.0110
3286.00,0.0110
3285.00,0.0110
3284.00,0.0111
3283.00,0.0111
3282.00,0.0111
3281.00,0.0111
3280.00,0.0111
3279.00,0.0111
3278.00,0.0111
3277.00,0.0111
3276.00,0.0111
3275.00,0.0111
3274.00,0.0111
3273.00,0.0111
3272.00,0.0110
3271.00,0.0110
3270.00,0.0110
3269.00,0.0110
3268.00,0.0109
3267.00,0.0109
3266.00,0.0108
3265.00,0.0108
3264.00,0.0108
3263.00,0.0107
3262.00,0.0107
3261.00,0.0106
3260.00,0.0106
3259.00,0.0105
3258.00,0.0105
3257.00,0.0104
3256.00,0.0104
3255.00,0.0103
3254.00,0.0102
3253.00,0.0102
3252.00,0.0101
3251.00,0.0100
3250.00,0.0100
3249.00,0.0099
3248.00,0.0099
3247.00,0.0098
3246.00,0.0098
3245.00,0.0097
3244.00,0.0097
3243.00,0.0096
3242.00,0.0096
3241.00,0.0095
3240.00,0.0095
3239.00,0.0095
3238.00,0.0094
3237.00,0.0094
3236.00,0.0094
3235.00,0.0093
3234.00,0.0093
3233.00,0.0092
3232.00,0.0092
3231.00,0.0092
3230.00,0.0092
3229.00,0.0091
3228.00,0.0091
3227.00,0.0090
3226.00,0.0090
3225.00,0.0090
3224.00,0.0089
3223.00,0.0089
3222.00,0.0089
3221.00,0.0088
3220.00,0.0088
3219.00,0.0088
3218.00,0.0087
3217.00,0.0087
3216.00,0.0087
3215.00,0.0086
3214.00,0.0086
3213.00,0.0086
3212.00,0.0086
3211.00,0.0085
3210.00,0.0085
3209.00,0.0085
3208.00,0.0085
3207.00,0.0085
3206.00,0.0084
3205.00,0.0084
3204.00,0.0084
3203.00,0.0084
3202.00,0.0083
3201.00,0.0083
3200.00,0.0083
3199.00,0.0082
3198.00,0.0082
3197.00,0.0082
3196.00,0.0081
3195.00,0.0081
3194.00,0.0081
3193.00,0.0081
3192.00,0.0080
3191.00,0.0080
3190.00,0.0080
3189.00,0.0080
3188.00,0.0079
3187.00,0.0079
3186.00,0.0078
3185.00,0.0078
3184.00,0.0078
3183.00,0.0077
3182.00,0.0077
3181.00,0.0077
3180.00,0.0076
3179.00,0.0076
3178.00,0.0076
3177.00,0.0075
3176.00,0.0075
3175.00,0.0075
3174.00,0.0074
3173.00,0.0074
3172.00,0.0074
3171.00,0.0073
3170.00,0.0073
3169.00,0.0073
3168.00,0.0072
3167.00,0.0072
3166.00,0.0072
3165.00,0.0071
3164.00,0.0071
3163.00,0.0071
3162.00,0.0071
3161.00,0.0070
3160.00,0.0070
3159.00,0.0070
3158.00,0.0069
3157.00,0.0069
3156.00,0.0069
3155.00,0.0069
3154.00,0.0068
3153.00,0.0068
3152.00,0.0068
3151.00,0.0067
3150.00,0.0067
3149.00,0.0067
3148.00,0.0066
3147.00,0.0066
3146.00,0.0066
3145.00,0.0066
3144.00,0.0065
3143.00,0.0065
3142.00,0.0065
3141.00,0.0065
3140.00,0.0064
3139.00,0.0064
3138.00,0.0064
3137.00,0.0064
3136.00,0.0064
3135.00,0.0063
3134.00,0.0063
3133.00,0.0063
3132.00,0.0063
3131.00,0.0063
3130.00,0.0062
3129.00,0.0062
3128.00,0.0062
3127.00,0.0062
3126.00,0.0062
3125.00,0.0062
3124.00,0.0062
3123.00,0.0061
3122.00,0.0061
3121.00,0.0061
3120.00,0.0061
3119.00,0.0061
3118.00,0.0061
3117.00,0.0061
3116.00,0.0061
3115.00,0.0061
3114.00,0.0061
3113.00,0.0060
3112.00,0.0061
3111.00,0.0061
3110.00,0.0061
3109.00,0.0061
3108.00,0.0061
3107.00,0.0061
3106.00,0.0060
3105.00,0.0060
3104.00,0.0060
3103.00,0.0060
3102.00,0.0060
3101.00,0.0060
3100.00,0.0060
3099.00,0.0060
3098.00,0.0060
3097.00,0.0060
3096.00,0.0061
3095.00,0.0061
3094.00,0.0061
3093.00,0.0061
3092.00,0.0061
3091.00,0.0061
3090.00,0.0061
3089.00,0.0061
3088.00,0.0061
3087.00,0.0061
3086.00,0.0061
3085.00,0.0061
3084.00,0.0061
3083.00,0.0061
3082.00,0.0061
3081.00,0.0061
3080.00,0.0061
3079.00,0.0061
3078.00,0.0061
3077.00,0.0061
3076.00,0.0061
3075.00,0.0061
3074.00,0.0061
3073.00,0.0061
3072.00,0.0061
3071.00,0.0061
3070.00,0.0061
3069.00,0.0061
3068.00,0.0061
3067.00,0.0061
3066.00,0.0061
3065.00,0.0061
3064.00,0.0061
3063.00,0.0061
3062.00,0.0061
3061.00,0.0060
3060.00,0.0060
3059.00,0.0060
3058.00,0.0060
3057.00,0.0060
3056.00,0.0060
3055.00,0.0060
3054.00,0.0060
3053.00,0.0059
3052.00,0.0059
3051.00,0.0059
3050.00,0.0059
3049.00,0.0058
3048.00,0.0058
3047.00,0.0058
3046.00,0.0058
3045.00,0.0058
3044.00,0.0057
3043.00,0.0057
3042.00,0.0057
3041.00,0.0057
3040.00,0.0057
3039.00,0.0057
3038.00,0.0056
3037.00,0.0056
3036.00,0.0056
3035.00,0.0056
3034.00,0.0055
3033.00,0.0055
3032.00,0.0055
3031.00,0.0055
3030.00,0.0055
3029.00,0.0055
3028.00,0.0055
3027.00,0.0054
3026.00,0.0054
3025.00,0.0054
3024.00,0.0054
3023.00,0.0054
3022.00,0.0053
3021.00,0.0053
3020.00,0.0053
3019.00,0.0053
3018.00,0.0053
3017.00,0.0053
3016.00,0.0053
3015.00,0.0053
3014.00,0.0053
3013.00,0.0052
3012.00,0.0052
3011.00,0.0052
3010.00,0.0052
3009.00,0.0052
3008.00,0.0052
3007.00,0.0052
3006.00,0.0052
3005.00,0.0052
3004.00,0.0052
3003.00,0.0052
3002.00,0.0052
3001.00,0.0052
3000.00,0.0052
2999.00,0.0052
2998.00,0.0052
2997.00,0.0052
2996.00,0.0052
2995.00,0.0052
2994.00,0.0053
2993.00,0.0053
2992.00,0.0053
2991.00,0.0053
2990.00,0.0054
2989.00,0.0054
2988.00,0.0054
2987.00,0.0055
2986.00,0.0055
2985.00,0.0056
2984.00,0.0056
2983.00,0.0056
2982.00,0.0057
2981.00,0.0057
2980.00,0.0058
2979.00,0.0058
2978.00,0.0058
2977.00,0.0059
2976.00,0.0060
2975.00,0.0060
2974.00,0.0061
2973.00,0.0061
2972.00,0.0062
2971.00,0.0062
2970.00,0.0063
2969.00,0.0063
2968.00,0.0064
2967.00,0.0065
2966.00,0.0065
2965.00,0.0066
2964.00,0.0066
2963.00,0.0067
2962.00,0.0067
2961.00,0.0068
2960.00,0.0068
2959.00,0.0068
2958.00,0.0068
2957.00,0.0068
2956.00,0.0068
2955.00,0.0068
2954.00,0.0067
2953.00,0.0067
2952.00,0.0067
2951.00,0.0067
2950.00,0.0066
2949.00,0.0066
2948.00,0.0066
2947.00,0.0067
2946.00,0.0067
2945.00,0.0067
2944.00,0.0068
2943.00,0.0068
2942.00,0.0069
2941.00,0.0069
2940.00,0.0070
2939.00,0.0071
2938.00,0.0072
2937.00,0.0073
2936.00,0.0074
2935.00,0.0075
2934.00,0.0076
2933.00,0.0077
2932.00,0.0078
2931.00,0.0079
2930.00,0.0080
2929.00,0.0082
2928.00,0.0083
2927.00,0.0084
2926.00,0.0085
2925.00,0.0087
2924.00,0.0088
2923.00,0.0089
2922.00,0.0091
2921.00,0.0092
2920.00,0.0093
2919.00,0.0094
2918.00,0.0094
2917.00,0.0094
2916.00,0.0093
2915.00,0.0091
2914.00,0.0088
2913.00,0.0086
2912.00,0.0083
2911.00,0.0080
2910.00,0.0077
2909.00,0.0075
2908.00,0.0074
2907.00,0.0072
2906.00,0.0071
2905.00,0.0070
2904.00,0.0069
2903.00,0.0068
2902.00,0.0068
2901.00,0.0067
2900.00,0.0067
2899.00,0.0066
2898.00,0.0065
2897.00,0.0065
2896.00,0.0064
2895.00,0.0064
2894.00,0.0064
2893.00,0.0063
2892.00,0.0063
2891.00,0.0063
2890.00,0.0062
2889.00,0.0062
2888.00,0.0061
2887.00,0.0061
2886.00,0.0061
2885.00,0.0061
2884.00,0.0061
2883.00,0.0061
2882.00,0.0061
2881.00,0.0061
2880.00,0.0061
2879.00,0.0061
2878.00,0.0061
2877.00,0.0062
2876.00,0.0062
2875.00,0.0062
2874.00,0.0062
2873.00,0.0062
2872.00,0.0062
2871.00,0.0062
2870.00,0.0061
2869.00,0.0061
2868.00,0.0061
2867.00,0.0061
2866.00,0.0060
2865.00,0.0060
2864.00,0.0060
2863.00,0.0061
2862.00,0.0061
2861.00,0.0061
2860.00,0.0062
2859.00,0.0062
2858.00,0.0063
2857.00,0.0064
2856.00,0.0065
2855.00,0.0066
2854.00,0.0068
2853.00,0.0069
2852.00,0.0071
2851.00,0.0072
2850.00,0.0073
2849.00,0.0072
2848.00,0.0071
2847.00,0.0069
2846.00,0.0066
2845.00,0.0063
2844.00,0.0061
2843.00,0.0059
2842.00,0.0057
2841.00,0.0056
2840.00,0.0055
2839.00,0.0054
2838.00,0.0053
2837.00,0.0052
2836.00,0.0052
2835.00,0.0051
2834.00,0.0051
2833.00,0.0051
2832.00,0.0050
2831.00,0.0050
2830.00,0.0049
2829.00,0.0049
2828.00,0.0049
2827.00,0.0049
2826.00,0.0049
2825.00,0.0048
2824.00,0.0048
2823.00,0.0048
2822.00,0.0048
2821.00,0.0047
2820.00,0.0047
2819.00,0.0047
2818.00,0.0047
2817.00,0.0047
2816.00,0.0047
2815.00,0.0047
2814.00,0.0047
2813.00,0.0047
2812.00,0.0046
2811.00,0.0046
2810.00,0.0046
2809.00,0.0046
2808.00,0.0046
2807.00,0.0046
2806.00,0.0046
2805.00,0.0046
2804.00,0.0045
2803.00,0.0045
2802.00,0.0045
2801.00,0.0045
2800.00,0.0045
2799.00,0.0045
2798.00,0.0045
2797.00,0.0045
2796.00,0.0045
2795.00,0.0045
2794.00,0.0045
2793.00,0.0045
2792.00,0.0045
2791.00,0.0045
2790.00,0.0045
2789.00,0.0045
2788.00,0.0044
2787.00,0.0044
2786.00,0.0044
2785.00,0.0044
2784.00,0.0044
2783.00,0.0044
2782.00,0.0044
2781.00,0.0044
2780.00,0.0044
2779.00,0.0044
2778.00,0.0044
2777.00,0.0044
2776.00,0.0043
2775.00,0.0043
2774.00,0.0043
2773.00,0.0043
2772.00,0.0043
2771.00,0.0043
2770.00,0.0043
2769.00,0.0042
2768.00,0.0042
2767.00,0.0042
2766.00,0.0042
2765.00,0.0042
2764.00,0.0042
2763.00,0.0042
2762.00,0.0042
2761.00,0.0042
2760.00,0.0042
2759.00,0.0042
2758.00,0.0042
2757.00,0.0042
2756.00,0.0042
2755.00,0.0042
2754.00,0.0042
2753.00,0.0042
2752.00,0.0042
2751.00,0.0041
2750.00,0.0041
2749.00,0.0041
2748.00,0.0041
2747.00,0.0041
2746.00,0.0041
2745.00,0.0041
2744.00,0.0041
2743.00,0.0041
2742.00,0.0041
2741.00,0.0041
2740.00,0.0041
2739.00,0.0041
2738.00,0.0041
2737.00,0.0041
2736.00,0.0041
2735.00,0.0041
2734.00,0.0040
2733.00,0.0040
2732.00,0.0040
2731.00,0.0040
2730.00,0.0040
2729.00,0.0040
2728.00,0.0040
2727.00,0.0040
2726.00,0.0040
2725.00,0.0040
2724.00,0.0040
2723.00,0.0040
2722.00,0.0040
2721.00,0.0040
2720.00,0.0040
2719.00,0.0040
2718.00,0.0039
2717.00,0.0039
2716.00,0.0039
2715.00,0.0039
2714.00,0.0039
2713.00,0.0039
2712.00,0.0039
2711.00,0.0039
2710.00,0.0039
2709.00,0.0039
2708.00,0.0039
2707.00,0.0039
2706.00,0.0039
2705.00,0.0039
2704.00,0.0039
2703.00,0.0039
2702.00,0.0039
2701.00,0.0038
2700.00,0.0038
2699.00,0.0038
2698.00,0.0038
2697.00,0.0038
2696.00,0.0038
2695.00,0.0038
2694.00,0.0038
2693.00,0.0038
2692.00,0.0038
2691.00,0.0038
2690.00,0.0038
2689.00,0.0038
2688.00,0.0038
2687.00,0.0038
2686.00,0.0038
2685.00,0.0038
2684.00,0.0038
2683.00,0.0037
2682.00,0.0037
2681.00,0.0037
2680.00,0.0038
2679.00,0.0037
2678.00,0.0037
2677.00,0.0037
2676.00,0.0037
2675.00,0.0037
2674.00,0.0037
2673.00,0.0037
2672.00,0.0037
2671.00,0.0037
2670.00,0.0037
2669.00,0.0037
2668.00,0.0037
2667.00,0.0037
2666.00,0.0037
2665.00,0.0037
2664.00,0.0037
2663.00,0.0037
2662.00,0.0036
2661.00,0.0036
2660.00,0.0036
2659.00,0.0036
2658.00,0.0036
2657.00,0.0036
2656.00,0.0036
2655.00,0.0036
2654.00,0.0036
2653.00,0.0036
2652.00,0.0036
2651.00,0.0036
2650.00,0.0036
2649.00,0.0036
2648.00,0.0036
2647.00,0.0036
2646.00,0.0036
2645.00,0.0036
2644.00,0.0036
2643.00,0.0036
2642.00,0.0036
2641.00,0.0036
2640.00,0.0036
2639.00,0.0036
2638.00,0.0036
2637.00,0.0036
2636.00,0.0036
2635.00,0.0036
2634.00,0.0036
2633.00,0.0036
2632.00,0.0036
2631.00,0.0036
2630.00,0.0036
2629.00,0.0036
2628.00,0.0037
2627.00,0.0037
2626.00,0.0037
2625.00,0.0037
2624.00,0.0037
2623.00,0.0037
2622.00,0.0036
2621.00,0.0036
2620.00,0.0036
2619.00,0.0036
2618.00,0.0036
2617.00,0.0036
2616.00,0.0036
2615.00,0.0036
2614.00,0.0036
2613.00,0.0036
2612.00,0.0036
2611.00,0.0036
2610.00,0.0036
2609.00,0.0036
2608.00,0.0036
2607.00,0.0036
2606.00,0.0036
2605.00,0.0036
2604.00,0.0036
2603.00,0.0036
2602.00,0.0036
2601.00,0.0036
2600.00,0.0036
2599.00,0.0036
2598.00,0.0036
2597.00,0.0036
2596.00,0.0036
2595.00,0.0036
2594.00,0.0036
2593.00,0.0036
2592.00,0.0036
2591.00,0.0036
2590.00,0.0036
2589.00,0.0036
2588.00,0.0036
2587.00,0.0036
2586.00,0.0036
2585.00,0.0036
2584.00,0.0036
2583.00,0.0036
2582.00,0.0036
2581.00,0.0036
2580.00,0.0036
2579.00,0.0036
2578.00,0.0036
2577.00,0.0036
2576.00,0.0036
2575.00,0.0036
2574.00,0.0036
2573.00,0.0036
2572.00,0.0036
2571.00,0.0036
2570.00,0.0036
2569.00,0.0036
2568.00,0.0036
2567.00,0.0035
2566.00,0.0035
2565.00,0.0036
2564.00,0.0036
2563.00,0.0036
2562.00,0.0036
2561.00,0.0036
2560.00,0.0036
2559.00,0.0036
2558.00,0.0035
2557.00,0.0035
2556.00,0.0035
2555.00,0.0036
2554.00,0.0036
2553.00,0.0036
2552.00,0.0036
2551.00,0.0036
2550.00,0.0036
2549.00,0.0036
2548.00,0.0035
2547.00,0.0035
2546.00,0.0035
2545.00,0.0035
2544.00,0.0035
2543.00,0.0035
2542.00,0.0035
2541.00,0.0035
2540.00,0.0035
2539.00,0.0035
2538.00,0.0035
2537.00,0.0035
2536.00,0.0035
2535.00,0.0035
2534.00,0.0035
2533.00,0.0035
2532.00,0.0035
2531.00,0.0035
2530.00,0.0035
2529.00,0.0035
2528.00,0.0035
2527.00,0.0035
2526.00,0.0035
2525.00,0.0035
2524.00,0.0035
2523.00,0.0035
2522.00,0.0036
2521.00,0.0036
2520.00,0.0036
2519.00,0.0036
2518.00,0.0036
2517.00,0.0035
2516.00,0.0035
2515.00,0.0035
2514.00,0.0035
2513.00,0.0035
2512.00,0.0036
2511.00,0.0036
2510.00,0.0036
2509.00,0.0036
2508.00,0.0036
2507.00,0.0036
2506.00,0.0036
2505.00,0.0036
2504.00,0.0036
2503.00,0.0036
2502.00,0.0036
2501.00,0.0037
2500.00,0.0037
2499.00,0.0037
2498.00,0.0037
2497.00,0.0037
2496.00,0.0037
2495.00,0.0037
2494.00,0.0037
2493.00,0.0037
2492.00,0.0038
2491.00,0.0038
2490.00,0.0038
2489.00,0.0038
2488.00,0.0039
2487.00,0.0039
2486.00,0.0039
2485.00,0.0040
2484.00,0.0040
2483.00,0.0040
2482.00,0.0040
2481.00,0.0040
2480.00,0.0040
2479.00,0.0040
2478.00,0.0040
2477.00,0.0040
2476.00,0.0041
2475.00,0.0041
2474.00,0.0041
2473.00,0.0042
2472.00,0.0042
2471.00,0.0042
2470.00,0.0042
2469.00,0.0042
2468.00,0.0042
2467.00,0.0042
2466.00,0.0042
2465.00,0.0042
2464.00,0.0042
2463.00,0.0041
2462.00,0.0041
2461.00,0.0041
2460.00,0.0042
2459.00,0.0042
2458.00,0.0042
2457.00,0.0042
2456.00,0.0042
2455.00,0.0042
2454.00,0.0042
2453.00,0.0042
2452.00,0.0042
2451.00,0.0042
2450.00,0.0042
2449.00,0.0042
2448.00,0.0042
2447.00,0.0042
2446.00,0.0042
2445.00,0.0042
2444.00,0.0042
2443.00,0.0042
2442.00,0.0042
2441.00,0.0042
2440.00,0.0042
2439.00,0.0042
2438.00,0.0042
2437.00,0.0042
2436.00,0.0042
2435.00,0.0043
2434.00,0.0043
2433.00,0.0043
2432.00,0.0044
2431.00,0.0044
2430.00,0.0044
2429.00,0.0044
2428.00,0.0044
2427.00,0.0044
2426.00,0.0044
2425.00,0.0045
2424.00,0.0045
2423.00,0.0045
2422.00,0.0045
2421.00,0.0045
2420.00,0.0045
2419.00,0.0045
2418.00,0.0045
2417.00,0.0045
2416.00,0.0045
2415.00,0.0045
2414.00,0.0045
2413.00,0.0045
2412.00,0.0045
2411.00,0.0045
2410.00,0.0045
2409.00,0.0044
2408.00,0.0044
2407.00,0.0044
2406.00,0.0044
2405.00,0.0043
2404.00,0.0043
2403.00,0.0043
2402.00,0.0043
2401.00,0.0043
2400.00,0.0042
2399.00,0.0042
2398.00,0.0042
2397.00,0.0041
2396.00,0.0041
2395.00,0.0041
2394.00,0.0040
2393.00,0.0040
2392.00,0.0040
2391.00,0.0039
2390.00,0.0039
2389.00,0.0039
2388.00,0.0039
2387.00,0.0038
2386.00,0.0038
2385.00,0.0038
2384.00,0.0037
2383.00,0.0037
2382.00,0.0037
2381.00,0.0037
2380.00,0.0037
2379.00,0.0037
2378.00,0.0037
2377.00,0.0037
2376.00,0.0037
2375.00,0.0037
2374.00,0.0037
2373.00,0.0037
2372.00,0.0037
2371.00,0.0036
2370.00,0.0036
2369.00,0.0036
2368.00,0.0036
2367.00,0.0036
2366.00,0.0036
2365.00,0.0036
2364.00,0.0036
2363.00,0.0036
2362.00,0.0035
2361.00,0.0035
2360.00,0.0035
2359.00,0.0035
2358.00,0.0034
2357.00,0.0034
2356.00,0.0034
2355.00,0.0034
2354.00,0.0034
2353.00,0.0034
2352.00,0.0034
2351.00,0.0034
2350.00,0.0034
2349.00,0.0034
2348.00,0.0034
2347.00,0.0034
2346.00,0.0034
2345.00,0.0034
2344.00,0.0034
2343.00,0.0034
2342.00,0.0033
2341.00,0.0033
2340.00,0.0033
2339.00,0.0033
2338.00,0.0033
2337.00,0.0033
2336.00,0.0033
2335.00,0.0033
2334.00,0.0032
2333.00,0.0032
2332.00,0.0032
2331.00,0.0033
2330.00,0.0033
2329.00,0.0032
2328.00,0.0032
2327.00,0.0031
2326.00,0.0031
2325.00,0.0031
2324.00,0.0031
2323.00,0.0031
2322.00,0.0031
2321.00,0.0032
2320.00,0.0032
2319.00,0.0032
2318.00,0.0032
2317.00,0.0032
2316.00,0.0032
2315.00,0.0032
2314.00,0.0032
2313.00,0.0032
2312.00,0.0032
2311.00,0.0032
2310.00,0.0032
2309.00,0.0032
2308.00,0.0032
2307.00,0.0032
2306.00,0.0032
2305.00,0.0032
2304.00,0.0032
2303.00,0.0032
2302.00,0.0031
2301.00,0.0031
2300.00,0.0031
2299.00,0.0031
2298.00,0.0031
2297.00,0.0031
2296.00,0.0031
2295.00,0.0031
2294.00,0.0031
2293.00,0.0031
2292.00,0.0031
2291.00,0.0031
2290.00,0.0030
2289.00,0.0030
2288.00,0.0030
2287.00,0.0030
2286.00,0.0030
2285.00,0.0030
2284.00,0.0030
2283.00,0.0030
2282.00,0.0030
2281.00,0.0030
2280.00,0.0030
2279.00,0.0030
2278.00,0.0031
2277.00,0.0031
2276.00,0.0031
2275.00,0.0031
2274.00,0.0031
2273.00,0.0030
2272.00,0.0030
2271.00,0.0030
2270.00,0.0030
2269.00,0.0030
2268.00,0.0030
2267.00,0.0031
2266.00,0.0031
2265.00,0.0031
2264.00,0.0031
2263.00,0.0031
2262.00,0.0030
2261.00,0.0030
2260.00,0.0030
2259.00,0.0031
2258.00,0.0031
2257.00,0.0031
2256.00,0.0031
2255.00,0.0031
2254.00,0.0030
2253.00,0.0030
2252.00,0.0030
2251.00,0.0030
2250.00,0.0031
2249.00,0.0031
2248.00,0.0031
2247.00,0.0031
2246.00,0.0031
2245.00,0.0030
2244.00,0.0030
2243.00,0.0031
2242.00,0.0030
2241.00,0.0030
2240.00,0.0030
2239.00,0.0030
2238.00,0.0031
2237.00,0.0031
2236.00,0.0031
2235.00,0.0031
2234.00,0.0031
2233.00,0.0031
2232.00,0.0031
2231.00,0.0031
2230.00,0.0031
2229.00,0.0030
2228.00,0.0030
2227.00,0.0030
2226.00,0.0030
2225.00,0.0030
2224.00,0.0031
2223.00,0.0031
2222.00,0.0031
2221.00,0.0031
2220.00,0.0030
2219.00,0.0030
2218.00,0.0030
2217.00,0.0030
2216.00,0.0030
2215.00,0.0030
2214.00,0.0031
2213.00,0.0031
2212.00,0.0031
2211.00,0.0031
2210.00,0.0030
2209.00,0.0030
2208.00,0.0030
2207.00,0.0030
2206.00,0.0030
2205.00,0.0030
2204.00,0.0030
2203.00,0.0030
2202.00,0.0030
2201.00,0.0030
2200.00,0.0029
2199.00,0.0029
2198.00,0.0029
2197.00,0.0029
2196.00,0.0030
2195.00,0.0030
2194.00,0.0031
2193.00,0.0031
2192.00,0.0031
2191.00,0.0031
2190.00,0.0031
2189.00,0.0030
2188.00,0.0030
2187.00,0.0030
2186.00,0.0030
2185.00,0.0030
2184.00,0.0031
2183.00,0.0031
2182.00,0.0031
2181.00,0.0031
2180.00,0.0031
2179.00,0.0031
2178.00,0.0031
2177.00,0.0031
2176.00,0.0031
2175.00,0.0030
2174.00,0.0030
2173.00,0.0029
2172.00,0.0029
2171.00,0.0028
2170.00,0.0028
2169.00,0.0029
2168.00,0.0030
2167.00,0.0031
2166.00,0.0031
2165.00,0.0031
2164.00,0.0030
2163.00,0.0030
2162.00,0.0031
2161.00,0.0032
2160.00,0.0033
2159.00,0.0034
2158.00,0.0033
2157.00,0.0032
2156.00,0.0032
2155.00,0.0031
2154.00,0.0031
2153.00,0.0031
2152.00,0.0031
2151.00,0.0031
2150.00,0.0030
2149.00,0.0030
2148.00,0.0030
2147.00,0.0030
2146.00,0.0030
2145.00,0.0030
2144.00,0.0031
2143.00,0.0031
2142.00,0.0031
2141.00,0.0031
2140.00,0.0031
2139.00,0.0031
2138.00,0.0031
2137.00,0.0031
2136.00,0.0031
2135.00,0.0031
2134.00,0.0031
2133.00,0.0031
2132.00,0.0031
2131.00,0.0032
2130.00,0.0032
2129.00,0.0031
2128.00,0.0031
2127.00,0.0031
2126.00,0.0031
2125.00,0.0031
2124.00,0.0031
2123.00,0.0031
2122.00,0.0031
2121.00,0.0031
2120.00,0.0031
2119.00,0.0030
2118.00,0.0030
2117.00,0.0030
2116.00,0.0030
2115.00,0.0030
2114.00,0.0030
2113.00,0.0030
2112.00,0.0030
2111.00,0.0030
2110.00,0.0030
2109.00,0.0030
2108.00,0.0030
2107.00,0.0030
2106.00,0.0030
2105.00,0.0030
2104.00,0.0030
2103.00,0.0029
2102.00,0.0029
2101.00,0.0029
2100.00,0.0029
2099.00,0.0029
2098.00,0.0030
2097.00,0.0030
2096.00,0.0030
2095.00,0.0030
2094.00,0.0029
2093.00,0.0029
2092.00,0.0028
2091.00,0.0028
2090.00,0.0028
2089.00,0.0029
2088.00,0.0029
2087.00,0.0029
2086.00,0.0029
2085.00,0.0029
2084.00,0.0029
2083.00,0.0028
2082.00,0.0028
2081.00,0.0027
2080.00,0.0027
2079.00,0.0028
2078.00,0.0028
2077.00,0.0028
2076.00,0.0028
2075.00,0.0028
2074.00,0.0028
2073.00,0.0028
2072.00,0.0028
2071.00,0.0028
2070.00,0.0028
2069.00,0.0028
2068.00,0.0028
2067.00,0.0028
2066.00,0.0028
2065.00,0.0028
2064.00,0.0028
2063.00,0.0028
2062.00,0.0028
2061.00,0.0028
2060.00,0.0028
2059.00,0.0028
2058.00,0.0027
2057.00,0.0027
2056.00,0.0027
2055.00,0.0026
2054.00,0.0026
2053.00,0.0025
2052.00,0.0024
2051.00,0.0024
2050.00,0.0025
2049.00,0.0026
2048.00,0.0026
2047.00,0.0027
2046.00,0.0027
2045.00,0.0027
2044.00,0.0027
2043.00,0.0027
2042.00,0.0026
2041.00,0.0026
2040.00,0.0026
2039.00,0.0026
2038.00,0.0026
2037.00,0.0026
2036.00,0.0026
2035.00,0.0027
2034.00,0.0027
2033.00,0.0026
2032.00,0.0026
2031.00,0.0026
2030.00,0.0027
2029.00,0.0027
2028.00,0.0027
2027.00,0.0027
2026.00,0.0027
2025.00,0.0027
2024.00,0.0028
2023.00,0.0028
2022.00,0.0028
2021.00,0.0027
2020.00,0.0027
2019.00,0.0027
2018.00,0.0027
2017.00,0.0028
2016.00,0.0029
2015.00,0.0030
2014.00,0.0029
2013.00,0.0028
2012.00,0.0026
2011.00,0.0026
2010.00,0.0026
2009.00,0.0026
2008.00,0.0027
2007.00,0.0027
2006.00,0.0027
2005.00,0.0027
2004.00,0.0028
2003.00,0.0028
2002.00,0.0028
2001.00,0.0027
2000.00,0.0026
1999.00,0.0026
1998.00,0.0026
1997.00,0.0026
1996.00,0.0026
1995.00,0.0027
1994.00,0.0026
1993.00,0.0026
1992.00,0.0026
1991.00,0.0026
1990.00,0.0027
1989.00,0.0026
1988.00,0.0026
1987.00,0.0025
1986.00,0.0025
1985.00,0.0025
1984.00,0.0024
1983.00,0.0024
1982.00,0.0024
1981.00,0.0024
1980.00,0.0024
1979.00,0.0025
1978.00,0.0026
1977.00,0.0026
1976.00,0.0027
1975.00,0.0027
1974.00,0.0028
1973.00,0.0028
1972.00,0.0028
1971.00,0.0028
1970.00,0.0027
1969.00,0.0027
1968.00,0.0027
1967.00,0.0027
1966.00,0.0026
1965.00,0.0026
1964.00,0.0026
1963.00,0.0026
1962.00,0.0027
1961.00,0.0027
1960.00,0.0027
1959.00,0.0027
1958.00,0.0027
1957.00,0.0027
1956.00,0.0027
1955.00,0.0026
1954.00,0.0025
1953.00,0.0025
1952.00,0.0025
1951.00,0.0025
1950.00,0.0025
1949.00,0.0025
1948.00,0.0025
1947.00,0.0025
1946.00,0.0025
1945.00,0.0025
1944.00,0.0025
1943.00,0.0025
1942.00,0.0025
1941.00,0.0026
1940.00,0.0026
1939.00,0.0026
1938.00,0.0025
1937.00,0.0025
1936.00,0.0025
1935.00,0.0025
1934.00,0.0025
1933.00,0.0025
1932.00,0.0025
1931.00,0.0025
1930.00,0.0025
1929.00,0.0025
1928.00,0.0025
1927.00,0.0025
1926.00,0.0024
1925.00,0.0024
1924.00,0.0023
1923.00,0.0024
1922.00,0.0024
1921.00,0.0024
1920.00,0.0023
1919.00,0.0023
1918.00,0.0024
1917.00,0.0025
1916.00,0.0025
1915.00,0.0025
1914.00,0.0024
1913.00,0.0024
1912.00,0.0024
1911.00,0.0024
1910.00,0.0023
1909.00,0.0023
1908.00,0.0023
1907.00,0.0024
1906.00,0.0024
1905.00,0.0024
1904.00,0.0024
1903.00,0.0024
1902.00,0.0024
1901.00,0.0024
1900.00,0.0024
1899.00,0.0024
1898.00,0.0023
1897.00,0.0023
1896.00,0.0023
1895.00,0.0023
1894.00,0.0024
1893.00,0.0024
1892.00,0.0023
1891.00,0.0023
1890.00,0.0023
1889.00,0.0023
1888.00,0.0023
1887.00,0.0023
1886.00,0.0023
1885.00,0.0023
1884.00,0.0023
1883.00,0.0023
1882.00,0.0023
1881.00,0.0022
1880.00,0.0022
1879.00,0.0022
1878.00,0.0022
1877.00,0.0022
1876.00,0.0022
1875.00,0.0022
1874.00,0.0022
1873.00,0.0022
1872.00,0.0021
1871.00,0.0020
1870.00,0.0020
1869.00,0.0021
1868.00,0.0022
1867.00,0.0022
1866.00,0.0022
1865.00,0.0022
1864.00,0.0022
1863.00,0.0022
1862.00,0.0022
1861.00,0.0022
1860.00,0.0022
1859.00,0.0022
1858.00,0.0022
1857.00,0.0022
1856.00,0.0022
1855.00,0.0022
1854.00,0.0021
1853.00,0.0021
1852.00,0.0021
1851.00,0.0021
1850.00,0.0020
1849.00,0.0020
1848.00,0.0019
1847.00,0.0019
1846.00,0.0018
1845.00,0.0019
1844.00,0.0022
1843.00,0.0023
1842.00,0.0023
1841.00,0.0022
1840.00,0.0021
1839.00,0.0020
1838.00,0.0020
1837.00,0.0020
1836.00,0.0020
1835.00,0.0020
1834.00,0.0020
1833.00,0.0019
1832.00,0.0018
1831.00,0.0018
1830.00,0.0019
1829.00,0.0020
1828.00,0.0020
1827.00,0.0020
1826.00,0.0019
1825.00,0.0019
1824.00,0.0020
1823.00,0.0020
1822.00,0.0020
1821.00,0.0020
1820.00,0.0019
1819.00,0.0019
1818.00,0.0019
1817.00,0.0019
1816.00,0.0019
1815.00,0.0019
1814.00,0.0018
1813.00,0.0017
1812.00,0.0017
1811.00,0.0017
1810.00,0.0018
1809.00,0.0018
1808.00,0.0018
1807.00,0.0018
1806.00,0.0018
1805.00,0.0018
1804.00,0.0017
1803.00,0.0017
1802.00,0.0016
1801.00,0.0016
1800.00,0.0017
1799.00,0.0017
1798.00,0.0017
1797.00,0.0016
1796.00,0.0015
1795.00,0.0015
1794.00,0.0015
1793.00,0.0016
1792.00,0.0017
1791.00,0.0019
1790.00,0.0019
1789.00,0.0019
1788.00,0.0017
1787.00,0.0017
1786.00,0.0017
1785.00,0.0017
1784.00,0.0017
1783.00,0.0017
1782.00,0.0016
1781.00,0.0016
1780.00,0.0016
1779.00,0.0016
1778.00,0.0016
1777.00,0.0016
1776.00,0.0015
1775.00,0.0014
1774.00,0.0014
1773.00,0.0015
1772.00,0.0017
1771.00,0.0019
1770.00,0.0019
1769.00,0.0018
1768.00,0.0018
1767.00,0.0018
1766.00,0.0018
1765.00,0.0017
1764.00,0.0015
1763.00,0.0015
1762.00,0.0017
1761.00,0.0018
1760.00,0.0018
1759.00,0.0017
1758.00,0.0016
1757.00,0.0017
1756.00,0.0018
1755.00,0.0018
1754.00,0.0018
1753.00,0.0017
1752.00,0.0017
1751.00,0.0017
1750.00,0.0018
1749.00,0.0018
1748.00,0.0019
1747.00,0.0019
1746.00,0.0019
1745.00,0.0019
1744.00,0.0019
1743.00,0.0019
1742.00,0.0020
1741.00,0.0020
1740.00,0.0022
1739.00,0.0023
1738.00,0.0023
1737.00,0.0021
1736.00,0.0019
1735.00,0.0021
1734.00,0.0024
1733.00,0.0026
1732.00,0.0026
1731.00,0.0023
1730.00,0.0022
1729.00,0.0021
1728.00,0.0022
1727.00,0.0022
1726.00,0.0022
1725.00,0.0021
1724.00,0.0021
1723.00,0.0021
1722.00,0.0021
1721.00,0.0020
1720.00,0.0019
1719.00,0.0020
1718.00,0.0021
1717.00,0.0023
1716.00,0.0025
1715.00,0.0026
1714.00,0.0027
1713.00,0.0027
1712.00,0.0027
1711.00,0.0027
1710.00,0.0027
1709.00,0.0028
1708.00,0.0028
1707.00,0.0030
1706.00,0.0031
1705.00,0.0032
1704.00,0.0035
1703.00,0.0038
1702.00,0.0040
1701.00,0.0043
1700.00,0.0045
1699.00,0.0050
1698.00,0.0054
1697.00,0.0063
1696.00,0.0073
1695.00,0.0078
1694.00,0.0083
1693.00,0.0083
1692.00,0.0083
1691.00,0.0084
1690.00,0.0085
1689.00,0.0086
1688.00,0.0087
1687.00,0.0088
1686.00,0.0091
1685.00,0.0094
1684.00,0.0098
1683.00,0.0100
1682.00,0.0102
1681.00,0.0102
1680.00,0.0103
1679.00,0.0105
1678.00,0.0108
1677.00,0.0112
1676.00,0.0116
1675.00,0.0119
1674.00,0.0121
1673.00,0.0123
1672.00,0.0124
1671.00,0.0126
1670.00,0.0129
1669.00,0.0132
1668.00,0.0134
1667.00,0.0137
1666.00,0.0139
1665.00,0.0142
1664.00,0.0145
1663.00,0.0148
1662.00,0.0150
1661.00,0.0152
1660.00,0.0154
1659.00,0.0156
1658.00,0.0159
1657.00,0.0163
1656.00,0.0168
1655.00,0.0174
1654.00,0.0177
1653.00,0.0177
1652.00,0.0176
1651.00,0.0176
1650.00,0.0176
1649.00,0.0177
1648.00,0.0179
1647.00,0.0180
1646.00,0.0180
1645.00,0.0181
1644.00,0.0182
1643.00,0.0183
1642.00,0.0185
1641.00,0.0187
1640.00,0.0188
1639.00,0.0191
1638.00,0.0193
1637.00,0.0195
1636.00,0.0195
1635.00,0.0194
1634.00,0.0195
1633.00,0.0196
1632.00,0.0198
1631.00,0.0200
1630.00,0.0203
1629.00,0.0205
1628.00,0.0206
1627.00,0.0208
1626.00,0.0210
1625.00,0.0213
1624.00,0.0214
1623.00,0.0215
1622.00,0.0215
1621.00,0.0216
1620.00,0.0220
1619.00,0.0224
1618.00,0.0226
1617.00,0.0225
1616.00,0.0221
1615.00,0.0218
1614.00,0.0217
1613.00,0.0216
1612.00,0.0216
1611.00,0.0214
1610.00,0.0210
1609.00,0.0206
1608.00,0.0202
1607.00,0.0197
1606.00,0.0193
1605.00,0.0189
1604.00,0.0184
1603.00,0.0180
1602.00,0.0175
1601.00,0.0170
1600.00,0.0166
1599.00,0.0162
1598.00,0.0158
1597.00,0.0153
1596.00,0.0149
1595.00,0.0145
1594.00,0.0141
1593.00,0.0137
1592.00,0.0134
1591.00,0.0131
1590.00,0.0128
1589.00,0.0126
1588.00,0.0123
1587.00,0.0122
1586.00,0.0120
1585.00,0.0118
1584.00,0.0117
1583.00,0.0116
1582.00,0.0115
1581.00,0.0115
1580.00,0.0114
1579.00,0.0114
1578.00,0.0114
1577.00,0.0114
1576.00,0.0114
1575.00,0.0114
1574.00,0.0113
1573.00,0.0112
1572.00,0.0111
1571.00,0.0112
1570.00,0.0112
1569.00,0.0113
1568.00,0.0113
1567.00,0.0113
1566.00,0.0113
1565.00,0.0114
1564.00,0.0116
1563.00,0.0118
1562.00,0.0121
1561.00,0.0125
1560.00,0.0130
1559.00,0.0130
1558.00,0.0131
1557.00,0.0133
1556.00,0.0134
1555.00,0.0135
1554.00,0.0137
1553.00,0.0139
1552.00,0.0141
1551.00,0.0143
1550.00,0.0145
1549.00,0.0148
1548.00,0.0151
1547.00,0.0154
1546.00,0.0158
1545.00,0.0160
1544.00,0.0163
1543.00,0.0166
1542.00,0.0169
1541.00,0.0171
1540.00,0.0171
1539.00,0.0172
1538.00,0.0173
1537.00,0.0173
1536.00,0.0174
1535.00,0.0176
1534.00,0.0177
1533.00,0.0176
1532.00,0.0175
1531.00,0.0175
1530.00,0.0177
1529.00,0.0178
1528.00,0.0178
1527.00,0.0178
1526.00,0.0178
1525.00,0.0178
1524.00,0.0179
1523.00,0.0181
1522.00,0.0180
1521.00,0.0179
1520.00,0.0178
1519.00,0.0178
1518.00,0.0178
1517.00,0.0177
1516.00,0.0175
1515.00,0.0175
1514.00,0.0175
1513.00,0.0175
1512.00,0.0174
1511.00,0.0173
1510.00,0.0171
1509.00,0.0170
1508.00,0.0167
1507.00,0.0161
1506.00,0.0157
1505.00,0.0156
1504.00,0.0154
1503.00,0.0151
1502.00,0.0149
1501.00,0.0148
1500.00,0.0146
1499.00,0.0144
1498.00,0.0142
1497.00,0.0138
1496.00,0.0135
1495.00,0.0131
1494.00,0.0128
1493.00,0.0126
1492.00,0.0123
1491.00,0.0120
1490.00,0.0117
1489.00,0.0113
1488.00,0.0111
1487.00,0.0110
1486.00,0.0110
1485.00,0.0110
1484.00,0.0109
1483.00,0.0109
1482.00,0.0109
1481.00,0.0109
1480.00,0.0110
1479.00,0.0112
1478.00,0.0113
1477.00,0.0115
1476.00,0.0116
1475.00,0.0118
1474.00,0.0120
1473.00,0.0122
1472.00,0.0125
1471.00,0.0127
1470.00,0.0129
1469.00,0.0131
1468.00,0.0132
1467.00,0.0134
1466.00,0.0136
1465.00,0.0137
1464.00,0.0137
1463.00,0.0138
1462.00,0.0138
1461.00,0.0139
1460.00,0.0141
1459.00,0.0143
1458.00,0.0144
1457.00,0.0144
1456.00,0.0144
1455.00,0.0145
1454.00,0.0145
1453.00,0.0145
1452.00,0.0146
1451.00,0.0146
1450.00,0.0147
1449.00,0.0147
1448.00,0.0146
1447.00,0.0146
1446.00,0.0145
1445.00,0.0145
1444.00,0.0145
1443.00,0.0145
1442.00,0.0144
1441.00,0.0144
1440.00,0.0144
1439.00,0.0144
1438.00,0.0145
1437.00,0.0144
1436.00,0.0141
1435.00,0.0138
1434.00,0.0136
1433.00,0.0134
1432.00,0.0133
1431.00,0.0131
1430.00,0.0129
1429.00,0.0128
1428.00,0.0126
1427.00,0.0125
1426.00,0.0124
1425.00,0.0123
1424.00,0.0121
1423.00,0.0120
1422.00,0.0120
1421.00,0.0121
1420.00,0.0122
1419.00,0.0120
1418.00,0.0119
1417.00,0.0118
1416.00,0.0117
1415.00,0.0117
1414.00,0.0118
1413.00,0.0118
1412.00,0.0118
1411.00,0.0117
1410.00,0.0117
1409.00,0.0117
1408.00,0.0117
1407.00,0.0117
1406.00,0.0116
1405.00,0.0115
1404.00,0.0115
1403.00,0.0114
1402.00,0.0114
1401.00,0.0114
1400.00,0.0113
1399.00,0.0112
1398.00,0.0111
1397.00,0.0111
1396.00,0.0110
1395.00,0.0110
1394.00,0.0111
1393.00,0.0111
1392.00,0.0111
1391.00,0.0111
1390.00,0.0111
1389.00,0.0111
1388.00,0.0111
1387.00,0.0110
1386.00,0.0109
1385.00,0.0109
1384.00,0.0109
1383.00,0.0108
1382.00,0.0108
1381.00,0.0108
1380.00,0.0107
1379.00,0.0106
1378.00,0.0106
1377.00,0.0105
1376.00,0.0105
1375.00,0.0104
1374.00,0.0104
1373.00,0.0104
1372.00,0.0104
1371.00,0.0104
1370.00,0.0104
1369.00,0.0104
1368.00,0.0104
1367.00,0.0103
1366.00,0.0102
1365.00,0.0102
1364.00,0.0100
1363.00,0.0098
1362.00,0.0097
1361.00,0.0097
1360.00,0.0096
1359.00,0.0096
1358.00,0.0096
1357.00,0.0096
1356.00,0.0095
1355.00,0.0095
1354.00,0.0094
1353.00,0.0094
1352.00,0.0094
1351.00,0.0094
1350.00,0.0094
1349.00,0.0094
1348.00,0.0094
1347.00,0.0094
1346.00,0.0094
1345.00,0.0094
1344.00,0.0094
1343.00,0.0094
1342.00,0.0093
1341.00,0.0092
1340.00,0.0091
1339.00,0.0091
1338.00,0.0091
1337.00,0.0091
1336.00,0.0092
1335.00,0.0092
1334.00,0.0092
1333.00,0.0092
1332.00,0.0092
1331.00,0.0092
1330.00,0.0092
1329.00,0.0092
1328.00,0.0091
1327.00,0.0091
1326.00,0.0091
1325.00,0.0091
1324.00,0.0091
1323.00,0.0091
1322.00,0.0091
1321.00,0.0090
1320.00,0.0090
1319.00,0.0090
1318.00,0.0090
1317.00,0.0090
1316.00,0.0090
1315.00,0.0090
1314.00,0.0090
1313.00,0.0090
1312.00,0.0090
1311.00,0.0090
1310.00,0.0091
1309.00,0.0091
1308.00,0.0091
1307.00,0.0090
1306.00,0.0090
1305.00,0.0090
1304.00,0.0090
1303.00,0.0090
1302.00,0.0090
1301.00,0.0090
1300.00,0.0090
1299.00,0.0090
1298.00,0.0090
1297.00,0.0090
1296.00,0.0090
1295.00,0.0090
1294.00,0.0090
1293.00,0.0090
1292.00,0.0090
1291.00,0.0090
1290.00,0.0090
1289.00,0.0090
1288.00,0.0090
1287.00,0.0090
1286.00,0.0090
1285.00,0.0090
1284.00,0.0090
1283.00,0.0090
1282.00,0.0090
1281.00,0.0090
1280.00,0.0090
1279.00,0.0090
1278.00,0.0090
1277.00,0.0090
1276.00,0.0090
1275.00,0.0090
1274.00,0.0090
1273.00,0.0090
1272.00,0.0090
1271.00,0.0090
1270.00,0.0090
1269.00,0.0090
1268.00,0.0091
1267.00,0.0091
1266.00,0.0092
1265.00,0.0092
1264.00,0.0093
1263.00,0.0093
1262.00,0.0094
1261.00,0.0094
1260.00,0.0094
1259.00,0.0095
1258.00,0.0095
1257.00,0.0096
1256.00,0.0096
1255.00,0.0097
1254.00,0.0097
1253.00,0.0098
1252.00,0.0099
1251.00,0.0099
1250.00,0.0100
1249.00,0.0101
1248.00,0.0101
1247.00,0.0102
1246.00,0.0103
1245.00,0.0104
1244.00,0.0104
1243.00,0.0105
1242.00,0.0106
1241.00,0.0107
1240.00,0.0108
1239.00,0.0109
1238.00,0.0109
1237.00,0.0110
1236.00,0.0110
1235.00,0.0109
1234.00,0.0109
1233.00,0.0109
1232.00,0.0109
1231.00,0.0108
1230.00,0.0108
1229.00,0.0108
1228.00,0.0108
1227.00,0.0107
1226.00,0.0107
1225.00,0.0106
1224.00,0.0105
1223.00,0.0105
1222.00,0.0104
1221.00,0.0104
1220.00,0.0103
1219.00,0.0102
1218.00,0.0101
1217.00,0.0100
1216.00,0.0100
1215.00,0.0099
1214.00,0.0098
1213.00,0.0097
1212.00,0.0096
1211.00,0.0096
1210.00,0.0095
1209.00,0.0094
1208.00,0.0093
1207.00,0.0092
1206.00,0.0091
1205.00,0.0091
1204.00,0.0090
1203.00,0.0089
1202.00,0.0088
1201.00,0.0087
1200.00,0.0086
1199.00,0.0086
1198.00,0.0085
1197.00,0.0085
1196.00,0.0084
1195.00,0.0083
1194.00,0.0083
1193.00,0.0082
1192.00,0.0082
1191.00,0.0081
1190.00,0.0081
1189.00,0.0080
1188.00,0.0080
1187.00,0.0079
1186.00,0.0079
1185.00,0.0079
1184.00,0.0079
1183.00,0.0079
1182.00,0.0079
1181.00,0.0079
1180.00,0.0079
1179.00,0.0079
1178.00,0.0079
1177.00,0.0079
1176.00,0.0080
1175.00,0.0080
1174.00,0.0081
1173.00,0.0082
1172.00,0.0082
1171.00,0.0083
1170.00,0.0084
1169.00,0.0084
1168.00,0.0084
1167.00,0.0085
1166.00,0.0086
1165.00,0.0086
1164.00,0.0086
1163.00,0.0087
1162.00,0.0087
1161.00,0.0087
1160.00,0.0087
1159.00,0.0087
1158.00,0.0087
1157.00,0.0087
1156.00,0.0087
1155.00,0.0086
1154.00,0.0086
1153.00,0.0085
1152.00,0.0085
1151.00,0.0084
1150.00,0.0084
1149.00,0.0083
1148.00,0.0082
1147.00,0.0082
1146.00,0.0081
1145.00,0.0081
1144.00,0.0080
1143.00,0.0080
1142.00,0.0080
1141.00,0.0080
1140.00,0.0079
1139.00,0.0079
1138.00,0.0079
1137.00,0.0079
1136.00,0.0079
1135.00,0.0079
1134.00,0.0079
1133.00,0.0080
1132.00,0.0080
1131.00,0.0080
1130.00,0.0080
1129.00,0.0081
1128.00,0.0081
1127.00,0.0081
1126.00,0.0082
1125.00,0.0082
1124.00,0.0082
1123.00,0.0083
1122.00,0.0083
1121.00,0.0084
1120.00,0.0084
1119.00,0.0085
1118.00,0.0086
1117.00,0.0087
1116.00,0.0087
1115.00,0.0087
1114.00,0.0088
1113.00,0.0089
1112.00,0.0089
1111.00,0.0089
1110.00,0.0090
1109.00,0.0091
1108.00,0.0091
1107.00,0.0092
1106.00,0.0093
1105.00,0.0094
1104.00,0.0094
1103.00,0.0095
1102.00,0.0095
1101.00,0.0096
1100.00,0.0097
1099.00,0.0098
1098.00,0.0099
1097.00,0.0099
1096.00,0.0099
1095.00,0.0100
1094.00,0.0100
1093.00,0.0100
1092.00,0.0101
1091.00,0.0101
1090.00,0.0102
1089.00,0.0102
1088.00,0.0103
1087.00,0.0103
1086.00,0.0105
1085.00,0.0106
1084.00,0.0106
1083.00,0.0107
1082.00,0.0109
1081.00,0.0110
1080.00,0.0111
1079.00,0.0112
1078.00,0.0114
1077.00,0.0115
1076.00,0.0116
1075.00,0.0117
1074.00,0.0119
1073.00,0.0120
1072.00,0.0121
1071.00,0.0122
1070.00,0.0123
1069.00,0.0123
1068.00,0.0124
1067.00,0.0124
1066.00,0.0125
1065.00,0.0125
1064.00,0.0125
1063.00,0.0125
1062.00,0.0125
1061.00,0.0125
1060.00,0.0125
1059.00,0.0124
1058.00,0.0124
1057.00,0.0124
1056.00,0.0123
1055.00,0.0123
1054.00,0.0123
1053.00,0.0123
1052.00,0.0122
1051.00,0.0121
1050.00,0.0121
1049.00,0.0120
1048.00,0.0119
1047.00,0.0119
1046.00,0.0118
1045.00,0.0118
1044.00,0.0116
1043.00,0.0115
1042.00,0.0115
1041.00,0.0114
1040.00,0.0113
1039.00,0.0112
1038.00,0.0111
1037.00,0.0111
1036.00,0.0110
1035.00,0.0109
1034.00,0.0109
1033.00,0.0109
1032.00,0.0109
1031.00,0.0108
1030.00,0.0108
1029.00,0.0108
1028.00,0.0108
1027.00,0.0107
1026.00,0.0107
1025.00,0.0107
1024.00,0.0107
1023.00,0.0107
1022.00,0.0107
1021.00,0.0108
1020.00,0.0107
1019.00,0.0107
1018.00,0.0107
1017.00,0.0107
1016.00,0.0106
1015.00,0.0104
1014.00,0.0103
1013.00,0.0101
1012.00,0.0098
1011.00,0.0096
1010.00,0.0094
1009.00,0.0092
1008.00,0.0090
1007.00,0.0088
1006.00,0.0087
1005.00,0.0086
1004.00,0.0084
1003.00,0.0083
1002.00,0.0083
1001.00,0.0082
1000.00,0.0080
999.00,0.0079
998.00,0.0079
997.00,0.0078
996.00,0.0077
995.00,0.0076
994.00,0.0076
993.00,0.0075
992.00,0.0074
991.00,0.0074
990.00,0.0073
989.00,0.0073
988.00,0.0072
987.00,0.0071
986.00,0.0071
985.00,0.0071
984.00,0.0070
983.00,0.0070
982.00,0.0069
981.00,0.0069
980.00,0.0069
979.00,0.0069
978.00,0.0069
977.00,0.0068
976.00,0.0068
975.00,0.0068
974.00,0.0068
973.00,0.0068
972.00,0.0067
971.00,0.0067
970.00,0.0067
969.00,0.0067
968.00,0.0067
967.00,0.0066
966.00,0.0067
965.00,0.0067
964.00,0.0066
963.00,0.0066
962.00,0.0067
961.00,0.0067
960.00,0.0067
959.00,0.0066
958.00,0.0067
957.00,0.0067
956.00,0.0066
955.00,0.0066
954.00,0.0066
953.00,0.0066
952.00,0.0066
951.00,0.0066
950.00,0.0066
949.00,0.0066
948.00,0.0065
947.00,0.0065
946.00,0.0065
945.00,0.0065
944.00,0.0065
943.00,0.0065
942.00,0.0065
941.00,0.0066
940.00,0.0066
939.00,0.0066
938.00,0.0067
937.00,0.0067
936.00,0.0068
935.00,0.0068
934.00,0.0068
933.00,0.0068
932.00,0.0067
931.00,0.0067
930.00,0.0067
929.00,0.0067
928.00,0.0066
927.00,0.0066
926.00,0.0066
925.00,0.0066
924.00,0.0065
923.00,0.0065
922.00,0.0064
921.00,0.0064
920.00,0.0064
919.00,0.0063
918.00,0.0063
917.00,0.0063
916.00,0.0063
915.00,0.0063
914.00,0.0063
913.00,0.0063
912.00,0.0062
911.00,0.0062
910.00,0.0063
909.00,0.0063
908.00,0.0063
907.00,0.0064
906.00,0.0064
905.00,0.0065
904.00,0.0065
903.00,0.0065
902.00,0.0066
901.00,0.0066
900.00,0.0065
899.00,0.0065
898.00,0.0065
897.00,0.0064
896.00,0.0063
895.00,0.0062
894.00,0.0062
893.00,0.0061
892.00,0.0060
891.00,0.0060
890.00,0.0059
889.00,0.0059
888.00,0.0057
887.00,0.0056
886.00,0.0056
885.00,0.0055
884.00,0.0054
883.00,0.0054
882.00,0.0054
881.00,0.0054
880.00,0.0053
879.00,0.0052
878.00,0.0052
877.00,0.0052
876.00,0.0051
875.00,0.0051
874.00,0.0051
873.00,0.0051
872.00,0.0051
871.00,0.0050
870.00,0.0050
869.00,0.0050
868.00,0.0049
867.00,0.0048
866.00,0.0048
865.00,0.0048
864.00,0.0047
863.00,0.0046
862.00,0.0046
861.00,0.0046
860.00,0.0046
859.00,0.0045
858.00,0.0045
857.00,0.0045
856.00,0.0045
855.00,0.0045
854.00,0.0045
853.00,0.0045
852.00,0.0045
851.00,0.0045
850.00,0.0045
849.00,0.0045
848.00,0.0045
847.00,0.0045
846.00,0.0045
845.00,0.0045
844.00,0.0044
843.00,0.0044
842.00,0.0044
841.00,0.0044
840.00,0.0044
839.00,0.0044
838.00,0.0044
837.00,0.0045
836.00,0.0044
835.00,0.0044
834.00,0.0045
833.00,0.0045
832.00,0.0045
831.00,0.0045
830.00,0.0046
829.00,0.0046
828.00,0.0046
827.00,0.0046
826.00,0.0047
825.00,0.0048
824.00,0.0047
823.00,0.0048
822.00,0.0048
821.00,0.0049
820.00,0.0049
819.00,0.0049
818.00,0.0049
817.00,0.0050
816.00,0.0049
815.00,0.0049
814.00,0.0050
813.00,0.0051
812.00,0.0051
811.00,0.0051
810.00,0.0052
809.00,0.0053
808.00,0.0052
807.00,0.0053
806.00,0.0053
805.00,0.0054
804.00,0.0054
803.00,0.0054
802.00,0.0054
801.00,0.0055
800.00,0.0054
799.00,0.0054
798.00,0.0055
797.00,0.0055
796.00,0.0055
795.00,0.0055
794.00,0.0055
793.00,0.0056
792.00,0.0056
791.00,0.0056
790.00,0.0056
789.00,0.0057
788.00,0.0057
787.00,0.0057
786.00,0.0058
785.00,0.0058
784.00,0.0058
783.00,0.0058
782.00,0.0059
781.00,0.0060
780.00,0.0060
779.00,0.0060
778.00,0.0060
777.00,0.0061
776.00,0.0061
775.00,0.0062
774.00,0.0062
773.00,0.0063
772.00,0.0063
771.00,0.0063
770.00,0.0064
769.00,0.0064
768.00,0.0064
767.00,0.0065
766.00,0.0065
765.00,0.0066
764.00,0.0066
763.00,0.0066
762.00,0.0066
761.00,0.0067
760.00,0.0067
759.00,0.0067
758.00,0.0068
757.00,0.0069
756.00,0.0068
755.00,0.0068
754.00,0.0069
753.00,0.0069
752.00,0.0069
751.00,0.0070
750.00,0.0071
749.00,0.0072
748.00,0.0072
747.00,0.0072
746.00,0.0073
745.00,0.0073
744.00,0.0073
743.00,0.0073
742.00,0.0073
741.00,0.0074
740.00,0.0074
739.00,0.0074
738.00,0.0074
737.00,0.0075
736.00,0.0075
735.00,0.0075
734.00,0.0076
733.00,0.0077
732.00,0.0077
731.00,0.0078
730.00,0.0079
729.00,0.0080
728.00,0.0080
727.00,0.0081
726.00,0.0082
725.00,0.0083
724.00,0.0084
723.00,0.0085
722.00,0.0086
721.00,0.0088
720.00,0.0088
719.00,0.0089
718.00,0.0090
717.00,0.0091
716.00,0.0091
715.00,0.0092
714.00,0.0093
713.00,0.0094
712.00,0.0094
711.00,0.0095
710.00,0.0097
709.00,0.0099
708.00,0.0100
707.00,0.0101
706.00,0.0103
705.00,0.0105
704.00,0.0106
703.00,0.0107
702.00,0.0109
701.00,0.0110
700.00,0.0111
699.00,0.0111
698.00,0.0112
697.00,0.0112
696.00,0.0112
695.00,0.0112
694.00,0.0112
693.00,0.0113
692.00,0.0112
691.00,0.0112
690.00,0.0112
689.00,0.0113
688.00,0.0112
687.00,0.0112
686.00,0.0113
685.00,0.0113
684.00,0.0113
683.00,0.0113
682.00,0.0114
681.00,0.0115
680.00,0.0115
679.00,0.0115
678.00,0.0116
677.00,0.0116
676.00,0.0116
675.00,0.0117
674.00,0.0118
673.00,0.0118
672.00,0.0118
671.00,0.0119
670.00,0.0121
669.00,0.0122
668.00,0.0121
667.00,0.0119
666.00,0.0118
665.00,0.0118
664.00,0.0118
663.00,0.0118
662.00,0.0118
661.00,0.0119
660.00,0.0119
659.00,0.0119
658.00,0.0120
657.00,0.0121
656.00,0.0121
655.00,0.0120
654.00,0.0120
653.00,0.0120
652.00,0.0120
651.00,0.0120
650.00,0.0121
649.00,0.0122
648.00,0.0121
647.00,0.0121
646.00,0.0122
645.00,0.0123
644.00,0.0123
643.00,0.0124
642.00,0.0125
641.00,0.0126
640.00,0.0126
639.00,0.0126
638.00,0.0126
637.00,0.0127
636.00,0.0128
635.00,0.0128
634.00,0.0130
633.00,0.0131
632.00,0.0131
631.00,0.0131
630.00,0.0132
629.00,0.0133
628.00,0.0132
627.00,0.0132
626.00,0.0132
625.00,0.0133
624.00,0.0132
623.00,0.0132
622.00,0.0133
621.00,0.0133
620.00,0.0132
619.00,0.0131
618.00,0.0131
617.00,0.0131
616.00,0.0130
615.00,0.0130
614.00,0.0130
613.00,0.0131
612.00,0.0130
611.00,0.0130
610.00,0.0130
609.00,0.0130
608.00,0.0129
607.00,0.0128
606.00,0.0128
605.00,0.0129
604.00,0.0128
603.00,0.0127
602.00,0.0127
601.00,0.0128
600.00,0.0127
599.00,0.0127
598.00,0.0128
597.00,0.0129
596.00,0.0128
595.00,0.0127
594.00,0.0127
593.00,0.0127
592.00,0.0126
591.00,0.0126
590.00,0.0127
589.00,0.0128
588.00,0.0127
587.00,0.0127
586.00,0.0128
585.00,0.0129
584.00,0.0128
583.00,0.0128
582.00,0.0129
581.00,0.0130
580.00,0.0129
579.00,0.0129
578.00,0.0130
577.00,0.0130
576.00,0.0129
575.00,0.0129
574.00,0.0131
573.00,0.0132
572.00,0.0131
571.00,0.0130
570.00,0.0131
569.00,0.0132
568.00,0.0132
567.00,0.0131
566.00,0.0133
565.00,0.0133
564.00,0.0132
563.00,0.0132
562.00,0.0133
561.00,0.0134
560.00,0.0133
559.00,0.0133
558.00,0.0134
557.00,0.0135
556.00,0.0135
555.00,0.0135
554.00,0.0136
553.00,0.0137
552.00,0.0137
551.00,0.0137
550.00,0.0138
549.00,0.0139
548.00,0.0138
547.00,0.0137
546.00,0.0139
545.00,0.0141
544.00,0.0141
543.00,0.0141
542.00,0.0143
541.00,0.0144
540.00,0.0143
539.00,0.0143
538.00,0.0146
537.00,0.0148
536.00,0.0147
535.00,0.0146
534.00,0.0148
533.00,0.0150
532.00,0.0149
531.00,0.0148
530.00,0.0150
529.00,0.0151
528.00,0.0150
527.00,0.0150
526.00,0.0151
525.00,0.0152
524.00,0.0151
523.00,0.0150
522.00,0.0152
521.00,0.0153
520.00,0.0152
519.00,0.0151
518.00,0.0152
517.00,0.0154
516.00,0.0152
515.00,0.0151
514.00,0.0153
513.00,0.0154
512.00,0.0152
511.00,0.0151
510.00,0.0153
509.00,0.0154
508.00,0.0153
507.00,0.0152
506.00,0.0153
505.00,0.0154
504.00,0.0152
503.00,0.0150
502.00,0.0151
501.00,0.0152
500.00,0.0150
499.00,0.0150
498.00,0.0152
497.00,0.0153
496.00,0.0151
495.00,0.0150
494.00,0.0152
493.00,0.0154
492.00,0.0153
491.00,0.0152
490.00,0.0154
489.00,0.0155
488.00,0.0154
487.00,0.0153
486.00,0.0154
485.00,0.0155
484.00,0.0153
483.00,0.0152
482.00,0.0153
481.00,0.0154
480.00,0.0152
479.00,0.0150
478.00,0.0153
477.00,0.0155
476.00,0.0153
475.00,0.0151
474.00,0.0153
473.00,0.0155
472.00,0.0153
471.00,0.0154
470.00,0.0158
469.00,0.0161
468.00,0.0158
467.00,0.0156
466.00,0.0159
465.00,0.0160
464.00,0.0157
463.00,0.0155
462.00,0.0157
461.00,0.0158
460.00,0.0155
459.00,0.0152
458.00,0.0155
457.00,0.0158
456.00,0.0155
455.00,0.0153
454.00,0.0156
453.00,0.0158
452.00,0.0155
451.00,0.0152
450.00,0.0152
449.00,0.0151
448.00,0.0145
447.00,0.0141
446.00,0.0143
445.00,0.0147
444.00,0.0145
443.00,0.0143
442.00,0.0145
441.00,0.0146
440.00,0.0141
439.00,0.0136
438.00,0.0136
437.00,0.0136
436.00,0.0132
435.00,0.0130
434.00,0.0133
433.00,0.0133
432.00,0.0127
431.00,0.0122
430.00,0.0125
429.00,0.0128
428.00,0.0125
427.00,0.0121
426.00,0.0124
425.00,0.0125
424.00,0.0118
423.00,0.0111
422.00,0.0114
421.00,0.0117
420.00,0.0111
419.00,0.0105
418.00,0.0112
417.00,0.0119
416.00,0.0114
415.00,0.0111
414.00,0.0115
413.00,0.0117
412.00,0.0110
411.00,0.0107
410.00,0.0115
409.00,0.0119
408.00,0.0109
407.00,0.0100
406.00,0.0106
405.00,0.0113
404.00,0.0107
403.00,0.0101
402.00,0.0108
401.00,0.0115
400.00,0.0107
