PE IR       SUBTECH     SPECTRUM    ASCII       PEDS        4.00        
   -1
4_8_24_benzoic acid post silk.ASC
24/04/08
18:20:23.00
24/04/08
18:20:23.00
Yarger Lab
Sample 094 By YargerLab Date Monday, April 08 2024
400.000000
#HDR
-1
-1
#GR
cm-1
%T
1.0
0.0
4500.000000
-1.000000
4101
8
95.959651
30.882725
#DATA
4500.000000	95.867958
4499.000000	95.865223
4498.000000	95.862427
4497.000000	95.861462
4496.000000	95.862457
4495.000000	95.864664
4494.000000	95.867890
4493.000000	95.871530
4492.000000	95.874360
4491.000000	95.876611
4490.000000	95.880117
4489.000000	95.885202
4488.000000	95.889505
4487.000000	95.891382
4486.000000	95.892615
4485.000000	95.895996
4484.000000	95.901943
4483.000000	95.909053
4482.000000	95.915684
4481.000000	95.919413
4480.000000	95.917260
4479.000000	95.908597
4478.000000	95.896672
4477.000000	95.885767
4476.000000	95.878025
4475.000000	95.874024
4474.000000	95.873852
4473.000000	95.875706
4472.000000	95.875545
4471.000000	95.870346
4470.000000	95.860941
4469.000000	95.850868
4468.000000	95.843736
4467.000000	95.842497
4466.000000	95.848611
4465.000000	95.859869
4464.000000	95.871161
4463.000000	95.879339
4462.000000	95.886073
4461.000000	95.894783
4460.000000	95.906142
4459.000000	95.917700
4458.000000	95.925934
4457.000000	95.927321
4456.000000	95.919913
4455.000000	95.905847
4454.000000	95.890770
4453.000000	95.879418
4452.000000	95.872617
4451.000000	95.869361
4450.000000	95.869303
4449.000000	95.871558
4448.000000	95.873611
4447.000000	95.873601
4446.000000	95.872510
4445.000000	95.872719
4444.000000	95.875505
4443.000000	95.881161
4442.000000	95.889384
4441.000000	95.897873
4440.000000	95.902638
4439.000000	95.901451
4438.000000	95.895830
4437.000000	95.888515
4436.000000	95.880655
4435.000000	95.873045
4434.000000	95.867733
4433.000000	95.866354
4432.000000	95.868307
4431.000000	95.871897
4430.000000	95.876179
4429.000000	95.880249
4428.000000	95.882630
4427.000000	95.883301
4426.000000	95.884593
4425.000000	95.888345
4424.000000	95.893408
4423.000000	95.897070
4422.000000	95.897671
4421.000000	95.894180
4420.000000	95.885487
4419.000000	95.872251
4418.000000	95.858095
4417.000000	95.847167
4416.000000	95.840958
4415.000000	95.838801
4414.000000	95.840063
4413.000000	95.844202
4412.000000	95.850030
4411.000000	95.856215
4410.000000	95.861986
4409.000000	95.866474
4408.000000	95.868604
4407.000000	95.868819
4406.000000	95.869047
4405.000000	95.869684
4404.000000	95.868529
4403.000000	95.864095
4402.000000	95.858486
4401.000000	95.855038
4400.000000	95.854306
4399.000000	95.854009
4398.000000	95.852067
4397.000000	95.847985
4396.000000	95.842182
4395.000000	95.835486
4394.000000	95.828541
4393.000000	95.820977
4392.000000	95.812122
4391.000000	95.803259
4390.000000	95.798021
4389.000000	95.799083
4388.000000	95.805755
4387.000000	95.815564
4386.000000	95.826684
4385.000000	95.837407
4384.000000	95.844818
4383.000000	95.846204
4382.000000	95.841400
4381.000000	95.833109
4380.000000	95.825468
4379.000000	95.822706
4378.000000	95.827293
4377.000000	95.837606
4376.000000	95.848593
4375.000000	95.855852
4374.000000	95.858511
4373.000000	95.857875
4372.000000	95.854895
4371.000000	95.850185
4370.000000	95.844852
4369.000000	95.839915
4368.000000	95.835818
4367.000000	95.833647
4366.000000	95.835398
4365.000000	95.841572
4364.000000	95.849537
4363.000000	95.855513
4362.000000	95.857383
4361.000000	95.854881
4360.000000	95.848604
4359.000000	95.840213
4358.000000	95.832597
4357.000000	95.828026
4356.000000	95.826527
4355.000000	95.826816
4354.000000	95.827999
4353.000000	95.829768
4352.000000	95.831985
4351.000000	95.835079
4350.000000	95.839623
4349.000000	95.844567
4348.000000	95.847050
4347.000000	95.844829
4346.000000	95.838314
4345.000000	95.829656
4344.000000	95.821284
4343.000000	95.815789
4342.000000	95.815371
4341.000000	95.819763
4340.000000	95.825786
4339.000000	95.830328
4338.000000	95.832866
4337.000000	95.834308
4336.000000	95.834704
4335.000000	95.833425
4334.000000	95.830760
4333.000000	95.827983
4332.000000	95.826278
4331.000000	95.826277
4330.000000	95.827631
4329.000000	95.828583
4328.000000	95.827118
4327.000000	95.823576
4326.000000	95.821146
4325.000000	95.822709
4324.000000	95.828059
4323.000000	95.834836
4322.000000	95.840895
4321.000000	95.845106
4320.000000	95.847084
4319.000000	95.847368
4318.000000	95.847010
4317.000000	95.846107
4316.000000	95.843759
4315.000000	95.840197
4314.000000	95.837619
4313.000000	95.837897
4312.000000	95.840386
4311.000000	95.843037
4310.000000	95.844739
4309.000000	95.845689
4308.000000	95.846581
4307.000000	95.848212
4306.000000	95.850851
4305.000000	95.853044
4304.000000	95.852144
4303.000000	95.847318
4302.000000	95.841212
4301.000000	95.837509
4300.000000	95.837524
4299.000000	95.839664
4298.000000	95.841613
4297.000000	95.842185
4296.000000	95.841915
4295.000000	95.842528
4294.000000	95.844947
4293.000000	95.847456
4292.000000	95.847040
4291.000000	95.843133
4290.000000	95.838939
4289.000000	95.837864
4288.000000	95.840007
4287.000000	95.842807
4286.000000	95.844024
4285.000000	95.842998
4284.000000	95.839998
4283.000000	95.835844
4282.000000	95.831519
4281.000000	95.827419
4280.000000	95.823586
4279.000000	95.821177
4278.000000	95.822367
4277.000000	95.827561
4276.000000	95.833592
4275.000000	95.835888
4274.000000	95.832203
4273.000000	95.823841
4272.000000	95.814051
4271.000000	95.806262
4270.000000	95.802708
4269.000000	95.803639
4268.000000	95.807846
4267.000000	95.814175
4266.000000	95.821771
4265.000000	95.828642
4264.000000	95.831588
4263.000000	95.828777
4262.000000	95.821714
4261.000000	95.813704
4260.000000	95.807148
4259.000000	95.802861
4258.000000	95.800844
4257.000000	95.800502
4256.000000	95.800672
4255.000000	95.800557
4254.000000	95.800479
4253.000000	95.801258
4252.000000	95.803616
4251.000000	95.808355
4250.000000	95.816068
4249.000000	95.825663
4248.000000	95.834181
4247.000000	95.839024
4246.000000	95.840004
4245.000000	95.838404
4244.000000	95.835146
4243.000000	95.830539
4242.000000	95.825249
4241.000000	95.820146
4240.000000	95.815693
4239.000000	95.812057
4238.000000	95.809582
4237.000000	95.808486
4236.000000	95.808688
4235.000000	95.810269
4234.000000	95.813362
4233.000000	95.816883
4232.000000	95.818132
4231.000000	95.814775
4230.000000	95.806954
4229.000000	95.797359
4228.000000	95.789476
4227.000000	95.786136
4226.000000	95.788258
4225.000000	95.794173
4224.000000	95.800607
4223.000000	95.805185
4222.000000	95.807664
4221.000000	95.808629
4220.000000	95.807950
4219.000000	95.805361
4218.000000	95.801622
4217.000000	95.798099
4216.000000	95.795702
4215.000000	95.794832
4214.000000	95.795904
4213.000000	95.798698
4212.000000	95.801492
4211.000000	95.801551
4210.000000	95.797004
4209.000000	95.788357
4208.000000	95.778674
4207.000000	95.771763
4206.000000	95.769030
4205.000000	95.767571
4204.000000	95.762497
4203.000000	95.752086
4202.000000	95.740048
4201.000000	95.732215
4200.000000	95.731399
4199.000000	95.735898
4198.000000	95.741876
4197.000000	95.746395
4196.000000	95.748824
4195.000000	95.750523
4194.000000	95.753397
4193.000000	95.758084
4192.000000	95.763556
4191.000000	95.768121
4190.000000	95.770346
4189.000000	95.769123
4188.000000	95.764235
4187.000000	95.757726
4186.000000	95.753708
4185.000000	95.755568
4184.000000	95.763211
4183.000000	95.773407
4182.000000	95.782483
4181.000000	95.788397
4180.000000	95.791157
4179.000000	95.792163
4178.000000	95.793257
4177.000000	95.795450
4176.000000	95.798467
4175.000000	95.801239
4174.000000	95.802646
4173.000000	95.801931
4172.000000	95.799041
4171.000000	95.795046
4170.000000	95.791382
4169.000000	95.788462
4168.000000	95.785328
4167.000000	95.781052
4166.000000	95.776068
4165.000000	95.771806
4164.000000	95.769741
4163.000000	95.770731
4162.000000	95.774659
4161.000000	95.780177
4160.000000	95.785430
4159.000000	95.789646
4158.000000	95.793487
4157.000000	95.797734
4156.000000	95.802091
4155.000000	95.805615
4154.000000	95.807544
4153.000000	95.807201
4152.000000	95.803990
4151.000000	95.798214
4150.000000	95.791563
4149.000000	95.786268
4148.000000	95.783826
4147.000000	95.784825
4146.000000	95.788986
4145.000000	95.794715
4144.000000	95.799076
4143.000000	95.799146
4142.000000	95.793922
4141.000000	95.784761
4140.000000	95.774448
4139.000000	95.765848
4138.000000	95.760610
4137.000000	95.758546
4136.000000	95.758197
4135.000000	95.758503
4134.000000	95.759641
4133.000000	95.762002
4132.000000	95.764944
4131.000000	95.767100
4130.000000	95.767870
4129.000000	95.768385
4128.000000	95.770671
4127.000000	95.775898
4126.000000	95.782890
4125.000000	95.788785
4124.000000	95.791807
4123.000000	95.793317
4122.000000	95.796406
4121.000000	95.801814
4120.000000	95.806308
4119.000000	95.805643
4118.000000	95.798835
4117.000000	95.788919
4116.000000	95.780184
4115.000000	95.775005
4114.000000	95.773268
4113.000000	95.773685
4112.000000	95.775349
4111.000000	95.778233
4110.000000	95.782132
4109.000000	95.785630
4108.000000	95.786489
4107.000000	95.783702
4106.000000	95.778925
4105.000000	95.775363
4104.000000	95.774989
4103.000000	95.776589
4102.000000	95.776162
4101.000000	95.769680
4100.000000	95.756039
4099.000000	95.737911
4098.000000	95.719475
4097.000000	95.702774
4096.000000	95.686428
4095.000000	95.667438
4094.000000	95.643925
4093.000000	95.616324
4092.000000	95.587138
4091.000000	95.560187
4090.000000	95.539702
4089.000000	95.528877
4088.000000	95.528727
4087.000000	95.538034
4086.000000	95.553926
4085.000000	95.572961
4084.000000	95.592370
4083.000000	95.610761
4082.000000	95.627390
4081.000000	95.640335
4080.000000	95.646184
4079.000000	95.642419
4078.000000	95.630318
4077.000000	95.614967
4076.000000	95.602175
4075.000000	95.594933
4074.000000	95.592277
4073.000000	95.591141
4072.000000	95.588796
4071.000000	95.583879
4070.000000	95.575287
4069.000000	95.560756
4068.000000	95.537461
4067.000000	95.504294
4066.000000	95.463685
4065.000000	95.421188
4064.000000	95.383304
4063.000000	95.354961
4062.000000	95.338149
4061.000000	95.332213
4060.000000	95.335692
4059.000000	95.348302
4058.000000	95.370935
4057.000000	95.403949
4056.000000	95.445330
4055.000000	95.490491
4054.000000	95.533442
4053.000000	95.568653
4052.000000	95.593099
4051.000000	95.607620
4050.000000	95.616301
4049.000000	95.623702
4048.000000	95.632347
4047.000000	95.642351
4046.000000	95.652963
4045.000000	95.663732
4044.000000	95.674268
4043.000000	95.683578
4042.000000	95.690153
4041.000000	95.693124
4040.000000	95.693338
4039.000000	95.693085
4038.000000	95.694604
4037.000000	95.698580
4036.000000	95.704033
4035.000000	95.709377
4034.000000	95.713242
4033.000000	95.714646
4032.000000	95.713340
4031.000000	95.710640
4030.000000	95.709326
4029.000000	95.711771
4028.000000	95.717684
4027.000000	95.724166
4026.000000	95.728238
4025.000000	95.729286
4024.000000	95.728954
4023.000000	95.728996
4022.000000	95.729859
4021.000000	95.731018
4020.000000	95.731907
4019.000000	95.732095
4018.000000	95.730934
4017.000000	95.727693
4016.000000	95.722085
4015.000000	95.714204
4014.000000	95.703845
4013.000000	95.690703
4012.000000	95.675829
4011.000000	95.662362
4010.000000	95.653780
4009.000000	95.650862
4008.000000	95.650619
4007.000000	95.649066
4006.000000	95.645175
4005.000000	95.642048
4004.000000	95.644175
4003.000000	95.653239
4002.000000	95.666499
4001.000000	95.678902
4000.000000	95.686707
3999.000000	95.689768
3998.000000	95.690871
3997.000000	95.693413
3996.000000	95.699278
3995.000000	95.708070
3994.000000	95.717764
3993.000000	95.725975
3992.000000	95.731234
3991.000000	95.733437
3990.000000	95.733389
3989.000000	95.732015
3988.000000	95.729893
3987.000000	95.727514
3986.000000	95.725654
3985.000000	95.725145
3984.000000	95.726068
3983.000000	95.727312
3982.000000	95.727289
3981.000000	95.725315
3980.000000	95.722306
3979.000000	95.720052
3978.000000	95.719929
3977.000000	95.722167
3976.000000	95.726026
3975.000000	95.730504
3974.000000	95.735060
3973.000000	95.739830
3972.000000	95.744867
3971.000000	95.749077
3970.000000	95.750416
3969.000000	95.747757
3968.000000	95.742347
3967.000000	95.736963
3966.000000	95.733702
3965.000000	95.732739
3964.000000	95.733104
3963.000000	95.733927
3962.000000	95.734675
3961.000000	95.734774
3960.000000	95.733640
3959.000000	95.731120
3958.000000	95.727838
3957.000000	95.725028
3956.000000	95.723911
3955.000000	95.725062
3954.000000	95.728255
3953.000000	95.732728
3952.000000	95.737440
3951.000000	95.741096
3950.000000	95.742293
3949.000000	95.740129
3948.000000	95.734877
3947.000000	95.728082
3946.000000	95.721819
3945.000000	95.717598
3944.000000	95.715749
3943.000000	95.715603
3942.000000	95.716193
3941.000000	95.716929
3940.000000	95.717956
3939.000000	95.719812
3938.000000	95.722478
3937.000000	95.724905
3936.000000	95.725556
3935.000000	95.723660
3934.000000	95.720281
3933.000000	95.718101
3932.000000	95.719653
3931.000000	95.724723
3930.000000	95.729753
3929.000000	95.730258
3928.000000	95.724002
3927.000000	95.712829
3926.000000	95.701908
3925.000000	95.696926
3924.000000	95.700493
3923.000000	95.710026
3922.000000	95.719810
3921.000000	95.725853
3920.000000	95.728530
3919.000000	95.730894
3918.000000	95.734859
3917.000000	95.739107
3916.000000	95.740509
3915.000000	95.737045
3914.000000	95.729733
3913.000000	95.722139
3912.000000	95.717949
3911.000000	95.718083
3910.000000	95.720490
3909.000000	95.723072
3908.000000	95.726042
3907.000000	95.730600
3906.000000	95.736302
3905.000000	95.740886
3904.000000	95.743105
3903.000000	95.743890
3902.000000	95.744020
3901.000000	95.742813
3900.000000	95.739762
3899.000000	95.736439
3898.000000	95.735539
3897.000000	95.738109
3896.000000	95.742586
3895.000000	95.745640
3894.000000	95.743451
3893.000000	95.734830
3892.000000	95.724034
3891.000000	95.718064
3890.000000	95.719512
3889.000000	95.724044
3888.000000	95.725291
3887.000000	95.720632
3886.000000	95.714161
3885.000000	95.712849
3884.000000	95.717880
3883.000000	95.723515
3882.000000	95.724637
3881.000000	95.722255
3880.000000	95.721303
3879.000000	95.723867
3878.000000	95.726836
3877.000000	95.726911
3876.000000	95.724480
3875.000000	95.722320
3874.000000	95.722438
3873.000000	95.723863
3872.000000	95.723041
3871.000000	95.717627
3870.000000	95.710288
3869.000000	95.705986
3868.000000	95.705124
3867.000000	95.703270
3866.000000	95.697918
3865.000000	95.692779
3864.000000	95.694712
3863.000000	95.705170
3862.000000	95.717526
3861.000000	95.724219
3860.000000	95.723814
3859.000000	95.721189
3858.000000	95.722929
3857.000000	95.731342
3856.000000	95.741002
3855.000000	95.741820
3854.000000	95.731925
3853.000000	95.722992
3852.000000	95.722425
3851.000000	95.724433
3850.000000	95.724097
3849.000000	95.722883
3848.000000	95.723045
3847.000000	95.724901
3846.000000	95.727021
3845.000000	95.728058
3844.000000	95.728090
3843.000000	95.727873
3842.000000	95.728161
3841.000000	95.729440
3840.000000	95.731664
3839.000000	95.734421
3838.000000	95.737502
3837.000000	95.740920
3836.000000	95.744455
3835.000000	95.746914
3834.000000	95.746896
3833.000000	95.744211
3832.000000	95.740585
3831.000000	95.737739
3830.000000	95.734776
3829.000000	95.729828
3828.000000	95.724144
3827.000000	95.722215
3826.000000	95.727442
3825.000000	95.737941
3824.000000	95.746549
3823.000000	95.745852
3822.000000	95.737251
3821.000000	95.732896
3820.000000	95.742408
3819.000000	95.760342
3818.000000	95.772518
3817.000000	95.770557
3816.000000	95.759262
3815.000000	95.751580
3814.000000	95.753632
3813.000000	95.761246
3812.000000	95.769332
3811.000000	95.776921
3810.000000	95.783846
3809.000000	95.787288
3808.000000	95.783334
3807.000000	95.771956
3806.000000	95.758269
3805.000000	95.747454
3804.000000	95.740528
3803.000000	95.734899
3802.000000	95.728551
3801.000000	95.724222
3800.000000	95.725552
3799.000000	95.730873
3798.000000	95.736891
3797.000000	95.744024
3796.000000	95.755199
3795.000000	95.770708
3794.000000	95.785282
3793.000000	95.792195
3792.000000	95.789773
3791.000000	95.782165
3790.000000	95.774640
3789.000000	95.769859
3788.000000	95.767618
3787.000000	95.766518
3786.000000	95.765182
3785.000000	95.763129
3784.000000	95.760922
3783.000000	95.759229
3782.000000	95.758018
3781.000000	95.757657
3780.000000	95.759955
3779.000000	95.766293
3778.000000	95.775057
3777.000000	95.782735
3776.000000	95.787707
3775.000000	95.791073
3774.000000	95.794096
3773.000000	95.795769
3772.000000	95.793582
3771.000000	95.786871
3770.000000	95.779333
3769.000000	95.776126
3768.000000	95.778441
3767.000000	95.782914
3766.000000	95.785552
3765.000000	95.784731
3764.000000	95.780880
3763.000000	95.774595
3762.000000	95.766611
3761.000000	95.759916
3760.000000	95.759156
3759.000000	95.766116
3758.000000	95.776757
3757.000000	95.785301
3756.000000	95.789253
3755.000000	95.788046
3754.000000	95.780758
3753.000000	95.767504
3752.000000	95.751777
3751.000000	95.738404
3750.000000	95.729302
3749.000000	95.725036
3748.000000	95.728765
3747.000000	95.742248
3746.000000	95.758594
3745.000000	95.767960
3744.000000	95.770060
3743.000000	95.769495
3742.000000	95.766130
3741.000000	95.760994
3740.000000	95.758457
3739.000000	95.759669
3738.000000	95.760250
3737.000000	95.755901
3736.000000	95.750169
3735.000000	95.751220
3734.000000	95.760210
3733.000000	95.768611
3732.000000	95.768325
3731.000000	95.758954
3730.000000	95.744550
3729.000000	95.729097
3728.000000	95.715523
3727.000000	95.706022
3726.000000	95.701112
3725.000000	95.699255
3724.000000	95.699508
3723.000000	95.704161
3722.000000	95.716568
3721.000000	95.736148
3720.000000	95.757694
3719.000000	95.775192
3718.000000	95.785077
3717.000000	95.787189
3716.000000	95.783547
3715.000000	95.775127
3714.000000	95.761328
3713.000000	95.743615
3712.000000	95.727897
3711.000000	95.719831
3710.000000	95.718148
3709.000000	95.717965
3708.000000	95.718037
3707.000000	95.721287
3706.000000	95.730168
3705.000000	95.743871
3704.000000	95.759523
3703.000000	95.774485
3702.000000	95.787422
3701.000000	95.797627
3700.000000	95.804255
3699.000000	95.806736
3698.000000	95.806061
3697.000000	95.804973
3696.000000	95.806585
3695.000000	95.811171
3694.000000	95.815549
3693.000000	95.817078
3692.000000	95.816733
3691.000000	95.816784
3690.000000	95.817461
3689.000000	95.818327
3688.000000	95.820241
3687.000000	95.823436
3686.000000	95.826402
3685.000000	95.827561
3684.000000	95.826162
3683.000000	95.822254
3682.000000	95.816040
3681.000000	95.808393
3680.000000	95.801709
3679.000000	95.797708
3678.000000	95.793555
3677.000000	95.783591
3676.000000	95.769374
3675.000000	95.760952
3674.000000	95.761280
3673.000000	95.761548
3672.000000	95.754331
3671.000000	95.740521
3670.000000	95.727501
3669.000000	95.722133
3668.000000	95.721926
3667.000000	95.719106
3666.000000	95.710682
3665.000000	95.700049
3664.000000	95.693458
3663.000000	95.695812
3662.000000	95.707438
3661.000000	95.724486
3660.000000	95.741802
3659.000000	95.754620
3658.000000	95.759360
3657.000000	95.756354
3656.000000	95.751090
3655.000000	95.748855
3654.000000	95.749373
3653.000000	95.748659
3652.000000	95.743729
3651.000000	95.736625
3650.000000	95.735741
3649.000000	95.749574
3648.000000	95.776437
3647.000000	95.804781
3646.000000	95.823721
3645.000000	95.830338
3644.000000	95.829374
3643.000000	95.828499
3642.000000	95.832759
3641.000000	95.841682
3640.000000	95.850752
3639.000000	95.855794
3638.000000	95.856265
3637.000000	95.854487
3636.000000	95.852494
3635.000000	95.850412
3634.000000	95.847960
3633.000000	95.846010
3632.000000	95.844913
3631.000000	95.842434
3630.000000	95.837110
3629.000000	95.833951
3628.000000	95.838581
3627.000000	95.846031
3626.000000	95.847595
3625.000000	95.843591
3624.000000	95.841579
3623.000000	95.847759
3622.000000	95.861341
3621.000000	95.874979
3620.000000	95.881543
3619.000000	95.880232
3618.000000	95.874909
3617.000000	95.869279
3616.000000	95.865337
3615.000000	95.863069
3614.000000	95.860886
3613.000000	95.858126
3612.000000	95.855975
3611.000000	95.855279
3610.000000	95.855347
3609.000000	95.856289
3608.000000	95.860013
3607.000000	95.866707
3606.000000	95.872390
3605.000000	95.872856
3604.000000	95.868692
3603.000000	95.864620
3602.000000	95.864460
3601.000000	95.868034
3600.000000	95.873079
3599.000000	95.878353
3598.000000	95.883846
3597.000000	95.889417
3596.000000	95.894147
3595.000000	95.896870
3594.000000	95.897814
3593.000000	95.898650
3592.000000	95.899855
3591.000000	95.898926
3590.000000	95.892305
3589.000000	95.880784
3588.000000	95.872236
3587.000000	95.874346
3586.000000	95.885402
3585.000000	95.896974
3584.000000	95.903354
3583.000000	95.903968
3582.000000	95.900114
3581.000000	95.893887
3580.000000	95.889552
3579.000000	95.891816
3578.000000	95.901548
3577.000000	95.914088
3576.000000	95.922742
3575.000000	95.923660
3574.000000	95.918198
3573.000000	95.911280
3572.000000	95.906684
3571.000000	95.903248
3570.000000	95.895982
3569.000000	95.882171
3568.000000	95.866523
3567.000000	95.857908
3566.000000	95.860119
3565.000000	95.869383
3564.000000	95.880269
3563.000000	95.889656
3562.000000	95.895966
3561.000000	95.899080
3560.000000	95.901173
3559.000000	95.904636
3558.000000	95.908943
3557.000000	95.911248
3556.000000	95.910262
3555.000000	95.908062
3554.000000	95.908000
3553.000000	95.911872
3552.000000	95.918498
3551.000000	95.923981
3550.000000	95.924234
3549.000000	95.918749
3548.000000	95.911878
3547.000000	95.909620
3546.000000	95.914924
3545.000000	95.926452
3544.000000	95.940578
3543.000000	95.952985
3542.000000	95.959651
3541.000000	95.958905
3540.000000	95.952888
3539.000000	95.945651
3538.000000	95.939826
3537.000000	95.935822
3536.000000	95.933036
3535.000000	95.930143
3534.000000	95.925250
3533.000000	95.917715
3532.000000	95.909770
3531.000000	95.904882
3530.000000	95.904640
3529.000000	95.908427
3528.000000	95.915216
3527.000000	95.924018
3526.000000	95.932958
3525.000000	95.939523
3524.000000	95.941780
3523.000000	95.938870
3522.000000	95.931638
3521.000000	95.923903
3520.000000	95.921172
3519.000000	95.925616
3518.000000	95.933014
3517.000000	95.936826
3516.000000	95.934698
3515.000000	95.929295
3514.000000	95.923959
3513.000000	95.920157
3512.000000	95.918636
3511.000000	95.920184
3510.000000	95.924408
3509.000000	95.929512
3508.000000	95.933859
3507.000000	95.936543
3506.000000	95.936708
3505.000000	95.934050
3504.000000	95.930033
3503.000000	95.927019
3502.000000	95.925904
3501.000000	95.925783
3500.000000	95.925685
3499.000000	95.924965
3498.000000	95.922454
3497.000000	95.917357
3496.000000	95.911205
3495.000000	95.907345
3494.000000	95.908120
3493.000000	95.913376
3492.000000	95.921001
3491.000000	95.927783
3490.000000	95.930692
3489.000000	95.929091
3488.000000	95.925497
3487.000000	95.922784
3486.000000	95.921152
3485.000000	95.919199
3484.000000	95.917004
3483.000000	95.916118
3482.000000	95.917008
3481.000000	95.918499
3480.000000	95.919545
3479.000000	95.919830
3478.000000	95.918844
3477.000000	95.916065
3476.000000	95.912161
3475.000000	95.908728
3474.000000	95.906814
3473.000000	95.906501
3472.000000	95.907357
3471.000000	95.908375
3470.000000	95.908516
3469.000000	95.908592
3468.000000	95.911230
3467.000000	95.917119
3466.000000	95.922385
3465.000000	95.922135
3464.000000	95.916184
3463.000000	95.909036
3462.000000	95.904603
3461.000000	95.902997
3460.000000	95.902284
3459.000000	95.901108
3458.000000	95.899234
3457.000000	95.897275
3456.000000	95.896314
3455.000000	95.896677
3454.000000	95.897067
3453.000000	95.895733
3452.000000	95.892116
3451.000000	95.886447
3450.000000	95.878888
3449.000000	95.870592
3448.000000	95.864427
3447.000000	95.862366
3446.000000	95.862706
3445.000000	95.861922
3444.000000	95.858682
3443.000000	95.854063
3442.000000	95.848915
3441.000000	95.843763
3440.000000	95.840680
3439.000000	95.842026
3438.000000	95.846726
3437.000000	95.850306
3436.000000	95.849482
3435.000000	95.845004
3434.000000	95.839390
3433.000000	95.833750
3432.000000	95.827831
3431.000000	95.821651
3430.000000	95.815981
3429.000000	95.811891
3428.000000	95.810219
3427.000000	95.810699
3426.000000	95.811343
3425.000000	95.809404
3424.000000	95.803281
3423.000000	95.793462
3422.000000	95.782196
3421.000000	95.772566
3420.000000	95.766725
3419.000000	95.764044
3418.000000	95.761716
3417.000000	95.757930
3416.000000	95.753512
3415.000000	95.749906
3414.000000	95.747230
3413.000000	95.745545
3412.000000	95.746015
3411.000000	95.748499
3410.000000	95.749249
3409.000000	95.743821
3408.000000	95.732161
3407.000000	95.719226
3406.000000	95.711209
3405.000000	95.712515
3404.000000	95.724536
3403.000000	95.743651
3402.000000	95.760572
3401.000000	95.765174
3400.000000	95.753975
3399.000000	95.732162
3398.000000	95.708778
3397.000000	95.691316
3396.000000	95.683597
3395.000000	95.685050
3394.000000	95.690294
3393.000000	95.691391
3392.000000	95.682633
3391.000000	95.663709
3390.000000	95.638619
3389.000000	95.612201
3388.000000	95.587393
3387.000000	95.564644
3386.000000	95.543782
3385.000000	95.526604
3384.000000	95.516464
3383.000000	95.514175
3382.000000	95.515631
3381.000000	95.515237
3380.000000	95.510791
3379.000000	95.503321
3378.000000	95.493293
3377.000000	95.480023
3376.000000	95.465587
3375.000000	95.456993
3374.000000	95.462781
3373.000000	95.486828
3372.000000	95.524226
3371.000000	95.562038
3370.000000	95.585160
3369.000000	95.583957
3368.000000	95.558064
3367.000000	95.514481
3366.000000	95.463944
3365.000000	95.418789
3364.000000	95.389371
3363.000000	95.377553
3362.000000	95.374015
3361.000000	95.365577
3360.000000	95.346382
3359.000000	95.320674
3358.000000	95.295846
3357.000000	95.276305
3356.000000	95.264693
3355.000000	95.264930
3354.000000	95.280022
3353.000000	95.306336
3352.000000	95.331430
3351.000000	95.339505
3350.000000	95.321636
3349.000000	95.283085
3348.000000	95.240613
3347.000000	95.210665
3346.000000	95.198322
3345.000000	95.196889
3344.000000	95.197182
3343.000000	95.196383
3342.000000	95.198010
3341.000000	95.204260
3340.000000	95.209683
3339.000000	95.203782
3338.000000	95.180659
3337.000000	95.145068
3336.000000	95.107278
3335.000000	95.073178
3334.000000	95.041876
3333.000000	95.012283
3332.000000	94.988045
3331.000000	94.974512
3330.000000	94.973589
3329.000000	94.982983
3328.000000	94.997252
3327.000000	95.007359
3326.000000	95.002945
3325.000000	94.979537
3324.000000	94.943081
3323.000000	94.905074
3322.000000	94.873956
3321.000000	94.852285
3320.000000	94.839218
3319.000000	94.832074
3318.000000	94.826987
3317.000000	94.821556
3316.000000	94.816727
3315.000000	94.814209
3314.000000	94.813290
3313.000000	94.812845
3312.000000	94.814765
3311.000000	94.822081
3310.000000	94.834427
3309.000000	94.847995
3308.000000	94.858736
3307.000000	94.862703
3306.000000	94.854625
3305.000000	94.830827
3304.000000	94.794548
3303.000000	94.755110
3302.000000	94.721330
3301.000000	94.697527
3300.000000	94.684927
3299.000000	94.683062
3298.000000	94.688676
3297.000000	94.696278
3296.000000	94.701423
3295.000000	94.702055
3294.000000	94.696485
3293.000000	94.682354
3292.000000	94.658786
3291.000000	94.628235
3290.000000	94.595354
3289.000000	94.564820
3288.000000	94.539629
3287.000000	94.519790
3286.000000	94.502835
3285.000000	94.487184
3284.000000	94.474620
3283.000000	94.467844
3282.000000	94.466100
3281.000000	94.465282
3280.000000	94.462512
3279.000000	94.458419
3278.000000	94.454685
3277.000000	94.451323
3276.000000	94.446916
3275.000000	94.440018
3274.000000	94.429628
3273.000000	94.415252
3272.000000	94.396991
3271.000000	94.375171
3270.000000	94.349943
3269.000000	94.321778
3268.000000	94.291867
3267.000000	94.261529
3266.000000	94.232175
3265.000000	94.206101
3264.000000	94.185421
3263.000000	94.168635
3262.000000	94.150063
3261.000000	94.125097
3260.000000	94.095251
3259.000000	94.066232
3258.000000	94.041522
3257.000000	94.019724
3256.000000	93.997506
3255.000000	93.973052
3254.000000	93.946914
3253.000000	93.920978
3252.000000	93.896495
3251.000000	93.872261
3250.000000	93.845308
3249.000000	93.814298
3248.000000	93.781165
3247.000000	93.748273
3246.000000	93.715635
3245.000000	93.682250
3244.000000	93.648486
3243.000000	93.615126
3242.000000	93.581611
3241.000000	93.547630
3240.000000	93.515397
3239.000000	93.488195
3238.000000	93.467132
3237.000000	93.450863
3236.000000	93.436877
3235.000000	93.421232
3234.000000	93.399102
3233.000000	93.368916
3232.000000	93.335323
3231.000000	93.305361
3230.000000	93.281758
3229.000000	93.261893
3228.000000	93.242163
3227.000000	93.220763
3226.000000	93.197003
3225.000000	93.170838
3224.000000	93.143488
3223.000000	93.116633
3222.000000	93.090829
3221.000000	93.065705
3220.000000	93.040770
3219.000000	93.014417
3218.000000	92.983553
3217.000000	92.946434
3216.000000	92.905020
3215.000000	92.862678
3214.000000	92.820467
3213.000000	92.777748
3212.000000	92.735163
3211.000000	92.694354
3210.000000	92.655489
3209.000000	92.617565
3208.000000	92.580730
3207.000000	92.546118
3206.000000	92.513879
3205.000000	92.483334
3204.000000	92.454525
3203.000000	92.427581
3202.000000	92.401304
3201.000000	92.374470
3200.000000	92.347850
3199.000000	92.323317
3198.000000	92.301746
3197.000000	92.283218
3196.000000	92.267548
3195.000000	92.252389
3194.000000	92.232831
3193.000000	92.205990
3192.000000	92.174922
3191.000000	92.145058
3190.000000	92.117840
3189.000000	92.090890
3188.000000	92.062951
3187.000000	92.034816
3186.000000	92.005775
3185.000000	91.973568
3184.000000	91.938614
3183.000000	91.904879
3182.000000	91.875252
3181.000000	91.848345
3180.000000	91.820795
3179.000000	91.790558
3178.000000	91.757207
3177.000000	91.720780
3176.000000	91.681033
3175.000000	91.636947
3174.000000	91.587065
3173.000000	91.531571
3172.000000	91.473515
3171.000000	91.416239
3170.000000	91.360303
3169.000000	91.305050
3168.000000	91.252816
3167.000000	91.209098
3166.000000	91.178093
3165.000000	91.159110
3164.000000	91.146975
3163.000000	91.134833
3162.000000	91.117139
3161.000000	91.092226
3160.000000	91.062170
3159.000000	91.029797
3158.000000	90.996907
3157.000000	90.965877
3156.000000	90.940003
3155.000000	90.919137
3154.000000	90.896713
3153.000000	90.864701
3152.000000	90.821632
3151.000000	90.773139
3150.000000	90.725274
3149.000000	90.680048
3148.000000	90.637000
3147.000000	90.595837
3146.000000	90.556790
3145.000000	90.520580
3144.000000	90.488424
3143.000000	90.460337
3142.000000	90.433356
3141.000000	90.403073
3140.000000	90.366816
3139.000000	90.324042
3138.000000	90.274561
3137.000000	90.218846
3136.000000	90.159738
3135.000000	90.101380
3134.000000	90.045985
3133.000000	89.992853
3132.000000	89.940283
3131.000000	89.887115
3130.000000	89.833086
3129.000000	89.779356
3128.000000	89.727831
3127.000000	89.678128
3126.000000	89.626064
3125.000000	89.567452
3124.000000	89.503135
3123.000000	89.438372
3122.000000	89.377693
3121.000000	89.322049
3120.000000	89.269900
3119.000000	89.218702
3118.000000	89.165594
3117.000000	89.108955
3116.000000	89.049424
3115.000000	88.988111
3114.000000	88.924693
3113.000000	88.858816
3112.000000	88.792077
3111.000000	88.726319
3110.000000	88.660819
3109.000000	88.593714
3108.000000	88.525676
3107.000000	88.459822
3106.000000	88.398164
3105.000000	88.339935
3104.000000	88.282829
3103.000000	88.223798
3102.000000	88.159287
3101.000000	88.087010
3100.000000	88.007320
3099.000000	87.921527
3098.000000	87.830081
3097.000000	87.734629
3096.000000	87.640778
3095.000000	87.556099
3094.000000	87.485536
3093.000000	87.430076
3092.000000	87.387977
3091.000000	87.354250
3090.000000	87.320479
3089.000000	87.279077
3088.000000	87.228267
3087.000000	87.170448
3086.000000	87.106270
3085.000000	87.032876
3084.000000	86.946834
3083.000000	86.845015
3082.000000	86.719754
3081.000000	86.555349
3080.000000	86.327365
3079.000000	86.004525
3078.000000	85.557999
3077.000000	84.980236
3076.000000	84.306626
3075.000000	83.618337
3074.000000	83.019455
3073.000000	82.598804
3072.000000	82.400135
3071.000000	82.411690
3070.000000	82.578529
3069.000000	82.827703
3068.000000	83.091030
3067.000000	83.320867
3066.000000	83.494874
3065.000000	83.615127
3064.000000	83.702545
3063.000000	83.785325
3062.000000	83.886721
3061.000000	84.017498
3060.000000	84.175105
3059.000000	84.347113
3058.000000	84.517167
3057.000000	84.671684
3056.000000	84.803778
3055.000000	84.911773
3054.000000	84.995364
3053.000000	85.055403
3052.000000	85.095701
3051.000000	85.121986
3050.000000	85.138449
3049.000000	85.146228
3048.000000	85.145583
3047.000000	85.136749
3046.000000	85.118518
3045.000000	85.088015
3044.000000	85.042599
3043.000000	84.982041
3042.000000	84.908658
3041.000000	84.826628
3040.000000	84.740829
3039.000000	84.654578
3038.000000	84.568596
3037.000000	84.482862
3036.000000	84.399100
3035.000000	84.320068
3034.000000	84.246469
3033.000000	84.175775
3032.000000	84.103947
3031.000000	84.027669
3030.000000	83.945857
3029.000000	83.860490
3028.000000	83.775529
3027.000000	83.693707
3026.000000	83.614604
3025.000000	83.536539
3024.000000	83.459178
3023.000000	83.382945
3022.000000	83.307194
3021.000000	83.231238
3020.000000	83.156587
3019.000000	83.086046
3018.000000	83.020500
3017.000000	82.958183
3016.000000	82.897078
3015.000000	82.836682
3014.000000	82.777876
3013.000000	82.722670
3012.000000	82.673919
3011.000000	82.633804
3010.000000	82.602059
3009.000000	82.576221
3008.000000	82.553062
3007.000000	82.529321
3006.000000	82.502403
3005.000000	82.471797
3004.000000	82.439248
3003.000000	82.406538
3002.000000	82.373941
3001.000000	82.341802
3000.000000	82.312219
2999.000000	82.287584
2998.000000	82.268579
2997.000000	82.255008
2996.000000	82.247530
2995.000000	82.246818
2994.000000	82.252030
2993.000000	82.261793
2992.000000	82.275557
2991.000000	82.292247
2990.000000	82.308531
2989.000000	82.320226
2988.000000	82.324195
2987.000000	82.317189
2986.000000	82.294660
2985.000000	82.254519
2984.000000	82.202434
2983.000000	82.151403
2982.000000	82.115316
2981.000000	82.102603
2980.000000	82.113356
2979.000000	82.139195
2978.000000	82.167221
2977.000000	82.187865
2976.000000	82.200635
2975.000000	82.211031
2974.000000	82.222516
2973.000000	82.233367
2972.000000	82.240636
2971.000000	82.244508
2970.000000	82.248043
2969.000000	82.254501
2968.000000	82.265272
2967.000000	82.279115
2966.000000	82.293333
2965.000000	82.306570
2964.000000	82.319893
2963.000000	82.334077
2962.000000	82.347125
2961.000000	82.356312
2960.000000	82.361554
2959.000000	82.364664
2958.000000	82.366168
2957.000000	82.365194
2956.000000	82.361682
2955.000000	82.356182
2954.000000	82.348029
2953.000000	82.336204
2952.000000	82.321943
2951.000000	82.308289
2950.000000	82.297418
2949.000000	82.290401
2948.000000	82.289344
2947.000000	82.297670
2946.000000	82.318315
2945.000000	82.353258
2944.000000	82.403596
2943.000000	82.467872
2942.000000	82.540803
2941.000000	82.616177
2940.000000	82.690933
2939.000000	82.764687
2938.000000	82.836672
2937.000000	82.905864
2936.000000	82.973203
2935.000000	83.040122
2934.000000	83.105075
2933.000000	83.164879
2932.000000	83.219322
2931.000000	83.270778
2930.000000	83.318362
2929.000000	83.356033
2928.000000	83.378082
2927.000000	83.384003
2926.000000	83.377101
2925.000000	83.360892
2924.000000	83.338339
2923.000000	83.312085
2922.000000	83.283067
2921.000000	83.249901
2920.000000	83.210826
2919.000000	83.165790
2918.000000	83.115943
2917.000000	83.061970
2916.000000	83.003650
2915.000000	82.940475
2914.000000	82.872490
2913.000000	82.800736
2912.000000	82.726692
2911.000000	82.651129
2910.000000	82.574212
2909.000000	82.497271
2908.000000	82.423224
2907.000000	82.354107
2906.000000	82.288918
2905.000000	82.224832
2904.000000	82.159531
2903.000000	82.091356
2902.000000	82.018392
2901.000000	81.939247
2900.000000	81.854196
2899.000000	81.764416
2898.000000	81.671149
2897.000000	81.576375
2896.000000	81.482971
2895.000000	81.392367
2894.000000	81.303137
2893.000000	81.213532
2892.000000	81.124626
2891.000000	81.039660
2890.000000	80.961232
2889.000000	80.890562
2888.000000	80.828066
2887.000000	80.772927
2886.000000	80.723300
2885.000000	80.678753
2884.000000	80.641439
2883.000000	80.612946
2882.000000	80.591138
2881.000000	80.571867
2880.000000	80.552631
2879.000000	80.532612
2878.000000	80.510878
2877.000000	80.487530
2876.000000	80.465794
2875.000000	80.450206
2874.000000	80.443103
2873.000000	80.444743
2872.000000	80.455582
2871.000000	80.475607
2870.000000	80.502517
2869.000000	80.534199
2868.000000	80.572772
2867.000000	80.622777
2866.000000	80.684553
2865.000000	80.751916
2864.000000	80.816335
2863.000000	80.870677
2862.000000	80.909029
2861.000000	80.925916
2860.000000	80.917522
2859.000000	80.882147
2858.000000	80.819379
2857.000000	80.730943
2856.000000	80.622114
2855.000000	80.500093
2854.000000	80.370997
2853.000000	80.240017
2852.000000	80.112783
2851.000000	79.992689
2850.000000	79.876596
2849.000000	79.756916
2848.000000	79.629465
2847.000000	79.496989
2846.000000	79.365094
2845.000000	79.237793
2844.000000	79.117993
2843.000000	79.009002
2842.000000	78.912560
2841.000000	78.826509
2840.000000	78.746196
2839.000000	78.667981
2838.000000	78.591044
2837.000000	78.516985
2836.000000	78.448587
2835.000000	78.388205
2834.000000	78.336669
2833.000000	78.293951
2832.000000	78.260423
2831.000000	78.236328
2830.000000	78.220524
2829.000000	78.211460
2828.000000	78.209567
2827.000000	78.217062
2826.000000	78.234880
2825.000000	78.261273
2824.000000	78.293764
2823.000000	78.330960
2822.000000	78.372006
2821.000000	78.415787
2820.000000	78.461872
2819.000000	78.511419
2818.000000	78.566242
2817.000000	78.627413
2816.000000	78.694804
2815.000000	78.767373
2814.000000	78.843731
2813.000000	78.923244
2812.000000	79.006873
2811.000000	79.096217
2810.000000	79.191651
2809.000000	79.291815
2808.000000	79.394519
2807.000000	79.497600
2806.000000	79.599603
2805.000000	79.701013
2804.000000	79.804553
2803.000000	79.912987
2802.000000	80.026593
2801.000000	80.143451
2800.000000	80.261306
2799.000000	80.377914
2798.000000	80.490618
2797.000000	80.598006
2796.000000	80.702216
2795.000000	80.807635
2794.000000	80.916710
2793.000000	81.027975
2792.000000	81.137924
2791.000000	81.243307
2790.000000	81.341296
2789.000000	81.429032
2788.000000	81.503945
2787.000000	81.563894
2786.000000	81.607535
2785.000000	81.635983
2784.000000	81.654457
2783.000000	81.671539
2782.000000	81.696016
2781.000000	81.733786
2780.000000	81.786509
2779.000000	81.852159
2778.000000	81.927765
2777.000000	82.012643
2776.000000	82.107997
2775.000000	82.212392
2774.000000	82.318933
2773.000000	82.418304
2772.000000	82.503488
2771.000000	82.570624
2770.000000	82.617704
2769.000000	82.645721
2768.000000	82.660791
2767.000000	82.672152
2766.000000	82.687340
2765.000000	82.710372
2764.000000	82.743151
2763.000000	82.785889
2762.000000	82.836078
2761.000000	82.889218
2760.000000	82.941488
2759.000000	82.991048
2758.000000	83.037520
2757.000000	83.082090
2756.000000	83.127810
2755.000000	83.177885
2754.000000	83.233634
2753.000000	83.295083
2752.000000	83.362769
2751.000000	83.437319
2750.000000	83.517762
2749.000000	83.601878
2748.000000	83.687420
2747.000000	83.771146
2746.000000	83.847596
2745.000000	83.911172
2744.000000	83.959264
2743.000000	83.992292
2742.000000	84.011538
2741.000000	84.018174
2740.000000	84.013077
2739.000000	83.994943
2738.000000	83.959996
2737.000000	83.906348
2736.000000	83.837625
2735.000000	83.760400
2734.000000	83.679089
2733.000000	83.595944
2732.000000	83.514739
2731.000000	83.440521
2730.000000	83.375950
2729.000000	83.321346
2728.000000	83.278306
2727.000000	83.250274
2726.000000	83.239476
2725.000000	83.245633
2724.000000	83.268249
2723.000000	83.307313
2722.000000	83.360882
2721.000000	83.425091
2720.000000	83.497084
2719.000000	83.576132
2718.000000	83.661492
2717.000000	83.750790
2716.000000	83.841237
2715.000000	83.930382
2714.000000	84.015113
2713.000000	84.091717
2712.000000	84.157313
2711.000000	84.209436
2710.000000	84.244540
2709.000000	84.258618
2708.000000	84.248974
2707.000000	84.214338
2706.000000	84.152832
2705.000000	84.062314
2704.000000	83.942584
2703.000000	83.794603
2702.000000	83.619175
2701.000000	83.417860
2700.000000	83.195236
2699.000000	82.958120
2698.000000	82.711645
2697.000000	82.458839
2696.000000	82.203203
2695.000000	81.949266
2694.000000	81.700662
2693.000000	81.459454
2692.000000	81.227698
2691.000000	81.007951
2690.000000	80.801904
2689.000000	80.609724
2688.000000	80.430715
2687.000000	80.262999
2686.000000	80.103626
2685.000000	79.951233
2684.000000	79.807913
2683.000000	79.676861
2682.000000	79.558160
2681.000000	79.449101
2680.000000	79.348642
2679.000000	79.258649
2678.000000	79.181093
2677.000000	79.115740
2676.000000	79.060713
2675.000000	79.013512
2674.000000	78.971079
2673.000000	78.931703
2672.000000	78.897077
2671.000000	78.870435
2670.000000	78.852465
2669.000000	78.840711
2668.000000	78.833629
2667.000000	78.832703
2666.000000	78.839334
2665.000000	78.851814
2664.000000	78.866647
2663.000000	78.882132
2662.000000	78.899675
2661.000000	78.922079
2660.000000	78.951234
2659.000000	78.986774
2658.000000	79.027212
2657.000000	79.072727
2656.000000	79.125618
2655.000000	79.186577
2654.000000	79.251209
2653.000000	79.312125
2652.000000	79.364091
2651.000000	79.405423
2650.000000	79.435626
2649.000000	79.455096
2648.000000	79.467262
2647.000000	79.477954
2646.000000	79.491878
2645.000000	79.511622
2644.000000	79.540031
2643.000000	79.580515
2642.000000	79.633900
2641.000000	79.697003
2640.000000	79.765526
2639.000000	79.836952
2638.000000	79.910940
2637.000000	79.989588
2636.000000	80.077238
2635.000000	80.177511
2634.000000	80.289352
2633.000000	80.407528
2632.000000	80.527242
2631.000000	80.646234
2630.000000	80.763247
2629.000000	80.877682
2628.000000	80.990728
2627.000000	81.102801
2626.000000	81.209136
2625.000000	81.300801
2624.000000	81.371461
2623.000000	81.420844
2622.000000	81.450477
2621.000000	81.460447
2620.000000	81.450941
2619.000000	81.423719
2618.000000	81.380531
2617.000000	81.321192
2616.000000	81.245057
2615.000000	81.151576
2614.000000	81.038986
2613.000000	80.906259
2612.000000	80.757336
2611.000000	80.601901
2610.000000	80.451240
2609.000000	80.315190
2608.000000	80.202519
2607.000000	80.120520
2606.000000	80.071977
2605.000000	80.054684
2604.000000	80.065485
2603.000000	80.102106
2602.000000	80.162000
2601.000000	80.241828
2600.000000	80.339189
2599.000000	80.453166
2598.000000	80.580909
2597.000000	80.716349
2596.000000	80.852865
2595.000000	80.985207
2594.000000	81.108619
2593.000000	81.218413
2592.000000	81.311188
2591.000000	81.384833
2590.000000	81.437599
2589.000000	81.468304
2588.000000	81.477237
2587.000000	81.463076
2586.000000	81.419670
2585.000000	81.340334
2584.000000	81.224308
2583.000000	81.077407
2582.000000	80.905794
2581.000000	80.712047
2580.000000	80.497351
2579.000000	80.262488
2578.000000	80.008012
2577.000000	79.736674
2576.000000	79.456049
2575.000000	79.176524
2574.000000	78.906417
2573.000000	78.651374
2572.000000	78.416447
2571.000000	78.204637
2570.000000	78.013278
2569.000000	77.836354
2568.000000	77.670629
2567.000000	77.517161
2566.000000	77.378145
2565.000000	77.254556
2564.000000	77.147194
2563.000000	77.056191
2562.000000	76.979325
2561.000000	76.914067
2560.000000	76.859619
2559.000000	76.814743
2558.000000	76.774879
2557.000000	76.735726
2556.000000	76.699696
2555.000000	76.673811
2554.000000	76.661974
2553.000000	76.663300
2552.000000	76.677301
2551.000000	76.705868
2550.000000	76.748615
2549.000000	76.801238
2548.000000	76.859795
2547.000000	76.922561
2546.000000	76.987472
2545.000000	77.052030
2544.000000	77.117497
2543.000000	77.188970
2542.000000	77.268893
2541.000000	77.354069
2540.000000	77.440342
2539.000000	77.526936
2538.000000	77.614945
2537.000000	77.705008
2536.000000	77.798408
2535.000000	77.896967
2534.000000	77.999989
2533.000000	78.104032
2532.000000	78.206742
2531.000000	78.307997
2530.000000	78.406353
2529.000000	78.498435
2528.000000	78.584080
2527.000000	78.668960
2526.000000	78.759557
2525.000000	78.857017
2524.000000	78.956980
2523.000000	79.053357
2522.000000	79.141741
2521.000000	79.221874
2520.000000	79.298253
2519.000000	79.376549
2518.000000	79.458525
2517.000000	79.541578
2516.000000	79.622381
2515.000000	79.698908
2514.000000	79.770092
2513.000000	79.836570
2512.000000	79.901388
2511.000000	79.966655
2510.000000	80.029822
2509.000000	80.086249
2508.000000	80.134615
2507.000000	80.177310
2506.000000	80.217179
2505.000000	80.257879
2504.000000	80.305896
2503.000000	80.367101
2502.000000	80.441084
2501.000000	80.522627
2500.000000	80.608312
2499.000000	80.697661
2498.000000	80.788954
2497.000000	80.878660
2496.000000	80.965188
2495.000000	81.049319
2494.000000	81.131375
2493.000000	81.211951
2492.000000	81.293974
2491.000000	81.378706
2490.000000	81.460367
2489.000000	81.530532
2488.000000	81.587805
2487.000000	81.638270
2486.000000	81.686374
2485.000000	81.730547
2484.000000	81.768512
2483.000000	81.801668
2482.000000	81.833679
2481.000000	81.868669
2480.000000	81.910208
2479.000000	81.957738
2478.000000	82.004732
2477.000000	82.045452
2476.000000	82.082644
2475.000000	82.123435
2474.000000	82.169225
2473.000000	82.215979
2472.000000	82.263377
2471.000000	82.315731
2470.000000	82.373516
2469.000000	82.431714
2468.000000	82.488590
2467.000000	82.549273
2466.000000	82.617821
2465.000000	82.691847
2464.000000	82.767541
2463.000000	82.844562
2462.000000	82.922902
2461.000000	82.999725
2460.000000	83.072854
2459.000000	83.143801
2458.000000	83.214409
2457.000000	83.283133
2456.000000	83.346934
2455.000000	83.404851
2454.000000	83.458708
2453.000000	83.512159
2452.000000	83.568656
2451.000000	83.628111
2450.000000	83.686311
2449.000000	83.740419
2448.000000	83.793263
2447.000000	83.848314
2446.000000	83.902793
2445.000000	83.950686
2444.000000	83.991008
2443.000000	84.027709
2442.000000	84.062814
2441.000000	84.095770
2440.000000	84.128665
2439.000000	84.165874
2438.000000	84.208233
2437.000000	84.252108
2436.000000	84.293508
2435.000000	84.329079
2434.000000	84.355743
2433.000000	84.375533
2432.000000	84.398469
2431.000000	84.433429
2430.000000	84.477284
2429.000000	84.519694
2428.000000	84.556633
2427.000000	84.591409
2426.000000	84.624297
2425.000000	84.651030
2424.000000	84.672223
2423.000000	84.695141
2422.000000	84.723834
2421.000000	84.754660
2420.000000	84.783183
2419.000000	84.808617
2418.000000	84.830029
2417.000000	84.845405
2416.000000	84.857124
2415.000000	84.872600
2414.000000	84.897347
2413.000000	84.931833
2412.000000	84.975418
2411.000000	85.027294
2410.000000	85.082507
2409.000000	85.133531
2408.000000	85.177805
2407.000000	85.219149
2406.000000	85.260647
2405.000000	85.301001
2404.000000	85.338415
2403.000000	85.372689
2402.000000	85.402925
2401.000000	85.428498
2400.000000	85.452881
2399.000000	85.481315
2398.000000	85.514186
2397.000000	85.547553
2396.000000	85.580217
2395.000000	85.614872
2394.000000	85.652156
2393.000000	85.689212
2392.000000	85.724682
2391.000000	85.759842
2390.000000	85.794397
2389.000000	85.826206
2388.000000	85.855790
2387.000000	85.886280
2386.000000	85.918307
2385.000000	85.950110
2384.000000	85.982490
2383.000000	86.018955
2382.000000	86.060631
2381.000000	86.104966
2380.000000	86.149791
2379.000000	86.193172
2378.000000	86.229718
2377.000000	86.253218
2376.000000	86.264156
2375.000000	86.270214
2374.000000	86.278482
2373.000000	86.291973
2372.000000	86.312433
2371.000000	86.339968
2370.000000	86.370032
2369.000000	86.398268
2368.000000	86.427712
2367.000000	86.462702
2366.000000	86.498372
2365.000000	86.525122
2364.000000	86.541830
2363.000000	86.555072
2362.000000	86.568216
2361.000000	86.583776
2360.000000	86.607553
2359.000000	86.642953
2358.000000	86.685251
2357.000000	86.724597
2356.000000	86.757331
2355.000000	86.783064
2354.000000	86.803118
2353.000000	86.825184
2352.000000	86.855108
2351.000000	86.887324
2350.000000	86.908284
2349.000000	86.912907
2348.000000	86.911887
2347.000000	86.927449
2346.000000	86.971445
2345.000000	87.025162
2344.000000	87.063747
2343.000000	87.085819
2342.000000	87.108000
2341.000000	87.140746
2340.000000	87.178714
2339.000000	87.211245
2338.000000	87.233142
2337.000000	87.248892
2336.000000	87.267925
2335.000000	87.294618
2334.000000	87.321744
2333.000000	87.339518
2332.000000	87.346375
2331.000000	87.348609
2330.000000	87.348177
2329.000000	87.346021
2328.000000	87.350727
2327.000000	87.376006
2326.000000	87.427980
2325.000000	87.496821
2324.000000	87.568198
2323.000000	87.630288
2322.000000	87.676173
2321.000000	87.703354
2320.000000	87.717155
2319.000000	87.728115
2318.000000	87.740922
2317.000000	87.755026
2316.000000	87.772578
2315.000000	87.800006
2314.000000	87.837745
2313.000000	87.877111
2312.000000	87.909667
2311.000000	87.933167
2310.000000	87.948484
2309.000000	87.957431
2308.000000	87.966081
2307.000000	87.979668
2306.000000	87.995333
2305.000000	88.005462
2304.000000	88.011215
2303.000000	88.022024
2302.000000	88.041855
2301.000000	88.064868
2300.000000	88.086158
2299.000000	88.108075
2298.000000	88.132830
2297.000000	88.158406
2296.000000	88.183792
2295.000000	88.209684
2294.000000	88.232811
2293.000000	88.248134
2292.000000	88.259707
2291.000000	88.277907
2290.000000	88.304881
2289.000000	88.331732
2288.000000	88.354491
2287.000000	88.380385
2286.000000	88.414945
2285.000000	88.452796
2284.000000	88.487226
2283.000000	88.518616
2282.000000	88.548546
2281.000000	88.575306
2280.000000	88.600036
2279.000000	88.627918
2278.000000	88.658804
2277.000000	88.686683
2276.000000	88.711472
2275.000000	88.741217
2274.000000	88.778652
2273.000000	88.816418
2272.000000	88.848183
2271.000000	88.873785
2270.000000	88.891547
2269.000000	88.897993
2268.000000	88.897523
2267.000000	88.899269
2266.000000	88.902449
2265.000000	88.898824
2264.000000	88.891843
2263.000000	88.898215
2262.000000	88.926598
2261.000000	88.967313
2260.000000	89.006229
2259.000000	89.035894
2258.000000	89.052258
2257.000000	89.055023
2256.000000	89.053063
2255.000000	89.055578
2254.000000	89.057629
2253.000000	89.049870
2252.000000	89.039597
2251.000000	89.043192
2250.000000	89.059036
2249.000000	89.069513
2248.000000	89.071335
2247.000000	89.082219
2246.000000	89.113363
2245.000000	89.155540
2244.000000	89.197435
2243.000000	89.237874
2242.000000	89.274835
2241.000000	89.301960
2240.000000	89.322474
2239.000000	89.349286
2238.000000	89.386612
2237.000000	89.427807
2236.000000	89.472303
2235.000000	89.525209
2234.000000	89.578585
2233.000000	89.614982
2232.000000	89.633245
2231.000000	89.650066
2230.000000	89.673295
2229.000000	89.694394
2228.000000	89.709390
2227.000000	89.724910
2226.000000	89.741057
2225.000000	89.750553
2224.000000	89.757007
2223.000000	89.772076
2222.000000	89.793518
2221.000000	89.808484
2220.000000	89.818002
2219.000000	89.834329
2218.000000	89.855611
2217.000000	89.869275
2216.000000	89.878536
2215.000000	89.897000
2214.000000	89.918194
2213.000000	89.922447
2212.000000	89.915289
2211.000000	89.926839
2210.000000	89.968657
2209.000000	90.020706
2208.000000	90.064439
2207.000000	90.099616
2206.000000	90.126361
2205.000000	90.141386
2204.000000	90.154787
2203.000000	90.179649
2202.000000	90.202930
2201.000000	90.197651
2200.000000	90.166306
2199.000000	90.140062
2198.000000	90.134230
2197.000000	90.135986
2196.000000	90.134942
2195.000000	90.132953
2194.000000	90.124731
2193.000000	90.103498
2192.000000	90.083171
2191.000000	90.079278
2190.000000	90.074357
2189.000000	90.043573
2188.000000	90.007723
2187.000000	90.012189
2186.000000	90.054693
2185.000000	90.087173
2184.000000	90.092484
2183.000000	90.103685
2182.000000	90.138703
2181.000000	90.172571
2180.000000	90.187939
2179.000000	90.198633
2178.000000	90.210832
2177.000000	90.211857
2176.000000	90.209805
2175.000000	90.234847
2174.000000	90.287829
2173.000000	90.333990
2172.000000	90.357816
2171.000000	90.378626
2170.000000	90.405333
2169.000000	90.424228
2168.000000	90.440482
2167.000000	90.481015
2166.000000	90.542123
2165.000000	90.585223
2164.000000	90.601705
2163.000000	90.629932
2162.000000	90.689051
2161.000000	90.747934
2160.000000	90.778400
2159.000000	90.785001
2158.000000	90.768446
2157.000000	90.725871
2156.000000	90.689114
2155.000000	90.696766
2154.000000	90.735636
2153.000000	90.765536
2152.000000	90.792827
2151.000000	90.860555
2150.000000	90.968421
2149.000000	91.061875
2148.000000	91.107479
2147.000000	91.124938
2146.000000	91.137055
2145.000000	91.141534
2144.000000	91.139617
2143.000000	91.143574
2142.000000	91.146871
2141.000000	91.129536
2140.000000	91.099044
2139.000000	91.085243
2138.000000	91.090164
2137.000000	91.083458
2136.000000	91.053406
2135.000000	91.024158
2134.000000	91.015282
2133.000000	91.018841
2132.000000	91.021298
2131.000000	91.016685
2130.000000	90.996597
2129.000000	90.955885
2128.000000	90.910052
2127.000000	90.882351
2126.000000	90.873984
2125.000000	90.869200
2124.000000	90.864541
2123.000000	90.866752
2122.000000	90.867683
2121.000000	90.852170
2120.000000	90.829172
2119.000000	90.824053
2118.000000	90.839521
2117.000000	90.853401
2116.000000	90.855553
2115.000000	90.856563
2114.000000	90.857782
2113.000000	90.845437
2112.000000	90.820119
2111.000000	90.801443
2110.000000	90.795796
2109.000000	90.788582
2108.000000	90.774370
2107.000000	90.765078
2106.000000	90.762035
2105.000000	90.749605
2104.000000	90.723573
2103.000000	90.696927
2102.000000	90.671251
2101.000000	90.631483
2100.000000	90.575496
2099.000000	90.519512
2098.000000	90.467453
2097.000000	90.403856
2096.000000	90.323793
2095.000000	90.241326
2094.000000	90.163481
2093.000000	90.084173
2092.000000	90.007386
2091.000000	89.949027
2090.000000	89.913213
2089.000000	89.892895
2088.000000	89.894147
2087.000000	89.931132
2086.000000	89.996420
2085.000000	90.066916
2084.000000	90.140383
2083.000000	90.233310
2082.000000	90.339528
2081.000000	90.428569
2080.000000	90.493072
2079.000000	90.561002
2078.000000	90.650561
2077.000000	90.748402
2076.000000	90.843117
2075.000000	90.943350
2074.000000	91.050332
2073.000000	91.145968
2072.000000	91.221015
2071.000000	91.283324
2070.000000	91.330820
2069.000000	91.352582
2068.000000	91.362387
2067.000000	91.392418
2066.000000	91.446487
2065.000000	91.497219
2064.000000	91.534842
2063.000000	91.577697
2062.000000	91.629207
2061.000000	91.669435
2060.000000	91.696006
2059.000000	91.729960
2058.000000	91.775595
2057.000000	91.818363
2056.000000	91.864331
2055.000000	91.932275
2054.000000	92.003448
2053.000000	92.034019
2052.000000	92.024149
2051.000000	92.019960
2050.000000	92.036254
2049.000000	92.034479
2048.000000	91.998005
2047.000000	91.962992
2046.000000	91.950352
2045.000000	91.937509
2044.000000	91.917649
2043.000000	91.917574
2042.000000	91.939187
2041.000000	91.951686
2040.000000	91.955719
2039.000000	91.981409
2038.000000	92.010393
2037.000000	91.982181
2036.000000	91.896234
2035.000000	91.822441
2034.000000	91.791410
2033.000000	91.768628
2032.000000	91.750828
2031.000000	91.780758
2030.000000	91.846150
2029.000000	91.871281
2028.000000	91.837174
2027.000000	91.809280
2026.000000	91.822256
2025.000000	91.836885
2024.000000	91.833515
2023.000000	91.846884
2022.000000	91.881814
2021.000000	91.893870
2020.000000	91.880350
2019.000000	91.894579
2018.000000	91.945097
2017.000000	91.975162
2016.000000	91.967062
2015.000000	91.968083
2014.000000	91.988410
2013.000000	91.975899
2012.000000	91.918765
2011.000000	91.876326
2010.000000	91.879619
2009.000000	91.891621
2008.000000	91.891821
2007.000000	91.907967
2006.000000	91.938720
2005.000000	91.942347
2004.000000	91.924636
2003.000000	91.941997
2002.000000	91.996788
2001.000000	92.018268
2000.000000	91.967206
1999.000000	91.880947
1998.000000	91.793736
1997.000000	91.690479
1996.000000	91.565541
1995.000000	91.450944
1994.000000	91.359175
1993.000000	91.266343
1992.000000	91.177478
1991.000000	91.138681
1990.000000	91.159365
1989.000000	91.193597
1988.000000	91.220505
1987.000000	91.269796
1986.000000	91.345042
1985.000000	91.400472
1984.000000	91.424233
1983.000000	91.466740
1982.000000	91.549213
1981.000000	91.616378
1980.000000	91.615664
1979.000000	91.556705
1978.000000	91.455222
1977.000000	91.298207
1976.000000	91.108548
1975.000000	90.953481
1974.000000	90.855215
1973.000000	90.776719
1972.000000	90.714057
1971.000000	90.717032
1970.000000	90.801091
1969.000000	90.922637
1968.000000	91.057363
1967.000000	91.219371
1966.000000	91.387012
1965.000000	91.501031
1964.000000	91.553422
1963.000000	91.590166
1962.000000	91.617711
1961.000000	91.594689
1960.000000	91.526943
1959.000000	91.478573
1958.000000	91.472207
1957.000000	91.464227
1956.000000	91.431404
1955.000000	91.403171
1954.000000	91.395128
1953.000000	91.384086
1952.000000	91.367274
1951.000000	91.374890
1950.000000	91.406376
1949.000000	91.420665
1948.000000	91.403369
1947.000000	91.383637
1946.000000	91.373146
1945.000000	91.348736
1944.000000	91.303671
1943.000000	91.255277
1942.000000	91.192552
1941.000000	91.082073
1940.000000	90.933019
1939.000000	90.788019
1938.000000	90.653289
1937.000000	90.500631
1936.000000	90.337264
1935.000000	90.213717
1934.000000	90.153099
1933.000000	90.128009
1932.000000	90.119006
1931.000000	90.136048
1930.000000	90.169797
1929.000000	90.181650
1928.000000	90.155078
1927.000000	90.112566
1926.000000	90.066815
1925.000000	90.005793
1924.000000	89.933708
1923.000000	89.871750
1922.000000	89.811705
1921.000000	89.721833
1920.000000	89.604907
1919.000000	89.502119
1918.000000	89.433116
1917.000000	89.378212
1916.000000	89.336346
1915.000000	89.342763
1914.000000	89.411742
1913.000000	89.515482
1912.000000	89.632303
1911.000000	89.770100
1910.000000	89.924785
1909.000000	90.060750
1908.000000	90.155773
1907.000000	90.226635
1906.000000	90.286246
1905.000000	90.323719
1904.000000	90.342742
1903.000000	90.369333
1902.000000	90.411052
1901.000000	90.446749
1900.000000	90.467991
1899.000000	90.493424
1898.000000	90.527881
1897.000000	90.551311
1896.000000	90.561170
1895.000000	90.580540
1894.000000	90.613648
1893.000000	90.636515
1892.000000	90.642039
1891.000000	90.652813
1890.000000	90.679030
1889.000000	90.702704
1888.000000	90.720773
1887.000000	90.756694
1886.000000	90.810487
1885.000000	90.848040
1884.000000	90.854638
1883.000000	90.855315
1882.000000	90.871729
1881.000000	90.896904
1880.000000	90.921717
1879.000000	90.950871
1878.000000	90.980119
1877.000000	90.994614
1876.000000	91.002722
1875.000000	91.030353
1874.000000	91.073753
1873.000000	91.101302
1872.000000	91.108349
1871.000000	91.129222
1870.000000	91.184609
1869.000000	91.252097
1868.000000	91.306091
1867.000000	91.352781
1866.000000	91.399003
1865.000000	91.429697
1864.000000	91.443292
1863.000000	91.464973
1862.000000	91.505333
1861.000000	91.546145
1860.000000	91.579879
1859.000000	91.621238
1858.000000	91.667737
1857.000000	91.693193
1856.000000	91.693627
1855.000000	91.696878
1854.000000	91.713193
1853.000000	91.721412
1852.000000	91.711039
1851.000000	91.702224
1850.000000	91.706563
1849.000000	91.703535
1848.000000	91.676309
1847.000000	91.634097
1846.000000	91.590214
1845.000000	91.548734
1844.000000	91.523821
1843.000000	91.530278
1842.000000	91.550953
1841.000000	91.552613
1840.000000	91.531085
1839.000000	91.513525
1838.000000	91.506940
1837.000000	91.484489
1836.000000	91.435073
1835.000000	91.377901
1834.000000	91.317100
1833.000000	91.229447
1832.000000	91.110939
1831.000000	90.998762
1830.000000	90.915767
1829.000000	90.830490
1828.000000	90.723252
1827.000000	90.623520
1826.000000	90.554071
1825.000000	90.506230
1824.000000	90.476387
1823.000000	90.482357
1822.000000	90.527143
1821.000000	90.583266
1820.000000	90.633139
1819.000000	90.687277
1818.000000	90.744199
1817.000000	90.778525
1816.000000	90.783573
1815.000000	90.781860
1814.000000	90.785446
1813.000000	90.780218
1812.000000	90.763207
1811.000000	90.752737
1810.000000	90.747021
1809.000000	90.722783
1808.000000	90.677953
1807.000000	90.632500
1806.000000	90.587409
1805.000000	90.520994
1804.000000	90.431407
1803.000000	90.343041
1802.000000	90.266886
1801.000000	90.184519
1800.000000	90.091913
1799.000000	90.016402
1798.000000	89.967988
1797.000000	89.920847
1796.000000	89.853221
1795.000000	89.770914
1794.000000	89.687156
1793.000000	89.609058
1792.000000	89.555795
1791.000000	89.547162
1790.000000	89.570760
1789.000000	89.597791
1788.000000	89.624873
1787.000000	89.681258
1786.000000	89.785248
1785.000000	89.915358
1784.000000	90.046086
1783.000000	90.179935
1782.000000	90.327610
1781.000000	90.475434
1780.000000	90.606251
1779.000000	90.726687
1778.000000	90.842496
1777.000000	90.939290
1776.000000	91.005700
1775.000000	91.059357
1774.000000	91.127583
1773.000000	91.220120
1772.000000	91.330949
1771.000000	91.449756
1770.000000	91.568568
1769.000000	91.680489
1768.000000	91.793098
1767.000000	91.921597
1766.000000	92.047296
1765.000000	92.127644
1764.000000	92.161541
1763.000000	92.202995
1762.000000	92.286291
1761.000000	92.367507
1760.000000	92.403605
1759.000000	92.411115
1758.000000	92.408639
1757.000000	92.382240
1756.000000	92.320745
1755.000000	92.247885
1754.000000	92.177564
1753.000000	92.091506
1752.000000	91.999010
1751.000000	91.962894
1750.000000	92.008925
1749.000000	92.088953
1748.000000	92.174535
1747.000000	92.289770
1746.000000	92.445719
1745.000000	92.608524
1744.000000	92.758382
1743.000000	92.910397
1742.000000	93.061020
1741.000000	93.185878
1740.000000	93.300720
1739.000000	93.437720
1738.000000	93.553928
1737.000000	93.571724
1736.000000	93.496445
1735.000000	93.446435
1734.000000	93.512643
1733.000000	93.595727
1732.000000	93.594294
1731.000000	93.537396
1730.000000	93.432327
1729.000000	93.227957
1728.000000	92.909134
1727.000000	92.528439
1726.000000	92.108086
1725.000000	91.596977
1724.000000	90.979398
1723.000000	90.320046
1722.000000	89.658978
1721.000000	88.954189
1720.000000	88.166364
1719.000000	87.335519
1718.000000	86.521273
1717.000000	85.717308
1716.000000	84.925025
1715.000000	84.199488
1714.000000	83.535477
1713.000000	82.855081
1712.000000	82.110738
1711.000000	81.300913
1710.000000	80.394853
1709.000000	79.324507
1708.000000	78.062753
1707.000000	76.650375
1706.000000	75.149799
1705.000000	73.662389
1704.000000	72.320994
1703.000000	71.143334
1702.000000	69.955924
1701.000000	68.540350
1700.000000	67.033378
1699.000000	65.808002
1698.000000	64.833727
1697.000000	63.708184
1696.000000	62.168323
1695.000000	60.399142
1694.000000	58.736979
1693.000000	57.182899
1692.000000	55.538364
1691.000000	53.713656
1690.000000	51.785553
1689.000000	49.920789
1688.000000	48.254512
1687.000000	46.806708
1686.000000	45.456475
1685.000000	44.055783
1684.000000	42.716705
1683.000000	41.748685
1682.000000	41.230305
1681.000000	40.983188
1680.000000	40.855306
1679.000000	40.813275
1678.000000	40.874801
1677.000000	41.053368
1676.000000	41.365730
1675.000000	41.832631
1674.000000	42.437415
1673.000000	43.140707
1672.000000	43.947404
1671.000000	44.911181
1670.000000	46.073199
1669.000000	47.375805
1668.000000	48.687695
1667.000000	49.933468
1666.000000	51.128843
1665.000000	52.331367
1664.000000	53.580518
1663.000000	54.844333
1662.000000	56.044299
1661.000000	57.150284
1660.000000	58.193221
1659.000000	59.194593
1658.000000	60.150889
1657.000000	61.048710
1656.000000	61.887181
1655.000000	62.699447
1654.000000	63.591462
1653.000000	64.614888
1652.000000	65.606621
1651.000000	66.486790
1650.000000	67.319348
1649.000000	68.174182
1648.000000	69.104650
1647.000000	70.060807
1646.000000	70.935586
1645.000000	71.722434
1644.000000	72.483340
1643.000000	73.223036
1642.000000	73.931375
1641.000000	74.611980
1640.000000	75.247894
1639.000000	75.811329
1638.000000	76.311393
1637.000000	76.804992
1636.000000	77.324568
1635.000000	77.825596
1634.000000	78.295401
1633.000000	78.776767
1632.000000	79.256441
1631.000000	79.679433
1630.000000	80.021356
1629.000000	80.298596
1628.000000	80.522667
1627.000000	80.674056
1626.000000	80.751461
1625.000000	80.786746
1624.000000	80.788086
1623.000000	80.698657
1622.000000	80.456051
1621.000000	80.084291
1620.000000	79.684006
1619.000000	79.410984
1618.000000	79.475793
1617.000000	80.005051
1616.000000	80.800427
1615.000000	81.495803
1614.000000	81.931062
1613.000000	82.115946
1612.000000	82.036812
1611.000000	81.635089
1610.000000	80.887686
1609.000000	79.822666
1608.000000	78.479135
1607.000000	76.918841
1606.000000	75.250914
1605.000000	73.593292
1604.000000	72.047550
1603.000000	70.751079
1602.000000	69.889561
1601.000000	69.627606
1600.000000	70.035196
1599.000000	71.078515
1598.000000	72.621725
1597.000000	74.449083
1596.000000	76.339382
1595.000000	78.122974
1594.000000	79.699585
1593.000000	81.011260
1592.000000	81.979804
1591.000000	82.437528
1590.000000	82.136355
1589.000000	80.852180
1588.000000	78.550796
1587.000000	75.533624
1586.000000	72.412434
1585.000000	69.855560
1584.000000	68.268385
1583.000000	67.700764
1582.000000	67.954515
1581.000000	68.716762
1580.000000	69.686589
1579.000000	70.700950
1578.000000	71.762173
1577.000000	72.917320
1576.000000	74.090870
1575.000000	75.102363
1574.000000	75.898041
1573.000000	76.550197
1572.000000	77.114115
1571.000000	77.619867
1570.000000	78.101328
1569.000000	78.570517
1568.000000	79.006347
1567.000000	79.414330
1566.000000	79.824406
1565.000000	80.243152
1564.000000	80.624017
1563.000000	80.912442
1562.000000	81.098262
1561.000000	81.214931
1560.000000	81.314820
1559.000000	81.486874
1558.000000	81.667254
1557.000000	81.860075
1556.000000	82.113745
1555.000000	82.349416
1554.000000	82.543007
1553.000000	82.718205
1552.000000	82.891322
1551.000000	83.064351
1550.000000	83.241244
1549.000000	83.420674
1548.000000	83.588792
1547.000000	83.741437
1546.000000	83.898086
1545.000000	84.077021
1544.000000	84.248487
1543.000000	84.364180
1542.000000	84.435848
1541.000000	84.533435
1540.000000	84.679083
1539.000000	84.813844
1538.000000	84.951638
1537.000000	85.114958
1536.000000	85.256239
1535.000000	85.349251
1534.000000	85.422144
1533.000000	85.504293
1532.000000	85.583428
1531.000000	85.646516
1530.000000	85.690718
1529.000000	85.716731
1528.000000	85.731910
1527.000000	85.746987
1526.000000	85.780645
1525.000000	85.844004
1524.000000	85.932744
1523.000000	86.057193
1522.000000	86.261613
1521.000000	86.549104
1520.000000	86.852951
1519.000000	87.147650
1518.000000	87.466830
1517.000000	87.819903
1516.000000	88.151018
1515.000000	88.413897
1514.000000	88.635433
1513.000000	88.846820
1512.000000	89.044166
1511.000000	89.211808
1510.000000	89.341763
1509.000000	89.441570
1508.000000	89.531337
1507.000000	89.627259
1506.000000	89.679280
1505.000000	89.718424
1504.000000	89.770246
1503.000000	89.728503
1502.000000	89.472327
1501.000000	88.874555
1500.000000	87.838538
1499.000000	86.446237
1498.000000	85.055390
1497.000000	84.213144
1496.000000	84.294844
1495.000000	85.160980
1494.000000	86.357880
1493.000000	87.534128
1492.000000	88.546198
1491.000000	89.373878
1490.000000	90.039274
1489.000000	90.554678
1488.000000	90.943817
1487.000000	91.252675
1486.000000	91.515632
1485.000000	91.744183
1484.000000	91.930555
1483.000000	92.077678
1482.000000	92.203762
1481.000000	92.313339
1480.000000	92.391754
1479.000000	92.434477
1478.000000	92.459342
1477.000000	92.481494
1476.000000	92.497684
1475.000000	92.499049
1474.000000	92.497199
1473.000000	92.504793
1472.000000	92.499836
1471.000000	92.460488
1470.000000	92.380799
1469.000000	92.226119
1468.000000	91.951692
1467.000000	91.544265
1466.000000	91.024070
1465.000000	90.440302
1464.000000	89.863937
1463.000000	89.358785
1462.000000	88.900795
1461.000000	88.381239
1460.000000	87.619759
1459.000000	86.239573
1458.000000	83.459117
1457.000000	78.614666
1456.000000	72.569196
1455.000000	67.245690
1454.000000	63.871945
1453.000000	62.967910
1452.000000	64.631499
1451.000000	68.195429
1450.000000	72.480386
1449.000000	76.544969
1448.000000	79.949241
1447.000000	82.545036
1446.000000	84.384302
1445.000000	85.656382
1444.000000	86.528452
1443.000000	87.073295
1442.000000	87.319042
1441.000000	87.293704
1440.000000	87.006749
1439.000000	86.418555
1438.000000	85.439710
1437.000000	84.017706
1436.000000	82.277162
1435.000000	80.433006
1434.000000	78.525216
1433.000000	76.443421
1432.000000	74.151425
1431.000000	71.766006
1430.000000	69.457778
1429.000000	67.370531
1428.000000	65.622139
1427.000000	64.225501
1426.000000	63.047142
1425.000000	61.952822
1424.000000	60.960920
1423.000000	60.163403
1422.000000	59.558754
1421.000000	59.098654
1420.000000	58.836586
1419.000000	58.881805
1418.000000	59.216019
1417.000000	59.757048
1416.000000	60.505369
1415.000000	61.459647
1414.000000	62.546978
1413.000000	63.710091
1412.000000	64.957664
1411.000000	66.275700
1410.000000	67.579641
1409.000000	68.808883
1408.000000	69.974319
1407.000000	71.079137
1406.000000	72.082850
1405.000000	72.962923
1404.000000	73.738702
1403.000000	74.427969
1402.000000	75.047951
1401.000000	75.664769
1400.000000	76.367864
1399.000000	77.162283
1398.000000	77.962407
1397.000000	78.727965
1396.000000	79.499218
1395.000000	80.285433
1394.000000	81.030788
1393.000000	81.701478
1392.000000	82.311940
1391.000000	82.862319
1390.000000	83.339453
1389.000000	83.767034
1388.000000	84.190513
1387.000000	84.609308
1386.000000	84.985758
1385.000000	85.320705
1384.000000	85.646300
1383.000000	85.971706
1382.000000	86.288731
1381.000000	86.608522
1380.000000	86.946175
1379.000000	87.281737
1378.000000	87.582284
1377.000000	87.851997
1376.000000	88.120670
1375.000000	88.393077
1374.000000	88.647108
1373.000000	88.876127
1372.000000	89.096280
1371.000000	89.309807
1370.000000	89.509921
1369.000000	89.705379
1368.000000	89.900566
1367.000000	90.075241
1366.000000	90.214551
1365.000000	90.337482
1364.000000	90.468943
1363.000000	90.598062
1362.000000	90.694544
1361.000000	90.759534
1360.000000	90.811979
1359.000000	90.841272
1358.000000	90.822513
1357.000000	90.752726
1356.000000	90.642741
1355.000000	90.499364
1354.000000	90.341381
1353.000000	90.211027
1352.000000	90.142536
1351.000000	90.131208
1350.000000	90.155997
1349.000000	90.205959
1348.000000	90.266594
1347.000000	90.307238
1346.000000	90.304676
1345.000000	90.261135
1344.000000	90.180137
1343.000000	90.046104
1342.000000	89.840879
1341.000000	89.556414
1340.000000	89.171211
1339.000000	88.633403
1338.000000	87.897176
1337.000000	86.938486
1336.000000	85.713941
1335.000000	84.141717
1334.000000	82.129225
1333.000000	79.617579
1332.000000	76.601912
1331.000000	73.143419
1330.000000	69.380922
1329.000000	65.503680
1328.000000	61.716803
1327.000000	58.235336
1326.000000	55.285162
1325.000000	53.086292
1324.000000	51.847023
1323.000000	51.733648
1322.000000	52.812616
1321.000000	54.998918
1320.000000	57.997595
1319.000000	61.331620
1318.000000	64.508345
1317.000000	67.239099
1316.000000	69.509758
1315.000000	71.438408
1314.000000	73.109841
1313.000000	74.517919
1312.000000	75.577429
1311.000000	76.148202
1310.000000	76.096723
1309.000000	75.354363
1308.000000	73.951573
1307.000000	72.033075
1306.000000	69.824021
1305.000000	67.564023
1304.000000	65.421656
1303.000000	63.445142
1302.000000	61.584755
1301.000000	59.752351
1300.000000	57.874312
1299.000000	55.905733
1298.000000	53.830649
1297.000000	51.673473
1296.000000	49.505198
1295.000000	47.418705
1294.000000	45.496797
1293.000000	43.807925
1292.000000	42.410840
1291.000000	41.348052
1290.000000	40.629319
1289.000000	40.244817
1288.000000	40.188245
1287.000000	40.434327
1286.000000	40.924771
1285.000000	41.591557
1284.000000	42.382621
1283.000000	43.249916
1282.000000	44.120160
1281.000000	44.909196
1280.000000	45.553353
1279.000000	46.018695
1278.000000	46.304543
1277.000000	46.458763
1276.000000	46.578987
1275.000000	46.779998
1274.000000	47.156913
1273.000000	47.772567
1272.000000	48.649184
1271.000000	49.755323
1270.000000	51.015511
1269.000000	52.350023
1268.000000	53.702702
1267.000000	55.029128
1266.000000	56.290293
1265.000000	57.468411
1264.000000	58.566523
1263.000000	59.583505
1262.000000	60.508398
1261.000000	61.338963
1260.000000	62.084968
1259.000000	62.756190
1258.000000	63.363332
1257.000000	63.933744
1256.000000	64.503266
1255.000000	65.090595
1254.000000	65.697095
1253.000000	66.324883
1252.000000	66.975906
1251.000000	67.635492
1250.000000	68.278282
1249.000000	68.891698
1248.000000	69.476887
1247.000000	70.032686
1246.000000	70.557562
1245.000000	71.062284
1244.000000	71.562756
1243.000000	72.063105
1242.000000	72.561528
1241.000000	73.064801
1240.000000	73.579155
1239.000000	74.095576
1238.000000	74.600875
1237.000000	75.094932
1236.000000	75.580809
1235.000000	76.048376
1234.000000	76.486993
1233.000000	76.901923
1232.000000	77.300298
1231.000000	77.673826
1230.000000	78.012614
1229.000000	78.324746
1228.000000	78.621459
1227.000000	78.896250
1226.000000	79.139331
1225.000000	79.358404
1224.000000	79.566952
1223.000000	79.762744
1222.000000	79.936182
1221.000000	80.088260
1220.000000	80.219511
1219.000000	80.315290
1218.000000	80.358505
1217.000000	80.345622
1216.000000	80.280539
1215.000000	80.173001
1214.000000	80.062354
1213.000000	80.020974
1212.000000	80.107059
1211.000000	80.319495
1210.000000	80.615881
1209.000000	80.957449
1208.000000	81.317703
1207.000000	81.670310
1206.000000	81.997864
1205.000000	82.305913
1204.000000	82.604777
1203.000000	82.887845
1202.000000	83.144307
1201.000000	83.377555
1200.000000	83.587684
1199.000000	83.751243
1198.000000	83.840089
1197.000000	83.836438
1196.000000	83.714697
1195.000000	83.413131
1194.000000	82.838631
1193.000000	81.881017
1192.000000	80.398633
1191.000000	78.270151
1190.000000	75.537606
1189.000000	72.527222
1188.000000	69.790984
1187.000000	67.854038
1186.000000	66.931329
1185.000000	66.821163
1184.000000	67.042338
1183.000000	67.101940
1182.000000	66.757664
1181.000000	66.123152
1180.000000	65.571923
1179.000000	65.514223
1178.000000	66.168134
1177.000000	67.480987
1176.000000	69.202316
1175.000000	71.028587
1174.000000	72.729216
1173.000000	74.179073
1172.000000	75.319966
1171.000000	76.137602
1170.000000	76.696647
1169.000000	77.147765
1168.000000	77.646070
1167.000000	78.250724
1166.000000	78.918573
1165.000000	79.577318
1164.000000	80.175563
1163.000000	80.689223
1162.000000	81.118410
1161.000000	81.483599
1160.000000	81.804784
1159.000000	82.084179
1158.000000	82.323625
1157.000000	82.540508
1156.000000	82.748754
1155.000000	82.939916
1154.000000	83.099246
1153.000000	83.229079
1152.000000	83.338249
1151.000000	83.425858
1150.000000	83.495263
1149.000000	83.566519
1148.000000	83.656527
1147.000000	83.761129
1146.000000	83.873182
1145.000000	84.000479
1144.000000	84.146256
1143.000000	84.289427
1142.000000	84.403593
1141.000000	84.477273
1140.000000	84.500576
1139.000000	84.445418
1138.000000	84.279616
1137.000000	83.977866
1136.000000	83.487369
1135.000000	82.705634
1134.000000	81.497448
1133.000000	79.747072
1132.000000	77.428717
1131.000000	74.700503
1130.000000	71.967132
1129.000000	69.797066
1128.000000	68.683979
1127.000000	68.803622
1126.000000	69.962261
1125.000000	71.736234
1124.000000	73.686362
1123.000000	75.505555
1122.000000	77.062107
1121.000000	78.370697
1120.000000	79.495028
1119.000000	80.474279
1118.000000	81.322972
1117.000000	82.061303
1116.000000	82.706135
1115.000000	83.257342
1114.000000	83.716357
1113.000000	84.101766
1112.000000	84.432253
1111.000000	84.702759
1110.000000	84.901719
1109.000000	85.025916
1108.000000	85.055795
1107.000000	84.940725
1106.000000	84.617676
1105.000000	84.041411
1104.000000	83.212418
1103.000000	82.236619
1102.000000	81.369206
1101.000000	80.924546
1100.000000	81.067833
1099.000000	81.692624
1098.000000	82.527359
1097.000000	83.337550
1096.000000	84.018970
1095.000000	84.557014
1094.000000	84.975522
1093.000000	85.319335
1092.000000	85.625211
1091.000000	85.898593
1090.000000	86.136508
1089.000000	86.357272
1088.000000	86.577615
1087.000000	86.783364
1086.000000	86.951360
1085.000000	87.081860
1084.000000	87.182052
1083.000000	87.229264
1082.000000	87.183213
1081.000000	87.001437
1080.000000	86.590824
1079.000000	85.755861
1078.000000	84.231636
1077.000000	81.853547
1076.000000	78.772109
1075.000000	75.554844
1074.000000	73.002256
1073.000000	71.723948
1072.000000	71.791506
1071.000000	72.782339
1070.000000	74.158653
1069.000000	75.578623
1068.000000	76.918646
1067.000000	78.127215
1066.000000	79.167413
1065.000000	80.048029
1064.000000	80.798760
1063.000000	81.420395
1062.000000	81.907956
1061.000000	82.297954
1060.000000	82.633656
1059.000000	82.914737
1058.000000	83.125196
1057.000000	83.286190
1056.000000	83.431700
1055.000000	83.557313
1054.000000	83.646966
1053.000000	83.722180
1052.000000	83.813967
1051.000000	83.912740
1050.000000	83.999296
1049.000000	84.096818
1048.000000	84.233333
1047.000000	84.384063
1046.000000	84.512494
1045.000000	84.637029
1044.000000	84.795939
1043.000000	84.975343
1042.000000	85.135896
1041.000000	85.284222
1040.000000	85.453364
1039.000000	85.634818
1038.000000	85.799633
1037.000000	85.961823
1036.000000	86.151259
1035.000000	86.342049
1034.000000	86.473988
1033.000000	86.461555
1032.000000	86.002211
1031.000000	84.452359
1030.000000	81.217393
1029.000000	76.564912
1028.000000	71.957547
1027.000000	69.277472
1026.000000	69.483250
1025.000000	71.984108
1024.000000	75.295054
1023.000000	78.180520
1022.000000	80.214208
1021.000000	81.531622
1020.000000	82.377619
1019.000000	82.937503
1018.000000	83.377124
1017.000000	83.812236
1016.000000	84.241695
1015.000000	84.599839
1014.000000	84.874633
1013.000000	85.110467
1012.000000	85.317918
1011.000000	85.473868
1010.000000	85.598149
1009.000000	85.739984
1008.000000	85.897771
1007.000000	86.037111
1006.000000	86.159031
1005.000000	86.195156
1004.000000	85.839129
1003.000000	84.734093
1002.000000	82.993211
1001.000000	81.384190
1000.000000	80.742482
999.000000	81.205151
998.000000	82.169395
997.000000	82.985166
996.000000	83.520210
995.000000	84.016255
994.000000	84.628792
993.000000	85.261253
992.000000	85.746444
991.000000	86.020381
990.000000	86.121779
989.000000	86.132402
988.000000	86.145581
987.000000	86.226259
986.000000	86.366594
985.000000	86.502785
984.000000	86.580444
983.000000	86.593341
982.000000	86.563393
981.000000	86.504172
980.000000	86.406895
979.000000	86.250521
978.000000	86.032648
977.000000	85.798531
976.000000	85.625572
975.000000	85.560365
974.000000	85.572605
973.000000	85.582988
972.000000	85.532969
971.000000	85.416778
970.000000	85.256604
969.000000	85.068120
968.000000	84.853661
967.000000	84.614014
966.000000	84.352428
965.000000	84.069477
964.000000	83.757878
963.000000	83.405010
962.000000	82.998218
961.000000	82.524031
960.000000	81.967195
959.000000	81.312473
958.000000	80.552115
957.000000	79.691178
956.000000	78.741726
955.000000	77.715960
954.000000	76.620949
953.000000	75.461211
952.000000	74.247511
951.000000	73.000453
950.000000	71.745291
949.000000	70.500947
948.000000	69.274570
947.000000	68.063650
946.000000	66.867279
945.000000	65.709620
944.000000	64.660902
943.000000	63.808961
942.000000	63.167280
941.000000	62.597396
940.000000	61.852661
939.000000	60.747024
938.000000	59.305122
937.000000	57.745901
936.000000	56.327192
935.000000	55.200070
934.000000	54.385923
933.000000	53.846420
932.000000	53.538655
931.000000	53.422616
930.000000	53.452530
929.000000	53.582490
928.000000	53.774034
927.000000	53.988104
926.000000	54.188777
925.000000	54.360176
924.000000	54.510903
923.000000	54.658783
922.000000	54.818988
921.000000	55.009056
920.000000	55.250429
919.000000	55.556685
918.000000	55.929345
917.000000	56.366925
916.000000	56.870123
915.000000	57.434814
914.000000	58.049431
913.000000	58.704518
912.000000	59.395052
911.000000	60.114690
910.000000	60.857197
909.000000	61.621551
908.000000	62.405044
907.000000	63.192390
906.000000	63.964781
905.000000	64.717662
904.000000	65.457911
903.000000	66.187638
902.000000	66.903560
901.000000	67.607182
900.000000	68.299838
899.000000	68.972325
898.000000	69.612857
897.000000	70.222537
896.000000	70.809625
895.000000	71.373136
894.000000	71.906558
893.000000	72.411371
892.000000	72.894828
891.000000	73.359610
890.000000	73.806535
889.000000	74.240929
888.000000	74.663778
887.000000	75.065240
886.000000	75.439019
885.000000	75.793821
884.000000	76.141041
883.000000	76.480943
882.000000	76.811690
881.000000	77.138762
880.000000	77.462478
879.000000	77.771107
878.000000	78.060284
877.000000	78.344944
876.000000	78.637288
875.000000	78.927446
874.000000	79.200380
873.000000	79.456495
872.000000	79.700901
871.000000	79.930349
870.000000	80.146219
869.000000	80.363074
868.000000	80.587375
867.000000	80.804150
866.000000	81.000475
865.000000	81.184385
864.000000	81.365137
863.000000	81.531303
862.000000	81.662110
861.000000	81.740872
860.000000	81.743784
859.000000	81.647457
858.000000	81.476135
857.000000	81.320044
856.000000	81.275929
855.000000	81.376588
854.000000	81.593256
853.000000	81.885277
852.000000	82.217939
851.000000	82.550128
850.000000	82.845269
849.000000	83.095328
848.000000	83.310832
847.000000	83.492760
846.000000	83.634099
845.000000	83.738578
844.000000	83.815162
843.000000	83.863024
842.000000	83.881572
841.000000	83.885274
840.000000	83.886830
839.000000	83.876317
838.000000	83.838791
837.000000	83.780622
836.000000	83.717636
835.000000	83.649546
834.000000	83.570934
833.000000	83.495643
832.000000	83.444236
831.000000	83.416905
830.000000	83.404768
829.000000	83.416699
828.000000	83.463394
827.000000	83.522417
826.000000	83.550993
825.000000	83.526481
824.000000	83.435859
823.000000	83.235135
822.000000	82.864499
821.000000	82.312155
820.000000	81.635747
819.000000	80.928606
818.000000	80.286620
817.000000	79.745454
816.000000	79.145995
815.000000	78.079816
814.000000	76.142844
813.000000	73.401076
812.000000	70.563463
811.000000	68.518547
810.000000	67.612044
809.000000	67.411813
808.000000	67.186097
807.000000	66.554880
806.000000	65.686110
805.000000	64.996663
804.000000	64.809613
803.000000	65.238348
802.000000	66.231195
801.000000	67.636218
800.000000	69.257821
799.000000	70.923087
798.000000	72.520028
797.000000	73.987096
796.000000	75.290504
795.000000	76.425777
794.000000	77.418502
793.000000	78.297304
792.000000	79.073008
791.000000	79.753304
790.000000	80.360447
789.000000	80.913466
788.000000	81.409524
787.000000	81.844565
786.000000	82.240155
785.000000	82.628532
784.000000	83.018606
783.000000	83.396927
782.000000	83.754242
781.000000	84.092145
780.000000	84.412781
779.000000	84.722145
778.000000	85.035430
777.000000	85.358228
776.000000	85.668724
775.000000	85.939454
774.000000	86.171655
773.000000	86.389779
772.000000	86.609625
771.000000	86.831283
770.000000	87.054324
769.000000	87.276439
768.000000	87.483106
767.000000	87.661574
766.000000	87.821744
765.000000	87.983496
764.000000	88.149189
763.000000	88.308244
762.000000	88.460704
761.000000	88.612742
760.000000	88.755481
759.000000	88.873413
758.000000	88.970862
757.000000	89.068509
756.000000	89.176801
755.000000	89.291965
754.000000	89.410751
753.000000	89.527025
752.000000	89.621863
751.000000	89.683577
750.000000	89.734191
749.000000	89.811272
748.000000	89.924622
747.000000	90.052030
746.000000	90.175560
745.000000	90.299658
744.000000	90.433985
743.000000	90.579319
742.000000	90.732517
741.000000	90.889655
740.000000	91.044697
739.000000	91.197314
738.000000	91.357040
737.000000	91.527590
736.000000	91.696503
735.000000	91.853826
734.000000	92.008786
733.000000	92.170202
732.000000	92.322718
731.000000	92.443769
730.000000	92.535027
729.000000	92.617975
728.000000	92.705992
727.000000	92.795547
726.000000	92.872680
725.000000	92.914316
724.000000	92.897709
723.000000	92.822690
722.000000	92.705990
721.000000	92.536074
720.000000	92.240920
719.000000	91.697682
718.000000	90.731919
717.000000	89.080606
716.000000	86.417139
715.000000	82.516104
714.000000	77.444669
713.000000	71.565217
712.000000	65.313382
711.000000	58.959797
710.000000	52.601736
709.000000	46.396508
708.000000	40.742617
707.000000	36.164494
706.000000	33.017235
705.000000	31.327315
704.000000	30.882725
703.000000	31.408554
702.000000	32.663406
701.000000	34.449672
700.000000	36.606289
699.000000	39.020379
698.000000	41.621487
697.000000	44.339644
696.000000	47.089675
695.000000	49.809711
694.000000	52.480706
693.000000	55.083024
692.000000	57.564607
691.000000	59.851148
690.000000	61.778954
689.000000	62.933579
688.000000	62.679616
687.000000	60.595598
686.000000	57.021892
685.000000	53.168964
684.000000	50.568966
683.000000	50.240349
682.000000	52.220808
681.000000	55.773687
680.000000	59.962629
679.000000	64.114387
678.000000	67.903122
677.000000	71.183704
676.000000	73.889873
675.000000	75.928464
674.000000	76.903953
673.000000	76.109255
672.000000	73.157883
671.000000	68.315165
670.000000	61.845296
669.000000	53.664377
668.000000	44.925373
667.000000	38.819389
666.000000	36.827697
665.000000	37.703043
664.000000	40.105846
663.000000	43.253133
662.000000	46.530742
661.000000	49.533372
660.000000	52.155120
659.000000	54.408268
658.000000	56.311937
657.000000	57.952232
656.000000	59.437471
655.000000	60.794363
654.000000	62.013729
653.000000	63.137239
652.000000	64.197157
651.000000	65.147755
650.000000	65.958675
649.000000	66.697614
648.000000	67.427393
647.000000	68.111025
646.000000	68.709562
645.000000	69.275196
644.000000	69.858780
643.000000	70.416690
642.000000	70.903748
641.000000	71.364400
640.000000	71.843379
639.000000	72.296282
638.000000	72.677058
637.000000	73.029691
636.000000	73.404826
635.000000	73.769681
634.000000	74.084699
633.000000	74.388170
632.000000	74.716872
631.000000	75.029210
630.000000	75.287752
629.000000	75.540583
628.000000	75.839371
627.000000	76.155556
626.000000	76.448067
625.000000	76.736815
624.000000	77.037637
623.000000	77.302895
622.000000	77.488133
621.000000	77.581818
620.000000	77.521205
619.000000	77.218565
618.000000	76.770454
617.000000	76.501230
616.000000	76.659462
615.000000	77.154563
614.000000	77.710547
613.000000	78.178151
612.000000	78.573706
611.000000	78.922942
610.000000	79.218465
609.000000	79.484532
608.000000	79.754928
607.000000	80.013303
606.000000	80.237880
605.000000	80.458161
604.000000	80.688699
603.000000	80.879077
602.000000	81.011654
601.000000	81.170261
600.000000	81.418658
599.000000	81.690450
598.000000	81.891712
597.000000	82.035091
596.000000	82.181646
595.000000	82.326868
594.000000	82.444215
593.000000	82.567831
592.000000	82.736475
591.000000	82.915072
590.000000	83.063071
589.000000	83.214711
588.000000	83.410179
587.000000	83.618437
586.000000	83.801853
585.000000	83.985252
584.000000	84.186132
583.000000	84.358017
582.000000	84.475544
581.000000	84.589868
580.000000	84.723112
579.000000	84.811242
578.000000	84.829894
577.000000	84.869680
576.000000	84.993106
575.000000	85.122990
574.000000	85.174468
573.000000	85.191530
572.000000	85.238740
571.000000	85.259739
570.000000	85.156860
569.000000	84.921118
568.000000	84.577019
567.000000	84.072487
566.000000	83.330873
565.000000	82.330972
564.000000	81.046100
563.000000	79.403941
562.000000	77.383026
561.000000	75.064910
560.000000	72.540827
559.000000	69.862604
558.000000	67.127483
557.000000	64.508832
556.000000	62.162185
555.000000	60.165577
554.000000	58.557467
553.000000	57.354315
552.000000	56.510925
551.000000	55.916174
550.000000	55.464292
549.000000	55.124844
548.000000	54.906123
547.000000	54.780696
546.000000	54.690058
545.000000	54.601390
544.000000	54.528042
543.000000	54.503785
542.000000	54.567083
541.000000	54.750165
540.000000	55.052891
539.000000	55.450142
538.000000	55.940855
537.000000	56.551197
536.000000	57.263847
535.000000	57.993522
534.000000	58.686712
533.000000	59.391481
532.000000	60.163717
531.000000	60.959612
530.000000	61.689487
529.000000	62.335530
528.000000	62.940925
527.000000	63.531678
526.000000	64.119166
525.000000	64.727322
524.000000	65.341725
523.000000	65.890038
522.000000	66.345667
521.000000	66.786823
520.000000	67.281885
519.000000	67.780201
518.000000	68.201690
517.000000	68.568433
516.000000	68.949864
515.000000	69.347844
514.000000	69.734485
513.000000	70.123807
512.000000	70.516682
511.000000	70.851312
510.000000	71.102945
509.000000	71.355705
508.000000	71.684139
507.000000	72.042597
506.000000	72.359950
505.000000	72.664898
504.000000	73.017605
503.000000	73.405601
502.000000	73.795513
501.000000	74.200057
500.000000	74.596361
499.000000	74.885983
498.000000	75.040930
497.000000	75.186738
496.000000	75.434416
495.000000	75.728671
494.000000	75.969656
493.000000	76.178284
492.000000	76.418065
491.000000	76.659696
490.000000	76.858100
489.000000	77.064548
488.000000	77.338093
487.000000	77.639850
486.000000	77.922090
485.000000	78.210727
484.000000	78.491335
483.000000	78.645262
482.000000	78.640538
481.000000	78.635965
480.000000	78.757730
479.000000	78.927814
478.000000	79.029409
477.000000	79.102209
476.000000	79.223040
475.000000	79.343829
474.000000	79.410906
473.000000	79.504881
472.000000	79.682477
471.000000	79.833960
470.000000	79.892967
469.000000	80.000159
468.000000	80.275231
467.000000	80.589696
466.000000	80.753774
465.000000	80.805482
464.000000	80.910894
463.000000	81.111119
462.000000	81.337212
461.000000	81.533907
460.000000	81.623086
459.000000	81.503093
458.000000	81.267195
457.000000	81.230464
456.000000	81.502621
455.000000	81.805316
454.000000	81.896631
453.000000	81.886777
452.000000	81.995251
451.000000	82.211436
450.000000	82.382573
449.000000	82.460319
448.000000	82.455847
447.000000	82.342010
446.000000	82.185860
445.000000	82.177649
444.000000	82.346105
443.000000	82.421131
442.000000	82.183647
441.000000	81.770288
440.000000	81.394693
439.000000	81.026474
438.000000	80.554022
437.000000	80.013466
436.000000	79.443968
435.000000	78.705405
434.000000	77.696744
433.000000	76.583842
432.000000	75.639771
431.000000	75.034036
430.000000	74.888921
429.000000	75.329170
428.000000	76.279511
427.000000	77.365090
426.000000	78.242931
425.000000	78.948095
424.000000	79.657650
423.000000	80.300711
422.000000	80.719218
421.000000	80.995051
420.000000	81.300106
419.000000	81.603373
418.000000	81.885730
417.000000	82.370793
416.000000	83.020045
415.000000	83.386874
414.000000	83.217337
413.000000	82.835902
412.000000	82.647821
411.000000	82.569192
410.000000	82.344525
409.000000	82.061780
408.000000	81.915498
407.000000	81.822634
406.000000	81.704563
405.000000	81.764701
404.000000	82.060690
403.000000	82.238495
402.000000	82.124335
401.000000	82.187618
400.000000	82.809221
