Created as New Dataset,Sample 135 By YargerLab Date Wednesday, June 05 2024
cm-1,A
4000.00,0.0033
3999.00,0.0033
3998.00,0.0033
3997.00,0.0033
3996.00,0.0033
3995.00,0.0033
3994.00,0.0033
3993.00,0.0033
3992.00,0.0033
3991.00,0.0033
3990.00,0.0033
3989.00,0.0033
3988.00,0.0033
3987.00,0.0033
3986.00,0.0033
3985.00,0.0033
3984.00,0.0033
3983.00,0.0033
3982.00,0.0033
3981.00,0.0033
3980.00,0.0033
3979.00,0.0033
3978.00,0.0033
3977.00,0.0033
3976.00,0.0033
3975.00,0.0033
3974.00,0.0033
3973.00,0.0032
3972.00,0.0032
3971.00,0.0032
3970.00,0.0032
3969.00,0.0032
3968.00,0.0032
3967.00,0.0032
3966.00,0.0032
3965.00,0.0033
3964.00,0.0033
3963.00,0.0033
3962.00,0.0033
3961.00,0.0033
3960.00,0.0033
3959.00,0.0033
3958.00,0.0033
3957.00,0.0033
3956.00,0.0033
3955.00,0.0032
3954.00,0.0032
3953.00,0.0032
3952.00,0.0032
3951.00,0.0033
3950.00,0.0033
3949.00,0.0033
3948.00,0.0033
3947.00,0.0033
3946.00,0.0033
3945.00,0.0033
3944.00,0.0032
3943.00,0.0032
3942.00,0.0032
3941.00,0.0032
3940.00,0.0032
3939.00,0.0033
3938.00,0.0033
3937.00,0.0033
3936.00,0.0033
3935.00,0.0033
3934.00,0.0033
3933.00,0.0033
3932.00,0.0033
3931.00,0.0033
3930.00,0.0032
3929.00,0.0032
3928.00,0.0032
3927.00,0.0032
3926.00,0.0032
3925.00,0.0032
3924.00,0.0032
3923.00,0.0032
3922.00,0.0032
3921.00,0.0032
3920.00,0.0032
3919.00,0.0032
3918.00,0.0032
3917.00,0.0032
3916.00,0.0032
3915.00,0.0031
3914.00,0.0032
3913.00,0.0032
3912.00,0.0032
3911.00,0.0032
3910.00,0.0032
3909.00,0.0032
3908.00,0.0032
3907.00,0.0032
3906.00,0.0033
3905.00,0.0033
3904.00,0.0033
3903.00,0.0033
3902.00,0.0032
3901.00,0.0032
3900.00,0.0032
3899.00,0.0032
3898.00,0.0032
3897.00,0.0032
3896.00,0.0032
3895.00,0.0032
3894.00,0.0032
3893.00,0.0032
3892.00,0.0031
3891.00,0.0031
3890.00,0.0031
3889.00,0.0031
3888.00,0.0032
3887.00,0.0032
3886.00,0.0032
3885.00,0.0032
3884.00,0.0032
3883.00,0.0032
3882.00,0.0032
3881.00,0.0032
3880.00,0.0032
3879.00,0.0031
3878.00,0.0031
3877.00,0.0031
3876.00,0.0032
3875.00,0.0032
3874.00,0.0032
3873.00,0.0032
3872.00,0.0032
3871.00,0.0032
3870.00,0.0032
3869.00,0.0032
3868.00,0.0032
3867.00,0.0032
3866.00,0.0032
3865.00,0.0032
3864.00,0.0032
3863.00,0.0032
3862.00,0.0032
3861.00,0.0032
3860.00,0.0032
3859.00,0.0032
3858.00,0.0032
3857.00,0.0032
3856.00,0.0032
3855.00,0.0032
3854.00,0.0032
3853.00,0.0032
3852.00,0.0031
3851.00,0.0031
3850.00,0.0031
3849.00,0.0032
3848.00,0.0032
3847.00,0.0032
3846.00,0.0032
3845.00,0.0032
3844.00,0.0032
3843.00,0.0032
3842.00,0.0032
3841.00,0.0032
3840.00,0.0032
3839.00,0.0031
3838.00,0.0031
3837.00,0.0031
3836.00,0.0031
3835.00,0.0032
3834.00,0.0032
3833.00,0.0032
3832.00,0.0032
3831.00,0.0031
3830.00,0.0032
3829.00,0.0032
3828.00,0.0032
3827.00,0.0032
3826.00,0.0032
3825.00,0.0032
3824.00,0.0032
3823.00,0.0032
3822.00,0.0032
3821.00,0.0032
3820.00,0.0032
3819.00,0.0031
3818.00,0.0031
3817.00,0.0031
3816.00,0.0031
3815.00,0.0031
3814.00,0.0031
3813.00,0.0031
3812.00,0.0031
3811.00,0.0031
3810.00,0.0031
3809.00,0.0031
3808.00,0.0032
3807.00,0.0032
3806.00,0.0032
3805.00,0.0031
3804.00,0.0031
3803.00,0.0031
3802.00,0.0031
3801.00,0.0031
3800.00,0.0031
3799.00,0.0032
3798.00,0.0032
3797.00,0.0032
3796.00,0.0032
3795.00,0.0032
3794.00,0.0032
3793.00,0.0031
3792.00,0.0031
3791.00,0.0031
3790.00,0.0031
3789.00,0.0031
3788.00,0.0031
3787.00,0.0031
3786.00,0.0032
3785.00,0.0032
3784.00,0.0032
3783.00,0.0031
3782.00,0.0031
3781.00,0.0031
3780.00,0.0032
3779.00,0.0031
3778.00,0.0031
3777.00,0.0031
3776.00,0.0031
3775.00,0.0031
3774.00,0.0031
3773.00,0.0031
3772.00,0.0031
3771.00,0.0031
3770.00,0.0031
3769.00,0.0031
3768.00,0.0031
3767.00,0.0031
3766.00,0.0032
3765.00,0.0032
3764.00,0.0031
3763.00,0.0031
3762.00,0.0031
3761.00,0.0031
3760.00,0.0031
3759.00,0.0031
3758.00,0.0031
3757.00,0.0031
3756.00,0.0031
3755.00,0.0031
3754.00,0.0031
3753.00,0.0030
3752.00,0.0030
3751.00,0.0030
3750.00,0.0031
3749.00,0.0031
3748.00,0.0031
3747.00,0.0031
3746.00,0.0030
3745.00,0.0030
3744.00,0.0029
3743.00,0.0029
3742.00,0.0029
3741.00,0.0030
3740.00,0.0030
3739.00,0.0031
3738.00,0.0032
3737.00,0.0032
3736.00,0.0032
3735.00,0.0031
3734.00,0.0031
3733.00,0.0030
3732.00,0.0031
3731.00,0.0031
3730.00,0.0031
3729.00,0.0032
3728.00,0.0032
3727.00,0.0032
3726.00,0.0031
3725.00,0.0031
3724.00,0.0031
3723.00,0.0031
3722.00,0.0031
3721.00,0.0031
3720.00,0.0030
3719.00,0.0030
3718.00,0.0030
3717.00,0.0030
3716.00,0.0030
3715.00,0.0030
3714.00,0.0030
3713.00,0.0030
3712.00,0.0030
3711.00,0.0030
3710.00,0.0030
3709.00,0.0030
3708.00,0.0030
3707.00,0.0030
3706.00,0.0031
3705.00,0.0031
3704.00,0.0031
3703.00,0.0031
3702.00,0.0031
3701.00,0.0030
3700.00,0.0030
3699.00,0.0030
3698.00,0.0030
3697.00,0.0030
3696.00,0.0030
3695.00,0.0030
3694.00,0.0030
3693.00,0.0031
3692.00,0.0031
3691.00,0.0031
3690.00,0.0031
3689.00,0.0030
3688.00,0.0030
3687.00,0.0030
3686.00,0.0030
3685.00,0.0031
3684.00,0.0031
3683.00,0.0031
3682.00,0.0031
3681.00,0.0030
3680.00,0.0030
3679.00,0.0031
3678.00,0.0031
3677.00,0.0031
3676.00,0.0031
3675.00,0.0031
3674.00,0.0031
3673.00,0.0031
3672.00,0.0031
3671.00,0.0032
3670.00,0.0032
3669.00,0.0032
3668.00,0.0032
3667.00,0.0032
3666.00,0.0032
3665.00,0.0032
3664.00,0.0032
3663.00,0.0032
3662.00,0.0032
3661.00,0.0033
3660.00,0.0033
3659.00,0.0033
3658.00,0.0034
3657.00,0.0034
3656.00,0.0034
3655.00,0.0034
3654.00,0.0033
3653.00,0.0033
3652.00,0.0033
3651.00,0.0033
3650.00,0.0034
3649.00,0.0034
3648.00,0.0034
3647.00,0.0034
3646.00,0.0034
3645.00,0.0034
3644.00,0.0035
3643.00,0.0035
3642.00,0.0035
3641.00,0.0035
3640.00,0.0036
3639.00,0.0036
3638.00,0.0036
3637.00,0.0036
3636.00,0.0036
3635.00,0.0037
3634.00,0.0037
3633.00,0.0037
3632.00,0.0037
3631.00,0.0037
3630.00,0.0038
3629.00,0.0038
3628.00,0.0039
3627.00,0.0039
3626.00,0.0039
3625.00,0.0040
3624.00,0.0040
3623.00,0.0040
3622.00,0.0040
3621.00,0.0040
3620.00,0.0040
3619.00,0.0041
3618.00,0.0041
3617.00,0.0042
3616.00,0.0042
3615.00,0.0042
3614.00,0.0042
3613.00,0.0042
3612.00,0.0042
3611.00,0.0043
3610.00,0.0043
3609.00,0.0044
3608.00,0.0044
3607.00,0.0044
3606.00,0.0045
3605.00,0.0045
3604.00,0.0045
3603.00,0.0045
3602.00,0.0045
3601.00,0.0045
3600.00,0.0046
3599.00,0.0046
3598.00,0.0047
3597.00,0.0047
3596.00,0.0047
3595.00,0.0047
3594.00,0.0048
3593.00,0.0048
3592.00,0.0048
3591.00,0.0047
3590.00,0.0047
3589.00,0.0048
3588.00,0.0048
3587.00,0.0048
3586.00,0.0049
3585.00,0.0049
3584.00,0.0050
3583.00,0.0050
3582.00,0.0050
3581.00,0.0051
3580.00,0.0051
3579.00,0.0051
3578.00,0.0051
3577.00,0.0052
3576.00,0.0052
3575.00,0.0053
3574.00,0.0053
3573.00,0.0053
3572.00,0.0053
3571.00,0.0053
3570.00,0.0053
3569.00,0.0053
3568.00,0.0054
3567.00,0.0055
3566.00,0.0055
3565.00,0.0055
3564.00,0.0056
3563.00,0.0056
3562.00,0.0056
3561.00,0.0056
3560.00,0.0056
3559.00,0.0057
3558.00,0.0057
3557.00,0.0058
3556.00,0.0058
3555.00,0.0059
3554.00,0.0059
3553.00,0.0059
3552.00,0.0060
3551.00,0.0060
3550.00,0.0060
3549.00,0.0061
3548.00,0.0061
3547.00,0.0062
3546.00,0.0062
3545.00,0.0063
3544.00,0.0063
3543.00,0.0063
3542.00,0.0063
3541.00,0.0063
3540.00,0.0064
3539.00,0.0064
3538.00,0.0064
3537.00,0.0064
3536.00,0.0065
3535.00,0.0065
3534.00,0.0066
3533.00,0.0066
3532.00,0.0066
3531.00,0.0066
3530.00,0.0066
3529.00,0.0066
3528.00,0.0066
3527.00,0.0067
3526.00,0.0067
3525.00,0.0067
3524.00,0.0067
3523.00,0.0068
3522.00,0.0068
3521.00,0.0069
3520.00,0.0070
3519.00,0.0070
3518.00,0.0071
3517.00,0.0071
3516.00,0.0071
3515.00,0.0071
3514.00,0.0071
3513.00,0.0071
3512.00,0.0072
3511.00,0.0072
3510.00,0.0073
3509.00,0.0073
3508.00,0.0074
3507.00,0.0074
3506.00,0.0074
3505.00,0.0074
3504.00,0.0074
3503.00,0.0075
3502.00,0.0075
3501.00,0.0075
3500.00,0.0075
3499.00,0.0075
3498.00,0.0076
3497.00,0.0076
3496.00,0.0076
3495.00,0.0077
3494.00,0.0077
3493.00,0.0077
3492.00,0.0077
3491.00,0.0077
3490.00,0.0077
3489.00,0.0078
3488.00,0.0078
3487.00,0.0078
3486.00,0.0079
3485.00,0.0079
3484.00,0.0079
3483.00,0.0080
3482.00,0.0080
3481.00,0.0080
3480.00,0.0081
3479.00,0.0081
3478.00,0.0081
3477.00,0.0082
3476.00,0.0082
3475.00,0.0083
3474.00,0.0083
3473.00,0.0083
3472.00,0.0083
3471.00,0.0083
3470.00,0.0083
3469.00,0.0084
3468.00,0.0084
3467.00,0.0085
3466.00,0.0085
3465.00,0.0085
3464.00,0.0086
3463.00,0.0087
3462.00,0.0087
3461.00,0.0087
3460.00,0.0087
3459.00,0.0087
3458.00,0.0088
3457.00,0.0088
3456.00,0.0088
3455.00,0.0089
3454.00,0.0089
3453.00,0.0089
3452.00,0.0089
3451.00,0.0090
3450.00,0.0090
3449.00,0.0090
3448.00,0.0091
3447.00,0.0091
3446.00,0.0091
3445.00,0.0092
3444.00,0.0092
3443.00,0.0092
3442.00,0.0093
3441.00,0.0093
3440.00,0.0094
3439.00,0.0094
3438.00,0.0094
3437.00,0.0094
3436.00,0.0094
3435.00,0.0095
3434.00,0.0095
3433.00,0.0096
3432.00,0.0096
3431.00,0.0097
3430.00,0.0097
3429.00,0.0097
3428.00,0.0097
3427.00,0.0097
3426.00,0.0098
3425.00,0.0098
3424.00,0.0099
3423.00,0.0100
3422.00,0.0100
3421.00,0.0101
3420.00,0.0101
3419.00,0.0102
3418.00,0.0102
3417.00,0.0102
3416.00,0.0102
3415.00,0.0102
3414.00,0.0103
3413.00,0.0103
3412.00,0.0104
3411.00,0.0104
3410.00,0.0105
3409.00,0.0105
3408.00,0.0105
3407.00,0.0106
3406.00,0.0106
3405.00,0.0107
3404.00,0.0107
3403.00,0.0107
3402.00,0.0108
3401.00,0.0108
3400.00,0.0109
3399.00,0.0109
3398.00,0.0109
3397.00,0.0110
3396.00,0.0110
3395.00,0.0110
3394.00,0.0111
3393.00,0.0111
3392.00,0.0112
3391.00,0.0112
3390.00,0.0112
3389.00,0.0113
3388.00,0.0113
3387.00,0.0113
3386.00,0.0114
3385.00,0.0114
3384.00,0.0115
3383.00,0.0115
3382.00,0.0115
3381.00,0.0116
3380.00,0.0116
3379.00,0.0117
3378.00,0.0117
3377.00,0.0118
3376.00,0.0118
3375.00,0.0118
3374.00,0.0119
3373.00,0.0119
3372.00,0.0119
3371.00,0.0119
3370.00,0.0120
3369.00,0.0120
3368.00,0.0121
3367.00,0.0122
3366.00,0.0123
3365.00,0.0124
3364.00,0.0124
3363.00,0.0125
3362.00,0.0125
3361.00,0.0126
3360.00,0.0127
3359.00,0.0128
3358.00,0.0128
3357.00,0.0129
3356.00,0.0129
3355.00,0.0130
3354.00,0.0130
3353.00,0.0131
3352.00,0.0131
3351.00,0.0132
3350.00,0.0133
3349.00,0.0134
3348.00,0.0135
3347.00,0.0135
3346.00,0.0136
3345.00,0.0137
3344.00,0.0137
3343.00,0.0138
3342.00,0.0139
3341.00,0.0140
3340.00,0.0141
3339.00,0.0141
3338.00,0.0142
3337.00,0.0143
3336.00,0.0144
3335.00,0.0145
3334.00,0.0146
3333.00,0.0147
3332.00,0.0148
3331.00,0.0148
3330.00,0.0149
3329.00,0.0150
3328.00,0.0151
3327.00,0.0152
3326.00,0.0153
3325.00,0.0155
3324.00,0.0156
3323.00,0.0157
3322.00,0.0158
3321.00,0.0159
3320.00,0.0160
3319.00,0.0161
3318.00,0.0162
3317.00,0.0163
3316.00,0.0164
3315.00,0.0165
3314.00,0.0167
3313.00,0.0168
3312.00,0.0169
3311.00,0.0170
3310.00,0.0171
3309.00,0.0172
3308.00,0.0173
3307.00,0.0174
3306.00,0.0175
3305.00,0.0176
3304.00,0.0178
3303.00,0.0179
3302.00,0.0181
3301.00,0.0182
3300.00,0.0183
3299.00,0.0184
3298.00,0.0185
3297.00,0.0186
3296.00,0.0188
3295.00,0.0189
3294.00,0.0190
3293.00,0.0191
3292.00,0.0193
3291.00,0.0194
3290.00,0.0195
3289.00,0.0196
3288.00,0.0197
3287.00,0.0197
3286.00,0.0198
3285.00,0.0199
3284.00,0.0200
3283.00,0.0201
3282.00,0.0201
3281.00,0.0202
3280.00,0.0202
3279.00,0.0203
3278.00,0.0203
3277.00,0.0204
3276.00,0.0204
3275.00,0.0204
3274.00,0.0203
3273.00,0.0203
3272.00,0.0203
3271.00,0.0202
3270.00,0.0202
3269.00,0.0202
3268.00,0.0201
3267.00,0.0200
3266.00,0.0199
3265.00,0.0198
3264.00,0.0198
3263.00,0.0197
3262.00,0.0195
3261.00,0.0194
3260.00,0.0193
3259.00,0.0191
3258.00,0.0190
3257.00,0.0189
3256.00,0.0188
3255.00,0.0187
3254.00,0.0185
3253.00,0.0184
3252.00,0.0183
3251.00,0.0182
3250.00,0.0181
3249.00,0.0180
3248.00,0.0179
3247.00,0.0178
3246.00,0.0176
3245.00,0.0176
3244.00,0.0175
3243.00,0.0175
3242.00,0.0174
3241.00,0.0173
3240.00,0.0172
3239.00,0.0172
3238.00,0.0170
3237.00,0.0169
3236.00,0.0168
3235.00,0.0167
3234.00,0.0166
3233.00,0.0166
3232.00,0.0165
3231.00,0.0165
3230.00,0.0164
3229.00,0.0164
3228.00,0.0163
3227.00,0.0163
3226.00,0.0162
3225.00,0.0161
3224.00,0.0161
3223.00,0.0160
3222.00,0.0159
3221.00,0.0159
3220.00,0.0159
3219.00,0.0159
3218.00,0.0158
3217.00,0.0157
3216.00,0.0157
3215.00,0.0156
3214.00,0.0156
3213.00,0.0155
3212.00,0.0155
3211.00,0.0154
3210.00,0.0153
3209.00,0.0153
3208.00,0.0152
3207.00,0.0152
3206.00,0.0151
3205.00,0.0150
3204.00,0.0150
3203.00,0.0149
3202.00,0.0149
3201.00,0.0148
3200.00,0.0148
3199.00,0.0147
3198.00,0.0146
3197.00,0.0146
3196.00,0.0145
3195.00,0.0145
3194.00,0.0144
3193.00,0.0143
3192.00,0.0143
3191.00,0.0142
3190.00,0.0141
3189.00,0.0140
3188.00,0.0140
3187.00,0.0139
3186.00,0.0138
3185.00,0.0138
3184.00,0.0137
3183.00,0.0136
3182.00,0.0136
3181.00,0.0135
3180.00,0.0134
3179.00,0.0133
3178.00,0.0133
3177.00,0.0132
3176.00,0.0131
3175.00,0.0130
3174.00,0.0129
3173.00,0.0128
3172.00,0.0127
3171.00,0.0127
3170.00,0.0126
3169.00,0.0126
3168.00,0.0125
3167.00,0.0124
3166.00,0.0123
3165.00,0.0123
3164.00,0.0123
3163.00,0.0122
3162.00,0.0121
3161.00,0.0121
3160.00,0.0120
3159.00,0.0119
3158.00,0.0118
3157.00,0.0117
3156.00,0.0117
3155.00,0.0116
3154.00,0.0116
3153.00,0.0115
3152.00,0.0115
3151.00,0.0114
3150.00,0.0114
3149.00,0.0113
3148.00,0.0112
3147.00,0.0112
3146.00,0.0111
3145.00,0.0111
3144.00,0.0111
3143.00,0.0110
3142.00,0.0110
3141.00,0.0110
3140.00,0.0109
3139.00,0.0108
3138.00,0.0107
3137.00,0.0107
3136.00,0.0107
3135.00,0.0107
3134.00,0.0106
3133.00,0.0106
3132.00,0.0106
3131.00,0.0105
3130.00,0.0105
3129.00,0.0105
3128.00,0.0104
3127.00,0.0104
3126.00,0.0104
3125.00,0.0104
3124.00,0.0104
3123.00,0.0104
3122.00,0.0104
3121.00,0.0103
3120.00,0.0103
3119.00,0.0103
3118.00,0.0102
3117.00,0.0102
3116.00,0.0103
3115.00,0.0103
3114.00,0.0103
3113.00,0.0104
3112.00,0.0104
3111.00,0.0104
3110.00,0.0104
3109.00,0.0104
3108.00,0.0104
3107.00,0.0104
3106.00,0.0104
3105.00,0.0104
3104.00,0.0104
3103.00,0.0104
3102.00,0.0104
3101.00,0.0104
3100.00,0.0105
3099.00,0.0105
3098.00,0.0105
3097.00,0.0105
3096.00,0.0106
3095.00,0.0106
3094.00,0.0107
3093.00,0.0107
3092.00,0.0107
3091.00,0.0107
3090.00,0.0107
3089.00,0.0108
3088.00,0.0108
3087.00,0.0108
3086.00,0.0108
3085.00,0.0108
3084.00,0.0108
3083.00,0.0108
3082.00,0.0108
3081.00,0.0108
3080.00,0.0109
3079.00,0.0109
3078.00,0.0109
3077.00,0.0109
3076.00,0.0109
3075.00,0.0109
3074.00,0.0109
3073.00,0.0110
3072.00,0.0110
3071.00,0.0110
3070.00,0.0110
3069.00,0.0110
3068.00,0.0110
3067.00,0.0110
3066.00,0.0110
3065.00,0.0110
3064.00,0.0110
3063.00,0.0110
3062.00,0.0109
3061.00,0.0109
3060.00,0.0109
3059.00,0.0108
3058.00,0.0108
3057.00,0.0108
3056.00,0.0107
3055.00,0.0107
3054.00,0.0107
3053.00,0.0107
3052.00,0.0106
3051.00,0.0106
3050.00,0.0105
3049.00,0.0104
3048.00,0.0103
3047.00,0.0103
3046.00,0.0102
3045.00,0.0101
3044.00,0.0101
3043.00,0.0100
3042.00,0.0100
3041.00,0.0099
3040.00,0.0099
3039.00,0.0099
3038.00,0.0098
3037.00,0.0098
3036.00,0.0098
3035.00,0.0097
3034.00,0.0096
3033.00,0.0096
3032.00,0.0095
3031.00,0.0095
3030.00,0.0095
3029.00,0.0094
3028.00,0.0094
3027.00,0.0093
3026.00,0.0093
3025.00,0.0093
3024.00,0.0092
3023.00,0.0092
3022.00,0.0091
3021.00,0.0091
3020.00,0.0090
3019.00,0.0090
3018.00,0.0089
3017.00,0.0089
3016.00,0.0088
3015.00,0.0088
3014.00,0.0088
3013.00,0.0088
3012.00,0.0088
3011.00,0.0088
3010.00,0.0088
3009.00,0.0087
3008.00,0.0087
3007.00,0.0086
3006.00,0.0086
3005.00,0.0086
3004.00,0.0086
3003.00,0.0087
3002.00,0.0087
3001.00,0.0087
3000.00,0.0087
2999.00,0.0087
2998.00,0.0087
2997.00,0.0087
2996.00,0.0088
2995.00,0.0088
2994.00,0.0088
2993.00,0.0089
2992.00,0.0089
2991.00,0.0090
2990.00,0.0090
2989.00,0.0091
2988.00,0.0091
2987.00,0.0092
2986.00,0.0092
2985.00,0.0093
2984.00,0.0093
2983.00,0.0093
2982.00,0.0093
2981.00,0.0094
2980.00,0.0094
2979.00,0.0095
2978.00,0.0095
2977.00,0.0096
2976.00,0.0096
2975.00,0.0097
2974.00,0.0097
2973.00,0.0098
2972.00,0.0098
2971.00,0.0099
2970.00,0.0099
2969.00,0.0100
2968.00,0.0101
2967.00,0.0101
2966.00,0.0102
2965.00,0.0102
2964.00,0.0102
2963.00,0.0102
2962.00,0.0102
2961.00,0.0103
2960.00,0.0103
2959.00,0.0103
2958.00,0.0103
2957.00,0.0103
2956.00,0.0103
2955.00,0.0103
2954.00,0.0103
2953.00,0.0102
2952.00,0.0102
2951.00,0.0102
2950.00,0.0102
2949.00,0.0102
2948.00,0.0102
2947.00,0.0102
2946.00,0.0103
2945.00,0.0104
2944.00,0.0104
2943.00,0.0105
2942.00,0.0106
2941.00,0.0107
2940.00,0.0108
2939.00,0.0109
2938.00,0.0111
2937.00,0.0112
2936.00,0.0114
2935.00,0.0116
2934.00,0.0117
2933.00,0.0119
2932.00,0.0121
2931.00,0.0122
2930.00,0.0124
2929.00,0.0126
2928.00,0.0127
2927.00,0.0129
2926.00,0.0130
2925.00,0.0132
2924.00,0.0133
2923.00,0.0134
2922.00,0.0135
2921.00,0.0136
2920.00,0.0136
2919.00,0.0136
2918.00,0.0135
2917.00,0.0133
2916.00,0.0130
2915.00,0.0126
2914.00,0.0123
2913.00,0.0119
2912.00,0.0115
2911.00,0.0112
2910.00,0.0110
2909.00,0.0107
2908.00,0.0105
2907.00,0.0104
2906.00,0.0102
2905.00,0.0101
2904.00,0.0100
2903.00,0.0100
2902.00,0.0099
2901.00,0.0098
2900.00,0.0097
2899.00,0.0096
2898.00,0.0095
2897.00,0.0095
2896.00,0.0094
2895.00,0.0094
2894.00,0.0093
2893.00,0.0093
2892.00,0.0093
2891.00,0.0092
2890.00,0.0092
2889.00,0.0091
2888.00,0.0091
2887.00,0.0090
2886.00,0.0089
2885.00,0.0089
2884.00,0.0089
2883.00,0.0089
2882.00,0.0089
2881.00,0.0089
2880.00,0.0089
2879.00,0.0089
2878.00,0.0089
2877.00,0.0089
2876.00,0.0089
2875.00,0.0089
2874.00,0.0089
2873.00,0.0089
2872.00,0.0089
2871.00,0.0089
2870.00,0.0088
2869.00,0.0088
2868.00,0.0087
2867.00,0.0087
2866.00,0.0086
2865.00,0.0086
2864.00,0.0086
2863.00,0.0087
2862.00,0.0087
2861.00,0.0088
2860.00,0.0089
2859.00,0.0090
2858.00,0.0092
2857.00,0.0093
2856.00,0.0095
2855.00,0.0097
2854.00,0.0099
2853.00,0.0101
2852.00,0.0103
2851.00,0.0103
2850.00,0.0102
2849.00,0.0100
2848.00,0.0097
2847.00,0.0094
2846.00,0.0090
2845.00,0.0087
2844.00,0.0084
2843.00,0.0082
2842.00,0.0080
2841.00,0.0078
2840.00,0.0077
2839.00,0.0076
2838.00,0.0075
2837.00,0.0075
2836.00,0.0074
2835.00,0.0073
2834.00,0.0073
2833.00,0.0072
2832.00,0.0072
2831.00,0.0072
2830.00,0.0071
2829.00,0.0071
2828.00,0.0071
2827.00,0.0071
2826.00,0.0071
2825.00,0.0070
2824.00,0.0070
2823.00,0.0070
2822.00,0.0070
2821.00,0.0070
2820.00,0.0069
2819.00,0.0069
2818.00,0.0069
2817.00,0.0069
2816.00,0.0069
2815.00,0.0069
2814.00,0.0068
2813.00,0.0068
2812.00,0.0068
2811.00,0.0068
2810.00,0.0068
2809.00,0.0068
2808.00,0.0067
2807.00,0.0067
2806.00,0.0067
2805.00,0.0067
2804.00,0.0067
2803.00,0.0067
2802.00,0.0067
2801.00,0.0067
2800.00,0.0067
2799.00,0.0067
2798.00,0.0066
2797.00,0.0066
2796.00,0.0066
2795.00,0.0066
2794.00,0.0066
2793.00,0.0066
2792.00,0.0066
2791.00,0.0066
2790.00,0.0066
2789.00,0.0065
2788.00,0.0065
2787.00,0.0064
2786.00,0.0064
2785.00,0.0064
2784.00,0.0064
2783.00,0.0064
2782.00,0.0064
2781.00,0.0064
2780.00,0.0064
2779.00,0.0064
2778.00,0.0064
2777.00,0.0063
2776.00,0.0063
2775.00,0.0063
2774.00,0.0063
2773.00,0.0063
2772.00,0.0063
2771.00,0.0063
2770.00,0.0063
2769.00,0.0063
2768.00,0.0062
2767.00,0.0062
2766.00,0.0062
2765.00,0.0062
2764.00,0.0061
2763.00,0.0061
2762.00,0.0061
2761.00,0.0061
2760.00,0.0061
2759.00,0.0060
2758.00,0.0060
2757.00,0.0060
2756.00,0.0060
2755.00,0.0060
2754.00,0.0060
2753.00,0.0060
2752.00,0.0060
2751.00,0.0060
2750.00,0.0060
2749.00,0.0059
2748.00,0.0059
2747.00,0.0059
2746.00,0.0059
2745.00,0.0059
2744.00,0.0059
2743.00,0.0059
2742.00,0.0059
2741.00,0.0059
2740.00,0.0059
2739.00,0.0059
2738.00,0.0059
2737.00,0.0058
2736.00,0.0058
2735.00,0.0058
2734.00,0.0058
2733.00,0.0058
2732.00,0.0058
2731.00,0.0058
2730.00,0.0058
2729.00,0.0057
2728.00,0.0057
2727.00,0.0057
2726.00,0.0057
2725.00,0.0057
2724.00,0.0056
2723.00,0.0056
2722.00,0.0056
2721.00,0.0056
2720.00,0.0056
2719.00,0.0056
2718.00,0.0056
2717.00,0.0056
2716.00,0.0056
2715.00,0.0056
2714.00,0.0055
2713.00,0.0055
2712.00,0.0055
2711.00,0.0055
2710.00,0.0055
2709.00,0.0055
2708.00,0.0055
2707.00,0.0054
2706.00,0.0054
2705.00,0.0054
2704.00,0.0054
2703.00,0.0054
2702.00,0.0054
2701.00,0.0054
2700.00,0.0054
2699.00,0.0054
2698.00,0.0055
2697.00,0.0055
2696.00,0.0055
2695.00,0.0055
2694.00,0.0055
2693.00,0.0054
2692.00,0.0054
2691.00,0.0054
2690.00,0.0053
2689.00,0.0053
2688.00,0.0053
2687.00,0.0053
2686.00,0.0053
2685.00,0.0053
2684.00,0.0054
2683.00,0.0054
2682.00,0.0054
2681.00,0.0054
2680.00,0.0053
2679.00,0.0053
2678.00,0.0053
2677.00,0.0053
2676.00,0.0053
2675.00,0.0053
2674.00,0.0053
2673.00,0.0053
2672.00,0.0053
2671.00,0.0053
2670.00,0.0053
2669.00,0.0052
2668.00,0.0052
2667.00,0.0052
2666.00,0.0052
2665.00,0.0052
2664.00,0.0052
2663.00,0.0052
2662.00,0.0052
2661.00,0.0053
2660.00,0.0053
2659.00,0.0053
2658.00,0.0053
2657.00,0.0053
2656.00,0.0053
2655.00,0.0053
2654.00,0.0052
2653.00,0.0052
2652.00,0.0052
2651.00,0.0052
2650.00,0.0052
2649.00,0.0052
2648.00,0.0052
2647.00,0.0052
2646.00,0.0052
2645.00,0.0052
2644.00,0.0052
2643.00,0.0052
2642.00,0.0052
2641.00,0.0052
2640.00,0.0051
2639.00,0.0052
2638.00,0.0052
2637.00,0.0052
2636.00,0.0052
2635.00,0.0051
2634.00,0.0051
2633.00,0.0051
2632.00,0.0051
2631.00,0.0051
2630.00,0.0051
2629.00,0.0051
2628.00,0.0052
2627.00,0.0052
2626.00,0.0051
2625.00,0.0051
2624.00,0.0051
2623.00,0.0050
2622.00,0.0050
2621.00,0.0050
2620.00,0.0050
2619.00,0.0050
2618.00,0.0050
2617.00,0.0050
2616.00,0.0050
2615.00,0.0050
2614.00,0.0050
2613.00,0.0050
2612.00,0.0050
2611.00,0.0050
2610.00,0.0050
2609.00,0.0050
2608.00,0.0050
2607.00,0.0050
2606.00,0.0049
2605.00,0.0049
2604.00,0.0049
2603.00,0.0049
2602.00,0.0049
2601.00,0.0050
2600.00,0.0050
2599.00,0.0049
2598.00,0.0049
2597.00,0.0049
2596.00,0.0049
2595.00,0.0048
2594.00,0.0048
2593.00,0.0048
2592.00,0.0048
2591.00,0.0048
2590.00,0.0048
2589.00,0.0048
2588.00,0.0048
2587.00,0.0049
2586.00,0.0049
2585.00,0.0049
2584.00,0.0049
2583.00,0.0048
2582.00,0.0048
2581.00,0.0048
2580.00,0.0048
2579.00,0.0048
2578.00,0.0047
2577.00,0.0047
2576.00,0.0047
2575.00,0.0047
2574.00,0.0048
2573.00,0.0048
2572.00,0.0048
2571.00,0.0048
2570.00,0.0048
2569.00,0.0048
2568.00,0.0048
2567.00,0.0048
2566.00,0.0048
2565.00,0.0048
2564.00,0.0047
2563.00,0.0047
2562.00,0.0046
2561.00,0.0046
2560.00,0.0046
2559.00,0.0046
2558.00,0.0046
2557.00,0.0046
2556.00,0.0046
2555.00,0.0047
2554.00,0.0047
2553.00,0.0047
2552.00,0.0047
2551.00,0.0046
2550.00,0.0046
2549.00,0.0046
2548.00,0.0046
2547.00,0.0046
2546.00,0.0046
2545.00,0.0046
2544.00,0.0046
2543.00,0.0046
2542.00,0.0045
2541.00,0.0045
2540.00,0.0045
2539.00,0.0046
2538.00,0.0046
2537.00,0.0046
2536.00,0.0046
2535.00,0.0046
2534.00,0.0046
2533.00,0.0045
2532.00,0.0045
2531.00,0.0045
2530.00,0.0045
2529.00,0.0045
2528.00,0.0045
2527.00,0.0045
2526.00,0.0045
2525.00,0.0045
2524.00,0.0045
2523.00,0.0045
2522.00,0.0045
2521.00,0.0045
2520.00,0.0045
2519.00,0.0045
2518.00,0.0045
2517.00,0.0045
2516.00,0.0044
2515.00,0.0044
2514.00,0.0044
2513.00,0.0044
2512.00,0.0044
2511.00,0.0044
2510.00,0.0044
2509.00,0.0044
2508.00,0.0044
2507.00,0.0044
2506.00,0.0044
2505.00,0.0044
2504.00,0.0044
2503.00,0.0044
2502.00,0.0044
2501.00,0.0045
2500.00,0.0045
2499.00,0.0044
2498.00,0.0044
2497.00,0.0044
2496.00,0.0043
2495.00,0.0043
2494.00,0.0044
2493.00,0.0044
2492.00,0.0044
2491.00,0.0044
2490.00,0.0044
2489.00,0.0044
2488.00,0.0044
2487.00,0.0044
2486.00,0.0044
2485.00,0.0044
2484.00,0.0044
2483.00,0.0044
2482.00,0.0044
2481.00,0.0044
2480.00,0.0044
2479.00,0.0044
2478.00,0.0044
2477.00,0.0044
2476.00,0.0044
2475.00,0.0045
2474.00,0.0044
2473.00,0.0044
2472.00,0.0044
2471.00,0.0043
2470.00,0.0043
2469.00,0.0044
2468.00,0.0044
2467.00,0.0044
2466.00,0.0044
2465.00,0.0044
2464.00,0.0044
2463.00,0.0043
2462.00,0.0043
2461.00,0.0043
2460.00,0.0043
2459.00,0.0043
2458.00,0.0043
2457.00,0.0043
2456.00,0.0044
2455.00,0.0044
2454.00,0.0044
2453.00,0.0043
2452.00,0.0043
2451.00,0.0043
2450.00,0.0043
2449.00,0.0043
2448.00,0.0043
2447.00,0.0042
2446.00,0.0042
2445.00,0.0042
2444.00,0.0043
2443.00,0.0043
2442.00,0.0043
2441.00,0.0043
2440.00,0.0042
2439.00,0.0042
2438.00,0.0042
2437.00,0.0042
2436.00,0.0042
2435.00,0.0042
2434.00,0.0042
2433.00,0.0042
2432.00,0.0042
2431.00,0.0042
2430.00,0.0042
2429.00,0.0042
2428.00,0.0042
2427.00,0.0042
2426.00,0.0042
2425.00,0.0041
2424.00,0.0041
2423.00,0.0041
2422.00,0.0041
2421.00,0.0041
2420.00,0.0042
2419.00,0.0042
2418.00,0.0042
2417.00,0.0042
2416.00,0.0042
2415.00,0.0041
2414.00,0.0041
2413.00,0.0041
2412.00,0.0041
2411.00,0.0041
2410.00,0.0040
2409.00,0.0040
2408.00,0.0040
2407.00,0.0040
2406.00,0.0041
2405.00,0.0041
2404.00,0.0041
2403.00,0.0040
2402.00,0.0040
2401.00,0.0040
2400.00,0.0040
2399.00,0.0040
2398.00,0.0040
2397.00,0.0041
2396.00,0.0040
2395.00,0.0040
2394.00,0.0040
2393.00,0.0040
2392.00,0.0040
2391.00,0.0040
2390.00,0.0040
2389.00,0.0040
2388.00,0.0041
2387.00,0.0041
2386.00,0.0040
2385.00,0.0040
2384.00,0.0040
2383.00,0.0040
2382.00,0.0041
2381.00,0.0041
2380.00,0.0041
2379.00,0.0042
2378.00,0.0042
2377.00,0.0041
2376.00,0.0041
2375.00,0.0040
2374.00,0.0040
2373.00,0.0040
2372.00,0.0040
2371.00,0.0040
2370.00,0.0040
2369.00,0.0039
2368.00,0.0039
2367.00,0.0040
2366.00,0.0040
2365.00,0.0040
2364.00,0.0041
2363.00,0.0041
2362.00,0.0042
2361.00,0.0042
2360.00,0.0041
2359.00,0.0041
2358.00,0.0040
2357.00,0.0040
2356.00,0.0040
2355.00,0.0040
2354.00,0.0040
2353.00,0.0040
2352.00,0.0039
2351.00,0.0039
2350.00,0.0039
2349.00,0.0039
2348.00,0.0040
2347.00,0.0042
2346.00,0.0042
2345.00,0.0042
2344.00,0.0041
2343.00,0.0041
2342.00,0.0040
2341.00,0.0040
2340.00,0.0040
2339.00,0.0040
2338.00,0.0040
2337.00,0.0040
2336.00,0.0040
2335.00,0.0040
2334.00,0.0040
2333.00,0.0040
2332.00,0.0040
2331.00,0.0040
2330.00,0.0040
2329.00,0.0041
2328.00,0.0041
2327.00,0.0042
2326.00,0.0041
2325.00,0.0041
2324.00,0.0040
2323.00,0.0039
2322.00,0.0039
2321.00,0.0040
2320.00,0.0040
2319.00,0.0040
2318.00,0.0040
2317.00,0.0040
2316.00,0.0040
2315.00,0.0040
2314.00,0.0040
2313.00,0.0040
2312.00,0.0039
2311.00,0.0039
2310.00,0.0039
2309.00,0.0038
2308.00,0.0038
2307.00,0.0038
2306.00,0.0038
2305.00,0.0039
2304.00,0.0039
2303.00,0.0039
2302.00,0.0039
2301.00,0.0039
2300.00,0.0039
2299.00,0.0039
2298.00,0.0039
2297.00,0.0040
2296.00,0.0040
2295.00,0.0040
2294.00,0.0041
2293.00,0.0041
2292.00,0.0041
2291.00,0.0041
2290.00,0.0041
2289.00,0.0041
2288.00,0.0041
2287.00,0.0042
2286.00,0.0041
2285.00,0.0041
2284.00,0.0041
2283.00,0.0041
2282.00,0.0040
2281.00,0.0040
2280.00,0.0040
2279.00,0.0039
2278.00,0.0039
2277.00,0.0039
2276.00,0.0039
2275.00,0.0040
2274.00,0.0041
2273.00,0.0041
2272.00,0.0041
2271.00,0.0041
2270.00,0.0040
2269.00,0.0039
2268.00,0.0038
2267.00,0.0038
2266.00,0.0039
2265.00,0.0039
2264.00,0.0039
2263.00,0.0040
2262.00,0.0040
2261.00,0.0040
2260.00,0.0040
2259.00,0.0040
2258.00,0.0038
2257.00,0.0037
2256.00,0.0037
2255.00,0.0037
2254.00,0.0037
2253.00,0.0038
2252.00,0.0038
2251.00,0.0038
2250.00,0.0038
2249.00,0.0038
2248.00,0.0038
2247.00,0.0037
2246.00,0.0037
2245.00,0.0037
2244.00,0.0037
2243.00,0.0038
2242.00,0.0038
2241.00,0.0038
2240.00,0.0038
2239.00,0.0038
2238.00,0.0038
2237.00,0.0038
2236.00,0.0039
2235.00,0.0039
2234.00,0.0039
2233.00,0.0039
2232.00,0.0039
2231.00,0.0039
2230.00,0.0038
2229.00,0.0038
2228.00,0.0039
2227.00,0.0039
2226.00,0.0040
2225.00,0.0040
2224.00,0.0040
2223.00,0.0040
2222.00,0.0039
2221.00,0.0039
2220.00,0.0038
2219.00,0.0038
2218.00,0.0039
2217.00,0.0040
2216.00,0.0039
2215.00,0.0038
2214.00,0.0038
2213.00,0.0038
2212.00,0.0039
2211.00,0.0040
2210.00,0.0040
2209.00,0.0041
2208.00,0.0041
2207.00,0.0040
2206.00,0.0040
2205.00,0.0039
2204.00,0.0039
2203.00,0.0038
2202.00,0.0038
2201.00,0.0039
2200.00,0.0040
2199.00,0.0041
2198.00,0.0041
2197.00,0.0040
2196.00,0.0039
2195.00,0.0039
2194.00,0.0039
2193.00,0.0039
2192.00,0.0039
2191.00,0.0039
2190.00,0.0040
2189.00,0.0041
2188.00,0.0042
2187.00,0.0043
2186.00,0.0042
2185.00,0.0041
2184.00,0.0038
2183.00,0.0037
2182.00,0.0037
2181.00,0.0037
2180.00,0.0037
2179.00,0.0036
2178.00,0.0035
2177.00,0.0034
2176.00,0.0036
2175.00,0.0037
2174.00,0.0039
2173.00,0.0039
2172.00,0.0040
2171.00,0.0040
2170.00,0.0041
2169.00,0.0041
2168.00,0.0040
2167.00,0.0039
2166.00,0.0039
2165.00,0.0040
2164.00,0.0042
2163.00,0.0044
2162.00,0.0045
2161.00,0.0043
2160.00,0.0038
2159.00,0.0034
2158.00,0.0033
2157.00,0.0034
2156.00,0.0035
2155.00,0.0036
2154.00,0.0036
2153.00,0.0038
2152.00,0.0039
2151.00,0.0039
2150.00,0.0039
2149.00,0.0037
2148.00,0.0035
2147.00,0.0033
2146.00,0.0033
2145.00,0.0034
2144.00,0.0035
2143.00,0.0035
2142.00,0.0035
2141.00,0.0036
2140.00,0.0038
2139.00,0.0038
2138.00,0.0038
2137.00,0.0038
2136.00,0.0038
2135.00,0.0037
2134.00,0.0036
2133.00,0.0036
2132.00,0.0035
2131.00,0.0034
2130.00,0.0034
2129.00,0.0035
2128.00,0.0035
2127.00,0.0036
2126.00,0.0036
2125.00,0.0037
2124.00,0.0037
2123.00,0.0037
2122.00,0.0038
2121.00,0.0038
2120.00,0.0039
2119.00,0.0038
2118.00,0.0038
2117.00,0.0038
2116.00,0.0038
2115.00,0.0038
2114.00,0.0038
2113.00,0.0039
2112.00,0.0039
2111.00,0.0040
2110.00,0.0040
2109.00,0.0039
2108.00,0.0039
2107.00,0.0038
2106.00,0.0038
2105.00,0.0038
2104.00,0.0037
2103.00,0.0037
2102.00,0.0037
2101.00,0.0038
2100.00,0.0038
2099.00,0.0039
2098.00,0.0038
2097.00,0.0038
2096.00,0.0037
2095.00,0.0036
2094.00,0.0035
2093.00,0.0035
2092.00,0.0036
2091.00,0.0037
2090.00,0.0038
2089.00,0.0038
2088.00,0.0037
2087.00,0.0037
2086.00,0.0036
2085.00,0.0035
2084.00,0.0035
2083.00,0.0036
2082.00,0.0036
2081.00,0.0037
2080.00,0.0037
2079.00,0.0037
2078.00,0.0036
2077.00,0.0036
2076.00,0.0035
2075.00,0.0035
2074.00,0.0035
2073.00,0.0035
2072.00,0.0035
2071.00,0.0035
2070.00,0.0035
2069.00,0.0035
2068.00,0.0035
2067.00,0.0035
2066.00,0.0036
2065.00,0.0036
2064.00,0.0036
2063.00,0.0036
2062.00,0.0035
2061.00,0.0035
2060.00,0.0036
2059.00,0.0037
2058.00,0.0037
2057.00,0.0037
2056.00,0.0036
2055.00,0.0035
2054.00,0.0035
2053.00,0.0036
2052.00,0.0036
2051.00,0.0037
2050.00,0.0036
2049.00,0.0036
2048.00,0.0035
2047.00,0.0035
2046.00,0.0034
2045.00,0.0034
2044.00,0.0035
2043.00,0.0037
2042.00,0.0039
2041.00,0.0041
2040.00,0.0042
2039.00,0.0042
2038.00,0.0040
2037.00,0.0038
2036.00,0.0036
2035.00,0.0034
2034.00,0.0033
2033.00,0.0033
2032.00,0.0034
2031.00,0.0033
2030.00,0.0032
2029.00,0.0031
2028.00,0.0032
2027.00,0.0034
2026.00,0.0036
2025.00,0.0037
2024.00,0.0038
2023.00,0.0037
2022.00,0.0036
2021.00,0.0035
2020.00,0.0033
2019.00,0.0032
2018.00,0.0032
2017.00,0.0033
2016.00,0.0034
2015.00,0.0035
2014.00,0.0035
2013.00,0.0035
2012.00,0.0034
2011.00,0.0033
2010.00,0.0032
2009.00,0.0031
2008.00,0.0030
2007.00,0.0030
2006.00,0.0031
2005.00,0.0033
2004.00,0.0034
2003.00,0.0035
2002.00,0.0036
2001.00,0.0035
2000.00,0.0035
1999.00,0.0035
1998.00,0.0035
1997.00,0.0036
1996.00,0.0036
1995.00,0.0035
1994.00,0.0033
1993.00,0.0032
1992.00,0.0032
1991.00,0.0032
1990.00,0.0032
1989.00,0.0031
1988.00,0.0031
1987.00,0.0032
1986.00,0.0033
1985.00,0.0034
1984.00,0.0035
1983.00,0.0035
1982.00,0.0035
1981.00,0.0036
1980.00,0.0037
1979.00,0.0036
1978.00,0.0035
1977.00,0.0034
1976.00,0.0033
1975.00,0.0031
1974.00,0.0029
1973.00,0.0029
1972.00,0.0028
1971.00,0.0029
1970.00,0.0029
1969.00,0.0030
1968.00,0.0030
1967.00,0.0029
1966.00,0.0029
1965.00,0.0030
1964.00,0.0031
1963.00,0.0031
1962.00,0.0033
1961.00,0.0034
1960.00,0.0034
1959.00,0.0033
1958.00,0.0032
1957.00,0.0031
1956.00,0.0031
1955.00,0.0030
1954.00,0.0029
1953.00,0.0029
1952.00,0.0030
1951.00,0.0032
1950.00,0.0033
1949.00,0.0032
1948.00,0.0032
1947.00,0.0031
1946.00,0.0031
1945.00,0.0031
1944.00,0.0031
1943.00,0.0031
1942.00,0.0030
1941.00,0.0030
1940.00,0.0031
1939.00,0.0031
1938.00,0.0031
1937.00,0.0031
1936.00,0.0031
1935.00,0.0030
1934.00,0.0030
1933.00,0.0031
1932.00,0.0031
1931.00,0.0032
1930.00,0.0032
1929.00,0.0031
1928.00,0.0031
1927.00,0.0030
1926.00,0.0030
1925.00,0.0031
1924.00,0.0031
1923.00,0.0031
1922.00,0.0030
1921.00,0.0030
1920.00,0.0030
1919.00,0.0029
1918.00,0.0029
1917.00,0.0030
1916.00,0.0030
1915.00,0.0030
1914.00,0.0030
1913.00,0.0030
1912.00,0.0030
1911.00,0.0030
1910.00,0.0030
1909.00,0.0031
1908.00,0.0031
1907.00,0.0032
1906.00,0.0032
1905.00,0.0032
1904.00,0.0032
1903.00,0.0031
1902.00,0.0031
1901.00,0.0031
1900.00,0.0031
1899.00,0.0031
1898.00,0.0031
1897.00,0.0031
1896.00,0.0031
1895.00,0.0032
1894.00,0.0032
1893.00,0.0031
1892.00,0.0031
1891.00,0.0030
1890.00,0.0030
1889.00,0.0030
1888.00,0.0030
1887.00,0.0030
1886.00,0.0031
1885.00,0.0031
1884.00,0.0031
1883.00,0.0031
1882.00,0.0031
1881.00,0.0030
1880.00,0.0030
1879.00,0.0030
1878.00,0.0029
1877.00,0.0030
1876.00,0.0030
1875.00,0.0030
1874.00,0.0029
1873.00,0.0029
1872.00,0.0030
1871.00,0.0030
1870.00,0.0030
1869.00,0.0030
1868.00,0.0030
1867.00,0.0029
1866.00,0.0028
1865.00,0.0028
1864.00,0.0028
1863.00,0.0028
1862.00,0.0029
1861.00,0.0029
1860.00,0.0029
1859.00,0.0029
1858.00,0.0028
1857.00,0.0028
1856.00,0.0028
1855.00,0.0029
1854.00,0.0029
1853.00,0.0029
1852.00,0.0029
1851.00,0.0029
1850.00,0.0029
1849.00,0.0029
1848.00,0.0029
1847.00,0.0029
1846.00,0.0028
1845.00,0.0028
1844.00,0.0028
1843.00,0.0027
1842.00,0.0027
1841.00,0.0027
1840.00,0.0027
1839.00,0.0028
1838.00,0.0028
1837.00,0.0028
1836.00,0.0028
1835.00,0.0027
1834.00,0.0027
1833.00,0.0027
1832.00,0.0028
1831.00,0.0028
1830.00,0.0028
1829.00,0.0028
1828.00,0.0028
1827.00,0.0028
1826.00,0.0027
1825.00,0.0027
1824.00,0.0028
1823.00,0.0028
1822.00,0.0028
1821.00,0.0028
1820.00,0.0028
1819.00,0.0028
1818.00,0.0027
1817.00,0.0027
1816.00,0.0027
1815.00,0.0027
1814.00,0.0027
1813.00,0.0027
1812.00,0.0027
1811.00,0.0027
1810.00,0.0027
1809.00,0.0027
1808.00,0.0027
1807.00,0.0027
1806.00,0.0027
1805.00,0.0027
1804.00,0.0028
1803.00,0.0028
1802.00,0.0028
1801.00,0.0028
1800.00,0.0028
1799.00,0.0027
1798.00,0.0027
1797.00,0.0027
1796.00,0.0028
1795.00,0.0028
1794.00,0.0028
1793.00,0.0028
1792.00,0.0028
1791.00,0.0028
1790.00,0.0028
1789.00,0.0028
1788.00,0.0028
1787.00,0.0028
1786.00,0.0028
1785.00,0.0028
1784.00,0.0028
1783.00,0.0028
1782.00,0.0028
1781.00,0.0028
1780.00,0.0028
1779.00,0.0028
1778.00,0.0028
1777.00,0.0028
1776.00,0.0028
1775.00,0.0028
1774.00,0.0029
1773.00,0.0029
1772.00,0.0029
1771.00,0.0028
1770.00,0.0028
1769.00,0.0028
1768.00,0.0028
1767.00,0.0028
1766.00,0.0028
1765.00,0.0028
1764.00,0.0029
1763.00,0.0029
1762.00,0.0029
1761.00,0.0029
1760.00,0.0029
1759.00,0.0029
1758.00,0.0029
1757.00,0.0030
1756.00,0.0030
1755.00,0.0029
1754.00,0.0029
1753.00,0.0030
1752.00,0.0030
1751.00,0.0030
1750.00,0.0030
1749.00,0.0031
1748.00,0.0031
1747.00,0.0031
1746.00,0.0031
1745.00,0.0032
1744.00,0.0033
1743.00,0.0033
1742.00,0.0033
1741.00,0.0034
1740.00,0.0034
1739.00,0.0034
1738.00,0.0034
1737.00,0.0034
1736.00,0.0034
1735.00,0.0034
1734.00,0.0034
1733.00,0.0033
1732.00,0.0034
1731.00,0.0034
1730.00,0.0035
1729.00,0.0036
1728.00,0.0036
1727.00,0.0036
1726.00,0.0036
1725.00,0.0037
1724.00,0.0038
1723.00,0.0039
1722.00,0.0039
1721.00,0.0040
1720.00,0.0041
1719.00,0.0042
1718.00,0.0044
1717.00,0.0045
1716.00,0.0046
1715.00,0.0047
1714.00,0.0048
1713.00,0.0051
1712.00,0.0054
1711.00,0.0058
1710.00,0.0061
1709.00,0.0065
1708.00,0.0069
1707.00,0.0074
1706.00,0.0080
1705.00,0.0086
1704.00,0.0092
1703.00,0.0096
1702.00,0.0100
1701.00,0.0108
1700.00,0.0118
1699.00,0.0126
1698.00,0.0131
1697.00,0.0135
1696.00,0.0141
1695.00,0.0147
1694.00,0.0152
1693.00,0.0155
1692.00,0.0158
1691.00,0.0162
1690.00,0.0166
1689.00,0.0171
1688.00,0.0174
1687.00,0.0177
1686.00,0.0180
1685.00,0.0186
1684.00,0.0195
1683.00,0.0204
1682.00,0.0208
1681.00,0.0213
1680.00,0.0218
1679.00,0.0222
1678.00,0.0227
1677.00,0.0230
1676.00,0.0236
1675.00,0.0243
1674.00,0.0250
1673.00,0.0255
1672.00,0.0259
1671.00,0.0265
1670.00,0.0272
1669.00,0.0280
1668.00,0.0288
1667.00,0.0292
1666.00,0.0296
1665.00,0.0299
1664.00,0.0304
1663.00,0.0311
1662.00,0.0319
1661.00,0.0325
1660.00,0.0330
1659.00,0.0335
1658.00,0.0338
1657.00,0.0340
1656.00,0.0341
1655.00,0.0341
1654.00,0.0346
1653.00,0.0360
1652.00,0.0372
1651.00,0.0376
1650.00,0.0375
1649.00,0.0374
1648.00,0.0375
1647.00,0.0381
1646.00,0.0388
1645.00,0.0394
1644.00,0.0397
1643.00,0.0399
1642.00,0.0400
1641.00,0.0402
1640.00,0.0404
1639.00,0.0406
1638.00,0.0407
1637.00,0.0410
1636.00,0.0418
1635.00,0.0429
1634.00,0.0436
1633.00,0.0440
1632.00,0.0442
1631.00,0.0444
1630.00,0.0447
1629.00,0.0451
1628.00,0.0455
1627.00,0.0459
1626.00,0.0460
1625.00,0.0459
1624.00,0.0458
1623.00,0.0457
1622.00,0.0455
1621.00,0.0451
1620.00,0.0444
1619.00,0.0436
1618.00,0.0427
1617.00,0.0421
1616.00,0.0416
1615.00,0.0411
1614.00,0.0404
1613.00,0.0396
1612.00,0.0388
1611.00,0.0379
1610.00,0.0371
1609.00,0.0363
1608.00,0.0354
1607.00,0.0345
1606.00,0.0337
1605.00,0.0328
1604.00,0.0320
1603.00,0.0312
1602.00,0.0305
1601.00,0.0298
1600.00,0.0291
1599.00,0.0284
1598.00,0.0278
1597.00,0.0272
1596.00,0.0267
1595.00,0.0262
1594.00,0.0257
1593.00,0.0252
1592.00,0.0247
1591.00,0.0243
1590.00,0.0238
1589.00,0.0234
1588.00,0.0231
1587.00,0.0228
1586.00,0.0225
1585.00,0.0223
1584.00,0.0222
1583.00,0.0220
1582.00,0.0220
1581.00,0.0219
1580.00,0.0218
1579.00,0.0216
1578.00,0.0216
1577.00,0.0217
1576.00,0.0220
1575.00,0.0224
1574.00,0.0226
1573.00,0.0226
1572.00,0.0226
1571.00,0.0228
1570.00,0.0232
1569.00,0.0238
1568.00,0.0242
1567.00,0.0244
1566.00,0.0248
1565.00,0.0251
1564.00,0.0255
1563.00,0.0257
1562.00,0.0258
1561.00,0.0258
1560.00,0.0261
1559.00,0.0273
1558.00,0.0286
1557.00,0.0291
1556.00,0.0293
1555.00,0.0297
1554.00,0.0301
1553.00,0.0306
1552.00,0.0310
1551.00,0.0314
1550.00,0.0319
1549.00,0.0324
1548.00,0.0327
1547.00,0.0329
1546.00,0.0331
1545.00,0.0334
1544.00,0.0338
1543.00,0.0340
1542.00,0.0343
1541.00,0.0348
1540.00,0.0356
1539.00,0.0364
1538.00,0.0368
1537.00,0.0369
1536.00,0.0368
1535.00,0.0368
1534.00,0.0370
1533.00,0.0376
1532.00,0.0380
1531.00,0.0382
1530.00,0.0382
1529.00,0.0383
1528.00,0.0384
1527.00,0.0387
1526.00,0.0389
1525.00,0.0391
1524.00,0.0391
1523.00,0.0391
1522.00,0.0394
1521.00,0.0400
1520.00,0.0404
1519.00,0.0406
1518.00,0.0406
1517.00,0.0408
1516.00,0.0410
1515.00,0.0410
1514.00,0.0408
1513.00,0.0405
1512.00,0.0401
1511.00,0.0396
1510.00,0.0390
1509.00,0.0382
1508.00,0.0375
1507.00,0.0372
1506.00,0.0369
1505.00,0.0364
1504.00,0.0357
1503.00,0.0350
1502.00,0.0342
1501.00,0.0334
1500.00,0.0327
1499.00,0.0319
1498.00,0.0312
1497.00,0.0306
1496.00,0.0299
1495.00,0.0293
1494.00,0.0286
1493.00,0.0279
1492.00,0.0271
1491.00,0.0264
1490.00,0.0258
1489.00,0.0253
1488.00,0.0248
1487.00,0.0243
1486.00,0.0238
1485.00,0.0234
1484.00,0.0230
1483.00,0.0226
1482.00,0.0223
1481.00,0.0221
1480.00,0.0219
1479.00,0.0217
1478.00,0.0215
1477.00,0.0214
1476.00,0.0214
1475.00,0.0214
1474.00,0.0214
1473.00,0.0216
1472.00,0.0219
1471.00,0.0220
1470.00,0.0221
1469.00,0.0221
1468.00,0.0221
1467.00,0.0222
1466.00,0.0223
1465.00,0.0225
1464.00,0.0229
1463.00,0.0231
1462.00,0.0233
1461.00,0.0233
1460.00,0.0234
1459.00,0.0235
1458.00,0.0240
1457.00,0.0249
1456.00,0.0257
1455.00,0.0262
1454.00,0.0264
1453.00,0.0265
1452.00,0.0267
1451.00,0.0269
1450.00,0.0271
1449.00,0.0273
1448.00,0.0274
1447.00,0.0276
1446.00,0.0277
1445.00,0.0276
1444.00,0.0275
1443.00,0.0273
1442.00,0.0271
1441.00,0.0268
1440.00,0.0265
1439.00,0.0261
1438.00,0.0257
1437.00,0.0255
1436.00,0.0253
1435.00,0.0251
1434.00,0.0248
1433.00,0.0245
1432.00,0.0242
1431.00,0.0240
1430.00,0.0238
1429.00,0.0237
1428.00,0.0235
1427.00,0.0234
1426.00,0.0233
1425.00,0.0232
1424.00,0.0232
1423.00,0.0232
1422.00,0.0232
1421.00,0.0231
1420.00,0.0232
1419.00,0.0234
1418.00,0.0236
1417.00,0.0238
1416.00,0.0238
1415.00,0.0239
1414.00,0.0239
1413.00,0.0239
1412.00,0.0240
1411.00,0.0240
1410.00,0.0240
1409.00,0.0240
1408.00,0.0239
1407.00,0.0238
1406.00,0.0237
1405.00,0.0237
1404.00,0.0236
1403.00,0.0235
1402.00,0.0233
1401.00,0.0230
1400.00,0.0228
1399.00,0.0227
1398.00,0.0226
1397.00,0.0224
1396.00,0.0223
1395.00,0.0222
1394.00,0.0222
1393.00,0.0221
1392.00,0.0220
1391.00,0.0220
1390.00,0.0218
1389.00,0.0218
1388.00,0.0217
1387.00,0.0217
1386.00,0.0217
1385.00,0.0216
1384.00,0.0215
1383.00,0.0214
1382.00,0.0214
1381.00,0.0213
1380.00,0.0213
1379.00,0.0212
1378.00,0.0212
1377.00,0.0212
1376.00,0.0212
1375.00,0.0212
1374.00,0.0213
1373.00,0.0213
1372.00,0.0213
1371.00,0.0213
1370.00,0.0212
1369.00,0.0210
1368.00,0.0208
1367.00,0.0206
1366.00,0.0204
1365.00,0.0201
1364.00,0.0199
1363.00,0.0197
1362.00,0.0196
1361.00,0.0195
1360.00,0.0193
1359.00,0.0192
1358.00,0.0191
1357.00,0.0190
1356.00,0.0190
1355.00,0.0190
1354.00,0.0190
1353.00,0.0190
1352.00,0.0190
1351.00,0.0191
1350.00,0.0191
1349.00,0.0192
1348.00,0.0193
1347.00,0.0194
1346.00,0.0195
1345.00,0.0196
1344.00,0.0196
1343.00,0.0197
1342.00,0.0197
1341.00,0.0198
1340.00,0.0199
1339.00,0.0200
1338.00,0.0201
1337.00,0.0201
1336.00,0.0202
1335.00,0.0202
1334.00,0.0202
1333.00,0.0202
1332.00,0.0201
1331.00,0.0201
1330.00,0.0201
1329.00,0.0200
1328.00,0.0199
1327.00,0.0198
1326.00,0.0198
1325.00,0.0197
1324.00,0.0196
1323.00,0.0195
1322.00,0.0195
1321.00,0.0195
1320.00,0.0194
1319.00,0.0194
1318.00,0.0194
1317.00,0.0194
1316.00,0.0194
1315.00,0.0194
1314.00,0.0193
1313.00,0.0193
1312.00,0.0193
1311.00,0.0193
1310.00,0.0192
1309.00,0.0192
1308.00,0.0191
1307.00,0.0191
1306.00,0.0191
1305.00,0.0190
1304.00,0.0190
1303.00,0.0189
1302.00,0.0189
1301.00,0.0188
1300.00,0.0188
1299.00,0.0188
1298.00,0.0187
1297.00,0.0187
1296.00,0.0187
1295.00,0.0187
1294.00,0.0187
1293.00,0.0187
1292.00,0.0187
1291.00,0.0187
1290.00,0.0188
1289.00,0.0188
1288.00,0.0189
1287.00,0.0189
1286.00,0.0189
1285.00,0.0190
1284.00,0.0190
1283.00,0.0190
1282.00,0.0191
1281.00,0.0192
1280.00,0.0192
1279.00,0.0193
1278.00,0.0194
1277.00,0.0195
1276.00,0.0196
1275.00,0.0196
1274.00,0.0198
1273.00,0.0199
1272.00,0.0200
1271.00,0.0202
1270.00,0.0203
1269.00,0.0204
1268.00,0.0206
1267.00,0.0207
1266.00,0.0209
1265.00,0.0211
1264.00,0.0213
1263.00,0.0214
1262.00,0.0216
1261.00,0.0217
1260.00,0.0218
1259.00,0.0219
1258.00,0.0221
1257.00,0.0222
1256.00,0.0223
1255.00,0.0225
1254.00,0.0227
1253.00,0.0229
1252.00,0.0231
1251.00,0.0233
1250.00,0.0235
1249.00,0.0238
1248.00,0.0240
1247.00,0.0243
1246.00,0.0246
1245.00,0.0248
1244.00,0.0251
1243.00,0.0253
1242.00,0.0255
1241.00,0.0256
1240.00,0.0258
1239.00,0.0259
1238.00,0.0261
1237.00,0.0261
1236.00,0.0262
1235.00,0.0262
1234.00,0.0261
1233.00,0.0261
1232.00,0.0260
1231.00,0.0259
1230.00,0.0258
1229.00,0.0257
1228.00,0.0257
1227.00,0.0256
1226.00,0.0254
1225.00,0.0253
1224.00,0.0252
1223.00,0.0250
1222.00,0.0249
1221.00,0.0247
1220.00,0.0245
1219.00,0.0243
1218.00,0.0241
1217.00,0.0239
1216.00,0.0236
1215.00,0.0234
1214.00,0.0231
1213.00,0.0229
1212.00,0.0227
1211.00,0.0225
1210.00,0.0223
1209.00,0.0220
1208.00,0.0218
1207.00,0.0216
1206.00,0.0214
1205.00,0.0212
1204.00,0.0210
1203.00,0.0208
1202.00,0.0206
1201.00,0.0205
1200.00,0.0203
1199.00,0.0201
1198.00,0.0199
1197.00,0.0197
1196.00,0.0196
1195.00,0.0195
1194.00,0.0194
1193.00,0.0193
1192.00,0.0192
1191.00,0.0191
1190.00,0.0190
1189.00,0.0190
1188.00,0.0189
1187.00,0.0187
1186.00,0.0187
1185.00,0.0186
1184.00,0.0186
1183.00,0.0186
1182.00,0.0187
1181.00,0.0187
1180.00,0.0188
1179.00,0.0189
1178.00,0.0190
1177.00,0.0192
1176.00,0.0193
1175.00,0.0195
1174.00,0.0197
1173.00,0.0198
1172.00,0.0200
1171.00,0.0200
1170.00,0.0201
1169.00,0.0201
1168.00,0.0200
1167.00,0.0200
1166.00,0.0200
1165.00,0.0199
1164.00,0.0199
1163.00,0.0199
1162.00,0.0198
1161.00,0.0197
1160.00,0.0196
1159.00,0.0195
1158.00,0.0193
1157.00,0.0192
1156.00,0.0190
1155.00,0.0188
1154.00,0.0186
1153.00,0.0184
1152.00,0.0182
1151.00,0.0181
1150.00,0.0180
1149.00,0.0179
1148.00,0.0178
1147.00,0.0177
1146.00,0.0176
1145.00,0.0174
1144.00,0.0173
1143.00,0.0173
1142.00,0.0172
1141.00,0.0172
1140.00,0.0172
1139.00,0.0171
1138.00,0.0170
1137.00,0.0170
1136.00,0.0169
1135.00,0.0168
1134.00,0.0168
1133.00,0.0168
1132.00,0.0168
1131.00,0.0167
1130.00,0.0167
1129.00,0.0166
1128.00,0.0166
1127.00,0.0166
1126.00,0.0166
1125.00,0.0166
1124.00,0.0166
1123.00,0.0166
1122.00,0.0165
1121.00,0.0166
1120.00,0.0166
1119.00,0.0166
1118.00,0.0166
1117.00,0.0166
1116.00,0.0165
1115.00,0.0165
1114.00,0.0164
1113.00,0.0164
1112.00,0.0163
1111.00,0.0163
1110.00,0.0163
1109.00,0.0163
1108.00,0.0164
1107.00,0.0164
1106.00,0.0165
1105.00,0.0165
1104.00,0.0165
1103.00,0.0165
1102.00,0.0165
1101.00,0.0165
1100.00,0.0164
1099.00,0.0164
1098.00,0.0164
1097.00,0.0164
1096.00,0.0164
1095.00,0.0164
1094.00,0.0164
1093.00,0.0164
1092.00,0.0164
1091.00,0.0164
1090.00,0.0165
1089.00,0.0166
1088.00,0.0167
1087.00,0.0167
1086.00,0.0168
1085.00,0.0169
1084.00,0.0170
1083.00,0.0171
1082.00,0.0171
1081.00,0.0172
1080.00,0.0172
1079.00,0.0172
1078.00,0.0173
1077.00,0.0173
1076.00,0.0173
1075.00,0.0173
1074.00,0.0173
1073.00,0.0172
1072.00,0.0172
1071.00,0.0172
1070.00,0.0172
1069.00,0.0172
1068.00,0.0172
1067.00,0.0172
1066.00,0.0172
1065.00,0.0172
1064.00,0.0172
1063.00,0.0173
1062.00,0.0173
1061.00,0.0173
1060.00,0.0174
1059.00,0.0174
1058.00,0.0175
1057.00,0.0176
1056.00,0.0177
1055.00,0.0178
1054.00,0.0179
1053.00,0.0179
1052.00,0.0179
1051.00,0.0178
1050.00,0.0177
1049.00,0.0177
1048.00,0.0176
1047.00,0.0176
1046.00,0.0175
1045.00,0.0173
1044.00,0.0172
1043.00,0.0172
1042.00,0.0171
1041.00,0.0171
1040.00,0.0172
1039.00,0.0172
1038.00,0.0172
1037.00,0.0172
1036.00,0.0172
1035.00,0.0172
1034.00,0.0173
1033.00,0.0174
1032.00,0.0175
1031.00,0.0176
1030.00,0.0176
1029.00,0.0177
1028.00,0.0177
1027.00,0.0176
1026.00,0.0175
1025.00,0.0174
1024.00,0.0173
1023.00,0.0172
1022.00,0.0171
1021.00,0.0170
1020.00,0.0168
1019.00,0.0166
1018.00,0.0164
1017.00,0.0162
1016.00,0.0161
1015.00,0.0159
1014.00,0.0158
1013.00,0.0157
1012.00,0.0156
1011.00,0.0154
1010.00,0.0152
1009.00,0.0150
1008.00,0.0148
1007.00,0.0146
1006.00,0.0145
1005.00,0.0143
1004.00,0.0141
1003.00,0.0139
1002.00,0.0137
1001.00,0.0136
1000.00,0.0134
999.00,0.0134
998.00,0.0133
997.00,0.0132
996.00,0.0131
995.00,0.0130
994.00,0.0128
993.00,0.0126
992.00,0.0124
991.00,0.0123
990.00,0.0121
989.00,0.0120
988.00,0.0119
987.00,0.0119
986.00,0.0118
985.00,0.0118
984.00,0.0118
983.00,0.0117
982.00,0.0118
981.00,0.0118
980.00,0.0118
979.00,0.0118
978.00,0.0119
977.00,0.0119
976.00,0.0119
975.00,0.0120
974.00,0.0121
973.00,0.0123
972.00,0.0125
971.00,0.0127
970.00,0.0130
969.00,0.0133
968.00,0.0135
967.00,0.0137
966.00,0.0138
965.00,0.0137
964.00,0.0136
963.00,0.0135
962.00,0.0134
961.00,0.0132
960.00,0.0130
959.00,0.0128
958.00,0.0127
957.00,0.0125
956.00,0.0123
955.00,0.0122
954.00,0.0121
953.00,0.0120
952.00,0.0119
951.00,0.0118
950.00,0.0118
949.00,0.0117
948.00,0.0117
947.00,0.0116
946.00,0.0115
945.00,0.0115
944.00,0.0114
943.00,0.0113
942.00,0.0112
941.00,0.0112
940.00,0.0113
939.00,0.0113
938.00,0.0114
937.00,0.0114
936.00,0.0114
935.00,0.0115
934.00,0.0115
933.00,0.0116
932.00,0.0116
931.00,0.0117
930.00,0.0117
929.00,0.0117
928.00,0.0117
927.00,0.0116
926.00,0.0116
925.00,0.0116
924.00,0.0116
923.00,0.0116
922.00,0.0115
921.00,0.0114
920.00,0.0114
919.00,0.0113
918.00,0.0112
917.00,0.0112
916.00,0.0111
915.00,0.0111
914.00,0.0110
913.00,0.0109
912.00,0.0108
911.00,0.0108
910.00,0.0108
909.00,0.0108
908.00,0.0108
907.00,0.0108
906.00,0.0108
905.00,0.0108
904.00,0.0108
903.00,0.0107
902.00,0.0107
901.00,0.0107
900.00,0.0106
899.00,0.0105
898.00,0.0104
897.00,0.0103
896.00,0.0103
895.00,0.0103
894.00,0.0103
893.00,0.0103
892.00,0.0102
891.00,0.0102
890.00,0.0102
889.00,0.0102
888.00,0.0102
887.00,0.0103
886.00,0.0105
885.00,0.0105
884.00,0.0105
883.00,0.0105
882.00,0.0104
881.00,0.0104
880.00,0.0105
879.00,0.0106
878.00,0.0106
877.00,0.0106
876.00,0.0106
875.00,0.0107
874.00,0.0107
873.00,0.0107
872.00,0.0106
871.00,0.0105
870.00,0.0105
869.00,0.0105
868.00,0.0106
867.00,0.0106
866.00,0.0107
865.00,0.0107
864.00,0.0107
863.00,0.0108
862.00,0.0108
861.00,0.0109
860.00,0.0110
859.00,0.0110
858.00,0.0110
857.00,0.0109
856.00,0.0110
855.00,0.0110
854.00,0.0110
853.00,0.0111
852.00,0.0112
851.00,0.0113
850.00,0.0114
849.00,0.0114
848.00,0.0114
847.00,0.0114
846.00,0.0114
845.00,0.0114
844.00,0.0115
843.00,0.0116
842.00,0.0117
841.00,0.0117
840.00,0.0117
839.00,0.0118
838.00,0.0119
837.00,0.0120
836.00,0.0120
835.00,0.0121
834.00,0.0121
833.00,0.0121
832.00,0.0121
831.00,0.0121
830.00,0.0122
829.00,0.0123
828.00,0.0123
827.00,0.0123
826.00,0.0123
825.00,0.0124
824.00,0.0125
823.00,0.0126
822.00,0.0126
821.00,0.0127
820.00,0.0128
819.00,0.0128
818.00,0.0129
817.00,0.0129
816.00,0.0129
815.00,0.0130
814.00,0.0131
813.00,0.0131
812.00,0.0131
811.00,0.0132
810.00,0.0133
809.00,0.0135
808.00,0.0137
807.00,0.0138
806.00,0.0138
805.00,0.0138
804.00,0.0138
803.00,0.0139
802.00,0.0139
801.00,0.0139
800.00,0.0140
799.00,0.0141
798.00,0.0142
797.00,0.0143
796.00,0.0143
795.00,0.0144
794.00,0.0144
793.00,0.0144
792.00,0.0145
791.00,0.0145
790.00,0.0147
789.00,0.0148
788.00,0.0150
787.00,0.0152
786.00,0.0154
785.00,0.0155
784.00,0.0155
783.00,0.0155
782.00,0.0155
781.00,0.0156
780.00,0.0158
779.00,0.0159
778.00,0.0160
777.00,0.0161
776.00,0.0161
775.00,0.0161
774.00,0.0160
773.00,0.0159
772.00,0.0160
771.00,0.0161
770.00,0.0163
769.00,0.0165
768.00,0.0166
767.00,0.0167
766.00,0.0168
765.00,0.0170
764.00,0.0170
763.00,0.0171
762.00,0.0171
761.00,0.0172
760.00,0.0172
759.00,0.0172
758.00,0.0172
757.00,0.0172
756.00,0.0173
755.00,0.0175
754.00,0.0177
753.00,0.0178
752.00,0.0179
751.00,0.0180
750.00,0.0181
749.00,0.0182
748.00,0.0184
747.00,0.0186
746.00,0.0187
745.00,0.0189
744.00,0.0189
743.00,0.0190
742.00,0.0191
741.00,0.0192
740.00,0.0195
739.00,0.0198
738.00,0.0201
737.00,0.0202
736.00,0.0203
735.00,0.0203
734.00,0.0205
733.00,0.0206
732.00,0.0208
731.00,0.0209
730.00,0.0210
729.00,0.0210
728.00,0.0211
727.00,0.0213
726.00,0.0216
725.00,0.0220
724.00,0.0223
723.00,0.0225
722.00,0.0227
721.00,0.0230
720.00,0.0233
719.00,0.0236
718.00,0.0239
717.00,0.0242
716.00,0.0244
715.00,0.0245
714.00,0.0248
713.00,0.0251
712.00,0.0255
711.00,0.0258
710.00,0.0261
709.00,0.0264
708.00,0.0267
707.00,0.0270
706.00,0.0272
705.00,0.0273
704.00,0.0274
703.00,0.0275
702.00,0.0277
701.00,0.0280
700.00,0.0283
699.00,0.0285
698.00,0.0286
697.00,0.0287
696.00,0.0288
695.00,0.0289
694.00,0.0289
693.00,0.0290
692.00,0.0290
691.00,0.0289
690.00,0.0288
689.00,0.0288
688.00,0.0288
687.00,0.0289
686.00,0.0291
685.00,0.0293
684.00,0.0295
683.00,0.0296
682.00,0.0296
681.00,0.0295
680.00,0.0295
679.00,0.0296
678.00,0.0298
677.00,0.0301
676.00,0.0303
675.00,0.0303
674.00,0.0302
673.00,0.0301
672.00,0.0300
671.00,0.0300
670.00,0.0300
669.00,0.0299
668.00,0.0298
667.00,0.0299
666.00,0.0302
665.00,0.0303
664.00,0.0304
663.00,0.0305
662.00,0.0305
661.00,0.0305
660.00,0.0304
659.00,0.0304
658.00,0.0305
657.00,0.0306
656.00,0.0307
655.00,0.0309
654.00,0.0310
653.00,0.0311
652.00,0.0313
651.00,0.0313
650.00,0.0311
649.00,0.0309
648.00,0.0307
647.00,0.0308
646.00,0.0310
645.00,0.0312
644.00,0.0313
643.00,0.0313
642.00,0.0312
641.00,0.0311
640.00,0.0311
639.00,0.0312
638.00,0.0313
637.00,0.0315
636.00,0.0316
635.00,0.0317
634.00,0.0318
633.00,0.0317
632.00,0.0317
631.00,0.0318
630.00,0.0320
629.00,0.0321
628.00,0.0323
627.00,0.0326
626.00,0.0328
625.00,0.0331
624.00,0.0333
623.00,0.0335
622.00,0.0337
621.00,0.0338
620.00,0.0340
619.00,0.0342
618.00,0.0343
617.00,0.0343
616.00,0.0344
615.00,0.0345
614.00,0.0345
613.00,0.0345
612.00,0.0345
611.00,0.0345
610.00,0.0345
609.00,0.0345
608.00,0.0344
607.00,0.0343
606.00,0.0341
605.00,0.0341
604.00,0.0342
603.00,0.0343
602.00,0.0344
601.00,0.0345
600.00,0.0346
599.00,0.0345
598.00,0.0343
597.00,0.0341
596.00,0.0340
595.00,0.0341
594.00,0.0343
593.00,0.0346
592.00,0.0348
591.00,0.0349
590.00,0.0348
589.00,0.0348
588.00,0.0348
587.00,0.0348
586.00,0.0348
585.00,0.0349
584.00,0.0349
583.00,0.0350
582.00,0.0351
581.00,0.0354
580.00,0.0356
579.00,0.0359
578.00,0.0361
577.00,0.0363
576.00,0.0364
575.00,0.0366
574.00,0.0367
573.00,0.0367
572.00,0.0368
571.00,0.0369
570.00,0.0369
569.00,0.0370
568.00,0.0372
567.00,0.0374
566.00,0.0377
565.00,0.0379
564.00,0.0380
563.00,0.0381
562.00,0.0381
561.00,0.0383
560.00,0.0385
559.00,0.0387
558.00,0.0387
557.00,0.0385
556.00,0.0384
555.00,0.0385
554.00,0.0387
553.00,0.0389
552.00,0.0393
551.00,0.0396
550.00,0.0398
549.00,0.0398
548.00,0.0398
547.00,0.0397
546.00,0.0395
545.00,0.0394
544.00,0.0393
543.00,0.0394
542.00,0.0395
541.00,0.0396
540.00,0.0398
539.00,0.0399
538.00,0.0399
537.00,0.0399
536.00,0.0399
535.00,0.0399
534.00,0.0398
533.00,0.0395
532.00,0.0392
531.00,0.0391
530.00,0.0392
529.00,0.0394
528.00,0.0396
527.00,0.0399
526.00,0.0399
525.00,0.0399
524.00,0.0397
523.00,0.0396
522.00,0.0396
521.00,0.0397
520.00,0.0397
519.00,0.0395
518.00,0.0393
517.00,0.0392
516.00,0.0392
515.00,0.0394
514.00,0.0396
513.00,0.0397
512.00,0.0398
511.00,0.0398
510.00,0.0396
509.00,0.0396
508.00,0.0397
507.00,0.0399
506.00,0.0399
505.00,0.0398
504.00,0.0394
503.00,0.0389
502.00,0.0384
501.00,0.0383
500.00,0.0384
499.00,0.0388
498.00,0.0389
497.00,0.0387
496.00,0.0384
495.00,0.0383
494.00,0.0382
493.00,0.0384
492.00,0.0386
491.00,0.0388
490.00,0.0388
489.00,0.0387
488.00,0.0385
487.00,0.0384
486.00,0.0384
485.00,0.0384
484.00,0.0385
483.00,0.0386
482.00,0.0387
481.00,0.0385
480.00,0.0382
479.00,0.0381
478.00,0.0382
477.00,0.0385
476.00,0.0389
475.00,0.0390
474.00,0.0387
473.00,0.0381
472.00,0.0376
471.00,0.0374
470.00,0.0375
469.00,0.0377
468.00,0.0378
467.00,0.0378
466.00,0.0378
465.00,0.0379
464.00,0.0383
463.00,0.0389
462.00,0.0393
461.00,0.0392
460.00,0.0390
459.00,0.0388
458.00,0.0388
457.00,0.0389
456.00,0.0388
455.00,0.0386
454.00,0.0385
453.00,0.0385
452.00,0.0386
451.00,0.0386
450.00,0.0387
449.00,0.0388
448.00,0.0388
447.00,0.0390
446.00,0.0392
445.00,0.0391
444.00,0.0387
443.00,0.0382
442.00,0.0380
441.00,0.0381
440.00,0.0382
439.00,0.0379
438.00,0.0373
437.00,0.0366
436.00,0.0361
435.00,0.0359
434.00,0.0361
433.00,0.0368
432.00,0.0373
431.00,0.0371
430.00,0.0362
429.00,0.0351
428.00,0.0342
427.00,0.0339
426.00,0.0339
425.00,0.0338
424.00,0.0335
423.00,0.0330
422.00,0.0324
421.00,0.0319
420.00,0.0312
419.00,0.0310
418.00,0.0316
417.00,0.0328
416.00,0.0338
415.00,0.0342
414.00,0.0342
413.00,0.0343
412.00,0.0347
411.00,0.0349
410.00,0.0344
409.00,0.0330
408.00,0.0313
407.00,0.0300
406.00,0.0298
405.00,0.0305
404.00,0.0316
403.00,0.0324
402.00,0.0325
401.00,0.0323
400.00,0.0323
