Created as New Dataset,Sample 126 By YargerLab Date Wednesday, June 05 2024
cm-1,A
4000.00,0.0035
3999.00,0.0035
3998.00,0.0035
3997.00,0.0035
3996.00,0.0035
3995.00,0.0035
3994.00,0.0035
3993.00,0.0035
3992.00,0.0035
3991.00,0.0035
3990.00,0.0035
3989.00,0.0035
3988.00,0.0035
3987.00,0.0035
3986.00,0.0035
3985.00,0.0035
3984.00,0.0035
3983.00,0.0035
3982.00,0.0035
3981.00,0.0035
3980.00,0.0035
3979.00,0.0035
3978.00,0.0035
3977.00,0.0035
3976.00,0.0035
3975.00,0.0035
3974.00,0.0034
3973.00,0.0034
3972.00,0.0034
3971.00,0.0034
3970.00,0.0034
3969.00,0.0034
3968.00,0.0034
3967.00,0.0034
3966.00,0.0035
3965.00,0.0035
3964.00,0.0035
3963.00,0.0035
3962.00,0.0035
3961.00,0.0035
3960.00,0.0035
3959.00,0.0035
3958.00,0.0035
3957.00,0.0034
3956.00,0.0034
3955.00,0.0034
3954.00,0.0034
3953.00,0.0034
3952.00,0.0034
3951.00,0.0035
3950.00,0.0035
3949.00,0.0035
3948.00,0.0036
3947.00,0.0036
3946.00,0.0036
3945.00,0.0035
3944.00,0.0035
3943.00,0.0034
3942.00,0.0034
3941.00,0.0034
3940.00,0.0035
3939.00,0.0035
3938.00,0.0035
3937.00,0.0035
3936.00,0.0035
3935.00,0.0036
3934.00,0.0036
3933.00,0.0036
3932.00,0.0036
3931.00,0.0035
3930.00,0.0035
3929.00,0.0035
3928.00,0.0035
3927.00,0.0035
3926.00,0.0034
3925.00,0.0034
3924.00,0.0034
3923.00,0.0035
3922.00,0.0036
3921.00,0.0037
3920.00,0.0037
3919.00,0.0037
3918.00,0.0037
3917.00,0.0037
3916.00,0.0036
3915.00,0.0035
3914.00,0.0035
3913.00,0.0035
3912.00,0.0034
3911.00,0.0034
3910.00,0.0034
3909.00,0.0034
3908.00,0.0034
3907.00,0.0035
3906.00,0.0035
3905.00,0.0037
3904.00,0.0038
3903.00,0.0040
3902.00,0.0041
3901.00,0.0041
3900.00,0.0040
3899.00,0.0038
3898.00,0.0037
3897.00,0.0037
3896.00,0.0037
3895.00,0.0037
3894.00,0.0036
3893.00,0.0035
3892.00,0.0035
3891.00,0.0035
3890.00,0.0036
3889.00,0.0037
3888.00,0.0038
3887.00,0.0039
3886.00,0.0039
3885.00,0.0038
3884.00,0.0037
3883.00,0.0038
3882.00,0.0038
3881.00,0.0038
3880.00,0.0037
3879.00,0.0037
3878.00,0.0037
3877.00,0.0038
3876.00,0.0038
3875.00,0.0037
3874.00,0.0037
3873.00,0.0037
3872.00,0.0038
3871.00,0.0039
3870.00,0.0039
3869.00,0.0039
3868.00,0.0039
3867.00,0.0040
3866.00,0.0040
3865.00,0.0040
3864.00,0.0039
3863.00,0.0038
3862.00,0.0039
3861.00,0.0039
3860.00,0.0039
3859.00,0.0038
3858.00,0.0036
3857.00,0.0034
3856.00,0.0033
3855.00,0.0032
3854.00,0.0033
3853.00,0.0035
3852.00,0.0036
3851.00,0.0037
3850.00,0.0038
3849.00,0.0039
3848.00,0.0039
3847.00,0.0039
3846.00,0.0038
3845.00,0.0038
3844.00,0.0038
3843.00,0.0039
3842.00,0.0039
3841.00,0.0039
3840.00,0.0040
3839.00,0.0040
3838.00,0.0039
3837.00,0.0039
3836.00,0.0039
3835.00,0.0039
3834.00,0.0039
3833.00,0.0039
3832.00,0.0039
3831.00,0.0039
3830.00,0.0038
3829.00,0.0038
3828.00,0.0038
3827.00,0.0038
3826.00,0.0037
3825.00,0.0038
3824.00,0.0039
3823.00,0.0040
3822.00,0.0040
3821.00,0.0040
3820.00,0.0039
3819.00,0.0039
3818.00,0.0040
3817.00,0.0040
3816.00,0.0039
3815.00,0.0037
3814.00,0.0036
3813.00,0.0036
3812.00,0.0036
3811.00,0.0036
3810.00,0.0036
3809.00,0.0036
3808.00,0.0036
3807.00,0.0037
3806.00,0.0038
3805.00,0.0038
3804.00,0.0039
3803.00,0.0040
3802.00,0.0039
3801.00,0.0038
3800.00,0.0038
3799.00,0.0038
3798.00,0.0039
3797.00,0.0038
3796.00,0.0037
3795.00,0.0036
3794.00,0.0035
3793.00,0.0035
3792.00,0.0034
3791.00,0.0034
3790.00,0.0033
3789.00,0.0033
3788.00,0.0033
3787.00,0.0033
3786.00,0.0033
3785.00,0.0034
3784.00,0.0034
3783.00,0.0034
3782.00,0.0035
3781.00,0.0035
3780.00,0.0035
3779.00,0.0035
3778.00,0.0035
3777.00,0.0034
3776.00,0.0035
3775.00,0.0034
3774.00,0.0034
3773.00,0.0035
3772.00,0.0035
3771.00,0.0036
3770.00,0.0036
3769.00,0.0037
3768.00,0.0037
3767.00,0.0038
3766.00,0.0038
3765.00,0.0037
3764.00,0.0037
3763.00,0.0037
3762.00,0.0038
3761.00,0.0038
3760.00,0.0038
3759.00,0.0038
3758.00,0.0038
3757.00,0.0039
3756.00,0.0039
3755.00,0.0040
3754.00,0.0041
3753.00,0.0042
3752.00,0.0043
3751.00,0.0044
3750.00,0.0045
3749.00,0.0045
3748.00,0.0044
3747.00,0.0044
3746.00,0.0044
3745.00,0.0043
3744.00,0.0042
3743.00,0.0041
3742.00,0.0042
3741.00,0.0043
3740.00,0.0044
3739.00,0.0045
3738.00,0.0046
3737.00,0.0046
3736.00,0.0045
3735.00,0.0044
3734.00,0.0044
3733.00,0.0043
3732.00,0.0042
3731.00,0.0040
3730.00,0.0039
3729.00,0.0039
3728.00,0.0039
3727.00,0.0038
3726.00,0.0038
3725.00,0.0037
3724.00,0.0037
3723.00,0.0037
3722.00,0.0037
3721.00,0.0036
3720.00,0.0036
3719.00,0.0035
3718.00,0.0035
3717.00,0.0035
3716.00,0.0035
3715.00,0.0036
3714.00,0.0037
3713.00,0.0037
3712.00,0.0038
3711.00,0.0038
3710.00,0.0038
3709.00,0.0037
3708.00,0.0037
3707.00,0.0036
3706.00,0.0035
3705.00,0.0034
3704.00,0.0034
3703.00,0.0033
3702.00,0.0032
3701.00,0.0032
3700.00,0.0032
3699.00,0.0032
3698.00,0.0033
3697.00,0.0033
3696.00,0.0033
3695.00,0.0033
3694.00,0.0034
3693.00,0.0035
3692.00,0.0035
3691.00,0.0035
3690.00,0.0035
3689.00,0.0036
3688.00,0.0036
3687.00,0.0036
3686.00,0.0036
3685.00,0.0036
3684.00,0.0036
3683.00,0.0036
3682.00,0.0036
3681.00,0.0036
3680.00,0.0036
3679.00,0.0036
3678.00,0.0038
3677.00,0.0040
3676.00,0.0041
3675.00,0.0041
3674.00,0.0041
3673.00,0.0041
3672.00,0.0042
3671.00,0.0042
3670.00,0.0040
3669.00,0.0039
3668.00,0.0038
3667.00,0.0037
3666.00,0.0037
3665.00,0.0036
3664.00,0.0035
3663.00,0.0035
3662.00,0.0034
3661.00,0.0034
3660.00,0.0035
3659.00,0.0035
3658.00,0.0036
3657.00,0.0037
3656.00,0.0037
3655.00,0.0038
3654.00,0.0039
3653.00,0.0041
3652.00,0.0042
3651.00,0.0044
3650.00,0.0044
3649.00,0.0045
3648.00,0.0045
3647.00,0.0044
3646.00,0.0042
3645.00,0.0041
3644.00,0.0039
3643.00,0.0038
3642.00,0.0037
3641.00,0.0036
3640.00,0.0036
3639.00,0.0036
3638.00,0.0036
3637.00,0.0036
3636.00,0.0037
3635.00,0.0037
3634.00,0.0038
3633.00,0.0038
3632.00,0.0038
3631.00,0.0040
3630.00,0.0041
3629.00,0.0041
3628.00,0.0041
3627.00,0.0042
3626.00,0.0042
3625.00,0.0042
3624.00,0.0041
3623.00,0.0041
3622.00,0.0041
3621.00,0.0040
3620.00,0.0040
3619.00,0.0040
3618.00,0.0041
3617.00,0.0042
3616.00,0.0043
3615.00,0.0044
3614.00,0.0044
3613.00,0.0044
3612.00,0.0044
3611.00,0.0045
3610.00,0.0045
3609.00,0.0045
3608.00,0.0044
3607.00,0.0043
3606.00,0.0042
3605.00,0.0042
3604.00,0.0042
3603.00,0.0041
3602.00,0.0041
3601.00,0.0041
3600.00,0.0041
3599.00,0.0042
3598.00,0.0042
3597.00,0.0042
3596.00,0.0042
3595.00,0.0042
3594.00,0.0042
3593.00,0.0043
3592.00,0.0043
3591.00,0.0044
3590.00,0.0045
3589.00,0.0045
3588.00,0.0045
3587.00,0.0044
3586.00,0.0044
3585.00,0.0044
3584.00,0.0044
3583.00,0.0044
3582.00,0.0043
3581.00,0.0043
3580.00,0.0043
3579.00,0.0042
3578.00,0.0042
3577.00,0.0042
3576.00,0.0042
3575.00,0.0043
3574.00,0.0043
3573.00,0.0043
3572.00,0.0044
3571.00,0.0045
3570.00,0.0047
3569.00,0.0048
3568.00,0.0048
3567.00,0.0048
3566.00,0.0048
3565.00,0.0048
3564.00,0.0048
3563.00,0.0047
3562.00,0.0047
3561.00,0.0046
3560.00,0.0046
3559.00,0.0046
3558.00,0.0046
3557.00,0.0046
3556.00,0.0046
3555.00,0.0046
3554.00,0.0046
3553.00,0.0047
3552.00,0.0047
3551.00,0.0048
3550.00,0.0048
3549.00,0.0049
3548.00,0.0050
3547.00,0.0050
3546.00,0.0050
3545.00,0.0050
3544.00,0.0050
3543.00,0.0050
3542.00,0.0049
3541.00,0.0049
3540.00,0.0049
3539.00,0.0049
3538.00,0.0049
3537.00,0.0049
3536.00,0.0049
3535.00,0.0049
3534.00,0.0050
3533.00,0.0050
3532.00,0.0051
3531.00,0.0051
3530.00,0.0051
3529.00,0.0051
3528.00,0.0052
3527.00,0.0053
3526.00,0.0053
3525.00,0.0053
3524.00,0.0053
3523.00,0.0053
3522.00,0.0053
3521.00,0.0053
3520.00,0.0053
3519.00,0.0053
3518.00,0.0053
3517.00,0.0053
3516.00,0.0053
3515.00,0.0053
3514.00,0.0053
3513.00,0.0053
3512.00,0.0053
3511.00,0.0054
3510.00,0.0054
3509.00,0.0054
3508.00,0.0055
3507.00,0.0055
3506.00,0.0055
3505.00,0.0056
3504.00,0.0056
3503.00,0.0056
3502.00,0.0056
3501.00,0.0056
3500.00,0.0057
3499.00,0.0057
3498.00,0.0056
3497.00,0.0056
3496.00,0.0056
3495.00,0.0056
3494.00,0.0057
3493.00,0.0057
3492.00,0.0057
3491.00,0.0057
3490.00,0.0057
3489.00,0.0057
3488.00,0.0058
3487.00,0.0058
3486.00,0.0058
3485.00,0.0058
3484.00,0.0058
3483.00,0.0058
3482.00,0.0059
3481.00,0.0059
3480.00,0.0059
3479.00,0.0059
3478.00,0.0059
3477.00,0.0059
3476.00,0.0059
3475.00,0.0059
3474.00,0.0059
3473.00,0.0060
3472.00,0.0060
3471.00,0.0060
3470.00,0.0060
3469.00,0.0061
3468.00,0.0061
3467.00,0.0061
3466.00,0.0061
3465.00,0.0061
3464.00,0.0061
3463.00,0.0061
3462.00,0.0061
3461.00,0.0062
3460.00,0.0062
3459.00,0.0062
3458.00,0.0062
3457.00,0.0062
3456.00,0.0062
3455.00,0.0062
3454.00,0.0062
3453.00,0.0062
3452.00,0.0063
3451.00,0.0063
3450.00,0.0063
3449.00,0.0063
3448.00,0.0063
3447.00,0.0063
3446.00,0.0064
3445.00,0.0064
3444.00,0.0064
3443.00,0.0064
3442.00,0.0064
3441.00,0.0064
3440.00,0.0065
3439.00,0.0065
3438.00,0.0065
3437.00,0.0065
3436.00,0.0065
3435.00,0.0066
3434.00,0.0066
3433.00,0.0066
3432.00,0.0066
3431.00,0.0066
3430.00,0.0066
3429.00,0.0067
3428.00,0.0067
3427.00,0.0067
3426.00,0.0067
3425.00,0.0067
3424.00,0.0067
3423.00,0.0068
3422.00,0.0068
3421.00,0.0068
3420.00,0.0068
3419.00,0.0068
3418.00,0.0068
3417.00,0.0068
3416.00,0.0069
3415.00,0.0069
3414.00,0.0069
3413.00,0.0069
3412.00,0.0069
3411.00,0.0069
3410.00,0.0070
3409.00,0.0070
3408.00,0.0070
3407.00,0.0070
3406.00,0.0070
3405.00,0.0071
3404.00,0.0071
3403.00,0.0071
3402.00,0.0071
3401.00,0.0072
3400.00,0.0072
3399.00,0.0072
3398.00,0.0072
3397.00,0.0073
3396.00,0.0073
3395.00,0.0073
3394.00,0.0073
3393.00,0.0073
3392.00,0.0073
3391.00,0.0073
3390.00,0.0073
3389.00,0.0073
3388.00,0.0073
3387.00,0.0073
3386.00,0.0073
3385.00,0.0074
3384.00,0.0074
3383.00,0.0074
3382.00,0.0074
3381.00,0.0075
3380.00,0.0075
3379.00,0.0075
3378.00,0.0075
3377.00,0.0075
3376.00,0.0075
3375.00,0.0076
3374.00,0.0076
3373.00,0.0076
3372.00,0.0076
3371.00,0.0076
3370.00,0.0077
3369.00,0.0077
3368.00,0.0077
3367.00,0.0078
3366.00,0.0078
3365.00,0.0078
3364.00,0.0078
3363.00,0.0078
3362.00,0.0079
3361.00,0.0079
3360.00,0.0079
3359.00,0.0079
3358.00,0.0079
3357.00,0.0079
3356.00,0.0080
3355.00,0.0080
3354.00,0.0080
3353.00,0.0081
3352.00,0.0081
3351.00,0.0081
3350.00,0.0081
3349.00,0.0081
3348.00,0.0082
3347.00,0.0082
3346.00,0.0082
3345.00,0.0082
3344.00,0.0083
3343.00,0.0083
3342.00,0.0084
3341.00,0.0084
3340.00,0.0085
3339.00,0.0085
3338.00,0.0085
3337.00,0.0086
3336.00,0.0086
3335.00,0.0086
3334.00,0.0086
3333.00,0.0086
3332.00,0.0086
3331.00,0.0087
3330.00,0.0087
3329.00,0.0088
3328.00,0.0088
3327.00,0.0089
3326.00,0.0089
3325.00,0.0090
3324.00,0.0090
3323.00,0.0091
3322.00,0.0091
3321.00,0.0091
3320.00,0.0092
3319.00,0.0092
3318.00,0.0093
3317.00,0.0093
3316.00,0.0094
3315.00,0.0094
3314.00,0.0095
3313.00,0.0096
3312.00,0.0096
3311.00,0.0097
3310.00,0.0097
3309.00,0.0098
3308.00,0.0098
3307.00,0.0099
3306.00,0.0099
3305.00,0.0100
3304.00,0.0101
3303.00,0.0101
3302.00,0.0102
3301.00,0.0103
3300.00,0.0103
3299.00,0.0104
3298.00,0.0104
3297.00,0.0105
3296.00,0.0106
3295.00,0.0106
3294.00,0.0107
3293.00,0.0107
3292.00,0.0108
3291.00,0.0108
3290.00,0.0109
3289.00,0.0109
3288.00,0.0110
3287.00,0.0110
3286.00,0.0111
3285.00,0.0111
3284.00,0.0111
3283.00,0.0112
3282.00,0.0112
3281.00,0.0112
3280.00,0.0113
3279.00,0.0113
3278.00,0.0113
3277.00,0.0114
3276.00,0.0114
3275.00,0.0114
3274.00,0.0114
3273.00,0.0114
3272.00,0.0114
3271.00,0.0114
3270.00,0.0114
3269.00,0.0114
3268.00,0.0114
3267.00,0.0113
3266.00,0.0113
3265.00,0.0113
3264.00,0.0112
3263.00,0.0112
3262.00,0.0112
3261.00,0.0111
3260.00,0.0111
3259.00,0.0111
3258.00,0.0110
3257.00,0.0110
3256.00,0.0109
3255.00,0.0109
3254.00,0.0109
3253.00,0.0108
3252.00,0.0108
3251.00,0.0107
3250.00,0.0107
3249.00,0.0107
3248.00,0.0106
3247.00,0.0106
3246.00,0.0105
3245.00,0.0105
3244.00,0.0104
3243.00,0.0104
3242.00,0.0103
3241.00,0.0103
3240.00,0.0103
3239.00,0.0102
3238.00,0.0102
3237.00,0.0101
3236.00,0.0101
3235.00,0.0101
3234.00,0.0100
3233.00,0.0100
3232.00,0.0100
3231.00,0.0099
3230.00,0.0099
3229.00,0.0098
3228.00,0.0098
3227.00,0.0098
3226.00,0.0097
3225.00,0.0097
3224.00,0.0097
3223.00,0.0096
3222.00,0.0096
3221.00,0.0096
3220.00,0.0095
3219.00,0.0095
3218.00,0.0095
3217.00,0.0094
3216.00,0.0094
3215.00,0.0094
3214.00,0.0094
3213.00,0.0093
3212.00,0.0093
3211.00,0.0093
3210.00,0.0092
3209.00,0.0092
3208.00,0.0092
3207.00,0.0091
3206.00,0.0091
3205.00,0.0090
3204.00,0.0090
3203.00,0.0090
3202.00,0.0089
3201.00,0.0089
3200.00,0.0089
3199.00,0.0089
3198.00,0.0088
3197.00,0.0088
3196.00,0.0087
3195.00,0.0087
3194.00,0.0087
3193.00,0.0087
3192.00,0.0086
3191.00,0.0086
3190.00,0.0086
3189.00,0.0085
3188.00,0.0085
3187.00,0.0084
3186.00,0.0084
3185.00,0.0084
3184.00,0.0083
3183.00,0.0083
3182.00,0.0083
3181.00,0.0083
3180.00,0.0082
3179.00,0.0082
3178.00,0.0082
3177.00,0.0081
3176.00,0.0081
3175.00,0.0080
3174.00,0.0080
3173.00,0.0079
3172.00,0.0079
3171.00,0.0079
3170.00,0.0078
3169.00,0.0078
3168.00,0.0078
3167.00,0.0077
3166.00,0.0077
3165.00,0.0077
3164.00,0.0076
3163.00,0.0076
3162.00,0.0076
3161.00,0.0076
3160.00,0.0076
3159.00,0.0075
3158.00,0.0075
3157.00,0.0075
3156.00,0.0074
3155.00,0.0074
3154.00,0.0074
3153.00,0.0074
3152.00,0.0074
3151.00,0.0073
3150.00,0.0073
3149.00,0.0073
3148.00,0.0072
3147.00,0.0072
3146.00,0.0072
3145.00,0.0072
3144.00,0.0072
3143.00,0.0071
3142.00,0.0071
3141.00,0.0071
3140.00,0.0070
3139.00,0.0070
3138.00,0.0070
3137.00,0.0070
3136.00,0.0070
3135.00,0.0070
3134.00,0.0070
3133.00,0.0069
3132.00,0.0069
3131.00,0.0069
3130.00,0.0069
3129.00,0.0069
3128.00,0.0069
3127.00,0.0069
3126.00,0.0069
3125.00,0.0069
3124.00,0.0068
3123.00,0.0068
3122.00,0.0068
3121.00,0.0068
3120.00,0.0068
3119.00,0.0068
3118.00,0.0068
3117.00,0.0068
3116.00,0.0068
3115.00,0.0068
3114.00,0.0068
3113.00,0.0068
3112.00,0.0068
3111.00,0.0068
3110.00,0.0068
3109.00,0.0068
3108.00,0.0068
3107.00,0.0068
3106.00,0.0068
3105.00,0.0068
3104.00,0.0068
3103.00,0.0068
3102.00,0.0068
3101.00,0.0068
3100.00,0.0068
3099.00,0.0068
3098.00,0.0068
3097.00,0.0068
3096.00,0.0068
3095.00,0.0068
3094.00,0.0068
3093.00,0.0068
3092.00,0.0068
3091.00,0.0068
3090.00,0.0068
3089.00,0.0068
3088.00,0.0068
3087.00,0.0068
3086.00,0.0068
3085.00,0.0068
3084.00,0.0068
3083.00,0.0068
3082.00,0.0068
3081.00,0.0068
3080.00,0.0069
3079.00,0.0069
3078.00,0.0069
3077.00,0.0069
3076.00,0.0069
3075.00,0.0069
3074.00,0.0069
3073.00,0.0069
3072.00,0.0069
3071.00,0.0069
3070.00,0.0068
3069.00,0.0068
3068.00,0.0068
3067.00,0.0068
3066.00,0.0068
3065.00,0.0068
3064.00,0.0068
3063.00,0.0068
3062.00,0.0068
3061.00,0.0068
3060.00,0.0068
3059.00,0.0067
3058.00,0.0067
3057.00,0.0067
3056.00,0.0066
3055.00,0.0066
3054.00,0.0066
3053.00,0.0066
3052.00,0.0065
3051.00,0.0065
3050.00,0.0065
3049.00,0.0065
3048.00,0.0065
3047.00,0.0065
3046.00,0.0064
3045.00,0.0064
3044.00,0.0064
3043.00,0.0063
3042.00,0.0063
3041.00,0.0063
3040.00,0.0063
3039.00,0.0063
3038.00,0.0063
3037.00,0.0062
3036.00,0.0062
3035.00,0.0062
3034.00,0.0062
3033.00,0.0061
3032.00,0.0061
3031.00,0.0061
3030.00,0.0061
3029.00,0.0060
3028.00,0.0060
3027.00,0.0060
3026.00,0.0060
3025.00,0.0060
3024.00,0.0060
3023.00,0.0059
3022.00,0.0059
3021.00,0.0059
3020.00,0.0059
3019.00,0.0059
3018.00,0.0059
3017.00,0.0058
3016.00,0.0058
3015.00,0.0058
3014.00,0.0058
3013.00,0.0058
3012.00,0.0058
3011.00,0.0058
3010.00,0.0059
3009.00,0.0059
3008.00,0.0059
3007.00,0.0059
3006.00,0.0060
3005.00,0.0060
3004.00,0.0060
3003.00,0.0061
3002.00,0.0061
3001.00,0.0061
3000.00,0.0061
2999.00,0.0062
2998.00,0.0062
2997.00,0.0062
2996.00,0.0062
2995.00,0.0062
2994.00,0.0062
2993.00,0.0063
2992.00,0.0063
2991.00,0.0063
2990.00,0.0063
2989.00,0.0063
2988.00,0.0064
2987.00,0.0064
2986.00,0.0064
2985.00,0.0065
2984.00,0.0067
2983.00,0.0068
2982.00,0.0069
2981.00,0.0069
2980.00,0.0069
2979.00,0.0068
2978.00,0.0068
2977.00,0.0067
2976.00,0.0067
2975.00,0.0067
2974.00,0.0067
2973.00,0.0067
2972.00,0.0067
2971.00,0.0067
2970.00,0.0066
2969.00,0.0066
2968.00,0.0066
2967.00,0.0065
2966.00,0.0065
2965.00,0.0065
2964.00,0.0065
2963.00,0.0065
2962.00,0.0065
2961.00,0.0065
2960.00,0.0065
2959.00,0.0064
2958.00,0.0064
2957.00,0.0064
2956.00,0.0063
2955.00,0.0063
2954.00,0.0062
2953.00,0.0061
2952.00,0.0060
2951.00,0.0059
2950.00,0.0059
2949.00,0.0058
2948.00,0.0057
2947.00,0.0057
2946.00,0.0057
2945.00,0.0057
2944.00,0.0057
2943.00,0.0057
2942.00,0.0057
2941.00,0.0058
2940.00,0.0058
2939.00,0.0059
2938.00,0.0059
2937.00,0.0060
2936.00,0.0061
2935.00,0.0062
2934.00,0.0063
2933.00,0.0065
2932.00,0.0066
2931.00,0.0068
2930.00,0.0070
2929.00,0.0071
2928.00,0.0073
2927.00,0.0075
2926.00,0.0078
2925.00,0.0081
2924.00,0.0085
2923.00,0.0088
2922.00,0.0093
2921.00,0.0098
2920.00,0.0103
2919.00,0.0108
2918.00,0.0111
2917.00,0.0113
2916.00,0.0112
2915.00,0.0108
2914.00,0.0102
2913.00,0.0095
2912.00,0.0089
2911.00,0.0083
2910.00,0.0078
2909.00,0.0075
2908.00,0.0072
2907.00,0.0070
2906.00,0.0069
2905.00,0.0068
2904.00,0.0067
2903.00,0.0066
2902.00,0.0066
2901.00,0.0065
2900.00,0.0065
2899.00,0.0064
2898.00,0.0064
2897.00,0.0064
2896.00,0.0063
2895.00,0.0063
2894.00,0.0062
2893.00,0.0062
2892.00,0.0062
2891.00,0.0062
2890.00,0.0061
2889.00,0.0061
2888.00,0.0061
2887.00,0.0061
2886.00,0.0060
2885.00,0.0060
2884.00,0.0060
2883.00,0.0060
2882.00,0.0059
2881.00,0.0059
2880.00,0.0059
2879.00,0.0058
2878.00,0.0058
2877.00,0.0058
2876.00,0.0057
2875.00,0.0057
2874.00,0.0057
2873.00,0.0056
2872.00,0.0056
2871.00,0.0055
2870.00,0.0055
2869.00,0.0055
2868.00,0.0055
2867.00,0.0055
2866.00,0.0055
2865.00,0.0055
2864.00,0.0055
2863.00,0.0055
2862.00,0.0056
2861.00,0.0056
2860.00,0.0057
2859.00,0.0058
2858.00,0.0059
2857.00,0.0060
2856.00,0.0061
2855.00,0.0064
2854.00,0.0067
2853.00,0.0071
2852.00,0.0076
2851.00,0.0082
2850.00,0.0086
2849.00,0.0087
2848.00,0.0085
2847.00,0.0081
2846.00,0.0075
2845.00,0.0069
2844.00,0.0063
2843.00,0.0059
2842.00,0.0057
2841.00,0.0055
2840.00,0.0053
2839.00,0.0052
2838.00,0.0051
2837.00,0.0051
2836.00,0.0050
2835.00,0.0050
2834.00,0.0049
2833.00,0.0049
2832.00,0.0049
2831.00,0.0049
2830.00,0.0049
2829.00,0.0048
2828.00,0.0048
2827.00,0.0048
2826.00,0.0048
2825.00,0.0048
2824.00,0.0048
2823.00,0.0048
2822.00,0.0048
2821.00,0.0048
2820.00,0.0048
2819.00,0.0048
2818.00,0.0048
2817.00,0.0048
2816.00,0.0047
2815.00,0.0047
2814.00,0.0047
2813.00,0.0047
2812.00,0.0047
2811.00,0.0047
2810.00,0.0047
2809.00,0.0047
2808.00,0.0047
2807.00,0.0047
2806.00,0.0047
2805.00,0.0047
2804.00,0.0047
2803.00,0.0047
2802.00,0.0046
2801.00,0.0046
2800.00,0.0046
2799.00,0.0046
2798.00,0.0046
2797.00,0.0046
2796.00,0.0046
2795.00,0.0046
2794.00,0.0046
2793.00,0.0046
2792.00,0.0046
2791.00,0.0045
2790.00,0.0045
2789.00,0.0045
2788.00,0.0045
2787.00,0.0045
2786.00,0.0045
2785.00,0.0045
2784.00,0.0045
2783.00,0.0045
2782.00,0.0045
2781.00,0.0045
2780.00,0.0044
2779.00,0.0044
2778.00,0.0044
2777.00,0.0044
2776.00,0.0044
2775.00,0.0044
2774.00,0.0044
2773.00,0.0044
2772.00,0.0044
2771.00,0.0044
2770.00,0.0044
2769.00,0.0044
2768.00,0.0044
2767.00,0.0044
2766.00,0.0044
2765.00,0.0044
2764.00,0.0043
2763.00,0.0043
2762.00,0.0043
2761.00,0.0043
2760.00,0.0043
2759.00,0.0043
2758.00,0.0043
2757.00,0.0043
2756.00,0.0043
2755.00,0.0042
2754.00,0.0042
2753.00,0.0042
2752.00,0.0042
2751.00,0.0042
2750.00,0.0042
2749.00,0.0042
2748.00,0.0042
2747.00,0.0042
2746.00,0.0042
2745.00,0.0042
2744.00,0.0042
2743.00,0.0042
2742.00,0.0042
2741.00,0.0042
2740.00,0.0042
2739.00,0.0042
2738.00,0.0041
2737.00,0.0041
2736.00,0.0041
2735.00,0.0041
2734.00,0.0041
2733.00,0.0041
2732.00,0.0041
2731.00,0.0041
2730.00,0.0041
2729.00,0.0041
2728.00,0.0041
2727.00,0.0041
2726.00,0.0041
2725.00,0.0040
2724.00,0.0040
2723.00,0.0040
2722.00,0.0040
2721.00,0.0040
2720.00,0.0040
2719.00,0.0040
2718.00,0.0040
2717.00,0.0040
2716.00,0.0040
2715.00,0.0040
2714.00,0.0040
2713.00,0.0040
2712.00,0.0039
2711.00,0.0039
2710.00,0.0039
2709.00,0.0039
2708.00,0.0039
2707.00,0.0039
2706.00,0.0039
2705.00,0.0039
2704.00,0.0039
2703.00,0.0039
2702.00,0.0039
2701.00,0.0039
2700.00,0.0039
2699.00,0.0039
2698.00,0.0039
2697.00,0.0039
2696.00,0.0039
2695.00,0.0039
2694.00,0.0039
2693.00,0.0039
2692.00,0.0039
2691.00,0.0039
2690.00,0.0039
2689.00,0.0039
2688.00,0.0039
2687.00,0.0039
2686.00,0.0039
2685.00,0.0039
2684.00,0.0038
2683.00,0.0038
2682.00,0.0038
2681.00,0.0038
2680.00,0.0038
2679.00,0.0038
2678.00,0.0038
2677.00,0.0038
2676.00,0.0038
2675.00,0.0038
2674.00,0.0038
2673.00,0.0038
2672.00,0.0038
2671.00,0.0038
2670.00,0.0038
2669.00,0.0038
2668.00,0.0038
2667.00,0.0039
2666.00,0.0039
2665.00,0.0039
2664.00,0.0040
2663.00,0.0040
2662.00,0.0041
2661.00,0.0041
2660.00,0.0041
2659.00,0.0042
2658.00,0.0042
2657.00,0.0042
2656.00,0.0042
2655.00,0.0042
2654.00,0.0042
2653.00,0.0042
2652.00,0.0042
2651.00,0.0042
2650.00,0.0042
2649.00,0.0042
2648.00,0.0042
2647.00,0.0042
2646.00,0.0042
2645.00,0.0042
2644.00,0.0042
2643.00,0.0042
2642.00,0.0042
2641.00,0.0042
2640.00,0.0042
2639.00,0.0042
2638.00,0.0042
2637.00,0.0042
2636.00,0.0042
2635.00,0.0042
2634.00,0.0042
2633.00,0.0042
2632.00,0.0042
2631.00,0.0041
2630.00,0.0041
2629.00,0.0041
2628.00,0.0041
2627.00,0.0041
2626.00,0.0041
2625.00,0.0041
2624.00,0.0041
2623.00,0.0041
2622.00,0.0041
2621.00,0.0040
2620.00,0.0040
2619.00,0.0040
2618.00,0.0040
2617.00,0.0040
2616.00,0.0040
2615.00,0.0040
2614.00,0.0040
2613.00,0.0039
2612.00,0.0039
2611.00,0.0039
2610.00,0.0039
2609.00,0.0039
2608.00,0.0039
2607.00,0.0039
2606.00,0.0039
2605.00,0.0039
2604.00,0.0039
2603.00,0.0039
2602.00,0.0039
2601.00,0.0038
2600.00,0.0038
2599.00,0.0038
2598.00,0.0038
2597.00,0.0038
2596.00,0.0038
2595.00,0.0038
2594.00,0.0038
2593.00,0.0038
2592.00,0.0037
2591.00,0.0037
2590.00,0.0037
2589.00,0.0037
2588.00,0.0037
2587.00,0.0037
2586.00,0.0037
2585.00,0.0037
2584.00,0.0036
2583.00,0.0036
2582.00,0.0037
2581.00,0.0037
2580.00,0.0037
2579.00,0.0037
2578.00,0.0037
2577.00,0.0036
2576.00,0.0036
2575.00,0.0036
2574.00,0.0036
2573.00,0.0036
2572.00,0.0035
2571.00,0.0035
2570.00,0.0035
2569.00,0.0035
2568.00,0.0035
2567.00,0.0035
2566.00,0.0035
2565.00,0.0035
2564.00,0.0035
2563.00,0.0035
2562.00,0.0035
2561.00,0.0035
2560.00,0.0035
2559.00,0.0035
2558.00,0.0035
2557.00,0.0035
2556.00,0.0035
2555.00,0.0034
2554.00,0.0034
2553.00,0.0034
2552.00,0.0034
2551.00,0.0034
2550.00,0.0034
2549.00,0.0034
2548.00,0.0034
2547.00,0.0034
2546.00,0.0034
2545.00,0.0034
2544.00,0.0034
2543.00,0.0034
2542.00,0.0033
2541.00,0.0033
2540.00,0.0033
2539.00,0.0033
2538.00,0.0033
2537.00,0.0033
2536.00,0.0033
2535.00,0.0033
2534.00,0.0033
2533.00,0.0033
2532.00,0.0033
2531.00,0.0033
2530.00,0.0033
2529.00,0.0032
2528.00,0.0032
2527.00,0.0032
2526.00,0.0032
2525.00,0.0033
2524.00,0.0033
2523.00,0.0033
2522.00,0.0033
2521.00,0.0032
2520.00,0.0032
2519.00,0.0032
2518.00,0.0032
2517.00,0.0032
2516.00,0.0033
2515.00,0.0032
2514.00,0.0032
2513.00,0.0032
2512.00,0.0032
2511.00,0.0032
2510.00,0.0032
2509.00,0.0032
2508.00,0.0032
2507.00,0.0032
2506.00,0.0032
2505.00,0.0032
2504.00,0.0032
2503.00,0.0032
2502.00,0.0032
2501.00,0.0032
2500.00,0.0032
2499.00,0.0032
2498.00,0.0032
2497.00,0.0031
2496.00,0.0031
2495.00,0.0032
2494.00,0.0032
2493.00,0.0031
2492.00,0.0031
2491.00,0.0031
2490.00,0.0031
2489.00,0.0031
2488.00,0.0031
2487.00,0.0031
2486.00,0.0031
2485.00,0.0031
2484.00,0.0031
2483.00,0.0031
2482.00,0.0031
2481.00,0.0031
2480.00,0.0031
2479.00,0.0031
2478.00,0.0031
2477.00,0.0031
2476.00,0.0031
2475.00,0.0031
2474.00,0.0031
2473.00,0.0031
2472.00,0.0031
2471.00,0.0031
2470.00,0.0030
2469.00,0.0031
2468.00,0.0031
2467.00,0.0031
2466.00,0.0031
2465.00,0.0031
2464.00,0.0031
2463.00,0.0031
2462.00,0.0031
2461.00,0.0031
2460.00,0.0031
2459.00,0.0032
2458.00,0.0032
2457.00,0.0032
2456.00,0.0032
2455.00,0.0032
2454.00,0.0032
2453.00,0.0032
2452.00,0.0032
2451.00,0.0032
2450.00,0.0031
2449.00,0.0031
2448.00,0.0031
2447.00,0.0031
2446.00,0.0031
2445.00,0.0031
2444.00,0.0031
2443.00,0.0031
2442.00,0.0030
2441.00,0.0030
2440.00,0.0030
2439.00,0.0030
2438.00,0.0030
2437.00,0.0030
2436.00,0.0030
2435.00,0.0030
2434.00,0.0030
2433.00,0.0029
2432.00,0.0029
2431.00,0.0029
2430.00,0.0029
2429.00,0.0029
2428.00,0.0029
2427.00,0.0029
2426.00,0.0029
2425.00,0.0029
2424.00,0.0029
2423.00,0.0029
2422.00,0.0029
2421.00,0.0029
2420.00,0.0028
2419.00,0.0028
2418.00,0.0028
2417.00,0.0028
2416.00,0.0028
2415.00,0.0028
2414.00,0.0028
2413.00,0.0028
2412.00,0.0028
2411.00,0.0028
2410.00,0.0028
2409.00,0.0028
2408.00,0.0027
2407.00,0.0027
2406.00,0.0026
2405.00,0.0026
2404.00,0.0026
2403.00,0.0026
2402.00,0.0026
2401.00,0.0026
2400.00,0.0026
2399.00,0.0026
2398.00,0.0026
2397.00,0.0026
2396.00,0.0026
2395.00,0.0026
2394.00,0.0026
2393.00,0.0026
2392.00,0.0026
2391.00,0.0026
2390.00,0.0025
2389.00,0.0025
2388.00,0.0025
2387.00,0.0025
2386.00,0.0025
2385.00,0.0025
2384.00,0.0024
2383.00,0.0024
2382.00,0.0024
2381.00,0.0024
2380.00,0.0024
2379.00,0.0024
2378.00,0.0024
2377.00,0.0024
2376.00,0.0024
2375.00,0.0024
2374.00,0.0024
2373.00,0.0024
2372.00,0.0024
2371.00,0.0023
2370.00,0.0023
2369.00,0.0023
2368.00,0.0023
2367.00,0.0023
2366.00,0.0023
2365.00,0.0024
2364.00,0.0024
2363.00,0.0024
2362.00,0.0024
2361.00,0.0024
2360.00,0.0025
2359.00,0.0025
2358.00,0.0025
2357.00,0.0025
2356.00,0.0025
2355.00,0.0025
2354.00,0.0025
2353.00,0.0025
2352.00,0.0024
2351.00,0.0023
2350.00,0.0023
2349.00,0.0023
2348.00,0.0025
2347.00,0.0028
2346.00,0.0030
2345.00,0.0030
2344.00,0.0030
2343.00,0.0029
2342.00,0.0028
2341.00,0.0028
2340.00,0.0028
2339.00,0.0028
2338.00,0.0028
2337.00,0.0028
2336.00,0.0027
2335.00,0.0027
2334.00,0.0027
2333.00,0.0027
2332.00,0.0027
2331.00,0.0027
2330.00,0.0027
2329.00,0.0029
2328.00,0.0031
2327.00,0.0034
2326.00,0.0038
2325.00,0.0039
2324.00,0.0040
2323.00,0.0038
2322.00,0.0037
2321.00,0.0035
2320.00,0.0034
2319.00,0.0033
2318.00,0.0033
2317.00,0.0032
2316.00,0.0032
2315.00,0.0032
2314.00,0.0031
2313.00,0.0031
2312.00,0.0031
2311.00,0.0030
2310.00,0.0030
2309.00,0.0030
2308.00,0.0030
2307.00,0.0031
2306.00,0.0031
2305.00,0.0031
2304.00,0.0031
2303.00,0.0031
2302.00,0.0032
2301.00,0.0032
2300.00,0.0032
2299.00,0.0032
2298.00,0.0033
2297.00,0.0033
2296.00,0.0034
2295.00,0.0034
2294.00,0.0035
2293.00,0.0035
2292.00,0.0036
2291.00,0.0037
2290.00,0.0037
2289.00,0.0038
2288.00,0.0038
2287.00,0.0038
2286.00,0.0038
2285.00,0.0037
2284.00,0.0036
2283.00,0.0036
2282.00,0.0036
2281.00,0.0035
2280.00,0.0035
2279.00,0.0034
2278.00,0.0034
2277.00,0.0034
2276.00,0.0033
2275.00,0.0033
2274.00,0.0033
2273.00,0.0033
2272.00,0.0033
2271.00,0.0033
2270.00,0.0032
2269.00,0.0032
2268.00,0.0032
2267.00,0.0031
2266.00,0.0031
2265.00,0.0031
2264.00,0.0031
2263.00,0.0031
2262.00,0.0031
2261.00,0.0031
2260.00,0.0031
2259.00,0.0031
2258.00,0.0031
2257.00,0.0030
2256.00,0.0030
2255.00,0.0029
2254.00,0.0029
2253.00,0.0029
2252.00,0.0029
2251.00,0.0029
2250.00,0.0030
2249.00,0.0030
2248.00,0.0030
2247.00,0.0030
2246.00,0.0031
2245.00,0.0030
2244.00,0.0030
2243.00,0.0030
2242.00,0.0030
2241.00,0.0030
2240.00,0.0030
2239.00,0.0030
2238.00,0.0030
2237.00,0.0030
2236.00,0.0030
2235.00,0.0030
2234.00,0.0030
2233.00,0.0030
2232.00,0.0030
2231.00,0.0030
2230.00,0.0030
2229.00,0.0030
2228.00,0.0029
2227.00,0.0029
2226.00,0.0029
2225.00,0.0029
2224.00,0.0028
2223.00,0.0028
2222.00,0.0028
2221.00,0.0027
2220.00,0.0027
2219.00,0.0028
2218.00,0.0028
2217.00,0.0028
2216.00,0.0027
2215.00,0.0027
2214.00,0.0028
2213.00,0.0028
2212.00,0.0029
2211.00,0.0029
2210.00,0.0029
2209.00,0.0029
2208.00,0.0029
2207.00,0.0029
2206.00,0.0028
2205.00,0.0028
2204.00,0.0028
2203.00,0.0028
2202.00,0.0029
2201.00,0.0029
2200.00,0.0029
2199.00,0.0029
2198.00,0.0029
2197.00,0.0029
2196.00,0.0029
2195.00,0.0028
2194.00,0.0029
2193.00,0.0029
2192.00,0.0029
2191.00,0.0030
2190.00,0.0030
2189.00,0.0030
2188.00,0.0030
2187.00,0.0030
2186.00,0.0030
2185.00,0.0028
2184.00,0.0027
2183.00,0.0025
2182.00,0.0024
2181.00,0.0024
2180.00,0.0024
2179.00,0.0025
2178.00,0.0026
2177.00,0.0024
2176.00,0.0023
2175.00,0.0022
2174.00,0.0023
2173.00,0.0024
2172.00,0.0026
2171.00,0.0028
2170.00,0.0031
2169.00,0.0033
2168.00,0.0034
2167.00,0.0035
2166.00,0.0035
2165.00,0.0037
2164.00,0.0038
2163.00,0.0039
2162.00,0.0036
2161.00,0.0028
2160.00,0.0017
2159.00,0.0006
2158.00,0.0001
2157.00,-0.0000
2156.00,0.0001
2155.00,0.0004
2154.00,0.0005
2153.00,0.0007
2152.00,0.0008
2151.00,0.0009
2150.00,0.0010
2149.00,0.0010
2148.00,0.0010
2147.00,0.0010
2146.00,0.0010
2145.00,0.0010
2144.00,0.0011
2143.00,0.0011
2142.00,0.0012
2141.00,0.0012
2140.00,0.0012
2139.00,0.0011
2138.00,0.0010
2137.00,0.0009
2136.00,0.0007
2135.00,0.0005
2134.00,0.0004
2133.00,0.0005
2132.00,0.0006
2131.00,0.0008
2130.00,0.0010
2129.00,0.0012
2128.00,0.0013
2127.00,0.0014
2126.00,0.0015
2125.00,0.0016
2124.00,0.0017
2123.00,0.0018
2122.00,0.0019
2121.00,0.0019
2120.00,0.0020
2119.00,0.0021
2118.00,0.0022
2117.00,0.0023
2116.00,0.0024
2115.00,0.0025
2114.00,0.0025
2113.00,0.0025
2112.00,0.0025
2111.00,0.0025
2110.00,0.0025
2109.00,0.0024
2108.00,0.0024
2107.00,0.0024
2106.00,0.0024
2105.00,0.0023
2104.00,0.0023
2103.00,0.0023
2102.00,0.0023
2101.00,0.0023
2100.00,0.0022
2099.00,0.0022
2098.00,0.0021
2097.00,0.0020
2096.00,0.0020
2095.00,0.0019
2094.00,0.0020
2093.00,0.0020
2092.00,0.0021
2091.00,0.0022
2090.00,0.0022
2089.00,0.0023
2088.00,0.0023
2087.00,0.0024
2086.00,0.0024
2085.00,0.0025
2084.00,0.0025
2083.00,0.0025
2082.00,0.0025
2081.00,0.0025
2080.00,0.0024
2079.00,0.0024
2078.00,0.0024
2077.00,0.0024
2076.00,0.0024
2075.00,0.0024
2074.00,0.0024
2073.00,0.0024
2072.00,0.0024
2071.00,0.0023
2070.00,0.0023
2069.00,0.0023
2068.00,0.0023
2067.00,0.0023
2066.00,0.0023
2065.00,0.0023
2064.00,0.0023
2063.00,0.0022
2062.00,0.0022
2061.00,0.0022
2060.00,0.0022
2059.00,0.0022
2058.00,0.0023
2057.00,0.0024
2056.00,0.0024
2055.00,0.0025
2054.00,0.0027
2053.00,0.0030
2052.00,0.0033
2051.00,0.0034
2050.00,0.0032
2049.00,0.0029
2048.00,0.0027
2047.00,0.0025
2046.00,0.0025
2045.00,0.0024
2044.00,0.0024
2043.00,0.0024
2042.00,0.0024
2041.00,0.0024
2040.00,0.0025
2039.00,0.0025
2038.00,0.0026
2037.00,0.0025
2036.00,0.0024
2035.00,0.0023
2034.00,0.0021
2033.00,0.0019
2032.00,0.0018
2031.00,0.0017
2030.00,0.0017
2029.00,0.0016
2028.00,0.0016
2027.00,0.0016
2026.00,0.0017
2025.00,0.0017
2024.00,0.0016
2023.00,0.0016
2022.00,0.0016
2021.00,0.0016
2020.00,0.0015
2019.00,0.0014
2018.00,0.0014
2017.00,0.0014
2016.00,0.0015
2015.00,0.0016
2014.00,0.0017
2013.00,0.0017
2012.00,0.0017
2011.00,0.0016
2010.00,0.0016
2009.00,0.0015
2008.00,0.0013
2007.00,0.0011
2006.00,0.0009
2005.00,0.0009
2004.00,0.0010
2003.00,0.0011
2002.00,0.0012
2001.00,0.0013
2000.00,0.0014
1999.00,0.0015
1998.00,0.0016
1997.00,0.0017
1996.00,0.0018
1995.00,0.0018
1994.00,0.0018
1993.00,0.0019
1992.00,0.0019
1991.00,0.0020
1990.00,0.0021
1989.00,0.0021
1988.00,0.0021
1987.00,0.0021
1986.00,0.0022
1985.00,0.0024
1984.00,0.0026
1983.00,0.0028
1982.00,0.0030
1981.00,0.0030
1980.00,0.0028
1979.00,0.0024
1978.00,0.0018
1977.00,0.0014
1976.00,0.0011
1975.00,0.0010
1974.00,0.0010
1973.00,0.0010
1972.00,0.0010
1971.00,0.0011
1970.00,0.0011
1969.00,0.0010
1968.00,0.0010
1967.00,0.0009
1966.00,0.0009
1965.00,0.0009
1964.00,0.0009
1963.00,0.0009
1962.00,0.0008
1961.00,0.0006
1960.00,0.0005
1959.00,0.0005
1958.00,0.0005
1957.00,0.0007
1956.00,0.0008
1955.00,0.0009
1954.00,0.0009
1953.00,0.0009
1952.00,0.0009
1951.00,0.0009
1950.00,0.0009
1949.00,0.0009
1948.00,0.0009
1947.00,0.0010
1946.00,0.0010
1945.00,0.0010
1944.00,0.0009
1943.00,0.0009
1942.00,0.0009
1941.00,0.0010
1940.00,0.0010
1939.00,0.0010
1938.00,0.0010
1937.00,0.0010
1936.00,0.0009
1935.00,0.0009
1934.00,0.0009
1933.00,0.0009
1932.00,0.0010
1931.00,0.0010
1930.00,0.0010
1929.00,0.0011
1928.00,0.0011
1927.00,0.0011
1926.00,0.0011
1925.00,0.0011
1924.00,0.0011
1923.00,0.0011
1922.00,0.0012
1921.00,0.0013
1920.00,0.0014
1919.00,0.0014
1918.00,0.0014
1917.00,0.0014
1916.00,0.0014
1915.00,0.0014
1914.00,0.0014
1913.00,0.0014
1912.00,0.0013
1911.00,0.0013
1910.00,0.0012
1909.00,0.0012
1908.00,0.0012
1907.00,0.0012
1906.00,0.0013
1905.00,0.0012
1904.00,0.0012
1903.00,0.0013
1902.00,0.0013
1901.00,0.0013
1900.00,0.0013
1899.00,0.0013
1898.00,0.0013
1897.00,0.0013
1896.00,0.0013
1895.00,0.0013
1894.00,0.0013
1893.00,0.0013
1892.00,0.0013
1891.00,0.0013
1890.00,0.0012
1889.00,0.0012
1888.00,0.0012
1887.00,0.0013
1886.00,0.0014
1885.00,0.0014
1884.00,0.0013
1883.00,0.0013
1882.00,0.0013
1881.00,0.0013
1880.00,0.0013
1879.00,0.0013
1878.00,0.0013
1877.00,0.0013
1876.00,0.0013
1875.00,0.0013
1874.00,0.0013
1873.00,0.0014
1872.00,0.0014
1871.00,0.0014
1870.00,0.0014
1869.00,0.0013
1868.00,0.0013
1867.00,0.0013
1866.00,0.0014
1865.00,0.0014
1864.00,0.0014
1863.00,0.0013
1862.00,0.0013
1861.00,0.0013
1860.00,0.0013
1859.00,0.0013
1858.00,0.0013
1857.00,0.0013
1856.00,0.0013
1855.00,0.0013
1854.00,0.0013
1853.00,0.0013
1852.00,0.0013
1851.00,0.0013
1850.00,0.0013
1849.00,0.0013
1848.00,0.0012
1847.00,0.0013
1846.00,0.0013
1845.00,0.0013
1844.00,0.0013
1843.00,0.0014
1842.00,0.0014
1841.00,0.0014
1840.00,0.0014
1839.00,0.0014
1838.00,0.0013
1837.00,0.0013
1836.00,0.0013
1835.00,0.0013
1834.00,0.0013
1833.00,0.0014
1832.00,0.0014
1831.00,0.0013
1830.00,0.0013
1829.00,0.0013
1828.00,0.0014
1827.00,0.0014
1826.00,0.0014
1825.00,0.0013
1824.00,0.0013
1823.00,0.0013
1822.00,0.0014
1821.00,0.0013
1820.00,0.0013
1819.00,0.0012
1818.00,0.0011
1817.00,0.0010
1816.00,0.0011
1815.00,0.0011
1814.00,0.0012
1813.00,0.0012
1812.00,0.0013
1811.00,0.0013
1810.00,0.0013
1809.00,0.0014
1808.00,0.0014
1807.00,0.0014
1806.00,0.0014
1805.00,0.0014
1804.00,0.0014
1803.00,0.0013
1802.00,0.0013
1801.00,0.0014
1800.00,0.0015
1799.00,0.0015
1798.00,0.0016
1797.00,0.0016
1796.00,0.0015
1795.00,0.0016
1794.00,0.0016
1793.00,0.0017
1792.00,0.0017
1791.00,0.0016
1790.00,0.0017
1789.00,0.0017
1788.00,0.0016
1787.00,0.0016
1786.00,0.0015
1785.00,0.0015
1784.00,0.0015
1783.00,0.0015
1782.00,0.0015
1781.00,0.0015
1780.00,0.0015
1779.00,0.0015
1778.00,0.0016
1777.00,0.0016
1776.00,0.0016
1775.00,0.0016
1774.00,0.0017
1773.00,0.0018
1772.00,0.0018
1771.00,0.0018
1770.00,0.0017
1769.00,0.0017
1768.00,0.0017
1767.00,0.0016
1766.00,0.0016
1765.00,0.0016
1764.00,0.0016
1763.00,0.0015
1762.00,0.0014
1761.00,0.0015
1760.00,0.0015
1759.00,0.0015
1758.00,0.0015
1757.00,0.0016
1756.00,0.0016
1755.00,0.0017
1754.00,0.0017
1753.00,0.0018
1752.00,0.0019
1751.00,0.0019
1750.00,0.0019
1749.00,0.0018
1748.00,0.0018
1747.00,0.0018
1746.00,0.0017
1745.00,0.0015
1744.00,0.0014
1743.00,0.0013
1742.00,0.0012
1741.00,0.0012
1740.00,0.0012
1739.00,0.0011
1738.00,0.0011
1737.00,0.0011
1736.00,0.0012
1735.00,0.0013
1734.00,0.0014
1733.00,0.0014
1732.00,0.0015
1731.00,0.0015
1730.00,0.0015
1729.00,0.0015
1728.00,0.0016
1727.00,0.0017
1726.00,0.0017
1725.00,0.0018
1724.00,0.0019
1723.00,0.0019
1722.00,0.0020
1721.00,0.0021
1720.00,0.0022
1719.00,0.0023
1718.00,0.0024
1717.00,0.0025
1716.00,0.0026
1715.00,0.0027
1714.00,0.0028
1713.00,0.0028
1712.00,0.0028
1711.00,0.0029
1710.00,0.0030
1709.00,0.0032
1708.00,0.0034
1707.00,0.0037
1706.00,0.0040
1705.00,0.0043
1704.00,0.0046
1703.00,0.0050
1702.00,0.0055
1701.00,0.0061
1700.00,0.0065
1699.00,0.0068
1698.00,0.0070
1697.00,0.0071
1696.00,0.0070
1695.00,0.0070
1694.00,0.0072
1693.00,0.0074
1692.00,0.0075
1691.00,0.0076
1690.00,0.0077
1689.00,0.0079
1688.00,0.0081
1687.00,0.0083
1686.00,0.0086
1685.00,0.0089
1684.00,0.0091
1683.00,0.0092
1682.00,0.0094
1681.00,0.0095
1680.00,0.0097
1679.00,0.0100
1678.00,0.0102
1677.00,0.0105
1676.00,0.0109
1675.00,0.0111
1674.00,0.0114
1673.00,0.0117
1672.00,0.0120
1671.00,0.0122
1670.00,0.0123
1669.00,0.0124
1668.00,0.0126
1667.00,0.0128
1666.00,0.0130
1665.00,0.0133
1664.00,0.0135
1663.00,0.0138
1662.00,0.0140
1661.00,0.0142
1660.00,0.0145
1659.00,0.0147
1658.00,0.0149
1657.00,0.0151
1656.00,0.0153
1655.00,0.0155
1654.00,0.0157
1653.00,0.0157
1652.00,0.0160
1651.00,0.0163
1650.00,0.0167
1649.00,0.0170
1648.00,0.0172
1647.00,0.0173
1646.00,0.0173
1645.00,0.0174
1644.00,0.0175
1643.00,0.0176
1642.00,0.0177
1641.00,0.0179
1640.00,0.0181
1639.00,0.0183
1638.00,0.0186
1637.00,0.0188
1636.00,0.0189
1635.00,0.0190
1634.00,0.0191
1633.00,0.0191
1632.00,0.0193
1631.00,0.0195
1630.00,0.0198
1629.00,0.0200
1628.00,0.0202
1627.00,0.0205
1626.00,0.0207
1625.00,0.0210
1624.00,0.0213
1623.00,0.0215
1622.00,0.0216
1621.00,0.0218
1620.00,0.0220
1619.00,0.0221
1618.00,0.0222
1617.00,0.0221
1616.00,0.0219
1615.00,0.0217
1614.00,0.0215
1613.00,0.0213
1612.00,0.0210
1611.00,0.0207
1610.00,0.0202
1609.00,0.0197
1608.00,0.0192
1607.00,0.0187
1606.00,0.0183
1605.00,0.0178
1604.00,0.0173
1603.00,0.0169
1602.00,0.0164
1601.00,0.0160
1600.00,0.0156
1599.00,0.0153
1598.00,0.0150
1597.00,0.0147
1596.00,0.0144
1595.00,0.0142
1594.00,0.0140
1593.00,0.0137
1592.00,0.0135
1591.00,0.0134
1590.00,0.0132
1589.00,0.0130
1588.00,0.0129
1587.00,0.0128
1586.00,0.0127
1585.00,0.0127
1584.00,0.0126
1583.00,0.0127
1582.00,0.0127
1581.00,0.0126
1580.00,0.0127
1579.00,0.0127
1578.00,0.0128
1577.00,0.0128
1576.00,0.0129
1575.00,0.0131
1574.00,0.0132
1573.00,0.0132
1572.00,0.0133
1571.00,0.0135
1570.00,0.0136
1569.00,0.0138
1568.00,0.0140
1567.00,0.0142
1566.00,0.0143
1565.00,0.0144
1564.00,0.0145
1563.00,0.0146
1562.00,0.0147
1561.00,0.0150
1560.00,0.0155
1559.00,0.0159
1558.00,0.0161
1557.00,0.0161
1556.00,0.0161
1555.00,0.0162
1554.00,0.0163
1553.00,0.0165
1552.00,0.0166
1551.00,0.0168
1550.00,0.0169
1549.00,0.0171
1548.00,0.0174
1547.00,0.0177
1546.00,0.0179
1545.00,0.0181
1544.00,0.0183
1543.00,0.0186
1542.00,0.0191
1541.00,0.0195
1540.00,0.0196
1539.00,0.0196
1538.00,0.0196
1537.00,0.0197
1536.00,0.0198
1535.00,0.0200
1534.00,0.0201
1533.00,0.0201
1532.00,0.0202
1531.00,0.0204
1530.00,0.0207
1529.00,0.0208
1528.00,0.0209
1527.00,0.0210
1526.00,0.0213
1525.00,0.0215
1524.00,0.0218
1523.00,0.0219
1522.00,0.0220
1521.00,0.0221
1520.00,0.0222
1519.00,0.0224
1518.00,0.0226
1517.00,0.0227
1516.00,0.0227
1515.00,0.0228
1514.00,0.0230
1513.00,0.0230
1512.00,0.0230
1511.00,0.0228
1510.00,0.0227
1509.00,0.0227
1508.00,0.0226
1507.00,0.0222
1506.00,0.0220
1505.00,0.0218
1504.00,0.0216
1503.00,0.0213
1502.00,0.0211
1501.00,0.0209
1500.00,0.0206
1499.00,0.0203
1498.00,0.0200
1497.00,0.0197
1496.00,0.0192
1495.00,0.0188
1494.00,0.0186
1493.00,0.0183
1492.00,0.0180
1491.00,0.0176
1490.00,0.0171
1489.00,0.0167
1488.00,0.0163
1487.00,0.0160
1486.00,0.0157
1485.00,0.0155
1484.00,0.0152
1483.00,0.0150
1482.00,0.0148
1481.00,0.0146
1480.00,0.0145
1479.00,0.0144
1478.00,0.0143
1477.00,0.0143
1476.00,0.0142
1475.00,0.0143
1474.00,0.0145
1473.00,0.0146
1472.00,0.0144
1471.00,0.0142
1470.00,0.0140
1469.00,0.0138
1468.00,0.0137
1467.00,0.0136
1466.00,0.0137
1465.00,0.0138
1464.00,0.0139
1463.00,0.0140
1462.00,0.0140
1461.00,0.0139
1460.00,0.0138
1459.00,0.0136
1458.00,0.0135
1457.00,0.0136
1456.00,0.0137
1455.00,0.0138
1454.00,0.0139
1453.00,0.0140
1452.00,0.0140
1451.00,0.0141
1450.00,0.0141
1449.00,0.0142
1448.00,0.0142
1447.00,0.0142
1446.00,0.0142
1445.00,0.0143
1444.00,0.0144
1443.00,0.0144
1442.00,0.0144
1441.00,0.0144
1440.00,0.0144
1439.00,0.0144
1438.00,0.0143
1437.00,0.0143
1436.00,0.0142
1435.00,0.0141
1434.00,0.0141
1433.00,0.0140
1432.00,0.0139
1431.00,0.0138
1430.00,0.0137
1429.00,0.0136
1428.00,0.0136
1427.00,0.0135
1426.00,0.0135
1425.00,0.0135
1424.00,0.0135
1423.00,0.0135
1422.00,0.0135
1421.00,0.0136
1420.00,0.0136
1419.00,0.0135
1418.00,0.0136
1417.00,0.0137
1416.00,0.0139
1415.00,0.0140
1414.00,0.0141
1413.00,0.0141
1412.00,0.0142
1411.00,0.0143
1410.00,0.0143
1409.00,0.0144
1408.00,0.0145
1407.00,0.0146
1406.00,0.0146
1405.00,0.0146
1404.00,0.0147
1403.00,0.0147
1402.00,0.0147
1401.00,0.0148
1400.00,0.0148
1399.00,0.0148
1398.00,0.0147
1397.00,0.0147
1396.00,0.0147
1395.00,0.0146
1394.00,0.0145
1393.00,0.0145
1392.00,0.0146
1391.00,0.0145
1390.00,0.0144
1389.00,0.0143
1388.00,0.0142
1387.00,0.0141
1386.00,0.0141
1385.00,0.0141
1384.00,0.0141
1383.00,0.0141
1382.00,0.0140
1381.00,0.0139
1380.00,0.0139
1379.00,0.0138
1378.00,0.0138
1377.00,0.0137
1376.00,0.0137
1375.00,0.0136
1374.00,0.0135
1373.00,0.0134
1372.00,0.0134
1371.00,0.0134
1370.00,0.0133
1369.00,0.0132
1368.00,0.0132
1367.00,0.0131
1366.00,0.0130
1365.00,0.0129
1364.00,0.0127
1363.00,0.0125
1362.00,0.0124
1361.00,0.0123
1360.00,0.0123
1359.00,0.0123
1358.00,0.0122
1357.00,0.0122
1356.00,0.0121
1355.00,0.0120
1354.00,0.0120
1353.00,0.0119
1352.00,0.0119
1351.00,0.0119
1350.00,0.0119
1349.00,0.0119
1348.00,0.0119
1347.00,0.0119
1346.00,0.0119
1345.00,0.0119
1344.00,0.0119
1343.00,0.0118
1342.00,0.0118
1341.00,0.0117
1340.00,0.0116
1339.00,0.0116
1338.00,0.0117
1337.00,0.0118
1336.00,0.0119
1335.00,0.0119
1334.00,0.0119
1333.00,0.0119
1332.00,0.0119
1331.00,0.0119
1330.00,0.0119
1329.00,0.0118
1328.00,0.0118
1327.00,0.0118
1326.00,0.0118
1325.00,0.0118
1324.00,0.0117
1323.00,0.0117
1322.00,0.0117
1321.00,0.0116
1320.00,0.0116
1319.00,0.0116
1318.00,0.0116
1317.00,0.0116
1316.00,0.0116
1315.00,0.0115
1314.00,0.0115
1313.00,0.0115
1312.00,0.0115
1311.00,0.0115
1310.00,0.0115
1309.00,0.0115
1308.00,0.0115
1307.00,0.0115
1306.00,0.0115
1305.00,0.0114
1304.00,0.0114
1303.00,0.0114
1302.00,0.0113
1301.00,0.0113
1300.00,0.0113
1299.00,0.0113
1298.00,0.0113
1297.00,0.0112
1296.00,0.0112
1295.00,0.0112
1294.00,0.0112
1293.00,0.0112
1292.00,0.0112
1291.00,0.0112
1290.00,0.0112
1289.00,0.0112
1288.00,0.0112
1287.00,0.0113
1286.00,0.0113
1285.00,0.0113
1284.00,0.0114
1283.00,0.0114
1282.00,0.0114
1281.00,0.0115
1280.00,0.0115
1279.00,0.0116
1278.00,0.0117
1277.00,0.0117
1276.00,0.0118
1275.00,0.0119
1274.00,0.0120
1273.00,0.0121
1272.00,0.0123
1271.00,0.0124
1270.00,0.0125
1269.00,0.0127
1268.00,0.0128
1267.00,0.0129
1266.00,0.0130
1265.00,0.0131
1264.00,0.0132
1263.00,0.0133
1262.00,0.0134
1261.00,0.0134
1260.00,0.0135
1259.00,0.0135
1258.00,0.0136
1257.00,0.0136
1256.00,0.0137
1255.00,0.0137
1254.00,0.0138
1253.00,0.0138
1252.00,0.0139
1251.00,0.0140
1250.00,0.0140
1249.00,0.0141
1248.00,0.0142
1247.00,0.0143
1246.00,0.0143
1245.00,0.0144
1244.00,0.0145
1243.00,0.0146
1242.00,0.0147
1241.00,0.0147
1240.00,0.0148
1239.00,0.0149
1238.00,0.0150
1237.00,0.0151
1236.00,0.0152
1235.00,0.0152
1234.00,0.0153
1233.00,0.0153
1232.00,0.0154
1231.00,0.0154
1230.00,0.0154
1229.00,0.0154
1228.00,0.0154
1227.00,0.0154
1226.00,0.0153
1225.00,0.0153
1224.00,0.0152
1223.00,0.0151
1222.00,0.0151
1221.00,0.0150
1220.00,0.0149
1219.00,0.0148
1218.00,0.0147
1217.00,0.0146
1216.00,0.0144
1215.00,0.0143
1214.00,0.0142
1213.00,0.0140
1212.00,0.0139
1211.00,0.0138
1210.00,0.0136
1209.00,0.0135
1208.00,0.0133
1207.00,0.0132
1206.00,0.0130
1205.00,0.0129
1204.00,0.0128
1203.00,0.0126
1202.00,0.0125
1201.00,0.0123
1200.00,0.0122
1199.00,0.0121
1198.00,0.0119
1197.00,0.0118
1196.00,0.0117
1195.00,0.0116
1194.00,0.0115
1193.00,0.0114
1192.00,0.0113
1191.00,0.0113
1190.00,0.0112
1189.00,0.0111
1188.00,0.0111
1187.00,0.0110
1186.00,0.0109
1185.00,0.0109
1184.00,0.0109
1183.00,0.0108
1182.00,0.0108
1181.00,0.0108
1180.00,0.0108
1179.00,0.0108
1178.00,0.0108
1177.00,0.0108
1176.00,0.0109
1175.00,0.0110
1174.00,0.0111
1173.00,0.0112
1172.00,0.0112
1171.00,0.0113
1170.00,0.0114
1169.00,0.0114
1168.00,0.0115
1167.00,0.0115
1166.00,0.0116
1165.00,0.0116
1164.00,0.0116
1163.00,0.0117
1162.00,0.0117
1161.00,0.0117
1160.00,0.0118
1159.00,0.0118
1158.00,0.0118
1157.00,0.0118
1156.00,0.0117
1155.00,0.0117
1154.00,0.0117
1153.00,0.0116
1152.00,0.0116
1151.00,0.0116
1150.00,0.0115
1149.00,0.0114
1148.00,0.0114
1147.00,0.0113
1146.00,0.0112
1145.00,0.0111
1144.00,0.0111
1143.00,0.0110
1142.00,0.0109
1141.00,0.0109
1140.00,0.0109
1139.00,0.0108
1138.00,0.0108
1137.00,0.0108
1136.00,0.0107
1135.00,0.0107
1134.00,0.0107
1133.00,0.0107
1132.00,0.0107
1131.00,0.0107
1130.00,0.0107
1129.00,0.0107
1128.00,0.0107
1127.00,0.0107
1126.00,0.0107
1125.00,0.0107
1124.00,0.0107
1123.00,0.0107
1122.00,0.0106
1121.00,0.0106
1120.00,0.0106
1119.00,0.0106
1118.00,0.0106
1117.00,0.0106
1116.00,0.0106
1115.00,0.0106
1114.00,0.0105
1113.00,0.0105
1112.00,0.0105
1111.00,0.0105
1110.00,0.0105
1109.00,0.0105
1108.00,0.0105
1107.00,0.0105
1106.00,0.0105
1105.00,0.0106
1104.00,0.0106
1103.00,0.0107
1102.00,0.0107
1101.00,0.0107
1100.00,0.0107
1099.00,0.0108
1098.00,0.0108
1097.00,0.0108
1096.00,0.0109
1095.00,0.0110
1094.00,0.0110
1093.00,0.0111
1092.00,0.0112
1091.00,0.0113
1090.00,0.0114
1089.00,0.0115
1088.00,0.0116
1087.00,0.0118
1086.00,0.0119
1085.00,0.0121
1084.00,0.0123
1083.00,0.0125
1082.00,0.0126
1081.00,0.0128
1080.00,0.0130
1079.00,0.0132
1078.00,0.0133
1077.00,0.0135
1076.00,0.0137
1075.00,0.0138
1074.00,0.0139
1073.00,0.0140
1072.00,0.0141
1071.00,0.0142
1070.00,0.0143
1069.00,0.0143
1068.00,0.0143
1067.00,0.0144
1066.00,0.0144
1065.00,0.0144
1064.00,0.0144
1063.00,0.0143
1062.00,0.0143
1061.00,0.0142
1060.00,0.0142
1059.00,0.0141
1058.00,0.0140
1057.00,0.0140
1056.00,0.0140
1055.00,0.0140
1054.00,0.0139
1053.00,0.0139
1052.00,0.0138
1051.00,0.0138
1050.00,0.0137
1049.00,0.0136
1048.00,0.0136
1047.00,0.0135
1046.00,0.0134
1045.00,0.0133
1044.00,0.0133
1043.00,0.0132
1042.00,0.0132
1041.00,0.0131
1040.00,0.0130
1039.00,0.0129
1038.00,0.0128
1037.00,0.0128
1036.00,0.0127
1035.00,0.0126
1034.00,0.0125
1033.00,0.0124
1032.00,0.0123
1031.00,0.0122
1030.00,0.0121
1029.00,0.0120
1028.00,0.0119
1027.00,0.0118
1026.00,0.0116
1025.00,0.0116
1024.00,0.0115
1023.00,0.0114
1022.00,0.0114
1021.00,0.0113
1020.00,0.0113
1019.00,0.0112
1018.00,0.0112
1017.00,0.0112
1016.00,0.0112
1015.00,0.0112
1014.00,0.0111
1013.00,0.0111
1012.00,0.0110
1011.00,0.0110
1010.00,0.0109
1009.00,0.0108
1008.00,0.0108
1007.00,0.0107
1006.00,0.0107
1005.00,0.0106
1004.00,0.0106
1003.00,0.0106
1002.00,0.0106
1001.00,0.0106
1000.00,0.0106
999.00,0.0106
998.00,0.0106
997.00,0.0106
996.00,0.0106
995.00,0.0105
994.00,0.0105
993.00,0.0104
992.00,0.0104
991.00,0.0103
990.00,0.0102
989.00,0.0101
988.00,0.0100
987.00,0.0100
986.00,0.0100
985.00,0.0099
984.00,0.0099
983.00,0.0099
982.00,0.0100
981.00,0.0100
980.00,0.0101
979.00,0.0101
978.00,0.0102
977.00,0.0102
976.00,0.0102
975.00,0.0103
974.00,0.0103
973.00,0.0103
972.00,0.0103
971.00,0.0103
970.00,0.0103
969.00,0.0102
968.00,0.0102
967.00,0.0101
966.00,0.0101
965.00,0.0100
964.00,0.0100
963.00,0.0100
962.00,0.0099
961.00,0.0099
960.00,0.0099
959.00,0.0098
958.00,0.0098
957.00,0.0098
956.00,0.0098
955.00,0.0098
954.00,0.0098
953.00,0.0098
952.00,0.0098
951.00,0.0097
950.00,0.0097
949.00,0.0097
948.00,0.0097
947.00,0.0097
946.00,0.0097
945.00,0.0097
944.00,0.0097
943.00,0.0097
942.00,0.0097
941.00,0.0096
940.00,0.0096
939.00,0.0096
938.00,0.0096
937.00,0.0095
936.00,0.0095
935.00,0.0095
934.00,0.0095
933.00,0.0095
932.00,0.0095
931.00,0.0094
930.00,0.0094
929.00,0.0093
928.00,0.0093
927.00,0.0093
926.00,0.0092
925.00,0.0092
924.00,0.0092
923.00,0.0091
922.00,0.0090
921.00,0.0090
920.00,0.0090
919.00,0.0089
918.00,0.0089
917.00,0.0089
916.00,0.0088
915.00,0.0088
914.00,0.0088
913.00,0.0087
912.00,0.0087
911.00,0.0087
910.00,0.0087
909.00,0.0087
908.00,0.0088
907.00,0.0088
906.00,0.0087
905.00,0.0087
904.00,0.0087
903.00,0.0087
902.00,0.0087
901.00,0.0087
900.00,0.0087
899.00,0.0087
898.00,0.0086
897.00,0.0086
896.00,0.0086
895.00,0.0085
894.00,0.0085
893.00,0.0085
892.00,0.0085
891.00,0.0085
890.00,0.0085
889.00,0.0084
888.00,0.0084
887.00,0.0084
886.00,0.0083
885.00,0.0083
884.00,0.0083
883.00,0.0083
882.00,0.0083
881.00,0.0083
880.00,0.0084
879.00,0.0084
878.00,0.0083
877.00,0.0083
876.00,0.0083
875.00,0.0083
874.00,0.0083
873.00,0.0082
872.00,0.0082
871.00,0.0082
870.00,0.0082
869.00,0.0082
868.00,0.0082
867.00,0.0082
866.00,0.0082
865.00,0.0082
864.00,0.0082
863.00,0.0083
862.00,0.0083
861.00,0.0083
860.00,0.0083
859.00,0.0084
858.00,0.0084
857.00,0.0085
856.00,0.0086
855.00,0.0087
854.00,0.0087
853.00,0.0088
852.00,0.0088
851.00,0.0088
850.00,0.0088
849.00,0.0087
848.00,0.0087
847.00,0.0087
846.00,0.0087
845.00,0.0087
844.00,0.0087
843.00,0.0088
842.00,0.0088
841.00,0.0088
840.00,0.0088
839.00,0.0089
838.00,0.0089
837.00,0.0090
836.00,0.0090
835.00,0.0091
834.00,0.0091
833.00,0.0092
832.00,0.0093
831.00,0.0094
830.00,0.0094
829.00,0.0095
828.00,0.0095
827.00,0.0095
826.00,0.0096
825.00,0.0096
824.00,0.0096
823.00,0.0096
822.00,0.0096
821.00,0.0095
820.00,0.0095
819.00,0.0096
818.00,0.0096
817.00,0.0096
816.00,0.0096
815.00,0.0096
814.00,0.0096
813.00,0.0097
812.00,0.0097
811.00,0.0097
810.00,0.0097
809.00,0.0097
808.00,0.0098
807.00,0.0098
806.00,0.0098
805.00,0.0098
804.00,0.0099
803.00,0.0099
802.00,0.0099
801.00,0.0099
800.00,0.0099
799.00,0.0100
798.00,0.0100
797.00,0.0100
796.00,0.0101
795.00,0.0101
794.00,0.0101
793.00,0.0101
792.00,0.0101
791.00,0.0102
790.00,0.0102
789.00,0.0103
788.00,0.0103
787.00,0.0104
786.00,0.0104
785.00,0.0105
784.00,0.0105
783.00,0.0106
782.00,0.0106
781.00,0.0107
780.00,0.0107
779.00,0.0108
778.00,0.0109
777.00,0.0109
776.00,0.0110
775.00,0.0111
774.00,0.0111
773.00,0.0112
772.00,0.0113
771.00,0.0114
770.00,0.0114
769.00,0.0115
768.00,0.0116
767.00,0.0116
766.00,0.0117
765.00,0.0117
764.00,0.0118
763.00,0.0118
762.00,0.0119
761.00,0.0119
760.00,0.0120
759.00,0.0120
758.00,0.0120
757.00,0.0120
756.00,0.0120
755.00,0.0121
754.00,0.0121
753.00,0.0122
752.00,0.0123
751.00,0.0124
750.00,0.0124
749.00,0.0125
748.00,0.0126
747.00,0.0127
746.00,0.0128
745.00,0.0129
744.00,0.0130
743.00,0.0131
742.00,0.0132
741.00,0.0133
740.00,0.0134
739.00,0.0135
738.00,0.0136
737.00,0.0137
736.00,0.0138
735.00,0.0140
734.00,0.0141
733.00,0.0142
732.00,0.0144
731.00,0.0146
730.00,0.0148
729.00,0.0149
728.00,0.0150
727.00,0.0151
726.00,0.0152
725.00,0.0153
724.00,0.0154
723.00,0.0156
722.00,0.0158
721.00,0.0159
720.00,0.0161
719.00,0.0163
718.00,0.0163
717.00,0.0164
716.00,0.0164
715.00,0.0165
714.00,0.0166
713.00,0.0167
712.00,0.0168
711.00,0.0169
710.00,0.0171
709.00,0.0171
708.00,0.0173
707.00,0.0174
706.00,0.0175
705.00,0.0176
704.00,0.0178
703.00,0.0179
702.00,0.0181
701.00,0.0182
700.00,0.0183
699.00,0.0184
698.00,0.0185
697.00,0.0186
696.00,0.0186
695.00,0.0187
694.00,0.0188
693.00,0.0189
692.00,0.0190
691.00,0.0191
690.00,0.0192
689.00,0.0192
688.00,0.0193
687.00,0.0194
686.00,0.0194
685.00,0.0195
684.00,0.0196
683.00,0.0197
682.00,0.0197
681.00,0.0198
680.00,0.0198
679.00,0.0199
678.00,0.0199
677.00,0.0199
676.00,0.0200
675.00,0.0200
674.00,0.0201
673.00,0.0201
672.00,0.0201
671.00,0.0201
670.00,0.0201
669.00,0.0202
668.00,0.0202
667.00,0.0202
666.00,0.0202
665.00,0.0204
664.00,0.0206
663.00,0.0207
662.00,0.0208
661.00,0.0208
660.00,0.0209
659.00,0.0209
658.00,0.0210
657.00,0.0211
656.00,0.0212
655.00,0.0212
654.00,0.0213
653.00,0.0213
652.00,0.0214
651.00,0.0215
650.00,0.0216
649.00,0.0216
648.00,0.0217
647.00,0.0218
646.00,0.0219
645.00,0.0220
644.00,0.0221
643.00,0.0222
642.00,0.0222
641.00,0.0222
640.00,0.0223
639.00,0.0223
638.00,0.0224
637.00,0.0225
636.00,0.0226
635.00,0.0227
634.00,0.0228
633.00,0.0228
632.00,0.0229
631.00,0.0230
630.00,0.0231
629.00,0.0231
628.00,0.0231
627.00,0.0232
626.00,0.0232
625.00,0.0232
624.00,0.0232
623.00,0.0233
622.00,0.0234
621.00,0.0234
620.00,0.0235
619.00,0.0236
618.00,0.0236
617.00,0.0236
616.00,0.0236
615.00,0.0237
614.00,0.0237
613.00,0.0238
612.00,0.0238
611.00,0.0239
610.00,0.0239
609.00,0.0239
608.00,0.0240
607.00,0.0240
606.00,0.0239
605.00,0.0239
604.00,0.0239
603.00,0.0239
602.00,0.0238
601.00,0.0238
600.00,0.0238
599.00,0.0238
598.00,0.0238
597.00,0.0238
596.00,0.0237
595.00,0.0237
594.00,0.0236
593.00,0.0236
592.00,0.0236
591.00,0.0237
590.00,0.0237
589.00,0.0237
588.00,0.0238
587.00,0.0238
586.00,0.0238
585.00,0.0238
584.00,0.0239
583.00,0.0239
582.00,0.0239
581.00,0.0239
580.00,0.0239
579.00,0.0240
578.00,0.0240
577.00,0.0240
576.00,0.0241
575.00,0.0241
574.00,0.0242
573.00,0.0242
572.00,0.0243
571.00,0.0243
570.00,0.0243
569.00,0.0243
568.00,0.0245
567.00,0.0246
566.00,0.0247
565.00,0.0248
564.00,0.0250
563.00,0.0252
562.00,0.0253
561.00,0.0254
560.00,0.0256
559.00,0.0258
558.00,0.0260
557.00,0.0263
556.00,0.0265
555.00,0.0268
554.00,0.0271
553.00,0.0273
552.00,0.0275
551.00,0.0277
550.00,0.0277
549.00,0.0278
548.00,0.0279
547.00,0.0280
546.00,0.0280
545.00,0.0281
544.00,0.0281
543.00,0.0281
542.00,0.0281
541.00,0.0281
540.00,0.0281
539.00,0.0280
538.00,0.0280
537.00,0.0279
536.00,0.0280
535.00,0.0280
534.00,0.0280
533.00,0.0279
532.00,0.0280
531.00,0.0280
530.00,0.0279
529.00,0.0279
528.00,0.0280
527.00,0.0281
526.00,0.0280
525.00,0.0280
524.00,0.0279
523.00,0.0278
522.00,0.0277
521.00,0.0276
520.00,0.0276
519.00,0.0276
518.00,0.0276
517.00,0.0276
516.00,0.0277
515.00,0.0278
514.00,0.0279
513.00,0.0279
512.00,0.0279
511.00,0.0279
510.00,0.0278
509.00,0.0278
508.00,0.0279
507.00,0.0280
506.00,0.0280
505.00,0.0279
504.00,0.0280
503.00,0.0280
502.00,0.0279
501.00,0.0278
500.00,0.0278
499.00,0.0279
498.00,0.0279
497.00,0.0280
496.00,0.0281
495.00,0.0281
494.00,0.0281
493.00,0.0281
492.00,0.0282
491.00,0.0282
490.00,0.0282
489.00,0.0281
488.00,0.0281
487.00,0.0282
486.00,0.0282
485.00,0.0282
484.00,0.0283
483.00,0.0283
482.00,0.0282
481.00,0.0281
480.00,0.0282
479.00,0.0283
478.00,0.0283
477.00,0.0282
476.00,0.0281
475.00,0.0280
474.00,0.0279
473.00,0.0279
472.00,0.0281
471.00,0.0283
470.00,0.0283
469.00,0.0282
468.00,0.0282
467.00,0.0283
466.00,0.0283
465.00,0.0282
464.00,0.0281
463.00,0.0279
462.00,0.0277
461.00,0.0276
460.00,0.0278
459.00,0.0280
458.00,0.0280
457.00,0.0280
456.00,0.0279
455.00,0.0277
454.00,0.0274
453.00,0.0272
452.00,0.0271
451.00,0.0272
450.00,0.0272
449.00,0.0272
448.00,0.0272
447.00,0.0272
446.00,0.0271
445.00,0.0271
444.00,0.0271
443.00,0.0272
442.00,0.0272
441.00,0.0273
440.00,0.0274
439.00,0.0274
438.00,0.0272
437.00,0.0269
436.00,0.0268
435.00,0.0268
434.00,0.0269
433.00,0.0270
432.00,0.0272
431.00,0.0272
430.00,0.0272
429.00,0.0273
428.00,0.0276
427.00,0.0279
426.00,0.0279
425.00,0.0279
424.00,0.0278
423.00,0.0277
422.00,0.0275
421.00,0.0274
420.00,0.0275
419.00,0.0279
418.00,0.0282
417.00,0.0284
416.00,0.0285
415.00,0.0283
414.00,0.0279
413.00,0.0276
412.00,0.0278
411.00,0.0281
410.00,0.0282
409.00,0.0282
408.00,0.0281
407.00,0.0279
406.00,0.0275
405.00,0.0271
404.00,0.0268
403.00,0.0264
402.00,0.0260
401.00,0.0256
400.00,0.0255
