Created as New Dataset,Sample 000 By YargerLab Date Wednesday, June 05 2024
cm-1,A
4000.00,0.0020
3999.00,0.0020
3998.00,0.0020
3997.00,0.0019
3996.00,0.0019
3995.00,0.0019
3994.00,0.0019
3993.00,0.0020
3992.00,0.0020
3991.00,0.0020
3990.00,0.0020
3989.00,0.0020
3988.00,0.0020
3987.00,0.0019
3986.00,0.0019
3985.00,0.0019
3984.00,0.0019
3983.00,0.0019
3982.00,0.0019
3981.00,0.0019
3980.00,0.0019
3979.00,0.0019
3978.00,0.0019
3977.00,0.0019
3976.00,0.0019
3975.00,0.0019
3974.00,0.0019
3973.00,0.0019
3972.00,0.0019
3971.00,0.0019
3970.00,0.0019
3969.00,0.0019
3968.00,0.0019
3967.00,0.0019
3966.00,0.0019
3965.00,0.0019
3964.00,0.0019
3963.00,0.0019
3962.00,0.0020
3961.00,0.0020
3960.00,0.0020
3959.00,0.0020
3958.00,0.0020
3957.00,0.0019
3956.00,0.0019
3955.00,0.0019
3954.00,0.0019
3953.00,0.0019
3952.00,0.0019
3951.00,0.0019
3950.00,0.0020
3949.00,0.0020
3948.00,0.0020
3947.00,0.0020
3946.00,0.0020
3945.00,0.0020
3944.00,0.0020
3943.00,0.0019
3942.00,0.0019
3941.00,0.0019
3940.00,0.0019
3939.00,0.0020
3938.00,0.0020
3937.00,0.0020
3936.00,0.0020
3935.00,0.0020
3934.00,0.0020
3933.00,0.0020
3932.00,0.0020
3931.00,0.0020
3930.00,0.0019
3929.00,0.0019
3928.00,0.0019
3927.00,0.0019
3926.00,0.0019
3925.00,0.0019
3924.00,0.0019
3923.00,0.0019
3922.00,0.0019
3921.00,0.0019
3920.00,0.0019
3919.00,0.0019
3918.00,0.0019
3917.00,0.0019
3916.00,0.0018
3915.00,0.0018
3914.00,0.0018
3913.00,0.0018
3912.00,0.0018
3911.00,0.0018
3910.00,0.0018
3909.00,0.0018
3908.00,0.0019
3907.00,0.0019
3906.00,0.0020
3905.00,0.0020
3904.00,0.0020
3903.00,0.0020
3902.00,0.0020
3901.00,0.0020
3900.00,0.0020
3899.00,0.0019
3898.00,0.0020
3897.00,0.0020
3896.00,0.0020
3895.00,0.0020
3894.00,0.0019
3893.00,0.0019
3892.00,0.0018
3891.00,0.0018
3890.00,0.0018
3889.00,0.0018
3888.00,0.0019
3887.00,0.0019
3886.00,0.0019
3885.00,0.0019
3884.00,0.0019
3883.00,0.0019
3882.00,0.0019
3881.00,0.0019
3880.00,0.0018
3879.00,0.0018
3878.00,0.0018
3877.00,0.0019
3876.00,0.0019
3875.00,0.0019
3874.00,0.0019
3873.00,0.0019
3872.00,0.0019
3871.00,0.0019
3870.00,0.0019
3869.00,0.0019
3868.00,0.0019
3867.00,0.0019
3866.00,0.0019
3865.00,0.0019
3864.00,0.0019
3863.00,0.0019
3862.00,0.0019
3861.00,0.0019
3860.00,0.0019
3859.00,0.0019
3858.00,0.0019
3857.00,0.0019
3856.00,0.0019
3855.00,0.0020
3854.00,0.0020
3853.00,0.0020
3852.00,0.0019
3851.00,0.0019
3850.00,0.0019
3849.00,0.0019
3848.00,0.0019
3847.00,0.0019
3846.00,0.0019
3845.00,0.0020
3844.00,0.0020
3843.00,0.0020
3842.00,0.0020
3841.00,0.0020
3840.00,0.0019
3839.00,0.0019
3838.00,0.0018
3837.00,0.0018
3836.00,0.0018
3835.00,0.0019
3834.00,0.0019
3833.00,0.0018
3832.00,0.0018
3831.00,0.0018
3830.00,0.0018
3829.00,0.0019
3828.00,0.0019
3827.00,0.0019
3826.00,0.0019
3825.00,0.0019
3824.00,0.0019
3823.00,0.0019
3822.00,0.0019
3821.00,0.0019
3820.00,0.0019
3819.00,0.0018
3818.00,0.0018
3817.00,0.0018
3816.00,0.0018
3815.00,0.0018
3814.00,0.0018
3813.00,0.0018
3812.00,0.0018
3811.00,0.0019
3810.00,0.0019
3809.00,0.0019
3808.00,0.0019
3807.00,0.0019
3806.00,0.0019
3805.00,0.0019
3804.00,0.0019
3803.00,0.0019
3802.00,0.0018
3801.00,0.0018
3800.00,0.0018
3799.00,0.0019
3798.00,0.0019
3797.00,0.0019
3796.00,0.0019
3795.00,0.0019
3794.00,0.0018
3793.00,0.0018
3792.00,0.0018
3791.00,0.0018
3790.00,0.0018
3789.00,0.0018
3788.00,0.0018
3787.00,0.0019
3786.00,0.0019
3785.00,0.0019
3784.00,0.0019
3783.00,0.0019
3782.00,0.0019
3781.00,0.0019
3780.00,0.0019
3779.00,0.0019
3778.00,0.0018
3777.00,0.0018
3776.00,0.0018
3775.00,0.0018
3774.00,0.0018
3773.00,0.0018
3772.00,0.0018
3771.00,0.0018
3770.00,0.0018
3769.00,0.0018
3768.00,0.0018
3767.00,0.0019
3766.00,0.0019
3765.00,0.0019
3764.00,0.0019
3763.00,0.0019
3762.00,0.0019
3761.00,0.0019
3760.00,0.0019
3759.00,0.0019
3758.00,0.0019
3757.00,0.0019
3756.00,0.0019
3755.00,0.0019
3754.00,0.0019
3753.00,0.0019
3752.00,0.0019
3751.00,0.0019
3750.00,0.0019
3749.00,0.0019
3748.00,0.0019
3747.00,0.0019
3746.00,0.0018
3745.00,0.0018
3744.00,0.0017
3743.00,0.0017
3742.00,0.0017
3741.00,0.0018
3740.00,0.0018
3739.00,0.0019
3738.00,0.0020
3737.00,0.0020
3736.00,0.0020
3735.00,0.0019
3734.00,0.0018
3733.00,0.0018
3732.00,0.0019
3731.00,0.0019
3730.00,0.0019
3729.00,0.0019
3728.00,0.0019
3727.00,0.0019
3726.00,0.0019
3725.00,0.0019
3724.00,0.0019
3723.00,0.0019
3722.00,0.0019
3721.00,0.0019
3720.00,0.0018
3719.00,0.0018
3718.00,0.0018
3717.00,0.0018
3716.00,0.0018
3715.00,0.0019
3714.00,0.0019
3713.00,0.0019
3712.00,0.0018
3711.00,0.0018
3710.00,0.0018
3709.00,0.0018
3708.00,0.0018
3707.00,0.0018
3706.00,0.0019
3705.00,0.0019
3704.00,0.0019
3703.00,0.0019
3702.00,0.0018
3701.00,0.0018
3700.00,0.0017
3699.00,0.0017
3698.00,0.0018
3697.00,0.0018
3696.00,0.0018
3695.00,0.0018
3694.00,0.0018
3693.00,0.0019
3692.00,0.0019
3691.00,0.0018
3690.00,0.0018
3689.00,0.0018
3688.00,0.0018
3687.00,0.0018
3686.00,0.0018
3685.00,0.0018
3684.00,0.0018
3683.00,0.0018
3682.00,0.0018
3681.00,0.0018
3680.00,0.0018
3679.00,0.0018
3678.00,0.0018
3677.00,0.0019
3676.00,0.0019
3675.00,0.0018
3674.00,0.0018
3673.00,0.0019
3672.00,0.0019
3671.00,0.0019
3670.00,0.0019
3669.00,0.0019
3668.00,0.0019
3667.00,0.0019
3666.00,0.0019
3665.00,0.0019
3664.00,0.0019
3663.00,0.0019
3662.00,0.0019
3661.00,0.0019
3660.00,0.0020
3659.00,0.0020
3658.00,0.0020
3657.00,0.0021
3656.00,0.0020
3655.00,0.0020
3654.00,0.0020
3653.00,0.0020
3652.00,0.0020
3651.00,0.0020
3650.00,0.0020
3649.00,0.0020
3648.00,0.0020
3647.00,0.0020
3646.00,0.0020
3645.00,0.0020
3644.00,0.0020
3643.00,0.0020
3642.00,0.0021
3641.00,0.0021
3640.00,0.0021
3639.00,0.0021
3638.00,0.0021
3637.00,0.0021
3636.00,0.0021
3635.00,0.0021
3634.00,0.0022
3633.00,0.0022
3632.00,0.0022
3631.00,0.0022
3630.00,0.0023
3629.00,0.0023
3628.00,0.0023
3627.00,0.0023
3626.00,0.0024
3625.00,0.0024
3624.00,0.0024
3623.00,0.0024
3622.00,0.0024
3621.00,0.0024
3620.00,0.0024
3619.00,0.0024
3618.00,0.0025
3617.00,0.0025
3616.00,0.0025
3615.00,0.0025
3614.00,0.0025
3613.00,0.0025
3612.00,0.0025
3611.00,0.0026
3610.00,0.0026
3609.00,0.0026
3608.00,0.0027
3607.00,0.0027
3606.00,0.0027
3605.00,0.0027
3604.00,0.0027
3603.00,0.0027
3602.00,0.0027
3601.00,0.0027
3600.00,0.0027
3599.00,0.0028
3598.00,0.0028
3597.00,0.0028
3596.00,0.0028
3595.00,0.0028
3594.00,0.0029
3593.00,0.0029
3592.00,0.0029
3591.00,0.0028
3590.00,0.0028
3589.00,0.0028
3588.00,0.0028
3587.00,0.0028
3586.00,0.0028
3585.00,0.0029
3584.00,0.0029
3583.00,0.0029
3582.00,0.0029
3581.00,0.0030
3580.00,0.0030
3579.00,0.0030
3578.00,0.0030
3577.00,0.0030
3576.00,0.0031
3575.00,0.0031
3574.00,0.0031
3573.00,0.0031
3572.00,0.0031
3571.00,0.0031
3570.00,0.0031
3569.00,0.0031
3568.00,0.0032
3567.00,0.0032
3566.00,0.0032
3565.00,0.0032
3564.00,0.0032
3563.00,0.0032
3562.00,0.0032
3561.00,0.0032
3560.00,0.0032
3559.00,0.0033
3558.00,0.0033
3557.00,0.0034
3556.00,0.0034
3555.00,0.0034
3554.00,0.0034
3553.00,0.0034
3552.00,0.0034
3551.00,0.0035
3550.00,0.0035
3549.00,0.0035
3548.00,0.0036
3547.00,0.0036
3546.00,0.0036
3545.00,0.0037
3544.00,0.0037
3543.00,0.0037
3542.00,0.0037
3541.00,0.0037
3540.00,0.0037
3539.00,0.0037
3538.00,0.0037
3537.00,0.0037
3536.00,0.0038
3535.00,0.0038
3534.00,0.0038
3533.00,0.0039
3532.00,0.0038
3531.00,0.0038
3530.00,0.0038
3529.00,0.0038
3528.00,0.0038
3527.00,0.0039
3526.00,0.0039
3525.00,0.0039
3524.00,0.0039
3523.00,0.0039
3522.00,0.0040
3521.00,0.0040
3520.00,0.0041
3519.00,0.0041
3518.00,0.0041
3517.00,0.0041
3516.00,0.0041
3515.00,0.0041
3514.00,0.0042
3513.00,0.0042
3512.00,0.0042
3511.00,0.0042
3510.00,0.0043
3509.00,0.0043
3508.00,0.0044
3507.00,0.0044
3506.00,0.0044
3505.00,0.0044
3504.00,0.0044
3503.00,0.0044
3502.00,0.0044
3501.00,0.0044
3500.00,0.0044
3499.00,0.0044
3498.00,0.0044
3497.00,0.0044
3496.00,0.0044
3495.00,0.0045
3494.00,0.0045
3493.00,0.0045
3492.00,0.0045
3491.00,0.0045
3490.00,0.0045
3489.00,0.0045
3488.00,0.0045
3487.00,0.0046
3486.00,0.0046
3485.00,0.0046
3484.00,0.0047
3483.00,0.0046
3482.00,0.0046
3481.00,0.0047
3480.00,0.0047
3479.00,0.0047
3478.00,0.0048
3477.00,0.0048
3476.00,0.0049
3475.00,0.0049
3474.00,0.0049
3473.00,0.0049
3472.00,0.0049
3471.00,0.0049
3470.00,0.0049
3469.00,0.0049
3468.00,0.0050
3467.00,0.0050
3466.00,0.0050
3465.00,0.0050
3464.00,0.0051
3463.00,0.0051
3462.00,0.0052
3461.00,0.0052
3460.00,0.0052
3459.00,0.0052
3458.00,0.0052
3457.00,0.0052
3456.00,0.0052
3455.00,0.0052
3454.00,0.0053
3453.00,0.0053
3452.00,0.0053
3451.00,0.0053
3450.00,0.0053
3449.00,0.0053
3448.00,0.0053
3447.00,0.0053
3446.00,0.0054
3445.00,0.0054
3444.00,0.0054
3443.00,0.0054
3442.00,0.0055
3441.00,0.0055
3440.00,0.0055
3439.00,0.0055
3438.00,0.0055
3437.00,0.0055
3436.00,0.0056
3435.00,0.0056
3434.00,0.0056
3433.00,0.0057
3432.00,0.0057
3431.00,0.0057
3430.00,0.0057
3429.00,0.0057
3428.00,0.0057
3427.00,0.0057
3426.00,0.0057
3425.00,0.0058
3424.00,0.0058
3423.00,0.0059
3422.00,0.0059
3421.00,0.0059
3420.00,0.0059
3419.00,0.0060
3418.00,0.0060
3417.00,0.0060
3416.00,0.0060
3415.00,0.0060
3414.00,0.0060
3413.00,0.0060
3412.00,0.0061
3411.00,0.0061
3410.00,0.0061
3409.00,0.0061
3408.00,0.0061
3407.00,0.0062
3406.00,0.0062
3405.00,0.0062
3404.00,0.0062
3403.00,0.0062
3402.00,0.0063
3401.00,0.0063
3400.00,0.0063
3399.00,0.0064
3398.00,0.0064
3397.00,0.0064
3396.00,0.0064
3395.00,0.0064
3394.00,0.0064
3393.00,0.0064
3392.00,0.0064
3391.00,0.0064
3390.00,0.0065
3389.00,0.0065
3388.00,0.0065
3387.00,0.0066
3386.00,0.0066
3385.00,0.0066
3384.00,0.0066
3383.00,0.0066
3382.00,0.0066
3381.00,0.0067
3380.00,0.0067
3379.00,0.0067
3378.00,0.0067
3377.00,0.0068
3376.00,0.0068
3375.00,0.0068
3374.00,0.0068
3373.00,0.0068
3372.00,0.0068
3371.00,0.0069
3370.00,0.0069
3369.00,0.0069
3368.00,0.0069
3367.00,0.0070
3366.00,0.0070
3365.00,0.0071
3364.00,0.0071
3363.00,0.0071
3362.00,0.0072
3361.00,0.0072
3360.00,0.0073
3359.00,0.0073
3358.00,0.0073
3357.00,0.0073
3356.00,0.0073
3355.00,0.0073
3354.00,0.0073
3353.00,0.0074
3352.00,0.0074
3351.00,0.0075
3350.00,0.0075
3349.00,0.0075
3348.00,0.0076
3347.00,0.0076
3346.00,0.0076
3345.00,0.0077
3344.00,0.0077
3343.00,0.0077
3342.00,0.0077
3341.00,0.0078
3340.00,0.0078
3339.00,0.0079
3338.00,0.0079
3337.00,0.0080
3336.00,0.0080
3335.00,0.0080
3334.00,0.0081
3333.00,0.0081
3332.00,0.0082
3331.00,0.0082
3330.00,0.0082
3329.00,0.0083
3328.00,0.0083
3327.00,0.0084
3326.00,0.0085
3325.00,0.0085
3324.00,0.0086
3323.00,0.0087
3322.00,0.0087
3321.00,0.0088
3320.00,0.0088
3319.00,0.0089
3318.00,0.0089
3317.00,0.0089
3316.00,0.0090
3315.00,0.0090
3314.00,0.0091
3313.00,0.0091
3312.00,0.0092
3311.00,0.0092
3310.00,0.0093
3309.00,0.0094
3308.00,0.0094
3307.00,0.0094
3306.00,0.0095
3305.00,0.0095
3304.00,0.0096
3303.00,0.0097
3302.00,0.0097
3301.00,0.0098
3300.00,0.0099
3299.00,0.0099
3298.00,0.0100
3297.00,0.0100
3296.00,0.0101
3295.00,0.0101
3294.00,0.0102
3293.00,0.0103
3292.00,0.0104
3291.00,0.0104
3290.00,0.0105
3289.00,0.0105
3288.00,0.0105
3287.00,0.0105
3286.00,0.0105
3285.00,0.0106
3284.00,0.0106
3283.00,0.0106
3282.00,0.0107
3281.00,0.0107
3280.00,0.0108
3279.00,0.0108
3278.00,0.0109
3277.00,0.0109
3276.00,0.0109
3275.00,0.0109
3274.00,0.0109
3273.00,0.0109
3272.00,0.0109
3271.00,0.0109
3270.00,0.0109
3269.00,0.0109
3268.00,0.0108
3267.00,0.0108
3266.00,0.0108
3265.00,0.0107
3264.00,0.0107
3263.00,0.0107
3262.00,0.0106
3261.00,0.0106
3260.00,0.0105
3259.00,0.0105
3258.00,0.0104
3257.00,0.0104
3256.00,0.0103
3255.00,0.0103
3254.00,0.0102
3253.00,0.0101
3252.00,0.0101
3251.00,0.0100
3250.00,0.0100
3249.00,0.0100
3248.00,0.0099
3247.00,0.0099
3246.00,0.0098
3245.00,0.0097
3244.00,0.0097
3243.00,0.0097
3242.00,0.0097
3241.00,0.0097
3240.00,0.0096
3239.00,0.0096
3238.00,0.0095
3237.00,0.0095
3236.00,0.0094
3235.00,0.0094
3234.00,0.0093
3233.00,0.0093
3232.00,0.0093
3231.00,0.0093
3230.00,0.0092
3229.00,0.0092
3228.00,0.0092
3227.00,0.0092
3226.00,0.0091
3225.00,0.0091
3224.00,0.0091
3223.00,0.0090
3222.00,0.0090
3221.00,0.0090
3220.00,0.0090
3219.00,0.0090
3218.00,0.0090
3217.00,0.0089
3216.00,0.0089
3215.00,0.0089
3214.00,0.0089
3213.00,0.0088
3212.00,0.0088
3211.00,0.0088
3210.00,0.0087
3209.00,0.0087
3208.00,0.0087
3207.00,0.0087
3206.00,0.0087
3205.00,0.0086
3204.00,0.0086
3203.00,0.0086
3202.00,0.0086
3201.00,0.0086
3200.00,0.0085
3199.00,0.0085
3198.00,0.0085
3197.00,0.0084
3196.00,0.0084
3195.00,0.0084
3194.00,0.0084
3193.00,0.0083
3192.00,0.0083
3191.00,0.0083
3190.00,0.0082
3189.00,0.0082
3188.00,0.0082
3187.00,0.0082
3186.00,0.0081
3185.00,0.0081
3184.00,0.0081
3183.00,0.0080
3182.00,0.0080
3181.00,0.0080
3180.00,0.0080
3179.00,0.0079
3178.00,0.0079
3177.00,0.0078
3176.00,0.0077
3175.00,0.0077
3174.00,0.0077
3173.00,0.0076
3172.00,0.0076
3171.00,0.0076
3170.00,0.0076
3169.00,0.0075
3168.00,0.0075
3167.00,0.0075
3166.00,0.0074
3165.00,0.0074
3164.00,0.0074
3163.00,0.0074
3162.00,0.0074
3161.00,0.0073
3160.00,0.0073
3159.00,0.0072
3158.00,0.0071
3157.00,0.0071
3156.00,0.0071
3155.00,0.0071
3154.00,0.0071
3153.00,0.0071
3152.00,0.0070
3151.00,0.0070
3150.00,0.0069
3149.00,0.0069
3148.00,0.0069
3147.00,0.0068
3146.00,0.0068
3145.00,0.0068
3144.00,0.0068
3143.00,0.0068
3142.00,0.0067
3141.00,0.0067
3140.00,0.0067
3139.00,0.0066
3138.00,0.0066
3137.00,0.0065
3136.00,0.0065
3135.00,0.0065
3134.00,0.0065
3133.00,0.0065
3132.00,0.0065
3131.00,0.0064
3130.00,0.0064
3129.00,0.0064
3128.00,0.0064
3127.00,0.0064
3126.00,0.0064
3125.00,0.0064
3124.00,0.0064
3123.00,0.0064
3122.00,0.0064
3121.00,0.0063
3120.00,0.0063
3119.00,0.0063
3118.00,0.0062
3117.00,0.0062
3116.00,0.0062
3115.00,0.0062
3114.00,0.0063
3113.00,0.0063
3112.00,0.0063
3111.00,0.0063
3110.00,0.0063
3109.00,0.0063
3108.00,0.0062
3107.00,0.0062
3106.00,0.0062
3105.00,0.0062
3104.00,0.0062
3103.00,0.0062
3102.00,0.0062
3101.00,0.0062
3100.00,0.0062
3099.00,0.0062
3098.00,0.0062
3097.00,0.0062
3096.00,0.0063
3095.00,0.0063
3094.00,0.0063
3093.00,0.0063
3092.00,0.0063
3091.00,0.0063
3090.00,0.0063
3089.00,0.0064
3088.00,0.0064
3087.00,0.0064
3086.00,0.0063
3085.00,0.0063
3084.00,0.0063
3083.00,0.0063
3082.00,0.0063
3081.00,0.0064
3080.00,0.0064
3079.00,0.0064
3078.00,0.0064
3077.00,0.0064
3076.00,0.0064
3075.00,0.0064
3074.00,0.0064
3073.00,0.0064
3072.00,0.0064
3071.00,0.0064
3070.00,0.0065
3069.00,0.0065
3068.00,0.0065
3067.00,0.0065
3066.00,0.0065
3065.00,0.0065
3064.00,0.0065
3063.00,0.0065
3062.00,0.0065
3061.00,0.0065
3060.00,0.0065
3059.00,0.0064
3058.00,0.0064
3057.00,0.0064
3056.00,0.0064
3055.00,0.0064
3054.00,0.0064
3053.00,0.0064
3052.00,0.0064
3051.00,0.0063
3050.00,0.0063
3049.00,0.0062
3048.00,0.0062
3047.00,0.0062
3046.00,0.0061
3045.00,0.0061
3044.00,0.0061
3043.00,0.0060
3042.00,0.0060
3041.00,0.0060
3040.00,0.0060
3039.00,0.0059
3038.00,0.0059
3037.00,0.0059
3036.00,0.0059
3035.00,0.0059
3034.00,0.0059
3033.00,0.0059
3032.00,0.0058
3031.00,0.0058
3030.00,0.0058
3029.00,0.0058
3028.00,0.0057
3027.00,0.0057
3026.00,0.0057
3025.00,0.0056
3024.00,0.0056
3023.00,0.0056
3022.00,0.0056
3021.00,0.0055
3020.00,0.0055
3019.00,0.0055
3018.00,0.0054
3017.00,0.0054
3016.00,0.0054
3015.00,0.0054
3014.00,0.0054
3013.00,0.0054
3012.00,0.0054
3011.00,0.0054
3010.00,0.0053
3009.00,0.0053
3008.00,0.0052
3007.00,0.0052
3006.00,0.0051
3005.00,0.0051
3004.00,0.0051
3003.00,0.0052
3002.00,0.0051
3001.00,0.0051
3000.00,0.0051
2999.00,0.0051
2998.00,0.0051
2997.00,0.0051
2996.00,0.0051
2995.00,0.0052
2994.00,0.0052
2993.00,0.0052
2992.00,0.0052
2991.00,0.0052
2990.00,0.0052
2989.00,0.0053
2988.00,0.0053
2987.00,0.0053
2986.00,0.0053
2985.00,0.0053
2984.00,0.0053
2983.00,0.0053
2982.00,0.0053
2981.00,0.0053
2980.00,0.0054
2979.00,0.0054
2978.00,0.0055
2977.00,0.0056
2976.00,0.0056
2975.00,0.0057
2974.00,0.0057
2973.00,0.0057
2972.00,0.0058
2971.00,0.0058
2970.00,0.0059
2969.00,0.0060
2968.00,0.0061
2967.00,0.0061
2966.00,0.0062
2965.00,0.0062
2964.00,0.0062
2963.00,0.0062
2962.00,0.0063
2961.00,0.0063
2960.00,0.0063
2959.00,0.0063
2958.00,0.0063
2957.00,0.0063
2956.00,0.0063
2955.00,0.0063
2954.00,0.0063
2953.00,0.0063
2952.00,0.0063
2951.00,0.0062
2950.00,0.0062
2949.00,0.0062
2948.00,0.0062
2947.00,0.0063
2946.00,0.0063
2945.00,0.0063
2944.00,0.0064
2943.00,0.0064
2942.00,0.0065
2941.00,0.0065
2940.00,0.0066
2939.00,0.0066
2938.00,0.0067
2937.00,0.0068
2936.00,0.0070
2935.00,0.0071
2934.00,0.0072
2933.00,0.0073
2932.00,0.0075
2931.00,0.0076
2930.00,0.0077
2929.00,0.0078
2928.00,0.0080
2927.00,0.0081
2926.00,0.0082
2925.00,0.0083
2924.00,0.0084
2923.00,0.0085
2922.00,0.0086
2921.00,0.0087
2920.00,0.0087
2919.00,0.0087
2918.00,0.0086
2917.00,0.0085
2916.00,0.0084
2915.00,0.0082
2914.00,0.0079
2913.00,0.0077
2912.00,0.0075
2911.00,0.0073
2910.00,0.0071
2909.00,0.0069
2908.00,0.0068
2907.00,0.0067
2906.00,0.0066
2905.00,0.0065
2904.00,0.0065
2903.00,0.0064
2902.00,0.0064
2901.00,0.0063
2900.00,0.0062
2899.00,0.0062
2898.00,0.0061
2897.00,0.0061
2896.00,0.0061
2895.00,0.0060
2894.00,0.0060
2893.00,0.0060
2892.00,0.0060
2891.00,0.0059
2890.00,0.0059
2889.00,0.0058
2888.00,0.0058
2887.00,0.0057
2886.00,0.0057
2885.00,0.0057
2884.00,0.0057
2883.00,0.0057
2882.00,0.0057
2881.00,0.0056
2880.00,0.0057
2879.00,0.0057
2878.00,0.0057
2877.00,0.0057
2876.00,0.0057
2875.00,0.0057
2874.00,0.0057
2873.00,0.0057
2872.00,0.0057
2871.00,0.0057
2870.00,0.0057
2869.00,0.0056
2868.00,0.0056
2867.00,0.0056
2866.00,0.0055
2865.00,0.0055
2864.00,0.0056
2863.00,0.0056
2862.00,0.0056
2861.00,0.0057
2860.00,0.0058
2859.00,0.0059
2858.00,0.0060
2857.00,0.0061
2856.00,0.0062
2855.00,0.0063
2854.00,0.0065
2853.00,0.0066
2852.00,0.0067
2851.00,0.0067
2850.00,0.0067
2849.00,0.0066
2848.00,0.0064
2847.00,0.0062
2846.00,0.0060
2845.00,0.0057
2844.00,0.0056
2843.00,0.0054
2842.00,0.0053
2841.00,0.0052
2840.00,0.0051
2839.00,0.0050
2838.00,0.0049
2837.00,0.0049
2836.00,0.0048
2835.00,0.0048
2834.00,0.0047
2833.00,0.0047
2832.00,0.0046
2831.00,0.0046
2830.00,0.0046
2829.00,0.0046
2828.00,0.0046
2827.00,0.0046
2826.00,0.0045
2825.00,0.0045
2824.00,0.0045
2823.00,0.0045
2822.00,0.0045
2821.00,0.0045
2820.00,0.0045
2819.00,0.0044
2818.00,0.0044
2817.00,0.0044
2816.00,0.0044
2815.00,0.0044
2814.00,0.0044
2813.00,0.0044
2812.00,0.0044
2811.00,0.0044
2810.00,0.0044
2809.00,0.0043
2808.00,0.0043
2807.00,0.0043
2806.00,0.0043
2805.00,0.0043
2804.00,0.0043
2803.00,0.0043
2802.00,0.0043
2801.00,0.0043
2800.00,0.0043
2799.00,0.0043
2798.00,0.0042
2797.00,0.0042
2796.00,0.0042
2795.00,0.0042
2794.00,0.0042
2793.00,0.0042
2792.00,0.0042
2791.00,0.0042
2790.00,0.0042
2789.00,0.0042
2788.00,0.0042
2787.00,0.0041
2786.00,0.0041
2785.00,0.0041
2784.00,0.0041
2783.00,0.0041
2782.00,0.0041
2781.00,0.0041
2780.00,0.0041
2779.00,0.0041
2778.00,0.0041
2777.00,0.0041
2776.00,0.0040
2775.00,0.0040
2774.00,0.0040
2773.00,0.0040
2772.00,0.0040
2771.00,0.0040
2770.00,0.0040
2769.00,0.0040
2768.00,0.0040
2767.00,0.0040
2766.00,0.0040
2765.00,0.0040
2764.00,0.0039
2763.00,0.0039
2762.00,0.0039
2761.00,0.0039
2760.00,0.0039
2759.00,0.0038
2758.00,0.0038
2757.00,0.0038
2756.00,0.0038
2755.00,0.0038
2754.00,0.0038
2753.00,0.0039
2752.00,0.0039
2751.00,0.0039
2750.00,0.0038
2749.00,0.0038
2748.00,0.0038
2747.00,0.0038
2746.00,0.0038
2745.00,0.0038
2744.00,0.0038
2743.00,0.0038
2742.00,0.0038
2741.00,0.0038
2740.00,0.0038
2739.00,0.0038
2738.00,0.0038
2737.00,0.0037
2736.00,0.0037
2735.00,0.0037
2734.00,0.0037
2733.00,0.0037
2732.00,0.0037
2731.00,0.0037
2730.00,0.0037
2729.00,0.0037
2728.00,0.0037
2727.00,0.0037
2726.00,0.0036
2725.00,0.0036
2724.00,0.0036
2723.00,0.0036
2722.00,0.0036
2721.00,0.0036
2720.00,0.0036
2719.00,0.0036
2718.00,0.0036
2717.00,0.0036
2716.00,0.0036
2715.00,0.0036
2714.00,0.0036
2713.00,0.0035
2712.00,0.0035
2711.00,0.0035
2710.00,0.0035
2709.00,0.0035
2708.00,0.0035
2707.00,0.0034
2706.00,0.0034
2705.00,0.0034
2704.00,0.0034
2703.00,0.0035
2702.00,0.0035
2701.00,0.0035
2700.00,0.0035
2699.00,0.0035
2698.00,0.0035
2697.00,0.0035
2696.00,0.0035
2695.00,0.0035
2694.00,0.0035
2693.00,0.0035
2692.00,0.0035
2691.00,0.0034
2690.00,0.0034
2689.00,0.0034
2688.00,0.0034
2687.00,0.0034
2686.00,0.0034
2685.00,0.0034
2684.00,0.0034
2683.00,0.0034
2682.00,0.0034
2681.00,0.0034
2680.00,0.0034
2679.00,0.0034
2678.00,0.0034
2677.00,0.0034
2676.00,0.0034
2675.00,0.0034
2674.00,0.0034
2673.00,0.0034
2672.00,0.0034
2671.00,0.0033
2670.00,0.0033
2669.00,0.0033
2668.00,0.0033
2667.00,0.0033
2666.00,0.0033
2665.00,0.0033
2664.00,0.0034
2663.00,0.0034
2662.00,0.0033
2661.00,0.0033
2660.00,0.0034
2659.00,0.0034
2658.00,0.0034
2657.00,0.0033
2656.00,0.0033
2655.00,0.0033
2654.00,0.0033
2653.00,0.0033
2652.00,0.0033
2651.00,0.0033
2650.00,0.0032
2649.00,0.0032
2648.00,0.0032
2647.00,0.0033
2646.00,0.0033
2645.00,0.0033
2644.00,0.0033
2643.00,0.0033
2642.00,0.0033
2641.00,0.0033
2640.00,0.0033
2639.00,0.0033
2638.00,0.0033
2637.00,0.0033
2636.00,0.0033
2635.00,0.0032
2634.00,0.0032
2633.00,0.0032
2632.00,0.0032
2631.00,0.0032
2630.00,0.0032
2629.00,0.0033
2628.00,0.0033
2627.00,0.0033
2626.00,0.0032
2625.00,0.0032
2624.00,0.0032
2623.00,0.0032
2622.00,0.0032
2621.00,0.0032
2620.00,0.0031
2619.00,0.0031
2618.00,0.0031
2617.00,0.0031
2616.00,0.0031
2615.00,0.0031
2614.00,0.0031
2613.00,0.0031
2612.00,0.0031
2611.00,0.0031
2610.00,0.0031
2609.00,0.0031
2608.00,0.0031
2607.00,0.0031
2606.00,0.0031
2605.00,0.0031
2604.00,0.0031
2603.00,0.0031
2602.00,0.0031
2601.00,0.0031
2600.00,0.0031
2599.00,0.0031
2598.00,0.0031
2597.00,0.0031
2596.00,0.0030
2595.00,0.0030
2594.00,0.0030
2593.00,0.0029
2592.00,0.0030
2591.00,0.0030
2590.00,0.0030
2589.00,0.0030
2588.00,0.0030
2587.00,0.0030
2586.00,0.0030
2585.00,0.0030
2584.00,0.0030
2583.00,0.0030
2582.00,0.0030
2581.00,0.0030
2580.00,0.0030
2579.00,0.0029
2578.00,0.0029
2577.00,0.0029
2576.00,0.0029
2575.00,0.0029
2574.00,0.0029
2573.00,0.0029
2572.00,0.0030
2571.00,0.0030
2570.00,0.0030
2569.00,0.0030
2568.00,0.0030
2567.00,0.0030
2566.00,0.0030
2565.00,0.0030
2564.00,0.0030
2563.00,0.0029
2562.00,0.0029
2561.00,0.0028
2560.00,0.0028
2559.00,0.0028
2558.00,0.0028
2557.00,0.0028
2556.00,0.0029
2555.00,0.0029
2554.00,0.0029
2553.00,0.0029
2552.00,0.0029
2551.00,0.0029
2550.00,0.0028
2549.00,0.0028
2548.00,0.0028
2547.00,0.0029
2546.00,0.0029
2545.00,0.0029
2544.00,0.0029
2543.00,0.0028
2542.00,0.0028
2541.00,0.0028
2540.00,0.0028
2539.00,0.0028
2538.00,0.0029
2537.00,0.0029
2536.00,0.0029
2535.00,0.0029
2534.00,0.0028
2533.00,0.0028
2532.00,0.0028
2531.00,0.0028
2530.00,0.0028
2529.00,0.0028
2528.00,0.0028
2527.00,0.0028
2526.00,0.0028
2525.00,0.0028
2524.00,0.0028
2523.00,0.0029
2522.00,0.0029
2521.00,0.0028
2520.00,0.0028
2519.00,0.0028
2518.00,0.0028
2517.00,0.0028
2516.00,0.0027
2515.00,0.0027
2514.00,0.0027
2513.00,0.0027
2512.00,0.0027
2511.00,0.0027
2510.00,0.0027
2509.00,0.0027
2508.00,0.0027
2507.00,0.0026
2506.00,0.0026
2505.00,0.0026
2504.00,0.0026
2503.00,0.0027
2502.00,0.0027
2501.00,0.0027
2500.00,0.0028
2499.00,0.0028
2498.00,0.0027
2497.00,0.0027
2496.00,0.0027
2495.00,0.0027
2494.00,0.0027
2493.00,0.0027
2492.00,0.0027
2491.00,0.0027
2490.00,0.0027
2489.00,0.0027
2488.00,0.0027
2487.00,0.0027
2486.00,0.0027
2485.00,0.0027
2484.00,0.0027
2483.00,0.0027
2482.00,0.0027
2481.00,0.0027
2480.00,0.0027
2479.00,0.0027
2478.00,0.0027
2477.00,0.0027
2476.00,0.0027
2475.00,0.0027
2474.00,0.0027
2473.00,0.0027
2472.00,0.0027
2471.00,0.0027
2470.00,0.0027
2469.00,0.0027
2468.00,0.0027
2467.00,0.0027
2466.00,0.0027
2465.00,0.0027
2464.00,0.0027
2463.00,0.0027
2462.00,0.0026
2461.00,0.0026
2460.00,0.0026
2459.00,0.0026
2458.00,0.0026
2457.00,0.0026
2456.00,0.0027
2455.00,0.0027
2454.00,0.0027
2453.00,0.0027
2452.00,0.0027
2451.00,0.0027
2450.00,0.0026
2449.00,0.0026
2448.00,0.0026
2447.00,0.0026
2446.00,0.0026
2445.00,0.0026
2444.00,0.0026
2443.00,0.0026
2442.00,0.0026
2441.00,0.0026
2440.00,0.0026
2439.00,0.0026
2438.00,0.0026
2437.00,0.0026
2436.00,0.0026
2435.00,0.0025
2434.00,0.0025
2433.00,0.0025
2432.00,0.0025
2431.00,0.0025
2430.00,0.0025
2429.00,0.0025
2428.00,0.0025
2427.00,0.0025
2426.00,0.0025
2425.00,0.0024
2424.00,0.0024
2423.00,0.0024
2422.00,0.0024
2421.00,0.0024
2420.00,0.0025
2419.00,0.0025
2418.00,0.0025
2417.00,0.0025
2416.00,0.0025
2415.00,0.0025
2414.00,0.0025
2413.00,0.0025
2412.00,0.0025
2411.00,0.0024
2410.00,0.0024
2409.00,0.0024
2408.00,0.0024
2407.00,0.0024
2406.00,0.0024
2405.00,0.0024
2404.00,0.0024
2403.00,0.0024
2402.00,0.0024
2401.00,0.0024
2400.00,0.0024
2399.00,0.0024
2398.00,0.0024
2397.00,0.0024
2396.00,0.0024
2395.00,0.0024
2394.00,0.0024
2393.00,0.0024
2392.00,0.0023
2391.00,0.0023
2390.00,0.0024
2389.00,0.0024
2388.00,0.0024
2387.00,0.0024
2386.00,0.0024
2385.00,0.0024
2384.00,0.0024
2383.00,0.0024
2382.00,0.0024
2381.00,0.0025
2380.00,0.0025
2379.00,0.0025
2378.00,0.0026
2377.00,0.0025
2376.00,0.0025
2375.00,0.0025
2374.00,0.0025
2373.00,0.0025
2372.00,0.0024
2371.00,0.0024
2370.00,0.0024
2369.00,0.0024
2368.00,0.0024
2367.00,0.0024
2366.00,0.0024
2365.00,0.0024
2364.00,0.0025
2363.00,0.0025
2362.00,0.0026
2361.00,0.0026
2360.00,0.0026
2359.00,0.0025
2358.00,0.0025
2357.00,0.0025
2356.00,0.0025
2355.00,0.0026
2354.00,0.0026
2353.00,0.0025
2352.00,0.0024
2351.00,0.0024
2350.00,0.0024
2349.00,0.0025
2348.00,0.0026
2347.00,0.0026
2346.00,0.0026
2345.00,0.0026
2344.00,0.0025
2343.00,0.0025
2342.00,0.0025
2341.00,0.0025
2340.00,0.0025
2339.00,0.0025
2338.00,0.0025
2337.00,0.0025
2336.00,0.0025
2335.00,0.0025
2334.00,0.0025
2333.00,0.0025
2332.00,0.0025
2331.00,0.0025
2330.00,0.0025
2329.00,0.0025
2328.00,0.0026
2327.00,0.0026
2326.00,0.0025
2325.00,0.0025
2324.00,0.0024
2323.00,0.0024
2322.00,0.0024
2321.00,0.0025
2320.00,0.0025
2319.00,0.0025
2318.00,0.0025
2317.00,0.0024
2316.00,0.0024
2315.00,0.0025
2314.00,0.0024
2313.00,0.0024
2312.00,0.0024
2311.00,0.0023
2310.00,0.0023
2309.00,0.0023
2308.00,0.0023
2307.00,0.0023
2306.00,0.0023
2305.00,0.0023
2304.00,0.0023
2303.00,0.0023
2302.00,0.0023
2301.00,0.0023
2300.00,0.0023
2299.00,0.0023
2298.00,0.0023
2297.00,0.0023
2296.00,0.0024
2295.00,0.0024
2294.00,0.0025
2293.00,0.0025
2292.00,0.0025
2291.00,0.0025
2290.00,0.0025
2289.00,0.0025
2288.00,0.0025
2287.00,0.0025
2286.00,0.0025
2285.00,0.0025
2284.00,0.0024
2283.00,0.0024
2282.00,0.0024
2281.00,0.0024
2280.00,0.0023
2279.00,0.0023
2278.00,0.0022
2277.00,0.0023
2276.00,0.0024
2275.00,0.0024
2274.00,0.0025
2273.00,0.0025
2272.00,0.0025
2271.00,0.0024
2270.00,0.0024
2269.00,0.0023
2268.00,0.0022
2267.00,0.0023
2266.00,0.0023
2265.00,0.0024
2264.00,0.0024
2263.00,0.0024
2262.00,0.0024
2261.00,0.0024
2260.00,0.0024
2259.00,0.0023
2258.00,0.0022
2257.00,0.0022
2256.00,0.0021
2255.00,0.0022
2254.00,0.0022
2253.00,0.0022
2252.00,0.0023
2251.00,0.0023
2250.00,0.0023
2249.00,0.0023
2248.00,0.0023
2247.00,0.0022
2246.00,0.0022
2245.00,0.0021
2244.00,0.0021
2243.00,0.0022
2242.00,0.0022
2241.00,0.0023
2240.00,0.0023
2239.00,0.0023
2238.00,0.0023
2237.00,0.0023
2236.00,0.0023
2235.00,0.0024
2234.00,0.0024
2233.00,0.0024
2232.00,0.0023
2231.00,0.0023
2230.00,0.0022
2229.00,0.0022
2228.00,0.0022
2227.00,0.0023
2226.00,0.0023
2225.00,0.0023
2224.00,0.0024
2223.00,0.0024
2222.00,0.0024
2221.00,0.0023
2220.00,0.0022
2219.00,0.0022
2218.00,0.0023
2217.00,0.0023
2216.00,0.0023
2215.00,0.0023
2214.00,0.0022
2213.00,0.0022
2212.00,0.0023
2211.00,0.0024
2210.00,0.0024
2209.00,0.0024
2208.00,0.0024
2207.00,0.0024
2206.00,0.0024
2205.00,0.0024
2204.00,0.0024
2203.00,0.0023
2202.00,0.0023
2201.00,0.0024
2200.00,0.0024
2199.00,0.0024
2198.00,0.0024
2197.00,0.0023
2196.00,0.0023
2195.00,0.0023
2194.00,0.0023
2193.00,0.0023
2192.00,0.0023
2191.00,0.0023
2190.00,0.0023
2189.00,0.0024
2188.00,0.0026
2187.00,0.0026
2186.00,0.0026
2185.00,0.0024
2184.00,0.0022
2183.00,0.0021
2182.00,0.0021
2181.00,0.0021
2180.00,0.0021
2179.00,0.0020
2178.00,0.0019
2177.00,0.0020
2176.00,0.0021
2175.00,0.0023
2174.00,0.0024
2173.00,0.0024
2172.00,0.0024
2171.00,0.0024
2170.00,0.0024
2169.00,0.0024
2168.00,0.0023
2167.00,0.0022
2166.00,0.0022
2165.00,0.0022
2164.00,0.0025
2163.00,0.0027
2162.00,0.0029
2161.00,0.0028
2160.00,0.0024
2159.00,0.0021
2158.00,0.0020
2157.00,0.0020
2156.00,0.0021
2155.00,0.0021
2154.00,0.0022
2153.00,0.0023
2152.00,0.0024
2151.00,0.0025
2150.00,0.0025
2149.00,0.0023
2148.00,0.0020
2147.00,0.0019
2146.00,0.0019
2145.00,0.0020
2144.00,0.0020
2143.00,0.0021
2142.00,0.0021
2141.00,0.0022
2140.00,0.0023
2139.00,0.0024
2138.00,0.0024
2137.00,0.0024
2136.00,0.0024
2135.00,0.0023
2134.00,0.0023
2133.00,0.0021
2132.00,0.0020
2131.00,0.0020
2130.00,0.0020
2129.00,0.0020
2128.00,0.0020
2127.00,0.0020
2126.00,0.0021
2125.00,0.0021
2124.00,0.0022
2123.00,0.0022
2122.00,0.0023
2121.00,0.0023
2120.00,0.0023
2119.00,0.0023
2118.00,0.0023
2117.00,0.0023
2116.00,0.0023
2115.00,0.0023
2114.00,0.0023
2113.00,0.0023
2112.00,0.0023
2111.00,0.0024
2110.00,0.0024
2109.00,0.0024
2108.00,0.0023
2107.00,0.0023
2106.00,0.0022
2105.00,0.0022
2104.00,0.0022
2103.00,0.0022
2102.00,0.0022
2101.00,0.0022
2100.00,0.0023
2099.00,0.0023
2098.00,0.0023
2097.00,0.0022
2096.00,0.0021
2095.00,0.0021
2094.00,0.0020
2093.00,0.0020
2092.00,0.0020
2091.00,0.0021
2090.00,0.0022
2089.00,0.0022
2088.00,0.0022
2087.00,0.0022
2086.00,0.0021
2085.00,0.0021
2084.00,0.0021
2083.00,0.0021
2082.00,0.0022
2081.00,0.0022
2080.00,0.0023
2079.00,0.0023
2078.00,0.0022
2077.00,0.0021
2076.00,0.0020
2075.00,0.0020
2074.00,0.0020
2073.00,0.0020
2072.00,0.0021
2071.00,0.0021
2070.00,0.0020
2069.00,0.0020
2068.00,0.0020
2067.00,0.0020
2066.00,0.0021
2065.00,0.0021
2064.00,0.0021
2063.00,0.0022
2062.00,0.0022
2061.00,0.0022
2060.00,0.0022
2059.00,0.0023
2058.00,0.0023
2057.00,0.0022
2056.00,0.0021
2055.00,0.0021
2054.00,0.0021
2053.00,0.0021
2052.00,0.0022
2051.00,0.0022
2050.00,0.0022
2049.00,0.0021
2048.00,0.0020
2047.00,0.0020
2046.00,0.0021
2045.00,0.0021
2044.00,0.0022
2043.00,0.0024
2042.00,0.0026
2041.00,0.0028
2040.00,0.0029
2039.00,0.0028
2038.00,0.0027
2037.00,0.0024
2036.00,0.0022
2035.00,0.0020
2034.00,0.0019
2033.00,0.0020
2032.00,0.0020
2031.00,0.0020
2030.00,0.0019
2029.00,0.0019
2028.00,0.0020
2027.00,0.0022
2026.00,0.0023
2025.00,0.0024
2024.00,0.0023
2023.00,0.0022
2022.00,0.0021
2021.00,0.0020
2020.00,0.0019
2019.00,0.0018
2018.00,0.0018
2017.00,0.0019
2016.00,0.0021
2015.00,0.0022
2014.00,0.0022
2013.00,0.0022
2012.00,0.0022
2011.00,0.0021
2010.00,0.0020
2009.00,0.0019
2008.00,0.0018
2007.00,0.0018
2006.00,0.0018
2005.00,0.0019
2004.00,0.0021
2003.00,0.0022
2002.00,0.0023
2001.00,0.0023
2000.00,0.0022
1999.00,0.0022
1998.00,0.0023
1997.00,0.0023
1996.00,0.0022
1995.00,0.0021
1994.00,0.0020
1993.00,0.0019
1992.00,0.0019
1991.00,0.0019
1990.00,0.0018
1989.00,0.0018
1988.00,0.0018
1987.00,0.0019
1986.00,0.0020
1985.00,0.0020
1984.00,0.0021
1983.00,0.0021
1982.00,0.0022
1981.00,0.0022
1980.00,0.0022
1979.00,0.0022
1978.00,0.0022
1977.00,0.0021
1976.00,0.0021
1975.00,0.0021
1974.00,0.0020
1973.00,0.0019
1972.00,0.0018
1971.00,0.0018
1970.00,0.0018
1969.00,0.0018
1968.00,0.0018
1967.00,0.0018
1966.00,0.0018
1965.00,0.0018
1964.00,0.0018
1963.00,0.0019
1962.00,0.0021
1961.00,0.0022
1960.00,0.0022
1959.00,0.0021
1958.00,0.0020
1957.00,0.0019
1956.00,0.0019
1955.00,0.0018
1954.00,0.0017
1953.00,0.0017
1952.00,0.0018
1951.00,0.0020
1950.00,0.0021
1949.00,0.0021
1948.00,0.0020
1947.00,0.0020
1946.00,0.0019
1945.00,0.0019
1944.00,0.0019
1943.00,0.0019
1942.00,0.0019
1941.00,0.0019
1940.00,0.0019
1939.00,0.0019
1938.00,0.0019
1937.00,0.0019
1936.00,0.0018
1935.00,0.0018
1934.00,0.0018
1933.00,0.0018
1932.00,0.0019
1931.00,0.0019
1930.00,0.0019
1929.00,0.0019
1928.00,0.0018
1927.00,0.0018
1926.00,0.0018
1925.00,0.0018
1924.00,0.0018
1923.00,0.0018
1922.00,0.0018
1921.00,0.0018
1920.00,0.0018
1919.00,0.0017
1918.00,0.0017
1917.00,0.0017
1916.00,0.0018
1915.00,0.0018
1914.00,0.0018
1913.00,0.0018
1912.00,0.0018
1911.00,0.0018
1910.00,0.0018
1909.00,0.0019
1908.00,0.0019
1907.00,0.0020
1906.00,0.0020
1905.00,0.0020
1904.00,0.0020
1903.00,0.0019
1902.00,0.0019
1901.00,0.0019
1900.00,0.0019
1899.00,0.0018
1898.00,0.0018
1897.00,0.0018
1896.00,0.0018
1895.00,0.0019
1894.00,0.0019
1893.00,0.0019
1892.00,0.0018
1891.00,0.0018
1890.00,0.0018
1889.00,0.0018
1888.00,0.0018
1887.00,0.0018
1886.00,0.0019
1885.00,0.0019
1884.00,0.0020
1883.00,0.0020
1882.00,0.0019
1881.00,0.0018
1880.00,0.0018
1879.00,0.0017
1878.00,0.0017
1877.00,0.0018
1876.00,0.0018
1875.00,0.0018
1874.00,0.0018
1873.00,0.0018
1872.00,0.0018
1871.00,0.0018
1870.00,0.0018
1869.00,0.0018
1868.00,0.0018
1867.00,0.0018
1866.00,0.0017
1865.00,0.0017
1864.00,0.0016
1863.00,0.0016
1862.00,0.0016
1861.00,0.0017
1860.00,0.0017
1859.00,0.0017
1858.00,0.0017
1857.00,0.0016
1856.00,0.0016
1855.00,0.0017
1854.00,0.0017
1853.00,0.0017
1852.00,0.0017
1851.00,0.0017
1850.00,0.0017
1849.00,0.0017
1848.00,0.0017
1847.00,0.0017
1846.00,0.0016
1845.00,0.0016
1844.00,0.0016
1843.00,0.0016
1842.00,0.0016
1841.00,0.0016
1840.00,0.0016
1839.00,0.0016
1838.00,0.0016
1837.00,0.0016
1836.00,0.0016
1835.00,0.0016
1834.00,0.0016
1833.00,0.0016
1832.00,0.0016
1831.00,0.0016
1830.00,0.0016
1829.00,0.0016
1828.00,0.0017
1827.00,0.0016
1826.00,0.0016
1825.00,0.0016
1824.00,0.0016
1823.00,0.0016
1822.00,0.0017
1821.00,0.0016
1820.00,0.0016
1819.00,0.0016
1818.00,0.0016
1817.00,0.0016
1816.00,0.0016
1815.00,0.0016
1814.00,0.0016
1813.00,0.0016
1812.00,0.0016
1811.00,0.0016
1810.00,0.0016
1809.00,0.0016
1808.00,0.0016
1807.00,0.0016
1806.00,0.0016
1805.00,0.0016
1804.00,0.0016
1803.00,0.0016
1802.00,0.0016
1801.00,0.0016
1800.00,0.0016
1799.00,0.0016
1798.00,0.0016
1797.00,0.0016
1796.00,0.0016
1795.00,0.0016
1794.00,0.0016
1793.00,0.0016
1792.00,0.0016
1791.00,0.0017
1790.00,0.0017
1789.00,0.0017
1788.00,0.0017
1787.00,0.0016
1786.00,0.0016
1785.00,0.0016
1784.00,0.0016
1783.00,0.0016
1782.00,0.0017
1781.00,0.0017
1780.00,0.0017
1779.00,0.0017
1778.00,0.0017
1777.00,0.0016
1776.00,0.0016
1775.00,0.0017
1774.00,0.0017
1773.00,0.0017
1772.00,0.0017
1771.00,0.0017
1770.00,0.0016
1769.00,0.0016
1768.00,0.0017
1767.00,0.0017
1766.00,0.0017
1765.00,0.0017
1764.00,0.0017
1763.00,0.0017
1762.00,0.0017
1761.00,0.0017
1760.00,0.0017
1759.00,0.0017
1758.00,0.0017
1757.00,0.0017
1756.00,0.0017
1755.00,0.0017
1754.00,0.0017
1753.00,0.0017
1752.00,0.0018
1751.00,0.0018
1750.00,0.0018
1749.00,0.0018
1748.00,0.0018
1747.00,0.0018
1746.00,0.0018
1745.00,0.0018
1744.00,0.0018
1743.00,0.0018
1742.00,0.0018
1741.00,0.0019
1740.00,0.0019
1739.00,0.0019
1738.00,0.0020
1737.00,0.0020
1736.00,0.0020
1735.00,0.0020
1734.00,0.0020
1733.00,0.0021
1732.00,0.0021
1731.00,0.0021
1730.00,0.0021
1729.00,0.0021
1728.00,0.0021
1727.00,0.0021
1726.00,0.0021
1725.00,0.0021
1724.00,0.0021
1723.00,0.0022
1722.00,0.0022
1721.00,0.0023
1720.00,0.0024
1719.00,0.0025
1718.00,0.0027
1717.00,0.0027
1716.00,0.0027
1715.00,0.0027
1714.00,0.0027
1713.00,0.0028
1712.00,0.0030
1711.00,0.0032
1710.00,0.0033
1709.00,0.0035
1708.00,0.0037
1707.00,0.0039
1706.00,0.0042
1705.00,0.0045
1704.00,0.0047
1703.00,0.0050
1702.00,0.0052
1701.00,0.0056
1700.00,0.0062
1699.00,0.0069
1698.00,0.0073
1697.00,0.0076
1696.00,0.0079
1695.00,0.0081
1694.00,0.0083
1693.00,0.0085
1692.00,0.0087
1691.00,0.0089
1690.00,0.0092
1689.00,0.0094
1688.00,0.0097
1687.00,0.0100
1686.00,0.0103
1685.00,0.0105
1684.00,0.0108
1683.00,0.0111
1682.00,0.0114
1681.00,0.0117
1680.00,0.0121
1679.00,0.0124
1678.00,0.0126
1677.00,0.0129
1676.00,0.0131
1675.00,0.0134
1674.00,0.0138
1673.00,0.0142
1672.00,0.0145
1671.00,0.0148
1670.00,0.0151
1669.00,0.0155
1668.00,0.0158
1667.00,0.0162
1666.00,0.0164
1665.00,0.0167
1664.00,0.0169
1663.00,0.0172
1662.00,0.0175
1661.00,0.0179
1660.00,0.0182
1659.00,0.0185
1658.00,0.0187
1657.00,0.0190
1656.00,0.0192
1655.00,0.0194
1654.00,0.0196
1653.00,0.0198
1652.00,0.0202
1651.00,0.0205
1650.00,0.0206
1649.00,0.0207
1648.00,0.0207
1647.00,0.0209
1646.00,0.0210
1645.00,0.0212
1644.00,0.0214
1643.00,0.0216
1642.00,0.0217
1641.00,0.0218
1640.00,0.0219
1639.00,0.0221
1638.00,0.0222
1637.00,0.0224
1636.00,0.0225
1635.00,0.0227
1634.00,0.0230
1633.00,0.0233
1632.00,0.0236
1631.00,0.0238
1630.00,0.0240
1629.00,0.0242
1628.00,0.0244
1627.00,0.0246
1626.00,0.0248
1625.00,0.0249
1624.00,0.0248
1623.00,0.0247
1622.00,0.0247
1621.00,0.0246
1620.00,0.0244
1619.00,0.0242
1618.00,0.0239
1617.00,0.0234
1616.00,0.0230
1615.00,0.0226
1614.00,0.0222
1613.00,0.0219
1612.00,0.0215
1611.00,0.0211
1610.00,0.0206
1609.00,0.0201
1608.00,0.0196
1607.00,0.0191
1606.00,0.0187
1605.00,0.0182
1604.00,0.0178
1603.00,0.0174
1602.00,0.0170
1601.00,0.0166
1600.00,0.0162
1599.00,0.0158
1598.00,0.0155
1597.00,0.0152
1596.00,0.0149
1595.00,0.0147
1594.00,0.0144
1593.00,0.0142
1592.00,0.0139
1591.00,0.0137
1590.00,0.0135
1589.00,0.0132
1588.00,0.0130
1587.00,0.0129
1586.00,0.0128
1585.00,0.0127
1584.00,0.0126
1583.00,0.0126
1582.00,0.0125
1581.00,0.0125
1580.00,0.0125
1579.00,0.0125
1578.00,0.0126
1577.00,0.0127
1576.00,0.0127
1575.00,0.0128
1574.00,0.0128
1573.00,0.0128
1572.00,0.0129
1571.00,0.0129
1570.00,0.0131
1569.00,0.0133
1568.00,0.0135
1567.00,0.0137
1566.00,0.0139
1565.00,0.0141
1564.00,0.0143
1563.00,0.0145
1562.00,0.0147
1561.00,0.0148
1560.00,0.0149
1559.00,0.0153
1558.00,0.0156
1557.00,0.0159
1556.00,0.0162
1555.00,0.0164
1554.00,0.0167
1553.00,0.0169
1552.00,0.0172
1551.00,0.0174
1550.00,0.0176
1549.00,0.0179
1548.00,0.0181
1547.00,0.0183
1546.00,0.0184
1545.00,0.0186
1544.00,0.0188
1543.00,0.0191
1542.00,0.0193
1541.00,0.0196
1540.00,0.0198
1539.00,0.0200
1538.00,0.0202
1537.00,0.0203
1536.00,0.0203
1535.00,0.0204
1534.00,0.0204
1533.00,0.0205
1532.00,0.0207
1531.00,0.0208
1530.00,0.0210
1529.00,0.0211
1528.00,0.0211
1527.00,0.0212
1526.00,0.0213
1525.00,0.0214
1524.00,0.0215
1523.00,0.0216
1522.00,0.0216
1521.00,0.0217
1520.00,0.0218
1519.00,0.0219
1518.00,0.0219
1517.00,0.0219
1516.00,0.0220
1515.00,0.0220
1514.00,0.0220
1513.00,0.0219
1512.00,0.0217
1511.00,0.0215
1510.00,0.0213
1509.00,0.0211
1508.00,0.0208
1507.00,0.0203
1506.00,0.0198
1505.00,0.0196
1504.00,0.0193
1503.00,0.0190
1502.00,0.0187
1501.00,0.0184
1500.00,0.0180
1499.00,0.0177
1498.00,0.0174
1497.00,0.0170
1496.00,0.0166
1495.00,0.0162
1494.00,0.0159
1493.00,0.0155
1492.00,0.0152
1491.00,0.0148
1490.00,0.0144
1489.00,0.0141
1488.00,0.0138
1487.00,0.0135
1486.00,0.0133
1485.00,0.0131
1484.00,0.0129
1483.00,0.0127
1482.00,0.0126
1481.00,0.0124
1480.00,0.0123
1479.00,0.0123
1478.00,0.0122
1477.00,0.0122
1476.00,0.0122
1475.00,0.0122
1474.00,0.0123
1473.00,0.0124
1472.00,0.0124
1471.00,0.0125
1470.00,0.0127
1469.00,0.0127
1468.00,0.0128
1467.00,0.0128
1466.00,0.0128
1465.00,0.0129
1464.00,0.0130
1463.00,0.0131
1462.00,0.0132
1461.00,0.0132
1460.00,0.0132
1459.00,0.0133
1458.00,0.0135
1457.00,0.0137
1456.00,0.0140
1455.00,0.0142
1454.00,0.0143
1453.00,0.0143
1452.00,0.0144
1451.00,0.0144
1450.00,0.0145
1449.00,0.0145
1448.00,0.0146
1447.00,0.0146
1446.00,0.0146
1445.00,0.0146
1444.00,0.0145
1443.00,0.0144
1442.00,0.0143
1441.00,0.0142
1440.00,0.0141
1439.00,0.0139
1438.00,0.0138
1437.00,0.0136
1436.00,0.0134
1435.00,0.0133
1434.00,0.0133
1433.00,0.0132
1432.00,0.0130
1431.00,0.0129
1430.00,0.0127
1429.00,0.0126
1428.00,0.0126
1427.00,0.0125
1426.00,0.0125
1425.00,0.0124
1424.00,0.0124
1423.00,0.0125
1422.00,0.0125
1421.00,0.0125
1420.00,0.0125
1419.00,0.0125
1418.00,0.0126
1417.00,0.0127
1416.00,0.0127
1415.00,0.0128
1414.00,0.0128
1413.00,0.0129
1412.00,0.0129
1411.00,0.0130
1410.00,0.0130
1409.00,0.0130
1408.00,0.0130
1407.00,0.0130
1406.00,0.0129
1405.00,0.0129
1404.00,0.0129
1403.00,0.0129
1402.00,0.0128
1401.00,0.0127
1400.00,0.0126
1399.00,0.0126
1398.00,0.0125
1397.00,0.0125
1396.00,0.0125
1395.00,0.0124
1394.00,0.0124
1393.00,0.0124
1392.00,0.0124
1391.00,0.0124
1390.00,0.0124
1389.00,0.0123
1388.00,0.0123
1387.00,0.0122
1386.00,0.0122
1385.00,0.0122
1384.00,0.0121
1383.00,0.0121
1382.00,0.0120
1381.00,0.0120
1380.00,0.0119
1379.00,0.0119
1378.00,0.0119
1377.00,0.0119
1376.00,0.0118
1375.00,0.0118
1374.00,0.0118
1373.00,0.0118
1372.00,0.0118
1371.00,0.0118
1370.00,0.0117
1369.00,0.0117
1368.00,0.0116
1367.00,0.0114
1366.00,0.0113
1365.00,0.0112
1364.00,0.0110
1363.00,0.0109
1362.00,0.0108
1361.00,0.0107
1360.00,0.0107
1359.00,0.0106
1358.00,0.0106
1357.00,0.0105
1356.00,0.0105
1355.00,0.0105
1354.00,0.0106
1353.00,0.0106
1352.00,0.0106
1351.00,0.0106
1350.00,0.0106
1349.00,0.0106
1348.00,0.0107
1347.00,0.0107
1346.00,0.0108
1345.00,0.0108
1344.00,0.0108
1343.00,0.0108
1342.00,0.0108
1341.00,0.0108
1340.00,0.0109
1339.00,0.0109
1338.00,0.0109
1337.00,0.0109
1336.00,0.0109
1335.00,0.0109
1334.00,0.0109
1333.00,0.0109
1332.00,0.0109
1331.00,0.0109
1330.00,0.0109
1329.00,0.0109
1328.00,0.0108
1327.00,0.0108
1326.00,0.0108
1325.00,0.0108
1324.00,0.0107
1323.00,0.0107
1322.00,0.0107
1321.00,0.0107
1320.00,0.0107
1319.00,0.0107
1318.00,0.0107
1317.00,0.0107
1316.00,0.0107
1315.00,0.0107
1314.00,0.0107
1313.00,0.0107
1312.00,0.0107
1311.00,0.0107
1310.00,0.0107
1309.00,0.0107
1308.00,0.0106
1307.00,0.0106
1306.00,0.0106
1305.00,0.0106
1304.00,0.0105
1303.00,0.0105
1302.00,0.0105
1301.00,0.0105
1300.00,0.0105
1299.00,0.0105
1298.00,0.0104
1297.00,0.0104
1296.00,0.0104
1295.00,0.0104
1294.00,0.0105
1293.00,0.0105
1292.00,0.0105
1291.00,0.0105
1290.00,0.0105
1289.00,0.0105
1288.00,0.0105
1287.00,0.0106
1286.00,0.0106
1285.00,0.0106
1284.00,0.0106
1283.00,0.0106
1282.00,0.0106
1281.00,0.0107
1280.00,0.0107
1279.00,0.0108
1278.00,0.0108
1277.00,0.0108
1276.00,0.0108
1275.00,0.0108
1274.00,0.0109
1273.00,0.0110
1272.00,0.0110
1271.00,0.0111
1270.00,0.0111
1269.00,0.0112
1268.00,0.0113
1267.00,0.0114
1266.00,0.0115
1265.00,0.0117
1264.00,0.0118
1263.00,0.0119
1262.00,0.0119
1261.00,0.0120
1260.00,0.0120
1259.00,0.0121
1258.00,0.0121
1257.00,0.0121
1256.00,0.0122
1255.00,0.0122
1254.00,0.0123
1253.00,0.0124
1252.00,0.0124
1251.00,0.0125
1250.00,0.0126
1249.00,0.0127
1248.00,0.0128
1247.00,0.0130
1246.00,0.0131
1245.00,0.0133
1244.00,0.0133
1243.00,0.0134
1242.00,0.0135
1241.00,0.0136
1240.00,0.0136
1239.00,0.0137
1238.00,0.0137
1237.00,0.0138
1236.00,0.0138
1235.00,0.0137
1234.00,0.0137
1233.00,0.0137
1232.00,0.0136
1231.00,0.0135
1230.00,0.0135
1229.00,0.0134
1228.00,0.0134
1227.00,0.0133
1226.00,0.0133
1225.00,0.0132
1224.00,0.0131
1223.00,0.0130
1222.00,0.0129
1221.00,0.0128
1220.00,0.0127
1219.00,0.0126
1218.00,0.0125
1217.00,0.0124
1216.00,0.0122
1215.00,0.0121
1214.00,0.0120
1213.00,0.0119
1212.00,0.0117
1211.00,0.0116
1210.00,0.0115
1209.00,0.0114
1208.00,0.0113
1207.00,0.0112
1206.00,0.0111
1205.00,0.0110
1204.00,0.0109
1203.00,0.0108
1202.00,0.0108
1201.00,0.0107
1200.00,0.0106
1199.00,0.0105
1198.00,0.0104
1197.00,0.0103
1196.00,0.0102
1195.00,0.0102
1194.00,0.0101
1193.00,0.0101
1192.00,0.0100
1191.00,0.0099
1190.00,0.0099
1189.00,0.0099
1188.00,0.0098
1187.00,0.0098
1186.00,0.0097
1185.00,0.0096
1184.00,0.0096
1183.00,0.0096
1182.00,0.0096
1181.00,0.0096
1180.00,0.0096
1179.00,0.0096
1178.00,0.0097
1177.00,0.0097
1176.00,0.0098
1175.00,0.0099
1174.00,0.0100
1173.00,0.0100
1172.00,0.0101
1171.00,0.0101
1170.00,0.0101
1169.00,0.0101
1168.00,0.0101
1167.00,0.0100
1166.00,0.0100
1165.00,0.0100
1164.00,0.0100
1163.00,0.0101
1162.00,0.0101
1161.00,0.0101
1160.00,0.0100
1159.00,0.0099
1158.00,0.0099
1157.00,0.0098
1156.00,0.0097
1155.00,0.0097
1154.00,0.0096
1153.00,0.0095
1152.00,0.0094
1151.00,0.0094
1150.00,0.0093
1149.00,0.0093
1148.00,0.0093
1147.00,0.0093
1146.00,0.0093
1145.00,0.0092
1144.00,0.0092
1143.00,0.0092
1142.00,0.0092
1141.00,0.0092
1140.00,0.0092
1139.00,0.0092
1138.00,0.0092
1137.00,0.0092
1136.00,0.0091
1135.00,0.0091
1134.00,0.0092
1133.00,0.0092
1132.00,0.0092
1131.00,0.0092
1130.00,0.0093
1129.00,0.0093
1128.00,0.0093
1127.00,0.0093
1126.00,0.0093
1125.00,0.0094
1124.00,0.0094
1123.00,0.0094
1122.00,0.0094
1121.00,0.0095
1120.00,0.0095
1119.00,0.0095
1118.00,0.0096
1117.00,0.0096
1116.00,0.0096
1115.00,0.0096
1114.00,0.0096
1113.00,0.0096
1112.00,0.0095
1111.00,0.0095
1110.00,0.0095
1109.00,0.0096
1108.00,0.0096
1107.00,0.0097
1106.00,0.0098
1105.00,0.0098
1104.00,0.0098
1103.00,0.0099
1102.00,0.0099
1101.00,0.0099
1100.00,0.0098
1099.00,0.0098
1098.00,0.0099
1097.00,0.0100
1096.00,0.0100
1095.00,0.0101
1094.00,0.0101
1093.00,0.0101
1092.00,0.0101
1091.00,0.0102
1090.00,0.0103
1089.00,0.0104
1088.00,0.0105
1087.00,0.0105
1086.00,0.0106
1085.00,0.0107
1084.00,0.0108
1083.00,0.0109
1082.00,0.0110
1081.00,0.0110
1080.00,0.0110
1079.00,0.0111
1078.00,0.0111
1077.00,0.0112
1076.00,0.0112
1075.00,0.0112
1074.00,0.0112
1073.00,0.0112
1072.00,0.0111
1071.00,0.0111
1070.00,0.0112
1069.00,0.0112
1068.00,0.0111
1067.00,0.0111
1066.00,0.0111
1065.00,0.0112
1064.00,0.0111
1063.00,0.0111
1062.00,0.0111
1061.00,0.0111
1060.00,0.0111
1059.00,0.0111
1058.00,0.0112
1057.00,0.0112
1056.00,0.0113
1055.00,0.0113
1054.00,0.0114
1053.00,0.0114
1052.00,0.0113
1051.00,0.0111
1050.00,0.0111
1049.00,0.0110
1048.00,0.0109
1047.00,0.0109
1046.00,0.0108
1045.00,0.0107
1044.00,0.0106
1043.00,0.0104
1042.00,0.0104
1041.00,0.0103
1040.00,0.0103
1039.00,0.0102
1038.00,0.0102
1037.00,0.0101
1036.00,0.0100
1035.00,0.0099
1034.00,0.0100
1033.00,0.0100
1032.00,0.0100
1031.00,0.0099
1030.00,0.0100
1029.00,0.0099
1028.00,0.0099
1027.00,0.0098
1026.00,0.0097
1025.00,0.0097
1024.00,0.0096
1023.00,0.0095
1022.00,0.0095
1021.00,0.0095
1020.00,0.0094
1019.00,0.0093
1018.00,0.0092
1017.00,0.0090
1016.00,0.0089
1015.00,0.0088
1014.00,0.0087
1013.00,0.0087
1012.00,0.0087
1011.00,0.0086
1010.00,0.0085
1009.00,0.0083
1008.00,0.0082
1007.00,0.0081
1006.00,0.0080
1005.00,0.0080
1004.00,0.0078
1003.00,0.0077
1002.00,0.0076
1001.00,0.0075
1000.00,0.0075
999.00,0.0075
998.00,0.0075
997.00,0.0075
996.00,0.0074
995.00,0.0074
994.00,0.0073
993.00,0.0072
992.00,0.0071
991.00,0.0070
990.00,0.0069
989.00,0.0069
988.00,0.0068
987.00,0.0068
986.00,0.0068
985.00,0.0068
984.00,0.0067
983.00,0.0067
982.00,0.0067
981.00,0.0068
980.00,0.0067
979.00,0.0067
978.00,0.0067
977.00,0.0067
976.00,0.0067
975.00,0.0066
974.00,0.0067
973.00,0.0067
972.00,0.0068
971.00,0.0069
970.00,0.0070
969.00,0.0071
968.00,0.0071
967.00,0.0071
966.00,0.0070
965.00,0.0070
964.00,0.0069
963.00,0.0068
962.00,0.0068
961.00,0.0067
960.00,0.0066
959.00,0.0066
958.00,0.0065
957.00,0.0065
956.00,0.0064
955.00,0.0064
954.00,0.0064
953.00,0.0064
952.00,0.0064
951.00,0.0064
950.00,0.0064
949.00,0.0064
948.00,0.0064
947.00,0.0064
946.00,0.0064
945.00,0.0064
944.00,0.0063
943.00,0.0062
942.00,0.0062
941.00,0.0062
940.00,0.0062
939.00,0.0063
938.00,0.0063
937.00,0.0064
936.00,0.0064
935.00,0.0064
934.00,0.0065
933.00,0.0065
932.00,0.0065
931.00,0.0065
930.00,0.0065
929.00,0.0066
928.00,0.0065
927.00,0.0065
926.00,0.0065
925.00,0.0065
924.00,0.0065
923.00,0.0065
922.00,0.0065
921.00,0.0064
920.00,0.0063
919.00,0.0063
918.00,0.0063
917.00,0.0063
916.00,0.0063
915.00,0.0063
914.00,0.0063
913.00,0.0062
912.00,0.0062
911.00,0.0062
910.00,0.0062
909.00,0.0062
908.00,0.0062
907.00,0.0062
906.00,0.0063
905.00,0.0063
904.00,0.0062
903.00,0.0062
902.00,0.0063
901.00,0.0063
900.00,0.0062
899.00,0.0061
898.00,0.0061
897.00,0.0061
896.00,0.0060
895.00,0.0060
894.00,0.0060
893.00,0.0060
892.00,0.0060
891.00,0.0059
890.00,0.0059
889.00,0.0059
888.00,0.0060
887.00,0.0061
886.00,0.0062
885.00,0.0063
884.00,0.0062
883.00,0.0061
882.00,0.0061
881.00,0.0061
880.00,0.0061
879.00,0.0061
878.00,0.0061
877.00,0.0061
876.00,0.0061
875.00,0.0061
874.00,0.0061
873.00,0.0061
872.00,0.0060
871.00,0.0059
870.00,0.0058
869.00,0.0059
868.00,0.0059
867.00,0.0059
866.00,0.0060
865.00,0.0060
864.00,0.0060
863.00,0.0060
862.00,0.0062
861.00,0.0063
860.00,0.0063
859.00,0.0063
858.00,0.0062
857.00,0.0062
856.00,0.0062
855.00,0.0062
854.00,0.0063
853.00,0.0063
852.00,0.0064
851.00,0.0064
850.00,0.0065
849.00,0.0066
848.00,0.0065
847.00,0.0065
846.00,0.0065
845.00,0.0066
844.00,0.0067
843.00,0.0067
842.00,0.0068
841.00,0.0068
840.00,0.0068
839.00,0.0068
838.00,0.0070
837.00,0.0071
836.00,0.0071
835.00,0.0071
834.00,0.0072
833.00,0.0072
832.00,0.0072
831.00,0.0072
830.00,0.0072
829.00,0.0072
828.00,0.0072
827.00,0.0072
826.00,0.0073
825.00,0.0074
824.00,0.0074
823.00,0.0075
822.00,0.0076
821.00,0.0077
820.00,0.0077
819.00,0.0077
818.00,0.0078
817.00,0.0079
816.00,0.0078
815.00,0.0079
814.00,0.0079
813.00,0.0079
812.00,0.0079
811.00,0.0079
810.00,0.0080
809.00,0.0082
808.00,0.0083
807.00,0.0084
806.00,0.0085
805.00,0.0085
804.00,0.0084
803.00,0.0084
802.00,0.0084
801.00,0.0084
800.00,0.0084
799.00,0.0085
798.00,0.0086
797.00,0.0087
796.00,0.0087
795.00,0.0086
794.00,0.0087
793.00,0.0087
792.00,0.0087
791.00,0.0087
790.00,0.0088
789.00,0.0090
788.00,0.0090
787.00,0.0092
786.00,0.0094
785.00,0.0095
784.00,0.0094
783.00,0.0093
782.00,0.0093
781.00,0.0093
780.00,0.0094
779.00,0.0095
778.00,0.0097
777.00,0.0097
776.00,0.0096
775.00,0.0095
774.00,0.0094
773.00,0.0093
772.00,0.0093
771.00,0.0094
770.00,0.0096
769.00,0.0097
768.00,0.0097
767.00,0.0098
766.00,0.0100
765.00,0.0101
764.00,0.0101
763.00,0.0101
762.00,0.0102
761.00,0.0103
760.00,0.0103
759.00,0.0102
758.00,0.0102
757.00,0.0101
756.00,0.0101
755.00,0.0102
754.00,0.0104
753.00,0.0105
752.00,0.0105
751.00,0.0105
750.00,0.0106
749.00,0.0106
748.00,0.0107
747.00,0.0108
746.00,0.0110
745.00,0.0110
744.00,0.0110
743.00,0.0110
742.00,0.0110
741.00,0.0112
740.00,0.0113
739.00,0.0115
738.00,0.0118
737.00,0.0119
736.00,0.0119
735.00,0.0118
734.00,0.0120
733.00,0.0121
732.00,0.0122
731.00,0.0122
730.00,0.0122
729.00,0.0122
728.00,0.0121
727.00,0.0122
726.00,0.0125
725.00,0.0128
724.00,0.0130
723.00,0.0131
722.00,0.0132
721.00,0.0134
720.00,0.0135
719.00,0.0137
718.00,0.0140
717.00,0.0142
716.00,0.0142
715.00,0.0142
714.00,0.0144
713.00,0.0146
712.00,0.0148
711.00,0.0150
710.00,0.0152
709.00,0.0154
708.00,0.0155
707.00,0.0156
706.00,0.0157
705.00,0.0158
704.00,0.0157
703.00,0.0157
702.00,0.0158
701.00,0.0161
700.00,0.0162
699.00,0.0163
698.00,0.0164
697.00,0.0165
696.00,0.0165
695.00,0.0165
694.00,0.0166
693.00,0.0167
692.00,0.0166
691.00,0.0165
690.00,0.0165
689.00,0.0164
688.00,0.0164
687.00,0.0164
686.00,0.0166
685.00,0.0168
684.00,0.0170
683.00,0.0170
682.00,0.0170
681.00,0.0170
680.00,0.0169
679.00,0.0169
678.00,0.0172
677.00,0.0175
676.00,0.0176
675.00,0.0175
674.00,0.0175
673.00,0.0174
672.00,0.0173
671.00,0.0173
670.00,0.0173
669.00,0.0173
668.00,0.0171
667.00,0.0171
666.00,0.0173
665.00,0.0175
664.00,0.0175
663.00,0.0175
662.00,0.0176
661.00,0.0176
660.00,0.0174
659.00,0.0174
658.00,0.0175
657.00,0.0177
656.00,0.0177
655.00,0.0178
654.00,0.0180
653.00,0.0181
652.00,0.0181
651.00,0.0181
650.00,0.0180
649.00,0.0178
648.00,0.0176
647.00,0.0176
646.00,0.0179
645.00,0.0181
644.00,0.0180
643.00,0.0179
642.00,0.0179
641.00,0.0179
640.00,0.0178
639.00,0.0178
638.00,0.0180
637.00,0.0182
636.00,0.0183
635.00,0.0184
634.00,0.0184
633.00,0.0184
632.00,0.0182
631.00,0.0182
630.00,0.0184
629.00,0.0185
628.00,0.0186
627.00,0.0187
626.00,0.0189
625.00,0.0191
624.00,0.0192
623.00,0.0193
622.00,0.0194
621.00,0.0195
620.00,0.0195
619.00,0.0196
618.00,0.0197
617.00,0.0198
616.00,0.0198
615.00,0.0197
614.00,0.0198
613.00,0.0199
612.00,0.0198
611.00,0.0197
610.00,0.0198
609.00,0.0198
608.00,0.0197
607.00,0.0195
606.00,0.0195
605.00,0.0195
604.00,0.0196
603.00,0.0197
602.00,0.0199
601.00,0.0200
600.00,0.0199
599.00,0.0197
598.00,0.0196
597.00,0.0195
596.00,0.0194
595.00,0.0194
594.00,0.0197
593.00,0.0200
592.00,0.0201
591.00,0.0200
590.00,0.0200
589.00,0.0200
588.00,0.0199
587.00,0.0198
586.00,0.0199
585.00,0.0200
584.00,0.0199
583.00,0.0199
582.00,0.0201
581.00,0.0203
580.00,0.0205
579.00,0.0207
578.00,0.0209
577.00,0.0211
576.00,0.0211
575.00,0.0211
574.00,0.0213
573.00,0.0215
572.00,0.0214
571.00,0.0213
570.00,0.0213
569.00,0.0215
568.00,0.0215
567.00,0.0215
566.00,0.0217
565.00,0.0219
564.00,0.0219
563.00,0.0219
562.00,0.0220
561.00,0.0220
560.00,0.0220
559.00,0.0221
558.00,0.0222
557.00,0.0222
556.00,0.0220
555.00,0.0219
554.00,0.0222
553.00,0.0225
552.00,0.0227
551.00,0.0229
550.00,0.0232
549.00,0.0233
548.00,0.0231
547.00,0.0228
546.00,0.0228
545.00,0.0227
544.00,0.0224
543.00,0.0223
542.00,0.0225
541.00,0.0227
540.00,0.0227
539.00,0.0227
538.00,0.0228
537.00,0.0229
536.00,0.0228
535.00,0.0228
534.00,0.0228
533.00,0.0227
532.00,0.0223
531.00,0.0220
530.00,0.0222
529.00,0.0225
528.00,0.0226
527.00,0.0227
526.00,0.0229
525.00,0.0230
524.00,0.0227
523.00,0.0225
522.00,0.0227
521.00,0.0229
520.00,0.0227
519.00,0.0224
518.00,0.0222
517.00,0.0222
516.00,0.0222
515.00,0.0222
514.00,0.0226
513.00,0.0229
512.00,0.0229
511.00,0.0228
510.00,0.0228
509.00,0.0228
508.00,0.0228
507.00,0.0229
506.00,0.0232
505.00,0.0232
504.00,0.0228
503.00,0.0222
502.00,0.0220
501.00,0.0220
500.00,0.0220
499.00,0.0222
498.00,0.0226
497.00,0.0225
496.00,0.0221
495.00,0.0218
494.00,0.0220
493.00,0.0223
492.00,0.0224
491.00,0.0225
490.00,0.0226
489.00,0.0224
488.00,0.0219
487.00,0.0217
486.00,0.0220
485.00,0.0223
484.00,0.0223
483.00,0.0224
482.00,0.0227
481.00,0.0228
480.00,0.0224
479.00,0.0220
478.00,0.0224
477.00,0.0228
476.00,0.0229
475.00,0.0227
474.00,0.0226
473.00,0.0223
472.00,0.0217
471.00,0.0215
470.00,0.0220
469.00,0.0224
468.00,0.0223
467.00,0.0219
466.00,0.0221
465.00,0.0223
464.00,0.0225
463.00,0.0228
462.00,0.0234
461.00,0.0235
460.00,0.0230
459.00,0.0226
458.00,0.0229
457.00,0.0232
456.00,0.0229
455.00,0.0226
454.00,0.0228
453.00,0.0228
452.00,0.0223
451.00,0.0220
450.00,0.0223
449.00,0.0226
448.00,0.0224
447.00,0.0223
446.00,0.0227
445.00,0.0226
444.00,0.0217
443.00,0.0208
442.00,0.0209
441.00,0.0213
440.00,0.0211
439.00,0.0207
438.00,0.0205
437.00,0.0202
436.00,0.0195
435.00,0.0192
434.00,0.0200
433.00,0.0211
432.00,0.0215
431.00,0.0213
430.00,0.0210
429.00,0.0203
428.00,0.0192
427.00,0.0188
426.00,0.0191
425.00,0.0192
424.00,0.0182
423.00,0.0173
422.00,0.0174
421.00,0.0174
420.00,0.0164
419.00,0.0157
418.00,0.0171
417.00,0.0187
416.00,0.0189
415.00,0.0189
414.00,0.0196
413.00,0.0202
412.00,0.0201
411.00,0.0198
410.00,0.0201
409.00,0.0196
408.00,0.0177
407.00,0.0163
406.00,0.0168
405.00,0.0178
404.00,0.0175
403.00,0.0171
402.00,0.0175
401.00,0.0175
400.00,0.0162
