Created as New Dataset,Sample 208 By YargerLab Date Monday, June 10 2024
cm-1,A
4000.00,0.0059
3999.00,0.0059
3998.00,0.0059
3997.00,0.0059
3996.00,0.0059
3995.00,0.0059
3994.00,0.0059
3993.00,0.0059
3992.00,0.0059
3991.00,0.0059
3990.00,0.0059
3989.00,0.0059
3988.00,0.0059
3987.00,0.0059
3986.00,0.0059
3985.00,0.0059
3984.00,0.0059
3983.00,0.0059
3982.00,0.0059
3981.00,0.0058
3980.00,0.0058
3979.00,0.0058
3978.00,0.0059
3977.00,0.0059
3976.00,0.0059
3975.00,0.0059
3974.00,0.0058
3973.00,0.0058
3972.00,0.0058
3971.00,0.0058
3970.00,0.0059
3969.00,0.0059
3968.00,0.0059
3967.00,0.0059
3966.00,0.0059
3965.00,0.0059
3964.00,0.0058
3963.00,0.0058
3962.00,0.0058
3961.00,0.0058
3960.00,0.0058
3959.00,0.0058
3958.00,0.0058
3957.00,0.0058
3956.00,0.0058
3955.00,0.0058
3954.00,0.0058
3953.00,0.0058
3952.00,0.0059
3951.00,0.0059
3950.00,0.0059
3949.00,0.0059
3948.00,0.0059
3947.00,0.0059
3946.00,0.0059
3945.00,0.0059
3944.00,0.0059
3943.00,0.0058
3942.00,0.0058
3941.00,0.0058
3940.00,0.0058
3939.00,0.0058
3938.00,0.0058
3937.00,0.0058
3936.00,0.0058
3935.00,0.0059
3934.00,0.0059
3933.00,0.0059
3932.00,0.0059
3931.00,0.0059
3930.00,0.0059
3929.00,0.0059
3928.00,0.0058
3927.00,0.0058
3926.00,0.0058
3925.00,0.0058
3924.00,0.0058
3923.00,0.0058
3922.00,0.0058
3921.00,0.0059
3920.00,0.0059
3919.00,0.0059
3918.00,0.0059
3917.00,0.0059
3916.00,0.0059
3915.00,0.0058
3914.00,0.0058
3913.00,0.0058
3912.00,0.0058
3911.00,0.0058
3910.00,0.0058
3909.00,0.0058
3908.00,0.0058
3907.00,0.0058
3906.00,0.0058
3905.00,0.0059
3904.00,0.0060
3903.00,0.0060
3902.00,0.0061
3901.00,0.0061
3900.00,0.0060
3899.00,0.0060
3898.00,0.0059
3897.00,0.0059
3896.00,0.0059
3895.00,0.0059
3894.00,0.0058
3893.00,0.0058
3892.00,0.0058
3891.00,0.0058
3890.00,0.0058
3889.00,0.0058
3888.00,0.0059
3887.00,0.0059
3886.00,0.0060
3885.00,0.0059
3884.00,0.0059
3883.00,0.0059
3882.00,0.0059
3881.00,0.0059
3880.00,0.0059
3879.00,0.0059
3878.00,0.0059
3877.00,0.0059
3876.00,0.0059
3875.00,0.0059
3874.00,0.0059
3873.00,0.0059
3872.00,0.0059
3871.00,0.0060
3870.00,0.0060
3869.00,0.0060
3868.00,0.0059
3867.00,0.0059
3866.00,0.0060
3865.00,0.0059
3864.00,0.0059
3863.00,0.0059
3862.00,0.0059
3861.00,0.0059
3860.00,0.0059
3859.00,0.0058
3858.00,0.0058
3857.00,0.0057
3856.00,0.0056
3855.00,0.0056
3854.00,0.0057
3853.00,0.0057
3852.00,0.0058
3851.00,0.0058
3850.00,0.0059
3849.00,0.0059
3848.00,0.0059
3847.00,0.0059
3846.00,0.0058
3845.00,0.0059
3844.00,0.0059
3843.00,0.0059
3842.00,0.0059
3841.00,0.0059
3840.00,0.0059
3839.00,0.0059
3838.00,0.0059
3837.00,0.0059
3836.00,0.0059
3835.00,0.0059
3834.00,0.0059
3833.00,0.0059
3832.00,0.0058
3831.00,0.0058
3830.00,0.0058
3829.00,0.0058
3828.00,0.0058
3827.00,0.0058
3826.00,0.0058
3825.00,0.0058
3824.00,0.0058
3823.00,0.0059
3822.00,0.0059
3821.00,0.0059
3820.00,0.0058
3819.00,0.0058
3818.00,0.0058
3817.00,0.0058
3816.00,0.0058
3815.00,0.0057
3814.00,0.0057
3813.00,0.0057
3812.00,0.0057
3811.00,0.0057
3810.00,0.0057
3809.00,0.0057
3808.00,0.0057
3807.00,0.0057
3806.00,0.0057
3805.00,0.0057
3804.00,0.0058
3803.00,0.0058
3802.00,0.0058
3801.00,0.0058
3800.00,0.0057
3799.00,0.0057
3798.00,0.0058
3797.00,0.0057
3796.00,0.0057
3795.00,0.0056
3794.00,0.0056
3793.00,0.0056
3792.00,0.0056
3791.00,0.0055
3790.00,0.0055
3789.00,0.0055
3788.00,0.0055
3787.00,0.0055
3786.00,0.0056
3785.00,0.0056
3784.00,0.0056
3783.00,0.0056
3782.00,0.0056
3781.00,0.0056
3780.00,0.0056
3779.00,0.0055
3778.00,0.0055
3777.00,0.0055
3776.00,0.0055
3775.00,0.0055
3774.00,0.0055
3773.00,0.0055
3772.00,0.0055
3771.00,0.0056
3770.00,0.0056
3769.00,0.0056
3768.00,0.0056
3767.00,0.0056
3766.00,0.0056
3765.00,0.0056
3764.00,0.0056
3763.00,0.0056
3762.00,0.0056
3761.00,0.0056
3760.00,0.0056
3759.00,0.0056
3758.00,0.0056
3757.00,0.0056
3756.00,0.0056
3755.00,0.0057
3754.00,0.0057
3753.00,0.0057
3752.00,0.0057
3751.00,0.0057
3750.00,0.0058
3749.00,0.0058
3748.00,0.0058
3747.00,0.0058
3746.00,0.0058
3745.00,0.0058
3744.00,0.0058
3743.00,0.0058
3742.00,0.0058
3741.00,0.0058
3740.00,0.0059
3739.00,0.0059
3738.00,0.0059
3737.00,0.0059
3736.00,0.0059
3735.00,0.0058
3734.00,0.0058
3733.00,0.0058
3732.00,0.0058
3731.00,0.0057
3730.00,0.0057
3729.00,0.0057
3728.00,0.0057
3727.00,0.0057
3726.00,0.0057
3725.00,0.0056
3724.00,0.0056
3723.00,0.0056
3722.00,0.0056
3721.00,0.0056
3720.00,0.0056
3719.00,0.0056
3718.00,0.0056
3717.00,0.0055
3716.00,0.0055
3715.00,0.0055
3714.00,0.0056
3713.00,0.0056
3712.00,0.0056
3711.00,0.0056
3710.00,0.0056
3709.00,0.0056
3708.00,0.0056
3707.00,0.0055
3706.00,0.0055
3705.00,0.0055
3704.00,0.0055
3703.00,0.0055
3702.00,0.0055
3701.00,0.0055
3700.00,0.0055
3699.00,0.0055
3698.00,0.0055
3697.00,0.0055
3696.00,0.0055
3695.00,0.0056
3694.00,0.0056
3693.00,0.0057
3692.00,0.0057
3691.00,0.0057
3690.00,0.0058
3689.00,0.0059
3688.00,0.0059
3687.00,0.0060
3686.00,0.0061
3685.00,0.0062
3684.00,0.0063
3683.00,0.0064
3682.00,0.0065
3681.00,0.0066
3680.00,0.0068
3679.00,0.0069
3678.00,0.0071
3677.00,0.0073
3676.00,0.0076
3675.00,0.0077
3674.00,0.0078
3673.00,0.0079
3672.00,0.0081
3671.00,0.0081
3670.00,0.0082
3669.00,0.0082
3668.00,0.0082
3667.00,0.0083
3666.00,0.0083
3665.00,0.0083
3664.00,0.0084
3663.00,0.0084
3662.00,0.0085
3661.00,0.0086
3660.00,0.0086
3659.00,0.0087
3658.00,0.0087
3657.00,0.0088
3656.00,0.0088
3655.00,0.0088
3654.00,0.0088
3653.00,0.0088
3652.00,0.0089
3651.00,0.0089
3650.00,0.0090
3649.00,0.0090
3648.00,0.0089
3647.00,0.0089
3646.00,0.0087
3645.00,0.0086
3644.00,0.0085
3643.00,0.0084
3642.00,0.0083
3641.00,0.0082
3640.00,0.0082
3639.00,0.0082
3638.00,0.0082
3637.00,0.0082
3636.00,0.0081
3635.00,0.0079
3634.00,0.0077
3633.00,0.0075
3632.00,0.0074
3631.00,0.0074
3630.00,0.0074
3629.00,0.0073
3628.00,0.0073
3627.00,0.0073
3626.00,0.0073
3625.00,0.0073
3624.00,0.0073
3623.00,0.0073
3622.00,0.0073
3621.00,0.0072
3620.00,0.0072
3619.00,0.0073
3618.00,0.0073
3617.00,0.0073
3616.00,0.0074
3615.00,0.0074
3614.00,0.0074
3613.00,0.0074
3612.00,0.0074
3611.00,0.0074
3610.00,0.0074
3609.00,0.0074
3608.00,0.0074
3607.00,0.0074
3606.00,0.0074
3605.00,0.0074
3604.00,0.0074
3603.00,0.0074
3602.00,0.0075
3601.00,0.0075
3600.00,0.0075
3599.00,0.0076
3598.00,0.0076
3597.00,0.0077
3596.00,0.0077
3595.00,0.0077
3594.00,0.0077
3593.00,0.0077
3592.00,0.0078
3591.00,0.0079
3590.00,0.0079
3589.00,0.0080
3588.00,0.0080
3587.00,0.0080
3586.00,0.0080
3585.00,0.0081
3584.00,0.0081
3583.00,0.0081
3582.00,0.0081
3581.00,0.0081
3580.00,0.0081
3579.00,0.0082
3578.00,0.0082
3577.00,0.0082
3576.00,0.0083
3575.00,0.0083
3574.00,0.0084
3573.00,0.0084
3572.00,0.0085
3571.00,0.0086
3570.00,0.0087
3569.00,0.0088
3568.00,0.0088
3567.00,0.0089
3566.00,0.0089
3565.00,0.0090
3564.00,0.0090
3563.00,0.0090
3562.00,0.0090
3561.00,0.0090
3560.00,0.0091
3559.00,0.0091
3558.00,0.0091
3557.00,0.0092
3556.00,0.0092
3555.00,0.0092
3554.00,0.0093
3553.00,0.0093
3552.00,0.0093
3551.00,0.0094
3550.00,0.0095
3549.00,0.0096
3548.00,0.0096
3547.00,0.0097
3546.00,0.0097
3545.00,0.0098
3544.00,0.0098
3543.00,0.0098
3542.00,0.0099
3541.00,0.0099
3540.00,0.0099
3539.00,0.0099
3538.00,0.0099
3537.00,0.0100
3536.00,0.0100
3535.00,0.0101
3534.00,0.0101
3533.00,0.0101
3532.00,0.0102
3531.00,0.0102
3530.00,0.0103
3529.00,0.0103
3528.00,0.0104
3527.00,0.0105
3526.00,0.0105
3525.00,0.0106
3524.00,0.0106
3523.00,0.0106
3522.00,0.0106
3521.00,0.0106
3520.00,0.0106
3519.00,0.0107
3518.00,0.0107
3517.00,0.0107
3516.00,0.0108
3515.00,0.0108
3514.00,0.0109
3513.00,0.0109
3512.00,0.0110
3511.00,0.0110
3510.00,0.0110
3509.00,0.0111
3508.00,0.0111
3507.00,0.0112
3506.00,0.0113
3505.00,0.0113
3504.00,0.0113
3503.00,0.0114
3502.00,0.0114
3501.00,0.0115
3500.00,0.0115
3499.00,0.0115
3498.00,0.0116
3497.00,0.0116
3496.00,0.0116
3495.00,0.0117
3494.00,0.0117
3493.00,0.0117
3492.00,0.0118
3491.00,0.0118
3490.00,0.0118
3489.00,0.0119
3488.00,0.0119
3487.00,0.0120
3486.00,0.0120
3485.00,0.0121
3484.00,0.0121
3483.00,0.0121
3482.00,0.0122
3481.00,0.0122
3480.00,0.0123
3479.00,0.0123
3478.00,0.0123
3477.00,0.0124
3476.00,0.0124
3475.00,0.0124
3474.00,0.0125
3473.00,0.0125
3472.00,0.0125
3471.00,0.0126
3470.00,0.0126
3469.00,0.0127
3468.00,0.0127
3467.00,0.0127
3466.00,0.0128
3465.00,0.0128
3464.00,0.0128
3463.00,0.0129
3462.00,0.0129
3461.00,0.0129
3460.00,0.0130
3459.00,0.0130
3458.00,0.0130
3457.00,0.0130
3456.00,0.0131
3455.00,0.0131
3454.00,0.0131
3453.00,0.0132
3452.00,0.0132
3451.00,0.0133
3450.00,0.0133
3449.00,0.0134
3448.00,0.0134
3447.00,0.0134
3446.00,0.0134
3445.00,0.0135
3444.00,0.0135
3443.00,0.0136
3442.00,0.0136
3441.00,0.0137
3440.00,0.0137
3439.00,0.0138
3438.00,0.0138
3437.00,0.0139
3436.00,0.0139
3435.00,0.0139
3434.00,0.0140
3433.00,0.0140
3432.00,0.0141
3431.00,0.0141
3430.00,0.0142
3429.00,0.0142
3428.00,0.0143
3427.00,0.0143
3426.00,0.0143
3425.00,0.0144
3424.00,0.0145
3423.00,0.0145
3422.00,0.0146
3421.00,0.0146
3420.00,0.0147
3419.00,0.0148
3418.00,0.0148
3417.00,0.0149
3416.00,0.0149
3415.00,0.0150
3414.00,0.0151
3413.00,0.0151
3412.00,0.0152
3411.00,0.0152
3410.00,0.0153
3409.00,0.0153
3408.00,0.0154
3407.00,0.0155
3406.00,0.0155
3405.00,0.0156
3404.00,0.0157
3403.00,0.0157
3402.00,0.0158
3401.00,0.0158
3400.00,0.0159
3399.00,0.0159
3398.00,0.0160
3397.00,0.0161
3396.00,0.0161
3395.00,0.0162
3394.00,0.0162
3393.00,0.0163
3392.00,0.0163
3391.00,0.0164
3390.00,0.0165
3389.00,0.0165
3388.00,0.0166
3387.00,0.0167
3386.00,0.0168
3385.00,0.0168
3384.00,0.0169
3383.00,0.0169
3382.00,0.0170
3381.00,0.0171
3380.00,0.0172
3379.00,0.0172
3378.00,0.0173
3377.00,0.0174
3376.00,0.0175
3375.00,0.0175
3374.00,0.0176
3373.00,0.0177
3372.00,0.0178
3371.00,0.0178
3370.00,0.0179
3369.00,0.0180
3368.00,0.0181
3367.00,0.0182
3366.00,0.0184
3365.00,0.0185
3364.00,0.0186
3363.00,0.0188
3362.00,0.0189
3361.00,0.0190
3360.00,0.0191
3359.00,0.0192
3358.00,0.0193
3357.00,0.0195
3356.00,0.0196
3355.00,0.0197
3354.00,0.0198
3353.00,0.0199
3352.00,0.0201
3351.00,0.0202
3350.00,0.0204
3349.00,0.0206
3348.00,0.0207
3347.00,0.0209
3346.00,0.0211
3345.00,0.0212
3344.00,0.0214
3343.00,0.0215
3342.00,0.0217
3341.00,0.0219
3340.00,0.0220
3339.00,0.0222
3338.00,0.0224
3337.00,0.0226
3336.00,0.0228
3335.00,0.0231
3334.00,0.0233
3333.00,0.0235
3332.00,0.0237
3331.00,0.0239
3330.00,0.0241
3329.00,0.0244
3328.00,0.0246
3327.00,0.0248
3326.00,0.0250
3325.00,0.0253
3324.00,0.0255
3323.00,0.0258
3322.00,0.0260
3321.00,0.0263
3320.00,0.0266
3319.00,0.0268
3318.00,0.0271
3317.00,0.0274
3316.00,0.0276
3315.00,0.0279
3314.00,0.0282
3313.00,0.0284
3312.00,0.0286
3311.00,0.0289
3310.00,0.0291
3309.00,0.0293
3308.00,0.0296
3307.00,0.0298
3306.00,0.0301
3305.00,0.0304
3304.00,0.0307
3303.00,0.0310
3302.00,0.0313
3301.00,0.0316
3300.00,0.0318
3299.00,0.0320
3298.00,0.0322
3297.00,0.0323
3296.00,0.0325
3295.00,0.0327
3294.00,0.0328
3293.00,0.0330
3292.00,0.0332
3291.00,0.0333
3290.00,0.0335
3289.00,0.0336
3288.00,0.0336
3287.00,0.0337
3286.00,0.0337
3285.00,0.0337
3284.00,0.0337
3283.00,0.0337
3282.00,0.0336
3281.00,0.0336
3280.00,0.0335
3279.00,0.0334
3278.00,0.0332
3277.00,0.0330
3276.00,0.0329
3275.00,0.0327
3274.00,0.0324
3273.00,0.0322
3272.00,0.0320
3271.00,0.0317
3270.00,0.0315
3269.00,0.0314
3268.00,0.0312
3267.00,0.0310
3266.00,0.0307
3265.00,0.0305
3264.00,0.0302
3263.00,0.0300
3262.00,0.0297
3261.00,0.0294
3260.00,0.0292
3259.00,0.0289
3258.00,0.0287
3257.00,0.0284
3256.00,0.0282
3255.00,0.0279
3254.00,0.0278
3253.00,0.0276
3252.00,0.0274
3251.00,0.0272
3250.00,0.0269
3249.00,0.0267
3248.00,0.0265
3247.00,0.0263
3246.00,0.0261
3245.00,0.0260
3244.00,0.0258
3243.00,0.0256
3242.00,0.0255
3241.00,0.0253
3240.00,0.0252
3239.00,0.0250
3238.00,0.0248
3237.00,0.0246
3236.00,0.0244
3235.00,0.0243
3234.00,0.0241
3233.00,0.0240
3232.00,0.0239
3231.00,0.0238
3230.00,0.0236
3229.00,0.0235
3228.00,0.0234
3227.00,0.0233
3226.00,0.0232
3225.00,0.0231
3224.00,0.0229
3223.00,0.0228
3222.00,0.0227
3221.00,0.0225
3220.00,0.0224
3219.00,0.0223
3218.00,0.0222
3217.00,0.0221
3216.00,0.0220
3215.00,0.0219
3214.00,0.0218
3213.00,0.0216
3212.00,0.0215
3211.00,0.0214
3210.00,0.0213
3209.00,0.0212
3208.00,0.0211
3207.00,0.0210
3206.00,0.0209
3205.00,0.0208
3204.00,0.0207
3203.00,0.0206
3202.00,0.0205
3201.00,0.0204
3200.00,0.0203
3199.00,0.0202
3198.00,0.0201
3197.00,0.0199
3196.00,0.0198
3195.00,0.0197
3194.00,0.0196
3193.00,0.0195
3192.00,0.0194
3191.00,0.0193
3190.00,0.0192
3189.00,0.0190
3188.00,0.0189
3187.00,0.0188
3186.00,0.0187
3185.00,0.0186
3184.00,0.0185
3183.00,0.0184
3182.00,0.0183
3181.00,0.0181
3180.00,0.0180
3179.00,0.0179
3178.00,0.0178
3177.00,0.0177
3176.00,0.0176
3175.00,0.0175
3174.00,0.0174
3173.00,0.0173
3172.00,0.0172
3171.00,0.0170
3170.00,0.0169
3169.00,0.0168
3168.00,0.0167
3167.00,0.0166
3166.00,0.0165
3165.00,0.0164
3164.00,0.0163
3163.00,0.0162
3162.00,0.0161
3161.00,0.0160
3160.00,0.0159
3159.00,0.0158
3158.00,0.0157
3157.00,0.0157
3156.00,0.0156
3155.00,0.0155
3154.00,0.0154
3153.00,0.0153
3152.00,0.0152
3151.00,0.0152
3150.00,0.0151
3149.00,0.0151
3148.00,0.0150
3147.00,0.0150
3146.00,0.0149
3145.00,0.0148
3144.00,0.0147
3143.00,0.0147
3142.00,0.0146
3141.00,0.0145
3140.00,0.0145
3139.00,0.0144
3138.00,0.0144
3137.00,0.0144
3136.00,0.0144
3135.00,0.0143
3134.00,0.0143
3133.00,0.0143
3132.00,0.0142
3131.00,0.0142
3130.00,0.0141
3129.00,0.0141
3128.00,0.0141
3127.00,0.0141
3126.00,0.0141
3125.00,0.0140
3124.00,0.0140
3123.00,0.0140
3122.00,0.0139
3121.00,0.0139
3120.00,0.0138
3119.00,0.0138
3118.00,0.0138
3117.00,0.0138
3116.00,0.0139
3115.00,0.0139
3114.00,0.0139
3113.00,0.0140
3112.00,0.0140
3111.00,0.0140
3110.00,0.0140
3109.00,0.0140
3108.00,0.0140
3107.00,0.0141
3106.00,0.0141
3105.00,0.0141
3104.00,0.0141
3103.00,0.0142
3102.00,0.0142
3101.00,0.0142
3100.00,0.0142
3099.00,0.0143
3098.00,0.0143
3097.00,0.0144
3096.00,0.0144
3095.00,0.0144
3094.00,0.0144
3093.00,0.0144
3092.00,0.0145
3091.00,0.0145
3090.00,0.0145
3089.00,0.0145
3088.00,0.0146
3087.00,0.0146
3086.00,0.0146
3085.00,0.0146
3084.00,0.0146
3083.00,0.0147
3082.00,0.0147
3081.00,0.0147
3080.00,0.0147
3079.00,0.0147
3078.00,0.0148
3077.00,0.0148
3076.00,0.0149
3075.00,0.0149
3074.00,0.0149
3073.00,0.0149
3072.00,0.0149
3071.00,0.0149
3070.00,0.0149
3069.00,0.0148
3068.00,0.0148
3067.00,0.0148
3066.00,0.0148
3065.00,0.0148
3064.00,0.0148
3063.00,0.0148
3062.00,0.0148
3061.00,0.0147
3060.00,0.0147
3059.00,0.0146
3058.00,0.0146
3057.00,0.0145
3056.00,0.0145
3055.00,0.0144
3054.00,0.0143
3053.00,0.0143
3052.00,0.0142
3051.00,0.0141
3050.00,0.0141
3049.00,0.0140
3048.00,0.0140
3047.00,0.0139
3046.00,0.0138
3045.00,0.0136
3044.00,0.0136
3043.00,0.0135
3042.00,0.0135
3041.00,0.0134
3040.00,0.0134
3039.00,0.0134
3038.00,0.0133
3037.00,0.0133
3036.00,0.0132
3035.00,0.0131
3034.00,0.0130
3033.00,0.0130
3032.00,0.0130
3031.00,0.0130
3030.00,0.0130
3029.00,0.0130
3028.00,0.0130
3027.00,0.0129
3026.00,0.0129
3025.00,0.0129
3024.00,0.0129
3023.00,0.0129
3022.00,0.0129
3021.00,0.0130
3020.00,0.0130
3019.00,0.0131
3018.00,0.0132
3017.00,0.0134
3016.00,0.0135
3015.00,0.0138
3014.00,0.0141
3013.00,0.0144
3012.00,0.0149
3011.00,0.0154
3010.00,0.0160
3009.00,0.0167
3008.00,0.0174
3007.00,0.0181
3006.00,0.0189
3005.00,0.0197
3004.00,0.0206
3003.00,0.0214
3002.00,0.0223
3001.00,0.0231
3000.00,0.0239
2999.00,0.0246
2998.00,0.0252
2997.00,0.0259
2996.00,0.0264
2995.00,0.0269
2994.00,0.0274
2993.00,0.0279
2992.00,0.0284
2991.00,0.0289
2990.00,0.0294
2989.00,0.0299
2988.00,0.0305
2987.00,0.0314
2986.00,0.0327
2985.00,0.0347
2984.00,0.0372
2983.00,0.0398
2982.00,0.0416
2981.00,0.0423
2980.00,0.0419
2979.00,0.0408
2978.00,0.0394
2977.00,0.0383
2976.00,0.0374
2975.00,0.0371
2974.00,0.0372
2973.00,0.0375
2972.00,0.0378
2971.00,0.0377
2970.00,0.0370
2969.00,0.0360
2968.00,0.0350
2967.00,0.0342
2966.00,0.0335
2965.00,0.0328
2964.00,0.0322
2963.00,0.0317
2962.00,0.0312
2961.00,0.0307
2960.00,0.0303
2959.00,0.0299
2958.00,0.0295
2957.00,0.0291
2956.00,0.0286
2955.00,0.0282
2954.00,0.0277
2953.00,0.0273
2952.00,0.0268
2951.00,0.0264
2950.00,0.0260
2949.00,0.0257
2948.00,0.0253
2947.00,0.0250
2946.00,0.0247
2945.00,0.0245
2944.00,0.0242
2943.00,0.0241
2942.00,0.0241
2941.00,0.0242
2940.00,0.0244
2939.00,0.0245
2938.00,0.0247
2937.00,0.0249
2936.00,0.0251
2935.00,0.0253
2934.00,0.0256
2933.00,0.0259
2932.00,0.0261
2931.00,0.0263
2930.00,0.0265
2929.00,0.0266
2928.00,0.0267
2927.00,0.0267
2926.00,0.0267
2925.00,0.0268
2924.00,0.0268
2923.00,0.0268
2922.00,0.0269
2921.00,0.0269
2920.00,0.0269
2919.00,0.0268
2918.00,0.0267
2917.00,0.0265
2916.00,0.0262
2915.00,0.0259
2914.00,0.0255
2913.00,0.0251
2912.00,0.0248
2911.00,0.0245
2910.00,0.0242
2909.00,0.0240
2908.00,0.0238
2907.00,0.0237
2906.00,0.0235
2905.00,0.0234
2904.00,0.0232
2903.00,0.0231
2902.00,0.0230
2901.00,0.0229
2900.00,0.0228
2899.00,0.0227
2898.00,0.0226
2897.00,0.0225
2896.00,0.0225
2895.00,0.0225
2894.00,0.0226
2893.00,0.0227
2892.00,0.0228
2891.00,0.0228
2890.00,0.0228
2889.00,0.0228
2888.00,0.0226
2887.00,0.0225
2886.00,0.0224
2885.00,0.0223
2884.00,0.0222
2883.00,0.0220
2882.00,0.0216
2881.00,0.0211
2880.00,0.0207
2879.00,0.0203
2878.00,0.0199
2877.00,0.0196
2876.00,0.0194
2875.00,0.0192
2874.00,0.0190
2873.00,0.0189
2872.00,0.0187
2871.00,0.0186
2870.00,0.0184
2869.00,0.0182
2868.00,0.0180
2867.00,0.0178
2866.00,0.0176
2865.00,0.0174
2864.00,0.0172
2863.00,0.0171
2862.00,0.0170
2861.00,0.0169
2860.00,0.0169
2859.00,0.0169
2858.00,0.0169
2857.00,0.0170
2856.00,0.0171
2855.00,0.0173
2854.00,0.0174
2853.00,0.0175
2852.00,0.0175
2851.00,0.0175
2850.00,0.0172
2849.00,0.0169
2848.00,0.0164
2847.00,0.0159
2846.00,0.0153
2845.00,0.0148
2844.00,0.0143
2843.00,0.0138
2842.00,0.0134
2841.00,0.0131
2840.00,0.0128
2839.00,0.0125
2838.00,0.0123
2837.00,0.0121
2836.00,0.0120
2835.00,0.0118
2834.00,0.0117
2833.00,0.0116
2832.00,0.0115
2831.00,0.0114
2830.00,0.0113
2829.00,0.0112
2828.00,0.0111
2827.00,0.0110
2826.00,0.0109
2825.00,0.0109
2824.00,0.0108
2823.00,0.0107
2822.00,0.0107
2821.00,0.0106
2820.00,0.0105
2819.00,0.0105
2818.00,0.0104
2817.00,0.0104
2816.00,0.0103
2815.00,0.0103
2814.00,0.0102
2813.00,0.0102
2812.00,0.0101
2811.00,0.0101
2810.00,0.0100
2809.00,0.0100
2808.00,0.0099
2807.00,0.0099
2806.00,0.0099
2805.00,0.0098
2804.00,0.0098
2803.00,0.0098
2802.00,0.0098
2801.00,0.0097
2800.00,0.0097
2799.00,0.0097
2798.00,0.0096
2797.00,0.0096
2796.00,0.0096
2795.00,0.0095
2794.00,0.0095
2793.00,0.0095
2792.00,0.0094
2791.00,0.0094
2790.00,0.0094
2789.00,0.0093
2788.00,0.0093
2787.00,0.0093
2786.00,0.0093
2785.00,0.0093
2784.00,0.0092
2783.00,0.0092
2782.00,0.0092
2781.00,0.0091
2780.00,0.0091
2779.00,0.0091
2778.00,0.0090
2777.00,0.0090
2776.00,0.0089
2775.00,0.0089
2774.00,0.0089
2773.00,0.0089
2772.00,0.0089
2771.00,0.0089
2770.00,0.0088
2769.00,0.0088
2768.00,0.0088
2767.00,0.0088
2766.00,0.0088
2765.00,0.0087
2764.00,0.0087
2763.00,0.0087
2762.00,0.0087
2761.00,0.0086
2760.00,0.0086
2759.00,0.0086
2758.00,0.0085
2757.00,0.0085
2756.00,0.0085
2755.00,0.0085
2754.00,0.0085
2753.00,0.0084
2752.00,0.0084
2751.00,0.0084
2750.00,0.0084
2749.00,0.0083
2748.00,0.0083
2747.00,0.0083
2746.00,0.0083
2745.00,0.0083
2744.00,0.0083
2743.00,0.0082
2742.00,0.0082
2741.00,0.0082
2740.00,0.0082
2739.00,0.0082
2738.00,0.0082
2737.00,0.0082
2736.00,0.0081
2735.00,0.0081
2734.00,0.0081
2733.00,0.0081
2732.00,0.0080
2731.00,0.0080
2730.00,0.0080
2729.00,0.0079
2728.00,0.0079
2727.00,0.0079
2726.00,0.0079
2725.00,0.0079
2724.00,0.0078
2723.00,0.0078
2722.00,0.0078
2721.00,0.0078
2720.00,0.0078
2719.00,0.0078
2718.00,0.0077
2717.00,0.0077
2716.00,0.0077
2715.00,0.0077
2714.00,0.0076
2713.00,0.0076
2712.00,0.0076
2711.00,0.0076
2710.00,0.0076
2709.00,0.0076
2708.00,0.0075
2707.00,0.0075
2706.00,0.0075
2705.00,0.0075
2704.00,0.0075
2703.00,0.0075
2702.00,0.0075
2701.00,0.0074
2700.00,0.0074
2699.00,0.0074
2698.00,0.0074
2697.00,0.0074
2696.00,0.0074
2695.00,0.0074
2694.00,0.0074
2693.00,0.0074
2692.00,0.0074
2691.00,0.0074
2690.00,0.0074
2689.00,0.0074
2688.00,0.0074
2687.00,0.0074
2686.00,0.0074
2685.00,0.0074
2684.00,0.0074
2683.00,0.0074
2682.00,0.0074
2681.00,0.0074
2680.00,0.0074
2679.00,0.0074
2678.00,0.0073
2677.00,0.0073
2676.00,0.0073
2675.00,0.0073
2674.00,0.0073
2673.00,0.0074
2672.00,0.0074
2671.00,0.0074
2670.00,0.0074
2669.00,0.0074
2668.00,0.0074
2667.00,0.0074
2666.00,0.0074
2665.00,0.0074
2664.00,0.0074
2663.00,0.0074
2662.00,0.0073
2661.00,0.0073
2660.00,0.0073
2659.00,0.0073
2658.00,0.0073
2657.00,0.0073
2656.00,0.0073
2655.00,0.0073
2654.00,0.0073
2653.00,0.0073
2652.00,0.0073
2651.00,0.0073
2650.00,0.0072
2649.00,0.0073
2648.00,0.0073
2647.00,0.0073
2646.00,0.0072
2645.00,0.0072
2644.00,0.0072
2643.00,0.0072
2642.00,0.0072
2641.00,0.0073
2640.00,0.0073
2639.00,0.0072
2638.00,0.0072
2637.00,0.0072
2636.00,0.0072
2635.00,0.0071
2634.00,0.0071
2633.00,0.0071
2632.00,0.0071
2631.00,0.0071
2630.00,0.0071
2629.00,0.0071
2628.00,0.0071
2627.00,0.0071
2626.00,0.0071
2625.00,0.0071
2624.00,0.0070
2623.00,0.0070
2622.00,0.0070
2621.00,0.0070
2620.00,0.0070
2619.00,0.0070
2618.00,0.0070
2617.00,0.0069
2616.00,0.0069
2615.00,0.0069
2614.00,0.0069
2613.00,0.0069
2612.00,0.0069
2611.00,0.0069
2610.00,0.0069
2609.00,0.0069
2608.00,0.0069
2607.00,0.0069
2606.00,0.0069
2605.00,0.0069
2604.00,0.0068
2603.00,0.0068
2602.00,0.0068
2601.00,0.0067
2600.00,0.0067
2599.00,0.0067
2598.00,0.0067
2597.00,0.0067
2596.00,0.0067
2595.00,0.0067
2594.00,0.0067
2593.00,0.0067
2592.00,0.0066
2591.00,0.0066
2590.00,0.0066
2589.00,0.0066
2588.00,0.0066
2587.00,0.0066
2586.00,0.0066
2585.00,0.0066
2584.00,0.0066
2583.00,0.0066
2582.00,0.0066
2581.00,0.0065
2580.00,0.0065
2579.00,0.0065
2578.00,0.0065
2577.00,0.0065
2576.00,0.0065
2575.00,0.0065
2574.00,0.0064
2573.00,0.0064
2572.00,0.0064
2571.00,0.0064
2570.00,0.0064
2569.00,0.0064
2568.00,0.0064
2567.00,0.0064
2566.00,0.0064
2565.00,0.0064
2564.00,0.0064
2563.00,0.0064
2562.00,0.0063
2561.00,0.0063
2560.00,0.0063
2559.00,0.0063
2558.00,0.0063
2557.00,0.0063
2556.00,0.0063
2555.00,0.0063
2554.00,0.0063
2553.00,0.0063
2552.00,0.0063
2551.00,0.0063
2550.00,0.0063
2549.00,0.0062
2548.00,0.0062
2547.00,0.0062
2546.00,0.0062
2545.00,0.0062
2544.00,0.0062
2543.00,0.0062
2542.00,0.0062
2541.00,0.0062
2540.00,0.0062
2539.00,0.0062
2538.00,0.0062
2537.00,0.0062
2536.00,0.0062
2535.00,0.0062
2534.00,0.0062
2533.00,0.0062
2532.00,0.0062
2531.00,0.0062
2530.00,0.0061
2529.00,0.0062
2528.00,0.0062
2527.00,0.0062
2526.00,0.0062
2525.00,0.0062
2524.00,0.0062
2523.00,0.0062
2522.00,0.0062
2521.00,0.0061
2520.00,0.0061
2519.00,0.0061
2518.00,0.0061
2517.00,0.0061
2516.00,0.0061
2515.00,0.0061
2514.00,0.0061
2513.00,0.0061
2512.00,0.0061
2511.00,0.0061
2510.00,0.0061
2509.00,0.0061
2508.00,0.0061
2507.00,0.0061
2506.00,0.0061
2505.00,0.0061
2504.00,0.0061
2503.00,0.0060
2502.00,0.0060
2501.00,0.0061
2500.00,0.0060
2499.00,0.0060
2498.00,0.0060
2497.00,0.0060
2496.00,0.0060
2495.00,0.0060
2494.00,0.0060
2493.00,0.0060
2492.00,0.0060
2491.00,0.0060
2490.00,0.0060
2489.00,0.0060
2488.00,0.0060
2487.00,0.0060
2486.00,0.0059
2485.00,0.0059
2484.00,0.0059
2483.00,0.0059
2482.00,0.0059
2481.00,0.0059
2480.00,0.0059
2479.00,0.0059
2478.00,0.0059
2477.00,0.0059
2476.00,0.0059
2475.00,0.0059
2474.00,0.0058
2473.00,0.0058
2472.00,0.0058
2471.00,0.0058
2470.00,0.0058
2469.00,0.0058
2468.00,0.0058
2467.00,0.0058
2466.00,0.0058
2465.00,0.0058
2464.00,0.0058
2463.00,0.0057
2462.00,0.0057
2461.00,0.0057
2460.00,0.0057
2459.00,0.0057
2458.00,0.0057
2457.00,0.0057
2456.00,0.0057
2455.00,0.0057
2454.00,0.0057
2453.00,0.0057
2452.00,0.0057
2451.00,0.0057
2450.00,0.0057
2449.00,0.0057
2448.00,0.0057
2447.00,0.0057
2446.00,0.0057
2445.00,0.0056
2444.00,0.0056
2443.00,0.0056
2442.00,0.0056
2441.00,0.0056
2440.00,0.0056
2439.00,0.0056
2438.00,0.0056
2437.00,0.0056
2436.00,0.0056
2435.00,0.0056
2434.00,0.0056
2433.00,0.0056
2432.00,0.0056
2431.00,0.0055
2430.00,0.0055
2429.00,0.0055
2428.00,0.0055
2427.00,0.0055
2426.00,0.0055
2425.00,0.0055
2424.00,0.0054
2423.00,0.0054
2422.00,0.0054
2421.00,0.0054
2420.00,0.0054
2419.00,0.0054
2418.00,0.0054
2417.00,0.0054
2416.00,0.0054
2415.00,0.0054
2414.00,0.0054
2413.00,0.0054
2412.00,0.0054
2411.00,0.0054
2410.00,0.0053
2409.00,0.0053
2408.00,0.0053
2407.00,0.0053
2406.00,0.0053
2405.00,0.0053
2404.00,0.0053
2403.00,0.0053
2402.00,0.0053
2401.00,0.0053
2400.00,0.0053
2399.00,0.0053
2398.00,0.0052
2397.00,0.0053
2396.00,0.0053
2395.00,0.0053
2394.00,0.0052
2393.00,0.0052
2392.00,0.0052
2391.00,0.0052
2390.00,0.0052
2389.00,0.0052
2388.00,0.0052
2387.00,0.0052
2386.00,0.0052
2385.00,0.0052
2384.00,0.0052
2383.00,0.0052
2382.00,0.0052
2381.00,0.0052
2380.00,0.0052
2379.00,0.0052
2378.00,0.0052
2377.00,0.0052
2376.00,0.0052
2375.00,0.0052
2374.00,0.0052
2373.00,0.0052
2372.00,0.0052
2371.00,0.0051
2370.00,0.0051
2369.00,0.0052
2368.00,0.0052
2367.00,0.0052
2366.00,0.0052
2365.00,0.0052
2364.00,0.0052
2363.00,0.0052
2362.00,0.0051
2361.00,0.0052
2360.00,0.0052
2359.00,0.0051
2358.00,0.0051
2357.00,0.0051
2356.00,0.0051
2355.00,0.0051
2354.00,0.0051
2353.00,0.0051
2352.00,0.0051
2351.00,0.0051
2350.00,0.0051
2349.00,0.0051
2348.00,0.0051
2347.00,0.0051
2346.00,0.0051
2345.00,0.0051
2344.00,0.0051
2343.00,0.0051
2342.00,0.0051
2341.00,0.0051
2340.00,0.0051
2339.00,0.0052
2338.00,0.0051
2337.00,0.0051
2336.00,0.0051
2335.00,0.0051
2334.00,0.0051
2333.00,0.0051
2332.00,0.0050
2331.00,0.0050
2330.00,0.0051
2329.00,0.0051
2328.00,0.0051
2327.00,0.0051
2326.00,0.0051
2325.00,0.0051
2324.00,0.0051
2323.00,0.0051
2322.00,0.0051
2321.00,0.0051
2320.00,0.0051
2319.00,0.0051
2318.00,0.0051
2317.00,0.0051
2316.00,0.0051
2315.00,0.0051
2314.00,0.0051
2313.00,0.0051
2312.00,0.0051
2311.00,0.0051
2310.00,0.0050
2309.00,0.0050
2308.00,0.0050
2307.00,0.0050
2306.00,0.0049
2305.00,0.0050
2304.00,0.0050
2303.00,0.0050
2302.00,0.0050
2301.00,0.0050
2300.00,0.0049
2299.00,0.0049
2298.00,0.0049
2297.00,0.0049
2296.00,0.0049
2295.00,0.0049
2294.00,0.0049
2293.00,0.0049
2292.00,0.0049
2291.00,0.0049
2290.00,0.0048
2289.00,0.0048
2288.00,0.0048
2287.00,0.0048
2286.00,0.0048
2285.00,0.0048
2284.00,0.0048
2283.00,0.0048
2282.00,0.0048
2281.00,0.0048
2280.00,0.0048
2279.00,0.0048
2278.00,0.0048
2277.00,0.0048
2276.00,0.0048
2275.00,0.0048
2274.00,0.0048
2273.00,0.0048
2272.00,0.0048
2271.00,0.0047
2270.00,0.0047
2269.00,0.0047
2268.00,0.0047
2267.00,0.0048
2266.00,0.0048
2265.00,0.0048
2264.00,0.0047
2263.00,0.0047
2262.00,0.0047
2261.00,0.0047
2260.00,0.0047
2259.00,0.0047
2258.00,0.0046
2257.00,0.0046
2256.00,0.0046
2255.00,0.0046
2254.00,0.0046
2253.00,0.0046
2252.00,0.0046
2251.00,0.0045
2250.00,0.0045
2249.00,0.0045
2248.00,0.0046
2247.00,0.0046
2246.00,0.0046
2245.00,0.0045
2244.00,0.0045
2243.00,0.0045
2242.00,0.0045
2241.00,0.0045
2240.00,0.0045
2239.00,0.0045
2238.00,0.0045
2237.00,0.0045
2236.00,0.0046
2235.00,0.0046
2234.00,0.0046
2233.00,0.0046
2232.00,0.0046
2231.00,0.0046
2230.00,0.0046
2229.00,0.0046
2228.00,0.0046
2227.00,0.0045
2226.00,0.0045
2225.00,0.0045
2224.00,0.0045
2223.00,0.0044
2222.00,0.0044
2221.00,0.0044
2220.00,0.0044
2219.00,0.0044
2218.00,0.0044
2217.00,0.0044
2216.00,0.0045
2215.00,0.0045
2214.00,0.0045
2213.00,0.0045
2212.00,0.0045
2211.00,0.0046
2210.00,0.0046
2209.00,0.0046
2208.00,0.0046
2207.00,0.0046
2206.00,0.0045
2205.00,0.0045
2204.00,0.0045
2203.00,0.0045
2202.00,0.0045
2201.00,0.0045
2200.00,0.0045
2199.00,0.0045
2198.00,0.0046
2197.00,0.0046
2196.00,0.0046
2195.00,0.0045
2194.00,0.0044
2193.00,0.0044
2192.00,0.0044
2191.00,0.0044
2190.00,0.0045
2189.00,0.0045
2188.00,0.0045
2187.00,0.0044
2186.00,0.0044
2185.00,0.0043
2184.00,0.0043
2183.00,0.0043
2182.00,0.0043
2181.00,0.0043
2180.00,0.0043
2179.00,0.0043
2178.00,0.0043
2177.00,0.0044
2176.00,0.0044
2175.00,0.0043
2174.00,0.0043
2173.00,0.0042
2172.00,0.0043
2171.00,0.0043
2170.00,0.0043
2169.00,0.0043
2168.00,0.0043
2167.00,0.0042
2166.00,0.0041
2165.00,0.0041
2164.00,0.0042
2163.00,0.0043
2162.00,0.0042
2161.00,0.0041
2160.00,0.0040
2159.00,0.0040
2158.00,0.0040
2157.00,0.0040
2156.00,0.0040
2155.00,0.0041
2154.00,0.0041
2153.00,0.0041
2152.00,0.0041
2151.00,0.0041
2150.00,0.0040
2149.00,0.0040
2148.00,0.0040
2147.00,0.0040
2146.00,0.0041
2145.00,0.0041
2144.00,0.0042
2143.00,0.0042
2142.00,0.0042
2141.00,0.0042
2140.00,0.0042
2139.00,0.0041
2138.00,0.0040
2137.00,0.0040
2136.00,0.0040
2135.00,0.0040
2134.00,0.0041
2133.00,0.0041
2132.00,0.0042
2131.00,0.0042
2130.00,0.0042
2129.00,0.0042
2128.00,0.0042
2127.00,0.0042
2126.00,0.0042
2125.00,0.0042
2124.00,0.0042
2123.00,0.0042
2122.00,0.0042
2121.00,0.0042
2120.00,0.0042
2119.00,0.0043
2118.00,0.0043
2117.00,0.0043
2116.00,0.0043
2115.00,0.0042
2114.00,0.0042
2113.00,0.0042
2112.00,0.0042
2111.00,0.0043
2110.00,0.0042
2109.00,0.0042
2108.00,0.0042
2107.00,0.0042
2106.00,0.0042
2105.00,0.0042
2104.00,0.0042
2103.00,0.0042
2102.00,0.0042
2101.00,0.0042
2100.00,0.0042
2099.00,0.0042
2098.00,0.0042
2097.00,0.0042
2096.00,0.0042
2095.00,0.0042
2094.00,0.0042
2093.00,0.0042
2092.00,0.0042
2091.00,0.0042
2090.00,0.0042
2089.00,0.0042
2088.00,0.0042
2087.00,0.0042
2086.00,0.0042
2085.00,0.0042
2084.00,0.0042
2083.00,0.0042
2082.00,0.0041
2081.00,0.0041
2080.00,0.0041
2079.00,0.0041
2078.00,0.0041
2077.00,0.0041
2076.00,0.0041
2075.00,0.0041
2074.00,0.0041
2073.00,0.0040
2072.00,0.0040
2071.00,0.0040
2070.00,0.0040
2069.00,0.0040
2068.00,0.0040
2067.00,0.0040
2066.00,0.0040
2065.00,0.0040
2064.00,0.0040
2063.00,0.0039
2062.00,0.0039
2061.00,0.0039
2060.00,0.0039
2059.00,0.0039
2058.00,0.0039
2057.00,0.0039
2056.00,0.0039
2055.00,0.0039
2054.00,0.0038
2053.00,0.0038
2052.00,0.0038
2051.00,0.0038
2050.00,0.0038
2049.00,0.0038
2048.00,0.0038
2047.00,0.0038
2046.00,0.0038
2045.00,0.0037
2044.00,0.0037
2043.00,0.0037
2042.00,0.0037
2041.00,0.0037
2040.00,0.0036
2039.00,0.0036
2038.00,0.0035
2037.00,0.0035
2036.00,0.0036
2035.00,0.0035
2034.00,0.0035
2033.00,0.0035
2032.00,0.0035
2031.00,0.0035
2030.00,0.0034
2029.00,0.0034
2028.00,0.0034
2027.00,0.0034
2026.00,0.0033
2025.00,0.0033
2024.00,0.0034
2023.00,0.0034
2022.00,0.0035
2021.00,0.0035
2020.00,0.0035
2019.00,0.0034
2018.00,0.0033
2017.00,0.0033
2016.00,0.0033
2015.00,0.0034
2014.00,0.0035
2013.00,0.0034
2012.00,0.0034
2011.00,0.0032
2010.00,0.0032
2009.00,0.0032
2008.00,0.0033
2007.00,0.0034
2006.00,0.0034
2005.00,0.0034
2004.00,0.0033
2003.00,0.0033
2002.00,0.0033
2001.00,0.0033
2000.00,0.0034
1999.00,0.0034
1998.00,0.0034
1997.00,0.0034
1996.00,0.0034
1995.00,0.0034
1994.00,0.0033
1993.00,0.0033
1992.00,0.0032
1991.00,0.0032
1990.00,0.0032
1989.00,0.0033
1988.00,0.0034
1987.00,0.0034
1986.00,0.0033
1985.00,0.0034
1984.00,0.0034
1983.00,0.0035
1982.00,0.0035
1981.00,0.0034
1980.00,0.0034
1979.00,0.0032
1978.00,0.0032
1977.00,0.0032
1976.00,0.0033
1975.00,0.0034
1974.00,0.0034
1973.00,0.0034
1972.00,0.0033
1971.00,0.0032
1970.00,0.0031
1969.00,0.0031
1968.00,0.0032
1967.00,0.0032
1966.00,0.0032
1965.00,0.0032
1964.00,0.0032
1963.00,0.0032
1962.00,0.0031
1961.00,0.0032
1960.00,0.0032
1959.00,0.0032
1958.00,0.0031
1957.00,0.0031
1956.00,0.0030
1955.00,0.0030
1954.00,0.0030
1953.00,0.0030
1952.00,0.0030
1951.00,0.0030
1950.00,0.0030
1949.00,0.0031
1948.00,0.0031
1947.00,0.0031
1946.00,0.0031
1945.00,0.0031
1944.00,0.0031
1943.00,0.0030
1942.00,0.0029
1941.00,0.0029
1940.00,0.0029
1939.00,0.0030
1938.00,0.0030
1937.00,0.0030
1936.00,0.0031
1935.00,0.0031
1934.00,0.0031
1933.00,0.0031
1932.00,0.0031
1931.00,0.0031
1930.00,0.0030
1929.00,0.0030
1928.00,0.0031
1927.00,0.0031
1926.00,0.0030
1925.00,0.0030
1924.00,0.0030
1923.00,0.0030
1922.00,0.0029
1921.00,0.0029
1920.00,0.0029
1919.00,0.0030
1918.00,0.0030
1917.00,0.0030
1916.00,0.0030
1915.00,0.0030
1914.00,0.0030
1913.00,0.0030
1912.00,0.0030
1911.00,0.0030
1910.00,0.0030
1909.00,0.0030
1908.00,0.0030
1907.00,0.0030
1906.00,0.0030
1905.00,0.0030
1904.00,0.0030
1903.00,0.0029
1902.00,0.0029
1901.00,0.0029
1900.00,0.0029
1899.00,0.0029
1898.00,0.0029
1897.00,0.0029
1896.00,0.0029
1895.00,0.0029
1894.00,0.0029
1893.00,0.0029
1892.00,0.0029
1891.00,0.0029
1890.00,0.0029
1889.00,0.0029
1888.00,0.0029
1887.00,0.0029
1886.00,0.0029
1885.00,0.0029
1884.00,0.0029
1883.00,0.0029
1882.00,0.0029
1881.00,0.0029
1880.00,0.0029
1879.00,0.0028
1878.00,0.0028
1877.00,0.0028
1876.00,0.0028
1875.00,0.0028
1874.00,0.0028
1873.00,0.0028
1872.00,0.0028
1871.00,0.0027
1870.00,0.0027
1869.00,0.0027
1868.00,0.0027
1867.00,0.0027
1866.00,0.0027
1865.00,0.0027
1864.00,0.0027
1863.00,0.0027
1862.00,0.0027
1861.00,0.0027
1860.00,0.0027
1859.00,0.0027
1858.00,0.0026
1857.00,0.0026
1856.00,0.0026
1855.00,0.0026
1854.00,0.0026
1853.00,0.0026
1852.00,0.0026
1851.00,0.0027
1850.00,0.0027
1849.00,0.0026
1848.00,0.0026
1847.00,0.0026
1846.00,0.0025
1845.00,0.0026
1844.00,0.0026
1843.00,0.0026
1842.00,0.0026
1841.00,0.0026
1840.00,0.0026
1839.00,0.0026
1838.00,0.0026
1837.00,0.0026
1836.00,0.0026
1835.00,0.0026
1834.00,0.0025
1833.00,0.0025
1832.00,0.0025
1831.00,0.0025
1830.00,0.0025
1829.00,0.0025
1828.00,0.0025
1827.00,0.0024
1826.00,0.0024
1825.00,0.0024
1824.00,0.0024
1823.00,0.0024
1822.00,0.0024
1821.00,0.0024
1820.00,0.0024
1819.00,0.0024
1818.00,0.0024
1817.00,0.0024
1816.00,0.0024
1815.00,0.0024
1814.00,0.0024
1813.00,0.0024
1812.00,0.0024
1811.00,0.0024
1810.00,0.0024
1809.00,0.0024
1808.00,0.0024
1807.00,0.0024
1806.00,0.0023
1805.00,0.0023
1804.00,0.0023
1803.00,0.0022
1802.00,0.0022
1801.00,0.0022
1800.00,0.0023
1799.00,0.0023
1798.00,0.0023
1797.00,0.0023
1796.00,0.0023
1795.00,0.0023
1794.00,0.0023
1793.00,0.0024
1792.00,0.0024
1791.00,0.0023
1790.00,0.0023
1789.00,0.0024
1788.00,0.0024
1787.00,0.0024
1786.00,0.0024
1785.00,0.0024
1784.00,0.0024
1783.00,0.0024
1782.00,0.0024
1781.00,0.0025
1780.00,0.0025
1779.00,0.0025
1778.00,0.0025
1777.00,0.0025
1776.00,0.0025
1775.00,0.0025
1774.00,0.0026
1773.00,0.0027
1772.00,0.0027
1771.00,0.0027
1770.00,0.0026
1769.00,0.0025
1768.00,0.0025
1767.00,0.0026
1766.00,0.0026
1765.00,0.0026
1764.00,0.0027
1763.00,0.0027
1762.00,0.0027
1761.00,0.0027
1760.00,0.0028
1759.00,0.0028
1758.00,0.0028
1757.00,0.0029
1756.00,0.0030
1755.00,0.0032
1754.00,0.0033
1753.00,0.0034
1752.00,0.0036
1751.00,0.0038
1750.00,0.0040
1749.00,0.0041
1748.00,0.0044
1747.00,0.0046
1746.00,0.0048
1745.00,0.0051
1744.00,0.0054
1743.00,0.0056
1742.00,0.0059
1741.00,0.0062
1740.00,0.0065
1739.00,0.0067
1738.00,0.0068
1737.00,0.0068
1736.00,0.0070
1735.00,0.0072
1734.00,0.0073
1733.00,0.0074
1732.00,0.0074
1731.00,0.0073
1730.00,0.0072
1729.00,0.0071
1728.00,0.0071
1727.00,0.0072
1726.00,0.0072
1725.00,0.0072
1724.00,0.0072
1723.00,0.0073
1722.00,0.0073
1721.00,0.0074
1720.00,0.0075
1719.00,0.0078
1718.00,0.0081
1717.00,0.0084
1716.00,0.0086
1715.00,0.0089
1714.00,0.0091
1713.00,0.0094
1712.00,0.0099
1711.00,0.0104
1710.00,0.0110
1709.00,0.0116
1708.00,0.0124
1707.00,0.0134
1706.00,0.0147
1705.00,0.0161
1704.00,0.0174
1703.00,0.0187
1702.00,0.0201
1701.00,0.0219
1700.00,0.0239
1699.00,0.0252
1698.00,0.0259
1697.00,0.0263
1696.00,0.0268
1695.00,0.0272
1694.00,0.0275
1693.00,0.0277
1692.00,0.0280
1691.00,0.0284
1690.00,0.0290
1689.00,0.0296
1688.00,0.0302
1687.00,0.0309
1686.00,0.0317
1685.00,0.0329
1684.00,0.0342
1683.00,0.0353
1682.00,0.0361
1681.00,0.0368
1680.00,0.0377
1679.00,0.0385
1678.00,0.0394
1677.00,0.0403
1676.00,0.0415
1675.00,0.0429
1674.00,0.0442
1673.00,0.0452
1672.00,0.0462
1671.00,0.0472
1670.00,0.0485
1669.00,0.0500
1668.00,0.0514
1667.00,0.0526
1666.00,0.0536
1665.00,0.0547
1664.00,0.0560
1663.00,0.0575
1662.00,0.0590
1661.00,0.0604
1660.00,0.0617
1659.00,0.0629
1658.00,0.0639
1657.00,0.0647
1656.00,0.0655
1655.00,0.0663
1654.00,0.0677
1653.00,0.0696
1652.00,0.0712
1651.00,0.0719
1650.00,0.0719
1649.00,0.0719
1648.00,0.0723
1647.00,0.0730
1646.00,0.0737
1645.00,0.0743
1644.00,0.0747
1643.00,0.0750
1642.00,0.0752
1641.00,0.0755
1640.00,0.0758
1639.00,0.0761
1638.00,0.0764
1637.00,0.0768
1636.00,0.0775
1635.00,0.0783
1634.00,0.0788
1633.00,0.0790
1632.00,0.0791
1631.00,0.0792
1630.00,0.0792
1629.00,0.0792
1628.00,0.0792
1627.00,0.0790
1626.00,0.0786
1625.00,0.0780
1624.00,0.0772
1623.00,0.0761
1622.00,0.0748
1621.00,0.0733
1620.00,0.0717
1619.00,0.0699
1618.00,0.0680
1617.00,0.0659
1616.00,0.0636
1615.00,0.0615
1614.00,0.0594
1613.00,0.0572
1612.00,0.0551
1611.00,0.0529
1610.00,0.0507
1609.00,0.0486
1608.00,0.0465
1607.00,0.0446
1606.00,0.0428
1605.00,0.0411
1604.00,0.0395
1603.00,0.0380
1602.00,0.0368
1601.00,0.0356
1600.00,0.0346
1599.00,0.0336
1598.00,0.0328
1597.00,0.0321
1596.00,0.0313
1595.00,0.0306
1594.00,0.0299
1593.00,0.0293
1592.00,0.0286
1591.00,0.0280
1590.00,0.0275
1589.00,0.0271
1588.00,0.0267
1587.00,0.0263
1586.00,0.0261
1585.00,0.0260
1584.00,0.0259
1583.00,0.0259
1582.00,0.0259
1581.00,0.0260
1580.00,0.0261
1579.00,0.0263
1578.00,0.0267
1577.00,0.0273
1576.00,0.0280
1575.00,0.0286
1574.00,0.0290
1573.00,0.0292
1572.00,0.0296
1571.00,0.0302
1570.00,0.0311
1569.00,0.0321
1568.00,0.0330
1567.00,0.0338
1566.00,0.0346
1565.00,0.0355
1564.00,0.0364
1563.00,0.0371
1562.00,0.0378
1561.00,0.0385
1560.00,0.0399
1559.00,0.0419
1558.00,0.0437
1557.00,0.0448
1556.00,0.0456
1555.00,0.0464
1554.00,0.0474
1553.00,0.0485
1552.00,0.0494
1551.00,0.0503
1550.00,0.0513
1549.00,0.0523
1548.00,0.0532
1547.00,0.0540
1546.00,0.0547
1545.00,0.0554
1544.00,0.0562
1543.00,0.0569
1542.00,0.0578
1541.00,0.0589
1540.00,0.0601
1539.00,0.0612
1538.00,0.0619
1537.00,0.0621
1536.00,0.0622
1535.00,0.0625
1534.00,0.0632
1533.00,0.0640
1532.00,0.0647
1531.00,0.0653
1530.00,0.0658
1529.00,0.0663
1528.00,0.0668
1527.00,0.0674
1526.00,0.0681
1525.00,0.0688
1524.00,0.0694
1523.00,0.0700
1522.00,0.0710
1521.00,0.0723
1520.00,0.0733
1519.00,0.0741
1518.00,0.0749
1517.00,0.0757
1516.00,0.0763
1515.00,0.0766
1514.00,0.0764
1513.00,0.0760
1512.00,0.0753
1511.00,0.0744
1510.00,0.0734
1509.00,0.0724
1508.00,0.0714
1507.00,0.0703
1506.00,0.0692
1505.00,0.0682
1504.00,0.0669
1503.00,0.0655
1502.00,0.0640
1501.00,0.0625
1500.00,0.0610
1499.00,0.0595
1498.00,0.0581
1497.00,0.0566
1496.00,0.0551
1495.00,0.0536
1494.00,0.0521
1493.00,0.0507
1492.00,0.0492
1491.00,0.0477
1490.00,0.0462
1489.00,0.0448
1488.00,0.0435
1487.00,0.0424
1486.00,0.0412
1485.00,0.0402
1484.00,0.0392
1483.00,0.0382
1482.00,0.0373
1481.00,0.0365
1480.00,0.0358
1479.00,0.0352
1478.00,0.0348
1477.00,0.0346
1476.00,0.0346
1475.00,0.0348
1474.00,0.0352
1473.00,0.0355
1472.00,0.0356
1471.00,0.0354
1470.00,0.0351
1469.00,0.0348
1468.00,0.0346
1467.00,0.0346
1466.00,0.0349
1465.00,0.0355
1464.00,0.0361
1463.00,0.0365
1462.00,0.0366
1461.00,0.0366
1460.00,0.0365
1459.00,0.0366
1458.00,0.0370
1457.00,0.0378
1456.00,0.0387
1455.00,0.0393
1454.00,0.0396
1453.00,0.0398
1452.00,0.0401
1451.00,0.0404
1450.00,0.0406
1449.00,0.0407
1448.00,0.0407
1447.00,0.0406
1446.00,0.0403
1445.00,0.0400
1444.00,0.0396
1443.00,0.0392
1442.00,0.0386
1441.00,0.0380
1440.00,0.0374
1439.00,0.0366
1438.00,0.0359
1437.00,0.0350
1436.00,0.0343
1435.00,0.0336
1434.00,0.0329
1433.00,0.0322
1432.00,0.0315
1431.00,0.0308
1430.00,0.0303
1429.00,0.0299
1428.00,0.0295
1427.00,0.0293
1426.00,0.0292
1425.00,0.0291
1424.00,0.0291
1423.00,0.0291
1422.00,0.0292
1421.00,0.0293
1420.00,0.0295
1419.00,0.0299
1418.00,0.0303
1417.00,0.0306
1416.00,0.0310
1415.00,0.0314
1414.00,0.0317
1413.00,0.0321
1412.00,0.0324
1411.00,0.0328
1410.00,0.0331
1409.00,0.0334
1408.00,0.0336
1407.00,0.0338
1406.00,0.0340
1405.00,0.0341
1404.00,0.0344
1403.00,0.0347
1402.00,0.0349
1401.00,0.0351
1400.00,0.0354
1399.00,0.0358
1398.00,0.0362
1397.00,0.0365
1396.00,0.0368
1395.00,0.0372
1394.00,0.0375
1393.00,0.0378
1392.00,0.0379
1391.00,0.0379
1390.00,0.0379
1389.00,0.0379
1388.00,0.0380
1387.00,0.0382
1386.00,0.0383
1385.00,0.0384
1384.00,0.0385
1383.00,0.0386
1382.00,0.0386
1381.00,0.0384
1380.00,0.0381
1379.00,0.0377
1378.00,0.0373
1377.00,0.0368
1376.00,0.0364
1375.00,0.0360
1374.00,0.0356
1373.00,0.0351
1372.00,0.0347
1371.00,0.0342
1370.00,0.0337
1369.00,0.0330
1368.00,0.0324
1367.00,0.0317
1366.00,0.0310
1365.00,0.0303
1364.00,0.0296
1363.00,0.0288
1362.00,0.0282
1361.00,0.0277
1360.00,0.0273
1359.00,0.0269
1358.00,0.0266
1357.00,0.0262
1356.00,0.0259
1355.00,0.0257
1354.00,0.0255
1353.00,0.0253
1352.00,0.0252
1351.00,0.0251
1350.00,0.0250
1349.00,0.0251
1348.00,0.0251
1347.00,0.0252
1346.00,0.0252
1345.00,0.0254
1344.00,0.0255
1343.00,0.0256
1342.00,0.0257
1341.00,0.0258
1340.00,0.0258
1339.00,0.0258
1338.00,0.0258
1337.00,0.0258
1336.00,0.0257
1335.00,0.0256
1334.00,0.0254
1333.00,0.0251
1332.00,0.0249
1331.00,0.0246
1330.00,0.0244
1329.00,0.0241
1328.00,0.0238
1327.00,0.0236
1326.00,0.0234
1325.00,0.0232
1324.00,0.0230
1323.00,0.0229
1322.00,0.0228
1321.00,0.0227
1320.00,0.0227
1319.00,0.0227
1318.00,0.0227
1317.00,0.0227
1316.00,0.0227
1315.00,0.0228
1314.00,0.0228
1313.00,0.0229
1312.00,0.0229
1311.00,0.0230
1310.00,0.0231
1309.00,0.0231
1308.00,0.0232
1307.00,0.0233
1306.00,0.0233
1305.00,0.0233
1304.00,0.0234
1303.00,0.0234
1302.00,0.0235
1301.00,0.0235
1300.00,0.0236
1299.00,0.0237
1298.00,0.0238
1297.00,0.0239
1296.00,0.0240
1295.00,0.0241
1294.00,0.0242
1293.00,0.0244
1292.00,0.0245
1291.00,0.0247
1290.00,0.0249
1289.00,0.0251
1288.00,0.0254
1287.00,0.0256
1286.00,0.0259
1285.00,0.0261
1284.00,0.0264
1283.00,0.0267
1282.00,0.0271
1281.00,0.0274
1280.00,0.0278
1279.00,0.0283
1278.00,0.0288
1277.00,0.0294
1276.00,0.0300
1275.00,0.0307
1274.00,0.0314
1273.00,0.0321
1272.00,0.0329
1271.00,0.0338
1270.00,0.0346
1269.00,0.0354
1268.00,0.0362
1267.00,0.0369
1266.00,0.0376
1265.00,0.0383
1264.00,0.0388
1263.00,0.0393
1262.00,0.0396
1261.00,0.0399
1260.00,0.0402
1259.00,0.0405
1258.00,0.0408
1257.00,0.0411
1256.00,0.0414
1255.00,0.0418
1254.00,0.0423
1253.00,0.0427
1252.00,0.0431
1251.00,0.0434
1250.00,0.0437
1249.00,0.0439
1248.00,0.0441
1247.00,0.0443
1246.00,0.0446
1245.00,0.0449
1244.00,0.0453
1243.00,0.0457
1242.00,0.0461
1241.00,0.0465
1240.00,0.0468
1239.00,0.0471
1238.00,0.0474
1237.00,0.0475
1236.00,0.0476
1235.00,0.0476
1234.00,0.0476
1233.00,0.0474
1232.00,0.0471
1231.00,0.0468
1230.00,0.0464
1229.00,0.0458
1228.00,0.0452
1227.00,0.0446
1226.00,0.0438
1225.00,0.0431
1224.00,0.0423
1223.00,0.0415
1222.00,0.0406
1221.00,0.0398
1220.00,0.0389
1219.00,0.0381
1218.00,0.0372
1217.00,0.0363
1216.00,0.0355
1215.00,0.0346
1214.00,0.0337
1213.00,0.0329
1212.00,0.0320
1211.00,0.0312
1210.00,0.0304
1209.00,0.0296
1208.00,0.0288
1207.00,0.0280
1206.00,0.0273
1205.00,0.0266
1204.00,0.0259
1203.00,0.0253
1202.00,0.0247
1201.00,0.0241
1200.00,0.0236
1199.00,0.0232
1198.00,0.0228
1197.00,0.0224
1196.00,0.0221
1195.00,0.0219
1194.00,0.0217
1193.00,0.0216
1192.00,0.0215
1191.00,0.0215
1190.00,0.0216
1189.00,0.0216
1188.00,0.0218
1187.00,0.0220
1186.00,0.0222
1185.00,0.0225
1184.00,0.0228
1183.00,0.0232
1182.00,0.0236
1181.00,0.0241
1180.00,0.0246
1179.00,0.0252
1178.00,0.0259
1177.00,0.0265
1176.00,0.0272
1175.00,0.0279
1174.00,0.0286
1173.00,0.0292
1172.00,0.0298
1171.00,0.0304
1170.00,0.0308
1169.00,0.0312
1168.00,0.0315
1167.00,0.0317
1166.00,0.0319
1165.00,0.0321
1164.00,0.0322
1163.00,0.0322
1162.00,0.0322
1161.00,0.0322
1160.00,0.0321
1159.00,0.0320
1158.00,0.0319
1157.00,0.0317
1156.00,0.0315
1155.00,0.0313
1154.00,0.0310
1153.00,0.0307
1152.00,0.0304
1151.00,0.0300
1150.00,0.0296
1149.00,0.0292
1148.00,0.0288
1147.00,0.0283
1146.00,0.0278
1145.00,0.0274
1144.00,0.0269
1143.00,0.0266
1142.00,0.0262
1141.00,0.0259
1140.00,0.0257
1139.00,0.0255
1138.00,0.0253
1137.00,0.0251
1136.00,0.0249
1135.00,0.0247
1134.00,0.0246
1133.00,0.0245
1132.00,0.0245
1131.00,0.0245
1130.00,0.0245
1129.00,0.0245
1128.00,0.0244
1127.00,0.0244
1126.00,0.0243
1125.00,0.0242
1124.00,0.0242
1123.00,0.0241
1122.00,0.0240
1121.00,0.0239
1120.00,0.0237
1119.00,0.0236
1118.00,0.0234
1117.00,0.0232
1116.00,0.0231
1115.00,0.0230
1114.00,0.0228
1113.00,0.0227
1112.00,0.0227
1111.00,0.0227
1110.00,0.0227
1109.00,0.0228
1108.00,0.0229
1107.00,0.0231
1106.00,0.0232
1105.00,0.0234
1104.00,0.0235
1103.00,0.0236
1102.00,0.0238
1101.00,0.0239
1100.00,0.0240
1099.00,0.0241
1098.00,0.0243
1097.00,0.0245
1096.00,0.0247
1095.00,0.0249
1094.00,0.0251
1093.00,0.0254
1092.00,0.0257
1091.00,0.0260
1090.00,0.0263
1089.00,0.0265
1088.00,0.0267
1087.00,0.0269
1086.00,0.0271
1085.00,0.0273
1084.00,0.0276
1083.00,0.0278
1082.00,0.0280
1081.00,0.0282
1080.00,0.0284
1079.00,0.0285
1078.00,0.0286
1077.00,0.0287
1076.00,0.0289
1075.00,0.0290
1074.00,0.0291
1073.00,0.0292
1072.00,0.0292
1071.00,0.0290
1070.00,0.0289
1069.00,0.0287
1068.00,0.0284
1067.00,0.0281
1066.00,0.0278
1065.00,0.0275
1064.00,0.0272
1063.00,0.0270
1062.00,0.0268
1061.00,0.0266
1060.00,0.0263
1059.00,0.0260
1058.00,0.0257
1057.00,0.0253
1056.00,0.0249
1055.00,0.0245
1054.00,0.0241
1053.00,0.0237
1052.00,0.0233
1051.00,0.0229
1050.00,0.0225
1049.00,0.0222
1048.00,0.0218
1047.00,0.0215
1046.00,0.0211
1045.00,0.0207
1044.00,0.0204
1043.00,0.0200
1042.00,0.0197
1041.00,0.0194
1040.00,0.0191
1039.00,0.0189
1038.00,0.0187
1037.00,0.0185
1036.00,0.0183
1035.00,0.0181
1034.00,0.0180
1033.00,0.0179
1032.00,0.0178
1031.00,0.0177
1030.00,0.0176
1029.00,0.0176
1028.00,0.0176
1027.00,0.0176
1026.00,0.0177
1025.00,0.0179
1024.00,0.0181
1023.00,0.0184
1022.00,0.0187
1021.00,0.0191
1020.00,0.0194
1019.00,0.0197
1018.00,0.0200
1017.00,0.0201
1016.00,0.0202
1015.00,0.0201
1014.00,0.0199
1013.00,0.0196
1012.00,0.0193
1011.00,0.0190
1010.00,0.0187
1009.00,0.0184
1008.00,0.0181
1007.00,0.0180
1006.00,0.0178
1005.00,0.0177
1004.00,0.0177
1003.00,0.0176
1002.00,0.0176
1001.00,0.0175
1000.00,0.0174
999.00,0.0173
998.00,0.0172
997.00,0.0170
996.00,0.0167
995.00,0.0164
994.00,0.0161
993.00,0.0157
992.00,0.0154
991.00,0.0151
990.00,0.0149
989.00,0.0147
988.00,0.0146
987.00,0.0145
986.00,0.0146
985.00,0.0147
984.00,0.0148
983.00,0.0151
982.00,0.0155
981.00,0.0159
980.00,0.0163
979.00,0.0168
978.00,0.0173
977.00,0.0178
976.00,0.0184
975.00,0.0190
974.00,0.0195
973.00,0.0200
972.00,0.0205
971.00,0.0209
970.00,0.0212
969.00,0.0215
968.00,0.0216
967.00,0.0216
966.00,0.0216
965.00,0.0214
964.00,0.0212
963.00,0.0210
962.00,0.0209
961.00,0.0208
960.00,0.0210
959.00,0.0213
958.00,0.0216
957.00,0.0217
956.00,0.0218
955.00,0.0217
954.00,0.0217
953.00,0.0216
952.00,0.0214
951.00,0.0211
950.00,0.0208
949.00,0.0205
948.00,0.0202
947.00,0.0199
946.00,0.0198
945.00,0.0196
944.00,0.0195
943.00,0.0193
942.00,0.0191
941.00,0.0189
940.00,0.0186
939.00,0.0183
938.00,0.0180
937.00,0.0176
936.00,0.0172
935.00,0.0167
934.00,0.0163
933.00,0.0158
932.00,0.0154
931.00,0.0150
930.00,0.0146
929.00,0.0142
928.00,0.0138
927.00,0.0134
926.00,0.0131
925.00,0.0127
924.00,0.0124
923.00,0.0121
922.00,0.0118
921.00,0.0115
920.00,0.0113
919.00,0.0110
918.00,0.0108
917.00,0.0106
916.00,0.0104
915.00,0.0103
914.00,0.0101
913.00,0.0100
912.00,0.0100
911.00,0.0099
910.00,0.0098
909.00,0.0097
908.00,0.0097
907.00,0.0097
906.00,0.0096
905.00,0.0096
904.00,0.0095
903.00,0.0095
902.00,0.0094
901.00,0.0094
900.00,0.0094
899.00,0.0094
898.00,0.0094
897.00,0.0094
896.00,0.0094
895.00,0.0094
894.00,0.0094
893.00,0.0094
892.00,0.0093
891.00,0.0093
890.00,0.0093
889.00,0.0092
888.00,0.0092
887.00,0.0092
886.00,0.0092
885.00,0.0092
884.00,0.0092
883.00,0.0092
882.00,0.0092
881.00,0.0092
880.00,0.0092
879.00,0.0093
878.00,0.0094
877.00,0.0095
876.00,0.0096
875.00,0.0097
874.00,0.0098
873.00,0.0099
872.00,0.0100
871.00,0.0100
870.00,0.0100
869.00,0.0099
868.00,0.0099
867.00,0.0098
866.00,0.0099
865.00,0.0099
864.00,0.0100
863.00,0.0101
862.00,0.0102
861.00,0.0103
860.00,0.0105
859.00,0.0106
858.00,0.0108
857.00,0.0110
856.00,0.0112
855.00,0.0114
854.00,0.0116
853.00,0.0117
852.00,0.0119
851.00,0.0120
850.00,0.0120
849.00,0.0121
848.00,0.0121
847.00,0.0121
846.00,0.0121
845.00,0.0122
844.00,0.0122
843.00,0.0123
842.00,0.0124
841.00,0.0125
840.00,0.0127
839.00,0.0129
838.00,0.0131
837.00,0.0133
836.00,0.0135
835.00,0.0137
834.00,0.0140
833.00,0.0142
832.00,0.0144
831.00,0.0145
830.00,0.0147
829.00,0.0147
828.00,0.0148
827.00,0.0148
826.00,0.0148
825.00,0.0148
824.00,0.0148
823.00,0.0149
822.00,0.0149
821.00,0.0150
820.00,0.0150
819.00,0.0151
818.00,0.0151
817.00,0.0152
816.00,0.0153
815.00,0.0154
814.00,0.0154
813.00,0.0154
812.00,0.0155
811.00,0.0156
810.00,0.0156
809.00,0.0157
808.00,0.0158
807.00,0.0159
806.00,0.0160
805.00,0.0160
804.00,0.0161
803.00,0.0162
802.00,0.0162
801.00,0.0162
800.00,0.0162
799.00,0.0162
798.00,0.0162
797.00,0.0162
796.00,0.0162
795.00,0.0162
794.00,0.0163
793.00,0.0164
792.00,0.0165
791.00,0.0165
790.00,0.0166
789.00,0.0166
788.00,0.0167
787.00,0.0168
786.00,0.0169
785.00,0.0170
784.00,0.0171
783.00,0.0172
782.00,0.0173
781.00,0.0174
780.00,0.0175
779.00,0.0176
778.00,0.0178
777.00,0.0179
776.00,0.0180
775.00,0.0182
774.00,0.0183
773.00,0.0185
772.00,0.0187
771.00,0.0189
770.00,0.0190
769.00,0.0192
768.00,0.0194
767.00,0.0195
766.00,0.0197
765.00,0.0198
764.00,0.0200
763.00,0.0201
762.00,0.0203
761.00,0.0204
760.00,0.0206
759.00,0.0208
758.00,0.0210
757.00,0.0211
756.00,0.0213
755.00,0.0215
754.00,0.0217
753.00,0.0218
752.00,0.0220
751.00,0.0222
750.00,0.0225
749.00,0.0227
748.00,0.0229
747.00,0.0232
746.00,0.0235
745.00,0.0237
744.00,0.0240
743.00,0.0243
742.00,0.0245
741.00,0.0248
740.00,0.0252
739.00,0.0256
738.00,0.0260
737.00,0.0265
736.00,0.0271
735.00,0.0277
734.00,0.0283
733.00,0.0290
732.00,0.0297
731.00,0.0304
730.00,0.0312
729.00,0.0319
728.00,0.0326
727.00,0.0333
726.00,0.0339
725.00,0.0345
724.00,0.0349
723.00,0.0353
722.00,0.0357
721.00,0.0360
720.00,0.0362
719.00,0.0363
718.00,0.0363
717.00,0.0363
716.00,0.0362
715.00,0.0363
714.00,0.0364
713.00,0.0365
712.00,0.0367
711.00,0.0369
710.00,0.0371
709.00,0.0373
708.00,0.0376
707.00,0.0379
706.00,0.0381
705.00,0.0384
704.00,0.0387
703.00,0.0390
702.00,0.0393
701.00,0.0395
700.00,0.0397
699.00,0.0398
698.00,0.0399
697.00,0.0400
696.00,0.0401
695.00,0.0401
694.00,0.0401
693.00,0.0402
692.00,0.0403
691.00,0.0404
690.00,0.0405
689.00,0.0406
688.00,0.0407
687.00,0.0408
686.00,0.0409
685.00,0.0410
684.00,0.0411
683.00,0.0413
682.00,0.0414
681.00,0.0415
680.00,0.0416
679.00,0.0417
678.00,0.0418
677.00,0.0418
676.00,0.0419
675.00,0.0420
674.00,0.0421
673.00,0.0422
672.00,0.0422
671.00,0.0423
670.00,0.0423
669.00,0.0424
668.00,0.0426
667.00,0.0428
666.00,0.0429
665.00,0.0430
664.00,0.0430
663.00,0.0431
662.00,0.0433
661.00,0.0434
660.00,0.0435
659.00,0.0436
658.00,0.0437
657.00,0.0439
656.00,0.0440
655.00,0.0442
654.00,0.0443
653.00,0.0444
652.00,0.0445
651.00,0.0446
650.00,0.0448
649.00,0.0449
648.00,0.0450
647.00,0.0451
646.00,0.0452
645.00,0.0453
644.00,0.0455
643.00,0.0456
642.00,0.0456
641.00,0.0457
640.00,0.0458
639.00,0.0459
638.00,0.0459
637.00,0.0460
636.00,0.0460
635.00,0.0461
634.00,0.0461
633.00,0.0462
632.00,0.0462
631.00,0.0463
630.00,0.0463
629.00,0.0463
628.00,0.0463
627.00,0.0463
626.00,0.0462
625.00,0.0462
624.00,0.0463
623.00,0.0463
622.00,0.0464
621.00,0.0465
620.00,0.0466
619.00,0.0468
618.00,0.0470
617.00,0.0471
616.00,0.0472
615.00,0.0473
614.00,0.0473
613.00,0.0474
612.00,0.0474
611.00,0.0474
610.00,0.0474
609.00,0.0472
608.00,0.0470
607.00,0.0468
606.00,0.0466
605.00,0.0464
604.00,0.0462
603.00,0.0460
602.00,0.0458
601.00,0.0456
600.00,0.0455
599.00,0.0453
598.00,0.0452
597.00,0.0450
596.00,0.0450
595.00,0.0449
594.00,0.0449
593.00,0.0449
592.00,0.0449
591.00,0.0449
590.00,0.0449
589.00,0.0449
588.00,0.0450
587.00,0.0451
586.00,0.0451
585.00,0.0452
584.00,0.0453
583.00,0.0453
582.00,0.0454
581.00,0.0455
580.00,0.0456
579.00,0.0457
578.00,0.0458
577.00,0.0459
576.00,0.0461
575.00,0.0464
574.00,0.0466
573.00,0.0468
572.00,0.0470
571.00,0.0472
570.00,0.0473
569.00,0.0476
568.00,0.0479
567.00,0.0482
566.00,0.0486
565.00,0.0489
564.00,0.0493
563.00,0.0496
562.00,0.0499
561.00,0.0503
560.00,0.0507
559.00,0.0511
558.00,0.0515
557.00,0.0519
556.00,0.0523
555.00,0.0526
554.00,0.0527
553.00,0.0528
552.00,0.0529
551.00,0.0529
550.00,0.0529
549.00,0.0528
548.00,0.0527
547.00,0.0525
546.00,0.0524
545.00,0.0522
544.00,0.0522
543.00,0.0520
542.00,0.0518
541.00,0.0515
540.00,0.0512
539.00,0.0510
538.00,0.0507
537.00,0.0505
536.00,0.0504
535.00,0.0502
534.00,0.0500
533.00,0.0499
532.00,0.0497
531.00,0.0495
530.00,0.0493
529.00,0.0491
528.00,0.0489
527.00,0.0488
526.00,0.0486
525.00,0.0486
524.00,0.0485
523.00,0.0484
522.00,0.0483
521.00,0.0480
520.00,0.0478
519.00,0.0476
518.00,0.0474
517.00,0.0473
516.00,0.0473
515.00,0.0472
514.00,0.0471
513.00,0.0469
512.00,0.0468
511.00,0.0467
510.00,0.0466
509.00,0.0465
508.00,0.0465
507.00,0.0464
506.00,0.0464
505.00,0.0462
504.00,0.0461
503.00,0.0459
502.00,0.0458
501.00,0.0457
500.00,0.0457
499.00,0.0456
498.00,0.0454
497.00,0.0453
496.00,0.0453
495.00,0.0452
494.00,0.0452
493.00,0.0452
492.00,0.0453
491.00,0.0452
490.00,0.0451
489.00,0.0449
488.00,0.0447
487.00,0.0445
486.00,0.0444
485.00,0.0443
484.00,0.0441
483.00,0.0441
482.00,0.0439
481.00,0.0437
480.00,0.0436
479.00,0.0435
478.00,0.0434
477.00,0.0434
476.00,0.0433
475.00,0.0431
474.00,0.0429
473.00,0.0427
472.00,0.0426
471.00,0.0425
470.00,0.0424
469.00,0.0423
468.00,0.0422
467.00,0.0422
466.00,0.0421
465.00,0.0420
464.00,0.0419
463.00,0.0417
462.00,0.0415
461.00,0.0413
460.00,0.0413
459.00,0.0413
458.00,0.0413
457.00,0.0411
456.00,0.0410
455.00,0.0409
454.00,0.0407
453.00,0.0406
452.00,0.0406
451.00,0.0406
450.00,0.0406
449.00,0.0406
448.00,0.0406
447.00,0.0405
446.00,0.0403
445.00,0.0401
444.00,0.0399
443.00,0.0399
442.00,0.0400
441.00,0.0401
440.00,0.0403
439.00,0.0404
438.00,0.0405
437.00,0.0407
436.00,0.0408
435.00,0.0409
434.00,0.0408
433.00,0.0410
432.00,0.0413
431.00,0.0416
430.00,0.0418
429.00,0.0420
428.00,0.0421
427.00,0.0423
426.00,0.0425
425.00,0.0426
424.00,0.0428
423.00,0.0429
422.00,0.0427
421.00,0.0423
420.00,0.0418
419.00,0.0413
418.00,0.0407
417.00,0.0404
416.00,0.0404
415.00,0.0404
414.00,0.0403
413.00,0.0402
412.00,0.0399
411.00,0.0394
410.00,0.0387
409.00,0.0380
408.00,0.0376
407.00,0.0374
406.00,0.0371
405.00,0.0368
404.00,0.0367
403.00,0.0369
402.00,0.0375
401.00,0.0388
400.00,0.0405
