PE IR       SUBTECH     SPECTRUM    ASCII       PEDS        4.00        
   -1
benzoic acid 5_6_24.ASC
24/05/06
15:03:37.00
24/05/06
15:03:37.00
Yarger Lab
Sample 052 By YargerLab Date Wednesday, May 01 2024
400.000000
#HDR
-1
-1
#GR
cm-1
%T
1.0
0.0
4000.000000
-1.000000
3601
8
96.454055
45.553097
#DATA
4000.000000	96.151969
3999.000000	96.157596
3998.000000	96.162894
3997.000000	96.167988
3996.000000	96.173102
3995.000000	96.178236
3994.000000	96.182994
3993.000000	96.186756
3992.000000	96.189168
3991.000000	96.190488
3990.000000	96.191456
3989.000000	96.192787
3988.000000	96.194667
3987.000000	96.196684
3986.000000	96.198193
3985.000000	96.198794
3984.000000	96.198556
3983.000000	96.197849
3982.000000	96.197116
3981.000000	96.196770
3980.000000	96.197095
3979.000000	96.198047
3978.000000	96.199153
3977.000000	96.199835
3976.000000	96.199972
3975.000000	96.200127
3974.000000	96.201119
3973.000000	96.203282
3972.000000	96.206092
3971.000000	96.208523
3970.000000	96.209821
3969.000000	96.210072
3968.000000	96.209989
3967.000000	96.210088
3966.000000	96.210267
3965.000000	96.210213
3964.000000	96.209995
3963.000000	96.209963
3962.000000	96.210121
3961.000000	96.210037
3960.000000	96.209436
3959.000000	96.208625
3958.000000	96.208194
3957.000000	96.208409
3956.000000	96.209017
3955.000000	96.209422
3954.000000	96.209162
3953.000000	96.208288
3952.000000	96.207269
3951.000000	96.206492
3950.000000	96.205887
3949.000000	96.205049
3948.000000	96.203557
3947.000000	96.201227
3946.000000	96.198485
3945.000000	96.196585
3944.000000	96.196840
3943.000000	96.199215
3942.000000	96.202084
3941.000000	96.203917
3940.000000	96.204641
3939.000000	96.205076
3938.000000	96.205536
3937.000000	96.205511
3936.000000	96.204828
3935.000000	96.204369
3934.000000	96.205306
3933.000000	96.207778
3932.000000	96.210520
3931.000000	96.211981
3930.000000	96.211370
3929.000000	96.208887
3928.000000	96.205510
3927.000000	96.202518
3926.000000	96.200613
3925.000000	96.199274
3924.000000	96.197669
3923.000000	96.196117
3922.000000	96.195898
3921.000000	96.197697
3920.000000	96.200803
3919.000000	96.203783
3918.000000	96.205502
3917.000000	96.205542
3916.000000	96.204263
3915.000000	96.202807
3914.000000	96.202378
3913.000000	96.203535
3912.000000	96.205938
3911.000000	96.208684
3910.000000	96.210972
3909.000000	96.212268
3908.000000	96.212547
3907.000000	96.212245
3906.000000	96.211998
3905.000000	96.211712
3904.000000	96.210290
3903.000000	96.207251
3902.000000	96.204035
3901.000000	96.202999
3900.000000	96.205026
3899.000000	96.208842
3898.000000	96.212629
3897.000000	96.215741
3896.000000	96.218327
3895.000000	96.220648
3894.000000	96.223051
3893.000000	96.226027
3892.000000	96.228776
3891.000000	96.228726
3890.000000	96.224415
3889.000000	96.217471
3888.000000	96.212140
3887.000000	96.211927
3886.000000	96.215132
3885.000000	96.216563
3884.000000	96.214180
3883.000000	96.210670
3882.000000	96.209734
3881.000000	96.212000
3880.000000	96.214470
3879.000000	96.214523
3878.000000	96.212511
3877.000000	96.210855
3876.000000	96.211970
3875.000000	96.215296
3874.000000	96.216894
3873.000000	96.214326
3872.000000	96.210459
3871.000000	96.209642
3870.000000	96.210569
3869.000000	96.208521
3868.000000	96.203262
3867.000000	96.199259
3866.000000	96.199816
3865.000000	96.203486
3864.000000	96.206604
3863.000000	96.208109
3862.000000	96.209214
3861.000000	96.210423
3860.000000	96.211215
3859.000000	96.210367
3858.000000	96.206239
3857.000000	96.197940
3856.000000	96.188564
3855.000000	96.184717
3854.000000	96.186260
3853.000000	96.186046
3852.000000	96.184054
3851.000000	96.185533
3850.000000	96.191859
3849.000000	96.200817
3848.000000	96.209793
3847.000000	96.217624
3846.000000	96.224064
3845.000000	96.228987
3844.000000	96.231956
3843.000000	96.232398
3842.000000	96.230376
3841.000000	96.227660
3840.000000	96.226869
3839.000000	96.228340
3838.000000	96.229505
3837.000000	96.228297
3836.000000	96.225569
3835.000000	96.223447
3834.000000	96.223475
3833.000000	96.226262
3832.000000	96.231104
3831.000000	96.235951
3830.000000	96.238871
3829.000000	96.240107
3828.000000	96.241869
3827.000000	96.245127
3826.000000	96.247382
3825.000000	96.245316
3824.000000	96.239258
3823.000000	96.233962
3822.000000	96.232869
3821.000000	96.232749
3820.000000	96.230057
3819.000000	96.226205
3818.000000	96.225636
3817.000000	96.230930
3816.000000	96.238446
3815.000000	96.243173
3814.000000	96.245239
3813.000000	96.247763
3812.000000	96.251489
3811.000000	96.254011
3810.000000	96.253184
3809.000000	96.250774
3808.000000	96.250166
3807.000000	96.250858
3806.000000	96.249283
3805.000000	96.244387
3804.000000	96.239525
3803.000000	96.239612
3802.000000	96.243865
3801.000000	96.245963
3800.000000	96.244571
3799.000000	96.244508
3798.000000	96.249490
3797.000000	96.258292
3796.000000	96.266230
3795.000000	96.270077
3794.000000	96.270552
3793.000000	96.270321
3792.000000	96.271181
3791.000000	96.273011
3790.000000	96.274517
3789.000000	96.274747
3788.000000	96.274054
3787.000000	96.273733
3786.000000	96.274696
3785.000000	96.276505
3784.000000	96.277667
3783.000000	96.277010
3782.000000	96.274788
3781.000000	96.272738
3780.000000	96.272114
3779.000000	96.272011
3778.000000	96.270838
3777.000000	96.268856
3776.000000	96.268035
3775.000000	96.269332
3774.000000	96.271544
3773.000000	96.273530
3772.000000	96.276118
3771.000000	96.279856
3770.000000	96.282597
3769.000000	96.282223
3768.000000	96.280373
3767.000000	96.280461
3766.000000	96.283189
3765.000000	96.285608
3764.000000	96.284725
3763.000000	96.280784
3762.000000	96.276263
3761.000000	96.273271
3760.000000	96.272222
3759.000000	96.272653
3758.000000	96.273973
3757.000000	96.274866
3756.000000	96.273743
3755.000000	96.269977
3754.000000	96.264443
3753.000000	96.258617
3752.000000	96.253463
3751.000000	96.248997
3750.000000	96.244956
3749.000000	96.240985
3748.000000	96.236528
3747.000000	96.232918
3746.000000	96.234901
3745.000000	96.242585
3744.000000	96.248173
3743.000000	96.249319
3742.000000	96.250561
3741.000000	96.254346
3740.000000	96.259497
3739.000000	96.263530
3738.000000	96.265740
3737.000000	96.266955
3736.000000	96.267193
3735.000000	96.265774
3734.000000	96.263018
3733.000000	96.260110
3732.000000	96.257409
3731.000000	96.254101
3730.000000	96.249132
3729.000000	96.242746
3728.000000	96.236592
3727.000000	96.231435
3726.000000	96.226470
3725.000000	96.222246
3724.000000	96.221400
3723.000000	96.225381
3722.000000	96.231924
3721.000000	96.237374
3720.000000	96.240915
3719.000000	96.245007
3718.000000	96.251709
3717.000000	96.260114
3716.000000	96.267311
3715.000000	96.271334
3714.000000	96.272049
3713.000000	96.270565
3712.000000	96.267850
3711.000000	96.264072
3710.000000	96.259815
3709.000000	96.256586
3708.000000	96.256713
3707.000000	96.260854
3706.000000	96.267345
3705.000000	96.274251
3704.000000	96.281589
3703.000000	96.290146
3702.000000	96.298722
3701.000000	96.304573
3700.000000	96.306749
3699.000000	96.307069
3698.000000	96.307474
3697.000000	96.308487
3696.000000	96.309490
3695.000000	96.310320
3694.000000	96.310647
3693.000000	96.309518
3692.000000	96.306244
3691.000000	96.301563
3690.000000	96.297076
3689.000000	96.293416
3688.000000	96.291535
3687.000000	96.292555
3686.000000	96.296444
3685.000000	96.301579
3684.000000	96.306065
3683.000000	96.308190
3682.000000	96.307449
3681.000000	96.304910
3680.000000	96.301159
3679.000000	96.295218
3678.000000	96.286842
3677.000000	96.279627
3676.000000	96.275902
3675.000000	96.273347
3674.000000	96.270177
3673.000000	96.267122
3672.000000	96.266220
3671.000000	96.267931
3670.000000	96.267443
3669.000000	96.260672
3668.000000	96.250448
3667.000000	96.241744
3666.000000	96.236156
3665.000000	96.232453
3664.000000	96.229631
3663.000000	96.228121
3662.000000	96.228986
3661.000000	96.232525
3660.000000	96.238162
3659.000000	96.245183
3658.000000	96.253220
3657.000000	96.261680
3656.000000	96.269066
3655.000000	96.274163
3654.000000	96.276487
3653.000000	96.276425
3652.000000	96.276070
3651.000000	96.277691
3650.000000	96.281081
3649.000000	96.285203
3648.000000	96.290824
3647.000000	96.298729
3646.000000	96.307859
3645.000000	96.317015
3644.000000	96.326257
3643.000000	96.335582
3642.000000	96.343736
3641.000000	96.349649
3640.000000	96.354327
3639.000000	96.359142
3638.000000	96.363316
3637.000000	96.365224
3636.000000	96.365387
3635.000000	96.365804
3634.000000	96.366488
3633.000000	96.365375
3632.000000	96.361801
3631.000000	96.358862
3630.000000	96.359812
3629.000000	96.361891
3628.000000	96.361278
3627.000000	96.359791
3626.000000	96.360390
3625.000000	96.363134
3624.000000	96.366463
3623.000000	96.368603
3622.000000	96.368511
3621.000000	96.366484
3620.000000	96.363826
3619.000000	96.361329
3618.000000	96.359205
3617.000000	96.358358
3616.000000	96.360587
3615.000000	96.366790
3614.000000	96.374806
3613.000000	96.380836
3612.000000	96.383452
3611.000000	96.384532
3610.000000	96.386107
3609.000000	96.387832
3608.000000	96.388494
3607.000000	96.388067
3606.000000	96.387577
3605.000000	96.387598
3604.000000	96.388206
3603.000000	96.389263
3602.000000	96.390168
3601.000000	96.390382
3600.000000	96.390129
3599.000000	96.390121
3598.000000	96.390115
3597.000000	96.389483
3596.000000	96.388498
3595.000000	96.388354
3594.000000	96.389368
3593.000000	96.390846
3592.000000	96.391933
3591.000000	96.392028
3590.000000	96.391220
3589.000000	96.390719
3588.000000	96.392065
3587.000000	96.395165
3586.000000	96.398486
3585.000000	96.400890
3584.000000	96.402802
3583.000000	96.405103
3582.000000	96.407388
3581.000000	96.408569
3580.000000	96.408265
3579.000000	96.407202
3578.000000	96.405917
3577.000000	96.404857
3576.000000	96.404825
3575.000000	96.406530
3574.000000	96.409412
3573.000000	96.412100
3572.000000	96.413450
3571.000000	96.412653
3570.000000	96.409393
3569.000000	96.404940
3568.000000	96.401987
3567.000000	96.402141
3566.000000	96.404671
3565.000000	96.408359
3564.000000	96.412996
3563.000000	96.418462
3562.000000	96.423418
3561.000000	96.426345
3560.000000	96.427429
3559.000000	96.428208
3558.000000	96.429556
3557.000000	96.431038
3556.000000	96.431980
3555.000000	96.432133
3554.000000	96.431532
3553.000000	96.430616
3552.000000	96.430327
3551.000000	96.431253
3550.000000	96.432935
3549.000000	96.434601
3548.000000	96.436156
3547.000000	96.437678
3546.000000	96.438694
3545.000000	96.438980
3544.000000	96.439291
3543.000000	96.440291
3542.000000	96.441537
3541.000000	96.442390
3540.000000	96.443111
3539.000000	96.443911
3538.000000	96.443909
3537.000000	96.442409
3536.000000	96.440562
3535.000000	96.440252
3534.000000	96.441724
3533.000000	96.443711
3532.000000	96.445309
3531.000000	96.446469
3530.000000	96.447028
3529.000000	96.446751
3528.000000	96.446065
3527.000000	96.445541
3526.000000	96.444970
3525.000000	96.444016
3524.000000	96.443310
3523.000000	96.443679
3522.000000	96.444776
3521.000000	96.445636
3520.000000	96.446204
3519.000000	96.447066
3518.000000	96.448193
3517.000000	96.449254
3516.000000	96.450598
3515.000000	96.452529
3514.000000	96.454055
3513.000000	96.453843
3512.000000	96.452110
3511.000000	96.450248
3510.000000	96.448904
3509.000000	96.447790
3508.000000	96.447003
3507.000000	96.447068
3506.000000	96.447870
3505.000000	96.448745
3504.000000	96.449375
3503.000000	96.449663
3502.000000	96.449247
3501.000000	96.448141
3500.000000	96.447398
3499.000000	96.447977
3498.000000	96.449328
3497.000000	96.450198
3496.000000	96.450316
3495.000000	96.450146
3494.000000	96.449542
3493.000000	96.448025
3492.000000	96.445949
3491.000000	96.444104
3490.000000	96.442553
3489.000000	96.440979
3488.000000	96.439653
3487.000000	96.438919
3486.000000	96.438354
3485.000000	96.437707
3484.000000	96.437990
3483.000000	96.440157
3482.000000	96.443229
3481.000000	96.445262
3480.000000	96.445802
3479.000000	96.445934
3478.000000	96.446403
3477.000000	96.447090
3476.000000	96.447856
3475.000000	96.448519
3474.000000	96.448432
3473.000000	96.447419
3472.000000	96.446663
3471.000000	96.447270
3470.000000	96.448331
3469.000000	96.447769
3468.000000	96.444825
3467.000000	96.440560
3466.000000	96.436504
3465.000000	96.434038
3464.000000	96.434317
3463.000000	96.437128
3462.000000	96.440127
3461.000000	96.440668
3460.000000	96.438237
3459.000000	96.434156
3458.000000	96.429803
3457.000000	96.426292
3456.000000	96.424787
3455.000000	96.425340
3454.000000	96.426014
3453.000000	96.424755
3452.000000	96.421711
3451.000000	96.418500
3450.000000	96.415962
3449.000000	96.413954
3448.000000	96.412420
3447.000000	96.411010
3446.000000	96.408421
3445.000000	96.403880
3444.000000	96.398820
3443.000000	96.395630
3442.000000	96.395210
3441.000000	96.396944
3440.000000	96.400100
3439.000000	96.403558
3438.000000	96.405040
3437.000000	96.402736
3436.000000	96.397510
3435.000000	96.391897
3434.000000	96.387263
3433.000000	96.383392
3432.000000	96.380070
3431.000000	96.377200
3430.000000	96.373691
3429.000000	96.368205
3428.000000	96.361122
3427.000000	96.354335
3426.000000	96.349164
3425.000000	96.345657
3424.000000	96.343549
3423.000000	96.342347
3422.000000	96.340658
3421.000000	96.337005
3420.000000	96.331524
3419.000000	96.325892
3418.000000	96.321849
3417.000000	96.320580
3416.000000	96.322546
3415.000000	96.326420
3414.000000	96.328881
3413.000000	96.327208
3412.000000	96.321839
3411.000000	96.315151
3410.000000	96.308285
3409.000000	96.300739
3408.000000	96.292625
3407.000000	96.285833
3406.000000	96.283275
3405.000000	96.287895
3404.000000	96.300970
3403.000000	96.318967
3402.000000	96.332793
3401.000000	96.333183
3400.000000	96.318071
3399.000000	96.293806
3398.000000	96.269809
3397.000000	96.253522
3396.000000	96.248978
3395.000000	96.256046
3394.000000	96.269017
3393.000000	96.278003
3392.000000	96.274371
3391.000000	96.256009
3390.000000	96.227996
3389.000000	96.198743
3388.000000	96.174893
3387.000000	96.158193
3386.000000	96.146434
3385.000000	96.137380
3384.000000	96.131089
3383.000000	96.127960
3382.000000	96.126112
3381.000000	96.122622
3380.000000	96.116583
3379.000000	96.109024
3378.000000	96.100136
3377.000000	96.088895
3376.000000	96.076211
3375.000000	96.067007
3374.000000	96.068190
3373.000000	96.084076
3372.000000	96.112359
3371.000000	96.143232
3370.000000	96.163508
3369.000000	96.163937
3368.000000	96.143807
3367.000000	96.109244
3366.000000	96.068795
3365.000000	96.031221
3364.000000	96.004084
3363.000000	95.990043
3362.000000	95.984190
3361.000000	95.977874
3360.000000	95.966229
3359.000000	95.950775
3358.000000	95.935319
3357.000000	95.922282
3356.000000	95.914020
3355.000000	95.914659
3354.000000	95.927159
3353.000000	95.947889
3352.000000	95.965426
3351.000000	95.966740
3350.000000	95.946712
3349.000000	95.912945
3348.000000	95.880861
3347.000000	95.862638
3346.000000	95.859612
3345.000000	95.864246
3344.000000	95.868238
3343.000000	95.868799
3342.000000	95.868565
3341.000000	95.870478
3340.000000	95.872490
3339.000000	95.867217
3338.000000	95.848146
3337.000000	95.816717
3336.000000	95.781905
3335.000000	95.752484
3334.000000	95.731015
3333.000000	95.715327
3332.000000	95.703209
3331.000000	95.694221
3330.000000	95.688929
3329.000000	95.688165
3328.000000	95.691416
3327.000000	95.694313
3326.000000	95.689884
3325.000000	95.674633
3324.000000	95.652257
3323.000000	95.629622
3322.000000	95.610444
3321.000000	95.594656
3320.000000	95.581866
3319.000000	95.572293
3318.000000	95.565311
3317.000000	95.559777
3316.000000	95.555569
3315.000000	95.553076
3314.000000	95.552110
3313.000000	95.553452
3312.000000	95.560252
3311.000000	95.575128
3310.000000	95.596105
3309.000000	95.617096
3308.000000	95.631666
3307.000000	95.635005
3306.000000	95.624169
3305.000000	95.599899
3304.000000	95.568176
3303.000000	95.537023
3302.000000	95.511544
3301.000000	95.493249
3300.000000	95.482650
3299.000000	95.479522
3298.000000	95.480967
3297.000000	95.482505
3296.000000	95.481607
3295.000000	95.478077
3294.000000	95.471089
3293.000000	95.458441
3292.000000	95.439490
3291.000000	95.416828
3290.000000	95.394364
3289.000000	95.375145
3288.000000	95.360754
3287.000000	95.350897
3286.000000	95.343284
3285.000000	95.335517
3284.000000	95.327250
3283.000000	95.319438
3282.000000	95.312067
3281.000000	95.304322
3280.000000	95.296639
3279.000000	95.290404
3278.000000	95.285653
3277.000000	95.281012
3276.000000	95.276044
3275.000000	95.271904
3274.000000	95.269083
3273.000000	95.265647
3272.000000	95.257986
3271.000000	95.242741
3270.000000	95.218825
3269.000000	95.189021
3268.000000	95.159050
3267.000000	95.133454
3266.000000	95.112542
3265.000000	95.093959
3264.000000	95.076154
3263.000000	95.058850
3262.000000	95.041412
3261.000000	95.023250
3260.000000	95.005285
3259.000000	94.988807
3258.000000	94.972978
3257.000000	94.955372
3256.000000	94.934776
3255.000000	94.911807
3254.000000	94.887320
3253.000000	94.862174
3252.000000	94.838357
3251.000000	94.818106
3250.000000	94.801392
3249.000000	94.785463
3248.000000	94.767019
3247.000000	94.744085
3246.000000	94.716633
3245.000000	94.686882
3244.000000	94.658334
3243.000000	94.632807
3242.000000	94.608725
3241.000000	94.583475
3240.000000	94.556833
3239.000000	94.530947
3238.000000	94.507964
3237.000000	94.489134
3236.000000	94.474804
3235.000000	94.463107
3234.000000	94.449732
3233.000000	94.431368
3232.000000	94.409054
3231.000000	94.386342
3230.000000	94.364806
3229.000000	94.343368
3228.000000	94.321212
3227.000000	94.298885
3226.000000	94.276905
3225.000000	94.255399
3224.000000	94.234974
3223.000000	94.215934
3222.000000	94.196793
3221.000000	94.175451
3220.000000	94.151753
3219.000000	94.127221
3218.000000	94.102596
3217.000000	94.077260
3216.000000	94.050648
3215.000000	94.022511
3214.000000	93.992208
3213.000000	93.959552
3212.000000	93.925906
3211.000000	93.892857
3210.000000	93.860303
3209.000000	93.827404
3208.000000	93.794664
3207.000000	93.763330
3206.000000	93.733509
3205.000000	93.704728
3204.000000	93.677695
3203.000000	93.653483
3202.000000	93.631579
3201.000000	93.610721
3200.000000	93.591025
3199.000000	93.573392
3198.000000	93.557383
3197.000000	93.541641
3196.000000	93.525837
3195.000000	93.510147
3194.000000	93.493439
3193.000000	93.474206
3192.000000	93.452893
3191.000000	93.431224
3190.000000	93.409540
3189.000000	93.386739
3188.000000	93.362516
3187.000000	93.337796
3186.000000	93.313291
3185.000000	93.289429
3184.000000	93.267097
3183.000000	93.246454
3182.000000	93.225548
3181.000000	93.202029
3180.000000	93.175813
3179.000000	93.148106
3178.000000	93.118479
3177.000000	93.085107
3176.000000	93.047329
3175.000000	93.005889
3174.000000	92.960964
3173.000000	92.912187
3172.000000	92.860638
3171.000000	92.808848
3170.000000	92.759011
3169.000000	92.712810
3168.000000	92.672369
3167.000000	92.639225
3166.000000	92.612754
3165.000000	92.591280
3164.000000	92.574237
3163.000000	92.561392
3162.000000	92.550446
3161.000000	92.537876
3160.000000	92.522041
3159.000000	92.503779
3158.000000	92.484555
3157.000000	92.465751
3156.000000	92.448808
3155.000000	92.433256
3154.000000	92.414850
3153.000000	92.388317
3152.000000	92.352645
3151.000000	92.311887
3150.000000	92.270813
3149.000000	92.231623
3148.000000	92.194507
3147.000000	92.159105
3146.000000	92.124873
3145.000000	92.091846
3144.000000	92.061409
3143.000000	92.034846
3142.000000	92.010876
3141.000000	91.985798
3140.000000	91.956170
3139.000000	91.920606
3138.000000	91.879691
3137.000000	91.835741
3136.000000	91.792055
3135.000000	91.750694
3134.000000	91.711041
3133.000000	91.671363
3132.000000	91.630896
3131.000000	91.589083
3130.000000	91.544189
3129.000000	91.495002
3128.000000	91.443210
3127.000000	91.392128
3126.000000	91.343626
3125.000000	91.297965
3124.000000	91.255564
3123.000000	91.216427
3122.000000	91.178380
3121.000000	91.138414
3120.000000	91.095749
3119.000000	91.051616
3118.000000	91.006225
3117.000000	90.958064
3116.000000	90.906192
3115.000000	90.851404
3114.000000	90.795372
3113.000000	90.740256
3112.000000	90.688592
3111.000000	90.641476
3110.000000	90.596958
3109.000000	90.551987
3108.000000	90.505685
3107.000000	90.459164
3106.000000	90.412774
3105.000000	90.365479
3104.000000	90.316539
3103.000000	90.265663
3102.000000	90.211595
3101.000000	90.152436
3100.000000	90.087395
3099.000000	90.016920
3098.000000	89.941727
3097.000000	89.863728
3096.000000	89.787637
3095.000000	89.719547
3094.000000	89.663432
3093.000000	89.619839
3092.000000	89.586985
3091.000000	89.561191
3090.000000	89.537178
3089.000000	89.510195
3088.000000	89.478156
3087.000000	89.440217
3086.000000	89.394077
3085.000000	89.336415
3084.000000	89.264943
3083.000000	89.177709
3082.000000	89.068136
3081.000000	88.922234
3080.000000	88.717402
3079.000000	88.423174
3078.000000	88.009071
3077.000000	87.462343
3076.000000	86.809580
3075.000000	86.122887
3074.000000	85.502181
3073.000000	85.040533
3072.000000	84.792401
3071.000000	84.758172
3070.000000	84.892113
3069.000000	85.125677
3068.000000	85.389793
3067.000000	85.631592
3066.000000	85.821892
3065.000000	85.957508
3064.000000	86.057091
3063.000000	86.148487
3062.000000	86.255383
3061.000000	86.389580
3060.000000	86.550337
3059.000000	86.727165
3058.000000	86.904406
3057.000000	87.067192
3056.000000	87.206103
3055.000000	87.317853
3054.000000	87.403139
3053.000000	87.465777
3052.000000	87.511770
3051.000000	87.546460
3050.000000	87.572173
3049.000000	87.588937
3048.000000	87.597039
3047.000000	87.596687
3046.000000	87.586468
3045.000000	87.564568
3044.000000	87.530979
3043.000000	87.487454
3042.000000	87.435380
3041.000000	87.375606
3040.000000	87.309897
3039.000000	87.240568
3038.000000	87.169314
3037.000000	87.097804
3036.000000	87.028888
3035.000000	86.965225
3034.000000	86.906683
3033.000000	86.850670
3032.000000	86.794781
3031.000000	86.737888
3030.000000	86.679331
3029.000000	86.618856
3028.000000	86.557137
3027.000000	86.494953
3026.000000	86.432273
3025.000000	86.369294
3024.000000	86.307516
3023.000000	86.248199
3022.000000	86.190570
3021.000000	86.133291
3020.000000	86.076887
3019.000000	86.022909
3018.000000	85.971355
3017.000000	85.920900
3016.000000	85.871327
3015.000000	85.823829
3014.000000	85.779369
3013.000000	85.738558
3012.000000	85.702760
3011.000000	85.673494
3010.000000	85.650683
3009.000000	85.632804
3008.000000	85.618221
3007.000000	85.604982
3006.000000	85.590257
3005.000000	85.571939
3004.000000	85.550569
3003.000000	85.528201
3002.000000	85.505889
3001.000000	85.483887
3000.000000	85.463516
2999.000000	85.446839
2998.000000	85.434875
2997.000000	85.427762
2996.000000	85.426245
2995.000000	85.430998
2994.000000	85.440742
2993.000000	85.452858
2992.000000	85.465754
2991.000000	85.479159
2990.000000	85.492260
2989.000000	85.502923
2988.000000	85.508242
2987.000000	85.504732
2986.000000	85.489149
2985.000000	85.461686
2984.000000	85.428296
2983.000000	85.398300
2982.000000	85.379455
2981.000000	85.375538
2980.000000	85.386545
2979.000000	85.408431
2978.000000	85.433769
2977.000000	85.455757
2976.000000	85.472503
2975.000000	85.486028
2974.000000	85.497875
2973.000000	85.507704
2972.000000	85.515459
2971.000000	85.522272
2970.000000	85.528897
2969.000000	85.535354
2968.000000	85.542318
2967.000000	85.551032
2966.000000	85.561710
2965.000000	85.573659
2964.000000	85.586893
2963.000000	85.601864
2962.000000	85.617644
2961.000000	85.632108
2960.000000	85.643844
2959.000000	85.652404
2958.000000	85.656951
2957.000000	85.656497
2956.000000	85.651432
2955.000000	85.643298
2954.000000	85.633240
2953.000000	85.621952
2952.000000	85.610713
2951.000000	85.600938
2950.000000	85.593292
2949.000000	85.588618
2948.000000	85.589150
2947.000000	85.597398
2946.000000	85.614565
2945.000000	85.641490
2944.000000	85.679555
2943.000000	85.728631
2942.000000	85.785131
2941.000000	85.844556
2940.000000	85.905397
2939.000000	85.968360
2938.000000	86.032841
2937.000000	86.096738
2936.000000	86.159102
2935.000000	86.220117
2934.000000	86.278579
2933.000000	86.332031
2932.000000	86.379114
2931.000000	86.419551
2930.000000	86.451969
2929.000000	86.474341
2928.000000	86.486456
2927.000000	86.489555
2926.000000	86.483844
2925.000000	86.468478
2924.000000	86.443875
2923.000000	86.411697
2922.000000	86.372870
2921.000000	86.327791
2920.000000	86.277903
2919.000000	86.225032
2918.000000	86.169673
2917.000000	86.112168
2916.000000	86.054827
2915.000000	86.000367
2914.000000	85.948763
2913.000000	85.897794
2912.000000	85.846015
2911.000000	85.792847
2910.000000	85.736811
2909.000000	85.676935
2908.000000	85.615706
2907.000000	85.557472
2906.000000	85.503391
2905.000000	85.450360
2904.000000	85.395070
2903.000000	85.336587
2902.000000	85.274791
2901.000000	85.209066
2900.000000	85.139451
2899.000000	85.067163
2898.000000	84.993207
2897.000000	84.918004
2896.000000	84.842686
2895.000000	84.768949
2894.000000	84.697327
2893.000000	84.627160
2892.000000	84.558391
2891.000000	84.491872
2890.000000	84.427979
2889.000000	84.366894
2888.000000	84.310310
2887.000000	84.261029
2886.000000	84.220496
2885.000000	84.188040
2884.000000	84.162364
2883.000000	84.142031
2882.000000	84.124650
2881.000000	84.107666
2880.000000	84.090323
2879.000000	84.073350
2878.000000	84.056878
2877.000000	84.040637
2876.000000	84.026188
2875.000000	84.016719
2874.000000	84.014112
2873.000000	84.017894
2872.000000	84.027454
2871.000000	84.043507
2870.000000	84.066926
2869.000000	84.097825
2868.000000	84.136116
2867.000000	84.181289
2866.000000	84.231044
2865.000000	84.281680
2864.000000	84.329927
2863.000000	84.372799
2862.000000	84.405712
2861.000000	84.422673
2860.000000	84.419285
2859.000000	84.394181
2858.000000	84.347462
2857.000000	84.279717
2856.000000	84.192867
2855.000000	84.090286
2854.000000	83.975659
2853.000000	83.853088
2852.000000	83.727987
2851.000000	83.605748
2850.000000	83.488656
2849.000000	83.375551
2848.000000	83.265085
2847.000000	83.157838
2846.000000	83.055364
2845.000000	82.958876
2844.000000	82.869492
2843.000000	82.788359
2842.000000	82.715324
2841.000000	82.647995
2840.000000	82.582624
2839.000000	82.516023
2838.000000	82.447461
2837.000000	82.379817
2836.000000	82.318414
2835.000000	82.267241
2834.000000	82.226174
2833.000000	82.192585
2832.000000	82.164996
2831.000000	82.143988
2830.000000	82.130307
2829.000000	82.123814
2828.000000	82.124177
2827.000000	82.131009
2826.000000	82.143238
2825.000000	82.159826
2824.000000	82.181037
2823.000000	82.207690
2822.000000	82.239422
2821.000000	82.274969
2820.000000	82.314006
2819.000000	82.357080
2818.000000	82.403859
2817.000000	82.453214
2816.000000	82.505136
2815.000000	82.561127
2814.000000	82.622387
2813.000000	82.688820
2812.000000	82.759824
2811.000000	82.834640
2810.000000	82.912025
2809.000000	82.991080
2808.000000	83.072537
2807.000000	83.157906
2806.000000	83.247211
2805.000000	83.338836
2804.000000	83.431527
2803.000000	83.525139
2802.000000	83.619468
2801.000000	83.713805
2800.000000	83.807720
2799.000000	83.901088
2798.000000	83.993425
2797.000000	84.084502
2796.000000	84.175396
2795.000000	84.267410
2794.000000	84.360140
2793.000000	84.451905
2792.000000	84.541566
2791.000000	84.628252
2790.000000	84.709501
2789.000000	84.781675
2788.000000	84.842458
2787.000000	84.891351
2786.000000	84.928210
2785.000000	84.953383
2784.000000	84.969514
2783.000000	84.981838
2782.000000	84.996489
2781.000000	85.019490
2780.000000	85.056409
2779.000000	85.110198
2778.000000	85.178823
2777.000000	85.256705
2776.000000	85.338759
2775.000000	85.421863
2774.000000	85.503125
2773.000000	85.579033
2772.000000	85.646541
2771.000000	85.703381
2770.000000	85.747305
2769.000000	85.777222
2768.000000	85.795719
2767.000000	85.808709
2766.000000	85.822039
2765.000000	85.839549
2764.000000	85.863673
2763.000000	85.895535
2762.000000	85.933907
2761.000000	85.975680
2760.000000	86.018071
2759.000000	86.059509
2758.000000	86.098853
2757.000000	86.135804
2756.000000	86.172224
2755.000000	86.211260
2754.000000	86.254955
2753.000000	86.303908
2752.000000	86.358827
2751.000000	86.420338
2750.000000	86.487132
2749.000000	86.556273
2748.000000	86.625486
2747.000000	86.693259
2746.000000	86.756783
2745.000000	86.812060
2744.000000	86.856457
2743.000000	86.889511
2742.000000	86.910840
2741.000000	86.919018
2740.000000	86.913238
2739.000000	86.894182
2738.000000	86.862874
2737.000000	86.820294
2736.000000	86.768248
2735.000000	86.709534
2734.000000	86.646759
2733.000000	86.582052
2732.000000	86.517976
2731.000000	86.457244
2730.000000	86.401769
2729.000000	86.353553
2728.000000	86.316023
2727.000000	86.292681
2726.000000	86.284585
2725.000000	86.290362
2724.000000	86.308682
2723.000000	86.338986
2722.000000	86.379880
2721.000000	86.429306
2720.000000	86.486162
2719.000000	86.550052
2718.000000	86.619361
2717.000000	86.691052
2716.000000	86.762798
2715.000000	86.833602
2714.000000	86.902096
2713.000000	86.965820
2712.000000	87.022129
2711.000000	87.068015
2710.000000	87.099404
2709.000000	87.112356
2708.000000	87.104835
2707.000000	87.076303
2706.000000	87.025392
2705.000000	86.950318
2704.000000	86.851344
2703.000000	86.730161
2702.000000	86.587931
2701.000000	86.425446
2700.000000	86.245418
2699.000000	86.052613
2698.000000	85.850843
2697.000000	85.642494
2696.000000	85.430742
2695.000000	85.220083
2694.000000	85.014344
2693.000000	84.815619
2692.000000	84.625490
2691.000000	84.445571
2690.000000	84.276346
2689.000000	84.116974
2688.000000	83.966894
2687.000000	83.826154
2686.000000	83.694294
2685.000000	83.570486
2684.000000	83.454677
2683.000000	83.347541
2682.000000	83.248952
2681.000000	83.158068
2680.000000	83.075265
2679.000000	83.002003
2678.000000	82.938846
2677.000000	82.884630
2676.000000	82.837807
2675.000000	82.797502
2674.000000	82.762828
2673.000000	82.732988
2672.000000	82.708109
2671.000000	82.688744
2670.000000	82.674596
2669.000000	82.664644
2668.000000	82.658688
2667.000000	82.657315
2666.000000	82.660324
2665.000000	82.666884
2664.000000	82.676973
2663.000000	82.691261
2662.000000	82.709444
2661.000000	82.730305
2660.000000	82.753837
2659.000000	82.781505
2658.000000	82.814090
2657.000000	82.850686
2656.000000	82.890045
2655.000000	82.931539
2654.000000	82.974270
2653.000000	83.016528
2652.000000	83.056446
2651.000000	83.092023
2650.000000	83.120595
2649.000000	83.140158
2648.000000	83.151712
2647.000000	83.159210
2646.000000	83.167365
2645.000000	83.180595
2644.000000	83.203095
2643.000000	83.237229
2642.000000	83.281391
2641.000000	83.331393
2640.000000	83.384732
2639.000000	83.442019
2638.000000	83.504508
2637.000000	83.572645
2636.000000	83.647030
2635.000000	83.728729
2634.000000	83.817753
2633.000000	83.912787
2632.000000	84.012788
2631.000000	84.116869
2630.000000	84.222509
2629.000000	84.325879
2628.000000	84.424219
2627.000000	84.515899
2626.000000	84.598335
2625.000000	84.667935
2624.000000	84.722560
2623.000000	84.762304
2622.000000	84.787264
2621.000000	84.797380
2620.000000	84.793839
2619.000000	84.778157
2618.000000	84.749904
2617.000000	84.706637
2616.000000	84.646729
2615.000000	84.569843
2614.000000	84.475399
2613.000000	84.364155
2612.000000	84.240945
2611.000000	84.113656
2610.000000	83.989456
2609.000000	83.874371
2608.000000	83.775715
2607.000000	83.701352
2606.000000	83.655457
2605.000000	83.637424
2604.000000	83.645347
2603.000000	83.677265
2602.000000	83.730021
2601.000000	83.799555
2600.000000	83.882942
2599.000000	83.978462
2598.000000	84.082891
2597.000000	84.191861
2596.000000	84.302443
2595.000000	84.412383
2594.000000	84.517298
2593.000000	84.611677
2592.000000	84.692401
2591.000000	84.758158
2590.000000	84.806174
2589.000000	84.832727
2588.000000	84.837181
2587.000000	84.820878
2586.000000	84.782176
2585.000000	84.717341
2584.000000	84.625483
2583.000000	84.509589
2582.000000	84.371816
2581.000000	84.211918
2580.000000	84.031480
2579.000000	83.834773
2578.000000	83.625771
2577.000000	83.407430
2576.000000	83.184088
2575.000000	82.961280
2574.000000	82.742450
2573.000000	82.529390
2572.000000	82.325879
2571.000000	82.137430
2570.000000	81.966843
2569.000000	81.813632
2568.000000	81.677194
2567.000000	81.556907
2566.000000	81.449764
2565.000000	81.351454
2564.000000	81.261169
2563.000000	81.181450
2562.000000	81.112755
2561.000000	81.052360
2560.000000	80.998490
2559.000000	80.952303
2558.000000	80.914815
2557.000000	80.885320
2556.000000	80.864197
2555.000000	80.853094
2554.000000	80.851854
2553.000000	80.858389
2552.000000	80.872186
2551.000000	80.894983
2550.000000	80.926649
2549.000000	80.964148
2548.000000	81.005621
2547.000000	81.052085
2546.000000	81.104485
2545.000000	81.161944
2544.000000	81.223930
2543.000000	81.290984
2542.000000	81.362137
2541.000000	81.434877
2540.000000	81.508178
2539.000000	81.582685
2538.000000	81.657762
2537.000000	81.731891
2536.000000	81.806429
2535.000000	81.884879
2534.000000	81.967418
2533.000000	82.049952
2532.000000	82.129547
2531.000000	82.207258
2530.000000	82.284649
2529.000000	82.361329
2528.000000	82.437286
2527.000000	82.514094
2526.000000	82.592365
2525.000000	82.670772
2524.000000	82.748522
2523.000000	82.825962
2522.000000	82.902478
2521.000000	82.976906
2520.000000	83.050006
2519.000000	83.122987
2518.000000	83.193716
2517.000000	83.258661
2516.000000	83.318714
2515.000000	83.378722
2514.000000	83.440628
2513.000000	83.501269
2512.000000	83.557612
2511.000000	83.609803
2510.000000	83.658413
2509.000000	83.703290
2508.000000	83.746153
2507.000000	83.790177
2506.000000	83.835826
2505.000000	83.881028
2504.000000	83.926194
2503.000000	83.974857
2502.000000	84.028688
2501.000000	84.086114
2500.000000	84.146761
2499.000000	84.212579
2498.000000	84.283528
2497.000000	84.356328
2496.000000	84.428804
2495.000000	84.501485
2494.000000	84.573864
2493.000000	84.643458
2492.000000	84.709617
2491.000000	84.774139
2490.000000	84.836923
2489.000000	84.895235
2488.000000	84.948056
2487.000000	84.997103
2486.000000	85.042772
2485.000000	85.083451
2484.000000	85.119874
2483.000000	85.155394
2482.000000	85.190879
2481.000000	85.224015
2480.000000	85.254743
2479.000000	85.286690
2478.000000	85.321599
2477.000000	85.356760
2476.000000	85.389762
2475.000000	85.421887
2474.000000	85.455381
2473.000000	85.491088
2472.000000	85.529999
2471.000000	85.573275
2470.000000	85.619803
2469.000000	85.667311
2468.000000	85.716607
2467.000000	85.770773
2466.000000	85.829575
2465.000000	85.889210
2464.000000	85.948177
2463.000000	86.008850
2462.000000	86.072199
2461.000000	86.135530
2460.000000	86.196724
2459.000000	86.256301
2458.000000	86.314055
2457.000000	86.368014
2456.000000	86.418273
2455.000000	86.467741
2454.000000	86.517771
2453.000000	86.566807
2452.000000	86.614129
2451.000000	86.660940
2450.000000	86.707000
2449.000000	86.750513
2448.000000	86.792142
2447.000000	86.834713
2446.000000	86.878408
2445.000000	86.920543
2444.000000	86.960551
2443.000000	87.000427
2442.000000	87.039792
2441.000000	87.075774
2440.000000	87.108556
2439.000000	87.141816
2438.000000	87.176551
2437.000000	87.209446
2436.000000	87.238610
2435.000000	87.266098
2434.000000	87.293412
2433.000000	87.319307
2432.000000	87.343384
2431.000000	87.367431
2430.000000	87.391920
2429.000000	87.415307
2428.000000	87.437776
2427.000000	87.461452
2426.000000	87.486221
2425.000000	87.509490
2424.000000	87.530712
2423.000000	87.552005
2422.000000	87.574017
2421.000000	87.595409
2420.000000	87.616514
2419.000000	87.639162
2418.000000	87.662916
2417.000000	87.685988
2416.000000	87.709547
2415.000000	87.736310
2414.000000	87.765346
2413.000000	87.793476
2412.000000	87.821584
2411.000000	87.853922
2410.000000	87.891023
2409.000000	87.928972
2408.000000	87.965723
2407.000000	88.002518
2406.000000	88.038726
2405.000000	88.071366
2404.000000	88.100666
2403.000000	88.130389
2402.000000	88.161619
2401.000000	88.191510
2400.000000	88.218918
2399.000000	88.245931
2398.000000	88.273218
2397.000000	88.299392
2396.000000	88.325915
2395.000000	88.356930
2394.000000	88.392835
2393.000000	88.428969
2392.000000	88.461887
2391.000000	88.492310
2390.000000	88.520853
2389.000000	88.545904
2388.000000	88.567030
2387.000000	88.585990
2386.000000	88.603321
2385.000000	88.618331
2384.000000	88.633377
2383.000000	88.653785
2382.000000	88.682377
2381.000000	88.717630
2380.000000	88.757200
2379.000000	88.798398
2378.000000	88.835126
2377.000000	88.860532
2376.000000	88.874842
2375.000000	88.885611
2374.000000	88.898392
2373.000000	88.912471
2372.000000	88.927035
2371.000000	88.944401
2370.000000	88.964691
2369.000000	88.984923
2368.000000	89.005720
2367.000000	89.030780
2366.000000	89.058477
2365.000000	89.083612
2364.000000	89.106755
2363.000000	89.131423
2362.000000	89.157328
2361.000000	89.180964
2360.000000	89.201937
2359.000000	89.228961
2358.000000	89.262999
2357.000000	89.294218
2356.000000	89.317103
2355.000000	89.329020
2354.000000	89.333559
2353.000000	89.338760
2352.000000	89.357560
2351.000000	89.390939
2350.000000	89.425131
2349.000000	89.447159
2348.000000	89.454830
2347.000000	89.459988
2346.000000	89.471826
2345.000000	89.492375
2344.000000	89.520879
2343.000000	89.555252
2342.000000	89.600623
2341.000000	89.652747
2340.000000	89.700401
2339.000000	89.735911
2338.000000	89.759099
2337.000000	89.773376
2336.000000	89.784219
2335.000000	89.796316
2334.000000	89.806995
2333.000000	89.810254
2332.000000	89.803739
2331.000000	89.791602
2330.000000	89.775066
2329.000000	89.764427
2328.000000	89.769016
2327.000000	89.800308
2326.000000	89.851154
2325.000000	89.907954
2324.000000	89.959411
2323.000000	90.002865
2322.000000	90.038379
2321.000000	90.063328
2320.000000	90.079512
2319.000000	90.094992
2318.000000	90.114244
2317.000000	90.137379
2316.000000	90.160410
2315.000000	90.183404
2314.000000	90.200916
2313.000000	90.210555
2312.000000	90.214556
2311.000000	90.223512
2310.000000	90.239152
2309.000000	90.258017
2308.000000	90.276043
2307.000000	90.296519
2306.000000	90.318477
2305.000000	90.336776
2304.000000	90.348273
2303.000000	90.357766
2302.000000	90.369355
2301.000000	90.383604
2300.000000	90.400010
2299.000000	90.422076
2298.000000	90.448816
2297.000000	90.476202
2296.000000	90.500845
2295.000000	90.525859
2294.000000	90.551183
2293.000000	90.573988
2292.000000	90.593395
2291.000000	90.613961
2290.000000	90.637077
2289.000000	90.659525
2288.000000	90.680949
2287.000000	90.705872
2286.000000	90.735627
2285.000000	90.765523
2284.000000	90.794172
2283.000000	90.825716
2282.000000	90.861457
2281.000000	90.895999
2280.000000	90.926706
2279.000000	90.956402
2278.000000	90.985695
2277.000000	91.011142
2276.000000	91.034479
2275.000000	91.062657
2274.000000	91.095204
2273.000000	91.123392
2272.000000	91.143581
2271.000000	91.161074
2270.000000	91.177149
2269.000000	91.186196
2268.000000	91.188592
2267.000000	91.192917
2266.000000	91.200704
2265.000000	91.202939
2264.000000	91.195995
2263.000000	91.188506
2262.000000	91.187197
2261.000000	91.189664
2260.000000	91.195559
2259.000000	91.210170
2258.000000	91.232526
2257.000000	91.252113
2256.000000	91.264129
2255.000000	91.274060
2254.000000	91.283928
2253.000000	91.288409
2252.000000	91.288816
2251.000000	91.295757
2250.000000	91.312097
2249.000000	91.328554
2248.000000	91.340253
2247.000000	91.353543
2246.000000	91.371637
2245.000000	91.389553
2244.000000	91.407458
2243.000000	91.433460
2242.000000	91.467994
2241.000000	91.501654
2240.000000	91.532765
2239.000000	91.570400
2238.000000	91.615295
2237.000000	91.655810
2236.000000	91.688021
2235.000000	91.721299
2234.000000	91.758455
2233.000000	91.789244
2232.000000	91.810150
2231.000000	91.831089
2230.000000	91.856316
2229.000000	91.877645
2228.000000	91.893275
2227.000000	91.913181
2226.000000	91.939329
2225.000000	91.960437
2224.000000	91.972801
2223.000000	91.985896
2222.000000	92.001048
2221.000000	92.006560
2220.000000	92.000789
2219.000000	91.998210
2218.000000	92.004938
2217.000000	92.010608
2216.000000	92.011791
2215.000000	92.020870
2214.000000	92.042850
2213.000000	92.065974
2212.000000	92.083796
2211.000000	92.104501
2210.000000	92.130300
2209.000000	92.150332
2208.000000	92.162365
2207.000000	92.178559
2206.000000	92.202066
2205.000000	92.220618
2204.000000	92.230686
2203.000000	92.243821
2202.000000	92.262476
2201.000000	92.274336
2200.000000	92.277547
2199.000000	92.284889
2198.000000	92.296330
2197.000000	92.295254
2196.000000	92.279667
2195.000000	92.268852
2194.000000	92.270149
2193.000000	92.268461
2192.000000	92.257261
2191.000000	92.250340
2190.000000	92.252338
2189.000000	92.248815
2188.000000	92.236883
2187.000000	92.235247
2186.000000	92.250375
2185.000000	92.262975
2184.000000	92.261533
2183.000000	92.259114
2182.000000	92.264717
2181.000000	92.269435
2180.000000	92.273369
2179.000000	92.292296
2178.000000	92.325812
2177.000000	92.350699
2176.000000	92.358051
2175.000000	92.365009
2174.000000	92.379835
2173.000000	92.390323
2172.000000	92.396155
2171.000000	92.415728
2170.000000	92.449012
2169.000000	92.469519
2168.000000	92.468020
2167.000000	92.470521
2166.000000	92.496594
2165.000000	92.534951
2164.000000	92.575913
2163.000000	92.630013
2162.000000	92.693444
2161.000000	92.734735
2160.000000	92.741195
2159.000000	92.739408
2158.000000	92.747162
2157.000000	92.754606
2156.000000	92.764328
2155.000000	92.796656
2154.000000	92.849854
2153.000000	92.898803
2152.000000	92.937803
2151.000000	92.985102
2150.000000	93.041384
2149.000000	93.083151
2148.000000	93.103056
2147.000000	93.117854
2146.000000	93.130688
2145.000000	93.125557
2144.000000	93.105176
2143.000000	93.095968
2142.000000	93.106432
2141.000000	93.116030
2140.000000	93.112100
2139.000000	93.105883
2138.000000	93.103724
2137.000000	93.095339
2136.000000	93.078949
2135.000000	93.068180
2134.000000	93.065157
2133.000000	93.054548
2132.000000	93.031235
2131.000000	93.008162
2130.000000	92.992625
2129.000000	92.977542
2128.000000	92.960593
2127.000000	92.949450
2126.000000	92.943899
2125.000000	92.933308
2124.000000	92.916562
2123.000000	92.904221
2122.000000	92.897330
2121.000000	92.884902
2120.000000	92.866955
2119.000000	92.858996
2118.000000	92.867573
2117.000000	92.880894
2116.000000	92.889171
2115.000000	92.895074
2114.000000	92.898169
2113.000000	92.889516
2112.000000	92.869152
2111.000000	92.850550
2110.000000	92.840463
2109.000000	92.832413
2108.000000	92.824762
2107.000000	92.824969
2106.000000	92.830512
2105.000000	92.826430
2104.000000	92.808440
2103.000000	92.788012
2102.000000	92.768956
2101.000000	92.739831
2100.000000	92.695912
2099.000000	92.646660
2098.000000	92.595248
2097.000000	92.532234
2096.000000	92.456560
2095.000000	92.381617
2094.000000	92.314913
2093.000000	92.252988
2092.000000	92.200207
2091.000000	92.170223
2090.000000	92.163731
2089.000000	92.166644
2088.000000	92.175349
2087.000000	92.202117
2086.000000	92.249865
2085.000000	92.304833
2084.000000	92.360666
2083.000000	92.426680
2082.000000	92.504079
2081.000000	92.578498
2080.000000	92.645649
2079.000000	92.719842
2078.000000	92.806946
2077.000000	92.892628
2076.000000	92.967979
2075.000000	93.041746
2074.000000	93.117035
2073.000000	93.181435
2072.000000	93.231434
2071.000000	93.280409
2070.000000	93.332328
2069.000000	93.374127
2068.000000	93.403442
2067.000000	93.435936
2066.000000	93.475692
2065.000000	93.507988
2064.000000	93.531038
2063.000000	93.563790
2062.000000	93.611208
2061.000000	93.654542
2060.000000	93.687068
2059.000000	93.727466
2058.000000	93.784911
2057.000000	93.842773
2056.000000	93.889390
2055.000000	93.933224
2054.000000	93.975241
2053.000000	93.999430
2052.000000	94.003782
2051.000000	94.007177
2050.000000	94.012807
2049.000000	93.999159
2048.000000	93.964487
2047.000000	93.939232
2046.000000	93.936868
2045.000000	93.936278
2044.000000	93.927593
2043.000000	93.928634
2042.000000	93.941194
2041.000000	93.939844
2040.000000	93.920557
2039.000000	93.911225
2038.000000	93.917787
2037.000000	93.912749
2036.000000	93.893012
2035.000000	93.892376
2034.000000	93.916159
2033.000000	93.925942
2032.000000	93.910286
2031.000000	93.904962
2030.000000	93.922141
2029.000000	93.926335
2028.000000	93.901494
2027.000000	93.876892
2026.000000	93.866908
2025.000000	93.849129
2024.000000	93.820632
2023.000000	93.810886
2022.000000	93.821672
2021.000000	93.818399
2020.000000	93.798548
2019.000000	93.802233
2018.000000	93.837265
2017.000000	93.860494
2016.000000	93.854465
2015.000000	93.855000
2014.000000	93.880135
2013.000000	93.899946
2012.000000	93.897907
2011.000000	93.898303
2010.000000	93.909959
2009.000000	93.905254
2008.000000	93.878374
2007.000000	93.863916
2006.000000	93.875134
2005.000000	93.885980
2004.000000	93.888927
2003.000000	93.906768
2002.000000	93.935189
2001.000000	93.934254
2000.000000	93.891406
1999.000000	93.836983
1998.000000	93.784871
1997.000000	93.714209
1996.000000	93.624080
1995.000000	93.547551
1994.000000	93.493526
1993.000000	93.430085
1992.000000	93.348434
1991.000000	93.289691
1990.000000	93.281868
1989.000000	93.304376
1988.000000	93.336682
1987.000000	93.388524
1986.000000	93.458396
1985.000000	93.514262
1984.000000	93.541388
1983.000000	93.560548
1982.000000	93.575726
1981.000000	93.554813
1980.000000	93.487208
1979.000000	93.407765
1978.000000	93.333409
1977.000000	93.232219
1976.000000	93.086868
1975.000000	92.924340
1974.000000	92.763421
1973.000000	92.603692
1972.000000	92.480515
1971.000000	92.460717
1970.000000	92.562886
1969.000000	92.737179
1968.000000	92.934542
1967.000000	93.138982
1966.000000	93.321984
1965.000000	93.437152
1964.000000	93.482780
1963.000000	93.505415
1962.000000	93.526469
1961.000000	93.523527
1960.000000	93.493172
1959.000000	93.466954
1958.000000	93.453382
1957.000000	93.426738
1956.000000	93.384796
1955.000000	93.361030
1954.000000	93.367998
1953.000000	93.380464
1952.000000	93.385914
1951.000000	93.401003
1950.000000	93.426632
1949.000000	93.437209
1948.000000	93.426794
1947.000000	93.418740
1946.000000	93.418165
1945.000000	93.401023
1944.000000	93.358771
1943.000000	93.308599
1942.000000	93.250651
1941.000000	93.161114
1940.000000	93.037627
1939.000000	92.904432
1938.000000	92.767945
1937.000000	92.612522
1936.000000	92.448174
1935.000000	92.319373
1934.000000	92.253852
1933.000000	92.238831
1932.000000	92.255117
1931.000000	92.295476
1930.000000	92.339339
1929.000000	92.351344
1928.000000	92.322609
1927.000000	92.279287
1926.000000	92.238480
1925.000000	92.189540
1924.000000	92.125862
1923.000000	92.059862
1922.000000	91.995995
1921.000000	91.921153
1920.000000	91.833862
1919.000000	91.752565
1918.000000	91.685091
1917.000000	91.623380
1916.000000	91.579167
1915.000000	91.586540
1914.000000	91.657878
1913.000000	91.768399
1912.000000	91.892191
1911.000000	92.025591
1910.000000	92.161977
1909.000000	92.277134
1908.000000	92.360599
1907.000000	92.429134
1906.000000	92.493727
1905.000000	92.544385
1904.000000	92.578491
1903.000000	92.611342
1902.000000	92.647817
1901.000000	92.673586
1900.000000	92.685796
1899.000000	92.702239
1898.000000	92.729418
1897.000000	92.752662
1896.000000	92.766735
1895.000000	92.785488
1894.000000	92.811218
1893.000000	92.827486
1892.000000	92.832873
1891.000000	92.849117
1890.000000	92.883630
1889.000000	92.916225
1888.000000	92.936333
1887.000000	92.958404
1886.000000	92.989548
1885.000000	93.016091
1884.000000	93.032017
1883.000000	93.050384
1882.000000	93.075747
1881.000000	93.094406
1880.000000	93.103474
1879.000000	93.119580
1878.000000	93.147748
1877.000000	93.171556
1876.000000	93.185248
1875.000000	93.204062
1874.000000	93.231942
1873.000000	93.251358
1872.000000	93.257095
1871.000000	93.270559
1870.000000	93.306037
1869.000000	93.348396
1868.000000	93.383680
1867.000000	93.421023
1866.000000	93.463612
1865.000000	93.497397
1864.000000	93.519787
1863.000000	93.546602
1862.000000	93.582001
1861.000000	93.610528
1860.000000	93.628149
1859.000000	93.650993
1858.000000	93.683126
1857.000000	93.706451
1856.000000	93.714098
1855.000000	93.721856
1854.000000	93.736530
1853.000000	93.743327
1852.000000	93.736137
1851.000000	93.729798
1850.000000	93.729149
1849.000000	93.715775
1848.000000	93.680527
1847.000000	93.642031
1846.000000	93.620596
1845.000000	93.616863
1844.000000	93.622561
1843.000000	93.632870
1842.000000	93.636377
1841.000000	93.618421
1840.000000	93.583892
1839.000000	93.553481
1838.000000	93.531447
1837.000000	93.500978
1836.000000	93.456265
1835.000000	93.408250
1834.000000	93.354709
1833.000000	93.278298
1832.000000	93.181678
1831.000000	93.092696
1830.000000	93.021228
1829.000000	92.946814
1828.000000	92.862311
1827.000000	92.787592
1826.000000	92.734836
1825.000000	92.693458
1824.000000	92.660585
1823.000000	92.653913
1822.000000	92.679917
1821.000000	92.721228
1820.000000	92.764525
1819.000000	92.813075
1818.000000	92.861639
1817.000000	92.890395
1816.000000	92.895322
1815.000000	92.895277
1814.000000	92.898152
1813.000000	92.890510
1812.000000	92.868112
1811.000000	92.847189
1810.000000	92.834213
1809.000000	92.813528
1808.000000	92.777216
1807.000000	92.737111
1806.000000	92.698184
1805.000000	92.647966
1804.000000	92.581198
1803.000000	92.509244
1802.000000	92.436704
1801.000000	92.355595
1800.000000	92.273339
1799.000000	92.212370
1798.000000	92.170987
1797.000000	92.118833
1796.000000	92.040202
1795.000000	91.954477
1794.000000	91.887545
1793.000000	91.845146
1792.000000	91.821773
1791.000000	91.818614
1790.000000	91.831566
1789.000000	91.848753
1788.000000	91.875126
1787.000000	91.934349
1786.000000	92.034928
1785.000000	92.153805
1784.000000	92.269354
1783.000000	92.387584
1782.000000	92.517333
1781.000000	92.645336
1780.000000	92.757546
1779.000000	92.860270
1778.000000	92.958328
1777.000000	93.038090
1776.000000	93.092474
1775.000000	93.140876
1774.000000	93.209880
1773.000000	93.306737
1772.000000	93.421043
1771.000000	93.546084
1770.000000	93.672889
1769.000000	93.783201
1768.000000	93.871946
1767.000000	93.952241
1766.000000	94.024565
1765.000000	94.074009
1764.000000	94.107228
1763.000000	94.158267
1762.000000	94.235185
1761.000000	94.296727
1760.000000	94.314547
1759.000000	94.308715
1758.000000	94.300147
1757.000000	94.275106
1756.000000	94.220414
1755.000000	94.155893
1754.000000	94.099665
1753.000000	94.043407
1752.000000	93.986883
1751.000000	93.956425
1750.000000	93.963440
1749.000000	93.987048
1748.000000	94.023783
1747.000000	94.100100
1746.000000	94.220698
1745.000000	94.351816
1744.000000	94.468894
1743.000000	94.580855
1742.000000	94.695838
1741.000000	94.806036
1740.000000	94.912283
1739.000000	95.018195
1738.000000	95.096682
1737.000000	95.113951
1736.000000	95.090895
1735.000000	95.107701
1734.000000	95.181573
1733.000000	95.212494
1732.000000	95.149960
1731.000000	95.042503
1730.000000	94.914331
1729.000000	94.729268
1728.000000	94.466347
1727.000000	94.153874
1726.000000	93.803405
1725.000000	93.378937
1724.000000	92.865211
1723.000000	92.303066
1722.000000	91.726446
1721.000000	91.120852
1720.000000	90.473048
1719.000000	89.813156
1718.000000	89.163568
1717.000000	88.504914
1716.000000	87.843844
1715.000000	87.226953
1714.000000	86.657391
1713.000000	86.078686
1712.000000	85.447215
1711.000000	84.760458
1710.000000	84.001865
1709.000000	83.123827
1708.000000	82.108080
1707.000000	80.993475
1706.000000	79.836024
1705.000000	78.696973
1704.000000	77.641222
1703.000000	76.674473
1702.000000	75.717725
1701.000000	74.696972
1700.000000	73.666459
1699.000000	72.743976
1698.000000	71.877012
1697.000000	70.869393
1696.000000	69.613841
1695.000000	68.225161
1694.000000	66.854320
1693.000000	65.476347
1692.000000	63.994752
1691.000000	62.391280
1690.000000	60.736084
1689.000000	59.125039
1688.000000	57.625528
1687.000000	56.251948
1686.000000	54.977228
1685.000000	53.810726
1684.000000	52.857917
1683.000000	52.204629
1682.000000	51.781729
1681.000000	51.476514
1680.000000	51.255258
1679.000000	51.129461
1678.000000	51.103507
1677.000000	51.200145
1676.000000	51.483373
1675.000000	51.971787
1674.000000	52.553872
1673.000000	53.114639
1672.000000	53.685626
1671.000000	54.400506
1670.000000	55.352094
1669.000000	56.470007
1668.000000	57.576212
1667.000000	58.561041
1666.000000	59.442548
1665.000000	60.311313
1664.000000	61.253648
1663.000000	62.274451
1662.000000	63.283079
1661.000000	64.195307
1660.000000	65.010205
1659.000000	65.765268
1658.000000	66.473919
1657.000000	67.119109
1656.000000	67.700168
1655.000000	68.300526
1654.000000	69.116707
1653.000000	70.200502
1652.000000	71.223871
1651.000000	71.946887
1650.000000	72.488221
1649.000000	73.053487
1648.000000	73.765502
1647.000000	74.608200
1646.000000	75.454842
1645.000000	76.205004
1644.000000	76.850947
1643.000000	77.431871
1642.000000	77.988888
1641.000000	78.538330
1640.000000	79.058135
1639.000000	79.517802
1638.000000	79.934264
1637.000000	80.380259
1636.000000	80.902679
1635.000000	81.444204
1634.000000	81.918092
1633.000000	82.313935
1632.000000	82.660268
1631.000000	82.966522
1630.000000	83.233646
1629.000000	83.466885
1628.000000	83.658030
1627.000000	83.784207
1626.000000	83.844137
1625.000000	83.870243
1624.000000	83.881892
1623.000000	83.836019
1622.000000	83.660238
1621.000000	83.343835
1620.000000	82.971639
1619.000000	82.708954
1618.000000	82.767632
1617.000000	83.256262
1616.000000	83.983321
1615.000000	84.611764
1614.000000	84.990229
1613.000000	85.137847
1612.000000	85.066845
1611.000000	84.739854
1610.000000	84.132671
1609.000000	83.260131
1608.000000	82.156886
1607.000000	80.880657
1606.000000	79.519446
1605.000000	78.167731
1604.000000	76.916279
1603.000000	75.885730
1602.000000	75.225469
1601.000000	75.061586
1600.000000	75.445074
1599.000000	76.344562
1598.000000	77.646965
1597.000000	79.178491
1596.000000	80.765038
1595.000000	82.272280
1594.000000	83.615837
1593.000000	84.738218
1592.000000	85.565838
1591.000000	85.955231
1590.000000	85.697116
1589.000000	84.596895
1588.000000	82.616138
1587.000000	80.000864
1586.000000	77.263828
1585.000000	74.974383
1584.000000	73.495394
1583.000000	72.892984
1582.000000	73.010225
1581.000000	73.580243
1580.000000	74.344581
1579.000000	75.165030
1578.000000	76.053250
1577.000000	77.066469
1576.000000	78.142005
1575.000000	79.084637
1574.000000	79.790028
1573.000000	80.315093
1572.000000	80.752860
1571.000000	81.171604
1570.000000	81.605543
1569.000000	82.036806
1568.000000	82.422530
1567.000000	82.758222
1566.000000	83.084719
1565.000000	83.428379
1564.000000	83.758025
1563.000000	84.018295
1562.000000	84.196010
1561.000000	84.333782
1560.000000	84.533179
1559.000000	84.811615
1558.000000	85.083839
1557.000000	85.310006
1556.000000	85.493882
1555.000000	85.648732
1554.000000	85.789565
1553.000000	85.925148
1552.000000	86.057026
1551.000000	86.187382
1550.000000	86.324189
1549.000000	86.471641
1548.000000	86.622577
1547.000000	86.771715
1546.000000	86.926184
1545.000000	87.081851
1544.000000	87.209036
1543.000000	87.291241
1542.000000	87.363230
1541.000000	87.483697
1540.000000	87.658719
1539.000000	87.836381
1538.000000	87.972110
1537.000000	88.061698
1536.000000	88.122750
1535.000000	88.178962
1534.000000	88.256017
1533.000000	88.351326
1532.000000	88.431674
1531.000000	88.473966
1530.000000	88.486026
1529.000000	88.491025
1528.000000	88.500125
1527.000000	88.510808
1526.000000	88.526486
1525.000000	88.558593
1524.000000	88.619249
1523.000000	88.734497
1522.000000	88.937366
1521.000000	89.209946
1520.000000	89.485044
1519.000000	89.739394
1518.000000	90.013504
1517.000000	90.324941
1516.000000	90.627131
1515.000000	90.876965
1514.000000	91.085873
1513.000000	91.279317
1512.000000	91.454566
1511.000000	91.596048
1510.000000	91.706110
1509.000000	91.796759
1508.000000	91.874938
1507.000000	91.940829
1506.000000	92.016128
1505.000000	92.085052
1504.000000	92.083698
1503.000000	91.967259
1502.000000	91.675583
1501.000000	91.099378
1500.000000	90.143128
1499.000000	88.860635
1498.000000	87.547982
1497.000000	86.684743
1496.000000	86.632696
1495.000000	87.318014
1494.000000	88.364542
1493.000000	89.455869
1492.000000	90.445650
1491.000000	91.279839
1490.000000	91.936516
1489.000000	92.426297
1488.000000	92.795706
1487.000000	93.092374
1486.000000	93.341459
1485.000000	93.547670
1484.000000	93.710201
1483.000000	93.839988
1482.000000	93.952794
1481.000000	94.049946
1480.000000	94.121618
1479.000000	94.169617
1478.000000	94.209297
1477.000000	94.246990
1476.000000	94.273219
1475.000000	94.283905
1474.000000	94.291856
1473.000000	94.300736
1472.000000	94.290327
1471.000000	94.241517
1470.000000	94.141804
1469.000000	93.971524
1468.000000	93.711577
1467.000000	93.359107
1466.000000	92.927464
1465.000000	92.442844
1464.000000	91.949935
1463.000000	91.490761
1462.000000	91.053510
1461.000000	90.571487
1460.000000	89.919687
1459.000000	88.809222
1458.000000	86.642638
1457.000000	82.885630
1456.000000	78.070463
1455.000000	73.586590
1454.000000	70.496892
1453.000000	69.374939
1452.000000	70.406917
1451.000000	73.125755
1450.000000	76.587936
1449.000000	79.984796
1448.000000	82.895594
1447.000000	85.159152
1446.000000	86.793133
1445.000000	87.937671
1444.000000	88.730214
1443.000000	89.235277
1442.000000	89.476301
1441.000000	89.476054
1440.000000	89.253926
1439.000000	88.796838
1438.000000	88.048029
1437.000000	86.952479
1436.000000	85.560569
1435.000000	84.006914
1434.000000	82.343933
1433.000000	80.535455
1432.000000	78.591234
1431.000000	76.617274
1430.000000	74.743622
1429.000000	73.071309
1428.000000	71.675814
1427.000000	70.558477
1426.000000	69.624179
1425.000000	68.782700
1424.000000	68.043569
1423.000000	67.454816
1422.000000	67.007743
1421.000000	66.692441
1420.000000	66.586010
1419.000000	66.756338
1418.000000	67.130720
1417.000000	67.613345
1416.000000	68.217098
1415.000000	68.974072
1414.000000	69.850014
1413.000000	70.800807
1412.000000	71.824067
1411.000000	72.903562
1410.000000	73.973762
1409.000000	74.986983
1408.000000	75.948286
1407.000000	76.860414
1406.000000	77.694976
1405.000000	78.432851
1404.000000	79.081105
1403.000000	79.645683
1402.000000	80.144787
1401.000000	80.648312
1400.000000	81.240345
1399.000000	81.922651
1398.000000	82.618276
1397.000000	83.287516
1396.000000	83.958848
1395.000000	84.640894
1394.000000	85.286925
1393.000000	85.859320
1392.000000	86.363707
1391.000000	86.812274
1390.000000	87.210902
1389.000000	87.579909
1388.000000	87.940828
1387.000000	88.280864
1386.000000	88.575367
1385.000000	88.836977
1384.000000	89.098921
1383.000000	89.370697
1382.000000	89.642742
1381.000000	89.917618
1380.000000	90.201787
1379.000000	90.478136
1378.000000	90.723304
1377.000000	90.943771
1376.000000	91.162961
1375.000000	91.381640
1374.000000	91.582042
1373.000000	91.763463
1372.000000	91.938086
1371.000000	92.104508
1370.000000	92.257040
1369.000000	92.402587
1368.000000	92.546361
1367.000000	92.676274
1366.000000	92.783585
1365.000000	92.882686
1364.000000	92.987257
1363.000000	93.081535
1362.000000	93.142404
1361.000000	93.173751
1360.000000	93.187335
1359.000000	93.173170
1358.000000	93.114931
1357.000000	93.013175
1356.000000	92.876634
1355.000000	92.711092
1354.000000	92.535535
1353.000000	92.391068
1352.000000	92.309941
1351.000000	92.288327
1350.000000	92.303459
1349.000000	92.339900
1348.000000	92.384439
1347.000000	92.414141
1346.000000	92.410356
1345.000000	92.372710
1344.000000	92.303635
1343.000000	92.192315
1342.000000	92.023284
1341.000000	91.784067
1340.000000	91.451802
1339.000000	90.986912
1338.000000	90.358231
1337.000000	89.547892
1336.000000	88.520463
1335.000000	87.209320
1334.000000	85.534884
1333.000000	83.442475
1332.000000	80.928944
1331.000000	78.060068
1330.000000	74.975386
1329.000000	71.851998
1328.000000	68.859602
1327.000000	66.147868
1326.000000	63.857476
1325.000000	62.129944
1324.000000	61.117030
1323.000000	60.952533
1322.000000	61.700019
1321.000000	63.313517
1320.000000	65.593858
1319.000000	68.201710
1318.000000	70.766573
1317.000000	73.044448
1316.000000	74.986237
1315.000000	76.651979
1314.000000	78.092638
1313.000000	79.300129
1312.000000	80.208744
1311.000000	80.710231
1310.000000	80.701160
1309.000000	80.129948
1308.000000	79.025609
1307.000000	77.509232
1306.000000	75.761600
1305.000000	73.968471
1304.000000	72.256401
1303.000000	70.658878
1302.000000	69.135795
1301.000000	67.616418
1300.000000	66.039156
1299.000000	64.366297
1298.000000	62.589018
1297.000000	60.736346
1296.000000	58.875290
1295.000000	57.088013
1294.000000	55.446637
1293.000000	54.010555
1292.000000	52.829388
1291.000000	51.937796
1290.000000	51.342576
1289.000000	51.032714
1288.000000	50.997584
1287.000000	51.210381
1286.000000	51.620014
1285.000000	52.170384
1284.000000	52.819359
1283.000000	53.528534
1282.000000	54.239256
1281.000000	54.883081
1280.000000	55.407365
1279.000000	55.785439
1278.000000	56.021497
1277.000000	56.160143
1276.000000	56.283244
1275.000000	56.482851
1274.000000	56.834030
1273.000000	57.386611
1272.000000	58.157276
1271.000000	59.117545
1270.000000	60.201701
1269.000000	61.340322
1268.000000	62.484574
1267.000000	63.597610
1266.000000	64.648267
1265.000000	65.622473
1264.000000	66.523923
1263.000000	67.355450
1262.000000	68.112961
1261.000000	68.796505
1260.000000	69.412250
1259.000000	69.965873
1258.000000	70.465095
1257.000000	70.931622
1256.000000	71.394650
1255.000000	71.871548
1254.000000	72.366955
1253.000000	72.884153
1252.000000	73.423619
1251.000000	73.972633
1250.000000	74.511355
1249.000000	75.029229
1248.000000	75.524241
1247.000000	75.992679
1246.000000	76.433805
1245.000000	76.859177
1244.000000	77.283264
1243.000000	77.708157
1242.000000	78.129755
1241.000000	78.551957
1240.000000	78.980693
1239.000000	79.411353
1238.000000	79.835281
1237.000000	80.252180
1236.000000	80.663368
1235.000000	81.060194
1234.000000	81.433548
1233.000000	81.785858
1232.000000	82.121272
1231.000000	82.433854
1230.000000	82.717247
1229.000000	82.977437
1228.000000	83.221571
1227.000000	83.444740
1226.000000	83.641814
1225.000000	83.819869
1224.000000	83.987164
1223.000000	84.139549
1222.000000	84.270543
1221.000000	84.384260
1220.000000	84.482760
1219.000000	84.552810
1218.000000	84.577341
1217.000000	84.551204
1216.000000	84.480031
1215.000000	84.380127
1214.000000	84.291890
1213.000000	84.273982
1212.000000	84.363380
1211.000000	84.547023
1210.000000	84.785772
1209.000000	85.052060
1208.000000	85.331688
1207.000000	85.609125
1206.000000	85.872411
1205.000000	86.123963
1204.000000	86.367474
1203.000000	86.593625
1202.000000	86.792093
1201.000000	86.965448
1200.000000	87.113454
1199.000000	87.216622
1198.000000	87.252128
1197.000000	87.204945
1196.000000	87.053247
1195.000000	86.744532
1194.000000	86.198274
1193.000000	85.318274
1192.000000	83.986964
1191.000000	82.113493
1190.000000	79.747413
1189.000000	77.166032
1188.000000	74.821001
1187.000000	73.140515
1186.000000	72.312021
1185.000000	72.199656
1184.000000	72.445168
1183.000000	72.667752
1182.000000	72.668504
1181.000000	72.513508
1180.000000	72.458880
1179.000000	72.780169
1178.000000	73.604598
1177.000000	74.864137
1176.000000	76.358582
1175.000000	77.864437
1174.000000	79.222679
1173.000000	80.352576
1172.000000	81.214302
1171.000000	81.796862
1170.000000	82.159150
1169.000000	82.440789
1168.000000	82.788589
1167.000000	83.260917
1166.000000	83.815056
1165.000000	84.373542
1164.000000	84.879100
1163.000000	85.307525
1162.000000	85.661089
1161.000000	85.958084
1160.000000	86.214646
1159.000000	86.433469
1158.000000	86.617815
1157.000000	86.781563
1156.000000	86.934187
1155.000000	87.068987
1154.000000	87.176789
1153.000000	87.262052
1152.000000	87.332812
1151.000000	87.388612
1150.000000	87.432088
1149.000000	87.478089
1148.000000	87.538779
1147.000000	87.611407
1146.000000	87.691674
1145.000000	87.784777
1144.000000	87.890087
1143.000000	87.989707
1142.000000	88.065545
1141.000000	88.111339
1140.000000	88.118457
1139.000000	88.059993
1138.000000	87.904551
1137.000000	87.626353
1136.000000	87.180089
1135.000000	86.485973
1134.000000	85.441434
1133.000000	83.956203
1132.000000	82.005284
1131.000000	79.707630
1130.000000	77.383104
1129.000000	75.491126
1128.000000	74.441193
1127.000000	74.397543
1126.000000	75.233016
1125.000000	76.627997
1124.000000	78.231439
1123.000000	79.779976
1122.000000	81.143340
1121.000000	82.313277
1120.000000	83.330724
1119.000000	84.224991
1118.000000	85.009623
1117.000000	85.700912
1116.000000	86.309298
1115.000000	86.830131
1114.000000	87.261620
1113.000000	87.616885
1112.000000	87.910568
1111.000000	88.140166
1110.000000	88.300962
1109.000000	88.395485
1108.000000	88.409294
1107.000000	88.296961
1106.000000	87.997522
1105.000000	87.462821
1104.000000	86.688739
1103.000000	85.771992
1102.000000	84.946609
1101.000000	84.501057
1100.000000	84.592964
1099.000000	85.137975
1098.000000	85.896902
1097.000000	86.652154
1096.000000	87.299011
1095.000000	87.817918
1094.000000	88.226515
1093.000000	88.559409
1092.000000	88.846161
1091.000000	89.095723
1090.000000	89.311740
1089.000000	89.511094
1088.000000	89.706610
1087.000000	89.888346
1086.000000	90.040435
1085.000000	90.161022
1084.000000	90.250306
1083.000000	90.286209
1082.000000	90.236258
1081.000000	90.062074
1080.000000	89.676033
1079.000000	88.904081
1078.000000	87.520907
1077.000000	85.393697
1076.000000	82.662658
1075.000000	79.822969
1074.000000	77.562874
1073.000000	76.401863
1072.000000	76.400587
1071.000000	77.204180
1070.000000	78.363134
1069.000000	79.590045
1068.000000	80.776124
1067.000000	81.871635
1066.000000	82.837874
1065.000000	83.672691
1064.000000	84.391859
1063.000000	84.992696
1062.000000	85.472287
1061.000000	85.860589
1060.000000	86.191320
1059.000000	86.466020
1058.000000	86.678245
1057.000000	86.849562
1056.000000	87.005602
1055.000000	87.138281
1054.000000	87.233948
1053.000000	87.313215
1052.000000	87.404188
1051.000000	87.499626
1050.000000	87.581450
1049.000000	87.664916
1048.000000	87.773496
1047.000000	87.894789
1046.000000	88.006150
1045.000000	88.118949
1044.000000	88.253861
1043.000000	88.396541
1042.000000	88.522672
1041.000000	88.643823
1040.000000	88.783211
1039.000000	88.927399
1038.000000	89.052929
1037.000000	89.174194
1036.000000	89.315848
1035.000000	89.453573
1034.000000	89.535359
1033.000000	89.486721
1032.000000	89.059191
1031.000000	87.736546
1030.000000	85.050798
1029.000000	81.224158
1028.000000	77.430950
1027.000000	75.184592
1026.000000	75.273039
1025.000000	77.249525
1024.000000	79.935080
1023.000000	82.323124
1022.000000	84.038069
1021.000000	85.159927
1020.000000	85.877369
1019.000000	86.351257
1018.000000	86.727786
1017.000000	87.099884
1016.000000	87.457074
1015.000000	87.744423
1014.000000	87.961633
1013.000000	88.153964
1012.000000	88.329053
1011.000000	88.461559
1010.000000	88.562921
1009.000000	88.671809
1008.000000	88.787184
1007.000000	88.881386
1006.000000	88.954660
1005.000000	88.956200
1004.000000	88.662851
1003.000000	87.829424
1002.000000	86.570281
1001.000000	85.464154
1000.000000	85.096707
999.000000	85.520267
998.000000	86.271588
997.000000	86.892265
996.000000	87.306164
995.000000	87.685289
994.000000	88.127127
993.000000	88.560431
992.000000	88.875680
991.000000	89.034018
990.000000	89.062438
989.000000	89.020846
988.000000	88.984288
987.000000	89.010268
986.000000	89.102329
985.000000	89.218183
984.000000	89.311298
983.000000	89.359210
982.000000	89.360712
981.000000	89.320619
980.000000	89.238530
979.000000	89.108472
978.000000	88.936744
977.000000	88.759866
976.000000	88.629754
975.000000	88.571149
974.000000	88.558309
973.000000	88.539385
972.000000	88.478211
971.000000	88.369038
970.000000	88.223072
969.000000	88.051710
968.000000	87.860582
967.000000	87.651331
966.000000	87.423905
965.000000	87.177438
964.000000	86.907161
963.000000	86.603243
962.000000	86.254779
961.000000	85.852171
960.000000	85.387349
959.000000	84.852278
958.000000	84.241206
957.000000	83.552897
956.000000	82.787599
955.000000	81.948041
954.000000	81.041996
953.000000	80.082961
952.000000	79.087704
951.000000	78.072602
950.000000	77.052551
949.000000	76.038840
948.000000	75.036497
947.000000	74.044155
946.000000	73.061803
945.000000	72.109302
944.000000	71.242504
943.000000	70.531635
942.000000	69.989054
941.000000	69.506736
940.000000	68.890116
939.000000	67.996765
938.000000	66.859318
937.000000	65.664709
936.000000	64.617897
935.000000	63.824428
934.000000	63.285142
933.000000	62.962517
932.000000	62.821066
931.000000	62.826970
930.000000	62.941396
929.000000	63.127282
928.000000	63.353990
927.000000	63.590740
926.000000	63.812382
925.000000	64.011952
924.000000	64.198579
923.000000	64.385135
922.000000	64.584192
921.000000	64.812699
920.000000	65.086810
919.000000	65.411660
918.000000	65.785705
917.000000	66.211216
916.000000	66.692115
915.000000	67.224166
914.000000	67.797093
913.000000	68.404698
912.000000	69.041889
911.000000	69.697588
910.000000	70.361390
909.000000	71.032054
908.000000	71.709695
907.000000	72.385349
906.000000	73.049795
905.000000	73.705023
904.000000	74.355081
903.000000	74.992600
902.000000	75.606709
901.000000	76.196531
900.000000	76.764684
899.000000	77.307087
898.000000	77.820402
897.000000	78.311318
896.000000	78.786106
895.000000	79.239780
894.000000	79.667756
893.000000	80.076515
892.000000	80.471738
891.000000	80.847271
890.000000	81.197563
889.000000	81.530260
888.000000	81.853614
887.000000	82.163614
886.000000	82.455901
885.000000	82.737267
884.000000	83.013735
883.000000	83.279567
882.000000	83.531018
881.000000	83.777726
880.000000	84.027351
879.000000	84.273054
878.000000	84.508174
877.000000	84.738347
876.000000	84.966382
875.000000	85.181403
874.000000	85.377197
873.000000	85.564874
872.000000	85.753426
871.000000	85.934913
870.000000	86.101681
869.000000	86.260904
868.000000	86.418276
867.000000	86.564874
866.000000	86.694563
865.000000	86.816550
864.000000	86.937647
863.000000	87.047367
862.000000	87.128722
861.000000	87.162544
860.000000	87.113794
859.000000	86.951505
858.000000	86.710209
857.000000	86.505154
856.000000	86.453136
855.000000	86.583946
854.000000	86.842593
853.000000	87.156826
852.000000	87.475154
851.000000	87.761147
850.000000	87.994468
849.000000	88.179573
848.000000	88.330648
847.000000	88.449622
846.000000	88.533913
845.000000	88.593764
844.000000	88.641253
843.000000	88.672050
842.000000	88.676880
841.000000	88.661948
840.000000	88.638782
839.000000	88.604545
838.000000	88.552476
837.000000	88.490438
836.000000	88.428984
835.000000	88.361512
834.000000	88.278528
833.000000	88.191928
832.000000	88.122941
831.000000	88.074623
830.000000	88.038938
829.000000	88.021402
828.000000	88.031868
827.000000	88.056104
826.000000	88.062107
825.000000	88.027661
824.000000	87.931688
823.000000	87.728712
822.000000	87.370171
821.000000	86.856815
820.000000	86.248536
819.000000	85.630612
818.000000	85.085705
817.000000	84.639588
816.000000	84.143148
815.000000	83.226610
814.000000	81.523991
813.000000	79.083480
812.000000	76.526858
811.000000	74.655045
810.000000	73.813075
809.000000	73.662643
808.000000	73.572135
807.000000	73.180262
806.000000	72.590034
805.000000	72.136600
804.000000	72.095449
803.000000	72.569804
802.000000	73.515757
801.000000	74.795796
800.000000	76.235657
799.000000	77.691755
798.000000	79.081575
797.000000	80.358304
796.000000	81.482792
795.000000	82.438177
794.000000	83.248191
793.000000	83.952398
792.000000	84.571624
791.000000	85.112844
790.000000	85.592557
789.000000	86.030018
788.000000	86.427870
787.000000	86.781256
786.000000	87.098794
785.000000	87.396983
784.000000	87.680965
783.000000	87.949323
782.000000	88.209871
781.000000	88.472038
780.000000	88.730926
779.000000	88.976414
778.000000	89.210903
777.000000	89.440863
776.000000	89.659407
775.000000	89.856801
774.000000	90.040460
773.000000	90.224469
772.000000	90.405814
771.000000	90.570412
770.000000	90.716689
769.000000	90.853451
768.000000	90.980470
767.000000	91.091515
766.000000	91.191770
765.000000	91.292658
764.000000	91.393562
763.000000	91.486980
762.000000	91.576667
761.000000	91.671695
760.000000	91.767398
759.000000	91.850904
758.000000	91.921220
757.000000	91.986488
756.000000	92.046556
755.000000	92.096122
754.000000	92.139553
753.000000	92.185041
752.000000	92.229319
751.000000	92.264962
750.000000	92.297244
749.000000	92.337807
748.000000	92.388247
747.000000	92.445559
746.000000	92.515682
745.000000	92.604535
744.000000	92.703171
743.000000	92.798648
742.000000	92.892675
741.000000	92.993629
740.000000	93.098439
739.000000	93.198518
738.000000	93.295306
737.000000	93.393815
736.000000	93.489101
735.000000	93.574269
734.000000	93.653145
733.000000	93.730729
732.000000	93.800670
731.000000	93.855814
730.000000	93.900531
729.000000	93.939852
728.000000	93.966864
727.000000	93.973286
726.000000	93.960915
725.000000	93.929755
724.000000	93.866822
723.000000	93.756439
722.000000	93.587347
721.000000	93.340881
720.000000	92.977454
719.000000	92.420269
718.000000	91.516286
717.000000	90.015890
716.000000	87.660304
715.000000	84.362992
714.000000	80.318072
713.000000	75.900105
712.000000	71.433835
711.000000	67.030459
710.000000	62.625760
709.000000	58.191570
708.000000	53.923665
707.000000	50.225247
706.000000	47.503726
705.000000	45.964028
704.000000	45.553097
703.000000	46.056883
702.000000	47.236333
701.000000	48.895544
700.000000	50.879448
699.000000	53.071203
698.000000	55.396785
697.000000	57.796064
696.000000	60.195724
695.000000	62.533511
694.000000	64.782906
693.000000	66.923002
692.000000	68.907809
691.000000	70.667955
690.000000	72.050851
689.000000	72.692631
688.000000	72.072779
687.000000	69.911269
686.000000	66.612549
685.000000	63.287745
684.000000	61.230738
683.000000	61.215170
682.000000	63.160472
681.000000	66.356799
680.000000	69.961566
679.000000	73.392530
678.000000	76.393166
677.000000	78.873857
676.000000	80.809002
675.000000	82.144941
674.000000	82.577030
673.000000	81.529248
672.000000	78.688060
671.000000	74.289892
670.000000	68.669636
669.000000	61.989687
668.000000	55.352157
667.000000	51.028157
666.000000	49.872237
665.000000	50.892832
664.000000	53.135537
663.000000	56.004077
662.000000	58.962627
661.000000	61.642225
660.000000	63.948833
659.000000	65.902190
658.000000	67.532932
657.000000	68.938941
656.000000	70.220315
655.000000	71.377934
654.000000	72.386536
653.000000	73.299108
652.000000	74.171372
651.000000	74.968969
650.000000	75.653188
649.000000	76.275855
648.000000	76.891311
647.000000	77.463104
646.000000	77.951503
645.000000	78.400886
644.000000	78.856288
643.000000	79.282428
642.000000	79.648306
641.000000	80.001570
640.000000	80.380117
639.000000	80.737560
638.000000	81.033187
637.000000	81.309349
636.000000	81.605348
635.000000	81.884242
634.000000	82.117765
633.000000	82.353843
632.000000	82.624524
631.000000	82.878813
630.000000	83.078761
629.000000	83.275128
628.000000	83.513544
627.000000	83.754293
626.000000	83.956208
625.000000	84.153597
624.000000	84.381087
623.000000	84.603379
622.000000	84.772786
621.000000	84.857930
620.000000	84.774817
619.000000	84.436379
618.000000	83.964240
617.000000	83.704777
616.000000	83.900208
615.000000	84.433962
614.000000	85.006400
613.000000	85.454494
612.000000	85.789935
611.000000	86.046891
610.000000	86.242081
609.000000	86.423145
608.000000	86.624714
607.000000	86.808609
606.000000	86.936362
605.000000	87.049520
604.000000	87.196084
603.000000	87.346158
602.000000	87.461464
601.000000	87.575780
600.000000	87.723428
599.000000	87.864219
598.000000	87.962702
597.000000	88.065222
596.000000	88.216104
595.000000	88.372879
594.000000	88.487417
593.000000	88.593546
592.000000	88.732350
591.000000	88.866151
590.000000	88.955010
589.000000	89.040104
588.000000	89.165787
587.000000	89.296252
586.000000	89.390349
585.000000	89.482542
584.000000	89.607602
583.000000	89.724755
582.000000	89.797903
581.000000	89.871258
580.000000	89.981605
579.000000	90.081057
578.000000	90.128009
577.000000	90.167731
576.000000	90.238064
575.000000	90.285401
574.000000	90.260531
573.000000	90.205277
572.000000	90.154889
571.000000	90.049377
570.000000	89.828360
569.000000	89.518247
568.000000	89.140065
567.000000	88.620632
566.000000	87.886927
565.000000	86.950630
564.000000	85.814938
563.000000	84.406383
562.000000	82.679386
561.000000	80.697348
560.000000	78.548534
559.000000	76.282119
558.000000	73.984767
557.000000	71.817164
556.000000	69.913947
555.000000	68.314109
554.000000	67.018954
553.000000	66.042981
552.000000	65.370839
551.000000	64.923501
550.000000	64.615428
549.000000	64.418853
548.000000	64.324114
547.000000	64.284409
546.000000	64.256412
545.000000	64.251500
544.000000	64.295299
543.000000	64.373988
542.000000	64.476889
541.000000	64.648389
540.000000	64.936600
539.000000	65.329604
538.000000	65.796550
537.000000	66.349056
536.000000	67.000183
535.000000	67.702999
534.000000	68.401636
533.000000	69.103743
532.000000	69.832052
531.000000	70.550646
530.000000	71.213696
529.000000	71.841158
528.000000	72.467809
527.000000	73.065691
526.000000	73.591951
525.000000	74.067991
524.000000	74.528763
523.000000	74.951396
522.000000	75.315710
521.000000	75.668121
520.000000	76.050122
519.000000	76.425412
518.000000	76.755691
517.000000	77.079815
516.000000	77.434009
515.000000	77.774726
514.000000	78.067744
513.000000	78.366248
512.000000	78.717930
511.000000	79.076698
510.000000	79.391815
509.000000	79.701034
508.000000	80.043685
507.000000	80.369215
506.000000	80.629937
505.000000	80.877707
504.000000	81.168263
503.000000	81.459962
502.000000	81.702002
501.000000	81.934200
500.000000	82.196264
499.000000	82.440053
498.000000	82.631699
497.000000	82.835715
496.000000	83.100154
495.000000	83.360021
494.000000	83.554442
493.000000	83.735640
492.000000	83.957873
491.000000	84.168182
490.000000	84.320512
489.000000	84.479391
488.000000	84.694371
487.000000	84.892829
486.000000	85.015143
485.000000	85.135498
484.000000	85.323919
483.000000	85.509701
482.000000	85.620112
481.000000	85.723468
480.000000	85.894005
479.000000	86.069800
478.000000	86.178201
477.000000	86.276402
476.000000	86.427535
475.000000	86.569505
474.000000	86.644842
473.000000	86.729212
472.000000	86.881974
471.000000	87.012285
470.000000	87.052582
469.000000	87.094806
468.000000	87.208140
467.000000	87.300998
466.000000	87.308049
465.000000	87.334817
464.000000	87.460590
463.000000	87.581533
462.000000	87.610048
461.000000	87.644339
460.000000	87.772818
459.000000	87.896524
458.000000	87.924481
457.000000	87.968266
456.000000	88.120920
455.000000	88.256982
454.000000	88.264526
453.000000	88.237584
452.000000	88.281855
451.000000	88.330141
450.000000	88.315050
449.000000	88.329786
448.000000	88.435837
447.000000	88.510175
446.000000	88.460443
445.000000	88.392925
444.000000	88.387062
443.000000	88.318697
442.000000	88.100935
441.000000	87.876949
440.000000	87.757899
439.000000	87.605300
438.000000	87.258763
437.000000	86.750071
436.000000	86.117107
435.000000	85.238392
434.000000	84.092709
433.000000	82.959707
432.000000	82.161763
431.000000	81.791024
430.000000	81.823382
429.000000	82.293212
428.000000	83.147218
427.000000	84.108922
426.000000	84.939590
425.000000	85.687893
424.000000	86.427720
423.000000	86.984423
422.000000	87.241270
421.000000	87.433667
420.000000	87.802631
419.000000	88.158341
418.000000	88.237743
417.000000	88.255091
416.000000	88.434974
415.000000	88.590000
414.000000	88.545251
413.000000	88.495591
412.000000	88.637484
411.000000	88.768559
410.000000	88.677899
409.000000	88.578904
408.000000	88.684157
407.000000	88.754470
406.000000	88.565409
405.000000	88.413865
404.000000	88.578946
403.000000	88.793988
402.000000	88.723442
401.000000	88.660070
400.000000	88.900325
