Created as New Dataset,Sample 247 By YargerLab Date Thursday, July 11 2024
cm-1,A
4000.00,0.0163
3999.00,0.0163
3998.00,0.0163
3997.00,0.0163
3996.00,0.0163
3995.00,0.0163
3994.00,0.0163
3993.00,0.0163
3992.00,0.0163
3991.00,0.0163
3990.00,0.0163
3989.00,0.0163
3988.00,0.0163
3987.00,0.0163
3986.00,0.0163
3985.00,0.0163
3984.00,0.0162
3983.00,0.0162
3982.00,0.0162
3981.00,0.0162
3980.00,0.0162
3979.00,0.0162
3978.00,0.0162
3977.00,0.0162
3976.00,0.0162
3975.00,0.0162
3974.00,0.0162
3973.00,0.0162
3972.00,0.0162
3971.00,0.0162
3970.00,0.0162
3969.00,0.0162
3968.00,0.0162
3967.00,0.0162
3966.00,0.0162
3965.00,0.0162
3964.00,0.0162
3963.00,0.0162
3962.00,0.0162
3961.00,0.0162
3960.00,0.0162
3959.00,0.0162
3958.00,0.0162
3957.00,0.0161
3956.00,0.0161
3955.00,0.0161
3954.00,0.0161
3953.00,0.0161
3952.00,0.0161
3951.00,0.0161
3950.00,0.0161
3949.00,0.0161
3948.00,0.0162
3947.00,0.0162
3946.00,0.0162
3945.00,0.0162
3944.00,0.0161
3943.00,0.0161
3942.00,0.0161
3941.00,0.0161
3940.00,0.0161
3939.00,0.0161
3938.00,0.0161
3937.00,0.0161
3936.00,0.0161
3935.00,0.0161
3934.00,0.0161
3933.00,0.0161
3932.00,0.0161
3931.00,0.0161
3930.00,0.0161
3929.00,0.0161
3928.00,0.0161
3927.00,0.0161
3926.00,0.0161
3925.00,0.0160
3924.00,0.0160
3923.00,0.0160
3922.00,0.0160
3921.00,0.0161
3920.00,0.0161
3919.00,0.0161
3918.00,0.0161
3917.00,0.0161
3916.00,0.0161
3915.00,0.0161
3914.00,0.0160
3913.00,0.0160
3912.00,0.0160
3911.00,0.0159
3910.00,0.0159
3909.00,0.0159
3908.00,0.0159
3907.00,0.0159
3906.00,0.0159
3905.00,0.0159
3904.00,0.0160
3903.00,0.0161
3902.00,0.0162
3901.00,0.0162
3900.00,0.0162
3899.00,0.0161
3898.00,0.0161
3897.00,0.0160
3896.00,0.0160
3895.00,0.0160
3894.00,0.0159
3893.00,0.0159
3892.00,0.0159
3891.00,0.0159
3890.00,0.0159
3889.00,0.0160
3888.00,0.0160
3887.00,0.0160
3886.00,0.0160
3885.00,0.0160
3884.00,0.0159
3883.00,0.0159
3882.00,0.0159
3881.00,0.0159
3880.00,0.0159
3879.00,0.0159
3878.00,0.0159
3877.00,0.0159
3876.00,0.0159
3875.00,0.0159
3874.00,0.0158
3873.00,0.0158
3872.00,0.0158
3871.00,0.0159
3870.00,0.0159
3869.00,0.0160
3868.00,0.0159
3867.00,0.0159
3866.00,0.0159
3865.00,0.0159
3864.00,0.0158
3863.00,0.0158
3862.00,0.0158
3861.00,0.0159
3860.00,0.0159
3859.00,0.0158
3858.00,0.0158
3857.00,0.0157
3856.00,0.0156
3855.00,0.0157
3854.00,0.0157
3853.00,0.0158
3852.00,0.0158
3851.00,0.0158
3850.00,0.0158
3849.00,0.0158
3848.00,0.0158
3847.00,0.0158
3846.00,0.0158
3845.00,0.0157
3844.00,0.0157
3843.00,0.0157
3842.00,0.0157
3841.00,0.0157
3840.00,0.0157
3839.00,0.0157
3838.00,0.0157
3837.00,0.0157
3836.00,0.0157
3835.00,0.0157
3834.00,0.0157
3833.00,0.0157
3832.00,0.0157
3831.00,0.0157
3830.00,0.0157
3829.00,0.0156
3828.00,0.0156
3827.00,0.0156
3826.00,0.0155
3825.00,0.0155
3824.00,0.0155
3823.00,0.0156
3822.00,0.0156
3821.00,0.0156
3820.00,0.0156
3819.00,0.0156
3818.00,0.0156
3817.00,0.0156
3816.00,0.0156
3815.00,0.0155
3814.00,0.0155
3813.00,0.0155
3812.00,0.0155
3811.00,0.0155
3810.00,0.0154
3809.00,0.0154
3808.00,0.0154
3807.00,0.0154
3806.00,0.0154
3805.00,0.0154
3804.00,0.0154
3803.00,0.0154
3802.00,0.0154
3801.00,0.0154
3800.00,0.0154
3799.00,0.0154
3798.00,0.0154
3797.00,0.0154
3796.00,0.0154
3795.00,0.0154
3794.00,0.0153
3793.00,0.0153
3792.00,0.0153
3791.00,0.0152
3790.00,0.0152
3789.00,0.0152
3788.00,0.0152
3787.00,0.0152
3786.00,0.0152
3785.00,0.0152
3784.00,0.0152
3783.00,0.0152
3782.00,0.0152
3781.00,0.0152
3780.00,0.0152
3779.00,0.0152
3778.00,0.0152
3777.00,0.0152
3776.00,0.0152
3775.00,0.0152
3774.00,0.0151
3773.00,0.0151
3772.00,0.0151
3771.00,0.0152
3770.00,0.0152
3769.00,0.0152
3768.00,0.0152
3767.00,0.0152
3766.00,0.0152
3765.00,0.0151
3764.00,0.0151
3763.00,0.0151
3762.00,0.0151
3761.00,0.0151
3760.00,0.0151
3759.00,0.0151
3758.00,0.0151
3757.00,0.0151
3756.00,0.0151
3755.00,0.0151
3754.00,0.0151
3753.00,0.0151
3752.00,0.0152
3751.00,0.0152
3750.00,0.0153
3749.00,0.0153
3748.00,0.0153
3747.00,0.0153
3746.00,0.0153
3745.00,0.0153
3744.00,0.0153
3743.00,0.0152
3742.00,0.0151
3741.00,0.0152
3740.00,0.0152
3739.00,0.0152
3738.00,0.0152
3737.00,0.0152
3736.00,0.0151
3735.00,0.0151
3734.00,0.0151
3733.00,0.0151
3732.00,0.0151
3731.00,0.0151
3730.00,0.0150
3729.00,0.0150
3728.00,0.0150
3727.00,0.0149
3726.00,0.0149
3725.00,0.0149
3724.00,0.0148
3723.00,0.0148
3722.00,0.0148
3721.00,0.0148
3720.00,0.0147
3719.00,0.0147
3718.00,0.0147
3717.00,0.0147
3716.00,0.0146
3715.00,0.0147
3714.00,0.0147
3713.00,0.0147
3712.00,0.0147
3711.00,0.0147
3710.00,0.0146
3709.00,0.0146
3708.00,0.0146
3707.00,0.0146
3706.00,0.0146
3705.00,0.0145
3704.00,0.0145
3703.00,0.0145
3702.00,0.0144
3701.00,0.0144
3700.00,0.0144
3699.00,0.0144
3698.00,0.0144
3697.00,0.0143
3696.00,0.0143
3695.00,0.0143
3694.00,0.0143
3693.00,0.0143
3692.00,0.0143
3691.00,0.0142
3690.00,0.0142
3689.00,0.0142
3688.00,0.0142
3687.00,0.0142
3686.00,0.0141
3685.00,0.0141
3684.00,0.0140
3683.00,0.0140
3682.00,0.0139
3681.00,0.0139
3680.00,0.0138
3679.00,0.0138
3678.00,0.0138
3677.00,0.0138
3676.00,0.0138
3675.00,0.0137
3674.00,0.0136
3673.00,0.0136
3672.00,0.0136
3671.00,0.0136
3670.00,0.0135
3669.00,0.0133
3668.00,0.0132
3667.00,0.0131
3666.00,0.0131
3665.00,0.0130
3664.00,0.0129
3663.00,0.0128
3662.00,0.0127
3661.00,0.0127
3660.00,0.0126
3659.00,0.0126
3658.00,0.0125
3657.00,0.0125
3656.00,0.0125
3655.00,0.0124
3654.00,0.0124
3653.00,0.0125
3652.00,0.0125
3651.00,0.0125
3650.00,0.0124
3649.00,0.0124
3648.00,0.0123
3647.00,0.0122
3646.00,0.0121
3645.00,0.0120
3644.00,0.0120
3643.00,0.0119
3642.00,0.0118
3641.00,0.0117
3640.00,0.0117
3639.00,0.0116
3638.00,0.0116
3637.00,0.0116
3636.00,0.0116
3635.00,0.0116
3634.00,0.0116
3633.00,0.0116
3632.00,0.0116
3631.00,0.0116
3630.00,0.0116
3629.00,0.0116
3628.00,0.0116
3627.00,0.0115
3626.00,0.0115
3625.00,0.0114
3624.00,0.0114
3623.00,0.0114
3622.00,0.0113
3621.00,0.0113
3620.00,0.0113
3619.00,0.0112
3618.00,0.0112
3617.00,0.0112
3616.00,0.0112
3615.00,0.0111
3614.00,0.0111
3613.00,0.0111
3612.00,0.0110
3611.00,0.0110
3610.00,0.0110
3609.00,0.0109
3608.00,0.0109
3607.00,0.0108
3606.00,0.0107
3605.00,0.0107
3604.00,0.0106
3603.00,0.0105
3602.00,0.0105
3601.00,0.0105
3600.00,0.0104
3599.00,0.0104
3598.00,0.0104
3597.00,0.0104
3596.00,0.0103
3595.00,0.0103
3594.00,0.0102
3593.00,0.0102
3592.00,0.0102
3591.00,0.0101
3590.00,0.0101
3589.00,0.0101
3588.00,0.0100
3587.00,0.0100
3586.00,0.0099
3585.00,0.0099
3584.00,0.0098
3583.00,0.0097
3582.00,0.0097
3581.00,0.0096
3580.00,0.0095
3579.00,0.0095
3578.00,0.0094
3577.00,0.0094
3576.00,0.0093
3575.00,0.0093
3574.00,0.0092
3573.00,0.0092
3572.00,0.0092
3571.00,0.0092
3570.00,0.0092
3569.00,0.0092
3568.00,0.0092
3567.00,0.0092
3566.00,0.0092
3565.00,0.0091
3564.00,0.0091
3563.00,0.0090
3562.00,0.0089
3561.00,0.0089
3560.00,0.0088
3559.00,0.0087
3558.00,0.0087
3557.00,0.0087
3556.00,0.0086
3555.00,0.0086
3554.00,0.0086
3553.00,0.0086
3552.00,0.0086
3551.00,0.0086
3550.00,0.0085
3549.00,0.0085
3548.00,0.0086
3547.00,0.0086
3546.00,0.0085
3545.00,0.0085
3544.00,0.0085
3543.00,0.0084
3542.00,0.0084
3541.00,0.0083
3540.00,0.0082
3539.00,0.0082
3538.00,0.0082
3537.00,0.0081
3536.00,0.0081
3535.00,0.0081
3534.00,0.0080
3533.00,0.0080
3532.00,0.0080
3531.00,0.0080
3530.00,0.0080
3529.00,0.0079
3528.00,0.0079
3527.00,0.0080
3526.00,0.0080
3525.00,0.0080
3524.00,0.0079
3523.00,0.0079
3522.00,0.0078
3521.00,0.0078
3520.00,0.0077
3519.00,0.0077
3518.00,0.0076
3517.00,0.0076
3516.00,0.0075
3515.00,0.0075
3514.00,0.0075
3513.00,0.0075
3512.00,0.0074
3511.00,0.0074
3510.00,0.0074
3509.00,0.0073
3508.00,0.0073
3507.00,0.0073
3506.00,0.0073
3505.00,0.0073
3504.00,0.0073
3503.00,0.0073
3502.00,0.0072
3501.00,0.0072
3500.00,0.0072
3499.00,0.0071
3498.00,0.0071
3497.00,0.0071
3496.00,0.0070
3495.00,0.0070
3494.00,0.0070
3493.00,0.0069
3492.00,0.0069
3491.00,0.0069
3490.00,0.0069
3489.00,0.0069
3488.00,0.0069
3487.00,0.0068
3486.00,0.0068
3485.00,0.0068
3484.00,0.0068
3483.00,0.0068
3482.00,0.0068
3481.00,0.0068
3480.00,0.0068
3479.00,0.0067
3478.00,0.0067
3477.00,0.0067
3476.00,0.0067
3475.00,0.0067
3474.00,0.0067
3473.00,0.0067
3472.00,0.0067
3471.00,0.0067
3470.00,0.0067
3469.00,0.0067
3468.00,0.0067
3467.00,0.0067
3466.00,0.0067
3465.00,0.0067
3464.00,0.0067
3463.00,0.0067
3462.00,0.0067
3461.00,0.0067
3460.00,0.0067
3459.00,0.0067
3458.00,0.0067
3457.00,0.0067
3456.00,0.0067
3455.00,0.0067
3454.00,0.0067
3453.00,0.0067
3452.00,0.0067
3451.00,0.0067
3450.00,0.0067
3449.00,0.0068
3448.00,0.0068
3447.00,0.0069
3446.00,0.0069
3445.00,0.0069
3444.00,0.0069
3443.00,0.0070
3442.00,0.0070
3441.00,0.0070
3440.00,0.0070
3439.00,0.0071
3438.00,0.0071
3437.00,0.0072
3436.00,0.0072
3435.00,0.0072
3434.00,0.0073
3433.00,0.0073
3432.00,0.0073
3431.00,0.0074
3430.00,0.0074
3429.00,0.0075
3428.00,0.0075
3427.00,0.0075
3426.00,0.0076
3425.00,0.0076
3424.00,0.0077
3423.00,0.0077
3422.00,0.0078
3421.00,0.0078
3420.00,0.0079
3419.00,0.0080
3418.00,0.0080
3417.00,0.0081
3416.00,0.0082
3415.00,0.0082
3414.00,0.0083
3413.00,0.0084
3412.00,0.0084
3411.00,0.0085
3410.00,0.0086
3409.00,0.0087
3408.00,0.0087
3407.00,0.0088
3406.00,0.0088
3405.00,0.0089
3404.00,0.0090
3403.00,0.0090
3402.00,0.0091
3401.00,0.0092
3400.00,0.0093
3399.00,0.0094
3398.00,0.0095
3397.00,0.0096
3396.00,0.0096
3395.00,0.0097
3394.00,0.0097
3393.00,0.0098
3392.00,0.0099
3391.00,0.0100
3390.00,0.0101
3389.00,0.0102
3388.00,0.0103
3387.00,0.0104
3386.00,0.0105
3385.00,0.0105
3384.00,0.0106
3383.00,0.0107
3382.00,0.0108
3381.00,0.0109
3380.00,0.0110
3379.00,0.0111
3378.00,0.0112
3377.00,0.0113
3376.00,0.0114
3375.00,0.0115
3374.00,0.0116
3373.00,0.0117
3372.00,0.0118
3371.00,0.0119
3370.00,0.0120
3369.00,0.0122
3368.00,0.0123
3367.00,0.0125
3366.00,0.0126
3365.00,0.0127
3364.00,0.0129
3363.00,0.0130
3362.00,0.0132
3361.00,0.0133
3360.00,0.0135
3359.00,0.0136
3358.00,0.0138
3357.00,0.0140
3356.00,0.0141
3355.00,0.0143
3354.00,0.0144
3353.00,0.0146
3352.00,0.0148
3351.00,0.0150
3350.00,0.0152
3349.00,0.0154
3348.00,0.0156
3347.00,0.0158
3346.00,0.0160
3345.00,0.0162
3344.00,0.0164
3343.00,0.0166
3342.00,0.0168
3341.00,0.0171
3340.00,0.0173
3339.00,0.0176
3338.00,0.0178
3337.00,0.0181
3336.00,0.0184
3335.00,0.0187
3334.00,0.0189
3333.00,0.0192
3332.00,0.0195
3331.00,0.0198
3330.00,0.0201
3329.00,0.0203
3328.00,0.0206
3327.00,0.0209
3326.00,0.0212
3325.00,0.0216
3324.00,0.0219
3323.00,0.0223
3322.00,0.0226
3321.00,0.0230
3320.00,0.0233
3319.00,0.0237
3318.00,0.0240
3317.00,0.0244
3316.00,0.0247
3315.00,0.0251
3314.00,0.0255
3313.00,0.0259
3312.00,0.0262
3311.00,0.0265
3310.00,0.0269
3309.00,0.0273
3308.00,0.0277
3307.00,0.0280
3306.00,0.0285
3305.00,0.0289
3304.00,0.0293
3303.00,0.0297
3302.00,0.0301
3301.00,0.0305
3300.00,0.0309
3299.00,0.0312
3298.00,0.0315
3297.00,0.0319
3296.00,0.0322
3295.00,0.0325
3294.00,0.0328
3293.00,0.0331
3292.00,0.0334
3291.00,0.0337
3290.00,0.0339
3289.00,0.0342
3288.00,0.0344
3287.00,0.0346
3286.00,0.0347
3285.00,0.0348
3284.00,0.0349
3283.00,0.0350
3282.00,0.0350
3281.00,0.0350
3280.00,0.0349
3279.00,0.0349
3278.00,0.0348
3277.00,0.0347
3276.00,0.0346
3275.00,0.0344
3274.00,0.0343
3273.00,0.0341
3272.00,0.0339
3271.00,0.0337
3270.00,0.0335
3269.00,0.0333
3268.00,0.0331
3267.00,0.0329
3266.00,0.0327
3265.00,0.0325
3264.00,0.0322
3263.00,0.0320
3262.00,0.0317
3261.00,0.0315
3260.00,0.0312
3259.00,0.0309
3258.00,0.0307
3257.00,0.0304
3256.00,0.0302
3255.00,0.0300
3254.00,0.0298
3253.00,0.0297
3252.00,0.0294
3251.00,0.0292
3250.00,0.0290
3249.00,0.0287
3248.00,0.0285
3247.00,0.0283
3246.00,0.0282
3245.00,0.0281
3244.00,0.0279
3243.00,0.0278
3242.00,0.0277
3241.00,0.0275
3240.00,0.0274
3239.00,0.0272
3238.00,0.0270
3237.00,0.0268
3236.00,0.0266
3235.00,0.0265
3234.00,0.0263
3233.00,0.0262
3232.00,0.0262
3231.00,0.0261
3230.00,0.0260
3229.00,0.0259
3228.00,0.0258
3227.00,0.0257
3226.00,0.0256
3225.00,0.0255
3224.00,0.0254
3223.00,0.0252
3222.00,0.0251
3221.00,0.0250
3220.00,0.0249
3219.00,0.0248
3218.00,0.0247
3217.00,0.0247
3216.00,0.0246
3215.00,0.0245
3214.00,0.0244
3213.00,0.0243
3212.00,0.0242
3211.00,0.0241
3210.00,0.0240
3209.00,0.0240
3208.00,0.0239
3207.00,0.0238
3206.00,0.0237
3205.00,0.0236
3204.00,0.0235
3203.00,0.0234
3202.00,0.0233
3201.00,0.0232
3200.00,0.0232
3199.00,0.0231
3198.00,0.0230
3197.00,0.0229
3196.00,0.0228
3195.00,0.0228
3194.00,0.0227
3193.00,0.0226
3192.00,0.0225
3191.00,0.0224
3190.00,0.0223
3189.00,0.0222
3188.00,0.0222
3187.00,0.0221
3186.00,0.0220
3185.00,0.0219
3184.00,0.0219
3183.00,0.0218
3182.00,0.0217
3181.00,0.0216
3180.00,0.0215
3179.00,0.0214
3178.00,0.0213
3177.00,0.0212
3176.00,0.0212
3175.00,0.0211
3174.00,0.0210
3173.00,0.0209
3172.00,0.0208
3171.00,0.0208
3170.00,0.0207
3169.00,0.0206
3168.00,0.0206
3167.00,0.0205
3166.00,0.0204
3165.00,0.0203
3164.00,0.0203
3163.00,0.0202
3162.00,0.0201
3161.00,0.0201
3160.00,0.0200
3159.00,0.0199
3158.00,0.0199
3157.00,0.0198
3156.00,0.0197
3155.00,0.0197
3154.00,0.0196
3153.00,0.0196
3152.00,0.0195
3151.00,0.0195
3150.00,0.0194
3149.00,0.0194
3148.00,0.0193
3147.00,0.0193
3146.00,0.0192
3145.00,0.0192
3144.00,0.0191
3143.00,0.0191
3142.00,0.0190
3141.00,0.0190
3140.00,0.0189
3139.00,0.0189
3138.00,0.0189
3137.00,0.0189
3136.00,0.0189
3135.00,0.0188
3134.00,0.0188
3133.00,0.0188
3132.00,0.0188
3131.00,0.0187
3130.00,0.0187
3129.00,0.0187
3128.00,0.0187
3127.00,0.0187
3126.00,0.0187
3125.00,0.0187
3124.00,0.0187
3123.00,0.0186
3122.00,0.0186
3121.00,0.0186
3120.00,0.0186
3119.00,0.0186
3118.00,0.0186
3117.00,0.0186
3116.00,0.0187
3115.00,0.0187
3114.00,0.0187
3113.00,0.0188
3112.00,0.0188
3111.00,0.0188
3110.00,0.0188
3109.00,0.0188
3108.00,0.0189
3107.00,0.0189
3106.00,0.0189
3105.00,0.0190
3104.00,0.0190
3103.00,0.0190
3102.00,0.0190
3101.00,0.0190
3100.00,0.0191
3099.00,0.0192
3098.00,0.0192
3097.00,0.0193
3096.00,0.0193
3095.00,0.0193
3094.00,0.0193
3093.00,0.0193
3092.00,0.0193
3091.00,0.0193
3090.00,0.0193
3089.00,0.0193
3088.00,0.0193
3087.00,0.0193
3086.00,0.0193
3085.00,0.0193
3084.00,0.0192
3083.00,0.0192
3082.00,0.0192
3081.00,0.0192
3080.00,0.0192
3079.00,0.0192
3078.00,0.0192
3077.00,0.0193
3076.00,0.0193
3075.00,0.0194
3074.00,0.0194
3073.00,0.0194
3072.00,0.0194
3071.00,0.0194
3070.00,0.0194
3069.00,0.0193
3068.00,0.0193
3067.00,0.0193
3066.00,0.0194
3065.00,0.0194
3064.00,0.0194
3063.00,0.0195
3062.00,0.0195
3061.00,0.0194
3060.00,0.0194
3059.00,0.0193
3058.00,0.0192
3057.00,0.0191
3056.00,0.0191
3055.00,0.0190
3054.00,0.0189
3053.00,0.0188
3052.00,0.0186
3051.00,0.0185
3050.00,0.0184
3049.00,0.0182
3048.00,0.0181
3047.00,0.0179
3046.00,0.0177
3045.00,0.0175
3044.00,0.0173
3043.00,0.0171
3042.00,0.0170
3041.00,0.0169
3040.00,0.0168
3039.00,0.0167
3038.00,0.0165
3037.00,0.0164
3036.00,0.0162
3035.00,0.0160
3034.00,0.0159
3033.00,0.0158
3032.00,0.0157
3031.00,0.0156
3030.00,0.0156
3029.00,0.0155
3028.00,0.0154
3027.00,0.0153
3026.00,0.0151
3025.00,0.0150
3024.00,0.0149
3023.00,0.0148
3022.00,0.0147
3021.00,0.0146
3020.00,0.0144
3019.00,0.0143
3018.00,0.0141
3017.00,0.0140
3016.00,0.0138
3015.00,0.0137
3014.00,0.0135
3013.00,0.0134
3012.00,0.0133
3011.00,0.0133
3010.00,0.0132
3009.00,0.0131
3008.00,0.0130
3007.00,0.0129
3006.00,0.0128
3005.00,0.0127
3004.00,0.0125
3003.00,0.0124
3002.00,0.0123
3001.00,0.0122
3000.00,0.0120
2999.00,0.0119
2998.00,0.0117
2997.00,0.0116
2996.00,0.0114
2995.00,0.0113
2994.00,0.0111
2993.00,0.0109
2992.00,0.0108
2991.00,0.0106
2990.00,0.0105
2989.00,0.0103
2988.00,0.0102
2987.00,0.0100
2986.00,0.0098
2985.00,0.0095
2984.00,0.0092
2983.00,0.0088
2982.00,0.0085
2981.00,0.0082
2980.00,0.0079
2979.00,0.0077
2978.00,0.0073
2977.00,0.0070
2976.00,0.0065
2975.00,0.0061
2974.00,0.0055
2973.00,0.0049
2972.00,0.0043
2971.00,0.0036
2970.00,0.0029
2969.00,0.0022
2968.00,0.0014
2967.00,0.0006
2966.00,-0.0002
2965.00,-0.0011
2964.00,-0.0020
2963.00,-0.0028
2962.00,-0.0037
2961.00,-0.0044
2960.00,-0.0052
2959.00,-0.0058
2958.00,-0.0064
2957.00,-0.0069
2956.00,-0.0073
2955.00,-0.0076
2954.00,-0.0078
2953.00,-0.0079
2952.00,-0.0079
2951.00,-0.0079
2950.00,-0.0079
2949.00,-0.0080
2948.00,-0.0082
2947.00,-0.0085
2946.00,-0.0088
2945.00,-0.0092
2944.00,-0.0098
2943.00,-0.0104
2942.00,-0.0111
2941.00,-0.0119
2940.00,-0.0128
2939.00,-0.0138
2938.00,-0.0148
2937.00,-0.0160
2936.00,-0.0172
2935.00,-0.0184
2934.00,-0.0197
2933.00,-0.0211
2932.00,-0.0225
2931.00,-0.0239
2930.00,-0.0253
2929.00,-0.0268
2928.00,-0.0283
2927.00,-0.0298
2926.00,-0.0315
2925.00,-0.0332
2924.00,-0.0350
2923.00,-0.0368
2922.00,-0.0387
2921.00,-0.0407
2920.00,-0.0424
2919.00,-0.0437
2918.00,-0.0443
2917.00,-0.0437
2916.00,-0.0417
2915.00,-0.0387
2914.00,-0.0349
2913.00,-0.0309
2912.00,-0.0273
2911.00,-0.0242
2910.00,-0.0217
2909.00,-0.0196
2908.00,-0.0179
2907.00,-0.0165
2906.00,-0.0153
2905.00,-0.0142
2904.00,-0.0132
2903.00,-0.0123
2902.00,-0.0114
2901.00,-0.0106
2900.00,-0.0099
2899.00,-0.0092
2898.00,-0.0085
2897.00,-0.0078
2896.00,-0.0071
2895.00,-0.0065
2894.00,-0.0059
2893.00,-0.0053
2892.00,-0.0047
2891.00,-0.0042
2890.00,-0.0036
2889.00,-0.0031
2888.00,-0.0026
2887.00,-0.0022
2886.00,-0.0017
2885.00,-0.0013
2884.00,-0.0009
2883.00,-0.0006
2882.00,-0.0003
2881.00,0.0000
2880.00,0.0002
2879.00,0.0003
2878.00,0.0004
2877.00,0.0003
2876.00,0.0002
2875.00,0.0000
2874.00,-0.0002
2873.00,-0.0003
2872.00,-0.0005
2871.00,-0.0007
2870.00,-0.0008
2869.00,-0.0009
2868.00,-0.0011
2867.00,-0.0013
2866.00,-0.0016
2865.00,-0.0021
2864.00,-0.0026
2863.00,-0.0033
2862.00,-0.0041
2861.00,-0.0049
2860.00,-0.0059
2859.00,-0.0069
2858.00,-0.0080
2857.00,-0.0093
2856.00,-0.0106
2855.00,-0.0123
2854.00,-0.0143
2853.00,-0.0167
2852.00,-0.0193
2851.00,-0.0217
2850.00,-0.0231
2849.00,-0.0229
2848.00,-0.0209
2847.00,-0.0176
2846.00,-0.0138
2845.00,-0.0102
2844.00,-0.0071
2843.00,-0.0046
2842.00,-0.0026
2841.00,-0.0010
2840.00,0.0003
2839.00,0.0015
2838.00,0.0026
2837.00,0.0035
2836.00,0.0044
2835.00,0.0052
2834.00,0.0059
2833.00,0.0066
2832.00,0.0072
2831.00,0.0078
2830.00,0.0083
2829.00,0.0088
2828.00,0.0092
2827.00,0.0096
2826.00,0.0100
2825.00,0.0103
2824.00,0.0106
2823.00,0.0108
2822.00,0.0110
2821.00,0.0112
2820.00,0.0114
2819.00,0.0115
2818.00,0.0117
2817.00,0.0118
2816.00,0.0119
2815.00,0.0120
2814.00,0.0121
2813.00,0.0122
2812.00,0.0123
2811.00,0.0123
2810.00,0.0124
2809.00,0.0124
2808.00,0.0125
2807.00,0.0125
2806.00,0.0126
2805.00,0.0126
2804.00,0.0127
2803.00,0.0127
2802.00,0.0127
2801.00,0.0128
2800.00,0.0128
2799.00,0.0128
2798.00,0.0129
2797.00,0.0129
2796.00,0.0129
2795.00,0.0129
2794.00,0.0130
2793.00,0.0130
2792.00,0.0130
2791.00,0.0131
2790.00,0.0131
2789.00,0.0131
2788.00,0.0131
2787.00,0.0131
2786.00,0.0131
2785.00,0.0131
2784.00,0.0132
2783.00,0.0132
2782.00,0.0132
2781.00,0.0132
2780.00,0.0132
2779.00,0.0132
2778.00,0.0132
2777.00,0.0133
2776.00,0.0133
2775.00,0.0133
2774.00,0.0133
2773.00,0.0133
2772.00,0.0132
2771.00,0.0132
2770.00,0.0132
2769.00,0.0132
2768.00,0.0132
2767.00,0.0132
2766.00,0.0132
2765.00,0.0132
2764.00,0.0132
2763.00,0.0132
2762.00,0.0132
2761.00,0.0132
2760.00,0.0131
2759.00,0.0131
2758.00,0.0131
2757.00,0.0131
2756.00,0.0131
2755.00,0.0131
2754.00,0.0131
2753.00,0.0131
2752.00,0.0131
2751.00,0.0131
2750.00,0.0130
2749.00,0.0130
2748.00,0.0130
2747.00,0.0130
2746.00,0.0130
2745.00,0.0130
2744.00,0.0129
2743.00,0.0129
2742.00,0.0129
2741.00,0.0129
2740.00,0.0129
2739.00,0.0129
2738.00,0.0128
2737.00,0.0128
2736.00,0.0128
2735.00,0.0128
2734.00,0.0127
2733.00,0.0127
2732.00,0.0127
2731.00,0.0127
2730.00,0.0127
2729.00,0.0127
2728.00,0.0127
2727.00,0.0127
2726.00,0.0127
2725.00,0.0127
2724.00,0.0127
2723.00,0.0126
2722.00,0.0126
2721.00,0.0126
2720.00,0.0126
2719.00,0.0126
2718.00,0.0126
2717.00,0.0126
2716.00,0.0126
2715.00,0.0126
2714.00,0.0125
2713.00,0.0125
2712.00,0.0125
2711.00,0.0125
2710.00,0.0125
2709.00,0.0125
2708.00,0.0125
2707.00,0.0125
2706.00,0.0125
2705.00,0.0125
2704.00,0.0125
2703.00,0.0125
2702.00,0.0125
2701.00,0.0124
2700.00,0.0124
2699.00,0.0124
2698.00,0.0124
2697.00,0.0124
2696.00,0.0124
2695.00,0.0124
2694.00,0.0124
2693.00,0.0124
2692.00,0.0124
2691.00,0.0123
2690.00,0.0123
2689.00,0.0123
2688.00,0.0123
2687.00,0.0123
2686.00,0.0123
2685.00,0.0123
2684.00,0.0123
2683.00,0.0123
2682.00,0.0123
2681.00,0.0122
2680.00,0.0122
2679.00,0.0122
2678.00,0.0122
2677.00,0.0122
2676.00,0.0122
2675.00,0.0122
2674.00,0.0121
2673.00,0.0121
2672.00,0.0121
2671.00,0.0121
2670.00,0.0120
2669.00,0.0120
2668.00,0.0120
2667.00,0.0120
2666.00,0.0120
2665.00,0.0120
2664.00,0.0120
2663.00,0.0120
2662.00,0.0120
2661.00,0.0120
2660.00,0.0120
2659.00,0.0119
2658.00,0.0119
2657.00,0.0119
2656.00,0.0119
2655.00,0.0119
2654.00,0.0119
2653.00,0.0119
2652.00,0.0119
2651.00,0.0119
2650.00,0.0119
2649.00,0.0118
2648.00,0.0118
2647.00,0.0118
2646.00,0.0118
2645.00,0.0118
2644.00,0.0118
2643.00,0.0118
2642.00,0.0118
2641.00,0.0118
2640.00,0.0118
2639.00,0.0118
2638.00,0.0118
2637.00,0.0118
2636.00,0.0118
2635.00,0.0118
2634.00,0.0118
2633.00,0.0118
2632.00,0.0117
2631.00,0.0117
2630.00,0.0117
2629.00,0.0117
2628.00,0.0118
2627.00,0.0118
2626.00,0.0118
2625.00,0.0118
2624.00,0.0117
2623.00,0.0117
2622.00,0.0117
2621.00,0.0117
2620.00,0.0117
2619.00,0.0117
2618.00,0.0117
2617.00,0.0117
2616.00,0.0117
2615.00,0.0117
2614.00,0.0117
2613.00,0.0117
2612.00,0.0117
2611.00,0.0117
2610.00,0.0117
2609.00,0.0117
2608.00,0.0116
2607.00,0.0116
2606.00,0.0116
2605.00,0.0116
2604.00,0.0116
2603.00,0.0116
2602.00,0.0116
2601.00,0.0116
2600.00,0.0116
2599.00,0.0116
2598.00,0.0116
2597.00,0.0116
2596.00,0.0115
2595.00,0.0115
2594.00,0.0115
2593.00,0.0115
2592.00,0.0115
2591.00,0.0115
2590.00,0.0115
2589.00,0.0115
2588.00,0.0115
2587.00,0.0115
2586.00,0.0115
2585.00,0.0115
2584.00,0.0115
2583.00,0.0115
2582.00,0.0115
2581.00,0.0115
2580.00,0.0115
2579.00,0.0115
2578.00,0.0115
2577.00,0.0114
2576.00,0.0114
2575.00,0.0114
2574.00,0.0114
2573.00,0.0114
2572.00,0.0114
2571.00,0.0114
2570.00,0.0114
2569.00,0.0114
2568.00,0.0114
2567.00,0.0113
2566.00,0.0113
2565.00,0.0113
2564.00,0.0113
2563.00,0.0114
2562.00,0.0114
2561.00,0.0113
2560.00,0.0113
2559.00,0.0113
2558.00,0.0113
2557.00,0.0112
2556.00,0.0112
2555.00,0.0112
2554.00,0.0112
2553.00,0.0112
2552.00,0.0112
2551.00,0.0112
2550.00,0.0112
2549.00,0.0112
2548.00,0.0112
2547.00,0.0112
2546.00,0.0112
2545.00,0.0112
2544.00,0.0112
2543.00,0.0111
2542.00,0.0111
2541.00,0.0111
2540.00,0.0111
2539.00,0.0111
2538.00,0.0111
2537.00,0.0111
2536.00,0.0111
2535.00,0.0111
2534.00,0.0111
2533.00,0.0111
2532.00,0.0110
2531.00,0.0110
2530.00,0.0110
2529.00,0.0110
2528.00,0.0110
2527.00,0.0110
2526.00,0.0110
2525.00,0.0110
2524.00,0.0110
2523.00,0.0110
2522.00,0.0110
2521.00,0.0110
2520.00,0.0110
2519.00,0.0110
2518.00,0.0110
2517.00,0.0110
2516.00,0.0110
2515.00,0.0110
2514.00,0.0109
2513.00,0.0109
2512.00,0.0109
2511.00,0.0109
2510.00,0.0109
2509.00,0.0109
2508.00,0.0109
2507.00,0.0109
2506.00,0.0109
2505.00,0.0109
2504.00,0.0109
2503.00,0.0109
2502.00,0.0109
2501.00,0.0109
2500.00,0.0109
2499.00,0.0109
2498.00,0.0109
2497.00,0.0109
2496.00,0.0109
2495.00,0.0109
2494.00,0.0109
2493.00,0.0108
2492.00,0.0108
2491.00,0.0108
2490.00,0.0108
2489.00,0.0108
2488.00,0.0108
2487.00,0.0108
2486.00,0.0108
2485.00,0.0108
2484.00,0.0107
2483.00,0.0107
2482.00,0.0107
2481.00,0.0107
2480.00,0.0107
2479.00,0.0107
2478.00,0.0107
2477.00,0.0107
2476.00,0.0107
2475.00,0.0107
2474.00,0.0107
2473.00,0.0107
2472.00,0.0107
2471.00,0.0107
2470.00,0.0107
2469.00,0.0107
2468.00,0.0107
2467.00,0.0106
2466.00,0.0106
2465.00,0.0106
2464.00,0.0106
2463.00,0.0106
2462.00,0.0106
2461.00,0.0106
2460.00,0.0106
2459.00,0.0106
2458.00,0.0106
2457.00,0.0106
2456.00,0.0106
2455.00,0.0106
2454.00,0.0106
2453.00,0.0106
2452.00,0.0106
2451.00,0.0106
2450.00,0.0106
2449.00,0.0106
2448.00,0.0106
2447.00,0.0105
2446.00,0.0105
2445.00,0.0105
2444.00,0.0105
2443.00,0.0105
2442.00,0.0105
2441.00,0.0105
2440.00,0.0105
2439.00,0.0105
2438.00,0.0104
2437.00,0.0104
2436.00,0.0104
2435.00,0.0104
2434.00,0.0104
2433.00,0.0104
2432.00,0.0104
2431.00,0.0104
2430.00,0.0104
2429.00,0.0104
2428.00,0.0103
2427.00,0.0103
2426.00,0.0103
2425.00,0.0103
2424.00,0.0103
2423.00,0.0103
2422.00,0.0103
2421.00,0.0103
2420.00,0.0102
2419.00,0.0102
2418.00,0.0102
2417.00,0.0102
2416.00,0.0102
2415.00,0.0102
2414.00,0.0102
2413.00,0.0102
2412.00,0.0102
2411.00,0.0102
2410.00,0.0101
2409.00,0.0101
2408.00,0.0101
2407.00,0.0101
2406.00,0.0101
2405.00,0.0101
2404.00,0.0101
2403.00,0.0101
2402.00,0.0101
2401.00,0.0101
2400.00,0.0101
2399.00,0.0101
2398.00,0.0100
2397.00,0.0100
2396.00,0.0100
2395.00,0.0100
2394.00,0.0100
2393.00,0.0100
2392.00,0.0100
2391.00,0.0100
2390.00,0.0100
2389.00,0.0100
2388.00,0.0100
2387.00,0.0100
2386.00,0.0100
2385.00,0.0100
2384.00,0.0100
2383.00,0.0100
2382.00,0.0100
2381.00,0.0100
2380.00,0.0100
2379.00,0.0100
2378.00,0.0099
2377.00,0.0100
2376.00,0.0100
2375.00,0.0099
2374.00,0.0099
2373.00,0.0099
2372.00,0.0099
2371.00,0.0099
2370.00,0.0099
2369.00,0.0099
2368.00,0.0099
2367.00,0.0099
2366.00,0.0099
2365.00,0.0099
2364.00,0.0099
2363.00,0.0099
2362.00,0.0099
2361.00,0.0099
2360.00,0.0099
2359.00,0.0099
2358.00,0.0099
2357.00,0.0099
2356.00,0.0099
2355.00,0.0099
2354.00,0.0099
2353.00,0.0098
2352.00,0.0098
2351.00,0.0098
2350.00,0.0098
2349.00,0.0098
2348.00,0.0098
2347.00,0.0098
2346.00,0.0097
2345.00,0.0097
2344.00,0.0097
2343.00,0.0097
2342.00,0.0097
2341.00,0.0097
2340.00,0.0097
2339.00,0.0097
2338.00,0.0097
2337.00,0.0097
2336.00,0.0097
2335.00,0.0097
2334.00,0.0097
2333.00,0.0097
2332.00,0.0097
2331.00,0.0097
2330.00,0.0097
2329.00,0.0097
2328.00,0.0096
2327.00,0.0096
2326.00,0.0096
2325.00,0.0096
2324.00,0.0096
2323.00,0.0096
2322.00,0.0096
2321.00,0.0095
2320.00,0.0095
2319.00,0.0095
2318.00,0.0095
2317.00,0.0095
2316.00,0.0095
2315.00,0.0095
2314.00,0.0095
2313.00,0.0095
2312.00,0.0095
2311.00,0.0095
2310.00,0.0094
2309.00,0.0094
2308.00,0.0094
2307.00,0.0094
2306.00,0.0094
2305.00,0.0094
2304.00,0.0094
2303.00,0.0094
2302.00,0.0094
2301.00,0.0094
2300.00,0.0094
2299.00,0.0094
2298.00,0.0093
2297.00,0.0093
2296.00,0.0093
2295.00,0.0093
2294.00,0.0093
2293.00,0.0093
2292.00,0.0092
2291.00,0.0092
2290.00,0.0092
2289.00,0.0092
2288.00,0.0091
2287.00,0.0091
2286.00,0.0091
2285.00,0.0091
2284.00,0.0091
2283.00,0.0091
2282.00,0.0091
2281.00,0.0091
2280.00,0.0090
2279.00,0.0090
2278.00,0.0090
2277.00,0.0089
2276.00,0.0089
2275.00,0.0089
2274.00,0.0088
2273.00,0.0088
2272.00,0.0088
2271.00,0.0088
2270.00,0.0088
2269.00,0.0088
2268.00,0.0087
2267.00,0.0087
2266.00,0.0087
2265.00,0.0086
2264.00,0.0085
2263.00,0.0084
2262.00,0.0083
2261.00,0.0083
2260.00,0.0082
2259.00,0.0081
2258.00,0.0080
2257.00,0.0078
2256.00,0.0076
2255.00,0.0074
2254.00,0.0072
2253.00,0.0070
2252.00,0.0068
2251.00,0.0065
2250.00,0.0062
2249.00,0.0058
2248.00,0.0054
2247.00,0.0049
2246.00,0.0043
2245.00,0.0036
2244.00,0.0029
2243.00,0.0021
2242.00,0.0013
2241.00,0.0006
2240.00,-0.0001
2239.00,-0.0006
2238.00,-0.0008
2237.00,-0.0006
2236.00,-0.0001
2235.00,0.0008
2234.00,0.0019
2233.00,0.0031
2232.00,0.0043
2231.00,0.0053
2230.00,0.0062
2229.00,0.0068
2228.00,0.0073
2227.00,0.0076
2226.00,0.0079
2225.00,0.0081
2224.00,0.0082
2223.00,0.0083
2222.00,0.0084
2221.00,0.0084
2220.00,0.0084
2219.00,0.0084
2218.00,0.0084
2217.00,0.0085
2216.00,0.0085
2215.00,0.0085
2214.00,0.0085
2213.00,0.0086
2212.00,0.0086
2211.00,0.0086
2210.00,0.0086
2209.00,0.0087
2208.00,0.0087
2207.00,0.0087
2206.00,0.0086
2205.00,0.0086
2204.00,0.0086
2203.00,0.0086
2202.00,0.0087
2201.00,0.0088
2200.00,0.0088
2199.00,0.0087
2198.00,0.0086
2197.00,0.0085
2196.00,0.0084
2195.00,0.0084
2194.00,0.0084
2193.00,0.0084
2192.00,0.0084
2191.00,0.0084
2190.00,0.0084
2189.00,0.0085
2188.00,0.0085
2187.00,0.0085
2186.00,0.0085
2185.00,0.0085
2184.00,0.0086
2183.00,0.0086
2182.00,0.0087
2181.00,0.0087
2180.00,0.0087
2179.00,0.0087
2178.00,0.0087
2177.00,0.0087
2176.00,0.0087
2175.00,0.0087
2174.00,0.0087
2173.00,0.0087
2172.00,0.0087
2171.00,0.0086
2170.00,0.0086
2169.00,0.0085
2168.00,0.0085
2167.00,0.0084
2166.00,0.0084
2165.00,0.0084
2164.00,0.0084
2163.00,0.0083
2162.00,0.0082
2161.00,0.0082
2160.00,0.0083
2159.00,0.0084
2158.00,0.0085
2157.00,0.0086
2156.00,0.0087
2155.00,0.0087
2154.00,0.0088
2153.00,0.0088
2152.00,0.0087
2151.00,0.0086
2150.00,0.0086
2149.00,0.0086
2148.00,0.0086
2147.00,0.0086
2146.00,0.0087
2145.00,0.0087
2144.00,0.0087
2143.00,0.0087
2142.00,0.0087
2141.00,0.0087
2140.00,0.0087
2139.00,0.0087
2138.00,0.0087
2137.00,0.0087
2136.00,0.0087
2135.00,0.0088
2134.00,0.0088
2133.00,0.0088
2132.00,0.0088
2131.00,0.0087
2130.00,0.0087
2129.00,0.0087
2128.00,0.0087
2127.00,0.0087
2126.00,0.0088
2125.00,0.0087
2124.00,0.0087
2123.00,0.0087
2122.00,0.0087
2121.00,0.0086
2120.00,0.0086
2119.00,0.0086
2118.00,0.0086
2117.00,0.0085
2116.00,0.0085
2115.00,0.0085
2114.00,0.0085
2113.00,0.0085
2112.00,0.0085
2111.00,0.0085
2110.00,0.0085
2109.00,0.0085
2108.00,0.0085
2107.00,0.0085
2106.00,0.0084
2105.00,0.0084
2104.00,0.0085
2103.00,0.0085
2102.00,0.0085
2101.00,0.0085
2100.00,0.0085
2099.00,0.0085
2098.00,0.0085
2097.00,0.0086
2096.00,0.0086
2095.00,0.0086
2094.00,0.0086
2093.00,0.0086
2092.00,0.0085
2091.00,0.0085
2090.00,0.0084
2089.00,0.0084
2088.00,0.0084
2087.00,0.0084
2086.00,0.0084
2085.00,0.0084
2084.00,0.0084
2083.00,0.0084
2082.00,0.0084
2081.00,0.0084
2080.00,0.0084
2079.00,0.0084
2078.00,0.0084
2077.00,0.0083
2076.00,0.0083
2075.00,0.0083
2074.00,0.0083
2073.00,0.0083
2072.00,0.0083
2071.00,0.0083
2070.00,0.0083
2069.00,0.0083
2068.00,0.0082
2067.00,0.0082
2066.00,0.0082
2065.00,0.0082
2064.00,0.0082
2063.00,0.0082
2062.00,0.0082
2061.00,0.0082
2060.00,0.0082
2059.00,0.0081
2058.00,0.0081
2057.00,0.0081
2056.00,0.0081
2055.00,0.0081
2054.00,0.0082
2053.00,0.0081
2052.00,0.0081
2051.00,0.0080
2050.00,0.0080
2049.00,0.0079
2048.00,0.0079
2047.00,0.0079
2046.00,0.0079
2045.00,0.0079
2044.00,0.0078
2043.00,0.0078
2042.00,0.0077
2041.00,0.0077
2040.00,0.0077
2039.00,0.0076
2038.00,0.0077
2037.00,0.0078
2036.00,0.0079
2035.00,0.0079
2034.00,0.0079
2033.00,0.0078
2032.00,0.0078
2031.00,0.0077
2030.00,0.0077
2029.00,0.0077
2028.00,0.0077
2027.00,0.0077
2026.00,0.0077
2025.00,0.0078
2024.00,0.0078
2023.00,0.0079
2022.00,0.0080
2021.00,0.0080
2020.00,0.0080
2019.00,0.0079
2018.00,0.0078
2017.00,0.0078
2016.00,0.0077
2015.00,0.0077
2014.00,0.0078
2013.00,0.0078
2012.00,0.0079
2011.00,0.0079
2010.00,0.0079
2009.00,0.0079
2008.00,0.0078
2007.00,0.0077
2006.00,0.0077
2005.00,0.0077
2004.00,0.0078
2003.00,0.0078
2002.00,0.0078
2001.00,0.0078
2000.00,0.0078
1999.00,0.0078
1998.00,0.0077
1997.00,0.0076
1996.00,0.0075
1995.00,0.0075
1994.00,0.0075
1993.00,0.0076
1992.00,0.0076
1991.00,0.0076
1990.00,0.0077
1989.00,0.0077
1988.00,0.0077
1987.00,0.0077
1986.00,0.0078
1985.00,0.0078
1984.00,0.0078
1983.00,0.0077
1982.00,0.0076
1981.00,0.0076
1980.00,0.0075
1979.00,0.0075
1978.00,0.0076
1977.00,0.0078
1976.00,0.0078
1975.00,0.0079
1974.00,0.0079
1973.00,0.0079
1972.00,0.0079
1971.00,0.0079
1970.00,0.0080
1969.00,0.0080
1968.00,0.0081
1967.00,0.0081
1966.00,0.0081
1965.00,0.0081
1964.00,0.0081
1963.00,0.0081
1962.00,0.0081
1961.00,0.0082
1960.00,0.0082
1959.00,0.0082
1958.00,0.0082
1957.00,0.0082
1956.00,0.0082
1955.00,0.0082
1954.00,0.0082
1953.00,0.0082
1952.00,0.0083
1951.00,0.0083
1950.00,0.0084
1949.00,0.0084
1948.00,0.0085
1947.00,0.0086
1946.00,0.0086
1945.00,0.0086
1944.00,0.0086
1943.00,0.0086
1942.00,0.0085
1941.00,0.0085
1940.00,0.0085
1939.00,0.0084
1938.00,0.0084
1937.00,0.0084
1936.00,0.0084
1935.00,0.0083
1934.00,0.0083
1933.00,0.0083
1932.00,0.0083
1931.00,0.0083
1930.00,0.0083
1929.00,0.0083
1928.00,0.0082
1927.00,0.0082
1926.00,0.0081
1925.00,0.0081
1924.00,0.0080
1923.00,0.0079
1922.00,0.0078
1921.00,0.0078
1920.00,0.0078
1919.00,0.0078
1918.00,0.0078
1917.00,0.0078
1916.00,0.0077
1915.00,0.0076
1914.00,0.0076
1913.00,0.0075
1912.00,0.0075
1911.00,0.0074
1910.00,0.0074
1909.00,0.0074
1908.00,0.0074
1907.00,0.0073
1906.00,0.0073
1905.00,0.0073
1904.00,0.0073
1903.00,0.0073
1902.00,0.0073
1901.00,0.0073
1900.00,0.0073
1899.00,0.0073
1898.00,0.0073
1897.00,0.0073
1896.00,0.0073
1895.00,0.0072
1894.00,0.0072
1893.00,0.0072
1892.00,0.0072
1891.00,0.0072
1890.00,0.0072
1889.00,0.0072
1888.00,0.0072
1887.00,0.0072
1886.00,0.0072
1885.00,0.0072
1884.00,0.0071
1883.00,0.0071
1882.00,0.0071
1881.00,0.0071
1880.00,0.0071
1879.00,0.0070
1878.00,0.0070
1877.00,0.0070
1876.00,0.0070
1875.00,0.0069
1874.00,0.0069
1873.00,0.0070
1872.00,0.0070
1871.00,0.0070
1870.00,0.0069
1869.00,0.0069
1868.00,0.0069
1867.00,0.0069
1866.00,0.0069
1865.00,0.0069
1864.00,0.0068
1863.00,0.0068
1862.00,0.0068
1861.00,0.0068
1860.00,0.0067
1859.00,0.0067
1858.00,0.0067
1857.00,0.0067
1856.00,0.0066
1855.00,0.0066
1854.00,0.0066
1853.00,0.0066
1852.00,0.0066
1851.00,0.0066
1850.00,0.0066
1849.00,0.0066
1848.00,0.0065
1847.00,0.0065
1846.00,0.0065
1845.00,0.0065
1844.00,0.0065
1843.00,0.0065
1842.00,0.0065
1841.00,0.0064
1840.00,0.0064
1839.00,0.0064
1838.00,0.0063
1837.00,0.0063
1836.00,0.0063
1835.00,0.0063
1834.00,0.0062
1833.00,0.0062
1832.00,0.0062
1831.00,0.0062
1830.00,0.0062
1829.00,0.0062
1828.00,0.0062
1827.00,0.0061
1826.00,0.0061
1825.00,0.0061
1824.00,0.0061
1823.00,0.0061
1822.00,0.0060
1821.00,0.0060
1820.00,0.0060
1819.00,0.0060
1818.00,0.0059
1817.00,0.0059
1816.00,0.0059
1815.00,0.0058
1814.00,0.0058
1813.00,0.0058
1812.00,0.0057
1811.00,0.0057
1810.00,0.0056
1809.00,0.0056
1808.00,0.0055
1807.00,0.0055
1806.00,0.0054
1805.00,0.0054
1804.00,0.0053
1803.00,0.0053
1802.00,0.0052
1801.00,0.0051
1800.00,0.0049
1799.00,0.0048
1798.00,0.0047
1797.00,0.0045
1796.00,0.0043
1795.00,0.0042
1794.00,0.0040
1793.00,0.0037
1792.00,0.0035
1791.00,0.0031
1790.00,0.0028
1789.00,0.0025
1788.00,0.0022
1787.00,0.0018
1786.00,0.0015
1785.00,0.0011
1784.00,0.0006
1783.00,0.0002
1782.00,-0.0003
1781.00,-0.0007
1780.00,-0.0012
1779.00,-0.0015
1778.00,-0.0019
1777.00,-0.0022
1776.00,-0.0025
1775.00,-0.0028
1774.00,-0.0031
1773.00,-0.0034
1772.00,-0.0036
1771.00,-0.0038
1770.00,-0.0038
1769.00,-0.0038
1768.00,-0.0039
1767.00,-0.0039
1766.00,-0.0039
1765.00,-0.0039
1764.00,-0.0038
1763.00,-0.0037
1762.00,-0.0036
1761.00,-0.0035
1760.00,-0.0034
1759.00,-0.0032
1758.00,-0.0031
1757.00,-0.0030
1756.00,-0.0029
1755.00,-0.0028
1754.00,-0.0028
1753.00,-0.0027
1752.00,-0.0026
1751.00,-0.0026
1750.00,-0.0026
1749.00,-0.0027
1748.00,-0.0026
1747.00,-0.0026
1746.00,-0.0027
1745.00,-0.0027
1744.00,-0.0027
1743.00,-0.0027
1742.00,-0.0028
1741.00,-0.0028
1740.00,-0.0028
1739.00,-0.0028
1738.00,-0.0029
1737.00,-0.0029
1736.00,-0.0029
1735.00,-0.0029
1734.00,-0.0029
1733.00,-0.0029
1732.00,-0.0028
1731.00,-0.0028
1730.00,-0.0027
1729.00,-0.0027
1728.00,-0.0025
1727.00,-0.0024
1726.00,-0.0023
1725.00,-0.0021
1724.00,-0.0019
1723.00,-0.0016
1722.00,-0.0014
1721.00,-0.0012
1720.00,-0.0009
1719.00,-0.0006
1718.00,-0.0001
1717.00,0.0005
1716.00,0.0012
1715.00,0.0018
1714.00,0.0023
1713.00,0.0029
1712.00,0.0034
1711.00,0.0040
1710.00,0.0046
1709.00,0.0054
1708.00,0.0064
1707.00,0.0076
1706.00,0.0092
1705.00,0.0110
1704.00,0.0126
1703.00,0.0138
1702.00,0.0153
1701.00,0.0175
1700.00,0.0199
1699.00,0.0212
1698.00,0.0214
1697.00,0.0214
1696.00,0.0217
1695.00,0.0222
1694.00,0.0224
1693.00,0.0224
1692.00,0.0223
1691.00,0.0224
1690.00,0.0227
1689.00,0.0230
1688.00,0.0232
1687.00,0.0231
1686.00,0.0233
1685.00,0.0242
1684.00,0.0258
1683.00,0.0272
1682.00,0.0277
1681.00,0.0279
1680.00,0.0281
1679.00,0.0284
1678.00,0.0286
1677.00,0.0290
1676.00,0.0297
1675.00,0.0307
1674.00,0.0314
1673.00,0.0317
1672.00,0.0318
1671.00,0.0323
1670.00,0.0335
1669.00,0.0349
1668.00,0.0360
1667.00,0.0366
1666.00,0.0369
1665.00,0.0374
1664.00,0.0384
1663.00,0.0400
1662.00,0.0416
1661.00,0.0429
1660.00,0.0439
1659.00,0.0446
1658.00,0.0452
1657.00,0.0454
1656.00,0.0453
1655.00,0.0456
1654.00,0.0476
1653.00,0.0514
1652.00,0.0541
1651.00,0.0544
1650.00,0.0537
1649.00,0.0533
1648.00,0.0537
1647.00,0.0554
1646.00,0.0572
1645.00,0.0583
1644.00,0.0585
1643.00,0.0586
1642.00,0.0588
1641.00,0.0593
1640.00,0.0598
1639.00,0.0603
1638.00,0.0609
1637.00,0.0625
1636.00,0.0656
1635.00,0.0691
1634.00,0.0712
1633.00,0.0719
1632.00,0.0721
1631.00,0.0724
1630.00,0.0731
1629.00,0.0740
1628.00,0.0751
1627.00,0.0759
1626.00,0.0760
1625.00,0.0759
1624.00,0.0758
1623.00,0.0758
1622.00,0.0751
1621.00,0.0735
1620.00,0.0712
1619.00,0.0686
1618.00,0.0662
1617.00,0.0639
1616.00,0.0616
1615.00,0.0591
1614.00,0.0562
1613.00,0.0531
1612.00,0.0499
1611.00,0.0469
1610.00,0.0440
1609.00,0.0412
1608.00,0.0385
1607.00,0.0360
1606.00,0.0338
1605.00,0.0318
1604.00,0.0300
1603.00,0.0285
1602.00,0.0273
1601.00,0.0263
1600.00,0.0254
1599.00,0.0248
1598.00,0.0243
1597.00,0.0238
1596.00,0.0234
1595.00,0.0230
1594.00,0.0227
1593.00,0.0223
1592.00,0.0219
1591.00,0.0215
1590.00,0.0212
1589.00,0.0210
1588.00,0.0207
1587.00,0.0206
1586.00,0.0206
1585.00,0.0206
1584.00,0.0207
1583.00,0.0209
1582.00,0.0212
1581.00,0.0215
1580.00,0.0216
1579.00,0.0216
1578.00,0.0217
1577.00,0.0222
1576.00,0.0231
1575.00,0.0240
1574.00,0.0244
1573.00,0.0245
1572.00,0.0245
1571.00,0.0249
1570.00,0.0259
1569.00,0.0271
1568.00,0.0279
1567.00,0.0284
1566.00,0.0290
1565.00,0.0298
1564.00,0.0305
1563.00,0.0308
1562.00,0.0309
1561.00,0.0311
1560.00,0.0324
1559.00,0.0356
1558.00,0.0386
1557.00,0.0397
1556.00,0.0400
1555.00,0.0405
1554.00,0.0415
1553.00,0.0425
1552.00,0.0433
1551.00,0.0443
1550.00,0.0456
1549.00,0.0469
1548.00,0.0478
1547.00,0.0486
1546.00,0.0495
1545.00,0.0507
1544.00,0.0519
1543.00,0.0529
1542.00,0.0540
1541.00,0.0559
1540.00,0.0586
1539.00,0.0610
1538.00,0.0620
1537.00,0.0619
1536.00,0.0615
1535.00,0.0617
1534.00,0.0629
1533.00,0.0647
1532.00,0.0659
1531.00,0.0664
1530.00,0.0666
1529.00,0.0671
1528.00,0.0678
1527.00,0.0689
1526.00,0.0702
1525.00,0.0710
1524.00,0.0714
1523.00,0.0721
1522.00,0.0737
1521.00,0.0761
1520.00,0.0777
1519.00,0.0785
1518.00,0.0792
1517.00,0.0804
1516.00,0.0816
1515.00,0.0820
1514.00,0.0816
1513.00,0.0807
1512.00,0.0797
1511.00,0.0784
1510.00,0.0769
1509.00,0.0753
1508.00,0.0740
1507.00,0.0738
1506.00,0.0738
1505.00,0.0727
1504.00,0.0707
1503.00,0.0684
1502.00,0.0662
1501.00,0.0641
1500.00,0.0620
1499.00,0.0601
1498.00,0.0583
1497.00,0.0566
1496.00,0.0549
1495.00,0.0532
1494.00,0.0513
1493.00,0.0494
1492.00,0.0475
1491.00,0.0458
1490.00,0.0442
1489.00,0.0427
1488.00,0.0411
1487.00,0.0395
1486.00,0.0380
1485.00,0.0365
1484.00,0.0350
1483.00,0.0336
1482.00,0.0324
1481.00,0.0313
1480.00,0.0301
1479.00,0.0290
1478.00,0.0277
1477.00,0.0262
1476.00,0.0244
1475.00,0.0224
1474.00,0.0204
1473.00,0.0190
1472.00,0.0181
1471.00,0.0174
1470.00,0.0163
1469.00,0.0149
1468.00,0.0134
1467.00,0.0118
1466.00,0.0101
1465.00,0.0084
1464.00,0.0068
1463.00,0.0057
1462.00,0.0049
1461.00,0.0044
1460.00,0.0038
1459.00,0.0030
1458.00,0.0019
1457.00,0.0004
1456.00,-0.0010
1455.00,-0.0023
1454.00,-0.0034
1453.00,-0.0042
1452.00,-0.0047
1451.00,-0.0049
1450.00,-0.0049
1449.00,-0.0048
1448.00,-0.0046
1447.00,-0.0045
1446.00,-0.0046
1445.00,-0.0049
1444.00,-0.0053
1443.00,-0.0057
1442.00,-0.0062
1441.00,-0.0068
1440.00,-0.0074
1439.00,-0.0080
1438.00,-0.0084
1437.00,-0.0085
1436.00,-0.0085
1435.00,-0.0085
1434.00,-0.0085
1433.00,-0.0082
1432.00,-0.0075
1431.00,-0.0063
1430.00,-0.0047
1429.00,-0.0031
1428.00,-0.0016
1427.00,-0.0004
1426.00,0.0006
1425.00,0.0014
1424.00,0.0021
1423.00,0.0025
1422.00,0.0026
1421.00,0.0026
1420.00,0.0029
1419.00,0.0034
1418.00,0.0039
1417.00,0.0042
1416.00,0.0043
1415.00,0.0043
1414.00,0.0043
1413.00,0.0042
1412.00,0.0042
1411.00,0.0041
1410.00,0.0041
1409.00,0.0039
1408.00,0.0038
1407.00,0.0037
1406.00,0.0036
1405.00,0.0037
1404.00,0.0038
1403.00,0.0039
1402.00,0.0039
1401.00,0.0039
1400.00,0.0042
1399.00,0.0046
1398.00,0.0049
1397.00,0.0052
1396.00,0.0055
1395.00,0.0059
1394.00,0.0064
1393.00,0.0066
1392.00,0.0068
1391.00,0.0067
1390.00,0.0067
1389.00,0.0066
1388.00,0.0066
1387.00,0.0065
1386.00,0.0063
1385.00,0.0059
1384.00,0.0053
1383.00,0.0047
1382.00,0.0040
1381.00,0.0033
1380.00,0.0026
1379.00,0.0019
1378.00,0.0013
1377.00,0.0008
1376.00,0.0005
1375.00,0.0003
1374.00,0.0002
1373.00,0.0001
1372.00,-0.0000
1371.00,-0.0003
1370.00,-0.0006
1369.00,-0.0009
1368.00,-0.0013
1367.00,-0.0018
1366.00,-0.0023
1365.00,-0.0029
1364.00,-0.0034
1363.00,-0.0039
1362.00,-0.0043
1361.00,-0.0046
1360.00,-0.0050
1359.00,-0.0053
1358.00,-0.0055
1357.00,-0.0058
1356.00,-0.0059
1355.00,-0.0060
1354.00,-0.0060
1353.00,-0.0061
1352.00,-0.0061
1351.00,-0.0060
1350.00,-0.0059
1349.00,-0.0057
1348.00,-0.0055
1347.00,-0.0052
1346.00,-0.0048
1345.00,-0.0044
1344.00,-0.0040
1343.00,-0.0035
1342.00,-0.0031
1341.00,-0.0026
1340.00,-0.0021
1339.00,-0.0016
1338.00,-0.0011
1337.00,-0.0009
1336.00,-0.0007
1335.00,-0.0005
1334.00,-0.0004
1333.00,-0.0004
1332.00,-0.0004
1331.00,-0.0003
1330.00,-0.0003
1329.00,-0.0004
1328.00,-0.0004
1327.00,-0.0005
1326.00,-0.0005
1325.00,-0.0005
1324.00,-0.0006
1323.00,-0.0006
1322.00,-0.0006
1321.00,-0.0006
1320.00,-0.0006
1319.00,-0.0005
1318.00,-0.0004
1317.00,-0.0004
1316.00,-0.0003
1315.00,-0.0002
1314.00,-0.0002
1313.00,-0.0001
1312.00,-0.0000
1311.00,0.0001
1310.00,0.0002
1309.00,0.0003
1308.00,0.0004
1307.00,0.0006
1306.00,0.0007
1305.00,0.0008
1304.00,0.0010
1303.00,0.0012
1302.00,0.0014
1301.00,0.0016
1300.00,0.0018
1299.00,0.0020
1298.00,0.0022
1297.00,0.0025
1296.00,0.0027
1295.00,0.0030
1294.00,0.0033
1293.00,0.0036
1292.00,0.0039
1291.00,0.0042
1290.00,0.0046
1289.00,0.0049
1288.00,0.0053
1287.00,0.0056
1286.00,0.0059
1285.00,0.0063
1284.00,0.0066
1283.00,0.0069
1282.00,0.0072
1281.00,0.0075
1280.00,0.0078
1279.00,0.0082
1278.00,0.0085
1277.00,0.0089
1276.00,0.0092
1275.00,0.0096
1274.00,0.0100
1273.00,0.0104
1272.00,0.0109
1271.00,0.0113
1270.00,0.0117
1269.00,0.0120
1268.00,0.0124
1267.00,0.0126
1266.00,0.0129
1265.00,0.0130
1264.00,0.0131
1263.00,0.0132
1262.00,0.0133
1261.00,0.0133
1260.00,0.0133
1259.00,0.0133
1258.00,0.0133
1257.00,0.0133
1256.00,0.0133
1255.00,0.0132
1254.00,0.0132
1253.00,0.0132
1252.00,0.0132
1251.00,0.0132
1250.00,0.0133
1249.00,0.0135
1248.00,0.0136
1247.00,0.0138
1246.00,0.0140
1245.00,0.0142
1244.00,0.0144
1243.00,0.0146
1242.00,0.0149
1241.00,0.0151
1240.00,0.0153
1239.00,0.0156
1238.00,0.0159
1237.00,0.0161
1236.00,0.0163
1235.00,0.0165
1234.00,0.0166
1233.00,0.0166
1232.00,0.0166
1231.00,0.0164
1230.00,0.0161
1229.00,0.0157
1228.00,0.0152
1227.00,0.0146
1226.00,0.0139
1225.00,0.0132
1224.00,0.0124
1223.00,0.0116
1222.00,0.0107
1221.00,0.0099
1220.00,0.0090
1219.00,0.0081
1218.00,0.0073
1217.00,0.0064
1216.00,0.0055
1215.00,0.0046
1214.00,0.0037
1213.00,0.0028
1212.00,0.0019
1211.00,0.0009
1210.00,-0.0000
1209.00,-0.0010
1208.00,-0.0020
1207.00,-0.0030
1206.00,-0.0040
1205.00,-0.0050
1204.00,-0.0060
1203.00,-0.0069
1202.00,-0.0078
1201.00,-0.0087
1200.00,-0.0096
1199.00,-0.0104
1198.00,-0.0112
1197.00,-0.0119
1196.00,-0.0126
1195.00,-0.0132
1194.00,-0.0137
1193.00,-0.0141
1192.00,-0.0145
1191.00,-0.0147
1190.00,-0.0149
1189.00,-0.0150
1188.00,-0.0151
1187.00,-0.0151
1186.00,-0.0152
1185.00,-0.0152
1184.00,-0.0152
1183.00,-0.0151
1182.00,-0.0150
1181.00,-0.0148
1180.00,-0.0146
1179.00,-0.0142
1178.00,-0.0137
1177.00,-0.0130
1176.00,-0.0122
1175.00,-0.0112
1174.00,-0.0102
1173.00,-0.0091
1172.00,-0.0080
1171.00,-0.0070
1170.00,-0.0059
1169.00,-0.0050
1168.00,-0.0041
1167.00,-0.0033
1166.00,-0.0024
1165.00,-0.0016
1164.00,-0.0009
1163.00,-0.0002
1162.00,0.0004
1161.00,0.0009
1160.00,0.0013
1159.00,0.0016
1158.00,0.0019
1157.00,0.0022
1156.00,0.0024
1155.00,0.0025
1154.00,0.0026
1153.00,0.0027
1152.00,0.0027
1151.00,0.0027
1150.00,0.0026
1149.00,0.0024
1148.00,0.0022
1147.00,0.0019
1146.00,0.0015
1145.00,0.0011
1144.00,0.0005
1143.00,-0.0001
1142.00,-0.0009
1141.00,-0.0017
1140.00,-0.0026
1139.00,-0.0035
1138.00,-0.0045
1137.00,-0.0054
1136.00,-0.0063
1135.00,-0.0071
1134.00,-0.0078
1133.00,-0.0084
1132.00,-0.0088
1131.00,-0.0091
1130.00,-0.0091
1129.00,-0.0091
1128.00,-0.0089
1127.00,-0.0087
1126.00,-0.0084
1125.00,-0.0081
1124.00,-0.0078
1123.00,-0.0076
1122.00,-0.0075
1121.00,-0.0073
1120.00,-0.0073
1119.00,-0.0072
1118.00,-0.0071
1117.00,-0.0071
1116.00,-0.0072
1115.00,-0.0073
1114.00,-0.0073
1113.00,-0.0074
1112.00,-0.0074
1111.00,-0.0075
1110.00,-0.0075
1109.00,-0.0075
1108.00,-0.0076
1107.00,-0.0075
1106.00,-0.0075
1105.00,-0.0075
1104.00,-0.0075
1103.00,-0.0076
1102.00,-0.0077
1101.00,-0.0079
1100.00,-0.0082
1099.00,-0.0085
1098.00,-0.0088
1097.00,-0.0091
1096.00,-0.0094
1095.00,-0.0096
1094.00,-0.0098
1093.00,-0.0100
1092.00,-0.0101
1091.00,-0.0102
1090.00,-0.0102
1089.00,-0.0102
1088.00,-0.0101
1087.00,-0.0101
1086.00,-0.0099
1085.00,-0.0098
1084.00,-0.0097
1083.00,-0.0095
1082.00,-0.0093
1081.00,-0.0090
1080.00,-0.0088
1079.00,-0.0085
1078.00,-0.0082
1077.00,-0.0079
1076.00,-0.0077
1075.00,-0.0074
1074.00,-0.0071
1073.00,-0.0069
1072.00,-0.0067
1071.00,-0.0065
1070.00,-0.0063
1069.00,-0.0061
1068.00,-0.0059
1067.00,-0.0058
1066.00,-0.0056
1065.00,-0.0056
1064.00,-0.0056
1063.00,-0.0056
1062.00,-0.0057
1061.00,-0.0059
1060.00,-0.0062
1059.00,-0.0065
1058.00,-0.0068
1057.00,-0.0072
1056.00,-0.0076
1055.00,-0.0080
1054.00,-0.0084
1053.00,-0.0088
1052.00,-0.0092
1051.00,-0.0097
1050.00,-0.0100
1049.00,-0.0104
1048.00,-0.0107
1047.00,-0.0110
1046.00,-0.0111
1045.00,-0.0111
1044.00,-0.0111
1043.00,-0.0110
1042.00,-0.0108
1041.00,-0.0105
1040.00,-0.0103
1039.00,-0.0099
1038.00,-0.0095
1037.00,-0.0091
1036.00,-0.0086
1035.00,-0.0081
1034.00,-0.0076
1033.00,-0.0070
1032.00,-0.0065
1031.00,-0.0060
1030.00,-0.0056
1029.00,-0.0053
1028.00,-0.0050
1027.00,-0.0047
1026.00,-0.0043
1025.00,-0.0040
1024.00,-0.0037
1023.00,-0.0034
1022.00,-0.0031
1021.00,-0.0029
1020.00,-0.0028
1019.00,-0.0028
1018.00,-0.0031
1017.00,-0.0037
1016.00,-0.0046
1015.00,-0.0057
1014.00,-0.0068
1013.00,-0.0078
1012.00,-0.0085
1011.00,-0.0089
1010.00,-0.0089
1009.00,-0.0089
1008.00,-0.0087
1007.00,-0.0085
1006.00,-0.0083
1005.00,-0.0083
1004.00,-0.0084
1003.00,-0.0087
1002.00,-0.0090
1001.00,-0.0095
1000.00,-0.0101
999.00,-0.0108
998.00,-0.0115
997.00,-0.0122
996.00,-0.0130
995.00,-0.0137
994.00,-0.0144
993.00,-0.0152
992.00,-0.0160
991.00,-0.0170
990.00,-0.0181
989.00,-0.0194
988.00,-0.0211
987.00,-0.0232
986.00,-0.0256
985.00,-0.0285
984.00,-0.0318
983.00,-0.0356
982.00,-0.0398
981.00,-0.0446
980.00,-0.0499
979.00,-0.0556
978.00,-0.0618
977.00,-0.0684
976.00,-0.0754
975.00,-0.0826
974.00,-0.0899
973.00,-0.0972
972.00,-0.1042
971.00,-0.1107
970.00,-0.1163
969.00,-0.1207
968.00,-0.1237
967.00,-0.1248
966.00,-0.1237
965.00,-0.1203
964.00,-0.1147
963.00,-0.1070
962.00,-0.0979
961.00,-0.0878
960.00,-0.0777
959.00,-0.0679
958.00,-0.0588
957.00,-0.0509
956.00,-0.0441
955.00,-0.0384
954.00,-0.0336
953.00,-0.0298
952.00,-0.0266
951.00,-0.0240
950.00,-0.0218
949.00,-0.0200
948.00,-0.0185
947.00,-0.0173
946.00,-0.0162
945.00,-0.0154
944.00,-0.0148
943.00,-0.0142
942.00,-0.0138
941.00,-0.0136
940.00,-0.0134
939.00,-0.0134
938.00,-0.0134
937.00,-0.0136
936.00,-0.0139
935.00,-0.0143
934.00,-0.0148
933.00,-0.0154
932.00,-0.0161
931.00,-0.0168
930.00,-0.0176
929.00,-0.0185
928.00,-0.0195
927.00,-0.0206
926.00,-0.0216
925.00,-0.0227
924.00,-0.0238
923.00,-0.0249
922.00,-0.0258
921.00,-0.0267
920.00,-0.0275
919.00,-0.0281
918.00,-0.0285
917.00,-0.0287
916.00,-0.0287
915.00,-0.0285
914.00,-0.0280
913.00,-0.0273
912.00,-0.0264
911.00,-0.0253
910.00,-0.0240
909.00,-0.0226
908.00,-0.0211
907.00,-0.0195
906.00,-0.0179
905.00,-0.0164
904.00,-0.0150
903.00,-0.0136
902.00,-0.0124
901.00,-0.0113
900.00,-0.0103
899.00,-0.0095
898.00,-0.0087
897.00,-0.0081
896.00,-0.0077
895.00,-0.0072
894.00,-0.0069
893.00,-0.0066
892.00,-0.0064
891.00,-0.0063
890.00,-0.0061
889.00,-0.0059
888.00,-0.0057
887.00,-0.0055
886.00,-0.0052
885.00,-0.0049
884.00,-0.0046
883.00,-0.0043
882.00,-0.0040
881.00,-0.0036
880.00,-0.0033
879.00,-0.0029
878.00,-0.0026
877.00,-0.0022
876.00,-0.0020
875.00,-0.0017
874.00,-0.0015
873.00,-0.0013
872.00,-0.0013
871.00,-0.0013
870.00,-0.0014
869.00,-0.0015
868.00,-0.0016
867.00,-0.0017
866.00,-0.0017
865.00,-0.0017
864.00,-0.0016
863.00,-0.0016
862.00,-0.0014
861.00,-0.0013
860.00,-0.0012
859.00,-0.0010
858.00,-0.0008
857.00,-0.0007
856.00,-0.0005
855.00,-0.0004
854.00,-0.0002
853.00,-0.0002
852.00,-0.0002
851.00,-0.0002
850.00,-0.0003
849.00,-0.0005
848.00,-0.0007
847.00,-0.0010
846.00,-0.0013
845.00,-0.0015
844.00,-0.0018
843.00,-0.0021
842.00,-0.0024
841.00,-0.0027
840.00,-0.0030
839.00,-0.0033
838.00,-0.0035
837.00,-0.0037
836.00,-0.0040
835.00,-0.0042
834.00,-0.0044
833.00,-0.0045
832.00,-0.0045
831.00,-0.0044
830.00,-0.0043
829.00,-0.0042
828.00,-0.0042
827.00,-0.0041
826.00,-0.0041
825.00,-0.0040
824.00,-0.0039
823.00,-0.0037
822.00,-0.0035
821.00,-0.0032
820.00,-0.0030
819.00,-0.0027
818.00,-0.0024
817.00,-0.0022
816.00,-0.0020
815.00,-0.0019
814.00,-0.0018
813.00,-0.0017
812.00,-0.0017
811.00,-0.0017
810.00,-0.0018
809.00,-0.0018
808.00,-0.0018
807.00,-0.0019
806.00,-0.0019
805.00,-0.0019
804.00,-0.0020
803.00,-0.0021
802.00,-0.0021
801.00,-0.0021
800.00,-0.0022
799.00,-0.0023
798.00,-0.0023
797.00,-0.0023
796.00,-0.0023
795.00,-0.0023
794.00,-0.0022
793.00,-0.0022
792.00,-0.0022
791.00,-0.0022
790.00,-0.0021
789.00,-0.0020
788.00,-0.0019
787.00,-0.0018
786.00,-0.0017
785.00,-0.0016
784.00,-0.0015
783.00,-0.0014
782.00,-0.0013
781.00,-0.0012
780.00,-0.0011
779.00,-0.0011
778.00,-0.0010
777.00,-0.0010
776.00,-0.0010
775.00,-0.0010
774.00,-0.0009
773.00,-0.0009
772.00,-0.0010
771.00,-0.0010
770.00,-0.0010
769.00,-0.0010
768.00,-0.0010
767.00,-0.0010
766.00,-0.0009
765.00,-0.0009
764.00,-0.0009
763.00,-0.0009
762.00,-0.0009
761.00,-0.0009
760.00,-0.0009
759.00,-0.0009
758.00,-0.0009
757.00,-0.0009
756.00,-0.0009
755.00,-0.0009
754.00,-0.0007
753.00,-0.0005
752.00,-0.0004
751.00,-0.0002
750.00,0.0000
749.00,0.0002
748.00,0.0004
747.00,0.0006
746.00,0.0008
745.00,0.0010
744.00,0.0011
743.00,0.0013
742.00,0.0015
741.00,0.0018
740.00,0.0019
739.00,0.0022
738.00,0.0024
737.00,0.0026
736.00,0.0029
735.00,0.0031
734.00,0.0032
733.00,0.0031
732.00,0.0028
731.00,0.0027
730.00,0.0028
729.00,0.0035
728.00,0.0045
727.00,0.0057
726.00,0.0066
725.00,0.0072
724.00,0.0074
723.00,0.0073
722.00,0.0069
721.00,0.0063
720.00,0.0061
719.00,0.0064
718.00,0.0073
717.00,0.0085
716.00,0.0094
715.00,0.0100
714.00,0.0103
713.00,0.0105
712.00,0.0106
711.00,0.0106
710.00,0.0107
709.00,0.0107
708.00,0.0106
707.00,0.0105
706.00,0.0105
705.00,0.0104
704.00,0.0101
703.00,0.0099
702.00,0.0095
701.00,0.0091
700.00,0.0085
699.00,0.0079
698.00,0.0073
697.00,0.0067
696.00,0.0060
695.00,0.0054
694.00,0.0048
693.00,0.0042
692.00,0.0037
691.00,0.0033
690.00,0.0030
689.00,0.0029
688.00,0.0029
687.00,0.0030
686.00,0.0033
685.00,0.0036
684.00,0.0040
683.00,0.0043
682.00,0.0047
681.00,0.0051
680.00,0.0055
679.00,0.0057
678.00,0.0060
677.00,0.0062
676.00,0.0064
675.00,0.0065
674.00,0.0068
673.00,0.0071
672.00,0.0074
671.00,0.0075
670.00,0.0077
669.00,0.0082
668.00,0.0090
667.00,0.0099
666.00,0.0106
665.00,0.0109
664.00,0.0112
663.00,0.0114
662.00,0.0116
661.00,0.0119
660.00,0.0120
659.00,0.0122
658.00,0.0124
657.00,0.0126
656.00,0.0127
655.00,0.0129
654.00,0.0132
653.00,0.0134
652.00,0.0137
651.00,0.0140
650.00,0.0143
649.00,0.0147
648.00,0.0150
647.00,0.0153
646.00,0.0157
645.00,0.0160
644.00,0.0164
643.00,0.0167
642.00,0.0170
641.00,0.0172
640.00,0.0172
639.00,0.0171
638.00,0.0171
637.00,0.0170
636.00,0.0169
635.00,0.0169
634.00,0.0169
633.00,0.0169
632.00,0.0168
631.00,0.0167
630.00,0.0167
629.00,0.0166
628.00,0.0164
627.00,0.0163
626.00,0.0162
625.00,0.0162
624.00,0.0161
623.00,0.0161
622.00,0.0161
621.00,0.0162
620.00,0.0162
619.00,0.0163
618.00,0.0164
617.00,0.0165
616.00,0.0165
615.00,0.0164
614.00,0.0162
613.00,0.0159
612.00,0.0155
611.00,0.0151
610.00,0.0147
609.00,0.0143
608.00,0.0139
607.00,0.0136
606.00,0.0135
605.00,0.0135
604.00,0.0134
603.00,0.0134
602.00,0.0135
601.00,0.0135
600.00,0.0134
599.00,0.0133
598.00,0.0132
597.00,0.0129
596.00,0.0125
595.00,0.0121
594.00,0.0118
593.00,0.0114
592.00,0.0109
591.00,0.0103
590.00,0.0099
589.00,0.0095
588.00,0.0090
587.00,0.0086
586.00,0.0083
585.00,0.0080
584.00,0.0078
583.00,0.0077
582.00,0.0078
581.00,0.0082
580.00,0.0086
579.00,0.0091
578.00,0.0097
577.00,0.0103
576.00,0.0108
575.00,0.0112
574.00,0.0116
573.00,0.0119
572.00,0.0121
571.00,0.0125
570.00,0.0129
569.00,0.0133
568.00,0.0137
567.00,0.0141
566.00,0.0146
565.00,0.0151
564.00,0.0155
563.00,0.0159
562.00,0.0165
561.00,0.0171
560.00,0.0177
559.00,0.0183
558.00,0.0189
557.00,0.0194
556.00,0.0197
555.00,0.0199
554.00,0.0202
553.00,0.0204
552.00,0.0205
551.00,0.0205
550.00,0.0205
549.00,0.0204
548.00,0.0202
547.00,0.0199
546.00,0.0198
545.00,0.0198
544.00,0.0195
543.00,0.0193
542.00,0.0190
541.00,0.0188
540.00,0.0185
539.00,0.0183
538.00,0.0181
537.00,0.0180
536.00,0.0178
535.00,0.0177
534.00,0.0176
533.00,0.0176
532.00,0.0174
531.00,0.0172
530.00,0.0171
529.00,0.0170
528.00,0.0169
527.00,0.0169
526.00,0.0169
525.00,0.0168
524.00,0.0166
523.00,0.0164
522.00,0.0163
521.00,0.0163
520.00,0.0162
519.00,0.0161
518.00,0.0162
517.00,0.0162
516.00,0.0161
515.00,0.0160
514.00,0.0159
513.00,0.0158
512.00,0.0156
511.00,0.0155
510.00,0.0156
509.00,0.0157
508.00,0.0157
507.00,0.0157
506.00,0.0156
505.00,0.0155
504.00,0.0152
503.00,0.0150
502.00,0.0151
501.00,0.0151
500.00,0.0149
499.00,0.0148
498.00,0.0147
497.00,0.0147
496.00,0.0146
495.00,0.0144
494.00,0.0144
493.00,0.0144
492.00,0.0143
491.00,0.0142
490.00,0.0143
489.00,0.0143
488.00,0.0141
487.00,0.0138
486.00,0.0135
485.00,0.0132
484.00,0.0129
483.00,0.0126
482.00,0.0126
481.00,0.0125
480.00,0.0121
479.00,0.0117
478.00,0.0115
477.00,0.0114
476.00,0.0111
475.00,0.0109
474.00,0.0108
473.00,0.0106
472.00,0.0103
471.00,0.0101
470.00,0.0101
469.00,0.0101
468.00,0.0099
467.00,0.0097
466.00,0.0097
465.00,0.0095
464.00,0.0093
463.00,0.0091
462.00,0.0092
461.00,0.0092
460.00,0.0090
459.00,0.0087
458.00,0.0088
457.00,0.0089
456.00,0.0088
455.00,0.0086
454.00,0.0086
453.00,0.0086
452.00,0.0083
451.00,0.0080
450.00,0.0080
449.00,0.0080
448.00,0.0078
447.00,0.0076
446.00,0.0076
445.00,0.0075
444.00,0.0073
443.00,0.0071
442.00,0.0071
441.00,0.0071
440.00,0.0068
439.00,0.0066
438.00,0.0065
437.00,0.0063
436.00,0.0058
435.00,0.0056
434.00,0.0058
433.00,0.0061
432.00,0.0060
431.00,0.0059
430.00,0.0060
429.00,0.0060
428.00,0.0057
427.00,0.0055
426.00,0.0057
425.00,0.0058
424.00,0.0054
423.00,0.0049
422.00,0.0048
421.00,0.0044
420.00,0.0034
419.00,0.0026
418.00,0.0027
417.00,0.0027
416.00,0.0019
415.00,0.0011
414.00,0.0007
413.00,0.0003
412.00,-0.0005
411.00,-0.0011
410.00,-0.0012
409.00,-0.0016
408.00,-0.0025
407.00,-0.0031
406.00,-0.0027
405.00,-0.0024
404.00,-0.0031
403.00,-0.0039
402.00,-0.0037
401.00,-0.0034
400.00,-0.0041
