PE IR       SUBTECH     SPECTRUM    ASCII       PEDS        4.00        
   -1
2024_06_05_NitrileGlove.ASC
24/06/05
11:24:52.00
24/06/05
11:24:52.00
Yarger Lab
Sample 125 By YargerLab Date Tuesday, June 04 2024
400.000000
#HDR
-1
-1
#GR
cm-1
%T
1.0
0.0
4000.000000
-1.000000
3601
8
99.978189
74.559642
#DATA
4000.000000	98.510569
3999.000000	98.510599
3998.000000	98.512193
3997.000000	98.513960
3996.000000	98.515627
3995.000000	98.516153
3994.000000	98.515127
3993.000000	98.512617
3992.000000	98.509705
3991.000000	98.507791
3990.000000	98.507451
3989.000000	98.508286
3988.000000	98.509788
3987.000000	98.511703
3986.000000	98.513683
3985.000000	98.515219
3984.000000	98.516253
3983.000000	98.517079
3982.000000	98.517543
3981.000000	98.517075
3980.000000	98.515417
3979.000000	98.513208
3978.000000	98.511807
3977.000000	98.512265
3976.000000	98.514544
3975.000000	98.517612
3974.000000	98.520502
3973.000000	98.522801
3972.000000	98.524258
3971.000000	98.524960
3970.000000	98.525173
3969.000000	98.525029
3968.000000	98.524759
3967.000000	98.524645
3966.000000	98.524588
3965.000000	98.524388
3964.000000	98.524031
3963.000000	98.523662
3962.000000	98.523739
3961.000000	98.524336
3960.000000	98.524712
3959.000000	98.524816
3958.000000	98.525480
3957.000000	98.527018
3956.000000	98.528940
3955.000000	98.530577
3954.000000	98.531568
3953.000000	98.531360
3952.000000	98.529028
3951.000000	98.524110
3950.000000	98.516328
3949.000000	98.506484
3948.000000	98.497813
3947.000000	98.494070
3946.000000	98.496481
3945.000000	98.504313
3944.000000	98.516302
3943.000000	98.528770
3942.000000	98.536573
3941.000000	98.537324
3940.000000	98.533099
3939.000000	98.528531
3938.000000	98.526193
3937.000000	98.523650
3936.000000	98.516711
3935.000000	98.505117
3934.000000	98.495125
3933.000000	98.493223
3932.000000	98.499852
3931.000000	98.509343
3930.000000	98.515590
3929.000000	98.518591
3928.000000	98.522133
3927.000000	98.528524
3926.000000	98.537255
3925.000000	98.543810
3924.000000	98.541531
3923.000000	98.528550
3922.000000	98.510125
3921.000000	98.494706
3920.000000	98.486261
3919.000000	98.482513
3918.000000	98.482323
3917.000000	98.488196
3916.000000	98.500221
3915.000000	98.512636
3914.000000	98.520991
3913.000000	98.526930
3912.000000	98.533126
3911.000000	98.539438
3910.000000	98.543687
3909.000000	98.545401
3908.000000	98.545791
3907.000000	98.543265
3906.000000	98.531841
3905.000000	98.506358
3904.000000	98.467996
3903.000000	98.428893
3902.000000	98.405918
3901.000000	98.407855
3900.000000	98.432337
3899.000000	98.464400
3898.000000	98.486980
3897.000000	98.495799
3896.000000	98.497755
3895.000000	98.502245
3894.000000	98.512928
3893.000000	98.524454
3892.000000	98.529033
3891.000000	98.524731
3890.000000	98.513010
3889.000000	98.492240
3888.000000	98.464654
3887.000000	98.447164
3886.000000	98.453625
3885.000000	98.473669
3884.000000	98.483998
3883.000000	98.478850
3882.000000	98.473331
3881.000000	98.478579
3880.000000	98.489023
3879.000000	98.493982
3878.000000	98.489715
3877.000000	98.481341
3876.000000	98.480816
3875.000000	98.494742
3874.000000	98.512045
3873.000000	98.509841
3872.000000	98.481875
3871.000000	98.451119
3870.000000	98.442902
3869.000000	98.453091
3868.000000	98.457101
3867.000000	98.444369
3866.000000	98.434461
3865.000000	98.446259
3864.000000	98.466316
3863.000000	98.471705
3862.000000	98.461142
3861.000000	98.450460
3860.000000	98.453548
3859.000000	98.477999
3858.000000	98.521937
3857.000000	98.571536
3856.000000	98.602696
3855.000000	98.605117
3854.000000	98.582301
3853.000000	98.544438
3852.000000	98.509167
3851.000000	98.485120
3850.000000	98.468173
3849.000000	98.460747
3848.000000	98.462262
3847.000000	98.467736
3846.000000	98.473753
3845.000000	98.477852
3844.000000	98.476713
3843.000000	98.470242
3842.000000	98.458686
3841.000000	98.444554
3840.000000	98.435049
3839.000000	98.433777
3838.000000	98.439326
3837.000000	98.449132
3836.000000	98.459547
3835.000000	98.466112
3834.000000	98.466192
3833.000000	98.463824
3832.000000	98.465691
3831.000000	98.471606
3830.000000	98.476385
3829.000000	98.478645
3828.000000	98.481667
3827.000000	98.489489
3826.000000	98.498416
3825.000000	98.494945
3824.000000	98.471402
3823.000000	98.444359
3822.000000	98.440020
3821.000000	98.458190
3820.000000	98.471479
3819.000000	98.465680
3818.000000	98.447376
3817.000000	98.441315
3816.000000	98.464658
3815.000000	98.502555
3814.000000	98.527866
3813.000000	98.534220
3812.000000	98.536365
3811.000000	98.543979
3810.000000	98.550229
3809.000000	98.543685
3808.000000	98.527291
3807.000000	98.513335
3806.000000	98.503205
3805.000000	98.487233
3804.000000	98.463645
3803.000000	98.449826
3802.000000	98.463085
3801.000000	98.489835
3800.000000	98.503452
3799.000000	98.498387
3798.000000	98.490162
3797.000000	98.495525
3796.000000	98.516431
3795.000000	98.541023
3794.000000	98.558989
3793.000000	98.571432
3792.000000	98.584010
3791.000000	98.597579
3790.000000	98.607484
3789.000000	98.610853
3788.000000	98.609390
3787.000000	98.605911
3786.000000	98.601057
3785.000000	98.594902
3784.000000	98.587109
3783.000000	98.576420
3782.000000	98.564349
3781.000000	98.557660
3780.000000	98.561836
3779.000000	98.572316
3778.000000	98.581109
3777.000000	98.584372
3776.000000	98.585090
3775.000000	98.587650
3774.000000	98.590654
3773.000000	98.586081
3772.000000	98.570659
3771.000000	98.553962
3770.000000	98.543558
3769.000000	98.535774
3768.000000	98.526339
3767.000000	98.518266
3766.000000	98.517854
3765.000000	98.525996
3764.000000	98.532974
3763.000000	98.528677
3762.000000	98.515989
3761.000000	98.509208
3760.000000	98.511939
3759.000000	98.511075
3758.000000	98.500777
3757.000000	98.489540
3756.000000	98.481189
3755.000000	98.468604
3754.000000	98.447093
3753.000000	98.423641
3752.000000	98.403051
3751.000000	98.378959
3750.000000	98.356998
3749.000000	98.355700
3748.000000	98.372700
3747.000000	98.384248
3746.000000	98.383357
3745.000000	98.389007
3744.000000	98.411093
3743.000000	98.427970
3742.000000	98.418453
3741.000000	98.390647
3740.000000	98.364464
3739.000000	98.345578
3738.000000	98.331037
3737.000000	98.328695
3736.000000	98.348415
3735.000000	98.376781
3734.000000	98.393109
3733.000000	98.402655
3732.000000	98.423738
3731.000000	98.457568
3730.000000	98.487292
3729.000000	98.499053
3728.000000	98.498804
3727.000000	98.503041
3726.000000	98.515323
3725.000000	98.524691
3724.000000	98.528887
3723.000000	98.536410
3722.000000	98.549451
3721.000000	98.562882
3720.000000	98.572581
3719.000000	98.576462
3718.000000	98.576420
3717.000000	98.573349
3716.000000	98.563744
3715.000000	98.543983
3714.000000	98.518830
3713.000000	98.501460
3712.000000	98.496337
3711.000000	98.497027
3710.000000	98.499932
3709.000000	98.507020
3708.000000	98.521168
3707.000000	98.540952
3706.000000	98.561213
3705.000000	98.577139
3704.000000	98.589286
3703.000000	98.601601
3702.000000	98.611831
3701.000000	98.614858
3700.000000	98.610558
3699.000000	98.601402
3698.000000	98.591970
3697.000000	98.587717
3696.000000	98.586612
3695.000000	98.580014
3694.000000	98.565276
3693.000000	98.551506
3692.000000	98.546614
3691.000000	98.543904
3690.000000	98.528253
3689.000000	98.499757
3688.000000	98.478589
3687.000000	98.475621
3686.000000	98.478243
3685.000000	98.476584
3684.000000	98.471613
3683.000000	98.465689
3682.000000	98.457155
3681.000000	98.445527
3680.000000	98.433455
3679.000000	98.414570
3678.000000	98.375357
3677.000000	98.325817
3676.000000	98.294242
3675.000000	98.283973
3674.000000	98.273547
3673.000000	98.247795
3672.000000	98.215983
3671.000000	98.209200
3670.000000	98.233261
3669.000000	98.257955
3668.000000	98.264910
3667.000000	98.261960
3666.000000	98.257925
3665.000000	98.256429
3664.000000	98.256173
3663.000000	98.253896
3662.000000	98.248290
3661.000000	98.238566
3660.000000	98.223596
3659.000000	98.201794
3658.000000	98.174529
3657.000000	98.146763
3656.000000	98.121521
3655.000000	98.095429
3654.000000	98.059483
3653.000000	98.009510
3652.000000	97.955046
3651.000000	97.911857
3650.000000	97.878495
3649.000000	97.849091
3648.000000	97.837080
3647.000000	97.853169
3646.000000	97.883223
3645.000000	97.909578
3644.000000	97.929029
3643.000000	97.946879
3642.000000	97.964904
3641.000000	97.976340
3640.000000	97.976324
3639.000000	97.968223
3638.000000	97.956661
3637.000000	97.941048
3636.000000	97.920233
3635.000000	97.900452
3634.000000	97.887666
3633.000000	97.876272
3632.000000	97.853878
3631.000000	97.819999
3630.000000	97.792650
3629.000000	97.779438
3628.000000	97.767993
3627.000000	97.754225
3626.000000	97.740862
3625.000000	97.731197
3624.000000	97.728433
3623.000000	97.730671
3622.000000	97.732372
3621.000000	97.733110
3620.000000	97.731455
3619.000000	97.717805
3618.000000	97.687322
3617.000000	97.648603
3616.000000	97.611448
3615.000000	97.584722
3614.000000	97.570360
3613.000000	97.559802
3612.000000	97.543677
3611.000000	97.521828
3610.000000	97.504326
3609.000000	97.502774
3608.000000	97.514947
3607.000000	97.527218
3606.000000	97.530835
3605.000000	97.527150
3604.000000	97.522065
3603.000000	97.517810
3602.000000	97.510388
3601.000000	97.497670
3600.000000	97.480842
3599.000000	97.461689
3598.000000	97.443064
3597.000000	97.427612
3596.000000	97.415482
3595.000000	97.404380
3594.000000	97.389038
3593.000000	97.365642
3592.000000	97.335602
3591.000000	97.302687
3590.000000	97.274195
3589.000000	97.259238
3588.000000	97.257730
3587.000000	97.255462
3586.000000	97.243962
3585.000000	97.228236
3584.000000	97.216382
3583.000000	97.210910
3582.000000	97.209123
3581.000000	97.206752
3580.000000	97.201491
3579.000000	97.193284
3578.000000	97.182429
3577.000000	97.169287
3576.000000	97.153827
3575.000000	97.136027
3574.000000	97.115575
3573.000000	97.091549
3572.000000	97.063271
3571.000000	97.029643
3570.000000	96.991149
3569.000000	96.955866
3568.000000	96.933623
3567.000000	96.922857
3566.000000	96.913162
3565.000000	96.900856
3564.000000	96.889327
3563.000000	96.883448
3562.000000	96.883597
3561.000000	96.885418
3560.000000	96.884311
3559.000000	96.878237
3558.000000	96.867363
3557.000000	96.853031
3556.000000	96.837543
3555.000000	96.822974
3554.000000	96.809610
3553.000000	96.794896
3552.000000	96.775619
3551.000000	96.750756
3550.000000	96.721459
3549.000000	96.691729
3548.000000	96.667741
3547.000000	96.653370
3546.000000	96.646586
3545.000000	96.642459
3544.000000	96.638275
3543.000000	96.634037
3542.000000	96.629776
3541.000000	96.624767
3540.000000	96.619179
3539.000000	96.613032
3538.000000	96.605461
3537.000000	96.594934
3536.000000	96.580921
3535.000000	96.564514
3534.000000	96.546784
3533.000000	96.529037
3532.000000	96.512627
3531.000000	96.498045
3530.000000	96.483064
3529.000000	96.464906
3528.000000	96.443516
3527.000000	96.421516
3526.000000	96.402149
3525.000000	96.388427
3524.000000	96.381943
3523.000000	96.380170
3522.000000	96.377356
3521.000000	96.369785
3520.000000	96.359188
3519.000000	96.348538
3518.000000	96.337574
3517.000000	96.324217
3516.000000	96.308664
3515.000000	96.293678
3514.000000	96.280433
3513.000000	96.267724
3512.000000	96.255103
3511.000000	96.243269
3510.000000	96.230656
3509.000000	96.214078
3508.000000	96.193162
3507.000000	96.171710
3506.000000	96.154110
3505.000000	96.142254
3504.000000	96.134477
3503.000000	96.126958
3502.000000	96.116452
3501.000000	96.102937
3500.000000	96.089660
3499.000000	96.079422
3498.000000	96.071783
3497.000000	96.063883
3496.000000	96.053790
3495.000000	96.041940
3494.000000	96.029781
3493.000000	96.018507
3492.000000	96.008848
3491.000000	96.000686
3490.000000	95.992278
3489.000000	95.982074
3488.000000	95.970512
3487.000000	95.958808
3486.000000	95.947522
3485.000000	95.937187
3484.000000	95.929000
3483.000000	95.922901
3482.000000	95.915905
3481.000000	95.905557
3480.000000	95.893547
3479.000000	95.883741
3478.000000	95.877491
3477.000000	95.873290
3476.000000	95.869511
3475.000000	95.864836
3474.000000	95.857760
3473.000000	95.847677
3472.000000	95.836491
3471.000000	95.827110
3470.000000	95.820202
3469.000000	95.814241
3468.000000	95.808286
3467.000000	95.802550
3466.000000	95.797100
3465.000000	95.791775
3464.000000	95.787025
3463.000000	95.782951
3462.000000	95.778258
3461.000000	95.772278
3460.000000	95.766837
3459.000000	95.764117
3458.000000	95.763421
3457.000000	95.761735
3456.000000	95.757699
3455.000000	95.752510
3454.000000	95.747117
3453.000000	95.741410
3452.000000	95.735377
3451.000000	95.729950
3450.000000	95.725743
3449.000000	95.722387
3448.000000	95.718908
3447.000000	95.713901
3446.000000	95.706726
3445.000000	95.699153
3444.000000	95.694695
3443.000000	95.694926
3442.000000	95.696967
3441.000000	95.696529
3440.000000	95.692756
3439.000000	95.688305
3438.000000	95.684953
3437.000000	95.681770
3436.000000	95.677982
3435.000000	95.674621
3434.000000	95.672393
3433.000000	95.670752
3432.000000	95.669091
3431.000000	95.667957
3430.000000	95.667893
3429.000000	95.668699
3428.000000	95.670229
3427.000000	95.672354
3426.000000	95.674074
3425.000000	95.674135
3424.000000	95.673048
3423.000000	95.672819
3422.000000	95.674171
3421.000000	95.675517
3420.000000	95.675401
3419.000000	95.674542
3418.000000	95.674257
3417.000000	95.674796
3416.000000	95.675910
3415.000000	95.677694
3414.000000	95.680117
3413.000000	95.682799
3412.000000	95.685748
3411.000000	95.689355
3410.000000	95.693438
3409.000000	95.697440
3408.000000	95.701532
3407.000000	95.706003
3406.000000	95.709950
3405.000000	95.711913
3404.000000	95.712039
3403.000000	95.711977
3402.000000	95.712669
3401.000000	95.714122
3400.000000	95.716867
3399.000000	95.721667
3398.000000	95.727417
3397.000000	95.731838
3396.000000	95.734791
3395.000000	95.738696
3394.000000	95.745109
3393.000000	95.752826
3392.000000	95.760280
3391.000000	95.767871
3390.000000	95.776895
3389.000000	95.787563
3388.000000	95.798876
3387.000000	95.809343
3386.000000	95.817472
3385.000000	95.822613
3384.000000	95.825706
3383.000000	95.828504
3382.000000	95.831934
3381.000000	95.836233
3380.000000	95.841875
3379.000000	95.849176
3378.000000	95.857144
3377.000000	95.864406
3376.000000	95.871099
3375.000000	95.878269
3374.000000	95.885743
3373.000000	95.892152
3372.000000	95.896852
3371.000000	95.900237
3370.000000	95.902640
3369.000000	95.904610
3368.000000	95.908115
3367.000000	95.915402
3366.000000	95.926380
3365.000000	95.938565
3364.000000	95.949770
3363.000000	95.959570
3362.000000	95.968335
3361.000000	95.976564
3360.000000	95.985136
3359.000000	95.994693
3358.000000	96.004556
3357.000000	96.013534
3356.000000	96.021677
3355.000000	96.030078
3354.000000	96.039247
3353.000000	96.048933
3352.000000	96.059250
3351.000000	96.070412
3350.000000	96.081679
3349.000000	96.092009
3348.000000	96.101777
3347.000000	96.111983
3346.000000	96.122146
3345.000000	96.130763
3344.000000	96.137528
3343.000000	96.143765
3342.000000	96.150564
3341.000000	96.158118
3340.000000	96.166815
3339.000000	96.177343
3338.000000	96.189587
3337.000000	96.202787
3336.000000	96.216762
3335.000000	96.231558
3334.000000	96.246103
3333.000000	96.258912
3332.000000	96.270088
3331.000000	96.281134
3330.000000	96.292711
3329.000000	96.304054
3328.000000	96.314647
3327.000000	96.324712
3326.000000	96.334309
3325.000000	96.343568
3324.000000	96.353664
3323.000000	96.366027
3322.000000	96.380195
3321.000000	96.394007
3320.000000	96.406171
3319.000000	96.417164
3318.000000	96.427597
3317.000000	96.437417
3316.000000	96.446665
3315.000000	96.455790
3314.000000	96.464914
3313.000000	96.473939
3312.000000	96.483427
3311.000000	96.494146
3310.000000	96.505855
3309.000000	96.517766
3308.000000	96.529737
3307.000000	96.541682
3306.000000	96.552443
3305.000000	96.561115
3304.000000	96.569012
3303.000000	96.578337
3302.000000	96.589293
3301.000000	96.600231
3300.000000	96.610429
3299.000000	96.620642
3298.000000	96.630825
3297.000000	96.639894
3296.000000	96.647847
3295.000000	96.656209
3294.000000	96.665769
3293.000000	96.675608
3292.000000	96.684998
3291.000000	96.694494
3290.000000	96.704610
3289.000000	96.715027
3288.000000	96.725579
3287.000000	96.736551
3286.000000	96.747520
3285.000000	96.757424
3284.000000	96.766103
3283.000000	96.774540
3282.000000	96.783429
3281.000000	96.792459
3280.000000	96.801400
3279.000000	96.810298
3278.000000	96.818488
3277.000000	96.825043
3276.000000	96.830386
3275.000000	96.836263
3274.000000	96.843744
3273.000000	96.852401
3272.000000	96.861566
3271.000000	96.871000
3270.000000	96.880333
3269.000000	96.889221
3268.000000	96.898019
3267.000000	96.907148
3266.000000	96.916143
3265.000000	96.924640
3264.000000	96.933606
3263.000000	96.944108
3262.000000	96.955186
3261.000000	96.964560
3260.000000	96.971523
3259.000000	96.977331
3258.000000	96.983093
3257.000000	96.989160
3256.000000	96.996312
3255.000000	97.005373
3254.000000	97.015653
3253.000000	97.025390
3252.000000	97.033801
3251.000000	97.041377
3250.000000	97.048151
3249.000000	97.053732
3248.000000	97.058903
3247.000000	97.065274
3246.000000	97.073344
3245.000000	97.082520
3244.000000	97.092838
3243.000000	97.104943
3242.000000	97.118202
3241.000000	97.130570
3240.000000	97.140822
3239.000000	97.149381
3238.000000	97.156884
3237.000000	97.163531
3236.000000	97.169929
3235.000000	97.176908
3234.000000	97.184467
3233.000000	97.192273
3232.000000	97.200766
3231.000000	97.210800
3230.000000	97.221912
3229.000000	97.232555
3228.000000	97.242039
3227.000000	97.250838
3226.000000	97.259282
3225.000000	97.267332
3224.000000	97.275244
3223.000000	97.283316
3222.000000	97.291197
3221.000000	97.298511
3220.000000	97.305711
3219.000000	97.313059
3218.000000	97.319694
3217.000000	97.325078
3216.000000	97.330655
3215.000000	97.338165
3214.000000	97.347186
3213.000000	97.356017
3212.000000	97.364376
3211.000000	97.373253
3210.000000	97.382837
3209.000000	97.392563
3208.000000	97.402906
3207.000000	97.414875
3206.000000	97.427874
3205.000000	97.439970
3204.000000	97.450150
3203.000000	97.458772
3202.000000	97.466088
3201.000000	97.472099
3200.000000	97.478012
3199.000000	97.485732
3198.000000	97.495770
3197.000000	97.506873
3196.000000	97.517787
3195.000000	97.527808
3194.000000	97.536186
3193.000000	97.542678
3192.000000	97.548700
3191.000000	97.556351
3190.000000	97.566060
3189.000000	97.576667
3188.000000	97.587259
3187.000000	97.597760
3186.000000	97.607995
3185.000000	97.617641
3184.000000	97.627170
3183.000000	97.637040
3182.000000	97.646444
3181.000000	97.654218
3180.000000	97.660831
3179.000000	97.667965
3178.000000	97.676445
3177.000000	97.685714
3176.000000	97.695388
3175.000000	97.705474
3174.000000	97.715474
3173.000000	97.724674
3172.000000	97.733262
3171.000000	97.742112
3170.000000	97.751459
3169.000000	97.761045
3168.000000	97.770888
3167.000000	97.780755
3166.000000	97.789439
3165.000000	97.795953
3164.000000	97.801256
3163.000000	97.807056
3162.000000	97.813517
3161.000000	97.819578
3160.000000	97.825206
3159.000000	97.831591
3158.000000	97.839166
3157.000000	97.847011
3156.000000	97.854340
3155.000000	97.861236
3154.000000	97.867891
3153.000000	97.874350
3152.000000	97.880992
3151.000000	97.888099
3150.000000	97.895060
3149.000000	97.901137
3148.000000	97.906739
3147.000000	97.912740
3146.000000	97.918967
3145.000000	97.924715
3144.000000	97.930345
3143.000000	97.936701
3142.000000	97.943449
3141.000000	97.949710
3140.000000	97.955818
3139.000000	97.962797
3138.000000	97.970090
3137.000000	97.975864
3136.000000	97.979513
3135.000000	97.982244
3134.000000	97.985155
3133.000000	97.988418
3132.000000	97.992248
3131.000000	97.997178
3130.000000	98.003042
3129.000000	98.008966
3128.000000	98.014447
3127.000000	98.019608
3126.000000	98.024373
3125.000000	98.028487
3124.000000	98.032287
3123.000000	98.036152
3122.000000	98.039628
3121.000000	98.042219
3120.000000	98.044804
3119.000000	98.048903
3118.000000	98.054333
3117.000000	98.059046
3116.000000	98.061673
3115.000000	98.063019
3114.000000	98.064893
3113.000000	98.068476
3112.000000	98.073957
3111.000000	98.080690
3110.000000	98.087195
3109.000000	98.091919
3108.000000	98.094343
3107.000000	98.095151
3106.000000	98.095095
3105.000000	98.094499
3104.000000	98.093964
3103.000000	98.094340
3102.000000	98.095887
3101.000000	98.097870
3100.000000	98.099577
3099.000000	98.101056
3098.000000	98.102542
3097.000000	98.103883
3096.000000	98.104750
3095.000000	98.104845
3094.000000	98.103779
3093.000000	98.101452
3092.000000	98.098488
3091.000000	98.095723
3090.000000	98.093236
3089.000000	98.090686
3088.000000	98.088228
3087.000000	98.086199
3086.000000	98.083997
3085.000000	98.080390
3084.000000	98.075073
3083.000000	98.068742
3082.000000	98.061920
3081.000000	98.054595
3080.000000	98.047144
3079.000000	98.040558
3078.000000	98.035664
3077.000000	98.032887
3076.000000	98.032498
3075.000000	98.034256
3074.000000	98.036878
3073.000000	98.039300
3072.000000	98.041970
3071.000000	98.045898
3070.000000	98.050544
3069.000000	98.054047
3068.000000	98.055779
3067.000000	98.057212
3066.000000	98.059956
3065.000000	98.064279
3064.000000	98.069804
3063.000000	98.076237
3062.000000	98.082907
3061.000000	98.088618
3060.000000	98.092713
3059.000000	98.095403
3058.000000	98.097021
3057.000000	98.097835
3056.000000	98.098358
3055.000000	98.098717
3054.000000	98.097329
3053.000000	98.092000
3052.000000	98.082267
3051.000000	98.069851
3050.000000	98.056570
3049.000000	98.042923
3048.000000	98.028987
3047.000000	98.015135
3046.000000	98.001539
3045.000000	97.988053
3044.000000	97.974659
3043.000000	97.961161
3042.000000	97.946669
3041.000000	97.930499
3040.000000	97.913696
3039.000000	97.898106
3038.000000	97.884293
3037.000000	97.871546
3036.000000	97.859542
3035.000000	97.848551
3034.000000	97.838271
3033.000000	97.828110
3032.000000	97.818612
3031.000000	97.811007
3030.000000	97.805239
3029.000000	97.799825
3028.000000	97.793649
3027.000000	97.786600
3026.000000	97.778692
3025.000000	97.769848
3024.000000	97.760710
3023.000000	97.752104
3022.000000	97.743546
3021.000000	97.733420
3020.000000	97.721041
3019.000000	97.707275
3018.000000	97.693183
3017.000000	97.678934
3016.000000	97.664112
3015.000000	97.647848
3014.000000	97.628786
3013.000000	97.606275
3012.000000	97.581646
3011.000000	97.557074
3010.000000	97.533351
3009.000000	97.509820
3008.000000	97.485956
3007.000000	97.461458
3006.000000	97.435156
3005.000000	97.405669
3004.000000	97.373314
3003.000000	97.339798
3002.000000	97.306090
3001.000000	97.271911
3000.000000	97.237148
2999.000000	97.202043
2998.000000	97.166042
2997.000000	97.128012
2996.000000	97.087738
2995.000000	97.045689
2994.000000	97.001629
2993.000000	96.955181
2992.000000	96.907514
2991.000000	96.860468
2990.000000	96.814005
2989.000000	96.766221
2988.000000	96.715133
2987.000000	96.658093
2986.000000	96.589736
2985.000000	96.504730
2984.000000	96.404719
2983.000000	96.300885
2982.000000	96.207540
2981.000000	96.132860
2980.000000	96.075233
2979.000000	96.026009
2978.000000	95.974664
2977.000000	95.912822
2976.000000	95.836107
2975.000000	95.743282
2974.000000	95.635149
2973.000000	95.514959
2972.000000	95.388930
2971.000000	95.263228
2970.000000	95.139296
2969.000000	95.013412
2968.000000	94.881281
2967.000000	94.742107
2966.000000	94.597992
2965.000000	94.451562
2964.000000	94.305291
2963.000000	94.161906
2962.000000	94.024116
2961.000000	93.894251
2960.000000	93.774754
2959.000000	93.668186
2958.000000	93.576678
2957.000000	93.501994
2956.000000	93.446304
2955.000000	93.411965
2954.000000	93.399278
2953.000000	93.404978
2952.000000	93.422414
2951.000000	93.442955
2950.000000	93.457375
2949.000000	93.457601
2948.000000	93.438406
2947.000000	93.397337
2946.000000	93.333643
2945.000000	93.247598
2944.000000	93.140777
2943.000000	93.015229
2942.000000	92.872063
2941.000000	92.711691
2940.000000	92.534945
2939.000000	92.343235
2938.000000	92.137262
2937.000000	91.917250
2936.000000	91.684559
2935.000000	91.441616
2934.000000	91.190155
2933.000000	90.930403
2932.000000	90.662818
2931.000000	90.389423
2930.000000	90.112405
2929.000000	89.831784
2928.000000	89.544683
2927.000000	89.246274
2926.000000	88.931386
2925.000000	88.595803
2924.000000	88.237562
2923.000000	87.857721
2922.000000	87.462288
2921.000000	87.066009
2920.000000	86.698614
2919.000000	86.410862
2918.000000	86.270819
2917.000000	86.346740
2916.000000	86.676094
2915.000000	87.240009
2914.000000	87.961408
2913.000000	88.733862
2912.000000	89.464424
2911.000000	90.099877
2910.000000	90.628227
2909.000000	91.061001
2908.000000	91.418244
2907.000000	91.719456
2906.000000	91.979635
2905.000000	92.209079
2904.000000	92.415092
2903.000000	92.603545
2902.000000	92.778158
2901.000000	92.942020
2900.000000	93.096533
2899.000000	93.243871
2898.000000	93.385746
2897.000000	93.522715
2896.000000	93.655090
2895.000000	93.783479
2894.000000	93.908050
2893.000000	94.028226
2892.000000	94.143839
2891.000000	94.255811
2890.000000	94.364962
2889.000000	94.470840
2888.000000	94.572162
2887.000000	94.667654
2886.000000	94.756165
2885.000000	94.837052
2884.000000	94.910829
2883.000000	94.978433
2882.000000	95.039135
2881.000000	95.089919
2880.000000	95.127583
2879.000000	95.150796
2878.000000	95.160098
2877.000000	95.157029
2876.000000	95.143947
2875.000000	95.123912
2874.000000	95.100539
2873.000000	95.078417
2872.000000	95.062878
2871.000000	95.057117
2870.000000	95.058448
2869.000000	95.058555
2868.000000	95.048350
2867.000000	95.021885
2866.000000	94.975749
2865.000000	94.907089
2864.000000	94.813948
2863.000000	94.696537
2862.000000	94.556904
2861.000000	94.397637
2860.000000	94.221463
2859.000000	94.030320
2858.000000	93.822283
2857.000000	93.589055
2856.000000	93.315662
2855.000000	92.982121
2854.000000	92.567988
2853.000000	92.068525
2852.000000	91.520589
2851.000000	91.022598
2850.000000	90.717696
2849.000000	90.731337
2848.000000	91.100542
2847.000000	91.748440
2846.000000	92.525678
2845.000000	93.286017
2844.000000	93.942373
2843.000000	94.472723
2842.000000	94.894830
2841.000000	95.237184
2840.000000	95.524033
2839.000000	95.772533
2838.000000	95.993173
2837.000000	96.192029
2836.000000	96.373336
2835.000000	96.540310
2834.000000	96.694538
2833.000000	96.836607
2832.000000	96.967191
2831.000000	97.087328
2830.000000	97.197504
2829.000000	97.297718
2828.000000	97.388474
2827.000000	97.470603
2826.000000	97.544341
2825.000000	97.609509
2824.000000	97.666654
2823.000000	97.717068
2822.000000	97.761738
2821.000000	97.801364
2820.000000	97.837087
2819.000000	97.870067
2818.000000	97.900525
2817.000000	97.928197
2816.000000	97.953571
2815.000000	97.977538
2814.000000	98.000150
2813.000000	98.021019
2812.000000	98.040574
2811.000000	98.059599
2810.000000	98.077760
2809.000000	98.094085
2808.000000	98.108771
2807.000000	98.122987
2806.000000	98.137012
2805.000000	98.150142
2804.000000	98.162454
2803.000000	98.175103
2802.000000	98.188596
2801.000000	98.202174
2800.000000	98.215085
2799.000000	98.227164
2798.000000	98.238144
2797.000000	98.247760
2796.000000	98.256733
2795.000000	98.266308
2794.000000	98.276722
2793.000000	98.287320
2792.000000	98.297996
2791.000000	98.309072
2790.000000	98.319862
2789.000000	98.329055
2788.000000	98.336668
2787.000000	98.343968
2786.000000	98.351375
2785.000000	98.358149
2784.000000	98.364339
2783.000000	98.371228
2782.000000	98.379272
2781.000000	98.387240
2780.000000	98.394061
2779.000000	98.400132
2778.000000	98.406205
2777.000000	98.412292
2776.000000	98.418270
2775.000000	98.424351
2774.000000	98.430366
2773.000000	98.435596
2772.000000	98.439714
2771.000000	98.442975
2770.000000	98.445406
2769.000000	98.447007
2768.000000	98.448773
2767.000000	98.452050
2766.000000	98.456641
2765.000000	98.460950
2764.000000	98.464254
2763.000000	98.467408
2762.000000	98.470996
2761.000000	98.474423
2760.000000	98.477346
2759.000000	98.480434
2758.000000	98.484032
2757.000000	98.487411
2756.000000	98.490019
2755.000000	98.492239
2754.000000	98.494301
2753.000000	98.495707
2752.000000	98.496450
2751.000000	98.497632
2750.000000	98.500091
2749.000000	98.503338
2748.000000	98.506447
2747.000000	98.509041
2746.000000	98.510927
2745.000000	98.511779
2744.000000	98.511812
2743.000000	98.511909
2742.000000	98.512588
2741.000000	98.513601
2740.000000	98.514768
2739.000000	98.516316
2738.000000	98.518082
2737.000000	98.519365
2736.000000	98.519889
2735.000000	98.520101
2734.000000	98.520364
2733.000000	98.520751
2732.000000	98.521660
2731.000000	98.523562
2730.000000	98.526052
2729.000000	98.528277
2728.000000	98.530390
2727.000000	98.533365
2726.000000	98.537258
2725.000000	98.540923
2724.000000	98.543649
2723.000000	98.545831
2722.000000	98.547872
2721.000000	98.549848
2720.000000	98.552474
2719.000000	98.556864
2718.000000	98.562746
2717.000000	98.568210
2716.000000	98.571852
2715.000000	98.574141
2714.000000	98.576238
2713.000000	98.578517
2712.000000	98.580667
2711.000000	98.582229
2710.000000	98.582741
2709.000000	98.582371
2708.000000	98.582595
2707.000000	98.585039
2706.000000	98.589358
2705.000000	98.593411
2704.000000	98.595836
2703.000000	98.597304
2702.000000	98.599014
2701.000000	98.601242
2700.000000	98.603742
2699.000000	98.606274
2698.000000	98.608292
2697.000000	98.609288
2696.000000	98.609863
2695.000000	98.611360
2694.000000	98.614035
2693.000000	98.616680
2692.000000	98.618309
2691.000000	98.619013
2690.000000	98.618903
2689.000000	98.617625
2688.000000	98.615456
2687.000000	98.613675
2686.000000	98.613265
2685.000000	98.614221
2684.000000	98.616390
2683.000000	98.619754
2682.000000	98.623485
2681.000000	98.626021
2680.000000	98.626741
2679.000000	98.626548
2678.000000	98.626391
2677.000000	98.626239
2676.000000	98.625844
2675.000000	98.625312
2674.000000	98.624532
2673.000000	98.623153
2672.000000	98.621500
2671.000000	98.620399
2670.000000	98.619631
2669.000000	98.617721
2668.000000	98.613612
2667.000000	98.607488
2666.000000	98.599669
2665.000000	98.590057
2664.000000	98.579255
2663.000000	98.568969
2662.000000	98.560583
2661.000000	98.554207
2660.000000	98.549541
2659.000000	98.546559
2658.000000	98.544884
2657.000000	98.543585
2656.000000	98.542264
2655.000000	98.541504
2654.000000	98.541786
2653.000000	98.542906
2652.000000	98.544772
2651.000000	98.547514
2650.000000	98.550457
2649.000000	98.552267
2648.000000	98.552763
2647.000000	98.553413
2646.000000	98.555405
2645.000000	98.558318
2644.000000	98.561245
2643.000000	98.564036
2642.000000	98.566814
2641.000000	98.569384
2640.000000	98.571790
2639.000000	98.574459
2638.000000	98.577269
2637.000000	98.579532
2636.000000	98.581319
2635.000000	98.583723
2634.000000	98.587471
2633.000000	98.592398
2632.000000	98.598442
2631.000000	98.605700
2630.000000	98.613203
2629.000000	98.619195
2628.000000	98.623145
2627.000000	98.626062
2626.000000	98.628609
2625.000000	98.630583
2624.000000	98.632607
2623.000000	98.636240
2622.000000	98.641536
2621.000000	98.646391
2620.000000	98.649301
2619.000000	98.651272
2618.000000	98.654112
2617.000000	98.658415
2616.000000	98.664032
2615.000000	98.670859
2614.000000	98.678104
2613.000000	98.684156
2612.000000	98.688308
2611.000000	98.691551
2610.000000	98.695003
2609.000000	98.698651
2608.000000	98.702073
2607.000000	98.705062
2606.000000	98.707300
2605.000000	98.708912
2604.000000	98.711543
2603.000000	98.717051
2602.000000	98.724785
2601.000000	98.731965
2600.000000	98.737065
2599.000000	98.740889
2598.000000	98.744215
2597.000000	98.746815
2596.000000	98.749362
2595.000000	98.753687
2594.000000	98.760056
2593.000000	98.766387
2592.000000	98.771175
2591.000000	98.775158
2590.000000	98.779172
2589.000000	98.782538
2588.000000	98.784648
2587.000000	98.786156
2586.000000	98.787573
2585.000000	98.788556
2584.000000	98.789390
2583.000000	98.791205
2582.000000	98.793960
2581.000000	98.796243
2580.000000	98.797773
2579.000000	98.799940
2578.000000	98.803241
2577.000000	98.806586
2576.000000	98.809835
2575.000000	98.814354
2574.000000	98.820040
2573.000000	98.824521
2572.000000	98.826598
2571.000000	98.828057
2570.000000	98.830661
2569.000000	98.833866
2568.000000	98.836783
2567.000000	98.840018
2566.000000	98.843835
2565.000000	98.846844
2564.000000	98.848166
2563.000000	98.849010
2562.000000	98.850501
2561.000000	98.851838
2560.000000	98.852102
2559.000000	98.852169
2558.000000	98.853523
2557.000000	98.856676
2556.000000	98.861720
2555.000000	98.868514
2554.000000	98.875499
2553.000000	98.880311
2552.000000	98.882574
2551.000000	98.884037
2550.000000	98.885271
2549.000000	98.884607
2548.000000	98.881319
2547.000000	98.877483
2546.000000	98.875418
2545.000000	98.875600
2544.000000	98.877950
2543.000000	98.882665
2542.000000	98.888453
2541.000000	98.892449
2540.000000	98.893372
2539.000000	98.892692
2538.000000	98.891776
2537.000000	98.890378
2536.000000	98.889104
2535.000000	98.890449
2534.000000	98.895632
2533.000000	98.902678
2532.000000	98.909090
2531.000000	98.914171
2530.000000	98.917448
2529.000000	98.917601
2528.000000	98.914840
2527.000000	98.911917
2526.000000	98.910990
2525.000000	98.911509
2524.000000	98.912712
2523.000000	98.915637
2522.000000	98.920702
2521.000000	98.925623
2520.000000	98.927865
2519.000000	98.927509
2518.000000	98.926047
2517.000000	98.924229
2516.000000	98.922694
2515.000000	98.922624
2514.000000	98.924040
2513.000000	98.925358
2512.000000	98.926189
2511.000000	98.928548
2510.000000	98.933566
2509.000000	98.939062
2508.000000	98.942333
2507.000000	98.943464
2506.000000	98.944055
2505.000000	98.944585
2504.000000	98.945025
2503.000000	98.946290
2502.000000	98.948959
2501.000000	98.951939
2500.000000	98.954290
2499.000000	98.956896
2498.000000	98.960452
2497.000000	98.963339
2496.000000	98.963688
2495.000000	98.962425
2494.000000	98.962134
2493.000000	98.963728
2492.000000	98.966031
2491.000000	98.968065
2490.000000	98.969887
2489.000000	98.971536
2488.000000	98.972708
2487.000000	98.973462
2486.000000	98.974320
2485.000000	98.975643
2484.000000	98.977313
2483.000000	98.978711
2482.000000	98.979007
2481.000000	98.978098
2480.000000	98.977175
2479.000000	98.977507
2478.000000	98.978938
2477.000000	98.980643
2476.000000	98.982787
2475.000000	98.985913
2474.000000	98.989252
2473.000000	98.991631
2472.000000	98.993676
2471.000000	98.996753
2470.000000	98.999880
2469.000000	99.000237
2468.000000	98.997096
2467.000000	98.992825
2466.000000	98.989641
2465.000000	98.987705
2464.000000	98.986724
2463.000000	98.986757
2462.000000	98.986686
2461.000000	98.984532
2460.000000	98.980244
2459.000000	98.976057
2458.000000	98.973250
2457.000000	98.970867
2456.000000	98.968384
2455.000000	98.967145
2454.000000	98.968071
2453.000000	98.970212
2452.000000	98.972778
2451.000000	98.976376
2450.000000	98.981122
2449.000000	98.985622
2448.000000	98.989047
2447.000000	98.992361
2446.000000	98.996436
2445.000000	99.000869
2444.000000	99.005563
2443.000000	99.011405
2442.000000	99.018277
2441.000000	99.024271
2440.000000	99.027901
2439.000000	99.029608
2438.000000	99.030531
2437.000000	99.031603
2436.000000	99.034084
2435.000000	99.038704
2434.000000	99.043784
2433.000000	99.046599
2432.000000	99.047072
2431.000000	99.047725
2430.000000	99.049559
2429.000000	99.050937
2428.000000	99.051359
2427.000000	99.053142
2426.000000	99.057821
2425.000000	99.063439
2424.000000	99.067203
2423.000000	99.068805
2422.000000	99.069748
2421.000000	99.071195
2420.000000	99.073582
2419.000000	99.076563
2418.000000	99.078450
2417.000000	99.077645
2416.000000	99.075343
2415.000000	99.074686
2414.000000	99.076510
2413.000000	99.078344
2412.000000	99.078563
2411.000000	99.079064
2410.000000	99.082451
2409.000000	99.088687
2408.000000	99.095802
2407.000000	99.102141
2406.000000	99.106736
2405.000000	99.109205
2404.000000	99.110413
2403.000000	99.111859
2402.000000	99.113827
2401.000000	99.115572
2400.000000	99.117315
2399.000000	99.119869
2398.000000	99.122266
2397.000000	99.122385
2396.000000	99.120491
2395.000000	99.119577
2394.000000	99.121392
2393.000000	99.124523
2392.000000	99.127148
2391.000000	99.129228
2390.000000	99.131176
2389.000000	99.132848
2388.000000	99.134920
2387.000000	99.139011
2386.000000	99.145372
2385.000000	99.152632
2384.000000	99.160416
2383.000000	99.169816
2382.000000	99.180460
2381.000000	99.189498
2380.000000	99.195024
2379.000000	99.197958
2378.000000	99.199305
2377.000000	99.198183
2376.000000	99.194217
2375.000000	99.189811
2374.000000	99.187658
2373.000000	99.188032
2372.000000	99.190289
2371.000000	99.194790
2370.000000	99.200935
2369.000000	99.205575
2368.000000	99.206216
2367.000000	99.204055
2366.000000	99.202011
2365.000000	99.200722
2364.000000	99.198665
2363.000000	99.195454
2362.000000	99.191892
2361.000000	99.188570
2360.000000	99.186883
2359.000000	99.187624
2358.000000	99.189078
2357.000000	99.188260
2356.000000	99.184404
2355.000000	99.181911
2354.000000	99.186723
2353.000000	99.198666
2352.000000	99.209438
2351.000000	99.209917
2350.000000	99.195727
2349.000000	99.167221
2348.000000	99.131517
2347.000000	99.102974
2346.000000	99.093854
2345.000000	99.101446
2344.000000	99.111196
2343.000000	99.115109
2342.000000	99.113751
2341.000000	99.107661
2340.000000	99.098666
2339.000000	99.091637
2338.000000	99.090345
2337.000000	99.093112
2336.000000	99.096382
2335.000000	99.099286
2334.000000	99.103146
2333.000000	99.107835
2332.000000	99.112084
2331.000000	99.112744
2330.000000	99.101105
2329.000000	99.061793
2328.000000	98.987664
2327.000000	98.894403
2326.000000	98.815508
2325.000000	98.779437
2324.000000	98.790624
2323.000000	98.831605
2322.000000	98.879171
2321.000000	98.918593
2320.000000	98.946559
2319.000000	98.965437
2318.000000	98.978685
2317.000000	98.988445
2316.000000	98.997242
2315.000000	99.007318
2314.000000	99.019468
2313.000000	99.031653
2312.000000	99.041622
2311.000000	99.048518
2310.000000	99.052653
2309.000000	99.053952
2308.000000	99.053073
2307.000000	99.051564
2306.000000	99.050155
2305.000000	99.047564
2304.000000	99.043022
2303.000000	99.037852
2302.000000	99.033382
2301.000000	99.028260
2300.000000	99.020364
2299.000000	99.009176
2298.000000	98.995376
2297.000000	98.978953
2296.000000	98.960678
2295.000000	98.943083
2294.000000	98.928192
2293.000000	98.914742
2292.000000	98.899875
2291.000000	98.882635
2290.000000	98.864224
2289.000000	98.846677
2288.000000	98.833400
2287.000000	98.829364
2286.000000	98.836924
2285.000000	98.852004
2284.000000	98.867161
2283.000000	98.878458
2282.000000	98.887059
2281.000000	98.895149
2280.000000	98.903343
2279.000000	98.911590
2278.000000	98.919710
2277.000000	98.926769
2276.000000	98.932081
2275.000000	98.936450
2274.000000	98.941028
2273.000000	98.945781
2272.000000	98.950846
2271.000000	98.957825
2270.000000	98.967428
2269.000000	98.977293
2268.000000	98.984492
2267.000000	98.988665
2266.000000	98.990236
2265.000000	98.987428
2264.000000	98.978144
2263.000000	98.963212
2262.000000	98.944824
2261.000000	98.923782
2260.000000	98.901439
2259.000000	98.882460
2258.000000	98.871083
2257.000000	98.864671
2256.000000	98.854494
2255.000000	98.833042
2254.000000	98.798029
2253.000000	98.750365
2252.000000	98.691950
2251.000000	98.625477
2250.000000	98.553313
2249.000000	98.475517
2248.000000	98.389345
2247.000000	98.292338
2246.000000	98.182185
2245.000000	98.056901
2244.000000	97.917069
2243.000000	97.768297
2242.000000	97.619733
2241.000000	97.481273
2240.000000	97.363819
2239.000000	97.282275
2238.000000	97.253906
2237.000000	97.291100
2236.000000	97.395846
2235.000000	97.559805
2234.000000	97.766415
2233.000000	97.992116
2232.000000	98.212729
2231.000000	98.411786
2230.000000	98.582171
2229.000000	98.722172
2228.000000	98.833238
2227.000000	98.919194
2226.000000	98.982780
2225.000000	99.025255
2224.000000	99.051334
2223.000000	99.070845
2222.000000	99.090636
2221.000000	99.108131
2220.000000	99.117783
2219.000000	99.121344
2218.000000	99.126427
2217.000000	99.136429
2216.000000	99.147386
2215.000000	99.154525
2214.000000	99.157370
2213.000000	99.158311
2212.000000	99.159627
2211.000000	99.161947
2210.000000	99.163590
2209.000000	99.162490
2208.000000	99.160291
2207.000000	99.161788
2206.000000	99.167961
2205.000000	99.172888
2204.000000	99.171108
2203.000000	99.164865
2202.000000	99.160244
2201.000000	99.159507
2200.000000	99.161456
2199.000000	99.165935
2198.000000	99.172457
2197.000000	99.177071
2196.000000	99.176126
2195.000000	99.171433
2194.000000	99.166514
2193.000000	99.160143
2192.000000	99.149292
2191.000000	99.136760
2190.000000	99.129421
2189.000000	99.129218
2188.000000	99.131868
2187.000000	99.135457
2186.000000	99.145940
2185.000000	99.172047
2184.000000	99.215946
2183.000000	99.267274
2182.000000	99.305615
2181.000000	99.314914
2180.000000	99.301173
2179.000000	99.290588
2178.000000	99.303755
2177.000000	99.333688
2176.000000	99.354543
2175.000000	99.349428
2174.000000	99.321686
2173.000000	99.282346
2172.000000	99.236987
2171.000000	99.186666
2170.000000	99.134881
2169.000000	99.090286
2168.000000	99.063002
2167.000000	99.055682
2166.000000	99.054993
2165.000000	99.038994
2164.000000	99.005895
2163.000000	98.997933
2162.000000	99.082317
2161.000000	99.291597
2160.000000	99.575092
2159.000000	99.825061
2158.000000	99.960564
2157.000000	99.978189
2156.000000	99.929662
2155.000000	99.868572
2154.000000	99.818797
2153.000000	99.778223
2152.000000	99.740297
2151.000000	99.707125
2150.000000	99.684659
2149.000000	99.673649
2148.000000	99.670423
2147.000000	99.672399
2146.000000	99.677521
2145.000000	99.681632
2144.000000	99.681837
2143.000000	99.680353
2142.000000	99.680215
2141.000000	99.679625
2140.000000	99.675667
2139.000000	99.672883
2138.000000	99.682994
2137.000000	99.713751
2136.000000	99.758763
2135.000000	99.798796
2134.000000	99.814028
2133.000000	99.797553
2132.000000	99.758738
2131.000000	99.713204
2130.000000	99.670600
2129.000000	99.632543
2128.000000	99.598938
2127.000000	99.570884
2126.000000	99.547471
2125.000000	99.524691
2124.000000	99.499888
2123.000000	99.474224
2122.000000	99.449132
2121.000000	99.423652
2120.000000	99.397122
2119.000000	99.371271
2118.000000	99.347405
2117.000000	99.324848
2116.000000	99.304599
2115.000000	99.291185
2114.000000	99.287379
2113.000000	99.289743
2112.000000	99.292986
2111.000000	99.296657
2110.000000	99.303232
2109.000000	99.311842
2108.000000	99.318732
2107.000000	99.322599
2106.000000	99.324999
2105.000000	99.326193
2104.000000	99.324823
2103.000000	99.321266
2102.000000	99.317747
2101.000000	99.316039
2100.000000	99.318695
2099.000000	99.331189
2098.000000	99.357498
2097.000000	99.392282
2096.000000	99.421612
2095.000000	99.434001
2094.000000	99.428402
2093.000000	99.411335
2092.000000	99.389706
2091.000000	99.367641
2090.000000	99.347522
2089.000000	99.331257
2088.000000	99.319987
2087.000000	99.313135
2086.000000	99.308000
2085.000000	99.301294
2084.000000	99.292513
2083.000000	99.284905
2082.000000	99.281678
2081.000000	99.282099
2080.000000	99.283053
2079.000000	99.283312
2078.000000	99.284242
2077.000000	99.286716
2076.000000	99.289900
2075.000000	99.292904
2074.000000	99.295189
2073.000000	99.295932
2072.000000	99.295879
2071.000000	99.299339
2070.000000	99.310889
2069.000000	99.329338
2068.000000	99.346934
2067.000000	99.355874
2066.000000	99.354697
2065.000000	99.348817
2064.000000	99.345834
2063.000000	99.349986
2062.000000	99.359357
2061.000000	99.366690
2060.000000	99.364648
2059.000000	99.352851
2058.000000	99.339478
2057.000000	99.332620
2056.000000	99.326374
2055.000000	99.298175
2054.000000	99.229212
2053.000000	99.133177
2052.000000	99.058238
2051.000000	99.051106
2050.000000	99.115499
2049.000000	99.208502
2048.000000	99.282993
2047.000000	99.325465
2046.000000	99.346952
2045.000000	99.356055
2044.000000	99.354485
2043.000000	99.346715
2042.000000	99.338693
2041.000000	99.330554
2040.000000	99.320243
2039.000000	99.312769
2038.000000	99.317440
2037.000000	99.337275
2036.000000	99.368238
2035.000000	99.406641
2034.000000	99.449484
2033.000000	99.489497
2032.000000	99.518760
2031.000000	99.535909
2030.000000	99.543182
2029.000000	99.541038
2028.000000	99.532798
2027.000000	99.528981
2026.000000	99.537875
2025.000000	99.555042
2024.000000	99.569560
2023.000000	99.576891
2022.000000	99.578453
2021.000000	99.575407
2020.000000	99.571475
2019.000000	99.575402
2018.000000	99.589842
2017.000000	99.601892
2016.000000	99.596536
2015.000000	99.578765
2014.000000	99.567884
2013.000000	99.570274
2012.000000	99.573106
2011.000000	99.568057
2010.000000	99.569004
2009.000000	99.597822
2008.000000	99.656826
2007.000000	99.722735
2006.000000	99.765978
2005.000000	99.772019
2004.000000	99.747735
2003.000000	99.711490
2002.000000	99.676483
2001.000000	99.643163
2000.000000	99.607992
1999.000000	99.575031
1998.000000	99.552639
1997.000000	99.541423
1996.000000	99.535066
1995.000000	99.530450
1994.000000	99.527388
1993.000000	99.520756
1992.000000	99.502886
1991.000000	99.476161
1990.000000	99.454155
1989.000000	99.444230
1988.000000	99.438270
1987.000000	99.423652
1986.000000	99.395635
1985.000000	99.356229
1984.000000	99.307845
1983.000000	99.255684
1982.000000	99.216469
1981.000000	99.218636
1980.000000	99.286820
1979.000000	99.418730
1978.000000	99.574468
1977.000000	99.699447
1976.000000	99.767955
1975.000000	99.794801
1974.000000	99.804829
1973.000000	99.808218
1972.000000	99.805917
1971.000000	99.801036
1970.000000	99.796234
1969.000000	99.790312
1968.000000	99.784107
1967.000000	99.781591
1966.000000	99.782939
1965.000000	99.784181
1964.000000	99.788248
1963.000000	99.807454
1962.000000	99.846577
1961.000000	99.891820
1960.000000	99.923699
1959.000000	99.934212
1958.000000	99.926317
1957.000000	99.906133
1956.000000	99.881570
1955.000000	99.860440
1954.000000	99.844694
1953.000000	99.831719
1952.000000	99.821826
1951.000000	99.818661
1950.000000	99.822195
1949.000000	99.826889
1948.000000	99.828259
1947.000000	99.827007
1946.000000	99.824680
1945.000000	99.820885
1944.000000	99.816790
1943.000000	99.814666
1942.000000	99.812942
1941.000000	99.807324
1940.000000	99.798819
1939.000000	99.795533
1938.000000	99.801698
1937.000000	99.811044
1936.000000	99.816050
1935.000000	99.816240
1934.000000	99.813623
1933.000000	99.807674
1932.000000	99.797295
1931.000000	99.783797
1930.000000	99.770301
1929.000000	99.758062
1928.000000	99.746246
1927.000000	99.735778
1926.000000	99.728770
1925.000000	99.723260
1924.000000	99.711698
1923.000000	99.686246
1922.000000	99.649428
1921.000000	99.612959
1920.000000	99.587037
1919.000000	99.575719
1918.000000	99.575558
1917.000000	99.576249
1916.000000	99.569129
1915.000000	99.557372
1914.000000	99.552090
1913.000000	99.557717
1912.000000	99.567185
1911.000000	99.572175
1910.000000	99.571988
1909.000000	99.568573
1908.000000	99.561129
1907.000000	99.551979
1906.000000	99.548351
1905.000000	99.551247
1904.000000	99.550758
1903.000000	99.540384
1902.000000	99.528532
1901.000000	99.525204
1900.000000	99.528211
1899.000000	99.530635
1898.000000	99.531900
1897.000000	99.534356
1896.000000	99.534452
1895.000000	99.527582
1894.000000	99.519490
1893.000000	99.518982
1892.000000	99.525187
1891.000000	99.531706
1890.000000	99.535306
1889.000000	99.534786
1888.000000	99.527448
1887.000000	99.515046
1886.000000	99.507006
1885.000000	99.509046
1884.000000	99.513769
1883.000000	99.512274
1882.000000	99.507990
1881.000000	99.508045
1880.000000	99.510717
1879.000000	99.510953
1878.000000	99.509551
1877.000000	99.509270
1876.000000	99.507066
1875.000000	99.498057
1874.000000	99.485626
1873.000000	99.477556
1872.000000	99.474761
1871.000000	99.473507
1870.000000	99.475487
1869.000000	99.483574
1868.000000	99.488564
1867.000000	99.479404
1866.000000	99.463008
1865.000000	99.452423
1864.000000	99.449228
1863.000000	99.447053
1862.000000	99.444999
1861.000000	99.447877
1860.000000	99.454261
1859.000000	99.456332
1858.000000	99.453229
1857.000000	99.450800
1856.000000	99.450032
1855.000000	99.448169
1854.000000	99.446419
1853.000000	99.446705
1852.000000	99.445716
1851.000000	99.440988
1850.000000	99.436980
1849.000000	99.437231
1848.000000	99.436964
1847.000000	99.429608
1846.000000	99.417948
1845.000000	99.409617
1844.000000	99.404300
1843.000000	99.397057
1842.000000	99.390258
1841.000000	99.386201
1840.000000	99.386029
1839.000000	99.390195
1838.000000	99.395035
1837.000000	99.395145
1836.000000	99.389313
1835.000000	99.381706
1834.000000	99.377249
1833.000000	99.378533
1832.000000	99.388885
1831.000000	99.405664
1830.000000	99.412283
1829.000000	99.397606
1828.000000	99.372991
1827.000000	99.354427
1826.000000	99.346473
1825.000000	99.345580
1824.000000	99.345789
1823.000000	99.342645
1822.000000	99.337320
1821.000000	99.337675
1820.000000	99.350899
1819.000000	99.371114
1818.000000	99.386079
1817.000000	99.391098
1816.000000	99.386824
1815.000000	99.372171
1814.000000	99.349660
1813.000000	99.330414
1812.000000	99.321304
1811.000000	99.310698
1810.000000	99.288153
1809.000000	99.265459
1808.000000	99.252540
1807.000000	99.241755
1806.000000	99.227079
1805.000000	99.214515
1804.000000	99.207200
1803.000000	99.195939
1802.000000	99.171154
1801.000000	99.138080
1800.000000	99.106135
1799.000000	99.073433
1798.000000	99.039358
1797.000000	99.009400
1796.000000	98.980017
1795.000000	98.938362
1794.000000	98.880612
1793.000000	98.819005
1792.000000	98.764118
1791.000000	98.707980
1790.000000	98.647236
1789.000000	98.588448
1788.000000	98.531236
1787.000000	98.467130
1786.000000	98.392473
1785.000000	98.315136
1784.000000	98.243165
1783.000000	98.174518
1782.000000	98.101395
1781.000000	98.020639
1780.000000	97.936809
1779.000000	97.857695
1778.000000	97.787890
1777.000000	97.725832
1776.000000	97.667246
1775.000000	97.609935
1774.000000	97.554914
1773.000000	97.501909
1772.000000	97.454426
1771.000000	97.415775
1770.000000	97.382839
1769.000000	97.356998
1768.000000	97.351876
1767.000000	97.369177
1766.000000	97.392501
1765.000000	97.411747
1764.000000	97.434411
1763.000000	97.469108
1762.000000	97.503838
1761.000000	97.524637
1760.000000	97.539258
1759.000000	97.557043
1758.000000	97.576571
1757.000000	97.592271
1756.000000	97.605232
1755.000000	97.618162
1754.000000	97.621238
1753.000000	97.609210
1752.000000	97.599681
1751.000000	97.615272
1750.000000	97.648280
1749.000000	97.668854
1748.000000	97.671684
1747.000000	97.675244
1746.000000	97.686806
1745.000000	97.698609
1744.000000	97.709186
1743.000000	97.720849
1742.000000	97.724459
1741.000000	97.711420
1740.000000	97.689686
1739.000000	97.670449
1738.000000	97.642623
1737.000000	97.590606
1736.000000	97.515564
1735.000000	97.434390
1734.000000	97.363016
1733.000000	97.307955
1732.000000	97.268291
1731.000000	97.232424
1730.000000	97.196360
1729.000000	97.157226
1728.000000	97.118920
1727.000000	97.091183
1726.000000	97.077174
1725.000000	97.072305
1724.000000	97.074821
1723.000000	97.086800
1722.000000	97.106828
1721.000000	97.129435
1720.000000	97.154012
1719.000000	97.182262
1718.000000	97.205703
1717.000000	97.236925
1716.000000	97.284014
1715.000000	97.327443
1714.000000	97.365703
1713.000000	97.411230
1712.000000	97.458085
1711.000000	97.495683
1710.000000	97.523727
1709.000000	97.550278
1708.000000	97.580683
1707.000000	97.610704
1706.000000	97.637979
1705.000000	97.662376
1704.000000	97.673645
1703.000000	97.652873
1702.000000	97.606784
1701.000000	97.572792
1700.000000	97.576599
1699.000000	97.570482
1698.000000	97.536710
1697.000000	97.509279
1696.000000	97.513728
1695.000000	97.525651
1694.000000	97.524813
1693.000000	97.514915
1692.000000	97.499545
1691.000000	97.480975
1690.000000	97.454880
1689.000000	97.416987
1688.000000	97.369918
1687.000000	97.313465
1686.000000	97.254443
1685.000000	97.193598
1684.000000	97.124277
1683.000000	97.056542
1682.000000	97.007621
1681.000000	96.949454
1680.000000	96.874276
1679.000000	96.791745
1678.000000	96.708144
1677.000000	96.614551
1676.000000	96.503454
1675.000000	96.388946
1674.000000	96.287477
1673.000000	96.195126
1672.000000	96.103398
1671.000000	96.017878
1670.000000	95.945597
1669.000000	95.880485
1668.000000	95.819875
1667.000000	95.775362
1666.000000	95.745493
1665.000000	95.720425
1664.000000	95.694759
1663.000000	95.668350
1662.000000	95.643837
1661.000000	95.620079
1660.000000	95.593973
1659.000000	95.575731
1658.000000	95.571784
1657.000000	95.572254
1656.000000	95.556873
1655.000000	95.540471
1654.000000	95.535725
1653.000000	95.528362
1652.000000	95.506472
1651.000000	95.503069
1650.000000	95.482482
1649.000000	95.452383
1648.000000	95.410444
1647.000000	95.353806
1646.000000	95.294384
1645.000000	95.258498
1644.000000	95.238378
1643.000000	95.216046
1642.000000	95.194391
1641.000000	95.186275
1640.000000	95.193208
1639.000000	95.208640
1638.000000	95.235192
1637.000000	95.285204
1636.000000	95.356039
1635.000000	95.439891
1634.000000	95.525494
1633.000000	95.595715
1632.000000	95.639274
1631.000000	95.668264
1630.000000	95.701165
1629.000000	95.741513
1628.000000	95.773665
1627.000000	95.791930
1626.000000	95.805519
1625.000000	95.819237
1624.000000	95.825798
1623.000000	95.823560
1622.000000	95.822457
1621.000000	95.816978
1620.000000	95.792314
1619.000000	95.748137
1618.000000	95.694078
1617.000000	95.625531
1616.000000	95.532851
1615.000000	95.438147
1614.000000	95.359484
1613.000000	95.281805
1612.000000	95.191197
1611.000000	95.098752
1610.000000	95.028389
1609.000000	94.981506
1608.000000	94.943796
1607.000000	94.921831
1606.000000	94.932113
1605.000000	94.969032
1604.000000	95.016652
1603.000000	95.077524
1602.000000	95.160807
1601.000000	95.257198
1600.000000	95.352068
1599.000000	95.449886
1598.000000	95.560594
1597.000000	95.676470
1596.000000	95.781154
1595.000000	95.873210
1594.000000	95.963694
1593.000000	96.050858
1592.000000	96.122576
1591.000000	96.180392
1590.000000	96.237022
1589.000000	96.291185
1588.000000	96.330497
1587.000000	96.357794
1586.000000	96.387460
1585.000000	96.418041
1584.000000	96.436706
1583.000000	96.446269
1582.000000	96.463436
1581.000000	96.485295
1580.000000	96.494499
1579.000000	96.488866
1578.000000	96.483998
1577.000000	96.478000
1576.000000	96.454812
1575.000000	96.436127
1574.000000	96.444308
1573.000000	96.457141
1572.000000	96.459143
1571.000000	96.456735
1570.000000	96.456801
1569.000000	96.447066
1568.000000	96.423983
1567.000000	96.409732
1566.000000	96.412720
1565.000000	96.422413
1564.000000	96.426320
1563.000000	96.426336
1562.000000	96.429395
1561.000000	96.424739
1560.000000	96.391042
1559.000000	96.318838
1558.000000	96.296288
1557.000000	96.328589
1556.000000	96.342894
1555.000000	96.341592
1554.000000	96.347110
1553.000000	96.364586
1552.000000	96.386660
1551.000000	96.410664
1550.000000	96.435869
1549.000000	96.454985
1548.000000	96.466161
1547.000000	96.479072
1546.000000	96.507215
1545.000000	96.552559
1544.000000	96.597172
1543.000000	96.620365
1542.000000	96.623998
1541.000000	96.628897
1540.000000	96.646230
1539.000000	96.684076
1538.000000	96.746760
1537.000000	96.803055
1536.000000	96.838186
1535.000000	96.867462
1534.000000	96.904729
1533.000000	96.947597
1532.000000	96.982939
1531.000000	97.005142
1530.000000	97.021899
1529.000000	97.048033
1528.000000	97.083278
1527.000000	97.115729
1526.000000	97.138574
1525.000000	97.159493
1524.000000	97.182046
1523.000000	97.201928
1522.000000	97.218389
1521.000000	97.242710
1520.000000	97.280542
1519.000000	97.320208
1518.000000	97.346373
1517.000000	97.359452
1516.000000	97.367078
1515.000000	97.374058
1514.000000	97.377487
1513.000000	97.384993
1512.000000	97.412528
1511.000000	97.451218
1510.000000	97.472361
1509.000000	97.467799
1508.000000	97.465687
1507.000000	97.465718
1506.000000	97.466167
1505.000000	97.498396
1504.000000	97.546281
1503.000000	97.576516
1502.000000	97.585597
1501.000000	97.579391
1500.000000	97.569253
1499.000000	97.553532
1498.000000	97.517214
1497.000000	97.469268
1496.000000	97.448987
1495.000000	97.458405
1494.000000	97.463231
1493.000000	97.446363
1492.000000	97.421696
1491.000000	97.403806
1490.000000	97.381053
1489.000000	97.345409
1488.000000	97.305449
1487.000000	97.255446
1486.000000	97.196235
1485.000000	97.134715
1484.000000	97.072784
1483.000000	97.007617
1482.000000	96.929508
1481.000000	96.834400
1480.000000	96.729127
1479.000000	96.611255
1478.000000	96.457641
1477.000000	96.238379
1476.000000	95.940393
1475.000000	95.570490
1474.000000	95.166762
1473.000000	94.811815
1472.000000	94.595864
1471.000000	94.491370
1470.000000	94.390568
1469.000000	94.236463
1468.000000	94.035330
1467.000000	93.788430
1466.000000	93.465654
1465.000000	93.071941
1464.000000	92.705788
1463.000000	92.466481
1462.000000	92.344991
1461.000000	92.275802
1460.000000	92.192160
1459.000000	92.019986
1458.000000	91.652554
1457.000000	91.082355
1456.000000	90.538916
1455.000000	90.180234
1454.000000	89.933495
1453.000000	89.729329
1452.000000	89.570190
1451.000000	89.467002
1450.000000	89.399381
1449.000000	89.350096
1448.000000	89.328016
1447.000000	89.330716
1446.000000	89.331143
1445.000000	89.319492
1444.000000	89.309990
1443.000000	89.309150
1442.000000	89.303874
1441.000000	89.288113
1440.000000	89.276976
1439.000000	89.282687
1438.000000	89.301040
1437.000000	89.337664
1436.000000	89.424561
1435.000000	89.568771
1434.000000	89.743461
1433.000000	89.950964
1432.000000	90.218833
1431.000000	90.553450
1430.000000	90.920581
1429.000000	91.278974
1428.000000	91.606104
1427.000000	91.888517
1426.000000	92.118436
1425.000000	92.292623
1424.000000	92.412117
1423.000000	92.482978
1422.000000	92.514252
1421.000000	92.520969
1420.000000	92.525916
1419.000000	92.540311
1418.000000	92.545802
1417.000000	92.539830
1416.000000	92.537236
1415.000000	92.537032
1414.000000	92.524935
1413.000000	92.492604
1412.000000	92.449198
1411.000000	92.408402
1410.000000	92.371236
1409.000000	92.338808
1408.000000	92.323164
1407.000000	92.331376
1406.000000	92.357227
1405.000000	92.391252
1404.000000	92.435758
1403.000000	92.494540
1402.000000	92.559620
1401.000000	92.627454
1400.000000	92.705811
1399.000000	92.797339
1398.000000	92.890753
1397.000000	92.979429
1396.000000	93.070289
1395.000000	93.167475
1394.000000	93.257939
1393.000000	93.328887
1392.000000	93.387197
1391.000000	93.440263
1390.000000	93.486006
1389.000000	93.518717
1388.000000	93.533498
1387.000000	93.527517
1386.000000	93.502749
1385.000000	93.463831
1384.000000	93.411496
1383.000000	93.343450
1382.000000	93.260880
1381.000000	93.170703
1380.000000	93.079766
1379.000000	92.996026
1378.000000	92.931318
1377.000000	92.892317
1376.000000	92.873378
1375.000000	92.861998
1374.000000	92.848092
1373.000000	92.827664
1372.000000	92.800249
1371.000000	92.767657
1370.000000	92.734113
1369.000000	92.697366
1368.000000	92.651953
1367.000000	92.599489
1366.000000	92.549873
1365.000000	92.510947
1364.000000	92.479133
1363.000000	92.444188
1362.000000	92.405540
1361.000000	92.372445
1360.000000	92.347325
1359.000000	92.325690
1358.000000	92.308395
1357.000000	92.298611
1356.000000	92.293453
1355.000000	92.286653
1354.000000	92.278288
1353.000000	92.274872
1352.000000	92.277882
1351.000000	92.282839
1350.000000	92.292191
1349.000000	92.309471
1348.000000	92.332502
1347.000000	92.358515
1346.000000	92.391510
1345.000000	92.436176
1344.000000	92.489928
1343.000000	92.547644
1342.000000	92.611615
1341.000000	92.685907
1340.000000	92.764942
1339.000000	92.838201
1338.000000	92.903335
1337.000000	92.965553
1336.000000	93.026946
1335.000000	93.085877
1334.000000	93.144284
1333.000000	93.205430
1332.000000	93.265890
1331.000000	93.318421
1330.000000	93.362000
1329.000000	93.400017
1328.000000	93.431839
1327.000000	93.455058
1326.000000	93.473118
1325.000000	93.490537
1324.000000	93.506912
1323.000000	93.519626
1322.000000	93.529081
1321.000000	93.536586
1320.000000	93.540709
1319.000000	93.540327
1318.000000	93.539431
1317.000000	93.543696
1316.000000	93.553351
1315.000000	93.564966
1314.000000	93.577698
1313.000000	93.592742
1312.000000	93.609010
1311.000000	93.624816
1310.000000	93.642474
1309.000000	93.665366
1308.000000	93.691481
1307.000000	93.716448
1306.000000	93.742284
1305.000000	93.773576
1304.000000	93.809604
1303.000000	93.845184
1302.000000	93.879144
1301.000000	93.915073
1300.000000	93.954202
1299.000000	93.993585
1298.000000	94.031791
1297.000000	94.070408
1296.000000	94.108886
1295.000000	94.144799
1294.000000	94.178735
1293.000000	94.213213
1292.000000	94.246799
1291.000000	94.275180
1290.000000	94.298622
1289.000000	94.321834
1288.000000	94.345870
1287.000000	94.366735
1286.000000	94.382596
1285.000000	94.395824
1284.000000	94.406991
1283.000000	94.412916
1282.000000	94.412127
1281.000000	94.405863
1280.000000	94.393119
1279.000000	94.372074
1278.000000	94.345391
1277.000000	94.318288
1276.000000	94.290257
1275.000000	94.256204
1274.000000	94.215046
1273.000000	94.170511
1272.000000	94.124077
1271.000000	94.074497
1270.000000	94.024387
1269.000000	93.979740
1268.000000	93.942858
1267.000000	93.911926
1266.000000	93.886683
1265.000000	93.868967
1264.000000	93.857118
1263.000000	93.846189
1262.000000	93.834292
1261.000000	93.822634
1260.000000	93.809038
1259.000000	93.788737
1258.000000	93.760859
1257.000000	93.728552
1256.000000	93.692268
1255.000000	93.649313
1254.000000	93.600190
1253.000000	93.549293
1252.000000	93.499128
1251.000000	93.449892
1250.000000	93.404162
1249.000000	93.366081
1248.000000	93.335942
1247.000000	93.310951
1246.000000	93.290045
1245.000000	93.273732
1244.000000	93.259537
1243.000000	93.243652
1242.000000	93.226866
1241.000000	93.213111
1240.000000	93.202252
1239.000000	93.190138
1238.000000	93.176006
1237.000000	93.163389
1236.000000	93.153193
1235.000000	93.142066
1234.000000	93.128322
1233.000000	93.113325
1232.000000	93.096635
1231.000000	93.075851
1230.000000	93.051785
1229.000000	93.028166
1228.000000	93.005301
1227.000000	92.979815
1226.000000	92.951438
1225.000000	92.924077
1224.000000	92.899535
1223.000000	92.876278
1222.000000	92.854685
1221.000000	92.837011
1220.000000	92.821807
1219.000000	92.805015
1218.000000	92.787088
1217.000000	92.772618
1216.000000	92.762196
1215.000000	92.751306
1214.000000	92.737634
1213.000000	92.722588
1212.000000	92.705154
1211.000000	92.681420
1210.000000	92.651711
1209.000000	92.621021
1208.000000	92.590727
1207.000000	92.556352
1206.000000	92.515237
1205.000000	92.469500
1204.000000	92.420470
1203.000000	92.367606
1202.000000	92.313702
1201.000000	92.263665
1200.000000	92.216651
1199.000000	92.166879
1198.000000	92.113167
1197.000000	92.060863
1196.000000	92.013279
1195.000000	91.968945
1194.000000	91.928797
1193.000000	91.897875
1192.000000	91.878429
1191.000000	91.867786
1190.000000	91.864492
1189.000000	91.869162
1188.000000	91.877832
1187.000000	91.882681
1186.000000	91.881119
1185.000000	91.877212
1184.000000	91.872571
1183.000000	91.863908
1182.000000	91.851559
1181.000000	91.841865
1180.000000	91.838961
1179.000000	91.843076
1178.000000	91.858463
1177.000000	91.894549
1176.000000	91.955649
1175.000000	92.037460
1174.000000	92.136437
1173.000000	92.252579
1172.000000	92.381588
1171.000000	92.513042
1170.000000	92.640724
1169.000000	92.767314
1168.000000	92.895410
1167.000000	93.023074
1166.000000	93.150443
1165.000000	93.281134
1164.000000	93.413533
1163.000000	93.540284
1162.000000	93.659670
1161.000000	93.777817
1160.000000	93.896730
1159.000000	94.010497
1158.000000	94.116523
1157.000000	94.219398
1156.000000	94.320419
1155.000000	94.414653
1154.000000	94.500871
1153.000000	94.583531
1152.000000	94.661530
1151.000000	94.726493
1150.000000	94.775726
1149.000000	94.813850
1148.000000	94.839780
1147.000000	94.844426
1146.000000	94.824055
1145.000000	94.783984
1144.000000	94.724391
1143.000000	94.637398
1142.000000	94.521422
1141.000000	94.384795
1140.000000	94.233402
1139.000000	94.066306
1138.000000	93.887748
1137.000000	93.709965
1136.000000	93.540596
1135.000000	93.379497
1134.000000	93.230460
1133.000000	93.103702
1132.000000	93.003202
1131.000000	92.924729
1130.000000	92.867772
1129.000000	92.838340
1128.000000	92.835611
1127.000000	92.847648
1126.000000	92.865147
1125.000000	92.886679
1124.000000	92.908333
1123.000000	92.921144
1122.000000	92.923372
1121.000000	92.922879
1120.000000	92.922879
1119.000000	92.917335
1118.000000	92.903661
1117.000000	92.887014
1116.000000	92.868317
1115.000000	92.842096
1114.000000	92.810221
1113.000000	92.783922
1112.000000	92.767643
1111.000000	92.754208
1110.000000	92.739527
1109.000000	92.727920
1108.000000	92.719753
1107.000000	92.707007
1106.000000	92.686802
1105.000000	92.665451
1104.000000	92.644389
1103.000000	92.616690
1102.000000	92.582112
1101.000000	92.549957
1100.000000	92.525539
1099.000000	92.500177
1098.000000	92.469756
1097.000000	92.440841
1096.000000	92.416443
1095.000000	92.389999
1094.000000	92.359343
1093.000000	92.331953
1092.000000	92.310875
1091.000000	92.289732
1090.000000	92.266842
1089.000000	92.249178
1088.000000	92.237580
1087.000000	92.223180
1086.000000	92.203998
1085.000000	92.189710
1084.000000	92.184522
1083.000000	92.181469
1082.000000	92.178509
1081.000000	92.184296
1080.000000	92.201646
1079.000000	92.221494
1078.000000	92.239721
1077.000000	92.263922
1076.000000	92.297001
1075.000000	92.330213
1074.000000	92.358732
1073.000000	92.388440
1072.000000	92.421096
1071.000000	92.448869
1070.000000	92.469337
1069.000000	92.489534
1068.000000	92.509576
1067.000000	92.518950
1066.000000	92.514624
1065.000000	92.505083
1064.000000	92.492173
1063.000000	92.466325
1062.000000	92.425629
1061.000000	92.381103
1060.000000	92.337120
1059.000000	92.285607
1058.000000	92.225021
1057.000000	92.166895
1056.000000	92.116973
1055.000000	92.068284
1054.000000	92.018740
1053.000000	91.977816
1052.000000	91.948720
1051.000000	91.922261
1050.000000	91.895991
1049.000000	91.880651
1048.000000	91.880801
1047.000000	91.888475
1046.000000	91.901653
1045.000000	91.930053
1044.000000	91.976352
1043.000000	92.030380
1042.000000	92.087627
1041.000000	92.154449
1040.000000	92.230634
1039.000000	92.305295
1038.000000	92.377092
1037.000000	92.459207
1036.000000	92.557147
1035.000000	92.660529
1034.000000	92.762812
1033.000000	92.869903
1032.000000	92.982119
1031.000000	93.087474
1030.000000	93.180220
1029.000000	93.267354
1028.000000	93.349783
1027.000000	93.416722
1026.000000	93.465618
1025.000000	93.507314
1024.000000	93.544194
1023.000000	93.563975
1022.000000	93.561074
1021.000000	93.544523
1020.000000	93.515970
1019.000000	93.459972
1018.000000	93.365190
1017.000000	93.235676
1016.000000	93.078262
1015.000000	92.899032
1014.000000	92.719970
1013.000000	92.576784
1012.000000	92.491074
1011.000000	92.458425
1010.000000	92.467257
1009.000000	92.509933
1008.000000	92.569857
1007.000000	92.620295
1006.000000	92.644967
1005.000000	92.644693
1004.000000	92.618471
1003.000000	92.558396
1002.000000	92.467916
1001.000000	92.365563
1000.000000	92.262755
999.000000	92.156383
998.000000	92.048700
997.000000	91.954161
996.000000	91.879671
995.000000	91.816304
994.000000	91.756518
993.000000	91.700289
992.000000	91.637309
991.000000	91.542038
990.000000	91.395990
989.000000	91.195647
988.000000	90.935241
987.000000	90.598681
986.000000	90.176557
985.000000	89.674362
984.000000	89.093227
983.000000	88.424623
982.000000	87.667156
981.000000	86.832293
980.000000	85.929678
979.000000	84.959051
978.000000	83.925719
977.000000	82.846655
976.000000	81.737929
975.000000	80.611784
974.000000	79.488766
973.000000	78.401643
972.000000	77.382619
971.000000	76.461151
970.000000	75.672392
969.000000	75.062935
968.000000	74.679558
967.000000	74.559642
966.000000	74.739848
965.000000	75.248745
964.000000	76.093299
963.000000	77.244293
962.000000	78.640510
961.000000	80.204388
960.000000	81.841322
959.000000	83.451436
958.000000	84.956168
957.000000	86.314067
956.000000	87.505041
955.000000	88.519244
954.000000	89.367262
953.000000	90.079410
952.000000	90.682074
951.000000	91.182993
950.000000	91.592579
949.000000	91.934281
948.000000	92.225286
947.000000	92.467865
946.000000	92.665325
945.000000	92.831393
944.000000	92.972432
943.000000	93.080880
942.000000	93.156344
941.000000	93.211874
940.000000	93.253013
939.000000	93.269378
938.000000	93.256191
937.000000	93.224607
936.000000	93.181619
935.000000	93.120037
934.000000	93.036786
933.000000	92.940660
932.000000	92.834661
931.000000	92.709378
930.000000	92.562737
929.000000	92.406855
928.000000	92.247634
927.000000	92.078199
926.000000	91.898851
925.000000	91.724046
924.000000	91.561429
923.000000	91.404873
922.000000	91.254832
921.000000	91.126112
920.000000	91.027545
919.000000	90.953814
918.000000	90.905527
917.000000	90.895649
916.000000	90.929024
915.000000	90.995628
914.000000	91.091823
913.000000	91.228531
912.000000	91.408643
911.000000	91.618032
910.000000	91.848581
909.000000	92.107231
908.000000	92.393368
907.000000	92.687536
906.000000	92.974468
905.000000	93.255636
904.000000	93.529002
903.000000	93.779328
902.000000	93.999653
901.000000	94.200649
900.000000	94.387153
899.000000	94.548463
898.000000	94.681779
897.000000	94.800877
896.000000	94.911109
895.000000	94.999653
894.000000	95.061944
893.000000	95.113198
892.000000	95.163305
891.000000	95.204778
890.000000	95.236512
889.000000	95.274125
888.000000	95.324574
887.000000	95.374403
886.000000	95.415539
885.000000	95.457922
884.000000	95.505932
883.000000	95.546976
882.000000	95.576074
881.000000	95.606336
880.000000	95.643307
879.000000	95.674476
878.000000	95.695888
877.000000	95.722455
876.000000	95.759568
875.000000	95.792533
874.000000	95.815842
873.000000	95.845084
872.000000	95.886514
871.000000	95.923948
870.000000	95.947615
869.000000	95.968378
868.000000	95.991017
867.000000	96.002514
866.000000	95.999511
865.000000	95.998991
864.000000	96.008860
863.000000	96.014937
862.000000	96.010153
861.000000	96.008361
860.000000	96.016467
859.000000	96.019861
858.000000	96.009817
857.000000	95.997990
856.000000	95.990846
855.000000	95.976351
854.000000	95.949645
853.000000	95.924925
852.000000	95.908117
851.000000	95.884698
850.000000	95.847401
849.000000	95.809626
848.000000	95.777859
847.000000	95.738694
846.000000	95.685903
845.000000	95.633283
844.000000	95.586888
843.000000	95.532508
842.000000	95.463442
841.000000	95.393334
840.000000	95.328497
839.000000	95.255718
838.000000	95.170975
837.000000	95.091581
836.000000	95.026486
835.000000	94.962545
834.000000	94.894828
833.000000	94.840998
832.000000	94.811194
831.000000	94.791549
830.000000	94.773418
829.000000	94.770021
828.000000	94.786954
827.000000	94.805477
826.000000	94.813762
825.000000	94.827254
824.000000	94.859536
823.000000	94.901874
822.000000	94.947892
821.000000	95.007263
820.000000	95.078573
819.000000	95.139847
818.000000	95.180289
817.000000	95.212617
816.000000	95.241881
815.000000	95.252870
814.000000	95.241312
813.000000	95.226802
812.000000	95.220058
811.000000	95.207062
810.000000	95.180449
809.000000	95.155672
808.000000	95.141016
807.000000	95.121372
806.000000	95.088327
805.000000	95.056658
804.000000	95.035330
803.000000	95.011702
802.000000	94.979337
801.000000	94.951900
800.000000	94.934180
799.000000	94.909430
798.000000	94.870317
797.000000	94.832638
796.000000	94.803951
795.000000	94.769559
794.000000	94.723502
793.000000	94.682379
792.000000	94.654324
791.000000	94.625511
790.000000	94.590749
789.000000	94.565866
788.000000	94.556007
787.000000	94.543219
786.000000	94.519631
785.000000	94.501186
784.000000	94.494383
783.000000	94.481249
782.000000	94.451969
781.000000	94.421501
780.000000	94.398935
779.000000	94.371201
778.000000	94.332056
777.000000	94.296741
776.000000	94.272287
775.000000	94.242696
774.000000	94.198450
773.000000	94.151744
772.000000	94.109302
771.000000	94.060301
770.000000	94.004694
769.000000	93.962158
768.000000	93.938605
767.000000	93.914355
766.000000	93.879515
765.000000	93.849387
764.000000	93.830879
763.000000	93.806566
762.000000	93.767843
761.000000	93.731633
760.000000	93.707491
759.000000	93.680248
758.000000	93.641138
757.000000	93.604958
756.000000	93.580094
755.000000	93.553502
754.000000	93.520525
753.000000	93.497125
752.000000	93.486728
751.000000	93.467700
750.000000	93.430627
749.000000	93.395127
748.000000	93.373199
747.000000	93.348226
746.000000	93.308548
745.000000	93.268618
744.000000	93.238262
743.000000	93.202079
742.000000	93.149122
741.000000	93.092094
740.000000	93.038238
739.000000	92.971703
738.000000	92.883822
737.000000	92.791044
736.000000	92.702583
735.000000	92.597794
734.000000	92.453750
733.000000	92.272628
732.000000	92.072174
731.000000	91.879833
730.000000	91.744701
729.000000	91.714016
728.000000	91.775476
727.000000	91.855211
726.000000	91.890431
725.000000	91.872784
724.000000	91.809284
723.000000	91.686873
722.000000	91.509188
721.000000	91.335432
720.000000	91.246440
719.000000	91.280639
718.000000	91.418684
717.000000	91.606310
716.000000	91.774392
715.000000	91.869186
714.000000	91.890035
713.000000	91.879066
712.000000	91.863668
711.000000	91.834732
710.000000	91.785060
709.000000	91.730354
708.000000	91.676818
707.000000	91.606582
706.000000	91.511786
705.000000	91.410884
704.000000	91.313255
703.000000	91.202540
702.000000	91.071934
701.000000	90.940782
700.000000	90.817383
699.000000	90.682129
698.000000	90.526971
697.000000	90.374569
696.000000	90.239371
695.000000	90.104728
694.000000	89.962126
693.000000	89.834363
692.000000	89.737410
691.000000	89.656079
690.000000	89.581554
689.000000	89.534939
688.000000	89.527399
687.000000	89.534758
686.000000	89.540635
685.000000	89.564440
684.000000	89.617324
683.000000	89.675055
682.000000	89.718960
681.000000	89.763305
680.000000	89.815577
679.000000	89.853395
678.000000	89.866552
677.000000	89.878761
676.000000	89.903890
675.000000	89.922768
674.000000	89.928771
673.000000	89.949724
672.000000	89.999288
671.000000	90.051742
670.000000	90.091918
669.000000	90.149773
668.000000	90.237376
667.000000	90.309202
666.000000	90.352306
665.000000	90.389343
664.000000	90.431034
663.000000	90.459741
662.000000	90.466185
661.000000	90.472833
660.000000	90.492626
659.000000	90.505022
658.000000	90.498874
657.000000	90.496732
656.000000	90.511830
655.000000	90.524577
654.000000	90.524948
653.000000	90.535712
652.000000	90.568159
651.000000	90.598776
650.000000	90.614927
649.000000	90.639778
648.000000	90.686084
647.000000	90.730225
646.000000	90.757834
645.000000	90.789031
644.000000	90.832775
643.000000	90.862671
642.000000	90.866604
641.000000	90.869597
640.000000	90.883150
639.000000	90.879631
638.000000	90.845651
637.000000	90.812648
636.000000	90.805136
635.000000	90.805900
634.000000	90.799015
633.000000	90.800586
632.000000	90.815921
631.000000	90.814924
630.000000	90.781590
629.000000	90.743616
628.000000	90.721390
627.000000	90.696301
626.000000	90.655478
625.000000	90.620760
624.000000	90.600518
623.000000	90.566071
622.000000	90.506101
621.000000	90.452199
620.000000	90.423909
619.000000	90.395360
618.000000	90.348088
617.000000	90.303521
616.000000	90.271869
615.000000	90.222295
614.000000	90.140803
613.000000	90.061056
612.000000	90.004610
611.000000	89.945098
610.000000	89.868292
609.000000	89.811718
608.000000	89.803521
607.000000	89.819501
606.000000	89.835437
605.000000	89.871414
604.000000	89.939085
603.000000	90.004578
602.000000	90.044915
601.000000	90.085619
600.000000	90.139512
599.000000	90.171474
598.000000	90.160220
597.000000	90.136229
596.000000	90.120978
595.000000	90.086822
594.000000	90.016930
593.000000	89.943565
592.000000	89.889137
591.000000	89.824914
590.000000	89.731323
589.000000	89.637405
588.000000	89.562851
587.000000	89.482920
586.000000	89.387119
585.000000	89.314630
584.000000	89.289043
583.000000	89.280663
582.000000	89.269246
581.000000	89.286852
580.000000	89.351594
579.000000	89.426875
578.000000	89.483320
577.000000	89.544375
576.000000	89.626437
575.000000	89.693146
574.000000	89.720564
573.000000	89.742088
572.000000	89.783675
571.000000	89.816043
570.000000	89.816386
569.000000	89.814122
568.000000	89.831394
567.000000	89.836553
566.000000	89.807116
565.000000	89.775521
564.000000	89.765501
563.000000	89.750595
562.000000	89.714410
561.000000	89.689348
560.000000	89.690947
559.000000	89.680831
558.000000	89.639079
557.000000	89.607793
556.000000	89.613215
555.000000	89.616597
554.000000	89.589854
553.000000	89.567505
552.000000	89.573252
551.000000	89.572758
550.000000	89.547737
549.000000	89.540202
548.000000	89.570677
547.000000	89.592280
546.000000	89.578085
545.000000	89.573519
544.000000	89.609178
543.000000	89.644906
542.000000	89.653822
541.000000	89.675588
540.000000	89.733215
539.000000	89.779440
538.000000	89.784260
537.000000	89.794147
536.000000	89.843600
535.000000	89.892635
534.000000	89.906502
533.000000	89.924202
532.000000	89.972888
531.000000	90.007800
530.000000	89.999744
529.000000	89.995279
528.000000	90.025121
527.000000	90.048958
526.000000	90.045591
525.000000	90.068015
524.000000	90.140351
523.000000	90.199824
522.000000	90.204940
521.000000	90.202535
520.000000	90.230395
519.000000	90.247103
518.000000	90.227168
517.000000	90.226084
516.000000	90.272478
515.000000	90.302200
514.000000	90.282143
513.000000	90.279287
512.000000	90.335605
511.000000	90.388229
510.000000	90.387302
509.000000	90.387077
508.000000	90.427632
507.000000	90.453048
506.000000	90.426845
505.000000	90.411971
504.000000	90.452306
503.000000	90.490959
502.000000	90.488097
501.000000	90.506000
500.000000	90.576743
499.000000	90.628845
498.000000	90.619960
497.000000	90.615222
496.000000	90.656890
495.000000	90.678492
494.000000	90.640892
493.000000	90.617368
492.000000	90.653713
491.000000	90.683546
490.000000	90.664634
489.000000	90.665820
488.000000	90.719941
487.000000	90.744651
486.000000	90.699138
485.000000	90.671978
484.000000	90.714190
483.000000	90.735628
482.000000	90.679214
481.000000	90.625222
480.000000	90.627565
479.000000	90.617156
478.000000	90.550300
477.000000	90.509235
476.000000	90.541988
475.000000	90.560540
474.000000	90.501159
473.000000	90.445006
472.000000	90.451443
471.000000	90.442868
470.000000	90.378824
469.000000	90.356453
468.000000	90.423794
467.000000	90.472829
466.000000	90.431287
465.000000	90.401584
464.000000	90.460566
463.000000	90.515453
462.000000	90.491788
461.000000	90.471428
460.000000	90.513914
459.000000	90.519600
458.000000	90.419008
457.000000	90.342924
456.000000	90.386403
455.000000	90.431705
454.000000	90.395189
453.000000	90.372744
452.000000	90.427752
451.000000	90.451218
450.000000	90.368619
449.000000	90.290819
448.000000	90.294711
447.000000	90.273594
446.000000	90.153584
445.000000	90.062101
444.000000	90.088579
443.000000	90.097975
442.000000	89.979263
441.000000	89.858868
440.000000	89.851239
439.000000	89.846626
438.000000	89.741675
437.000000	89.633437
436.000000	89.611391
435.000000	89.562536
434.000000	89.407765
433.000000	89.286321
432.000000	89.289147
431.000000	89.264287
430.000000	89.100674
429.000000	88.954941
428.000000	88.950961
427.000000	88.943407
426.000000	88.805413
425.000000	88.692981
424.000000	88.746441
423.000000	88.797119
422.000000	88.678585
421.000000	88.543632
420.000000	88.558175
419.000000	88.536566
418.000000	88.325126
417.000000	88.219953
416.000000	88.368171
415.000000	88.522056
414.000000	88.504631
413.000000	88.483377
412.000000	88.609850
411.000000	88.681437
410.000000	88.547117
409.000000	88.459410
408.000000	88.615236
407.000000	88.764881
406.000000	88.682247
405.000000	88.612270
404.000000	88.773109
403.000000	88.891437
402.000000	88.724076
401.000000	88.591557
400.000000	88.812481
