Created as New Dataset,Sample 146 By YargerLab Date Wednesday, June 05 2024
cm-1,A
4000.00,0.0025
3999.00,0.0025
3998.00,0.0025
3997.00,0.0025
3996.00,0.0025
3995.00,0.0025
3994.00,0.0025
3993.00,0.0025
3992.00,0.0025
3991.00,0.0025
3990.00,0.0025
3989.00,0.0025
3988.00,0.0025
3987.00,0.0025
3986.00,0.0025
3985.00,0.0025
3984.00,0.0025
3983.00,0.0025
3982.00,0.0025
3981.00,0.0025
3980.00,0.0025
3979.00,0.0025
3978.00,0.0025
3977.00,0.0025
3976.00,0.0025
3975.00,0.0025
3974.00,0.0025
3973.00,0.0025
3972.00,0.0025
3971.00,0.0025
3970.00,0.0025
3969.00,0.0025
3968.00,0.0025
3967.00,0.0025
3966.00,0.0025
3965.00,0.0025
3964.00,0.0025
3963.00,0.0025
3962.00,0.0025
3961.00,0.0025
3960.00,0.0025
3959.00,0.0025
3958.00,0.0025
3957.00,0.0025
3956.00,0.0025
3955.00,0.0025
3954.00,0.0025
3953.00,0.0025
3952.00,0.0025
3951.00,0.0025
3950.00,0.0025
3949.00,0.0025
3948.00,0.0025
3947.00,0.0025
3946.00,0.0025
3945.00,0.0025
3944.00,0.0025
3943.00,0.0025
3942.00,0.0025
3941.00,0.0025
3940.00,0.0025
3939.00,0.0025
3938.00,0.0025
3937.00,0.0025
3936.00,0.0025
3935.00,0.0025
3934.00,0.0025
3933.00,0.0025
3932.00,0.0025
3931.00,0.0025
3930.00,0.0025
3929.00,0.0025
3928.00,0.0025
3927.00,0.0025
3926.00,0.0025
3925.00,0.0025
3924.00,0.0025
3923.00,0.0025
3922.00,0.0025
3921.00,0.0025
3920.00,0.0025
3919.00,0.0025
3918.00,0.0025
3917.00,0.0025
3916.00,0.0025
3915.00,0.0025
3914.00,0.0025
3913.00,0.0025
3912.00,0.0025
3911.00,0.0025
3910.00,0.0025
3909.00,0.0025
3908.00,0.0025
3907.00,0.0025
3906.00,0.0025
3905.00,0.0025
3904.00,0.0025
3903.00,0.0024
3902.00,0.0024
3901.00,0.0024
3900.00,0.0024
3899.00,0.0024
3898.00,0.0024
3897.00,0.0024
3896.00,0.0024
3895.00,0.0024
3894.00,0.0025
3893.00,0.0025
3892.00,0.0025
3891.00,0.0025
3890.00,0.0025
3889.00,0.0024
3888.00,0.0024
3887.00,0.0024
3886.00,0.0024
3885.00,0.0024
3884.00,0.0024
3883.00,0.0024
3882.00,0.0024
3881.00,0.0024
3880.00,0.0024
3879.00,0.0024
3878.00,0.0024
3877.00,0.0024
3876.00,0.0024
3875.00,0.0024
3874.00,0.0024
3873.00,0.0024
3872.00,0.0024
3871.00,0.0024
3870.00,0.0024
3869.00,0.0024
3868.00,0.0024
3867.00,0.0024
3866.00,0.0024
3865.00,0.0024
3864.00,0.0024
3863.00,0.0024
3862.00,0.0024
3861.00,0.0024
3860.00,0.0024
3859.00,0.0024
3858.00,0.0025
3857.00,0.0025
3856.00,0.0025
3855.00,0.0024
3854.00,0.0024
3853.00,0.0024
3852.00,0.0024
3851.00,0.0024
3850.00,0.0024
3849.00,0.0024
3848.00,0.0024
3847.00,0.0024
3846.00,0.0024
3845.00,0.0024
3844.00,0.0024
3843.00,0.0024
3842.00,0.0024
3841.00,0.0024
3840.00,0.0024
3839.00,0.0024
3838.00,0.0024
3837.00,0.0024
3836.00,0.0024
3835.00,0.0024
3834.00,0.0024
3833.00,0.0024
3832.00,0.0023
3831.00,0.0023
3830.00,0.0023
3829.00,0.0023
3828.00,0.0024
3827.00,0.0024
3826.00,0.0024
3825.00,0.0024
3824.00,0.0024
3823.00,0.0024
3822.00,0.0024
3821.00,0.0024
3820.00,0.0024
3819.00,0.0024
3818.00,0.0024
3817.00,0.0024
3816.00,0.0024
3815.00,0.0024
3814.00,0.0024
3813.00,0.0024
3812.00,0.0024
3811.00,0.0024
3810.00,0.0024
3809.00,0.0024
3808.00,0.0024
3807.00,0.0024
3806.00,0.0024
3805.00,0.0024
3804.00,0.0024
3803.00,0.0024
3802.00,0.0024
3801.00,0.0024
3800.00,0.0024
3799.00,0.0024
3798.00,0.0024
3797.00,0.0024
3796.00,0.0024
3795.00,0.0024
3794.00,0.0024
3793.00,0.0024
3792.00,0.0024
3791.00,0.0024
3790.00,0.0024
3789.00,0.0024
3788.00,0.0024
3787.00,0.0024
3786.00,0.0024
3785.00,0.0024
3784.00,0.0024
3783.00,0.0024
3782.00,0.0024
3781.00,0.0024
3780.00,0.0024
3779.00,0.0024
3778.00,0.0024
3777.00,0.0024
3776.00,0.0024
3775.00,0.0024
3774.00,0.0024
3773.00,0.0024
3772.00,0.0024
3771.00,0.0024
3770.00,0.0024
3769.00,0.0024
3768.00,0.0024
3767.00,0.0024
3766.00,0.0024
3765.00,0.0024
3764.00,0.0024
3763.00,0.0024
3762.00,0.0024
3761.00,0.0024
3760.00,0.0024
3759.00,0.0023
3758.00,0.0023
3757.00,0.0023
3756.00,0.0023
3755.00,0.0023
3754.00,0.0023
3753.00,0.0023
3752.00,0.0023
3751.00,0.0023
3750.00,0.0023
3749.00,0.0023
3748.00,0.0023
3747.00,0.0023
3746.00,0.0023
3745.00,0.0023
3744.00,0.0023
3743.00,0.0023
3742.00,0.0023
3741.00,0.0023
3740.00,0.0023
3739.00,0.0023
3738.00,0.0023
3737.00,0.0023
3736.00,0.0023
3735.00,0.0023
3734.00,0.0024
3733.00,0.0024
3732.00,0.0024
3731.00,0.0024
3730.00,0.0024
3729.00,0.0024
3728.00,0.0024
3727.00,0.0024
3726.00,0.0024
3725.00,0.0024
3724.00,0.0024
3723.00,0.0024
3722.00,0.0024
3721.00,0.0024
3720.00,0.0024
3719.00,0.0024
3718.00,0.0024
3717.00,0.0024
3716.00,0.0024
3715.00,0.0024
3714.00,0.0024
3713.00,0.0024
3712.00,0.0024
3711.00,0.0024
3710.00,0.0024
3709.00,0.0024
3708.00,0.0024
3707.00,0.0024
3706.00,0.0024
3705.00,0.0024
3704.00,0.0024
3703.00,0.0024
3702.00,0.0024
3701.00,0.0024
3700.00,0.0024
3699.00,0.0024
3698.00,0.0024
3697.00,0.0024
3696.00,0.0024
3695.00,0.0024
3694.00,0.0024
3693.00,0.0024
3692.00,0.0024
3691.00,0.0024
3690.00,0.0024
3689.00,0.0024
3688.00,0.0024
3687.00,0.0024
3686.00,0.0024
3685.00,0.0024
3684.00,0.0024
3683.00,0.0024
3682.00,0.0024
3681.00,0.0024
3680.00,0.0024
3679.00,0.0024
3678.00,0.0025
3677.00,0.0025
3676.00,0.0025
3675.00,0.0025
3674.00,0.0025
3673.00,0.0025
3672.00,0.0024
3671.00,0.0024
3670.00,0.0024
3669.00,0.0025
3668.00,0.0025
3667.00,0.0025
3666.00,0.0025
3665.00,0.0025
3664.00,0.0025
3663.00,0.0025
3662.00,0.0025
3661.00,0.0025
3660.00,0.0025
3659.00,0.0025
3658.00,0.0025
3657.00,0.0025
3656.00,0.0025
3655.00,0.0025
3654.00,0.0025
3653.00,0.0025
3652.00,0.0026
3651.00,0.0025
3650.00,0.0025
3649.00,0.0025
3648.00,0.0026
3647.00,0.0026
3646.00,0.0026
3645.00,0.0026
3644.00,0.0026
3643.00,0.0026
3642.00,0.0027
3641.00,0.0027
3640.00,0.0027
3639.00,0.0027
3638.00,0.0027
3637.00,0.0027
3636.00,0.0027
3635.00,0.0027
3634.00,0.0027
3633.00,0.0028
3632.00,0.0028
3631.00,0.0028
3630.00,0.0028
3629.00,0.0028
3628.00,0.0028
3627.00,0.0028
3626.00,0.0028
3625.00,0.0028
3624.00,0.0028
3623.00,0.0028
3622.00,0.0028
3621.00,0.0028
3620.00,0.0028
3619.00,0.0029
3618.00,0.0029
3617.00,0.0029
3616.00,0.0029
3615.00,0.0029
3614.00,0.0029
3613.00,0.0029
3612.00,0.0029
3611.00,0.0029
3610.00,0.0029
3609.00,0.0029
3608.00,0.0030
3607.00,0.0030
3606.00,0.0030
3605.00,0.0030
3604.00,0.0031
3603.00,0.0031
3602.00,0.0031
3601.00,0.0031
3600.00,0.0031
3599.00,0.0031
3598.00,0.0031
3597.00,0.0031
3596.00,0.0031
3595.00,0.0032
3594.00,0.0032
3593.00,0.0032
3592.00,0.0032
3591.00,0.0032
3590.00,0.0032
3589.00,0.0032
3588.00,0.0032
3587.00,0.0032
3586.00,0.0033
3585.00,0.0033
3584.00,0.0033
3583.00,0.0033
3582.00,0.0034
3581.00,0.0034
3580.00,0.0034
3579.00,0.0034
3578.00,0.0034
3577.00,0.0034
3576.00,0.0034
3575.00,0.0035
3574.00,0.0035
3573.00,0.0035
3572.00,0.0035
3571.00,0.0035
3570.00,0.0036
3569.00,0.0036
3568.00,0.0036
3567.00,0.0036
3566.00,0.0036
3565.00,0.0036
3564.00,0.0036
3563.00,0.0036
3562.00,0.0036
3561.00,0.0036
3560.00,0.0037
3559.00,0.0037
3558.00,0.0037
3557.00,0.0037
3556.00,0.0038
3555.00,0.0038
3554.00,0.0038
3553.00,0.0038
3552.00,0.0038
3551.00,0.0038
3550.00,0.0038
3549.00,0.0038
3548.00,0.0038
3547.00,0.0039
3546.00,0.0039
3545.00,0.0039
3544.00,0.0039
3543.00,0.0039
3542.00,0.0040
3541.00,0.0040
3540.00,0.0040
3539.00,0.0040
3538.00,0.0040
3537.00,0.0041
3536.00,0.0041
3535.00,0.0041
3534.00,0.0041
3533.00,0.0041
3532.00,0.0041
3531.00,0.0041
3530.00,0.0041
3529.00,0.0042
3528.00,0.0042
3527.00,0.0042
3526.00,0.0042
3525.00,0.0042
3524.00,0.0042
3523.00,0.0043
3522.00,0.0043
3521.00,0.0043
3520.00,0.0043
3519.00,0.0043
3518.00,0.0044
3517.00,0.0044
3516.00,0.0044
3515.00,0.0044
3514.00,0.0045
3513.00,0.0045
3512.00,0.0045
3511.00,0.0045
3510.00,0.0045
3509.00,0.0045
3508.00,0.0045
3507.00,0.0045
3506.00,0.0046
3505.00,0.0046
3504.00,0.0046
3503.00,0.0046
3502.00,0.0046
3501.00,0.0047
3500.00,0.0047
3499.00,0.0047
3498.00,0.0047
3497.00,0.0048
3496.00,0.0048
3495.00,0.0048
3494.00,0.0048
3493.00,0.0048
3492.00,0.0048
3491.00,0.0048
3490.00,0.0049
3489.00,0.0049
3488.00,0.0049
3487.00,0.0049
3486.00,0.0050
3485.00,0.0050
3484.00,0.0050
3483.00,0.0050
3482.00,0.0050
3481.00,0.0050
3480.00,0.0050
3479.00,0.0051
3478.00,0.0051
3477.00,0.0052
3476.00,0.0052
3475.00,0.0052
3474.00,0.0052
3473.00,0.0053
3472.00,0.0053
3471.00,0.0053
3470.00,0.0053
3469.00,0.0053
3468.00,0.0053
3467.00,0.0054
3466.00,0.0054
3465.00,0.0054
3464.00,0.0054
3463.00,0.0054
3462.00,0.0054
3461.00,0.0055
3460.00,0.0055
3459.00,0.0055
3458.00,0.0055
3457.00,0.0055
3456.00,0.0056
3455.00,0.0056
3454.00,0.0056
3453.00,0.0056
3452.00,0.0057
3451.00,0.0057
3450.00,0.0057
3449.00,0.0057
3448.00,0.0057
3447.00,0.0057
3446.00,0.0057
3445.00,0.0057
3444.00,0.0058
3443.00,0.0058
3442.00,0.0058
3441.00,0.0058
3440.00,0.0058
3439.00,0.0059
3438.00,0.0059
3437.00,0.0059
3436.00,0.0059
3435.00,0.0060
3434.00,0.0060
3433.00,0.0060
3432.00,0.0060
3431.00,0.0061
3430.00,0.0061
3429.00,0.0061
3428.00,0.0061
3427.00,0.0061
3426.00,0.0062
3425.00,0.0062
3424.00,0.0062
3423.00,0.0062
3422.00,0.0062
3421.00,0.0063
3420.00,0.0063
3419.00,0.0063
3418.00,0.0063
3417.00,0.0064
3416.00,0.0064
3415.00,0.0064
3414.00,0.0064
3413.00,0.0064
3412.00,0.0065
3411.00,0.0065
3410.00,0.0065
3409.00,0.0065
3408.00,0.0065
3407.00,0.0066
3406.00,0.0066
3405.00,0.0066
3404.00,0.0066
3403.00,0.0066
3402.00,0.0066
3401.00,0.0066
3400.00,0.0067
3399.00,0.0067
3398.00,0.0067
3397.00,0.0067
3396.00,0.0067
3395.00,0.0067
3394.00,0.0068
3393.00,0.0068
3392.00,0.0068
3391.00,0.0068
3390.00,0.0068
3389.00,0.0069
3388.00,0.0069
3387.00,0.0069
3386.00,0.0069
3385.00,0.0069
3384.00,0.0069
3383.00,0.0070
3382.00,0.0070
3381.00,0.0070
3380.00,0.0070
3379.00,0.0071
3378.00,0.0071
3377.00,0.0071
3376.00,0.0071
3375.00,0.0071
3374.00,0.0072
3373.00,0.0072
3372.00,0.0072
3371.00,0.0072
3370.00,0.0073
3369.00,0.0073
3368.00,0.0073
3367.00,0.0073
3366.00,0.0073
3365.00,0.0074
3364.00,0.0074
3363.00,0.0074
3362.00,0.0074
3361.00,0.0075
3360.00,0.0075
3359.00,0.0076
3358.00,0.0076
3357.00,0.0076
3356.00,0.0077
3355.00,0.0077
3354.00,0.0077
3353.00,0.0078
3352.00,0.0078
3351.00,0.0078
3350.00,0.0078
3349.00,0.0079
3348.00,0.0079
3347.00,0.0080
3346.00,0.0080
3345.00,0.0080
3344.00,0.0081
3343.00,0.0081
3342.00,0.0081
3341.00,0.0082
3340.00,0.0082
3339.00,0.0083
3338.00,0.0083
3337.00,0.0083
3336.00,0.0084
3335.00,0.0084
3334.00,0.0085
3333.00,0.0085
3332.00,0.0086
3331.00,0.0086
3330.00,0.0086
3329.00,0.0087
3328.00,0.0087
3327.00,0.0088
3326.00,0.0088
3325.00,0.0088
3324.00,0.0089
3323.00,0.0089
3322.00,0.0090
3321.00,0.0091
3320.00,0.0091
3319.00,0.0091
3318.00,0.0092
3317.00,0.0093
3316.00,0.0093
3315.00,0.0094
3314.00,0.0094
3313.00,0.0095
3312.00,0.0095
3311.00,0.0096
3310.00,0.0096
3309.00,0.0096
3308.00,0.0097
3307.00,0.0097
3306.00,0.0098
3305.00,0.0098
3304.00,0.0099
3303.00,0.0099
3302.00,0.0100
3301.00,0.0101
3300.00,0.0101
3299.00,0.0102
3298.00,0.0102
3297.00,0.0103
3296.00,0.0103
3295.00,0.0103
3294.00,0.0104
3293.00,0.0104
3292.00,0.0104
3291.00,0.0105
3290.00,0.0106
3289.00,0.0106
3288.00,0.0107
3287.00,0.0107
3286.00,0.0107
3285.00,0.0107
3284.00,0.0107
3283.00,0.0108
3282.00,0.0108
3281.00,0.0108
3280.00,0.0108
3279.00,0.0108
3278.00,0.0108
3277.00,0.0108
3276.00,0.0108
3275.00,0.0108
3274.00,0.0107
3273.00,0.0107
3272.00,0.0107
3271.00,0.0107
3270.00,0.0106
3269.00,0.0106
3268.00,0.0106
3267.00,0.0106
3266.00,0.0106
3265.00,0.0106
3264.00,0.0105
3263.00,0.0105
3262.00,0.0104
3261.00,0.0104
3260.00,0.0104
3259.00,0.0103
3258.00,0.0102
3257.00,0.0102
3256.00,0.0101
3255.00,0.0101
3254.00,0.0100
3253.00,0.0100
3252.00,0.0099
3251.00,0.0099
3250.00,0.0098
3249.00,0.0097
3248.00,0.0097
3247.00,0.0096
3246.00,0.0096
3245.00,0.0096
3244.00,0.0095
3243.00,0.0095
3242.00,0.0095
3241.00,0.0094
3240.00,0.0094
3239.00,0.0094
3238.00,0.0093
3237.00,0.0093
3236.00,0.0092
3235.00,0.0092
3234.00,0.0091
3233.00,0.0091
3232.00,0.0091
3231.00,0.0090
3230.00,0.0090
3229.00,0.0090
3228.00,0.0090
3227.00,0.0090
3226.00,0.0090
3225.00,0.0089
3224.00,0.0089
3223.00,0.0088
3222.00,0.0088
3221.00,0.0088
3220.00,0.0087
3219.00,0.0087
3218.00,0.0087
3217.00,0.0086
3216.00,0.0086
3215.00,0.0086
3214.00,0.0086
3213.00,0.0086
3212.00,0.0085
3211.00,0.0085
3210.00,0.0085
3209.00,0.0085
3208.00,0.0084
3207.00,0.0084
3206.00,0.0084
3205.00,0.0084
3204.00,0.0084
3203.00,0.0083
3202.00,0.0083
3201.00,0.0083
3200.00,0.0082
3199.00,0.0082
3198.00,0.0082
3197.00,0.0082
3196.00,0.0081
3195.00,0.0081
3194.00,0.0081
3193.00,0.0080
3192.00,0.0080
3191.00,0.0080
3190.00,0.0080
3189.00,0.0079
3188.00,0.0079
3187.00,0.0079
3186.00,0.0078
3185.00,0.0078
3184.00,0.0078
3183.00,0.0077
3182.00,0.0077
3181.00,0.0077
3180.00,0.0076
3179.00,0.0076
3178.00,0.0076
3177.00,0.0075
3176.00,0.0075
3175.00,0.0075
3174.00,0.0074
3173.00,0.0074
3172.00,0.0074
3171.00,0.0073
3170.00,0.0073
3169.00,0.0073
3168.00,0.0073
3167.00,0.0072
3166.00,0.0072
3165.00,0.0072
3164.00,0.0071
3163.00,0.0071
3162.00,0.0071
3161.00,0.0070
3160.00,0.0070
3159.00,0.0070
3158.00,0.0069
3157.00,0.0069
3156.00,0.0069
3155.00,0.0068
3154.00,0.0068
3153.00,0.0068
3152.00,0.0067
3151.00,0.0067
3150.00,0.0067
3149.00,0.0067
3148.00,0.0066
3147.00,0.0066
3146.00,0.0066
3145.00,0.0066
3144.00,0.0066
3143.00,0.0065
3142.00,0.0065
3141.00,0.0065
3140.00,0.0064
3139.00,0.0064
3138.00,0.0064
3137.00,0.0064
3136.00,0.0064
3135.00,0.0064
3134.00,0.0064
3133.00,0.0063
3132.00,0.0063
3131.00,0.0063
3130.00,0.0063
3129.00,0.0063
3128.00,0.0062
3127.00,0.0062
3126.00,0.0062
3125.00,0.0062
3124.00,0.0062
3123.00,0.0062
3122.00,0.0061
3121.00,0.0061
3120.00,0.0061
3119.00,0.0061
3118.00,0.0061
3117.00,0.0061
3116.00,0.0061
3115.00,0.0061
3114.00,0.0061
3113.00,0.0061
3112.00,0.0061
3111.00,0.0061
3110.00,0.0061
3109.00,0.0061
3108.00,0.0061
3107.00,0.0061
3106.00,0.0061
3105.00,0.0061
3104.00,0.0061
3103.00,0.0061
3102.00,0.0061
3101.00,0.0060
3100.00,0.0060
3099.00,0.0060
3098.00,0.0060
3097.00,0.0061
3096.00,0.0061
3095.00,0.0061
3094.00,0.0061
3093.00,0.0061
3092.00,0.0061
3091.00,0.0061
3090.00,0.0061
3089.00,0.0061
3088.00,0.0061
3087.00,0.0061
3086.00,0.0061
3085.00,0.0061
3084.00,0.0061
3083.00,0.0061
3082.00,0.0061
3081.00,0.0061
3080.00,0.0061
3079.00,0.0061
3078.00,0.0061
3077.00,0.0061
3076.00,0.0061
3075.00,0.0062
3074.00,0.0062
3073.00,0.0062
3072.00,0.0062
3071.00,0.0062
3070.00,0.0062
3069.00,0.0062
3068.00,0.0061
3067.00,0.0061
3066.00,0.0061
3065.00,0.0061
3064.00,0.0061
3063.00,0.0061
3062.00,0.0061
3061.00,0.0061
3060.00,0.0061
3059.00,0.0061
3058.00,0.0061
3057.00,0.0060
3056.00,0.0060
3055.00,0.0060
3054.00,0.0060
3053.00,0.0060
3052.00,0.0060
3051.00,0.0059
3050.00,0.0059
3049.00,0.0059
3048.00,0.0059
3047.00,0.0059
3046.00,0.0058
3045.00,0.0058
3044.00,0.0058
3043.00,0.0057
3042.00,0.0057
3041.00,0.0057
3040.00,0.0057
3039.00,0.0057
3038.00,0.0057
3037.00,0.0057
3036.00,0.0057
3035.00,0.0056
3034.00,0.0056
3033.00,0.0056
3032.00,0.0056
3031.00,0.0056
3030.00,0.0056
3029.00,0.0056
3028.00,0.0056
3027.00,0.0055
3026.00,0.0055
3025.00,0.0055
3024.00,0.0055
3023.00,0.0054
3022.00,0.0054
3021.00,0.0054
3020.00,0.0054
3019.00,0.0054
3018.00,0.0053
3017.00,0.0053
3016.00,0.0053
3015.00,0.0052
3014.00,0.0052
3013.00,0.0052
3012.00,0.0052
3011.00,0.0052
3010.00,0.0052
3009.00,0.0052
3008.00,0.0052
3007.00,0.0052
3006.00,0.0052
3005.00,0.0052
3004.00,0.0052
3003.00,0.0052
3002.00,0.0052
3001.00,0.0052
3000.00,0.0052
2999.00,0.0052
2998.00,0.0052
2997.00,0.0052
2996.00,0.0052
2995.00,0.0052
2994.00,0.0053
2993.00,0.0053
2992.00,0.0053
2991.00,0.0053
2990.00,0.0053
2989.00,0.0054
2988.00,0.0054
2987.00,0.0054
2986.00,0.0055
2985.00,0.0055
2984.00,0.0056
2983.00,0.0056
2982.00,0.0056
2981.00,0.0056
2980.00,0.0057
2979.00,0.0057
2978.00,0.0058
2977.00,0.0058
2976.00,0.0059
2975.00,0.0060
2974.00,0.0060
2973.00,0.0061
2972.00,0.0062
2971.00,0.0062
2970.00,0.0063
2969.00,0.0064
2968.00,0.0064
2967.00,0.0065
2966.00,0.0065
2965.00,0.0066
2964.00,0.0066
2963.00,0.0067
2962.00,0.0067
2961.00,0.0068
2960.00,0.0068
2959.00,0.0068
2958.00,0.0068
2957.00,0.0068
2956.00,0.0068
2955.00,0.0068
2954.00,0.0068
2953.00,0.0068
2952.00,0.0068
2951.00,0.0067
2950.00,0.0067
2949.00,0.0067
2948.00,0.0067
2947.00,0.0067
2946.00,0.0067
2945.00,0.0067
2944.00,0.0068
2943.00,0.0069
2942.00,0.0069
2941.00,0.0070
2940.00,0.0071
2939.00,0.0072
2938.00,0.0073
2937.00,0.0074
2936.00,0.0075
2935.00,0.0076
2934.00,0.0077
2933.00,0.0079
2932.00,0.0080
2931.00,0.0081
2930.00,0.0082
2929.00,0.0084
2928.00,0.0085
2927.00,0.0087
2926.00,0.0088
2925.00,0.0090
2924.00,0.0091
2923.00,0.0093
2922.00,0.0094
2921.00,0.0095
2920.00,0.0096
2919.00,0.0097
2918.00,0.0097
2917.00,0.0097
2916.00,0.0095
2915.00,0.0093
2914.00,0.0091
2913.00,0.0088
2912.00,0.0085
2911.00,0.0083
2910.00,0.0080
2909.00,0.0078
2908.00,0.0076
2907.00,0.0075
2906.00,0.0073
2905.00,0.0072
2904.00,0.0072
2903.00,0.0071
2902.00,0.0070
2901.00,0.0069
2900.00,0.0069
2899.00,0.0068
2898.00,0.0068
2897.00,0.0067
2896.00,0.0066
2895.00,0.0066
2894.00,0.0065
2893.00,0.0065
2892.00,0.0065
2891.00,0.0064
2890.00,0.0064
2889.00,0.0064
2888.00,0.0063
2887.00,0.0063
2886.00,0.0063
2885.00,0.0063
2884.00,0.0063
2883.00,0.0062
2882.00,0.0062
2881.00,0.0062
2880.00,0.0062
2879.00,0.0063
2878.00,0.0063
2877.00,0.0063
2876.00,0.0063
2875.00,0.0063
2874.00,0.0063
2873.00,0.0063
2872.00,0.0063
2871.00,0.0063
2870.00,0.0063
2869.00,0.0063
2868.00,0.0063
2867.00,0.0062
2866.00,0.0062
2865.00,0.0062
2864.00,0.0062
2863.00,0.0062
2862.00,0.0063
2861.00,0.0063
2860.00,0.0064
2859.00,0.0064
2858.00,0.0065
2857.00,0.0066
2856.00,0.0067
2855.00,0.0069
2854.00,0.0070
2853.00,0.0072
2852.00,0.0074
2851.00,0.0075
2850.00,0.0076
2849.00,0.0075
2848.00,0.0074
2847.00,0.0071
2846.00,0.0069
2845.00,0.0066
2844.00,0.0063
2843.00,0.0061
2842.00,0.0059
2841.00,0.0058
2840.00,0.0057
2839.00,0.0056
2838.00,0.0055
2837.00,0.0054
2836.00,0.0053
2835.00,0.0053
2834.00,0.0052
2833.00,0.0052
2832.00,0.0052
2831.00,0.0051
2830.00,0.0051
2829.00,0.0051
2828.00,0.0051
2827.00,0.0050
2826.00,0.0050
2825.00,0.0050
2824.00,0.0049
2823.00,0.0049
2822.00,0.0049
2821.00,0.0049
2820.00,0.0049
2819.00,0.0049
2818.00,0.0048
2817.00,0.0048
2816.00,0.0048
2815.00,0.0048
2814.00,0.0048
2813.00,0.0048
2812.00,0.0048
2811.00,0.0048
2810.00,0.0047
2809.00,0.0047
2808.00,0.0047
2807.00,0.0047
2806.00,0.0047
2805.00,0.0047
2804.00,0.0047
2803.00,0.0047
2802.00,0.0046
2801.00,0.0046
2800.00,0.0046
2799.00,0.0046
2798.00,0.0046
2797.00,0.0046
2796.00,0.0046
2795.00,0.0046
2794.00,0.0046
2793.00,0.0046
2792.00,0.0045
2791.00,0.0045
2790.00,0.0045
2789.00,0.0045
2788.00,0.0045
2787.00,0.0045
2786.00,0.0045
2785.00,0.0045
2784.00,0.0045
2783.00,0.0045
2782.00,0.0045
2781.00,0.0045
2780.00,0.0045
2779.00,0.0045
2778.00,0.0045
2777.00,0.0044
2776.00,0.0044
2775.00,0.0044
2774.00,0.0044
2773.00,0.0044
2772.00,0.0044
2771.00,0.0044
2770.00,0.0044
2769.00,0.0043
2768.00,0.0043
2767.00,0.0043
2766.00,0.0043
2765.00,0.0043
2764.00,0.0043
2763.00,0.0043
2762.00,0.0043
2761.00,0.0043
2760.00,0.0043
2759.00,0.0043
2758.00,0.0043
2757.00,0.0043
2756.00,0.0043
2755.00,0.0043
2754.00,0.0043
2753.00,0.0042
2752.00,0.0042
2751.00,0.0042
2750.00,0.0042
2749.00,0.0042
2748.00,0.0042
2747.00,0.0042
2746.00,0.0042
2745.00,0.0042
2744.00,0.0042
2743.00,0.0042
2742.00,0.0042
2741.00,0.0041
2740.00,0.0041
2739.00,0.0041
2738.00,0.0041
2737.00,0.0041
2736.00,0.0041
2735.00,0.0041
2734.00,0.0041
2733.00,0.0041
2732.00,0.0041
2731.00,0.0041
2730.00,0.0041
2729.00,0.0041
2728.00,0.0041
2727.00,0.0041
2726.00,0.0041
2725.00,0.0041
2724.00,0.0041
2723.00,0.0041
2722.00,0.0041
2721.00,0.0041
2720.00,0.0040
2719.00,0.0040
2718.00,0.0040
2717.00,0.0040
2716.00,0.0040
2715.00,0.0040
2714.00,0.0040
2713.00,0.0040
2712.00,0.0040
2711.00,0.0040
2710.00,0.0040
2709.00,0.0040
2708.00,0.0039
2707.00,0.0039
2706.00,0.0039
2705.00,0.0039
2704.00,0.0039
2703.00,0.0039
2702.00,0.0039
2701.00,0.0039
2700.00,0.0039
2699.00,0.0039
2698.00,0.0039
2697.00,0.0039
2696.00,0.0039
2695.00,0.0039
2694.00,0.0039
2693.00,0.0039
2692.00,0.0039
2691.00,0.0039
2690.00,0.0039
2689.00,0.0039
2688.00,0.0039
2687.00,0.0039
2686.00,0.0038
2685.00,0.0038
2684.00,0.0038
2683.00,0.0038
2682.00,0.0038
2681.00,0.0038
2680.00,0.0038
2679.00,0.0038
2678.00,0.0038
2677.00,0.0038
2676.00,0.0038
2675.00,0.0038
2674.00,0.0038
2673.00,0.0038
2672.00,0.0038
2671.00,0.0038
2670.00,0.0038
2669.00,0.0038
2668.00,0.0038
2667.00,0.0037
2666.00,0.0037
2665.00,0.0037
2664.00,0.0037
2663.00,0.0037
2662.00,0.0037
2661.00,0.0037
2660.00,0.0037
2659.00,0.0036
2658.00,0.0036
2657.00,0.0036
2656.00,0.0036
2655.00,0.0036
2654.00,0.0036
2653.00,0.0036
2652.00,0.0036
2651.00,0.0036
2650.00,0.0036
2649.00,0.0036
2648.00,0.0036
2647.00,0.0036
2646.00,0.0036
2645.00,0.0036
2644.00,0.0036
2643.00,0.0036
2642.00,0.0036
2641.00,0.0036
2640.00,0.0036
2639.00,0.0036
2638.00,0.0036
2637.00,0.0036
2636.00,0.0036
2635.00,0.0036
2634.00,0.0036
2633.00,0.0036
2632.00,0.0036
2631.00,0.0036
2630.00,0.0037
2629.00,0.0037
2628.00,0.0037
2627.00,0.0037
2626.00,0.0037
2625.00,0.0037
2624.00,0.0037
2623.00,0.0037
2622.00,0.0037
2621.00,0.0037
2620.00,0.0037
2619.00,0.0037
2618.00,0.0037
2617.00,0.0037
2616.00,0.0037
2615.00,0.0037
2614.00,0.0037
2613.00,0.0037
2612.00,0.0037
2611.00,0.0037
2610.00,0.0037
2609.00,0.0036
2608.00,0.0037
2607.00,0.0037
2606.00,0.0037
2605.00,0.0037
2604.00,0.0037
2603.00,0.0036
2602.00,0.0036
2601.00,0.0036
2600.00,0.0036
2599.00,0.0036
2598.00,0.0036
2597.00,0.0036
2596.00,0.0037
2595.00,0.0037
2594.00,0.0037
2593.00,0.0037
2592.00,0.0037
2591.00,0.0037
2590.00,0.0037
2589.00,0.0037
2588.00,0.0037
2587.00,0.0036
2586.00,0.0036
2585.00,0.0036
2584.00,0.0036
2583.00,0.0036
2582.00,0.0036
2581.00,0.0036
2580.00,0.0036
2579.00,0.0036
2578.00,0.0036
2577.00,0.0036
2576.00,0.0036
2575.00,0.0036
2574.00,0.0036
2573.00,0.0037
2572.00,0.0037
2571.00,0.0037
2570.00,0.0037
2569.00,0.0036
2568.00,0.0036
2567.00,0.0036
2566.00,0.0036
2565.00,0.0036
2564.00,0.0036
2563.00,0.0036
2562.00,0.0037
2561.00,0.0036
2560.00,0.0036
2559.00,0.0036
2558.00,0.0036
2557.00,0.0036
2556.00,0.0036
2555.00,0.0036
2554.00,0.0036
2553.00,0.0036
2552.00,0.0036
2551.00,0.0036
2550.00,0.0036
2549.00,0.0036
2548.00,0.0036
2547.00,0.0036
2546.00,0.0036
2545.00,0.0036
2544.00,0.0036
2543.00,0.0036
2542.00,0.0036
2541.00,0.0036
2540.00,0.0036
2539.00,0.0036
2538.00,0.0036
2537.00,0.0036
2536.00,0.0036
2535.00,0.0036
2534.00,0.0036
2533.00,0.0036
2532.00,0.0036
2531.00,0.0036
2530.00,0.0036
2529.00,0.0036
2528.00,0.0036
2527.00,0.0036
2526.00,0.0036
2525.00,0.0036
2524.00,0.0036
2523.00,0.0036
2522.00,0.0036
2521.00,0.0036
2520.00,0.0036
2519.00,0.0036
2518.00,0.0036
2517.00,0.0036
2516.00,0.0036
2515.00,0.0036
2514.00,0.0036
2513.00,0.0036
2512.00,0.0036
2511.00,0.0036
2510.00,0.0036
2509.00,0.0036
2508.00,0.0036
2507.00,0.0036
2506.00,0.0036
2505.00,0.0036
2504.00,0.0036
2503.00,0.0036
2502.00,0.0036
2501.00,0.0036
2500.00,0.0037
2499.00,0.0037
2498.00,0.0037
2497.00,0.0037
2496.00,0.0037
2495.00,0.0037
2494.00,0.0037
2493.00,0.0037
2492.00,0.0038
2491.00,0.0038
2490.00,0.0038
2489.00,0.0038
2488.00,0.0039
2487.00,0.0039
2486.00,0.0039
2485.00,0.0040
2484.00,0.0040
2483.00,0.0040
2482.00,0.0040
2481.00,0.0040
2480.00,0.0040
2479.00,0.0040
2478.00,0.0040
2477.00,0.0040
2476.00,0.0041
2475.00,0.0041
2474.00,0.0041
2473.00,0.0041
2472.00,0.0041
2471.00,0.0041
2470.00,0.0041
2469.00,0.0041
2468.00,0.0041
2467.00,0.0041
2466.00,0.0041
2465.00,0.0041
2464.00,0.0041
2463.00,0.0041
2462.00,0.0041
2461.00,0.0041
2460.00,0.0041
2459.00,0.0041
2458.00,0.0041
2457.00,0.0041
2456.00,0.0041
2455.00,0.0041
2454.00,0.0041
2453.00,0.0041
2452.00,0.0041
2451.00,0.0041
2450.00,0.0041
2449.00,0.0041
2448.00,0.0041
2447.00,0.0041
2446.00,0.0041
2445.00,0.0042
2444.00,0.0042
2443.00,0.0042
2442.00,0.0042
2441.00,0.0042
2440.00,0.0042
2439.00,0.0042
2438.00,0.0042
2437.00,0.0042
2436.00,0.0042
2435.00,0.0043
2434.00,0.0043
2433.00,0.0043
2432.00,0.0043
2431.00,0.0043
2430.00,0.0044
2429.00,0.0044
2428.00,0.0044
2427.00,0.0044
2426.00,0.0044
2425.00,0.0044
2424.00,0.0044
2423.00,0.0045
2422.00,0.0045
2421.00,0.0045
2420.00,0.0045
2419.00,0.0045
2418.00,0.0045
2417.00,0.0045
2416.00,0.0045
2415.00,0.0045
2414.00,0.0045
2413.00,0.0045
2412.00,0.0045
2411.00,0.0044
2410.00,0.0044
2409.00,0.0044
2408.00,0.0044
2407.00,0.0044
2406.00,0.0044
2405.00,0.0044
2404.00,0.0043
2403.00,0.0043
2402.00,0.0043
2401.00,0.0043
2400.00,0.0042
2399.00,0.0042
2398.00,0.0042
2397.00,0.0041
2396.00,0.0041
2395.00,0.0041
2394.00,0.0041
2393.00,0.0040
2392.00,0.0040
2391.00,0.0040
2390.00,0.0040
2389.00,0.0040
2388.00,0.0040
2387.00,0.0040
2386.00,0.0039
2385.00,0.0039
2384.00,0.0039
2383.00,0.0039
2382.00,0.0039
2381.00,0.0038
2380.00,0.0038
2379.00,0.0038
2378.00,0.0038
2377.00,0.0038
2376.00,0.0038
2375.00,0.0038
2374.00,0.0038
2373.00,0.0037
2372.00,0.0037
2371.00,0.0037
2370.00,0.0037
2369.00,0.0037
2368.00,0.0037
2367.00,0.0037
2366.00,0.0037
2365.00,0.0036
2364.00,0.0036
2363.00,0.0036
2362.00,0.0036
2361.00,0.0035
2360.00,0.0035
2359.00,0.0036
2358.00,0.0035
2357.00,0.0035
2356.00,0.0035
2355.00,0.0035
2354.00,0.0035
2353.00,0.0035
2352.00,0.0035
2351.00,0.0035
2350.00,0.0034
2349.00,0.0034
2348.00,0.0034
2347.00,0.0034
2346.00,0.0034
2345.00,0.0034
2344.00,0.0034
2343.00,0.0034
2342.00,0.0034
2341.00,0.0033
2340.00,0.0033
2339.00,0.0033
2338.00,0.0033
2337.00,0.0033
2336.00,0.0033
2335.00,0.0033
2334.00,0.0032
2333.00,0.0032
2332.00,0.0033
2331.00,0.0033
2330.00,0.0033
2329.00,0.0032
2328.00,0.0031
2327.00,0.0030
2326.00,0.0029
2325.00,0.0029
2324.00,0.0029
2323.00,0.0030
2322.00,0.0030
2321.00,0.0031
2320.00,0.0031
2319.00,0.0032
2318.00,0.0032
2317.00,0.0032
2316.00,0.0032
2315.00,0.0032
2314.00,0.0032
2313.00,0.0033
2312.00,0.0033
2311.00,0.0033
2310.00,0.0033
2309.00,0.0033
2308.00,0.0033
2307.00,0.0032
2306.00,0.0032
2305.00,0.0032
2304.00,0.0032
2303.00,0.0032
2302.00,0.0032
2301.00,0.0032
2300.00,0.0032
2299.00,0.0032
2298.00,0.0031
2297.00,0.0031
2296.00,0.0031
2295.00,0.0030
2294.00,0.0030
2293.00,0.0030
2292.00,0.0030
2291.00,0.0030
2290.00,0.0030
2289.00,0.0030
2288.00,0.0030
2287.00,0.0030
2286.00,0.0030
2285.00,0.0030
2284.00,0.0030
2283.00,0.0030
2282.00,0.0030
2281.00,0.0030
2280.00,0.0030
2279.00,0.0030
2278.00,0.0030
2277.00,0.0031
2276.00,0.0031
2275.00,0.0030
2274.00,0.0030
2273.00,0.0030
2272.00,0.0030
2271.00,0.0030
2270.00,0.0030
2269.00,0.0031
2268.00,0.0031
2267.00,0.0031
2266.00,0.0031
2265.00,0.0031
2264.00,0.0031
2263.00,0.0030
2262.00,0.0030
2261.00,0.0030
2260.00,0.0030
2259.00,0.0031
2258.00,0.0031
2257.00,0.0031
2256.00,0.0032
2255.00,0.0031
2254.00,0.0031
2253.00,0.0031
2252.00,0.0030
2251.00,0.0030
2250.00,0.0030
2249.00,0.0030
2248.00,0.0030
2247.00,0.0030
2246.00,0.0031
2245.00,0.0031
2244.00,0.0031
2243.00,0.0031
2242.00,0.0031
2241.00,0.0030
2240.00,0.0030
2239.00,0.0031
2238.00,0.0031
2237.00,0.0031
2236.00,0.0031
2235.00,0.0031
2234.00,0.0031
2233.00,0.0031
2232.00,0.0031
2231.00,0.0031
2230.00,0.0031
2229.00,0.0030
2228.00,0.0030
2227.00,0.0030
2226.00,0.0030
2225.00,0.0030
2224.00,0.0030
2223.00,0.0030
2222.00,0.0030
2221.00,0.0030
2220.00,0.0030
2219.00,0.0031
2218.00,0.0030
2217.00,0.0030
2216.00,0.0031
2215.00,0.0031
2214.00,0.0030
2213.00,0.0030
2212.00,0.0030
2211.00,0.0030
2210.00,0.0030
2209.00,0.0030
2208.00,0.0030
2207.00,0.0030
2206.00,0.0030
2205.00,0.0030
2204.00,0.0030
2203.00,0.0030
2202.00,0.0030
2201.00,0.0030
2200.00,0.0030
2199.00,0.0030
2198.00,0.0030
2197.00,0.0030
2196.00,0.0030
2195.00,0.0030
2194.00,0.0030
2193.00,0.0030
2192.00,0.0030
2191.00,0.0029
2190.00,0.0029
2189.00,0.0029
2188.00,0.0029
2187.00,0.0029
2186.00,0.0029
2185.00,0.0029
2184.00,0.0029
2183.00,0.0030
2182.00,0.0030
2181.00,0.0029
2180.00,0.0029
2179.00,0.0029
2178.00,0.0030
2177.00,0.0030
2176.00,0.0031
2175.00,0.0031
2174.00,0.0029
2173.00,0.0028
2172.00,0.0027
2171.00,0.0027
2170.00,0.0028
2169.00,0.0028
2168.00,0.0029
2167.00,0.0029
2166.00,0.0028
2165.00,0.0027
2164.00,0.0026
2163.00,0.0027
2162.00,0.0028
2161.00,0.0031
2160.00,0.0034
2159.00,0.0036
2158.00,0.0037
2157.00,0.0037
2156.00,0.0036
2155.00,0.0035
2154.00,0.0033
2153.00,0.0032
2152.00,0.0032
2151.00,0.0032
2150.00,0.0032
2149.00,0.0032
2148.00,0.0033
2147.00,0.0033
2146.00,0.0033
2145.00,0.0033
2144.00,0.0032
2143.00,0.0032
2142.00,0.0032
2141.00,0.0032
2140.00,0.0033
2139.00,0.0033
2138.00,0.0033
2137.00,0.0033
2136.00,0.0033
2135.00,0.0034
2134.00,0.0034
2133.00,0.0034
2132.00,0.0033
2131.00,0.0033
2130.00,0.0033
2129.00,0.0033
2128.00,0.0032
2127.00,0.0032
2126.00,0.0032
2125.00,0.0031
2124.00,0.0031
2123.00,0.0031
2122.00,0.0031
2121.00,0.0032
2120.00,0.0031
2119.00,0.0031
2118.00,0.0031
2117.00,0.0031
2116.00,0.0031
2115.00,0.0031
2114.00,0.0031
2113.00,0.0031
2112.00,0.0031
2111.00,0.0031
2110.00,0.0031
2109.00,0.0031
2108.00,0.0031
2107.00,0.0030
2106.00,0.0030
2105.00,0.0030
2104.00,0.0030
2103.00,0.0030
2102.00,0.0030
2101.00,0.0030
2100.00,0.0030
2099.00,0.0030
2098.00,0.0030
2097.00,0.0031
2096.00,0.0031
2095.00,0.0031
2094.00,0.0031
2093.00,0.0030
2092.00,0.0030
2091.00,0.0029
2090.00,0.0029
2089.00,0.0029
2088.00,0.0030
2087.00,0.0030
2086.00,0.0029
2085.00,0.0029
2084.00,0.0029
2083.00,0.0029
2082.00,0.0028
2081.00,0.0028
2080.00,0.0028
2079.00,0.0028
2078.00,0.0028
2077.00,0.0029
2076.00,0.0029
2075.00,0.0029
2074.00,0.0029
2073.00,0.0029
2072.00,0.0029
2071.00,0.0029
2070.00,0.0029
2069.00,0.0028
2068.00,0.0028
2067.00,0.0028
2066.00,0.0028
2065.00,0.0028
2064.00,0.0028
2063.00,0.0028
2062.00,0.0028
2061.00,0.0027
2060.00,0.0026
2059.00,0.0026
2058.00,0.0026
2057.00,0.0026
2056.00,0.0026
2055.00,0.0026
2054.00,0.0025
2053.00,0.0024
2052.00,0.0023
2051.00,0.0023
2050.00,0.0024
2049.00,0.0025
2048.00,0.0026
2047.00,0.0027
2046.00,0.0027
2045.00,0.0027
2044.00,0.0027
2043.00,0.0027
2042.00,0.0026
2041.00,0.0025
2040.00,0.0025
2039.00,0.0025
2038.00,0.0025
2037.00,0.0026
2036.00,0.0027
2035.00,0.0027
2034.00,0.0028
2033.00,0.0027
2032.00,0.0028
2031.00,0.0028
2030.00,0.0028
2029.00,0.0027
2028.00,0.0027
2027.00,0.0027
2026.00,0.0027
2025.00,0.0027
2024.00,0.0028
2023.00,0.0029
2022.00,0.0030
2021.00,0.0030
2020.00,0.0030
2019.00,0.0029
2018.00,0.0029
2017.00,0.0029
2016.00,0.0029
2015.00,0.0029
2014.00,0.0029
2013.00,0.0027
2012.00,0.0025
2011.00,0.0024
2010.00,0.0024
2009.00,0.0025
2008.00,0.0027
2007.00,0.0029
2006.00,0.0029
2005.00,0.0028
2004.00,0.0028
2003.00,0.0027
2002.00,0.0028
2001.00,0.0028
2000.00,0.0028
1999.00,0.0027
1998.00,0.0027
1997.00,0.0027
1996.00,0.0027
1995.00,0.0027
1994.00,0.0027
1993.00,0.0026
1992.00,0.0026
1991.00,0.0027
1990.00,0.0027
1989.00,0.0027
1988.00,0.0026
1987.00,0.0026
1986.00,0.0026
1985.00,0.0025
1984.00,0.0025
1983.00,0.0024
1982.00,0.0023
1981.00,0.0023
1980.00,0.0023
1979.00,0.0024
1978.00,0.0026
1977.00,0.0027
1976.00,0.0027
1975.00,0.0028
1974.00,0.0028
1973.00,0.0028
1972.00,0.0028
1971.00,0.0028
1970.00,0.0028
1969.00,0.0028
1968.00,0.0027
1967.00,0.0027
1966.00,0.0027
1965.00,0.0028
1964.00,0.0028
1963.00,0.0028
1962.00,0.0028
1961.00,0.0028
1960.00,0.0028
1959.00,0.0028
1958.00,0.0029
1957.00,0.0029
1956.00,0.0028
1955.00,0.0028
1954.00,0.0027
1953.00,0.0027
1952.00,0.0027
1951.00,0.0027
1950.00,0.0028
1949.00,0.0028
1948.00,0.0028
1947.00,0.0027
1946.00,0.0027
1945.00,0.0027
1944.00,0.0027
1943.00,0.0027
1942.00,0.0028
1941.00,0.0028
1940.00,0.0028
1939.00,0.0028
1938.00,0.0027
1937.00,0.0027
1936.00,0.0027
1935.00,0.0027
1934.00,0.0027
1933.00,0.0027
1932.00,0.0027
1931.00,0.0027
1930.00,0.0027
1929.00,0.0027
1928.00,0.0027
1927.00,0.0027
1926.00,0.0026
1925.00,0.0026
1924.00,0.0026
1923.00,0.0026
1922.00,0.0026
1921.00,0.0026
1920.00,0.0025
1919.00,0.0025
1918.00,0.0026
1917.00,0.0027
1916.00,0.0027
1915.00,0.0026
1914.00,0.0025
1913.00,0.0025
1912.00,0.0025
1911.00,0.0025
1910.00,0.0025
1909.00,0.0025
1908.00,0.0025
1907.00,0.0026
1906.00,0.0026
1905.00,0.0026
1904.00,0.0026
1903.00,0.0026
1902.00,0.0026
1901.00,0.0025
1900.00,0.0025
1899.00,0.0025
1898.00,0.0025
1897.00,0.0025
1896.00,0.0024
1895.00,0.0024
1894.00,0.0025
1893.00,0.0025
1892.00,0.0025
1891.00,0.0025
1890.00,0.0025
1889.00,0.0025
1888.00,0.0025
1887.00,0.0025
1886.00,0.0025
1885.00,0.0024
1884.00,0.0024
1883.00,0.0025
1882.00,0.0025
1881.00,0.0024
1880.00,0.0024
1879.00,0.0024
1878.00,0.0024
1877.00,0.0024
1876.00,0.0024
1875.00,0.0024
1874.00,0.0024
1873.00,0.0023
1872.00,0.0022
1871.00,0.0022
1870.00,0.0022
1869.00,0.0022
1868.00,0.0023
1867.00,0.0023
1866.00,0.0024
1865.00,0.0023
1864.00,0.0023
1863.00,0.0023
1862.00,0.0023
1861.00,0.0023
1860.00,0.0023
1859.00,0.0023
1858.00,0.0023
1857.00,0.0023
1856.00,0.0023
1855.00,0.0023
1854.00,0.0023
1853.00,0.0022
1852.00,0.0022
1851.00,0.0022
1850.00,0.0022
1849.00,0.0021
1848.00,0.0021
1847.00,0.0020
1846.00,0.0020
1845.00,0.0021
1844.00,0.0023
1843.00,0.0024
1842.00,0.0024
1841.00,0.0023
1840.00,0.0022
1839.00,0.0021
1838.00,0.0021
1837.00,0.0021
1836.00,0.0021
1835.00,0.0021
1834.00,0.0021
1833.00,0.0020
1832.00,0.0019
1831.00,0.0019
1830.00,0.0020
1829.00,0.0020
1828.00,0.0021
1827.00,0.0020
1826.00,0.0020
1825.00,0.0020
1824.00,0.0021
1823.00,0.0021
1822.00,0.0021
1821.00,0.0021
1820.00,0.0021
1819.00,0.0021
1818.00,0.0021
1817.00,0.0021
1816.00,0.0020
1815.00,0.0020
1814.00,0.0019
1813.00,0.0018
1812.00,0.0018
1811.00,0.0018
1810.00,0.0019
1809.00,0.0019
1808.00,0.0019
1807.00,0.0019
1806.00,0.0019
1805.00,0.0018
1804.00,0.0018
1803.00,0.0018
1802.00,0.0017
1801.00,0.0017
1800.00,0.0017
1799.00,0.0018
1798.00,0.0018
1797.00,0.0017
1796.00,0.0016
1795.00,0.0015
1794.00,0.0015
1793.00,0.0016
1792.00,0.0018
1791.00,0.0019
1790.00,0.0020
1789.00,0.0019
1788.00,0.0018
1787.00,0.0017
1786.00,0.0017
1785.00,0.0017
1784.00,0.0017
1783.00,0.0017
1782.00,0.0016
1781.00,0.0016
1780.00,0.0016
1779.00,0.0017
1778.00,0.0016
1777.00,0.0016
1776.00,0.0015
1775.00,0.0014
1774.00,0.0014
1773.00,0.0015
1772.00,0.0017
1771.00,0.0018
1770.00,0.0018
1769.00,0.0018
1768.00,0.0018
1767.00,0.0018
1766.00,0.0018
1765.00,0.0017
1764.00,0.0016
1763.00,0.0016
1762.00,0.0017
1761.00,0.0018
1760.00,0.0018
1759.00,0.0017
1758.00,0.0017
1757.00,0.0018
1756.00,0.0019
1755.00,0.0019
1754.00,0.0018
1753.00,0.0017
1752.00,0.0017
1751.00,0.0018
1750.00,0.0019
1749.00,0.0019
1748.00,0.0019
1747.00,0.0020
1746.00,0.0020
1745.00,0.0020
1744.00,0.0020
1743.00,0.0021
1742.00,0.0021
1741.00,0.0022
1740.00,0.0023
1739.00,0.0024
1738.00,0.0023
1737.00,0.0021
1736.00,0.0021
1735.00,0.0022
1734.00,0.0024
1733.00,0.0026
1732.00,0.0025
1731.00,0.0023
1730.00,0.0022
1729.00,0.0022
1728.00,0.0022
1727.00,0.0022
1726.00,0.0022
1725.00,0.0021
1724.00,0.0021
1723.00,0.0021
1722.00,0.0021
1721.00,0.0020
1720.00,0.0020
1719.00,0.0020
1718.00,0.0020
1717.00,0.0022
1716.00,0.0024
1715.00,0.0025
1714.00,0.0026
1713.00,0.0026
1712.00,0.0026
1711.00,0.0026
1710.00,0.0026
1709.00,0.0026
1708.00,0.0027
1707.00,0.0028
1706.00,0.0030
1705.00,0.0033
1704.00,0.0036
1703.00,0.0038
1702.00,0.0042
1701.00,0.0049
1700.00,0.0057
1699.00,0.0062
1698.00,0.0063
1697.00,0.0065
1696.00,0.0071
1695.00,0.0078
1694.00,0.0082
1693.00,0.0083
1692.00,0.0083
1691.00,0.0084
1690.00,0.0085
1689.00,0.0086
1688.00,0.0087
1687.00,0.0089
1686.00,0.0091
1685.00,0.0094
1684.00,0.0098
1683.00,0.0101
1682.00,0.0103
1681.00,0.0104
1680.00,0.0105
1679.00,0.0108
1678.00,0.0111
1677.00,0.0115
1676.00,0.0119
1675.00,0.0122
1674.00,0.0125
1673.00,0.0126
1672.00,0.0127
1671.00,0.0130
1670.00,0.0132
1669.00,0.0136
1668.00,0.0139
1667.00,0.0142
1666.00,0.0144
1665.00,0.0147
1664.00,0.0151
1663.00,0.0153
1662.00,0.0156
1661.00,0.0158
1660.00,0.0160
1659.00,0.0163
1658.00,0.0166
1657.00,0.0170
1656.00,0.0174
1655.00,0.0180
1654.00,0.0183
1653.00,0.0183
1652.00,0.0183
1651.00,0.0183
1650.00,0.0184
1649.00,0.0185
1648.00,0.0187
1647.00,0.0187
1646.00,0.0188
1645.00,0.0190
1644.00,0.0191
1643.00,0.0193
1642.00,0.0194
1641.00,0.0196
1640.00,0.0198
1639.00,0.0200
1638.00,0.0202
1637.00,0.0204
1636.00,0.0204
1635.00,0.0203
1634.00,0.0204
1633.00,0.0206
1632.00,0.0208
1631.00,0.0211
1630.00,0.0213
1629.00,0.0215
1628.00,0.0216
1627.00,0.0217
1626.00,0.0219
1625.00,0.0222
1624.00,0.0223
1623.00,0.0223
1622.00,0.0224
1621.00,0.0225
1620.00,0.0228
1619.00,0.0232
1618.00,0.0233
1617.00,0.0231
1616.00,0.0228
1615.00,0.0225
1614.00,0.0223
1613.00,0.0222
1612.00,0.0221
1611.00,0.0218
1610.00,0.0214
1609.00,0.0209
1608.00,0.0204
1607.00,0.0200
1606.00,0.0195
1605.00,0.0191
1604.00,0.0186
1603.00,0.0181
1602.00,0.0176
1601.00,0.0172
1600.00,0.0168
1599.00,0.0163
1598.00,0.0159
1597.00,0.0155
1596.00,0.0151
1595.00,0.0147
1594.00,0.0143
1593.00,0.0140
1592.00,0.0137
1591.00,0.0134
1590.00,0.0131
1589.00,0.0129
1588.00,0.0127
1587.00,0.0125
1586.00,0.0123
1585.00,0.0122
1584.00,0.0121
1583.00,0.0119
1582.00,0.0119
1581.00,0.0118
1580.00,0.0117
1579.00,0.0117
1578.00,0.0117
1577.00,0.0117
1576.00,0.0117
1575.00,0.0117
1574.00,0.0116
1573.00,0.0116
1572.00,0.0116
1571.00,0.0116
1570.00,0.0116
1569.00,0.0116
1568.00,0.0117
1567.00,0.0117
1566.00,0.0118
1565.00,0.0119
1564.00,0.0120
1563.00,0.0122
1562.00,0.0125
1561.00,0.0130
1560.00,0.0133
1559.00,0.0132
1558.00,0.0135
1557.00,0.0138
1556.00,0.0139
1555.00,0.0141
1554.00,0.0143
1553.00,0.0146
1552.00,0.0148
1551.00,0.0150
1550.00,0.0152
1549.00,0.0155
1548.00,0.0158
1547.00,0.0161
1546.00,0.0165
1545.00,0.0167
1544.00,0.0169
1543.00,0.0172
1542.00,0.0175
1541.00,0.0177
1540.00,0.0178
1539.00,0.0179
1538.00,0.0180
1537.00,0.0181
1536.00,0.0183
1535.00,0.0185
1534.00,0.0185
1533.00,0.0184
1532.00,0.0184
1531.00,0.0184
1530.00,0.0186
1529.00,0.0187
1528.00,0.0187
1527.00,0.0187
1526.00,0.0187
1525.00,0.0187
1524.00,0.0188
1523.00,0.0188
1522.00,0.0188
1521.00,0.0187
1520.00,0.0186
1519.00,0.0186
1518.00,0.0186
1517.00,0.0184
1516.00,0.0183
1515.00,0.0183
1514.00,0.0183
1513.00,0.0182
1512.00,0.0181
1511.00,0.0179
1510.00,0.0177
1509.00,0.0175
1508.00,0.0171
1507.00,0.0166
1506.00,0.0163
1505.00,0.0161
1504.00,0.0159
1503.00,0.0156
1502.00,0.0154
1501.00,0.0152
1500.00,0.0150
1499.00,0.0148
1498.00,0.0145
1497.00,0.0142
1496.00,0.0138
1495.00,0.0135
1494.00,0.0132
1493.00,0.0129
1492.00,0.0126
1491.00,0.0123
1490.00,0.0119
1489.00,0.0116
1488.00,0.0114
1487.00,0.0114
1486.00,0.0113
1485.00,0.0113
1484.00,0.0113
1483.00,0.0112
1482.00,0.0112
1481.00,0.0112
1480.00,0.0113
1479.00,0.0114
1478.00,0.0116
1477.00,0.0117
1476.00,0.0119
1475.00,0.0120
1474.00,0.0123
1473.00,0.0125
1472.00,0.0128
1471.00,0.0131
1470.00,0.0133
1469.00,0.0134
1468.00,0.0136
1467.00,0.0138
1466.00,0.0139
1465.00,0.0140
1464.00,0.0141
1463.00,0.0141
1462.00,0.0142
1461.00,0.0143
1460.00,0.0144
1459.00,0.0145
1458.00,0.0146
1457.00,0.0147
1456.00,0.0148
1455.00,0.0148
1454.00,0.0148
1453.00,0.0149
1452.00,0.0149
1451.00,0.0150
1450.00,0.0150
1449.00,0.0150
1448.00,0.0149
1447.00,0.0149
1446.00,0.0149
1445.00,0.0148
1444.00,0.0148
1443.00,0.0148
1442.00,0.0147
1441.00,0.0147
1440.00,0.0147
1439.00,0.0147
1438.00,0.0147
1437.00,0.0146
1436.00,0.0143
1435.00,0.0140
1434.00,0.0138
1433.00,0.0136
1432.00,0.0135
1431.00,0.0133
1430.00,0.0131
1429.00,0.0129
1428.00,0.0128
1427.00,0.0127
1426.00,0.0126
1425.00,0.0124
1424.00,0.0123
1423.00,0.0122
1422.00,0.0123
1421.00,0.0124
1420.00,0.0124
1419.00,0.0123
1418.00,0.0122
1417.00,0.0121
1416.00,0.0121
1415.00,0.0121
1414.00,0.0122
1413.00,0.0122
1412.00,0.0122
1411.00,0.0121
1410.00,0.0122
1409.00,0.0122
1408.00,0.0121
1407.00,0.0121
1406.00,0.0120
1405.00,0.0120
1404.00,0.0119
1403.00,0.0119
1402.00,0.0119
1401.00,0.0119
1400.00,0.0118
1399.00,0.0117
1398.00,0.0117
1397.00,0.0116
1396.00,0.0116
1395.00,0.0116
1394.00,0.0116
1393.00,0.0116
1392.00,0.0116
1391.00,0.0116
1390.00,0.0116
1389.00,0.0116
1388.00,0.0116
1387.00,0.0115
1386.00,0.0115
1385.00,0.0114
1384.00,0.0114
1383.00,0.0113
1382.00,0.0113
1381.00,0.0112
1380.00,0.0112
1379.00,0.0111
1378.00,0.0111
1377.00,0.0110
1376.00,0.0109
1375.00,0.0109
1374.00,0.0108
1373.00,0.0109
1372.00,0.0109
1371.00,0.0109
1370.00,0.0109
1369.00,0.0109
1368.00,0.0108
1367.00,0.0107
1366.00,0.0107
1365.00,0.0106
1364.00,0.0104
1363.00,0.0103
1362.00,0.0102
1361.00,0.0102
1360.00,0.0101
1359.00,0.0101
1358.00,0.0101
1357.00,0.0100
1356.00,0.0099
1355.00,0.0099
1354.00,0.0099
1353.00,0.0099
1352.00,0.0099
1351.00,0.0098
1350.00,0.0098
1349.00,0.0098
1348.00,0.0098
1347.00,0.0098
1346.00,0.0098
1345.00,0.0099
1344.00,0.0098
1343.00,0.0098
1342.00,0.0098
1341.00,0.0097
1340.00,0.0096
1339.00,0.0096
1338.00,0.0096
1337.00,0.0097
1336.00,0.0097
1335.00,0.0097
1334.00,0.0097
1333.00,0.0097
1332.00,0.0097
1331.00,0.0096
1330.00,0.0096
1329.00,0.0096
1328.00,0.0096
1327.00,0.0096
1326.00,0.0096
1325.00,0.0095
1324.00,0.0095
1323.00,0.0095
1322.00,0.0095
1321.00,0.0095
1320.00,0.0095
1319.00,0.0094
1318.00,0.0095
1317.00,0.0095
1316.00,0.0095
1315.00,0.0095
1314.00,0.0095
1313.00,0.0095
1312.00,0.0095
1311.00,0.0095
1310.00,0.0095
1309.00,0.0095
1308.00,0.0095
1307.00,0.0095
1306.00,0.0095
1305.00,0.0095
1304.00,0.0095
1303.00,0.0095
1302.00,0.0095
1301.00,0.0095
1300.00,0.0094
1299.00,0.0094
1298.00,0.0094
1297.00,0.0094
1296.00,0.0094
1295.00,0.0094
1294.00,0.0094
1293.00,0.0094
1292.00,0.0094
1291.00,0.0094
1290.00,0.0094
1289.00,0.0094
1288.00,0.0094
1287.00,0.0094
1286.00,0.0094
1285.00,0.0095
1284.00,0.0094
1283.00,0.0095
1282.00,0.0095
1281.00,0.0095
1280.00,0.0095
1279.00,0.0094
1278.00,0.0095
1277.00,0.0095
1276.00,0.0094
1275.00,0.0094
1274.00,0.0094
1273.00,0.0094
1272.00,0.0094
1271.00,0.0094
1270.00,0.0094
1269.00,0.0094
1268.00,0.0095
1267.00,0.0095
1266.00,0.0096
1265.00,0.0096
1264.00,0.0097
1263.00,0.0097
1262.00,0.0098
1261.00,0.0098
1260.00,0.0098
1259.00,0.0099
1258.00,0.0099
1257.00,0.0100
1256.00,0.0100
1255.00,0.0101
1254.00,0.0102
1253.00,0.0102
1252.00,0.0103
1251.00,0.0103
1250.00,0.0104
1249.00,0.0105
1248.00,0.0105
1247.00,0.0106
1246.00,0.0107
1245.00,0.0108
1244.00,0.0108
1243.00,0.0109
1242.00,0.0110
1241.00,0.0111
1240.00,0.0112
1239.00,0.0112
1238.00,0.0113
1237.00,0.0113
1236.00,0.0114
1235.00,0.0113
1234.00,0.0113
1233.00,0.0113
1232.00,0.0112
1231.00,0.0112
1230.00,0.0112
1229.00,0.0111
1228.00,0.0111
1227.00,0.0110
1226.00,0.0110
1225.00,0.0110
1224.00,0.0109
1223.00,0.0108
1222.00,0.0108
1221.00,0.0107
1220.00,0.0106
1219.00,0.0105
1218.00,0.0105
1217.00,0.0104
1216.00,0.0103
1215.00,0.0102
1214.00,0.0101
1213.00,0.0100
1212.00,0.0099
1211.00,0.0099
1210.00,0.0098
1209.00,0.0097
1208.00,0.0096
1207.00,0.0095
1206.00,0.0094
1205.00,0.0093
1204.00,0.0092
1203.00,0.0091
1202.00,0.0091
1201.00,0.0090
1200.00,0.0089
1199.00,0.0088
1198.00,0.0088
1197.00,0.0087
1196.00,0.0087
1195.00,0.0086
1194.00,0.0086
1193.00,0.0085
1192.00,0.0084
1191.00,0.0084
1190.00,0.0084
1189.00,0.0083
1188.00,0.0083
1187.00,0.0082
1186.00,0.0082
1185.00,0.0082
1184.00,0.0082
1183.00,0.0081
1182.00,0.0082
1181.00,0.0082
1180.00,0.0081
1179.00,0.0082
1178.00,0.0082
1177.00,0.0082
1176.00,0.0083
1175.00,0.0083
1174.00,0.0084
1173.00,0.0085
1172.00,0.0085
1171.00,0.0086
1170.00,0.0087
1169.00,0.0087
1168.00,0.0088
1167.00,0.0088
1166.00,0.0089
1165.00,0.0089
1164.00,0.0090
1163.00,0.0090
1162.00,0.0090
1161.00,0.0091
1160.00,0.0090
1159.00,0.0090
1158.00,0.0090
1157.00,0.0090
1156.00,0.0090
1155.00,0.0089
1154.00,0.0089
1153.00,0.0088
1152.00,0.0088
1151.00,0.0087
1150.00,0.0087
1149.00,0.0086
1148.00,0.0085
1147.00,0.0084
1146.00,0.0084
1145.00,0.0083
1144.00,0.0083
1143.00,0.0082
1142.00,0.0082
1141.00,0.0082
1140.00,0.0081
1139.00,0.0081
1138.00,0.0081
1137.00,0.0081
1136.00,0.0081
1135.00,0.0081
1134.00,0.0081
1133.00,0.0082
1132.00,0.0082
1131.00,0.0082
1130.00,0.0082
1129.00,0.0083
1128.00,0.0083
1127.00,0.0084
1126.00,0.0084
1125.00,0.0085
1124.00,0.0085
1123.00,0.0085
1122.00,0.0086
1121.00,0.0087
1120.00,0.0087
1119.00,0.0087
1118.00,0.0088
1117.00,0.0089
1116.00,0.0089
1115.00,0.0090
1114.00,0.0091
1113.00,0.0091
1112.00,0.0091
1111.00,0.0092
1110.00,0.0092
1109.00,0.0093
1108.00,0.0093
1107.00,0.0094
1106.00,0.0095
1105.00,0.0096
1104.00,0.0096
1103.00,0.0097
1102.00,0.0098
1101.00,0.0099
1100.00,0.0099
1099.00,0.0100
1098.00,0.0100
1097.00,0.0101
1096.00,0.0101
1095.00,0.0101
1094.00,0.0101
1093.00,0.0102
1092.00,0.0102
1091.00,0.0102
1090.00,0.0103
1089.00,0.0103
1088.00,0.0104
1087.00,0.0104
1086.00,0.0105
1085.00,0.0106
1084.00,0.0106
1083.00,0.0107
1082.00,0.0109
1081.00,0.0110
1080.00,0.0111
1079.00,0.0112
1078.00,0.0113
1077.00,0.0115
1076.00,0.0116
1075.00,0.0117
1074.00,0.0118
1073.00,0.0120
1072.00,0.0120
1071.00,0.0121
1070.00,0.0122
1069.00,0.0123
1068.00,0.0123
1067.00,0.0124
1066.00,0.0124
1065.00,0.0125
1064.00,0.0125
1063.00,0.0125
1062.00,0.0126
1061.00,0.0126
1060.00,0.0125
1059.00,0.0125
1058.00,0.0125
1057.00,0.0125
1056.00,0.0125
1055.00,0.0124
1054.00,0.0124
1053.00,0.0124
1052.00,0.0124
1051.00,0.0123
1050.00,0.0123
1049.00,0.0123
1048.00,0.0122
1047.00,0.0121
1046.00,0.0121
1045.00,0.0120
1044.00,0.0119
1043.00,0.0118
1042.00,0.0117
1041.00,0.0117
1040.00,0.0116
1039.00,0.0115
1038.00,0.0114
1037.00,0.0114
1036.00,0.0113
1035.00,0.0113
1034.00,0.0113
1033.00,0.0113
1032.00,0.0112
1031.00,0.0112
1030.00,0.0112
1029.00,0.0112
1028.00,0.0111
1027.00,0.0110
1026.00,0.0110
1025.00,0.0110
1024.00,0.0110
1023.00,0.0110
1022.00,0.0110
1021.00,0.0111
1020.00,0.0111
1019.00,0.0110
1018.00,0.0110
1017.00,0.0110
1016.00,0.0109
1015.00,0.0107
1014.00,0.0106
1013.00,0.0104
1012.00,0.0101
1011.00,0.0099
1010.00,0.0097
1009.00,0.0096
1008.00,0.0094
1007.00,0.0092
1006.00,0.0090
1005.00,0.0089
1004.00,0.0087
1003.00,0.0086
1002.00,0.0086
1001.00,0.0085
1000.00,0.0084
999.00,0.0083
998.00,0.0082
997.00,0.0082
996.00,0.0081
995.00,0.0080
994.00,0.0080
993.00,0.0079
992.00,0.0078
991.00,0.0077
990.00,0.0077
989.00,0.0076
988.00,0.0075
987.00,0.0075
986.00,0.0075
985.00,0.0075
984.00,0.0074
983.00,0.0074
982.00,0.0073
981.00,0.0073
980.00,0.0073
979.00,0.0072
978.00,0.0072
977.00,0.0072
976.00,0.0072
975.00,0.0071
974.00,0.0071
973.00,0.0071
972.00,0.0071
971.00,0.0070
970.00,0.0071
969.00,0.0070
968.00,0.0070
967.00,0.0070
966.00,0.0070
965.00,0.0070
964.00,0.0070
963.00,0.0070
962.00,0.0070
961.00,0.0070
960.00,0.0070
959.00,0.0070
958.00,0.0071
957.00,0.0071
956.00,0.0070
955.00,0.0070
954.00,0.0070
953.00,0.0070
952.00,0.0070
951.00,0.0070
950.00,0.0070
949.00,0.0070
948.00,0.0069
947.00,0.0069
946.00,0.0070
945.00,0.0070
944.00,0.0070
943.00,0.0070
942.00,0.0070
941.00,0.0071
940.00,0.0071
939.00,0.0071
938.00,0.0072
937.00,0.0073
936.00,0.0073
935.00,0.0073
934.00,0.0073
933.00,0.0073
932.00,0.0073
931.00,0.0072
930.00,0.0072
929.00,0.0072
928.00,0.0072
927.00,0.0072
926.00,0.0072
925.00,0.0072
924.00,0.0071
923.00,0.0071
922.00,0.0071
921.00,0.0071
920.00,0.0070
919.00,0.0070
918.00,0.0070
917.00,0.0070
916.00,0.0070
915.00,0.0070
914.00,0.0070
913.00,0.0070
912.00,0.0070
911.00,0.0070
910.00,0.0071
909.00,0.0071
908.00,0.0071
907.00,0.0071
906.00,0.0072
905.00,0.0073
904.00,0.0073
903.00,0.0073
902.00,0.0074
901.00,0.0074
900.00,0.0074
899.00,0.0073
898.00,0.0073
897.00,0.0072
896.00,0.0071
895.00,0.0070
894.00,0.0069
893.00,0.0069
892.00,0.0068
891.00,0.0067
890.00,0.0066
889.00,0.0066
888.00,0.0065
887.00,0.0064
886.00,0.0063
885.00,0.0063
884.00,0.0062
883.00,0.0061
882.00,0.0061
881.00,0.0061
880.00,0.0060
879.00,0.0060
878.00,0.0060
877.00,0.0060
876.00,0.0059
875.00,0.0058
874.00,0.0058
873.00,0.0058
872.00,0.0058
871.00,0.0057
870.00,0.0058
869.00,0.0057
868.00,0.0057
867.00,0.0056
866.00,0.0056
865.00,0.0056
864.00,0.0055
863.00,0.0054
862.00,0.0054
861.00,0.0054
860.00,0.0053
859.00,0.0053
858.00,0.0053
857.00,0.0053
856.00,0.0053
855.00,0.0053
854.00,0.0053
853.00,0.0053
852.00,0.0053
851.00,0.0052
850.00,0.0053
849.00,0.0053
848.00,0.0052
847.00,0.0052
846.00,0.0052
845.00,0.0052
844.00,0.0052
843.00,0.0051
842.00,0.0052
841.00,0.0052
840.00,0.0051
839.00,0.0051
838.00,0.0052
837.00,0.0052
836.00,0.0052
835.00,0.0052
834.00,0.0053
833.00,0.0053
832.00,0.0053
831.00,0.0053
830.00,0.0054
829.00,0.0054
828.00,0.0054
827.00,0.0054
826.00,0.0055
825.00,0.0055
824.00,0.0055
823.00,0.0055
822.00,0.0056
821.00,0.0057
820.00,0.0057
819.00,0.0057
818.00,0.0058
817.00,0.0058
816.00,0.0058
815.00,0.0058
814.00,0.0059
813.00,0.0059
812.00,0.0059
811.00,0.0060
810.00,0.0061
809.00,0.0062
808.00,0.0062
807.00,0.0062
806.00,0.0062
805.00,0.0063
804.00,0.0063
803.00,0.0063
802.00,0.0063
801.00,0.0063
800.00,0.0063
799.00,0.0063
798.00,0.0064
797.00,0.0065
796.00,0.0065
795.00,0.0065
794.00,0.0065
793.00,0.0066
792.00,0.0065
791.00,0.0065
790.00,0.0066
789.00,0.0066
788.00,0.0066
787.00,0.0066
786.00,0.0067
785.00,0.0068
784.00,0.0068
783.00,0.0068
782.00,0.0069
781.00,0.0070
780.00,0.0070
779.00,0.0070
778.00,0.0071
777.00,0.0071
776.00,0.0071
775.00,0.0071
774.00,0.0072
773.00,0.0073
772.00,0.0073
771.00,0.0073
770.00,0.0074
769.00,0.0075
768.00,0.0075
767.00,0.0075
766.00,0.0076
765.00,0.0077
764.00,0.0077
763.00,0.0077
762.00,0.0078
761.00,0.0078
760.00,0.0078
759.00,0.0079
758.00,0.0079
757.00,0.0080
756.00,0.0080
755.00,0.0080
754.00,0.0081
753.00,0.0081
752.00,0.0081
751.00,0.0081
750.00,0.0082
749.00,0.0083
748.00,0.0084
747.00,0.0084
746.00,0.0085
745.00,0.0085
744.00,0.0085
743.00,0.0085
742.00,0.0086
741.00,0.0087
740.00,0.0086
739.00,0.0086
738.00,0.0087
737.00,0.0088
736.00,0.0088
735.00,0.0088
734.00,0.0089
733.00,0.0089
732.00,0.0090
731.00,0.0091
730.00,0.0092
729.00,0.0093
728.00,0.0094
727.00,0.0094
726.00,0.0096
725.00,0.0097
724.00,0.0098
723.00,0.0099
722.00,0.0101
721.00,0.0103
720.00,0.0104
719.00,0.0104
718.00,0.0106
717.00,0.0106
716.00,0.0107
715.00,0.0107
714.00,0.0108
713.00,0.0109
712.00,0.0110
711.00,0.0111
710.00,0.0113
709.00,0.0115
708.00,0.0116
707.00,0.0118
706.00,0.0120
705.00,0.0122
704.00,0.0123
703.00,0.0124
702.00,0.0126
701.00,0.0128
700.00,0.0128
699.00,0.0129
698.00,0.0130
697.00,0.0131
696.00,0.0130
695.00,0.0130
694.00,0.0130
693.00,0.0131
692.00,0.0130
691.00,0.0130
690.00,0.0131
689.00,0.0131
688.00,0.0130
687.00,0.0130
686.00,0.0131
685.00,0.0132
684.00,0.0132
683.00,0.0133
682.00,0.0134
681.00,0.0134
680.00,0.0134
679.00,0.0134
678.00,0.0135
677.00,0.0136
676.00,0.0136
675.00,0.0137
674.00,0.0138
673.00,0.0139
672.00,0.0139
671.00,0.0140
670.00,0.0141
669.00,0.0141
668.00,0.0139
667.00,0.0137
666.00,0.0138
665.00,0.0139
664.00,0.0139
663.00,0.0139
662.00,0.0140
661.00,0.0140
660.00,0.0140
659.00,0.0140
658.00,0.0142
657.00,0.0142
656.00,0.0142
655.00,0.0142
654.00,0.0142
653.00,0.0142
652.00,0.0142
651.00,0.0143
650.00,0.0144
649.00,0.0145
648.00,0.0145
647.00,0.0144
646.00,0.0145
645.00,0.0146
644.00,0.0147
643.00,0.0147
642.00,0.0149
641.00,0.0150
640.00,0.0150
639.00,0.0149
638.00,0.0150
637.00,0.0151
636.00,0.0152
635.00,0.0152
634.00,0.0154
633.00,0.0155
632.00,0.0155
631.00,0.0155
630.00,0.0156
629.00,0.0157
628.00,0.0156
627.00,0.0156
626.00,0.0157
625.00,0.0157
624.00,0.0157
623.00,0.0156
622.00,0.0157
621.00,0.0157
620.00,0.0156
619.00,0.0155
618.00,0.0156
617.00,0.0156
616.00,0.0155
615.00,0.0155
614.00,0.0155
613.00,0.0155
612.00,0.0154
611.00,0.0154
610.00,0.0154
609.00,0.0155
608.00,0.0153
607.00,0.0152
606.00,0.0153
605.00,0.0154
604.00,0.0153
603.00,0.0152
602.00,0.0153
601.00,0.0153
600.00,0.0152
599.00,0.0152
598.00,0.0153
597.00,0.0154
596.00,0.0153
595.00,0.0153
594.00,0.0153
593.00,0.0153
592.00,0.0151
591.00,0.0150
590.00,0.0152
589.00,0.0153
588.00,0.0153
587.00,0.0153
586.00,0.0155
585.00,0.0156
584.00,0.0155
583.00,0.0154
582.00,0.0155
581.00,0.0155
580.00,0.0154
579.00,0.0155
578.00,0.0156
577.00,0.0158
576.00,0.0157
575.00,0.0156
574.00,0.0158
573.00,0.0158
572.00,0.0157
571.00,0.0156
570.00,0.0157
569.00,0.0158
568.00,0.0157
567.00,0.0156
566.00,0.0158
565.00,0.0159
564.00,0.0158
563.00,0.0158
562.00,0.0160
561.00,0.0161
560.00,0.0161
559.00,0.0160
558.00,0.0161
557.00,0.0162
556.00,0.0161
555.00,0.0161
554.00,0.0163
553.00,0.0164
552.00,0.0164
551.00,0.0164
550.00,0.0165
549.00,0.0166
548.00,0.0165
547.00,0.0165
546.00,0.0167
545.00,0.0169
544.00,0.0168
543.00,0.0168
542.00,0.0170
541.00,0.0171
540.00,0.0171
539.00,0.0171
538.00,0.0173
537.00,0.0174
536.00,0.0173
535.00,0.0172
534.00,0.0173
533.00,0.0174
532.00,0.0173
531.00,0.0173
530.00,0.0175
529.00,0.0176
528.00,0.0175
527.00,0.0175
526.00,0.0177
525.00,0.0179
524.00,0.0179
523.00,0.0178
522.00,0.0180
521.00,0.0180
520.00,0.0178
519.00,0.0176
518.00,0.0177
517.00,0.0177
516.00,0.0176
515.00,0.0176
514.00,0.0178
513.00,0.0178
512.00,0.0177
511.00,0.0176
510.00,0.0177
509.00,0.0179
508.00,0.0177
507.00,0.0175
506.00,0.0176
505.00,0.0177
504.00,0.0175
503.00,0.0173
502.00,0.0174
501.00,0.0174
500.00,0.0171
499.00,0.0171
498.00,0.0173
497.00,0.0175
496.00,0.0173
495.00,0.0171
494.00,0.0172
493.00,0.0173
492.00,0.0171
491.00,0.0170
490.00,0.0172
489.00,0.0173
488.00,0.0172
487.00,0.0170
486.00,0.0171
485.00,0.0172
484.00,0.0170
483.00,0.0169
482.00,0.0171
481.00,0.0171
480.00,0.0168
479.00,0.0166
478.00,0.0169
477.00,0.0171
476.00,0.0170
475.00,0.0168
474.00,0.0170
473.00,0.0170
472.00,0.0168
471.00,0.0167
470.00,0.0171
469.00,0.0175
468.00,0.0173
467.00,0.0171
466.00,0.0174
465.00,0.0176
464.00,0.0173
463.00,0.0170
462.00,0.0172
461.00,0.0174
460.00,0.0171
459.00,0.0169
458.00,0.0172
457.00,0.0174
456.00,0.0171
455.00,0.0169
454.00,0.0173
453.00,0.0177
452.00,0.0174
451.00,0.0172
450.00,0.0173
449.00,0.0173
448.00,0.0166
447.00,0.0159
446.00,0.0159
445.00,0.0161
444.00,0.0160
443.00,0.0160
442.00,0.0164
441.00,0.0167
440.00,0.0164
439.00,0.0160
438.00,0.0162
437.00,0.0162
436.00,0.0158
435.00,0.0155
434.00,0.0159
433.00,0.0160
432.00,0.0153
431.00,0.0148
430.00,0.0151
429.00,0.0154
428.00,0.0151
427.00,0.0149
426.00,0.0154
425.00,0.0157
424.00,0.0151
423.00,0.0144
422.00,0.0146
421.00,0.0148
420.00,0.0140
419.00,0.0133
418.00,0.0141
417.00,0.0146
416.00,0.0140
415.00,0.0135
414.00,0.0140
413.00,0.0143
412.00,0.0136
411.00,0.0132
410.00,0.0139
409.00,0.0145
408.00,0.0137
407.00,0.0128
406.00,0.0131
405.00,0.0135
404.00,0.0127
403.00,0.0121
402.00,0.0130
401.00,0.0139
400.00,0.0131
