Created as New Dataset,Sample 534 By YargerLab Date Wednesday, June 04 2025
cm-1,A
4000.00,-0.0235
3999.00,-0.0235
3998.00,-0.0235
3997.00,-0.0235
3996.00,-0.0236
3995.00,-0.0236
3994.00,-0.0236
3993.00,-0.0236
3992.00,-0.0236
3991.00,-0.0235
3990.00,-0.0235
3989.00,-0.0235
3988.00,-0.0235
3987.00,-0.0235
3986.00,-0.0235
3985.00,-0.0235
3984.00,-0.0235
3983.00,-0.0235
3982.00,-0.0235
3981.00,-0.0236
3980.00,-0.0236
3979.00,-0.0236
3978.00,-0.0236
3977.00,-0.0236
3976.00,-0.0236
3975.00,-0.0236
3974.00,-0.0235
3973.00,-0.0235
3972.00,-0.0236
3971.00,-0.0236
3970.00,-0.0236
3969.00,-0.0236
3968.00,-0.0237
3967.00,-0.0237
3966.00,-0.0237
3965.00,-0.0237
3964.00,-0.0237
3963.00,-0.0237
3962.00,-0.0237
3961.00,-0.0237
3960.00,-0.0237
3959.00,-0.0237
3958.00,-0.0237
3957.00,-0.0237
3956.00,-0.0237
3955.00,-0.0237
3954.00,-0.0237
3953.00,-0.0237
3952.00,-0.0237
3951.00,-0.0237
3950.00,-0.0237
3949.00,-0.0237
3948.00,-0.0237
3947.00,-0.0237
3946.00,-0.0237
3945.00,-0.0237
3944.00,-0.0237
3943.00,-0.0237
3942.00,-0.0237
3941.00,-0.0238
3940.00,-0.0238
3939.00,-0.0238
3938.00,-0.0238
3937.00,-0.0238
3936.00,-0.0238
3935.00,-0.0238
3934.00,-0.0238
3933.00,-0.0238
3932.00,-0.0238
3931.00,-0.0239
3930.00,-0.0239
3929.00,-0.0239
3928.00,-0.0238
3927.00,-0.0238
3926.00,-0.0238
3925.00,-0.0238
3924.00,-0.0238
3923.00,-0.0238
3922.00,-0.0238
3921.00,-0.0238
3920.00,-0.0238
3919.00,-0.0238
3918.00,-0.0239
3917.00,-0.0239
3916.00,-0.0239
3915.00,-0.0239
3914.00,-0.0240
3913.00,-0.0240
3912.00,-0.0240
3911.00,-0.0240
3910.00,-0.0240
3909.00,-0.0240
3908.00,-0.0240
3907.00,-0.0239
3906.00,-0.0239
3905.00,-0.0238
3904.00,-0.0238
3903.00,-0.0238
3902.00,-0.0238
3901.00,-0.0238
3900.00,-0.0239
3899.00,-0.0239
3898.00,-0.0240
3897.00,-0.0240
3896.00,-0.0240
3895.00,-0.0240
3894.00,-0.0240
3893.00,-0.0240
3892.00,-0.0240
3891.00,-0.0240
3890.00,-0.0241
3889.00,-0.0240
3888.00,-0.0240
3887.00,-0.0240
3886.00,-0.0240
3885.00,-0.0240
3884.00,-0.0241
3883.00,-0.0240
3882.00,-0.0240
3881.00,-0.0240
3880.00,-0.0240
3879.00,-0.0241
3878.00,-0.0241
3877.00,-0.0241
3876.00,-0.0241
3875.00,-0.0241
3874.00,-0.0241
3873.00,-0.0241
3872.00,-0.0240
3871.00,-0.0240
3870.00,-0.0240
3869.00,-0.0240
3868.00,-0.0241
3867.00,-0.0240
3866.00,-0.0240
3865.00,-0.0241
3864.00,-0.0241
3863.00,-0.0242
3862.00,-0.0242
3861.00,-0.0242
3860.00,-0.0242
3859.00,-0.0242
3858.00,-0.0241
3857.00,-0.0241
3856.00,-0.0239
3855.00,-0.0238
3854.00,-0.0237
3853.00,-0.0238
3852.00,-0.0238
3851.00,-0.0239
3850.00,-0.0239
3849.00,-0.0241
3848.00,-0.0242
3847.00,-0.0243
3846.00,-0.0244
3845.00,-0.0244
3844.00,-0.0244
3843.00,-0.0243
3842.00,-0.0243
3841.00,-0.0242
3840.00,-0.0241
3839.00,-0.0241
3838.00,-0.0241
3837.00,-0.0242
3836.00,-0.0242
3835.00,-0.0242
3834.00,-0.0242
3833.00,-0.0243
3832.00,-0.0243
3831.00,-0.0243
3830.00,-0.0244
3829.00,-0.0244
3828.00,-0.0244
3827.00,-0.0244
3826.00,-0.0244
3825.00,-0.0244
3824.00,-0.0244
3823.00,-0.0243
3822.00,-0.0243
3821.00,-0.0243
3820.00,-0.0243
3819.00,-0.0243
3818.00,-0.0243
3817.00,-0.0243
3816.00,-0.0243
3815.00,-0.0244
3814.00,-0.0244
3813.00,-0.0244
3812.00,-0.0243
3811.00,-0.0244
3810.00,-0.0244
3809.00,-0.0244
3808.00,-0.0244
3807.00,-0.0244
3806.00,-0.0244
3805.00,-0.0243
3804.00,-0.0243
3803.00,-0.0242
3802.00,-0.0242
3801.00,-0.0243
3800.00,-0.0243
3799.00,-0.0244
3798.00,-0.0243
3797.00,-0.0244
3796.00,-0.0245
3795.00,-0.0245
3794.00,-0.0246
3793.00,-0.0246
3792.00,-0.0246
3791.00,-0.0246
3790.00,-0.0247
3789.00,-0.0247
3788.00,-0.0247
3787.00,-0.0247
3786.00,-0.0247
3785.00,-0.0247
3784.00,-0.0246
3783.00,-0.0246
3782.00,-0.0246
3781.00,-0.0246
3780.00,-0.0246
3779.00,-0.0246
3778.00,-0.0247
3777.00,-0.0247
3776.00,-0.0247
3775.00,-0.0246
3774.00,-0.0246
3773.00,-0.0246
3772.00,-0.0246
3771.00,-0.0245
3770.00,-0.0245
3769.00,-0.0245
3768.00,-0.0245
3767.00,-0.0245
3766.00,-0.0245
3765.00,-0.0246
3764.00,-0.0246
3763.00,-0.0246
3762.00,-0.0246
3761.00,-0.0246
3760.00,-0.0246
3759.00,-0.0246
3758.00,-0.0246
3757.00,-0.0246
3756.00,-0.0245
3755.00,-0.0245
3754.00,-0.0244
3753.00,-0.0244
3752.00,-0.0243
3751.00,-0.0243
3750.00,-0.0243
3749.00,-0.0243
3748.00,-0.0243
3747.00,-0.0242
3746.00,-0.0242
3745.00,-0.0243
3744.00,-0.0244
3743.00,-0.0245
3742.00,-0.0245
3741.00,-0.0244
3740.00,-0.0245
3739.00,-0.0245
3738.00,-0.0245
3737.00,-0.0245
3736.00,-0.0245
3735.00,-0.0245
3734.00,-0.0245
3733.00,-0.0245
3732.00,-0.0245
3731.00,-0.0245
3730.00,-0.0245
3729.00,-0.0245
3728.00,-0.0245
3727.00,-0.0245
3726.00,-0.0246
3725.00,-0.0246
3724.00,-0.0246
3723.00,-0.0246
3722.00,-0.0246
3721.00,-0.0246
3720.00,-0.0246
3719.00,-0.0246
3718.00,-0.0246
3717.00,-0.0246
3716.00,-0.0246
3715.00,-0.0246
3714.00,-0.0245
3713.00,-0.0245
3712.00,-0.0244
3711.00,-0.0245
3710.00,-0.0245
3709.00,-0.0245
3708.00,-0.0245
3707.00,-0.0246
3706.00,-0.0246
3705.00,-0.0247
3704.00,-0.0247
3703.00,-0.0247
3702.00,-0.0247
3701.00,-0.0247
3700.00,-0.0246
3699.00,-0.0246
3698.00,-0.0246
3697.00,-0.0246
3696.00,-0.0246
3695.00,-0.0246
3694.00,-0.0246
3693.00,-0.0246
3692.00,-0.0245
3691.00,-0.0245
3690.00,-0.0245
3689.00,-0.0245
3688.00,-0.0245
3687.00,-0.0245
3686.00,-0.0244
3685.00,-0.0245
3684.00,-0.0245
3683.00,-0.0246
3682.00,-0.0246
3681.00,-0.0247
3680.00,-0.0246
3679.00,-0.0246
3678.00,-0.0245
3677.00,-0.0244
3676.00,-0.0244
3675.00,-0.0244
3674.00,-0.0244
3673.00,-0.0243
3672.00,-0.0243
3671.00,-0.0243
3670.00,-0.0243
3669.00,-0.0244
3668.00,-0.0244
3667.00,-0.0244
3666.00,-0.0244
3665.00,-0.0245
3664.00,-0.0246
3663.00,-0.0246
3662.00,-0.0246
3661.00,-0.0245
3660.00,-0.0245
3659.00,-0.0244
3658.00,-0.0243
3657.00,-0.0242
3656.00,-0.0241
3655.00,-0.0240
3654.00,-0.0239
3653.00,-0.0238
3652.00,-0.0237
3651.00,-0.0236
3650.00,-0.0234
3649.00,-0.0232
3648.00,-0.0230
3647.00,-0.0229
3646.00,-0.0228
3645.00,-0.0228
3644.00,-0.0229
3643.00,-0.0229
3642.00,-0.0228
3641.00,-0.0227
3640.00,-0.0227
3639.00,-0.0226
3638.00,-0.0225
3637.00,-0.0224
3636.00,-0.0223
3635.00,-0.0221
3634.00,-0.0220
3633.00,-0.0218
3632.00,-0.0217
3631.00,-0.0215
3630.00,-0.0213
3629.00,-0.0210
3628.00,-0.0207
3627.00,-0.0206
3626.00,-0.0205
3625.00,-0.0206
3624.00,-0.0207
3623.00,-0.0207
3622.00,-0.0207
3621.00,-0.0206
3620.00,-0.0204
3619.00,-0.0201
3618.00,-0.0199
3617.00,-0.0198
3616.00,-0.0197
3615.00,-0.0196
3614.00,-0.0196
3613.00,-0.0195
3612.00,-0.0194
3611.00,-0.0193
3610.00,-0.0192
3609.00,-0.0190
3608.00,-0.0188
3607.00,-0.0187
3606.00,-0.0187
3605.00,-0.0186
3604.00,-0.0187
3603.00,-0.0186
3602.00,-0.0186
3601.00,-0.0184
3600.00,-0.0183
3599.00,-0.0182
3598.00,-0.0180
3597.00,-0.0179
3596.00,-0.0178
3595.00,-0.0177
3594.00,-0.0176
3593.00,-0.0175
3592.00,-0.0175
3591.00,-0.0175
3590.00,-0.0174
3589.00,-0.0172
3588.00,-0.0169
3587.00,-0.0166
3586.00,-0.0165
3585.00,-0.0164
3584.00,-0.0163
3583.00,-0.0164
3582.00,-0.0163
3581.00,-0.0163
3580.00,-0.0162
3579.00,-0.0161
3578.00,-0.0160
3577.00,-0.0159
3576.00,-0.0157
3575.00,-0.0156
3574.00,-0.0155
3573.00,-0.0154
3572.00,-0.0154
3571.00,-0.0154
3570.00,-0.0154
3569.00,-0.0152
3568.00,-0.0149
3567.00,-0.0145
3566.00,-0.0142
3565.00,-0.0140
3564.00,-0.0140
3563.00,-0.0140
3562.00,-0.0139
3561.00,-0.0139
3560.00,-0.0139
3559.00,-0.0138
3558.00,-0.0137
3557.00,-0.0137
3556.00,-0.0136
3555.00,-0.0135
3554.00,-0.0134
3553.00,-0.0132
3552.00,-0.0130
3551.00,-0.0129
3550.00,-0.0128
3549.00,-0.0128
3548.00,-0.0127
3547.00,-0.0125
3546.00,-0.0122
3545.00,-0.0120
3544.00,-0.0118
3543.00,-0.0117
3542.00,-0.0116
3541.00,-0.0116
3540.00,-0.0116
3539.00,-0.0115
3538.00,-0.0114
3537.00,-0.0113
3536.00,-0.0112
3535.00,-0.0111
3534.00,-0.0110
3533.00,-0.0110
3532.00,-0.0109
3531.00,-0.0108
3530.00,-0.0107
3529.00,-0.0105
3528.00,-0.0104
3527.00,-0.0102
3526.00,-0.0101
3525.00,-0.0099
3524.00,-0.0098
3523.00,-0.0096
3522.00,-0.0095
3521.00,-0.0094
3520.00,-0.0094
3519.00,-0.0093
3518.00,-0.0092
3517.00,-0.0091
3516.00,-0.0090
3515.00,-0.0089
3514.00,-0.0088
3513.00,-0.0087
3512.00,-0.0086
3511.00,-0.0085
3510.00,-0.0083
3509.00,-0.0081
3508.00,-0.0080
3507.00,-0.0079
3506.00,-0.0078
3505.00,-0.0078
3504.00,-0.0076
3503.00,-0.0074
3502.00,-0.0072
3501.00,-0.0071
3500.00,-0.0070
3499.00,-0.0070
3498.00,-0.0069
3497.00,-0.0068
3496.00,-0.0067
3495.00,-0.0066
3494.00,-0.0065
3493.00,-0.0064
3492.00,-0.0063
3491.00,-0.0062
3490.00,-0.0061
3489.00,-0.0059
3488.00,-0.0058
3487.00,-0.0057
3486.00,-0.0056
3485.00,-0.0055
3484.00,-0.0054
3483.00,-0.0053
3482.00,-0.0051
3481.00,-0.0049
3480.00,-0.0047
3479.00,-0.0046
3478.00,-0.0046
3477.00,-0.0045
3476.00,-0.0044
3475.00,-0.0043
3474.00,-0.0042
3473.00,-0.0040
3472.00,-0.0039
3471.00,-0.0038
3470.00,-0.0037
3469.00,-0.0036
3468.00,-0.0035
3467.00,-0.0034
3466.00,-0.0033
3465.00,-0.0032
3464.00,-0.0030
3463.00,-0.0029
3462.00,-0.0028
3461.00,-0.0027
3460.00,-0.0026
3459.00,-0.0025
3458.00,-0.0024
3457.00,-0.0023
3456.00,-0.0022
3455.00,-0.0021
3454.00,-0.0020
3453.00,-0.0019
3452.00,-0.0018
3451.00,-0.0017
3450.00,-0.0016
3449.00,-0.0015
3448.00,-0.0013
3447.00,-0.0010
3446.00,-0.0008
3445.00,-0.0007
3444.00,-0.0006
3443.00,-0.0005
3442.00,-0.0004
3441.00,-0.0002
3440.00,-0.0000
3439.00,0.0001
3438.00,0.0002
3437.00,0.0004
3436.00,0.0005
3435.00,0.0006
3434.00,0.0008
3433.00,0.0009
3432.00,0.0011
3431.00,0.0012
3430.00,0.0013
3429.00,0.0015
3428.00,0.0016
3427.00,0.0017
3426.00,0.0018
3425.00,0.0019
3424.00,0.0020
3423.00,0.0022
3422.00,0.0024
3421.00,0.0026
3420.00,0.0028
3419.00,0.0029
3418.00,0.0031
3417.00,0.0032
3416.00,0.0033
3415.00,0.0034
3414.00,0.0035
3413.00,0.0037
3412.00,0.0038
3411.00,0.0039
3410.00,0.0041
3409.00,0.0042
3408.00,0.0044
3407.00,0.0045
3406.00,0.0047
3405.00,0.0048
3404.00,0.0049
3403.00,0.0050
3402.00,0.0052
3401.00,0.0053
3400.00,0.0054
3399.00,0.0055
3398.00,0.0057
3397.00,0.0058
3396.00,0.0058
3395.00,0.0059
3394.00,0.0061
3393.00,0.0062
3392.00,0.0064
3391.00,0.0066
3390.00,0.0067
3389.00,0.0069
3388.00,0.0070
3387.00,0.0071
3386.00,0.0072
3385.00,0.0074
3384.00,0.0076
3383.00,0.0078
3382.00,0.0079
3381.00,0.0081
3380.00,0.0082
3379.00,0.0083
3378.00,0.0084
3377.00,0.0086
3376.00,0.0087
3375.00,0.0089
3374.00,0.0090
3373.00,0.0092
3372.00,0.0093
3371.00,0.0094
3370.00,0.0095
3369.00,0.0097
3368.00,0.0099
3367.00,0.0101
3366.00,0.0104
3365.00,0.0106
3364.00,0.0108
3363.00,0.0109
3362.00,0.0111
3361.00,0.0113
3360.00,0.0115
3359.00,0.0118
3358.00,0.0120
3357.00,0.0122
3356.00,0.0124
3355.00,0.0126
3354.00,0.0128
3353.00,0.0130
3352.00,0.0131
3351.00,0.0134
3350.00,0.0136
3349.00,0.0138
3348.00,0.0141
3347.00,0.0143
3346.00,0.0145
3345.00,0.0147
3344.00,0.0149
3343.00,0.0151
3342.00,0.0153
3341.00,0.0155
3340.00,0.0158
3339.00,0.0160
3338.00,0.0163
3337.00,0.0166
3336.00,0.0169
3335.00,0.0173
3334.00,0.0175
3333.00,0.0178
3332.00,0.0180
3331.00,0.0182
3330.00,0.0185
3329.00,0.0187
3328.00,0.0189
3327.00,0.0192
3326.00,0.0194
3325.00,0.0198
3324.00,0.0201
3323.00,0.0205
3322.00,0.0208
3321.00,0.0211
3320.00,0.0214
3319.00,0.0217
3318.00,0.0219
3317.00,0.0222
3316.00,0.0225
3315.00,0.0227
3314.00,0.0230
3313.00,0.0233
3312.00,0.0236
3311.00,0.0238
3310.00,0.0240
3309.00,0.0242
3308.00,0.0245
3307.00,0.0248
3306.00,0.0251
3305.00,0.0254
3304.00,0.0259
3303.00,0.0263
3302.00,0.0267
3301.00,0.0270
3300.00,0.0272
3299.00,0.0274
3298.00,0.0276
3297.00,0.0278
3296.00,0.0280
3295.00,0.0282
3294.00,0.0285
3293.00,0.0288
3292.00,0.0291
3291.00,0.0294
3290.00,0.0297
3289.00,0.0300
3288.00,0.0302
3287.00,0.0304
3286.00,0.0305
3285.00,0.0306
3284.00,0.0308
3283.00,0.0308
3282.00,0.0309
3281.00,0.0309
3280.00,0.0309
3279.00,0.0309
3278.00,0.0308
3277.00,0.0307
3276.00,0.0307
3275.00,0.0306
3274.00,0.0304
3273.00,0.0303
3272.00,0.0301
3271.00,0.0300
3270.00,0.0299
3269.00,0.0299
3268.00,0.0298
3267.00,0.0296
3266.00,0.0294
3265.00,0.0292
3264.00,0.0289
3263.00,0.0286
3262.00,0.0283
3261.00,0.0280
3260.00,0.0277
3259.00,0.0274
3258.00,0.0270
3257.00,0.0266
3256.00,0.0263
3255.00,0.0261
3254.00,0.0258
3253.00,0.0256
3252.00,0.0253
3251.00,0.0250
3250.00,0.0246
3249.00,0.0241
3248.00,0.0238
3247.00,0.0234
3246.00,0.0232
3245.00,0.0231
3244.00,0.0230
3243.00,0.0228
3242.00,0.0226
3241.00,0.0223
3240.00,0.0220
3239.00,0.0217
3238.00,0.0214
3237.00,0.0211
3236.00,0.0208
3235.00,0.0204
3234.00,0.0201
3233.00,0.0200
3232.00,0.0199
3231.00,0.0198
3230.00,0.0197
3229.00,0.0196
3228.00,0.0194
3227.00,0.0192
3226.00,0.0190
3225.00,0.0188
3224.00,0.0186
3223.00,0.0184
3222.00,0.0182
3221.00,0.0180
3220.00,0.0178
3219.00,0.0177
3218.00,0.0175
3217.00,0.0173
3216.00,0.0171
3215.00,0.0170
3214.00,0.0168
3213.00,0.0166
3212.00,0.0165
3211.00,0.0163
3210.00,0.0162
3209.00,0.0160
3208.00,0.0158
3207.00,0.0157
3206.00,0.0155
3205.00,0.0153
3204.00,0.0151
3203.00,0.0149
3202.00,0.0147
3201.00,0.0145
3200.00,0.0144
3199.00,0.0142
3198.00,0.0141
3197.00,0.0140
3196.00,0.0138
3195.00,0.0136
3194.00,0.0134
3193.00,0.0132
3192.00,0.0130
3191.00,0.0128
3190.00,0.0126
3189.00,0.0124
3188.00,0.0122
3187.00,0.0120
3186.00,0.0118
3185.00,0.0116
3184.00,0.0114
3183.00,0.0112
3182.00,0.0110
3181.00,0.0108
3180.00,0.0106
3179.00,0.0104
3178.00,0.0102
3177.00,0.0101
3176.00,0.0099
3175.00,0.0097
3174.00,0.0094
3173.00,0.0092
3172.00,0.0090
3171.00,0.0088
3170.00,0.0086
3169.00,0.0084
3168.00,0.0083
3167.00,0.0081
3166.00,0.0079
3165.00,0.0078
3164.00,0.0076
3163.00,0.0074
3162.00,0.0072
3161.00,0.0070
3160.00,0.0068
3159.00,0.0066
3158.00,0.0064
3157.00,0.0062
3156.00,0.0060
3155.00,0.0057
3154.00,0.0055
3153.00,0.0054
3152.00,0.0052
3151.00,0.0051
3150.00,0.0050
3149.00,0.0049
3148.00,0.0048
3147.00,0.0046
3146.00,0.0045
3145.00,0.0043
3144.00,0.0042
3143.00,0.0040
3142.00,0.0038
3141.00,0.0036
3140.00,0.0035
3139.00,0.0034
3138.00,0.0033
3137.00,0.0032
3136.00,0.0031
3135.00,0.0031
3134.00,0.0030
3133.00,0.0028
3132.00,0.0027
3131.00,0.0026
3130.00,0.0025
3129.00,0.0024
3128.00,0.0023
3127.00,0.0023
3126.00,0.0022
3125.00,0.0020
3124.00,0.0019
3123.00,0.0018
3122.00,0.0016
3121.00,0.0015
3120.00,0.0014
3119.00,0.0013
3118.00,0.0013
3117.00,0.0013
3116.00,0.0013
3115.00,0.0014
3114.00,0.0015
3113.00,0.0015
3112.00,0.0014
3111.00,0.0014
3110.00,0.0013
3109.00,0.0013
3108.00,0.0014
3107.00,0.0014
3106.00,0.0015
3105.00,0.0015
3104.00,0.0015
3103.00,0.0015
3102.00,0.0015
3101.00,0.0015
3100.00,0.0015
3099.00,0.0016
3098.00,0.0017
3097.00,0.0018
3096.00,0.0018
3095.00,0.0019
3094.00,0.0018
3093.00,0.0018
3092.00,0.0017
3091.00,0.0017
3090.00,0.0017
3089.00,0.0018
3088.00,0.0018
3087.00,0.0018
3086.00,0.0018
3085.00,0.0017
3084.00,0.0017
3083.00,0.0017
3082.00,0.0017
3081.00,0.0017
3080.00,0.0017
3079.00,0.0018
3078.00,0.0019
3077.00,0.0020
3076.00,0.0021
3075.00,0.0021
3074.00,0.0022
3073.00,0.0022
3072.00,0.0021
3071.00,0.0020
3070.00,0.0019
3069.00,0.0017
3068.00,0.0016
3067.00,0.0016
3066.00,0.0016
3065.00,0.0016
3064.00,0.0017
3063.00,0.0017
3062.00,0.0016
3061.00,0.0015
3060.00,0.0013
3059.00,0.0011
3058.00,0.0009
3057.00,0.0008
3056.00,0.0006
3055.00,0.0005
3054.00,0.0003
3053.00,0.0001
3052.00,-0.0001
3051.00,-0.0002
3050.00,-0.0003
3049.00,-0.0005
3048.00,-0.0006
3047.00,-0.0008
3046.00,-0.0010
3045.00,-0.0013
3044.00,-0.0015
3043.00,-0.0016
3042.00,-0.0017
3041.00,-0.0018
3040.00,-0.0019
3039.00,-0.0019
3038.00,-0.0021
3037.00,-0.0023
3036.00,-0.0025
3035.00,-0.0027
3034.00,-0.0028
3033.00,-0.0029
3032.00,-0.0030
3031.00,-0.0030
3030.00,-0.0031
3029.00,-0.0032
3028.00,-0.0034
3027.00,-0.0036
3026.00,-0.0038
3025.00,-0.0039
3024.00,-0.0041
3023.00,-0.0043
3022.00,-0.0045
3021.00,-0.0047
3020.00,-0.0050
3019.00,-0.0052
3018.00,-0.0055
3017.00,-0.0057
3016.00,-0.0060
3015.00,-0.0062
3014.00,-0.0065
3013.00,-0.0067
3012.00,-0.0069
3011.00,-0.0071
3010.00,-0.0072
3009.00,-0.0075
3008.00,-0.0077
3007.00,-0.0081
3006.00,-0.0084
3005.00,-0.0088
3004.00,-0.0091
3003.00,-0.0095
3002.00,-0.0098
3001.00,-0.0101
3000.00,-0.0105
2999.00,-0.0107
2998.00,-0.0109
2997.00,-0.0111
2996.00,-0.0111
2995.00,-0.0112
2994.00,-0.0113
2993.00,-0.0113
2992.00,-0.0112
2991.00,-0.0111
2990.00,-0.0110
2989.00,-0.0109
2988.00,-0.0108
2987.00,-0.0108
2986.00,-0.0110
2985.00,-0.0114
2984.00,-0.0120
2983.00,-0.0126
2982.00,-0.0129
2981.00,-0.0127
2980.00,-0.0120
2979.00,-0.0111
2978.00,-0.0101
2977.00,-0.0092
2976.00,-0.0084
2975.00,-0.0077
2974.00,-0.0072
2973.00,-0.0068
2972.00,-0.0064
2971.00,-0.0058
2970.00,-0.0050
2969.00,-0.0042
2968.00,-0.0034
2967.00,-0.0027
2966.00,-0.0021
2965.00,-0.0015
2964.00,-0.0011
2963.00,-0.0007
2962.00,-0.0003
2961.00,-0.0000
2960.00,0.0002
2959.00,0.0003
2958.00,0.0004
2957.00,0.0003
2956.00,0.0002
2955.00,0.0001
2954.00,-0.0001
2953.00,-0.0002
2952.00,-0.0003
2951.00,-0.0003
2950.00,-0.0003
2949.00,-0.0003
2948.00,-0.0002
2947.00,-0.0001
2946.00,0.0002
2945.00,0.0006
2944.00,0.0010
2943.00,0.0015
2942.00,0.0020
2941.00,0.0025
2940.00,0.0030
2939.00,0.0035
2938.00,0.0040
2937.00,0.0045
2936.00,0.0049
2935.00,0.0053
2934.00,0.0057
2933.00,0.0060
2932.00,0.0063
2931.00,0.0066
2930.00,0.0069
2929.00,0.0072
2928.00,0.0075
2927.00,0.0077
2926.00,0.0078
2925.00,0.0079
2924.00,0.0079
2923.00,0.0078
2922.00,0.0076
2921.00,0.0073
2920.00,0.0069
2919.00,0.0064
2918.00,0.0059
2917.00,0.0052
2916.00,0.0044
2915.00,0.0035
2914.00,0.0026
2913.00,0.0018
2912.00,0.0010
2911.00,0.0003
2910.00,-0.0004
2909.00,-0.0009
2908.00,-0.0015
2907.00,-0.0020
2906.00,-0.0025
2905.00,-0.0029
2904.00,-0.0033
2903.00,-0.0036
2902.00,-0.0040
2901.00,-0.0043
2900.00,-0.0046
2899.00,-0.0049
2898.00,-0.0052
2897.00,-0.0055
2896.00,-0.0058
2895.00,-0.0061
2894.00,-0.0064
2893.00,-0.0067
2892.00,-0.0069
2891.00,-0.0072
2890.00,-0.0074
2889.00,-0.0075
2888.00,-0.0076
2887.00,-0.0076
2886.00,-0.0076
2885.00,-0.0076
2884.00,-0.0075
2883.00,-0.0074
2882.00,-0.0071
2881.00,-0.0068
2880.00,-0.0065
2879.00,-0.0063
2878.00,-0.0060
2877.00,-0.0058
2876.00,-0.0057
2875.00,-0.0056
2874.00,-0.0056
2873.00,-0.0057
2872.00,-0.0057
2871.00,-0.0059
2870.00,-0.0061
2869.00,-0.0063
2868.00,-0.0065
2867.00,-0.0067
2866.00,-0.0068
2865.00,-0.0069
2864.00,-0.0069
2863.00,-0.0069
2862.00,-0.0068
2861.00,-0.0067
2860.00,-0.0066
2859.00,-0.0064
2858.00,-0.0062
2857.00,-0.0060
2856.00,-0.0058
2855.00,-0.0057
2854.00,-0.0055
2853.00,-0.0055
2852.00,-0.0056
2851.00,-0.0059
2850.00,-0.0063
2849.00,-0.0069
2848.00,-0.0076
2847.00,-0.0084
2846.00,-0.0091
2845.00,-0.0098
2844.00,-0.0104
2843.00,-0.0109
2842.00,-0.0114
2841.00,-0.0119
2840.00,-0.0122
2839.00,-0.0125
2838.00,-0.0128
2837.00,-0.0130
2836.00,-0.0132
2835.00,-0.0134
2834.00,-0.0135
2833.00,-0.0137
2832.00,-0.0138
2831.00,-0.0139
2830.00,-0.0140
2829.00,-0.0142
2828.00,-0.0143
2827.00,-0.0144
2826.00,-0.0145
2825.00,-0.0146
2824.00,-0.0147
2823.00,-0.0148
2822.00,-0.0149
2821.00,-0.0149
2820.00,-0.0150
2819.00,-0.0151
2818.00,-0.0152
2817.00,-0.0153
2816.00,-0.0153
2815.00,-0.0154
2814.00,-0.0155
2813.00,-0.0156
2812.00,-0.0157
2811.00,-0.0158
2810.00,-0.0159
2809.00,-0.0159
2808.00,-0.0160
2807.00,-0.0161
2806.00,-0.0161
2805.00,-0.0162
2804.00,-0.0163
2803.00,-0.0163
2802.00,-0.0164
2801.00,-0.0165
2800.00,-0.0166
2799.00,-0.0167
2798.00,-0.0167
2797.00,-0.0168
2796.00,-0.0168
2795.00,-0.0169
2794.00,-0.0169
2793.00,-0.0170
2792.00,-0.0171
2791.00,-0.0172
2790.00,-0.0173
2789.00,-0.0174
2788.00,-0.0175
2787.00,-0.0175
2786.00,-0.0175
2785.00,-0.0176
2784.00,-0.0176
2783.00,-0.0177
2782.00,-0.0177
2781.00,-0.0178
2780.00,-0.0179
2779.00,-0.0179
2778.00,-0.0180
2777.00,-0.0181
2776.00,-0.0182
2775.00,-0.0182
2774.00,-0.0183
2773.00,-0.0183
2772.00,-0.0184
2771.00,-0.0184
2770.00,-0.0185
2769.00,-0.0186
2768.00,-0.0187
2767.00,-0.0187
2766.00,-0.0188
2765.00,-0.0189
2764.00,-0.0189
2763.00,-0.0189
2762.00,-0.0190
2761.00,-0.0191
2760.00,-0.0191
2759.00,-0.0192
2758.00,-0.0192
2757.00,-0.0193
2756.00,-0.0193
2755.00,-0.0194
2754.00,-0.0195
2753.00,-0.0195
2752.00,-0.0196
2751.00,-0.0197
2750.00,-0.0198
2749.00,-0.0198
2748.00,-0.0199
2747.00,-0.0199
2746.00,-0.0200
2745.00,-0.0200
2744.00,-0.0200
2743.00,-0.0201
2742.00,-0.0202
2741.00,-0.0203
2740.00,-0.0203
2739.00,-0.0204
2738.00,-0.0205
2737.00,-0.0205
2736.00,-0.0206
2735.00,-0.0206
2734.00,-0.0207
2733.00,-0.0207
2732.00,-0.0208
2731.00,-0.0208
2730.00,-0.0209
2729.00,-0.0210
2728.00,-0.0210
2727.00,-0.0211
2726.00,-0.0212
2725.00,-0.0212
2724.00,-0.0213
2723.00,-0.0213
2722.00,-0.0214
2721.00,-0.0215
2720.00,-0.0215
2719.00,-0.0216
2718.00,-0.0216
2717.00,-0.0217
2716.00,-0.0217
2715.00,-0.0218
2714.00,-0.0219
2713.00,-0.0219
2712.00,-0.0220
2711.00,-0.0221
2710.00,-0.0221
2709.00,-0.0221
2708.00,-0.0222
2707.00,-0.0222
2706.00,-0.0223
2705.00,-0.0223
2704.00,-0.0223
2703.00,-0.0223
2702.00,-0.0224
2701.00,-0.0224
2700.00,-0.0225
2699.00,-0.0225
2698.00,-0.0226
2697.00,-0.0226
2696.00,-0.0226
2695.00,-0.0227
2694.00,-0.0227
2693.00,-0.0228
2692.00,-0.0228
2691.00,-0.0228
2690.00,-0.0229
2689.00,-0.0229
2688.00,-0.0230
2687.00,-0.0230
2686.00,-0.0230
2685.00,-0.0230
2684.00,-0.0231
2683.00,-0.0231
2682.00,-0.0232
2681.00,-0.0232
2680.00,-0.0233
2679.00,-0.0233
2678.00,-0.0233
2677.00,-0.0234
2676.00,-0.0234
2675.00,-0.0234
2674.00,-0.0235
2673.00,-0.0235
2672.00,-0.0236
2671.00,-0.0236
2670.00,-0.0237
2669.00,-0.0237
2668.00,-0.0238
2667.00,-0.0238
2666.00,-0.0238
2665.00,-0.0239
2664.00,-0.0239
2663.00,-0.0239
2662.00,-0.0239
2661.00,-0.0239
2660.00,-0.0240
2659.00,-0.0240
2658.00,-0.0240
2657.00,-0.0241
2656.00,-0.0241
2655.00,-0.0242
2654.00,-0.0242
2653.00,-0.0242
2652.00,-0.0243
2651.00,-0.0243
2650.00,-0.0243
2649.00,-0.0243
2648.00,-0.0243
2647.00,-0.0244
2646.00,-0.0244
2645.00,-0.0244
2644.00,-0.0244
2643.00,-0.0245
2642.00,-0.0245
2641.00,-0.0246
2640.00,-0.0246
2639.00,-0.0246
2638.00,-0.0246
2637.00,-0.0247
2636.00,-0.0247
2635.00,-0.0247
2634.00,-0.0247
2633.00,-0.0247
2632.00,-0.0248
2631.00,-0.0248
2630.00,-0.0248
2629.00,-0.0248
2628.00,-0.0248
2627.00,-0.0248
2626.00,-0.0248
2625.00,-0.0249
2624.00,-0.0249
2623.00,-0.0249
2622.00,-0.0249
2621.00,-0.0250
2620.00,-0.0250
2619.00,-0.0251
2618.00,-0.0251
2617.00,-0.0251
2616.00,-0.0251
2615.00,-0.0251
2614.00,-0.0251
2613.00,-0.0252
2612.00,-0.0252
2611.00,-0.0252
2610.00,-0.0253
2609.00,-0.0253
2608.00,-0.0254
2607.00,-0.0254
2606.00,-0.0254
2605.00,-0.0255
2604.00,-0.0255
2603.00,-0.0255
2602.00,-0.0256
2601.00,-0.0256
2600.00,-0.0256
2599.00,-0.0256
2598.00,-0.0256
2597.00,-0.0256
2596.00,-0.0257
2595.00,-0.0257
2594.00,-0.0258
2593.00,-0.0258
2592.00,-0.0258
2591.00,-0.0258
2590.00,-0.0259
2589.00,-0.0259
2588.00,-0.0260
2587.00,-0.0260
2586.00,-0.0260
2585.00,-0.0260
2584.00,-0.0260
2583.00,-0.0261
2582.00,-0.0261
2581.00,-0.0261
2580.00,-0.0261
2579.00,-0.0262
2578.00,-0.0263
2577.00,-0.0263
2576.00,-0.0264
2575.00,-0.0264
2574.00,-0.0264
2573.00,-0.0263
2572.00,-0.0264
2571.00,-0.0264
2570.00,-0.0265
2569.00,-0.0266
2568.00,-0.0266
2567.00,-0.0266
2566.00,-0.0266
2565.00,-0.0265
2564.00,-0.0265
2563.00,-0.0265
2562.00,-0.0266
2561.00,-0.0266
2560.00,-0.0267
2559.00,-0.0267
2558.00,-0.0268
2557.00,-0.0268
2556.00,-0.0269
2555.00,-0.0269
2554.00,-0.0269
2553.00,-0.0269
2552.00,-0.0269
2551.00,-0.0269
2550.00,-0.0270
2549.00,-0.0270
2548.00,-0.0271
2547.00,-0.0271
2546.00,-0.0271
2545.00,-0.0271
2544.00,-0.0271
2543.00,-0.0271
2542.00,-0.0272
2541.00,-0.0273
2540.00,-0.0273
2539.00,-0.0274
2538.00,-0.0274
2537.00,-0.0274
2536.00,-0.0274
2535.00,-0.0275
2534.00,-0.0275
2533.00,-0.0274
2532.00,-0.0274
2531.00,-0.0275
2530.00,-0.0275
2529.00,-0.0276
2528.00,-0.0276
2527.00,-0.0276
2526.00,-0.0277
2525.00,-0.0277
2524.00,-0.0277
2523.00,-0.0277
2522.00,-0.0277
2521.00,-0.0277
2520.00,-0.0278
2519.00,-0.0278
2518.00,-0.0278
2517.00,-0.0278
2516.00,-0.0279
2515.00,-0.0279
2514.00,-0.0280
2513.00,-0.0281
2512.00,-0.0281
2511.00,-0.0281
2510.00,-0.0280
2509.00,-0.0280
2508.00,-0.0280
2507.00,-0.0281
2506.00,-0.0281
2505.00,-0.0282
2504.00,-0.0282
2503.00,-0.0282
2502.00,-0.0283
2501.00,-0.0283
2500.00,-0.0283
2499.00,-0.0284
2498.00,-0.0284
2497.00,-0.0284
2496.00,-0.0284
2495.00,-0.0284
2494.00,-0.0284
2493.00,-0.0285
2492.00,-0.0285
2491.00,-0.0286
2490.00,-0.0286
2489.00,-0.0286
2488.00,-0.0287
2487.00,-0.0287
2486.00,-0.0287
2485.00,-0.0288
2484.00,-0.0288
2483.00,-0.0289
2482.00,-0.0289
2481.00,-0.0289
2480.00,-0.0289
2479.00,-0.0289
2478.00,-0.0289
2477.00,-0.0290
2476.00,-0.0290
2475.00,-0.0290
2474.00,-0.0290
2473.00,-0.0291
2472.00,-0.0291
2471.00,-0.0291
2470.00,-0.0291
2469.00,-0.0292
2468.00,-0.0292
2467.00,-0.0292
2466.00,-0.0293
2465.00,-0.0293
2464.00,-0.0293
2463.00,-0.0293
2462.00,-0.0294
2461.00,-0.0294
2460.00,-0.0295
2459.00,-0.0295
2458.00,-0.0296
2457.00,-0.0296
2456.00,-0.0296
2455.00,-0.0297
2454.00,-0.0297
2453.00,-0.0298
2452.00,-0.0297
2451.00,-0.0298
2450.00,-0.0298
2449.00,-0.0298
2448.00,-0.0298
2447.00,-0.0298
2446.00,-0.0299
2445.00,-0.0299
2444.00,-0.0299
2443.00,-0.0300
2442.00,-0.0300
2441.00,-0.0301
2440.00,-0.0301
2439.00,-0.0301
2438.00,-0.0301
2437.00,-0.0301
2436.00,-0.0301
2435.00,-0.0301
2434.00,-0.0301
2433.00,-0.0302
2432.00,-0.0302
2431.00,-0.0302
2430.00,-0.0303
2429.00,-0.0303
2428.00,-0.0303
2427.00,-0.0304
2426.00,-0.0304
2425.00,-0.0305
2424.00,-0.0305
2423.00,-0.0306
2422.00,-0.0306
2421.00,-0.0306
2420.00,-0.0306
2419.00,-0.0306
2418.00,-0.0306
2417.00,-0.0306
2416.00,-0.0307
2415.00,-0.0307
2414.00,-0.0308
2413.00,-0.0308
2412.00,-0.0308
2411.00,-0.0308
2410.00,-0.0308
2409.00,-0.0308
2408.00,-0.0308
2407.00,-0.0309
2406.00,-0.0309
2405.00,-0.0309
2404.00,-0.0310
2403.00,-0.0310
2402.00,-0.0310
2401.00,-0.0310
2400.00,-0.0310
2399.00,-0.0310
2398.00,-0.0310
2397.00,-0.0311
2396.00,-0.0312
2395.00,-0.0312
2394.00,-0.0312
2393.00,-0.0313
2392.00,-0.0313
2391.00,-0.0313
2390.00,-0.0313
2389.00,-0.0313
2388.00,-0.0313
2387.00,-0.0313
2386.00,-0.0314
2385.00,-0.0314
2384.00,-0.0314
2383.00,-0.0314
2382.00,-0.0315
2381.00,-0.0315
2380.00,-0.0315
2379.00,-0.0316
2378.00,-0.0316
2377.00,-0.0316
2376.00,-0.0316
2375.00,-0.0316
2374.00,-0.0316
2373.00,-0.0316
2372.00,-0.0316
2371.00,-0.0317
2370.00,-0.0317
2369.00,-0.0318
2368.00,-0.0318
2367.00,-0.0318
2366.00,-0.0319
2365.00,-0.0319
2364.00,-0.0319
2363.00,-0.0319
2362.00,-0.0319
2361.00,-0.0319
2360.00,-0.0320
2359.00,-0.0320
2358.00,-0.0321
2357.00,-0.0321
2356.00,-0.0320
2355.00,-0.0320
2354.00,-0.0320
2353.00,-0.0320
2352.00,-0.0321
2351.00,-0.0321
2350.00,-0.0321
2349.00,-0.0322
2348.00,-0.0322
2347.00,-0.0322
2346.00,-0.0322
2345.00,-0.0323
2344.00,-0.0323
2343.00,-0.0323
2342.00,-0.0322
2341.00,-0.0322
2340.00,-0.0322
2339.00,-0.0323
2338.00,-0.0323
2337.00,-0.0324
2336.00,-0.0324
2335.00,-0.0325
2334.00,-0.0325
2333.00,-0.0326
2332.00,-0.0326
2331.00,-0.0326
2330.00,-0.0326
2329.00,-0.0326
2328.00,-0.0326
2327.00,-0.0326
2326.00,-0.0325
2325.00,-0.0325
2324.00,-0.0325
2323.00,-0.0325
2322.00,-0.0326
2321.00,-0.0326
2320.00,-0.0327
2319.00,-0.0327
2318.00,-0.0327
2317.00,-0.0327
2316.00,-0.0327
2315.00,-0.0327
2314.00,-0.0327
2313.00,-0.0327
2312.00,-0.0327
2311.00,-0.0327
2310.00,-0.0327
2309.00,-0.0328
2308.00,-0.0328
2307.00,-0.0328
2306.00,-0.0328
2305.00,-0.0328
2304.00,-0.0328
2303.00,-0.0328
2302.00,-0.0328
2301.00,-0.0328
2300.00,-0.0328
2299.00,-0.0329
2298.00,-0.0329
2297.00,-0.0328
2296.00,-0.0328
2295.00,-0.0328
2294.00,-0.0328
2293.00,-0.0328
2292.00,-0.0328
2291.00,-0.0328
2290.00,-0.0328
2289.00,-0.0328
2288.00,-0.0328
2287.00,-0.0328
2286.00,-0.0329
2285.00,-0.0329
2284.00,-0.0330
2283.00,-0.0330
2282.00,-0.0330
2281.00,-0.0331
2280.00,-0.0331
2279.00,-0.0331
2278.00,-0.0331
2277.00,-0.0331
2276.00,-0.0331
2275.00,-0.0331
2274.00,-0.0332
2273.00,-0.0332
2272.00,-0.0332
2271.00,-0.0333
2270.00,-0.0333
2269.00,-0.0332
2268.00,-0.0332
2267.00,-0.0332
2266.00,-0.0333
2265.00,-0.0333
2264.00,-0.0334
2263.00,-0.0335
2262.00,-0.0335
2261.00,-0.0335
2260.00,-0.0334
2259.00,-0.0334
2258.00,-0.0333
2257.00,-0.0333
2256.00,-0.0334
2255.00,-0.0335
2254.00,-0.0336
2253.00,-0.0336
2252.00,-0.0335
2251.00,-0.0335
2250.00,-0.0335
2249.00,-0.0335
2248.00,-0.0335
2247.00,-0.0336
2246.00,-0.0336
2245.00,-0.0336
2244.00,-0.0336
2243.00,-0.0336
2242.00,-0.0337
2241.00,-0.0337
2240.00,-0.0338
2239.00,-0.0339
2238.00,-0.0339
2237.00,-0.0339
2236.00,-0.0339
2235.00,-0.0338
2234.00,-0.0338
2233.00,-0.0338
2232.00,-0.0337
2231.00,-0.0337
2230.00,-0.0337
2229.00,-0.0338
2228.00,-0.0339
2227.00,-0.0339
2226.00,-0.0340
2225.00,-0.0339
2224.00,-0.0339
2223.00,-0.0339
2222.00,-0.0339
2221.00,-0.0339
2220.00,-0.0338
2219.00,-0.0338
2218.00,-0.0339
2217.00,-0.0339
2216.00,-0.0340
2215.00,-0.0341
2214.00,-0.0341
2213.00,-0.0341
2212.00,-0.0341
2211.00,-0.0342
2210.00,-0.0343
2209.00,-0.0343
2208.00,-0.0342
2207.00,-0.0341
2206.00,-0.0341
2205.00,-0.0341
2204.00,-0.0341
2203.00,-0.0342
2202.00,-0.0342
2201.00,-0.0343
2200.00,-0.0343
2199.00,-0.0344
2198.00,-0.0344
2197.00,-0.0344
2196.00,-0.0344
2195.00,-0.0344
2194.00,-0.0345
2193.00,-0.0346
2192.00,-0.0346
2191.00,-0.0347
2190.00,-0.0346
2189.00,-0.0344
2188.00,-0.0343
2187.00,-0.0342
2186.00,-0.0343
2185.00,-0.0344
2184.00,-0.0346
2183.00,-0.0347
2182.00,-0.0348
2181.00,-0.0348
2180.00,-0.0348
2179.00,-0.0347
2178.00,-0.0347
2177.00,-0.0348
2176.00,-0.0348
2175.00,-0.0349
2174.00,-0.0349
2173.00,-0.0349
2172.00,-0.0347
2171.00,-0.0347
2170.00,-0.0347
2169.00,-0.0347
2168.00,-0.0347
2167.00,-0.0347
2166.00,-0.0347
2165.00,-0.0347
2164.00,-0.0348
2163.00,-0.0350
2162.00,-0.0352
2161.00,-0.0353
2160.00,-0.0353
2159.00,-0.0354
2158.00,-0.0354
2157.00,-0.0354
2156.00,-0.0354
2155.00,-0.0354
2154.00,-0.0354
2153.00,-0.0353
2152.00,-0.0353
2151.00,-0.0353
2150.00,-0.0352
2149.00,-0.0352
2148.00,-0.0351
2147.00,-0.0352
2146.00,-0.0352
2145.00,-0.0352
2144.00,-0.0352
2143.00,-0.0352
2142.00,-0.0353
2141.00,-0.0354
2140.00,-0.0354
2139.00,-0.0354
2138.00,-0.0354
2137.00,-0.0353
2136.00,-0.0353
2135.00,-0.0352
2134.00,-0.0352
2133.00,-0.0351
2132.00,-0.0351
2131.00,-0.0352
2130.00,-0.0353
2129.00,-0.0353
2128.00,-0.0353
2127.00,-0.0353
2126.00,-0.0354
2125.00,-0.0354
2124.00,-0.0354
2123.00,-0.0354
2122.00,-0.0354
2121.00,-0.0354
2120.00,-0.0353
2119.00,-0.0352
2118.00,-0.0352
2117.00,-0.0351
2116.00,-0.0350
2115.00,-0.0350
2114.00,-0.0351
2113.00,-0.0352
2112.00,-0.0352
2111.00,-0.0353
2110.00,-0.0353
2109.00,-0.0353
2108.00,-0.0353
2107.00,-0.0353
2106.00,-0.0353
2105.00,-0.0353
2104.00,-0.0353
2103.00,-0.0353
2102.00,-0.0353
2101.00,-0.0354
2100.00,-0.0354
2099.00,-0.0354
2098.00,-0.0354
2097.00,-0.0355
2096.00,-0.0355
2095.00,-0.0354
2094.00,-0.0354
2093.00,-0.0354
2092.00,-0.0354
2091.00,-0.0354
2090.00,-0.0355
2089.00,-0.0356
2088.00,-0.0358
2087.00,-0.0358
2086.00,-0.0359
2085.00,-0.0358
2084.00,-0.0358
2083.00,-0.0358
2082.00,-0.0359
2081.00,-0.0360
2080.00,-0.0359
2079.00,-0.0359
2078.00,-0.0359
2077.00,-0.0358
2076.00,-0.0357
2075.00,-0.0358
2074.00,-0.0359
2073.00,-0.0360
2072.00,-0.0360
2071.00,-0.0361
2070.00,-0.0362
2069.00,-0.0362
2068.00,-0.0362
2067.00,-0.0362
2066.00,-0.0361
2065.00,-0.0361
2064.00,-0.0361
2063.00,-0.0361
2062.00,-0.0362
2061.00,-0.0363
2060.00,-0.0363
2059.00,-0.0364
2058.00,-0.0365
2057.00,-0.0365
2056.00,-0.0365
2055.00,-0.0365
2054.00,-0.0366
2053.00,-0.0366
2052.00,-0.0366
2051.00,-0.0367
2050.00,-0.0369
2049.00,-0.0370
2048.00,-0.0370
2047.00,-0.0370
2046.00,-0.0370
2045.00,-0.0369
2044.00,-0.0369
2043.00,-0.0369
2042.00,-0.0370
2041.00,-0.0369
2040.00,-0.0369
2039.00,-0.0369
2038.00,-0.0370
2037.00,-0.0371
2036.00,-0.0372
2035.00,-0.0373
2034.00,-0.0374
2033.00,-0.0374
2032.00,-0.0373
2031.00,-0.0375
2030.00,-0.0377
2029.00,-0.0377
2028.00,-0.0377
2027.00,-0.0377
2026.00,-0.0377
2025.00,-0.0376
2024.00,-0.0375
2023.00,-0.0375
2022.00,-0.0374
2021.00,-0.0373
2020.00,-0.0373
2019.00,-0.0374
2018.00,-0.0377
2017.00,-0.0378
2016.00,-0.0378
2015.00,-0.0378
2014.00,-0.0377
2013.00,-0.0376
2012.00,-0.0376
2011.00,-0.0377
2010.00,-0.0378
2009.00,-0.0379
2008.00,-0.0379
2007.00,-0.0379
2006.00,-0.0379
2005.00,-0.0377
2004.00,-0.0377
2003.00,-0.0377
2002.00,-0.0378
2001.00,-0.0378
2000.00,-0.0378
1999.00,-0.0378
1998.00,-0.0378
1997.00,-0.0377
1996.00,-0.0377
1995.00,-0.0376
1994.00,-0.0376
1993.00,-0.0376
1992.00,-0.0376
1991.00,-0.0378
1990.00,-0.0379
1989.00,-0.0379
1988.00,-0.0379
1987.00,-0.0379
1986.00,-0.0381
1985.00,-0.0381
1984.00,-0.0382
1983.00,-0.0384
1982.00,-0.0385
1981.00,-0.0386
1980.00,-0.0385
1979.00,-0.0384
1978.00,-0.0384
1977.00,-0.0382
1976.00,-0.0381
1975.00,-0.0381
1974.00,-0.0382
1973.00,-0.0383
1972.00,-0.0383
1971.00,-0.0383
1970.00,-0.0384
1969.00,-0.0383
1968.00,-0.0383
1967.00,-0.0384
1966.00,-0.0386
1965.00,-0.0387
1964.00,-0.0387
1963.00,-0.0388
1962.00,-0.0389
1961.00,-0.0389
1960.00,-0.0388
1959.00,-0.0387
1958.00,-0.0386
1957.00,-0.0385
1956.00,-0.0384
1955.00,-0.0384
1954.00,-0.0386
1953.00,-0.0386
1952.00,-0.0386
1951.00,-0.0386
1950.00,-0.0387
1949.00,-0.0388
1948.00,-0.0389
1947.00,-0.0389
1946.00,-0.0388
1945.00,-0.0386
1944.00,-0.0384
1943.00,-0.0385
1942.00,-0.0388
1941.00,-0.0391
1940.00,-0.0392
1939.00,-0.0391
1938.00,-0.0389
1937.00,-0.0387
1936.00,-0.0387
1935.00,-0.0387
1934.00,-0.0388
1933.00,-0.0388
1932.00,-0.0388
1931.00,-0.0389
1930.00,-0.0389
1929.00,-0.0390
1928.00,-0.0390
1927.00,-0.0390
1926.00,-0.0390
1925.00,-0.0389
1924.00,-0.0389
1923.00,-0.0389
1922.00,-0.0390
1921.00,-0.0391
1920.00,-0.0391
1919.00,-0.0391
1918.00,-0.0391
1917.00,-0.0392
1916.00,-0.0392
1915.00,-0.0391
1914.00,-0.0391
1913.00,-0.0391
1912.00,-0.0391
1911.00,-0.0391
1910.00,-0.0392
1909.00,-0.0392
1908.00,-0.0392
1907.00,-0.0393
1906.00,-0.0395
1905.00,-0.0394
1904.00,-0.0392
1903.00,-0.0392
1902.00,-0.0392
1901.00,-0.0392
1900.00,-0.0392
1899.00,-0.0392
1898.00,-0.0392
1897.00,-0.0392
1896.00,-0.0393
1895.00,-0.0393
1894.00,-0.0394
1893.00,-0.0394
1892.00,-0.0394
1891.00,-0.0394
1890.00,-0.0395
1889.00,-0.0395
1888.00,-0.0396
1887.00,-0.0395
1886.00,-0.0395
1885.00,-0.0394
1884.00,-0.0394
1883.00,-0.0394
1882.00,-0.0395
1881.00,-0.0395
1880.00,-0.0395
1879.00,-0.0396
1878.00,-0.0396
1877.00,-0.0397
1876.00,-0.0397
1875.00,-0.0397
1874.00,-0.0397
1873.00,-0.0397
1872.00,-0.0397
1871.00,-0.0397
1870.00,-0.0398
1869.00,-0.0399
1868.00,-0.0399
1867.00,-0.0400
1866.00,-0.0400
1865.00,-0.0400
1864.00,-0.0400
1863.00,-0.0400
1862.00,-0.0401
1861.00,-0.0401
1860.00,-0.0401
1859.00,-0.0401
1858.00,-0.0401
1857.00,-0.0401
1856.00,-0.0400
1855.00,-0.0401
1854.00,-0.0401
1853.00,-0.0402
1852.00,-0.0402
1851.00,-0.0402
1850.00,-0.0402
1849.00,-0.0402
1848.00,-0.0401
1847.00,-0.0401
1846.00,-0.0401
1845.00,-0.0402
1844.00,-0.0403
1843.00,-0.0404
1842.00,-0.0405
1841.00,-0.0405
1840.00,-0.0404
1839.00,-0.0404
1838.00,-0.0404
1837.00,-0.0404
1836.00,-0.0403
1835.00,-0.0403
1834.00,-0.0403
1833.00,-0.0403
1832.00,-0.0403
1831.00,-0.0403
1830.00,-0.0403
1829.00,-0.0403
1828.00,-0.0403
1827.00,-0.0403
1826.00,-0.0404
1825.00,-0.0404
1824.00,-0.0405
1823.00,-0.0405
1822.00,-0.0405
1821.00,-0.0405
1820.00,-0.0405
1819.00,-0.0405
1818.00,-0.0406
1817.00,-0.0406
1816.00,-0.0406
1815.00,-0.0406
1814.00,-0.0406
1813.00,-0.0405
1812.00,-0.0405
1811.00,-0.0405
1810.00,-0.0406
1809.00,-0.0406
1808.00,-0.0406
1807.00,-0.0406
1806.00,-0.0406
1805.00,-0.0406
1804.00,-0.0405
1803.00,-0.0405
1802.00,-0.0405
1801.00,-0.0406
1800.00,-0.0406
1799.00,-0.0407
1798.00,-0.0407
1797.00,-0.0407
1796.00,-0.0407
1795.00,-0.0406
1794.00,-0.0405
1793.00,-0.0405
1792.00,-0.0406
1791.00,-0.0407
1790.00,-0.0408
1789.00,-0.0408
1788.00,-0.0407
1787.00,-0.0406
1786.00,-0.0406
1785.00,-0.0406
1784.00,-0.0406
1783.00,-0.0407
1782.00,-0.0407
1781.00,-0.0407
1780.00,-0.0407
1779.00,-0.0407
1778.00,-0.0407
1777.00,-0.0407
1776.00,-0.0406
1775.00,-0.0405
1774.00,-0.0405
1773.00,-0.0404
1772.00,-0.0405
1771.00,-0.0407
1770.00,-0.0407
1769.00,-0.0407
1768.00,-0.0406
1767.00,-0.0405
1766.00,-0.0405
1765.00,-0.0404
1764.00,-0.0402
1763.00,-0.0402
1762.00,-0.0402
1761.00,-0.0402
1760.00,-0.0401
1759.00,-0.0400
1758.00,-0.0399
1757.00,-0.0398
1756.00,-0.0396
1755.00,-0.0395
1754.00,-0.0394
1753.00,-0.0392
1752.00,-0.0389
1751.00,-0.0387
1750.00,-0.0386
1749.00,-0.0385
1748.00,-0.0382
1747.00,-0.0380
1746.00,-0.0379
1745.00,-0.0377
1744.00,-0.0374
1743.00,-0.0372
1742.00,-0.0371
1741.00,-0.0369
1740.00,-0.0366
1739.00,-0.0365
1738.00,-0.0364
1737.00,-0.0363
1736.00,-0.0361
1735.00,-0.0359
1734.00,-0.0357
1733.00,-0.0356
1732.00,-0.0354
1731.00,-0.0353
1730.00,-0.0352
1729.00,-0.0350
1728.00,-0.0348
1727.00,-0.0347
1726.00,-0.0345
1725.00,-0.0343
1724.00,-0.0340
1723.00,-0.0337
1722.00,-0.0335
1721.00,-0.0334
1720.00,-0.0328
1719.00,-0.0319
1718.00,-0.0321
1717.00,-0.0327
1716.00,-0.0331
1715.00,-0.0328
1714.00,-0.0320
1713.00,-0.0311
1712.00,-0.0300
1711.00,-0.0288
1710.00,-0.0277
1709.00,-0.0266
1708.00,-0.0255
1707.00,-0.0244
1706.00,-0.0232
1705.00,-0.0222
1704.00,-0.0214
1703.00,-0.0198
1702.00,-0.0172
1701.00,-0.0136
1700.00,-0.0108
1699.00,-0.0101
1698.00,-0.0086
1697.00,-0.0046
1696.00,0.0000
1695.00,0.0028
1694.00,0.0037
1693.00,0.0048
1692.00,0.0066
1691.00,0.0085
1690.00,0.0101
1689.00,0.0113
1688.00,0.0122
1687.00,0.0131
1686.00,0.0147
1685.00,0.0178
1684.00,0.0213
1683.00,0.0226
1682.00,0.0231
1681.00,0.0250
1680.00,0.0274
1679.00,0.0291
1678.00,0.0303
1677.00,0.0317
1676.00,0.0340
1675.00,0.0365
1674.00,0.0379
1673.00,0.0386
1672.00,0.0399
1671.00,0.0421
1670.00,0.0450
1669.00,0.0480
1668.00,0.0501
1667.00,0.0515
1666.00,0.0527
1665.00,0.0542
1664.00,0.0563
1663.00,0.0591
1662.00,0.0617
1661.00,0.0636
1660.00,0.0652
1659.00,0.0667
1658.00,0.0676
1657.00,0.0673
1656.00,0.0663
1655.00,0.0662
1654.00,0.0705
1653.00,0.0789
1652.00,0.0828
1651.00,0.0815
1650.00,0.0803
1649.00,0.0796
1648.00,0.0806
1647.00,0.0840
1646.00,0.0876
1645.00,0.0893
1644.00,0.0899
1643.00,0.0904
1642.00,0.0908
1641.00,0.0912
1640.00,0.0912
1639.00,0.0906
1638.00,0.0900
1637.00,0.0915
1636.00,0.0962
1635.00,0.1013
1634.00,0.1034
1633.00,0.1035
1632.00,0.1036
1631.00,0.1037
1630.00,0.1042
1629.00,0.1052
1628.00,0.1063
1627.00,0.1068
1626.00,0.1063
1625.00,0.1057
1624.00,0.1059
1623.00,0.1065
1622.00,0.1059
1621.00,0.1034
1620.00,0.0999
1619.00,0.0964
1618.00,0.0937
1617.00,0.0921
1616.00,0.0902
1615.00,0.0868
1614.00,0.0827
1613.00,0.0784
1612.00,0.0742
1611.00,0.0701
1610.00,0.0663
1609.00,0.0625
1608.00,0.0589
1607.00,0.0556
1606.00,0.0524
1605.00,0.0495
1604.00,0.0467
1603.00,0.0442
1602.00,0.0419
1601.00,0.0398
1600.00,0.0377
1599.00,0.0359
1598.00,0.0343
1597.00,0.0327
1596.00,0.0313
1595.00,0.0300
1594.00,0.0288
1593.00,0.0277
1592.00,0.0267
1591.00,0.0258
1590.00,0.0252
1589.00,0.0246
1588.00,0.0241
1587.00,0.0237
1586.00,0.0236
1585.00,0.0235
1584.00,0.0235
1583.00,0.0236
1582.00,0.0238
1581.00,0.0240
1580.00,0.0238
1579.00,0.0236
1578.00,0.0241
1577.00,0.0256
1576.00,0.0274
1575.00,0.0284
1574.00,0.0285
1573.00,0.0286
1572.00,0.0290
1571.00,0.0298
1570.00,0.0314
1569.00,0.0328
1568.00,0.0335
1567.00,0.0344
1566.00,0.0359
1565.00,0.0375
1564.00,0.0383
1563.00,0.0383
1562.00,0.0379
1561.00,0.0378
1560.00,0.0399
1559.00,0.0453
1558.00,0.0488
1557.00,0.0490
1556.00,0.0501
1555.00,0.0526
1554.00,0.0551
1553.00,0.0567
1552.00,0.0578
1551.00,0.0594
1550.00,0.0615
1549.00,0.0633
1548.00,0.0640
1547.00,0.0643
1546.00,0.0650
1545.00,0.0661
1544.00,0.0669
1543.00,0.0673
1542.00,0.0679
1541.00,0.0705
1540.00,0.0754
1539.00,0.0793
1538.00,0.0801
1537.00,0.0796
1536.00,0.0788
1535.00,0.0787
1534.00,0.0804
1533.00,0.0828
1532.00,0.0839
1531.00,0.0838
1530.00,0.0836
1529.00,0.0836
1528.00,0.0838
1527.00,0.0844
1526.00,0.0851
1525.00,0.0850
1524.00,0.0841
1523.00,0.0839
1522.00,0.0857
1521.00,0.0886
1520.00,0.0897
1519.00,0.0893
1518.00,0.0893
1517.00,0.0904
1516.00,0.0913
1515.00,0.0910
1514.00,0.0897
1513.00,0.0881
1512.00,0.0862
1511.00,0.0836
1510.00,0.0803
1509.00,0.0772
1508.00,0.0756
1507.00,0.0764
1506.00,0.0766
1505.00,0.0739
1504.00,0.0705
1503.00,0.0677
1502.00,0.0649
1501.00,0.0619
1500.00,0.0590
1499.00,0.0562
1498.00,0.0538
1497.00,0.0518
1496.00,0.0499
1495.00,0.0475
1494.00,0.0447
1493.00,0.0418
1492.00,0.0389
1491.00,0.0363
1490.00,0.0338
1489.00,0.0315
1488.00,0.0293
1487.00,0.0273
1486.00,0.0255
1485.00,0.0238
1484.00,0.0223
1483.00,0.0210
1482.00,0.0198
1481.00,0.0186
1480.00,0.0175
1479.00,0.0165
1478.00,0.0158
1477.00,0.0152
1476.00,0.0148
1475.00,0.0145
1474.00,0.0149
1473.00,0.0162
1472.00,0.0175
1471.00,0.0183
1470.00,0.0187
1469.00,0.0192
1468.00,0.0195
1467.00,0.0196
1466.00,0.0196
1465.00,0.0196
1464.00,0.0195
1463.00,0.0193
1462.00,0.0191
1461.00,0.0189
1460.00,0.0187
1459.00,0.0188
1458.00,0.0199
1457.00,0.0219
1456.00,0.0232
1455.00,0.0234
1454.00,0.0236
1453.00,0.0237
1452.00,0.0236
1451.00,0.0233
1450.00,0.0230
1449.00,0.0229
1448.00,0.0229
1447.00,0.0227
1446.00,0.0223
1445.00,0.0220
1444.00,0.0217
1443.00,0.0214
1442.00,0.0209
1441.00,0.0202
1440.00,0.0194
1439.00,0.0186
1438.00,0.0181
1437.00,0.0176
1436.00,0.0169
1435.00,0.0158
1434.00,0.0148
1433.00,0.0141
1432.00,0.0133
1431.00,0.0125
1430.00,0.0117
1429.00,0.0109
1428.00,0.0103
1427.00,0.0099
1426.00,0.0098
1425.00,0.0098
1424.00,0.0098
1423.00,0.0097
1422.00,0.0096
1421.00,0.0097
1420.00,0.0103
1419.00,0.0111
1418.00,0.0117
1417.00,0.0121
1416.00,0.0126
1415.00,0.0132
1414.00,0.0136
1413.00,0.0140
1412.00,0.0145
1411.00,0.0151
1410.00,0.0156
1409.00,0.0160
1408.00,0.0163
1407.00,0.0168
1406.00,0.0174
1405.00,0.0181
1404.00,0.0187
1403.00,0.0190
1402.00,0.0191
1401.00,0.0193
1400.00,0.0196
1399.00,0.0200
1398.00,0.0201
1397.00,0.0203
1396.00,0.0206
1395.00,0.0212
1394.00,0.0215
1393.00,0.0215
1392.00,0.0214
1391.00,0.0214
1390.00,0.0212
1389.00,0.0210
1388.00,0.0209
1387.00,0.0208
1386.00,0.0202
1385.00,0.0194
1384.00,0.0185
1383.00,0.0176
1382.00,0.0167
1381.00,0.0159
1380.00,0.0152
1379.00,0.0146
1378.00,0.0139
1377.00,0.0132
1376.00,0.0125
1375.00,0.0120
1374.00,0.0117
1373.00,0.0113
1372.00,0.0109
1371.00,0.0106
1370.00,0.0104
1369.00,0.0100
1368.00,0.0094
1367.00,0.0085
1366.00,0.0076
1365.00,0.0068
1364.00,0.0060
1363.00,0.0054
1362.00,0.0049
1361.00,0.0043
1360.00,0.0038
1359.00,0.0033
1358.00,0.0029
1357.00,0.0026
1356.00,0.0023
1355.00,0.0021
1354.00,0.0019
1353.00,0.0018
1352.00,0.0016
1351.00,0.0015
1350.00,0.0015
1349.00,0.0014
1348.00,0.0013
1347.00,0.0013
1346.00,0.0013
1345.00,0.0013
1344.00,0.0012
1343.00,0.0011
1342.00,0.0011
1341.00,0.0011
1340.00,0.0012
1339.00,0.0013
1338.00,0.0012
1337.00,0.0010
1336.00,0.0007
1335.00,0.0004
1334.00,0.0002
1333.00,-0.0001
1332.00,-0.0002
1331.00,-0.0003
1330.00,-0.0004
1329.00,-0.0004
1328.00,-0.0005
1327.00,-0.0005
1326.00,-0.0004
1325.00,-0.0004
1324.00,-0.0003
1323.00,-0.0002
1322.00,-0.0000
1321.00,0.0001
1320.00,0.0002
1319.00,0.0004
1318.00,0.0006
1317.00,0.0007
1316.00,0.0008
1315.00,0.0010
1314.00,0.0010
1313.00,0.0011
1312.00,0.0011
1311.00,0.0011
1310.00,0.0010
1309.00,0.0009
1308.00,0.0007
1307.00,0.0006
1306.00,0.0005
1305.00,0.0004
1304.00,0.0003
1303.00,0.0002
1302.00,0.0002
1301.00,0.0001
1300.00,0.0000
1299.00,-0.0000
1298.00,-0.0000
1297.00,0.0000
1296.00,0.0001
1295.00,0.0001
1294.00,0.0002
1293.00,0.0003
1292.00,0.0004
1291.00,0.0006
1290.00,0.0007
1289.00,0.0009
1288.00,0.0011
1287.00,0.0012
1286.00,0.0013
1285.00,0.0014
1284.00,0.0015
1283.00,0.0015
1282.00,0.0016
1281.00,0.0017
1280.00,0.0018
1279.00,0.0018
1278.00,0.0018
1277.00,0.0018
1276.00,0.0018
1275.00,0.0018
1274.00,0.0018
1273.00,0.0019
1272.00,0.0020
1271.00,0.0021
1270.00,0.0023
1269.00,0.0025
1268.00,0.0027
1267.00,0.0031
1266.00,0.0034
1265.00,0.0038
1264.00,0.0043
1263.00,0.0048
1262.00,0.0054
1261.00,0.0060
1260.00,0.0066
1259.00,0.0072
1258.00,0.0079
1257.00,0.0085
1256.00,0.0091
1255.00,0.0097
1254.00,0.0103
1253.00,0.0109
1252.00,0.0116
1251.00,0.0123
1250.00,0.0130
1249.00,0.0138
1248.00,0.0146
1247.00,0.0154
1246.00,0.0160
1245.00,0.0167
1244.00,0.0173
1243.00,0.0179
1242.00,0.0184
1241.00,0.0189
1240.00,0.0194
1239.00,0.0198
1238.00,0.0202
1237.00,0.0206
1236.00,0.0209
1235.00,0.0213
1234.00,0.0216
1233.00,0.0218
1232.00,0.0219
1231.00,0.0220
1230.00,0.0220
1229.00,0.0219
1228.00,0.0218
1227.00,0.0216
1226.00,0.0214
1225.00,0.0211
1224.00,0.0207
1223.00,0.0203
1222.00,0.0198
1221.00,0.0192
1220.00,0.0186
1219.00,0.0180
1218.00,0.0173
1217.00,0.0165
1216.00,0.0157
1215.00,0.0149
1214.00,0.0140
1213.00,0.0130
1212.00,0.0121
1211.00,0.0111
1210.00,0.0101
1209.00,0.0091
1208.00,0.0081
1207.00,0.0071
1206.00,0.0061
1205.00,0.0051
1204.00,0.0041
1203.00,0.0032
1202.00,0.0023
1201.00,0.0014
1200.00,0.0005
1199.00,-0.0003
1198.00,-0.0010
1197.00,-0.0018
1196.00,-0.0026
1195.00,-0.0033
1194.00,-0.0040
1193.00,-0.0046
1192.00,-0.0053
1191.00,-0.0058
1190.00,-0.0063
1189.00,-0.0069
1188.00,-0.0074
1187.00,-0.0078
1186.00,-0.0083
1185.00,-0.0087
1184.00,-0.0091
1183.00,-0.0094
1182.00,-0.0097
1181.00,-0.0099
1180.00,-0.0100
1179.00,-0.0100
1178.00,-0.0100
1177.00,-0.0099
1176.00,-0.0098
1175.00,-0.0096
1174.00,-0.0094
1173.00,-0.0093
1172.00,-0.0092
1171.00,-0.0092
1170.00,-0.0093
1169.00,-0.0094
1168.00,-0.0095
1167.00,-0.0095
1166.00,-0.0095
1165.00,-0.0095
1164.00,-0.0094
1163.00,-0.0094
1162.00,-0.0093
1161.00,-0.0092
1160.00,-0.0092
1159.00,-0.0092
1158.00,-0.0093
1157.00,-0.0094
1156.00,-0.0095
1155.00,-0.0097
1154.00,-0.0100
1153.00,-0.0103
1152.00,-0.0106
1151.00,-0.0110
1150.00,-0.0114
1149.00,-0.0118
1148.00,-0.0122
1147.00,-0.0126
1146.00,-0.0130
1145.00,-0.0134
1144.00,-0.0137
1143.00,-0.0141
1142.00,-0.0144
1141.00,-0.0147
1140.00,-0.0150
1139.00,-0.0151
1138.00,-0.0152
1137.00,-0.0152
1136.00,-0.0151
1135.00,-0.0150
1134.00,-0.0148
1133.00,-0.0146
1132.00,-0.0144
1131.00,-0.0142
1130.00,-0.0139
1129.00,-0.0135
1128.00,-0.0132
1127.00,-0.0129
1126.00,-0.0126
1125.00,-0.0124
1124.00,-0.0122
1123.00,-0.0119
1122.00,-0.0116
1121.00,-0.0114
1120.00,-0.0112
1119.00,-0.0110
1118.00,-0.0107
1117.00,-0.0104
1116.00,-0.0102
1115.00,-0.0099
1114.00,-0.0097
1113.00,-0.0095
1112.00,-0.0092
1111.00,-0.0090
1110.00,-0.0088
1109.00,-0.0086
1108.00,-0.0083
1107.00,-0.0080
1106.00,-0.0078
1105.00,-0.0076
1104.00,-0.0073
1103.00,-0.0071
1102.00,-0.0068
1101.00,-0.0065
1100.00,-0.0062
1099.00,-0.0059
1098.00,-0.0056
1097.00,-0.0052
1096.00,-0.0048
1095.00,-0.0043
1094.00,-0.0038
1093.00,-0.0033
1092.00,-0.0027
1091.00,-0.0020
1090.00,-0.0013
1089.00,-0.0006
1088.00,0.0001
1087.00,0.0008
1086.00,0.0015
1085.00,0.0022
1084.00,0.0029
1083.00,0.0036
1082.00,0.0042
1081.00,0.0047
1080.00,0.0052
1079.00,0.0055
1078.00,0.0058
1077.00,0.0060
1076.00,0.0061
1075.00,0.0061
1074.00,0.0061
1073.00,0.0059
1072.00,0.0058
1071.00,0.0057
1070.00,0.0058
1069.00,0.0058
1068.00,0.0059
1067.00,0.0060
1066.00,0.0061
1065.00,0.0062
1064.00,0.0064
1063.00,0.0065
1062.00,0.0065
1061.00,0.0066
1060.00,0.0066
1059.00,0.0067
1058.00,0.0068
1057.00,0.0067
1056.00,0.0066
1055.00,0.0065
1054.00,0.0063
1053.00,0.0061
1052.00,0.0059
1051.00,0.0057
1050.00,0.0055
1049.00,0.0053
1048.00,0.0050
1047.00,0.0046
1046.00,0.0043
1045.00,0.0041
1044.00,0.0038
1043.00,0.0035
1042.00,0.0033
1041.00,0.0030
1040.00,0.0027
1039.00,0.0024
1038.00,0.0022
1037.00,0.0020
1036.00,0.0018
1035.00,0.0018
1034.00,0.0017
1033.00,0.0016
1032.00,0.0014
1031.00,0.0013
1030.00,0.0011
1029.00,0.0008
1028.00,0.0005
1027.00,0.0001
1026.00,-0.0004
1025.00,-0.0009
1024.00,-0.0015
1023.00,-0.0021
1022.00,-0.0027
1021.00,-0.0033
1020.00,-0.0039
1019.00,-0.0045
1018.00,-0.0052
1017.00,-0.0058
1016.00,-0.0065
1015.00,-0.0072
1014.00,-0.0078
1013.00,-0.0085
1012.00,-0.0091
1011.00,-0.0098
1010.00,-0.0105
1009.00,-0.0112
1008.00,-0.0120
1007.00,-0.0127
1006.00,-0.0134
1005.00,-0.0140
1004.00,-0.0147
1003.00,-0.0153
1002.00,-0.0159
1001.00,-0.0165
1000.00,-0.0171
999.00,-0.0176
998.00,-0.0181
997.00,-0.0186
996.00,-0.0191
995.00,-0.0196
994.00,-0.0202
993.00,-0.0207
992.00,-0.0213
991.00,-0.0218
990.00,-0.0223
989.00,-0.0228
988.00,-0.0233
987.00,-0.0237
986.00,-0.0242
985.00,-0.0246
984.00,-0.0250
983.00,-0.0253
982.00,-0.0256
981.00,-0.0259
980.00,-0.0261
979.00,-0.0263
978.00,-0.0264
977.00,-0.0266
976.00,-0.0267
975.00,-0.0268
974.00,-0.0269
973.00,-0.0270
972.00,-0.0271
971.00,-0.0271
970.00,-0.0272
969.00,-0.0272
968.00,-0.0272
967.00,-0.0273
966.00,-0.0273
965.00,-0.0273
964.00,-0.0274
963.00,-0.0274
962.00,-0.0275
961.00,-0.0276
960.00,-0.0277
959.00,-0.0279
958.00,-0.0281
957.00,-0.0283
956.00,-0.0284
955.00,-0.0285
954.00,-0.0286
953.00,-0.0287
952.00,-0.0288
951.00,-0.0288
950.00,-0.0289
949.00,-0.0289
948.00,-0.0290
947.00,-0.0292
946.00,-0.0293
945.00,-0.0294
944.00,-0.0295
943.00,-0.0296
942.00,-0.0296
941.00,-0.0296
940.00,-0.0296
939.00,-0.0294
938.00,-0.0293
937.00,-0.0291
936.00,-0.0290
935.00,-0.0289
934.00,-0.0287
933.00,-0.0287
932.00,-0.0286
931.00,-0.0286
930.00,-0.0286
929.00,-0.0287
928.00,-0.0287
927.00,-0.0288
926.00,-0.0289
925.00,-0.0290
924.00,-0.0291
923.00,-0.0293
922.00,-0.0295
921.00,-0.0297
920.00,-0.0299
919.00,-0.0301
918.00,-0.0303
917.00,-0.0305
916.00,-0.0308
915.00,-0.0310
914.00,-0.0313
913.00,-0.0315
912.00,-0.0318
911.00,-0.0320
910.00,-0.0322
909.00,-0.0324
908.00,-0.0327
907.00,-0.0328
906.00,-0.0330
905.00,-0.0331
904.00,-0.0332
903.00,-0.0333
902.00,-0.0334
901.00,-0.0335
900.00,-0.0336
899.00,-0.0337
898.00,-0.0338
897.00,-0.0338
896.00,-0.0338
895.00,-0.0338
894.00,-0.0338
893.00,-0.0338
892.00,-0.0339
891.00,-0.0338
890.00,-0.0338
889.00,-0.0338
888.00,-0.0338
887.00,-0.0338
886.00,-0.0338
885.00,-0.0338
884.00,-0.0338
883.00,-0.0338
882.00,-0.0338
881.00,-0.0338
880.00,-0.0339
879.00,-0.0340
878.00,-0.0341
877.00,-0.0343
876.00,-0.0344
875.00,-0.0344
874.00,-0.0344
873.00,-0.0345
872.00,-0.0345
871.00,-0.0346
870.00,-0.0346
869.00,-0.0346
868.00,-0.0346
867.00,-0.0345
866.00,-0.0343
865.00,-0.0342
864.00,-0.0341
863.00,-0.0340
862.00,-0.0338
861.00,-0.0336
860.00,-0.0334
859.00,-0.0331
858.00,-0.0329
857.00,-0.0326
856.00,-0.0323
855.00,-0.0321
854.00,-0.0318
853.00,-0.0316
852.00,-0.0313
851.00,-0.0311
850.00,-0.0310
849.00,-0.0309
848.00,-0.0309
847.00,-0.0308
846.00,-0.0306
845.00,-0.0305
844.00,-0.0304
843.00,-0.0302
842.00,-0.0299
841.00,-0.0296
840.00,-0.0293
839.00,-0.0290
838.00,-0.0287
837.00,-0.0283
836.00,-0.0280
835.00,-0.0276
834.00,-0.0273
833.00,-0.0270
832.00,-0.0267
831.00,-0.0264
830.00,-0.0262
829.00,-0.0261
828.00,-0.0260
827.00,-0.0260
826.00,-0.0259
825.00,-0.0258
824.00,-0.0257
823.00,-0.0256
822.00,-0.0256
821.00,-0.0255
820.00,-0.0254
819.00,-0.0252
818.00,-0.0251
817.00,-0.0249
816.00,-0.0248
815.00,-0.0247
814.00,-0.0245
813.00,-0.0244
812.00,-0.0243
811.00,-0.0241
810.00,-0.0239
809.00,-0.0238
808.00,-0.0236
807.00,-0.0234
806.00,-0.0232
805.00,-0.0230
804.00,-0.0228
803.00,-0.0226
802.00,-0.0223
801.00,-0.0220
800.00,-0.0216
799.00,-0.0212
798.00,-0.0209
797.00,-0.0207
796.00,-0.0205
795.00,-0.0202
794.00,-0.0199
793.00,-0.0195
792.00,-0.0191
791.00,-0.0186
790.00,-0.0180
789.00,-0.0175
788.00,-0.0169
787.00,-0.0164
786.00,-0.0159
785.00,-0.0155
784.00,-0.0150
783.00,-0.0146
782.00,-0.0142
781.00,-0.0140
780.00,-0.0138
779.00,-0.0136
778.00,-0.0135
777.00,-0.0134
776.00,-0.0133
775.00,-0.0132
774.00,-0.0130
773.00,-0.0127
772.00,-0.0125
771.00,-0.0122
770.00,-0.0120
769.00,-0.0118
768.00,-0.0115
767.00,-0.0112
766.00,-0.0109
765.00,-0.0107
764.00,-0.0104
763.00,-0.0102
762.00,-0.0099
761.00,-0.0096
760.00,-0.0093
759.00,-0.0089
758.00,-0.0085
757.00,-0.0081
756.00,-0.0077
755.00,-0.0073
754.00,-0.0070
753.00,-0.0066
752.00,-0.0062
751.00,-0.0058
750.00,-0.0053
749.00,-0.0049
748.00,-0.0044
747.00,-0.0040
746.00,-0.0037
745.00,-0.0033
744.00,-0.0030
743.00,-0.0028
742.00,-0.0025
741.00,-0.0023
740.00,-0.0021
739.00,-0.0019
738.00,-0.0017
737.00,-0.0015
736.00,-0.0013
735.00,-0.0011
734.00,-0.0008
733.00,-0.0005
732.00,-0.0001
731.00,0.0004
730.00,0.0010
729.00,0.0016
728.00,0.0022
727.00,0.0028
726.00,0.0035
725.00,0.0042
724.00,0.0051
723.00,0.0058
722.00,0.0066
721.00,0.0072
720.00,0.0078
719.00,0.0083
718.00,0.0088
717.00,0.0093
716.00,0.0098
715.00,0.0104
714.00,0.0110
713.00,0.0116
712.00,0.0123
711.00,0.0131
710.00,0.0138
709.00,0.0146
708.00,0.0155
707.00,0.0164
706.00,0.0173
705.00,0.0182
704.00,0.0192
703.00,0.0200
702.00,0.0207
701.00,0.0213
700.00,0.0219
699.00,0.0223
698.00,0.0227
697.00,0.0229
696.00,0.0230
695.00,0.0230
694.00,0.0228
693.00,0.0227
692.00,0.0226
691.00,0.0226
690.00,0.0227
689.00,0.0228
688.00,0.0231
687.00,0.0233
686.00,0.0236
685.00,0.0238
684.00,0.0240
683.00,0.0242
682.00,0.0244
681.00,0.0247
680.00,0.0249
679.00,0.0250
678.00,0.0252
677.00,0.0254
676.00,0.0257
675.00,0.0259
674.00,0.0262
673.00,0.0264
672.00,0.0264
671.00,0.0262
670.00,0.0261
669.00,0.0266
668.00,0.0281
667.00,0.0295
666.00,0.0300
665.00,0.0298
664.00,0.0297
663.00,0.0298
662.00,0.0300
661.00,0.0303
660.00,0.0306
659.00,0.0308
658.00,0.0310
657.00,0.0311
656.00,0.0312
655.00,0.0313
654.00,0.0314
653.00,0.0316
652.00,0.0318
651.00,0.0321
650.00,0.0323
649.00,0.0324
648.00,0.0325
647.00,0.0326
646.00,0.0327
645.00,0.0329
644.00,0.0331
643.00,0.0334
642.00,0.0336
641.00,0.0338
640.00,0.0339
639.00,0.0340
638.00,0.0340
637.00,0.0340
636.00,0.0341
635.00,0.0343
634.00,0.0346
633.00,0.0348
632.00,0.0351
631.00,0.0354
630.00,0.0357
629.00,0.0360
628.00,0.0363
627.00,0.0366
626.00,0.0368
625.00,0.0371
624.00,0.0373
623.00,0.0376
622.00,0.0378
621.00,0.0380
620.00,0.0382
619.00,0.0384
618.00,0.0384
617.00,0.0384
616.00,0.0384
615.00,0.0386
614.00,0.0387
613.00,0.0389
612.00,0.0390
611.00,0.0391
610.00,0.0391
609.00,0.0391
608.00,0.0392
607.00,0.0393
606.00,0.0394
605.00,0.0396
604.00,0.0397
603.00,0.0398
602.00,0.0399
601.00,0.0399
600.00,0.0400
599.00,0.0402
598.00,0.0402
597.00,0.0403
596.00,0.0405
595.00,0.0407
594.00,0.0410
593.00,0.0413
592.00,0.0417
591.00,0.0419
590.00,0.0421
589.00,0.0421
588.00,0.0423
587.00,0.0425
586.00,0.0428
585.00,0.0430
584.00,0.0432
583.00,0.0435
582.00,0.0437
581.00,0.0440
580.00,0.0443
579.00,0.0444
578.00,0.0445
577.00,0.0447
576.00,0.0450
575.00,0.0453
574.00,0.0455
573.00,0.0456
572.00,0.0456
571.00,0.0456
570.00,0.0457
569.00,0.0458
568.00,0.0461
567.00,0.0464
566.00,0.0467
565.00,0.0469
564.00,0.0471
563.00,0.0472
562.00,0.0472
561.00,0.0472
560.00,0.0473
559.00,0.0475
558.00,0.0477
557.00,0.0479
556.00,0.0483
555.00,0.0486
554.00,0.0488
553.00,0.0489
552.00,0.0490
551.00,0.0490
550.00,0.0490
549.00,0.0490
548.00,0.0490
547.00,0.0491
546.00,0.0491
545.00,0.0493
544.00,0.0495
543.00,0.0497
542.00,0.0497
541.00,0.0495
540.00,0.0495
539.00,0.0494
538.00,0.0494
537.00,0.0494
536.00,0.0495
535.00,0.0497
534.00,0.0498
533.00,0.0498
532.00,0.0500
531.00,0.0503
530.00,0.0504
529.00,0.0505
528.00,0.0505
527.00,0.0505
526.00,0.0505
525.00,0.0504
524.00,0.0503
523.00,0.0502
522.00,0.0500
521.00,0.0498
520.00,0.0498
519.00,0.0500
518.00,0.0501
517.00,0.0502
516.00,0.0501
515.00,0.0498
514.00,0.0494
513.00,0.0492
512.00,0.0492
511.00,0.0494
510.00,0.0494
509.00,0.0492
508.00,0.0491
507.00,0.0490
506.00,0.0490
505.00,0.0487
504.00,0.0484
503.00,0.0480
502.00,0.0476
501.00,0.0473
500.00,0.0471
499.00,0.0471
498.00,0.0469
497.00,0.0468
496.00,0.0468
495.00,0.0467
494.00,0.0465
493.00,0.0462
492.00,0.0461
491.00,0.0460
490.00,0.0458
489.00,0.0453
488.00,0.0450
487.00,0.0447
486.00,0.0445
485.00,0.0443
484.00,0.0440
483.00,0.0436
482.00,0.0431
481.00,0.0427
480.00,0.0424
479.00,0.0420
478.00,0.0417
477.00,0.0415
476.00,0.0415
475.00,0.0416
474.00,0.0415
473.00,0.0413
472.00,0.0412
471.00,0.0413
470.00,0.0414
469.00,0.0415
468.00,0.0416
467.00,0.0417
466.00,0.0417
465.00,0.0418
464.00,0.0419
463.00,0.0417
462.00,0.0412
461.00,0.0406
460.00,0.0402
459.00,0.0400
458.00,0.0399
457.00,0.0400
456.00,0.0402
455.00,0.0405
454.00,0.0405
453.00,0.0404
452.00,0.0402
451.00,0.0401
450.00,0.0399
449.00,0.0399
448.00,0.0401
447.00,0.0405
446.00,0.0407
445.00,0.0407
444.00,0.0405
443.00,0.0401
442.00,0.0395
441.00,0.0392
440.00,0.0392
439.00,0.0392
438.00,0.0393
437.00,0.0398
436.00,0.0409
435.00,0.0420
434.00,0.0425
433.00,0.0426
432.00,0.0425
431.00,0.0425
430.00,0.0425
429.00,0.0426
428.00,0.0428
427.00,0.0429
426.00,0.0427
425.00,0.0425
424.00,0.0425
423.00,0.0425
422.00,0.0423
421.00,0.0421
420.00,0.0422
419.00,0.0429
418.00,0.0434
417.00,0.0429
416.00,0.0422
415.00,0.0419
414.00,0.0421
413.00,0.0428
412.00,0.0434
411.00,0.0428
410.00,0.0411
409.00,0.0393
408.00,0.0387
407.00,0.0392
406.00,0.0397
405.00,0.0395
404.00,0.0386
403.00,0.0377
402.00,0.0369
401.00,0.0364
400.00,0.0357
