Created as New Dataset,Sample 246 By YargerLab Date Sunday, October 05 2025
cm-1,A
4000.00,0.0003
3999.00,0.0003
3998.00,0.0003
3997.00,0.0003
3996.00,0.0002
3995.00,0.0002
3994.00,0.0002
3993.00,0.0002
3992.00,0.0002
3991.00,0.0002
3990.00,0.0003
3989.00,0.0003
3988.00,0.0003
3987.00,0.0003
3986.00,0.0003
3985.00,0.0003
3984.00,0.0003
3983.00,0.0003
3982.00,0.0003
3981.00,0.0003
3980.00,0.0003
3979.00,0.0003
3978.00,0.0003
3977.00,0.0003
3976.00,0.0003
3975.00,0.0003
3974.00,0.0003
3973.00,0.0003
3972.00,0.0003
3971.00,0.0003
3970.00,0.0003
3969.00,0.0003
3968.00,0.0003
3967.00,0.0003
3966.00,0.0003
3965.00,0.0003
3964.00,0.0003
3963.00,0.0003
3962.00,0.0003
3961.00,0.0003
3960.00,0.0003
3959.00,0.0003
3958.00,0.0003
3957.00,0.0003
3956.00,0.0003
3955.00,0.0003
3954.00,0.0003
3953.00,0.0003
3952.00,0.0002
3951.00,0.0002
3950.00,0.0002
3949.00,0.0002
3948.00,0.0002
3947.00,0.0002
3946.00,0.0002
3945.00,0.0002
3944.00,0.0002
3943.00,0.0002
3942.00,0.0002
3941.00,0.0003
3940.00,0.0003
3939.00,0.0003
3938.00,0.0003
3937.00,0.0003
3936.00,0.0003
3935.00,0.0003
3934.00,0.0003
3933.00,0.0002
3932.00,0.0002
3931.00,0.0002
3930.00,0.0002
3929.00,0.0002
3928.00,0.0002
3927.00,0.0002
3926.00,0.0002
3925.00,0.0002
3924.00,0.0002
3923.00,0.0002
3922.00,0.0001
3921.00,0.0001
3920.00,0.0001
3919.00,0.0002
3918.00,0.0002
3917.00,0.0002
3916.00,0.0002
3915.00,0.0002
3914.00,0.0002
3913.00,0.0002
3912.00,0.0003
3911.00,0.0003
3910.00,0.0003
3909.00,0.0003
3908.00,0.0003
3907.00,0.0003
3906.00,0.0002
3905.00,0.0002
3904.00,0.0001
3903.00,0.0001
3902.00,0.0000
3901.00,0.0000
3900.00,0.0000
3899.00,0.0001
3898.00,0.0001
3897.00,0.0001
3896.00,0.0001
3895.00,0.0002
3894.00,0.0002
3893.00,0.0002
3892.00,0.0003
3891.00,0.0003
3890.00,0.0003
3889.00,0.0002
3888.00,0.0001
3887.00,0.0001
3886.00,0.0001
3885.00,0.0001
3884.00,0.0001
3883.00,0.0001
3882.00,0.0001
3881.00,0.0001
3880.00,0.0001
3879.00,0.0002
3878.00,0.0002
3877.00,0.0001
3876.00,0.0002
3875.00,0.0002
3874.00,0.0002
3873.00,0.0001
3872.00,0.0001
3871.00,0.0001
3870.00,0.0001
3869.00,0.0001
3868.00,0.0001
3867.00,0.0001
3866.00,0.0001
3865.00,0.0001
3864.00,0.0001
3863.00,0.0001
3862.00,0.0001
3861.00,0.0001
3860.00,0.0001
3859.00,0.0001
3858.00,0.0001
3857.00,0.0001
3856.00,0.0000
3855.00,0.0000
3854.00,0.0001
3853.00,0.0000
3852.00,-0.0000
3851.00,-0.0000
3850.00,0.0000
3849.00,0.0001
3848.00,0.0001
3847.00,0.0002
3846.00,0.0002
3845.00,0.0002
3844.00,0.0003
3843.00,0.0002
3842.00,0.0002
3841.00,0.0001
3840.00,0.0001
3839.00,0.0001
3838.00,0.0001
3837.00,0.0001
3836.00,0.0001
3835.00,0.0001
3834.00,0.0001
3833.00,0.0001
3832.00,0.0002
3831.00,0.0002
3830.00,0.0002
3829.00,0.0002
3828.00,0.0002
3827.00,0.0002
3826.00,0.0002
3825.00,0.0002
3824.00,0.0002
3823.00,0.0002
3822.00,0.0001
3821.00,0.0001
3820.00,0.0001
3819.00,0.0000
3818.00,-0.0000
3817.00,0.0000
3816.00,0.0001
3815.00,0.0001
3814.00,0.0001
3813.00,0.0002
3812.00,0.0002
3811.00,0.0002
3810.00,0.0002
3809.00,0.0002
3808.00,0.0002
3807.00,0.0002
3806.00,0.0002
3805.00,0.0002
3804.00,0.0001
3803.00,0.0001
3802.00,0.0001
3801.00,0.0001
3800.00,0.0001
3799.00,0.0000
3798.00,0.0000
3797.00,0.0000
3796.00,0.0001
3795.00,0.0001
3794.00,0.0002
3793.00,0.0002
3792.00,0.0002
3791.00,0.0003
3790.00,0.0003
3789.00,0.0003
3788.00,0.0003
3787.00,0.0003
3786.00,0.0003
3785.00,0.0002
3784.00,0.0002
3783.00,0.0002
3782.00,0.0002
3781.00,0.0002
3780.00,0.0002
3779.00,0.0002
3778.00,0.0002
3777.00,0.0002
3776.00,0.0002
3775.00,0.0002
3774.00,0.0002
3773.00,0.0002
3772.00,0.0002
3771.00,0.0002
3770.00,0.0002
3769.00,0.0002
3768.00,0.0002
3767.00,0.0001
3766.00,0.0001
3765.00,0.0002
3764.00,0.0002
3763.00,0.0002
3762.00,0.0002
3761.00,0.0002
3760.00,0.0002
3759.00,0.0002
3758.00,0.0002
3757.00,0.0001
3756.00,0.0001
3755.00,0.0001
3754.00,0.0001
3753.00,0.0000
3752.00,0.0000
3751.00,-0.0000
3750.00,-0.0001
3749.00,-0.0001
3748.00,-0.0001
3747.00,-0.0002
3746.00,-0.0002
3745.00,-0.0002
3744.00,-0.0001
3743.00,-0.0001
3742.00,-0.0001
3741.00,-0.0001
3740.00,-0.0000
3739.00,-0.0000
3738.00,-0.0000
3737.00,-0.0000
3736.00,-0.0000
3735.00,-0.0000
3734.00,-0.0001
3733.00,-0.0001
3732.00,-0.0000
3731.00,0.0000
3730.00,0.0001
3729.00,0.0001
3728.00,0.0001
3727.00,0.0001
3726.00,0.0001
3725.00,0.0000
3724.00,-0.0000
3723.00,-0.0000
3722.00,0.0000
3721.00,0.0001
3720.00,0.0001
3719.00,0.0001
3718.00,0.0001
3717.00,0.0001
3716.00,0.0001
3715.00,0.0001
3714.00,0.0001
3713.00,0.0000
3712.00,0.0000
3711.00,0.0000
3710.00,0.0000
3709.00,0.0001
3708.00,0.0001
3707.00,0.0001
3706.00,0.0001
3705.00,0.0002
3704.00,0.0002
3703.00,0.0001
3702.00,0.0001
3701.00,0.0001
3700.00,0.0001
3699.00,0.0001
3698.00,0.0001
3697.00,0.0001
3696.00,0.0001
3695.00,0.0001
3694.00,0.0001
3693.00,0.0001
3692.00,0.0001
3691.00,0.0001
3690.00,0.0001
3689.00,0.0001
3688.00,0.0001
3687.00,0.0001
3686.00,0.0001
3685.00,0.0001
3684.00,0.0001
3683.00,0.0002
3682.00,0.0002
3681.00,0.0002
3680.00,0.0002
3679.00,0.0002
3678.00,0.0001
3677.00,0.0001
3676.00,0.0001
3675.00,0.0001
3674.00,0.0000
3673.00,0.0000
3672.00,-0.0000
3671.00,0.0000
3670.00,0.0001
3669.00,0.0001
3668.00,0.0002
3667.00,0.0002
3666.00,0.0002
3665.00,0.0003
3664.00,0.0003
3663.00,0.0004
3662.00,0.0005
3661.00,0.0005
3660.00,0.0005
3659.00,0.0005
3658.00,0.0005
3657.00,0.0005
3656.00,0.0004
3655.00,0.0004
3654.00,0.0004
3653.00,0.0003
3652.00,0.0003
3651.00,0.0003
3650.00,0.0003
3649.00,0.0003
3648.00,0.0003
3647.00,0.0003
3646.00,0.0003
3645.00,0.0004
3644.00,0.0004
3643.00,0.0005
3642.00,0.0005
3641.00,0.0005
3640.00,0.0006
3639.00,0.0006
3638.00,0.0007
3637.00,0.0007
3636.00,0.0007
3635.00,0.0008
3634.00,0.0008
3633.00,0.0008
3632.00,0.0008
3631.00,0.0008
3630.00,0.0007
3629.00,0.0008
3628.00,0.0007
3627.00,0.0007
3626.00,0.0007
3625.00,0.0008
3624.00,0.0008
3623.00,0.0009
3622.00,0.0009
3621.00,0.0009
3620.00,0.0009
3619.00,0.0009
3618.00,0.0009
3617.00,0.0009
3616.00,0.0010
3615.00,0.0010
3614.00,0.0010
3613.00,0.0011
3612.00,0.0011
3611.00,0.0011
3610.00,0.0011
3609.00,0.0011
3608.00,0.0011
3607.00,0.0011
3606.00,0.0011
3605.00,0.0012
3604.00,0.0012
3603.00,0.0012
3602.00,0.0013
3601.00,0.0013
3600.00,0.0014
3599.00,0.0014
3598.00,0.0014
3597.00,0.0015
3596.00,0.0015
3595.00,0.0015
3594.00,0.0015
3593.00,0.0015
3592.00,0.0015
3591.00,0.0015
3590.00,0.0016
3589.00,0.0016
3588.00,0.0016
3587.00,0.0016
3586.00,0.0016
3585.00,0.0016
3584.00,0.0016
3583.00,0.0017
3582.00,0.0018
3581.00,0.0019
3580.00,0.0019
3579.00,0.0020
3578.00,0.0020
3577.00,0.0020
3576.00,0.0020
3575.00,0.0020
3574.00,0.0020
3573.00,0.0020
3572.00,0.0021
3571.00,0.0021
3570.00,0.0021
3569.00,0.0021
3568.00,0.0021
3567.00,0.0021
3566.00,0.0021
3565.00,0.0021
3564.00,0.0022
3563.00,0.0022
3562.00,0.0023
3561.00,0.0023
3560.00,0.0024
3559.00,0.0024
3558.00,0.0024
3557.00,0.0024
3556.00,0.0024
3555.00,0.0024
3554.00,0.0025
3553.00,0.0025
3552.00,0.0025
3551.00,0.0026
3550.00,0.0026
3549.00,0.0026
3548.00,0.0027
3547.00,0.0027
3546.00,0.0027
3545.00,0.0027
3544.00,0.0028
3543.00,0.0028
3542.00,0.0029
3541.00,0.0029
3540.00,0.0030
3539.00,0.0030
3538.00,0.0030
3537.00,0.0030
3536.00,0.0031
3535.00,0.0031
3534.00,0.0031
3533.00,0.0031
3532.00,0.0032
3531.00,0.0032
3530.00,0.0032
3529.00,0.0032
3528.00,0.0033
3527.00,0.0033
3526.00,0.0033
3525.00,0.0033
3524.00,0.0034
3523.00,0.0034
3522.00,0.0034
3521.00,0.0034
3520.00,0.0034
3519.00,0.0035
3518.00,0.0035
3517.00,0.0035
3516.00,0.0035
3515.00,0.0035
3514.00,0.0035
3513.00,0.0036
3512.00,0.0036
3511.00,0.0036
3510.00,0.0036
3509.00,0.0037
3508.00,0.0037
3507.00,0.0037
3506.00,0.0037
3505.00,0.0038
3504.00,0.0038
3503.00,0.0038
3502.00,0.0038
3501.00,0.0038
3500.00,0.0038
3499.00,0.0038
3498.00,0.0038
3497.00,0.0038
3496.00,0.0039
3495.00,0.0039
3494.00,0.0039
3493.00,0.0039
3492.00,0.0039
3491.00,0.0039
3490.00,0.0039
3489.00,0.0039
3488.00,0.0039
3487.00,0.0039
3486.00,0.0039
3485.00,0.0039
3484.00,0.0039
3483.00,0.0040
3482.00,0.0040
3481.00,0.0040
3480.00,0.0040
3479.00,0.0040
3478.00,0.0040
3477.00,0.0040
3476.00,0.0040
3475.00,0.0040
3474.00,0.0041
3473.00,0.0041
3472.00,0.0041
3471.00,0.0041
3470.00,0.0041
3469.00,0.0041
3468.00,0.0041
3467.00,0.0041
3466.00,0.0041
3465.00,0.0041
3464.00,0.0042
3463.00,0.0042
3462.00,0.0042
3461.00,0.0042
3460.00,0.0042
3459.00,0.0042
3458.00,0.0042
3457.00,0.0042
3456.00,0.0043
3455.00,0.0043
3454.00,0.0043
3453.00,0.0044
3452.00,0.0044
3451.00,0.0044
3450.00,0.0044
3449.00,0.0045
3448.00,0.0045
3447.00,0.0046
3446.00,0.0046
3445.00,0.0047
3444.00,0.0047
3443.00,0.0047
3442.00,0.0047
3441.00,0.0046
3440.00,0.0047
3439.00,0.0047
3438.00,0.0047
3437.00,0.0047
3436.00,0.0047
3435.00,0.0047
3434.00,0.0048
3433.00,0.0048
3432.00,0.0048
3431.00,0.0048
3430.00,0.0049
3429.00,0.0049
3428.00,0.0049
3427.00,0.0050
3426.00,0.0050
3425.00,0.0050
3424.00,0.0050
3423.00,0.0050
3422.00,0.0051
3421.00,0.0051
3420.00,0.0051
3419.00,0.0051
3418.00,0.0051
3417.00,0.0052
3416.00,0.0052
3415.00,0.0052
3414.00,0.0052
3413.00,0.0052
3412.00,0.0052
3411.00,0.0053
3410.00,0.0053
3409.00,0.0053
3408.00,0.0053
3407.00,0.0053
3406.00,0.0053
3405.00,0.0053
3404.00,0.0053
3403.00,0.0053
3402.00,0.0052
3401.00,0.0052
3400.00,0.0052
3399.00,0.0053
3398.00,0.0053
3397.00,0.0053
3396.00,0.0054
3395.00,0.0054
3394.00,0.0054
3393.00,0.0054
3392.00,0.0054
3391.00,0.0054
3390.00,0.0054
3389.00,0.0054
3388.00,0.0054
3387.00,0.0055
3386.00,0.0055
3385.00,0.0055
3384.00,0.0055
3383.00,0.0055
3382.00,0.0055
3381.00,0.0055
3380.00,0.0055
3379.00,0.0055
3378.00,0.0055
3377.00,0.0055
3376.00,0.0055
3375.00,0.0055
3374.00,0.0056
3373.00,0.0056
3372.00,0.0056
3371.00,0.0055
3370.00,0.0055
3369.00,0.0055
3368.00,0.0055
3367.00,0.0055
3366.00,0.0056
3365.00,0.0056
3364.00,0.0056
3363.00,0.0056
3362.00,0.0056
3361.00,0.0056
3360.00,0.0056
3359.00,0.0056
3358.00,0.0057
3357.00,0.0057
3356.00,0.0058
3355.00,0.0058
3354.00,0.0058
3353.00,0.0057
3352.00,0.0057
3351.00,0.0057
3350.00,0.0058
3349.00,0.0058
3348.00,0.0058
3347.00,0.0058
3346.00,0.0058
3345.00,0.0058
3344.00,0.0058
3343.00,0.0058
3342.00,0.0058
3341.00,0.0059
3340.00,0.0059
3339.00,0.0059
3338.00,0.0059
3337.00,0.0059
3336.00,0.0059
3335.00,0.0059
3334.00,0.0059
3333.00,0.0059
3332.00,0.0060
3331.00,0.0060
3330.00,0.0060
3329.00,0.0060
3328.00,0.0060
3327.00,0.0060
3326.00,0.0059
3325.00,0.0059
3324.00,0.0059
3323.00,0.0059
3322.00,0.0060
3321.00,0.0060
3320.00,0.0061
3319.00,0.0061
3318.00,0.0061
3317.00,0.0061
3316.00,0.0061
3315.00,0.0061
3314.00,0.0061
3313.00,0.0061
3312.00,0.0061
3311.00,0.0061
3310.00,0.0061
3309.00,0.0060
3308.00,0.0060
3307.00,0.0060
3306.00,0.0060
3305.00,0.0060
3304.00,0.0061
3303.00,0.0061
3302.00,0.0062
3301.00,0.0062
3300.00,0.0063
3299.00,0.0063
3298.00,0.0063
3297.00,0.0063
3296.00,0.0063
3295.00,0.0063
3294.00,0.0063
3293.00,0.0063
3292.00,0.0063
3291.00,0.0063
3290.00,0.0064
3289.00,0.0064
3288.00,0.0065
3287.00,0.0065
3286.00,0.0066
3285.00,0.0066
3284.00,0.0066
3283.00,0.0066
3282.00,0.0066
3281.00,0.0067
3280.00,0.0067
3279.00,0.0067
3278.00,0.0067
3277.00,0.0067
3276.00,0.0067
3275.00,0.0067
3274.00,0.0067
3273.00,0.0067
3272.00,0.0067
3271.00,0.0068
3270.00,0.0068
3269.00,0.0069
3268.00,0.0069
3267.00,0.0069
3266.00,0.0069
3265.00,0.0070
3264.00,0.0070
3263.00,0.0070
3262.00,0.0070
3261.00,0.0070
3260.00,0.0071
3259.00,0.0071
3258.00,0.0071
3257.00,0.0071
3256.00,0.0071
3255.00,0.0072
3254.00,0.0072
3253.00,0.0072
3252.00,0.0072
3251.00,0.0072
3250.00,0.0072
3249.00,0.0072
3248.00,0.0072
3247.00,0.0072
3246.00,0.0073
3245.00,0.0073
3244.00,0.0073
3243.00,0.0073
3242.00,0.0074
3241.00,0.0074
3240.00,0.0074
3239.00,0.0074
3238.00,0.0074
3237.00,0.0074
3236.00,0.0074
3235.00,0.0074
3234.00,0.0074
3233.00,0.0074
3232.00,0.0074
3231.00,0.0074
3230.00,0.0075
3229.00,0.0075
3228.00,0.0076
3227.00,0.0076
3226.00,0.0076
3225.00,0.0076
3224.00,0.0077
3223.00,0.0077
3222.00,0.0077
3221.00,0.0077
3220.00,0.0078
3219.00,0.0078
3218.00,0.0078
3217.00,0.0078
3216.00,0.0079
3215.00,0.0079
3214.00,0.0079
3213.00,0.0079
3212.00,0.0079
3211.00,0.0080
3210.00,0.0080
3209.00,0.0080
3208.00,0.0080
3207.00,0.0080
3206.00,0.0080
3205.00,0.0081
3204.00,0.0081
3203.00,0.0081
3202.00,0.0080
3201.00,0.0080
3200.00,0.0081
3199.00,0.0081
3198.00,0.0081
3197.00,0.0081
3196.00,0.0082
3195.00,0.0082
3194.00,0.0082
3193.00,0.0082
3192.00,0.0082
3191.00,0.0082
3190.00,0.0082
3189.00,0.0082
3188.00,0.0082
3187.00,0.0082
3186.00,0.0082
3185.00,0.0082
3184.00,0.0082
3183.00,0.0082
3182.00,0.0082
3181.00,0.0082
3180.00,0.0082
3179.00,0.0083
3178.00,0.0083
3177.00,0.0083
3176.00,0.0083
3175.00,0.0083
3174.00,0.0083
3173.00,0.0083
3172.00,0.0083
3171.00,0.0084
3170.00,0.0084
3169.00,0.0084
3168.00,0.0084
3167.00,0.0084
3166.00,0.0085
3165.00,0.0085
3164.00,0.0086
3163.00,0.0086
3162.00,0.0086
3161.00,0.0086
3160.00,0.0086
3159.00,0.0086
3158.00,0.0086
3157.00,0.0086
3156.00,0.0086
3155.00,0.0086
3154.00,0.0086
3153.00,0.0087
3152.00,0.0087
3151.00,0.0087
3150.00,0.0087
3149.00,0.0088
3148.00,0.0088
3147.00,0.0088
3146.00,0.0088
3145.00,0.0088
3144.00,0.0088
3143.00,0.0088
3142.00,0.0088
3141.00,0.0088
3140.00,0.0089
3139.00,0.0089
3138.00,0.0089
3137.00,0.0089
3136.00,0.0090
3135.00,0.0090
3134.00,0.0090
3133.00,0.0091
3132.00,0.0091
3131.00,0.0091
3130.00,0.0091
3129.00,0.0091
3128.00,0.0091
3127.00,0.0092
3126.00,0.0092
3125.00,0.0092
3124.00,0.0092
3123.00,0.0092
3122.00,0.0093
3121.00,0.0093
3120.00,0.0093
3119.00,0.0093
3118.00,0.0093
3117.00,0.0094
3116.00,0.0094
3115.00,0.0094
3114.00,0.0094
3113.00,0.0094
3112.00,0.0094
3111.00,0.0094
3110.00,0.0095
3109.00,0.0095
3108.00,0.0095
3107.00,0.0095
3106.00,0.0095
3105.00,0.0096
3104.00,0.0096
3103.00,0.0096
3102.00,0.0096
3101.00,0.0096
3100.00,0.0096
3099.00,0.0096
3098.00,0.0097
3097.00,0.0097
3096.00,0.0097
3095.00,0.0098
3094.00,0.0098
3093.00,0.0099
3092.00,0.0100
3091.00,0.0101
3090.00,0.0101
3089.00,0.0102
3088.00,0.0103
3087.00,0.0104
3086.00,0.0105
3085.00,0.0105
3084.00,0.0106
3083.00,0.0107
3082.00,0.0108
3081.00,0.0109
3080.00,0.0109
3079.00,0.0110
3078.00,0.0110
3077.00,0.0111
3076.00,0.0111
3075.00,0.0112
3074.00,0.0112
3073.00,0.0112
3072.00,0.0112
3071.00,0.0112
3070.00,0.0112
3069.00,0.0112
3068.00,0.0112
3067.00,0.0112
3066.00,0.0113
3065.00,0.0113
3064.00,0.0113
3063.00,0.0113
3062.00,0.0113
3061.00,0.0113
3060.00,0.0113
3059.00,0.0113
3058.00,0.0114
3057.00,0.0114
3056.00,0.0114
3055.00,0.0114
3054.00,0.0114
3053.00,0.0114
3052.00,0.0115
3051.00,0.0115
3050.00,0.0116
3049.00,0.0116
3048.00,0.0117
3047.00,0.0117
3046.00,0.0118
3045.00,0.0119
3044.00,0.0119
3043.00,0.0119
3042.00,0.0120
3041.00,0.0120
3040.00,0.0121
3039.00,0.0121
3038.00,0.0122
3037.00,0.0122
3036.00,0.0122
3035.00,0.0122
3034.00,0.0122
3033.00,0.0122
3032.00,0.0123
3031.00,0.0123
3030.00,0.0123
3029.00,0.0124
3028.00,0.0124
3027.00,0.0124
3026.00,0.0124
3025.00,0.0125
3024.00,0.0125
3023.00,0.0125
3022.00,0.0126
3021.00,0.0126
3020.00,0.0127
3019.00,0.0128
3018.00,0.0129
3017.00,0.0129
3016.00,0.0130
3015.00,0.0131
3014.00,0.0132
3013.00,0.0133
3012.00,0.0134
3011.00,0.0135
3010.00,0.0136
3009.00,0.0137
3008.00,0.0138
3007.00,0.0139
3006.00,0.0140
3005.00,0.0142
3004.00,0.0144
3003.00,0.0145
3002.00,0.0147
3001.00,0.0149
3000.00,0.0151
2999.00,0.0152
2998.00,0.0154
2997.00,0.0156
2996.00,0.0158
2995.00,0.0160
2994.00,0.0161
2993.00,0.0163
2992.00,0.0165
2991.00,0.0166
2990.00,0.0168
2989.00,0.0169
2988.00,0.0171
2987.00,0.0172
2986.00,0.0173
2985.00,0.0174
2984.00,0.0174
2983.00,0.0175
2982.00,0.0175
2981.00,0.0175
2980.00,0.0175
2979.00,0.0176
2978.00,0.0176
2977.00,0.0176
2976.00,0.0177
2975.00,0.0177
2974.00,0.0178
2973.00,0.0179
2972.00,0.0180
2971.00,0.0181
2970.00,0.0183
2969.00,0.0184
2968.00,0.0186
2967.00,0.0189
2966.00,0.0191
2965.00,0.0194
2964.00,0.0197
2963.00,0.0200
2962.00,0.0203
2961.00,0.0205
2960.00,0.0207
2959.00,0.0209
2958.00,0.0211
2957.00,0.0213
2956.00,0.0215
2955.00,0.0217
2954.00,0.0218
2953.00,0.0219
2952.00,0.0220
2951.00,0.0220
2950.00,0.0220
2949.00,0.0221
2948.00,0.0221
2947.00,0.0221
2946.00,0.0221
2945.00,0.0221
2944.00,0.0221
2943.00,0.0221
2942.00,0.0222
2941.00,0.0222
2940.00,0.0223
2939.00,0.0223
2938.00,0.0223
2937.00,0.0223
2936.00,0.0223
2935.00,0.0224
2934.00,0.0224
2933.00,0.0225
2932.00,0.0225
2931.00,0.0226
2930.00,0.0227
2929.00,0.0228
2928.00,0.0229
2927.00,0.0229
2926.00,0.0230
2925.00,0.0230
2924.00,0.0230
2923.00,0.0230
2922.00,0.0230
2921.00,0.0229
2920.00,0.0229
2919.00,0.0228
2918.00,0.0227
2917.00,0.0226
2916.00,0.0225
2915.00,0.0223
2914.00,0.0222
2913.00,0.0221
2912.00,0.0220
2911.00,0.0219
2910.00,0.0218
2909.00,0.0218
2908.00,0.0217
2907.00,0.0216
2906.00,0.0216
2905.00,0.0215
2904.00,0.0215
2903.00,0.0214
2902.00,0.0214
2901.00,0.0214
2900.00,0.0215
2899.00,0.0215
2898.00,0.0215
2897.00,0.0215
2896.00,0.0215
2895.00,0.0215
2894.00,0.0214
2893.00,0.0214
2892.00,0.0214
2891.00,0.0214
2890.00,0.0214
2889.00,0.0214
2888.00,0.0214
2887.00,0.0214
2886.00,0.0214
2885.00,0.0213
2884.00,0.0213
2883.00,0.0213
2882.00,0.0213
2881.00,0.0213
2880.00,0.0213
2879.00,0.0213
2878.00,0.0212
2877.00,0.0212
2876.00,0.0211
2875.00,0.0210
2874.00,0.0209
2873.00,0.0209
2872.00,0.0208
2871.00,0.0207
2870.00,0.0206
2869.00,0.0205
2868.00,0.0204
2867.00,0.0203
2866.00,0.0202
2865.00,0.0201
2864.00,0.0200
2863.00,0.0199
2862.00,0.0197
2861.00,0.0196
2860.00,0.0195
2859.00,0.0194
2858.00,0.0192
2857.00,0.0191
2856.00,0.0190
2855.00,0.0188
2854.00,0.0186
2853.00,0.0184
2852.00,0.0182
2851.00,0.0180
2850.00,0.0178
2849.00,0.0177
2848.00,0.0175
2847.00,0.0174
2846.00,0.0173
2845.00,0.0172
2844.00,0.0171
2843.00,0.0170
2842.00,0.0170
2841.00,0.0169
2840.00,0.0169
2839.00,0.0168
2838.00,0.0168
2837.00,0.0168
2836.00,0.0168
2835.00,0.0168
2834.00,0.0167
2833.00,0.0167
2832.00,0.0167
2831.00,0.0167
2830.00,0.0167
2829.00,0.0167
2828.00,0.0166
2827.00,0.0166
2826.00,0.0165
2825.00,0.0165
2824.00,0.0164
2823.00,0.0164
2822.00,0.0163
2821.00,0.0163
2820.00,0.0162
2819.00,0.0162
2818.00,0.0161
2817.00,0.0160
2816.00,0.0160
2815.00,0.0159
2814.00,0.0159
2813.00,0.0158
2812.00,0.0157
2811.00,0.0157
2810.00,0.0156
2809.00,0.0156
2808.00,0.0155
2807.00,0.0155
2806.00,0.0154
2805.00,0.0154
2804.00,0.0154
2803.00,0.0154
2802.00,0.0154
2801.00,0.0154
2800.00,0.0155
2799.00,0.0154
2798.00,0.0154
2797.00,0.0154
2796.00,0.0155
2795.00,0.0155
2794.00,0.0155
2793.00,0.0155
2792.00,0.0156
2791.00,0.0156
2790.00,0.0156
2789.00,0.0156
2788.00,0.0156
2787.00,0.0156
2786.00,0.0156
2785.00,0.0156
2784.00,0.0156
2783.00,0.0157
2782.00,0.0157
2781.00,0.0157
2780.00,0.0156
2779.00,0.0156
2778.00,0.0156
2777.00,0.0156
2776.00,0.0156
2775.00,0.0156
2774.00,0.0156
2773.00,0.0156
2772.00,0.0156
2771.00,0.0156
2770.00,0.0155
2769.00,0.0155
2768.00,0.0155
2767.00,0.0154
2766.00,0.0154
2765.00,0.0154
2764.00,0.0153
2763.00,0.0153
2762.00,0.0152
2761.00,0.0152
2760.00,0.0152
2759.00,0.0151
2758.00,0.0151
2757.00,0.0151
2756.00,0.0150
2755.00,0.0150
2754.00,0.0149
2753.00,0.0148
2752.00,0.0147
2751.00,0.0147
2750.00,0.0146
2749.00,0.0145
2748.00,0.0144
2747.00,0.0143
2746.00,0.0143
2745.00,0.0142
2744.00,0.0141
2743.00,0.0140
2742.00,0.0139
2741.00,0.0138
2740.00,0.0138
2739.00,0.0137
2738.00,0.0136
2737.00,0.0135
2736.00,0.0134
2735.00,0.0133
2734.00,0.0132
2733.00,0.0131
2732.00,0.0130
2731.00,0.0129
2730.00,0.0128
2729.00,0.0128
2728.00,0.0127
2727.00,0.0126
2726.00,0.0125
2725.00,0.0124
2724.00,0.0124
2723.00,0.0123
2722.00,0.0122
2721.00,0.0121
2720.00,0.0120
2719.00,0.0120
2718.00,0.0119
2717.00,0.0118
2716.00,0.0118
2715.00,0.0117
2714.00,0.0116
2713.00,0.0116
2712.00,0.0115
2711.00,0.0114
2710.00,0.0114
2709.00,0.0113
2708.00,0.0113
2707.00,0.0113
2706.00,0.0112
2705.00,0.0112
2704.00,0.0112
2703.00,0.0111
2702.00,0.0111
2701.00,0.0111
2700.00,0.0111
2699.00,0.0110
2698.00,0.0110
2697.00,0.0110
2696.00,0.0110
2695.00,0.0110
2694.00,0.0110
2693.00,0.0110
2692.00,0.0110
2691.00,0.0110
2690.00,0.0110
2689.00,0.0110
2688.00,0.0110
2687.00,0.0110
2686.00,0.0110
2685.00,0.0110
2684.00,0.0110
2683.00,0.0110
2682.00,0.0110
2681.00,0.0110
2680.00,0.0110
2679.00,0.0110
2678.00,0.0110
2677.00,0.0110
2676.00,0.0111
2675.00,0.0111
2674.00,0.0111
2673.00,0.0111
2672.00,0.0111
2671.00,0.0111
2670.00,0.0111
2669.00,0.0111
2668.00,0.0111
2667.00,0.0111
2666.00,0.0112
2665.00,0.0113
2664.00,0.0114
2663.00,0.0114
2662.00,0.0115
2661.00,0.0115
2660.00,0.0115
2659.00,0.0116
2658.00,0.0117
2657.00,0.0117
2656.00,0.0118
2655.00,0.0119
2654.00,0.0120
2653.00,0.0120
2652.00,0.0121
2651.00,0.0122
2650.00,0.0123
2649.00,0.0124
2648.00,0.0125
2647.00,0.0126
2646.00,0.0127
2645.00,0.0127
2644.00,0.0128
2643.00,0.0129
2642.00,0.0130
2641.00,0.0131
2640.00,0.0132
2639.00,0.0133
2638.00,0.0134
2637.00,0.0135
2636.00,0.0136
2635.00,0.0137
2634.00,0.0138
2633.00,0.0139
2632.00,0.0140
2631.00,0.0141
2630.00,0.0142
2629.00,0.0143
2628.00,0.0144
2627.00,0.0145
2626.00,0.0146
2625.00,0.0147
2624.00,0.0148
2623.00,0.0149
2622.00,0.0149
2621.00,0.0150
2620.00,0.0151
2619.00,0.0151
2618.00,0.0152
2617.00,0.0153
2616.00,0.0153
2615.00,0.0154
2614.00,0.0155
2613.00,0.0155
2612.00,0.0156
2611.00,0.0156
2610.00,0.0157
2609.00,0.0157
2608.00,0.0157
2607.00,0.0158
2606.00,0.0158
2605.00,0.0158
2604.00,0.0158
2603.00,0.0158
2602.00,0.0158
2601.00,0.0158
2600.00,0.0158
2599.00,0.0158
2598.00,0.0158
2597.00,0.0157
2596.00,0.0157
2595.00,0.0157
2594.00,0.0157
2593.00,0.0156
2592.00,0.0156
2591.00,0.0156
2590.00,0.0156
2589.00,0.0156
2588.00,0.0156
2587.00,0.0155
2586.00,0.0155
2585.00,0.0154
2584.00,0.0153
2583.00,0.0153
2582.00,0.0152
2581.00,0.0152
2580.00,0.0151
2579.00,0.0151
2578.00,0.0151
2577.00,0.0151
2576.00,0.0150
2575.00,0.0150
2574.00,0.0149
2573.00,0.0149
2572.00,0.0149
2571.00,0.0149
2570.00,0.0149
2569.00,0.0148
2568.00,0.0147
2567.00,0.0147
2566.00,0.0146
2565.00,0.0146
2564.00,0.0146
2563.00,0.0146
2562.00,0.0145
2561.00,0.0145
2560.00,0.0145
2559.00,0.0145
2558.00,0.0145
2557.00,0.0144
2556.00,0.0144
2555.00,0.0143
2554.00,0.0142
2553.00,0.0142
2552.00,0.0142
2551.00,0.0142
2550.00,0.0142
2549.00,0.0142
2548.00,0.0143
2547.00,0.0143
2546.00,0.0143
2545.00,0.0143
2544.00,0.0143
2543.00,0.0143
2542.00,0.0143
2541.00,0.0143
2540.00,0.0144
2539.00,0.0144
2538.00,0.0145
2537.00,0.0145
2536.00,0.0145
2535.00,0.0145
2534.00,0.0145
2533.00,0.0146
2532.00,0.0146
2531.00,0.0147
2530.00,0.0148
2529.00,0.0148
2528.00,0.0148
2527.00,0.0148
2526.00,0.0149
2525.00,0.0149
2524.00,0.0149
2523.00,0.0149
2522.00,0.0149
2521.00,0.0150
2520.00,0.0150
2519.00,0.0150
2518.00,0.0150
2517.00,0.0151
2516.00,0.0151
2515.00,0.0151
2514.00,0.0151
2513.00,0.0150
2512.00,0.0150
2511.00,0.0150
2510.00,0.0150
2509.00,0.0151
2508.00,0.0151
2507.00,0.0152
2506.00,0.0152
2505.00,0.0152
2504.00,0.0152
2503.00,0.0152
2502.00,0.0152
2501.00,0.0152
2500.00,0.0152
2499.00,0.0152
2498.00,0.0153
2497.00,0.0153
2496.00,0.0153
2495.00,0.0153
2494.00,0.0154
2493.00,0.0154
2492.00,0.0154
2491.00,0.0154
2490.00,0.0154
2489.00,0.0155
2488.00,0.0155
2487.00,0.0155
2486.00,0.0155
2485.00,0.0156
2484.00,0.0156
2483.00,0.0155
2482.00,0.0155
2481.00,0.0155
2480.00,0.0155
2479.00,0.0155
2478.00,0.0155
2477.00,0.0155
2476.00,0.0154
2475.00,0.0154
2474.00,0.0154
2473.00,0.0153
2472.00,0.0153
2471.00,0.0153
2470.00,0.0153
2469.00,0.0153
2468.00,0.0152
2467.00,0.0152
2466.00,0.0151
2465.00,0.0151
2464.00,0.0150
2463.00,0.0150
2462.00,0.0150
2461.00,0.0149
2460.00,0.0149
2459.00,0.0149
2458.00,0.0149
2457.00,0.0148
2456.00,0.0148
2455.00,0.0147
2454.00,0.0146
2453.00,0.0145
2452.00,0.0145
2451.00,0.0145
2450.00,0.0144
2449.00,0.0144
2448.00,0.0143
2447.00,0.0143
2446.00,0.0142
2445.00,0.0141
2444.00,0.0140
2443.00,0.0140
2442.00,0.0139
2441.00,0.0138
2440.00,0.0137
2439.00,0.0136
2438.00,0.0136
2437.00,0.0135
2436.00,0.0134
2435.00,0.0133
2434.00,0.0132
2433.00,0.0131
2432.00,0.0131
2431.00,0.0130
2430.00,0.0129
2429.00,0.0129
2428.00,0.0128
2427.00,0.0127
2426.00,0.0127
2425.00,0.0126
2424.00,0.0126
2423.00,0.0125
2422.00,0.0124
2421.00,0.0124
2420.00,0.0124
2419.00,0.0123
2418.00,0.0123
2417.00,0.0122
2416.00,0.0122
2415.00,0.0121
2414.00,0.0121
2413.00,0.0120
2412.00,0.0120
2411.00,0.0119
2410.00,0.0119
2409.00,0.0118
2408.00,0.0117
2407.00,0.0117
2406.00,0.0116
2405.00,0.0116
2404.00,0.0116
2403.00,0.0116
2402.00,0.0115
2401.00,0.0114
2400.00,0.0114
2399.00,0.0113
2398.00,0.0112
2397.00,0.0112
2396.00,0.0111
2395.00,0.0110
2394.00,0.0110
2393.00,0.0109
2392.00,0.0109
2391.00,0.0109
2390.00,0.0108
2389.00,0.0107
2388.00,0.0107
2387.00,0.0106
2386.00,0.0105
2385.00,0.0104
2384.00,0.0103
2383.00,0.0102
2382.00,0.0102
2381.00,0.0101
2380.00,0.0101
2379.00,0.0101
2378.00,0.0100
2377.00,0.0100
2376.00,0.0099
2375.00,0.0098
2374.00,0.0098
2373.00,0.0097
2372.00,0.0097
2371.00,0.0097
2370.00,0.0096
2369.00,0.0095
2368.00,0.0094
2367.00,0.0094
2366.00,0.0094
2365.00,0.0094
2364.00,0.0095
2363.00,0.0095
2362.00,0.0094
2361.00,0.0093
2360.00,0.0092
2359.00,0.0092
2358.00,0.0091
2357.00,0.0090
2356.00,0.0089
2355.00,0.0088
2354.00,0.0087
2353.00,0.0087
2352.00,0.0087
2351.00,0.0088
2350.00,0.0089
2349.00,0.0090
2348.00,0.0090
2347.00,0.0090
2346.00,0.0090
2345.00,0.0090
2344.00,0.0089
2343.00,0.0089
2342.00,0.0088
2341.00,0.0087
2340.00,0.0087
2339.00,0.0086
2338.00,0.0086
2337.00,0.0086
2336.00,0.0086
2335.00,0.0085
2334.00,0.0084
2333.00,0.0083
2332.00,0.0082
2331.00,0.0082
2330.00,0.0082
2329.00,0.0083
2328.00,0.0085
2327.00,0.0088
2326.00,0.0091
2325.00,0.0092
2324.00,0.0091
2323.00,0.0089
2322.00,0.0087
2321.00,0.0085
2320.00,0.0084
2319.00,0.0083
2318.00,0.0083
2317.00,0.0083
2316.00,0.0082
2315.00,0.0081
2314.00,0.0079
2313.00,0.0078
2312.00,0.0077
2311.00,0.0077
2310.00,0.0076
2309.00,0.0076
2308.00,0.0077
2307.00,0.0077
2306.00,0.0077
2305.00,0.0077
2304.00,0.0077
2303.00,0.0077
2302.00,0.0077
2301.00,0.0077
2300.00,0.0077
2299.00,0.0077
2298.00,0.0077
2297.00,0.0077
2296.00,0.0077
2295.00,0.0077
2294.00,0.0078
2293.00,0.0078
2292.00,0.0079
2291.00,0.0079
2290.00,0.0079
2289.00,0.0079
2288.00,0.0079
2287.00,0.0079
2286.00,0.0078
2285.00,0.0077
2284.00,0.0077
2283.00,0.0076
2282.00,0.0076
2281.00,0.0075
2280.00,0.0075
2279.00,0.0074
2278.00,0.0073
2277.00,0.0072
2276.00,0.0071
2275.00,0.0070
2274.00,0.0069
2273.00,0.0068
2272.00,0.0068
2271.00,0.0069
2270.00,0.0069
2269.00,0.0068
2268.00,0.0067
2267.00,0.0066
2266.00,0.0065
2265.00,0.0065
2264.00,0.0065
2263.00,0.0064
2262.00,0.0064
2261.00,0.0063
2260.00,0.0063
2259.00,0.0063
2258.00,0.0063
2257.00,0.0063
2256.00,0.0062
2255.00,0.0062
2254.00,0.0061
2253.00,0.0060
2252.00,0.0060
2251.00,0.0061
2250.00,0.0061
2249.00,0.0062
2248.00,0.0062
2247.00,0.0062
2246.00,0.0061
2245.00,0.0061
2244.00,0.0060
2243.00,0.0060
2242.00,0.0060
2241.00,0.0061
2240.00,0.0061
2239.00,0.0060
2238.00,0.0059
2237.00,0.0058
2236.00,0.0057
2235.00,0.0057
2234.00,0.0057
2233.00,0.0058
2232.00,0.0059
2231.00,0.0059
2230.00,0.0059
2229.00,0.0058
2228.00,0.0058
2227.00,0.0057
2226.00,0.0057
2225.00,0.0056
2224.00,0.0056
2223.00,0.0057
2222.00,0.0056
2221.00,0.0056
2220.00,0.0056
2219.00,0.0056
2218.00,0.0056
2217.00,0.0055
2216.00,0.0054
2215.00,0.0052
2214.00,0.0051
2213.00,0.0051
2212.00,0.0052
2211.00,0.0052
2210.00,0.0051
2209.00,0.0051
2208.00,0.0051
2207.00,0.0052
2206.00,0.0052
2205.00,0.0052
2204.00,0.0052
2203.00,0.0053
2202.00,0.0053
2201.00,0.0054
2200.00,0.0055
2199.00,0.0054
2198.00,0.0054
2197.00,0.0053
2196.00,0.0052
2195.00,0.0051
2194.00,0.0051
2193.00,0.0051
2192.00,0.0051
2191.00,0.0052
2190.00,0.0053
2189.00,0.0054
2188.00,0.0055
2187.00,0.0055
2186.00,0.0055
2185.00,0.0054
2184.00,0.0051
2183.00,0.0048
2182.00,0.0045
2181.00,0.0044
2180.00,0.0043
2179.00,0.0044
2178.00,0.0043
2177.00,0.0043
2176.00,0.0044
2175.00,0.0046
2174.00,0.0047
2173.00,0.0047
2172.00,0.0047
2171.00,0.0047
2170.00,0.0047
2169.00,0.0047
2168.00,0.0047
2167.00,0.0048
2166.00,0.0049
2165.00,0.0051
2164.00,0.0053
2163.00,0.0054
2162.00,0.0050
2161.00,0.0042
2160.00,0.0031
2159.00,0.0021
2158.00,0.0015
2157.00,0.0014
2156.00,0.0015
2155.00,0.0017
2154.00,0.0018
2153.00,0.0020
2152.00,0.0022
2151.00,0.0024
2150.00,0.0025
2149.00,0.0027
2148.00,0.0027
2147.00,0.0028
2146.00,0.0028
2145.00,0.0028
2144.00,0.0028
2143.00,0.0028
2142.00,0.0028
2141.00,0.0030
2140.00,0.0031
2139.00,0.0032
2138.00,0.0031
2137.00,0.0030
2136.00,0.0028
2135.00,0.0027
2134.00,0.0026
2133.00,0.0027
2132.00,0.0029
2131.00,0.0030
2130.00,0.0031
2129.00,0.0032
2128.00,0.0033
2127.00,0.0034
2126.00,0.0035
2125.00,0.0035
2124.00,0.0036
2123.00,0.0036
2122.00,0.0036
2121.00,0.0036
2120.00,0.0037
2119.00,0.0038
2118.00,0.0039
2117.00,0.0040
2116.00,0.0041
2115.00,0.0042
2114.00,0.0042
2113.00,0.0042
2112.00,0.0042
2111.00,0.0043
2110.00,0.0042
2109.00,0.0043
2108.00,0.0043
2107.00,0.0043
2106.00,0.0044
2105.00,0.0044
2104.00,0.0045
2103.00,0.0045
2102.00,0.0045
2101.00,0.0045
2100.00,0.0044
2099.00,0.0044
2098.00,0.0043
2097.00,0.0041
2096.00,0.0039
2095.00,0.0038
2094.00,0.0038
2093.00,0.0039
2092.00,0.0041
2091.00,0.0043
2090.00,0.0043
2089.00,0.0043
2088.00,0.0043
2087.00,0.0043
2086.00,0.0042
2085.00,0.0043
2084.00,0.0044
2083.00,0.0046
2082.00,0.0047
2081.00,0.0047
2080.00,0.0047
2079.00,0.0047
2078.00,0.0046
2077.00,0.0046
2076.00,0.0046
2075.00,0.0046
2074.00,0.0045
2073.00,0.0045
2072.00,0.0045
2071.00,0.0045
2070.00,0.0046
2069.00,0.0047
2068.00,0.0049
2067.00,0.0050
2066.00,0.0049
2065.00,0.0048
2064.00,0.0047
2063.00,0.0047
2062.00,0.0048
2061.00,0.0049
2060.00,0.0050
2059.00,0.0050
2058.00,0.0049
2057.00,0.0048
2056.00,0.0048
2055.00,0.0048
2054.00,0.0049
2053.00,0.0053
2052.00,0.0056
2051.00,0.0058
2050.00,0.0057
2049.00,0.0055
2048.00,0.0053
2047.00,0.0052
2046.00,0.0053
2045.00,0.0054
2044.00,0.0056
2043.00,0.0058
2042.00,0.0059
2041.00,0.0059
2040.00,0.0060
2039.00,0.0060
2038.00,0.0060
2037.00,0.0060
2036.00,0.0060
2035.00,0.0059
2034.00,0.0058
2033.00,0.0056
2032.00,0.0055
2031.00,0.0055
2030.00,0.0054
2029.00,0.0054
2028.00,0.0054
2027.00,0.0053
2026.00,0.0053
2025.00,0.0053
2024.00,0.0055
2023.00,0.0056
2022.00,0.0057
2021.00,0.0058
2020.00,0.0059
2019.00,0.0061
2018.00,0.0060
2017.00,0.0059
2016.00,0.0059
2015.00,0.0058
2014.00,0.0057
2013.00,0.0056
2012.00,0.0056
2011.00,0.0057
2010.00,0.0057
2009.00,0.0057
2008.00,0.0057
2007.00,0.0055
2006.00,0.0052
2005.00,0.0052
2004.00,0.0054
2003.00,0.0056
2002.00,0.0057
2001.00,0.0058
2000.00,0.0059
1999.00,0.0059
1998.00,0.0060
1997.00,0.0061
1996.00,0.0062
1995.00,0.0064
1994.00,0.0065
1993.00,0.0066
1992.00,0.0068
1991.00,0.0069
1990.00,0.0069
1989.00,0.0069
1988.00,0.0070
1987.00,0.0070
1986.00,0.0070
1985.00,0.0070
1984.00,0.0071
1983.00,0.0073
1982.00,0.0075
1981.00,0.0076
1980.00,0.0076
1979.00,0.0073
1978.00,0.0068
1977.00,0.0064
1976.00,0.0063
1975.00,0.0064
1974.00,0.0065
1973.00,0.0065
1972.00,0.0066
1971.00,0.0067
1970.00,0.0068
1969.00,0.0069
1968.00,0.0071
1967.00,0.0071
1966.00,0.0069
1965.00,0.0066
1964.00,0.0065
1963.00,0.0066
1962.00,0.0065
1961.00,0.0064
1960.00,0.0063
1959.00,0.0062
1958.00,0.0062
1957.00,0.0065
1956.00,0.0068
1955.00,0.0070
1954.00,0.0070
1953.00,0.0070
1952.00,0.0070
1951.00,0.0071
1950.00,0.0072
1949.00,0.0074
1948.00,0.0075
1947.00,0.0076
1946.00,0.0076
1945.00,0.0076
1944.00,0.0076
1943.00,0.0076
1942.00,0.0076
1941.00,0.0075
1940.00,0.0074
1939.00,0.0073
1938.00,0.0072
1937.00,0.0071
1936.00,0.0070
1935.00,0.0070
1934.00,0.0069
1933.00,0.0069
1932.00,0.0068
1931.00,0.0069
1930.00,0.0069
1929.00,0.0069
1928.00,0.0069
1927.00,0.0069
1926.00,0.0069
1925.00,0.0070
1924.00,0.0071
1923.00,0.0072
1922.00,0.0072
1921.00,0.0070
1920.00,0.0068
1919.00,0.0067
1918.00,0.0067
1917.00,0.0068
1916.00,0.0068
1915.00,0.0068
1914.00,0.0068
1913.00,0.0067
1912.00,0.0067
1911.00,0.0067
1910.00,0.0067
1909.00,0.0066
1908.00,0.0066
1907.00,0.0065
1906.00,0.0064
1905.00,0.0063
1904.00,0.0063
1903.00,0.0063
1902.00,0.0062
1901.00,0.0061
1900.00,0.0061
1899.00,0.0061
1898.00,0.0060
1897.00,0.0060
1896.00,0.0060
1895.00,0.0060
1894.00,0.0060
1893.00,0.0059
1892.00,0.0058
1891.00,0.0057
1890.00,0.0057
1889.00,0.0057
1888.00,0.0057
1887.00,0.0057
1886.00,0.0057
1885.00,0.0057
1884.00,0.0056
1883.00,0.0056
1882.00,0.0055
1881.00,0.0054
1880.00,0.0054
1879.00,0.0054
1878.00,0.0053
1877.00,0.0053
1876.00,0.0053
1875.00,0.0053
1874.00,0.0054
1873.00,0.0054
1872.00,0.0053
1871.00,0.0053
1870.00,0.0053
1869.00,0.0054
1868.00,0.0055
1867.00,0.0054
1866.00,0.0052
1865.00,0.0051
1864.00,0.0050
1863.00,0.0050
1862.00,0.0050
1861.00,0.0050
1860.00,0.0051
1859.00,0.0051
1858.00,0.0050
1857.00,0.0050
1856.00,0.0049
1855.00,0.0050
1854.00,0.0050
1853.00,0.0050
1852.00,0.0051
1851.00,0.0053
1850.00,0.0051
1849.00,0.0051
1848.00,0.0052
1847.00,0.0054
1846.00,0.0052
1845.00,0.0051
1844.00,0.0054
1843.00,0.0057
1842.00,0.0057
1841.00,0.0056
1840.00,0.0055
1839.00,0.0056
1838.00,0.0056
1837.00,0.0056
1836.00,0.0057
1835.00,0.0057
1834.00,0.0056
1833.00,0.0055
1832.00,0.0053
1831.00,0.0053
1830.00,0.0053
1829.00,0.0055
1828.00,0.0055
1827.00,0.0055
1826.00,0.0054
1825.00,0.0054
1824.00,0.0054
1823.00,0.0053
1822.00,0.0051
1821.00,0.0050
1820.00,0.0049
1819.00,0.0049
1818.00,0.0048
1817.00,0.0047
1816.00,0.0047
1815.00,0.0048
1814.00,0.0050
1813.00,0.0051
1812.00,0.0052
1811.00,0.0053
1810.00,0.0054
1809.00,0.0055
1808.00,0.0056
1807.00,0.0057
1806.00,0.0059
1805.00,0.0062
1804.00,0.0065
1803.00,0.0068
1802.00,0.0070
1801.00,0.0071
1800.00,0.0073
1799.00,0.0077
1798.00,0.0081
1797.00,0.0085
1796.00,0.0087
1795.00,0.0088
1794.00,0.0089
1793.00,0.0093
1792.00,0.0099
1791.00,0.0105
1790.00,0.0108
1789.00,0.0111
1788.00,0.0115
1787.00,0.0121
1786.00,0.0127
1785.00,0.0136
1784.00,0.0146
1783.00,0.0157
1782.00,0.0172
1781.00,0.0191
1780.00,0.0214
1779.00,0.0241
1778.00,0.0271
1777.00,0.0305
1776.00,0.0342
1775.00,0.0379
1774.00,0.0418
1773.00,0.0461
1772.00,0.0508
1771.00,0.0551
1770.00,0.0588
1769.00,0.0617
1768.00,0.0640
1767.00,0.0655
1766.00,0.0661
1765.00,0.0661
1764.00,0.0654
1763.00,0.0641
1762.00,0.0623
1761.00,0.0604
1760.00,0.0589
1759.00,0.0576
1758.00,0.0566
1757.00,0.0557
1756.00,0.0552
1755.00,0.0548
1754.00,0.0545
1753.00,0.0539
1752.00,0.0527
1751.00,0.0507
1750.00,0.0481
1749.00,0.0452
1748.00,0.0424
1747.00,0.0398
1746.00,0.0375
1745.00,0.0353
1744.00,0.0333
1743.00,0.0313
1742.00,0.0295
1741.00,0.0281
1740.00,0.0274
1739.00,0.0272
1738.00,0.0271
1737.00,0.0269
1736.00,0.0269
1735.00,0.0275
1734.00,0.0287
1733.00,0.0299
1732.00,0.0309
1731.00,0.0320
1730.00,0.0334
1729.00,0.0352
1728.00,0.0373
1727.00,0.0397
1726.00,0.0423
1725.00,0.0452
1724.00,0.0484
1723.00,0.0519
1722.00,0.0554
1721.00,0.0591
1720.00,0.0631
1719.00,0.0679
1718.00,0.0731
1717.00,0.0780
1716.00,0.0822
1715.00,0.0860
1714.00,0.0896
1713.00,0.0928
1712.00,0.0953
1711.00,0.0973
1710.00,0.0985
1709.00,0.0989
1708.00,0.0984
1707.00,0.0972
1706.00,0.0953
1705.00,0.0929
1704.00,0.0903
1703.00,0.0877
1702.00,0.0845
1701.00,0.0806
1700.00,0.0767
1699.00,0.0738
1698.00,0.0717
1697.00,0.0695
1696.00,0.0669
1695.00,0.0646
1694.00,0.0631
1693.00,0.0623
1692.00,0.0623
1691.00,0.0628
1690.00,0.0636
1689.00,0.0648
1688.00,0.0663
1687.00,0.0678
1686.00,0.0694
1685.00,0.0717
1684.00,0.0746
1683.00,0.0776
1682.00,0.0805
1681.00,0.0833
1680.00,0.0859
1679.00,0.0882
1678.00,0.0899
1677.00,0.0913
1676.00,0.0926
1675.00,0.0938
1674.00,0.0947
1673.00,0.0953
1672.00,0.0956
1671.00,0.0954
1670.00,0.0947
1669.00,0.0940
1668.00,0.0937
1667.00,0.0936
1666.00,0.0936
1665.00,0.0937
1664.00,0.0940
1663.00,0.0945
1662.00,0.0952
1661.00,0.0961
1660.00,0.0974
1659.00,0.0987
1658.00,0.1000
1657.00,0.1014
1656.00,0.1025
1655.00,0.1031
1654.00,0.1033
1653.00,0.1031
1652.00,0.1033
1651.00,0.1039
1650.00,0.1047
1649.00,0.1054
1648.00,0.1059
1647.00,0.1061
1646.00,0.1062
1645.00,0.1067
1644.00,0.1077
1643.00,0.1091
1642.00,0.1106
1641.00,0.1123
1640.00,0.1142
1639.00,0.1163
1638.00,0.1183
1637.00,0.1204
1636.00,0.1228
1635.00,0.1256
1634.00,0.1289
1633.00,0.1321
1632.00,0.1354
1631.00,0.1385
1630.00,0.1412
1629.00,0.1435
1628.00,0.1456
1627.00,0.1472
1626.00,0.1483
1625.00,0.1485
1624.00,0.1480
1623.00,0.1468
1622.00,0.1448
1621.00,0.1427
1620.00,0.1404
1619.00,0.1374
1618.00,0.1329
1617.00,0.1268
1616.00,0.1202
1615.00,0.1147
1614.00,0.1106
1613.00,0.1082
1612.00,0.1078
1611.00,0.1102
1610.00,0.1159
1609.00,0.1250
1608.00,0.1362
1607.00,0.1473
1606.00,0.1551
1605.00,0.1576
1604.00,0.1544
1603.00,0.1466
1602.00,0.1361
1601.00,0.1253
1600.00,0.1155
1599.00,0.1071
1598.00,0.0999
1597.00,0.0937
1596.00,0.0881
1595.00,0.0830
1594.00,0.0782
1593.00,0.0738
1592.00,0.0699
1591.00,0.0665
1590.00,0.0634
1589.00,0.0607
1588.00,0.0583
1587.00,0.0564
1586.00,0.0548
1585.00,0.0534
1584.00,0.0522
1583.00,0.0512
1582.00,0.0502
1581.00,0.0492
1580.00,0.0484
1579.00,0.0474
1578.00,0.0463
1577.00,0.0448
1576.00,0.0430
1575.00,0.0411
1574.00,0.0392
1573.00,0.0372
1572.00,0.0352
1571.00,0.0332
1570.00,0.0315
1569.00,0.0302
1568.00,0.0291
1567.00,0.0281
1566.00,0.0271
1565.00,0.0264
1564.00,0.0258
1563.00,0.0252
1562.00,0.0241
1561.00,0.0227
1560.00,0.0217
1559.00,0.0212
1558.00,0.0211
1557.00,0.0213
1556.00,0.0213
1555.00,0.0211
1554.00,0.0209
1553.00,0.0207
1552.00,0.0205
1551.00,0.0202
1550.00,0.0198
1549.00,0.0193
1548.00,0.0189
1547.00,0.0186
1546.00,0.0184
1545.00,0.0183
1544.00,0.0177
1543.00,0.0170
1542.00,0.0162
1541.00,0.0159
1540.00,0.0158
1539.00,0.0160
1538.00,0.0161
1537.00,0.0159
1536.00,0.0153
1535.00,0.0149
1534.00,0.0149
1533.00,0.0150
1532.00,0.0151
1531.00,0.0151
1530.00,0.0150
1529.00,0.0150
1528.00,0.0150
1527.00,0.0150
1526.00,0.0148
1525.00,0.0146
1524.00,0.0144
1523.00,0.0144
1522.00,0.0146
1521.00,0.0148
1520.00,0.0148
1519.00,0.0147
1518.00,0.0147
1517.00,0.0150
1516.00,0.0152
1515.00,0.0153
1514.00,0.0155
1513.00,0.0158
1512.00,0.0164
1511.00,0.0171
1510.00,0.0178
1509.00,0.0183
1508.00,0.0185
1507.00,0.0185
1506.00,0.0190
1505.00,0.0203
1504.00,0.0215
1503.00,0.0226
1502.00,0.0237
1501.00,0.0249
1500.00,0.0262
1499.00,0.0276
1498.00,0.0292
1497.00,0.0306
1496.00,0.0318
1495.00,0.0325
1494.00,0.0330
1493.00,0.0335
1492.00,0.0343
1491.00,0.0356
1490.00,0.0373
1489.00,0.0393
1488.00,0.0416
1487.00,0.0439
1486.00,0.0456
1485.00,0.0462
1484.00,0.0452
1483.00,0.0428
1482.00,0.0393
1481.00,0.0355
1480.00,0.0320
1479.00,0.0294
1478.00,0.0276
1477.00,0.0268
1476.00,0.0267
1475.00,0.0271
1474.00,0.0280
1473.00,0.0299
1472.00,0.0325
1471.00,0.0357
1470.00,0.0390
1469.00,0.0425
1468.00,0.0461
1467.00,0.0495
1466.00,0.0528
1465.00,0.0559
1464.00,0.0585
1463.00,0.0603
1462.00,0.0616
1461.00,0.0627
1460.00,0.0637
1459.00,0.0646
1458.00,0.0652
1457.00,0.0651
1456.00,0.0645
1455.00,0.0636
1454.00,0.0629
1453.00,0.0625
1452.00,0.0625
1451.00,0.0628
1450.00,0.0633
1449.00,0.0637
1448.00,0.0637
1447.00,0.0632
1446.00,0.0624
1445.00,0.0615
1444.00,0.0605
1443.00,0.0593
1442.00,0.0582
1441.00,0.0572
1440.00,0.0563
1439.00,0.0554
1438.00,0.0545
1437.00,0.0538
1436.00,0.0532
1435.00,0.0529
1434.00,0.0527
1433.00,0.0528
1432.00,0.0530
1431.00,0.0535
1430.00,0.0545
1429.00,0.0560
1428.00,0.0581
1427.00,0.0606
1426.00,0.0634
1425.00,0.0662
1424.00,0.0684
1423.00,0.0696
1422.00,0.0697
1421.00,0.0685
1420.00,0.0658
1419.00,0.0616
1418.00,0.0568
1417.00,0.0521
1416.00,0.0479
1415.00,0.0440
1414.00,0.0407
1413.00,0.0379
1412.00,0.0353
1411.00,0.0331
1410.00,0.0312
1409.00,0.0297
1408.00,0.0284
1407.00,0.0274
1406.00,0.0266
1405.00,0.0258
1404.00,0.0251
1403.00,0.0245
1402.00,0.0241
1401.00,0.0238
1400.00,0.0237
1399.00,0.0237
1398.00,0.0236
1397.00,0.0235
1396.00,0.0233
1395.00,0.0230
1394.00,0.0229
1393.00,0.0229
1392.00,0.0230
1391.00,0.0233
1390.00,0.0238
1389.00,0.0244
1388.00,0.0250
1387.00,0.0256
1386.00,0.0260
1385.00,0.0265
1384.00,0.0272
1383.00,0.0282
1382.00,0.0294
1381.00,0.0309
1380.00,0.0326
1379.00,0.0346
1378.00,0.0369
1377.00,0.0396
1376.00,0.0426
1375.00,0.0459
1374.00,0.0495
1373.00,0.0531
1372.00,0.0565
1371.00,0.0597
1370.00,0.0625
1369.00,0.0646
1368.00,0.0659
1367.00,0.0661
1366.00,0.0653
1365.00,0.0635
1364.00,0.0604
1363.00,0.0561
1362.00,0.0510
1361.00,0.0457
1360.00,0.0410
1359.00,0.0369
1358.00,0.0334
1357.00,0.0306
1356.00,0.0282
1355.00,0.0262
1354.00,0.0246
1353.00,0.0234
1352.00,0.0223
1351.00,0.0215
1350.00,0.0208
1349.00,0.0202
1348.00,0.0197
1347.00,0.0193
1346.00,0.0190
1345.00,0.0188
1344.00,0.0188
1343.00,0.0189
1342.00,0.0193
1341.00,0.0198
1340.00,0.0201
1339.00,0.0202
1338.00,0.0201
1337.00,0.0200
1336.00,0.0201
1335.00,0.0203
1334.00,0.0207
1333.00,0.0212
1332.00,0.0219
1331.00,0.0226
1330.00,0.0235
1329.00,0.0244
1328.00,0.0255
1327.00,0.0266
1326.00,0.0278
1325.00,0.0291
1324.00,0.0303
1323.00,0.0316
1322.00,0.0328
1321.00,0.0339
1320.00,0.0348
1319.00,0.0355
1318.00,0.0360
1317.00,0.0363
1316.00,0.0365
1315.00,0.0367
1314.00,0.0368
1313.00,0.0369
1312.00,0.0371
1311.00,0.0374
1310.00,0.0379
1309.00,0.0387
1308.00,0.0398
1307.00,0.0411
1306.00,0.0428
1305.00,0.0447
1304.00,0.0471
1303.00,0.0498
1302.00,0.0529
1301.00,0.0565
1300.00,0.0605
1299.00,0.0650
1298.00,0.0699
1297.00,0.0752
1296.00,0.0808
1295.00,0.0864
1294.00,0.0918
1293.00,0.0971
1292.00,0.1020
1291.00,0.1066
1290.00,0.1108
1289.00,0.1145
1288.00,0.1177
1287.00,0.1202
1286.00,0.1221
1285.00,0.1234
1284.00,0.1241
1283.00,0.1244
1282.00,0.1245
1281.00,0.1245
1280.00,0.1246
1279.00,0.1249
1278.00,0.1255
1277.00,0.1263
1276.00,0.1273
1275.00,0.1281
1274.00,0.1287
1273.00,0.1288
1272.00,0.1281
1271.00,0.1266
1270.00,0.1241
1269.00,0.1210
1268.00,0.1173
1267.00,0.1134
1266.00,0.1097
1265.00,0.1063
1264.00,0.1035
1263.00,0.1014
1262.00,0.1000
1261.00,0.0993
1260.00,0.0993
1259.00,0.1001
1258.00,0.1015
1257.00,0.1037
1256.00,0.1064
1255.00,0.1096
1254.00,0.1131
1253.00,0.1168
1252.00,0.1205
1251.00,0.1239
1250.00,0.1270
1249.00,0.1297
1248.00,0.1319
1247.00,0.1336
1246.00,0.1348
1245.00,0.1356
1244.00,0.1360
1243.00,0.1361
1242.00,0.1359
1241.00,0.1355
1240.00,0.1351
1239.00,0.1345
1238.00,0.1338
1237.00,0.1331
1236.00,0.1324
1235.00,0.1315
1234.00,0.1307
1233.00,0.1298
1232.00,0.1291
1231.00,0.1284
1230.00,0.1279
1229.00,0.1277
1228.00,0.1279
1227.00,0.1286
1226.00,0.1298
1225.00,0.1316
1224.00,0.1340
1223.00,0.1367
1222.00,0.1397
1221.00,0.1427
1220.00,0.1453
1219.00,0.1472
1218.00,0.1481
1217.00,0.1478
1216.00,0.1462
1215.00,0.1438
1214.00,0.1407
1213.00,0.1377
1212.00,0.1351
1211.00,0.1333
1210.00,0.1327
1209.00,0.1333
1208.00,0.1352
1207.00,0.1382
1206.00,0.1422
1205.00,0.1473
1204.00,0.1534
1203.00,0.1604
1202.00,0.1683
1201.00,0.1771
1200.00,0.1868
1199.00,0.1974
1198.00,0.2091
1197.00,0.2217
1196.00,0.2354
1195.00,0.2498
1194.00,0.2647
1193.00,0.2800
1192.00,0.2952
1191.00,0.3095
1190.00,0.3219
1189.00,0.3317
1188.00,0.3378
1187.00,0.3393
1186.00,0.3359
1185.00,0.3281
1184.00,0.3163
1183.00,0.3014
1182.00,0.2843
1181.00,0.2664
1180.00,0.2484
1179.00,0.2309
1178.00,0.2145
1177.00,0.1996
1176.00,0.1862
1175.00,0.1742
1174.00,0.1634
1173.00,0.1539
1172.00,0.1454
1171.00,0.1378
1170.00,0.1312
1169.00,0.1257
1168.00,0.1212
1167.00,0.1179
1166.00,0.1159
1165.00,0.1151
1164.00,0.1154
1163.00,0.1167
1162.00,0.1185
1161.00,0.1204
1160.00,0.1218
1159.00,0.1220
1158.00,0.1207
1157.00,0.1177
1156.00,0.1131
1155.00,0.1072
1154.00,0.1006
1153.00,0.0937
1152.00,0.0872
1151.00,0.0813
1150.00,0.0762
1149.00,0.0719
1148.00,0.0685
1147.00,0.0661
1146.00,0.0646
1145.00,0.0641
1144.00,0.0645
1143.00,0.0657
1142.00,0.0676
1141.00,0.0700
1140.00,0.0723
1139.00,0.0742
1138.00,0.0755
1137.00,0.0759
1136.00,0.0756
1135.00,0.0750
1134.00,0.0743
1133.00,0.0739
1132.00,0.0738
1131.00,0.0739
1130.00,0.0737
1129.00,0.0730
1128.00,0.0715
1127.00,0.0694
1126.00,0.0666
1125.00,0.0635
1124.00,0.0603
1123.00,0.0571
1122.00,0.0542
1121.00,0.0516
1120.00,0.0492
1119.00,0.0471
1118.00,0.0452
1117.00,0.0436
1116.00,0.0422
1115.00,0.0409
1114.00,0.0397
1113.00,0.0386
1112.00,0.0376
1111.00,0.0367
1110.00,0.0359
1109.00,0.0352
1108.00,0.0345
1107.00,0.0340
1106.00,0.0336
1105.00,0.0334
1104.00,0.0334
1103.00,0.0335
1102.00,0.0339
1101.00,0.0347
1100.00,0.0358
1099.00,0.0375
1098.00,0.0397
1097.00,0.0425
1096.00,0.0457
1095.00,0.0490
1094.00,0.0521
1093.00,0.0547
1092.00,0.0568
1091.00,0.0585
1090.00,0.0605
1089.00,0.0634
1088.00,0.0676
1087.00,0.0733
1086.00,0.0806
1085.00,0.0891
1084.00,0.0981
1083.00,0.1068
1082.00,0.1140
1081.00,0.1190
1080.00,0.1210
1079.00,0.1199
1078.00,0.1160
1077.00,0.1102
1076.00,0.1032
1075.00,0.0957
1074.00,0.0881
1073.00,0.0810
1072.00,0.0744
1071.00,0.0686
1070.00,0.0636
1069.00,0.0594
1068.00,0.0559
1067.00,0.0529
1066.00,0.0504
1065.00,0.0483
1064.00,0.0466
1063.00,0.0452
1062.00,0.0441
1061.00,0.0432
1060.00,0.0425
1059.00,0.0420
1058.00,0.0416
1057.00,0.0413
1056.00,0.0412
1055.00,0.0411
1054.00,0.0412
1053.00,0.0415
1052.00,0.0420
1051.00,0.0429
1050.00,0.0440
1049.00,0.0455
1048.00,0.0473
1047.00,0.0495
1046.00,0.0519
1045.00,0.0546
1044.00,0.0576
1043.00,0.0607
1042.00,0.0638
1041.00,0.0668
1040.00,0.0693
1039.00,0.0712
1038.00,0.0723
1037.00,0.0729
1036.00,0.0729
1035.00,0.0725
1034.00,0.0719
1033.00,0.0713
1032.00,0.0707
1031.00,0.0701
1030.00,0.0695
1029.00,0.0689
1028.00,0.0684
1027.00,0.0679
1026.00,0.0674
1025.00,0.0672
1024.00,0.0671
1023.00,0.0673
1022.00,0.0678
1021.00,0.0687
1020.00,0.0699
1019.00,0.0714
1018.00,0.0731
1017.00,0.0751
1016.00,0.0772
1015.00,0.0795
1014.00,0.0818
1013.00,0.0840
1012.00,0.0860
1011.00,0.0875
1010.00,0.0882
1009.00,0.0882
1008.00,0.0872
1007.00,0.0855
1006.00,0.0831
1005.00,0.0801
1004.00,0.0768
1003.00,0.0732
1002.00,0.0695
1001.00,0.0659
1000.00,0.0625
999.00,0.0594
998.00,0.0567
997.00,0.0544
996.00,0.0524
995.00,0.0507
994.00,0.0493
993.00,0.0480
992.00,0.0470
991.00,0.0461
990.00,0.0452
989.00,0.0444
988.00,0.0437
987.00,0.0430
986.00,0.0424
985.00,0.0418
984.00,0.0412
983.00,0.0407
982.00,0.0402
981.00,0.0398
980.00,0.0394
979.00,0.0391
978.00,0.0388
977.00,0.0387
976.00,0.0386
975.00,0.0386
974.00,0.0387
973.00,0.0389
972.00,0.0392
971.00,0.0396
970.00,0.0401
969.00,0.0407
968.00,0.0413
967.00,0.0420
966.00,0.0426
965.00,0.0433
964.00,0.0439
963.00,0.0442
962.00,0.0444
961.00,0.0443
960.00,0.0439
959.00,0.0432
958.00,0.0422
957.00,0.0410
956.00,0.0396
955.00,0.0381
954.00,0.0367
953.00,0.0354
952.00,0.0342
951.00,0.0332
950.00,0.0324
949.00,0.0319
948.00,0.0314
947.00,0.0312
946.00,0.0311
945.00,0.0311
944.00,0.0311
943.00,0.0313
942.00,0.0316
941.00,0.0318
940.00,0.0322
939.00,0.0326
938.00,0.0332
937.00,0.0338
936.00,0.0346
935.00,0.0354
934.00,0.0362
933.00,0.0369
932.00,0.0375
931.00,0.0382
930.00,0.0390
929.00,0.0403
928.00,0.0421
927.00,0.0447
926.00,0.0481
925.00,0.0524
924.00,0.0576
923.00,0.0638
922.00,0.0706
921.00,0.0780
920.00,0.0855
919.00,0.0927
918.00,0.0990
917.00,0.1039
916.00,0.1069
915.00,0.1076
914.00,0.1059
913.00,0.1020
912.00,0.0965
911.00,0.0898
910.00,0.0826
909.00,0.0755
908.00,0.0689
907.00,0.0631
906.00,0.0581
905.00,0.0541
904.00,0.0508
903.00,0.0483
902.00,0.0464
901.00,0.0450
900.00,0.0439
899.00,0.0431
898.00,0.0425
897.00,0.0419
896.00,0.0414
895.00,0.0409
894.00,0.0405
893.00,0.0401
892.00,0.0399
891.00,0.0398
890.00,0.0398
889.00,0.0399
888.00,0.0403
887.00,0.0409
886.00,0.0417
885.00,0.0426
884.00,0.0436
883.00,0.0447
882.00,0.0457
881.00,0.0466
880.00,0.0472
879.00,0.0477
878.00,0.0478
877.00,0.0475
876.00,0.0468
875.00,0.0457
874.00,0.0443
873.00,0.0427
872.00,0.0411
871.00,0.0395
870.00,0.0380
869.00,0.0367
868.00,0.0355
867.00,0.0346
866.00,0.0339
865.00,0.0334
864.00,0.0329
863.00,0.0325
862.00,0.0322
861.00,0.0320
860.00,0.0319
859.00,0.0318
858.00,0.0319
857.00,0.0321
856.00,0.0324
855.00,0.0328
854.00,0.0332
853.00,0.0338
852.00,0.0345
851.00,0.0353
850.00,0.0360
849.00,0.0366
848.00,0.0372
847.00,0.0378
846.00,0.0386
845.00,0.0397
844.00,0.0412
843.00,0.0434
842.00,0.0464
841.00,0.0503
840.00,0.0550
839.00,0.0605
838.00,0.0665
837.00,0.0725
836.00,0.0779
835.00,0.0821
834.00,0.0848
833.00,0.0855
832.00,0.0843
831.00,0.0811
830.00,0.0765
829.00,0.0710
828.00,0.0652
827.00,0.0594
826.00,0.0541
825.00,0.0493
824.00,0.0450
823.00,0.0413
822.00,0.0380
821.00,0.0352
820.00,0.0327
819.00,0.0306
818.00,0.0288
817.00,0.0273
816.00,0.0261
815.00,0.0252
814.00,0.0245
813.00,0.0240
812.00,0.0238
811.00,0.0239
810.00,0.0242
809.00,0.0248
808.00,0.0257
807.00,0.0271
806.00,0.0288
805.00,0.0310
804.00,0.0333
803.00,0.0356
802.00,0.0376
801.00,0.0391
800.00,0.0400
799.00,0.0402
798.00,0.0398
797.00,0.0388
796.00,0.0375
795.00,0.0361
794.00,0.0348
793.00,0.0339
792.00,0.0335
791.00,0.0337
790.00,0.0345
789.00,0.0360
788.00,0.0383
787.00,0.0414
786.00,0.0455
785.00,0.0503
784.00,0.0559
783.00,0.0619
782.00,0.0681
781.00,0.0740
780.00,0.0791
779.00,0.0829
778.00,0.0850
777.00,0.0851
776.00,0.0834
775.00,0.0801
774.00,0.0756
773.00,0.0703
772.00,0.0648
771.00,0.0595
770.00,0.0546
769.00,0.0505
768.00,0.0471
767.00,0.0446
766.00,0.0429
765.00,0.0420
764.00,0.0419
763.00,0.0425
762.00,0.0440
761.00,0.0464
760.00,0.0498
759.00,0.0542
758.00,0.0597
757.00,0.0662
756.00,0.0738
755.00,0.0823
754.00,0.0915
753.00,0.1012
752.00,0.1110
751.00,0.1203
750.00,0.1288
749.00,0.1356
748.00,0.1400
747.00,0.1414
746.00,0.1392
745.00,0.1337
744.00,0.1256
743.00,0.1161
742.00,0.1063
741.00,0.0972
740.00,0.0893
739.00,0.0828
738.00,0.0775
737.00,0.0731
736.00,0.0695
735.00,0.0663
734.00,0.0633
733.00,0.0605
732.00,0.0576
731.00,0.0548
730.00,0.0520
729.00,0.0493
728.00,0.0468
727.00,0.0444
726.00,0.0423
725.00,0.0404
724.00,0.0388
723.00,0.0373
722.00,0.0360
721.00,0.0350
720.00,0.0341
719.00,0.0336
718.00,0.0333
717.00,0.0332
716.00,0.0335
715.00,0.0342
714.00,0.0353
713.00,0.0369
712.00,0.0391
711.00,0.0420
710.00,0.0456
709.00,0.0502
708.00,0.0558
707.00,0.0624
706.00,0.0698
705.00,0.0776
704.00,0.0850
703.00,0.0909
702.00,0.0942
701.00,0.0942
700.00,0.0906
699.00,0.0842
698.00,0.0762
697.00,0.0680
696.00,0.0605
695.00,0.0543
694.00,0.0495
693.00,0.0459
692.00,0.0434
691.00,0.0416
690.00,0.0404
689.00,0.0395
688.00,0.0389
687.00,0.0385
686.00,0.0381
685.00,0.0378
684.00,0.0376
683.00,0.0375
682.00,0.0375
681.00,0.0376
680.00,0.0379
679.00,0.0384
678.00,0.0392
677.00,0.0403
676.00,0.0420
675.00,0.0445
674.00,0.0479
673.00,0.0524
672.00,0.0578
671.00,0.0636
670.00,0.0697
669.00,0.0767
668.00,0.0841
667.00,0.0893
666.00,0.0911
665.00,0.0901
664.00,0.0871
663.00,0.0830
662.00,0.0786
661.00,0.0748
660.00,0.0719
659.00,0.0698
658.00,0.0685
657.00,0.0678
656.00,0.0673
655.00,0.0668
654.00,0.0664
653.00,0.0659
652.00,0.0656
651.00,0.0654
650.00,0.0658
649.00,0.0675
648.00,0.0711
647.00,0.0772
646.00,0.0860
645.00,0.0966
644.00,0.1079
643.00,0.1177
642.00,0.1241
641.00,0.1261
640.00,0.1237
639.00,0.1180
638.00,0.1102
637.00,0.1016
636.00,0.0930
635.00,0.0849
634.00,0.0778
633.00,0.0718
632.00,0.0668
631.00,0.0627
630.00,0.0593
629.00,0.0565
628.00,0.0540
627.00,0.0519
626.00,0.0501
625.00,0.0485
624.00,0.0471
623.00,0.0459
622.00,0.0450
621.00,0.0441
620.00,0.0431
619.00,0.0423
618.00,0.0417
617.00,0.0412
616.00,0.0409
615.00,0.0406
614.00,0.0404
613.00,0.0402
612.00,0.0400
611.00,0.0398
610.00,0.0398
609.00,0.0399
608.00,0.0402
607.00,0.0407
606.00,0.0416
605.00,0.0428
604.00,0.0445
603.00,0.0467
602.00,0.0495
601.00,0.0530
600.00,0.0571
599.00,0.0615
598.00,0.0661
597.00,0.0704
596.00,0.0742
595.00,0.0770
594.00,0.0787
593.00,0.0792
592.00,0.0786
591.00,0.0771
590.00,0.0750
589.00,0.0727
588.00,0.0706
587.00,0.0687
586.00,0.0671
585.00,0.0660
584.00,0.0653
583.00,0.0650
582.00,0.0650
581.00,0.0652
580.00,0.0655
579.00,0.0660
578.00,0.0666
577.00,0.0671
576.00,0.0675
575.00,0.0677
574.00,0.0678
573.00,0.0681
572.00,0.0684
571.00,0.0688
570.00,0.0691
569.00,0.0691
568.00,0.0690
567.00,0.0688
566.00,0.0685
565.00,0.0679
564.00,0.0672
563.00,0.0663
562.00,0.0654
561.00,0.0648
560.00,0.0644
559.00,0.0640
558.00,0.0635
557.00,0.0629
556.00,0.0622
555.00,0.0613
554.00,0.0603
553.00,0.0593
552.00,0.0582
551.00,0.0571
550.00,0.0560
549.00,0.0550
548.00,0.0543
547.00,0.0540
546.00,0.0544
545.00,0.0556
544.00,0.0577
543.00,0.0607
542.00,0.0642
541.00,0.0679
540.00,0.0710
539.00,0.0730
538.00,0.0734
537.00,0.0723
536.00,0.0701
535.00,0.0671
534.00,0.0637
533.00,0.0602
532.00,0.0569
531.00,0.0539
530.00,0.0513
529.00,0.0492
528.00,0.0475
527.00,0.0461
526.00,0.0450
525.00,0.0441
524.00,0.0435
523.00,0.0434
522.00,0.0437
521.00,0.0445
520.00,0.0459
519.00,0.0477
518.00,0.0498
517.00,0.0523
516.00,0.0548
515.00,0.0575
514.00,0.0602
513.00,0.0627
512.00,0.0648
511.00,0.0662
510.00,0.0669
509.00,0.0666
508.00,0.0657
507.00,0.0642
506.00,0.0623
505.00,0.0602
504.00,0.0579
503.00,0.0556
502.00,0.0531
501.00,0.0508
500.00,0.0485
499.00,0.0465
498.00,0.0450
497.00,0.0438
496.00,0.0428
495.00,0.0420
494.00,0.0412
493.00,0.0405
492.00,0.0399
491.00,0.0394
490.00,0.0390
489.00,0.0385
488.00,0.0381
487.00,0.0376
486.00,0.0373
485.00,0.0369
484.00,0.0364
483.00,0.0360
482.00,0.0358
481.00,0.0358
480.00,0.0360
479.00,0.0362
478.00,0.0363
477.00,0.0363
476.00,0.0363
475.00,0.0364
474.00,0.0368
473.00,0.0373
472.00,0.0375
471.00,0.0374
470.00,0.0372
469.00,0.0370
468.00,0.0366
467.00,0.0363
466.00,0.0360
465.00,0.0359
464.00,0.0358
463.00,0.0357
462.00,0.0355
461.00,0.0354
460.00,0.0356
459.00,0.0361
458.00,0.0368
457.00,0.0371
456.00,0.0368
455.00,0.0366
454.00,0.0367
453.00,0.0369
452.00,0.0371
451.00,0.0372
450.00,0.0377
449.00,0.0387
448.00,0.0399
447.00,0.0410
446.00,0.0417
445.00,0.0420
444.00,0.0421
443.00,0.0421
442.00,0.0420
441.00,0.0419
440.00,0.0418
439.00,0.0419
438.00,0.0422
437.00,0.0426
436.00,0.0427
435.00,0.0425
434.00,0.0423
433.00,0.0426
432.00,0.0432
431.00,0.0441
430.00,0.0452
429.00,0.0463
428.00,0.0475
427.00,0.0489
426.00,0.0503
425.00,0.0518
424.00,0.0535
423.00,0.0552
422.00,0.0567
421.00,0.0580
420.00,0.0591
419.00,0.0600
418.00,0.0604
417.00,0.0605
416.00,0.0605
415.00,0.0607
414.00,0.0610
413.00,0.0613
412.00,0.0614
411.00,0.0614
410.00,0.0612
409.00,0.0608
408.00,0.0600
407.00,0.0592
406.00,0.0587
405.00,0.0584
404.00,0.0581
403.00,0.0577
402.00,0.0577
401.00,0.0581
400.00,0.0587
