Created as New Dataset,Sample 291 By YargerLab Date Saturday, October 18 2025
cm-1,A
4000.00,0.0019
3999.00,0.0019
3998.00,0.0018
3997.00,0.0018
3996.00,0.0018
3995.00,0.0018
3994.00,0.0018
3993.00,0.0018
3992.00,0.0018
3991.00,0.0019
3990.00,0.0019
3989.00,0.0019
3988.00,0.0019
3987.00,0.0019
3986.00,0.0019
3985.00,0.0019
3984.00,0.0019
3983.00,0.0019
3982.00,0.0019
3981.00,0.0019
3980.00,0.0019
3979.00,0.0019
3978.00,0.0019
3977.00,0.0019
3976.00,0.0019
3975.00,0.0019
3974.00,0.0019
3973.00,0.0019
3972.00,0.0019
3971.00,0.0019
3970.00,0.0019
3969.00,0.0019
3968.00,0.0019
3967.00,0.0019
3966.00,0.0019
3965.00,0.0019
3964.00,0.0019
3963.00,0.0019
3962.00,0.0019
3961.00,0.0019
3960.00,0.0019
3959.00,0.0019
3958.00,0.0019
3957.00,0.0019
3956.00,0.0019
3955.00,0.0019
3954.00,0.0019
3953.00,0.0019
3952.00,0.0019
3951.00,0.0019
3950.00,0.0019
3949.00,0.0019
3948.00,0.0019
3947.00,0.0019
3946.00,0.0019
3945.00,0.0019
3944.00,0.0019
3943.00,0.0019
3942.00,0.0019
3941.00,0.0019
3940.00,0.0019
3939.00,0.0019
3938.00,0.0019
3937.00,0.0019
3936.00,0.0020
3935.00,0.0020
3934.00,0.0020
3933.00,0.0020
3932.00,0.0019
3931.00,0.0019
3930.00,0.0019
3929.00,0.0019
3928.00,0.0019
3927.00,0.0019
3926.00,0.0019
3925.00,0.0019
3924.00,0.0019
3923.00,0.0019
3922.00,0.0019
3921.00,0.0019
3920.00,0.0019
3919.00,0.0019
3918.00,0.0019
3917.00,0.0019
3916.00,0.0019
3915.00,0.0019
3914.00,0.0019
3913.00,0.0018
3912.00,0.0018
3911.00,0.0018
3910.00,0.0018
3909.00,0.0018
3908.00,0.0019
3907.00,0.0019
3906.00,0.0020
3905.00,0.0020
3904.00,0.0020
3903.00,0.0021
3902.00,0.0020
3901.00,0.0020
3900.00,0.0019
3899.00,0.0018
3898.00,0.0018
3897.00,0.0018
3896.00,0.0018
3895.00,0.0018
3894.00,0.0018
3893.00,0.0018
3892.00,0.0018
3891.00,0.0018
3890.00,0.0019
3889.00,0.0019
3888.00,0.0019
3887.00,0.0019
3886.00,0.0019
3885.00,0.0019
3884.00,0.0019
3883.00,0.0019
3882.00,0.0018
3881.00,0.0018
3880.00,0.0018
3879.00,0.0018
3878.00,0.0018
3877.00,0.0018
3876.00,0.0018
3875.00,0.0018
3874.00,0.0018
3873.00,0.0018
3872.00,0.0019
3871.00,0.0018
3870.00,0.0018
3869.00,0.0018
3868.00,0.0018
3867.00,0.0018
3866.00,0.0018
3865.00,0.0017
3864.00,0.0017
3863.00,0.0018
3862.00,0.0018
3861.00,0.0018
3860.00,0.0018
3859.00,0.0018
3858.00,0.0018
3857.00,0.0019
3856.00,0.0020
3855.00,0.0020
3854.00,0.0019
3853.00,0.0019
3852.00,0.0019
3851.00,0.0019
3850.00,0.0018
3849.00,0.0017
3848.00,0.0017
3847.00,0.0017
3846.00,0.0017
3845.00,0.0017
3844.00,0.0018
3843.00,0.0018
3842.00,0.0018
3841.00,0.0018
3840.00,0.0018
3839.00,0.0017
3838.00,0.0017
3837.00,0.0017
3836.00,0.0018
3835.00,0.0018
3834.00,0.0018
3833.00,0.0017
3832.00,0.0017
3831.00,0.0017
3830.00,0.0017
3829.00,0.0017
3828.00,0.0016
3827.00,0.0016
3826.00,0.0017
3825.00,0.0017
3824.00,0.0017
3823.00,0.0017
3822.00,0.0017
3821.00,0.0016
3820.00,0.0017
3819.00,0.0017
3818.00,0.0017
3817.00,0.0016
3816.00,0.0016
3815.00,0.0016
3814.00,0.0017
3813.00,0.0017
3812.00,0.0016
3811.00,0.0016
3810.00,0.0016
3809.00,0.0017
3808.00,0.0016
3807.00,0.0016
3806.00,0.0016
3805.00,0.0017
3804.00,0.0017
3803.00,0.0016
3802.00,0.0016
3801.00,0.0016
3800.00,0.0017
3799.00,0.0017
3798.00,0.0016
3797.00,0.0016
3796.00,0.0015
3795.00,0.0016
3794.00,0.0016
3793.00,0.0016
3792.00,0.0016
3791.00,0.0016
3790.00,0.0016
3789.00,0.0016
3788.00,0.0016
3787.00,0.0015
3786.00,0.0015
3785.00,0.0015
3784.00,0.0015
3783.00,0.0016
3782.00,0.0016
3781.00,0.0015
3780.00,0.0015
3779.00,0.0015
3778.00,0.0015
3777.00,0.0015
3776.00,0.0015
3775.00,0.0016
3774.00,0.0016
3773.00,0.0016
3772.00,0.0016
3771.00,0.0016
3770.00,0.0016
3769.00,0.0017
3768.00,0.0016
3767.00,0.0016
3766.00,0.0015
3765.00,0.0015
3764.00,0.0016
3763.00,0.0016
3762.00,0.0016
3761.00,0.0016
3760.00,0.0016
3759.00,0.0016
3758.00,0.0016
3757.00,0.0016
3756.00,0.0016
3755.00,0.0016
3754.00,0.0017
3753.00,0.0017
3752.00,0.0017
3751.00,0.0017
3750.00,0.0017
3749.00,0.0017
3748.00,0.0017
3747.00,0.0017
3746.00,0.0016
3745.00,0.0016
3744.00,0.0016
3743.00,0.0016
3742.00,0.0017
3741.00,0.0016
3740.00,0.0016
3739.00,0.0016
3738.00,0.0016
3737.00,0.0016
3736.00,0.0015
3735.00,0.0015
3734.00,0.0014
3733.00,0.0014
3732.00,0.0014
3731.00,0.0014
3730.00,0.0015
3729.00,0.0015
3728.00,0.0015
3727.00,0.0015
3726.00,0.0015
3725.00,0.0015
3724.00,0.0015
3723.00,0.0015
3722.00,0.0014
3721.00,0.0014
3720.00,0.0014
3719.00,0.0014
3718.00,0.0014
3717.00,0.0014
3716.00,0.0014
3715.00,0.0015
3714.00,0.0015
3713.00,0.0015
3712.00,0.0015
3711.00,0.0014
3710.00,0.0014
3709.00,0.0014
3708.00,0.0014
3707.00,0.0014
3706.00,0.0014
3705.00,0.0014
3704.00,0.0014
3703.00,0.0014
3702.00,0.0014
3701.00,0.0014
3700.00,0.0014
3699.00,0.0014
3698.00,0.0014
3697.00,0.0014
3696.00,0.0014
3695.00,0.0014
3694.00,0.0014
3693.00,0.0015
3692.00,0.0015
3691.00,0.0015
3690.00,0.0015
3689.00,0.0015
3688.00,0.0014
3687.00,0.0014
3686.00,0.0014
3685.00,0.0014
3684.00,0.0014
3683.00,0.0014
3682.00,0.0015
3681.00,0.0015
3680.00,0.0015
3679.00,0.0016
3678.00,0.0016
3677.00,0.0016
3676.00,0.0015
3675.00,0.0015
3674.00,0.0016
3673.00,0.0016
3672.00,0.0015
3671.00,0.0015
3670.00,0.0015
3669.00,0.0015
3668.00,0.0015
3667.00,0.0015
3666.00,0.0014
3665.00,0.0014
3664.00,0.0014
3663.00,0.0014
3662.00,0.0014
3661.00,0.0014
3660.00,0.0015
3659.00,0.0015
3658.00,0.0015
3657.00,0.0015
3656.00,0.0015
3655.00,0.0015
3654.00,0.0016
3653.00,0.0016
3652.00,0.0016
3651.00,0.0017
3650.00,0.0016
3649.00,0.0016
3648.00,0.0016
3647.00,0.0016
3646.00,0.0017
3645.00,0.0017
3644.00,0.0016
3643.00,0.0016
3642.00,0.0016
3641.00,0.0017
3640.00,0.0017
3639.00,0.0017
3638.00,0.0018
3637.00,0.0018
3636.00,0.0019
3635.00,0.0019
3634.00,0.0020
3633.00,0.0021
3632.00,0.0022
3631.00,0.0023
3630.00,0.0024
3629.00,0.0025
3628.00,0.0026
3627.00,0.0028
3626.00,0.0029
3625.00,0.0030
3624.00,0.0031
3623.00,0.0032
3622.00,0.0034
3621.00,0.0036
3620.00,0.0037
3619.00,0.0038
3618.00,0.0040
3617.00,0.0041
3616.00,0.0041
3615.00,0.0042
3614.00,0.0043
3613.00,0.0043
3612.00,0.0044
3611.00,0.0044
3610.00,0.0045
3609.00,0.0044
3608.00,0.0044
3607.00,0.0044
3606.00,0.0044
3605.00,0.0045
3604.00,0.0045
3603.00,0.0045
3602.00,0.0046
3601.00,0.0046
3600.00,0.0047
3599.00,0.0047
3598.00,0.0048
3597.00,0.0048
3596.00,0.0049
3595.00,0.0050
3594.00,0.0051
3593.00,0.0052
3592.00,0.0053
3591.00,0.0054
3590.00,0.0055
3589.00,0.0056
3588.00,0.0057
3587.00,0.0058
3586.00,0.0059
3585.00,0.0060
3584.00,0.0061
3583.00,0.0062
3582.00,0.0063
3581.00,0.0065
3580.00,0.0066
3579.00,0.0068
3578.00,0.0069
3577.00,0.0071
3576.00,0.0072
3575.00,0.0074
3574.00,0.0076
3573.00,0.0077
3572.00,0.0079
3571.00,0.0081
3570.00,0.0083
3569.00,0.0085
3568.00,0.0087
3567.00,0.0089
3566.00,0.0091
3565.00,0.0092
3564.00,0.0094
3563.00,0.0095
3562.00,0.0097
3561.00,0.0099
3560.00,0.0101
3559.00,0.0102
3558.00,0.0104
3557.00,0.0106
3556.00,0.0108
3555.00,0.0111
3554.00,0.0113
3553.00,0.0115
3552.00,0.0118
3551.00,0.0120
3550.00,0.0122
3549.00,0.0124
3548.00,0.0126
3547.00,0.0128
3546.00,0.0130
3545.00,0.0133
3544.00,0.0135
3543.00,0.0137
3542.00,0.0139
3541.00,0.0141
3540.00,0.0143
3539.00,0.0145
3538.00,0.0148
3537.00,0.0150
3536.00,0.0151
3535.00,0.0153
3534.00,0.0155
3533.00,0.0157
3532.00,0.0159
3531.00,0.0161
3530.00,0.0163
3529.00,0.0165
3528.00,0.0167
3527.00,0.0168
3526.00,0.0170
3525.00,0.0172
3524.00,0.0173
3523.00,0.0174
3522.00,0.0176
3521.00,0.0177
3520.00,0.0178
3519.00,0.0180
3518.00,0.0181
3517.00,0.0183
3516.00,0.0184
3515.00,0.0186
3514.00,0.0187
3513.00,0.0189
3512.00,0.0190
3511.00,0.0192
3510.00,0.0193
3509.00,0.0195
3508.00,0.0196
3507.00,0.0198
3506.00,0.0199
3505.00,0.0201
3504.00,0.0202
3503.00,0.0204
3502.00,0.0206
3501.00,0.0207
3500.00,0.0209
3499.00,0.0211
3498.00,0.0212
3497.00,0.0213
3496.00,0.0215
3495.00,0.0217
3494.00,0.0218
3493.00,0.0220
3492.00,0.0222
3491.00,0.0223
3490.00,0.0225
3489.00,0.0227
3488.00,0.0229
3487.00,0.0230
3486.00,0.0232
3485.00,0.0234
3484.00,0.0236
3483.00,0.0237
3482.00,0.0239
3481.00,0.0241
3480.00,0.0243
3479.00,0.0245
3478.00,0.0246
3477.00,0.0248
3476.00,0.0249
3475.00,0.0251
3474.00,0.0253
3473.00,0.0255
3472.00,0.0257
3471.00,0.0259
3470.00,0.0261
3469.00,0.0263
3468.00,0.0265
3467.00,0.0266
3466.00,0.0268
3465.00,0.0270
3464.00,0.0272
3463.00,0.0274
3462.00,0.0276
3461.00,0.0278
3460.00,0.0279
3459.00,0.0281
3458.00,0.0282
3457.00,0.0284
3456.00,0.0285
3455.00,0.0287
3454.00,0.0289
3453.00,0.0290
3452.00,0.0292
3451.00,0.0294
3450.00,0.0296
3449.00,0.0298
3448.00,0.0299
3447.00,0.0301
3446.00,0.0303
3445.00,0.0304
3444.00,0.0306
3443.00,0.0307
3442.00,0.0309
3441.00,0.0310
3440.00,0.0312
3439.00,0.0314
3438.00,0.0315
3437.00,0.0317
3436.00,0.0319
3435.00,0.0320
3434.00,0.0321
3433.00,0.0322
3432.00,0.0324
3431.00,0.0325
3430.00,0.0326
3429.00,0.0328
3428.00,0.0329
3427.00,0.0330
3426.00,0.0331
3425.00,0.0332
3424.00,0.0333
3423.00,0.0334
3422.00,0.0335
3421.00,0.0336
3420.00,0.0337
3419.00,0.0337
3418.00,0.0338
3417.00,0.0339
3416.00,0.0340
3415.00,0.0341
3414.00,0.0342
3413.00,0.0342
3412.00,0.0343
3411.00,0.0344
3410.00,0.0344
3409.00,0.0344
3408.00,0.0344
3407.00,0.0344
3406.00,0.0345
3405.00,0.0345
3404.00,0.0345
3403.00,0.0345
3402.00,0.0345
3401.00,0.0345
3400.00,0.0345
3399.00,0.0344
3398.00,0.0344
3397.00,0.0344
3396.00,0.0343
3395.00,0.0343
3394.00,0.0343
3393.00,0.0343
3392.00,0.0343
3391.00,0.0342
3390.00,0.0341
3389.00,0.0340
3388.00,0.0339
3387.00,0.0339
3386.00,0.0338
3385.00,0.0337
3384.00,0.0336
3383.00,0.0335
3382.00,0.0334
3381.00,0.0333
3380.00,0.0332
3379.00,0.0331
3378.00,0.0330
3377.00,0.0330
3376.00,0.0329
3375.00,0.0327
3374.00,0.0326
3373.00,0.0325
3372.00,0.0324
3371.00,0.0323
3370.00,0.0322
3369.00,0.0321
3368.00,0.0319
3367.00,0.0318
3366.00,0.0316
3365.00,0.0315
3364.00,0.0313
3363.00,0.0312
3362.00,0.0311
3361.00,0.0309
3360.00,0.0308
3359.00,0.0307
3358.00,0.0305
3357.00,0.0304
3356.00,0.0303
3355.00,0.0301
3354.00,0.0300
3353.00,0.0299
3352.00,0.0297
3351.00,0.0296
3350.00,0.0294
3349.00,0.0292
3348.00,0.0291
3347.00,0.0289
3346.00,0.0288
3345.00,0.0286
3344.00,0.0285
3343.00,0.0283
3342.00,0.0282
3341.00,0.0280
3340.00,0.0279
3339.00,0.0278
3338.00,0.0276
3337.00,0.0275
3336.00,0.0274
3335.00,0.0272
3334.00,0.0271
3333.00,0.0269
3332.00,0.0268
3331.00,0.0266
3330.00,0.0265
3329.00,0.0264
3328.00,0.0262
3327.00,0.0261
3326.00,0.0260
3325.00,0.0258
3324.00,0.0257
3323.00,0.0255
3322.00,0.0254
3321.00,0.0252
3320.00,0.0250
3319.00,0.0249
3318.00,0.0248
3317.00,0.0246
3316.00,0.0245
3315.00,0.0244
3314.00,0.0243
3313.00,0.0241
3312.00,0.0240
3311.00,0.0239
3310.00,0.0237
3309.00,0.0236
3308.00,0.0234
3307.00,0.0233
3306.00,0.0231
3305.00,0.0230
3304.00,0.0229
3303.00,0.0228
3302.00,0.0227
3301.00,0.0226
3300.00,0.0225
3299.00,0.0223
3298.00,0.0222
3297.00,0.0220
3296.00,0.0219
3295.00,0.0217
3294.00,0.0216
3293.00,0.0215
3292.00,0.0214
3291.00,0.0213
3290.00,0.0212
3289.00,0.0211
3288.00,0.0210
3287.00,0.0209
3286.00,0.0208
3285.00,0.0206
3284.00,0.0205
3283.00,0.0204
3282.00,0.0203
3281.00,0.0202
3280.00,0.0201
3279.00,0.0199
3278.00,0.0198
3277.00,0.0196
3276.00,0.0195
3275.00,0.0193
3274.00,0.0191
3273.00,0.0189
3272.00,0.0188
3271.00,0.0187
3270.00,0.0186
3269.00,0.0186
3268.00,0.0186
3267.00,0.0185
3266.00,0.0185
3265.00,0.0184
3264.00,0.0183
3263.00,0.0182
3262.00,0.0181
3261.00,0.0180
3260.00,0.0179
3259.00,0.0177
3258.00,0.0176
3257.00,0.0174
3256.00,0.0173
3255.00,0.0172
3254.00,0.0171
3253.00,0.0171
3252.00,0.0170
3251.00,0.0169
3250.00,0.0167
3249.00,0.0165
3248.00,0.0163
3247.00,0.0162
3246.00,0.0161
3245.00,0.0161
3244.00,0.0160
3243.00,0.0159
3242.00,0.0158
3241.00,0.0157
3240.00,0.0156
3239.00,0.0154
3238.00,0.0152
3237.00,0.0150
3236.00,0.0148
3235.00,0.0146
3234.00,0.0144
3233.00,0.0143
3232.00,0.0142
3231.00,0.0141
3230.00,0.0140
3229.00,0.0140
3228.00,0.0138
3227.00,0.0137
3226.00,0.0136
3225.00,0.0135
3224.00,0.0134
3223.00,0.0132
3222.00,0.0131
3221.00,0.0130
3220.00,0.0128
3219.00,0.0127
3218.00,0.0126
3217.00,0.0125
3216.00,0.0124
3215.00,0.0123
3214.00,0.0122
3213.00,0.0121
3212.00,0.0120
3211.00,0.0120
3210.00,0.0119
3209.00,0.0118
3208.00,0.0118
3207.00,0.0117
3206.00,0.0116
3205.00,0.0115
3204.00,0.0115
3203.00,0.0114
3202.00,0.0114
3201.00,0.0113
3200.00,0.0113
3199.00,0.0112
3198.00,0.0111
3197.00,0.0110
3196.00,0.0109
3195.00,0.0108
3194.00,0.0106
3193.00,0.0105
3192.00,0.0104
3191.00,0.0103
3190.00,0.0102
3189.00,0.0101
3188.00,0.0100
3187.00,0.0099
3186.00,0.0098
3185.00,0.0097
3184.00,0.0096
3183.00,0.0096
3182.00,0.0095
3181.00,0.0094
3180.00,0.0093
3179.00,0.0092
3178.00,0.0091
3177.00,0.0090
3176.00,0.0090
3175.00,0.0089
3174.00,0.0088
3173.00,0.0087
3172.00,0.0087
3171.00,0.0087
3170.00,0.0086
3169.00,0.0086
3168.00,0.0085
3167.00,0.0085
3166.00,0.0084
3165.00,0.0084
3164.00,0.0084
3163.00,0.0083
3162.00,0.0083
3161.00,0.0083
3160.00,0.0082
3159.00,0.0082
3158.00,0.0081
3157.00,0.0081
3156.00,0.0079
3155.00,0.0078
3154.00,0.0077
3153.00,0.0076
3152.00,0.0075
3151.00,0.0076
3150.00,0.0076
3149.00,0.0077
3148.00,0.0076
3147.00,0.0076
3146.00,0.0076
3145.00,0.0075
3144.00,0.0075
3143.00,0.0074
3142.00,0.0073
3141.00,0.0071
3140.00,0.0070
3139.00,0.0070
3138.00,0.0070
3137.00,0.0070
3136.00,0.0071
3135.00,0.0071
3134.00,0.0071
3133.00,0.0070
3132.00,0.0069
3131.00,0.0068
3130.00,0.0067
3129.00,0.0067
3128.00,0.0067
3127.00,0.0067
3126.00,0.0067
3125.00,0.0066
3124.00,0.0065
3123.00,0.0064
3122.00,0.0063
3121.00,0.0062
3120.00,0.0062
3119.00,0.0061
3118.00,0.0061
3117.00,0.0061
3116.00,0.0060
3115.00,0.0060
3114.00,0.0060
3113.00,0.0060
3112.00,0.0060
3111.00,0.0060
3110.00,0.0060
3109.00,0.0059
3108.00,0.0060
3107.00,0.0060
3106.00,0.0060
3105.00,0.0060
3104.00,0.0060
3103.00,0.0059
3102.00,0.0059
3101.00,0.0059
3100.00,0.0059
3099.00,0.0059
3098.00,0.0060
3097.00,0.0060
3096.00,0.0061
3095.00,0.0061
3094.00,0.0061
3093.00,0.0062
3092.00,0.0062
3091.00,0.0062
3090.00,0.0063
3089.00,0.0063
3088.00,0.0064
3087.00,0.0064
3086.00,0.0065
3085.00,0.0066
3084.00,0.0066
3083.00,0.0067
3082.00,0.0068
3081.00,0.0069
3080.00,0.0070
3079.00,0.0071
3078.00,0.0072
3077.00,0.0073
3076.00,0.0075
3075.00,0.0076
3074.00,0.0077
3073.00,0.0079
3072.00,0.0080
3071.00,0.0082
3070.00,0.0083
3069.00,0.0084
3068.00,0.0086
3067.00,0.0088
3066.00,0.0089
3065.00,0.0091
3064.00,0.0093
3063.00,0.0096
3062.00,0.0098
3061.00,0.0100
3060.00,0.0102
3059.00,0.0104
3058.00,0.0106
3057.00,0.0109
3056.00,0.0111
3055.00,0.0113
3054.00,0.0115
3053.00,0.0118
3052.00,0.0120
3051.00,0.0121
3050.00,0.0123
3049.00,0.0123
3048.00,0.0123
3047.00,0.0122
3046.00,0.0121
3045.00,0.0119
3044.00,0.0117
3043.00,0.0115
3042.00,0.0112
3041.00,0.0110
3040.00,0.0109
3039.00,0.0107
3038.00,0.0106
3037.00,0.0106
3036.00,0.0105
3035.00,0.0105
3034.00,0.0105
3033.00,0.0105
3032.00,0.0106
3031.00,0.0107
3030.00,0.0107
3029.00,0.0108
3028.00,0.0109
3027.00,0.0109
3026.00,0.0109
3025.00,0.0109
3024.00,0.0109
3023.00,0.0109
3022.00,0.0109
3021.00,0.0108
3020.00,0.0108
3019.00,0.0107
3018.00,0.0107
3017.00,0.0106
3016.00,0.0106
3015.00,0.0105
3014.00,0.0105
3013.00,0.0105
3012.00,0.0106
3011.00,0.0107
3010.00,0.0108
3009.00,0.0109
3008.00,0.0110
3007.00,0.0112
3006.00,0.0113
3005.00,0.0115
3004.00,0.0118
3003.00,0.0120
3002.00,0.0124
3001.00,0.0127
3000.00,0.0131
2999.00,0.0136
2998.00,0.0142
2997.00,0.0148
2996.00,0.0156
2995.00,0.0164
2994.00,0.0173
2993.00,0.0183
2992.00,0.0194
2991.00,0.0206
2990.00,0.0220
2989.00,0.0234
2988.00,0.0249
2987.00,0.0265
2986.00,0.0281
2985.00,0.0298
2984.00,0.0315
2983.00,0.0333
2982.00,0.0352
2981.00,0.0372
2980.00,0.0394
2979.00,0.0416
2978.00,0.0439
2977.00,0.0463
2976.00,0.0486
2975.00,0.0510
2974.00,0.0534
2973.00,0.0559
2972.00,0.0584
2971.00,0.0609
2970.00,0.0635
2969.00,0.0660
2968.00,0.0683
2967.00,0.0704
2966.00,0.0722
2965.00,0.0737
2964.00,0.0747
2963.00,0.0754
2962.00,0.0758
2961.00,0.0760
2960.00,0.0759
2959.00,0.0755
2958.00,0.0750
2957.00,0.0742
2956.00,0.0731
2955.00,0.0717
2954.00,0.0700
2953.00,0.0682
2952.00,0.0662
2951.00,0.0643
2950.00,0.0626
2949.00,0.0614
2948.00,0.0607
2947.00,0.0607
2946.00,0.0613
2945.00,0.0626
2944.00,0.0645
2943.00,0.0670
2942.00,0.0701
2941.00,0.0735
2940.00,0.0774
2939.00,0.0816
2938.00,0.0860
2937.00,0.0906
2936.00,0.0953
2935.00,0.0998
2934.00,0.1042
2933.00,0.1083
2932.00,0.1119
2931.00,0.1150
2930.00,0.1174
2929.00,0.1193
2928.00,0.1204
2927.00,0.1209
2926.00,0.1207
2925.00,0.1200
2924.00,0.1187
2923.00,0.1170
2922.00,0.1148
2921.00,0.1125
2920.00,0.1099
2919.00,0.1074
2918.00,0.1048
2917.00,0.1023
2916.00,0.0998
2915.00,0.0973
2914.00,0.0948
2913.00,0.0922
2912.00,0.0894
2911.00,0.0866
2910.00,0.0837
2909.00,0.0807
2908.00,0.0777
2907.00,0.0747
2906.00,0.0718
2905.00,0.0690
2904.00,0.0664
2903.00,0.0639
2902.00,0.0617
2901.00,0.0596
2900.00,0.0577
2899.00,0.0559
2898.00,0.0542
2897.00,0.0527
2896.00,0.0513
2895.00,0.0500
2894.00,0.0488
2893.00,0.0477
2892.00,0.0466
2891.00,0.0457
2890.00,0.0449
2889.00,0.0441
2888.00,0.0435
2887.00,0.0430
2886.00,0.0427
2885.00,0.0424
2884.00,0.0424
2883.00,0.0425
2882.00,0.0428
2881.00,0.0433
2880.00,0.0441
2879.00,0.0451
2878.00,0.0465
2877.00,0.0480
2876.00,0.0497
2875.00,0.0514
2874.00,0.0530
2873.00,0.0544
2872.00,0.0553
2871.00,0.0557
2870.00,0.0559
2869.00,0.0558
2868.00,0.0559
2867.00,0.0562
2866.00,0.0571
2865.00,0.0586
2864.00,0.0606
2863.00,0.0630
2862.00,0.0657
2861.00,0.0683
2860.00,0.0708
2859.00,0.0727
2858.00,0.0739
2857.00,0.0742
2856.00,0.0737
2855.00,0.0723
2854.00,0.0703
2853.00,0.0677
2852.00,0.0648
2851.00,0.0617
2850.00,0.0584
2849.00,0.0550
2848.00,0.0516
2847.00,0.0482
2846.00,0.0449
2845.00,0.0417
2844.00,0.0386
2843.00,0.0358
2842.00,0.0332
2841.00,0.0309
2840.00,0.0288
2839.00,0.0269
2838.00,0.0253
2837.00,0.0238
2836.00,0.0226
2835.00,0.0214
2834.00,0.0204
2833.00,0.0194
2832.00,0.0185
2831.00,0.0177
2830.00,0.0170
2829.00,0.0162
2828.00,0.0156
2827.00,0.0150
2826.00,0.0144
2825.00,0.0139
2824.00,0.0135
2823.00,0.0130
2822.00,0.0126
2821.00,0.0123
2820.00,0.0119
2819.00,0.0116
2818.00,0.0113
2817.00,0.0110
2816.00,0.0108
2815.00,0.0106
2814.00,0.0104
2813.00,0.0102
2812.00,0.0100
2811.00,0.0099
2810.00,0.0097
2809.00,0.0095
2808.00,0.0094
2807.00,0.0092
2806.00,0.0090
2805.00,0.0089
2804.00,0.0087
2803.00,0.0086
2802.00,0.0084
2801.00,0.0083
2800.00,0.0081
2799.00,0.0080
2798.00,0.0079
2797.00,0.0077
2796.00,0.0076
2795.00,0.0075
2794.00,0.0074
2793.00,0.0073
2792.00,0.0072
2791.00,0.0071
2790.00,0.0070
2789.00,0.0069
2788.00,0.0069
2787.00,0.0068
2786.00,0.0068
2785.00,0.0067
2784.00,0.0066
2783.00,0.0066
2782.00,0.0065
2781.00,0.0064
2780.00,0.0063
2779.00,0.0062
2778.00,0.0061
2777.00,0.0061
2776.00,0.0060
2775.00,0.0060
2774.00,0.0059
2773.00,0.0059
2772.00,0.0059
2771.00,0.0059
2770.00,0.0059
2769.00,0.0059
2768.00,0.0059
2767.00,0.0059
2766.00,0.0059
2765.00,0.0059
2764.00,0.0059
2763.00,0.0059
2762.00,0.0059
2761.00,0.0059
2760.00,0.0059
2759.00,0.0059
2758.00,0.0059
2757.00,0.0060
2756.00,0.0060
2755.00,0.0060
2754.00,0.0060
2753.00,0.0060
2752.00,0.0060
2751.00,0.0060
2750.00,0.0060
2749.00,0.0061
2748.00,0.0061
2747.00,0.0062
2746.00,0.0062
2745.00,0.0063
2744.00,0.0063
2743.00,0.0063
2742.00,0.0064
2741.00,0.0064
2740.00,0.0065
2739.00,0.0066
2738.00,0.0067
2737.00,0.0068
2736.00,0.0069
2735.00,0.0071
2734.00,0.0072
2733.00,0.0074
2732.00,0.0075
2731.00,0.0076
2730.00,0.0076
2729.00,0.0076
2728.00,0.0075
2727.00,0.0073
2726.00,0.0072
2725.00,0.0070
2724.00,0.0069
2723.00,0.0068
2722.00,0.0066
2721.00,0.0065
2720.00,0.0064
2719.00,0.0062
2718.00,0.0061
2717.00,0.0060
2716.00,0.0060
2715.00,0.0059
2714.00,0.0059
2713.00,0.0058
2712.00,0.0057
2711.00,0.0056
2710.00,0.0055
2709.00,0.0055
2708.00,0.0054
2707.00,0.0054
2706.00,0.0053
2705.00,0.0053
2704.00,0.0052
2703.00,0.0052
2702.00,0.0052
2701.00,0.0052
2700.00,0.0052
2699.00,0.0051
2698.00,0.0051
2697.00,0.0051
2696.00,0.0051
2695.00,0.0050
2694.00,0.0050
2693.00,0.0050
2692.00,0.0050
2691.00,0.0050
2690.00,0.0050
2689.00,0.0050
2688.00,0.0050
2687.00,0.0050
2686.00,0.0050
2685.00,0.0050
2684.00,0.0050
2683.00,0.0050
2682.00,0.0050
2681.00,0.0050
2680.00,0.0050
2679.00,0.0050
2678.00,0.0050
2677.00,0.0051
2676.00,0.0051
2675.00,0.0051
2674.00,0.0051
2673.00,0.0052
2672.00,0.0052
2671.00,0.0052
2670.00,0.0052
2669.00,0.0052
2668.00,0.0053
2667.00,0.0053
2666.00,0.0053
2665.00,0.0054
2664.00,0.0054
2663.00,0.0054
2662.00,0.0054
2661.00,0.0054
2660.00,0.0054
2659.00,0.0054
2658.00,0.0054
2657.00,0.0054
2656.00,0.0054
2655.00,0.0054
2654.00,0.0054
2653.00,0.0053
2652.00,0.0053
2651.00,0.0053
2650.00,0.0053
2649.00,0.0053
2648.00,0.0053
2647.00,0.0053
2646.00,0.0053
2645.00,0.0053
2644.00,0.0053
2643.00,0.0052
2642.00,0.0052
2641.00,0.0052
2640.00,0.0052
2639.00,0.0052
2638.00,0.0052
2637.00,0.0053
2636.00,0.0053
2635.00,0.0052
2634.00,0.0052
2633.00,0.0052
2632.00,0.0052
2631.00,0.0052
2630.00,0.0052
2629.00,0.0051
2628.00,0.0051
2627.00,0.0051
2626.00,0.0051
2625.00,0.0050
2624.00,0.0050
2623.00,0.0050
2622.00,0.0050
2621.00,0.0050
2620.00,0.0050
2619.00,0.0049
2618.00,0.0049
2617.00,0.0049
2616.00,0.0049
2615.00,0.0049
2614.00,0.0048
2613.00,0.0048
2612.00,0.0048
2611.00,0.0048
2610.00,0.0048
2609.00,0.0047
2608.00,0.0047
2607.00,0.0047
2606.00,0.0047
2605.00,0.0046
2604.00,0.0046
2603.00,0.0046
2602.00,0.0046
2601.00,0.0046
2600.00,0.0047
2599.00,0.0047
2598.00,0.0047
2597.00,0.0047
2596.00,0.0047
2595.00,0.0046
2594.00,0.0046
2593.00,0.0046
2592.00,0.0046
2591.00,0.0046
2590.00,0.0046
2589.00,0.0046
2588.00,0.0046
2587.00,0.0046
2586.00,0.0046
2585.00,0.0046
2584.00,0.0046
2583.00,0.0046
2582.00,0.0046
2581.00,0.0047
2580.00,0.0047
2579.00,0.0047
2578.00,0.0047
2577.00,0.0047
2576.00,0.0047
2575.00,0.0047
2574.00,0.0047
2573.00,0.0047
2572.00,0.0048
2571.00,0.0048
2570.00,0.0049
2569.00,0.0049
2568.00,0.0049
2567.00,0.0049
2566.00,0.0049
2565.00,0.0049
2564.00,0.0049
2563.00,0.0049
2562.00,0.0049
2561.00,0.0049
2560.00,0.0049
2559.00,0.0049
2558.00,0.0049
2557.00,0.0049
2556.00,0.0049
2555.00,0.0049
2554.00,0.0049
2553.00,0.0049
2552.00,0.0049
2551.00,0.0049
2550.00,0.0049
2549.00,0.0048
2548.00,0.0048
2547.00,0.0048
2546.00,0.0048
2545.00,0.0048
2544.00,0.0048
2543.00,0.0048
2542.00,0.0048
2541.00,0.0048
2540.00,0.0048
2539.00,0.0048
2538.00,0.0048
2537.00,0.0047
2536.00,0.0047
2535.00,0.0047
2534.00,0.0047
2533.00,0.0047
2532.00,0.0047
2531.00,0.0047
2530.00,0.0047
2529.00,0.0047
2528.00,0.0047
2527.00,0.0047
2526.00,0.0047
2525.00,0.0046
2524.00,0.0046
2523.00,0.0046
2522.00,0.0045
2521.00,0.0045
2520.00,0.0044
2519.00,0.0044
2518.00,0.0043
2517.00,0.0043
2516.00,0.0043
2515.00,0.0043
2514.00,0.0043
2513.00,0.0043
2512.00,0.0043
2511.00,0.0043
2510.00,0.0042
2509.00,0.0042
2508.00,0.0042
2507.00,0.0042
2506.00,0.0042
2505.00,0.0042
2504.00,0.0042
2503.00,0.0042
2502.00,0.0042
2501.00,0.0042
2500.00,0.0042
2499.00,0.0042
2498.00,0.0042
2497.00,0.0042
2496.00,0.0042
2495.00,0.0043
2494.00,0.0043
2493.00,0.0043
2492.00,0.0043
2491.00,0.0042
2490.00,0.0042
2489.00,0.0042
2488.00,0.0042
2487.00,0.0042
2486.00,0.0042
2485.00,0.0043
2484.00,0.0043
2483.00,0.0043
2482.00,0.0043
2481.00,0.0043
2480.00,0.0042
2479.00,0.0042
2478.00,0.0042
2477.00,0.0041
2476.00,0.0041
2475.00,0.0041
2474.00,0.0040
2473.00,0.0040
2472.00,0.0040
2471.00,0.0040
2470.00,0.0040
2469.00,0.0040
2468.00,0.0040
2467.00,0.0040
2466.00,0.0040
2465.00,0.0040
2464.00,0.0040
2463.00,0.0040
2462.00,0.0040
2461.00,0.0040
2460.00,0.0040
2459.00,0.0041
2458.00,0.0041
2457.00,0.0041
2456.00,0.0041
2455.00,0.0040
2454.00,0.0040
2453.00,0.0039
2452.00,0.0039
2451.00,0.0038
2450.00,0.0038
2449.00,0.0038
2448.00,0.0038
2447.00,0.0039
2446.00,0.0038
2445.00,0.0038
2444.00,0.0037
2443.00,0.0037
2442.00,0.0037
2441.00,0.0037
2440.00,0.0037
2439.00,0.0037
2438.00,0.0037
2437.00,0.0036
2436.00,0.0036
2435.00,0.0036
2434.00,0.0035
2433.00,0.0035
2432.00,0.0035
2431.00,0.0035
2430.00,0.0035
2429.00,0.0035
2428.00,0.0035
2427.00,0.0035
2426.00,0.0035
2425.00,0.0035
2424.00,0.0035
2423.00,0.0035
2422.00,0.0035
2421.00,0.0034
2420.00,0.0034
2419.00,0.0034
2418.00,0.0034
2417.00,0.0034
2416.00,0.0034
2415.00,0.0034
2414.00,0.0034
2413.00,0.0034
2412.00,0.0035
2411.00,0.0035
2410.00,0.0035
2409.00,0.0035
2408.00,0.0035
2407.00,0.0035
2406.00,0.0034
2405.00,0.0034
2404.00,0.0035
2403.00,0.0035
2402.00,0.0035
2401.00,0.0035
2400.00,0.0035
2399.00,0.0035
2398.00,0.0035
2397.00,0.0035
2396.00,0.0035
2395.00,0.0035
2394.00,0.0035
2393.00,0.0035
2392.00,0.0035
2391.00,0.0035
2390.00,0.0035
2389.00,0.0035
2388.00,0.0035
2387.00,0.0035
2386.00,0.0034
2385.00,0.0034
2384.00,0.0034
2383.00,0.0034
2382.00,0.0034
2381.00,0.0034
2380.00,0.0034
2379.00,0.0035
2378.00,0.0034
2377.00,0.0035
2376.00,0.0035
2375.00,0.0034
2374.00,0.0034
2373.00,0.0034
2372.00,0.0034
2371.00,0.0034
2370.00,0.0034
2369.00,0.0034
2368.00,0.0034
2367.00,0.0034
2366.00,0.0034
2365.00,0.0034
2364.00,0.0035
2363.00,0.0035
2362.00,0.0035
2361.00,0.0035
2360.00,0.0035
2359.00,0.0035
2358.00,0.0034
2357.00,0.0034
2356.00,0.0033
2355.00,0.0033
2354.00,0.0032
2353.00,0.0031
2352.00,0.0031
2351.00,0.0032
2350.00,0.0034
2349.00,0.0038
2348.00,0.0041
2347.00,0.0041
2346.00,0.0039
2345.00,0.0037
2344.00,0.0036
2343.00,0.0035
2342.00,0.0035
2341.00,0.0035
2340.00,0.0035
2339.00,0.0035
2338.00,0.0035
2337.00,0.0035
2336.00,0.0035
2335.00,0.0035
2334.00,0.0035
2333.00,0.0035
2332.00,0.0034
2331.00,0.0033
2330.00,0.0033
2329.00,0.0034
2328.00,0.0036
2327.00,0.0039
2326.00,0.0041
2325.00,0.0042
2324.00,0.0042
2323.00,0.0040
2322.00,0.0038
2321.00,0.0036
2320.00,0.0035
2319.00,0.0034
2318.00,0.0033
2317.00,0.0033
2316.00,0.0033
2315.00,0.0033
2314.00,0.0032
2313.00,0.0032
2312.00,0.0031
2311.00,0.0031
2310.00,0.0031
2309.00,0.0030
2308.00,0.0031
2307.00,0.0030
2306.00,0.0030
2305.00,0.0030
2304.00,0.0031
2303.00,0.0031
2302.00,0.0032
2301.00,0.0032
2300.00,0.0032
2299.00,0.0032
2298.00,0.0032
2297.00,0.0032
2296.00,0.0032
2295.00,0.0033
2294.00,0.0034
2293.00,0.0034
2292.00,0.0035
2291.00,0.0035
2290.00,0.0036
2289.00,0.0036
2288.00,0.0037
2287.00,0.0037
2286.00,0.0036
2285.00,0.0036
2284.00,0.0035
2283.00,0.0035
2282.00,0.0034
2281.00,0.0033
2280.00,0.0033
2279.00,0.0032
2278.00,0.0031
2277.00,0.0031
2276.00,0.0032
2275.00,0.0033
2274.00,0.0033
2273.00,0.0032
2272.00,0.0032
2271.00,0.0031
2270.00,0.0030
2269.00,0.0030
2268.00,0.0030
2267.00,0.0030
2266.00,0.0030
2265.00,0.0030
2264.00,0.0030
2263.00,0.0030
2262.00,0.0030
2261.00,0.0030
2260.00,0.0031
2259.00,0.0030
2258.00,0.0029
2257.00,0.0028
2256.00,0.0028
2255.00,0.0028
2254.00,0.0028
2253.00,0.0029
2252.00,0.0029
2251.00,0.0029
2250.00,0.0028
2249.00,0.0028
2248.00,0.0028
2247.00,0.0028
2246.00,0.0029
2245.00,0.0029
2244.00,0.0029
2243.00,0.0028
2242.00,0.0027
2241.00,0.0026
2240.00,0.0026
2239.00,0.0026
2238.00,0.0026
2237.00,0.0026
2236.00,0.0025
2235.00,0.0025
2234.00,0.0025
2233.00,0.0026
2232.00,0.0027
2231.00,0.0028
2230.00,0.0028
2229.00,0.0028
2228.00,0.0027
2227.00,0.0026
2226.00,0.0025
2225.00,0.0024
2224.00,0.0023
2223.00,0.0023
2222.00,0.0023
2221.00,0.0023
2220.00,0.0023
2219.00,0.0023
2218.00,0.0023
2217.00,0.0024
2216.00,0.0024
2215.00,0.0025
2214.00,0.0024
2213.00,0.0024
2212.00,0.0024
2211.00,0.0023
2210.00,0.0022
2209.00,0.0022
2208.00,0.0022
2207.00,0.0023
2206.00,0.0023
2205.00,0.0023
2204.00,0.0023
2203.00,0.0023
2202.00,0.0023
2201.00,0.0023
2200.00,0.0024
2199.00,0.0024
2198.00,0.0024
2197.00,0.0024
2196.00,0.0024
2195.00,0.0023
2194.00,0.0022
2193.00,0.0021
2192.00,0.0021
2191.00,0.0021
2190.00,0.0021
2189.00,0.0022
2188.00,0.0023
2187.00,0.0023
2186.00,0.0023
2185.00,0.0023
2184.00,0.0021
2183.00,0.0018
2182.00,0.0016
2181.00,0.0016
2180.00,0.0016
2179.00,0.0017
2178.00,0.0017
2177.00,0.0016
2176.00,0.0015
2175.00,0.0013
2174.00,0.0012
2173.00,0.0012
2172.00,0.0013
2171.00,0.0015
2170.00,0.0018
2169.00,0.0020
2168.00,0.0022
2167.00,0.0022
2166.00,0.0020
2165.00,0.0018
2164.00,0.0017
2163.00,0.0016
2162.00,0.0013
2161.00,0.0008
2160.00,0.0001
2159.00,-0.0007
2158.00,-0.0013
2157.00,-0.0015
2156.00,-0.0013
2155.00,-0.0010
2154.00,-0.0007
2153.00,-0.0004
2152.00,-0.0001
2151.00,0.0001
2150.00,0.0002
2149.00,0.0003
2148.00,0.0003
2147.00,0.0003
2146.00,0.0002
2145.00,0.0002
2144.00,0.0003
2143.00,0.0005
2142.00,0.0007
2141.00,0.0009
2140.00,0.0010
2139.00,0.0009
2138.00,0.0008
2137.00,0.0006
2136.00,0.0005
2135.00,0.0003
2134.00,0.0002
2133.00,0.0002
2132.00,0.0004
2131.00,0.0006
2130.00,0.0008
2129.00,0.0010
2128.00,0.0011
2127.00,0.0012
2126.00,0.0013
2125.00,0.0013
2124.00,0.0014
2123.00,0.0014
2122.00,0.0014
2121.00,0.0014
2120.00,0.0014
2119.00,0.0014
2118.00,0.0014
2117.00,0.0015
2116.00,0.0015
2115.00,0.0015
2114.00,0.0015
2113.00,0.0015
2112.00,0.0016
2111.00,0.0016
2110.00,0.0016
2109.00,0.0015
2108.00,0.0015
2107.00,0.0015
2106.00,0.0014
2105.00,0.0014
2104.00,0.0014
2103.00,0.0015
2102.00,0.0015
2101.00,0.0014
2100.00,0.0014
2099.00,0.0013
2098.00,0.0012
2097.00,0.0011
2096.00,0.0009
2095.00,0.0008
2094.00,0.0008
2093.00,0.0009
2092.00,0.0011
2091.00,0.0012
2090.00,0.0013
2089.00,0.0013
2088.00,0.0014
2087.00,0.0015
2086.00,0.0016
2085.00,0.0017
2084.00,0.0018
2083.00,0.0018
2082.00,0.0018
2081.00,0.0018
2080.00,0.0018
2079.00,0.0018
2078.00,0.0018
2077.00,0.0018
2076.00,0.0019
2075.00,0.0019
2074.00,0.0019
2073.00,0.0019
2072.00,0.0019
2071.00,0.0019
2070.00,0.0019
2069.00,0.0020
2068.00,0.0020
2067.00,0.0020
2066.00,0.0019
2065.00,0.0018
2064.00,0.0019
2063.00,0.0019
2062.00,0.0020
2061.00,0.0021
2060.00,0.0022
2059.00,0.0022
2058.00,0.0022
2057.00,0.0022
2056.00,0.0021
2055.00,0.0021
2054.00,0.0022
2053.00,0.0025
2052.00,0.0027
2051.00,0.0028
2050.00,0.0027
2049.00,0.0025
2048.00,0.0024
2047.00,0.0023
2046.00,0.0022
2045.00,0.0021
2044.00,0.0021
2043.00,0.0021
2042.00,0.0022
2041.00,0.0023
2040.00,0.0024
2039.00,0.0024
2038.00,0.0022
2037.00,0.0021
2036.00,0.0019
2035.00,0.0016
2034.00,0.0014
2033.00,0.0013
2032.00,0.0015
2031.00,0.0016
2030.00,0.0015
2029.00,0.0014
2028.00,0.0013
2027.00,0.0012
2026.00,0.0011
2025.00,0.0010
2024.00,0.0010
2023.00,0.0010
2022.00,0.0011
2021.00,0.0012
2020.00,0.0014
2019.00,0.0015
2018.00,0.0015
2017.00,0.0014
2016.00,0.0014
2015.00,0.0014
2014.00,0.0014
2013.00,0.0015
2012.00,0.0017
2011.00,0.0017
2010.00,0.0016
2009.00,0.0015
2008.00,0.0014
2007.00,0.0011
2006.00,0.0009
2005.00,0.0009
2004.00,0.0010
2003.00,0.0011
2002.00,0.0012
2001.00,0.0012
2000.00,0.0014
1999.00,0.0014
1998.00,0.0015
1997.00,0.0016
1996.00,0.0017
1995.00,0.0018
1994.00,0.0019
1993.00,0.0019
1992.00,0.0020
1991.00,0.0020
1990.00,0.0019
1989.00,0.0019
1988.00,0.0020
1987.00,0.0020
1986.00,0.0019
1985.00,0.0019
1984.00,0.0022
1983.00,0.0025
1982.00,0.0028
1981.00,0.0029
1980.00,0.0027
1979.00,0.0022
1978.00,0.0015
1977.00,0.0010
1976.00,0.0009
1975.00,0.0008
1974.00,0.0009
1973.00,0.0010
1972.00,0.0011
1971.00,0.0011
1970.00,0.0011
1969.00,0.0012
1968.00,0.0013
1967.00,0.0014
1966.00,0.0014
1965.00,0.0014
1964.00,0.0014
1963.00,0.0014
1962.00,0.0014
1961.00,0.0012
1960.00,0.0012
1959.00,0.0011
1958.00,0.0011
1957.00,0.0013
1956.00,0.0014
1955.00,0.0014
1954.00,0.0013
1953.00,0.0012
1952.00,0.0012
1951.00,0.0013
1950.00,0.0014
1949.00,0.0015
1948.00,0.0017
1947.00,0.0018
1946.00,0.0019
1945.00,0.0019
1944.00,0.0020
1943.00,0.0020
1942.00,0.0019
1941.00,0.0018
1940.00,0.0018
1939.00,0.0017
1938.00,0.0017
1937.00,0.0018
1936.00,0.0019
1935.00,0.0019
1934.00,0.0019
1933.00,0.0018
1932.00,0.0018
1931.00,0.0019
1930.00,0.0019
1929.00,0.0020
1928.00,0.0021
1927.00,0.0022
1926.00,0.0022
1925.00,0.0022
1924.00,0.0023
1923.00,0.0024
1922.00,0.0025
1921.00,0.0025
1920.00,0.0025
1919.00,0.0025
1918.00,0.0025
1917.00,0.0026
1916.00,0.0028
1915.00,0.0028
1914.00,0.0028
1913.00,0.0029
1912.00,0.0029
1911.00,0.0029
1910.00,0.0029
1909.00,0.0028
1908.00,0.0029
1907.00,0.0029
1906.00,0.0029
1905.00,0.0029
1904.00,0.0029
1903.00,0.0029
1902.00,0.0029
1901.00,0.0028
1900.00,0.0028
1899.00,0.0028
1898.00,0.0028
1897.00,0.0028
1896.00,0.0028
1895.00,0.0028
1894.00,0.0027
1893.00,0.0027
1892.00,0.0027
1891.00,0.0027
1890.00,0.0026
1889.00,0.0026
1888.00,0.0026
1887.00,0.0027
1886.00,0.0027
1885.00,0.0027
1884.00,0.0028
1883.00,0.0028
1882.00,0.0028
1881.00,0.0028
1880.00,0.0028
1879.00,0.0028
1878.00,0.0027
1877.00,0.0027
1876.00,0.0027
1875.00,0.0027
1874.00,0.0027
1873.00,0.0027
1872.00,0.0028
1871.00,0.0028
1870.00,0.0027
1869.00,0.0027
1868.00,0.0028
1867.00,0.0029
1866.00,0.0029
1865.00,0.0029
1864.00,0.0029
1863.00,0.0029
1862.00,0.0028
1861.00,0.0028
1860.00,0.0029
1859.00,0.0029
1858.00,0.0029
1857.00,0.0029
1856.00,0.0029
1855.00,0.0029
1854.00,0.0029
1853.00,0.0030
1852.00,0.0030
1851.00,0.0030
1850.00,0.0029
1849.00,0.0029
1848.00,0.0029
1847.00,0.0029
1846.00,0.0029
1845.00,0.0028
1844.00,0.0028
1843.00,0.0028
1842.00,0.0028
1841.00,0.0028
1840.00,0.0028
1839.00,0.0028
1838.00,0.0028
1837.00,0.0029
1836.00,0.0029
1835.00,0.0030
1834.00,0.0030
1833.00,0.0030
1832.00,0.0030
1831.00,0.0030
1830.00,0.0030
1829.00,0.0031
1828.00,0.0032
1827.00,0.0032
1826.00,0.0031
1825.00,0.0030
1824.00,0.0031
1823.00,0.0032
1822.00,0.0032
1821.00,0.0032
1820.00,0.0031
1819.00,0.0031
1818.00,0.0030
1817.00,0.0030
1816.00,0.0030
1815.00,0.0031
1814.00,0.0031
1813.00,0.0032
1812.00,0.0032
1811.00,0.0032
1810.00,0.0032
1809.00,0.0032
1808.00,0.0033
1807.00,0.0033
1806.00,0.0033
1805.00,0.0033
1804.00,0.0034
1803.00,0.0034
1802.00,0.0033
1801.00,0.0033
1800.00,0.0033
1799.00,0.0033
1798.00,0.0033
1797.00,0.0034
1796.00,0.0034
1795.00,0.0034
1794.00,0.0034
1793.00,0.0034
1792.00,0.0034
1791.00,0.0034
1790.00,0.0034
1789.00,0.0034
1788.00,0.0034
1787.00,0.0035
1786.00,0.0035
1785.00,0.0035
1784.00,0.0035
1783.00,0.0035
1782.00,0.0035
1781.00,0.0035
1780.00,0.0036
1779.00,0.0036
1778.00,0.0036
1777.00,0.0036
1776.00,0.0037
1775.00,0.0037
1774.00,0.0037
1773.00,0.0037
1772.00,0.0038
1771.00,0.0039
1770.00,0.0039
1769.00,0.0038
1768.00,0.0038
1767.00,0.0039
1766.00,0.0039
1765.00,0.0040
1764.00,0.0041
1763.00,0.0041
1762.00,0.0042
1761.00,0.0043
1760.00,0.0043
1759.00,0.0044
1758.00,0.0044
1757.00,0.0044
1756.00,0.0045
1755.00,0.0045
1754.00,0.0045
1753.00,0.0045
1752.00,0.0045
1751.00,0.0045
1750.00,0.0045
1749.00,0.0045
1748.00,0.0046
1747.00,0.0047
1746.00,0.0048
1745.00,0.0049
1744.00,0.0050
1743.00,0.0051
1742.00,0.0052
1741.00,0.0053
1740.00,0.0055
1739.00,0.0057
1738.00,0.0060
1737.00,0.0061
1736.00,0.0062
1735.00,0.0064
1734.00,0.0066
1733.00,0.0070
1732.00,0.0072
1731.00,0.0072
1730.00,0.0072
1729.00,0.0073
1728.00,0.0074
1727.00,0.0074
1726.00,0.0074
1725.00,0.0074
1724.00,0.0074
1723.00,0.0074
1722.00,0.0073
1721.00,0.0072
1720.00,0.0071
1719.00,0.0070
1718.00,0.0068
1717.00,0.0068
1716.00,0.0069
1715.00,0.0069
1714.00,0.0068
1713.00,0.0067
1712.00,0.0067
1711.00,0.0067
1710.00,0.0067
1709.00,0.0066
1708.00,0.0066
1707.00,0.0065
1706.00,0.0064
1705.00,0.0064
1704.00,0.0064
1703.00,0.0063
1702.00,0.0061
1701.00,0.0057
1700.00,0.0055
1699.00,0.0055
1698.00,0.0054
1697.00,0.0053
1696.00,0.0052
1695.00,0.0052
1694.00,0.0050
1693.00,0.0047
1692.00,0.0045
1691.00,0.0042
1690.00,0.0041
1689.00,0.0040
1688.00,0.0039
1687.00,0.0039
1686.00,0.0038
1685.00,0.0038
1684.00,0.0042
1683.00,0.0046
1682.00,0.0048
1681.00,0.0049
1680.00,0.0053
1679.00,0.0058
1678.00,0.0062
1677.00,0.0066
1676.00,0.0071
1675.00,0.0077
1674.00,0.0082
1673.00,0.0085
1672.00,0.0087
1671.00,0.0090
1670.00,0.0092
1669.00,0.0096
1668.00,0.0100
1667.00,0.0104
1666.00,0.0105
1665.00,0.0108
1664.00,0.0112
1663.00,0.0118
1662.00,0.0123
1661.00,0.0130
1660.00,0.0136
1659.00,0.0143
1658.00,0.0150
1657.00,0.0158
1656.00,0.0166
1655.00,0.0176
1654.00,0.0194
1653.00,0.0225
1652.00,0.0260
1651.00,0.0283
1650.00,0.0298
1649.00,0.0316
1648.00,0.0347
1647.00,0.0392
1646.00,0.0441
1645.00,0.0485
1644.00,0.0524
1643.00,0.0561
1642.00,0.0600
1641.00,0.0642
1640.00,0.0685
1639.00,0.0726
1638.00,0.0765
1637.00,0.0810
1636.00,0.0871
1635.00,0.0937
1634.00,0.0993
1633.00,0.1037
1632.00,0.1083
1631.00,0.1135
1630.00,0.1199
1629.00,0.1277
1628.00,0.1367
1627.00,0.1457
1626.00,0.1531
1625.00,0.1588
1624.00,0.1631
1623.00,0.1649
1622.00,0.1632
1621.00,0.1581
1620.00,0.1509
1619.00,0.1417
1618.00,0.1300
1617.00,0.1160
1616.00,0.1022
1615.00,0.0909
1614.00,0.0819
1613.00,0.0741
1612.00,0.0669
1611.00,0.0604
1610.00,0.0546
1609.00,0.0495
1608.00,0.0451
1607.00,0.0413
1606.00,0.0381
1605.00,0.0355
1604.00,0.0333
1603.00,0.0313
1602.00,0.0298
1601.00,0.0285
1600.00,0.0274
1599.00,0.0265
1598.00,0.0259
1597.00,0.0255
1596.00,0.0253
1595.00,0.0254
1594.00,0.0258
1593.00,0.0265
1592.00,0.0277
1591.00,0.0292
1590.00,0.0312
1589.00,0.0339
1588.00,0.0373
1587.00,0.0413
1586.00,0.0462
1585.00,0.0520
1584.00,0.0587
1583.00,0.0661
1582.00,0.0741
1581.00,0.0821
1580.00,0.0896
1579.00,0.0960
1578.00,0.1012
1577.00,0.1057
1576.00,0.1089
1575.00,0.1096
1574.00,0.1077
1573.00,0.1043
1572.00,0.1002
1571.00,0.0956
1570.00,0.0904
1569.00,0.0855
1568.00,0.0816
1567.00,0.0781
1566.00,0.0745
1565.00,0.0706
1564.00,0.0667
1563.00,0.0631
1562.00,0.0596
1561.00,0.0558
1560.00,0.0507
1559.00,0.0442
1558.00,0.0390
1557.00,0.0356
1556.00,0.0331
1555.00,0.0308
1554.00,0.0286
1553.00,0.0267
1552.00,0.0251
1551.00,0.0236
1550.00,0.0223
1549.00,0.0211
1548.00,0.0202
1547.00,0.0194
1546.00,0.0187
1545.00,0.0179
1544.00,0.0173
1543.00,0.0167
1542.00,0.0162
1541.00,0.0158
1540.00,0.0154
1539.00,0.0154
1538.00,0.0153
1537.00,0.0151
1536.00,0.0148
1535.00,0.0146
1534.00,0.0144
1533.00,0.0144
1532.00,0.0144
1531.00,0.0144
1530.00,0.0145
1529.00,0.0146
1528.00,0.0148
1527.00,0.0150
1526.00,0.0152
1525.00,0.0155
1524.00,0.0159
1523.00,0.0165
1522.00,0.0173
1521.00,0.0185
1520.00,0.0197
1519.00,0.0208
1518.00,0.0222
1517.00,0.0241
1516.00,0.0264
1515.00,0.0285
1514.00,0.0305
1513.00,0.0323
1512.00,0.0341
1511.00,0.0355
1510.00,0.0364
1509.00,0.0368
1508.00,0.0367
1507.00,0.0358
1506.00,0.0344
1505.00,0.0329
1504.00,0.0314
1503.00,0.0299
1502.00,0.0284
1501.00,0.0270
1500.00,0.0257
1499.00,0.0245
1498.00,0.0236
1497.00,0.0229
1496.00,0.0224
1495.00,0.0221
1494.00,0.0217
1493.00,0.0214
1492.00,0.0212
1491.00,0.0208
1490.00,0.0205
1489.00,0.0202
1488.00,0.0201
1487.00,0.0200
1486.00,0.0200
1485.00,0.0200
1484.00,0.0202
1483.00,0.0203
1482.00,0.0204
1481.00,0.0207
1480.00,0.0211
1479.00,0.0215
1478.00,0.0219
1477.00,0.0226
1476.00,0.0236
1475.00,0.0247
1474.00,0.0265
1473.00,0.0294
1472.00,0.0335
1471.00,0.0381
1470.00,0.0424
1469.00,0.0464
1468.00,0.0499
1467.00,0.0526
1466.00,0.0547
1465.00,0.0568
1464.00,0.0592
1463.00,0.0617
1462.00,0.0643
1461.00,0.0671
1460.00,0.0700
1459.00,0.0733
1458.00,0.0774
1457.00,0.0827
1456.00,0.0876
1455.00,0.0910
1454.00,0.0937
1453.00,0.0967
1452.00,0.1001
1451.00,0.1036
1450.00,0.1069
1449.00,0.1100
1448.00,0.1129
1447.00,0.1151
1446.00,0.1167
1445.00,0.1181
1444.00,0.1195
1443.00,0.1212
1442.00,0.1234
1441.00,0.1263
1440.00,0.1295
1439.00,0.1329
1438.00,0.1373
1437.00,0.1434
1436.00,0.1502
1435.00,0.1560
1434.00,0.1610
1433.00,0.1659
1432.00,0.1711
1431.00,0.1761
1430.00,0.1803
1429.00,0.1826
1428.00,0.1818
1427.00,0.1774
1426.00,0.1694
1425.00,0.1581
1424.00,0.1441
1423.00,0.1294
1422.00,0.1157
1421.00,0.1028
1420.00,0.0896
1419.00,0.0766
1418.00,0.0660
1417.00,0.0584
1416.00,0.0526
1415.00,0.0480
1414.00,0.0443
1413.00,0.0411
1412.00,0.0385
1411.00,0.0364
1410.00,0.0348
1409.00,0.0336
1408.00,0.0326
1407.00,0.0321
1406.00,0.0319
1405.00,0.0319
1404.00,0.0323
1403.00,0.0330
1402.00,0.0339
1401.00,0.0351
1400.00,0.0367
1399.00,0.0385
1398.00,0.0404
1397.00,0.0420
1396.00,0.0433
1395.00,0.0442
1394.00,0.0446
1393.00,0.0444
1392.00,0.0437
1391.00,0.0428
1390.00,0.0419
1389.00,0.0414
1388.00,0.0416
1387.00,0.0428
1386.00,0.0452
1385.00,0.0485
1384.00,0.0524
1383.00,0.0570
1382.00,0.0619
1381.00,0.0671
1380.00,0.0725
1379.00,0.0779
1378.00,0.0827
1377.00,0.0858
1376.00,0.0867
1375.00,0.0848
1374.00,0.0808
1373.00,0.0762
1372.00,0.0723
1371.00,0.0697
1370.00,0.0685
1369.00,0.0681
1368.00,0.0680
1367.00,0.0677
1366.00,0.0669
1365.00,0.0657
1364.00,0.0641
1363.00,0.0625
1362.00,0.0613
1361.00,0.0605
1360.00,0.0602
1359.00,0.0603
1358.00,0.0608
1357.00,0.0617
1356.00,0.0629
1355.00,0.0643
1354.00,0.0660
1353.00,0.0676
1352.00,0.0691
1351.00,0.0705
1350.00,0.0718
1349.00,0.0729
1348.00,0.0740
1347.00,0.0751
1346.00,0.0761
1345.00,0.0772
1344.00,0.0781
1343.00,0.0789
1342.00,0.0795
1341.00,0.0798
1340.00,0.0798
1339.00,0.0795
1338.00,0.0791
1337.00,0.0787
1336.00,0.0784
1335.00,0.0782
1334.00,0.0782
1333.00,0.0782
1332.00,0.0782
1331.00,0.0781
1330.00,0.0778
1329.00,0.0773
1328.00,0.0765
1327.00,0.0755
1326.00,0.0743
1325.00,0.0728
1324.00,0.0712
1323.00,0.0694
1322.00,0.0675
1321.00,0.0655
1320.00,0.0636
1319.00,0.0617
1318.00,0.0599
1317.00,0.0581
1316.00,0.0564
1315.00,0.0548
1314.00,0.0532
1313.00,0.0519
1312.00,0.0507
1311.00,0.0499
1310.00,0.0496
1309.00,0.0497
1308.00,0.0502
1307.00,0.0513
1306.00,0.0528
1305.00,0.0545
1304.00,0.0564
1303.00,0.0581
1302.00,0.0596
1301.00,0.0606
1300.00,0.0611
1299.00,0.0612
1298.00,0.0609
1297.00,0.0604
1296.00,0.0598
1295.00,0.0593
1294.00,0.0588
1293.00,0.0585
1292.00,0.0584
1291.00,0.0586
1290.00,0.0590
1289.00,0.0598
1288.00,0.0608
1287.00,0.0621
1286.00,0.0635
1285.00,0.0650
1284.00,0.0665
1283.00,0.0681
1282.00,0.0695
1281.00,0.0709
1280.00,0.0721
1279.00,0.0733
1278.00,0.0744
1277.00,0.0755
1276.00,0.0764
1275.00,0.0773
1274.00,0.0782
1273.00,0.0789
1272.00,0.0795
1271.00,0.0800
1270.00,0.0803
1269.00,0.0804
1268.00,0.0805
1267.00,0.0804
1266.00,0.0803
1265.00,0.0801
1264.00,0.0798
1263.00,0.0795
1262.00,0.0792
1261.00,0.0790
1260.00,0.0789
1259.00,0.0791
1258.00,0.0797
1257.00,0.0805
1256.00,0.0817
1255.00,0.0832
1254.00,0.0849
1253.00,0.0868
1252.00,0.0885
1251.00,0.0900
1250.00,0.0908
1249.00,0.0908
1248.00,0.0900
1247.00,0.0881
1246.00,0.0854
1245.00,0.0821
1244.00,0.0783
1243.00,0.0745
1242.00,0.0707
1241.00,0.0671
1240.00,0.0639
1239.00,0.0610
1238.00,0.0584
1237.00,0.0563
1236.00,0.0545
1235.00,0.0530
1234.00,0.0520
1233.00,0.0513
1232.00,0.0510
1231.00,0.0512
1230.00,0.0519
1229.00,0.0531
1228.00,0.0546
1227.00,0.0563
1226.00,0.0581
1225.00,0.0598
1224.00,0.0612
1223.00,0.0624
1222.00,0.0632
1221.00,0.0640
1220.00,0.0646
1219.00,0.0654
1218.00,0.0662
1217.00,0.0672
1216.00,0.0683
1215.00,0.0694
1214.00,0.0707
1213.00,0.0719
1212.00,0.0732
1211.00,0.0744
1210.00,0.0756
1209.00,0.0767
1208.00,0.0776
1207.00,0.0783
1206.00,0.0788
1205.00,0.0791
1204.00,0.0792
1203.00,0.0792
1202.00,0.0792
1201.00,0.0793
1200.00,0.0794
1199.00,0.0795
1198.00,0.0797
1197.00,0.0799
1196.00,0.0800
1195.00,0.0800
1194.00,0.0799
1193.00,0.0795
1192.00,0.0790
1191.00,0.0782
1190.00,0.0773
1189.00,0.0762
1188.00,0.0751
1187.00,0.0740
1186.00,0.0729
1185.00,0.0718
1184.00,0.0706
1183.00,0.0695
1182.00,0.0684
1181.00,0.0672
1180.00,0.0661
1179.00,0.0650
1178.00,0.0639
1177.00,0.0629
1176.00,0.0620
1175.00,0.0613
1174.00,0.0608
1173.00,0.0605
1172.00,0.0605
1171.00,0.0607
1170.00,0.0612
1169.00,0.0620
1168.00,0.0630
1167.00,0.0643
1166.00,0.0657
1165.00,0.0672
1164.00,0.0686
1163.00,0.0699
1162.00,0.0710
1161.00,0.0719
1160.00,0.0725
1159.00,0.0728
1158.00,0.0730
1157.00,0.0731
1156.00,0.0734
1155.00,0.0739
1154.00,0.0750
1153.00,0.0770
1152.00,0.0800
1151.00,0.0844
1150.00,0.0902
1149.00,0.0972
1148.00,0.1050
1147.00,0.1128
1146.00,0.1198
1145.00,0.1254
1144.00,0.1293
1143.00,0.1313
1142.00,0.1317
1141.00,0.1308
1140.00,0.1291
1139.00,0.1265
1138.00,0.1232
1137.00,0.1192
1136.00,0.1146
1135.00,0.1093
1134.00,0.1037
1133.00,0.0980
1132.00,0.0925
1131.00,0.0877
1130.00,0.0836
1129.00,0.0805
1128.00,0.0783
1127.00,0.0769
1126.00,0.0761
1125.00,0.0756
1124.00,0.0754
1123.00,0.0753
1122.00,0.0752
1121.00,0.0753
1120.00,0.0756
1119.00,0.0762
1118.00,0.0775
1117.00,0.0794
1116.00,0.0820
1115.00,0.0852
1114.00,0.0887
1113.00,0.0922
1112.00,0.0953
1111.00,0.0979
1110.00,0.0998
1109.00,0.1011
1108.00,0.1020
1107.00,0.1027
1106.00,0.1032
1105.00,0.1040
1104.00,0.1049
1103.00,0.1062
1102.00,0.1079
1101.00,0.1099
1100.00,0.1120
1099.00,0.1141
1098.00,0.1159
1097.00,0.1172
1096.00,0.1180
1095.00,0.1183
1094.00,0.1186
1093.00,0.1194
1092.00,0.1216
1091.00,0.1253
1090.00,0.1311
1089.00,0.1387
1088.00,0.1479
1087.00,0.1581
1086.00,0.1683
1085.00,0.1779
1084.00,0.1859
1083.00,0.1917
1082.00,0.1949
1081.00,0.1953
1080.00,0.1931
1079.00,0.1884
1078.00,0.1815
1077.00,0.1728
1076.00,0.1627
1075.00,0.1517
1074.00,0.1403
1073.00,0.1292
1072.00,0.1189
1071.00,0.1098
1070.00,0.1023
1069.00,0.0966
1068.00,0.0929
1067.00,0.0913
1066.00,0.0921
1065.00,0.0952
1064.00,0.1007
1063.00,0.1086
1062.00,0.1188
1061.00,0.1312
1060.00,0.1454
1059.00,0.1612
1058.00,0.1781
1057.00,0.1956
1056.00,0.2131
1055.00,0.2299
1054.00,0.2453
1053.00,0.2586
1052.00,0.2690
1051.00,0.2759
1050.00,0.2785
1049.00,0.2766
1048.00,0.2701
1047.00,0.2595
1046.00,0.2456
1045.00,0.2294
1044.00,0.2120
1043.00,0.1945
1042.00,0.1776
1041.00,0.1621
1040.00,0.1483
1039.00,0.1363
1038.00,0.1261
1037.00,0.1175
1036.00,0.1104
1035.00,0.1044
1034.00,0.0995
1033.00,0.0955
1032.00,0.0921
1031.00,0.0891
1030.00,0.0866
1029.00,0.0843
1028.00,0.0821
1027.00,0.0800
1026.00,0.0779
1025.00,0.0758
1024.00,0.0736
1023.00,0.0714
1022.00,0.0693
1021.00,0.0672
1020.00,0.0653
1019.00,0.0638
1018.00,0.0626
1017.00,0.0619
1016.00,0.0616
1015.00,0.0616
1014.00,0.0618
1013.00,0.0619
1012.00,0.0618
1011.00,0.0614
1010.00,0.0606
1009.00,0.0596
1008.00,0.0585
1007.00,0.0577
1006.00,0.0571
1005.00,0.0572
1004.00,0.0577
1003.00,0.0586
1002.00,0.0596
1001.00,0.0605
1000.00,0.0611
999.00,0.0613
998.00,0.0613
997.00,0.0613
996.00,0.0615
995.00,0.0622
994.00,0.0635
993.00,0.0653
992.00,0.0674
991.00,0.0696
990.00,0.0712
989.00,0.0722
988.00,0.0723
987.00,0.0715
986.00,0.0700
985.00,0.0678
984.00,0.0653
983.00,0.0627
982.00,0.0602
981.00,0.0581
980.00,0.0565
979.00,0.0553
978.00,0.0544
977.00,0.0536
976.00,0.0527
975.00,0.0517
974.00,0.0506
973.00,0.0492
972.00,0.0477
971.00,0.0462
970.00,0.0447
969.00,0.0432
968.00,0.0419
967.00,0.0409
966.00,0.0402
965.00,0.0397
964.00,0.0393
963.00,0.0390
962.00,0.0388
961.00,0.0384
960.00,0.0379
959.00,0.0374
958.00,0.0367
957.00,0.0361
956.00,0.0354
955.00,0.0348
954.00,0.0341
953.00,0.0335
952.00,0.0328
951.00,0.0322
950.00,0.0316
949.00,0.0310
948.00,0.0304
947.00,0.0300
946.00,0.0296
945.00,0.0292
944.00,0.0290
943.00,0.0288
942.00,0.0287
941.00,0.0286
940.00,0.0287
939.00,0.0288
938.00,0.0291
937.00,0.0295
936.00,0.0300
935.00,0.0306
934.00,0.0313
933.00,0.0322
932.00,0.0334
931.00,0.0347
930.00,0.0363
929.00,0.0380
928.00,0.0397
927.00,0.0414
926.00,0.0429
925.00,0.0444
924.00,0.0455
923.00,0.0463
922.00,0.0464
921.00,0.0458
920.00,0.0444
919.00,0.0425
918.00,0.0406
917.00,0.0389
916.00,0.0377
915.00,0.0371
914.00,0.0372
913.00,0.0377
912.00,0.0387
911.00,0.0399
910.00,0.0414
909.00,0.0432
908.00,0.0451
907.00,0.0473
906.00,0.0495
905.00,0.0516
904.00,0.0535
903.00,0.0551
902.00,0.0562
901.00,0.0566
900.00,0.0564
899.00,0.0556
898.00,0.0545
897.00,0.0531
896.00,0.0516
895.00,0.0501
894.00,0.0487
893.00,0.0473
892.00,0.0460
891.00,0.0447
890.00,0.0434
889.00,0.0421
888.00,0.0408
887.00,0.0395
886.00,0.0384
885.00,0.0373
884.00,0.0364
883.00,0.0355
882.00,0.0346
881.00,0.0339
880.00,0.0333
879.00,0.0329
878.00,0.0326
877.00,0.0325
876.00,0.0327
875.00,0.0333
874.00,0.0342
873.00,0.0357
872.00,0.0377
871.00,0.0404
870.00,0.0436
869.00,0.0473
868.00,0.0513
867.00,0.0552
866.00,0.0587
865.00,0.0616
864.00,0.0635
863.00,0.0647
862.00,0.0651
861.00,0.0651
860.00,0.0650
859.00,0.0649
858.00,0.0651
857.00,0.0655
856.00,0.0662
855.00,0.0673
854.00,0.0686
853.00,0.0701
852.00,0.0719
851.00,0.0737
850.00,0.0754
849.00,0.0771
848.00,0.0787
847.00,0.0801
846.00,0.0815
845.00,0.0829
844.00,0.0844
843.00,0.0859
842.00,0.0876
841.00,0.0896
840.00,0.0918
839.00,0.0943
838.00,0.0972
837.00,0.1003
836.00,0.1036
835.00,0.1068
834.00,0.1098
833.00,0.1124
832.00,0.1145
831.00,0.1160
830.00,0.1167
829.00,0.1165
828.00,0.1154
827.00,0.1132
826.00,0.1101
825.00,0.1062
824.00,0.1018
823.00,0.0969
822.00,0.0919
821.00,0.0869
820.00,0.0821
819.00,0.0775
818.00,0.0733
817.00,0.0695
816.00,0.0661
815.00,0.0630
814.00,0.0603
813.00,0.0579
812.00,0.0559
811.00,0.0541
810.00,0.0526
809.00,0.0512
808.00,0.0499
807.00,0.0487
806.00,0.0476
805.00,0.0466
804.00,0.0456
803.00,0.0446
802.00,0.0437
801.00,0.0428
800.00,0.0419
799.00,0.0410
798.00,0.0402
797.00,0.0395
796.00,0.0390
795.00,0.0387
794.00,0.0386
793.00,0.0387
792.00,0.0390
791.00,0.0393
790.00,0.0397
789.00,0.0403
788.00,0.0413
787.00,0.0431
786.00,0.0458
785.00,0.0496
784.00,0.0548
783.00,0.0617
782.00,0.0702
781.00,0.0807
780.00,0.0931
779.00,0.1070
778.00,0.1220
777.00,0.1372
776.00,0.1515
775.00,0.1632
774.00,0.1708
773.00,0.1729
772.00,0.1690
771.00,0.1595
770.00,0.1460
769.00,0.1305
768.00,0.1150
767.00,0.1007
766.00,0.0884
765.00,0.0783
764.00,0.0704
763.00,0.0644
762.00,0.0601
761.00,0.0572
760.00,0.0553
759.00,0.0542
758.00,0.0536
757.00,0.0533
756.00,0.0533
755.00,0.0535
754.00,0.0537
753.00,0.0541
752.00,0.0544
751.00,0.0547
750.00,0.0550
749.00,0.0552
748.00,0.0553
747.00,0.0554
746.00,0.0555
745.00,0.0556
744.00,0.0557
743.00,0.0559
742.00,0.0562
741.00,0.0565
740.00,0.0568
739.00,0.0567
738.00,0.0563
737.00,0.0555
736.00,0.0546
735.00,0.0536
734.00,0.0527
733.00,0.0522
732.00,0.0520
731.00,0.0522
730.00,0.0528
729.00,0.0535
728.00,0.0545
727.00,0.0555
726.00,0.0567
725.00,0.0580
724.00,0.0594
723.00,0.0610
722.00,0.0629
721.00,0.0649
720.00,0.0672
719.00,0.0696
718.00,0.0720
717.00,0.0743
716.00,0.0765
715.00,0.0783
714.00,0.0796
713.00,0.0803
712.00,0.0802
711.00,0.0796
710.00,0.0787
709.00,0.0778
708.00,0.0771
707.00,0.0767
706.00,0.0766
705.00,0.0764
704.00,0.0759
703.00,0.0749
702.00,0.0731
701.00,0.0706
700.00,0.0676
699.00,0.0641
698.00,0.0606
697.00,0.0571
696.00,0.0540
695.00,0.0514
694.00,0.0492
693.00,0.0475
692.00,0.0462
691.00,0.0453
690.00,0.0445
689.00,0.0440
688.00,0.0435
687.00,0.0432
686.00,0.0429
685.00,0.0427
684.00,0.0427
683.00,0.0428
682.00,0.0430
681.00,0.0435
680.00,0.0441
679.00,0.0448
678.00,0.0455
677.00,0.0464
676.00,0.0473
675.00,0.0483
674.00,0.0494
673.00,0.0506
672.00,0.0518
671.00,0.0530
670.00,0.0542
669.00,0.0557
668.00,0.0578
667.00,0.0603
666.00,0.0626
665.00,0.0646
664.00,0.0664
663.00,0.0681
662.00,0.0695
661.00,0.0706
660.00,0.0712
659.00,0.0714
658.00,0.0709
657.00,0.0700
656.00,0.0685
655.00,0.0667
654.00,0.0647
653.00,0.0627
652.00,0.0608
651.00,0.0591
650.00,0.0575
649.00,0.0562
648.00,0.0551
647.00,0.0541
646.00,0.0533
645.00,0.0528
644.00,0.0524
643.00,0.0521
642.00,0.0520
641.00,0.0519
640.00,0.0521
639.00,0.0524
638.00,0.0528
637.00,0.0533
636.00,0.0539
635.00,0.0546
634.00,0.0553
633.00,0.0561
632.00,0.0570
631.00,0.0579
630.00,0.0588
629.00,0.0597
628.00,0.0605
627.00,0.0612
626.00,0.0617
625.00,0.0622
624.00,0.0625
623.00,0.0627
622.00,0.0627
621.00,0.0625
620.00,0.0622
619.00,0.0618
618.00,0.0614
617.00,0.0609
616.00,0.0605
615.00,0.0601
614.00,0.0597
613.00,0.0593
612.00,0.0589
611.00,0.0585
610.00,0.0581
609.00,0.0577
608.00,0.0574
607.00,0.0572
606.00,0.0569
605.00,0.0568
604.00,0.0566
603.00,0.0564
602.00,0.0562
601.00,0.0561
600.00,0.0560
599.00,0.0559
598.00,0.0560
597.00,0.0563
596.00,0.0568
595.00,0.0575
594.00,0.0582
593.00,0.0592
592.00,0.0603
591.00,0.0617
590.00,0.0632
589.00,0.0645
588.00,0.0656
587.00,0.0664
586.00,0.0667
585.00,0.0666
584.00,0.0662
583.00,0.0656
582.00,0.0647
581.00,0.0637
580.00,0.0627
579.00,0.0617
578.00,0.0608
577.00,0.0601
576.00,0.0599
575.00,0.0600
574.00,0.0605
573.00,0.0612
572.00,0.0623
571.00,0.0637
570.00,0.0653
569.00,0.0670
568.00,0.0685
567.00,0.0697
566.00,0.0703
565.00,0.0702
564.00,0.0696
563.00,0.0685
562.00,0.0672
561.00,0.0657
560.00,0.0642
559.00,0.0629
558.00,0.0618
557.00,0.0609
556.00,0.0603
555.00,0.0598
554.00,0.0595
553.00,0.0595
552.00,0.0595
551.00,0.0596
550.00,0.0598
549.00,0.0599
548.00,0.0601
547.00,0.0604
546.00,0.0608
545.00,0.0612
544.00,0.0617
543.00,0.0620
542.00,0.0624
541.00,0.0627
540.00,0.0629
539.00,0.0631
538.00,0.0633
537.00,0.0634
536.00,0.0636
535.00,0.0639
534.00,0.0641
533.00,0.0644
532.00,0.0648
531.00,0.0653
530.00,0.0656
529.00,0.0657
528.00,0.0656
527.00,0.0653
526.00,0.0647
525.00,0.0640
524.00,0.0632
523.00,0.0623
522.00,0.0614
521.00,0.0606
520.00,0.0596
519.00,0.0586
518.00,0.0576
517.00,0.0567
516.00,0.0561
515.00,0.0557
514.00,0.0554
513.00,0.0551
512.00,0.0550
511.00,0.0549
510.00,0.0549
509.00,0.0548
508.00,0.0547
507.00,0.0546
506.00,0.0548
505.00,0.0550
504.00,0.0552
503.00,0.0553
502.00,0.0552
501.00,0.0552
500.00,0.0552
499.00,0.0552
498.00,0.0552
497.00,0.0553
496.00,0.0556
495.00,0.0559
494.00,0.0562
493.00,0.0564
492.00,0.0566
491.00,0.0568
490.00,0.0569
489.00,0.0570
488.00,0.0572
487.00,0.0573
486.00,0.0574
485.00,0.0576
484.00,0.0578
483.00,0.0578
482.00,0.0575
481.00,0.0571
480.00,0.0568
479.00,0.0565
478.00,0.0562
477.00,0.0561
476.00,0.0563
475.00,0.0566
474.00,0.0569
473.00,0.0571
472.00,0.0574
471.00,0.0579
470.00,0.0584
469.00,0.0589
468.00,0.0593
467.00,0.0597
466.00,0.0602
465.00,0.0608
464.00,0.0616
463.00,0.0624
462.00,0.0631
461.00,0.0638
460.00,0.0646
459.00,0.0655
458.00,0.0665
457.00,0.0674
456.00,0.0683
455.00,0.0690
454.00,0.0694
453.00,0.0697
452.00,0.0696
451.00,0.0692
450.00,0.0687
449.00,0.0683
448.00,0.0681
447.00,0.0679
446.00,0.0676
445.00,0.0672
444.00,0.0669
443.00,0.0666
442.00,0.0662
441.00,0.0656
440.00,0.0650
439.00,0.0646
438.00,0.0644
437.00,0.0643
436.00,0.0642
435.00,0.0638
434.00,0.0631
433.00,0.0626
432.00,0.0624
431.00,0.0622
430.00,0.0618
429.00,0.0611
428.00,0.0604
427.00,0.0599
426.00,0.0594
425.00,0.0591
424.00,0.0589
423.00,0.0588
422.00,0.0588
421.00,0.0587
420.00,0.0586
419.00,0.0582
418.00,0.0577
417.00,0.0574
416.00,0.0575
415.00,0.0579
414.00,0.0583
413.00,0.0583
412.00,0.0581
411.00,0.0577
410.00,0.0576
409.00,0.0581
408.00,0.0591
407.00,0.0599
406.00,0.0599
405.00,0.0592
404.00,0.0586
403.00,0.0582
402.00,0.0583
401.00,0.0591
400.00,0.0601
