Created as New Dataset,Sample 290 By YargerLab Date Saturday, October 18 2025
cm-1,A
4000.00,0.0017
3999.00,0.0017
3998.00,0.0017
3997.00,0.0017
3996.00,0.0017
3995.00,0.0017
3994.00,0.0017
3993.00,0.0017
3992.00,0.0017
3991.00,0.0017
3990.00,0.0017
3989.00,0.0017
3988.00,0.0017
3987.00,0.0017
3986.00,0.0017
3985.00,0.0017
3984.00,0.0017
3983.00,0.0017
3982.00,0.0017
3981.00,0.0017
3980.00,0.0017
3979.00,0.0017
3978.00,0.0017
3977.00,0.0017
3976.00,0.0018
3975.00,0.0018
3974.00,0.0018
3973.00,0.0018
3972.00,0.0018
3971.00,0.0018
3970.00,0.0018
3969.00,0.0018
3968.00,0.0018
3967.00,0.0018
3966.00,0.0018
3965.00,0.0018
3964.00,0.0018
3963.00,0.0018
3962.00,0.0018
3961.00,0.0018
3960.00,0.0018
3959.00,0.0018
3958.00,0.0018
3957.00,0.0018
3956.00,0.0018
3955.00,0.0018
3954.00,0.0018
3953.00,0.0018
3952.00,0.0018
3951.00,0.0018
3950.00,0.0018
3949.00,0.0018
3948.00,0.0018
3947.00,0.0019
3946.00,0.0019
3945.00,0.0019
3944.00,0.0018
3943.00,0.0018
3942.00,0.0018
3941.00,0.0018
3940.00,0.0018
3939.00,0.0018
3938.00,0.0017
3937.00,0.0018
3936.00,0.0018
3935.00,0.0018
3934.00,0.0018
3933.00,0.0018
3932.00,0.0018
3931.00,0.0018
3930.00,0.0017
3929.00,0.0017
3928.00,0.0017
3927.00,0.0017
3926.00,0.0017
3925.00,0.0018
3924.00,0.0018
3923.00,0.0018
3922.00,0.0018
3921.00,0.0018
3920.00,0.0018
3919.00,0.0018
3918.00,0.0017
3917.00,0.0017
3916.00,0.0018
3915.00,0.0018
3914.00,0.0018
3913.00,0.0017
3912.00,0.0017
3911.00,0.0017
3910.00,0.0017
3909.00,0.0017
3908.00,0.0017
3907.00,0.0018
3906.00,0.0018
3905.00,0.0018
3904.00,0.0019
3903.00,0.0019
3902.00,0.0019
3901.00,0.0018
3900.00,0.0018
3899.00,0.0017
3898.00,0.0017
3897.00,0.0016
3896.00,0.0016
3895.00,0.0016
3894.00,0.0016
3893.00,0.0016
3892.00,0.0016
3891.00,0.0017
3890.00,0.0017
3889.00,0.0018
3888.00,0.0018
3887.00,0.0017
3886.00,0.0017
3885.00,0.0017
3884.00,0.0018
3883.00,0.0017
3882.00,0.0017
3881.00,0.0016
3880.00,0.0016
3879.00,0.0017
3878.00,0.0017
3877.00,0.0017
3876.00,0.0017
3875.00,0.0017
3874.00,0.0017
3873.00,0.0018
3872.00,0.0018
3871.00,0.0017
3870.00,0.0017
3869.00,0.0017
3868.00,0.0017
3867.00,0.0017
3866.00,0.0017
3865.00,0.0017
3864.00,0.0017
3863.00,0.0017
3862.00,0.0017
3861.00,0.0017
3860.00,0.0017
3859.00,0.0017
3858.00,0.0017
3857.00,0.0018
3856.00,0.0019
3855.00,0.0019
3854.00,0.0018
3853.00,0.0018
3852.00,0.0019
3851.00,0.0019
3850.00,0.0018
3849.00,0.0017
3848.00,0.0016
3847.00,0.0016
3846.00,0.0016
3845.00,0.0016
3844.00,0.0017
3843.00,0.0017
3842.00,0.0018
3841.00,0.0018
3840.00,0.0017
3839.00,0.0017
3838.00,0.0016
3837.00,0.0016
3836.00,0.0016
3835.00,0.0016
3834.00,0.0016
3833.00,0.0016
3832.00,0.0016
3831.00,0.0016
3830.00,0.0016
3829.00,0.0016
3828.00,0.0015
3827.00,0.0015
3826.00,0.0016
3825.00,0.0016
3824.00,0.0016
3823.00,0.0016
3822.00,0.0015
3821.00,0.0015
3820.00,0.0016
3819.00,0.0016
3818.00,0.0016
3817.00,0.0015
3816.00,0.0015
3815.00,0.0016
3814.00,0.0016
3813.00,0.0016
3812.00,0.0016
3811.00,0.0015
3810.00,0.0016
3809.00,0.0016
3808.00,0.0016
3807.00,0.0016
3806.00,0.0016
3805.00,0.0016
3804.00,0.0016
3803.00,0.0015
3802.00,0.0015
3801.00,0.0016
3800.00,0.0017
3799.00,0.0017
3798.00,0.0016
3797.00,0.0015
3796.00,0.0014
3795.00,0.0014
3794.00,0.0014
3793.00,0.0014
3792.00,0.0014
3791.00,0.0014
3790.00,0.0014
3789.00,0.0015
3788.00,0.0015
3787.00,0.0014
3786.00,0.0014
3785.00,0.0014
3784.00,0.0014
3783.00,0.0014
3782.00,0.0014
3781.00,0.0014
3780.00,0.0014
3779.00,0.0014
3778.00,0.0014
3777.00,0.0014
3776.00,0.0014
3775.00,0.0014
3774.00,0.0014
3773.00,0.0015
3772.00,0.0015
3771.00,0.0015
3770.00,0.0015
3769.00,0.0015
3768.00,0.0015
3767.00,0.0015
3766.00,0.0014
3765.00,0.0014
3764.00,0.0014
3763.00,0.0015
3762.00,0.0015
3761.00,0.0015
3760.00,0.0015
3759.00,0.0015
3758.00,0.0015
3757.00,0.0015
3756.00,0.0015
3755.00,0.0016
3754.00,0.0016
3753.00,0.0017
3752.00,0.0017
3751.00,0.0017
3750.00,0.0017
3749.00,0.0017
3748.00,0.0018
3747.00,0.0017
3746.00,0.0017
3745.00,0.0016
3744.00,0.0016
3743.00,0.0016
3742.00,0.0016
3741.00,0.0015
3740.00,0.0015
3739.00,0.0015
3738.00,0.0015
3737.00,0.0015
3736.00,0.0015
3735.00,0.0014
3734.00,0.0013
3733.00,0.0013
3732.00,0.0012
3731.00,0.0013
3730.00,0.0013
3729.00,0.0013
3728.00,0.0013
3727.00,0.0012
3726.00,0.0012
3725.00,0.0012
3724.00,0.0012
3723.00,0.0012
3722.00,0.0012
3721.00,0.0012
3720.00,0.0012
3719.00,0.0012
3718.00,0.0012
3717.00,0.0012
3716.00,0.0013
3715.00,0.0013
3714.00,0.0014
3713.00,0.0014
3712.00,0.0014
3711.00,0.0014
3710.00,0.0014
3709.00,0.0013
3708.00,0.0013
3707.00,0.0013
3706.00,0.0012
3705.00,0.0013
3704.00,0.0013
3703.00,0.0012
3702.00,0.0012
3701.00,0.0012
3700.00,0.0013
3699.00,0.0013
3698.00,0.0012
3697.00,0.0012
3696.00,0.0012
3695.00,0.0012
3694.00,0.0013
3693.00,0.0013
3692.00,0.0013
3691.00,0.0013
3690.00,0.0013
3689.00,0.0013
3688.00,0.0013
3687.00,0.0014
3686.00,0.0014
3685.00,0.0013
3684.00,0.0013
3683.00,0.0013
3682.00,0.0013
3681.00,0.0013
3680.00,0.0013
3679.00,0.0014
3678.00,0.0015
3677.00,0.0015
3676.00,0.0015
3675.00,0.0015
3674.00,0.0016
3673.00,0.0016
3672.00,0.0015
3671.00,0.0014
3670.00,0.0014
3669.00,0.0014
3668.00,0.0015
3667.00,0.0015
3666.00,0.0014
3665.00,0.0013
3664.00,0.0013
3663.00,0.0013
3662.00,0.0013
3661.00,0.0013
3660.00,0.0014
3659.00,0.0014
3658.00,0.0014
3657.00,0.0014
3656.00,0.0014
3655.00,0.0015
3654.00,0.0015
3653.00,0.0016
3652.00,0.0016
3651.00,0.0016
3650.00,0.0016
3649.00,0.0016
3648.00,0.0016
3647.00,0.0016
3646.00,0.0016
3645.00,0.0016
3644.00,0.0015
3643.00,0.0015
3642.00,0.0015
3641.00,0.0016
3640.00,0.0016
3639.00,0.0016
3638.00,0.0016
3637.00,0.0017
3636.00,0.0017
3635.00,0.0018
3634.00,0.0018
3633.00,0.0020
3632.00,0.0021
3631.00,0.0022
3630.00,0.0023
3629.00,0.0024
3628.00,0.0025
3627.00,0.0027
3626.00,0.0028
3625.00,0.0028
3624.00,0.0029
3623.00,0.0030
3622.00,0.0032
3621.00,0.0033
3620.00,0.0035
3619.00,0.0036
3618.00,0.0038
3617.00,0.0039
3616.00,0.0040
3615.00,0.0040
3614.00,0.0041
3613.00,0.0042
3612.00,0.0042
3611.00,0.0043
3610.00,0.0042
3609.00,0.0042
3608.00,0.0042
3607.00,0.0042
3606.00,0.0043
3605.00,0.0043
3604.00,0.0043
3603.00,0.0044
3602.00,0.0044
3601.00,0.0045
3600.00,0.0045
3599.00,0.0046
3598.00,0.0046
3597.00,0.0047
3596.00,0.0048
3595.00,0.0048
3594.00,0.0049
3593.00,0.0050
3592.00,0.0051
3591.00,0.0053
3590.00,0.0054
3589.00,0.0055
3588.00,0.0056
3587.00,0.0056
3586.00,0.0058
3585.00,0.0059
3584.00,0.0060
3583.00,0.0061
3582.00,0.0062
3581.00,0.0063
3580.00,0.0065
3579.00,0.0066
3578.00,0.0067
3577.00,0.0069
3576.00,0.0071
3575.00,0.0073
3574.00,0.0075
3573.00,0.0077
3572.00,0.0078
3571.00,0.0080
3570.00,0.0082
3569.00,0.0083
3568.00,0.0085
3567.00,0.0087
3566.00,0.0089
3565.00,0.0091
3564.00,0.0092
3563.00,0.0094
3562.00,0.0096
3561.00,0.0098
3560.00,0.0100
3559.00,0.0101
3558.00,0.0103
3557.00,0.0105
3556.00,0.0107
3555.00,0.0109
3554.00,0.0111
3553.00,0.0113
3552.00,0.0116
3551.00,0.0118
3550.00,0.0120
3549.00,0.0123
3548.00,0.0125
3547.00,0.0127
3546.00,0.0130
3545.00,0.0132
3544.00,0.0134
3543.00,0.0136
3542.00,0.0138
3541.00,0.0140
3540.00,0.0142
3539.00,0.0144
3538.00,0.0146
3537.00,0.0148
3536.00,0.0150
3535.00,0.0152
3534.00,0.0154
3533.00,0.0156
3532.00,0.0158
3531.00,0.0160
3530.00,0.0162
3529.00,0.0163
3528.00,0.0165
3527.00,0.0167
3526.00,0.0169
3525.00,0.0171
3524.00,0.0172
3523.00,0.0173
3522.00,0.0175
3521.00,0.0176
3520.00,0.0177
3519.00,0.0179
3518.00,0.0180
3517.00,0.0181
3516.00,0.0183
3515.00,0.0184
3514.00,0.0186
3513.00,0.0188
3512.00,0.0189
3511.00,0.0191
3510.00,0.0192
3509.00,0.0193
3508.00,0.0195
3507.00,0.0196
3506.00,0.0197
3505.00,0.0199
3504.00,0.0201
3503.00,0.0202
3502.00,0.0204
3501.00,0.0206
3500.00,0.0207
3499.00,0.0209
3498.00,0.0210
3497.00,0.0212
3496.00,0.0213
3495.00,0.0215
3494.00,0.0217
3493.00,0.0219
3492.00,0.0220
3491.00,0.0222
3490.00,0.0223
3489.00,0.0225
3488.00,0.0227
3487.00,0.0229
3486.00,0.0231
3485.00,0.0233
3484.00,0.0235
3483.00,0.0236
3482.00,0.0238
3481.00,0.0240
3480.00,0.0242
3479.00,0.0243
3478.00,0.0245
3477.00,0.0247
3476.00,0.0248
3475.00,0.0250
3474.00,0.0252
3473.00,0.0254
3472.00,0.0256
3471.00,0.0257
3470.00,0.0259
3469.00,0.0261
3468.00,0.0263
3467.00,0.0265
3466.00,0.0267
3465.00,0.0269
3464.00,0.0271
3463.00,0.0272
3462.00,0.0274
3461.00,0.0276
3460.00,0.0278
3459.00,0.0279
3458.00,0.0281
3457.00,0.0283
3456.00,0.0284
3455.00,0.0286
3454.00,0.0288
3453.00,0.0289
3452.00,0.0291
3451.00,0.0293
3450.00,0.0295
3449.00,0.0297
3448.00,0.0298
3447.00,0.0300
3446.00,0.0301
3445.00,0.0303
3444.00,0.0304
3443.00,0.0306
3442.00,0.0308
3441.00,0.0309
3440.00,0.0311
3439.00,0.0312
3438.00,0.0314
3437.00,0.0315
3436.00,0.0317
3435.00,0.0319
3434.00,0.0320
3433.00,0.0321
3432.00,0.0323
3431.00,0.0324
3430.00,0.0326
3429.00,0.0327
3428.00,0.0328
3427.00,0.0329
3426.00,0.0330
3425.00,0.0331
3424.00,0.0332
3423.00,0.0333
3422.00,0.0333
3421.00,0.0334
3420.00,0.0335
3419.00,0.0336
3418.00,0.0337
3417.00,0.0338
3416.00,0.0338
3415.00,0.0339
3414.00,0.0340
3413.00,0.0341
3412.00,0.0341
3411.00,0.0342
3410.00,0.0342
3409.00,0.0343
3408.00,0.0343
3407.00,0.0343
3406.00,0.0343
3405.00,0.0344
3404.00,0.0344
3403.00,0.0344
3402.00,0.0344
3401.00,0.0344
3400.00,0.0344
3399.00,0.0343
3398.00,0.0343
3397.00,0.0343
3396.00,0.0343
3395.00,0.0343
3394.00,0.0342
3393.00,0.0342
3392.00,0.0342
3391.00,0.0341
3390.00,0.0340
3389.00,0.0339
3388.00,0.0339
3387.00,0.0338
3386.00,0.0337
3385.00,0.0336
3384.00,0.0335
3383.00,0.0334
3382.00,0.0333
3381.00,0.0333
3380.00,0.0332
3379.00,0.0331
3378.00,0.0330
3377.00,0.0329
3376.00,0.0328
3375.00,0.0327
3374.00,0.0326
3373.00,0.0324
3372.00,0.0323
3371.00,0.0322
3370.00,0.0321
3369.00,0.0320
3368.00,0.0319
3367.00,0.0317
3366.00,0.0316
3365.00,0.0314
3364.00,0.0312
3363.00,0.0311
3362.00,0.0309
3361.00,0.0308
3360.00,0.0307
3359.00,0.0306
3358.00,0.0304
3357.00,0.0303
3356.00,0.0302
3355.00,0.0300
3354.00,0.0299
3353.00,0.0298
3352.00,0.0296
3351.00,0.0295
3350.00,0.0293
3349.00,0.0292
3348.00,0.0290
3347.00,0.0288
3346.00,0.0287
3345.00,0.0285
3344.00,0.0284
3343.00,0.0283
3342.00,0.0282
3341.00,0.0280
3340.00,0.0279
3339.00,0.0277
3338.00,0.0276
3337.00,0.0274
3336.00,0.0273
3335.00,0.0271
3334.00,0.0270
3333.00,0.0268
3332.00,0.0267
3331.00,0.0265
3330.00,0.0264
3329.00,0.0262
3328.00,0.0261
3327.00,0.0259
3326.00,0.0258
3325.00,0.0257
3324.00,0.0256
3323.00,0.0254
3322.00,0.0253
3321.00,0.0252
3320.00,0.0250
3319.00,0.0249
3318.00,0.0247
3317.00,0.0246
3316.00,0.0245
3315.00,0.0244
3314.00,0.0242
3313.00,0.0241
3312.00,0.0240
3311.00,0.0238
3310.00,0.0237
3309.00,0.0235
3308.00,0.0234
3307.00,0.0232
3306.00,0.0231
3305.00,0.0230
3304.00,0.0228
3303.00,0.0227
3302.00,0.0226
3301.00,0.0225
3300.00,0.0224
3299.00,0.0223
3298.00,0.0221
3297.00,0.0219
3296.00,0.0217
3295.00,0.0216
3294.00,0.0215
3293.00,0.0213
3292.00,0.0212
3291.00,0.0212
3290.00,0.0211
3289.00,0.0210
3288.00,0.0209
3287.00,0.0208
3286.00,0.0207
3285.00,0.0206
3284.00,0.0205
3283.00,0.0204
3282.00,0.0202
3281.00,0.0201
3280.00,0.0200
3279.00,0.0199
3278.00,0.0197
3277.00,0.0196
3276.00,0.0194
3275.00,0.0192
3274.00,0.0190
3273.00,0.0189
3272.00,0.0187
3271.00,0.0186
3270.00,0.0185
3269.00,0.0185
3268.00,0.0185
3267.00,0.0185
3266.00,0.0184
3265.00,0.0183
3264.00,0.0182
3263.00,0.0181
3262.00,0.0180
3261.00,0.0179
3260.00,0.0177
3259.00,0.0176
3258.00,0.0174
3257.00,0.0173
3256.00,0.0172
3255.00,0.0171
3254.00,0.0171
3253.00,0.0170
3252.00,0.0169
3251.00,0.0168
3250.00,0.0166
3249.00,0.0164
3248.00,0.0162
3247.00,0.0161
3246.00,0.0160
3245.00,0.0160
3244.00,0.0160
3243.00,0.0159
3242.00,0.0158
3241.00,0.0157
3240.00,0.0155
3239.00,0.0154
3238.00,0.0152
3237.00,0.0150
3236.00,0.0147
3235.00,0.0145
3234.00,0.0143
3233.00,0.0142
3232.00,0.0141
3231.00,0.0140
3230.00,0.0140
3229.00,0.0139
3228.00,0.0138
3227.00,0.0137
3226.00,0.0136
3225.00,0.0134
3224.00,0.0133
3223.00,0.0132
3222.00,0.0130
3221.00,0.0129
3220.00,0.0127
3219.00,0.0126
3218.00,0.0125
3217.00,0.0124
3216.00,0.0124
3215.00,0.0123
3214.00,0.0122
3213.00,0.0121
3212.00,0.0120
3211.00,0.0119
3210.00,0.0118
3209.00,0.0117
3208.00,0.0117
3207.00,0.0116
3206.00,0.0116
3205.00,0.0115
3204.00,0.0114
3203.00,0.0114
3202.00,0.0113
3201.00,0.0112
3200.00,0.0111
3199.00,0.0111
3198.00,0.0110
3197.00,0.0109
3196.00,0.0108
3195.00,0.0107
3194.00,0.0105
3193.00,0.0104
3192.00,0.0103
3191.00,0.0102
3190.00,0.0101
3189.00,0.0100
3188.00,0.0099
3187.00,0.0098
3186.00,0.0098
3185.00,0.0097
3184.00,0.0096
3183.00,0.0095
3182.00,0.0094
3181.00,0.0093
3180.00,0.0092
3179.00,0.0091
3178.00,0.0091
3177.00,0.0090
3176.00,0.0089
3175.00,0.0089
3174.00,0.0088
3173.00,0.0087
3172.00,0.0087
3171.00,0.0086
3170.00,0.0085
3169.00,0.0085
3168.00,0.0085
3167.00,0.0084
3166.00,0.0084
3165.00,0.0083
3164.00,0.0083
3163.00,0.0083
3162.00,0.0082
3161.00,0.0082
3160.00,0.0082
3159.00,0.0081
3158.00,0.0081
3157.00,0.0080
3156.00,0.0079
3155.00,0.0077
3154.00,0.0076
3153.00,0.0075
3152.00,0.0075
3151.00,0.0076
3150.00,0.0076
3149.00,0.0076
3148.00,0.0076
3147.00,0.0076
3146.00,0.0075
3145.00,0.0075
3144.00,0.0074
3143.00,0.0073
3142.00,0.0072
3141.00,0.0071
3140.00,0.0069
3139.00,0.0069
3138.00,0.0069
3137.00,0.0070
3136.00,0.0070
3135.00,0.0070
3134.00,0.0070
3133.00,0.0070
3132.00,0.0069
3131.00,0.0068
3130.00,0.0067
3129.00,0.0067
3128.00,0.0066
3127.00,0.0066
3126.00,0.0065
3125.00,0.0065
3124.00,0.0064
3123.00,0.0063
3122.00,0.0062
3121.00,0.0062
3120.00,0.0061
3119.00,0.0060
3118.00,0.0060
3117.00,0.0060
3116.00,0.0060
3115.00,0.0060
3114.00,0.0060
3113.00,0.0060
3112.00,0.0060
3111.00,0.0059
3110.00,0.0059
3109.00,0.0058
3108.00,0.0058
3107.00,0.0059
3106.00,0.0059
3105.00,0.0059
3104.00,0.0059
3103.00,0.0059
3102.00,0.0058
3101.00,0.0058
3100.00,0.0058
3099.00,0.0059
3098.00,0.0059
3097.00,0.0060
3096.00,0.0060
3095.00,0.0060
3094.00,0.0060
3093.00,0.0060
3092.00,0.0061
3091.00,0.0061
3090.00,0.0062
3089.00,0.0062
3088.00,0.0063
3087.00,0.0063
3086.00,0.0064
3085.00,0.0065
3084.00,0.0065
3083.00,0.0066
3082.00,0.0067
3081.00,0.0068
3080.00,0.0069
3079.00,0.0070
3078.00,0.0072
3077.00,0.0073
3076.00,0.0074
3075.00,0.0076
3074.00,0.0077
3073.00,0.0078
3072.00,0.0080
3071.00,0.0081
3070.00,0.0082
3069.00,0.0083
3068.00,0.0085
3067.00,0.0086
3066.00,0.0088
3065.00,0.0090
3064.00,0.0092
3063.00,0.0095
3062.00,0.0097
3061.00,0.0099
3060.00,0.0101
3059.00,0.0104
3058.00,0.0106
3057.00,0.0108
3056.00,0.0110
3055.00,0.0113
3054.00,0.0115
3053.00,0.0117
3052.00,0.0119
3051.00,0.0121
3050.00,0.0122
3049.00,0.0122
3048.00,0.0122
3047.00,0.0121
3046.00,0.0120
3045.00,0.0118
3044.00,0.0116
3043.00,0.0114
3042.00,0.0111
3041.00,0.0109
3040.00,0.0108
3039.00,0.0107
3038.00,0.0106
3037.00,0.0105
3036.00,0.0105
3035.00,0.0104
3034.00,0.0104
3033.00,0.0104
3032.00,0.0105
3031.00,0.0106
3030.00,0.0107
3029.00,0.0107
3028.00,0.0108
3027.00,0.0109
3026.00,0.0109
3025.00,0.0109
3024.00,0.0109
3023.00,0.0109
3022.00,0.0108
3021.00,0.0108
3020.00,0.0108
3019.00,0.0107
3018.00,0.0107
3017.00,0.0106
3016.00,0.0105
3015.00,0.0105
3014.00,0.0105
3013.00,0.0105
3012.00,0.0105
3011.00,0.0106
3010.00,0.0107
3009.00,0.0108
3008.00,0.0110
3007.00,0.0111
3006.00,0.0113
3005.00,0.0115
3004.00,0.0117
3003.00,0.0120
3002.00,0.0123
3001.00,0.0127
3000.00,0.0131
2999.00,0.0136
2998.00,0.0142
2997.00,0.0148
2996.00,0.0155
2995.00,0.0164
2994.00,0.0173
2993.00,0.0183
2992.00,0.0194
2991.00,0.0206
2990.00,0.0220
2989.00,0.0234
2988.00,0.0249
2987.00,0.0265
2986.00,0.0281
2985.00,0.0298
2984.00,0.0316
2983.00,0.0334
2982.00,0.0353
2981.00,0.0373
2980.00,0.0395
2979.00,0.0417
2978.00,0.0440
2977.00,0.0463
2976.00,0.0487
2975.00,0.0511
2974.00,0.0535
2973.00,0.0559
2972.00,0.0584
2971.00,0.0610
2970.00,0.0635
2969.00,0.0660
2968.00,0.0683
2967.00,0.0704
2966.00,0.0722
2965.00,0.0737
2964.00,0.0747
2963.00,0.0755
2962.00,0.0759
2961.00,0.0760
2960.00,0.0759
2959.00,0.0756
2958.00,0.0750
2957.00,0.0742
2956.00,0.0731
2955.00,0.0717
2954.00,0.0700
2953.00,0.0681
2952.00,0.0662
2951.00,0.0643
2950.00,0.0627
2949.00,0.0614
2948.00,0.0607
2947.00,0.0607
2946.00,0.0613
2945.00,0.0626
2944.00,0.0645
2943.00,0.0670
2942.00,0.0700
2941.00,0.0735
2940.00,0.0774
2939.00,0.0816
2938.00,0.0860
2937.00,0.0905
2936.00,0.0951
2935.00,0.0997
2934.00,0.1041
2933.00,0.1082
2932.00,0.1118
2931.00,0.1149
2930.00,0.1174
2929.00,0.1192
2928.00,0.1203
2927.00,0.1208
2926.00,0.1206
2925.00,0.1199
2924.00,0.1186
2923.00,0.1169
2922.00,0.1148
2921.00,0.1124
2920.00,0.1099
2919.00,0.1073
2918.00,0.1047
2917.00,0.1022
2916.00,0.0997
2915.00,0.0972
2914.00,0.0947
2913.00,0.0921
2912.00,0.0894
2911.00,0.0866
2910.00,0.0836
2909.00,0.0806
2908.00,0.0776
2907.00,0.0746
2906.00,0.0717
2905.00,0.0690
2904.00,0.0664
2903.00,0.0639
2902.00,0.0617
2901.00,0.0596
2900.00,0.0576
2899.00,0.0558
2898.00,0.0542
2897.00,0.0526
2896.00,0.0512
2895.00,0.0499
2894.00,0.0487
2893.00,0.0476
2892.00,0.0466
2891.00,0.0457
2890.00,0.0448
2889.00,0.0441
2888.00,0.0435
2887.00,0.0430
2886.00,0.0426
2885.00,0.0424
2884.00,0.0423
2883.00,0.0424
2882.00,0.0427
2881.00,0.0432
2880.00,0.0440
2879.00,0.0450
2878.00,0.0464
2877.00,0.0479
2876.00,0.0496
2875.00,0.0514
2874.00,0.0530
2873.00,0.0543
2872.00,0.0553
2871.00,0.0557
2870.00,0.0558
2869.00,0.0557
2868.00,0.0558
2867.00,0.0561
2866.00,0.0570
2865.00,0.0585
2864.00,0.0605
2863.00,0.0630
2862.00,0.0657
2861.00,0.0683
2860.00,0.0707
2859.00,0.0727
2858.00,0.0738
2857.00,0.0741
2856.00,0.0736
2855.00,0.0722
2854.00,0.0702
2853.00,0.0676
2852.00,0.0647
2851.00,0.0616
2850.00,0.0583
2849.00,0.0549
2848.00,0.0515
2847.00,0.0481
2846.00,0.0448
2845.00,0.0416
2844.00,0.0386
2843.00,0.0357
2842.00,0.0331
2841.00,0.0307
2840.00,0.0286
2839.00,0.0268
2838.00,0.0251
2837.00,0.0237
2836.00,0.0225
2835.00,0.0213
2834.00,0.0203
2833.00,0.0193
2832.00,0.0184
2831.00,0.0176
2830.00,0.0169
2829.00,0.0162
2828.00,0.0155
2827.00,0.0149
2826.00,0.0143
2825.00,0.0138
2824.00,0.0134
2823.00,0.0130
2822.00,0.0126
2821.00,0.0122
2820.00,0.0118
2819.00,0.0115
2818.00,0.0112
2817.00,0.0109
2816.00,0.0107
2815.00,0.0105
2814.00,0.0102
2813.00,0.0101
2812.00,0.0099
2811.00,0.0097
2810.00,0.0096
2809.00,0.0094
2808.00,0.0093
2807.00,0.0091
2806.00,0.0089
2805.00,0.0088
2804.00,0.0086
2803.00,0.0085
2802.00,0.0083
2801.00,0.0082
2800.00,0.0080
2799.00,0.0079
2798.00,0.0077
2797.00,0.0076
2796.00,0.0075
2795.00,0.0074
2794.00,0.0073
2793.00,0.0072
2792.00,0.0071
2791.00,0.0070
2790.00,0.0070
2789.00,0.0069
2788.00,0.0068
2787.00,0.0068
2786.00,0.0067
2785.00,0.0066
2784.00,0.0066
2783.00,0.0065
2782.00,0.0064
2781.00,0.0063
2780.00,0.0062
2779.00,0.0061
2778.00,0.0060
2777.00,0.0060
2776.00,0.0059
2775.00,0.0059
2774.00,0.0059
2773.00,0.0059
2772.00,0.0058
2771.00,0.0058
2770.00,0.0058
2769.00,0.0058
2768.00,0.0058
2767.00,0.0058
2766.00,0.0058
2765.00,0.0058
2764.00,0.0058
2763.00,0.0058
2762.00,0.0058
2761.00,0.0058
2760.00,0.0058
2759.00,0.0058
2758.00,0.0058
2757.00,0.0058
2756.00,0.0058
2755.00,0.0059
2754.00,0.0059
2753.00,0.0059
2752.00,0.0059
2751.00,0.0059
2750.00,0.0059
2749.00,0.0060
2748.00,0.0060
2747.00,0.0061
2746.00,0.0061
2745.00,0.0062
2744.00,0.0062
2743.00,0.0062
2742.00,0.0063
2741.00,0.0063
2740.00,0.0064
2739.00,0.0065
2738.00,0.0066
2737.00,0.0067
2736.00,0.0069
2735.00,0.0070
2734.00,0.0071
2733.00,0.0073
2732.00,0.0074
2731.00,0.0074
2730.00,0.0075
2729.00,0.0074
2728.00,0.0074
2727.00,0.0073
2726.00,0.0071
2725.00,0.0070
2724.00,0.0068
2723.00,0.0067
2722.00,0.0065
2721.00,0.0064
2720.00,0.0063
2719.00,0.0062
2718.00,0.0061
2717.00,0.0060
2716.00,0.0059
2715.00,0.0058
2714.00,0.0058
2713.00,0.0057
2712.00,0.0056
2711.00,0.0055
2710.00,0.0054
2709.00,0.0054
2708.00,0.0053
2707.00,0.0053
2706.00,0.0052
2705.00,0.0052
2704.00,0.0051
2703.00,0.0051
2702.00,0.0051
2701.00,0.0051
2700.00,0.0051
2699.00,0.0050
2698.00,0.0050
2697.00,0.0050
2696.00,0.0049
2695.00,0.0049
2694.00,0.0049
2693.00,0.0049
2692.00,0.0049
2691.00,0.0048
2690.00,0.0048
2689.00,0.0048
2688.00,0.0048
2687.00,0.0049
2686.00,0.0049
2685.00,0.0049
2684.00,0.0049
2683.00,0.0049
2682.00,0.0049
2681.00,0.0049
2680.00,0.0049
2679.00,0.0049
2678.00,0.0049
2677.00,0.0050
2676.00,0.0050
2675.00,0.0050
2674.00,0.0050
2673.00,0.0051
2672.00,0.0051
2671.00,0.0052
2670.00,0.0052
2669.00,0.0052
2668.00,0.0052
2667.00,0.0052
2666.00,0.0053
2665.00,0.0053
2664.00,0.0053
2663.00,0.0053
2662.00,0.0053
2661.00,0.0053
2660.00,0.0053
2659.00,0.0053
2658.00,0.0053
2657.00,0.0053
2656.00,0.0053
2655.00,0.0053
2654.00,0.0053
2653.00,0.0053
2652.00,0.0053
2651.00,0.0053
2650.00,0.0052
2649.00,0.0052
2648.00,0.0052
2647.00,0.0052
2646.00,0.0052
2645.00,0.0052
2644.00,0.0052
2643.00,0.0051
2642.00,0.0051
2641.00,0.0051
2640.00,0.0051
2639.00,0.0051
2638.00,0.0051
2637.00,0.0051
2636.00,0.0052
2635.00,0.0052
2634.00,0.0052
2633.00,0.0051
2632.00,0.0051
2631.00,0.0051
2630.00,0.0051
2629.00,0.0051
2628.00,0.0051
2627.00,0.0051
2626.00,0.0050
2625.00,0.0050
2624.00,0.0050
2623.00,0.0049
2622.00,0.0049
2621.00,0.0049
2620.00,0.0049
2619.00,0.0049
2618.00,0.0049
2617.00,0.0048
2616.00,0.0048
2615.00,0.0048
2614.00,0.0047
2613.00,0.0047
2612.00,0.0047
2611.00,0.0047
2610.00,0.0047
2609.00,0.0047
2608.00,0.0047
2607.00,0.0046
2606.00,0.0046
2605.00,0.0046
2604.00,0.0046
2603.00,0.0046
2602.00,0.0046
2601.00,0.0045
2600.00,0.0046
2599.00,0.0046
2598.00,0.0047
2597.00,0.0047
2596.00,0.0047
2595.00,0.0047
2594.00,0.0046
2593.00,0.0046
2592.00,0.0046
2591.00,0.0045
2590.00,0.0045
2589.00,0.0045
2588.00,0.0046
2587.00,0.0046
2586.00,0.0046
2585.00,0.0045
2584.00,0.0045
2583.00,0.0045
2582.00,0.0046
2581.00,0.0046
2580.00,0.0046
2579.00,0.0046
2578.00,0.0046
2577.00,0.0046
2576.00,0.0046
2575.00,0.0046
2574.00,0.0047
2573.00,0.0047
2572.00,0.0047
2571.00,0.0048
2570.00,0.0048
2569.00,0.0049
2568.00,0.0049
2567.00,0.0049
2566.00,0.0048
2565.00,0.0048
2564.00,0.0048
2563.00,0.0048
2562.00,0.0048
2561.00,0.0048
2560.00,0.0048
2559.00,0.0048
2558.00,0.0048
2557.00,0.0048
2556.00,0.0049
2555.00,0.0049
2554.00,0.0048
2553.00,0.0048
2552.00,0.0048
2551.00,0.0048
2550.00,0.0048
2549.00,0.0047
2548.00,0.0047
2547.00,0.0047
2546.00,0.0047
2545.00,0.0047
2544.00,0.0047
2543.00,0.0047
2542.00,0.0047
2541.00,0.0047
2540.00,0.0047
2539.00,0.0047
2538.00,0.0047
2537.00,0.0047
2536.00,0.0047
2535.00,0.0047
2534.00,0.0046
2533.00,0.0046
2532.00,0.0046
2531.00,0.0046
2530.00,0.0046
2529.00,0.0046
2528.00,0.0046
2527.00,0.0046
2526.00,0.0046
2525.00,0.0046
2524.00,0.0045
2523.00,0.0044
2522.00,0.0044
2521.00,0.0043
2520.00,0.0043
2519.00,0.0042
2518.00,0.0042
2517.00,0.0042
2516.00,0.0042
2515.00,0.0042
2514.00,0.0042
2513.00,0.0042
2512.00,0.0042
2511.00,0.0042
2510.00,0.0042
2509.00,0.0042
2508.00,0.0042
2507.00,0.0041
2506.00,0.0041
2505.00,0.0041
2504.00,0.0041
2503.00,0.0041
2502.00,0.0041
2501.00,0.0041
2500.00,0.0041
2499.00,0.0041
2498.00,0.0041
2497.00,0.0041
2496.00,0.0042
2495.00,0.0042
2494.00,0.0042
2493.00,0.0042
2492.00,0.0042
2491.00,0.0041
2490.00,0.0041
2489.00,0.0041
2488.00,0.0041
2487.00,0.0042
2486.00,0.0042
2485.00,0.0042
2484.00,0.0042
2483.00,0.0041
2482.00,0.0041
2481.00,0.0041
2480.00,0.0041
2479.00,0.0041
2478.00,0.0041
2477.00,0.0041
2476.00,0.0040
2475.00,0.0040
2474.00,0.0039
2473.00,0.0039
2472.00,0.0039
2471.00,0.0039
2470.00,0.0039
2469.00,0.0040
2468.00,0.0040
2467.00,0.0039
2466.00,0.0039
2465.00,0.0039
2464.00,0.0038
2463.00,0.0038
2462.00,0.0039
2461.00,0.0039
2460.00,0.0040
2459.00,0.0041
2458.00,0.0041
2457.00,0.0040
2456.00,0.0040
2455.00,0.0039
2454.00,0.0039
2453.00,0.0039
2452.00,0.0038
2451.00,0.0038
2450.00,0.0038
2449.00,0.0038
2448.00,0.0038
2447.00,0.0038
2446.00,0.0038
2445.00,0.0037
2444.00,0.0037
2443.00,0.0036
2442.00,0.0036
2441.00,0.0036
2440.00,0.0036
2439.00,0.0036
2438.00,0.0035
2437.00,0.0035
2436.00,0.0035
2435.00,0.0034
2434.00,0.0034
2433.00,0.0034
2432.00,0.0034
2431.00,0.0034
2430.00,0.0035
2429.00,0.0035
2428.00,0.0035
2427.00,0.0034
2426.00,0.0034
2425.00,0.0034
2424.00,0.0034
2423.00,0.0034
2422.00,0.0034
2421.00,0.0034
2420.00,0.0033
2419.00,0.0033
2418.00,0.0033
2417.00,0.0033
2416.00,0.0033
2415.00,0.0034
2414.00,0.0034
2413.00,0.0034
2412.00,0.0034
2411.00,0.0034
2410.00,0.0034
2409.00,0.0034
2408.00,0.0034
2407.00,0.0033
2406.00,0.0033
2405.00,0.0033
2404.00,0.0034
2403.00,0.0034
2402.00,0.0034
2401.00,0.0034
2400.00,0.0034
2399.00,0.0034
2398.00,0.0034
2397.00,0.0034
2396.00,0.0034
2395.00,0.0034
2394.00,0.0034
2393.00,0.0034
2392.00,0.0034
2391.00,0.0034
2390.00,0.0034
2389.00,0.0034
2388.00,0.0033
2387.00,0.0033
2386.00,0.0033
2385.00,0.0032
2384.00,0.0032
2383.00,0.0032
2382.00,0.0032
2381.00,0.0032
2380.00,0.0032
2379.00,0.0031
2378.00,0.0031
2377.00,0.0031
2376.00,0.0031
2375.00,0.0031
2374.00,0.0031
2373.00,0.0030
2372.00,0.0030
2371.00,0.0030
2370.00,0.0030
2369.00,0.0030
2368.00,0.0029
2367.00,0.0029
2366.00,0.0029
2365.00,0.0029
2364.00,0.0030
2363.00,0.0030
2362.00,0.0030
2361.00,0.0030
2360.00,0.0029
2359.00,0.0029
2358.00,0.0028
2357.00,0.0027
2356.00,0.0026
2355.00,0.0026
2354.00,0.0025
2353.00,0.0024
2352.00,0.0024
2351.00,0.0024
2350.00,0.0024
2349.00,0.0025
2348.00,0.0027
2347.00,0.0029
2346.00,0.0030
2345.00,0.0030
2344.00,0.0030
2343.00,0.0029
2342.00,0.0029
2341.00,0.0029
2340.00,0.0030
2339.00,0.0030
2338.00,0.0030
2337.00,0.0030
2336.00,0.0030
2335.00,0.0030
2334.00,0.0030
2333.00,0.0029
2332.00,0.0029
2331.00,0.0029
2330.00,0.0029
2329.00,0.0030
2328.00,0.0032
2327.00,0.0035
2326.00,0.0037
2325.00,0.0038
2324.00,0.0037
2323.00,0.0036
2322.00,0.0034
2321.00,0.0032
2320.00,0.0031
2319.00,0.0031
2318.00,0.0030
2317.00,0.0030
2316.00,0.0030
2315.00,0.0030
2314.00,0.0029
2313.00,0.0029
2312.00,0.0028
2311.00,0.0027
2310.00,0.0027
2309.00,0.0027
2308.00,0.0027
2307.00,0.0027
2306.00,0.0027
2305.00,0.0027
2304.00,0.0028
2303.00,0.0028
2302.00,0.0028
2301.00,0.0029
2300.00,0.0029
2299.00,0.0029
2298.00,0.0029
2297.00,0.0030
2296.00,0.0030
2295.00,0.0031
2294.00,0.0032
2293.00,0.0033
2292.00,0.0033
2291.00,0.0034
2290.00,0.0034
2289.00,0.0035
2288.00,0.0035
2287.00,0.0035
2286.00,0.0035
2285.00,0.0035
2284.00,0.0035
2283.00,0.0034
2282.00,0.0034
2281.00,0.0033
2280.00,0.0032
2279.00,0.0032
2278.00,0.0031
2277.00,0.0031
2276.00,0.0031
2275.00,0.0030
2274.00,0.0030
2273.00,0.0029
2272.00,0.0029
2271.00,0.0029
2270.00,0.0029
2269.00,0.0029
2268.00,0.0029
2267.00,0.0029
2266.00,0.0029
2265.00,0.0030
2264.00,0.0030
2263.00,0.0030
2262.00,0.0030
2261.00,0.0030
2260.00,0.0030
2259.00,0.0029
2258.00,0.0028
2257.00,0.0027
2256.00,0.0027
2255.00,0.0027
2254.00,0.0027
2253.00,0.0027
2252.00,0.0028
2251.00,0.0028
2250.00,0.0028
2249.00,0.0027
2248.00,0.0027
2247.00,0.0027
2246.00,0.0027
2245.00,0.0027
2244.00,0.0027
2243.00,0.0027
2242.00,0.0026
2241.00,0.0026
2240.00,0.0026
2239.00,0.0026
2238.00,0.0026
2237.00,0.0026
2236.00,0.0026
2235.00,0.0025
2234.00,0.0025
2233.00,0.0026
2232.00,0.0026
2231.00,0.0026
2230.00,0.0026
2229.00,0.0026
2228.00,0.0026
2227.00,0.0025
2226.00,0.0025
2225.00,0.0025
2224.00,0.0025
2223.00,0.0025
2222.00,0.0025
2221.00,0.0025
2220.00,0.0025
2219.00,0.0024
2218.00,0.0023
2217.00,0.0022
2216.00,0.0021
2215.00,0.0021
2214.00,0.0021
2213.00,0.0022
2212.00,0.0022
2211.00,0.0022
2210.00,0.0021
2209.00,0.0021
2208.00,0.0022
2207.00,0.0023
2206.00,0.0024
2205.00,0.0024
2204.00,0.0025
2203.00,0.0025
2202.00,0.0024
2201.00,0.0023
2200.00,0.0023
2199.00,0.0023
2198.00,0.0024
2197.00,0.0024
2196.00,0.0025
2195.00,0.0024
2194.00,0.0022
2193.00,0.0022
2192.00,0.0022
2191.00,0.0022
2190.00,0.0022
2189.00,0.0022
2188.00,0.0023
2187.00,0.0024
2186.00,0.0023
2185.00,0.0021
2184.00,0.0019
2183.00,0.0016
2182.00,0.0013
2181.00,0.0012
2180.00,0.0013
2179.00,0.0015
2178.00,0.0015
2177.00,0.0014
2176.00,0.0013
2175.00,0.0012
2174.00,0.0011
2173.00,0.0012
2172.00,0.0014
2171.00,0.0016
2170.00,0.0017
2169.00,0.0018
2168.00,0.0019
2167.00,0.0019
2166.00,0.0018
2165.00,0.0018
2164.00,0.0018
2163.00,0.0017
2162.00,0.0014
2161.00,0.0007
2160.00,-0.0002
2159.00,-0.0010
2158.00,-0.0015
2157.00,-0.0016
2156.00,-0.0012
2155.00,-0.0009
2154.00,-0.0006
2153.00,-0.0003
2152.00,-0.0000
2151.00,0.0002
2150.00,0.0002
2149.00,0.0003
2148.00,0.0002
2147.00,0.0001
2146.00,0.0000
2145.00,-0.0000
2144.00,0.0001
2143.00,0.0002
2142.00,0.0004
2141.00,0.0006
2140.00,0.0007
2139.00,0.0008
2138.00,0.0008
2137.00,0.0006
2136.00,0.0004
2135.00,0.0002
2134.00,0.0001
2133.00,0.0001
2132.00,0.0003
2131.00,0.0006
2130.00,0.0008
2129.00,0.0009
2128.00,0.0009
2127.00,0.0010
2126.00,0.0010
2125.00,0.0011
2124.00,0.0012
2123.00,0.0013
2122.00,0.0013
2121.00,0.0013
2120.00,0.0014
2119.00,0.0014
2118.00,0.0015
2117.00,0.0015
2116.00,0.0015
2115.00,0.0015
2114.00,0.0015
2113.00,0.0015
2112.00,0.0015
2111.00,0.0015
2110.00,0.0014
2109.00,0.0014
2108.00,0.0015
2107.00,0.0015
2106.00,0.0014
2105.00,0.0014
2104.00,0.0013
2103.00,0.0013
2102.00,0.0012
2101.00,0.0012
2100.00,0.0012
2099.00,0.0012
2098.00,0.0011
2097.00,0.0010
2096.00,0.0009
2095.00,0.0008
2094.00,0.0007
2093.00,0.0008
2092.00,0.0009
2091.00,0.0011
2090.00,0.0012
2089.00,0.0013
2088.00,0.0014
2087.00,0.0015
2086.00,0.0015
2085.00,0.0016
2084.00,0.0016
2083.00,0.0016
2082.00,0.0016
2081.00,0.0017
2080.00,0.0017
2079.00,0.0017
2078.00,0.0017
2077.00,0.0017
2076.00,0.0018
2075.00,0.0018
2074.00,0.0018
2073.00,0.0018
2072.00,0.0019
2071.00,0.0019
2070.00,0.0019
2069.00,0.0019
2068.00,0.0019
2067.00,0.0019
2066.00,0.0018
2065.00,0.0018
2064.00,0.0018
2063.00,0.0018
2062.00,0.0019
2061.00,0.0019
2060.00,0.0019
2059.00,0.0020
2058.00,0.0021
2057.00,0.0022
2056.00,0.0022
2055.00,0.0023
2054.00,0.0024
2053.00,0.0026
2052.00,0.0029
2051.00,0.0031
2050.00,0.0029
2049.00,0.0028
2048.00,0.0027
2047.00,0.0025
2046.00,0.0023
2045.00,0.0021
2044.00,0.0020
2043.00,0.0021
2042.00,0.0021
2041.00,0.0022
2040.00,0.0023
2039.00,0.0024
2038.00,0.0023
2037.00,0.0021
2036.00,0.0019
2035.00,0.0017
2034.00,0.0015
2033.00,0.0014
2032.00,0.0015
2031.00,0.0014
2030.00,0.0013
2029.00,0.0012
2028.00,0.0012
2027.00,0.0012
2026.00,0.0011
2025.00,0.0011
2024.00,0.0011
2023.00,0.0010
2022.00,0.0009
2021.00,0.0010
2020.00,0.0012
2019.00,0.0014
2018.00,0.0015
2017.00,0.0014
2016.00,0.0014
2015.00,0.0013
2014.00,0.0012
2013.00,0.0013
2012.00,0.0014
2011.00,0.0015
2010.00,0.0014
2009.00,0.0012
2008.00,0.0010
2007.00,0.0008
2006.00,0.0006
2005.00,0.0006
2004.00,0.0007
2003.00,0.0008
2002.00,0.0009
2001.00,0.0011
2000.00,0.0014
1999.00,0.0016
1998.00,0.0017
1997.00,0.0017
1996.00,0.0017
1995.00,0.0017
1994.00,0.0017
1993.00,0.0018
1992.00,0.0019
1991.00,0.0019
1990.00,0.0017
1989.00,0.0017
1988.00,0.0018
1987.00,0.0019
1986.00,0.0019
1985.00,0.0019
1984.00,0.0021
1983.00,0.0024
1982.00,0.0027
1981.00,0.0029
1980.00,0.0028
1979.00,0.0023
1978.00,0.0016
1977.00,0.0011
1976.00,0.0008
1975.00,0.0006
1974.00,0.0005
1973.00,0.0006
1972.00,0.0008
1971.00,0.0010
1970.00,0.0011
1969.00,0.0012
1968.00,0.0012
1967.00,0.0012
1966.00,0.0011
1965.00,0.0010
1964.00,0.0011
1963.00,0.0010
1962.00,0.0009
1961.00,0.0009
1960.00,0.0009
1959.00,0.0009
1958.00,0.0010
1957.00,0.0012
1956.00,0.0013
1955.00,0.0014
1954.00,0.0014
1953.00,0.0014
1952.00,0.0015
1951.00,0.0015
1950.00,0.0015
1949.00,0.0015
1948.00,0.0015
1947.00,0.0016
1946.00,0.0017
1945.00,0.0018
1944.00,0.0018
1943.00,0.0019
1942.00,0.0018
1941.00,0.0017
1940.00,0.0016
1939.00,0.0016
1938.00,0.0016
1937.00,0.0017
1936.00,0.0018
1935.00,0.0019
1934.00,0.0019
1933.00,0.0018
1932.00,0.0018
1931.00,0.0017
1930.00,0.0018
1929.00,0.0019
1928.00,0.0020
1927.00,0.0021
1926.00,0.0021
1925.00,0.0022
1924.00,0.0023
1923.00,0.0024
1922.00,0.0025
1921.00,0.0025
1920.00,0.0025
1919.00,0.0025
1918.00,0.0025
1917.00,0.0025
1916.00,0.0026
1915.00,0.0027
1914.00,0.0027
1913.00,0.0028
1912.00,0.0028
1911.00,0.0028
1910.00,0.0028
1909.00,0.0028
1908.00,0.0028
1907.00,0.0028
1906.00,0.0028
1905.00,0.0028
1904.00,0.0028
1903.00,0.0029
1902.00,0.0028
1901.00,0.0028
1900.00,0.0028
1899.00,0.0028
1898.00,0.0027
1897.00,0.0026
1896.00,0.0026
1895.00,0.0027
1894.00,0.0027
1893.00,0.0027
1892.00,0.0027
1891.00,0.0026
1890.00,0.0025
1889.00,0.0024
1888.00,0.0025
1887.00,0.0025
1886.00,0.0025
1885.00,0.0026
1884.00,0.0026
1883.00,0.0026
1882.00,0.0026
1881.00,0.0026
1880.00,0.0026
1879.00,0.0026
1878.00,0.0027
1877.00,0.0027
1876.00,0.0027
1875.00,0.0027
1874.00,0.0027
1873.00,0.0027
1872.00,0.0027
1871.00,0.0027
1870.00,0.0026
1869.00,0.0027
1868.00,0.0027
1867.00,0.0028
1866.00,0.0027
1865.00,0.0027
1864.00,0.0027
1863.00,0.0027
1862.00,0.0028
1861.00,0.0028
1860.00,0.0028
1859.00,0.0028
1858.00,0.0027
1857.00,0.0027
1856.00,0.0027
1855.00,0.0028
1854.00,0.0028
1853.00,0.0028
1852.00,0.0029
1851.00,0.0029
1850.00,0.0028
1849.00,0.0028
1848.00,0.0028
1847.00,0.0028
1846.00,0.0028
1845.00,0.0027
1844.00,0.0028
1843.00,0.0028
1842.00,0.0028
1841.00,0.0027
1840.00,0.0027
1839.00,0.0028
1838.00,0.0028
1837.00,0.0028
1836.00,0.0029
1835.00,0.0029
1834.00,0.0029
1833.00,0.0029
1832.00,0.0029
1831.00,0.0029
1830.00,0.0029
1829.00,0.0030
1828.00,0.0031
1827.00,0.0031
1826.00,0.0030
1825.00,0.0029
1824.00,0.0030
1823.00,0.0030
1822.00,0.0030
1821.00,0.0030
1820.00,0.0030
1819.00,0.0030
1818.00,0.0029
1817.00,0.0029
1816.00,0.0029
1815.00,0.0030
1814.00,0.0031
1813.00,0.0031
1812.00,0.0031
1811.00,0.0032
1810.00,0.0032
1809.00,0.0032
1808.00,0.0033
1807.00,0.0033
1806.00,0.0033
1805.00,0.0033
1804.00,0.0033
1803.00,0.0033
1802.00,0.0033
1801.00,0.0033
1800.00,0.0033
1799.00,0.0033
1798.00,0.0033
1797.00,0.0033
1796.00,0.0034
1795.00,0.0034
1794.00,0.0034
1793.00,0.0034
1792.00,0.0034
1791.00,0.0034
1790.00,0.0034
1789.00,0.0034
1788.00,0.0034
1787.00,0.0034
1786.00,0.0035
1785.00,0.0035
1784.00,0.0035
1783.00,0.0035
1782.00,0.0035
1781.00,0.0035
1780.00,0.0035
1779.00,0.0036
1778.00,0.0036
1777.00,0.0036
1776.00,0.0036
1775.00,0.0037
1774.00,0.0037
1773.00,0.0037
1772.00,0.0038
1771.00,0.0039
1770.00,0.0039
1769.00,0.0038
1768.00,0.0038
1767.00,0.0038
1766.00,0.0039
1765.00,0.0040
1764.00,0.0040
1763.00,0.0041
1762.00,0.0041
1761.00,0.0042
1760.00,0.0043
1759.00,0.0043
1758.00,0.0043
1757.00,0.0044
1756.00,0.0045
1755.00,0.0045
1754.00,0.0045
1753.00,0.0044
1752.00,0.0045
1751.00,0.0045
1750.00,0.0045
1749.00,0.0045
1748.00,0.0046
1747.00,0.0047
1746.00,0.0047
1745.00,0.0048
1744.00,0.0049
1743.00,0.0050
1742.00,0.0051
1741.00,0.0052
1740.00,0.0054
1739.00,0.0057
1738.00,0.0059
1737.00,0.0061
1736.00,0.0062
1735.00,0.0064
1734.00,0.0067
1733.00,0.0070
1732.00,0.0072
1731.00,0.0072
1730.00,0.0072
1729.00,0.0073
1728.00,0.0074
1727.00,0.0074
1726.00,0.0074
1725.00,0.0074
1724.00,0.0073
1723.00,0.0073
1722.00,0.0072
1721.00,0.0071
1720.00,0.0071
1719.00,0.0070
1718.00,0.0069
1717.00,0.0069
1716.00,0.0070
1715.00,0.0070
1714.00,0.0068
1713.00,0.0067
1712.00,0.0067
1711.00,0.0067
1710.00,0.0066
1709.00,0.0066
1708.00,0.0066
1707.00,0.0066
1706.00,0.0065
1705.00,0.0064
1704.00,0.0064
1703.00,0.0063
1702.00,0.0061
1701.00,0.0058
1700.00,0.0057
1699.00,0.0057
1698.00,0.0056
1697.00,0.0053
1696.00,0.0052
1695.00,0.0052
1694.00,0.0051
1693.00,0.0047
1692.00,0.0044
1691.00,0.0042
1690.00,0.0040
1689.00,0.0040
1688.00,0.0039
1687.00,0.0039
1686.00,0.0038
1685.00,0.0039
1684.00,0.0042
1683.00,0.0046
1682.00,0.0048
1681.00,0.0049
1680.00,0.0053
1679.00,0.0058
1678.00,0.0062
1677.00,0.0067
1676.00,0.0072
1675.00,0.0078
1674.00,0.0083
1673.00,0.0086
1672.00,0.0089
1671.00,0.0091
1670.00,0.0094
1669.00,0.0097
1668.00,0.0102
1667.00,0.0105
1666.00,0.0107
1665.00,0.0109
1664.00,0.0114
1663.00,0.0119
1662.00,0.0125
1661.00,0.0131
1660.00,0.0138
1659.00,0.0145
1658.00,0.0152
1657.00,0.0159
1656.00,0.0167
1655.00,0.0178
1654.00,0.0196
1653.00,0.0228
1652.00,0.0262
1651.00,0.0285
1650.00,0.0299
1649.00,0.0317
1648.00,0.0347
1647.00,0.0392
1646.00,0.0441
1645.00,0.0485
1644.00,0.0524
1643.00,0.0561
1642.00,0.0600
1641.00,0.0642
1640.00,0.0685
1639.00,0.0726
1638.00,0.0765
1637.00,0.0810
1636.00,0.0871
1635.00,0.0938
1634.00,0.0994
1633.00,0.1038
1632.00,0.1083
1631.00,0.1135
1630.00,0.1199
1629.00,0.1277
1628.00,0.1367
1627.00,0.1456
1626.00,0.1531
1625.00,0.1588
1624.00,0.1631
1623.00,0.1649
1622.00,0.1632
1621.00,0.1581
1620.00,0.1509
1619.00,0.1417
1618.00,0.1299
1617.00,0.1159
1616.00,0.1022
1615.00,0.0909
1614.00,0.0818
1613.00,0.0740
1612.00,0.0669
1611.00,0.0603
1610.00,0.0545
1609.00,0.0494
1608.00,0.0450
1607.00,0.0412
1606.00,0.0380
1605.00,0.0354
1604.00,0.0332
1603.00,0.0313
1602.00,0.0297
1601.00,0.0284
1600.00,0.0274
1599.00,0.0265
1598.00,0.0258
1597.00,0.0254
1596.00,0.0253
1595.00,0.0253
1594.00,0.0257
1593.00,0.0265
1592.00,0.0276
1591.00,0.0291
1590.00,0.0312
1589.00,0.0339
1588.00,0.0372
1587.00,0.0413
1586.00,0.0461
1585.00,0.0519
1584.00,0.0586
1583.00,0.0661
1582.00,0.0741
1581.00,0.0821
1580.00,0.0896
1579.00,0.0959
1578.00,0.1013
1577.00,0.1058
1576.00,0.1089
1575.00,0.1096
1574.00,0.1077
1573.00,0.1043
1572.00,0.1002
1571.00,0.0955
1570.00,0.0903
1569.00,0.0855
1568.00,0.0815
1567.00,0.0780
1566.00,0.0744
1565.00,0.0706
1564.00,0.0667
1563.00,0.0631
1562.00,0.0596
1561.00,0.0558
1560.00,0.0507
1559.00,0.0443
1558.00,0.0390
1557.00,0.0357
1556.00,0.0331
1555.00,0.0308
1554.00,0.0286
1553.00,0.0267
1552.00,0.0251
1551.00,0.0236
1550.00,0.0223
1549.00,0.0211
1548.00,0.0202
1547.00,0.0194
1546.00,0.0186
1545.00,0.0179
1544.00,0.0173
1543.00,0.0167
1542.00,0.0163
1541.00,0.0158
1540.00,0.0155
1539.00,0.0154
1538.00,0.0153
1537.00,0.0151
1536.00,0.0148
1535.00,0.0146
1534.00,0.0145
1533.00,0.0144
1532.00,0.0144
1531.00,0.0144
1530.00,0.0145
1529.00,0.0146
1528.00,0.0148
1527.00,0.0150
1526.00,0.0153
1525.00,0.0156
1524.00,0.0160
1523.00,0.0165
1522.00,0.0173
1521.00,0.0185
1520.00,0.0197
1519.00,0.0208
1518.00,0.0222
1517.00,0.0241
1516.00,0.0264
1515.00,0.0285
1514.00,0.0304
1513.00,0.0323
1512.00,0.0341
1511.00,0.0355
1510.00,0.0364
1509.00,0.0369
1508.00,0.0368
1507.00,0.0359
1506.00,0.0345
1505.00,0.0330
1504.00,0.0314
1503.00,0.0298
1502.00,0.0283
1501.00,0.0269
1500.00,0.0257
1499.00,0.0245
1498.00,0.0236
1497.00,0.0229
1496.00,0.0224
1495.00,0.0221
1494.00,0.0218
1493.00,0.0215
1492.00,0.0211
1491.00,0.0208
1490.00,0.0205
1489.00,0.0202
1488.00,0.0201
1487.00,0.0200
1486.00,0.0199
1485.00,0.0200
1484.00,0.0201
1483.00,0.0202
1482.00,0.0204
1481.00,0.0207
1480.00,0.0211
1479.00,0.0215
1478.00,0.0220
1477.00,0.0227
1476.00,0.0236
1475.00,0.0248
1474.00,0.0265
1473.00,0.0295
1472.00,0.0336
1471.00,0.0381
1470.00,0.0424
1469.00,0.0464
1468.00,0.0498
1467.00,0.0525
1466.00,0.0547
1465.00,0.0569
1464.00,0.0592
1463.00,0.0617
1462.00,0.0643
1461.00,0.0671
1460.00,0.0700
1459.00,0.0733
1458.00,0.0775
1457.00,0.0828
1456.00,0.0877
1455.00,0.0911
1454.00,0.0938
1453.00,0.0968
1452.00,0.1002
1451.00,0.1036
1450.00,0.1069
1449.00,0.1101
1448.00,0.1129
1447.00,0.1151
1446.00,0.1167
1445.00,0.1181
1444.00,0.1195
1443.00,0.1211
1442.00,0.1234
1441.00,0.1263
1440.00,0.1295
1439.00,0.1329
1438.00,0.1374
1437.00,0.1435
1436.00,0.1503
1435.00,0.1561
1434.00,0.1610
1433.00,0.1660
1432.00,0.1712
1431.00,0.1762
1430.00,0.1804
1429.00,0.1827
1428.00,0.1819
1427.00,0.1774
1426.00,0.1694
1425.00,0.1581
1424.00,0.1441
1423.00,0.1294
1422.00,0.1157
1421.00,0.1028
1420.00,0.0896
1419.00,0.0767
1418.00,0.0661
1417.00,0.0584
1416.00,0.0526
1415.00,0.0480
1414.00,0.0443
1413.00,0.0411
1412.00,0.0385
1411.00,0.0364
1410.00,0.0348
1409.00,0.0336
1408.00,0.0326
1407.00,0.0321
1406.00,0.0319
1405.00,0.0320
1404.00,0.0323
1403.00,0.0330
1402.00,0.0340
1401.00,0.0352
1400.00,0.0367
1399.00,0.0386
1398.00,0.0405
1397.00,0.0421
1396.00,0.0433
1395.00,0.0443
1394.00,0.0447
1393.00,0.0445
1392.00,0.0437
1391.00,0.0428
1390.00,0.0419
1389.00,0.0414
1388.00,0.0416
1387.00,0.0429
1386.00,0.0453
1385.00,0.0485
1384.00,0.0525
1383.00,0.0570
1382.00,0.0620
1381.00,0.0671
1380.00,0.0725
1379.00,0.0779
1378.00,0.0827
1377.00,0.0859
1376.00,0.0867
1375.00,0.0848
1374.00,0.0809
1373.00,0.0762
1372.00,0.0723
1371.00,0.0698
1370.00,0.0685
1369.00,0.0681
1368.00,0.0680
1367.00,0.0676
1366.00,0.0669
1365.00,0.0656
1364.00,0.0641
1363.00,0.0625
1362.00,0.0613
1361.00,0.0606
1360.00,0.0603
1359.00,0.0604
1358.00,0.0609
1357.00,0.0617
1356.00,0.0629
1355.00,0.0643
1354.00,0.0659
1353.00,0.0675
1352.00,0.0690
1351.00,0.0704
1350.00,0.0717
1349.00,0.0729
1348.00,0.0740
1347.00,0.0750
1346.00,0.0761
1345.00,0.0771
1344.00,0.0780
1343.00,0.0789
1342.00,0.0795
1341.00,0.0798
1340.00,0.0798
1339.00,0.0795
1338.00,0.0791
1337.00,0.0787
1336.00,0.0783
1335.00,0.0782
1334.00,0.0781
1333.00,0.0782
1332.00,0.0781
1331.00,0.0780
1330.00,0.0777
1329.00,0.0772
1328.00,0.0764
1327.00,0.0754
1326.00,0.0742
1325.00,0.0728
1324.00,0.0711
1323.00,0.0693
1322.00,0.0674
1321.00,0.0655
1320.00,0.0636
1319.00,0.0617
1318.00,0.0599
1317.00,0.0581
1316.00,0.0563
1315.00,0.0547
1314.00,0.0532
1313.00,0.0518
1312.00,0.0507
1311.00,0.0499
1310.00,0.0495
1309.00,0.0496
1308.00,0.0502
1307.00,0.0512
1306.00,0.0527
1305.00,0.0545
1304.00,0.0563
1303.00,0.0581
1302.00,0.0596
1301.00,0.0606
1300.00,0.0611
1299.00,0.0612
1298.00,0.0609
1297.00,0.0605
1296.00,0.0599
1295.00,0.0593
1294.00,0.0588
1293.00,0.0585
1292.00,0.0585
1291.00,0.0586
1290.00,0.0591
1289.00,0.0598
1288.00,0.0608
1287.00,0.0621
1286.00,0.0635
1285.00,0.0650
1284.00,0.0666
1283.00,0.0681
1282.00,0.0696
1281.00,0.0709
1280.00,0.0722
1279.00,0.0733
1278.00,0.0744
1277.00,0.0755
1276.00,0.0764
1275.00,0.0774
1274.00,0.0782
1273.00,0.0789
1272.00,0.0795
1271.00,0.0800
1270.00,0.0803
1269.00,0.0804
1268.00,0.0804
1267.00,0.0803
1266.00,0.0802
1265.00,0.0800
1264.00,0.0798
1263.00,0.0795
1262.00,0.0792
1261.00,0.0790
1260.00,0.0789
1259.00,0.0791
1258.00,0.0796
1257.00,0.0805
1256.00,0.0816
1255.00,0.0831
1254.00,0.0849
1253.00,0.0867
1252.00,0.0884
1251.00,0.0899
1250.00,0.0908
1249.00,0.0908
1248.00,0.0899
1247.00,0.0881
1246.00,0.0853
1245.00,0.0820
1244.00,0.0783
1243.00,0.0744
1242.00,0.0707
1241.00,0.0671
1240.00,0.0638
1239.00,0.0609
1238.00,0.0584
1237.00,0.0562
1236.00,0.0544
1235.00,0.0530
1234.00,0.0519
1233.00,0.0512
1232.00,0.0510
1231.00,0.0512
1230.00,0.0519
1229.00,0.0531
1228.00,0.0546
1227.00,0.0563
1226.00,0.0581
1225.00,0.0597
1224.00,0.0611
1223.00,0.0623
1222.00,0.0632
1221.00,0.0639
1220.00,0.0646
1219.00,0.0653
1218.00,0.0661
1217.00,0.0671
1216.00,0.0682
1215.00,0.0693
1214.00,0.0706
1213.00,0.0719
1212.00,0.0731
1211.00,0.0744
1210.00,0.0756
1209.00,0.0767
1208.00,0.0776
1207.00,0.0783
1206.00,0.0788
1205.00,0.0790
1204.00,0.0791
1203.00,0.0791
1202.00,0.0791
1201.00,0.0792
1200.00,0.0793
1199.00,0.0795
1198.00,0.0797
1197.00,0.0798
1196.00,0.0799
1195.00,0.0800
1194.00,0.0798
1193.00,0.0795
1192.00,0.0789
1191.00,0.0782
1190.00,0.0773
1189.00,0.0762
1188.00,0.0751
1187.00,0.0739
1186.00,0.0728
1185.00,0.0717
1184.00,0.0705
1183.00,0.0694
1182.00,0.0683
1181.00,0.0672
1180.00,0.0660
1179.00,0.0649
1178.00,0.0638
1177.00,0.0628
1176.00,0.0619
1175.00,0.0612
1174.00,0.0608
1173.00,0.0605
1172.00,0.0604
1171.00,0.0607
1170.00,0.0612
1169.00,0.0620
1168.00,0.0630
1167.00,0.0642
1166.00,0.0657
1165.00,0.0671
1164.00,0.0685
1163.00,0.0698
1162.00,0.0710
1161.00,0.0718
1160.00,0.0724
1159.00,0.0728
1158.00,0.0730
1157.00,0.0731
1156.00,0.0733
1155.00,0.0738
1154.00,0.0749
1153.00,0.0769
1152.00,0.0799
1151.00,0.0844
1150.00,0.0902
1149.00,0.0973
1148.00,0.1050
1147.00,0.1127
1146.00,0.1198
1145.00,0.1254
1144.00,0.1292
1143.00,0.1312
1142.00,0.1316
1141.00,0.1308
1140.00,0.1290
1139.00,0.1265
1138.00,0.1233
1137.00,0.1193
1136.00,0.1146
1135.00,0.1093
1134.00,0.1037
1133.00,0.0979
1132.00,0.0925
1131.00,0.0876
1130.00,0.0835
1129.00,0.0804
1128.00,0.0781
1127.00,0.0767
1126.00,0.0760
1125.00,0.0756
1124.00,0.0754
1123.00,0.0753
1122.00,0.0752
1121.00,0.0752
1120.00,0.0755
1119.00,0.0762
1118.00,0.0774
1117.00,0.0794
1116.00,0.0819
1115.00,0.0851
1114.00,0.0886
1113.00,0.0921
1112.00,0.0952
1111.00,0.0978
1110.00,0.0998
1109.00,0.1011
1108.00,0.1020
1107.00,0.1026
1106.00,0.1032
1105.00,0.1039
1104.00,0.1048
1103.00,0.1061
1102.00,0.1079
1101.00,0.1099
1100.00,0.1120
1099.00,0.1141
1098.00,0.1159
1097.00,0.1172
1096.00,0.1179
1095.00,0.1182
1094.00,0.1185
1093.00,0.1194
1092.00,0.1215
1091.00,0.1253
1090.00,0.1310
1089.00,0.1387
1088.00,0.1478
1087.00,0.1580
1086.00,0.1683
1085.00,0.1778
1084.00,0.1858
1083.00,0.1916
1082.00,0.1948
1081.00,0.1953
1080.00,0.1931
1079.00,0.1884
1078.00,0.1815
1077.00,0.1729
1076.00,0.1627
1075.00,0.1517
1074.00,0.1403
1073.00,0.1292
1072.00,0.1188
1071.00,0.1097
1070.00,0.1022
1069.00,0.0965
1068.00,0.0928
1067.00,0.0913
1066.00,0.0921
1065.00,0.0952
1064.00,0.1007
1063.00,0.1085
1062.00,0.1188
1061.00,0.1312
1060.00,0.1455
1059.00,0.1613
1058.00,0.1782
1057.00,0.1957
1056.00,0.2131
1055.00,0.2299
1054.00,0.2452
1053.00,0.2585
1052.00,0.2689
1051.00,0.2757
1050.00,0.2783
1049.00,0.2764
1048.00,0.2699
1047.00,0.2593
1046.00,0.2454
1045.00,0.2293
1044.00,0.2119
1043.00,0.1943
1042.00,0.1775
1041.00,0.1620
1040.00,0.1482
1039.00,0.1362
1038.00,0.1261
1037.00,0.1175
1036.00,0.1103
1035.00,0.1044
1034.00,0.0994
1033.00,0.0954
1032.00,0.0919
1031.00,0.0890
1030.00,0.0864
1029.00,0.0841
1028.00,0.0820
1027.00,0.0799
1026.00,0.0778
1025.00,0.0758
1024.00,0.0736
1023.00,0.0714
1022.00,0.0692
1021.00,0.0672
1020.00,0.0653
1019.00,0.0637
1018.00,0.0625
1017.00,0.0618
1016.00,0.0614
1015.00,0.0614
1014.00,0.0616
1013.00,0.0617
1012.00,0.0616
1011.00,0.0612
1010.00,0.0605
1009.00,0.0595
1008.00,0.0584
1007.00,0.0575
1006.00,0.0571
1005.00,0.0571
1004.00,0.0576
1003.00,0.0585
1002.00,0.0595
1001.00,0.0604
1000.00,0.0610
999.00,0.0612
998.00,0.0613
997.00,0.0612
996.00,0.0614
995.00,0.0621
994.00,0.0634
993.00,0.0652
992.00,0.0672
991.00,0.0693
990.00,0.0710
989.00,0.0720
988.00,0.0721
987.00,0.0713
986.00,0.0698
985.00,0.0677
984.00,0.0652
983.00,0.0625
982.00,0.0601
981.00,0.0580
980.00,0.0563
979.00,0.0552
978.00,0.0543
977.00,0.0535
976.00,0.0526
975.00,0.0516
974.00,0.0504
973.00,0.0491
972.00,0.0476
971.00,0.0461
970.00,0.0445
969.00,0.0431
968.00,0.0418
967.00,0.0408
966.00,0.0402
965.00,0.0397
964.00,0.0393
963.00,0.0390
962.00,0.0387
961.00,0.0383
960.00,0.0378
959.00,0.0372
958.00,0.0367
957.00,0.0360
956.00,0.0354
955.00,0.0347
954.00,0.0341
953.00,0.0335
952.00,0.0328
951.00,0.0321
950.00,0.0315
949.00,0.0310
948.00,0.0304
947.00,0.0299
946.00,0.0295
945.00,0.0292
944.00,0.0289
943.00,0.0287
942.00,0.0286
941.00,0.0286
940.00,0.0286
939.00,0.0288
938.00,0.0291
937.00,0.0295
936.00,0.0300
935.00,0.0305
934.00,0.0313
933.00,0.0322
932.00,0.0333
931.00,0.0346
930.00,0.0362
929.00,0.0378
928.00,0.0395
927.00,0.0411
926.00,0.0428
925.00,0.0442
924.00,0.0454
923.00,0.0461
922.00,0.0463
921.00,0.0457
920.00,0.0443
919.00,0.0424
918.00,0.0405
917.00,0.0388
916.00,0.0376
915.00,0.0370
914.00,0.0371
913.00,0.0376
912.00,0.0385
911.00,0.0398
910.00,0.0413
909.00,0.0431
908.00,0.0450
907.00,0.0471
906.00,0.0494
905.00,0.0515
904.00,0.0534
903.00,0.0550
902.00,0.0560
901.00,0.0565
900.00,0.0562
899.00,0.0555
898.00,0.0543
897.00,0.0529
896.00,0.0513
895.00,0.0498
894.00,0.0484
893.00,0.0471
892.00,0.0458
891.00,0.0445
890.00,0.0432
889.00,0.0419
888.00,0.0406
887.00,0.0394
886.00,0.0383
885.00,0.0372
884.00,0.0362
883.00,0.0352
882.00,0.0344
881.00,0.0338
880.00,0.0332
879.00,0.0328
878.00,0.0326
877.00,0.0326
876.00,0.0327
875.00,0.0332
874.00,0.0342
873.00,0.0357
872.00,0.0377
871.00,0.0403
870.00,0.0436
869.00,0.0473
868.00,0.0512
867.00,0.0551
866.00,0.0586
865.00,0.0614
864.00,0.0634
863.00,0.0645
862.00,0.0650
861.00,0.0650
860.00,0.0648
859.00,0.0647
858.00,0.0649
857.00,0.0653
856.00,0.0660
855.00,0.0671
854.00,0.0685
853.00,0.0700
852.00,0.0717
851.00,0.0735
850.00,0.0753
849.00,0.0770
848.00,0.0785
847.00,0.0800
846.00,0.0815
845.00,0.0829
844.00,0.0843
843.00,0.0859
842.00,0.0876
841.00,0.0895
840.00,0.0917
839.00,0.0941
838.00,0.0970
837.00,0.1002
836.00,0.1035
835.00,0.1068
834.00,0.1098
833.00,0.1124
832.00,0.1144
831.00,0.1159
830.00,0.1167
829.00,0.1166
828.00,0.1154
827.00,0.1132
826.00,0.1101
825.00,0.1062
824.00,0.1016
823.00,0.0967
822.00,0.0917
821.00,0.0868
820.00,0.0820
819.00,0.0775
818.00,0.0734
817.00,0.0696
816.00,0.0660
815.00,0.0630
814.00,0.0603
813.00,0.0579
812.00,0.0559
811.00,0.0540
810.00,0.0525
809.00,0.0511
808.00,0.0499
807.00,0.0487
806.00,0.0476
805.00,0.0466
804.00,0.0455
803.00,0.0445
802.00,0.0436
801.00,0.0427
800.00,0.0418
799.00,0.0409
798.00,0.0401
797.00,0.0394
796.00,0.0389
795.00,0.0385
794.00,0.0385
793.00,0.0386
792.00,0.0389
791.00,0.0392
790.00,0.0397
789.00,0.0403
788.00,0.0413
787.00,0.0429
786.00,0.0456
785.00,0.0494
784.00,0.0547
783.00,0.0615
782.00,0.0703
781.00,0.0808
780.00,0.0931
779.00,0.1070
778.00,0.1220
777.00,0.1373
776.00,0.1515
775.00,0.1632
774.00,0.1708
773.00,0.1730
772.00,0.1689
771.00,0.1594
770.00,0.1459
769.00,0.1304
768.00,0.1148
767.00,0.1005
766.00,0.0882
765.00,0.0782
764.00,0.0702
763.00,0.0642
762.00,0.0600
761.00,0.0571
760.00,0.0552
759.00,0.0540
758.00,0.0535
757.00,0.0532
756.00,0.0532
755.00,0.0533
754.00,0.0536
753.00,0.0539
752.00,0.0542
751.00,0.0546
750.00,0.0549
749.00,0.0551
748.00,0.0552
747.00,0.0553
746.00,0.0553
745.00,0.0554
744.00,0.0555
743.00,0.0558
742.00,0.0561
741.00,0.0564
740.00,0.0566
739.00,0.0565
738.00,0.0561
737.00,0.0554
736.00,0.0544
735.00,0.0534
734.00,0.0526
733.00,0.0521
732.00,0.0519
731.00,0.0520
730.00,0.0526
729.00,0.0534
728.00,0.0543
727.00,0.0554
726.00,0.0567
725.00,0.0580
724.00,0.0594
723.00,0.0609
722.00,0.0628
721.00,0.0648
720.00,0.0671
719.00,0.0694
718.00,0.0719
717.00,0.0743
716.00,0.0764
715.00,0.0782
714.00,0.0795
713.00,0.0801
712.00,0.0799
711.00,0.0793
710.00,0.0785
709.00,0.0777
708.00,0.0770
707.00,0.0766
706.00,0.0764
705.00,0.0762
704.00,0.0757
703.00,0.0747
702.00,0.0730
701.00,0.0705
700.00,0.0674
699.00,0.0639
698.00,0.0603
697.00,0.0568
696.00,0.0536
695.00,0.0508
694.00,0.0487
693.00,0.0471
692.00,0.0458
691.00,0.0449
690.00,0.0442
689.00,0.0437
688.00,0.0431
687.00,0.0427
686.00,0.0425
685.00,0.0424
684.00,0.0423
683.00,0.0423
682.00,0.0426
681.00,0.0430
680.00,0.0435
679.00,0.0441
678.00,0.0449
677.00,0.0458
676.00,0.0467
675.00,0.0477
674.00,0.0489
673.00,0.0501
672.00,0.0512
671.00,0.0524
670.00,0.0538
669.00,0.0557
668.00,0.0581
667.00,0.0607
666.00,0.0629
665.00,0.0646
664.00,0.0661
663.00,0.0677
662.00,0.0691
661.00,0.0702
660.00,0.0708
659.00,0.0709
658.00,0.0705
657.00,0.0696
656.00,0.0681
655.00,0.0663
654.00,0.0644
653.00,0.0625
652.00,0.0605
651.00,0.0587
650.00,0.0572
649.00,0.0559
648.00,0.0547
647.00,0.0537
646.00,0.0530
645.00,0.0525
644.00,0.0521
643.00,0.0519
642.00,0.0519
641.00,0.0519
640.00,0.0519
639.00,0.0521
638.00,0.0524
637.00,0.0529
636.00,0.0534
635.00,0.0541
634.00,0.0550
633.00,0.0559
632.00,0.0568
631.00,0.0577
630.00,0.0587
629.00,0.0596
628.00,0.0604
627.00,0.0610
626.00,0.0616
625.00,0.0621
624.00,0.0623
623.00,0.0625
622.00,0.0626
621.00,0.0625
620.00,0.0622
619.00,0.0618
618.00,0.0613
617.00,0.0609
616.00,0.0603
615.00,0.0599
614.00,0.0595
613.00,0.0591
612.00,0.0586
611.00,0.0581
610.00,0.0578
609.00,0.0575
608.00,0.0571
607.00,0.0568
606.00,0.0567
605.00,0.0567
604.00,0.0564
603.00,0.0562
602.00,0.0561
601.00,0.0560
600.00,0.0558
599.00,0.0557
598.00,0.0558
597.00,0.0562
596.00,0.0566
595.00,0.0572
594.00,0.0581
593.00,0.0591
592.00,0.0603
591.00,0.0616
590.00,0.0630
589.00,0.0644
588.00,0.0656
587.00,0.0664
586.00,0.0669
585.00,0.0669
584.00,0.0663
583.00,0.0654
582.00,0.0645
581.00,0.0635
580.00,0.0623
579.00,0.0613
578.00,0.0606
577.00,0.0601
576.00,0.0598
575.00,0.0599
574.00,0.0605
573.00,0.0613
572.00,0.0622
571.00,0.0635
570.00,0.0653
569.00,0.0670
568.00,0.0684
567.00,0.0694
566.00,0.0700
565.00,0.0700
564.00,0.0694
563.00,0.0684
562.00,0.0673
561.00,0.0659
560.00,0.0643
559.00,0.0629
558.00,0.0618
557.00,0.0610
556.00,0.0602
555.00,0.0596
554.00,0.0593
553.00,0.0592
552.00,0.0590
551.00,0.0590
550.00,0.0593
549.00,0.0597
548.00,0.0599
547.00,0.0602
546.00,0.0607
545.00,0.0612
544.00,0.0615
543.00,0.0618
542.00,0.0623
541.00,0.0626
540.00,0.0627
539.00,0.0628
538.00,0.0632
537.00,0.0636
536.00,0.0638
535.00,0.0641
534.00,0.0644
533.00,0.0648
532.00,0.0649
531.00,0.0652
530.00,0.0655
529.00,0.0657
528.00,0.0655
527.00,0.0651
526.00,0.0648
525.00,0.0643
524.00,0.0634
523.00,0.0625
522.00,0.0616
521.00,0.0607
520.00,0.0594
519.00,0.0582
518.00,0.0573
517.00,0.0565
516.00,0.0557
515.00,0.0551
514.00,0.0549
513.00,0.0547
512.00,0.0544
511.00,0.0542
510.00,0.0544
509.00,0.0545
508.00,0.0544
507.00,0.0544
506.00,0.0547
505.00,0.0549
504.00,0.0550
503.00,0.0550
502.00,0.0552
501.00,0.0553
500.00,0.0553
499.00,0.0553
498.00,0.0555
497.00,0.0555
496.00,0.0553
495.00,0.0552
494.00,0.0556
493.00,0.0560
492.00,0.0563
491.00,0.0565
490.00,0.0570
489.00,0.0574
488.00,0.0573
487.00,0.0572
486.00,0.0574
485.00,0.0575
484.00,0.0573
483.00,0.0572
482.00,0.0574
481.00,0.0575
480.00,0.0572
479.00,0.0569
478.00,0.0567
477.00,0.0564
476.00,0.0560
475.00,0.0559
474.00,0.0566
473.00,0.0574
472.00,0.0578
471.00,0.0582
470.00,0.0588
469.00,0.0593
468.00,0.0592
467.00,0.0592
466.00,0.0597
465.00,0.0603
464.00,0.0606
463.00,0.0610
462.00,0.0621
461.00,0.0631
460.00,0.0640
459.00,0.0651
458.00,0.0668
457.00,0.0680
456.00,0.0683
455.00,0.0684
454.00,0.0688
453.00,0.0692
452.00,0.0690
451.00,0.0686
450.00,0.0686
449.00,0.0685
448.00,0.0681
447.00,0.0679
446.00,0.0681
445.00,0.0681
444.00,0.0674
443.00,0.0665
442.00,0.0659
441.00,0.0655
440.00,0.0647
439.00,0.0643
438.00,0.0646
437.00,0.0649
436.00,0.0645
435.00,0.0638
434.00,0.0636
433.00,0.0634
432.00,0.0628
431.00,0.0622
430.00,0.0619
429.00,0.0610
428.00,0.0596
427.00,0.0586
426.00,0.0587
425.00,0.0589
424.00,0.0582
423.00,0.0576
422.00,0.0577
421.00,0.0577
420.00,0.0568
419.00,0.0562
418.00,0.0569
417.00,0.0574
416.00,0.0568
415.00,0.0565
414.00,0.0571
413.00,0.0577
412.00,0.0571
411.00,0.0566
410.00,0.0572
409.00,0.0581
408.00,0.0581
407.00,0.0582
406.00,0.0593
405.00,0.0601
404.00,0.0600
403.00,0.0604
402.00,0.0627
401.00,0.0648
400.00,0.0649
