Created as New Dataset,Sample 303 By YargerLab Date Saturday, October 18 2025
cm-1,A
4000.00,0.0006
3999.00,0.0006
3998.00,0.0006
3997.00,0.0006
3996.00,0.0006
3995.00,0.0006
3994.00,0.0006
3993.00,0.0005
3992.00,0.0005
3991.00,0.0005
3990.00,0.0006
3989.00,0.0006
3988.00,0.0006
3987.00,0.0006
3986.00,0.0006
3985.00,0.0006
3984.00,0.0006
3983.00,0.0006
3982.00,0.0006
3981.00,0.0006
3980.00,0.0006
3979.00,0.0006
3978.00,0.0006
3977.00,0.0006
3976.00,0.0006
3975.00,0.0005
3974.00,0.0005
3973.00,0.0005
3972.00,0.0005
3971.00,0.0005
3970.00,0.0006
3969.00,0.0006
3968.00,0.0006
3967.00,0.0006
3966.00,0.0006
3965.00,0.0006
3964.00,0.0006
3963.00,0.0006
3962.00,0.0005
3961.00,0.0005
3960.00,0.0005
3959.00,0.0005
3958.00,0.0005
3957.00,0.0005
3956.00,0.0005
3955.00,0.0005
3954.00,0.0005
3953.00,0.0005
3952.00,0.0005
3951.00,0.0005
3950.00,0.0005
3949.00,0.0005
3948.00,0.0005
3947.00,0.0005
3946.00,0.0005
3945.00,0.0005
3944.00,0.0005
3943.00,0.0005
3942.00,0.0005
3941.00,0.0005
3940.00,0.0005
3939.00,0.0005
3938.00,0.0005
3937.00,0.0005
3936.00,0.0005
3935.00,0.0005
3934.00,0.0005
3933.00,0.0004
3932.00,0.0004
3931.00,0.0004
3930.00,0.0004
3929.00,0.0004
3928.00,0.0004
3927.00,0.0004
3926.00,0.0004
3925.00,0.0004
3924.00,0.0004
3923.00,0.0004
3922.00,0.0004
3921.00,0.0004
3920.00,0.0004
3919.00,0.0004
3918.00,0.0003
3917.00,0.0003
3916.00,0.0003
3915.00,0.0003
3914.00,0.0003
3913.00,0.0003
3912.00,0.0003
3911.00,0.0004
3910.00,0.0004
3909.00,0.0004
3908.00,0.0004
3907.00,0.0004
3906.00,0.0004
3905.00,0.0003
3904.00,0.0003
3903.00,0.0002
3902.00,0.0002
3901.00,0.0001
3900.00,0.0000
3899.00,0.0000
3898.00,0.0001
3897.00,0.0001
3896.00,0.0001
3895.00,0.0002
3894.00,0.0002
3893.00,0.0002
3892.00,0.0002
3891.00,0.0002
3890.00,0.0002
3889.00,0.0002
3888.00,0.0002
3887.00,0.0002
3886.00,0.0002
3885.00,0.0002
3884.00,0.0002
3883.00,0.0002
3882.00,0.0001
3881.00,0.0001
3880.00,0.0001
3879.00,0.0001
3878.00,0.0002
3877.00,0.0002
3876.00,0.0002
3875.00,0.0002
3874.00,0.0002
3873.00,0.0002
3872.00,0.0002
3871.00,0.0001
3870.00,0.0001
3869.00,0.0001
3868.00,0.0001
3867.00,0.0000
3866.00,-0.0000
3865.00,-0.0000
3864.00,0.0000
3863.00,0.0001
3862.00,0.0001
3861.00,0.0001
3860.00,0.0001
3859.00,0.0001
3858.00,0.0001
3857.00,0.0001
3856.00,0.0000
3855.00,0.0000
3854.00,0.0000
3853.00,0.0000
3852.00,0.0000
3851.00,-0.0000
3850.00,-0.0000
3849.00,-0.0000
3848.00,0.0000
3847.00,0.0001
3846.00,0.0002
3845.00,0.0002
3844.00,0.0002
3843.00,0.0002
3842.00,0.0002
3841.00,0.0002
3840.00,0.0001
3839.00,0.0001
3838.00,0.0001
3837.00,0.0000
3836.00,-0.0000
3835.00,-0.0000
3834.00,-0.0000
3833.00,0.0000
3832.00,0.0000
3831.00,0.0001
3830.00,0.0001
3829.00,0.0001
3828.00,0.0002
3827.00,0.0002
3826.00,0.0002
3825.00,0.0001
3824.00,0.0001
3823.00,0.0000
3822.00,-0.0000
3821.00,-0.0000
3820.00,0.0000
3819.00,0.0000
3818.00,-0.0000
3817.00,-0.0000
3816.00,-0.0000
3815.00,0.0000
3814.00,0.0001
3813.00,0.0000
3812.00,0.0000
3811.00,0.0000
3810.00,0.0001
3809.00,0.0001
3808.00,0.0001
3807.00,0.0001
3806.00,0.0002
3805.00,0.0001
3804.00,0.0001
3803.00,-0.0000
3802.00,-0.0000
3801.00,-0.0000
3800.00,0.0000
3799.00,-0.0000
3798.00,-0.0001
3797.00,-0.0001
3796.00,-0.0000
3795.00,0.0000
3794.00,0.0000
3793.00,0.0001
3792.00,0.0001
3791.00,0.0001
3790.00,0.0001
3789.00,0.0002
3788.00,0.0002
3787.00,0.0002
3786.00,0.0002
3785.00,0.0002
3784.00,0.0002
3783.00,0.0001
3782.00,0.0001
3781.00,0.0001
3780.00,0.0001
3779.00,0.0001
3778.00,0.0001
3777.00,0.0000
3776.00,0.0000
3775.00,0.0000
3774.00,0.0000
3773.00,0.0000
3772.00,0.0000
3771.00,0.0000
3770.00,0.0000
3769.00,0.0001
3768.00,0.0001
3767.00,0.0001
3766.00,0.0001
3765.00,0.0001
3764.00,0.0001
3763.00,0.0001
3762.00,0.0001
3761.00,0.0001
3760.00,0.0001
3759.00,0.0001
3758.00,0.0001
3757.00,0.0000
3756.00,0.0000
3755.00,0.0000
3754.00,0.0000
3753.00,0.0000
3752.00,-0.0000
3751.00,-0.0001
3750.00,-0.0002
3749.00,-0.0002
3748.00,-0.0003
3747.00,-0.0003
3746.00,-0.0003
3745.00,-0.0003
3744.00,-0.0003
3743.00,-0.0002
3742.00,-0.0002
3741.00,-0.0002
3740.00,-0.0001
3739.00,-0.0001
3738.00,-0.0000
3737.00,0.0000
3736.00,-0.0000
3735.00,-0.0001
3734.00,-0.0002
3733.00,-0.0003
3732.00,-0.0003
3731.00,-0.0002
3730.00,-0.0001
3729.00,-0.0000
3728.00,0.0000
3727.00,0.0000
3726.00,0.0001
3725.00,0.0001
3724.00,0.0001
3723.00,0.0000
3722.00,-0.0000
3721.00,-0.0000
3720.00,-0.0000
3719.00,-0.0000
3718.00,-0.0000
3717.00,-0.0000
3716.00,-0.0000
3715.00,-0.0000
3714.00,-0.0000
3713.00,-0.0000
3712.00,-0.0001
3711.00,-0.0001
3710.00,-0.0001
3709.00,-0.0002
3708.00,-0.0001
3707.00,-0.0001
3706.00,-0.0001
3705.00,-0.0000
3704.00,-0.0000
3703.00,-0.0000
3702.00,-0.0000
3701.00,0.0000
3700.00,0.0001
3699.00,0.0001
3698.00,0.0001
3697.00,0.0001
3696.00,0.0001
3695.00,0.0001
3694.00,0.0001
3693.00,0.0001
3692.00,0.0001
3691.00,0.0001
3690.00,0.0001
3689.00,0.0000
3688.00,0.0000
3687.00,0.0000
3686.00,0.0001
3685.00,0.0001
3684.00,0.0002
3683.00,0.0002
3682.00,0.0002
3681.00,0.0002
3680.00,0.0002
3679.00,0.0003
3678.00,0.0002
3677.00,0.0002
3676.00,0.0001
3675.00,0.0001
3674.00,0.0001
3673.00,0.0001
3672.00,0.0001
3671.00,0.0001
3670.00,0.0002
3669.00,0.0002
3668.00,0.0003
3667.00,0.0003
3666.00,0.0004
3665.00,0.0005
3664.00,0.0006
3663.00,0.0006
3662.00,0.0006
3661.00,0.0006
3660.00,0.0006
3659.00,0.0006
3658.00,0.0006
3657.00,0.0006
3656.00,0.0006
3655.00,0.0007
3654.00,0.0006
3653.00,0.0006
3652.00,0.0006
3651.00,0.0007
3650.00,0.0007
3649.00,0.0007
3648.00,0.0006
3647.00,0.0006
3646.00,0.0007
3645.00,0.0008
3644.00,0.0009
3643.00,0.0010
3642.00,0.0010
3641.00,0.0011
3640.00,0.0011
3639.00,0.0012
3638.00,0.0012
3637.00,0.0012
3636.00,0.0013
3635.00,0.0013
3634.00,0.0014
3633.00,0.0014
3632.00,0.0014
3631.00,0.0014
3630.00,0.0013
3629.00,0.0013
3628.00,0.0014
3627.00,0.0015
3626.00,0.0016
3625.00,0.0017
3624.00,0.0017
3623.00,0.0018
3622.00,0.0019
3621.00,0.0020
3620.00,0.0020
3619.00,0.0021
3618.00,0.0021
3617.00,0.0022
3616.00,0.0022
3615.00,0.0023
3614.00,0.0023
3613.00,0.0024
3612.00,0.0025
3611.00,0.0026
3610.00,0.0026
3609.00,0.0027
3608.00,0.0028
3607.00,0.0028
3606.00,0.0029
3605.00,0.0030
3604.00,0.0031
3603.00,0.0032
3602.00,0.0033
3601.00,0.0034
3600.00,0.0035
3599.00,0.0036
3598.00,0.0037
3597.00,0.0037
3596.00,0.0038
3595.00,0.0038
3594.00,0.0039
3593.00,0.0040
3592.00,0.0040
3591.00,0.0041
3590.00,0.0041
3589.00,0.0042
3588.00,0.0043
3587.00,0.0044
3586.00,0.0045
3585.00,0.0045
3584.00,0.0046
3583.00,0.0047
3582.00,0.0048
3581.00,0.0050
3580.00,0.0051
3579.00,0.0052
3578.00,0.0053
3577.00,0.0054
3576.00,0.0055
3575.00,0.0056
3574.00,0.0057
3573.00,0.0058
3572.00,0.0059
3571.00,0.0060
3570.00,0.0061
3569.00,0.0062
3568.00,0.0063
3567.00,0.0064
3566.00,0.0065
3565.00,0.0067
3564.00,0.0068
3563.00,0.0070
3562.00,0.0072
3561.00,0.0074
3560.00,0.0075
3559.00,0.0077
3558.00,0.0078
3557.00,0.0079
3556.00,0.0081
3555.00,0.0082
3554.00,0.0083
3553.00,0.0085
3552.00,0.0087
3551.00,0.0088
3550.00,0.0090
3549.00,0.0092
3548.00,0.0093
3547.00,0.0095
3546.00,0.0096
3545.00,0.0098
3544.00,0.0100
3543.00,0.0102
3542.00,0.0103
3541.00,0.0105
3540.00,0.0107
3539.00,0.0109
3538.00,0.0111
3537.00,0.0113
3536.00,0.0115
3535.00,0.0117
3534.00,0.0118
3533.00,0.0120
3532.00,0.0122
3531.00,0.0124
3530.00,0.0127
3529.00,0.0129
3528.00,0.0131
3527.00,0.0133
3526.00,0.0136
3525.00,0.0138
3524.00,0.0140
3523.00,0.0142
3522.00,0.0144
3521.00,0.0147
3520.00,0.0149
3519.00,0.0151
3518.00,0.0154
3517.00,0.0156
3516.00,0.0159
3515.00,0.0162
3514.00,0.0164
3513.00,0.0167
3512.00,0.0169
3511.00,0.0171
3510.00,0.0174
3509.00,0.0177
3508.00,0.0179
3507.00,0.0182
3506.00,0.0185
3505.00,0.0187
3504.00,0.0190
3503.00,0.0193
3502.00,0.0196
3501.00,0.0199
3500.00,0.0201
3499.00,0.0204
3498.00,0.0207
3497.00,0.0210
3496.00,0.0213
3495.00,0.0216
3494.00,0.0219
3493.00,0.0222
3492.00,0.0224
3491.00,0.0227
3490.00,0.0230
3489.00,0.0233
3488.00,0.0236
3487.00,0.0238
3486.00,0.0241
3485.00,0.0244
3484.00,0.0247
3483.00,0.0250
3482.00,0.0253
3481.00,0.0256
3480.00,0.0259
3479.00,0.0261
3478.00,0.0264
3477.00,0.0267
3476.00,0.0269
3475.00,0.0272
3474.00,0.0274
3473.00,0.0277
3472.00,0.0279
3471.00,0.0282
3470.00,0.0284
3469.00,0.0287
3468.00,0.0290
3467.00,0.0292
3466.00,0.0295
3465.00,0.0297
3464.00,0.0299
3463.00,0.0301
3462.00,0.0302
3461.00,0.0304
3460.00,0.0306
3459.00,0.0308
3458.00,0.0309
3457.00,0.0311
3456.00,0.0312
3455.00,0.0314
3454.00,0.0315
3453.00,0.0317
3452.00,0.0318
3451.00,0.0320
3450.00,0.0321
3449.00,0.0323
3448.00,0.0323
3447.00,0.0324
3446.00,0.0325
3445.00,0.0326
3444.00,0.0327
3443.00,0.0328
3442.00,0.0328
3441.00,0.0329
3440.00,0.0330
3439.00,0.0331
3438.00,0.0332
3437.00,0.0332
3436.00,0.0333
3435.00,0.0333
3434.00,0.0333
3433.00,0.0333
3432.00,0.0333
3431.00,0.0333
3430.00,0.0334
3429.00,0.0334
3428.00,0.0334
3427.00,0.0333
3426.00,0.0333
3425.00,0.0333
3424.00,0.0333
3423.00,0.0333
3422.00,0.0333
3421.00,0.0332
3420.00,0.0332
3419.00,0.0332
3418.00,0.0331
3417.00,0.0331
3416.00,0.0331
3415.00,0.0331
3414.00,0.0331
3413.00,0.0331
3412.00,0.0330
3411.00,0.0330
3410.00,0.0330
3409.00,0.0329
3408.00,0.0329
3407.00,0.0328
3406.00,0.0327
3405.00,0.0327
3404.00,0.0326
3403.00,0.0326
3402.00,0.0326
3401.00,0.0326
3400.00,0.0325
3399.00,0.0324
3398.00,0.0323
3397.00,0.0322
3396.00,0.0321
3395.00,0.0321
3394.00,0.0320
3393.00,0.0319
3392.00,0.0319
3391.00,0.0318
3390.00,0.0317
3389.00,0.0316
3388.00,0.0315
3387.00,0.0314
3386.00,0.0313
3385.00,0.0312
3384.00,0.0311
3383.00,0.0311
3382.00,0.0310
3381.00,0.0309
3380.00,0.0309
3379.00,0.0308
3378.00,0.0307
3377.00,0.0306
3376.00,0.0305
3375.00,0.0304
3374.00,0.0304
3373.00,0.0303
3372.00,0.0303
3371.00,0.0302
3370.00,0.0301
3369.00,0.0300
3368.00,0.0299
3367.00,0.0298
3366.00,0.0297
3365.00,0.0296
3364.00,0.0295
3363.00,0.0294
3362.00,0.0293
3361.00,0.0292
3360.00,0.0291
3359.00,0.0289
3358.00,0.0288
3357.00,0.0287
3356.00,0.0287
3355.00,0.0286
3354.00,0.0285
3353.00,0.0284
3352.00,0.0283
3351.00,0.0283
3350.00,0.0282
3349.00,0.0281
3348.00,0.0280
3347.00,0.0279
3346.00,0.0278
3345.00,0.0277
3344.00,0.0276
3343.00,0.0275
3342.00,0.0274
3341.00,0.0272
3340.00,0.0271
3339.00,0.0270
3338.00,0.0269
3337.00,0.0268
3336.00,0.0267
3335.00,0.0265
3334.00,0.0264
3333.00,0.0263
3332.00,0.0262
3331.00,0.0261
3330.00,0.0261
3329.00,0.0260
3328.00,0.0259
3327.00,0.0258
3326.00,0.0256
3325.00,0.0255
3324.00,0.0254
3323.00,0.0253
3322.00,0.0251
3321.00,0.0250
3320.00,0.0249
3319.00,0.0248
3318.00,0.0247
3317.00,0.0246
3316.00,0.0244
3315.00,0.0243
3314.00,0.0242
3313.00,0.0241
3312.00,0.0240
3311.00,0.0239
3310.00,0.0238
3309.00,0.0238
3308.00,0.0237
3307.00,0.0235
3306.00,0.0234
3305.00,0.0233
3304.00,0.0231
3303.00,0.0230
3302.00,0.0228
3301.00,0.0227
3300.00,0.0226
3299.00,0.0225
3298.00,0.0224
3297.00,0.0223
3296.00,0.0222
3295.00,0.0221
3294.00,0.0219
3293.00,0.0218
3292.00,0.0217
3291.00,0.0216
3290.00,0.0215
3289.00,0.0213
3288.00,0.0212
3287.00,0.0211
3286.00,0.0210
3285.00,0.0209
3284.00,0.0207
3283.00,0.0206
3282.00,0.0205
3281.00,0.0204
3280.00,0.0203
3279.00,0.0202
3278.00,0.0201
3277.00,0.0200
3276.00,0.0199
3275.00,0.0198
3274.00,0.0196
3273.00,0.0195
3272.00,0.0194
3271.00,0.0192
3270.00,0.0191
3269.00,0.0190
3268.00,0.0189
3267.00,0.0188
3266.00,0.0187
3265.00,0.0186
3264.00,0.0185
3263.00,0.0184
3262.00,0.0183
3261.00,0.0182
3260.00,0.0181
3259.00,0.0179
3258.00,0.0178
3257.00,0.0177
3256.00,0.0176
3255.00,0.0175
3254.00,0.0174
3253.00,0.0172
3252.00,0.0171
3251.00,0.0170
3250.00,0.0168
3249.00,0.0167
3248.00,0.0166
3247.00,0.0165
3246.00,0.0164
3245.00,0.0163
3244.00,0.0162
3243.00,0.0161
3242.00,0.0160
3241.00,0.0159
3240.00,0.0157
3239.00,0.0156
3238.00,0.0155
3237.00,0.0154
3236.00,0.0153
3235.00,0.0152
3234.00,0.0151
3233.00,0.0150
3232.00,0.0149
3231.00,0.0147
3230.00,0.0146
3229.00,0.0145
3228.00,0.0145
3227.00,0.0144
3226.00,0.0143
3225.00,0.0142
3224.00,0.0141
3223.00,0.0140
3222.00,0.0139
3221.00,0.0138
3220.00,0.0137
3219.00,0.0136
3218.00,0.0135
3217.00,0.0134
3216.00,0.0134
3215.00,0.0133
3214.00,0.0132
3213.00,0.0131
3212.00,0.0130
3211.00,0.0129
3210.00,0.0128
3209.00,0.0127
3208.00,0.0126
3207.00,0.0126
3206.00,0.0125
3205.00,0.0124
3204.00,0.0123
3203.00,0.0122
3202.00,0.0121
3201.00,0.0120
3200.00,0.0119
3199.00,0.0118
3198.00,0.0117
3197.00,0.0116
3196.00,0.0115
3195.00,0.0114
3194.00,0.0113
3193.00,0.0113
3192.00,0.0112
3191.00,0.0111
3190.00,0.0110
3189.00,0.0109
3188.00,0.0108
3187.00,0.0107
3186.00,0.0106
3185.00,0.0105
3184.00,0.0105
3183.00,0.0104
3182.00,0.0103
3181.00,0.0102
3180.00,0.0102
3179.00,0.0101
3178.00,0.0100
3177.00,0.0099
3176.00,0.0099
3175.00,0.0098
3174.00,0.0097
3173.00,0.0096
3172.00,0.0095
3171.00,0.0094
3170.00,0.0093
3169.00,0.0092
3168.00,0.0091
3167.00,0.0091
3166.00,0.0090
3165.00,0.0089
3164.00,0.0088
3163.00,0.0088
3162.00,0.0087
3161.00,0.0086
3160.00,0.0086
3159.00,0.0085
3158.00,0.0084
3157.00,0.0084
3156.00,0.0083
3155.00,0.0082
3154.00,0.0081
3153.00,0.0081
3152.00,0.0080
3151.00,0.0080
3150.00,0.0079
3149.00,0.0079
3148.00,0.0078
3147.00,0.0077
3146.00,0.0077
3145.00,0.0076
3144.00,0.0076
3143.00,0.0075
3142.00,0.0074
3141.00,0.0074
3140.00,0.0073
3139.00,0.0073
3138.00,0.0072
3137.00,0.0072
3136.00,0.0071
3135.00,0.0071
3134.00,0.0070
3133.00,0.0070
3132.00,0.0069
3131.00,0.0068
3130.00,0.0068
3129.00,0.0068
3128.00,0.0067
3127.00,0.0067
3126.00,0.0066
3125.00,0.0065
3124.00,0.0065
3123.00,0.0064
3122.00,0.0064
3121.00,0.0064
3120.00,0.0064
3119.00,0.0063
3118.00,0.0063
3117.00,0.0063
3116.00,0.0062
3115.00,0.0062
3114.00,0.0061
3113.00,0.0061
3112.00,0.0060
3111.00,0.0060
3110.00,0.0060
3109.00,0.0059
3108.00,0.0059
3107.00,0.0059
3106.00,0.0059
3105.00,0.0058
3104.00,0.0058
3103.00,0.0058
3102.00,0.0058
3101.00,0.0058
3100.00,0.0057
3099.00,0.0057
3098.00,0.0057
3097.00,0.0057
3096.00,0.0057
3095.00,0.0057
3094.00,0.0057
3093.00,0.0057
3092.00,0.0057
3091.00,0.0057
3090.00,0.0058
3089.00,0.0058
3088.00,0.0059
3087.00,0.0059
3086.00,0.0060
3085.00,0.0060
3084.00,0.0061
3083.00,0.0062
3082.00,0.0063
3081.00,0.0064
3080.00,0.0065
3079.00,0.0065
3078.00,0.0066
3077.00,0.0066
3076.00,0.0067
3075.00,0.0067
3074.00,0.0067
3073.00,0.0068
3072.00,0.0068
3071.00,0.0067
3070.00,0.0067
3069.00,0.0066
3068.00,0.0066
3067.00,0.0064
3066.00,0.0063
3065.00,0.0061
3064.00,0.0060
3063.00,0.0058
3062.00,0.0057
3061.00,0.0056
3060.00,0.0055
3059.00,0.0054
3058.00,0.0054
3057.00,0.0053
3056.00,0.0053
3055.00,0.0053
3054.00,0.0052
3053.00,0.0052
3052.00,0.0052
3051.00,0.0052
3050.00,0.0052
3049.00,0.0052
3048.00,0.0052
3047.00,0.0053
3046.00,0.0053
3045.00,0.0053
3044.00,0.0054
3043.00,0.0054
3042.00,0.0054
3041.00,0.0055
3040.00,0.0055
3039.00,0.0055
3038.00,0.0055
3037.00,0.0055
3036.00,0.0056
3035.00,0.0056
3034.00,0.0056
3033.00,0.0057
3032.00,0.0057
3031.00,0.0057
3030.00,0.0057
3029.00,0.0057
3028.00,0.0057
3027.00,0.0057
3026.00,0.0057
3025.00,0.0057
3024.00,0.0057
3023.00,0.0058
3022.00,0.0058
3021.00,0.0059
3020.00,0.0060
3019.00,0.0060
3018.00,0.0061
3017.00,0.0062
3016.00,0.0063
3015.00,0.0064
3014.00,0.0065
3013.00,0.0067
3012.00,0.0069
3011.00,0.0070
3010.00,0.0072
3009.00,0.0074
3008.00,0.0076
3007.00,0.0078
3006.00,0.0081
3005.00,0.0084
3004.00,0.0087
3003.00,0.0090
3002.00,0.0093
3001.00,0.0097
3000.00,0.0100
2999.00,0.0104
2998.00,0.0108
2997.00,0.0112
2996.00,0.0116
2995.00,0.0120
2994.00,0.0125
2993.00,0.0130
2992.00,0.0135
2991.00,0.0139
2990.00,0.0144
2989.00,0.0149
2988.00,0.0154
2987.00,0.0158
2986.00,0.0163
2985.00,0.0167
2984.00,0.0171
2983.00,0.0175
2982.00,0.0179
2981.00,0.0184
2980.00,0.0188
2979.00,0.0192
2978.00,0.0197
2977.00,0.0202
2976.00,0.0206
2975.00,0.0211
2974.00,0.0216
2973.00,0.0221
2972.00,0.0227
2971.00,0.0233
2970.00,0.0240
2969.00,0.0247
2968.00,0.0253
2967.00,0.0260
2966.00,0.0266
2965.00,0.0273
2964.00,0.0279
2963.00,0.0285
2962.00,0.0290
2961.00,0.0295
2960.00,0.0299
2959.00,0.0303
2958.00,0.0306
2957.00,0.0309
2956.00,0.0311
2955.00,0.0312
2954.00,0.0314
2953.00,0.0315
2952.00,0.0316
2951.00,0.0318
2950.00,0.0320
2949.00,0.0322
2948.00,0.0326
2947.00,0.0331
2946.00,0.0338
2945.00,0.0346
2944.00,0.0355
2943.00,0.0366
2942.00,0.0378
2941.00,0.0391
2940.00,0.0404
2939.00,0.0418
2938.00,0.0432
2937.00,0.0446
2936.00,0.0460
2935.00,0.0473
2934.00,0.0485
2933.00,0.0497
2932.00,0.0507
2931.00,0.0515
2930.00,0.0522
2929.00,0.0528
2928.00,0.0531
2927.00,0.0534
2926.00,0.0535
2925.00,0.0535
2924.00,0.0535
2923.00,0.0533
2922.00,0.0530
2921.00,0.0526
2920.00,0.0521
2919.00,0.0516
2918.00,0.0511
2917.00,0.0506
2916.00,0.0501
2915.00,0.0496
2914.00,0.0491
2913.00,0.0486
2912.00,0.0481
2911.00,0.0476
2910.00,0.0471
2909.00,0.0467
2908.00,0.0462
2907.00,0.0458
2906.00,0.0453
2905.00,0.0449
2904.00,0.0445
2903.00,0.0441
2902.00,0.0437
2901.00,0.0433
2900.00,0.0430
2899.00,0.0426
2898.00,0.0422
2897.00,0.0418
2896.00,0.0414
2895.00,0.0410
2894.00,0.0406
2893.00,0.0402
2892.00,0.0398
2891.00,0.0394
2890.00,0.0391
2889.00,0.0388
2888.00,0.0385
2887.00,0.0382
2886.00,0.0380
2885.00,0.0377
2884.00,0.0375
2883.00,0.0374
2882.00,0.0373
2881.00,0.0372
2880.00,0.0371
2879.00,0.0371
2878.00,0.0371
2877.00,0.0372
2876.00,0.0372
2875.00,0.0373
2874.00,0.0373
2873.00,0.0373
2872.00,0.0371
2871.00,0.0368
2870.00,0.0364
2869.00,0.0360
2868.00,0.0356
2867.00,0.0352
2866.00,0.0349
2865.00,0.0348
2864.00,0.0348
2863.00,0.0349
2862.00,0.0351
2861.00,0.0353
2860.00,0.0356
2859.00,0.0358
2858.00,0.0358
2857.00,0.0357
2856.00,0.0354
2855.00,0.0350
2854.00,0.0343
2853.00,0.0336
2852.00,0.0328
2851.00,0.0319
2850.00,0.0310
2849.00,0.0301
2848.00,0.0293
2847.00,0.0286
2846.00,0.0279
2845.00,0.0273
2844.00,0.0269
2843.00,0.0265
2842.00,0.0263
2841.00,0.0261
2840.00,0.0260
2839.00,0.0260
2838.00,0.0260
2837.00,0.0260
2836.00,0.0261
2835.00,0.0260
2834.00,0.0259
2833.00,0.0256
2832.00,0.0252
2831.00,0.0247
2830.00,0.0241
2829.00,0.0235
2828.00,0.0227
2827.00,0.0220
2826.00,0.0212
2825.00,0.0204
2824.00,0.0197
2823.00,0.0191
2822.00,0.0185
2821.00,0.0179
2820.00,0.0174
2819.00,0.0169
2818.00,0.0165
2817.00,0.0161
2816.00,0.0157
2815.00,0.0152
2814.00,0.0148
2813.00,0.0144
2812.00,0.0139
2811.00,0.0134
2810.00,0.0130
2809.00,0.0125
2808.00,0.0120
2807.00,0.0114
2806.00,0.0109
2805.00,0.0104
2804.00,0.0099
2803.00,0.0095
2802.00,0.0091
2801.00,0.0088
2800.00,0.0084
2799.00,0.0082
2798.00,0.0079
2797.00,0.0077
2796.00,0.0074
2795.00,0.0073
2794.00,0.0071
2793.00,0.0069
2792.00,0.0068
2791.00,0.0067
2790.00,0.0066
2789.00,0.0064
2788.00,0.0063
2787.00,0.0062
2786.00,0.0061
2785.00,0.0060
2784.00,0.0060
2783.00,0.0059
2782.00,0.0058
2781.00,0.0058
2780.00,0.0057
2779.00,0.0056
2778.00,0.0055
2777.00,0.0055
2776.00,0.0054
2775.00,0.0053
2774.00,0.0053
2773.00,0.0053
2772.00,0.0052
2771.00,0.0052
2770.00,0.0051
2769.00,0.0051
2768.00,0.0051
2767.00,0.0050
2766.00,0.0050
2765.00,0.0049
2764.00,0.0049
2763.00,0.0049
2762.00,0.0049
2761.00,0.0049
2760.00,0.0049
2759.00,0.0048
2758.00,0.0048
2757.00,0.0048
2756.00,0.0048
2755.00,0.0048
2754.00,0.0048
2753.00,0.0048
2752.00,0.0048
2751.00,0.0048
2750.00,0.0047
2749.00,0.0047
2748.00,0.0047
2747.00,0.0047
2746.00,0.0047
2745.00,0.0047
2744.00,0.0047
2743.00,0.0047
2742.00,0.0047
2741.00,0.0047
2740.00,0.0047
2739.00,0.0047
2738.00,0.0047
2737.00,0.0048
2736.00,0.0048
2735.00,0.0048
2734.00,0.0048
2733.00,0.0048
2732.00,0.0048
2731.00,0.0048
2730.00,0.0048
2729.00,0.0048
2728.00,0.0048
2727.00,0.0048
2726.00,0.0047
2725.00,0.0047
2724.00,0.0047
2723.00,0.0047
2722.00,0.0046
2721.00,0.0045
2720.00,0.0045
2719.00,0.0044
2718.00,0.0043
2717.00,0.0043
2716.00,0.0042
2715.00,0.0042
2714.00,0.0042
2713.00,0.0041
2712.00,0.0041
2711.00,0.0041
2710.00,0.0040
2709.00,0.0040
2708.00,0.0039
2707.00,0.0039
2706.00,0.0039
2705.00,0.0039
2704.00,0.0038
2703.00,0.0038
2702.00,0.0038
2701.00,0.0038
2700.00,0.0038
2699.00,0.0037
2698.00,0.0037
2697.00,0.0037
2696.00,0.0037
2695.00,0.0037
2694.00,0.0037
2693.00,0.0037
2692.00,0.0036
2691.00,0.0036
2690.00,0.0036
2689.00,0.0036
2688.00,0.0036
2687.00,0.0036
2686.00,0.0036
2685.00,0.0036
2684.00,0.0037
2683.00,0.0037
2682.00,0.0036
2681.00,0.0036
2680.00,0.0036
2679.00,0.0036
2678.00,0.0036
2677.00,0.0036
2676.00,0.0036
2675.00,0.0037
2674.00,0.0037
2673.00,0.0037
2672.00,0.0037
2671.00,0.0037
2670.00,0.0037
2669.00,0.0037
2668.00,0.0037
2667.00,0.0038
2666.00,0.0038
2665.00,0.0038
2664.00,0.0038
2663.00,0.0038
2662.00,0.0039
2661.00,0.0039
2660.00,0.0038
2659.00,0.0038
2658.00,0.0038
2657.00,0.0038
2656.00,0.0038
2655.00,0.0038
2654.00,0.0038
2653.00,0.0038
2652.00,0.0038
2651.00,0.0037
2650.00,0.0037
2649.00,0.0037
2648.00,0.0036
2647.00,0.0036
2646.00,0.0036
2645.00,0.0036
2644.00,0.0036
2643.00,0.0035
2642.00,0.0035
2641.00,0.0035
2640.00,0.0035
2639.00,0.0034
2638.00,0.0034
2637.00,0.0034
2636.00,0.0034
2635.00,0.0034
2634.00,0.0034
2633.00,0.0034
2632.00,0.0034
2631.00,0.0034
2630.00,0.0034
2629.00,0.0034
2628.00,0.0033
2627.00,0.0033
2626.00,0.0033
2625.00,0.0032
2624.00,0.0032
2623.00,0.0032
2622.00,0.0032
2621.00,0.0032
2620.00,0.0032
2619.00,0.0032
2618.00,0.0032
2617.00,0.0032
2616.00,0.0032
2615.00,0.0031
2614.00,0.0031
2613.00,0.0031
2612.00,0.0031
2611.00,0.0031
2610.00,0.0031
2609.00,0.0030
2608.00,0.0030
2607.00,0.0030
2606.00,0.0030
2605.00,0.0030
2604.00,0.0030
2603.00,0.0030
2602.00,0.0030
2601.00,0.0030
2600.00,0.0030
2599.00,0.0030
2598.00,0.0029
2597.00,0.0029
2596.00,0.0029
2595.00,0.0029
2594.00,0.0029
2593.00,0.0028
2592.00,0.0028
2591.00,0.0028
2590.00,0.0027
2589.00,0.0027
2588.00,0.0028
2587.00,0.0028
2586.00,0.0027
2585.00,0.0027
2584.00,0.0027
2583.00,0.0026
2582.00,0.0026
2581.00,0.0026
2580.00,0.0026
2579.00,0.0025
2578.00,0.0025
2577.00,0.0025
2576.00,0.0024
2575.00,0.0024
2574.00,0.0024
2573.00,0.0023
2572.00,0.0023
2571.00,0.0023
2570.00,0.0023
2569.00,0.0023
2568.00,0.0022
2567.00,0.0022
2566.00,0.0022
2565.00,0.0022
2564.00,0.0023
2563.00,0.0023
2562.00,0.0022
2561.00,0.0022
2560.00,0.0022
2559.00,0.0021
2558.00,0.0021
2557.00,0.0021
2556.00,0.0021
2555.00,0.0021
2554.00,0.0021
2553.00,0.0021
2552.00,0.0021
2551.00,0.0021
2550.00,0.0021
2549.00,0.0021
2548.00,0.0021
2547.00,0.0021
2546.00,0.0020
2545.00,0.0020
2544.00,0.0020
2543.00,0.0020
2542.00,0.0020
2541.00,0.0019
2540.00,0.0019
2539.00,0.0019
2538.00,0.0020
2537.00,0.0020
2536.00,0.0020
2535.00,0.0020
2534.00,0.0020
2533.00,0.0019
2532.00,0.0019
2531.00,0.0019
2530.00,0.0019
2529.00,0.0019
2528.00,0.0019
2527.00,0.0018
2526.00,0.0018
2525.00,0.0018
2524.00,0.0018
2523.00,0.0018
2522.00,0.0018
2521.00,0.0019
2520.00,0.0018
2519.00,0.0018
2518.00,0.0018
2517.00,0.0018
2516.00,0.0018
2515.00,0.0017
2514.00,0.0017
2513.00,0.0017
2512.00,0.0017
2511.00,0.0018
2510.00,0.0018
2509.00,0.0018
2508.00,0.0018
2507.00,0.0017
2506.00,0.0017
2505.00,0.0016
2504.00,0.0016
2503.00,0.0016
2502.00,0.0017
2501.00,0.0017
2500.00,0.0017
2499.00,0.0017
2498.00,0.0017
2497.00,0.0017
2496.00,0.0017
2495.00,0.0016
2494.00,0.0016
2493.00,0.0016
2492.00,0.0016
2491.00,0.0016
2490.00,0.0016
2489.00,0.0016
2488.00,0.0016
2487.00,0.0017
2486.00,0.0017
2485.00,0.0017
2484.00,0.0016
2483.00,0.0016
2482.00,0.0015
2481.00,0.0015
2480.00,0.0015
2479.00,0.0015
2478.00,0.0016
2477.00,0.0015
2476.00,0.0015
2475.00,0.0015
2474.00,0.0015
2473.00,0.0016
2472.00,0.0016
2471.00,0.0016
2470.00,0.0016
2469.00,0.0016
2468.00,0.0015
2467.00,0.0015
2466.00,0.0015
2465.00,0.0015
2464.00,0.0015
2463.00,0.0015
2462.00,0.0016
2461.00,0.0016
2460.00,0.0016
2459.00,0.0016
2458.00,0.0016
2457.00,0.0016
2456.00,0.0016
2455.00,0.0016
2454.00,0.0016
2453.00,0.0016
2452.00,0.0016
2451.00,0.0016
2450.00,0.0015
2449.00,0.0015
2448.00,0.0015
2447.00,0.0015
2446.00,0.0015
2445.00,0.0014
2444.00,0.0014
2443.00,0.0014
2442.00,0.0014
2441.00,0.0014
2440.00,0.0014
2439.00,0.0013
2438.00,0.0013
2437.00,0.0013
2436.00,0.0013
2435.00,0.0012
2434.00,0.0012
2433.00,0.0011
2432.00,0.0011
2431.00,0.0012
2430.00,0.0012
2429.00,0.0012
2428.00,0.0012
2427.00,0.0012
2426.00,0.0012
2425.00,0.0012
2424.00,0.0012
2423.00,0.0012
2422.00,0.0012
2421.00,0.0012
2420.00,0.0012
2419.00,0.0011
2418.00,0.0011
2417.00,0.0011
2416.00,0.0011
2415.00,0.0011
2414.00,0.0011
2413.00,0.0011
2412.00,0.0011
2411.00,0.0011
2410.00,0.0011
2409.00,0.0010
2408.00,0.0010
2407.00,0.0009
2406.00,0.0009
2405.00,0.0009
2404.00,0.0009
2403.00,0.0009
2402.00,0.0009
2401.00,0.0009
2400.00,0.0009
2399.00,0.0009
2398.00,0.0009
2397.00,0.0009
2396.00,0.0009
2395.00,0.0009
2394.00,0.0009
2393.00,0.0009
2392.00,0.0009
2391.00,0.0009
2390.00,0.0009
2389.00,0.0009
2388.00,0.0008
2387.00,0.0008
2386.00,0.0008
2385.00,0.0008
2384.00,0.0007
2383.00,0.0007
2382.00,0.0007
2381.00,0.0007
2380.00,0.0007
2379.00,0.0007
2378.00,0.0007
2377.00,0.0007
2376.00,0.0007
2375.00,0.0007
2374.00,0.0007
2373.00,0.0007
2372.00,0.0007
2371.00,0.0007
2370.00,0.0007
2369.00,0.0007
2368.00,0.0007
2367.00,0.0007
2366.00,0.0007
2365.00,0.0007
2364.00,0.0007
2363.00,0.0008
2362.00,0.0008
2361.00,0.0008
2360.00,0.0008
2359.00,0.0008
2358.00,0.0008
2357.00,0.0007
2356.00,0.0007
2355.00,0.0007
2354.00,0.0007
2353.00,0.0007
2352.00,0.0008
2351.00,0.0008
2350.00,0.0009
2349.00,0.0010
2348.00,0.0011
2347.00,0.0012
2346.00,0.0012
2345.00,0.0012
2344.00,0.0011
2343.00,0.0011
2342.00,0.0010
2341.00,0.0010
2340.00,0.0010
2339.00,0.0009
2338.00,0.0009
2337.00,0.0009
2336.00,0.0009
2335.00,0.0009
2334.00,0.0009
2333.00,0.0009
2332.00,0.0009
2331.00,0.0009
2330.00,0.0009
2329.00,0.0011
2328.00,0.0014
2327.00,0.0018
2326.00,0.0021
2325.00,0.0021
2324.00,0.0020
2323.00,0.0018
2322.00,0.0016
2321.00,0.0015
2320.00,0.0014
2319.00,0.0013
2318.00,0.0012
2317.00,0.0012
2316.00,0.0012
2315.00,0.0011
2314.00,0.0011
2313.00,0.0011
2312.00,0.0011
2311.00,0.0011
2310.00,0.0011
2309.00,0.0011
2308.00,0.0011
2307.00,0.0011
2306.00,0.0012
2305.00,0.0012
2304.00,0.0012
2303.00,0.0013
2302.00,0.0013
2301.00,0.0013
2300.00,0.0013
2299.00,0.0014
2298.00,0.0014
2297.00,0.0014
2296.00,0.0014
2295.00,0.0015
2294.00,0.0015
2293.00,0.0016
2292.00,0.0016
2291.00,0.0017
2290.00,0.0017
2289.00,0.0017
2288.00,0.0017
2287.00,0.0017
2286.00,0.0017
2285.00,0.0016
2284.00,0.0016
2283.00,0.0015
2282.00,0.0014
2281.00,0.0014
2280.00,0.0013
2279.00,0.0013
2278.00,0.0013
2277.00,0.0012
2276.00,0.0012
2275.00,0.0012
2274.00,0.0012
2273.00,0.0011
2272.00,0.0011
2271.00,0.0011
2270.00,0.0011
2269.00,0.0011
2268.00,0.0011
2267.00,0.0010
2266.00,0.0010
2265.00,0.0010
2264.00,0.0010
2263.00,0.0010
2262.00,0.0010
2261.00,0.0010
2260.00,0.0010
2259.00,0.0010
2258.00,0.0009
2257.00,0.0008
2256.00,0.0007
2255.00,0.0006
2254.00,0.0006
2253.00,0.0006
2252.00,0.0006
2251.00,0.0006
2250.00,0.0006
2249.00,0.0006
2248.00,0.0006
2247.00,0.0007
2246.00,0.0007
2245.00,0.0007
2244.00,0.0007
2243.00,0.0007
2242.00,0.0007
2241.00,0.0008
2240.00,0.0008
2239.00,0.0008
2238.00,0.0008
2237.00,0.0008
2236.00,0.0007
2235.00,0.0007
2234.00,0.0007
2233.00,0.0007
2232.00,0.0006
2231.00,0.0006
2230.00,0.0006
2229.00,0.0006
2228.00,0.0007
2227.00,0.0007
2226.00,0.0007
2225.00,0.0007
2224.00,0.0007
2223.00,0.0007
2222.00,0.0006
2221.00,0.0006
2220.00,0.0006
2219.00,0.0005
2218.00,0.0005
2217.00,0.0005
2216.00,0.0005
2215.00,0.0006
2214.00,0.0006
2213.00,0.0006
2212.00,0.0005
2211.00,0.0005
2210.00,0.0005
2209.00,0.0005
2208.00,0.0006
2207.00,0.0006
2206.00,0.0006
2205.00,0.0006
2204.00,0.0006
2203.00,0.0005
2202.00,0.0004
2201.00,0.0004
2200.00,0.0004
2199.00,0.0004
2198.00,0.0005
2197.00,0.0005
2196.00,0.0006
2195.00,0.0007
2194.00,0.0007
2193.00,0.0008
2192.00,0.0008
2191.00,0.0008
2190.00,0.0008
2189.00,0.0007
2188.00,0.0005
2187.00,0.0004
2186.00,0.0003
2185.00,0.0003
2184.00,0.0003
2183.00,0.0002
2182.00,0.0001
2181.00,0.0001
2180.00,0.0002
2179.00,0.0003
2178.00,0.0003
2177.00,0.0001
2176.00,0.0000
2175.00,-0.0000
2174.00,0.0000
2173.00,0.0001
2172.00,0.0002
2171.00,0.0003
2170.00,0.0005
2169.00,0.0006
2168.00,0.0007
2167.00,0.0008
2166.00,0.0008
2165.00,0.0010
2164.00,0.0011
2163.00,0.0011
2162.00,0.0005
2161.00,-0.0005
2160.00,-0.0017
2159.00,-0.0027
2158.00,-0.0030
2157.00,-0.0029
2156.00,-0.0025
2155.00,-0.0022
2154.00,-0.0020
2153.00,-0.0019
2152.00,-0.0017
2151.00,-0.0015
2150.00,-0.0014
2149.00,-0.0013
2148.00,-0.0013
2147.00,-0.0014
2146.00,-0.0014
2145.00,-0.0014
2144.00,-0.0013
2143.00,-0.0012
2142.00,-0.0012
2141.00,-0.0011
2140.00,-0.0010
2139.00,-0.0010
2138.00,-0.0011
2137.00,-0.0013
2136.00,-0.0015
2135.00,-0.0016
2134.00,-0.0016
2133.00,-0.0014
2132.00,-0.0012
2131.00,-0.0010
2130.00,-0.0007
2129.00,-0.0005
2128.00,-0.0003
2127.00,-0.0002
2126.00,-0.0002
2125.00,-0.0001
2124.00,-0.0001
2123.00,-0.0000
2122.00,0.0000
2121.00,0.0001
2120.00,0.0002
2119.00,0.0002
2118.00,0.0003
2117.00,0.0004
2116.00,0.0005
2115.00,0.0007
2114.00,0.0007
2113.00,0.0007
2112.00,0.0007
2111.00,0.0006
2110.00,0.0006
2109.00,0.0006
2108.00,0.0007
2107.00,0.0006
2106.00,0.0006
2105.00,0.0006
2104.00,0.0006
2103.00,0.0006
2102.00,0.0006
2101.00,0.0006
2100.00,0.0006
2099.00,0.0005
2098.00,0.0004
2097.00,0.0002
2096.00,0.0001
2095.00,0.0000
2094.00,0.0000
2093.00,0.0001
2092.00,0.0002
2091.00,0.0003
2090.00,0.0004
2089.00,0.0005
2088.00,0.0006
2087.00,0.0006
2086.00,0.0006
2085.00,0.0006
2084.00,0.0007
2083.00,0.0007
2082.00,0.0007
2081.00,0.0007
2080.00,0.0007
2079.00,0.0007
2078.00,0.0006
2077.00,0.0007
2076.00,0.0007
2075.00,0.0007
2074.00,0.0007
2073.00,0.0007
2072.00,0.0007
2071.00,0.0007
2070.00,0.0005
2069.00,0.0004
2068.00,0.0003
2067.00,0.0003
2066.00,0.0003
2065.00,0.0003
2064.00,0.0003
2063.00,0.0002
2062.00,0.0002
2061.00,0.0002
2060.00,0.0002
2059.00,0.0001
2058.00,0.0001
2057.00,0.0002
2056.00,0.0003
2055.00,0.0004
2054.00,0.0006
2053.00,0.0009
2052.00,0.0012
2051.00,0.0012
2050.00,0.0009
2049.00,0.0005
2048.00,0.0002
2047.00,-0.0000
2046.00,-0.0001
2045.00,-0.0002
2044.00,-0.0002
2043.00,-0.0002
2042.00,-0.0002
2041.00,-0.0002
2040.00,-0.0002
2039.00,-0.0003
2038.00,-0.0003
2037.00,-0.0004
2036.00,-0.0006
2035.00,-0.0008
2034.00,-0.0010
2033.00,-0.0011
2032.00,-0.0011
2031.00,-0.0012
2030.00,-0.0012
2029.00,-0.0013
2028.00,-0.0013
2027.00,-0.0012
2026.00,-0.0012
2025.00,-0.0010
2024.00,-0.0010
2023.00,-0.0010
2022.00,-0.0012
2021.00,-0.0013
2020.00,-0.0013
2019.00,-0.0012
2018.00,-0.0012
2017.00,-0.0012
2016.00,-0.0011
2015.00,-0.0011
2014.00,-0.0010
2013.00,-0.0009
2012.00,-0.0008
2011.00,-0.0007
2010.00,-0.0008
2009.00,-0.0011
2008.00,-0.0014
2007.00,-0.0016
2006.00,-0.0017
2005.00,-0.0016
2004.00,-0.0014
2003.00,-0.0013
2002.00,-0.0012
2001.00,-0.0011
2000.00,-0.0010
1999.00,-0.0009
1998.00,-0.0008
1997.00,-0.0006
1996.00,-0.0005
1995.00,-0.0004
1994.00,-0.0004
1993.00,-0.0003
1992.00,-0.0003
1991.00,-0.0002
1990.00,-0.0001
1989.00,-0.0001
1988.00,-0.0000
1987.00,0.0000
1986.00,0.0001
1985.00,0.0004
1984.00,0.0007
1983.00,0.0010
1982.00,0.0012
1981.00,0.0011
1980.00,0.0007
1979.00,0.0001
1978.00,-0.0007
1977.00,-0.0011
1976.00,-0.0013
1975.00,-0.0013
1974.00,-0.0013
1973.00,-0.0013
1972.00,-0.0013
1971.00,-0.0013
1970.00,-0.0013
1969.00,-0.0013
1968.00,-0.0012
1967.00,-0.0011
1966.00,-0.0011
1965.00,-0.0010
1964.00,-0.0010
1963.00,-0.0010
1962.00,-0.0012
1961.00,-0.0013
1960.00,-0.0014
1959.00,-0.0013
1958.00,-0.0012
1957.00,-0.0009
1956.00,-0.0006
1955.00,-0.0004
1954.00,-0.0004
1953.00,-0.0004
1952.00,-0.0005
1951.00,-0.0006
1950.00,-0.0006
1949.00,-0.0007
1948.00,-0.0007
1947.00,-0.0008
1946.00,-0.0008
1945.00,-0.0008
1944.00,-0.0008
1943.00,-0.0008
1942.00,-0.0007
1941.00,-0.0006
1940.00,-0.0005
1939.00,-0.0004
1938.00,-0.0004
1937.00,-0.0004
1936.00,-0.0004
1935.00,-0.0005
1934.00,-0.0006
1933.00,-0.0006
1932.00,-0.0006
1931.00,-0.0006
1930.00,-0.0006
1929.00,-0.0005
1928.00,-0.0005
1927.00,-0.0005
1926.00,-0.0005
1925.00,-0.0005
1924.00,-0.0004
1923.00,-0.0003
1922.00,-0.0002
1921.00,-0.0002
1920.00,-0.0002
1919.00,-0.0003
1918.00,-0.0003
1917.00,-0.0004
1916.00,-0.0004
1915.00,-0.0003
1914.00,-0.0003
1913.00,-0.0003
1912.00,-0.0002
1911.00,-0.0002
1910.00,-0.0002
1909.00,-0.0002
1908.00,-0.0002
1907.00,-0.0002
1906.00,-0.0001
1905.00,-0.0001
1904.00,-0.0001
1903.00,-0.0000
1902.00,-0.0001
1901.00,-0.0001
1900.00,-0.0001
1899.00,-0.0001
1898.00,-0.0001
1897.00,-0.0002
1896.00,-0.0002
1895.00,-0.0002
1894.00,-0.0002
1893.00,-0.0002
1892.00,-0.0002
1891.00,-0.0002
1890.00,-0.0002
1889.00,-0.0002
1888.00,-0.0002
1887.00,-0.0001
1886.00,-0.0001
1885.00,-0.0001
1884.00,-0.0001
1883.00,-0.0001
1882.00,-0.0001
1881.00,-0.0001
1880.00,-0.0001
1879.00,-0.0001
1878.00,-0.0002
1877.00,-0.0002
1876.00,-0.0001
1875.00,-0.0001
1874.00,-0.0000
1873.00,0.0000
1872.00,0.0001
1871.00,0.0001
1870.00,0.0001
1869.00,0.0000
1868.00,-0.0000
1867.00,-0.0000
1866.00,0.0000
1865.00,0.0001
1864.00,0.0001
1863.00,0.0002
1862.00,0.0002
1861.00,0.0002
1860.00,0.0002
1859.00,0.0002
1858.00,0.0002
1857.00,0.0002
1856.00,0.0002
1855.00,0.0002
1854.00,0.0002
1853.00,0.0002
1852.00,0.0002
1851.00,0.0002
1850.00,0.0002
1849.00,0.0002
1848.00,0.0002
1847.00,0.0002
1846.00,0.0002
1845.00,0.0003
1844.00,0.0003
1843.00,0.0004
1842.00,0.0003
1841.00,0.0003
1840.00,0.0003
1839.00,0.0003
1838.00,0.0003
1837.00,0.0003
1836.00,0.0004
1835.00,0.0004
1834.00,0.0004
1833.00,0.0004
1832.00,0.0005
1831.00,0.0005
1830.00,0.0005
1829.00,0.0005
1828.00,0.0005
1827.00,0.0005
1826.00,0.0005
1825.00,0.0006
1824.00,0.0006
1823.00,0.0006
1822.00,0.0006
1821.00,0.0006
1820.00,0.0005
1819.00,0.0005
1818.00,0.0004
1817.00,0.0004
1816.00,0.0005
1815.00,0.0005
1814.00,0.0006
1813.00,0.0006
1812.00,0.0006
1811.00,0.0007
1810.00,0.0007
1809.00,0.0007
1808.00,0.0008
1807.00,0.0008
1806.00,0.0008
1805.00,0.0008
1804.00,0.0009
1803.00,0.0009
1802.00,0.0009
1801.00,0.0009
1800.00,0.0010
1799.00,0.0010
1798.00,0.0011
1797.00,0.0011
1796.00,0.0011
1795.00,0.0011
1794.00,0.0011
1793.00,0.0010
1792.00,0.0010
1791.00,0.0011
1790.00,0.0011
1789.00,0.0012
1788.00,0.0012
1787.00,0.0012
1786.00,0.0013
1785.00,0.0013
1784.00,0.0013
1783.00,0.0013
1782.00,0.0013
1781.00,0.0013
1780.00,0.0013
1779.00,0.0013
1778.00,0.0013
1777.00,0.0013
1776.00,0.0014
1775.00,0.0014
1774.00,0.0014
1773.00,0.0014
1772.00,0.0014
1771.00,0.0013
1770.00,0.0013
1769.00,0.0013
1768.00,0.0014
1767.00,0.0014
1766.00,0.0015
1765.00,0.0015
1764.00,0.0015
1763.00,0.0014
1762.00,0.0014
1761.00,0.0015
1760.00,0.0015
1759.00,0.0015
1758.00,0.0015
1757.00,0.0015
1756.00,0.0016
1755.00,0.0016
1754.00,0.0016
1753.00,0.0016
1752.00,0.0017
1751.00,0.0017
1750.00,0.0016
1749.00,0.0016
1748.00,0.0016
1747.00,0.0016
1746.00,0.0017
1745.00,0.0017
1744.00,0.0018
1743.00,0.0018
1742.00,0.0018
1741.00,0.0018
1740.00,0.0019
1739.00,0.0019
1738.00,0.0019
1737.00,0.0020
1736.00,0.0020
1735.00,0.0020
1734.00,0.0021
1733.00,0.0021
1732.00,0.0021
1731.00,0.0021
1730.00,0.0021
1729.00,0.0021
1728.00,0.0022
1727.00,0.0023
1726.00,0.0023
1725.00,0.0023
1724.00,0.0024
1723.00,0.0024
1722.00,0.0025
1721.00,0.0025
1720.00,0.0025
1719.00,0.0026
1718.00,0.0026
1717.00,0.0026
1716.00,0.0025
1715.00,0.0025
1714.00,0.0025
1713.00,0.0026
1712.00,0.0027
1711.00,0.0028
1710.00,0.0029
1709.00,0.0030
1708.00,0.0030
1707.00,0.0030
1706.00,0.0031
1705.00,0.0032
1704.00,0.0033
1703.00,0.0033
1702.00,0.0034
1701.00,0.0035
1700.00,0.0037
1699.00,0.0038
1698.00,0.0038
1697.00,0.0039
1696.00,0.0041
1695.00,0.0043
1694.00,0.0044
1693.00,0.0045
1692.00,0.0046
1691.00,0.0048
1690.00,0.0050
1689.00,0.0052
1688.00,0.0054
1687.00,0.0055
1686.00,0.0056
1685.00,0.0058
1684.00,0.0059
1683.00,0.0059
1682.00,0.0060
1681.00,0.0061
1680.00,0.0063
1679.00,0.0065
1678.00,0.0066
1677.00,0.0068
1676.00,0.0070
1675.00,0.0072
1674.00,0.0074
1673.00,0.0076
1672.00,0.0077
1671.00,0.0079
1670.00,0.0081
1669.00,0.0084
1668.00,0.0086
1667.00,0.0088
1666.00,0.0089
1665.00,0.0091
1664.00,0.0092
1663.00,0.0094
1662.00,0.0095
1661.00,0.0096
1660.00,0.0097
1659.00,0.0098
1658.00,0.0100
1657.00,0.0102
1656.00,0.0103
1655.00,0.0106
1654.00,0.0110
1653.00,0.0117
1652.00,0.0125
1651.00,0.0130
1650.00,0.0135
1649.00,0.0142
1648.00,0.0152
1647.00,0.0166
1646.00,0.0179
1645.00,0.0189
1644.00,0.0195
1643.00,0.0198
1642.00,0.0199
1641.00,0.0198
1640.00,0.0198
1639.00,0.0198
1638.00,0.0199
1637.00,0.0204
1636.00,0.0218
1635.00,0.0237
1634.00,0.0257
1633.00,0.0276
1632.00,0.0295
1631.00,0.0314
1630.00,0.0332
1629.00,0.0347
1628.00,0.0357
1627.00,0.0363
1626.00,0.0363
1625.00,0.0358
1624.00,0.0349
1623.00,0.0338
1622.00,0.0326
1621.00,0.0315
1620.00,0.0304
1619.00,0.0292
1618.00,0.0276
1617.00,0.0257
1616.00,0.0237
1615.00,0.0220
1614.00,0.0206
1613.00,0.0195
1612.00,0.0185
1611.00,0.0176
1610.00,0.0169
1609.00,0.0163
1608.00,0.0159
1607.00,0.0156
1606.00,0.0156
1605.00,0.0157
1604.00,0.0159
1603.00,0.0164
1602.00,0.0170
1601.00,0.0179
1600.00,0.0189
1599.00,0.0201
1598.00,0.0214
1597.00,0.0229
1596.00,0.0245
1595.00,0.0261
1594.00,0.0277
1593.00,0.0294
1592.00,0.0311
1591.00,0.0328
1590.00,0.0345
1589.00,0.0362
1588.00,0.0377
1587.00,0.0389
1586.00,0.0395
1585.00,0.0396
1584.00,0.0390
1583.00,0.0377
1582.00,0.0359
1581.00,0.0339
1580.00,0.0318
1579.00,0.0297
1578.00,0.0276
1577.00,0.0252
1576.00,0.0228
1575.00,0.0207
1574.00,0.0192
1573.00,0.0180
1572.00,0.0170
1571.00,0.0159
1570.00,0.0147
1569.00,0.0135
1568.00,0.0126
1567.00,0.0119
1566.00,0.0113
1565.00,0.0107
1564.00,0.0103
1563.00,0.0099
1562.00,0.0097
1561.00,0.0094
1560.00,0.0091
1559.00,0.0086
1558.00,0.0081
1557.00,0.0078
1556.00,0.0077
1555.00,0.0076
1554.00,0.0075
1553.00,0.0074
1552.00,0.0073
1551.00,0.0072
1550.00,0.0071
1549.00,0.0071
1548.00,0.0072
1547.00,0.0071
1546.00,0.0071
1545.00,0.0071
1544.00,0.0072
1543.00,0.0072
1542.00,0.0073
1541.00,0.0073
1540.00,0.0074
1539.00,0.0074
1538.00,0.0074
1537.00,0.0075
1536.00,0.0076
1535.00,0.0076
1534.00,0.0078
1533.00,0.0079
1532.00,0.0081
1531.00,0.0082
1530.00,0.0084
1529.00,0.0085
1528.00,0.0088
1527.00,0.0091
1526.00,0.0094
1525.00,0.0098
1524.00,0.0101
1523.00,0.0105
1522.00,0.0108
1521.00,0.0113
1520.00,0.0116
1519.00,0.0118
1518.00,0.0119
1517.00,0.0120
1516.00,0.0120
1515.00,0.0119
1514.00,0.0117
1513.00,0.0115
1512.00,0.0113
1511.00,0.0110
1510.00,0.0107
1509.00,0.0104
1508.00,0.0101
1507.00,0.0096
1506.00,0.0092
1505.00,0.0090
1504.00,0.0088
1503.00,0.0087
1502.00,0.0087
1501.00,0.0086
1500.00,0.0086
1499.00,0.0086
1498.00,0.0085
1497.00,0.0086
1496.00,0.0086
1495.00,0.0086
1494.00,0.0087
1493.00,0.0087
1492.00,0.0089
1491.00,0.0090
1490.00,0.0091
1489.00,0.0094
1488.00,0.0097
1487.00,0.0101
1486.00,0.0106
1485.00,0.0111
1484.00,0.0116
1483.00,0.0123
1482.00,0.0130
1481.00,0.0139
1480.00,0.0148
1479.00,0.0157
1478.00,0.0167
1477.00,0.0178
1476.00,0.0189
1475.00,0.0201
1474.00,0.0214
1473.00,0.0231
1472.00,0.0251
1471.00,0.0271
1470.00,0.0287
1469.00,0.0302
1468.00,0.0315
1467.00,0.0327
1466.00,0.0338
1465.00,0.0350
1464.00,0.0363
1463.00,0.0375
1462.00,0.0388
1461.00,0.0400
1460.00,0.0413
1459.00,0.0428
1458.00,0.0447
1457.00,0.0471
1456.00,0.0496
1455.00,0.0515
1454.00,0.0533
1453.00,0.0553
1452.00,0.0574
1451.00,0.0596
1450.00,0.0617
1449.00,0.0637
1448.00,0.0656
1447.00,0.0670
1446.00,0.0679
1445.00,0.0684
1444.00,0.0685
1443.00,0.0682
1442.00,0.0676
1441.00,0.0670
1440.00,0.0661
1439.00,0.0651
1438.00,0.0640
1437.00,0.0629
1436.00,0.0618
1435.00,0.0611
1434.00,0.0607
1433.00,0.0607
1432.00,0.0606
1431.00,0.0604
1430.00,0.0598
1429.00,0.0586
1428.00,0.0568
1427.00,0.0543
1426.00,0.0515
1425.00,0.0483
1424.00,0.0450
1423.00,0.0420
1422.00,0.0396
1421.00,0.0375
1420.00,0.0356
1419.00,0.0338
1418.00,0.0324
1417.00,0.0314
1416.00,0.0307
1415.00,0.0302
1414.00,0.0297
1413.00,0.0293
1412.00,0.0289
1411.00,0.0286
1410.00,0.0283
1409.00,0.0281
1408.00,0.0278
1407.00,0.0276
1406.00,0.0274
1405.00,0.0272
1404.00,0.0270
1403.00,0.0268
1402.00,0.0268
1401.00,0.0267
1400.00,0.0267
1399.00,0.0267
1398.00,0.0269
1397.00,0.0271
1396.00,0.0273
1395.00,0.0277
1394.00,0.0282
1393.00,0.0287
1392.00,0.0293
1391.00,0.0299
1390.00,0.0307
1389.00,0.0316
1388.00,0.0328
1387.00,0.0343
1386.00,0.0360
1385.00,0.0378
1384.00,0.0397
1383.00,0.0419
1382.00,0.0444
1381.00,0.0471
1380.00,0.0499
1379.00,0.0525
1378.00,0.0548
1377.00,0.0564
1376.00,0.0574
1375.00,0.0576
1374.00,0.0571
1373.00,0.0562
1372.00,0.0550
1371.00,0.0538
1370.00,0.0525
1369.00,0.0513
1368.00,0.0501
1367.00,0.0490
1366.00,0.0478
1365.00,0.0467
1364.00,0.0456
1363.00,0.0446
1362.00,0.0436
1361.00,0.0429
1360.00,0.0423
1359.00,0.0418
1358.00,0.0415
1357.00,0.0413
1356.00,0.0413
1355.00,0.0413
1354.00,0.0414
1353.00,0.0416
1352.00,0.0418
1351.00,0.0420
1350.00,0.0422
1349.00,0.0424
1348.00,0.0426
1347.00,0.0428
1346.00,0.0431
1345.00,0.0433
1344.00,0.0436
1343.00,0.0439
1342.00,0.0441
1341.00,0.0444
1340.00,0.0447
1339.00,0.0450
1338.00,0.0453
1337.00,0.0456
1336.00,0.0458
1335.00,0.0459
1334.00,0.0459
1333.00,0.0457
1332.00,0.0455
1331.00,0.0451
1330.00,0.0446
1329.00,0.0441
1328.00,0.0436
1327.00,0.0433
1326.00,0.0431
1325.00,0.0431
1324.00,0.0432
1323.00,0.0436
1322.00,0.0440
1321.00,0.0446
1320.00,0.0453
1319.00,0.0461
1318.00,0.0468
1317.00,0.0475
1316.00,0.0481
1315.00,0.0485
1314.00,0.0487
1313.00,0.0488
1312.00,0.0487
1311.00,0.0485
1310.00,0.0481
1309.00,0.0476
1308.00,0.0471
1307.00,0.0465
1306.00,0.0458
1305.00,0.0450
1304.00,0.0441
1303.00,0.0433
1302.00,0.0424
1301.00,0.0415
1300.00,0.0407
1299.00,0.0400
1298.00,0.0394
1297.00,0.0389
1296.00,0.0385
1295.00,0.0382
1294.00,0.0380
1293.00,0.0379
1292.00,0.0378
1291.00,0.0378
1290.00,0.0378
1289.00,0.0378
1288.00,0.0378
1287.00,0.0377
1286.00,0.0377
1285.00,0.0376
1284.00,0.0375
1283.00,0.0373
1282.00,0.0371
1281.00,0.0369
1280.00,0.0366
1279.00,0.0363
1278.00,0.0360
1277.00,0.0357
1276.00,0.0354
1275.00,0.0351
1274.00,0.0348
1273.00,0.0346
1272.00,0.0344
1271.00,0.0342
1270.00,0.0340
1269.00,0.0338
1268.00,0.0335
1267.00,0.0333
1266.00,0.0330
1265.00,0.0327
1264.00,0.0325
1263.00,0.0323
1262.00,0.0323
1261.00,0.0324
1260.00,0.0326
1259.00,0.0330
1258.00,0.0336
1257.00,0.0343
1256.00,0.0352
1255.00,0.0363
1254.00,0.0373
1253.00,0.0384
1252.00,0.0395
1251.00,0.0405
1250.00,0.0414
1249.00,0.0423
1248.00,0.0430
1247.00,0.0438
1246.00,0.0446
1245.00,0.0453
1244.00,0.0460
1243.00,0.0466
1242.00,0.0470
1241.00,0.0472
1240.00,0.0470
1239.00,0.0466
1238.00,0.0460
1237.00,0.0450
1236.00,0.0439
1235.00,0.0427
1234.00,0.0415
1233.00,0.0404
1232.00,0.0394
1231.00,0.0387
1230.00,0.0384
1229.00,0.0385
1228.00,0.0389
1227.00,0.0396
1226.00,0.0403
1225.00,0.0411
1224.00,0.0419
1223.00,0.0426
1222.00,0.0433
1221.00,0.0441
1220.00,0.0450
1219.00,0.0459
1218.00,0.0469
1217.00,0.0478
1216.00,0.0487
1215.00,0.0493
1214.00,0.0498
1213.00,0.0500
1212.00,0.0500
1211.00,0.0499
1210.00,0.0498
1209.00,0.0497
1208.00,0.0498
1207.00,0.0500
1206.00,0.0504
1205.00,0.0510
1204.00,0.0516
1203.00,0.0521
1202.00,0.0525
1201.00,0.0527
1200.00,0.0526
1199.00,0.0523
1198.00,0.0518
1197.00,0.0512
1196.00,0.0506
1195.00,0.0500
1194.00,0.0495
1193.00,0.0490
1192.00,0.0487
1191.00,0.0483
1190.00,0.0478
1189.00,0.0474
1188.00,0.0469
1187.00,0.0464
1186.00,0.0460
1185.00,0.0457
1184.00,0.0456
1183.00,0.0457
1182.00,0.0460
1181.00,0.0466
1180.00,0.0475
1179.00,0.0485
1178.00,0.0498
1177.00,0.0513
1176.00,0.0528
1175.00,0.0541
1174.00,0.0554
1173.00,0.0564
1172.00,0.0573
1171.00,0.0580
1170.00,0.0587
1169.00,0.0595
1168.00,0.0605
1167.00,0.0616
1166.00,0.0630
1165.00,0.0645
1164.00,0.0663
1163.00,0.0683
1162.00,0.0705
1161.00,0.0730
1160.00,0.0757
1159.00,0.0788
1158.00,0.0821
1157.00,0.0856
1156.00,0.0892
1155.00,0.0928
1154.00,0.0961
1153.00,0.0992
1152.00,0.1018
1151.00,0.1037
1150.00,0.1050
1149.00,0.1055
1148.00,0.1053
1147.00,0.1047
1146.00,0.1038
1145.00,0.1030
1144.00,0.1024
1143.00,0.1021
1142.00,0.1023
1141.00,0.1028
1140.00,0.1038
1139.00,0.1052
1138.00,0.1069
1137.00,0.1091
1136.00,0.1116
1135.00,0.1144
1134.00,0.1174
1133.00,0.1206
1132.00,0.1240
1131.00,0.1275
1130.00,0.1310
1129.00,0.1345
1128.00,0.1379
1127.00,0.1413
1126.00,0.1445
1125.00,0.1475
1124.00,0.1503
1123.00,0.1529
1122.00,0.1553
1121.00,0.1574
1120.00,0.1594
1119.00,0.1610
1118.00,0.1624
1117.00,0.1635
1116.00,0.1645
1115.00,0.1654
1114.00,0.1660
1113.00,0.1664
1112.00,0.1668
1111.00,0.1670
1110.00,0.1669
1109.00,0.1669
1108.00,0.1668
1107.00,0.1667
1106.00,0.1666
1105.00,0.1665
1104.00,0.1666
1103.00,0.1668
1102.00,0.1670
1101.00,0.1674
1100.00,0.1680
1099.00,0.1686
1098.00,0.1692
1097.00,0.1699
1096.00,0.1707
1095.00,0.1715
1094.00,0.1724
1093.00,0.1734
1092.00,0.1746
1091.00,0.1761
1090.00,0.1777
1089.00,0.1797
1088.00,0.1821
1087.00,0.1847
1086.00,0.1876
1085.00,0.1908
1084.00,0.1941
1083.00,0.1975
1082.00,0.2009
1081.00,0.2043
1080.00,0.2077
1079.00,0.2110
1078.00,0.2141
1077.00,0.2169
1076.00,0.2196
1075.00,0.2220
1074.00,0.2241
1073.00,0.2260
1072.00,0.2278
1071.00,0.2294
1070.00,0.2309
1069.00,0.2324
1068.00,0.2338
1067.00,0.2352
1066.00,0.2365
1065.00,0.2378
1064.00,0.2391
1063.00,0.2405
1062.00,0.2419
1061.00,0.2435
1060.00,0.2453
1059.00,0.2472
1058.00,0.2495
1057.00,0.2522
1056.00,0.2552
1055.00,0.2581
1054.00,0.2606
1053.00,0.2623
1052.00,0.2627
1051.00,0.2617
1050.00,0.2593
1049.00,0.2561
1048.00,0.2523
1047.00,0.2481
1046.00,0.2438
1045.00,0.2397
1044.00,0.2358
1043.00,0.2320
1042.00,0.2283
1041.00,0.2250
1040.00,0.2220
1039.00,0.2196
1038.00,0.2178
1037.00,0.2169
1036.00,0.2170
1035.00,0.2182
1034.00,0.2203
1033.00,0.2233
1032.00,0.2268
1031.00,0.2304
1030.00,0.2337
1029.00,0.2363
1028.00,0.2380
1027.00,0.2383
1026.00,0.2371
1025.00,0.2346
1024.00,0.2310
1023.00,0.2267
1022.00,0.2221
1021.00,0.2178
1020.00,0.2137
1019.00,0.2098
1018.00,0.2059
1017.00,0.2018
1016.00,0.1975
1015.00,0.1929
1014.00,0.1882
1013.00,0.1836
1012.00,0.1792
1011.00,0.1749
1010.00,0.1708
1009.00,0.1667
1008.00,0.1627
1007.00,0.1585
1006.00,0.1542
1005.00,0.1497
1004.00,0.1452
1003.00,0.1406
1002.00,0.1362
1001.00,0.1320
1000.00,0.1280
999.00,0.1242
998.00,0.1204
997.00,0.1167
996.00,0.1129
995.00,0.1092
994.00,0.1057
993.00,0.1023
992.00,0.0993
991.00,0.0964
990.00,0.0939
989.00,0.0916
988.00,0.0894
987.00,0.0872
986.00,0.0849
985.00,0.0824
984.00,0.0799
983.00,0.0774
982.00,0.0749
981.00,0.0726
980.00,0.0706
979.00,0.0687
978.00,0.0672
977.00,0.0658
976.00,0.0647
975.00,0.0638
974.00,0.0630
973.00,0.0624
972.00,0.0620
971.00,0.0618
970.00,0.0620
969.00,0.0624
968.00,0.0633
967.00,0.0644
966.00,0.0659
965.00,0.0677
964.00,0.0698
963.00,0.0720
962.00,0.0743
961.00,0.0765
960.00,0.0787
959.00,0.0807
958.00,0.0824
957.00,0.0840
956.00,0.0853
955.00,0.0864
954.00,0.0874
953.00,0.0884
952.00,0.0892
951.00,0.0900
950.00,0.0906
949.00,0.0910
948.00,0.0913
947.00,0.0913
946.00,0.0909
945.00,0.0901
944.00,0.0889
943.00,0.0872
942.00,0.0850
941.00,0.0825
940.00,0.0799
939.00,0.0774
938.00,0.0749
937.00,0.0728
936.00,0.0710
935.00,0.0695
934.00,0.0684
933.00,0.0674
932.00,0.0666
931.00,0.0658
930.00,0.0650
929.00,0.0639
928.00,0.0627
927.00,0.0613
926.00,0.0597
925.00,0.0580
924.00,0.0562
923.00,0.0545
922.00,0.0528
921.00,0.0513
920.00,0.0500
919.00,0.0489
918.00,0.0480
917.00,0.0474
916.00,0.0469
915.00,0.0466
914.00,0.0464
913.00,0.0463
912.00,0.0463
911.00,0.0465
910.00,0.0468
909.00,0.0474
908.00,0.0482
907.00,0.0492
906.00,0.0504
905.00,0.0518
904.00,0.0532
903.00,0.0546
902.00,0.0558
901.00,0.0568
900.00,0.0577
899.00,0.0585
898.00,0.0593
897.00,0.0603
896.00,0.0615
895.00,0.0629
894.00,0.0645
893.00,0.0661
892.00,0.0677
891.00,0.0693
890.00,0.0707
889.00,0.0719
888.00,0.0728
887.00,0.0732
886.00,0.0731
885.00,0.0722
884.00,0.0707
883.00,0.0685
882.00,0.0658
881.00,0.0626
880.00,0.0592
879.00,0.0557
878.00,0.0523
877.00,0.0490
876.00,0.0460
875.00,0.0434
874.00,0.0411
873.00,0.0394
872.00,0.0381
871.00,0.0373
870.00,0.0369
869.00,0.0370
868.00,0.0373
867.00,0.0380
866.00,0.0388
865.00,0.0395
864.00,0.0401
863.00,0.0404
862.00,0.0406
861.00,0.0407
860.00,0.0408
859.00,0.0411
858.00,0.0415
857.00,0.0421
856.00,0.0429
855.00,0.0437
854.00,0.0444
853.00,0.0449
852.00,0.0453
851.00,0.0455
850.00,0.0455
849.00,0.0453
848.00,0.0451
847.00,0.0448
846.00,0.0444
845.00,0.0441
844.00,0.0438
843.00,0.0436
842.00,0.0435
841.00,0.0435
840.00,0.0436
839.00,0.0438
838.00,0.0441
837.00,0.0445
836.00,0.0449
835.00,0.0453
834.00,0.0458
833.00,0.0463
832.00,0.0468
831.00,0.0472
830.00,0.0475
829.00,0.0475
828.00,0.0474
827.00,0.0471
826.00,0.0466
825.00,0.0458
824.00,0.0450
823.00,0.0440
822.00,0.0428
821.00,0.0416
820.00,0.0404
819.00,0.0391
818.00,0.0379
817.00,0.0367
816.00,0.0357
815.00,0.0348
814.00,0.0341
813.00,0.0334
812.00,0.0329
811.00,0.0325
810.00,0.0323
809.00,0.0324
808.00,0.0328
807.00,0.0335
806.00,0.0344
805.00,0.0352
804.00,0.0356
803.00,0.0352
802.00,0.0341
801.00,0.0327
800.00,0.0313
799.00,0.0303
798.00,0.0297
797.00,0.0296
796.00,0.0296
795.00,0.0297
794.00,0.0296
793.00,0.0293
792.00,0.0288
791.00,0.0282
790.00,0.0275
789.00,0.0268
788.00,0.0262
787.00,0.0256
786.00,0.0252
785.00,0.0248
784.00,0.0246
783.00,0.0244
782.00,0.0242
781.00,0.0243
780.00,0.0244
779.00,0.0247
778.00,0.0251
777.00,0.0255
776.00,0.0259
775.00,0.0263
774.00,0.0266
773.00,0.0269
772.00,0.0270
771.00,0.0269
770.00,0.0268
769.00,0.0266
768.00,0.0264
767.00,0.0261
766.00,0.0259
765.00,0.0257
764.00,0.0256
763.00,0.0256
762.00,0.0257
761.00,0.0260
760.00,0.0264
759.00,0.0269
758.00,0.0275
757.00,0.0282
756.00,0.0289
755.00,0.0297
754.00,0.0304
753.00,0.0310
752.00,0.0314
751.00,0.0314
750.00,0.0312
749.00,0.0306
748.00,0.0299
747.00,0.0290
746.00,0.0281
745.00,0.0274
744.00,0.0269
743.00,0.0265
742.00,0.0264
741.00,0.0264
740.00,0.0266
739.00,0.0270
738.00,0.0274
737.00,0.0280
736.00,0.0286
735.00,0.0293
734.00,0.0299
733.00,0.0305
732.00,0.0310
731.00,0.0314
730.00,0.0316
729.00,0.0317
728.00,0.0317
727.00,0.0317
726.00,0.0316
725.00,0.0315
724.00,0.0314
723.00,0.0313
722.00,0.0312
721.00,0.0312
720.00,0.0312
719.00,0.0313
718.00,0.0315
717.00,0.0318
716.00,0.0321
715.00,0.0324
714.00,0.0328
713.00,0.0330
712.00,0.0333
711.00,0.0336
710.00,0.0339
709.00,0.0342
708.00,0.0344
707.00,0.0347
706.00,0.0348
705.00,0.0350
704.00,0.0351
703.00,0.0352
702.00,0.0353
701.00,0.0354
700.00,0.0355
699.00,0.0356
698.00,0.0358
697.00,0.0359
696.00,0.0361
695.00,0.0362
694.00,0.0364
693.00,0.0366
692.00,0.0368
691.00,0.0371
690.00,0.0375
689.00,0.0379
688.00,0.0385
687.00,0.0390
686.00,0.0396
685.00,0.0403
684.00,0.0411
683.00,0.0421
682.00,0.0432
681.00,0.0444
680.00,0.0458
679.00,0.0472
678.00,0.0485
677.00,0.0499
676.00,0.0512
675.00,0.0526
674.00,0.0538
673.00,0.0549
672.00,0.0558
671.00,0.0565
670.00,0.0571
669.00,0.0579
668.00,0.0590
667.00,0.0602
666.00,0.0611
665.00,0.0616
664.00,0.0621
663.00,0.0625
662.00,0.0628
661.00,0.0632
660.00,0.0635
659.00,0.0638
658.00,0.0641
657.00,0.0643
656.00,0.0645
655.00,0.0648
654.00,0.0649
653.00,0.0651
652.00,0.0652
651.00,0.0653
650.00,0.0653
649.00,0.0653
648.00,0.0653
647.00,0.0653
646.00,0.0652
645.00,0.0650
644.00,0.0647
643.00,0.0644
642.00,0.0641
641.00,0.0638
640.00,0.0636
639.00,0.0634
638.00,0.0633
637.00,0.0632
636.00,0.0632
635.00,0.0632
634.00,0.0632
633.00,0.0633
632.00,0.0635
631.00,0.0638
630.00,0.0640
629.00,0.0643
628.00,0.0647
627.00,0.0651
626.00,0.0656
625.00,0.0662
624.00,0.0668
623.00,0.0674
622.00,0.0679
621.00,0.0684
620.00,0.0691
619.00,0.0697
618.00,0.0704
617.00,0.0712
616.00,0.0719
615.00,0.0727
614.00,0.0735
613.00,0.0743
612.00,0.0750
611.00,0.0757
610.00,0.0763
609.00,0.0769
608.00,0.0775
607.00,0.0781
606.00,0.0788
605.00,0.0794
604.00,0.0800
603.00,0.0805
602.00,0.0810
601.00,0.0814
600.00,0.0819
599.00,0.0822
598.00,0.0826
597.00,0.0830
596.00,0.0833
595.00,0.0836
594.00,0.0838
593.00,0.0839
592.00,0.0840
591.00,0.0840
590.00,0.0840
589.00,0.0840
588.00,0.0842
587.00,0.0844
586.00,0.0849
585.00,0.0855
584.00,0.0862
583.00,0.0869
582.00,0.0876
581.00,0.0882
580.00,0.0889
579.00,0.0894
578.00,0.0898
577.00,0.0899
576.00,0.0900
575.00,0.0898
574.00,0.0897
573.00,0.0896
572.00,0.0896
571.00,0.0896
570.00,0.0895
569.00,0.0895
568.00,0.0895
567.00,0.0894
566.00,0.0893
565.00,0.0891
564.00,0.0890
563.00,0.0889
562.00,0.0889
561.00,0.0890
560.00,0.0895
559.00,0.0901
558.00,0.0910
557.00,0.0921
556.00,0.0935
555.00,0.0950
554.00,0.0964
553.00,0.0978
552.00,0.0988
551.00,0.0995
550.00,0.0998
549.00,0.0997
548.00,0.0994
547.00,0.0989
546.00,0.0983
545.00,0.0978
544.00,0.0974
543.00,0.0970
542.00,0.0966
541.00,0.0964
540.00,0.0965
539.00,0.0968
538.00,0.0971
537.00,0.0975
536.00,0.0981
535.00,0.0987
534.00,0.0992
533.00,0.0995
532.00,0.0998
531.00,0.1000
530.00,0.1002
529.00,0.1007
528.00,0.1016
527.00,0.1028
526.00,0.1039
525.00,0.1048
524.00,0.1053
523.00,0.1051
522.00,0.1042
521.00,0.1028
520.00,0.1012
519.00,0.0995
518.00,0.0978
517.00,0.0966
516.00,0.0958
515.00,0.0953
514.00,0.0948
513.00,0.0943
512.00,0.0939
511.00,0.0937
510.00,0.0936
509.00,0.0937
508.00,0.0939
507.00,0.0940
506.00,0.0940
505.00,0.0941
504.00,0.0943
503.00,0.0946
502.00,0.0948
501.00,0.0952
500.00,0.0955
499.00,0.0958
498.00,0.0959
497.00,0.0961
496.00,0.0966
495.00,0.0971
494.00,0.0975
493.00,0.0979
492.00,0.0984
491.00,0.0989
490.00,0.0993
489.00,0.0998
488.00,0.1003
487.00,0.1009
486.00,0.1015
485.00,0.1023
484.00,0.1031
483.00,0.1037
482.00,0.1042
481.00,0.1045
480.00,0.1047
479.00,0.1047
478.00,0.1046
477.00,0.1044
476.00,0.1044
475.00,0.1044
474.00,0.1044
473.00,0.1044
472.00,0.1048
471.00,0.1054
470.00,0.1061
469.00,0.1066
468.00,0.1069
467.00,0.1066
466.00,0.1060
465.00,0.1052
464.00,0.1044
463.00,0.1035
462.00,0.1025
461.00,0.1014
460.00,0.1005
459.00,0.0996
458.00,0.0988
457.00,0.0983
456.00,0.0978
455.00,0.0970
454.00,0.0959
453.00,0.0948
452.00,0.0940
451.00,0.0933
450.00,0.0927
449.00,0.0921
448.00,0.0917
447.00,0.0913
446.00,0.0910
445.00,0.0909
444.00,0.0906
443.00,0.0901
442.00,0.0895
441.00,0.0889
440.00,0.0886
439.00,0.0881
438.00,0.0876
437.00,0.0874
436.00,0.0876
435.00,0.0876
434.00,0.0871
433.00,0.0864
432.00,0.0860
431.00,0.0857
430.00,0.0856
429.00,0.0854
428.00,0.0854
427.00,0.0853
426.00,0.0852
425.00,0.0853
424.00,0.0855
423.00,0.0854
422.00,0.0850
421.00,0.0843
420.00,0.0835
419.00,0.0824
418.00,0.0811
417.00,0.0801
416.00,0.0797
415.00,0.0795
414.00,0.0793
413.00,0.0788
412.00,0.0779
411.00,0.0768
410.00,0.0759
409.00,0.0758
408.00,0.0763
407.00,0.0768
406.00,0.0765
405.00,0.0757
404.00,0.0749
403.00,0.0741
402.00,0.0734
401.00,0.0729
400.00,0.0728
