Created as New Dataset,Sample 301 By YargerLab Date Saturday, October 18 2025
cm-1,A
4000.00,0.0000
3999.00,0.0000
3998.00,0.0000
3997.00,0.0000
3996.00,0.0000
3995.00,-0.0000
3994.00,-0.0000
3993.00,-0.0000
3992.00,-0.0000
3991.00,-0.0000
3990.00,-0.0000
3989.00,0.0000
3988.00,0.0000
3987.00,0.0000
3986.00,0.0000
3985.00,0.0000
3984.00,0.0000
3983.00,0.0000
3982.00,0.0000
3981.00,0.0000
3980.00,0.0000
3979.00,0.0000
3978.00,0.0000
3977.00,0.0000
3976.00,-0.0000
3975.00,-0.0000
3974.00,-0.0001
3973.00,-0.0001
3972.00,-0.0001
3971.00,-0.0000
3970.00,-0.0000
3969.00,-0.0000
3968.00,0.0000
3967.00,0.0001
3966.00,0.0001
3965.00,0.0001
3964.00,0.0000
3963.00,0.0000
3962.00,-0.0000
3961.00,-0.0000
3960.00,-0.0000
3959.00,-0.0000
3958.00,-0.0000
3957.00,-0.0000
3956.00,-0.0000
3955.00,-0.0000
3954.00,-0.0000
3953.00,-0.0000
3952.00,-0.0000
3951.00,-0.0000
3950.00,-0.0000
3949.00,-0.0001
3948.00,-0.0001
3947.00,-0.0001
3946.00,-0.0001
3945.00,-0.0001
3944.00,-0.0001
3943.00,-0.0001
3942.00,-0.0001
3941.00,-0.0001
3940.00,-0.0001
3939.00,-0.0001
3938.00,-0.0001
3937.00,-0.0000
3936.00,-0.0000
3935.00,-0.0000
3934.00,-0.0000
3933.00,-0.0001
3932.00,-0.0001
3931.00,-0.0001
3930.00,-0.0001
3929.00,-0.0001
3928.00,-0.0001
3927.00,-0.0001
3926.00,-0.0001
3925.00,-0.0001
3924.00,-0.0001
3923.00,-0.0002
3922.00,-0.0002
3921.00,-0.0002
3920.00,-0.0002
3919.00,-0.0002
3918.00,-0.0002
3917.00,-0.0002
3916.00,-0.0002
3915.00,-0.0001
3914.00,-0.0001
3913.00,-0.0001
3912.00,-0.0001
3911.00,-0.0001
3910.00,-0.0001
3909.00,-0.0001
3908.00,-0.0001
3907.00,-0.0001
3906.00,-0.0001
3905.00,-0.0001
3904.00,-0.0001
3903.00,-0.0002
3902.00,-0.0003
3901.00,-0.0003
3900.00,-0.0004
3899.00,-0.0003
3898.00,-0.0003
3897.00,-0.0002
3896.00,-0.0002
3895.00,-0.0002
3894.00,-0.0002
3893.00,-0.0002
3892.00,-0.0002
3891.00,-0.0002
3890.00,-0.0002
3889.00,-0.0002
3888.00,-0.0002
3887.00,-0.0002
3886.00,-0.0002
3885.00,-0.0002
3884.00,-0.0001
3883.00,-0.0002
3882.00,-0.0003
3881.00,-0.0003
3880.00,-0.0003
3879.00,-0.0002
3878.00,-0.0002
3877.00,-0.0002
3876.00,-0.0002
3875.00,-0.0002
3874.00,-0.0002
3873.00,-0.0002
3872.00,-0.0002
3871.00,-0.0003
3870.00,-0.0003
3869.00,-0.0003
3868.00,-0.0003
3867.00,-0.0003
3866.00,-0.0004
3865.00,-0.0004
3864.00,-0.0004
3863.00,-0.0003
3862.00,-0.0003
3861.00,-0.0003
3860.00,-0.0003
3859.00,-0.0003
3858.00,-0.0003
3857.00,-0.0003
3856.00,-0.0003
3855.00,-0.0004
3854.00,-0.0003
3853.00,-0.0003
3852.00,-0.0003
3851.00,-0.0003
3850.00,-0.0004
3849.00,-0.0004
3848.00,-0.0003
3847.00,-0.0003
3846.00,-0.0002
3845.00,-0.0002
3844.00,-0.0002
3843.00,-0.0002
3842.00,-0.0002
3841.00,-0.0002
3840.00,-0.0002
3839.00,-0.0003
3838.00,-0.0003
3837.00,-0.0003
3836.00,-0.0003
3835.00,-0.0003
3834.00,-0.0003
3833.00,-0.0003
3832.00,-0.0003
3831.00,-0.0003
3830.00,-0.0002
3829.00,-0.0002
3828.00,-0.0002
3827.00,-0.0002
3826.00,-0.0002
3825.00,-0.0002
3824.00,-0.0002
3823.00,-0.0002
3822.00,-0.0003
3821.00,-0.0003
3820.00,-0.0003
3819.00,-0.0003
3818.00,-0.0003
3817.00,-0.0003
3816.00,-0.0003
3815.00,-0.0003
3814.00,-0.0002
3813.00,-0.0002
3812.00,-0.0003
3811.00,-0.0003
3810.00,-0.0002
3809.00,-0.0002
3808.00,-0.0002
3807.00,-0.0002
3806.00,-0.0001
3805.00,-0.0001
3804.00,-0.0002
3803.00,-0.0003
3802.00,-0.0003
3801.00,-0.0003
3800.00,-0.0002
3799.00,-0.0003
3798.00,-0.0003
3797.00,-0.0003
3796.00,-0.0003
3795.00,-0.0003
3794.00,-0.0003
3793.00,-0.0003
3792.00,-0.0003
3791.00,-0.0002
3790.00,-0.0002
3789.00,-0.0002
3788.00,-0.0002
3787.00,-0.0002
3786.00,-0.0002
3785.00,-0.0002
3784.00,-0.0002
3783.00,-0.0002
3782.00,-0.0002
3781.00,-0.0002
3780.00,-0.0003
3779.00,-0.0003
3778.00,-0.0002
3777.00,-0.0002
3776.00,-0.0002
3775.00,-0.0002
3774.00,-0.0002
3773.00,-0.0002
3772.00,-0.0002
3771.00,-0.0002
3770.00,-0.0002
3769.00,-0.0002
3768.00,-0.0002
3767.00,-0.0002
3766.00,-0.0003
3765.00,-0.0003
3764.00,-0.0003
3763.00,-0.0003
3762.00,-0.0003
3761.00,-0.0003
3760.00,-0.0002
3759.00,-0.0002
3758.00,-0.0002
3757.00,-0.0002
3756.00,-0.0002
3755.00,-0.0002
3754.00,-0.0003
3753.00,-0.0003
3752.00,-0.0003
3751.00,-0.0003
3750.00,-0.0003
3749.00,-0.0003
3748.00,-0.0004
3747.00,-0.0004
3746.00,-0.0005
3745.00,-0.0006
3744.00,-0.0005
3743.00,-0.0004
3742.00,-0.0004
3741.00,-0.0005
3740.00,-0.0005
3739.00,-0.0004
3738.00,-0.0004
3737.00,-0.0004
3736.00,-0.0004
3735.00,-0.0005
3734.00,-0.0005
3733.00,-0.0006
3732.00,-0.0006
3731.00,-0.0005
3730.00,-0.0004
3729.00,-0.0004
3728.00,-0.0003
3727.00,-0.0003
3726.00,-0.0003
3725.00,-0.0003
3724.00,-0.0003
3723.00,-0.0003
3722.00,-0.0004
3721.00,-0.0004
3720.00,-0.0004
3719.00,-0.0004
3718.00,-0.0003
3717.00,-0.0003
3716.00,-0.0003
3715.00,-0.0003
3714.00,-0.0003
3713.00,-0.0003
3712.00,-0.0003
3711.00,-0.0003
3710.00,-0.0004
3709.00,-0.0004
3708.00,-0.0004
3707.00,-0.0004
3706.00,-0.0003
3705.00,-0.0003
3704.00,-0.0003
3703.00,-0.0003
3702.00,-0.0003
3701.00,-0.0003
3700.00,-0.0003
3699.00,-0.0003
3698.00,-0.0003
3697.00,-0.0003
3696.00,-0.0002
3695.00,-0.0002
3694.00,-0.0002
3693.00,-0.0002
3692.00,-0.0002
3691.00,-0.0002
3690.00,-0.0002
3689.00,-0.0003
3688.00,-0.0003
3687.00,-0.0003
3686.00,-0.0002
3685.00,-0.0002
3684.00,-0.0002
3683.00,-0.0002
3682.00,-0.0002
3681.00,-0.0002
3680.00,-0.0002
3679.00,-0.0002
3678.00,-0.0002
3677.00,-0.0002
3676.00,-0.0003
3675.00,-0.0003
3674.00,-0.0003
3673.00,-0.0003
3672.00,-0.0004
3671.00,-0.0004
3670.00,-0.0003
3669.00,-0.0002
3668.00,-0.0002
3667.00,-0.0001
3666.00,-0.0001
3665.00,-0.0001
3664.00,-0.0000
3663.00,0.0000
3662.00,0.0000
3661.00,0.0001
3660.00,0.0001
3659.00,0.0001
3658.00,0.0001
3657.00,0.0001
3656.00,0.0001
3655.00,0.0001
3654.00,0.0001
3653.00,0.0001
3652.00,0.0001
3651.00,0.0001
3650.00,0.0001
3649.00,0.0001
3648.00,-0.0000
3647.00,-0.0001
3646.00,-0.0001
3645.00,-0.0000
3644.00,0.0001
3643.00,0.0002
3642.00,0.0002
3641.00,0.0003
3640.00,0.0003
3639.00,0.0003
3638.00,0.0003
3637.00,0.0004
3636.00,0.0004
3635.00,0.0004
3634.00,0.0004
3633.00,0.0004
3632.00,0.0004
3631.00,0.0004
3630.00,0.0003
3629.00,0.0003
3628.00,0.0004
3627.00,0.0004
3626.00,0.0005
3625.00,0.0006
3624.00,0.0006
3623.00,0.0007
3622.00,0.0007
3621.00,0.0007
3620.00,0.0007
3619.00,0.0007
3618.00,0.0008
3617.00,0.0008
3616.00,0.0008
3615.00,0.0008
3614.00,0.0009
3613.00,0.0009
3612.00,0.0010
3611.00,0.0010
3610.00,0.0010
3609.00,0.0011
3608.00,0.0011
3607.00,0.0011
3606.00,0.0012
3605.00,0.0012
3604.00,0.0013
3603.00,0.0014
3602.00,0.0015
3601.00,0.0015
3600.00,0.0016
3599.00,0.0016
3598.00,0.0017
3597.00,0.0017
3596.00,0.0017
3595.00,0.0017
3594.00,0.0017
3593.00,0.0017
3592.00,0.0018
3591.00,0.0018
3590.00,0.0019
3589.00,0.0019
3588.00,0.0019
3587.00,0.0019
3586.00,0.0020
3585.00,0.0020
3584.00,0.0021
3583.00,0.0022
3582.00,0.0022
3581.00,0.0023
3580.00,0.0023
3579.00,0.0024
3578.00,0.0025
3577.00,0.0026
3576.00,0.0026
3575.00,0.0027
3574.00,0.0027
3573.00,0.0028
3572.00,0.0028
3571.00,0.0029
3570.00,0.0029
3569.00,0.0030
3568.00,0.0030
3567.00,0.0030
3566.00,0.0030
3565.00,0.0031
3564.00,0.0032
3563.00,0.0033
3562.00,0.0034
3561.00,0.0035
3560.00,0.0036
3559.00,0.0037
3558.00,0.0038
3557.00,0.0039
3556.00,0.0039
3555.00,0.0040
3554.00,0.0040
3553.00,0.0041
3552.00,0.0042
3551.00,0.0043
3550.00,0.0044
3549.00,0.0045
3548.00,0.0045
3547.00,0.0046
3546.00,0.0046
3545.00,0.0047
3544.00,0.0048
3543.00,0.0049
3542.00,0.0050
3541.00,0.0051
3540.00,0.0052
3539.00,0.0053
3538.00,0.0054
3537.00,0.0054
3536.00,0.0055
3535.00,0.0056
3534.00,0.0057
3533.00,0.0058
3532.00,0.0059
3531.00,0.0060
3530.00,0.0061
3529.00,0.0062
3528.00,0.0063
3527.00,0.0064
3526.00,0.0065
3525.00,0.0066
3524.00,0.0067
3523.00,0.0068
3522.00,0.0069
3521.00,0.0070
3520.00,0.0071
3519.00,0.0073
3518.00,0.0074
3517.00,0.0075
3516.00,0.0077
3515.00,0.0078
3514.00,0.0079
3513.00,0.0081
3512.00,0.0082
3511.00,0.0083
3510.00,0.0083
3509.00,0.0084
3508.00,0.0086
3507.00,0.0087
3506.00,0.0088
3505.00,0.0090
3504.00,0.0091
3503.00,0.0092
3502.00,0.0093
3501.00,0.0095
3500.00,0.0096
3499.00,0.0098
3498.00,0.0099
3497.00,0.0100
3496.00,0.0101
3495.00,0.0103
3494.00,0.0104
3493.00,0.0105
3492.00,0.0107
3491.00,0.0108
3490.00,0.0109
3489.00,0.0111
3488.00,0.0112
3487.00,0.0113
3486.00,0.0115
3485.00,0.0116
3484.00,0.0117
3483.00,0.0118
3482.00,0.0120
3481.00,0.0121
3480.00,0.0122
3479.00,0.0124
3478.00,0.0126
3477.00,0.0127
3476.00,0.0128
3475.00,0.0129
3474.00,0.0130
3473.00,0.0131
3472.00,0.0133
3471.00,0.0134
3470.00,0.0135
3469.00,0.0137
3468.00,0.0138
3467.00,0.0139
3466.00,0.0140
3465.00,0.0141
3464.00,0.0142
3463.00,0.0143
3462.00,0.0144
3461.00,0.0145
3460.00,0.0146
3459.00,0.0146
3458.00,0.0147
3457.00,0.0148
3456.00,0.0149
3455.00,0.0149
3454.00,0.0150
3453.00,0.0151
3452.00,0.0152
3451.00,0.0153
3450.00,0.0154
3449.00,0.0154
3448.00,0.0154
3447.00,0.0155
3446.00,0.0155
3445.00,0.0155
3444.00,0.0156
3443.00,0.0156
3442.00,0.0157
3441.00,0.0157
3440.00,0.0158
3439.00,0.0159
3438.00,0.0159
3437.00,0.0159
3436.00,0.0159
3435.00,0.0160
3434.00,0.0160
3433.00,0.0160
3432.00,0.0159
3431.00,0.0159
3430.00,0.0159
3429.00,0.0159
3428.00,0.0159
3427.00,0.0159
3426.00,0.0159
3425.00,0.0159
3424.00,0.0159
3423.00,0.0159
3422.00,0.0159
3421.00,0.0159
3420.00,0.0158
3419.00,0.0158
3418.00,0.0159
3417.00,0.0159
3416.00,0.0159
3415.00,0.0159
3414.00,0.0159
3413.00,0.0159
3412.00,0.0159
3411.00,0.0158
3410.00,0.0158
3409.00,0.0158
3408.00,0.0158
3407.00,0.0158
3406.00,0.0157
3405.00,0.0157
3404.00,0.0157
3403.00,0.0157
3402.00,0.0157
3401.00,0.0157
3400.00,0.0157
3399.00,0.0156
3398.00,0.0156
3397.00,0.0155
3396.00,0.0155
3395.00,0.0154
3394.00,0.0154
3393.00,0.0154
3392.00,0.0153
3391.00,0.0153
3390.00,0.0153
3389.00,0.0152
3388.00,0.0152
3387.00,0.0152
3386.00,0.0151
3385.00,0.0150
3384.00,0.0150
3383.00,0.0150
3382.00,0.0150
3381.00,0.0149
3380.00,0.0149
3379.00,0.0149
3378.00,0.0149
3377.00,0.0148
3376.00,0.0148
3375.00,0.0147
3374.00,0.0147
3373.00,0.0147
3372.00,0.0147
3371.00,0.0147
3370.00,0.0146
3369.00,0.0146
3368.00,0.0145
3367.00,0.0145
3366.00,0.0144
3365.00,0.0143
3364.00,0.0143
3363.00,0.0142
3362.00,0.0141
3361.00,0.0141
3360.00,0.0140
3359.00,0.0140
3358.00,0.0140
3357.00,0.0140
3356.00,0.0139
3355.00,0.0139
3354.00,0.0139
3353.00,0.0138
3352.00,0.0138
3351.00,0.0137
3350.00,0.0137
3349.00,0.0136
3348.00,0.0136
3347.00,0.0135
3346.00,0.0135
3345.00,0.0134
3344.00,0.0134
3343.00,0.0134
3342.00,0.0133
3341.00,0.0133
3340.00,0.0132
3339.00,0.0132
3338.00,0.0131
3337.00,0.0130
3336.00,0.0130
3335.00,0.0129
3334.00,0.0128
3333.00,0.0128
3332.00,0.0128
3331.00,0.0127
3330.00,0.0127
3329.00,0.0127
3328.00,0.0127
3327.00,0.0126
3326.00,0.0126
3325.00,0.0125
3324.00,0.0124
3323.00,0.0123
3322.00,0.0123
3321.00,0.0122
3320.00,0.0122
3319.00,0.0121
3318.00,0.0121
3317.00,0.0120
3316.00,0.0120
3315.00,0.0119
3314.00,0.0118
3313.00,0.0118
3312.00,0.0117
3311.00,0.0117
3310.00,0.0116
3309.00,0.0116
3308.00,0.0116
3307.00,0.0115
3306.00,0.0114
3305.00,0.0114
3304.00,0.0113
3303.00,0.0113
3302.00,0.0112
3301.00,0.0111
3300.00,0.0111
3299.00,0.0110
3298.00,0.0110
3297.00,0.0109
3296.00,0.0109
3295.00,0.0108
3294.00,0.0108
3293.00,0.0107
3292.00,0.0106
3291.00,0.0106
3290.00,0.0105
3289.00,0.0105
3288.00,0.0104
3287.00,0.0104
3286.00,0.0103
3285.00,0.0102
3284.00,0.0102
3283.00,0.0101
3282.00,0.0101
3281.00,0.0101
3280.00,0.0100
3279.00,0.0099
3278.00,0.0098
3277.00,0.0098
3276.00,0.0098
3275.00,0.0097
3274.00,0.0097
3273.00,0.0097
3272.00,0.0096
3271.00,0.0095
3270.00,0.0095
3269.00,0.0094
3268.00,0.0093
3267.00,0.0092
3266.00,0.0092
3265.00,0.0092
3264.00,0.0091
3263.00,0.0091
3262.00,0.0090
3261.00,0.0090
3260.00,0.0089
3259.00,0.0088
3258.00,0.0088
3257.00,0.0087
3256.00,0.0087
3255.00,0.0086
3254.00,0.0086
3253.00,0.0085
3252.00,0.0085
3251.00,0.0084
3250.00,0.0084
3249.00,0.0083
3248.00,0.0083
3247.00,0.0082
3246.00,0.0081
3245.00,0.0081
3244.00,0.0080
3243.00,0.0079
3242.00,0.0079
3241.00,0.0078
3240.00,0.0078
3239.00,0.0077
3238.00,0.0076
3237.00,0.0076
3236.00,0.0076
3235.00,0.0076
3234.00,0.0075
3233.00,0.0075
3232.00,0.0074
3231.00,0.0073
3230.00,0.0073
3229.00,0.0072
3228.00,0.0072
3227.00,0.0072
3226.00,0.0071
3225.00,0.0071
3224.00,0.0071
3223.00,0.0070
3222.00,0.0070
3221.00,0.0069
3220.00,0.0068
3219.00,0.0068
3218.00,0.0068
3217.00,0.0067
3216.00,0.0067
3215.00,0.0067
3214.00,0.0066
3213.00,0.0066
3212.00,0.0065
3211.00,0.0065
3210.00,0.0064
3209.00,0.0064
3208.00,0.0063
3207.00,0.0063
3206.00,0.0063
3205.00,0.0063
3204.00,0.0062
3203.00,0.0061
3202.00,0.0061
3201.00,0.0060
3200.00,0.0060
3199.00,0.0059
3198.00,0.0059
3197.00,0.0058
3196.00,0.0058
3195.00,0.0057
3194.00,0.0057
3193.00,0.0057
3192.00,0.0056
3191.00,0.0056
3190.00,0.0055
3189.00,0.0055
3188.00,0.0054
3187.00,0.0054
3186.00,0.0053
3185.00,0.0053
3184.00,0.0052
3183.00,0.0052
3182.00,0.0052
3181.00,0.0052
3180.00,0.0052
3179.00,0.0051
3178.00,0.0050
3177.00,0.0050
3176.00,0.0049
3175.00,0.0049
3174.00,0.0049
3173.00,0.0048
3172.00,0.0048
3171.00,0.0047
3170.00,0.0047
3169.00,0.0046
3168.00,0.0046
3167.00,0.0046
3166.00,0.0045
3165.00,0.0045
3164.00,0.0045
3163.00,0.0044
3162.00,0.0044
3161.00,0.0043
3160.00,0.0043
3159.00,0.0043
3158.00,0.0042
3157.00,0.0042
3156.00,0.0042
3155.00,0.0041
3154.00,0.0041
3153.00,0.0041
3152.00,0.0041
3151.00,0.0040
3150.00,0.0040
3149.00,0.0039
3148.00,0.0039
3147.00,0.0039
3146.00,0.0038
3145.00,0.0038
3144.00,0.0038
3143.00,0.0037
3142.00,0.0037
3141.00,0.0037
3140.00,0.0036
3139.00,0.0036
3138.00,0.0036
3137.00,0.0036
3136.00,0.0036
3135.00,0.0035
3134.00,0.0035
3133.00,0.0035
3132.00,0.0035
3131.00,0.0034
3130.00,0.0034
3129.00,0.0034
3128.00,0.0034
3127.00,0.0034
3126.00,0.0033
3125.00,0.0033
3124.00,0.0033
3123.00,0.0032
3122.00,0.0032
3121.00,0.0032
3120.00,0.0032
3119.00,0.0032
3118.00,0.0032
3117.00,0.0032
3116.00,0.0031
3115.00,0.0031
3114.00,0.0031
3113.00,0.0030
3112.00,0.0030
3111.00,0.0030
3110.00,0.0030
3109.00,0.0029
3108.00,0.0029
3107.00,0.0029
3106.00,0.0029
3105.00,0.0029
3104.00,0.0029
3103.00,0.0029
3102.00,0.0029
3101.00,0.0029
3100.00,0.0029
3099.00,0.0029
3098.00,0.0028
3097.00,0.0028
3096.00,0.0028
3095.00,0.0028
3094.00,0.0028
3093.00,0.0028
3092.00,0.0028
3091.00,0.0029
3090.00,0.0029
3089.00,0.0029
3088.00,0.0029
3087.00,0.0030
3086.00,0.0030
3085.00,0.0030
3084.00,0.0030
3083.00,0.0031
3082.00,0.0031
3081.00,0.0032
3080.00,0.0032
3079.00,0.0032
3078.00,0.0033
3077.00,0.0033
3076.00,0.0033
3075.00,0.0033
3074.00,0.0033
3073.00,0.0033
3072.00,0.0033
3071.00,0.0033
3070.00,0.0033
3069.00,0.0033
3068.00,0.0032
3067.00,0.0032
3066.00,0.0031
3065.00,0.0030
3064.00,0.0029
3063.00,0.0028
3062.00,0.0028
3061.00,0.0027
3060.00,0.0027
3059.00,0.0027
3058.00,0.0026
3057.00,0.0026
3056.00,0.0026
3055.00,0.0026
3054.00,0.0025
3053.00,0.0025
3052.00,0.0025
3051.00,0.0025
3050.00,0.0025
3049.00,0.0025
3048.00,0.0025
3047.00,0.0026
3046.00,0.0026
3045.00,0.0026
3044.00,0.0026
3043.00,0.0026
3042.00,0.0027
3041.00,0.0027
3040.00,0.0027
3039.00,0.0027
3038.00,0.0027
3037.00,0.0027
3036.00,0.0027
3035.00,0.0027
3034.00,0.0027
3033.00,0.0027
3032.00,0.0027
3031.00,0.0027
3030.00,0.0027
3029.00,0.0027
3028.00,0.0027
3027.00,0.0027
3026.00,0.0028
3025.00,0.0028
3024.00,0.0028
3023.00,0.0028
3022.00,0.0028
3021.00,0.0029
3020.00,0.0029
3019.00,0.0029
3018.00,0.0029
3017.00,0.0030
3016.00,0.0030
3015.00,0.0031
3014.00,0.0031
3013.00,0.0032
3012.00,0.0033
3011.00,0.0034
3010.00,0.0035
3009.00,0.0036
3008.00,0.0037
3007.00,0.0038
3006.00,0.0039
3005.00,0.0041
3004.00,0.0042
3003.00,0.0044
3002.00,0.0045
3001.00,0.0047
3000.00,0.0049
2999.00,0.0051
2998.00,0.0053
2997.00,0.0054
2996.00,0.0057
2995.00,0.0059
2994.00,0.0061
2993.00,0.0063
2992.00,0.0065
2991.00,0.0068
2990.00,0.0070
2989.00,0.0072
2988.00,0.0075
2987.00,0.0077
2986.00,0.0079
2985.00,0.0081
2984.00,0.0083
2983.00,0.0086
2982.00,0.0088
2981.00,0.0090
2980.00,0.0092
2979.00,0.0094
2978.00,0.0097
2977.00,0.0099
2976.00,0.0102
2975.00,0.0104
2974.00,0.0107
2973.00,0.0109
2972.00,0.0112
2971.00,0.0115
2970.00,0.0119
2969.00,0.0122
2968.00,0.0126
2967.00,0.0129
2966.00,0.0132
2965.00,0.0135
2964.00,0.0138
2963.00,0.0141
2962.00,0.0144
2961.00,0.0146
2960.00,0.0148
2959.00,0.0150
2958.00,0.0152
2957.00,0.0153
2956.00,0.0154
2955.00,0.0155
2954.00,0.0155
2953.00,0.0156
2952.00,0.0156
2951.00,0.0157
2950.00,0.0158
2949.00,0.0159
2948.00,0.0161
2947.00,0.0163
2946.00,0.0166
2945.00,0.0170
2944.00,0.0175
2943.00,0.0180
2942.00,0.0185
2941.00,0.0191
2940.00,0.0198
2939.00,0.0205
2938.00,0.0211
2937.00,0.0218
2936.00,0.0225
2935.00,0.0231
2934.00,0.0237
2933.00,0.0242
2932.00,0.0247
2931.00,0.0251
2930.00,0.0255
2929.00,0.0257
2928.00,0.0259
2927.00,0.0260
2926.00,0.0261
2925.00,0.0261
2924.00,0.0260
2923.00,0.0259
2922.00,0.0257
2921.00,0.0255
2920.00,0.0253
2919.00,0.0251
2918.00,0.0248
2917.00,0.0246
2916.00,0.0243
2915.00,0.0241
2914.00,0.0238
2913.00,0.0235
2912.00,0.0233
2911.00,0.0230
2910.00,0.0228
2909.00,0.0226
2908.00,0.0224
2907.00,0.0221
2906.00,0.0219
2905.00,0.0217
2904.00,0.0215
2903.00,0.0213
2902.00,0.0211
2901.00,0.0209
2900.00,0.0207
2899.00,0.0205
2898.00,0.0203
2897.00,0.0201
2896.00,0.0199
2895.00,0.0197
2894.00,0.0195
2893.00,0.0193
2892.00,0.0191
2891.00,0.0189
2890.00,0.0188
2889.00,0.0186
2888.00,0.0185
2887.00,0.0184
2886.00,0.0182
2885.00,0.0181
2884.00,0.0180
2883.00,0.0180
2882.00,0.0179
2881.00,0.0179
2880.00,0.0178
2879.00,0.0178
2878.00,0.0179
2877.00,0.0179
2876.00,0.0180
2875.00,0.0180
2874.00,0.0181
2873.00,0.0180
2872.00,0.0180
2871.00,0.0179
2870.00,0.0177
2869.00,0.0175
2868.00,0.0173
2867.00,0.0171
2866.00,0.0170
2865.00,0.0170
2864.00,0.0170
2863.00,0.0171
2862.00,0.0172
2861.00,0.0174
2860.00,0.0175
2859.00,0.0176
2858.00,0.0176
2857.00,0.0176
2856.00,0.0175
2855.00,0.0173
2854.00,0.0169
2853.00,0.0166
2852.00,0.0161
2851.00,0.0157
2850.00,0.0152
2849.00,0.0148
2848.00,0.0144
2847.00,0.0140
2846.00,0.0137
2845.00,0.0134
2844.00,0.0131
2843.00,0.0129
2842.00,0.0128
2841.00,0.0127
2840.00,0.0126
2839.00,0.0126
2838.00,0.0126
2837.00,0.0126
2836.00,0.0126
2835.00,0.0126
2834.00,0.0125
2833.00,0.0124
2832.00,0.0122
2831.00,0.0119
2830.00,0.0116
2829.00,0.0113
2828.00,0.0109
2827.00,0.0106
2826.00,0.0102
2825.00,0.0098
2824.00,0.0094
2823.00,0.0091
2822.00,0.0088
2821.00,0.0085
2820.00,0.0083
2819.00,0.0080
2818.00,0.0078
2817.00,0.0076
2816.00,0.0074
2815.00,0.0072
2814.00,0.0070
2813.00,0.0067
2812.00,0.0065
2811.00,0.0063
2810.00,0.0061
2809.00,0.0059
2808.00,0.0057
2807.00,0.0054
2806.00,0.0051
2805.00,0.0049
2804.00,0.0047
2803.00,0.0045
2802.00,0.0043
2801.00,0.0041
2800.00,0.0040
2799.00,0.0039
2798.00,0.0037
2797.00,0.0036
2796.00,0.0035
2795.00,0.0034
2794.00,0.0033
2793.00,0.0032
2792.00,0.0032
2791.00,0.0031
2790.00,0.0031
2789.00,0.0030
2788.00,0.0030
2787.00,0.0029
2786.00,0.0028
2785.00,0.0028
2784.00,0.0027
2783.00,0.0027
2782.00,0.0027
2781.00,0.0026
2780.00,0.0026
2779.00,0.0026
2778.00,0.0025
2777.00,0.0025
2776.00,0.0025
2775.00,0.0025
2774.00,0.0024
2773.00,0.0024
2772.00,0.0024
2771.00,0.0023
2770.00,0.0023
2769.00,0.0023
2768.00,0.0023
2767.00,0.0023
2766.00,0.0023
2765.00,0.0023
2764.00,0.0022
2763.00,0.0022
2762.00,0.0022
2761.00,0.0022
2760.00,0.0022
2759.00,0.0022
2758.00,0.0022
2757.00,0.0022
2756.00,0.0022
2755.00,0.0022
2754.00,0.0022
2753.00,0.0022
2752.00,0.0022
2751.00,0.0022
2750.00,0.0021
2749.00,0.0021
2748.00,0.0021
2747.00,0.0021
2746.00,0.0021
2745.00,0.0021
2744.00,0.0021
2743.00,0.0021
2742.00,0.0021
2741.00,0.0021
2740.00,0.0021
2739.00,0.0021
2738.00,0.0021
2737.00,0.0021
2736.00,0.0022
2735.00,0.0022
2734.00,0.0022
2733.00,0.0022
2732.00,0.0022
2731.00,0.0022
2730.00,0.0022
2729.00,0.0022
2728.00,0.0021
2727.00,0.0021
2726.00,0.0021
2725.00,0.0021
2724.00,0.0021
2723.00,0.0021
2722.00,0.0021
2721.00,0.0021
2720.00,0.0020
2719.00,0.0020
2718.00,0.0020
2717.00,0.0019
2716.00,0.0019
2715.00,0.0019
2714.00,0.0018
2713.00,0.0018
2712.00,0.0018
2711.00,0.0018
2710.00,0.0018
2709.00,0.0018
2708.00,0.0017
2707.00,0.0017
2706.00,0.0017
2705.00,0.0017
2704.00,0.0017
2703.00,0.0017
2702.00,0.0017
2701.00,0.0017
2700.00,0.0017
2699.00,0.0017
2698.00,0.0017
2697.00,0.0017
2696.00,0.0017
2695.00,0.0016
2694.00,0.0016
2693.00,0.0016
2692.00,0.0016
2691.00,0.0016
2690.00,0.0016
2689.00,0.0016
2688.00,0.0016
2687.00,0.0016
2686.00,0.0016
2685.00,0.0016
2684.00,0.0016
2683.00,0.0016
2682.00,0.0016
2681.00,0.0016
2680.00,0.0016
2679.00,0.0016
2678.00,0.0016
2677.00,0.0016
2676.00,0.0016
2675.00,0.0016
2674.00,0.0016
2673.00,0.0016
2672.00,0.0016
2671.00,0.0016
2670.00,0.0016
2669.00,0.0016
2668.00,0.0017
2667.00,0.0017
2666.00,0.0017
2665.00,0.0018
2664.00,0.0018
2663.00,0.0018
2662.00,0.0018
2661.00,0.0018
2660.00,0.0018
2659.00,0.0018
2658.00,0.0018
2657.00,0.0019
2656.00,0.0019
2655.00,0.0018
2654.00,0.0018
2653.00,0.0018
2652.00,0.0018
2651.00,0.0018
2650.00,0.0018
2649.00,0.0018
2648.00,0.0018
2647.00,0.0018
2646.00,0.0018
2645.00,0.0018
2644.00,0.0018
2643.00,0.0017
2642.00,0.0017
2641.00,0.0017
2640.00,0.0017
2639.00,0.0017
2638.00,0.0017
2637.00,0.0016
2636.00,0.0016
2635.00,0.0016
2634.00,0.0016
2633.00,0.0016
2632.00,0.0016
2631.00,0.0016
2630.00,0.0016
2629.00,0.0016
2628.00,0.0016
2627.00,0.0016
2626.00,0.0015
2625.00,0.0015
2624.00,0.0015
2623.00,0.0015
2622.00,0.0015
2621.00,0.0015
2620.00,0.0015
2619.00,0.0015
2618.00,0.0015
2617.00,0.0015
2616.00,0.0015
2615.00,0.0014
2614.00,0.0014
2613.00,0.0014
2612.00,0.0014
2611.00,0.0014
2610.00,0.0014
2609.00,0.0014
2608.00,0.0014
2607.00,0.0014
2606.00,0.0014
2605.00,0.0014
2604.00,0.0013
2603.00,0.0013
2602.00,0.0013
2601.00,0.0013
2600.00,0.0013
2599.00,0.0013
2598.00,0.0013
2597.00,0.0013
2596.00,0.0013
2595.00,0.0013
2594.00,0.0012
2593.00,0.0012
2592.00,0.0012
2591.00,0.0012
2590.00,0.0012
2589.00,0.0012
2588.00,0.0012
2587.00,0.0012
2586.00,0.0012
2585.00,0.0012
2584.00,0.0012
2583.00,0.0012
2582.00,0.0012
2581.00,0.0012
2580.00,0.0012
2579.00,0.0011
2578.00,0.0011
2577.00,0.0011
2576.00,0.0011
2575.00,0.0010
2574.00,0.0010
2573.00,0.0010
2572.00,0.0010
2571.00,0.0010
2570.00,0.0010
2569.00,0.0010
2568.00,0.0010
2567.00,0.0009
2566.00,0.0009
2565.00,0.0009
2564.00,0.0009
2563.00,0.0009
2562.00,0.0009
2561.00,0.0008
2560.00,0.0008
2559.00,0.0008
2558.00,0.0008
2557.00,0.0008
2556.00,0.0008
2555.00,0.0008
2554.00,0.0008
2553.00,0.0008
2552.00,0.0009
2551.00,0.0009
2550.00,0.0009
2549.00,0.0009
2548.00,0.0009
2547.00,0.0009
2546.00,0.0008
2545.00,0.0008
2544.00,0.0008
2543.00,0.0008
2542.00,0.0007
2541.00,0.0007
2540.00,0.0007
2539.00,0.0007
2538.00,0.0008
2537.00,0.0008
2536.00,0.0008
2535.00,0.0007
2534.00,0.0007
2533.00,0.0007
2532.00,0.0007
2531.00,0.0007
2530.00,0.0007
2529.00,0.0007
2528.00,0.0006
2527.00,0.0006
2526.00,0.0006
2525.00,0.0006
2524.00,0.0006
2523.00,0.0006
2522.00,0.0006
2521.00,0.0007
2520.00,0.0007
2519.00,0.0006
2518.00,0.0006
2517.00,0.0006
2516.00,0.0006
2515.00,0.0006
2514.00,0.0006
2513.00,0.0006
2512.00,0.0006
2511.00,0.0006
2510.00,0.0006
2509.00,0.0006
2508.00,0.0006
2507.00,0.0006
2506.00,0.0006
2505.00,0.0006
2504.00,0.0006
2503.00,0.0006
2502.00,0.0006
2501.00,0.0006
2500.00,0.0006
2499.00,0.0006
2498.00,0.0006
2497.00,0.0006
2496.00,0.0006
2495.00,0.0006
2494.00,0.0006
2493.00,0.0005
2492.00,0.0005
2491.00,0.0005
2490.00,0.0005
2489.00,0.0005
2488.00,0.0005
2487.00,0.0005
2486.00,0.0005
2485.00,0.0005
2484.00,0.0005
2483.00,0.0005
2482.00,0.0005
2481.00,0.0005
2480.00,0.0005
2479.00,0.0004
2478.00,0.0004
2477.00,0.0004
2476.00,0.0004
2475.00,0.0004
2474.00,0.0004
2473.00,0.0004
2472.00,0.0005
2471.00,0.0005
2470.00,0.0005
2469.00,0.0005
2468.00,0.0005
2467.00,0.0005
2466.00,0.0005
2465.00,0.0004
2464.00,0.0004
2463.00,0.0004
2462.00,0.0004
2461.00,0.0005
2460.00,0.0005
2459.00,0.0005
2458.00,0.0006
2457.00,0.0006
2456.00,0.0006
2455.00,0.0005
2454.00,0.0005
2453.00,0.0005
2452.00,0.0005
2451.00,0.0006
2450.00,0.0006
2449.00,0.0006
2448.00,0.0005
2447.00,0.0005
2446.00,0.0005
2445.00,0.0004
2444.00,0.0004
2443.00,0.0004
2442.00,0.0004
2441.00,0.0004
2440.00,0.0004
2439.00,0.0004
2438.00,0.0004
2437.00,0.0004
2436.00,0.0004
2435.00,0.0003
2434.00,0.0003
2433.00,0.0003
2432.00,0.0003
2431.00,0.0003
2430.00,0.0003
2429.00,0.0003
2428.00,0.0003
2427.00,0.0003
2426.00,0.0003
2425.00,0.0003
2424.00,0.0003
2423.00,0.0003
2422.00,0.0003
2421.00,0.0002
2420.00,0.0002
2419.00,0.0002
2418.00,0.0002
2417.00,0.0002
2416.00,0.0001
2415.00,0.0001
2414.00,0.0001
2413.00,0.0002
2412.00,0.0002
2411.00,0.0002
2410.00,0.0002
2409.00,0.0001
2408.00,0.0001
2407.00,0.0000
2406.00,0.0000
2405.00,0.0000
2404.00,0.0001
2403.00,0.0001
2402.00,0.0000
2401.00,0.0000
2400.00,-0.0000
2399.00,-0.0000
2398.00,0.0000
2397.00,0.0000
2396.00,0.0001
2395.00,0.0001
2394.00,0.0001
2393.00,0.0001
2392.00,0.0000
2391.00,0.0000
2390.00,0.0000
2389.00,0.0000
2388.00,-0.0000
2387.00,-0.0001
2386.00,-0.0001
2385.00,-0.0001
2384.00,-0.0001
2383.00,-0.0001
2382.00,-0.0002
2381.00,-0.0002
2380.00,-0.0002
2379.00,-0.0002
2378.00,-0.0002
2377.00,-0.0001
2376.00,-0.0001
2375.00,-0.0001
2374.00,-0.0001
2373.00,-0.0001
2372.00,-0.0002
2371.00,-0.0002
2370.00,-0.0002
2369.00,-0.0002
2368.00,-0.0002
2367.00,-0.0002
2366.00,-0.0002
2365.00,-0.0002
2364.00,-0.0002
2363.00,-0.0002
2362.00,-0.0002
2361.00,-0.0002
2360.00,-0.0002
2359.00,-0.0002
2358.00,-0.0002
2357.00,-0.0002
2356.00,-0.0003
2355.00,-0.0003
2354.00,-0.0004
2353.00,-0.0004
2352.00,-0.0003
2351.00,-0.0002
2350.00,-0.0001
2349.00,0.0000
2348.00,0.0001
2347.00,0.0002
2346.00,0.0002
2345.00,0.0002
2344.00,0.0002
2343.00,0.0002
2342.00,0.0001
2341.00,0.0001
2340.00,0.0000
2339.00,-0.0000
2338.00,-0.0001
2337.00,-0.0001
2336.00,-0.0001
2335.00,-0.0001
2334.00,-0.0001
2333.00,-0.0001
2332.00,-0.0001
2331.00,-0.0001
2330.00,-0.0001
2329.00,0.0001
2328.00,0.0003
2327.00,0.0007
2326.00,0.0010
2325.00,0.0011
2324.00,0.0010
2323.00,0.0009
2322.00,0.0007
2321.00,0.0006
2320.00,0.0005
2319.00,0.0004
2318.00,0.0004
2317.00,0.0003
2316.00,0.0003
2315.00,0.0003
2314.00,0.0002
2313.00,0.0003
2312.00,0.0003
2311.00,0.0003
2310.00,0.0003
2309.00,0.0003
2308.00,0.0003
2307.00,0.0004
2306.00,0.0004
2305.00,0.0004
2304.00,0.0005
2303.00,0.0005
2302.00,0.0005
2301.00,0.0005
2300.00,0.0005
2299.00,0.0006
2298.00,0.0006
2297.00,0.0006
2296.00,0.0007
2295.00,0.0007
2294.00,0.0008
2293.00,0.0009
2292.00,0.0009
2291.00,0.0010
2290.00,0.0010
2289.00,0.0011
2288.00,0.0011
2287.00,0.0011
2286.00,0.0010
2285.00,0.0009
2284.00,0.0009
2283.00,0.0008
2282.00,0.0008
2281.00,0.0008
2280.00,0.0008
2279.00,0.0008
2278.00,0.0008
2277.00,0.0007
2276.00,0.0007
2275.00,0.0007
2274.00,0.0006
2273.00,0.0006
2272.00,0.0006
2271.00,0.0006
2270.00,0.0006
2269.00,0.0005
2268.00,0.0005
2267.00,0.0004
2266.00,0.0004
2265.00,0.0004
2264.00,0.0004
2263.00,0.0004
2262.00,0.0004
2261.00,0.0005
2260.00,0.0005
2259.00,0.0005
2258.00,0.0005
2257.00,0.0004
2256.00,0.0004
2255.00,0.0003
2254.00,0.0003
2253.00,0.0003
2252.00,0.0003
2251.00,0.0003
2250.00,0.0002
2249.00,0.0002
2248.00,0.0003
2247.00,0.0003
2246.00,0.0004
2245.00,0.0004
2244.00,0.0004
2243.00,0.0004
2242.00,0.0004
2241.00,0.0004
2240.00,0.0004
2239.00,0.0004
2238.00,0.0004
2237.00,0.0004
2236.00,0.0004
2235.00,0.0004
2234.00,0.0003
2233.00,0.0003
2232.00,0.0002
2231.00,0.0001
2230.00,0.0001
2229.00,0.0002
2228.00,0.0004
2227.00,0.0004
2226.00,0.0004
2225.00,0.0004
2224.00,0.0003
2223.00,0.0004
2222.00,0.0004
2221.00,0.0004
2220.00,0.0003
2219.00,0.0002
2218.00,0.0001
2217.00,0.0001
2216.00,0.0001
2215.00,0.0001
2214.00,0.0002
2213.00,0.0003
2212.00,0.0003
2211.00,0.0004
2210.00,0.0004
2209.00,0.0004
2208.00,0.0004
2207.00,0.0004
2206.00,0.0003
2205.00,0.0003
2204.00,0.0003
2203.00,0.0002
2202.00,0.0002
2201.00,0.0002
2200.00,0.0002
2199.00,0.0002
2198.00,0.0002
2197.00,0.0003
2196.00,0.0004
2195.00,0.0004
2194.00,0.0004
2193.00,0.0004
2192.00,0.0004
2191.00,0.0004
2190.00,0.0004
2189.00,0.0004
2188.00,0.0004
2187.00,0.0003
2186.00,0.0003
2185.00,0.0003
2184.00,0.0004
2183.00,0.0003
2182.00,0.0002
2181.00,0.0001
2180.00,0.0002
2179.00,0.0002
2178.00,0.0001
2177.00,-0.0001
2176.00,-0.0002
2175.00,-0.0003
2174.00,-0.0002
2173.00,-0.0000
2172.00,0.0002
2171.00,0.0004
2170.00,0.0005
2169.00,0.0006
2168.00,0.0007
2167.00,0.0008
2166.00,0.0009
2165.00,0.0011
2164.00,0.0012
2163.00,0.0012
2162.00,0.0007
2161.00,-0.0001
2160.00,-0.0012
2159.00,-0.0020
2158.00,-0.0025
2157.00,-0.0024
2156.00,-0.0022
2155.00,-0.0019
2154.00,-0.0016
2153.00,-0.0015
2152.00,-0.0014
2151.00,-0.0013
2150.00,-0.0012
2149.00,-0.0011
2148.00,-0.0011
2147.00,-0.0011
2146.00,-0.0011
2145.00,-0.0011
2144.00,-0.0011
2143.00,-0.0010
2142.00,-0.0009
2141.00,-0.0009
2140.00,-0.0010
2139.00,-0.0011
2138.00,-0.0012
2137.00,-0.0014
2136.00,-0.0016
2135.00,-0.0017
2134.00,-0.0017
2133.00,-0.0016
2132.00,-0.0013
2131.00,-0.0011
2130.00,-0.0009
2129.00,-0.0008
2128.00,-0.0007
2127.00,-0.0006
2126.00,-0.0006
2125.00,-0.0005
2124.00,-0.0003
2123.00,-0.0002
2122.00,-0.0001
2121.00,-0.0000
2120.00,0.0000
2119.00,0.0001
2118.00,0.0001
2117.00,0.0002
2116.00,0.0002
2115.00,0.0003
2114.00,0.0003
2113.00,0.0004
2112.00,0.0004
2111.00,0.0004
2110.00,0.0004
2109.00,0.0003
2108.00,0.0002
2107.00,0.0002
2106.00,0.0001
2105.00,0.0001
2104.00,0.0002
2103.00,0.0002
2102.00,0.0003
2101.00,0.0003
2100.00,0.0003
2099.00,0.0003
2098.00,0.0002
2097.00,-0.0000
2096.00,-0.0002
2095.00,-0.0002
2094.00,-0.0002
2093.00,-0.0002
2092.00,-0.0001
2091.00,-0.0001
2090.00,-0.0000
2089.00,0.0000
2088.00,0.0001
2087.00,0.0002
2086.00,0.0002
2085.00,0.0003
2084.00,0.0003
2083.00,0.0004
2082.00,0.0004
2081.00,0.0004
2080.00,0.0004
2079.00,0.0003
2078.00,0.0003
2077.00,0.0003
2076.00,0.0003
2075.00,0.0003
2074.00,0.0003
2073.00,0.0003
2072.00,0.0003
2071.00,0.0003
2070.00,0.0002
2069.00,0.0001
2068.00,0.0001
2067.00,0.0001
2066.00,0.0001
2065.00,0.0001
2064.00,0.0001
2063.00,0.0001
2062.00,0.0001
2061.00,0.0001
2060.00,0.0000
2059.00,0.0000
2058.00,0.0001
2057.00,0.0002
2056.00,0.0002
2055.00,0.0003
2054.00,0.0004
2053.00,0.0007
2052.00,0.0009
2051.00,0.0009
2050.00,0.0007
2049.00,0.0004
2048.00,0.0002
2047.00,0.0002
2046.00,0.0002
2045.00,0.0001
2044.00,0.0000
2043.00,-0.0000
2042.00,-0.0000
2041.00,0.0000
2040.00,0.0001
2039.00,0.0001
2038.00,-0.0000
2037.00,-0.0001
2036.00,-0.0003
2035.00,-0.0004
2034.00,-0.0004
2033.00,-0.0004
2032.00,-0.0004
2031.00,-0.0004
2030.00,-0.0006
2029.00,-0.0007
2028.00,-0.0008
2027.00,-0.0007
2026.00,-0.0007
2025.00,-0.0006
2024.00,-0.0005
2023.00,-0.0005
2022.00,-0.0005
2021.00,-0.0005
2020.00,-0.0004
2019.00,-0.0004
2018.00,-0.0004
2017.00,-0.0005
2016.00,-0.0005
2015.00,-0.0006
2014.00,-0.0006
2013.00,-0.0006
2012.00,-0.0006
2011.00,-0.0005
2010.00,-0.0005
2009.00,-0.0006
2008.00,-0.0008
2007.00,-0.0010
2006.00,-0.0011
2005.00,-0.0010
2004.00,-0.0008
2003.00,-0.0006
2002.00,-0.0005
2001.00,-0.0005
2000.00,-0.0004
1999.00,-0.0003
1998.00,-0.0002
1997.00,-0.0002
1996.00,-0.0002
1995.00,-0.0001
1994.00,-0.0001
1993.00,-0.0000
1992.00,-0.0000
1991.00,-0.0000
1990.00,-0.0000
1989.00,0.0000
1988.00,0.0001
1987.00,0.0001
1986.00,0.0002
1985.00,0.0003
1984.00,0.0005
1983.00,0.0006
1982.00,0.0008
1981.00,0.0008
1980.00,0.0006
1979.00,0.0002
1978.00,-0.0004
1977.00,-0.0009
1976.00,-0.0011
1975.00,-0.0010
1974.00,-0.0009
1973.00,-0.0008
1972.00,-0.0008
1971.00,-0.0009
1970.00,-0.0010
1969.00,-0.0011
1968.00,-0.0011
1967.00,-0.0011
1966.00,-0.0011
1965.00,-0.0010
1964.00,-0.0010
1963.00,-0.0010
1962.00,-0.0011
1961.00,-0.0012
1960.00,-0.0013
1959.00,-0.0013
1958.00,-0.0013
1957.00,-0.0011
1956.00,-0.0009
1955.00,-0.0008
1954.00,-0.0007
1953.00,-0.0006
1952.00,-0.0006
1951.00,-0.0006
1950.00,-0.0006
1949.00,-0.0006
1948.00,-0.0007
1947.00,-0.0007
1946.00,-0.0008
1945.00,-0.0009
1944.00,-0.0008
1943.00,-0.0008
1942.00,-0.0008
1941.00,-0.0008
1940.00,-0.0007
1939.00,-0.0006
1938.00,-0.0006
1937.00,-0.0006
1936.00,-0.0006
1935.00,-0.0007
1934.00,-0.0007
1933.00,-0.0008
1932.00,-0.0007
1931.00,-0.0007
1930.00,-0.0007
1929.00,-0.0007
1928.00,-0.0006
1927.00,-0.0006
1926.00,-0.0006
1925.00,-0.0006
1924.00,-0.0006
1923.00,-0.0005
1922.00,-0.0004
1921.00,-0.0004
1920.00,-0.0004
1919.00,-0.0004
1918.00,-0.0005
1917.00,-0.0006
1916.00,-0.0006
1915.00,-0.0006
1914.00,-0.0006
1913.00,-0.0006
1912.00,-0.0006
1911.00,-0.0006
1910.00,-0.0006
1909.00,-0.0006
1908.00,-0.0006
1907.00,-0.0005
1906.00,-0.0005
1905.00,-0.0004
1904.00,-0.0004
1903.00,-0.0004
1902.00,-0.0004
1901.00,-0.0004
1900.00,-0.0004
1899.00,-0.0004
1898.00,-0.0004
1897.00,-0.0004
1896.00,-0.0004
1895.00,-0.0004
1894.00,-0.0004
1893.00,-0.0004
1892.00,-0.0005
1891.00,-0.0004
1890.00,-0.0005
1889.00,-0.0005
1888.00,-0.0005
1887.00,-0.0005
1886.00,-0.0005
1885.00,-0.0005
1884.00,-0.0004
1883.00,-0.0004
1882.00,-0.0004
1881.00,-0.0004
1880.00,-0.0004
1879.00,-0.0004
1878.00,-0.0004
1877.00,-0.0004
1876.00,-0.0005
1875.00,-0.0004
1874.00,-0.0004
1873.00,-0.0004
1872.00,-0.0003
1871.00,-0.0003
1870.00,-0.0004
1869.00,-0.0004
1868.00,-0.0004
1867.00,-0.0004
1866.00,-0.0004
1865.00,-0.0004
1864.00,-0.0004
1863.00,-0.0003
1862.00,-0.0003
1861.00,-0.0003
1860.00,-0.0002
1859.00,-0.0002
1858.00,-0.0003
1857.00,-0.0003
1856.00,-0.0004
1855.00,-0.0004
1854.00,-0.0004
1853.00,-0.0003
1852.00,-0.0003
1851.00,-0.0003
1850.00,-0.0003
1849.00,-0.0003
1848.00,-0.0003
1847.00,-0.0004
1846.00,-0.0004
1845.00,-0.0004
1844.00,-0.0003
1843.00,-0.0003
1842.00,-0.0003
1841.00,-0.0003
1840.00,-0.0003
1839.00,-0.0003
1838.00,-0.0003
1837.00,-0.0003
1836.00,-0.0002
1835.00,-0.0002
1834.00,-0.0002
1833.00,-0.0002
1832.00,-0.0002
1831.00,-0.0002
1830.00,-0.0002
1829.00,-0.0002
1828.00,-0.0002
1827.00,-0.0002
1826.00,-0.0002
1825.00,-0.0001
1824.00,-0.0001
1823.00,-0.0001
1822.00,-0.0001
1821.00,-0.0002
1820.00,-0.0002
1819.00,-0.0003
1818.00,-0.0003
1817.00,-0.0003
1816.00,-0.0003
1815.00,-0.0002
1814.00,-0.0002
1813.00,-0.0001
1812.00,-0.0001
1811.00,-0.0000
1810.00,-0.0000
1809.00,-0.0000
1808.00,-0.0000
1807.00,-0.0000
1806.00,0.0000
1805.00,0.0000
1804.00,0.0000
1803.00,0.0000
1802.00,0.0001
1801.00,0.0001
1800.00,0.0001
1799.00,0.0002
1798.00,0.0002
1797.00,0.0002
1796.00,0.0002
1795.00,0.0002
1794.00,0.0002
1793.00,0.0002
1792.00,0.0002
1791.00,0.0002
1790.00,0.0002
1789.00,0.0002
1788.00,0.0002
1787.00,0.0002
1786.00,0.0003
1785.00,0.0003
1784.00,0.0003
1783.00,0.0003
1782.00,0.0003
1781.00,0.0002
1780.00,0.0002
1779.00,0.0002
1778.00,0.0002
1777.00,0.0003
1776.00,0.0003
1775.00,0.0003
1774.00,0.0004
1773.00,0.0004
1772.00,0.0004
1771.00,0.0003
1770.00,0.0002
1769.00,0.0002
1768.00,0.0003
1767.00,0.0003
1766.00,0.0003
1765.00,0.0003
1764.00,0.0003
1763.00,0.0003
1762.00,0.0003
1761.00,0.0004
1760.00,0.0004
1759.00,0.0004
1758.00,0.0004
1757.00,0.0004
1756.00,0.0005
1755.00,0.0005
1754.00,0.0005
1753.00,0.0005
1752.00,0.0005
1751.00,0.0006
1750.00,0.0006
1749.00,0.0006
1748.00,0.0006
1747.00,0.0006
1746.00,0.0006
1745.00,0.0006
1744.00,0.0006
1743.00,0.0007
1742.00,0.0007
1741.00,0.0006
1740.00,0.0007
1739.00,0.0007
1738.00,0.0007
1737.00,0.0007
1736.00,0.0007
1735.00,0.0007
1734.00,0.0008
1733.00,0.0008
1732.00,0.0008
1731.00,0.0008
1730.00,0.0008
1729.00,0.0008
1728.00,0.0009
1727.00,0.0009
1726.00,0.0010
1725.00,0.0010
1724.00,0.0010
1723.00,0.0010
1722.00,0.0010
1721.00,0.0010
1720.00,0.0010
1719.00,0.0010
1718.00,0.0010
1717.00,0.0010
1716.00,0.0010
1715.00,0.0010
1714.00,0.0010
1713.00,0.0011
1712.00,0.0012
1711.00,0.0012
1710.00,0.0013
1709.00,0.0013
1708.00,0.0014
1707.00,0.0014
1706.00,0.0014
1705.00,0.0014
1704.00,0.0015
1703.00,0.0015
1702.00,0.0015
1701.00,0.0017
1700.00,0.0019
1699.00,0.0020
1698.00,0.0020
1697.00,0.0021
1696.00,0.0022
1695.00,0.0024
1694.00,0.0026
1693.00,0.0028
1692.00,0.0029
1691.00,0.0031
1690.00,0.0032
1689.00,0.0034
1688.00,0.0035
1687.00,0.0037
1686.00,0.0038
1685.00,0.0039
1684.00,0.0040
1683.00,0.0040
1682.00,0.0041
1681.00,0.0042
1680.00,0.0043
1679.00,0.0044
1678.00,0.0045
1677.00,0.0046
1676.00,0.0047
1675.00,0.0049
1674.00,0.0050
1673.00,0.0052
1672.00,0.0054
1671.00,0.0056
1670.00,0.0057
1669.00,0.0058
1668.00,0.0060
1667.00,0.0062
1666.00,0.0063
1665.00,0.0065
1664.00,0.0066
1663.00,0.0067
1662.00,0.0068
1661.00,0.0068
1660.00,0.0069
1659.00,0.0070
1658.00,0.0071
1657.00,0.0072
1656.00,0.0072
1655.00,0.0073
1654.00,0.0073
1653.00,0.0074
1652.00,0.0077
1651.00,0.0080
1650.00,0.0084
1649.00,0.0087
1648.00,0.0090
1647.00,0.0095
1646.00,0.0099
1645.00,0.0103
1644.00,0.0105
1643.00,0.0106
1642.00,0.0106
1641.00,0.0105
1640.00,0.0105
1639.00,0.0104
1638.00,0.0105
1637.00,0.0106
1636.00,0.0112
1635.00,0.0120
1634.00,0.0129
1633.00,0.0139
1632.00,0.0148
1631.00,0.0156
1630.00,0.0164
1629.00,0.0170
1628.00,0.0174
1627.00,0.0176
1626.00,0.0175
1625.00,0.0173
1624.00,0.0168
1623.00,0.0163
1622.00,0.0157
1621.00,0.0152
1620.00,0.0147
1619.00,0.0141
1618.00,0.0133
1617.00,0.0123
1616.00,0.0114
1615.00,0.0106
1614.00,0.0100
1613.00,0.0095
1612.00,0.0090
1611.00,0.0086
1610.00,0.0082
1609.00,0.0080
1608.00,0.0078
1607.00,0.0076
1606.00,0.0076
1605.00,0.0077
1604.00,0.0078
1603.00,0.0081
1602.00,0.0084
1601.00,0.0088
1600.00,0.0093
1599.00,0.0098
1598.00,0.0104
1597.00,0.0111
1596.00,0.0118
1595.00,0.0125
1594.00,0.0133
1593.00,0.0140
1592.00,0.0148
1591.00,0.0156
1590.00,0.0164
1589.00,0.0172
1588.00,0.0179
1587.00,0.0185
1586.00,0.0188
1585.00,0.0188
1584.00,0.0186
1583.00,0.0181
1582.00,0.0172
1581.00,0.0163
1580.00,0.0154
1579.00,0.0144
1578.00,0.0134
1577.00,0.0123
1576.00,0.0111
1575.00,0.0101
1574.00,0.0094
1573.00,0.0089
1572.00,0.0084
1571.00,0.0078
1570.00,0.0072
1569.00,0.0067
1568.00,0.0062
1567.00,0.0059
1566.00,0.0055
1565.00,0.0053
1564.00,0.0050
1563.00,0.0048
1562.00,0.0046
1561.00,0.0045
1560.00,0.0043
1559.00,0.0041
1558.00,0.0037
1557.00,0.0036
1556.00,0.0035
1555.00,0.0035
1554.00,0.0034
1553.00,0.0034
1552.00,0.0034
1551.00,0.0033
1550.00,0.0032
1549.00,0.0032
1548.00,0.0033
1547.00,0.0033
1546.00,0.0032
1545.00,0.0032
1544.00,0.0032
1543.00,0.0032
1542.00,0.0032
1541.00,0.0033
1540.00,0.0033
1539.00,0.0033
1538.00,0.0033
1537.00,0.0034
1536.00,0.0034
1535.00,0.0035
1534.00,0.0035
1533.00,0.0036
1532.00,0.0037
1531.00,0.0037
1530.00,0.0038
1529.00,0.0039
1528.00,0.0040
1527.00,0.0041
1526.00,0.0043
1525.00,0.0045
1524.00,0.0047
1523.00,0.0049
1522.00,0.0051
1521.00,0.0052
1520.00,0.0054
1519.00,0.0055
1518.00,0.0055
1517.00,0.0056
1516.00,0.0056
1515.00,0.0055
1514.00,0.0055
1513.00,0.0054
1512.00,0.0052
1511.00,0.0051
1510.00,0.0049
1509.00,0.0048
1508.00,0.0046
1507.00,0.0044
1506.00,0.0041
1505.00,0.0041
1504.00,0.0041
1503.00,0.0041
1502.00,0.0041
1501.00,0.0041
1500.00,0.0041
1499.00,0.0041
1498.00,0.0041
1497.00,0.0041
1496.00,0.0042
1495.00,0.0042
1494.00,0.0043
1493.00,0.0043
1492.00,0.0043
1491.00,0.0043
1490.00,0.0043
1489.00,0.0044
1488.00,0.0045
1487.00,0.0046
1486.00,0.0048
1485.00,0.0050
1484.00,0.0053
1483.00,0.0056
1482.00,0.0059
1481.00,0.0062
1480.00,0.0067
1479.00,0.0071
1478.00,0.0075
1477.00,0.0080
1476.00,0.0085
1475.00,0.0090
1474.00,0.0096
1473.00,0.0104
1472.00,0.0113
1471.00,0.0122
1470.00,0.0131
1469.00,0.0138
1468.00,0.0145
1467.00,0.0151
1466.00,0.0157
1465.00,0.0162
1464.00,0.0168
1463.00,0.0174
1462.00,0.0180
1461.00,0.0186
1460.00,0.0192
1459.00,0.0198
1458.00,0.0205
1457.00,0.0214
1456.00,0.0224
1455.00,0.0233
1454.00,0.0242
1453.00,0.0251
1452.00,0.0260
1451.00,0.0270
1450.00,0.0279
1449.00,0.0288
1448.00,0.0296
1447.00,0.0303
1446.00,0.0308
1445.00,0.0311
1444.00,0.0313
1443.00,0.0312
1442.00,0.0311
1441.00,0.0309
1440.00,0.0306
1439.00,0.0302
1438.00,0.0296
1437.00,0.0290
1436.00,0.0286
1435.00,0.0284
1434.00,0.0283
1433.00,0.0283
1432.00,0.0283
1431.00,0.0282
1430.00,0.0280
1429.00,0.0275
1428.00,0.0267
1427.00,0.0257
1426.00,0.0245
1425.00,0.0231
1424.00,0.0216
1423.00,0.0203
1422.00,0.0192
1421.00,0.0182
1420.00,0.0172
1419.00,0.0162
1418.00,0.0154
1417.00,0.0149
1416.00,0.0145
1415.00,0.0142
1414.00,0.0139
1413.00,0.0137
1412.00,0.0135
1411.00,0.0133
1410.00,0.0132
1409.00,0.0130
1408.00,0.0129
1407.00,0.0128
1406.00,0.0127
1405.00,0.0126
1404.00,0.0125
1403.00,0.0124
1402.00,0.0124
1401.00,0.0123
1400.00,0.0123
1399.00,0.0123
1398.00,0.0123
1397.00,0.0124
1396.00,0.0125
1395.00,0.0126
1394.00,0.0128
1393.00,0.0130
1392.00,0.0133
1391.00,0.0136
1390.00,0.0139
1389.00,0.0143
1388.00,0.0148
1387.00,0.0154
1386.00,0.0161
1385.00,0.0169
1384.00,0.0178
1383.00,0.0188
1382.00,0.0199
1381.00,0.0211
1380.00,0.0222
1379.00,0.0234
1378.00,0.0244
1377.00,0.0251
1376.00,0.0255
1375.00,0.0256
1374.00,0.0253
1373.00,0.0249
1372.00,0.0244
1371.00,0.0239
1370.00,0.0234
1369.00,0.0228
1368.00,0.0223
1367.00,0.0218
1366.00,0.0214
1365.00,0.0209
1364.00,0.0204
1363.00,0.0199
1362.00,0.0195
1361.00,0.0192
1360.00,0.0189
1359.00,0.0188
1358.00,0.0187
1357.00,0.0186
1356.00,0.0186
1355.00,0.0186
1354.00,0.0186
1353.00,0.0187
1352.00,0.0187
1351.00,0.0188
1350.00,0.0189
1349.00,0.0190
1348.00,0.0191
1347.00,0.0192
1346.00,0.0193
1345.00,0.0194
1344.00,0.0195
1343.00,0.0196
1342.00,0.0197
1341.00,0.0198
1340.00,0.0198
1339.00,0.0199
1338.00,0.0201
1337.00,0.0202
1336.00,0.0203
1335.00,0.0204
1334.00,0.0204
1333.00,0.0204
1332.00,0.0203
1331.00,0.0201
1330.00,0.0199
1329.00,0.0197
1328.00,0.0195
1327.00,0.0193
1326.00,0.0193
1325.00,0.0193
1324.00,0.0194
1323.00,0.0195
1322.00,0.0198
1321.00,0.0200
1320.00,0.0203
1319.00,0.0207
1318.00,0.0210
1317.00,0.0213
1316.00,0.0215
1315.00,0.0217
1314.00,0.0218
1313.00,0.0219
1312.00,0.0218
1311.00,0.0218
1310.00,0.0216
1309.00,0.0215
1308.00,0.0212
1307.00,0.0210
1306.00,0.0207
1305.00,0.0204
1304.00,0.0201
1303.00,0.0198
1302.00,0.0194
1301.00,0.0191
1300.00,0.0188
1299.00,0.0186
1298.00,0.0184
1297.00,0.0183
1296.00,0.0182
1295.00,0.0182
1294.00,0.0182
1293.00,0.0183
1292.00,0.0184
1291.00,0.0184
1290.00,0.0185
1289.00,0.0185
1288.00,0.0185
1287.00,0.0185
1286.00,0.0185
1285.00,0.0184
1284.00,0.0183
1283.00,0.0182
1282.00,0.0180
1281.00,0.0179
1280.00,0.0177
1279.00,0.0176
1278.00,0.0174
1277.00,0.0173
1276.00,0.0171
1275.00,0.0169
1274.00,0.0168
1273.00,0.0167
1272.00,0.0166
1271.00,0.0164
1270.00,0.0163
1269.00,0.0162
1268.00,0.0160
1267.00,0.0158
1266.00,0.0156
1265.00,0.0154
1264.00,0.0153
1263.00,0.0152
1262.00,0.0151
1261.00,0.0151
1260.00,0.0152
1259.00,0.0153
1258.00,0.0156
1257.00,0.0159
1256.00,0.0163
1255.00,0.0167
1254.00,0.0172
1253.00,0.0176
1252.00,0.0181
1251.00,0.0185
1250.00,0.0189
1249.00,0.0192
1248.00,0.0196
1247.00,0.0199
1246.00,0.0203
1245.00,0.0206
1244.00,0.0210
1243.00,0.0213
1242.00,0.0215
1241.00,0.0216
1240.00,0.0216
1239.00,0.0215
1238.00,0.0212
1237.00,0.0209
1236.00,0.0204
1235.00,0.0200
1234.00,0.0195
1233.00,0.0190
1232.00,0.0187
1231.00,0.0184
1230.00,0.0183
1229.00,0.0184
1228.00,0.0187
1227.00,0.0190
1226.00,0.0193
1225.00,0.0197
1224.00,0.0200
1223.00,0.0203
1222.00,0.0206
1221.00,0.0210
1220.00,0.0214
1219.00,0.0218
1218.00,0.0222
1217.00,0.0225
1216.00,0.0229
1215.00,0.0231
1214.00,0.0233
1213.00,0.0234
1212.00,0.0234
1211.00,0.0233
1210.00,0.0233
1209.00,0.0233
1208.00,0.0233
1207.00,0.0234
1206.00,0.0236
1205.00,0.0238
1204.00,0.0240
1203.00,0.0242
1202.00,0.0244
1201.00,0.0244
1200.00,0.0244
1199.00,0.0242
1198.00,0.0240
1197.00,0.0237
1196.00,0.0233
1195.00,0.0230
1194.00,0.0228
1193.00,0.0226
1192.00,0.0224
1191.00,0.0222
1190.00,0.0220
1189.00,0.0218
1188.00,0.0216
1187.00,0.0214
1186.00,0.0212
1185.00,0.0211
1184.00,0.0210
1183.00,0.0210
1182.00,0.0212
1181.00,0.0214
1180.00,0.0218
1179.00,0.0223
1178.00,0.0229
1177.00,0.0235
1176.00,0.0242
1175.00,0.0248
1174.00,0.0253
1173.00,0.0258
1172.00,0.0261
1171.00,0.0264
1170.00,0.0266
1169.00,0.0269
1168.00,0.0272
1167.00,0.0276
1166.00,0.0281
1165.00,0.0286
1164.00,0.0293
1163.00,0.0300
1162.00,0.0308
1161.00,0.0318
1160.00,0.0328
1159.00,0.0340
1158.00,0.0353
1157.00,0.0367
1156.00,0.0382
1155.00,0.0397
1154.00,0.0411
1153.00,0.0423
1152.00,0.0434
1151.00,0.0442
1150.00,0.0448
1149.00,0.0450
1148.00,0.0450
1147.00,0.0447
1146.00,0.0444
1145.00,0.0440
1144.00,0.0438
1143.00,0.0437
1142.00,0.0437
1141.00,0.0439
1140.00,0.0443
1139.00,0.0448
1138.00,0.0455
1137.00,0.0462
1136.00,0.0471
1135.00,0.0481
1134.00,0.0492
1133.00,0.0504
1132.00,0.0516
1131.00,0.0529
1130.00,0.0542
1129.00,0.0555
1128.00,0.0567
1127.00,0.0580
1126.00,0.0591
1125.00,0.0602
1124.00,0.0613
1123.00,0.0622
1122.00,0.0631
1121.00,0.0639
1120.00,0.0646
1119.00,0.0652
1118.00,0.0657
1117.00,0.0662
1116.00,0.0666
1115.00,0.0670
1114.00,0.0672
1113.00,0.0675
1112.00,0.0677
1111.00,0.0679
1110.00,0.0679
1109.00,0.0680
1108.00,0.0680
1107.00,0.0679
1106.00,0.0679
1105.00,0.0680
1104.00,0.0680
1103.00,0.0681
1102.00,0.0683
1101.00,0.0685
1100.00,0.0687
1099.00,0.0689
1098.00,0.0691
1097.00,0.0693
1096.00,0.0695
1095.00,0.0697
1094.00,0.0700
1093.00,0.0702
1092.00,0.0706
1091.00,0.0710
1090.00,0.0715
1089.00,0.0721
1088.00,0.0728
1087.00,0.0737
1086.00,0.0746
1085.00,0.0756
1084.00,0.0767
1083.00,0.0778
1082.00,0.0789
1081.00,0.0799
1080.00,0.0810
1079.00,0.0820
1078.00,0.0829
1077.00,0.0837
1076.00,0.0845
1075.00,0.0852
1074.00,0.0857
1073.00,0.0862
1072.00,0.0867
1071.00,0.0871
1070.00,0.0875
1069.00,0.0878
1068.00,0.0882
1067.00,0.0886
1066.00,0.0890
1065.00,0.0893
1064.00,0.0896
1063.00,0.0900
1062.00,0.0903
1061.00,0.0908
1060.00,0.0913
1059.00,0.0919
1058.00,0.0926
1057.00,0.0935
1056.00,0.0945
1055.00,0.0955
1054.00,0.0963
1053.00,0.0969
1052.00,0.0970
1051.00,0.0967
1050.00,0.0959
1049.00,0.0948
1048.00,0.0936
1047.00,0.0923
1046.00,0.0910
1045.00,0.0897
1044.00,0.0884
1043.00,0.0872
1042.00,0.0861
1041.00,0.0850
1040.00,0.0842
1039.00,0.0834
1038.00,0.0828
1037.00,0.0826
1036.00,0.0826
1035.00,0.0831
1034.00,0.0838
1033.00,0.0848
1032.00,0.0859
1031.00,0.0871
1030.00,0.0881
1029.00,0.0890
1028.00,0.0895
1027.00,0.0895
1026.00,0.0891
1025.00,0.0884
1024.00,0.0873
1023.00,0.0859
1022.00,0.0845
1021.00,0.0832
1020.00,0.0820
1019.00,0.0808
1018.00,0.0795
1017.00,0.0782
1016.00,0.0768
1015.00,0.0752
1014.00,0.0736
1013.00,0.0721
1012.00,0.0706
1011.00,0.0691
1010.00,0.0677
1009.00,0.0664
1008.00,0.0650
1007.00,0.0636
1006.00,0.0621
1005.00,0.0605
1004.00,0.0589
1003.00,0.0573
1002.00,0.0557
1001.00,0.0542
1000.00,0.0527
999.00,0.0514
998.00,0.0500
997.00,0.0486
996.00,0.0472
995.00,0.0458
994.00,0.0444
993.00,0.0432
992.00,0.0420
991.00,0.0410
990.00,0.0401
989.00,0.0393
988.00,0.0385
987.00,0.0377
986.00,0.0368
985.00,0.0359
984.00,0.0349
983.00,0.0339
982.00,0.0329
981.00,0.0319
980.00,0.0311
979.00,0.0304
978.00,0.0297
977.00,0.0292
976.00,0.0288
975.00,0.0284
974.00,0.0281
973.00,0.0278
972.00,0.0277
971.00,0.0276
970.00,0.0277
969.00,0.0279
968.00,0.0282
967.00,0.0286
966.00,0.0292
965.00,0.0299
964.00,0.0307
963.00,0.0316
962.00,0.0325
961.00,0.0333
960.00,0.0341
959.00,0.0348
958.00,0.0355
957.00,0.0360
956.00,0.0364
955.00,0.0368
954.00,0.0371
953.00,0.0374
952.00,0.0377
951.00,0.0379
950.00,0.0381
949.00,0.0382
948.00,0.0382
947.00,0.0382
946.00,0.0381
945.00,0.0379
944.00,0.0374
943.00,0.0368
942.00,0.0359
941.00,0.0350
940.00,0.0340
939.00,0.0330
938.00,0.0321
937.00,0.0312
936.00,0.0305
935.00,0.0299
934.00,0.0295
933.00,0.0291
932.00,0.0288
931.00,0.0284
930.00,0.0281
929.00,0.0277
928.00,0.0272
927.00,0.0267
926.00,0.0260
925.00,0.0254
924.00,0.0247
923.00,0.0240
922.00,0.0234
921.00,0.0229
920.00,0.0224
919.00,0.0221
918.00,0.0218
917.00,0.0215
916.00,0.0213
915.00,0.0211
914.00,0.0210
913.00,0.0209
912.00,0.0209
911.00,0.0210
910.00,0.0212
909.00,0.0215
908.00,0.0219
907.00,0.0223
906.00,0.0228
905.00,0.0234
904.00,0.0240
903.00,0.0246
902.00,0.0251
901.00,0.0255
900.00,0.0258
899.00,0.0261
898.00,0.0264
897.00,0.0268
896.00,0.0273
895.00,0.0278
894.00,0.0284
893.00,0.0290
892.00,0.0297
891.00,0.0303
890.00,0.0308
889.00,0.0313
888.00,0.0316
887.00,0.0317
886.00,0.0316
885.00,0.0312
884.00,0.0306
883.00,0.0297
882.00,0.0286
881.00,0.0273
880.00,0.0260
879.00,0.0246
878.00,0.0232
877.00,0.0219
876.00,0.0206
875.00,0.0195
874.00,0.0186
873.00,0.0179
872.00,0.0174
871.00,0.0171
870.00,0.0170
869.00,0.0170
868.00,0.0172
867.00,0.0175
866.00,0.0179
865.00,0.0182
864.00,0.0184
863.00,0.0185
862.00,0.0186
861.00,0.0186
860.00,0.0187
859.00,0.0188
858.00,0.0189
857.00,0.0192
856.00,0.0195
855.00,0.0198
854.00,0.0201
853.00,0.0203
852.00,0.0205
851.00,0.0206
850.00,0.0206
849.00,0.0206
848.00,0.0206
847.00,0.0205
846.00,0.0204
845.00,0.0202
844.00,0.0201
843.00,0.0200
842.00,0.0199
841.00,0.0199
840.00,0.0199
839.00,0.0201
838.00,0.0202
837.00,0.0204
836.00,0.0206
835.00,0.0209
834.00,0.0212
833.00,0.0214
832.00,0.0216
831.00,0.0218
830.00,0.0219
829.00,0.0219
828.00,0.0218
827.00,0.0217
826.00,0.0215
825.00,0.0212
824.00,0.0208
823.00,0.0204
822.00,0.0199
821.00,0.0194
820.00,0.0188
819.00,0.0183
818.00,0.0177
817.00,0.0172
816.00,0.0167
815.00,0.0164
814.00,0.0160
813.00,0.0157
812.00,0.0154
811.00,0.0152
810.00,0.0151
809.00,0.0151
808.00,0.0152
807.00,0.0154
806.00,0.0158
805.00,0.0161
804.00,0.0163
803.00,0.0161
802.00,0.0157
801.00,0.0151
800.00,0.0145
799.00,0.0141
798.00,0.0139
797.00,0.0138
796.00,0.0137
795.00,0.0137
794.00,0.0137
793.00,0.0136
792.00,0.0134
791.00,0.0131
790.00,0.0128
789.00,0.0125
788.00,0.0122
787.00,0.0120
786.00,0.0119
785.00,0.0117
784.00,0.0116
783.00,0.0115
782.00,0.0114
781.00,0.0115
780.00,0.0116
779.00,0.0118
778.00,0.0120
777.00,0.0121
776.00,0.0123
775.00,0.0124
774.00,0.0124
773.00,0.0124
772.00,0.0124
771.00,0.0124
770.00,0.0123
769.00,0.0123
768.00,0.0122
767.00,0.0122
766.00,0.0120
765.00,0.0119
764.00,0.0119
763.00,0.0118
762.00,0.0119
761.00,0.0120
760.00,0.0122
759.00,0.0124
758.00,0.0127
757.00,0.0130
756.00,0.0133
755.00,0.0136
754.00,0.0139
753.00,0.0142
752.00,0.0144
751.00,0.0145
750.00,0.0144
749.00,0.0142
748.00,0.0140
747.00,0.0137
746.00,0.0133
745.00,0.0130
744.00,0.0128
743.00,0.0126
742.00,0.0125
741.00,0.0125
740.00,0.0126
739.00,0.0128
738.00,0.0130
737.00,0.0132
736.00,0.0135
735.00,0.0137
734.00,0.0140
733.00,0.0142
732.00,0.0144
731.00,0.0146
730.00,0.0146
729.00,0.0146
728.00,0.0145
727.00,0.0145
726.00,0.0144
725.00,0.0143
724.00,0.0142
723.00,0.0141
722.00,0.0139
721.00,0.0139
720.00,0.0139
719.00,0.0139
718.00,0.0140
717.00,0.0141
716.00,0.0141
715.00,0.0142
714.00,0.0143
713.00,0.0145
712.00,0.0146
711.00,0.0146
710.00,0.0147
709.00,0.0148
708.00,0.0149
707.00,0.0150
706.00,0.0151
705.00,0.0151
704.00,0.0152
703.00,0.0152
702.00,0.0152
701.00,0.0153
700.00,0.0153
699.00,0.0154
698.00,0.0155
697.00,0.0156
696.00,0.0156
695.00,0.0157
694.00,0.0157
693.00,0.0158
692.00,0.0158
691.00,0.0159
690.00,0.0160
689.00,0.0163
688.00,0.0165
687.00,0.0167
686.00,0.0170
685.00,0.0172
684.00,0.0175
683.00,0.0179
682.00,0.0183
681.00,0.0187
680.00,0.0193
679.00,0.0198
678.00,0.0204
677.00,0.0208
676.00,0.0213
675.00,0.0218
674.00,0.0222
673.00,0.0227
672.00,0.0231
671.00,0.0234
670.00,0.0236
669.00,0.0238
668.00,0.0240
667.00,0.0243
666.00,0.0247
665.00,0.0250
664.00,0.0253
663.00,0.0255
662.00,0.0257
661.00,0.0259
660.00,0.0260
659.00,0.0261
658.00,0.0261
657.00,0.0262
656.00,0.0263
655.00,0.0263
654.00,0.0264
653.00,0.0264
652.00,0.0265
651.00,0.0266
650.00,0.0266
649.00,0.0266
648.00,0.0266
647.00,0.0266
646.00,0.0265
645.00,0.0265
644.00,0.0264
643.00,0.0263
642.00,0.0262
641.00,0.0260
640.00,0.0259
639.00,0.0257
638.00,0.0256
637.00,0.0256
636.00,0.0255
635.00,0.0255
634.00,0.0255
633.00,0.0255
632.00,0.0255
631.00,0.0256
630.00,0.0256
629.00,0.0257
628.00,0.0258
627.00,0.0260
626.00,0.0262
625.00,0.0265
624.00,0.0267
623.00,0.0268
622.00,0.0268
621.00,0.0268
620.00,0.0269
619.00,0.0271
618.00,0.0274
617.00,0.0277
616.00,0.0280
615.00,0.0283
614.00,0.0286
613.00,0.0288
612.00,0.0291
611.00,0.0294
610.00,0.0296
609.00,0.0298
608.00,0.0300
607.00,0.0302
606.00,0.0304
605.00,0.0307
604.00,0.0309
603.00,0.0312
602.00,0.0313
601.00,0.0314
600.00,0.0316
599.00,0.0318
598.00,0.0320
597.00,0.0321
596.00,0.0323
595.00,0.0324
594.00,0.0325
593.00,0.0326
592.00,0.0327
591.00,0.0327
590.00,0.0327
589.00,0.0326
588.00,0.0326
587.00,0.0327
586.00,0.0329
585.00,0.0331
584.00,0.0334
583.00,0.0337
582.00,0.0340
581.00,0.0343
580.00,0.0345
579.00,0.0346
578.00,0.0346
577.00,0.0345
576.00,0.0345
575.00,0.0344
574.00,0.0344
573.00,0.0345
572.00,0.0346
571.00,0.0346
570.00,0.0346
569.00,0.0345
568.00,0.0345
567.00,0.0345
566.00,0.0345
565.00,0.0344
564.00,0.0344
563.00,0.0343
562.00,0.0343
561.00,0.0344
560.00,0.0347
559.00,0.0350
558.00,0.0354
557.00,0.0359
556.00,0.0365
555.00,0.0370
554.00,0.0374
553.00,0.0377
552.00,0.0380
551.00,0.0382
550.00,0.0383
549.00,0.0383
548.00,0.0383
547.00,0.0382
546.00,0.0380
545.00,0.0377
544.00,0.0375
543.00,0.0374
542.00,0.0373
541.00,0.0372
540.00,0.0372
539.00,0.0374
538.00,0.0376
537.00,0.0379
536.00,0.0381
535.00,0.0383
534.00,0.0385
533.00,0.0387
532.00,0.0388
531.00,0.0390
530.00,0.0392
529.00,0.0394
528.00,0.0397
527.00,0.0400
526.00,0.0403
525.00,0.0406
524.00,0.0408
523.00,0.0409
522.00,0.0407
521.00,0.0403
520.00,0.0396
519.00,0.0389
518.00,0.0384
517.00,0.0381
516.00,0.0381
515.00,0.0380
514.00,0.0377
513.00,0.0372
512.00,0.0367
511.00,0.0365
510.00,0.0366
509.00,0.0368
508.00,0.0371
507.00,0.0372
506.00,0.0372
505.00,0.0373
504.00,0.0375
503.00,0.0379
502.00,0.0382
501.00,0.0384
500.00,0.0385
499.00,0.0384
498.00,0.0383
497.00,0.0382
496.00,0.0383
495.00,0.0386
494.00,0.0389
493.00,0.0392
492.00,0.0394
491.00,0.0395
490.00,0.0396
489.00,0.0399
488.00,0.0402
487.00,0.0405
486.00,0.0409
485.00,0.0412
484.00,0.0416
483.00,0.0419
482.00,0.0420
481.00,0.0420
480.00,0.0420
479.00,0.0420
478.00,0.0420
477.00,0.0420
476.00,0.0420
475.00,0.0420
474.00,0.0420
473.00,0.0422
472.00,0.0424
471.00,0.0426
470.00,0.0428
469.00,0.0430
468.00,0.0431
467.00,0.0431
466.00,0.0428
465.00,0.0424
464.00,0.0418
463.00,0.0412
462.00,0.0408
461.00,0.0406
460.00,0.0405
459.00,0.0405
458.00,0.0404
457.00,0.0403
456.00,0.0400
455.00,0.0396
454.00,0.0390
453.00,0.0385
452.00,0.0383
451.00,0.0382
450.00,0.0381
449.00,0.0379
448.00,0.0377
447.00,0.0374
446.00,0.0372
445.00,0.0370
444.00,0.0368
443.00,0.0364
442.00,0.0359
441.00,0.0356
440.00,0.0352
439.00,0.0348
438.00,0.0346
437.00,0.0348
436.00,0.0351
435.00,0.0353
434.00,0.0352
433.00,0.0347
432.00,0.0342
431.00,0.0338
430.00,0.0335
429.00,0.0335
428.00,0.0334
427.00,0.0334
426.00,0.0334
425.00,0.0335
424.00,0.0335
423.00,0.0331
422.00,0.0322
421.00,0.0310
420.00,0.0301
419.00,0.0295
418.00,0.0293
417.00,0.0293
416.00,0.0295
415.00,0.0299
414.00,0.0301
413.00,0.0302
412.00,0.0300
411.00,0.0296
410.00,0.0294
409.00,0.0294
408.00,0.0295
407.00,0.0295
406.00,0.0292
405.00,0.0290
404.00,0.0293
403.00,0.0298
402.00,0.0304
401.00,0.0306
400.00,0.0304
