Created as New Dataset,Sample 298 By YargerLab Date Saturday, October 18 2025
cm-1,A
4000.00,0.0028
3999.00,0.0028
3998.00,0.0028
3997.00,0.0028
3996.00,0.0028
3995.00,0.0028
3994.00,0.0028
3993.00,0.0028
3992.00,0.0028
3991.00,0.0028
3990.00,0.0028
3989.00,0.0028
3988.00,0.0027
3987.00,0.0028
3986.00,0.0028
3985.00,0.0028
3984.00,0.0028
3983.00,0.0028
3982.00,0.0028
3981.00,0.0028
3980.00,0.0028
3979.00,0.0028
3978.00,0.0028
3977.00,0.0028
3976.00,0.0028
3975.00,0.0027
3974.00,0.0027
3973.00,0.0028
3972.00,0.0028
3971.00,0.0028
3970.00,0.0028
3969.00,0.0028
3968.00,0.0028
3967.00,0.0028
3966.00,0.0028
3965.00,0.0028
3964.00,0.0028
3963.00,0.0028
3962.00,0.0028
3961.00,0.0028
3960.00,0.0028
3959.00,0.0028
3958.00,0.0028
3957.00,0.0028
3956.00,0.0027
3955.00,0.0027
3954.00,0.0027
3953.00,0.0027
3952.00,0.0027
3951.00,0.0027
3950.00,0.0027
3949.00,0.0027
3948.00,0.0027
3947.00,0.0027
3946.00,0.0027
3945.00,0.0027
3944.00,0.0027
3943.00,0.0027
3942.00,0.0027
3941.00,0.0027
3940.00,0.0027
3939.00,0.0027
3938.00,0.0027
3937.00,0.0027
3936.00,0.0027
3935.00,0.0027
3934.00,0.0027
3933.00,0.0027
3932.00,0.0027
3931.00,0.0027
3930.00,0.0027
3929.00,0.0027
3928.00,0.0027
3927.00,0.0027
3926.00,0.0027
3925.00,0.0027
3924.00,0.0027
3923.00,0.0027
3922.00,0.0027
3921.00,0.0027
3920.00,0.0027
3919.00,0.0027
3918.00,0.0027
3917.00,0.0027
3916.00,0.0027
3915.00,0.0027
3914.00,0.0027
3913.00,0.0027
3912.00,0.0027
3911.00,0.0027
3910.00,0.0027
3909.00,0.0027
3908.00,0.0027
3907.00,0.0027
3906.00,0.0027
3905.00,0.0027
3904.00,0.0027
3903.00,0.0026
3902.00,0.0026
3901.00,0.0026
3900.00,0.0026
3899.00,0.0026
3898.00,0.0026
3897.00,0.0026
3896.00,0.0027
3895.00,0.0027
3894.00,0.0027
3893.00,0.0027
3892.00,0.0027
3891.00,0.0027
3890.00,0.0027
3889.00,0.0027
3888.00,0.0026
3887.00,0.0026
3886.00,0.0026
3885.00,0.0027
3884.00,0.0026
3883.00,0.0026
3882.00,0.0026
3881.00,0.0026
3880.00,0.0026
3879.00,0.0026
3878.00,0.0026
3877.00,0.0026
3876.00,0.0026
3875.00,0.0026
3874.00,0.0027
3873.00,0.0026
3872.00,0.0026
3871.00,0.0026
3870.00,0.0026
3869.00,0.0026
3868.00,0.0026
3867.00,0.0026
3866.00,0.0026
3865.00,0.0026
3864.00,0.0026
3863.00,0.0026
3862.00,0.0026
3861.00,0.0026
3860.00,0.0026
3859.00,0.0026
3858.00,0.0026
3857.00,0.0026
3856.00,0.0025
3855.00,0.0025
3854.00,0.0026
3853.00,0.0026
3852.00,0.0025
3851.00,0.0025
3850.00,0.0025
3849.00,0.0025
3848.00,0.0026
3847.00,0.0026
3846.00,0.0027
3845.00,0.0027
3844.00,0.0027
3843.00,0.0027
3842.00,0.0026
3841.00,0.0026
3840.00,0.0026
3839.00,0.0025
3838.00,0.0025
3837.00,0.0025
3836.00,0.0025
3835.00,0.0025
3834.00,0.0025
3833.00,0.0026
3832.00,0.0026
3831.00,0.0026
3830.00,0.0026
3829.00,0.0026
3828.00,0.0026
3827.00,0.0026
3826.00,0.0026
3825.00,0.0026
3824.00,0.0026
3823.00,0.0026
3822.00,0.0026
3821.00,0.0026
3820.00,0.0026
3819.00,0.0025
3818.00,0.0025
3817.00,0.0025
3816.00,0.0026
3815.00,0.0026
3814.00,0.0026
3813.00,0.0026
3812.00,0.0026
3811.00,0.0027
3810.00,0.0027
3809.00,0.0027
3808.00,0.0027
3807.00,0.0027
3806.00,0.0027
3805.00,0.0026
3804.00,0.0026
3803.00,0.0025
3802.00,0.0025
3801.00,0.0025
3800.00,0.0025
3799.00,0.0025
3798.00,0.0025
3797.00,0.0025
3796.00,0.0026
3795.00,0.0026
3794.00,0.0026
3793.00,0.0026
3792.00,0.0026
3791.00,0.0026
3790.00,0.0027
3789.00,0.0027
3788.00,0.0027
3787.00,0.0026
3786.00,0.0026
3785.00,0.0026
3784.00,0.0026
3783.00,0.0026
3782.00,0.0026
3781.00,0.0026
3780.00,0.0026
3779.00,0.0026
3778.00,0.0026
3777.00,0.0026
3776.00,0.0026
3775.00,0.0026
3774.00,0.0026
3773.00,0.0026
3772.00,0.0026
3771.00,0.0025
3770.00,0.0025
3769.00,0.0025
3768.00,0.0026
3767.00,0.0026
3766.00,0.0026
3765.00,0.0026
3764.00,0.0026
3763.00,0.0026
3762.00,0.0026
3761.00,0.0026
3760.00,0.0025
3759.00,0.0025
3758.00,0.0025
3757.00,0.0025
3756.00,0.0025
3755.00,0.0025
3754.00,0.0025
3753.00,0.0025
3752.00,0.0025
3751.00,0.0025
3750.00,0.0024
3749.00,0.0024
3748.00,0.0023
3747.00,0.0023
3746.00,0.0022
3745.00,0.0023
3744.00,0.0023
3743.00,0.0024
3742.00,0.0023
3741.00,0.0023
3740.00,0.0023
3739.00,0.0023
3738.00,0.0023
3737.00,0.0023
3736.00,0.0023
3735.00,0.0023
3734.00,0.0023
3733.00,0.0023
3732.00,0.0024
3731.00,0.0025
3730.00,0.0025
3729.00,0.0025
3728.00,0.0025
3727.00,0.0025
3726.00,0.0025
3725.00,0.0025
3724.00,0.0025
3723.00,0.0025
3722.00,0.0025
3721.00,0.0025
3720.00,0.0025
3719.00,0.0025
3718.00,0.0025
3717.00,0.0025
3716.00,0.0025
3715.00,0.0025
3714.00,0.0025
3713.00,0.0024
3712.00,0.0024
3711.00,0.0023
3710.00,0.0023
3709.00,0.0023
3708.00,0.0023
3707.00,0.0024
3706.00,0.0024
3705.00,0.0024
3704.00,0.0025
3703.00,0.0025
3702.00,0.0024
3701.00,0.0024
3700.00,0.0024
3699.00,0.0024
3698.00,0.0024
3697.00,0.0025
3696.00,0.0025
3695.00,0.0026
3694.00,0.0026
3693.00,0.0025
3692.00,0.0025
3691.00,0.0025
3690.00,0.0025
3689.00,0.0025
3688.00,0.0025
3687.00,0.0025
3686.00,0.0026
3685.00,0.0026
3684.00,0.0026
3683.00,0.0027
3682.00,0.0027
3681.00,0.0027
3680.00,0.0027
3679.00,0.0027
3678.00,0.0026
3677.00,0.0026
3676.00,0.0025
3675.00,0.0026
3674.00,0.0026
3673.00,0.0026
3672.00,0.0026
3671.00,0.0026
3670.00,0.0027
3669.00,0.0026
3668.00,0.0026
3667.00,0.0026
3666.00,0.0027
3665.00,0.0028
3664.00,0.0028
3663.00,0.0029
3662.00,0.0029
3661.00,0.0029
3660.00,0.0028
3659.00,0.0028
3658.00,0.0028
3657.00,0.0028
3656.00,0.0028
3655.00,0.0028
3654.00,0.0028
3653.00,0.0027
3652.00,0.0027
3651.00,0.0027
3650.00,0.0027
3649.00,0.0027
3648.00,0.0027
3647.00,0.0027
3646.00,0.0027
3645.00,0.0027
3644.00,0.0028
3643.00,0.0028
3642.00,0.0029
3641.00,0.0029
3640.00,0.0029
3639.00,0.0030
3638.00,0.0030
3637.00,0.0030
3636.00,0.0030
3635.00,0.0030
3634.00,0.0031
3633.00,0.0030
3632.00,0.0030
3631.00,0.0030
3630.00,0.0030
3629.00,0.0030
3628.00,0.0031
3627.00,0.0031
3626.00,0.0031
3625.00,0.0031
3624.00,0.0032
3623.00,0.0032
3622.00,0.0033
3621.00,0.0032
3620.00,0.0032
3619.00,0.0033
3618.00,0.0033
3617.00,0.0033
3616.00,0.0033
3615.00,0.0034
3614.00,0.0034
3613.00,0.0034
3612.00,0.0035
3611.00,0.0035
3610.00,0.0035
3609.00,0.0035
3608.00,0.0035
3607.00,0.0035
3606.00,0.0035
3605.00,0.0036
3604.00,0.0036
3603.00,0.0036
3602.00,0.0037
3601.00,0.0037
3600.00,0.0037
3599.00,0.0038
3598.00,0.0038
3597.00,0.0038
3596.00,0.0038
3595.00,0.0038
3594.00,0.0038
3593.00,0.0038
3592.00,0.0039
3591.00,0.0039
3590.00,0.0039
3589.00,0.0039
3588.00,0.0039
3587.00,0.0039
3586.00,0.0040
3585.00,0.0040
3584.00,0.0040
3583.00,0.0041
3582.00,0.0041
3581.00,0.0042
3580.00,0.0042
3579.00,0.0042
3578.00,0.0043
3577.00,0.0043
3576.00,0.0043
3575.00,0.0043
3574.00,0.0043
3573.00,0.0043
3572.00,0.0044
3571.00,0.0044
3570.00,0.0045
3569.00,0.0045
3568.00,0.0045
3567.00,0.0045
3566.00,0.0045
3565.00,0.0045
3564.00,0.0046
3563.00,0.0046
3562.00,0.0047
3561.00,0.0047
3560.00,0.0048
3559.00,0.0048
3558.00,0.0048
3557.00,0.0049
3556.00,0.0049
3555.00,0.0049
3554.00,0.0050
3553.00,0.0050
3552.00,0.0050
3551.00,0.0050
3550.00,0.0051
3549.00,0.0051
3548.00,0.0051
3547.00,0.0052
3546.00,0.0052
3545.00,0.0053
3544.00,0.0053
3543.00,0.0054
3542.00,0.0054
3541.00,0.0055
3540.00,0.0055
3539.00,0.0056
3538.00,0.0056
3537.00,0.0056
3536.00,0.0057
3535.00,0.0057
3534.00,0.0057
3533.00,0.0057
3532.00,0.0058
3531.00,0.0058
3530.00,0.0059
3529.00,0.0059
3528.00,0.0060
3527.00,0.0060
3526.00,0.0061
3525.00,0.0061
3524.00,0.0062
3523.00,0.0062
3522.00,0.0062
3521.00,0.0063
3520.00,0.0064
3519.00,0.0064
3518.00,0.0065
3517.00,0.0065
3516.00,0.0066
3515.00,0.0066
3514.00,0.0067
3513.00,0.0067
3512.00,0.0067
3511.00,0.0068
3510.00,0.0068
3509.00,0.0069
3508.00,0.0069
3507.00,0.0070
3506.00,0.0070
3505.00,0.0071
3504.00,0.0071
3503.00,0.0072
3502.00,0.0072
3501.00,0.0072
3500.00,0.0073
3499.00,0.0073
3498.00,0.0074
3497.00,0.0074
3496.00,0.0075
3495.00,0.0075
3494.00,0.0076
3493.00,0.0076
3492.00,0.0077
3491.00,0.0078
3490.00,0.0078
3489.00,0.0079
3488.00,0.0079
3487.00,0.0080
3486.00,0.0080
3485.00,0.0081
3484.00,0.0081
3483.00,0.0082
3482.00,0.0082
3481.00,0.0083
3480.00,0.0083
3479.00,0.0084
3478.00,0.0085
3477.00,0.0086
3476.00,0.0086
3475.00,0.0087
3474.00,0.0087
3473.00,0.0088
3472.00,0.0088
3471.00,0.0089
3470.00,0.0090
3469.00,0.0091
3468.00,0.0092
3467.00,0.0092
3466.00,0.0093
3465.00,0.0093
3464.00,0.0094
3463.00,0.0095
3462.00,0.0095
3461.00,0.0096
3460.00,0.0096
3459.00,0.0097
3458.00,0.0098
3457.00,0.0098
3456.00,0.0099
3455.00,0.0100
3454.00,0.0100
3453.00,0.0101
3452.00,0.0101
3451.00,0.0102
3450.00,0.0102
3449.00,0.0103
3448.00,0.0104
3447.00,0.0105
3446.00,0.0105
3445.00,0.0106
3444.00,0.0106
3443.00,0.0107
3442.00,0.0108
3441.00,0.0109
3440.00,0.0110
3439.00,0.0110
3438.00,0.0111
3437.00,0.0112
3436.00,0.0113
3435.00,0.0114
3434.00,0.0114
3433.00,0.0115
3432.00,0.0116
3431.00,0.0117
3430.00,0.0118
3429.00,0.0118
3428.00,0.0119
3427.00,0.0120
3426.00,0.0121
3425.00,0.0122
3424.00,0.0122
3423.00,0.0123
3422.00,0.0124
3421.00,0.0125
3420.00,0.0126
3419.00,0.0127
3418.00,0.0128
3417.00,0.0129
3416.00,0.0130
3415.00,0.0131
3414.00,0.0132
3413.00,0.0133
3412.00,0.0134
3411.00,0.0135
3410.00,0.0136
3409.00,0.0137
3408.00,0.0138
3407.00,0.0139
3406.00,0.0141
3405.00,0.0141
3404.00,0.0142
3403.00,0.0143
3402.00,0.0145
3401.00,0.0146
3400.00,0.0147
3399.00,0.0148
3398.00,0.0149
3397.00,0.0150
3396.00,0.0152
3395.00,0.0153
3394.00,0.0154
3393.00,0.0155
3392.00,0.0156
3391.00,0.0157
3390.00,0.0158
3389.00,0.0159
3388.00,0.0161
3387.00,0.0162
3386.00,0.0164
3385.00,0.0165
3384.00,0.0166
3383.00,0.0167
3382.00,0.0168
3381.00,0.0170
3380.00,0.0171
3379.00,0.0172
3378.00,0.0173
3377.00,0.0174
3376.00,0.0175
3375.00,0.0177
3374.00,0.0178
3373.00,0.0179
3372.00,0.0180
3371.00,0.0181
3370.00,0.0182
3369.00,0.0183
3368.00,0.0184
3367.00,0.0186
3366.00,0.0187
3365.00,0.0189
3364.00,0.0190
3363.00,0.0191
3362.00,0.0192
3361.00,0.0193
3360.00,0.0194
3359.00,0.0195
3358.00,0.0196
3357.00,0.0197
3356.00,0.0198
3355.00,0.0199
3354.00,0.0200
3353.00,0.0201
3352.00,0.0202
3351.00,0.0203
3350.00,0.0204
3349.00,0.0205
3348.00,0.0207
3347.00,0.0208
3346.00,0.0209
3345.00,0.0210
3344.00,0.0211
3343.00,0.0211
3342.00,0.0212
3341.00,0.0213
3340.00,0.0213
3339.00,0.0214
3338.00,0.0215
3337.00,0.0216
3336.00,0.0217
3335.00,0.0218
3334.00,0.0219
3333.00,0.0220
3332.00,0.0221
3331.00,0.0222
3330.00,0.0223
3329.00,0.0224
3328.00,0.0224
3327.00,0.0225
3326.00,0.0225
3325.00,0.0226
3324.00,0.0227
3323.00,0.0228
3322.00,0.0229
3321.00,0.0229
3320.00,0.0230
3319.00,0.0231
3318.00,0.0232
3317.00,0.0232
3316.00,0.0233
3315.00,0.0234
3314.00,0.0235
3313.00,0.0235
3312.00,0.0235
3311.00,0.0235
3310.00,0.0235
3309.00,0.0235
3308.00,0.0235
3307.00,0.0236
3306.00,0.0236
3305.00,0.0237
3304.00,0.0239
3303.00,0.0240
3302.00,0.0241
3301.00,0.0242
3300.00,0.0242
3299.00,0.0243
3298.00,0.0243
3297.00,0.0243
3296.00,0.0243
3295.00,0.0243
3294.00,0.0244
3293.00,0.0244
3292.00,0.0245
3291.00,0.0245
3290.00,0.0246
3289.00,0.0246
3288.00,0.0246
3287.00,0.0247
3286.00,0.0247
3285.00,0.0247
3284.00,0.0248
3283.00,0.0248
3282.00,0.0248
3281.00,0.0248
3280.00,0.0248
3279.00,0.0248
3278.00,0.0248
3277.00,0.0248
3276.00,0.0248
3275.00,0.0249
3274.00,0.0249
3273.00,0.0249
3272.00,0.0249
3271.00,0.0249
3270.00,0.0249
3269.00,0.0249
3268.00,0.0250
3267.00,0.0250
3266.00,0.0250
3265.00,0.0250
3264.00,0.0250
3263.00,0.0250
3262.00,0.0250
3261.00,0.0250
3260.00,0.0250
3259.00,0.0250
3258.00,0.0250
3257.00,0.0250
3256.00,0.0250
3255.00,0.0250
3254.00,0.0250
3253.00,0.0250
3252.00,0.0251
3251.00,0.0251
3250.00,0.0251
3249.00,0.0251
3248.00,0.0251
3247.00,0.0251
3246.00,0.0251
3245.00,0.0250
3244.00,0.0250
3243.00,0.0250
3242.00,0.0250
3241.00,0.0250
3240.00,0.0250
3239.00,0.0250
3238.00,0.0250
3237.00,0.0250
3236.00,0.0250
3235.00,0.0250
3234.00,0.0250
3233.00,0.0250
3232.00,0.0249
3231.00,0.0249
3230.00,0.0249
3229.00,0.0248
3228.00,0.0248
3227.00,0.0248
3226.00,0.0247
3225.00,0.0247
3224.00,0.0247
3223.00,0.0247
3222.00,0.0247
3221.00,0.0247
3220.00,0.0247
3219.00,0.0247
3218.00,0.0247
3217.00,0.0247
3216.00,0.0247
3215.00,0.0247
3214.00,0.0247
3213.00,0.0247
3212.00,0.0247
3211.00,0.0247
3210.00,0.0246
3209.00,0.0246
3208.00,0.0246
3207.00,0.0246
3206.00,0.0246
3205.00,0.0246
3204.00,0.0246
3203.00,0.0246
3202.00,0.0246
3201.00,0.0246
3200.00,0.0246
3199.00,0.0245
3198.00,0.0245
3197.00,0.0244
3196.00,0.0244
3195.00,0.0243
3194.00,0.0243
3193.00,0.0242
3192.00,0.0241
3191.00,0.0241
3190.00,0.0240
3189.00,0.0240
3188.00,0.0239
3187.00,0.0239
3186.00,0.0238
3185.00,0.0238
3184.00,0.0237
3183.00,0.0237
3182.00,0.0236
3181.00,0.0236
3180.00,0.0235
3179.00,0.0234
3178.00,0.0233
3177.00,0.0233
3176.00,0.0232
3175.00,0.0231
3174.00,0.0230
3173.00,0.0229
3172.00,0.0229
3171.00,0.0228
3170.00,0.0227
3169.00,0.0226
3168.00,0.0225
3167.00,0.0224
3166.00,0.0223
3165.00,0.0222
3164.00,0.0222
3163.00,0.0221
3162.00,0.0220
3161.00,0.0219
3160.00,0.0218
3159.00,0.0217
3158.00,0.0216
3157.00,0.0215
3156.00,0.0214
3155.00,0.0213
3154.00,0.0213
3153.00,0.0212
3152.00,0.0211
3151.00,0.0210
3150.00,0.0210
3149.00,0.0209
3148.00,0.0208
3147.00,0.0207
3146.00,0.0206
3145.00,0.0205
3144.00,0.0205
3143.00,0.0204
3142.00,0.0203
3141.00,0.0203
3140.00,0.0202
3139.00,0.0202
3138.00,0.0201
3137.00,0.0200
3136.00,0.0199
3135.00,0.0198
3134.00,0.0198
3133.00,0.0197
3132.00,0.0197
3131.00,0.0196
3130.00,0.0195
3129.00,0.0195
3128.00,0.0194
3127.00,0.0194
3126.00,0.0193
3125.00,0.0192
3124.00,0.0191
3123.00,0.0190
3122.00,0.0189
3121.00,0.0189
3120.00,0.0188
3119.00,0.0187
3118.00,0.0186
3117.00,0.0185
3116.00,0.0184
3115.00,0.0183
3114.00,0.0182
3113.00,0.0181
3112.00,0.0180
3111.00,0.0179
3110.00,0.0178
3109.00,0.0177
3108.00,0.0175
3107.00,0.0174
3106.00,0.0173
3105.00,0.0172
3104.00,0.0171
3103.00,0.0171
3102.00,0.0170
3101.00,0.0169
3100.00,0.0168
3099.00,0.0167
3098.00,0.0166
3097.00,0.0164
3096.00,0.0163
3095.00,0.0162
3094.00,0.0162
3093.00,0.0161
3092.00,0.0160
3091.00,0.0159
3090.00,0.0158
3089.00,0.0157
3088.00,0.0156
3087.00,0.0155
3086.00,0.0154
3085.00,0.0153
3084.00,0.0153
3083.00,0.0152
3082.00,0.0151
3081.00,0.0150
3080.00,0.0149
3079.00,0.0148
3078.00,0.0147
3077.00,0.0146
3076.00,0.0146
3075.00,0.0145
3074.00,0.0145
3073.00,0.0144
3072.00,0.0144
3071.00,0.0143
3070.00,0.0142
3069.00,0.0142
3068.00,0.0142
3067.00,0.0141
3066.00,0.0141
3065.00,0.0140
3064.00,0.0140
3063.00,0.0140
3062.00,0.0140
3061.00,0.0139
3060.00,0.0139
3059.00,0.0138
3058.00,0.0138
3057.00,0.0138
3056.00,0.0138
3055.00,0.0138
3054.00,0.0137
3053.00,0.0137
3052.00,0.0137
3051.00,0.0136
3050.00,0.0136
3049.00,0.0135
3048.00,0.0134
3047.00,0.0134
3046.00,0.0133
3045.00,0.0133
3044.00,0.0132
3043.00,0.0132
3042.00,0.0131
3041.00,0.0131
3040.00,0.0130
3039.00,0.0130
3038.00,0.0129
3037.00,0.0129
3036.00,0.0129
3035.00,0.0129
3034.00,0.0129
3033.00,0.0130
3032.00,0.0130
3031.00,0.0130
3030.00,0.0130
3029.00,0.0130
3028.00,0.0130
3027.00,0.0130
3026.00,0.0130
3025.00,0.0129
3024.00,0.0129
3023.00,0.0129
3022.00,0.0129
3021.00,0.0129
3020.00,0.0129
3019.00,0.0129
3018.00,0.0129
3017.00,0.0129
3016.00,0.0129
3015.00,0.0129
3014.00,0.0129
3013.00,0.0129
3012.00,0.0130
3011.00,0.0131
3010.00,0.0132
3009.00,0.0133
3008.00,0.0134
3007.00,0.0135
3006.00,0.0137
3005.00,0.0139
3004.00,0.0141
3003.00,0.0143
3002.00,0.0146
3001.00,0.0148
3000.00,0.0151
2999.00,0.0155
2998.00,0.0158
2997.00,0.0161
2996.00,0.0165
2995.00,0.0169
2994.00,0.0174
2993.00,0.0178
2992.00,0.0182
2991.00,0.0187
2990.00,0.0191
2989.00,0.0196
2988.00,0.0200
2987.00,0.0205
2986.00,0.0209
2985.00,0.0213
2984.00,0.0217
2983.00,0.0220
2982.00,0.0224
2981.00,0.0227
2980.00,0.0231
2979.00,0.0235
2978.00,0.0239
2977.00,0.0243
2976.00,0.0247
2975.00,0.0251
2974.00,0.0255
2973.00,0.0260
2972.00,0.0265
2971.00,0.0271
2970.00,0.0277
2969.00,0.0283
2968.00,0.0290
2967.00,0.0297
2966.00,0.0303
2965.00,0.0310
2964.00,0.0317
2963.00,0.0324
2962.00,0.0330
2961.00,0.0335
2960.00,0.0339
2959.00,0.0343
2958.00,0.0346
2957.00,0.0348
2956.00,0.0350
2955.00,0.0350
2954.00,0.0350
2953.00,0.0348
2952.00,0.0346
2951.00,0.0343
2950.00,0.0340
2949.00,0.0337
2948.00,0.0335
2947.00,0.0333
2946.00,0.0332
2945.00,0.0332
2944.00,0.0334
2943.00,0.0336
2942.00,0.0340
2941.00,0.0345
2940.00,0.0352
2939.00,0.0359
2938.00,0.0367
2937.00,0.0376
2936.00,0.0385
2935.00,0.0394
2934.00,0.0404
2933.00,0.0413
2932.00,0.0422
2931.00,0.0430
2930.00,0.0438
2929.00,0.0444
2928.00,0.0450
2927.00,0.0455
2926.00,0.0459
2925.00,0.0461
2924.00,0.0463
2923.00,0.0463
2922.00,0.0463
2921.00,0.0462
2920.00,0.0461
2919.00,0.0459
2918.00,0.0456
2917.00,0.0452
2916.00,0.0448
2915.00,0.0444
2914.00,0.0439
2913.00,0.0433
2912.00,0.0427
2911.00,0.0420
2910.00,0.0413
2909.00,0.0406
2908.00,0.0398
2907.00,0.0391
2906.00,0.0384
2905.00,0.0377
2904.00,0.0371
2903.00,0.0365
2902.00,0.0360
2901.00,0.0355
2900.00,0.0350
2899.00,0.0346
2898.00,0.0342
2897.00,0.0339
2896.00,0.0336
2895.00,0.0332
2894.00,0.0329
2893.00,0.0326
2892.00,0.0323
2891.00,0.0320
2890.00,0.0317
2889.00,0.0314
2888.00,0.0312
2887.00,0.0309
2886.00,0.0307
2885.00,0.0304
2884.00,0.0302
2883.00,0.0300
2882.00,0.0299
2881.00,0.0298
2880.00,0.0297
2879.00,0.0297
2878.00,0.0298
2877.00,0.0299
2876.00,0.0300
2875.00,0.0302
2874.00,0.0303
2873.00,0.0305
2872.00,0.0307
2871.00,0.0308
2870.00,0.0309
2869.00,0.0308
2868.00,0.0308
2867.00,0.0308
2866.00,0.0308
2865.00,0.0309
2864.00,0.0311
2863.00,0.0314
2862.00,0.0317
2861.00,0.0322
2860.00,0.0327
2859.00,0.0331
2858.00,0.0335
2857.00,0.0338
2856.00,0.0339
2855.00,0.0338
2854.00,0.0335
2853.00,0.0330
2852.00,0.0324
2851.00,0.0317
2850.00,0.0308
2849.00,0.0300
2848.00,0.0291
2847.00,0.0282
2846.00,0.0273
2845.00,0.0264
2844.00,0.0255
2843.00,0.0246
2842.00,0.0237
2841.00,0.0229
2840.00,0.0221
2839.00,0.0213
2838.00,0.0206
2837.00,0.0200
2836.00,0.0195
2835.00,0.0189
2834.00,0.0184
2833.00,0.0179
2832.00,0.0175
2831.00,0.0171
2830.00,0.0167
2829.00,0.0163
2828.00,0.0158
2827.00,0.0154
2826.00,0.0150
2825.00,0.0146
2824.00,0.0142
2823.00,0.0138
2822.00,0.0134
2821.00,0.0131
2820.00,0.0127
2819.00,0.0124
2818.00,0.0121
2817.00,0.0118
2816.00,0.0116
2815.00,0.0113
2814.00,0.0111
2813.00,0.0109
2812.00,0.0108
2811.00,0.0106
2810.00,0.0105
2809.00,0.0103
2808.00,0.0102
2807.00,0.0101
2806.00,0.0099
2805.00,0.0098
2804.00,0.0098
2803.00,0.0097
2802.00,0.0096
2801.00,0.0095
2800.00,0.0094
2799.00,0.0094
2798.00,0.0093
2797.00,0.0092
2796.00,0.0092
2795.00,0.0091
2794.00,0.0090
2793.00,0.0089
2792.00,0.0089
2791.00,0.0088
2790.00,0.0088
2789.00,0.0087
2788.00,0.0087
2787.00,0.0086
2786.00,0.0086
2785.00,0.0086
2784.00,0.0086
2783.00,0.0085
2782.00,0.0085
2781.00,0.0085
2780.00,0.0084
2779.00,0.0084
2778.00,0.0084
2777.00,0.0083
2776.00,0.0083
2775.00,0.0083
2774.00,0.0082
2773.00,0.0082
2772.00,0.0082
2771.00,0.0082
2770.00,0.0081
2769.00,0.0081
2768.00,0.0081
2767.00,0.0081
2766.00,0.0081
2765.00,0.0080
2764.00,0.0080
2763.00,0.0080
2762.00,0.0080
2761.00,0.0080
2760.00,0.0080
2759.00,0.0080
2758.00,0.0080
2757.00,0.0080
2756.00,0.0080
2755.00,0.0080
2754.00,0.0080
2753.00,0.0080
2752.00,0.0080
2751.00,0.0080
2750.00,0.0080
2749.00,0.0081
2748.00,0.0081
2747.00,0.0081
2746.00,0.0081
2745.00,0.0082
2744.00,0.0082
2743.00,0.0083
2742.00,0.0083
2741.00,0.0083
2740.00,0.0083
2739.00,0.0083
2738.00,0.0083
2737.00,0.0083
2736.00,0.0084
2735.00,0.0084
2734.00,0.0085
2733.00,0.0085
2732.00,0.0085
2731.00,0.0085
2730.00,0.0085
2729.00,0.0085
2728.00,0.0086
2727.00,0.0086
2726.00,0.0086
2725.00,0.0085
2724.00,0.0085
2723.00,0.0085
2722.00,0.0085
2721.00,0.0085
2720.00,0.0084
2719.00,0.0084
2718.00,0.0084
2717.00,0.0084
2716.00,0.0084
2715.00,0.0083
2714.00,0.0083
2713.00,0.0083
2712.00,0.0082
2711.00,0.0082
2710.00,0.0082
2709.00,0.0082
2708.00,0.0082
2707.00,0.0081
2706.00,0.0081
2705.00,0.0081
2704.00,0.0081
2703.00,0.0081
2702.00,0.0080
2701.00,0.0080
2700.00,0.0080
2699.00,0.0080
2698.00,0.0080
2697.00,0.0080
2696.00,0.0080
2695.00,0.0080
2694.00,0.0080
2693.00,0.0080
2692.00,0.0079
2691.00,0.0079
2690.00,0.0079
2689.00,0.0079
2688.00,0.0079
2687.00,0.0079
2686.00,0.0079
2685.00,0.0079
2684.00,0.0079
2683.00,0.0078
2682.00,0.0078
2681.00,0.0078
2680.00,0.0078
2679.00,0.0078
2678.00,0.0078
2677.00,0.0078
2676.00,0.0077
2675.00,0.0077
2674.00,0.0077
2673.00,0.0077
2672.00,0.0077
2671.00,0.0077
2670.00,0.0077
2669.00,0.0077
2668.00,0.0077
2667.00,0.0077
2666.00,0.0077
2665.00,0.0077
2664.00,0.0077
2663.00,0.0077
2662.00,0.0077
2661.00,0.0077
2660.00,0.0077
2659.00,0.0077
2658.00,0.0077
2657.00,0.0077
2656.00,0.0077
2655.00,0.0076
2654.00,0.0076
2653.00,0.0076
2652.00,0.0076
2651.00,0.0075
2650.00,0.0075
2649.00,0.0075
2648.00,0.0075
2647.00,0.0075
2646.00,0.0074
2645.00,0.0074
2644.00,0.0073
2643.00,0.0073
2642.00,0.0072
2641.00,0.0072
2640.00,0.0072
2639.00,0.0072
2638.00,0.0071
2637.00,0.0071
2636.00,0.0071
2635.00,0.0070
2634.00,0.0070
2633.00,0.0070
2632.00,0.0070
2631.00,0.0070
2630.00,0.0069
2629.00,0.0069
2628.00,0.0068
2627.00,0.0068
2626.00,0.0067
2625.00,0.0067
2624.00,0.0066
2623.00,0.0066
2622.00,0.0066
2621.00,0.0066
2620.00,0.0065
2619.00,0.0065
2618.00,0.0065
2617.00,0.0065
2616.00,0.0064
2615.00,0.0064
2614.00,0.0064
2613.00,0.0064
2612.00,0.0063
2611.00,0.0063
2610.00,0.0063
2609.00,0.0063
2608.00,0.0063
2607.00,0.0063
2606.00,0.0063
2605.00,0.0062
2604.00,0.0062
2603.00,0.0062
2602.00,0.0061
2601.00,0.0061
2600.00,0.0061
2599.00,0.0061
2598.00,0.0061
2597.00,0.0061
2596.00,0.0061
2595.00,0.0061
2594.00,0.0061
2593.00,0.0061
2592.00,0.0060
2591.00,0.0060
2590.00,0.0060
2589.00,0.0060
2588.00,0.0060
2587.00,0.0060
2586.00,0.0060
2585.00,0.0060
2584.00,0.0060
2583.00,0.0060
2582.00,0.0060
2581.00,0.0060
2580.00,0.0060
2579.00,0.0060
2578.00,0.0060
2577.00,0.0059
2576.00,0.0059
2575.00,0.0058
2574.00,0.0058
2573.00,0.0058
2572.00,0.0059
2571.00,0.0058
2570.00,0.0058
2569.00,0.0057
2568.00,0.0057
2567.00,0.0057
2566.00,0.0056
2565.00,0.0056
2564.00,0.0056
2563.00,0.0056
2562.00,0.0056
2561.00,0.0056
2560.00,0.0056
2559.00,0.0056
2558.00,0.0055
2557.00,0.0055
2556.00,0.0054
2555.00,0.0054
2554.00,0.0053
2553.00,0.0053
2552.00,0.0052
2551.00,0.0052
2550.00,0.0053
2549.00,0.0053
2548.00,0.0053
2547.00,0.0053
2546.00,0.0053
2545.00,0.0053
2544.00,0.0052
2543.00,0.0052
2542.00,0.0052
2541.00,0.0052
2540.00,0.0052
2539.00,0.0052
2538.00,0.0052
2537.00,0.0052
2536.00,0.0052
2535.00,0.0052
2534.00,0.0052
2533.00,0.0051
2532.00,0.0051
2531.00,0.0051
2530.00,0.0051
2529.00,0.0051
2528.00,0.0051
2527.00,0.0051
2526.00,0.0051
2525.00,0.0050
2524.00,0.0050
2523.00,0.0050
2522.00,0.0050
2521.00,0.0050
2520.00,0.0050
2519.00,0.0050
2518.00,0.0050
2517.00,0.0050
2516.00,0.0050
2515.00,0.0049
2514.00,0.0049
2513.00,0.0049
2512.00,0.0049
2511.00,0.0049
2510.00,0.0048
2509.00,0.0048
2508.00,0.0048
2507.00,0.0048
2506.00,0.0048
2505.00,0.0048
2504.00,0.0048
2503.00,0.0047
2502.00,0.0047
2501.00,0.0047
2500.00,0.0047
2499.00,0.0047
2498.00,0.0047
2497.00,0.0047
2496.00,0.0047
2495.00,0.0047
2494.00,0.0047
2493.00,0.0047
2492.00,0.0046
2491.00,0.0046
2490.00,0.0046
2489.00,0.0045
2488.00,0.0045
2487.00,0.0045
2486.00,0.0045
2485.00,0.0045
2484.00,0.0046
2483.00,0.0046
2482.00,0.0046
2481.00,0.0046
2480.00,0.0046
2479.00,0.0045
2478.00,0.0045
2477.00,0.0045
2476.00,0.0045
2475.00,0.0045
2474.00,0.0045
2473.00,0.0044
2472.00,0.0044
2471.00,0.0044
2470.00,0.0044
2469.00,0.0044
2468.00,0.0044
2467.00,0.0044
2466.00,0.0043
2465.00,0.0043
2464.00,0.0043
2463.00,0.0043
2462.00,0.0044
2461.00,0.0044
2460.00,0.0044
2459.00,0.0044
2458.00,0.0044
2457.00,0.0044
2456.00,0.0044
2455.00,0.0044
2454.00,0.0044
2453.00,0.0044
2452.00,0.0043
2451.00,0.0043
2450.00,0.0043
2449.00,0.0043
2448.00,0.0043
2447.00,0.0043
2446.00,0.0043
2445.00,0.0043
2444.00,0.0043
2443.00,0.0043
2442.00,0.0042
2441.00,0.0042
2440.00,0.0042
2439.00,0.0042
2438.00,0.0042
2437.00,0.0041
2436.00,0.0041
2435.00,0.0041
2434.00,0.0042
2433.00,0.0042
2432.00,0.0042
2431.00,0.0041
2430.00,0.0041
2429.00,0.0041
2428.00,0.0041
2427.00,0.0042
2426.00,0.0041
2425.00,0.0041
2424.00,0.0041
2423.00,0.0041
2422.00,0.0041
2421.00,0.0041
2420.00,0.0041
2419.00,0.0041
2418.00,0.0040
2417.00,0.0040
2416.00,0.0041
2415.00,0.0041
2414.00,0.0041
2413.00,0.0041
2412.00,0.0041
2411.00,0.0041
2410.00,0.0041
2409.00,0.0041
2408.00,0.0040
2407.00,0.0040
2406.00,0.0040
2405.00,0.0040
2404.00,0.0040
2403.00,0.0040
2402.00,0.0040
2401.00,0.0040
2400.00,0.0040
2399.00,0.0040
2398.00,0.0040
2397.00,0.0040
2396.00,0.0040
2395.00,0.0040
2394.00,0.0040
2393.00,0.0040
2392.00,0.0040
2391.00,0.0040
2390.00,0.0039
2389.00,0.0039
2388.00,0.0039
2387.00,0.0038
2386.00,0.0038
2385.00,0.0037
2384.00,0.0037
2383.00,0.0037
2382.00,0.0037
2381.00,0.0037
2380.00,0.0037
2379.00,0.0037
2378.00,0.0037
2377.00,0.0036
2376.00,0.0036
2375.00,0.0036
2374.00,0.0036
2373.00,0.0036
2372.00,0.0035
2371.00,0.0035
2370.00,0.0035
2369.00,0.0034
2368.00,0.0034
2367.00,0.0034
2366.00,0.0035
2365.00,0.0035
2364.00,0.0036
2363.00,0.0036
2362.00,0.0036
2361.00,0.0036
2360.00,0.0036
2359.00,0.0036
2358.00,0.0036
2357.00,0.0036
2356.00,0.0036
2355.00,0.0036
2354.00,0.0036
2353.00,0.0036
2352.00,0.0036
2351.00,0.0036
2350.00,0.0037
2349.00,0.0037
2348.00,0.0037
2347.00,0.0038
2346.00,0.0038
2345.00,0.0038
2344.00,0.0038
2343.00,0.0038
2342.00,0.0038
2341.00,0.0038
2340.00,0.0038
2339.00,0.0038
2338.00,0.0039
2337.00,0.0039
2336.00,0.0039
2335.00,0.0039
2334.00,0.0039
2333.00,0.0038
2332.00,0.0038
2331.00,0.0038
2330.00,0.0038
2329.00,0.0040
2328.00,0.0042
2327.00,0.0045
2326.00,0.0047
2325.00,0.0048
2324.00,0.0048
2323.00,0.0046
2322.00,0.0045
2321.00,0.0044
2320.00,0.0043
2319.00,0.0042
2318.00,0.0042
2317.00,0.0041
2316.00,0.0041
2315.00,0.0040
2314.00,0.0040
2313.00,0.0040
2312.00,0.0040
2311.00,0.0040
2310.00,0.0039
2309.00,0.0039
2308.00,0.0039
2307.00,0.0039
2306.00,0.0039
2305.00,0.0039
2304.00,0.0039
2303.00,0.0040
2302.00,0.0040
2301.00,0.0040
2300.00,0.0040
2299.00,0.0040
2298.00,0.0041
2297.00,0.0041
2296.00,0.0042
2295.00,0.0042
2294.00,0.0043
2293.00,0.0043
2292.00,0.0043
2291.00,0.0044
2290.00,0.0044
2289.00,0.0045
2288.00,0.0045
2287.00,0.0045
2286.00,0.0045
2285.00,0.0045
2284.00,0.0044
2283.00,0.0044
2282.00,0.0043
2281.00,0.0043
2280.00,0.0042
2279.00,0.0042
2278.00,0.0042
2277.00,0.0042
2276.00,0.0041
2275.00,0.0041
2274.00,0.0040
2273.00,0.0040
2272.00,0.0041
2271.00,0.0041
2270.00,0.0041
2269.00,0.0041
2268.00,0.0040
2267.00,0.0038
2266.00,0.0038
2265.00,0.0038
2264.00,0.0039
2263.00,0.0040
2262.00,0.0040
2261.00,0.0040
2260.00,0.0039
2259.00,0.0039
2258.00,0.0038
2257.00,0.0037
2256.00,0.0037
2255.00,0.0037
2254.00,0.0037
2253.00,0.0036
2252.00,0.0036
2251.00,0.0037
2250.00,0.0037
2249.00,0.0037
2248.00,0.0038
2247.00,0.0038
2246.00,0.0039
2245.00,0.0038
2244.00,0.0038
2243.00,0.0038
2242.00,0.0037
2241.00,0.0037
2240.00,0.0038
2239.00,0.0039
2238.00,0.0040
2237.00,0.0040
2236.00,0.0040
2235.00,0.0040
2234.00,0.0040
2233.00,0.0039
2232.00,0.0038
2231.00,0.0038
2230.00,0.0037
2229.00,0.0037
2228.00,0.0037
2227.00,0.0037
2226.00,0.0037
2225.00,0.0036
2224.00,0.0036
2223.00,0.0035
2222.00,0.0035
2221.00,0.0036
2220.00,0.0038
2219.00,0.0038
2218.00,0.0038
2217.00,0.0038
2216.00,0.0038
2215.00,0.0038
2214.00,0.0038
2213.00,0.0039
2212.00,0.0039
2211.00,0.0039
2210.00,0.0039
2209.00,0.0039
2208.00,0.0039
2207.00,0.0039
2206.00,0.0038
2205.00,0.0038
2204.00,0.0037
2203.00,0.0037
2202.00,0.0037
2201.00,0.0037
2200.00,0.0037
2199.00,0.0037
2198.00,0.0037
2197.00,0.0038
2196.00,0.0038
2195.00,0.0039
2194.00,0.0038
2193.00,0.0037
2192.00,0.0038
2191.00,0.0039
2190.00,0.0040
2189.00,0.0041
2188.00,0.0042
2187.00,0.0042
2186.00,0.0041
2185.00,0.0040
2184.00,0.0038
2183.00,0.0036
2182.00,0.0035
2181.00,0.0035
2180.00,0.0036
2179.00,0.0037
2178.00,0.0036
2177.00,0.0035
2176.00,0.0033
2175.00,0.0032
2174.00,0.0032
2173.00,0.0034
2172.00,0.0037
2171.00,0.0040
2170.00,0.0042
2169.00,0.0043
2168.00,0.0044
2167.00,0.0044
2166.00,0.0044
2165.00,0.0045
2164.00,0.0045
2163.00,0.0045
2162.00,0.0040
2161.00,0.0033
2160.00,0.0024
2159.00,0.0016
2158.00,0.0011
2157.00,0.0011
2156.00,0.0012
2155.00,0.0014
2154.00,0.0015
2153.00,0.0017
2152.00,0.0019
2151.00,0.0022
2150.00,0.0023
2149.00,0.0024
2148.00,0.0024
2147.00,0.0023
2146.00,0.0022
2145.00,0.0022
2144.00,0.0022
2143.00,0.0023
2142.00,0.0023
2141.00,0.0024
2140.00,0.0025
2139.00,0.0025
2138.00,0.0024
2137.00,0.0022
2136.00,0.0020
2135.00,0.0020
2134.00,0.0020
2133.00,0.0021
2132.00,0.0023
2131.00,0.0024
2130.00,0.0025
2129.00,0.0026
2128.00,0.0027
2127.00,0.0028
2126.00,0.0029
2125.00,0.0030
2124.00,0.0030
2123.00,0.0030
2122.00,0.0030
2121.00,0.0031
2120.00,0.0032
2119.00,0.0032
2118.00,0.0033
2117.00,0.0034
2116.00,0.0035
2115.00,0.0035
2114.00,0.0035
2113.00,0.0035
2112.00,0.0034
2111.00,0.0034
2110.00,0.0033
2109.00,0.0033
2108.00,0.0034
2107.00,0.0034
2106.00,0.0034
2105.00,0.0034
2104.00,0.0033
2103.00,0.0033
2102.00,0.0033
2101.00,0.0033
2100.00,0.0033
2099.00,0.0033
2098.00,0.0032
2097.00,0.0031
2096.00,0.0029
2095.00,0.0028
2094.00,0.0028
2093.00,0.0028
2092.00,0.0029
2091.00,0.0030
2090.00,0.0031
2089.00,0.0032
2088.00,0.0033
2087.00,0.0034
2086.00,0.0034
2085.00,0.0034
2084.00,0.0034
2083.00,0.0034
2082.00,0.0033
2081.00,0.0033
2080.00,0.0033
2079.00,0.0033
2078.00,0.0033
2077.00,0.0033
2076.00,0.0033
2075.00,0.0033
2074.00,0.0033
2073.00,0.0033
2072.00,0.0033
2071.00,0.0034
2070.00,0.0035
2069.00,0.0035
2068.00,0.0034
2067.00,0.0033
2066.00,0.0032
2065.00,0.0031
2064.00,0.0031
2063.00,0.0031
2062.00,0.0032
2061.00,0.0033
2060.00,0.0033
2059.00,0.0034
2058.00,0.0034
2057.00,0.0034
2056.00,0.0034
2055.00,0.0035
2054.00,0.0037
2053.00,0.0040
2052.00,0.0043
2051.00,0.0043
2050.00,0.0041
2049.00,0.0038
2048.00,0.0035
2047.00,0.0034
2046.00,0.0032
2045.00,0.0031
2044.00,0.0031
2043.00,0.0031
2042.00,0.0032
2041.00,0.0033
2040.00,0.0035
2039.00,0.0036
2038.00,0.0036
2037.00,0.0035
2036.00,0.0034
2035.00,0.0033
2034.00,0.0031
2033.00,0.0029
2032.00,0.0030
2031.00,0.0030
2030.00,0.0030
2029.00,0.0030
2028.00,0.0031
2027.00,0.0031
2026.00,0.0030
2025.00,0.0030
2024.00,0.0030
2023.00,0.0030
2022.00,0.0030
2021.00,0.0029
2020.00,0.0029
2019.00,0.0028
2018.00,0.0028
2017.00,0.0027
2016.00,0.0027
2015.00,0.0027
2014.00,0.0027
2013.00,0.0028
2012.00,0.0029
2011.00,0.0029
2010.00,0.0028
2009.00,0.0026
2008.00,0.0024
2007.00,0.0024
2006.00,0.0023
2005.00,0.0023
2004.00,0.0024
2003.00,0.0025
2002.00,0.0024
2001.00,0.0024
2000.00,0.0025
1999.00,0.0026
1998.00,0.0027
1997.00,0.0029
1996.00,0.0030
1995.00,0.0032
1994.00,0.0033
1993.00,0.0033
1992.00,0.0033
1991.00,0.0033
1990.00,0.0032
1989.00,0.0033
1988.00,0.0034
1987.00,0.0034
1986.00,0.0034
1985.00,0.0036
1984.00,0.0039
1983.00,0.0042
1982.00,0.0043
1981.00,0.0041
1980.00,0.0037
1979.00,0.0032
1978.00,0.0026
1977.00,0.0022
1976.00,0.0022
1975.00,0.0023
1974.00,0.0024
1973.00,0.0024
1972.00,0.0025
1971.00,0.0026
1970.00,0.0027
1969.00,0.0028
1968.00,0.0029
1967.00,0.0028
1966.00,0.0026
1965.00,0.0025
1964.00,0.0025
1963.00,0.0026
1962.00,0.0025
1961.00,0.0024
1960.00,0.0024
1959.00,0.0024
1958.00,0.0023
1957.00,0.0022
1956.00,0.0022
1955.00,0.0023
1954.00,0.0024
1953.00,0.0025
1952.00,0.0027
1951.00,0.0028
1950.00,0.0027
1949.00,0.0026
1948.00,0.0026
1947.00,0.0026
1946.00,0.0026
1945.00,0.0026
1944.00,0.0026
1943.00,0.0026
1942.00,0.0025
1941.00,0.0025
1940.00,0.0026
1939.00,0.0026
1938.00,0.0027
1937.00,0.0027
1936.00,0.0027
1935.00,0.0027
1934.00,0.0027
1933.00,0.0026
1932.00,0.0027
1931.00,0.0027
1930.00,0.0028
1929.00,0.0029
1928.00,0.0030
1927.00,0.0030
1926.00,0.0030
1925.00,0.0029
1924.00,0.0029
1923.00,0.0028
1922.00,0.0028
1921.00,0.0028
1920.00,0.0029
1919.00,0.0029
1918.00,0.0029
1917.00,0.0029
1916.00,0.0030
1915.00,0.0030
1914.00,0.0030
1913.00,0.0030
1912.00,0.0030
1911.00,0.0030
1910.00,0.0029
1909.00,0.0029
1908.00,0.0030
1907.00,0.0030
1906.00,0.0031
1905.00,0.0032
1904.00,0.0032
1903.00,0.0032
1902.00,0.0032
1901.00,0.0031
1900.00,0.0030
1899.00,0.0030
1898.00,0.0029
1897.00,0.0029
1896.00,0.0029
1895.00,0.0030
1894.00,0.0030
1893.00,0.0030
1892.00,0.0030
1891.00,0.0031
1890.00,0.0031
1889.00,0.0030
1888.00,0.0030
1887.00,0.0030
1886.00,0.0030
1885.00,0.0030
1884.00,0.0030
1883.00,0.0030
1882.00,0.0030
1881.00,0.0030
1880.00,0.0030
1879.00,0.0031
1878.00,0.0031
1877.00,0.0031
1876.00,0.0032
1875.00,0.0032
1874.00,0.0031
1873.00,0.0030
1872.00,0.0030
1871.00,0.0030
1870.00,0.0030
1869.00,0.0030
1868.00,0.0031
1867.00,0.0032
1866.00,0.0032
1865.00,0.0031
1864.00,0.0032
1863.00,0.0032
1862.00,0.0032
1861.00,0.0032
1860.00,0.0033
1859.00,0.0033
1858.00,0.0033
1857.00,0.0033
1856.00,0.0033
1855.00,0.0033
1854.00,0.0033
1853.00,0.0032
1852.00,0.0033
1851.00,0.0033
1850.00,0.0033
1849.00,0.0033
1848.00,0.0033
1847.00,0.0033
1846.00,0.0032
1845.00,0.0032
1844.00,0.0032
1843.00,0.0032
1842.00,0.0032
1841.00,0.0032
1840.00,0.0033
1839.00,0.0033
1838.00,0.0033
1837.00,0.0033
1836.00,0.0034
1835.00,0.0034
1834.00,0.0034
1833.00,0.0033
1832.00,0.0033
1831.00,0.0033
1830.00,0.0033
1829.00,0.0032
1828.00,0.0033
1827.00,0.0033
1826.00,0.0033
1825.00,0.0034
1824.00,0.0034
1823.00,0.0034
1822.00,0.0034
1821.00,0.0033
1820.00,0.0033
1819.00,0.0033
1818.00,0.0032
1817.00,0.0031
1816.00,0.0031
1815.00,0.0032
1814.00,0.0033
1813.00,0.0033
1812.00,0.0034
1811.00,0.0034
1810.00,0.0034
1809.00,0.0034
1808.00,0.0035
1807.00,0.0035
1806.00,0.0035
1805.00,0.0035
1804.00,0.0035
1803.00,0.0035
1802.00,0.0035
1801.00,0.0034
1800.00,0.0034
1799.00,0.0035
1798.00,0.0035
1797.00,0.0035
1796.00,0.0035
1795.00,0.0035
1794.00,0.0035
1793.00,0.0035
1792.00,0.0035
1791.00,0.0036
1790.00,0.0036
1789.00,0.0036
1788.00,0.0036
1787.00,0.0037
1786.00,0.0037
1785.00,0.0036
1784.00,0.0037
1783.00,0.0037
1782.00,0.0037
1781.00,0.0037
1780.00,0.0038
1779.00,0.0038
1778.00,0.0038
1777.00,0.0038
1776.00,0.0038
1775.00,0.0038
1774.00,0.0037
1773.00,0.0037
1772.00,0.0038
1771.00,0.0038
1770.00,0.0039
1769.00,0.0040
1768.00,0.0040
1767.00,0.0041
1766.00,0.0040
1765.00,0.0040
1764.00,0.0040
1763.00,0.0041
1762.00,0.0041
1761.00,0.0041
1760.00,0.0042
1759.00,0.0042
1758.00,0.0042
1757.00,0.0042
1756.00,0.0043
1755.00,0.0043
1754.00,0.0044
1753.00,0.0044
1752.00,0.0045
1751.00,0.0045
1750.00,0.0046
1749.00,0.0046
1748.00,0.0046
1747.00,0.0047
1746.00,0.0047
1745.00,0.0047
1744.00,0.0048
1743.00,0.0049
1742.00,0.0048
1741.00,0.0049
1740.00,0.0049
1739.00,0.0050
1738.00,0.0051
1737.00,0.0051
1736.00,0.0052
1735.00,0.0053
1734.00,0.0053
1733.00,0.0054
1732.00,0.0056
1731.00,0.0057
1730.00,0.0058
1729.00,0.0059
1728.00,0.0061
1727.00,0.0063
1726.00,0.0064
1725.00,0.0065
1724.00,0.0067
1723.00,0.0068
1722.00,0.0069
1721.00,0.0070
1720.00,0.0071
1719.00,0.0073
1718.00,0.0074
1717.00,0.0076
1716.00,0.0079
1715.00,0.0082
1714.00,0.0085
1713.00,0.0089
1712.00,0.0094
1711.00,0.0099
1710.00,0.0103
1709.00,0.0108
1708.00,0.0114
1707.00,0.0122
1706.00,0.0130
1705.00,0.0139
1704.00,0.0150
1703.00,0.0161
1702.00,0.0172
1701.00,0.0189
1700.00,0.0212
1699.00,0.0236
1698.00,0.0259
1697.00,0.0284
1696.00,0.0316
1695.00,0.0353
1694.00,0.0387
1693.00,0.0419
1692.00,0.0452
1691.00,0.0487
1690.00,0.0522
1689.00,0.0556
1688.00,0.0588
1687.00,0.0618
1686.00,0.0645
1685.00,0.0668
1684.00,0.0685
1683.00,0.0701
1682.00,0.0717
1681.00,0.0733
1680.00,0.0748
1679.00,0.0761
1678.00,0.0775
1677.00,0.0789
1676.00,0.0803
1675.00,0.0817
1674.00,0.0835
1673.00,0.0860
1672.00,0.0889
1671.00,0.0919
1670.00,0.0951
1669.00,0.0984
1668.00,0.1020
1667.00,0.1058
1666.00,0.1096
1665.00,0.1135
1664.00,0.1171
1663.00,0.1203
1662.00,0.1230
1661.00,0.1257
1660.00,0.1285
1659.00,0.1311
1658.00,0.1335
1657.00,0.1359
1656.00,0.1383
1655.00,0.1399
1654.00,0.1386
1653.00,0.1339
1652.00,0.1299
1651.00,0.1291
1650.00,0.1294
1649.00,0.1289
1648.00,0.1261
1647.00,0.1205
1646.00,0.1138
1645.00,0.1081
1644.00,0.1038
1643.00,0.1000
1642.00,0.0959
1641.00,0.0914
1640.00,0.0871
1639.00,0.0832
1638.00,0.0795
1637.00,0.0752
1636.00,0.0699
1635.00,0.0649
1634.00,0.0613
1633.00,0.0591
1632.00,0.0576
1631.00,0.0562
1630.00,0.0548
1629.00,0.0535
1628.00,0.0525
1627.00,0.0518
1626.00,0.0516
1625.00,0.0515
1624.00,0.0514
1623.00,0.0514
1622.00,0.0513
1621.00,0.0513
1620.00,0.0514
1619.00,0.0514
1618.00,0.0507
1617.00,0.0494
1616.00,0.0477
1615.00,0.0462
1614.00,0.0451
1613.00,0.0440
1612.00,0.0428
1611.00,0.0417
1610.00,0.0408
1609.00,0.0402
1608.00,0.0401
1607.00,0.0406
1606.00,0.0417
1605.00,0.0433
1604.00,0.0453
1603.00,0.0477
1602.00,0.0501
1601.00,0.0524
1600.00,0.0544
1599.00,0.0559
1598.00,0.0566
1597.00,0.0567
1596.00,0.0561
1595.00,0.0548
1594.00,0.0532
1593.00,0.0514
1592.00,0.0495
1591.00,0.0478
1590.00,0.0461
1589.00,0.0446
1588.00,0.0432
1587.00,0.0418
1586.00,0.0403
1585.00,0.0388
1584.00,0.0372
1583.00,0.0356
1582.00,0.0340
1581.00,0.0325
1580.00,0.0311
1579.00,0.0298
1578.00,0.0286
1577.00,0.0271
1576.00,0.0256
1575.00,0.0243
1574.00,0.0235
1573.00,0.0229
1572.00,0.0224
1571.00,0.0218
1570.00,0.0210
1569.00,0.0203
1568.00,0.0197
1567.00,0.0193
1566.00,0.0189
1565.00,0.0186
1564.00,0.0182
1563.00,0.0179
1562.00,0.0176
1561.00,0.0173
1560.00,0.0169
1559.00,0.0162
1558.00,0.0158
1557.00,0.0158
1556.00,0.0158
1555.00,0.0158
1554.00,0.0158
1553.00,0.0158
1552.00,0.0158
1551.00,0.0158
1550.00,0.0157
1549.00,0.0157
1548.00,0.0157
1547.00,0.0158
1546.00,0.0159
1545.00,0.0159
1544.00,0.0160
1543.00,0.0160
1542.00,0.0160
1541.00,0.0161
1540.00,0.0161
1539.00,0.0162
1538.00,0.0163
1537.00,0.0165
1536.00,0.0165
1535.00,0.0165
1534.00,0.0164
1533.00,0.0162
1532.00,0.0161
1531.00,0.0160
1530.00,0.0160
1529.00,0.0160
1528.00,0.0160
1527.00,0.0159
1526.00,0.0159
1525.00,0.0160
1524.00,0.0161
1523.00,0.0162
1522.00,0.0162
1521.00,0.0163
1520.00,0.0164
1519.00,0.0165
1518.00,0.0166
1517.00,0.0166
1516.00,0.0165
1515.00,0.0165
1514.00,0.0165
1513.00,0.0165
1512.00,0.0165
1511.00,0.0165
1510.00,0.0166
1509.00,0.0167
1508.00,0.0168
1507.00,0.0169
1506.00,0.0173
1505.00,0.0179
1504.00,0.0187
1503.00,0.0197
1502.00,0.0207
1501.00,0.0219
1500.00,0.0234
1499.00,0.0249
1498.00,0.0267
1497.00,0.0284
1496.00,0.0299
1495.00,0.0311
1494.00,0.0318
1493.00,0.0322
1492.00,0.0320
1491.00,0.0312
1490.00,0.0297
1489.00,0.0280
1488.00,0.0262
1487.00,0.0246
1486.00,0.0232
1485.00,0.0220
1484.00,0.0211
1483.00,0.0203
1482.00,0.0197
1481.00,0.0193
1480.00,0.0191
1479.00,0.0191
1478.00,0.0193
1477.00,0.0197
1476.00,0.0203
1475.00,0.0210
1474.00,0.0221
1473.00,0.0237
1472.00,0.0260
1471.00,0.0287
1470.00,0.0317
1469.00,0.0349
1468.00,0.0384
1467.00,0.0422
1466.00,0.0462
1465.00,0.0503
1464.00,0.0542
1463.00,0.0573
1462.00,0.0595
1461.00,0.0610
1460.00,0.0617
1459.00,0.0615
1458.00,0.0598
1457.00,0.0571
1456.00,0.0546
1455.00,0.0531
1454.00,0.0526
1453.00,0.0525
1452.00,0.0527
1451.00,0.0534
1450.00,0.0546
1449.00,0.0563
1448.00,0.0585
1447.00,0.0612
1446.00,0.0641
1445.00,0.0673
1444.00,0.0706
1443.00,0.0739
1442.00,0.0770
1441.00,0.0801
1440.00,0.0830
1439.00,0.0856
1438.00,0.0879
1437.00,0.0902
1436.00,0.0925
1435.00,0.0950
1434.00,0.0980
1433.00,0.1015
1432.00,0.1051
1431.00,0.1086
1430.00,0.1115
1429.00,0.1139
1428.00,0.1156
1427.00,0.1165
1426.00,0.1168
1425.00,0.1163
1424.00,0.1150
1423.00,0.1133
1422.00,0.1114
1421.00,0.1088
1420.00,0.1042
1419.00,0.0973
1418.00,0.0898
1417.00,0.0832
1416.00,0.0775
1415.00,0.0721
1414.00,0.0671
1413.00,0.0626
1412.00,0.0586
1411.00,0.0551
1410.00,0.0524
1409.00,0.0502
1408.00,0.0485
1407.00,0.0472
1406.00,0.0461
1405.00,0.0452
1404.00,0.0444
1403.00,0.0440
1402.00,0.0438
1401.00,0.0438
1400.00,0.0437
1399.00,0.0437
1398.00,0.0438
1397.00,0.0440
1396.00,0.0443
1395.00,0.0445
1394.00,0.0449
1393.00,0.0453
1392.00,0.0459
1391.00,0.0465
1390.00,0.0473
1389.00,0.0481
1388.00,0.0490
1387.00,0.0501
1386.00,0.0514
1385.00,0.0528
1384.00,0.0543
1383.00,0.0557
1382.00,0.0570
1381.00,0.0582
1380.00,0.0592
1379.00,0.0601
1378.00,0.0608
1377.00,0.0613
1376.00,0.0614
1375.00,0.0610
1374.00,0.0599
1373.00,0.0585
1372.00,0.0570
1371.00,0.0556
1370.00,0.0543
1369.00,0.0530
1368.00,0.0517
1367.00,0.0505
1366.00,0.0495
1365.00,0.0485
1364.00,0.0475
1363.00,0.0463
1362.00,0.0453
1361.00,0.0444
1360.00,0.0438
1359.00,0.0433
1358.00,0.0430
1357.00,0.0428
1356.00,0.0427
1355.00,0.0426
1354.00,0.0425
1353.00,0.0424
1352.00,0.0422
1351.00,0.0419
1350.00,0.0414
1349.00,0.0409
1348.00,0.0403
1347.00,0.0396
1346.00,0.0389
1345.00,0.0383
1344.00,0.0376
1343.00,0.0371
1342.00,0.0367
1341.00,0.0364
1340.00,0.0361
1339.00,0.0358
1338.00,0.0357
1337.00,0.0356
1336.00,0.0356
1335.00,0.0356
1334.00,0.0357
1333.00,0.0359
1332.00,0.0361
1331.00,0.0364
1330.00,0.0368
1329.00,0.0374
1328.00,0.0381
1327.00,0.0390
1326.00,0.0399
1325.00,0.0410
1324.00,0.0422
1323.00,0.0433
1322.00,0.0445
1321.00,0.0455
1320.00,0.0464
1319.00,0.0470
1318.00,0.0474
1317.00,0.0475
1316.00,0.0473
1315.00,0.0469
1314.00,0.0463
1313.00,0.0456
1312.00,0.0449
1311.00,0.0441
1310.00,0.0434
1309.00,0.0429
1308.00,0.0424
1307.00,0.0420
1306.00,0.0420
1305.00,0.0422
1304.00,0.0427
1303.00,0.0436
1302.00,0.0450
1301.00,0.0470
1300.00,0.0497
1299.00,0.0532
1298.00,0.0575
1297.00,0.0627
1296.00,0.0685
1295.00,0.0749
1294.00,0.0813
1293.00,0.0874
1292.00,0.0927
1291.00,0.0970
1290.00,0.1001
1289.00,0.1020
1288.00,0.1026
1287.00,0.1022
1286.00,0.1009
1285.00,0.0989
1284.00,0.0964
1283.00,0.0936
1282.00,0.0909
1281.00,0.0884
1280.00,0.0865
1279.00,0.0853
1278.00,0.0847
1277.00,0.0846
1276.00,0.0849
1275.00,0.0853
1274.00,0.0856
1273.00,0.0856
1272.00,0.0850
1271.00,0.0839
1270.00,0.0823
1269.00,0.0801
1268.00,0.0775
1267.00,0.0746
1266.00,0.0716
1265.00,0.0685
1264.00,0.0656
1263.00,0.0628
1262.00,0.0602
1261.00,0.0577
1260.00,0.0555
1259.00,0.0534
1258.00,0.0516
1257.00,0.0499
1256.00,0.0483
1255.00,0.0468
1254.00,0.0454
1253.00,0.0440
1252.00,0.0426
1251.00,0.0413
1250.00,0.0401
1249.00,0.0391
1248.00,0.0380
1247.00,0.0371
1246.00,0.0364
1245.00,0.0359
1244.00,0.0355
1243.00,0.0353
1242.00,0.0353
1241.00,0.0355
1240.00,0.0358
1239.00,0.0364
1238.00,0.0374
1237.00,0.0386
1236.00,0.0401
1235.00,0.0419
1234.00,0.0440
1233.00,0.0461
1232.00,0.0483
1231.00,0.0503
1230.00,0.0521
1229.00,0.0536
1228.00,0.0547
1227.00,0.0555
1226.00,0.0559
1225.00,0.0561
1224.00,0.0560
1223.00,0.0558
1222.00,0.0555
1221.00,0.0551
1220.00,0.0546
1219.00,0.0539
1218.00,0.0531
1217.00,0.0522
1216.00,0.0511
1215.00,0.0498
1214.00,0.0485
1213.00,0.0472
1212.00,0.0458
1211.00,0.0446
1210.00,0.0435
1209.00,0.0426
1208.00,0.0418
1207.00,0.0411
1206.00,0.0405
1205.00,0.0399
1204.00,0.0394
1203.00,0.0389
1202.00,0.0384
1201.00,0.0379
1200.00,0.0374
1199.00,0.0368
1198.00,0.0362
1197.00,0.0356
1196.00,0.0350
1195.00,0.0345
1194.00,0.0340
1193.00,0.0336
1192.00,0.0333
1191.00,0.0330
1190.00,0.0328
1189.00,0.0327
1188.00,0.0326
1187.00,0.0325
1186.00,0.0325
1185.00,0.0325
1184.00,0.0325
1183.00,0.0326
1182.00,0.0329
1181.00,0.0333
1180.00,0.0339
1179.00,0.0345
1178.00,0.0354
1177.00,0.0365
1176.00,0.0377
1175.00,0.0391
1174.00,0.0407
1173.00,0.0424
1172.00,0.0441
1171.00,0.0460
1170.00,0.0478
1169.00,0.0496
1168.00,0.0513
1167.00,0.0527
1166.00,0.0539
1165.00,0.0547
1164.00,0.0551
1163.00,0.0550
1162.00,0.0545
1161.00,0.0537
1160.00,0.0526
1159.00,0.0513
1158.00,0.0500
1157.00,0.0487
1156.00,0.0473
1155.00,0.0459
1154.00,0.0444
1153.00,0.0429
1152.00,0.0414
1151.00,0.0398
1150.00,0.0383
1149.00,0.0368
1148.00,0.0352
1147.00,0.0336
1146.00,0.0321
1145.00,0.0307
1144.00,0.0295
1143.00,0.0285
1142.00,0.0277
1141.00,0.0270
1140.00,0.0264
1139.00,0.0259
1138.00,0.0253
1137.00,0.0248
1136.00,0.0242
1135.00,0.0236
1134.00,0.0231
1133.00,0.0225
1132.00,0.0220
1131.00,0.0215
1130.00,0.0211
1129.00,0.0207
1128.00,0.0204
1127.00,0.0202
1126.00,0.0200
1125.00,0.0199
1124.00,0.0197
1123.00,0.0197
1122.00,0.0197
1121.00,0.0197
1120.00,0.0197
1119.00,0.0198
1118.00,0.0201
1117.00,0.0204
1116.00,0.0209
1115.00,0.0214
1114.00,0.0221
1113.00,0.0229
1112.00,0.0236
1111.00,0.0243
1110.00,0.0249
1109.00,0.0253
1108.00,0.0256
1107.00,0.0257
1106.00,0.0257
1105.00,0.0256
1104.00,0.0254
1103.00,0.0253
1102.00,0.0253
1101.00,0.0253
1100.00,0.0255
1099.00,0.0259
1098.00,0.0264
1097.00,0.0270
1096.00,0.0275
1095.00,0.0279
1094.00,0.0282
1093.00,0.0285
1092.00,0.0286
1091.00,0.0288
1090.00,0.0290
1089.00,0.0294
1088.00,0.0300
1087.00,0.0308
1086.00,0.0317
1085.00,0.0326
1084.00,0.0334
1083.00,0.0338
1082.00,0.0341
1081.00,0.0339
1080.00,0.0335
1079.00,0.0328
1078.00,0.0321
1077.00,0.0312
1076.00,0.0303
1075.00,0.0294
1074.00,0.0285
1073.00,0.0276
1072.00,0.0267
1071.00,0.0259
1070.00,0.0251
1069.00,0.0245
1068.00,0.0239
1067.00,0.0236
1066.00,0.0234
1065.00,0.0235
1064.00,0.0236
1063.00,0.0239
1062.00,0.0246
1061.00,0.0255
1060.00,0.0268
1059.00,0.0286
1058.00,0.0310
1057.00,0.0341
1056.00,0.0380
1055.00,0.0425
1054.00,0.0479
1053.00,0.0537
1052.00,0.0596
1051.00,0.0652
1050.00,0.0700
1049.00,0.0736
1048.00,0.0756
1047.00,0.0762
1046.00,0.0755
1045.00,0.0738
1044.00,0.0714
1043.00,0.0688
1042.00,0.0661
1041.00,0.0636
1040.00,0.0613
1039.00,0.0593
1038.00,0.0575
1037.00,0.0559
1036.00,0.0543
1035.00,0.0528
1034.00,0.0514
1033.00,0.0501
1032.00,0.0488
1031.00,0.0477
1030.00,0.0467
1029.00,0.0459
1028.00,0.0451
1027.00,0.0445
1026.00,0.0440
1025.00,0.0435
1024.00,0.0431
1023.00,0.0426
1022.00,0.0423
1021.00,0.0418
1020.00,0.0413
1019.00,0.0406
1018.00,0.0398
1017.00,0.0388
1016.00,0.0375
1015.00,0.0360
1014.00,0.0345
1013.00,0.0329
1012.00,0.0313
1011.00,0.0300
1010.00,0.0290
1009.00,0.0283
1008.00,0.0278
1007.00,0.0277
1006.00,0.0279
1005.00,0.0283
1004.00,0.0287
1003.00,0.0290
1002.00,0.0291
1001.00,0.0290
1000.00,0.0285
999.00,0.0279
998.00,0.0273
997.00,0.0267
996.00,0.0261
995.00,0.0257
994.00,0.0255
993.00,0.0254
992.00,0.0254
991.00,0.0255
990.00,0.0258
989.00,0.0262
988.00,0.0265
987.00,0.0268
986.00,0.0270
985.00,0.0270
984.00,0.0267
983.00,0.0264
982.00,0.0260
981.00,0.0255
980.00,0.0249
979.00,0.0245
978.00,0.0241
977.00,0.0237
976.00,0.0234
975.00,0.0230
974.00,0.0227
973.00,0.0224
972.00,0.0220
971.00,0.0216
970.00,0.0211
969.00,0.0207
968.00,0.0202
967.00,0.0197
966.00,0.0193
965.00,0.0189
964.00,0.0185
963.00,0.0182
962.00,0.0179
961.00,0.0175
960.00,0.0171
959.00,0.0166
958.00,0.0162
957.00,0.0159
956.00,0.0154
955.00,0.0151
954.00,0.0148
953.00,0.0146
952.00,0.0144
951.00,0.0141
950.00,0.0140
949.00,0.0139
948.00,0.0138
947.00,0.0137
946.00,0.0137
945.00,0.0137
944.00,0.0137
943.00,0.0138
942.00,0.0139
941.00,0.0141
940.00,0.0143
939.00,0.0145
938.00,0.0150
937.00,0.0155
936.00,0.0160
935.00,0.0166
934.00,0.0171
933.00,0.0175
932.00,0.0176
931.00,0.0174
930.00,0.0171
929.00,0.0168
928.00,0.0166
927.00,0.0165
926.00,0.0165
925.00,0.0167
924.00,0.0168
923.00,0.0170
922.00,0.0173
921.00,0.0176
920.00,0.0180
919.00,0.0184
918.00,0.0188
917.00,0.0193
916.00,0.0196
915.00,0.0199
914.00,0.0203
913.00,0.0208
912.00,0.0212
911.00,0.0216
910.00,0.0221
909.00,0.0226
908.00,0.0228
907.00,0.0230
906.00,0.0231
905.00,0.0230
904.00,0.0228
903.00,0.0225
902.00,0.0222
901.00,0.0220
900.00,0.0217
899.00,0.0215
898.00,0.0214
897.00,0.0214
896.00,0.0213
895.00,0.0212
894.00,0.0211
893.00,0.0209
892.00,0.0206
891.00,0.0203
890.00,0.0201
889.00,0.0200
888.00,0.0198
887.00,0.0197
886.00,0.0198
885.00,0.0199
884.00,0.0199
883.00,0.0200
882.00,0.0202
881.00,0.0204
880.00,0.0205
879.00,0.0207
878.00,0.0209
877.00,0.0210
876.00,0.0211
875.00,0.0212
874.00,0.0214
873.00,0.0216
872.00,0.0218
871.00,0.0220
870.00,0.0223
869.00,0.0226
868.00,0.0229
867.00,0.0233
866.00,0.0238
865.00,0.0243
864.00,0.0249
863.00,0.0256
862.00,0.0265
861.00,0.0274
860.00,0.0283
859.00,0.0293
858.00,0.0304
857.00,0.0316
856.00,0.0326
855.00,0.0337
854.00,0.0349
853.00,0.0361
852.00,0.0372
851.00,0.0383
850.00,0.0393
849.00,0.0402
848.00,0.0410
847.00,0.0417
846.00,0.0425
845.00,0.0431
844.00,0.0437
843.00,0.0443
842.00,0.0449
841.00,0.0455
840.00,0.0460
839.00,0.0465
838.00,0.0471
837.00,0.0477
836.00,0.0483
835.00,0.0490
834.00,0.0497
833.00,0.0503
832.00,0.0508
831.00,0.0512
830.00,0.0515
829.00,0.0517
828.00,0.0515
827.00,0.0511
826.00,0.0504
825.00,0.0494
824.00,0.0482
823.00,0.0467
822.00,0.0451
821.00,0.0435
820.00,0.0418
819.00,0.0401
818.00,0.0386
817.00,0.0372
816.00,0.0359
815.00,0.0346
814.00,0.0336
813.00,0.0326
812.00,0.0317
811.00,0.0308
810.00,0.0301
809.00,0.0295
808.00,0.0289
807.00,0.0285
806.00,0.0282
805.00,0.0279
804.00,0.0276
803.00,0.0274
802.00,0.0274
801.00,0.0275
800.00,0.0276
799.00,0.0279
798.00,0.0283
797.00,0.0287
796.00,0.0290
795.00,0.0294
794.00,0.0297
793.00,0.0299
792.00,0.0300
791.00,0.0301
790.00,0.0301
789.00,0.0302
788.00,0.0302
787.00,0.0303
786.00,0.0305
785.00,0.0307
784.00,0.0309
783.00,0.0312
782.00,0.0316
781.00,0.0320
780.00,0.0323
779.00,0.0325
778.00,0.0328
777.00,0.0330
776.00,0.0331
775.00,0.0331
774.00,0.0332
773.00,0.0332
772.00,0.0331
771.00,0.0331
770.00,0.0331
769.00,0.0331
768.00,0.0330
767.00,0.0330
766.00,0.0331
765.00,0.0332
764.00,0.0333
763.00,0.0335
762.00,0.0338
761.00,0.0343
760.00,0.0347
759.00,0.0352
758.00,0.0358
757.00,0.0365
756.00,0.0372
755.00,0.0380
754.00,0.0388
753.00,0.0396
752.00,0.0403
751.00,0.0411
750.00,0.0419
749.00,0.0428
748.00,0.0435
747.00,0.0442
746.00,0.0450
745.00,0.0458
744.00,0.0464
743.00,0.0470
742.00,0.0476
741.00,0.0481
740.00,0.0486
739.00,0.0489
738.00,0.0493
737.00,0.0495
736.00,0.0495
735.00,0.0493
734.00,0.0491
733.00,0.0487
732.00,0.0480
731.00,0.0472
730.00,0.0463
729.00,0.0453
728.00,0.0441
727.00,0.0430
726.00,0.0420
725.00,0.0410
724.00,0.0400
723.00,0.0392
722.00,0.0384
721.00,0.0378
720.00,0.0371
719.00,0.0365
718.00,0.0362
717.00,0.0360
716.00,0.0358
715.00,0.0356
714.00,0.0356
713.00,0.0355
712.00,0.0355
711.00,0.0355
710.00,0.0356
709.00,0.0357
708.00,0.0358
707.00,0.0358
706.00,0.0359
705.00,0.0360
704.00,0.0361
703.00,0.0362
702.00,0.0364
701.00,0.0366
700.00,0.0367
699.00,0.0369
698.00,0.0371
697.00,0.0374
696.00,0.0376
695.00,0.0378
694.00,0.0382
693.00,0.0385
692.00,0.0387
691.00,0.0390
690.00,0.0394
689.00,0.0398
688.00,0.0401
687.00,0.0405
686.00,0.0409
685.00,0.0414
684.00,0.0417
683.00,0.0421
682.00,0.0426
681.00,0.0430
680.00,0.0434
679.00,0.0438
678.00,0.0442
677.00,0.0446
676.00,0.0449
675.00,0.0452
674.00,0.0456
673.00,0.0461
672.00,0.0466
671.00,0.0471
670.00,0.0477
669.00,0.0483
668.00,0.0489
667.00,0.0493
666.00,0.0498
665.00,0.0504
664.00,0.0510
663.00,0.0517
662.00,0.0524
661.00,0.0531
660.00,0.0537
659.00,0.0543
658.00,0.0551
657.00,0.0558
656.00,0.0565
655.00,0.0572
654.00,0.0580
653.00,0.0586
652.00,0.0591
651.00,0.0594
650.00,0.0597
649.00,0.0598
648.00,0.0597
647.00,0.0594
646.00,0.0589
645.00,0.0583
644.00,0.0573
643.00,0.0562
642.00,0.0551
641.00,0.0540
640.00,0.0528
639.00,0.0517
638.00,0.0507
637.00,0.0498
636.00,0.0487
635.00,0.0477
634.00,0.0468
633.00,0.0460
632.00,0.0452
631.00,0.0445
630.00,0.0439
629.00,0.0432
628.00,0.0425
627.00,0.0420
626.00,0.0416
625.00,0.0412
624.00,0.0406
623.00,0.0400
622.00,0.0396
621.00,0.0393
620.00,0.0391
619.00,0.0389
618.00,0.0389
617.00,0.0390
616.00,0.0389
615.00,0.0389
614.00,0.0390
613.00,0.0390
612.00,0.0390
611.00,0.0391
610.00,0.0393
609.00,0.0396
608.00,0.0398
607.00,0.0400
606.00,0.0405
605.00,0.0411
604.00,0.0416
603.00,0.0421
602.00,0.0425
601.00,0.0428
600.00,0.0430
599.00,0.0432
598.00,0.0437
597.00,0.0441
596.00,0.0445
595.00,0.0448
594.00,0.0452
593.00,0.0456
592.00,0.0460
591.00,0.0463
590.00,0.0469
589.00,0.0475
588.00,0.0481
587.00,0.0489
586.00,0.0498
585.00,0.0509
584.00,0.0518
583.00,0.0527
582.00,0.0537
581.00,0.0546
580.00,0.0552
579.00,0.0555
578.00,0.0558
577.00,0.0559
576.00,0.0557
575.00,0.0554
574.00,0.0552
573.00,0.0549
572.00,0.0543
571.00,0.0536
570.00,0.0530
569.00,0.0525
568.00,0.0518
567.00,0.0513
566.00,0.0509
565.00,0.0504
564.00,0.0497
563.00,0.0488
562.00,0.0480
561.00,0.0471
560.00,0.0460
559.00,0.0449
558.00,0.0440
557.00,0.0431
556.00,0.0421
555.00,0.0412
554.00,0.0407
553.00,0.0404
552.00,0.0400
551.00,0.0395
550.00,0.0393
549.00,0.0389
548.00,0.0383
547.00,0.0379
546.00,0.0379
545.00,0.0380
544.00,0.0378
543.00,0.0377
542.00,0.0377
541.00,0.0377
540.00,0.0375
539.00,0.0374
538.00,0.0375
537.00,0.0374
536.00,0.0372
535.00,0.0371
534.00,0.0373
533.00,0.0374
532.00,0.0372
531.00,0.0370
530.00,0.0370
529.00,0.0370
528.00,0.0368
527.00,0.0365
526.00,0.0365
525.00,0.0363
524.00,0.0358
523.00,0.0355
522.00,0.0354
521.00,0.0354
520.00,0.0351
519.00,0.0348
518.00,0.0347
517.00,0.0346
516.00,0.0343
515.00,0.0341
514.00,0.0342
513.00,0.0342
512.00,0.0340
511.00,0.0337
510.00,0.0338
509.00,0.0337
508.00,0.0333
507.00,0.0329
506.00,0.0329
505.00,0.0329
504.00,0.0327
503.00,0.0327
502.00,0.0331
501.00,0.0334
500.00,0.0333
499.00,0.0332
498.00,0.0334
497.00,0.0335
496.00,0.0335
495.00,0.0335
494.00,0.0339
493.00,0.0342
492.00,0.0341
491.00,0.0341
490.00,0.0344
489.00,0.0345
488.00,0.0343
487.00,0.0343
486.00,0.0347
485.00,0.0351
484.00,0.0350
483.00,0.0347
482.00,0.0347
481.00,0.0348
480.00,0.0345
479.00,0.0344
478.00,0.0348
477.00,0.0351
476.00,0.0350
475.00,0.0349
474.00,0.0354
473.00,0.0359
472.00,0.0359
471.00,0.0357
470.00,0.0359
469.00,0.0358
468.00,0.0354
467.00,0.0352
466.00,0.0355
465.00,0.0358
464.00,0.0357
463.00,0.0358
462.00,0.0364
461.00,0.0369
460.00,0.0368
459.00,0.0368
458.00,0.0372
457.00,0.0376
456.00,0.0375
455.00,0.0376
454.00,0.0383
453.00,0.0388
452.00,0.0387
451.00,0.0384
450.00,0.0385
449.00,0.0384
448.00,0.0376
447.00,0.0370
446.00,0.0370
445.00,0.0371
444.00,0.0366
443.00,0.0360
442.00,0.0360
441.00,0.0360
440.00,0.0356
439.00,0.0354
438.00,0.0357
437.00,0.0357
436.00,0.0348
435.00,0.0339
434.00,0.0337
433.00,0.0336
432.00,0.0330
431.00,0.0328
430.00,0.0333
429.00,0.0335
428.00,0.0330
427.00,0.0325
426.00,0.0330
425.00,0.0334
424.00,0.0328
423.00,0.0322
422.00,0.0324
421.00,0.0327
420.00,0.0319
419.00,0.0314
418.00,0.0321
417.00,0.0327
416.00,0.0322
415.00,0.0319
414.00,0.0327
413.00,0.0333
412.00,0.0324
411.00,0.0315
410.00,0.0321
409.00,0.0334
408.00,0.0338
407.00,0.0340
406.00,0.0348
405.00,0.0348
404.00,0.0334
403.00,0.0325
402.00,0.0337
401.00,0.0351
400.00,0.0348
