Created as New Dataset,Sample 236 By YargerLab Date Sunday, October 05 2025
cm-1,A
4000.00,0.0015
3999.00,0.0015
3998.00,0.0014
3997.00,0.0014
3996.00,0.0014
3995.00,0.0014
3994.00,0.0014
3993.00,0.0014
3992.00,0.0015
3991.00,0.0015
3990.00,0.0014
3989.00,0.0014
3988.00,0.0014
3987.00,0.0014
3986.00,0.0014
3985.00,0.0014
3984.00,0.0014
3983.00,0.0014
3982.00,0.0014
3981.00,0.0014
3980.00,0.0014
3979.00,0.0014
3978.00,0.0014
3977.00,0.0014
3976.00,0.0014
3975.00,0.0014
3974.00,0.0015
3973.00,0.0015
3972.00,0.0014
3971.00,0.0014
3970.00,0.0014
3969.00,0.0013
3968.00,0.0013
3967.00,0.0013
3966.00,0.0013
3965.00,0.0013
3964.00,0.0013
3963.00,0.0014
3962.00,0.0014
3961.00,0.0013
3960.00,0.0013
3959.00,0.0014
3958.00,0.0014
3957.00,0.0014
3956.00,0.0014
3955.00,0.0014
3954.00,0.0014
3953.00,0.0014
3952.00,0.0014
3951.00,0.0014
3950.00,0.0014
3949.00,0.0013
3948.00,0.0013
3947.00,0.0013
3946.00,0.0013
3945.00,0.0014
3944.00,0.0013
3943.00,0.0013
3942.00,0.0013
3941.00,0.0013
3940.00,0.0013
3939.00,0.0013
3938.00,0.0013
3937.00,0.0013
3936.00,0.0013
3935.00,0.0013
3934.00,0.0013
3933.00,0.0013
3932.00,0.0013
3931.00,0.0013
3930.00,0.0013
3929.00,0.0013
3928.00,0.0013
3927.00,0.0013
3926.00,0.0013
3925.00,0.0013
3924.00,0.0013
3923.00,0.0013
3922.00,0.0013
3921.00,0.0013
3920.00,0.0013
3919.00,0.0013
3918.00,0.0012
3917.00,0.0012
3916.00,0.0012
3915.00,0.0012
3914.00,0.0012
3913.00,0.0012
3912.00,0.0012
3911.00,0.0013
3910.00,0.0013
3909.00,0.0013
3908.00,0.0013
3907.00,0.0012
3906.00,0.0012
3905.00,0.0012
3904.00,0.0013
3903.00,0.0013
3902.00,0.0013
3901.00,0.0013
3900.00,0.0013
3899.00,0.0012
3898.00,0.0012
3897.00,0.0012
3896.00,0.0012
3895.00,0.0012
3894.00,0.0012
3893.00,0.0012
3892.00,0.0013
3891.00,0.0013
3890.00,0.0013
3889.00,0.0013
3888.00,0.0013
3887.00,0.0013
3886.00,0.0013
3885.00,0.0013
3884.00,0.0013
3883.00,0.0013
3882.00,0.0013
3881.00,0.0013
3880.00,0.0013
3879.00,0.0013
3878.00,0.0013
3877.00,0.0013
3876.00,0.0012
3875.00,0.0013
3874.00,0.0013
3873.00,0.0013
3872.00,0.0013
3871.00,0.0013
3870.00,0.0013
3869.00,0.0013
3868.00,0.0013
3867.00,0.0013
3866.00,0.0013
3865.00,0.0013
3864.00,0.0012
3863.00,0.0013
3862.00,0.0013
3861.00,0.0013
3860.00,0.0013
3859.00,0.0013
3858.00,0.0013
3857.00,0.0014
3856.00,0.0014
3855.00,0.0014
3854.00,0.0013
3853.00,0.0013
3852.00,0.0014
3851.00,0.0014
3850.00,0.0013
3849.00,0.0013
3848.00,0.0012
3847.00,0.0012
3846.00,0.0012
3845.00,0.0013
3844.00,0.0013
3843.00,0.0013
3842.00,0.0013
3841.00,0.0013
3840.00,0.0013
3839.00,0.0014
3838.00,0.0014
3837.00,0.0014
3836.00,0.0014
3835.00,0.0014
3834.00,0.0013
3833.00,0.0013
3832.00,0.0013
3831.00,0.0013
3830.00,0.0013
3829.00,0.0013
3828.00,0.0012
3827.00,0.0012
3826.00,0.0013
3825.00,0.0013
3824.00,0.0013
3823.00,0.0013
3822.00,0.0013
3821.00,0.0013
3820.00,0.0013
3819.00,0.0014
3818.00,0.0014
3817.00,0.0013
3816.00,0.0013
3815.00,0.0013
3814.00,0.0013
3813.00,0.0013
3812.00,0.0012
3811.00,0.0012
3810.00,0.0012
3809.00,0.0012
3808.00,0.0012
3807.00,0.0012
3806.00,0.0012
3805.00,0.0013
3804.00,0.0013
3803.00,0.0013
3802.00,0.0013
3801.00,0.0013
3800.00,0.0013
3799.00,0.0013
3798.00,0.0012
3797.00,0.0012
3796.00,0.0012
3795.00,0.0012
3794.00,0.0012
3793.00,0.0012
3792.00,0.0012
3791.00,0.0012
3790.00,0.0011
3789.00,0.0011
3788.00,0.0011
3787.00,0.0011
3786.00,0.0011
3785.00,0.0011
3784.00,0.0011
3783.00,0.0011
3782.00,0.0011
3781.00,0.0011
3780.00,0.0011
3779.00,0.0011
3778.00,0.0011
3777.00,0.0012
3776.00,0.0011
3775.00,0.0011
3774.00,0.0012
3773.00,0.0012
3772.00,0.0012
3771.00,0.0012
3770.00,0.0012
3769.00,0.0011
3768.00,0.0011
3767.00,0.0011
3766.00,0.0011
3765.00,0.0011
3764.00,0.0011
3763.00,0.0011
3762.00,0.0011
3761.00,0.0011
3760.00,0.0011
3759.00,0.0011
3758.00,0.0011
3757.00,0.0011
3756.00,0.0012
3755.00,0.0012
3754.00,0.0012
3753.00,0.0012
3752.00,0.0012
3751.00,0.0013
3750.00,0.0013
3749.00,0.0013
3748.00,0.0013
3747.00,0.0013
3746.00,0.0013
3745.00,0.0012
3744.00,0.0012
3743.00,0.0012
3742.00,0.0012
3741.00,0.0011
3740.00,0.0011
3739.00,0.0010
3738.00,0.0011
3737.00,0.0011
3736.00,0.0011
3735.00,0.0010
3734.00,0.0010
3733.00,0.0010
3732.00,0.0010
3731.00,0.0010
3730.00,0.0010
3729.00,0.0009
3728.00,0.0009
3727.00,0.0009
3726.00,0.0009
3725.00,0.0009
3724.00,0.0009
3723.00,0.0009
3722.00,0.0009
3721.00,0.0009
3720.00,0.0009
3719.00,0.0009
3718.00,0.0010
3717.00,0.0010
3716.00,0.0010
3715.00,0.0010
3714.00,0.0010
3713.00,0.0010
3712.00,0.0010
3711.00,0.0010
3710.00,0.0010
3709.00,0.0010
3708.00,0.0010
3707.00,0.0010
3706.00,0.0009
3705.00,0.0009
3704.00,0.0009
3703.00,0.0009
3702.00,0.0009
3701.00,0.0010
3700.00,0.0010
3699.00,0.0010
3698.00,0.0010
3697.00,0.0010
3696.00,0.0010
3695.00,0.0010
3694.00,0.0010
3693.00,0.0011
3692.00,0.0011
3691.00,0.0011
3690.00,0.0011
3689.00,0.0011
3688.00,0.0012
3687.00,0.0012
3686.00,0.0012
3685.00,0.0012
3684.00,0.0012
3683.00,0.0012
3682.00,0.0012
3681.00,0.0012
3680.00,0.0013
3679.00,0.0013
3678.00,0.0014
3677.00,0.0014
3676.00,0.0014
3675.00,0.0014
3674.00,0.0014
3673.00,0.0015
3672.00,0.0014
3671.00,0.0014
3670.00,0.0014
3669.00,0.0014
3668.00,0.0014
3667.00,0.0013
3666.00,0.0013
3665.00,0.0012
3664.00,0.0012
3663.00,0.0012
3662.00,0.0012
3661.00,0.0012
3660.00,0.0012
3659.00,0.0013
3658.00,0.0013
3657.00,0.0013
3656.00,0.0013
3655.00,0.0014
3654.00,0.0014
3653.00,0.0015
3652.00,0.0015
3651.00,0.0015
3650.00,0.0015
3649.00,0.0016
3648.00,0.0016
3647.00,0.0017
3646.00,0.0017
3645.00,0.0016
3644.00,0.0016
3643.00,0.0016
3642.00,0.0016
3641.00,0.0017
3640.00,0.0017
3639.00,0.0017
3638.00,0.0017
3637.00,0.0018
3636.00,0.0018
3635.00,0.0018
3634.00,0.0019
3633.00,0.0020
3632.00,0.0021
3631.00,0.0022
3630.00,0.0022
3629.00,0.0022
3628.00,0.0022
3627.00,0.0023
3626.00,0.0023
3625.00,0.0023
3624.00,0.0023
3623.00,0.0024
3622.00,0.0024
3621.00,0.0025
3620.00,0.0025
3619.00,0.0026
3618.00,0.0027
3617.00,0.0027
3616.00,0.0028
3615.00,0.0028
3614.00,0.0028
3613.00,0.0029
3612.00,0.0030
3611.00,0.0030
3610.00,0.0031
3609.00,0.0031
3608.00,0.0031
3607.00,0.0032
3606.00,0.0032
3605.00,0.0033
3604.00,0.0033
3603.00,0.0033
3602.00,0.0034
3601.00,0.0034
3600.00,0.0035
3599.00,0.0035
3598.00,0.0036
3597.00,0.0036
3596.00,0.0037
3595.00,0.0037
3594.00,0.0037
3593.00,0.0038
3592.00,0.0039
3591.00,0.0040
3590.00,0.0040
3589.00,0.0040
3588.00,0.0041
3587.00,0.0041
3586.00,0.0042
3585.00,0.0042
3584.00,0.0043
3583.00,0.0044
3582.00,0.0045
3581.00,0.0046
3580.00,0.0047
3579.00,0.0047
3578.00,0.0048
3577.00,0.0048
3576.00,0.0049
3575.00,0.0050
3574.00,0.0051
3573.00,0.0052
3572.00,0.0052
3571.00,0.0053
3570.00,0.0053
3569.00,0.0054
3568.00,0.0055
3567.00,0.0056
3566.00,0.0057
3565.00,0.0058
3564.00,0.0058
3563.00,0.0059
3562.00,0.0060
3561.00,0.0061
3560.00,0.0062
3559.00,0.0063
3558.00,0.0064
3557.00,0.0065
3556.00,0.0066
3555.00,0.0067
3554.00,0.0067
3553.00,0.0068
3552.00,0.0069
3551.00,0.0070
3550.00,0.0072
3549.00,0.0073
3548.00,0.0074
3547.00,0.0075
3546.00,0.0076
3545.00,0.0077
3544.00,0.0078
3543.00,0.0078
3542.00,0.0079
3541.00,0.0080
3540.00,0.0081
3539.00,0.0083
3538.00,0.0084
3537.00,0.0085
3536.00,0.0086
3535.00,0.0088
3534.00,0.0089
3533.00,0.0090
3532.00,0.0091
3531.00,0.0092
3530.00,0.0094
3529.00,0.0095
3528.00,0.0096
3527.00,0.0098
3526.00,0.0099
3525.00,0.0100
3524.00,0.0101
3523.00,0.0103
3522.00,0.0104
3521.00,0.0105
3520.00,0.0106
3519.00,0.0107
3518.00,0.0109
3517.00,0.0110
3516.00,0.0111
3515.00,0.0113
3514.00,0.0114
3513.00,0.0115
3512.00,0.0116
3511.00,0.0118
3510.00,0.0119
3509.00,0.0121
3508.00,0.0122
3507.00,0.0124
3506.00,0.0125
3505.00,0.0126
3504.00,0.0128
3503.00,0.0130
3502.00,0.0131
3501.00,0.0132
3500.00,0.0134
3499.00,0.0135
3498.00,0.0137
3497.00,0.0138
3496.00,0.0140
3495.00,0.0142
3494.00,0.0143
3493.00,0.0144
3492.00,0.0146
3491.00,0.0147
3490.00,0.0149
3489.00,0.0151
3488.00,0.0152
3487.00,0.0154
3486.00,0.0155
3485.00,0.0157
3484.00,0.0159
3483.00,0.0161
3482.00,0.0163
3481.00,0.0165
3480.00,0.0166
3479.00,0.0168
3478.00,0.0170
3477.00,0.0171
3476.00,0.0173
3475.00,0.0174
3474.00,0.0176
3473.00,0.0178
3472.00,0.0180
3471.00,0.0181
3470.00,0.0183
3469.00,0.0185
3468.00,0.0187
3467.00,0.0189
3466.00,0.0191
3465.00,0.0193
3464.00,0.0195
3463.00,0.0197
3462.00,0.0199
3461.00,0.0201
3460.00,0.0203
3459.00,0.0205
3458.00,0.0207
3457.00,0.0209
3456.00,0.0210
3455.00,0.0212
3454.00,0.0214
3453.00,0.0216
3452.00,0.0218
3451.00,0.0220
3450.00,0.0222
3449.00,0.0225
3448.00,0.0227
3447.00,0.0230
3446.00,0.0232
3445.00,0.0234
3444.00,0.0236
3443.00,0.0238
3442.00,0.0241
3441.00,0.0243
3440.00,0.0245
3439.00,0.0248
3438.00,0.0250
3437.00,0.0252
3436.00,0.0254
3435.00,0.0256
3434.00,0.0259
3433.00,0.0261
3432.00,0.0263
3431.00,0.0266
3430.00,0.0268
3429.00,0.0271
3428.00,0.0274
3427.00,0.0276
3426.00,0.0279
3425.00,0.0281
3424.00,0.0284
3423.00,0.0287
3422.00,0.0290
3421.00,0.0293
3420.00,0.0296
3419.00,0.0298
3418.00,0.0301
3417.00,0.0304
3416.00,0.0306
3415.00,0.0309
3414.00,0.0312
3413.00,0.0315
3412.00,0.0318
3411.00,0.0321
3410.00,0.0324
3409.00,0.0327
3408.00,0.0330
3407.00,0.0333
3406.00,0.0335
3405.00,0.0338
3404.00,0.0341
3403.00,0.0344
3402.00,0.0348
3401.00,0.0351
3400.00,0.0354
3399.00,0.0357
3398.00,0.0361
3397.00,0.0364
3396.00,0.0367
3395.00,0.0370
3394.00,0.0373
3393.00,0.0376
3392.00,0.0379
3391.00,0.0382
3390.00,0.0386
3389.00,0.0389
3388.00,0.0393
3387.00,0.0397
3386.00,0.0400
3385.00,0.0403
3384.00,0.0406
3383.00,0.0409
3382.00,0.0412
3381.00,0.0415
3380.00,0.0418
3379.00,0.0422
3378.00,0.0425
3377.00,0.0429
3376.00,0.0432
3375.00,0.0435
3374.00,0.0438
3373.00,0.0441
3372.00,0.0443
3371.00,0.0446
3370.00,0.0449
3369.00,0.0451
3368.00,0.0455
3367.00,0.0458
3366.00,0.0462
3365.00,0.0465
3364.00,0.0469
3363.00,0.0472
3362.00,0.0475
3361.00,0.0478
3360.00,0.0481
3359.00,0.0484
3358.00,0.0487
3357.00,0.0490
3356.00,0.0493
3355.00,0.0496
3354.00,0.0498
3353.00,0.0500
3352.00,0.0502
3351.00,0.0504
3350.00,0.0507
3349.00,0.0511
3348.00,0.0514
3347.00,0.0517
3346.00,0.0519
3345.00,0.0522
3344.00,0.0524
3343.00,0.0526
3342.00,0.0528
3341.00,0.0530
3340.00,0.0532
3339.00,0.0534
3338.00,0.0537
3337.00,0.0541
3336.00,0.0544
3335.00,0.0548
3334.00,0.0551
3333.00,0.0553
3332.00,0.0556
3331.00,0.0558
3330.00,0.0560
3329.00,0.0561
3328.00,0.0563
3327.00,0.0564
3326.00,0.0565
3325.00,0.0568
3324.00,0.0571
3323.00,0.0574
3322.00,0.0576
3321.00,0.0579
3320.00,0.0581
3319.00,0.0584
3318.00,0.0586
3317.00,0.0588
3316.00,0.0589
3315.00,0.0591
3314.00,0.0592
3313.00,0.0593
3312.00,0.0594
3311.00,0.0594
3310.00,0.0593
3309.00,0.0593
3308.00,0.0593
3307.00,0.0593
3306.00,0.0595
3305.00,0.0598
3304.00,0.0602
3303.00,0.0605
3302.00,0.0608
3301.00,0.0610
3300.00,0.0611
3299.00,0.0612
3298.00,0.0612
3297.00,0.0612
3296.00,0.0612
3295.00,0.0612
3294.00,0.0613
3293.00,0.0614
3292.00,0.0616
3291.00,0.0618
3290.00,0.0620
3289.00,0.0622
3288.00,0.0623
3287.00,0.0624
3286.00,0.0624
3285.00,0.0625
3284.00,0.0625
3283.00,0.0626
3282.00,0.0626
3281.00,0.0627
3280.00,0.0627
3279.00,0.0627
3278.00,0.0627
3277.00,0.0627
3276.00,0.0627
3275.00,0.0627
3274.00,0.0626
3273.00,0.0626
3272.00,0.0625
3271.00,0.0626
3270.00,0.0626
3269.00,0.0627
3268.00,0.0628
3267.00,0.0629
3266.00,0.0629
3265.00,0.0629
3264.00,0.0629
3263.00,0.0629
3262.00,0.0629
3261.00,0.0629
3260.00,0.0628
3259.00,0.0628
3258.00,0.0628
3257.00,0.0628
3256.00,0.0628
3255.00,0.0628
3254.00,0.0628
3253.00,0.0628
3252.00,0.0628
3251.00,0.0627
3250.00,0.0626
3249.00,0.0625
3248.00,0.0624
3247.00,0.0624
3246.00,0.0623
3245.00,0.0623
3244.00,0.0624
3243.00,0.0624
3242.00,0.0623
3241.00,0.0623
3240.00,0.0622
3239.00,0.0622
3238.00,0.0621
3237.00,0.0620
3236.00,0.0619
3235.00,0.0617
3234.00,0.0616
3233.00,0.0615
3232.00,0.0615
3231.00,0.0615
3230.00,0.0614
3229.00,0.0613
3228.00,0.0612
3227.00,0.0611
3226.00,0.0611
3225.00,0.0610
3224.00,0.0609
3223.00,0.0608
3222.00,0.0608
3221.00,0.0607
3220.00,0.0606
3219.00,0.0606
3218.00,0.0605
3217.00,0.0605
3216.00,0.0604
3215.00,0.0604
3214.00,0.0604
3213.00,0.0604
3212.00,0.0603
3211.00,0.0603
3210.00,0.0602
3209.00,0.0602
3208.00,0.0601
3207.00,0.0601
3206.00,0.0600
3205.00,0.0599
3204.00,0.0599
3203.00,0.0597
3202.00,0.0596
3201.00,0.0595
3200.00,0.0594
3199.00,0.0593
3198.00,0.0591
3197.00,0.0589
3196.00,0.0588
3195.00,0.0586
3194.00,0.0584
3193.00,0.0583
3192.00,0.0581
3191.00,0.0579
3190.00,0.0577
3189.00,0.0575
3188.00,0.0573
3187.00,0.0571
3186.00,0.0569
3185.00,0.0567
3184.00,0.0565
3183.00,0.0563
3182.00,0.0560
3181.00,0.0558
3180.00,0.0556
3179.00,0.0553
3178.00,0.0551
3177.00,0.0549
3176.00,0.0547
3175.00,0.0544
3174.00,0.0542
3173.00,0.0539
3172.00,0.0537
3171.00,0.0534
3170.00,0.0531
3169.00,0.0528
3168.00,0.0526
3167.00,0.0523
3166.00,0.0520
3165.00,0.0518
3164.00,0.0515
3163.00,0.0512
3162.00,0.0509
3161.00,0.0507
3160.00,0.0504
3159.00,0.0501
3158.00,0.0499
3157.00,0.0496
3156.00,0.0493
3155.00,0.0491
3154.00,0.0488
3153.00,0.0485
3152.00,0.0482
3151.00,0.0480
3150.00,0.0478
3149.00,0.0475
3148.00,0.0473
3147.00,0.0471
3146.00,0.0468
3145.00,0.0466
3144.00,0.0464
3143.00,0.0462
3142.00,0.0460
3141.00,0.0458
3140.00,0.0456
3139.00,0.0454
3138.00,0.0452
3137.00,0.0450
3136.00,0.0448
3135.00,0.0447
3134.00,0.0445
3133.00,0.0443
3132.00,0.0441
3131.00,0.0439
3130.00,0.0437
3129.00,0.0435
3128.00,0.0432
3127.00,0.0430
3126.00,0.0428
3125.00,0.0425
3124.00,0.0423
3123.00,0.0420
3122.00,0.0418
3121.00,0.0415
3120.00,0.0412
3119.00,0.0410
3118.00,0.0407
3117.00,0.0404
3116.00,0.0401
3115.00,0.0399
3114.00,0.0396
3113.00,0.0393
3112.00,0.0390
3111.00,0.0387
3110.00,0.0385
3109.00,0.0382
3108.00,0.0379
3107.00,0.0377
3106.00,0.0374
3105.00,0.0371
3104.00,0.0369
3103.00,0.0366
3102.00,0.0363
3101.00,0.0361
3100.00,0.0358
3099.00,0.0355
3098.00,0.0353
3097.00,0.0350
3096.00,0.0348
3095.00,0.0345
3094.00,0.0343
3093.00,0.0340
3092.00,0.0338
3091.00,0.0335
3090.00,0.0333
3089.00,0.0331
3088.00,0.0328
3087.00,0.0326
3086.00,0.0324
3085.00,0.0322
3084.00,0.0320
3083.00,0.0318
3082.00,0.0316
3081.00,0.0314
3080.00,0.0312
3079.00,0.0310
3078.00,0.0309
3077.00,0.0307
3076.00,0.0306
3075.00,0.0304
3074.00,0.0303
3073.00,0.0301
3072.00,0.0299
3071.00,0.0298
3070.00,0.0296
3069.00,0.0295
3068.00,0.0294
3067.00,0.0293
3066.00,0.0292
3065.00,0.0291
3064.00,0.0291
3063.00,0.0290
3062.00,0.0290
3061.00,0.0289
3060.00,0.0288
3059.00,0.0287
3058.00,0.0287
3057.00,0.0286
3056.00,0.0286
3055.00,0.0285
3054.00,0.0284
3053.00,0.0284
3052.00,0.0283
3051.00,0.0282
3050.00,0.0280
3049.00,0.0279
3048.00,0.0278
3047.00,0.0276
3046.00,0.0275
3045.00,0.0273
3044.00,0.0272
3043.00,0.0271
3042.00,0.0270
3041.00,0.0270
3040.00,0.0269
3039.00,0.0269
3038.00,0.0268
3037.00,0.0268
3036.00,0.0268
3035.00,0.0268
3034.00,0.0269
3033.00,0.0269
3032.00,0.0269
3031.00,0.0270
3030.00,0.0270
3029.00,0.0271
3028.00,0.0271
3027.00,0.0270
3026.00,0.0270
3025.00,0.0269
3024.00,0.0269
3023.00,0.0268
3022.00,0.0268
3021.00,0.0267
3020.00,0.0267
3019.00,0.0267
3018.00,0.0267
3017.00,0.0267
3016.00,0.0267
3015.00,0.0268
3014.00,0.0269
3013.00,0.0270
3012.00,0.0272
3011.00,0.0274
3010.00,0.0277
3009.00,0.0280
3008.00,0.0283
3007.00,0.0286
3006.00,0.0290
3005.00,0.0294
3004.00,0.0299
3003.00,0.0304
3002.00,0.0310
3001.00,0.0317
3000.00,0.0324
2999.00,0.0331
2998.00,0.0339
2997.00,0.0348
2996.00,0.0358
2995.00,0.0367
2994.00,0.0377
2993.00,0.0388
2992.00,0.0399
2991.00,0.0410
2990.00,0.0421
2989.00,0.0432
2988.00,0.0443
2987.00,0.0453
2986.00,0.0463
2985.00,0.0472
2984.00,0.0479
2983.00,0.0487
2982.00,0.0494
2981.00,0.0503
2980.00,0.0512
2979.00,0.0522
2978.00,0.0533
2977.00,0.0544
2976.00,0.0556
2975.00,0.0568
2974.00,0.0581
2973.00,0.0595
2972.00,0.0611
2971.00,0.0627
2970.00,0.0645
2969.00,0.0665
2968.00,0.0685
2967.00,0.0705
2966.00,0.0724
2965.00,0.0743
2964.00,0.0761
2963.00,0.0777
2962.00,0.0792
2961.00,0.0806
2960.00,0.0817
2959.00,0.0826
2958.00,0.0832
2957.00,0.0835
2956.00,0.0836
2955.00,0.0834
2954.00,0.0830
2953.00,0.0823
2952.00,0.0815
2951.00,0.0806
2950.00,0.0797
2949.00,0.0790
2948.00,0.0785
2947.00,0.0782
2946.00,0.0783
2945.00,0.0788
2944.00,0.0797
2943.00,0.0809
2942.00,0.0825
2941.00,0.0844
2940.00,0.0866
2939.00,0.0890
2938.00,0.0917
2937.00,0.0945
2936.00,0.0974
2935.00,0.1003
2934.00,0.1032
2933.00,0.1060
2932.00,0.1086
2931.00,0.1110
2930.00,0.1131
2929.00,0.1150
2928.00,0.1166
2927.00,0.1180
2926.00,0.1190
2925.00,0.1198
2924.00,0.1204
2923.00,0.1208
2922.00,0.1211
2921.00,0.1212
2920.00,0.1212
2919.00,0.1209
2918.00,0.1203
2917.00,0.1193
2916.00,0.1178
2915.00,0.1158
2914.00,0.1135
2913.00,0.1109
2912.00,0.1083
2911.00,0.1057
2910.00,0.1032
2909.00,0.1008
2908.00,0.0985
2907.00,0.0963
2906.00,0.0942
2905.00,0.0922
2904.00,0.0903
2903.00,0.0886
2902.00,0.0870
2901.00,0.0855
2900.00,0.0841
2899.00,0.0828
2898.00,0.0816
2897.00,0.0804
2896.00,0.0794
2895.00,0.0784
2894.00,0.0774
2893.00,0.0764
2892.00,0.0754
2891.00,0.0745
2890.00,0.0735
2889.00,0.0726
2888.00,0.0717
2887.00,0.0708
2886.00,0.0701
2885.00,0.0694
2884.00,0.0687
2883.00,0.0682
2882.00,0.0678
2881.00,0.0675
2880.00,0.0674
2879.00,0.0675
2878.00,0.0677
2877.00,0.0681
2876.00,0.0685
2875.00,0.0690
2874.00,0.0695
2873.00,0.0700
2872.00,0.0704
2871.00,0.0706
2870.00,0.0706
2869.00,0.0704
2868.00,0.0703
2867.00,0.0703
2866.00,0.0705
2865.00,0.0710
2864.00,0.0718
2863.00,0.0729
2862.00,0.0742
2861.00,0.0757
2860.00,0.0772
2859.00,0.0786
2858.00,0.0798
2857.00,0.0806
2856.00,0.0810
2855.00,0.0810
2854.00,0.0805
2853.00,0.0797
2852.00,0.0786
2851.00,0.0772
2850.00,0.0754
2849.00,0.0730
2848.00,0.0703
2847.00,0.0673
2846.00,0.0642
2845.00,0.0612
2844.00,0.0584
2843.00,0.0558
2842.00,0.0534
2841.00,0.0513
2840.00,0.0493
2839.00,0.0476
2838.00,0.0461
2837.00,0.0447
2836.00,0.0435
2835.00,0.0424
2834.00,0.0414
2833.00,0.0405
2832.00,0.0396
2831.00,0.0387
2830.00,0.0378
2829.00,0.0369
2828.00,0.0360
2827.00,0.0351
2826.00,0.0341
2825.00,0.0331
2824.00,0.0321
2823.00,0.0311
2822.00,0.0301
2821.00,0.0291
2820.00,0.0281
2819.00,0.0272
2818.00,0.0264
2817.00,0.0256
2816.00,0.0249
2815.00,0.0242
2814.00,0.0235
2813.00,0.0229
2812.00,0.0223
2811.00,0.0218
2810.00,0.0214
2809.00,0.0209
2808.00,0.0206
2807.00,0.0202
2806.00,0.0198
2805.00,0.0195
2804.00,0.0191
2803.00,0.0188
2802.00,0.0185
2801.00,0.0182
2800.00,0.0179
2799.00,0.0176
2798.00,0.0173
2797.00,0.0171
2796.00,0.0169
2795.00,0.0167
2794.00,0.0165
2793.00,0.0163
2792.00,0.0161
2791.00,0.0159
2790.00,0.0157
2789.00,0.0156
2788.00,0.0155
2787.00,0.0154
2786.00,0.0153
2785.00,0.0152
2784.00,0.0150
2783.00,0.0149
2782.00,0.0148
2781.00,0.0147
2780.00,0.0146
2779.00,0.0145
2778.00,0.0143
2777.00,0.0142
2776.00,0.0141
2775.00,0.0140
2774.00,0.0139
2773.00,0.0138
2772.00,0.0138
2771.00,0.0137
2770.00,0.0136
2769.00,0.0136
2768.00,0.0135
2767.00,0.0135
2766.00,0.0134
2765.00,0.0134
2764.00,0.0133
2763.00,0.0133
2762.00,0.0132
2761.00,0.0132
2760.00,0.0132
2759.00,0.0132
2758.00,0.0132
2757.00,0.0132
2756.00,0.0132
2755.00,0.0132
2754.00,0.0132
2753.00,0.0132
2752.00,0.0132
2751.00,0.0132
2750.00,0.0132
2749.00,0.0132
2748.00,0.0133
2747.00,0.0133
2746.00,0.0134
2745.00,0.0134
2744.00,0.0134
2743.00,0.0135
2742.00,0.0135
2741.00,0.0136
2740.00,0.0137
2739.00,0.0137
2738.00,0.0138
2737.00,0.0138
2736.00,0.0139
2735.00,0.0140
2734.00,0.0140
2733.00,0.0141
2732.00,0.0141
2731.00,0.0142
2730.00,0.0142
2729.00,0.0141
2728.00,0.0141
2727.00,0.0141
2726.00,0.0141
2725.00,0.0140
2724.00,0.0140
2723.00,0.0140
2722.00,0.0139
2721.00,0.0138
2720.00,0.0138
2719.00,0.0137
2718.00,0.0136
2717.00,0.0135
2716.00,0.0134
2715.00,0.0133
2714.00,0.0132
2713.00,0.0132
2712.00,0.0131
2711.00,0.0131
2710.00,0.0131
2709.00,0.0130
2708.00,0.0130
2707.00,0.0129
2706.00,0.0129
2705.00,0.0128
2704.00,0.0128
2703.00,0.0128
2702.00,0.0127
2701.00,0.0127
2700.00,0.0127
2699.00,0.0126
2698.00,0.0126
2697.00,0.0125
2696.00,0.0125
2695.00,0.0125
2694.00,0.0125
2693.00,0.0125
2692.00,0.0124
2691.00,0.0124
2690.00,0.0124
2689.00,0.0123
2688.00,0.0123
2687.00,0.0123
2686.00,0.0123
2685.00,0.0122
2684.00,0.0122
2683.00,0.0122
2682.00,0.0121
2681.00,0.0121
2680.00,0.0120
2679.00,0.0120
2678.00,0.0120
2677.00,0.0119
2676.00,0.0119
2675.00,0.0119
2674.00,0.0118
2673.00,0.0118
2672.00,0.0118
2671.00,0.0118
2670.00,0.0117
2669.00,0.0117
2668.00,0.0117
2667.00,0.0117
2666.00,0.0117
2665.00,0.0116
2664.00,0.0116
2663.00,0.0116
2662.00,0.0116
2661.00,0.0116
2660.00,0.0115
2659.00,0.0114
2658.00,0.0114
2657.00,0.0113
2656.00,0.0112
2655.00,0.0112
2654.00,0.0111
2653.00,0.0111
2652.00,0.0110
2651.00,0.0110
2650.00,0.0109
2649.00,0.0108
2648.00,0.0107
2647.00,0.0107
2646.00,0.0106
2645.00,0.0105
2644.00,0.0104
2643.00,0.0104
2642.00,0.0103
2641.00,0.0102
2640.00,0.0102
2639.00,0.0101
2638.00,0.0100
2637.00,0.0099
2636.00,0.0099
2635.00,0.0098
2634.00,0.0097
2633.00,0.0097
2632.00,0.0096
2631.00,0.0095
2630.00,0.0095
2629.00,0.0094
2628.00,0.0094
2627.00,0.0093
2626.00,0.0093
2625.00,0.0092
2624.00,0.0091
2623.00,0.0090
2622.00,0.0090
2621.00,0.0089
2620.00,0.0088
2619.00,0.0088
2618.00,0.0087
2617.00,0.0087
2616.00,0.0086
2615.00,0.0085
2614.00,0.0085
2613.00,0.0084
2612.00,0.0084
2611.00,0.0083
2610.00,0.0083
2609.00,0.0082
2608.00,0.0082
2607.00,0.0082
2606.00,0.0081
2605.00,0.0081
2604.00,0.0081
2603.00,0.0081
2602.00,0.0080
2601.00,0.0080
2600.00,0.0080
2599.00,0.0081
2598.00,0.0081
2597.00,0.0081
2596.00,0.0080
2595.00,0.0080
2594.00,0.0080
2593.00,0.0079
2592.00,0.0079
2591.00,0.0080
2590.00,0.0080
2589.00,0.0080
2588.00,0.0080
2587.00,0.0079
2586.00,0.0079
2585.00,0.0079
2584.00,0.0079
2583.00,0.0078
2582.00,0.0078
2581.00,0.0078
2580.00,0.0078
2579.00,0.0077
2578.00,0.0077
2577.00,0.0076
2576.00,0.0076
2575.00,0.0075
2574.00,0.0074
2573.00,0.0074
2572.00,0.0074
2571.00,0.0073
2570.00,0.0073
2569.00,0.0072
2568.00,0.0071
2567.00,0.0071
2566.00,0.0070
2565.00,0.0070
2564.00,0.0069
2563.00,0.0069
2562.00,0.0068
2561.00,0.0068
2560.00,0.0068
2559.00,0.0067
2558.00,0.0067
2557.00,0.0066
2556.00,0.0066
2555.00,0.0065
2554.00,0.0065
2553.00,0.0064
2552.00,0.0064
2551.00,0.0064
2550.00,0.0064
2549.00,0.0063
2548.00,0.0063
2547.00,0.0063
2546.00,0.0063
2545.00,0.0063
2544.00,0.0063
2543.00,0.0062
2542.00,0.0062
2541.00,0.0062
2540.00,0.0062
2539.00,0.0062
2538.00,0.0061
2537.00,0.0061
2536.00,0.0061
2535.00,0.0061
2534.00,0.0060
2533.00,0.0060
2532.00,0.0060
2531.00,0.0060
2530.00,0.0060
2529.00,0.0059
2528.00,0.0059
2527.00,0.0058
2526.00,0.0058
2525.00,0.0058
2524.00,0.0057
2523.00,0.0057
2522.00,0.0057
2521.00,0.0056
2520.00,0.0057
2519.00,0.0057
2518.00,0.0057
2517.00,0.0056
2516.00,0.0056
2515.00,0.0056
2514.00,0.0055
2513.00,0.0054
2512.00,0.0054
2511.00,0.0054
2510.00,0.0053
2509.00,0.0053
2508.00,0.0053
2507.00,0.0053
2506.00,0.0052
2505.00,0.0052
2504.00,0.0051
2503.00,0.0051
2502.00,0.0050
2501.00,0.0050
2500.00,0.0050
2499.00,0.0050
2498.00,0.0049
2497.00,0.0049
2496.00,0.0049
2495.00,0.0049
2494.00,0.0049
2493.00,0.0048
2492.00,0.0048
2491.00,0.0047
2490.00,0.0047
2489.00,0.0046
2488.00,0.0046
2487.00,0.0046
2486.00,0.0045
2485.00,0.0045
2484.00,0.0045
2483.00,0.0044
2482.00,0.0043
2481.00,0.0043
2480.00,0.0042
2479.00,0.0042
2478.00,0.0042
2477.00,0.0042
2476.00,0.0042
2475.00,0.0042
2474.00,0.0041
2473.00,0.0041
2472.00,0.0041
2471.00,0.0040
2470.00,0.0040
2469.00,0.0039
2468.00,0.0039
2467.00,0.0039
2466.00,0.0039
2465.00,0.0039
2464.00,0.0039
2463.00,0.0038
2462.00,0.0038
2461.00,0.0038
2460.00,0.0039
2459.00,0.0039
2458.00,0.0039
2457.00,0.0039
2456.00,0.0040
2455.00,0.0040
2454.00,0.0039
2453.00,0.0039
2452.00,0.0038
2451.00,0.0038
2450.00,0.0037
2449.00,0.0037
2448.00,0.0037
2447.00,0.0037
2446.00,0.0037
2445.00,0.0036
2444.00,0.0036
2443.00,0.0036
2442.00,0.0036
2441.00,0.0036
2440.00,0.0035
2439.00,0.0035
2438.00,0.0035
2437.00,0.0035
2436.00,0.0035
2435.00,0.0035
2434.00,0.0035
2433.00,0.0035
2432.00,0.0034
2431.00,0.0033
2430.00,0.0033
2429.00,0.0033
2428.00,0.0032
2427.00,0.0032
2426.00,0.0032
2425.00,0.0032
2424.00,0.0032
2423.00,0.0032
2422.00,0.0032
2421.00,0.0032
2420.00,0.0032
2419.00,0.0032
2418.00,0.0032
2417.00,0.0032
2416.00,0.0032
2415.00,0.0033
2414.00,0.0033
2413.00,0.0033
2412.00,0.0033
2411.00,0.0032
2410.00,0.0032
2409.00,0.0032
2408.00,0.0032
2407.00,0.0032
2406.00,0.0032
2405.00,0.0032
2404.00,0.0032
2403.00,0.0032
2402.00,0.0032
2401.00,0.0032
2400.00,0.0032
2399.00,0.0032
2398.00,0.0033
2397.00,0.0033
2396.00,0.0033
2395.00,0.0033
2394.00,0.0032
2393.00,0.0032
2392.00,0.0032
2391.00,0.0031
2390.00,0.0031
2389.00,0.0031
2388.00,0.0031
2387.00,0.0030
2386.00,0.0029
2385.00,0.0028
2384.00,0.0028
2383.00,0.0027
2382.00,0.0027
2381.00,0.0026
2380.00,0.0026
2379.00,0.0026
2378.00,0.0025
2377.00,0.0025
2376.00,0.0025
2375.00,0.0025
2374.00,0.0025
2373.00,0.0025
2372.00,0.0024
2371.00,0.0024
2370.00,0.0023
2369.00,0.0023
2368.00,0.0023
2367.00,0.0022
2366.00,0.0022
2365.00,0.0022
2364.00,0.0022
2363.00,0.0022
2362.00,0.0023
2361.00,0.0023
2360.00,0.0023
2359.00,0.0023
2358.00,0.0023
2357.00,0.0023
2356.00,0.0023
2355.00,0.0023
2354.00,0.0023
2353.00,0.0023
2352.00,0.0023
2351.00,0.0023
2350.00,0.0023
2349.00,0.0023
2348.00,0.0023
2347.00,0.0024
2346.00,0.0024
2345.00,0.0025
2344.00,0.0024
2343.00,0.0024
2342.00,0.0024
2341.00,0.0024
2340.00,0.0025
2339.00,0.0025
2338.00,0.0026
2337.00,0.0026
2336.00,0.0026
2335.00,0.0026
2334.00,0.0026
2333.00,0.0026
2332.00,0.0026
2331.00,0.0026
2330.00,0.0026
2329.00,0.0028
2328.00,0.0031
2327.00,0.0035
2326.00,0.0038
2325.00,0.0038
2324.00,0.0037
2323.00,0.0035
2322.00,0.0033
2321.00,0.0032
2320.00,0.0031
2319.00,0.0030
2318.00,0.0030
2317.00,0.0029
2316.00,0.0029
2315.00,0.0028
2314.00,0.0027
2313.00,0.0027
2312.00,0.0026
2311.00,0.0026
2310.00,0.0025
2309.00,0.0024
2308.00,0.0024
2307.00,0.0024
2306.00,0.0024
2305.00,0.0024
2304.00,0.0024
2303.00,0.0025
2302.00,0.0025
2301.00,0.0025
2300.00,0.0025
2299.00,0.0025
2298.00,0.0025
2297.00,0.0026
2296.00,0.0026
2295.00,0.0027
2294.00,0.0027
2293.00,0.0028
2292.00,0.0029
2291.00,0.0030
2290.00,0.0030
2289.00,0.0031
2288.00,0.0032
2287.00,0.0032
2286.00,0.0031
2285.00,0.0030
2284.00,0.0029
2283.00,0.0029
2282.00,0.0028
2281.00,0.0027
2280.00,0.0027
2279.00,0.0026
2278.00,0.0026
2277.00,0.0026
2276.00,0.0026
2275.00,0.0026
2274.00,0.0026
2273.00,0.0025
2272.00,0.0025
2271.00,0.0025
2270.00,0.0024
2269.00,0.0024
2268.00,0.0024
2267.00,0.0023
2266.00,0.0023
2265.00,0.0023
2264.00,0.0023
2263.00,0.0023
2262.00,0.0023
2261.00,0.0023
2260.00,0.0024
2259.00,0.0023
2258.00,0.0023
2257.00,0.0022
2256.00,0.0021
2255.00,0.0020
2254.00,0.0019
2253.00,0.0019
2252.00,0.0019
2251.00,0.0019
2250.00,0.0019
2249.00,0.0019
2248.00,0.0019
2247.00,0.0020
2246.00,0.0021
2245.00,0.0021
2244.00,0.0022
2243.00,0.0022
2242.00,0.0022
2241.00,0.0022
2240.00,0.0023
2239.00,0.0023
2238.00,0.0023
2237.00,0.0023
2236.00,0.0023
2235.00,0.0023
2234.00,0.0023
2233.00,0.0023
2232.00,0.0023
2231.00,0.0022
2230.00,0.0022
2229.00,0.0021
2228.00,0.0021
2227.00,0.0021
2226.00,0.0021
2225.00,0.0021
2224.00,0.0020
2223.00,0.0020
2222.00,0.0020
2221.00,0.0021
2220.00,0.0022
2219.00,0.0023
2218.00,0.0022
2217.00,0.0022
2216.00,0.0022
2215.00,0.0022
2214.00,0.0022
2213.00,0.0022
2212.00,0.0022
2211.00,0.0021
2210.00,0.0020
2209.00,0.0020
2208.00,0.0021
2207.00,0.0021
2206.00,0.0022
2205.00,0.0022
2204.00,0.0022
2203.00,0.0022
2202.00,0.0022
2201.00,0.0023
2200.00,0.0024
2199.00,0.0024
2198.00,0.0023
2197.00,0.0022
2196.00,0.0021
2195.00,0.0021
2194.00,0.0021
2193.00,0.0022
2192.00,0.0024
2191.00,0.0024
2190.00,0.0023
2189.00,0.0023
2188.00,0.0023
2187.00,0.0022
2186.00,0.0021
2185.00,0.0021
2184.00,0.0020
2183.00,0.0017
2182.00,0.0015
2181.00,0.0014
2180.00,0.0014
2179.00,0.0014
2178.00,0.0013
2177.00,0.0011
2176.00,0.0010
2175.00,0.0010
2174.00,0.0012
2173.00,0.0014
2172.00,0.0016
2171.00,0.0019
2170.00,0.0021
2169.00,0.0024
2168.00,0.0026
2167.00,0.0027
2166.00,0.0026
2165.00,0.0026
2164.00,0.0027
2163.00,0.0026
2162.00,0.0020
2161.00,0.0009
2160.00,-0.0004
2159.00,-0.0015
2158.00,-0.0020
2157.00,-0.0018
2156.00,-0.0014
2155.00,-0.0010
2154.00,-0.0008
2153.00,-0.0005
2152.00,-0.0002
2151.00,-0.0002
2150.00,-0.0003
2149.00,-0.0003
2148.00,-0.0003
2147.00,-0.0001
2146.00,-0.0000
2145.00,0.0001
2144.00,0.0001
2143.00,0.0000
2142.00,-0.0000
2141.00,0.0001
2140.00,0.0002
2139.00,0.0003
2138.00,0.0002
2137.00,-0.0000
2136.00,-0.0003
2135.00,-0.0004
2134.00,-0.0005
2133.00,-0.0003
2132.00,-0.0001
2131.00,0.0001
2130.00,0.0003
2129.00,0.0005
2128.00,0.0007
2127.00,0.0008
2126.00,0.0008
2125.00,0.0009
2124.00,0.0010
2123.00,0.0010
2122.00,0.0011
2121.00,0.0011
2120.00,0.0012
2119.00,0.0012
2118.00,0.0013
2117.00,0.0014
2116.00,0.0015
2115.00,0.0015
2114.00,0.0014
2113.00,0.0014
2112.00,0.0014
2111.00,0.0014
2110.00,0.0013
2109.00,0.0013
2108.00,0.0013
2107.00,0.0012
2106.00,0.0011
2105.00,0.0011
2104.00,0.0010
2103.00,0.0010
2102.00,0.0009
2101.00,0.0009
2100.00,0.0008
2099.00,0.0007
2098.00,0.0006
2097.00,0.0004
2096.00,0.0003
2095.00,0.0002
2094.00,0.0002
2093.00,0.0003
2092.00,0.0004
2091.00,0.0005
2090.00,0.0006
2089.00,0.0007
2088.00,0.0008
2087.00,0.0008
2086.00,0.0008
2085.00,0.0008
2084.00,0.0009
2083.00,0.0009
2082.00,0.0009
2081.00,0.0010
2080.00,0.0010
2079.00,0.0010
2078.00,0.0009
2077.00,0.0009
2076.00,0.0009
2075.00,0.0009
2074.00,0.0009
2073.00,0.0010
2072.00,0.0011
2071.00,0.0010
2070.00,0.0009
2069.00,0.0008
2068.00,0.0008
2067.00,0.0007
2066.00,0.0007
2065.00,0.0007
2064.00,0.0006
2063.00,0.0005
2062.00,0.0004
2061.00,0.0004
2060.00,0.0005
2059.00,0.0006
2058.00,0.0006
2057.00,0.0006
2056.00,0.0006
2055.00,0.0007
2054.00,0.0009
2053.00,0.0014
2052.00,0.0018
2051.00,0.0018
2050.00,0.0013
2049.00,0.0008
2048.00,0.0005
2047.00,0.0004
2046.00,0.0004
2045.00,0.0004
2044.00,0.0005
2043.00,0.0005
2042.00,0.0003
2041.00,0.0003
2040.00,0.0003
2039.00,0.0003
2038.00,0.0002
2037.00,0.0002
2036.00,0.0003
2035.00,0.0002
2034.00,0.0000
2033.00,-0.0001
2032.00,-0.0002
2031.00,-0.0003
2030.00,-0.0005
2029.00,-0.0006
2028.00,-0.0005
2027.00,-0.0004
2026.00,-0.0003
2025.00,-0.0001
2024.00,0.0001
2023.00,0.0002
2022.00,0.0002
2021.00,0.0003
2020.00,0.0004
2019.00,0.0004
2018.00,0.0003
2017.00,0.0002
2016.00,0.0002
2015.00,0.0003
2014.00,0.0003
2013.00,0.0005
2012.00,0.0006
2011.00,0.0005
2010.00,0.0002
2009.00,-0.0001
2008.00,-0.0003
2007.00,-0.0005
2006.00,-0.0005
2005.00,-0.0004
2004.00,-0.0002
2003.00,-0.0001
2002.00,-0.0000
2001.00,0.0001
2000.00,0.0003
1999.00,0.0004
1998.00,0.0004
1997.00,0.0004
1996.00,0.0004
1995.00,0.0003
1994.00,0.0003
1993.00,0.0003
1992.00,0.0005
1991.00,0.0006
1990.00,0.0007
1989.00,0.0009
1988.00,0.0011
1987.00,0.0013
1986.00,0.0014
1985.00,0.0016
1984.00,0.0017
1983.00,0.0019
1982.00,0.0019
1981.00,0.0018
1980.00,0.0015
1979.00,0.0009
1978.00,0.0003
1977.00,-0.0000
1976.00,0.0000
1975.00,0.0000
1974.00,-0.0000
1973.00,-0.0000
1972.00,0.0000
1971.00,-0.0000
1970.00,-0.0001
1969.00,-0.0001
1968.00,0.0000
1967.00,0.0001
1966.00,0.0000
1965.00,0.0000
1964.00,0.0000
1963.00,-0.0001
1962.00,-0.0003
1961.00,-0.0004
1960.00,-0.0003
1959.00,-0.0001
1958.00,-0.0000
1957.00,0.0002
1956.00,0.0004
1955.00,0.0005
1954.00,0.0005
1953.00,0.0005
1952.00,0.0006
1951.00,0.0006
1950.00,0.0005
1949.00,0.0004
1948.00,0.0004
1947.00,0.0004
1946.00,0.0003
1945.00,0.0003
1944.00,0.0004
1943.00,0.0005
1942.00,0.0005
1941.00,0.0005
1940.00,0.0006
1939.00,0.0007
1938.00,0.0008
1937.00,0.0009
1936.00,0.0010
1935.00,0.0011
1934.00,0.0011
1933.00,0.0011
1932.00,0.0011
1931.00,0.0011
1930.00,0.0010
1929.00,0.0010
1928.00,0.0011
1927.00,0.0011
1926.00,0.0010
1925.00,0.0010
1924.00,0.0011
1923.00,0.0011
1922.00,0.0012
1921.00,0.0012
1920.00,0.0013
1919.00,0.0013
1918.00,0.0013
1917.00,0.0013
1916.00,0.0013
1915.00,0.0014
1914.00,0.0014
1913.00,0.0015
1912.00,0.0016
1911.00,0.0016
1910.00,0.0016
1909.00,0.0015
1908.00,0.0015
1907.00,0.0015
1906.00,0.0014
1905.00,0.0015
1904.00,0.0015
1903.00,0.0015
1902.00,0.0015
1901.00,0.0015
1900.00,0.0016
1899.00,0.0016
1898.00,0.0016
1897.00,0.0016
1896.00,0.0017
1895.00,0.0017
1894.00,0.0016
1893.00,0.0016
1892.00,0.0016
1891.00,0.0016
1890.00,0.0015
1889.00,0.0016
1888.00,0.0016
1887.00,0.0017
1886.00,0.0018
1885.00,0.0018
1884.00,0.0019
1883.00,0.0019
1882.00,0.0018
1881.00,0.0018
1880.00,0.0018
1879.00,0.0018
1878.00,0.0018
1877.00,0.0018
1876.00,0.0018
1875.00,0.0018
1874.00,0.0018
1873.00,0.0018
1872.00,0.0019
1871.00,0.0019
1870.00,0.0018
1869.00,0.0018
1868.00,0.0018
1867.00,0.0017
1866.00,0.0017
1865.00,0.0018
1864.00,0.0019
1863.00,0.0020
1862.00,0.0020
1861.00,0.0020
1860.00,0.0021
1859.00,0.0021
1858.00,0.0021
1857.00,0.0020
1856.00,0.0021
1855.00,0.0021
1854.00,0.0021
1853.00,0.0021
1852.00,0.0021
1851.00,0.0021
1850.00,0.0021
1849.00,0.0021
1848.00,0.0022
1847.00,0.0022
1846.00,0.0021
1845.00,0.0021
1844.00,0.0021
1843.00,0.0020
1842.00,0.0020
1841.00,0.0021
1840.00,0.0022
1839.00,0.0023
1838.00,0.0023
1837.00,0.0023
1836.00,0.0024
1835.00,0.0024
1834.00,0.0024
1833.00,0.0024
1832.00,0.0024
1831.00,0.0024
1830.00,0.0023
1829.00,0.0023
1828.00,0.0023
1827.00,0.0023
1826.00,0.0024
1825.00,0.0025
1824.00,0.0025
1823.00,0.0025
1822.00,0.0025
1821.00,0.0025
1820.00,0.0025
1819.00,0.0024
1818.00,0.0024
1817.00,0.0024
1816.00,0.0024
1815.00,0.0025
1814.00,0.0025
1813.00,0.0026
1812.00,0.0026
1811.00,0.0027
1810.00,0.0027
1809.00,0.0027
1808.00,0.0027
1807.00,0.0027
1806.00,0.0028
1805.00,0.0028
1804.00,0.0028
1803.00,0.0029
1802.00,0.0029
1801.00,0.0029
1800.00,0.0029
1799.00,0.0028
1798.00,0.0028
1797.00,0.0029
1796.00,0.0029
1795.00,0.0030
1794.00,0.0029
1793.00,0.0029
1792.00,0.0029
1791.00,0.0029
1790.00,0.0029
1789.00,0.0030
1788.00,0.0031
1787.00,0.0033
1786.00,0.0033
1785.00,0.0034
1784.00,0.0034
1783.00,0.0034
1782.00,0.0034
1781.00,0.0034
1780.00,0.0034
1779.00,0.0034
1778.00,0.0034
1777.00,0.0034
1776.00,0.0034
1775.00,0.0034
1774.00,0.0033
1773.00,0.0032
1772.00,0.0032
1771.00,0.0032
1770.00,0.0033
1769.00,0.0035
1768.00,0.0038
1767.00,0.0039
1766.00,0.0039
1765.00,0.0039
1764.00,0.0041
1763.00,0.0042
1762.00,0.0042
1761.00,0.0042
1760.00,0.0043
1759.00,0.0044
1758.00,0.0045
1757.00,0.0046
1756.00,0.0047
1755.00,0.0047
1754.00,0.0047
1753.00,0.0048
1752.00,0.0049
1751.00,0.0049
1750.00,0.0049
1749.00,0.0049
1748.00,0.0051
1747.00,0.0052
1746.00,0.0053
1745.00,0.0055
1744.00,0.0057
1743.00,0.0059
1742.00,0.0059
1741.00,0.0060
1740.00,0.0062
1739.00,0.0063
1738.00,0.0064
1737.00,0.0065
1736.00,0.0067
1735.00,0.0068
1734.00,0.0069
1733.00,0.0070
1732.00,0.0072
1731.00,0.0076
1730.00,0.0080
1729.00,0.0083
1728.00,0.0087
1727.00,0.0090
1726.00,0.0092
1725.00,0.0094
1724.00,0.0098
1723.00,0.0101
1722.00,0.0103
1721.00,0.0105
1720.00,0.0108
1719.00,0.0111
1718.00,0.0113
1717.00,0.0116
1716.00,0.0122
1715.00,0.0129
1714.00,0.0136
1713.00,0.0144
1712.00,0.0153
1711.00,0.0162
1710.00,0.0170
1709.00,0.0179
1708.00,0.0190
1707.00,0.0203
1706.00,0.0217
1705.00,0.0232
1704.00,0.0248
1703.00,0.0263
1702.00,0.0281
1701.00,0.0309
1700.00,0.0346
1699.00,0.0380
1698.00,0.0410
1697.00,0.0449
1696.00,0.0504
1695.00,0.0566
1694.00,0.0623
1693.00,0.0676
1692.00,0.0731
1691.00,0.0791
1690.00,0.0854
1689.00,0.0915
1688.00,0.0970
1687.00,0.1016
1686.00,0.1061
1685.00,0.1115
1684.00,0.1181
1683.00,0.1239
1682.00,0.1282
1681.00,0.1321
1680.00,0.1363
1679.00,0.1408
1678.00,0.1454
1677.00,0.1512
1676.00,0.1592
1675.00,0.1693
1674.00,0.1797
1673.00,0.1897
1672.00,0.2002
1671.00,0.2126
1670.00,0.2275
1669.00,0.2443
1668.00,0.2605
1667.00,0.2747
1666.00,0.2871
1665.00,0.2992
1664.00,0.3124
1663.00,0.3264
1662.00,0.3397
1661.00,0.3508
1660.00,0.3599
1659.00,0.3669
1658.00,0.3720
1657.00,0.3752
1656.00,0.3766
1655.00,0.3763
1654.00,0.3745
1653.00,0.3713
1652.00,0.3663
1651.00,0.3592
1650.00,0.3501
1649.00,0.3390
1648.00,0.3252
1647.00,0.3088
1646.00,0.2912
1645.00,0.2747
1644.00,0.2597
1643.00,0.2454
1642.00,0.2312
1641.00,0.2174
1640.00,0.2045
1639.00,0.1928
1638.00,0.1819
1637.00,0.1710
1636.00,0.1602
1635.00,0.1504
1634.00,0.1426
1633.00,0.1365
1632.00,0.1315
1631.00,0.1273
1630.00,0.1237
1629.00,0.1210
1628.00,0.1192
1627.00,0.1183
1626.00,0.1179
1625.00,0.1179
1624.00,0.1184
1623.00,0.1191
1622.00,0.1195
1621.00,0.1193
1620.00,0.1184
1619.00,0.1170
1618.00,0.1146
1617.00,0.1114
1616.00,0.1077
1615.00,0.1039
1614.00,0.1002
1613.00,0.0966
1612.00,0.0932
1611.00,0.0903
1610.00,0.0882
1609.00,0.0873
1608.00,0.0878
1607.00,0.0899
1606.00,0.0936
1605.00,0.0986
1604.00,0.1048
1603.00,0.1120
1602.00,0.1193
1601.00,0.1260
1600.00,0.1315
1599.00,0.1354
1598.00,0.1370
1597.00,0.1364
1596.00,0.1339
1595.00,0.1299
1594.00,0.1248
1593.00,0.1193
1592.00,0.1138
1591.00,0.1087
1590.00,0.1039
1589.00,0.0994
1588.00,0.0952
1587.00,0.0912
1586.00,0.0870
1585.00,0.0828
1584.00,0.0785
1583.00,0.0742
1582.00,0.0700
1581.00,0.0660
1580.00,0.0623
1579.00,0.0589
1578.00,0.0557
1577.00,0.0524
1576.00,0.0494
1575.00,0.0469
1574.00,0.0451
1573.00,0.0437
1572.00,0.0423
1571.00,0.0409
1570.00,0.0394
1569.00,0.0379
1568.00,0.0368
1567.00,0.0358
1566.00,0.0350
1565.00,0.0343
1564.00,0.0335
1563.00,0.0328
1562.00,0.0321
1561.00,0.0313
1560.00,0.0304
1559.00,0.0296
1558.00,0.0290
1557.00,0.0288
1556.00,0.0287
1555.00,0.0288
1554.00,0.0289
1553.00,0.0289
1552.00,0.0290
1551.00,0.0291
1550.00,0.0292
1549.00,0.0294
1548.00,0.0295
1547.00,0.0297
1546.00,0.0299
1545.00,0.0302
1544.00,0.0305
1543.00,0.0306
1542.00,0.0307
1541.00,0.0308
1540.00,0.0311
1539.00,0.0315
1538.00,0.0318
1537.00,0.0321
1536.00,0.0323
1535.00,0.0323
1534.00,0.0321
1533.00,0.0318
1532.00,0.0316
1531.00,0.0313
1530.00,0.0311
1529.00,0.0310
1528.00,0.0309
1527.00,0.0309
1526.00,0.0309
1525.00,0.0310
1524.00,0.0311
1523.00,0.0311
1522.00,0.0313
1521.00,0.0316
1520.00,0.0319
1519.00,0.0321
1518.00,0.0323
1517.00,0.0324
1516.00,0.0325
1515.00,0.0325
1514.00,0.0324
1513.00,0.0324
1512.00,0.0324
1511.00,0.0324
1510.00,0.0324
1509.00,0.0325
1508.00,0.0328
1507.00,0.0335
1506.00,0.0348
1505.00,0.0365
1504.00,0.0384
1503.00,0.0406
1502.00,0.0431
1501.00,0.0462
1500.00,0.0496
1499.00,0.0534
1498.00,0.0574
1497.00,0.0615
1496.00,0.0651
1495.00,0.0676
1494.00,0.0687
1493.00,0.0686
1492.00,0.0673
1491.00,0.0648
1490.00,0.0614
1489.00,0.0575
1488.00,0.0538
1487.00,0.0503
1486.00,0.0474
1485.00,0.0450
1484.00,0.0432
1483.00,0.0419
1482.00,0.0410
1481.00,0.0406
1480.00,0.0407
1479.00,0.0412
1478.00,0.0420
1477.00,0.0434
1476.00,0.0452
1475.00,0.0475
1474.00,0.0506
1473.00,0.0554
1472.00,0.0618
1471.00,0.0689
1470.00,0.0765
1469.00,0.0847
1468.00,0.0936
1467.00,0.1031
1466.00,0.1135
1465.00,0.1244
1464.00,0.1342
1463.00,0.1412
1462.00,0.1450
1461.00,0.1464
1460.00,0.1458
1459.00,0.1433
1458.00,0.1394
1457.00,0.1351
1456.00,0.1316
1455.00,0.1293
1454.00,0.1282
1453.00,0.1285
1452.00,0.1301
1451.00,0.1330
1450.00,0.1372
1449.00,0.1432
1448.00,0.1508
1447.00,0.1592
1446.00,0.1679
1445.00,0.1766
1444.00,0.1854
1443.00,0.1939
1442.00,0.2021
1441.00,0.2096
1440.00,0.2162
1439.00,0.2220
1438.00,0.2281
1437.00,0.2358
1436.00,0.2446
1435.00,0.2532
1434.00,0.2619
1433.00,0.2718
1432.00,0.2830
1431.00,0.2946
1430.00,0.3052
1429.00,0.3135
1428.00,0.3180
1427.00,0.3180
1426.00,0.3147
1425.00,0.3089
1424.00,0.3008
1423.00,0.2905
1422.00,0.2786
1421.00,0.2646
1420.00,0.2469
1419.00,0.2262
1418.00,0.2058
1417.00,0.1879
1416.00,0.1722
1415.00,0.1583
1414.00,0.1462
1413.00,0.1359
1412.00,0.1273
1411.00,0.1204
1410.00,0.1150
1409.00,0.1108
1408.00,0.1074
1407.00,0.1049
1406.00,0.1030
1405.00,0.1018
1404.00,0.1009
1403.00,0.1003
1402.00,0.1001
1401.00,0.1001
1400.00,0.1003
1399.00,0.1008
1398.00,0.1016
1397.00,0.1023
1396.00,0.1032
1395.00,0.1044
1394.00,0.1058
1393.00,0.1073
1392.00,0.1087
1391.00,0.1103
1390.00,0.1121
1389.00,0.1144
1388.00,0.1172
1387.00,0.1206
1386.00,0.1244
1385.00,0.1282
1384.00,0.1320
1383.00,0.1356
1382.00,0.1390
1381.00,0.1420
1380.00,0.1445
1379.00,0.1465
1378.00,0.1480
1377.00,0.1487
1376.00,0.1481
1375.00,0.1461
1374.00,0.1427
1373.00,0.1384
1372.00,0.1337
1371.00,0.1293
1370.00,0.1253
1369.00,0.1217
1368.00,0.1184
1367.00,0.1154
1366.00,0.1127
1365.00,0.1100
1364.00,0.1075
1363.00,0.1051
1362.00,0.1030
1361.00,0.1013
1360.00,0.0999
1359.00,0.0989
1358.00,0.0983
1357.00,0.0979
1356.00,0.0978
1355.00,0.0978
1354.00,0.0979
1353.00,0.0977
1352.00,0.0973
1351.00,0.0965
1350.00,0.0954
1349.00,0.0940
1348.00,0.0923
1347.00,0.0904
1346.00,0.0886
1345.00,0.0868
1344.00,0.0852
1343.00,0.0838
1342.00,0.0826
1341.00,0.0817
1340.00,0.0811
1339.00,0.0806
1338.00,0.0803
1337.00,0.0801
1336.00,0.0800
1335.00,0.0800
1334.00,0.0802
1333.00,0.0805
1332.00,0.0809
1331.00,0.0816
1330.00,0.0827
1329.00,0.0841
1328.00,0.0857
1327.00,0.0877
1326.00,0.0900
1325.00,0.0926
1324.00,0.0952
1323.00,0.0978
1322.00,0.1003
1321.00,0.1026
1320.00,0.1043
1319.00,0.1056
1318.00,0.1063
1317.00,0.1063
1316.00,0.1057
1315.00,0.1046
1314.00,0.1033
1313.00,0.1017
1312.00,0.1000
1311.00,0.0983
1310.00,0.0968
1309.00,0.0956
1308.00,0.0946
1307.00,0.0940
1306.00,0.0941
1305.00,0.0950
1304.00,0.0967
1303.00,0.0996
1302.00,0.1038
1301.00,0.1095
1300.00,0.1172
1299.00,0.1271
1298.00,0.1394
1297.00,0.1542
1296.00,0.1711
1295.00,0.1890
1294.00,0.2067
1293.00,0.2228
1292.00,0.2357
1291.00,0.2447
1290.00,0.2492
1289.00,0.2496
1288.00,0.2464
1287.00,0.2403
1286.00,0.2322
1285.00,0.2231
1284.00,0.2138
1283.00,0.2050
1282.00,0.1974
1281.00,0.1915
1280.00,0.1876
1279.00,0.1855
1278.00,0.1850
1277.00,0.1854
1276.00,0.1860
1275.00,0.1862
1274.00,0.1854
1273.00,0.1832
1272.00,0.1795
1271.00,0.1743
1270.00,0.1681
1269.00,0.1612
1268.00,0.1538
1267.00,0.1463
1266.00,0.1390
1265.00,0.1321
1264.00,0.1257
1263.00,0.1198
1262.00,0.1145
1261.00,0.1097
1260.00,0.1054
1259.00,0.1015
1258.00,0.0980
1257.00,0.0947
1256.00,0.0915
1255.00,0.0885
1254.00,0.0856
1253.00,0.0827
1252.00,0.0798
1251.00,0.0770
1250.00,0.0745
1249.00,0.0721
1248.00,0.0700
1247.00,0.0681
1246.00,0.0666
1245.00,0.0655
1244.00,0.0647
1243.00,0.0644
1242.00,0.0646
1241.00,0.0652
1240.00,0.0664
1239.00,0.0682
1238.00,0.0707
1237.00,0.0740
1236.00,0.0779
1235.00,0.0825
1234.00,0.0878
1233.00,0.0934
1232.00,0.0989
1231.00,0.1042
1230.00,0.1088
1229.00,0.1126
1228.00,0.1153
1227.00,0.1171
1226.00,0.1181
1225.00,0.1184
1224.00,0.1183
1223.00,0.1178
1222.00,0.1171
1221.00,0.1161
1220.00,0.1148
1219.00,0.1132
1218.00,0.1111
1217.00,0.1087
1216.00,0.1058
1215.00,0.1027
1214.00,0.0995
1213.00,0.0962
1212.00,0.0930
1211.00,0.0901
1210.00,0.0875
1209.00,0.0852
1208.00,0.0832
1207.00,0.0815
1206.00,0.0800
1205.00,0.0787
1204.00,0.0775
1203.00,0.0762
1202.00,0.0751
1201.00,0.0738
1200.00,0.0725
1199.00,0.0711
1198.00,0.0697
1197.00,0.0683
1196.00,0.0669
1195.00,0.0657
1194.00,0.0646
1193.00,0.0637
1192.00,0.0630
1191.00,0.0625
1190.00,0.0622
1189.00,0.0621
1188.00,0.0620
1187.00,0.0620
1186.00,0.0621
1185.00,0.0623
1184.00,0.0626
1183.00,0.0631
1182.00,0.0638
1181.00,0.0649
1180.00,0.0664
1179.00,0.0682
1178.00,0.0706
1177.00,0.0734
1176.00,0.0765
1175.00,0.0801
1174.00,0.0841
1173.00,0.0883
1172.00,0.0928
1171.00,0.0973
1170.00,0.1019
1169.00,0.1063
1168.00,0.1103
1167.00,0.1138
1166.00,0.1165
1165.00,0.1182
1164.00,0.1187
1163.00,0.1180
1162.00,0.1162
1161.00,0.1136
1160.00,0.1103
1159.00,0.1068
1158.00,0.1032
1157.00,0.0996
1156.00,0.0958
1155.00,0.0921
1154.00,0.0883
1153.00,0.0845
1152.00,0.0807
1151.00,0.0769
1150.00,0.0731
1149.00,0.0692
1148.00,0.0654
1147.00,0.0617
1146.00,0.0582
1145.00,0.0551
1144.00,0.0525
1143.00,0.0503
1142.00,0.0487
1141.00,0.0473
1140.00,0.0460
1139.00,0.0449
1138.00,0.0437
1137.00,0.0425
1136.00,0.0412
1135.00,0.0398
1134.00,0.0385
1133.00,0.0373
1132.00,0.0362
1131.00,0.0352
1130.00,0.0344
1129.00,0.0339
1128.00,0.0334
1127.00,0.0331
1126.00,0.0329
1125.00,0.0328
1124.00,0.0327
1123.00,0.0328
1122.00,0.0330
1121.00,0.0333
1120.00,0.0337
1119.00,0.0343
1118.00,0.0351
1117.00,0.0362
1116.00,0.0374
1115.00,0.0389
1114.00,0.0407
1113.00,0.0426
1112.00,0.0445
1111.00,0.0462
1110.00,0.0476
1109.00,0.0487
1108.00,0.0492
1107.00,0.0494
1106.00,0.0491
1105.00,0.0487
1104.00,0.0482
1103.00,0.0478
1102.00,0.0477
1101.00,0.0479
1100.00,0.0485
1099.00,0.0494
1098.00,0.0506
1097.00,0.0518
1096.00,0.0529
1095.00,0.0538
1094.00,0.0545
1093.00,0.0549
1092.00,0.0552
1091.00,0.0555
1090.00,0.0561
1089.00,0.0571
1088.00,0.0586
1087.00,0.0606
1086.00,0.0628
1085.00,0.0650
1084.00,0.0667
1083.00,0.0677
1082.00,0.0680
1081.00,0.0675
1080.00,0.0661
1079.00,0.0643
1078.00,0.0622
1077.00,0.0600
1076.00,0.0578
1075.00,0.0557
1074.00,0.0537
1073.00,0.0517
1072.00,0.0497
1071.00,0.0480
1070.00,0.0465
1069.00,0.0453
1068.00,0.0443
1067.00,0.0437
1066.00,0.0435
1065.00,0.0437
1064.00,0.0443
1063.00,0.0454
1062.00,0.0472
1061.00,0.0496
1060.00,0.0529
1059.00,0.0575
1058.00,0.0635
1057.00,0.0712
1056.00,0.0808
1055.00,0.0923
1054.00,0.1057
1053.00,0.1206
1052.00,0.1360
1051.00,0.1509
1050.00,0.1640
1049.00,0.1742
1048.00,0.1807
1047.00,0.1835
1046.00,0.1833
1045.00,0.1809
1044.00,0.1773
1043.00,0.1735
1042.00,0.1701
1041.00,0.1675
1040.00,0.1657
1039.00,0.1646
1038.00,0.1640
1037.00,0.1637
1036.00,0.1635
1035.00,0.1633
1034.00,0.1630
1033.00,0.1626
1032.00,0.1619
1031.00,0.1608
1030.00,0.1596
1029.00,0.1580
1028.00,0.1560
1027.00,0.1538
1026.00,0.1512
1025.00,0.1484
1024.00,0.1451
1023.00,0.1416
1022.00,0.1377
1021.00,0.1336
1020.00,0.1291
1019.00,0.1241
1018.00,0.1188
1017.00,0.1129
1016.00,0.1065
1015.00,0.0998
1014.00,0.0930
1013.00,0.0865
1012.00,0.0805
1011.00,0.0753
1010.00,0.0711
1009.00,0.0678
1008.00,0.0655
1007.00,0.0641
1006.00,0.0636
1005.00,0.0635
1004.00,0.0634
1003.00,0.0631
1002.00,0.0623
1001.00,0.0609
1000.00,0.0591
999.00,0.0571
998.00,0.0552
997.00,0.0535
996.00,0.0520
995.00,0.0509
994.00,0.0502
993.00,0.0499
992.00,0.0499
991.00,0.0503
990.00,0.0511
989.00,0.0520
988.00,0.0528
987.00,0.0534
986.00,0.0536
985.00,0.0534
984.00,0.0526
983.00,0.0514
982.00,0.0500
981.00,0.0485
980.00,0.0471
979.00,0.0457
978.00,0.0447
977.00,0.0437
976.00,0.0427
975.00,0.0418
974.00,0.0409
973.00,0.0398
972.00,0.0387
971.00,0.0376
970.00,0.0365
969.00,0.0353
968.00,0.0341
967.00,0.0329
966.00,0.0318
965.00,0.0308
964.00,0.0298
963.00,0.0288
962.00,0.0279
961.00,0.0269
960.00,0.0259
959.00,0.0249
958.00,0.0240
957.00,0.0231
956.00,0.0222
955.00,0.0214
954.00,0.0207
953.00,0.0202
952.00,0.0197
951.00,0.0193
950.00,0.0190
949.00,0.0187
948.00,0.0185
947.00,0.0183
946.00,0.0183
945.00,0.0183
944.00,0.0183
943.00,0.0184
942.00,0.0187
941.00,0.0190
940.00,0.0195
939.00,0.0202
938.00,0.0211
937.00,0.0223
936.00,0.0235
935.00,0.0248
934.00,0.0258
933.00,0.0264
932.00,0.0264
931.00,0.0259
930.00,0.0253
929.00,0.0246
928.00,0.0243
927.00,0.0242
926.00,0.0244
925.00,0.0248
924.00,0.0253
923.00,0.0260
922.00,0.0269
921.00,0.0278
920.00,0.0288
919.00,0.0299
918.00,0.0310
917.00,0.0321
916.00,0.0331
915.00,0.0340
914.00,0.0351
913.00,0.0363
912.00,0.0375
911.00,0.0388
910.00,0.0400
909.00,0.0412
908.00,0.0419
907.00,0.0424
906.00,0.0424
905.00,0.0421
904.00,0.0414
903.00,0.0406
902.00,0.0397
901.00,0.0389
900.00,0.0381
899.00,0.0375
898.00,0.0372
897.00,0.0369
896.00,0.0366
895.00,0.0362
894.00,0.0358
893.00,0.0353
892.00,0.0347
891.00,0.0342
890.00,0.0338
889.00,0.0335
888.00,0.0333
887.00,0.0332
886.00,0.0333
885.00,0.0336
884.00,0.0338
883.00,0.0342
882.00,0.0347
881.00,0.0352
880.00,0.0356
879.00,0.0360
878.00,0.0365
877.00,0.0369
876.00,0.0372
875.00,0.0376
874.00,0.0380
873.00,0.0384
872.00,0.0388
871.00,0.0393
870.00,0.0400
869.00,0.0408
868.00,0.0416
867.00,0.0427
866.00,0.0439
865.00,0.0454
864.00,0.0469
863.00,0.0487
862.00,0.0507
861.00,0.0528
860.00,0.0551
859.00,0.0576
858.00,0.0603
857.00,0.0631
856.00,0.0659
855.00,0.0687
854.00,0.0716
853.00,0.0744
852.00,0.0770
851.00,0.0795
850.00,0.0819
849.00,0.0841
848.00,0.0861
847.00,0.0879
846.00,0.0896
845.00,0.0912
844.00,0.0927
843.00,0.0942
842.00,0.0957
841.00,0.0973
840.00,0.0988
839.00,0.1005
838.00,0.1024
837.00,0.1043
836.00,0.1062
835.00,0.1081
834.00,0.1100
833.00,0.1118
832.00,0.1134
831.00,0.1147
830.00,0.1158
829.00,0.1162
828.00,0.1160
827.00,0.1150
826.00,0.1132
825.00,0.1107
824.00,0.1074
823.00,0.1036
822.00,0.0994
821.00,0.0949
820.00,0.0903
819.00,0.0859
818.00,0.0818
817.00,0.0781
816.00,0.0746
815.00,0.0715
814.00,0.0687
813.00,0.0662
812.00,0.0639
811.00,0.0619
810.00,0.0602
809.00,0.0586
808.00,0.0573
807.00,0.0563
806.00,0.0555
805.00,0.0548
804.00,0.0543
803.00,0.0541
802.00,0.0541
801.00,0.0544
800.00,0.0549
799.00,0.0557
798.00,0.0567
797.00,0.0578
796.00,0.0588
795.00,0.0599
794.00,0.0608
793.00,0.0615
792.00,0.0620
791.00,0.0623
790.00,0.0626
789.00,0.0628
788.00,0.0630
787.00,0.0632
786.00,0.0637
785.00,0.0643
784.00,0.0650
783.00,0.0659
782.00,0.0668
781.00,0.0677
780.00,0.0686
779.00,0.0694
778.00,0.0701
777.00,0.0706
776.00,0.0709
775.00,0.0711
774.00,0.0712
773.00,0.0712
772.00,0.0711
771.00,0.0709
770.00,0.0707
769.00,0.0706
768.00,0.0704
767.00,0.0704
766.00,0.0705
765.00,0.0708
764.00,0.0711
763.00,0.0717
762.00,0.0725
761.00,0.0736
760.00,0.0748
759.00,0.0762
758.00,0.0778
757.00,0.0796
756.00,0.0814
755.00,0.0833
754.00,0.0853
753.00,0.0873
752.00,0.0894
751.00,0.0915
750.00,0.0936
749.00,0.0957
748.00,0.0976
747.00,0.0995
746.00,0.1014
745.00,0.1032
744.00,0.1049
743.00,0.1064
742.00,0.1079
741.00,0.1092
740.00,0.1103
739.00,0.1111
738.00,0.1117
737.00,0.1119
736.00,0.1116
735.00,0.1110
734.00,0.1100
733.00,0.1086
732.00,0.1068
731.00,0.1045
730.00,0.1020
729.00,0.0994
728.00,0.0966
727.00,0.0939
726.00,0.0914
725.00,0.0891
724.00,0.0869
723.00,0.0849
722.00,0.0832
721.00,0.0818
720.00,0.0805
719.00,0.0795
718.00,0.0788
717.00,0.0783
716.00,0.0779
715.00,0.0777
714.00,0.0776
713.00,0.0775
712.00,0.0775
711.00,0.0775
710.00,0.0777
709.00,0.0780
708.00,0.0782
707.00,0.0785
706.00,0.0789
705.00,0.0793
704.00,0.0796
703.00,0.0800
702.00,0.0805
701.00,0.0811
700.00,0.0815
699.00,0.0820
698.00,0.0825
697.00,0.0830
696.00,0.0835
695.00,0.0841
694.00,0.0847
693.00,0.0854
692.00,0.0861
691.00,0.0869
690.00,0.0878
689.00,0.0888
688.00,0.0898
687.00,0.0908
686.00,0.0920
685.00,0.0930
684.00,0.0940
683.00,0.0949
682.00,0.0959
681.00,0.0969
680.00,0.0979
679.00,0.0989
678.00,0.1000
677.00,0.1011
676.00,0.1021
675.00,0.1032
674.00,0.1043
673.00,0.1053
672.00,0.1062
671.00,0.1070
670.00,0.1081
669.00,0.1096
668.00,0.1117
667.00,0.1139
666.00,0.1154
665.00,0.1164
664.00,0.1175
663.00,0.1188
662.00,0.1204
661.00,0.1219
660.00,0.1233
659.00,0.1247
658.00,0.1262
657.00,0.1277
656.00,0.1292
655.00,0.1307
654.00,0.1322
653.00,0.1334
652.00,0.1344
651.00,0.1351
650.00,0.1354
649.00,0.1353
648.00,0.1345
647.00,0.1332
646.00,0.1315
645.00,0.1294
644.00,0.1269
643.00,0.1242
642.00,0.1215
641.00,0.1187
640.00,0.1158
639.00,0.1130
638.00,0.1103
637.00,0.1078
636.00,0.1053
635.00,0.1029
634.00,0.1009
633.00,0.0990
632.00,0.0970
631.00,0.0953
630.00,0.0937
629.00,0.0922
628.00,0.0906
627.00,0.0893
626.00,0.0881
625.00,0.0870
624.00,0.0859
623.00,0.0849
622.00,0.0841
621.00,0.0835
620.00,0.0829
619.00,0.0824
618.00,0.0822
617.00,0.0822
616.00,0.0820
615.00,0.0821
614.00,0.0824
613.00,0.0827
612.00,0.0831
611.00,0.0834
610.00,0.0840
609.00,0.0847
608.00,0.0856
607.00,0.0866
606.00,0.0880
605.00,0.0893
604.00,0.0906
603.00,0.0917
602.00,0.0929
601.00,0.0938
600.00,0.0945
599.00,0.0953
598.00,0.0962
597.00,0.0971
596.00,0.0980
595.00,0.0990
594.00,0.1002
593.00,0.1015
592.00,0.1027
591.00,0.1038
590.00,0.1052
589.00,0.1066
588.00,0.1080
587.00,0.1097
586.00,0.1116
585.00,0.1137
584.00,0.1158
583.00,0.1178
582.00,0.1199
581.00,0.1215
580.00,0.1225
579.00,0.1228
578.00,0.1228
577.00,0.1221
576.00,0.1208
575.00,0.1191
574.00,0.1173
573.00,0.1155
572.00,0.1135
571.00,0.1118
570.00,0.1102
569.00,0.1088
568.00,0.1072
567.00,0.1057
566.00,0.1042
565.00,0.1026
564.00,0.1006
563.00,0.0984
562.00,0.0962
561.00,0.0938
560.00,0.0911
559.00,0.0885
558.00,0.0862
557.00,0.0840
556.00,0.0818
555.00,0.0799
554.00,0.0785
553.00,0.0772
552.00,0.0758
551.00,0.0746
550.00,0.0737
549.00,0.0730
548.00,0.0723
547.00,0.0718
546.00,0.0718
545.00,0.0718
544.00,0.0716
543.00,0.0715
542.00,0.0715
541.00,0.0715
540.00,0.0712
539.00,0.0709
538.00,0.0707
537.00,0.0704
536.00,0.0701
535.00,0.0700
534.00,0.0702
533.00,0.0703
532.00,0.0701
531.00,0.0699
530.00,0.0696
529.00,0.0690
528.00,0.0681
527.00,0.0671
526.00,0.0664
525.00,0.0658
524.00,0.0650
523.00,0.0642
522.00,0.0636
521.00,0.0630
520.00,0.0623
519.00,0.0616
518.00,0.0613
517.00,0.0611
516.00,0.0607
515.00,0.0602
514.00,0.0600
513.00,0.0596
512.00,0.0589
511.00,0.0582
510.00,0.0578
509.00,0.0575
508.00,0.0570
507.00,0.0566
506.00,0.0566
505.00,0.0565
504.00,0.0560
503.00,0.0556
502.00,0.0558
501.00,0.0561
500.00,0.0563
499.00,0.0565
498.00,0.0571
497.00,0.0576
496.00,0.0578
495.00,0.0579
494.00,0.0583
493.00,0.0585
492.00,0.0585
491.00,0.0585
490.00,0.0589
489.00,0.0592
488.00,0.0592
487.00,0.0592
486.00,0.0596
485.00,0.0598
484.00,0.0596
483.00,0.0592
482.00,0.0592
481.00,0.0590
480.00,0.0586
479.00,0.0584
478.00,0.0587
477.00,0.0589
476.00,0.0587
475.00,0.0585
474.00,0.0588
473.00,0.0592
472.00,0.0592
471.00,0.0592
470.00,0.0596
469.00,0.0597
468.00,0.0592
467.00,0.0587
466.00,0.0588
465.00,0.0592
464.00,0.0594
463.00,0.0598
462.00,0.0608
461.00,0.0615
460.00,0.0616
459.00,0.0618
458.00,0.0627
457.00,0.0639
456.00,0.0646
455.00,0.0652
454.00,0.0660
453.00,0.0665
452.00,0.0665
451.00,0.0664
450.00,0.0666
449.00,0.0664
448.00,0.0654
447.00,0.0644
446.00,0.0641
445.00,0.0638
444.00,0.0629
443.00,0.0620
442.00,0.0617
441.00,0.0616
440.00,0.0611
439.00,0.0608
438.00,0.0609
437.00,0.0608
436.00,0.0600
435.00,0.0590
434.00,0.0586
433.00,0.0581
432.00,0.0572
431.00,0.0566
430.00,0.0568
429.00,0.0572
428.00,0.0571
427.00,0.0569
426.00,0.0572
425.00,0.0572
424.00,0.0563
423.00,0.0557
422.00,0.0561
421.00,0.0565
420.00,0.0562
419.00,0.0562
418.00,0.0571
417.00,0.0577
416.00,0.0571
415.00,0.0566
414.00,0.0574
413.00,0.0584
412.00,0.0588
411.00,0.0597
410.00,0.0615
409.00,0.0628
408.00,0.0626
407.00,0.0621
406.00,0.0628
405.00,0.0635
404.00,0.0632
403.00,0.0632
402.00,0.0649
401.00,0.0661
400.00,0.0653
