Created as New Dataset,Sample 240 By YargerLab Date Sunday, October 05 2025
cm-1,A
4000.00,0.0025
3999.00,0.0025
3998.00,0.0025
3997.00,0.0025
3996.00,0.0025
3995.00,0.0025
3994.00,0.0025
3993.00,0.0025
3992.00,0.0025
3991.00,0.0025
3990.00,0.0025
3989.00,0.0025
3988.00,0.0025
3987.00,0.0025
3986.00,0.0025
3985.00,0.0025
3984.00,0.0025
3983.00,0.0025
3982.00,0.0024
3981.00,0.0024
3980.00,0.0024
3979.00,0.0024
3978.00,0.0024
3977.00,0.0024
3976.00,0.0024
3975.00,0.0024
3974.00,0.0024
3973.00,0.0024
3972.00,0.0024
3971.00,0.0024
3970.00,0.0024
3969.00,0.0024
3968.00,0.0024
3967.00,0.0024
3966.00,0.0024
3965.00,0.0024
3964.00,0.0024
3963.00,0.0024
3962.00,0.0024
3961.00,0.0024
3960.00,0.0024
3959.00,0.0024
3958.00,0.0024
3957.00,0.0024
3956.00,0.0024
3955.00,0.0024
3954.00,0.0024
3953.00,0.0024
3952.00,0.0024
3951.00,0.0024
3950.00,0.0024
3949.00,0.0024
3948.00,0.0024
3947.00,0.0024
3946.00,0.0024
3945.00,0.0024
3944.00,0.0024
3943.00,0.0024
3942.00,0.0024
3941.00,0.0024
3940.00,0.0024
3939.00,0.0024
3938.00,0.0024
3937.00,0.0024
3936.00,0.0024
3935.00,0.0024
3934.00,0.0024
3933.00,0.0024
3932.00,0.0024
3931.00,0.0024
3930.00,0.0024
3929.00,0.0024
3928.00,0.0024
3927.00,0.0024
3926.00,0.0024
3925.00,0.0024
3924.00,0.0024
3923.00,0.0024
3922.00,0.0024
3921.00,0.0024
3920.00,0.0024
3919.00,0.0024
3918.00,0.0024
3917.00,0.0024
3916.00,0.0024
3915.00,0.0023
3914.00,0.0023
3913.00,0.0023
3912.00,0.0023
3911.00,0.0023
3910.00,0.0023
3909.00,0.0023
3908.00,0.0024
3907.00,0.0024
3906.00,0.0024
3905.00,0.0025
3904.00,0.0025
3903.00,0.0025
3902.00,0.0025
3901.00,0.0025
3900.00,0.0025
3899.00,0.0024
3898.00,0.0024
3897.00,0.0024
3896.00,0.0024
3895.00,0.0024
3894.00,0.0024
3893.00,0.0024
3892.00,0.0024
3891.00,0.0024
3890.00,0.0024
3889.00,0.0025
3888.00,0.0024
3887.00,0.0024
3886.00,0.0024
3885.00,0.0024
3884.00,0.0024
3883.00,0.0024
3882.00,0.0024
3881.00,0.0024
3880.00,0.0024
3879.00,0.0024
3878.00,0.0024
3877.00,0.0024
3876.00,0.0024
3875.00,0.0024
3874.00,0.0024
3873.00,0.0024
3872.00,0.0024
3871.00,0.0024
3870.00,0.0024
3869.00,0.0024
3868.00,0.0025
3867.00,0.0025
3866.00,0.0025
3865.00,0.0025
3864.00,0.0025
3863.00,0.0025
3862.00,0.0025
3861.00,0.0024
3860.00,0.0024
3859.00,0.0024
3858.00,0.0024
3857.00,0.0025
3856.00,0.0025
3855.00,0.0026
3854.00,0.0025
3853.00,0.0025
3852.00,0.0025
3851.00,0.0025
3850.00,0.0025
3849.00,0.0024
3848.00,0.0023
3847.00,0.0023
3846.00,0.0023
3845.00,0.0023
3844.00,0.0024
3843.00,0.0024
3842.00,0.0025
3841.00,0.0025
3840.00,0.0025
3839.00,0.0026
3838.00,0.0026
3837.00,0.0026
3836.00,0.0026
3835.00,0.0025
3834.00,0.0025
3833.00,0.0025
3832.00,0.0024
3831.00,0.0024
3830.00,0.0024
3829.00,0.0024
3828.00,0.0024
3827.00,0.0024
3826.00,0.0024
3825.00,0.0024
3824.00,0.0024
3823.00,0.0024
3822.00,0.0024
3821.00,0.0024
3820.00,0.0025
3819.00,0.0025
3818.00,0.0026
3817.00,0.0025
3816.00,0.0024
3815.00,0.0024
3814.00,0.0024
3813.00,0.0024
3812.00,0.0024
3811.00,0.0024
3810.00,0.0024
3809.00,0.0024
3808.00,0.0024
3807.00,0.0024
3806.00,0.0024
3805.00,0.0025
3804.00,0.0025
3803.00,0.0025
3802.00,0.0024
3801.00,0.0024
3800.00,0.0024
3799.00,0.0024
3798.00,0.0024
3797.00,0.0023
3796.00,0.0023
3795.00,0.0023
3794.00,0.0023
3793.00,0.0023
3792.00,0.0022
3791.00,0.0022
3790.00,0.0022
3789.00,0.0022
3788.00,0.0022
3787.00,0.0022
3786.00,0.0022
3785.00,0.0022
3784.00,0.0023
3783.00,0.0023
3782.00,0.0023
3781.00,0.0023
3780.00,0.0023
3779.00,0.0022
3778.00,0.0022
3777.00,0.0022
3776.00,0.0022
3775.00,0.0022
3774.00,0.0022
3773.00,0.0022
3772.00,0.0022
3771.00,0.0022
3770.00,0.0022
3769.00,0.0022
3768.00,0.0022
3767.00,0.0023
3766.00,0.0023
3765.00,0.0023
3764.00,0.0023
3763.00,0.0023
3762.00,0.0023
3761.00,0.0023
3760.00,0.0023
3759.00,0.0023
3758.00,0.0023
3757.00,0.0023
3756.00,0.0023
3755.00,0.0024
3754.00,0.0024
3753.00,0.0024
3752.00,0.0024
3751.00,0.0024
3750.00,0.0024
3749.00,0.0024
3748.00,0.0024
3747.00,0.0025
3746.00,0.0024
3745.00,0.0024
3744.00,0.0023
3743.00,0.0023
3742.00,0.0023
3741.00,0.0023
3740.00,0.0023
3739.00,0.0022
3738.00,0.0023
3737.00,0.0023
3736.00,0.0023
3735.00,0.0023
3734.00,0.0023
3733.00,0.0023
3732.00,0.0022
3731.00,0.0022
3730.00,0.0022
3729.00,0.0022
3728.00,0.0022
3727.00,0.0021
3726.00,0.0021
3725.00,0.0021
3724.00,0.0021
3723.00,0.0021
3722.00,0.0020
3721.00,0.0020
3720.00,0.0020
3719.00,0.0021
3718.00,0.0021
3717.00,0.0021
3716.00,0.0021
3715.00,0.0021
3714.00,0.0021
3713.00,0.0021
3712.00,0.0021
3711.00,0.0022
3710.00,0.0022
3709.00,0.0022
3708.00,0.0022
3707.00,0.0022
3706.00,0.0022
3705.00,0.0021
3704.00,0.0021
3703.00,0.0020
3702.00,0.0020
3701.00,0.0020
3700.00,0.0020
3699.00,0.0020
3698.00,0.0020
3697.00,0.0020
3696.00,0.0020
3695.00,0.0020
3694.00,0.0021
3693.00,0.0021
3692.00,0.0022
3691.00,0.0022
3690.00,0.0022
3689.00,0.0022
3688.00,0.0022
3687.00,0.0022
3686.00,0.0022
3685.00,0.0022
3684.00,0.0022
3683.00,0.0022
3682.00,0.0022
3681.00,0.0022
3680.00,0.0022
3679.00,0.0023
3678.00,0.0024
3677.00,0.0024
3676.00,0.0024
3675.00,0.0024
3674.00,0.0025
3673.00,0.0025
3672.00,0.0024
3671.00,0.0023
3670.00,0.0023
3669.00,0.0023
3668.00,0.0023
3667.00,0.0023
3666.00,0.0023
3665.00,0.0022
3664.00,0.0022
3663.00,0.0022
3662.00,0.0022
3661.00,0.0022
3660.00,0.0022
3659.00,0.0023
3658.00,0.0023
3657.00,0.0023
3656.00,0.0024
3655.00,0.0024
3654.00,0.0024
3653.00,0.0024
3652.00,0.0025
3651.00,0.0025
3650.00,0.0025
3649.00,0.0025
3648.00,0.0025
3647.00,0.0025
3646.00,0.0025
3645.00,0.0025
3644.00,0.0025
3643.00,0.0025
3642.00,0.0025
3641.00,0.0025
3640.00,0.0025
3639.00,0.0025
3638.00,0.0025
3637.00,0.0025
3636.00,0.0025
3635.00,0.0025
3634.00,0.0026
3633.00,0.0027
3632.00,0.0027
3631.00,0.0028
3630.00,0.0028
3629.00,0.0028
3628.00,0.0029
3627.00,0.0029
3626.00,0.0030
3625.00,0.0030
3624.00,0.0030
3623.00,0.0030
3622.00,0.0030
3621.00,0.0031
3620.00,0.0031
3619.00,0.0031
3618.00,0.0031
3617.00,0.0032
3616.00,0.0032
3615.00,0.0032
3614.00,0.0032
3613.00,0.0033
3612.00,0.0033
3611.00,0.0034
3610.00,0.0034
3609.00,0.0034
3608.00,0.0034
3607.00,0.0034
3606.00,0.0034
3605.00,0.0034
3604.00,0.0034
3603.00,0.0034
3602.00,0.0034
3601.00,0.0034
3600.00,0.0035
3599.00,0.0035
3598.00,0.0035
3597.00,0.0036
3596.00,0.0036
3595.00,0.0037
3594.00,0.0037
3593.00,0.0038
3592.00,0.0038
3591.00,0.0039
3590.00,0.0039
3589.00,0.0039
3588.00,0.0040
3587.00,0.0040
3586.00,0.0041
3585.00,0.0041
3584.00,0.0041
3583.00,0.0042
3582.00,0.0042
3581.00,0.0042
3580.00,0.0043
3579.00,0.0043
3578.00,0.0043
3577.00,0.0044
3576.00,0.0044
3575.00,0.0044
3574.00,0.0045
3573.00,0.0046
3572.00,0.0046
3571.00,0.0047
3570.00,0.0048
3569.00,0.0049
3568.00,0.0049
3567.00,0.0049
3566.00,0.0050
3565.00,0.0050
3564.00,0.0051
3563.00,0.0051
3562.00,0.0052
3561.00,0.0052
3560.00,0.0053
3559.00,0.0053
3558.00,0.0054
3557.00,0.0054
3556.00,0.0055
3555.00,0.0055
3554.00,0.0056
3553.00,0.0056
3552.00,0.0057
3551.00,0.0057
3550.00,0.0058
3549.00,0.0059
3548.00,0.0060
3547.00,0.0060
3546.00,0.0061
3545.00,0.0061
3544.00,0.0062
3543.00,0.0062
3542.00,0.0063
3541.00,0.0064
3540.00,0.0064
3539.00,0.0065
3538.00,0.0066
3537.00,0.0067
3536.00,0.0067
3535.00,0.0068
3534.00,0.0069
3533.00,0.0070
3532.00,0.0071
3531.00,0.0072
3530.00,0.0072
3529.00,0.0073
3528.00,0.0074
3527.00,0.0074
3526.00,0.0075
3525.00,0.0076
3524.00,0.0077
3523.00,0.0077
3522.00,0.0078
3521.00,0.0079
3520.00,0.0080
3519.00,0.0080
3518.00,0.0081
3517.00,0.0082
3516.00,0.0083
3515.00,0.0084
3514.00,0.0086
3513.00,0.0087
3512.00,0.0088
3511.00,0.0089
3510.00,0.0090
3509.00,0.0091
3508.00,0.0092
3507.00,0.0093
3506.00,0.0094
3505.00,0.0094
3504.00,0.0095
3503.00,0.0097
3502.00,0.0098
3501.00,0.0099
3500.00,0.0100
3499.00,0.0101
3498.00,0.0101
3497.00,0.0102
3496.00,0.0103
3495.00,0.0104
3494.00,0.0105
3493.00,0.0106
3492.00,0.0107
3491.00,0.0109
3490.00,0.0110
3489.00,0.0111
3488.00,0.0112
3487.00,0.0113
3486.00,0.0114
3485.00,0.0115
3484.00,0.0117
3483.00,0.0118
3482.00,0.0119
3481.00,0.0120
3480.00,0.0121
3479.00,0.0122
3478.00,0.0123
3477.00,0.0124
3476.00,0.0126
3475.00,0.0127
3474.00,0.0128
3473.00,0.0129
3472.00,0.0131
3471.00,0.0132
3470.00,0.0133
3469.00,0.0134
3468.00,0.0135
3467.00,0.0136
3466.00,0.0138
3465.00,0.0139
3464.00,0.0140
3463.00,0.0142
3462.00,0.0143
3461.00,0.0144
3460.00,0.0146
3459.00,0.0147
3458.00,0.0149
3457.00,0.0150
3456.00,0.0151
3455.00,0.0152
3454.00,0.0154
3453.00,0.0155
3452.00,0.0156
3451.00,0.0158
3450.00,0.0159
3449.00,0.0161
3448.00,0.0162
3447.00,0.0163
3446.00,0.0165
3445.00,0.0166
3444.00,0.0168
3443.00,0.0169
3442.00,0.0170
3441.00,0.0172
3440.00,0.0173
3439.00,0.0175
3438.00,0.0177
3437.00,0.0178
3436.00,0.0180
3435.00,0.0181
3434.00,0.0183
3433.00,0.0184
3432.00,0.0186
3431.00,0.0187
3430.00,0.0189
3429.00,0.0191
3428.00,0.0192
3427.00,0.0194
3426.00,0.0195
3425.00,0.0197
3424.00,0.0198
3423.00,0.0200
3422.00,0.0202
3421.00,0.0204
3420.00,0.0206
3419.00,0.0208
3418.00,0.0210
3417.00,0.0211
3416.00,0.0213
3415.00,0.0215
3414.00,0.0217
3413.00,0.0219
3412.00,0.0220
3411.00,0.0222
3410.00,0.0224
3409.00,0.0226
3408.00,0.0228
3407.00,0.0230
3406.00,0.0232
3405.00,0.0234
3404.00,0.0236
3403.00,0.0238
3402.00,0.0240
3401.00,0.0242
3400.00,0.0244
3399.00,0.0246
3398.00,0.0248
3397.00,0.0250
3396.00,0.0253
3395.00,0.0255
3394.00,0.0257
3393.00,0.0259
3392.00,0.0261
3391.00,0.0263
3390.00,0.0265
3389.00,0.0268
3388.00,0.0270
3387.00,0.0273
3386.00,0.0275
3385.00,0.0278
3384.00,0.0280
3383.00,0.0282
3382.00,0.0284
3381.00,0.0286
3380.00,0.0288
3379.00,0.0290
3378.00,0.0293
3377.00,0.0295
3376.00,0.0297
3375.00,0.0300
3374.00,0.0302
3373.00,0.0303
3372.00,0.0305
3371.00,0.0306
3370.00,0.0307
3369.00,0.0309
3368.00,0.0312
3367.00,0.0314
3366.00,0.0317
3365.00,0.0320
3364.00,0.0322
3363.00,0.0325
3362.00,0.0326
3361.00,0.0328
3360.00,0.0330
3359.00,0.0332
3358.00,0.0335
3357.00,0.0337
3356.00,0.0339
3355.00,0.0341
3354.00,0.0343
3353.00,0.0344
3352.00,0.0345
3351.00,0.0347
3350.00,0.0349
3349.00,0.0351
3348.00,0.0353
3347.00,0.0355
3346.00,0.0357
3345.00,0.0359
3344.00,0.0360
3343.00,0.0361
3342.00,0.0363
3341.00,0.0364
3340.00,0.0365
3339.00,0.0367
3338.00,0.0369
3337.00,0.0371
3336.00,0.0373
3335.00,0.0375
3334.00,0.0377
3333.00,0.0379
3332.00,0.0381
3331.00,0.0383
3330.00,0.0384
3329.00,0.0385
3328.00,0.0386
3327.00,0.0386
3326.00,0.0387
3325.00,0.0389
3324.00,0.0391
3323.00,0.0393
3322.00,0.0395
3321.00,0.0397
3320.00,0.0398
3319.00,0.0400
3318.00,0.0401
3317.00,0.0403
3316.00,0.0404
3315.00,0.0405
3314.00,0.0406
3313.00,0.0406
3312.00,0.0407
3311.00,0.0407
3310.00,0.0407
3309.00,0.0406
3308.00,0.0406
3307.00,0.0407
3306.00,0.0408
3305.00,0.0410
3304.00,0.0413
3303.00,0.0415
3302.00,0.0417
3301.00,0.0419
3300.00,0.0420
3299.00,0.0420
3298.00,0.0420
3297.00,0.0420
3296.00,0.0420
3295.00,0.0420
3294.00,0.0420
3293.00,0.0420
3292.00,0.0421
3291.00,0.0423
3290.00,0.0424
3289.00,0.0426
3288.00,0.0427
3287.00,0.0427
3286.00,0.0428
3285.00,0.0428
3284.00,0.0428
3283.00,0.0428
3282.00,0.0429
3281.00,0.0429
3280.00,0.0429
3279.00,0.0430
3278.00,0.0430
3277.00,0.0430
3276.00,0.0430
3275.00,0.0429
3274.00,0.0429
3273.00,0.0429
3272.00,0.0429
3271.00,0.0429
3270.00,0.0429
3269.00,0.0430
3268.00,0.0431
3267.00,0.0431
3266.00,0.0431
3265.00,0.0431
3264.00,0.0431
3263.00,0.0431
3262.00,0.0431
3261.00,0.0431
3260.00,0.0431
3259.00,0.0431
3258.00,0.0431
3257.00,0.0431
3256.00,0.0431
3255.00,0.0431
3254.00,0.0431
3253.00,0.0431
3252.00,0.0431
3251.00,0.0431
3250.00,0.0430
3249.00,0.0430
3248.00,0.0430
3247.00,0.0429
3246.00,0.0429
3245.00,0.0429
3244.00,0.0429
3243.00,0.0429
3242.00,0.0429
3241.00,0.0429
3240.00,0.0429
3239.00,0.0429
3238.00,0.0428
3237.00,0.0427
3236.00,0.0427
3235.00,0.0426
3234.00,0.0425
3233.00,0.0424
3232.00,0.0424
3231.00,0.0424
3230.00,0.0423
3229.00,0.0423
3228.00,0.0423
3227.00,0.0422
3226.00,0.0422
3225.00,0.0421
3224.00,0.0421
3223.00,0.0420
3222.00,0.0420
3221.00,0.0419
3220.00,0.0419
3219.00,0.0419
3218.00,0.0418
3217.00,0.0418
3216.00,0.0418
3215.00,0.0418
3214.00,0.0418
3213.00,0.0418
3212.00,0.0418
3211.00,0.0418
3210.00,0.0418
3209.00,0.0417
3208.00,0.0417
3207.00,0.0417
3206.00,0.0416
3205.00,0.0416
3204.00,0.0415
3203.00,0.0415
3202.00,0.0414
3201.00,0.0414
3200.00,0.0413
3199.00,0.0412
3198.00,0.0411
3197.00,0.0411
3196.00,0.0410
3195.00,0.0409
3194.00,0.0408
3193.00,0.0407
3192.00,0.0406
3191.00,0.0405
3190.00,0.0403
3189.00,0.0402
3188.00,0.0401
3187.00,0.0400
3186.00,0.0399
3185.00,0.0398
3184.00,0.0396
3183.00,0.0395
3182.00,0.0393
3181.00,0.0392
3180.00,0.0390
3179.00,0.0389
3178.00,0.0387
3177.00,0.0386
3176.00,0.0384
3175.00,0.0383
3174.00,0.0381
3173.00,0.0379
3172.00,0.0378
3171.00,0.0377
3170.00,0.0375
3169.00,0.0374
3168.00,0.0372
3167.00,0.0371
3166.00,0.0369
3165.00,0.0367
3164.00,0.0365
3163.00,0.0363
3162.00,0.0361
3161.00,0.0359
3160.00,0.0358
3159.00,0.0356
3158.00,0.0355
3157.00,0.0353
3156.00,0.0352
3155.00,0.0350
3154.00,0.0348
3153.00,0.0346
3152.00,0.0344
3151.00,0.0343
3150.00,0.0341
3149.00,0.0339
3148.00,0.0338
3147.00,0.0336
3146.00,0.0334
3145.00,0.0333
3144.00,0.0331
3143.00,0.0330
3142.00,0.0329
3141.00,0.0328
3140.00,0.0327
3139.00,0.0325
3138.00,0.0324
3137.00,0.0323
3136.00,0.0322
3135.00,0.0321
3134.00,0.0319
3133.00,0.0318
3132.00,0.0317
3131.00,0.0316
3130.00,0.0314
3129.00,0.0313
3128.00,0.0311
3127.00,0.0310
3126.00,0.0308
3125.00,0.0307
3124.00,0.0305
3123.00,0.0304
3122.00,0.0302
3121.00,0.0301
3120.00,0.0299
3119.00,0.0298
3118.00,0.0296
3117.00,0.0294
3116.00,0.0292
3115.00,0.0290
3114.00,0.0288
3113.00,0.0286
3112.00,0.0284
3111.00,0.0282
3110.00,0.0281
3109.00,0.0279
3108.00,0.0277
3107.00,0.0275
3106.00,0.0273
3105.00,0.0272
3104.00,0.0270
3103.00,0.0268
3102.00,0.0266
3101.00,0.0264
3100.00,0.0262
3099.00,0.0260
3098.00,0.0259
3097.00,0.0257
3096.00,0.0255
3095.00,0.0254
3094.00,0.0252
3093.00,0.0250
3092.00,0.0248
3091.00,0.0247
3090.00,0.0245
3089.00,0.0244
3088.00,0.0243
3087.00,0.0241
3086.00,0.0240
3085.00,0.0239
3084.00,0.0237
3083.00,0.0236
3082.00,0.0234
3081.00,0.0233
3080.00,0.0231
3079.00,0.0230
3078.00,0.0229
3077.00,0.0228
3076.00,0.0227
3075.00,0.0226
3074.00,0.0224
3073.00,0.0223
3072.00,0.0222
3071.00,0.0221
3070.00,0.0220
3069.00,0.0219
3068.00,0.0219
3067.00,0.0218
3066.00,0.0217
3065.00,0.0216
3064.00,0.0215
3063.00,0.0215
3062.00,0.0214
3061.00,0.0214
3060.00,0.0213
3059.00,0.0213
3058.00,0.0212
3057.00,0.0212
3056.00,0.0211
3055.00,0.0211
3054.00,0.0210
3053.00,0.0209
3052.00,0.0209
3051.00,0.0208
3050.00,0.0207
3049.00,0.0207
3048.00,0.0206
3047.00,0.0205
3046.00,0.0204
3045.00,0.0203
3044.00,0.0202
3043.00,0.0201
3042.00,0.0200
3041.00,0.0200
3040.00,0.0199
3039.00,0.0199
3038.00,0.0199
3037.00,0.0198
3036.00,0.0198
3035.00,0.0198
3034.00,0.0198
3033.00,0.0198
3032.00,0.0199
3031.00,0.0199
3030.00,0.0199
3029.00,0.0199
3028.00,0.0199
3027.00,0.0199
3026.00,0.0199
3025.00,0.0198
3024.00,0.0198
3023.00,0.0197
3022.00,0.0197
3021.00,0.0197
3020.00,0.0196
3019.00,0.0196
3018.00,0.0196
3017.00,0.0196
3016.00,0.0197
3015.00,0.0197
3014.00,0.0198
3013.00,0.0199
3012.00,0.0200
3011.00,0.0202
3010.00,0.0203
3009.00,0.0205
3008.00,0.0208
3007.00,0.0210
3006.00,0.0213
3005.00,0.0216
3004.00,0.0220
3003.00,0.0224
3002.00,0.0228
3001.00,0.0233
3000.00,0.0238
2999.00,0.0244
2998.00,0.0250
2997.00,0.0257
2996.00,0.0265
2995.00,0.0272
2994.00,0.0280
2993.00,0.0289
2992.00,0.0298
2991.00,0.0307
2990.00,0.0316
2989.00,0.0326
2988.00,0.0335
2987.00,0.0344
2986.00,0.0353
2985.00,0.0362
2984.00,0.0370
2983.00,0.0378
2982.00,0.0386
2981.00,0.0395
2980.00,0.0405
2979.00,0.0415
2978.00,0.0426
2977.00,0.0436
2976.00,0.0447
2975.00,0.0458
2974.00,0.0469
2973.00,0.0481
2972.00,0.0493
2971.00,0.0506
2970.00,0.0519
2969.00,0.0532
2968.00,0.0545
2967.00,0.0557
2966.00,0.0569
2965.00,0.0579
2964.00,0.0589
2963.00,0.0598
2962.00,0.0606
2961.00,0.0612
2960.00,0.0617
2959.00,0.0621
2958.00,0.0623
2957.00,0.0623
2956.00,0.0622
2955.00,0.0620
2954.00,0.0616
2953.00,0.0611
2952.00,0.0604
2951.00,0.0597
2950.00,0.0590
2949.00,0.0584
2948.00,0.0579
2947.00,0.0575
2946.00,0.0574
2945.00,0.0575
2944.00,0.0578
2943.00,0.0585
2942.00,0.0593
2941.00,0.0605
2940.00,0.0618
2939.00,0.0633
2938.00,0.0650
2937.00,0.0668
2936.00,0.0687
2935.00,0.0706
2934.00,0.0725
2933.00,0.0744
2932.00,0.0761
2931.00,0.0777
2930.00,0.0791
2929.00,0.0804
2928.00,0.0815
2927.00,0.0823
2926.00,0.0829
2925.00,0.0833
2924.00,0.0835
2923.00,0.0835
2922.00,0.0833
2921.00,0.0831
2920.00,0.0826
2919.00,0.0820
2918.00,0.0813
2917.00,0.0805
2916.00,0.0796
2915.00,0.0785
2914.00,0.0773
2913.00,0.0760
2912.00,0.0746
2911.00,0.0731
2910.00,0.0717
2909.00,0.0702
2908.00,0.0687
2907.00,0.0673
2906.00,0.0660
2905.00,0.0647
2904.00,0.0635
2903.00,0.0624
2902.00,0.0614
2901.00,0.0604
2900.00,0.0596
2899.00,0.0588
2898.00,0.0581
2897.00,0.0575
2896.00,0.0569
2895.00,0.0563
2894.00,0.0558
2893.00,0.0552
2892.00,0.0547
2891.00,0.0542
2890.00,0.0536
2889.00,0.0531
2888.00,0.0526
2887.00,0.0522
2886.00,0.0517
2885.00,0.0513
2884.00,0.0510
2883.00,0.0507
2882.00,0.0505
2881.00,0.0504
2880.00,0.0503
2879.00,0.0504
2878.00,0.0506
2877.00,0.0508
2876.00,0.0511
2875.00,0.0514
2874.00,0.0518
2873.00,0.0521
2872.00,0.0524
2871.00,0.0525
2870.00,0.0525
2869.00,0.0524
2868.00,0.0523
2867.00,0.0522
2866.00,0.0522
2865.00,0.0525
2864.00,0.0529
2863.00,0.0535
2862.00,0.0543
2861.00,0.0551
2860.00,0.0560
2859.00,0.0568
2858.00,0.0574
2857.00,0.0577
2856.00,0.0578
2855.00,0.0575
2854.00,0.0568
2853.00,0.0559
2852.00,0.0547
2851.00,0.0532
2850.00,0.0516
2849.00,0.0499
2848.00,0.0481
2847.00,0.0463
2846.00,0.0446
2845.00,0.0429
2844.00,0.0412
2843.00,0.0396
2842.00,0.0380
2841.00,0.0365
2840.00,0.0350
2839.00,0.0338
2838.00,0.0326
2837.00,0.0316
2836.00,0.0306
2835.00,0.0297
2834.00,0.0288
2833.00,0.0280
2832.00,0.0273
2831.00,0.0266
2830.00,0.0258
2829.00,0.0251
2828.00,0.0244
2827.00,0.0238
2826.00,0.0231
2825.00,0.0224
2824.00,0.0218
2823.00,0.0211
2822.00,0.0204
2821.00,0.0198
2820.00,0.0192
2819.00,0.0187
2818.00,0.0182
2817.00,0.0177
2816.00,0.0173
2815.00,0.0169
2814.00,0.0165
2813.00,0.0162
2812.00,0.0159
2811.00,0.0156
2810.00,0.0153
2809.00,0.0151
2808.00,0.0149
2807.00,0.0147
2806.00,0.0145
2805.00,0.0143
2804.00,0.0141
2803.00,0.0139
2802.00,0.0137
2801.00,0.0136
2800.00,0.0134
2799.00,0.0133
2798.00,0.0131
2797.00,0.0130
2796.00,0.0129
2795.00,0.0128
2794.00,0.0127
2793.00,0.0125
2792.00,0.0124
2791.00,0.0123
2790.00,0.0122
2789.00,0.0122
2788.00,0.0121
2787.00,0.0121
2786.00,0.0120
2785.00,0.0119
2784.00,0.0118
2783.00,0.0118
2782.00,0.0117
2781.00,0.0117
2780.00,0.0116
2779.00,0.0115
2778.00,0.0114
2777.00,0.0114
2776.00,0.0113
2775.00,0.0112
2774.00,0.0112
2773.00,0.0112
2772.00,0.0111
2771.00,0.0111
2770.00,0.0110
2769.00,0.0110
2768.00,0.0109
2767.00,0.0109
2766.00,0.0109
2765.00,0.0109
2764.00,0.0109
2763.00,0.0109
2762.00,0.0108
2761.00,0.0108
2760.00,0.0108
2759.00,0.0108
2758.00,0.0108
2757.00,0.0108
2756.00,0.0108
2755.00,0.0108
2754.00,0.0108
2753.00,0.0108
2752.00,0.0109
2751.00,0.0109
2750.00,0.0109
2749.00,0.0109
2748.00,0.0109
2747.00,0.0110
2746.00,0.0110
2745.00,0.0110
2744.00,0.0111
2743.00,0.0111
2742.00,0.0111
2741.00,0.0112
2740.00,0.0112
2739.00,0.0113
2738.00,0.0113
2737.00,0.0114
2736.00,0.0115
2735.00,0.0115
2734.00,0.0116
2733.00,0.0116
2732.00,0.0116
2731.00,0.0116
2730.00,0.0116
2729.00,0.0116
2728.00,0.0116
2727.00,0.0116
2726.00,0.0116
2725.00,0.0116
2724.00,0.0116
2723.00,0.0116
2722.00,0.0115
2721.00,0.0115
2720.00,0.0115
2719.00,0.0114
2718.00,0.0114
2717.00,0.0113
2716.00,0.0112
2715.00,0.0112
2714.00,0.0111
2713.00,0.0111
2712.00,0.0111
2711.00,0.0110
2710.00,0.0110
2709.00,0.0110
2708.00,0.0109
2707.00,0.0109
2706.00,0.0109
2705.00,0.0108
2704.00,0.0108
2703.00,0.0108
2702.00,0.0108
2701.00,0.0107
2700.00,0.0107
2699.00,0.0107
2698.00,0.0107
2697.00,0.0107
2696.00,0.0106
2695.00,0.0106
2694.00,0.0106
2693.00,0.0106
2692.00,0.0105
2691.00,0.0105
2690.00,0.0105
2689.00,0.0105
2688.00,0.0104
2687.00,0.0104
2686.00,0.0104
2685.00,0.0104
2684.00,0.0103
2683.00,0.0103
2682.00,0.0103
2681.00,0.0102
2680.00,0.0102
2679.00,0.0102
2678.00,0.0101
2677.00,0.0101
2676.00,0.0101
2675.00,0.0101
2674.00,0.0101
2673.00,0.0101
2672.00,0.0101
2671.00,0.0101
2670.00,0.0100
2669.00,0.0100
2668.00,0.0100
2667.00,0.0101
2666.00,0.0101
2665.00,0.0101
2664.00,0.0101
2663.00,0.0101
2662.00,0.0101
2661.00,0.0101
2660.00,0.0101
2659.00,0.0101
2658.00,0.0100
2657.00,0.0100
2656.00,0.0099
2655.00,0.0099
2654.00,0.0099
2653.00,0.0098
2652.00,0.0098
2651.00,0.0097
2650.00,0.0096
2649.00,0.0096
2648.00,0.0095
2647.00,0.0094
2646.00,0.0094
2645.00,0.0093
2644.00,0.0093
2643.00,0.0092
2642.00,0.0092
2641.00,0.0091
2640.00,0.0090
2639.00,0.0090
2638.00,0.0089
2637.00,0.0089
2636.00,0.0088
2635.00,0.0088
2634.00,0.0087
2633.00,0.0087
2632.00,0.0086
2631.00,0.0086
2630.00,0.0085
2629.00,0.0085
2628.00,0.0084
2627.00,0.0084
2626.00,0.0084
2625.00,0.0083
2624.00,0.0083
2623.00,0.0082
2622.00,0.0082
2621.00,0.0081
2620.00,0.0081
2619.00,0.0080
2618.00,0.0080
2617.00,0.0079
2616.00,0.0079
2615.00,0.0079
2614.00,0.0078
2613.00,0.0078
2612.00,0.0077
2611.00,0.0077
2610.00,0.0076
2609.00,0.0076
2608.00,0.0076
2607.00,0.0076
2606.00,0.0075
2605.00,0.0075
2604.00,0.0075
2603.00,0.0075
2602.00,0.0074
2601.00,0.0074
2600.00,0.0074
2599.00,0.0074
2598.00,0.0074
2597.00,0.0074
2596.00,0.0074
2595.00,0.0074
2594.00,0.0074
2593.00,0.0074
2592.00,0.0074
2591.00,0.0074
2590.00,0.0074
2589.00,0.0074
2588.00,0.0074
2587.00,0.0074
2586.00,0.0074
2585.00,0.0074
2584.00,0.0074
2583.00,0.0073
2582.00,0.0072
2581.00,0.0072
2580.00,0.0071
2579.00,0.0071
2578.00,0.0071
2577.00,0.0070
2576.00,0.0070
2575.00,0.0070
2574.00,0.0070
2573.00,0.0070
2572.00,0.0070
2571.00,0.0070
2570.00,0.0069
2569.00,0.0068
2568.00,0.0068
2567.00,0.0067
2566.00,0.0066
2565.00,0.0066
2564.00,0.0066
2563.00,0.0066
2562.00,0.0066
2561.00,0.0065
2560.00,0.0065
2559.00,0.0065
2558.00,0.0064
2557.00,0.0064
2556.00,0.0063
2555.00,0.0063
2554.00,0.0062
2553.00,0.0062
2552.00,0.0062
2551.00,0.0061
2550.00,0.0061
2549.00,0.0061
2548.00,0.0061
2547.00,0.0061
2546.00,0.0061
2545.00,0.0062
2544.00,0.0062
2543.00,0.0061
2542.00,0.0061
2541.00,0.0060
2540.00,0.0060
2539.00,0.0060
2538.00,0.0060
2537.00,0.0060
2536.00,0.0060
2535.00,0.0060
2534.00,0.0060
2533.00,0.0059
2532.00,0.0059
2531.00,0.0059
2530.00,0.0059
2529.00,0.0058
2528.00,0.0058
2527.00,0.0058
2526.00,0.0058
2525.00,0.0058
2524.00,0.0058
2523.00,0.0057
2522.00,0.0057
2521.00,0.0057
2520.00,0.0056
2519.00,0.0056
2518.00,0.0055
2517.00,0.0055
2516.00,0.0055
2515.00,0.0055
2514.00,0.0055
2513.00,0.0054
2512.00,0.0054
2511.00,0.0054
2510.00,0.0053
2509.00,0.0053
2508.00,0.0052
2507.00,0.0052
2506.00,0.0052
2505.00,0.0051
2504.00,0.0051
2503.00,0.0051
2502.00,0.0051
2501.00,0.0051
2500.00,0.0051
2499.00,0.0051
2498.00,0.0050
2497.00,0.0050
2496.00,0.0050
2495.00,0.0050
2494.00,0.0049
2493.00,0.0049
2492.00,0.0049
2491.00,0.0049
2490.00,0.0049
2489.00,0.0049
2488.00,0.0049
2487.00,0.0048
2486.00,0.0048
2485.00,0.0048
2484.00,0.0048
2483.00,0.0048
2482.00,0.0047
2481.00,0.0047
2480.00,0.0047
2479.00,0.0047
2478.00,0.0047
2477.00,0.0047
2476.00,0.0046
2475.00,0.0046
2474.00,0.0045
2473.00,0.0045
2472.00,0.0045
2471.00,0.0045
2470.00,0.0045
2469.00,0.0045
2468.00,0.0044
2467.00,0.0044
2466.00,0.0044
2465.00,0.0044
2464.00,0.0044
2463.00,0.0045
2462.00,0.0045
2461.00,0.0045
2460.00,0.0045
2459.00,0.0045
2458.00,0.0044
2457.00,0.0044
2456.00,0.0044
2455.00,0.0044
2454.00,0.0044
2453.00,0.0044
2452.00,0.0044
2451.00,0.0044
2450.00,0.0044
2449.00,0.0044
2448.00,0.0044
2447.00,0.0044
2446.00,0.0043
2445.00,0.0043
2444.00,0.0043
2443.00,0.0043
2442.00,0.0042
2441.00,0.0042
2440.00,0.0042
2439.00,0.0041
2438.00,0.0041
2437.00,0.0041
2436.00,0.0041
2435.00,0.0041
2434.00,0.0041
2433.00,0.0041
2432.00,0.0041
2431.00,0.0040
2430.00,0.0040
2429.00,0.0040
2428.00,0.0040
2427.00,0.0040
2426.00,0.0040
2425.00,0.0040
2424.00,0.0040
2423.00,0.0040
2422.00,0.0039
2421.00,0.0040
2420.00,0.0040
2419.00,0.0040
2418.00,0.0040
2417.00,0.0040
2416.00,0.0039
2415.00,0.0039
2414.00,0.0040
2413.00,0.0040
2412.00,0.0040
2411.00,0.0041
2410.00,0.0041
2409.00,0.0041
2408.00,0.0041
2407.00,0.0040
2406.00,0.0040
2405.00,0.0039
2404.00,0.0039
2403.00,0.0040
2402.00,0.0040
2401.00,0.0040
2400.00,0.0040
2399.00,0.0040
2398.00,0.0040
2397.00,0.0040
2396.00,0.0041
2395.00,0.0040
2394.00,0.0040
2393.00,0.0040
2392.00,0.0039
2391.00,0.0039
2390.00,0.0038
2389.00,0.0038
2388.00,0.0038
2387.00,0.0037
2386.00,0.0037
2385.00,0.0036
2384.00,0.0036
2383.00,0.0035
2382.00,0.0034
2381.00,0.0034
2380.00,0.0033
2379.00,0.0033
2378.00,0.0033
2377.00,0.0032
2376.00,0.0032
2375.00,0.0032
2374.00,0.0033
2373.00,0.0033
2372.00,0.0032
2371.00,0.0032
2370.00,0.0031
2369.00,0.0030
2368.00,0.0030
2367.00,0.0030
2366.00,0.0030
2365.00,0.0031
2364.00,0.0031
2363.00,0.0031
2362.00,0.0031
2361.00,0.0031
2360.00,0.0031
2359.00,0.0030
2358.00,0.0031
2357.00,0.0031
2356.00,0.0031
2355.00,0.0031
2354.00,0.0031
2353.00,0.0031
2352.00,0.0031
2351.00,0.0030
2350.00,0.0031
2349.00,0.0031
2348.00,0.0031
2347.00,0.0032
2346.00,0.0033
2345.00,0.0034
2344.00,0.0034
2343.00,0.0033
2342.00,0.0033
2341.00,0.0032
2340.00,0.0033
2339.00,0.0033
2338.00,0.0033
2337.00,0.0034
2336.00,0.0034
2335.00,0.0034
2334.00,0.0034
2333.00,0.0034
2332.00,0.0034
2331.00,0.0034
2330.00,0.0034
2329.00,0.0035
2328.00,0.0037
2327.00,0.0040
2326.00,0.0043
2325.00,0.0044
2324.00,0.0043
2323.00,0.0041
2322.00,0.0039
2321.00,0.0038
2320.00,0.0037
2319.00,0.0037
2318.00,0.0037
2317.00,0.0036
2316.00,0.0036
2315.00,0.0036
2314.00,0.0035
2313.00,0.0034
2312.00,0.0034
2311.00,0.0033
2310.00,0.0033
2309.00,0.0033
2308.00,0.0033
2307.00,0.0033
2306.00,0.0033
2305.00,0.0033
2304.00,0.0033
2303.00,0.0034
2302.00,0.0034
2301.00,0.0034
2300.00,0.0034
2299.00,0.0035
2298.00,0.0035
2297.00,0.0035
2296.00,0.0036
2295.00,0.0036
2294.00,0.0037
2293.00,0.0037
2292.00,0.0038
2291.00,0.0038
2290.00,0.0039
2289.00,0.0040
2288.00,0.0040
2287.00,0.0041
2286.00,0.0040
2285.00,0.0040
2284.00,0.0040
2283.00,0.0040
2282.00,0.0039
2281.00,0.0038
2280.00,0.0037
2279.00,0.0036
2278.00,0.0035
2277.00,0.0034
2276.00,0.0035
2275.00,0.0035
2274.00,0.0035
2273.00,0.0035
2272.00,0.0036
2271.00,0.0035
2270.00,0.0035
2269.00,0.0034
2268.00,0.0034
2267.00,0.0033
2266.00,0.0032
2265.00,0.0032
2264.00,0.0032
2263.00,0.0032
2262.00,0.0033
2261.00,0.0033
2260.00,0.0033
2259.00,0.0033
2258.00,0.0033
2257.00,0.0032
2256.00,0.0031
2255.00,0.0031
2254.00,0.0031
2253.00,0.0031
2252.00,0.0031
2251.00,0.0032
2250.00,0.0032
2249.00,0.0031
2248.00,0.0031
2247.00,0.0031
2246.00,0.0030
2245.00,0.0030
2244.00,0.0031
2243.00,0.0032
2242.00,0.0032
2241.00,0.0032
2240.00,0.0032
2239.00,0.0032
2238.00,0.0031
2237.00,0.0031
2236.00,0.0032
2235.00,0.0032
2234.00,0.0032
2233.00,0.0032
2232.00,0.0031
2231.00,0.0031
2230.00,0.0030
2229.00,0.0030
2228.00,0.0030
2227.00,0.0031
2226.00,0.0032
2225.00,0.0033
2224.00,0.0033
2223.00,0.0033
2222.00,0.0033
2221.00,0.0033
2220.00,0.0033
2219.00,0.0032
2218.00,0.0032
2217.00,0.0031
2216.00,0.0031
2215.00,0.0030
2214.00,0.0030
2213.00,0.0030
2212.00,0.0031
2211.00,0.0032
2210.00,0.0032
2209.00,0.0033
2208.00,0.0033
2207.00,0.0032
2206.00,0.0030
2205.00,0.0030
2204.00,0.0031
2203.00,0.0031
2202.00,0.0032
2201.00,0.0032
2200.00,0.0031
2199.00,0.0031
2198.00,0.0031
2197.00,0.0031
2196.00,0.0032
2195.00,0.0032
2194.00,0.0032
2193.00,0.0032
2192.00,0.0033
2191.00,0.0033
2190.00,0.0033
2189.00,0.0034
2188.00,0.0034
2187.00,0.0034
2186.00,0.0033
2185.00,0.0031
2184.00,0.0030
2183.00,0.0029
2182.00,0.0027
2181.00,0.0027
2180.00,0.0026
2179.00,0.0025
2178.00,0.0024
2177.00,0.0022
2176.00,0.0021
2175.00,0.0021
2174.00,0.0022
2173.00,0.0025
2172.00,0.0029
2171.00,0.0032
2170.00,0.0033
2169.00,0.0035
2168.00,0.0037
2167.00,0.0038
2166.00,0.0038
2165.00,0.0039
2164.00,0.0040
2163.00,0.0040
2162.00,0.0036
2161.00,0.0026
2160.00,0.0014
2159.00,0.0003
2158.00,-0.0002
2157.00,-0.0000
2156.00,0.0003
2155.00,0.0005
2154.00,0.0006
2153.00,0.0007
2152.00,0.0009
2151.00,0.0011
2150.00,0.0012
2149.00,0.0012
2148.00,0.0013
2147.00,0.0013
2146.00,0.0012
2145.00,0.0013
2144.00,0.0014
2143.00,0.0015
2142.00,0.0015
2141.00,0.0015
2140.00,0.0015
2139.00,0.0015
2138.00,0.0014
2137.00,0.0013
2136.00,0.0011
2135.00,0.0009
2134.00,0.0008
2133.00,0.0009
2132.00,0.0011
2131.00,0.0012
2130.00,0.0014
2129.00,0.0016
2128.00,0.0017
2127.00,0.0019
2126.00,0.0020
2125.00,0.0021
2124.00,0.0022
2123.00,0.0022
2122.00,0.0022
2121.00,0.0022
2120.00,0.0022
2119.00,0.0022
2118.00,0.0022
2117.00,0.0023
2116.00,0.0025
2115.00,0.0026
2114.00,0.0026
2113.00,0.0026
2112.00,0.0026
2111.00,0.0025
2110.00,0.0025
2109.00,0.0025
2108.00,0.0025
2107.00,0.0025
2106.00,0.0024
2105.00,0.0023
2104.00,0.0023
2103.00,0.0022
2102.00,0.0021
2101.00,0.0021
2100.00,0.0021
2099.00,0.0021
2098.00,0.0020
2097.00,0.0019
2096.00,0.0018
2095.00,0.0017
2094.00,0.0017
2093.00,0.0018
2092.00,0.0020
2091.00,0.0021
2090.00,0.0021
2089.00,0.0022
2088.00,0.0023
2087.00,0.0023
2086.00,0.0023
2085.00,0.0024
2084.00,0.0024
2083.00,0.0025
2082.00,0.0024
2081.00,0.0024
2080.00,0.0024
2079.00,0.0023
2078.00,0.0023
2077.00,0.0023
2076.00,0.0023
2075.00,0.0023
2074.00,0.0022
2073.00,0.0022
2072.00,0.0022
2071.00,0.0023
2070.00,0.0024
2069.00,0.0024
2068.00,0.0023
2067.00,0.0022
2066.00,0.0022
2065.00,0.0021
2064.00,0.0022
2063.00,0.0021
2062.00,0.0021
2061.00,0.0020
2060.00,0.0021
2059.00,0.0022
2058.00,0.0023
2057.00,0.0024
2056.00,0.0024
2055.00,0.0024
2054.00,0.0025
2053.00,0.0028
2052.00,0.0030
2051.00,0.0031
2050.00,0.0028
2049.00,0.0025
2048.00,0.0023
2047.00,0.0021
2046.00,0.0020
2045.00,0.0020
2044.00,0.0021
2043.00,0.0022
2042.00,0.0022
2041.00,0.0023
2040.00,0.0024
2039.00,0.0024
2038.00,0.0023
2037.00,0.0022
2036.00,0.0022
2035.00,0.0020
2034.00,0.0017
2033.00,0.0014
2032.00,0.0012
2031.00,0.0012
2030.00,0.0012
2029.00,0.0014
2028.00,0.0017
2027.00,0.0018
2026.00,0.0017
2025.00,0.0017
2024.00,0.0016
2023.00,0.0015
2022.00,0.0013
2021.00,0.0012
2020.00,0.0013
2019.00,0.0014
2018.00,0.0015
2017.00,0.0016
2016.00,0.0017
2015.00,0.0017
2014.00,0.0016
2013.00,0.0016
2012.00,0.0017
2011.00,0.0018
2010.00,0.0017
2009.00,0.0016
2008.00,0.0014
2007.00,0.0013
2006.00,0.0011
2005.00,0.0011
2004.00,0.0012
2003.00,0.0013
2002.00,0.0013
2001.00,0.0014
2000.00,0.0015
1999.00,0.0016
1998.00,0.0016
1997.00,0.0016
1996.00,0.0017
1995.00,0.0017
1994.00,0.0017
1993.00,0.0018
1992.00,0.0021
1991.00,0.0023
1990.00,0.0023
1989.00,0.0022
1988.00,0.0022
1987.00,0.0021
1986.00,0.0019
1985.00,0.0020
1984.00,0.0023
1983.00,0.0027
1982.00,0.0029
1981.00,0.0030
1980.00,0.0029
1979.00,0.0025
1978.00,0.0020
1977.00,0.0016
1976.00,0.0014
1975.00,0.0013
1974.00,0.0011
1973.00,0.0011
1972.00,0.0012
1971.00,0.0012
1970.00,0.0011
1969.00,0.0010
1968.00,0.0011
1967.00,0.0011
1966.00,0.0012
1965.00,0.0013
1964.00,0.0015
1963.00,0.0015
1962.00,0.0013
1961.00,0.0012
1960.00,0.0011
1959.00,0.0011
1958.00,0.0012
1957.00,0.0013
1956.00,0.0015
1955.00,0.0018
1954.00,0.0018
1953.00,0.0019
1952.00,0.0019
1951.00,0.0019
1950.00,0.0018
1949.00,0.0017
1948.00,0.0018
1947.00,0.0019
1946.00,0.0019
1945.00,0.0019
1944.00,0.0019
1943.00,0.0018
1942.00,0.0017
1941.00,0.0017
1940.00,0.0018
1939.00,0.0018
1938.00,0.0017
1937.00,0.0017
1936.00,0.0018
1935.00,0.0018
1934.00,0.0018
1933.00,0.0018
1932.00,0.0019
1931.00,0.0019
1930.00,0.0019
1929.00,0.0019
1928.00,0.0020
1927.00,0.0021
1926.00,0.0020
1925.00,0.0020
1924.00,0.0020
1923.00,0.0020
1922.00,0.0020
1921.00,0.0021
1920.00,0.0021
1919.00,0.0021
1918.00,0.0021
1917.00,0.0021
1916.00,0.0021
1915.00,0.0021
1914.00,0.0022
1913.00,0.0022
1912.00,0.0023
1911.00,0.0024
1910.00,0.0024
1909.00,0.0024
1908.00,0.0024
1907.00,0.0024
1906.00,0.0024
1905.00,0.0024
1904.00,0.0024
1903.00,0.0024
1902.00,0.0023
1901.00,0.0023
1900.00,0.0023
1899.00,0.0023
1898.00,0.0023
1897.00,0.0024
1896.00,0.0025
1895.00,0.0026
1894.00,0.0026
1893.00,0.0025
1892.00,0.0025
1891.00,0.0025
1890.00,0.0025
1889.00,0.0025
1888.00,0.0025
1887.00,0.0025
1886.00,0.0025
1885.00,0.0026
1884.00,0.0026
1883.00,0.0027
1882.00,0.0026
1881.00,0.0026
1880.00,0.0026
1879.00,0.0026
1878.00,0.0026
1877.00,0.0026
1876.00,0.0027
1875.00,0.0027
1874.00,0.0027
1873.00,0.0026
1872.00,0.0026
1871.00,0.0026
1870.00,0.0026
1869.00,0.0026
1868.00,0.0027
1867.00,0.0027
1866.00,0.0026
1865.00,0.0026
1864.00,0.0026
1863.00,0.0027
1862.00,0.0027
1861.00,0.0028
1860.00,0.0028
1859.00,0.0029
1858.00,0.0028
1857.00,0.0028
1856.00,0.0029
1855.00,0.0029
1854.00,0.0028
1853.00,0.0029
1852.00,0.0029
1851.00,0.0029
1850.00,0.0029
1849.00,0.0029
1848.00,0.0029
1847.00,0.0029
1846.00,0.0028
1845.00,0.0028
1844.00,0.0028
1843.00,0.0028
1842.00,0.0027
1841.00,0.0028
1840.00,0.0029
1839.00,0.0030
1838.00,0.0030
1837.00,0.0031
1836.00,0.0031
1835.00,0.0031
1834.00,0.0031
1833.00,0.0030
1832.00,0.0030
1831.00,0.0031
1830.00,0.0031
1829.00,0.0031
1828.00,0.0031
1827.00,0.0031
1826.00,0.0030
1825.00,0.0031
1824.00,0.0031
1823.00,0.0031
1822.00,0.0031
1821.00,0.0031
1820.00,0.0032
1819.00,0.0031
1818.00,0.0031
1817.00,0.0030
1816.00,0.0031
1815.00,0.0031
1814.00,0.0031
1813.00,0.0032
1812.00,0.0033
1811.00,0.0033
1810.00,0.0033
1809.00,0.0033
1808.00,0.0033
1807.00,0.0034
1806.00,0.0034
1805.00,0.0034
1804.00,0.0034
1803.00,0.0034
1802.00,0.0034
1801.00,0.0034
1800.00,0.0035
1799.00,0.0035
1798.00,0.0034
1797.00,0.0034
1796.00,0.0035
1795.00,0.0035
1794.00,0.0035
1793.00,0.0034
1792.00,0.0035
1791.00,0.0035
1790.00,0.0035
1789.00,0.0036
1788.00,0.0037
1787.00,0.0037
1786.00,0.0037
1785.00,0.0038
1784.00,0.0038
1783.00,0.0039
1782.00,0.0039
1781.00,0.0039
1780.00,0.0040
1779.00,0.0041
1778.00,0.0040
1777.00,0.0041
1776.00,0.0041
1775.00,0.0042
1774.00,0.0041
1773.00,0.0041
1772.00,0.0042
1771.00,0.0042
1770.00,0.0042
1769.00,0.0042
1768.00,0.0044
1767.00,0.0045
1766.00,0.0046
1765.00,0.0046
1764.00,0.0047
1763.00,0.0047
1762.00,0.0047
1761.00,0.0048
1760.00,0.0048
1759.00,0.0049
1758.00,0.0049
1757.00,0.0050
1756.00,0.0052
1755.00,0.0052
1754.00,0.0052
1753.00,0.0052
1752.00,0.0053
1751.00,0.0053
1750.00,0.0053
1749.00,0.0053
1748.00,0.0055
1747.00,0.0057
1746.00,0.0058
1745.00,0.0059
1744.00,0.0060
1743.00,0.0061
1742.00,0.0061
1741.00,0.0062
1740.00,0.0063
1739.00,0.0065
1738.00,0.0065
1737.00,0.0065
1736.00,0.0066
1735.00,0.0067
1734.00,0.0068
1733.00,0.0069
1732.00,0.0072
1731.00,0.0075
1730.00,0.0078
1729.00,0.0081
1728.00,0.0085
1727.00,0.0087
1726.00,0.0089
1725.00,0.0092
1724.00,0.0095
1723.00,0.0098
1722.00,0.0100
1721.00,0.0102
1720.00,0.0104
1719.00,0.0107
1718.00,0.0109
1717.00,0.0112
1716.00,0.0117
1715.00,0.0123
1714.00,0.0129
1713.00,0.0136
1712.00,0.0144
1711.00,0.0153
1710.00,0.0161
1709.00,0.0171
1708.00,0.0182
1707.00,0.0195
1706.00,0.0209
1705.00,0.0226
1704.00,0.0245
1703.00,0.0262
1702.00,0.0281
1701.00,0.0313
1700.00,0.0356
1699.00,0.0397
1698.00,0.0435
1697.00,0.0480
1696.00,0.0540
1695.00,0.0608
1694.00,0.0671
1693.00,0.0730
1692.00,0.0791
1691.00,0.0856
1690.00,0.0923
1689.00,0.0988
1688.00,0.1046
1687.00,0.1097
1686.00,0.1142
1685.00,0.1191
1684.00,0.1243
1683.00,0.1285
1682.00,0.1316
1681.00,0.1343
1680.00,0.1369
1679.00,0.1396
1678.00,0.1421
1677.00,0.1450
1676.00,0.1490
1675.00,0.1539
1674.00,0.1593
1673.00,0.1651
1672.00,0.1715
1671.00,0.1790
1670.00,0.1880
1669.00,0.1982
1668.00,0.2084
1667.00,0.2178
1666.00,0.2265
1665.00,0.2351
1664.00,0.2442
1663.00,0.2537
1662.00,0.2625
1661.00,0.2702
1660.00,0.2767
1659.00,0.2821
1658.00,0.2863
1657.00,0.2895
1656.00,0.2916
1655.00,0.2921
1654.00,0.2899
1653.00,0.2851
1652.00,0.2795
1651.00,0.2743
1650.00,0.2689
1649.00,0.2618
1648.00,0.2518
1647.00,0.2385
1646.00,0.2238
1645.00,0.2102
1644.00,0.1982
1643.00,0.1870
1642.00,0.1759
1641.00,0.1648
1640.00,0.1545
1639.00,0.1451
1638.00,0.1364
1637.00,0.1276
1636.00,0.1184
1635.00,0.1100
1634.00,0.1035
1633.00,0.0987
1632.00,0.0951
1631.00,0.0920
1630.00,0.0893
1629.00,0.0872
1628.00,0.0859
1627.00,0.0852
1626.00,0.0850
1625.00,0.0852
1624.00,0.0858
1623.00,0.0867
1622.00,0.0874
1621.00,0.0878
1620.00,0.0879
1619.00,0.0874
1618.00,0.0862
1617.00,0.0842
1616.00,0.0817
1615.00,0.0791
1614.00,0.0767
1613.00,0.0744
1612.00,0.0722
1611.00,0.0703
1610.00,0.0688
1609.00,0.0680
1608.00,0.0681
1607.00,0.0691
1606.00,0.0711
1605.00,0.0739
1604.00,0.0776
1603.00,0.0819
1602.00,0.0863
1601.00,0.0904
1600.00,0.0938
1599.00,0.0961
1598.00,0.0970
1597.00,0.0966
1596.00,0.0949
1595.00,0.0923
1594.00,0.0891
1593.00,0.0856
1592.00,0.0823
1591.00,0.0793
1590.00,0.0766
1589.00,0.0741
1588.00,0.0718
1587.00,0.0694
1586.00,0.0670
1585.00,0.0642
1584.00,0.0614
1583.00,0.0583
1582.00,0.0552
1581.00,0.0522
1580.00,0.0494
1579.00,0.0468
1578.00,0.0444
1577.00,0.0419
1576.00,0.0394
1575.00,0.0374
1574.00,0.0360
1573.00,0.0349
1572.00,0.0339
1571.00,0.0328
1570.00,0.0317
1569.00,0.0305
1568.00,0.0296
1567.00,0.0288
1566.00,0.0281
1565.00,0.0276
1564.00,0.0270
1563.00,0.0264
1562.00,0.0258
1561.00,0.0252
1560.00,0.0244
1559.00,0.0238
1558.00,0.0234
1557.00,0.0230
1556.00,0.0229
1555.00,0.0230
1554.00,0.0230
1553.00,0.0230
1552.00,0.0230
1551.00,0.0231
1550.00,0.0231
1549.00,0.0232
1548.00,0.0232
1547.00,0.0233
1546.00,0.0234
1545.00,0.0236
1544.00,0.0238
1543.00,0.0239
1542.00,0.0239
1541.00,0.0239
1540.00,0.0241
1539.00,0.0242
1538.00,0.0243
1537.00,0.0245
1536.00,0.0246
1535.00,0.0247
1534.00,0.0246
1533.00,0.0244
1532.00,0.0242
1531.00,0.0240
1530.00,0.0239
1529.00,0.0239
1528.00,0.0239
1527.00,0.0239
1526.00,0.0239
1525.00,0.0240
1524.00,0.0241
1523.00,0.0242
1522.00,0.0244
1521.00,0.0246
1520.00,0.0248
1519.00,0.0250
1518.00,0.0253
1517.00,0.0255
1516.00,0.0257
1515.00,0.0258
1514.00,0.0257
1513.00,0.0258
1512.00,0.0258
1511.00,0.0259
1510.00,0.0259
1509.00,0.0260
1508.00,0.0262
1507.00,0.0268
1506.00,0.0277
1505.00,0.0289
1504.00,0.0303
1503.00,0.0321
1502.00,0.0342
1501.00,0.0366
1500.00,0.0393
1499.00,0.0424
1498.00,0.0456
1497.00,0.0488
1496.00,0.0516
1495.00,0.0536
1494.00,0.0546
1493.00,0.0547
1492.00,0.0539
1491.00,0.0521
1490.00,0.0495
1489.00,0.0465
1488.00,0.0434
1487.00,0.0406
1486.00,0.0381
1485.00,0.0360
1484.00,0.0345
1483.00,0.0332
1482.00,0.0323
1481.00,0.0319
1480.00,0.0317
1479.00,0.0319
1478.00,0.0323
1477.00,0.0332
1476.00,0.0345
1475.00,0.0360
1474.00,0.0383
1473.00,0.0417
1472.00,0.0464
1471.00,0.0517
1470.00,0.0575
1469.00,0.0637
1468.00,0.0704
1467.00,0.0776
1466.00,0.0854
1465.00,0.0936
1464.00,0.1011
1463.00,0.1069
1462.00,0.1106
1461.00,0.1126
1460.00,0.1129
1459.00,0.1115
1458.00,0.1083
1457.00,0.1040
1456.00,0.1000
1455.00,0.0972
1454.00,0.0957
1453.00,0.0953
1452.00,0.0958
1451.00,0.0970
1450.00,0.0994
1449.00,0.1030
1448.00,0.1078
1447.00,0.1134
1446.00,0.1195
1445.00,0.1259
1444.00,0.1325
1443.00,0.1391
1442.00,0.1455
1441.00,0.1515
1440.00,0.1570
1439.00,0.1618
1438.00,0.1665
1437.00,0.1720
1436.00,0.1781
1435.00,0.1842
1434.00,0.1907
1433.00,0.1980
1432.00,0.2061
1431.00,0.2142
1430.00,0.2215
1429.00,0.2275
1428.00,0.2312
1427.00,0.2324
1426.00,0.2317
1425.00,0.2296
1424.00,0.2260
1423.00,0.2210
1422.00,0.2147
1421.00,0.2065
1420.00,0.1950
1419.00,0.1805
1418.00,0.1654
1417.00,0.1519
1416.00,0.1398
1415.00,0.1287
1414.00,0.1189
1413.00,0.1104
1412.00,0.1032
1411.00,0.0973
1410.00,0.0926
1409.00,0.0891
1408.00,0.0863
1407.00,0.0841
1406.00,0.0826
1405.00,0.0814
1404.00,0.0805
1403.00,0.0799
1402.00,0.0796
1401.00,0.0794
1400.00,0.0791
1399.00,0.0790
1398.00,0.0789
1397.00,0.0789
1396.00,0.0790
1395.00,0.0792
1394.00,0.0797
1393.00,0.0803
1392.00,0.0810
1391.00,0.0820
1390.00,0.0832
1389.00,0.0847
1388.00,0.0866
1387.00,0.0889
1386.00,0.0917
1385.00,0.0947
1384.00,0.0979
1383.00,0.1010
1382.00,0.1041
1381.00,0.1068
1380.00,0.1092
1379.00,0.1111
1378.00,0.1125
1377.00,0.1133
1376.00,0.1131
1375.00,0.1118
1374.00,0.1095
1373.00,0.1065
1372.00,0.1033
1371.00,0.1003
1370.00,0.0975
1369.00,0.0950
1368.00,0.0927
1367.00,0.0906
1366.00,0.0887
1365.00,0.0868
1364.00,0.0849
1363.00,0.0830
1362.00,0.0812
1361.00,0.0796
1360.00,0.0782
1359.00,0.0769
1358.00,0.0758
1357.00,0.0749
1356.00,0.0742
1355.00,0.0736
1354.00,0.0731
1353.00,0.0727
1352.00,0.0721
1351.00,0.0714
1350.00,0.0705
1349.00,0.0695
1348.00,0.0684
1347.00,0.0671
1346.00,0.0660
1345.00,0.0649
1344.00,0.0639
1343.00,0.0631
1342.00,0.0625
1341.00,0.0620
1340.00,0.0616
1339.00,0.0612
1338.00,0.0609
1337.00,0.0607
1336.00,0.0606
1335.00,0.0606
1334.00,0.0607
1333.00,0.0610
1332.00,0.0614
1331.00,0.0620
1330.00,0.0629
1329.00,0.0640
1328.00,0.0653
1327.00,0.0669
1326.00,0.0688
1325.00,0.0709
1324.00,0.0731
1323.00,0.0753
1322.00,0.0774
1321.00,0.0793
1320.00,0.0809
1319.00,0.0821
1318.00,0.0827
1317.00,0.0828
1316.00,0.0825
1315.00,0.0817
1314.00,0.0807
1313.00,0.0795
1312.00,0.0782
1311.00,0.0770
1310.00,0.0759
1309.00,0.0751
1308.00,0.0744
1307.00,0.0741
1306.00,0.0743
1305.00,0.0749
1304.00,0.0762
1303.00,0.0782
1302.00,0.0811
1301.00,0.0852
1300.00,0.0905
1299.00,0.0974
1298.00,0.1061
1297.00,0.1166
1296.00,0.1288
1295.00,0.1420
1294.00,0.1555
1293.00,0.1684
1292.00,0.1797
1291.00,0.1886
1290.00,0.1947
1289.00,0.1980
1288.00,0.1986
1287.00,0.1969
1286.00,0.1932
1285.00,0.1881
1284.00,0.1820
1283.00,0.1756
1282.00,0.1693
1281.00,0.1640
1280.00,0.1599
1279.00,0.1572
1278.00,0.1559
1277.00,0.1556
1276.00,0.1561
1275.00,0.1566
1274.00,0.1568
1273.00,0.1561
1272.00,0.1544
1271.00,0.1514
1270.00,0.1473
1269.00,0.1422
1268.00,0.1364
1267.00,0.1302
1266.00,0.1239
1265.00,0.1176
1264.00,0.1117
1263.00,0.1061
1262.00,0.1010
1261.00,0.0963
1260.00,0.0920
1259.00,0.0882
1258.00,0.0847
1257.00,0.0815
1256.00,0.0785
1255.00,0.0757
1254.00,0.0731
1253.00,0.0706
1252.00,0.0682
1251.00,0.0660
1250.00,0.0639
1249.00,0.0621
1248.00,0.0605
1247.00,0.0592
1246.00,0.0582
1245.00,0.0576
1244.00,0.0572
1243.00,0.0572
1242.00,0.0575
1241.00,0.0582
1240.00,0.0591
1239.00,0.0605
1238.00,0.0623
1237.00,0.0647
1236.00,0.0675
1235.00,0.0708
1234.00,0.0745
1233.00,0.0784
1232.00,0.0822
1231.00,0.0858
1230.00,0.0890
1229.00,0.0916
1228.00,0.0934
1227.00,0.0946
1226.00,0.0952
1225.00,0.0953
1224.00,0.0951
1223.00,0.0946
1222.00,0.0939
1221.00,0.0931
1220.00,0.0920
1219.00,0.0907
1218.00,0.0891
1217.00,0.0871
1216.00,0.0849
1215.00,0.0824
1214.00,0.0798
1213.00,0.0771
1212.00,0.0746
1211.00,0.0722
1210.00,0.0700
1209.00,0.0682
1208.00,0.0666
1207.00,0.0652
1206.00,0.0641
1205.00,0.0631
1204.00,0.0623
1203.00,0.0615
1202.00,0.0607
1201.00,0.0600
1200.00,0.0593
1199.00,0.0586
1198.00,0.0579
1197.00,0.0572
1196.00,0.0565
1195.00,0.0558
1194.00,0.0552
1193.00,0.0545
1192.00,0.0539
1191.00,0.0533
1190.00,0.0528
1189.00,0.0522
1188.00,0.0518
1187.00,0.0514
1186.00,0.0511
1185.00,0.0509
1184.00,0.0508
1183.00,0.0509
1182.00,0.0512
1181.00,0.0518
1180.00,0.0527
1179.00,0.0538
1178.00,0.0554
1177.00,0.0573
1176.00,0.0596
1175.00,0.0622
1174.00,0.0651
1173.00,0.0684
1172.00,0.0718
1171.00,0.0754
1170.00,0.0790
1169.00,0.0827
1168.00,0.0863
1167.00,0.0895
1166.00,0.0923
1165.00,0.0944
1164.00,0.0957
1163.00,0.0961
1162.00,0.0958
1161.00,0.0947
1160.00,0.0931
1159.00,0.0911
1158.00,0.0889
1157.00,0.0864
1156.00,0.0837
1155.00,0.0807
1154.00,0.0776
1153.00,0.0744
1152.00,0.0711
1151.00,0.0678
1150.00,0.0645
1149.00,0.0613
1148.00,0.0582
1147.00,0.0552
1146.00,0.0524
1145.00,0.0500
1144.00,0.0479
1143.00,0.0462
1142.00,0.0449
1141.00,0.0440
1140.00,0.0433
1139.00,0.0428
1138.00,0.0425
1137.00,0.0423
1136.00,0.0422
1135.00,0.0422
1134.00,0.0424
1133.00,0.0426
1132.00,0.0428
1131.00,0.0428
1130.00,0.0427
1129.00,0.0422
1128.00,0.0414
1127.00,0.0403
1126.00,0.0391
1125.00,0.0378
1124.00,0.0366
1123.00,0.0356
1122.00,0.0348
1121.00,0.0342
1120.00,0.0339
1119.00,0.0338
1118.00,0.0340
1117.00,0.0345
1116.00,0.0353
1115.00,0.0363
1114.00,0.0377
1113.00,0.0391
1112.00,0.0406
1111.00,0.0420
1110.00,0.0432
1109.00,0.0441
1108.00,0.0448
1107.00,0.0451
1106.00,0.0451
1105.00,0.0450
1104.00,0.0449
1103.00,0.0447
1102.00,0.0448
1101.00,0.0450
1100.00,0.0453
1099.00,0.0457
1098.00,0.0462
1097.00,0.0468
1096.00,0.0472
1095.00,0.0475
1094.00,0.0476
1093.00,0.0476
1092.00,0.0475
1091.00,0.0474
1090.00,0.0475
1089.00,0.0480
1088.00,0.0488
1087.00,0.0500
1086.00,0.0514
1085.00,0.0527
1084.00,0.0538
1083.00,0.0544
1082.00,0.0545
1081.00,0.0540
1080.00,0.0531
1079.00,0.0518
1078.00,0.0504
1077.00,0.0489
1076.00,0.0474
1075.00,0.0459
1074.00,0.0445
1073.00,0.0431
1072.00,0.0418
1071.00,0.0406
1070.00,0.0396
1069.00,0.0388
1068.00,0.0384
1067.00,0.0383
1066.00,0.0385
1065.00,0.0391
1064.00,0.0401
1063.00,0.0414
1062.00,0.0432
1061.00,0.0456
1060.00,0.0485
1059.00,0.0521
1058.00,0.0567
1057.00,0.0623
1056.00,0.0691
1055.00,0.0772
1054.00,0.0866
1053.00,0.0968
1052.00,0.1073
1051.00,0.1173
1050.00,0.1257
1049.00,0.1318
1048.00,0.1349
1047.00,0.1351
1046.00,0.1329
1045.00,0.1290
1044.00,0.1241
1043.00,0.1189
1042.00,0.1139
1041.00,0.1095
1040.00,0.1057
1039.00,0.1024
1038.00,0.0995
1037.00,0.0968
1036.00,0.0944
1035.00,0.0921
1034.00,0.0900
1033.00,0.0880
1032.00,0.0860
1031.00,0.0842
1030.00,0.0824
1029.00,0.0808
1028.00,0.0792
1027.00,0.0776
1026.00,0.0762
1025.00,0.0748
1024.00,0.0736
1023.00,0.0724
1022.00,0.0712
1021.00,0.0699
1020.00,0.0685
1019.00,0.0670
1018.00,0.0651
1017.00,0.0629
1016.00,0.0603
1015.00,0.0573
1014.00,0.0542
1013.00,0.0512
1012.00,0.0483
1011.00,0.0458
1010.00,0.0439
1009.00,0.0426
1008.00,0.0420
1007.00,0.0419
1006.00,0.0424
1005.00,0.0432
1004.00,0.0439
1003.00,0.0444
1002.00,0.0444
1001.00,0.0439
1000.00,0.0430
999.00,0.0418
998.00,0.0406
997.00,0.0394
996.00,0.0384
995.00,0.0377
994.00,0.0372
993.00,0.0370
992.00,0.0370
991.00,0.0372
990.00,0.0377
989.00,0.0383
988.00,0.0388
987.00,0.0393
986.00,0.0395
985.00,0.0394
984.00,0.0389
983.00,0.0381
982.00,0.0373
981.00,0.0364
980.00,0.0356
979.00,0.0348
978.00,0.0342
977.00,0.0336
976.00,0.0330
975.00,0.0325
974.00,0.0319
973.00,0.0313
972.00,0.0306
971.00,0.0299
970.00,0.0292
969.00,0.0286
968.00,0.0279
967.00,0.0274
966.00,0.0269
965.00,0.0266
964.00,0.0264
963.00,0.0265
962.00,0.0267
961.00,0.0273
960.00,0.0282
959.00,0.0294
958.00,0.0307
957.00,0.0321
956.00,0.0334
955.00,0.0344
954.00,0.0350
953.00,0.0351
952.00,0.0348
951.00,0.0339
950.00,0.0327
949.00,0.0312
948.00,0.0295
947.00,0.0278
946.00,0.0263
945.00,0.0249
944.00,0.0237
943.00,0.0228
942.00,0.0222
941.00,0.0218
940.00,0.0218
939.00,0.0220
938.00,0.0225
937.00,0.0232
936.00,0.0241
935.00,0.0249
934.00,0.0257
933.00,0.0260
932.00,0.0259
931.00,0.0254
930.00,0.0247
929.00,0.0240
928.00,0.0235
927.00,0.0233
926.00,0.0233
925.00,0.0234
924.00,0.0237
923.00,0.0240
922.00,0.0244
921.00,0.0249
920.00,0.0254
919.00,0.0260
918.00,0.0266
917.00,0.0273
916.00,0.0279
915.00,0.0284
914.00,0.0290
913.00,0.0297
912.00,0.0304
911.00,0.0311
910.00,0.0319
909.00,0.0325
908.00,0.0330
907.00,0.0333
906.00,0.0334
905.00,0.0333
904.00,0.0330
903.00,0.0326
902.00,0.0322
901.00,0.0319
900.00,0.0317
899.00,0.0315
898.00,0.0314
897.00,0.0313
896.00,0.0311
895.00,0.0309
894.00,0.0305
893.00,0.0301
892.00,0.0296
891.00,0.0291
890.00,0.0287
889.00,0.0283
888.00,0.0280
887.00,0.0279
886.00,0.0279
885.00,0.0280
884.00,0.0282
883.00,0.0285
882.00,0.0288
881.00,0.0292
880.00,0.0296
879.00,0.0300
878.00,0.0305
877.00,0.0309
876.00,0.0313
875.00,0.0317
874.00,0.0321
873.00,0.0325
872.00,0.0329
871.00,0.0334
870.00,0.0338
869.00,0.0343
868.00,0.0349
867.00,0.0356
866.00,0.0364
865.00,0.0373
864.00,0.0384
863.00,0.0396
862.00,0.0410
861.00,0.0425
860.00,0.0442
859.00,0.0459
858.00,0.0478
857.00,0.0499
856.00,0.0519
855.00,0.0540
854.00,0.0561
853.00,0.0582
852.00,0.0602
851.00,0.0621
850.00,0.0639
849.00,0.0656
848.00,0.0672
847.00,0.0687
846.00,0.0700
845.00,0.0712
844.00,0.0723
843.00,0.0733
842.00,0.0743
841.00,0.0753
840.00,0.0763
839.00,0.0774
838.00,0.0785
837.00,0.0797
836.00,0.0810
835.00,0.0823
834.00,0.0835
833.00,0.0847
832.00,0.0857
831.00,0.0865
830.00,0.0870
829.00,0.0872
828.00,0.0870
827.00,0.0863
826.00,0.0851
825.00,0.0835
824.00,0.0815
823.00,0.0793
822.00,0.0771
821.00,0.0750
820.00,0.0729
819.00,0.0708
818.00,0.0685
817.00,0.0662
816.00,0.0637
815.00,0.0611
814.00,0.0586
813.00,0.0562
812.00,0.0539
811.00,0.0518
810.00,0.0498
809.00,0.0479
808.00,0.0463
807.00,0.0449
806.00,0.0438
805.00,0.0429
804.00,0.0423
803.00,0.0418
802.00,0.0416
801.00,0.0416
800.00,0.0418
799.00,0.0423
798.00,0.0429
797.00,0.0436
796.00,0.0443
795.00,0.0449
794.00,0.0455
793.00,0.0460
792.00,0.0463
791.00,0.0466
790.00,0.0468
789.00,0.0470
788.00,0.0471
787.00,0.0473
786.00,0.0476
785.00,0.0480
784.00,0.0485
783.00,0.0491
782.00,0.0497
781.00,0.0504
780.00,0.0511
779.00,0.0517
778.00,0.0522
777.00,0.0526
776.00,0.0528
775.00,0.0529
774.00,0.0529
773.00,0.0529
772.00,0.0529
771.00,0.0528
770.00,0.0527
769.00,0.0527
768.00,0.0526
767.00,0.0526
766.00,0.0527
765.00,0.0529
764.00,0.0532
763.00,0.0537
762.00,0.0543
761.00,0.0551
760.00,0.0561
759.00,0.0573
758.00,0.0585
757.00,0.0599
756.00,0.0613
755.00,0.0627
754.00,0.0642
753.00,0.0657
752.00,0.0672
751.00,0.0687
750.00,0.0703
749.00,0.0719
748.00,0.0734
747.00,0.0749
746.00,0.0763
745.00,0.0776
744.00,0.0788
743.00,0.0800
742.00,0.0812
741.00,0.0823
740.00,0.0833
739.00,0.0841
738.00,0.0847
737.00,0.0851
736.00,0.0850
735.00,0.0846
734.00,0.0838
733.00,0.0827
732.00,0.0813
731.00,0.0795
730.00,0.0776
729.00,0.0755
728.00,0.0734
727.00,0.0713
726.00,0.0692
725.00,0.0673
724.00,0.0656
723.00,0.0640
722.00,0.0625
721.00,0.0613
720.00,0.0602
719.00,0.0595
718.00,0.0589
717.00,0.0586
716.00,0.0583
715.00,0.0582
714.00,0.0581
713.00,0.0582
712.00,0.0582
711.00,0.0583
710.00,0.0584
709.00,0.0586
708.00,0.0587
707.00,0.0589
706.00,0.0591
705.00,0.0593
704.00,0.0595
703.00,0.0598
702.00,0.0601
701.00,0.0604
700.00,0.0607
699.00,0.0611
698.00,0.0615
697.00,0.0620
696.00,0.0625
695.00,0.0631
694.00,0.0637
693.00,0.0643
692.00,0.0650
691.00,0.0656
690.00,0.0663
689.00,0.0671
688.00,0.0679
687.00,0.0687
686.00,0.0694
685.00,0.0701
684.00,0.0708
683.00,0.0716
682.00,0.0722
681.00,0.0729
680.00,0.0735
679.00,0.0743
678.00,0.0751
677.00,0.0759
676.00,0.0767
675.00,0.0776
674.00,0.0784
673.00,0.0792
672.00,0.0800
671.00,0.0808
670.00,0.0816
669.00,0.0828
668.00,0.0844
667.00,0.0860
666.00,0.0871
665.00,0.0880
664.00,0.0890
663.00,0.0902
662.00,0.0915
661.00,0.0929
660.00,0.0943
659.00,0.0957
658.00,0.0971
657.00,0.0984
656.00,0.0997
655.00,0.1010
654.00,0.1022
653.00,0.1034
652.00,0.1044
651.00,0.1052
650.00,0.1056
649.00,0.1057
648.00,0.1053
647.00,0.1046
646.00,0.1034
645.00,0.1019
644.00,0.1000
643.00,0.0979
642.00,0.0956
641.00,0.0933
640.00,0.0910
639.00,0.0887
638.00,0.0866
637.00,0.0846
636.00,0.0826
635.00,0.0808
634.00,0.0790
633.00,0.0774
632.00,0.0758
631.00,0.0743
630.00,0.0730
629.00,0.0718
628.00,0.0707
627.00,0.0697
626.00,0.0688
625.00,0.0679
624.00,0.0669
623.00,0.0661
622.00,0.0653
621.00,0.0648
620.00,0.0643
619.00,0.0640
618.00,0.0638
617.00,0.0637
616.00,0.0636
615.00,0.0635
614.00,0.0635
613.00,0.0637
612.00,0.0639
611.00,0.0643
610.00,0.0648
609.00,0.0654
608.00,0.0659
607.00,0.0666
606.00,0.0673
605.00,0.0682
604.00,0.0691
603.00,0.0700
602.00,0.0709
601.00,0.0716
600.00,0.0721
599.00,0.0726
598.00,0.0730
597.00,0.0736
596.00,0.0743
595.00,0.0751
594.00,0.0759
593.00,0.0767
592.00,0.0775
591.00,0.0784
590.00,0.0795
589.00,0.0806
588.00,0.0820
587.00,0.0836
586.00,0.0854
585.00,0.0875
584.00,0.0895
583.00,0.0915
582.00,0.0932
581.00,0.0946
580.00,0.0957
579.00,0.0963
578.00,0.0964
577.00,0.0962
576.00,0.0956
575.00,0.0947
574.00,0.0935
573.00,0.0923
572.00,0.0911
571.00,0.0899
570.00,0.0888
569.00,0.0878
568.00,0.0867
567.00,0.0855
566.00,0.0843
565.00,0.0829
564.00,0.0813
563.00,0.0795
562.00,0.0775
561.00,0.0755
560.00,0.0736
559.00,0.0717
558.00,0.0700
557.00,0.0684
556.00,0.0669
555.00,0.0655
554.00,0.0641
553.00,0.0627
552.00,0.0616
551.00,0.0608
550.00,0.0602
549.00,0.0596
548.00,0.0591
547.00,0.0586
546.00,0.0582
545.00,0.0579
544.00,0.0576
543.00,0.0572
542.00,0.0570
541.00,0.0568
540.00,0.0567
539.00,0.0565
538.00,0.0564
537.00,0.0562
536.00,0.0561
535.00,0.0561
534.00,0.0562
533.00,0.0564
532.00,0.0565
531.00,0.0563
530.00,0.0560
529.00,0.0556
528.00,0.0549
527.00,0.0542
526.00,0.0536
525.00,0.0530
524.00,0.0524
523.00,0.0519
522.00,0.0515
521.00,0.0511
520.00,0.0506
519.00,0.0501
518.00,0.0496
517.00,0.0492
516.00,0.0488
515.00,0.0484
514.00,0.0481
513.00,0.0478
512.00,0.0474
511.00,0.0472
510.00,0.0470
509.00,0.0468
508.00,0.0465
507.00,0.0462
506.00,0.0460
505.00,0.0459
504.00,0.0458
503.00,0.0458
502.00,0.0459
501.00,0.0461
500.00,0.0463
499.00,0.0465
498.00,0.0467
497.00,0.0469
496.00,0.0471
495.00,0.0473
494.00,0.0477
493.00,0.0480
492.00,0.0483
491.00,0.0487
490.00,0.0490
489.00,0.0493
488.00,0.0495
487.00,0.0498
486.00,0.0501
485.00,0.0502
484.00,0.0501
483.00,0.0499
482.00,0.0496
481.00,0.0492
480.00,0.0489
479.00,0.0486
478.00,0.0486
477.00,0.0487
476.00,0.0487
475.00,0.0486
474.00,0.0486
473.00,0.0487
472.00,0.0487
471.00,0.0489
470.00,0.0491
469.00,0.0493
468.00,0.0493
467.00,0.0492
466.00,0.0493
465.00,0.0494
464.00,0.0493
463.00,0.0492
462.00,0.0494
461.00,0.0500
460.00,0.0506
459.00,0.0513
458.00,0.0519
457.00,0.0523
456.00,0.0525
455.00,0.0529
454.00,0.0534
453.00,0.0538
452.00,0.0539
451.00,0.0539
450.00,0.0539
449.00,0.0539
448.00,0.0539
447.00,0.0538
446.00,0.0536
445.00,0.0528
444.00,0.0518
443.00,0.0508
442.00,0.0504
441.00,0.0504
440.00,0.0505
439.00,0.0503
438.00,0.0500
437.00,0.0496
436.00,0.0491
435.00,0.0489
434.00,0.0488
433.00,0.0487
432.00,0.0485
431.00,0.0481
430.00,0.0480
429.00,0.0480
428.00,0.0480
427.00,0.0479
426.00,0.0476
425.00,0.0471
424.00,0.0464
423.00,0.0460
422.00,0.0461
421.00,0.0462
420.00,0.0458
419.00,0.0454
418.00,0.0456
417.00,0.0462
416.00,0.0467
415.00,0.0470
414.00,0.0474
413.00,0.0479
412.00,0.0481
411.00,0.0480
410.00,0.0480
409.00,0.0483
408.00,0.0487
407.00,0.0493
406.00,0.0499
405.00,0.0502
404.00,0.0502
403.00,0.0502
402.00,0.0509
401.00,0.0518
400.00,0.0523
