Created as New Dataset,Sample 232 By YargerLab Date Sunday, October 05 2025
cm-1,A
4000.00,0.0021
3999.00,0.0021
3998.00,0.0021
3997.00,0.0020
3996.00,0.0020
3995.00,0.0021
3994.00,0.0021
3993.00,0.0021
3992.00,0.0021
3991.00,0.0021
3990.00,0.0021
3989.00,0.0021
3988.00,0.0021
3987.00,0.0021
3986.00,0.0021
3985.00,0.0021
3984.00,0.0021
3983.00,0.0021
3982.00,0.0021
3981.00,0.0021
3980.00,0.0021
3979.00,0.0021
3978.00,0.0021
3977.00,0.0021
3976.00,0.0021
3975.00,0.0021
3974.00,0.0021
3973.00,0.0021
3972.00,0.0021
3971.00,0.0021
3970.00,0.0021
3969.00,0.0021
3968.00,0.0021
3967.00,0.0021
3966.00,0.0020
3965.00,0.0020
3964.00,0.0021
3963.00,0.0021
3962.00,0.0021
3961.00,0.0021
3960.00,0.0021
3959.00,0.0021
3958.00,0.0021
3957.00,0.0021
3956.00,0.0021
3955.00,0.0021
3954.00,0.0021
3953.00,0.0021
3952.00,0.0021
3951.00,0.0021
3950.00,0.0021
3949.00,0.0021
3948.00,0.0021
3947.00,0.0021
3946.00,0.0021
3945.00,0.0021
3944.00,0.0021
3943.00,0.0021
3942.00,0.0021
3941.00,0.0021
3940.00,0.0021
3939.00,0.0021
3938.00,0.0021
3937.00,0.0021
3936.00,0.0021
3935.00,0.0021
3934.00,0.0021
3933.00,0.0021
3932.00,0.0020
3931.00,0.0020
3930.00,0.0020
3929.00,0.0020
3928.00,0.0021
3927.00,0.0021
3926.00,0.0021
3925.00,0.0021
3924.00,0.0021
3923.00,0.0021
3922.00,0.0021
3921.00,0.0021
3920.00,0.0021
3919.00,0.0021
3918.00,0.0021
3917.00,0.0021
3916.00,0.0021
3915.00,0.0021
3914.00,0.0020
3913.00,0.0020
3912.00,0.0020
3911.00,0.0020
3910.00,0.0020
3909.00,0.0021
3908.00,0.0021
3907.00,0.0021
3906.00,0.0021
3905.00,0.0022
3904.00,0.0022
3903.00,0.0022
3902.00,0.0021
3901.00,0.0021
3900.00,0.0021
3899.00,0.0021
3898.00,0.0021
3897.00,0.0021
3896.00,0.0021
3895.00,0.0020
3894.00,0.0020
3893.00,0.0020
3892.00,0.0020
3891.00,0.0020
3890.00,0.0021
3889.00,0.0021
3888.00,0.0021
3887.00,0.0020
3886.00,0.0020
3885.00,0.0021
3884.00,0.0021
3883.00,0.0021
3882.00,0.0021
3881.00,0.0020
3880.00,0.0021
3879.00,0.0021
3878.00,0.0021
3877.00,0.0021
3876.00,0.0021
3875.00,0.0021
3874.00,0.0021
3873.00,0.0021
3872.00,0.0021
3871.00,0.0021
3870.00,0.0021
3869.00,0.0021
3868.00,0.0021
3867.00,0.0021
3866.00,0.0021
3865.00,0.0021
3864.00,0.0021
3863.00,0.0021
3862.00,0.0021
3861.00,0.0020
3860.00,0.0020
3859.00,0.0021
3858.00,0.0021
3857.00,0.0022
3856.00,0.0022
3855.00,0.0022
3854.00,0.0022
3853.00,0.0021
3852.00,0.0022
3851.00,0.0021
3850.00,0.0021
3849.00,0.0021
3848.00,0.0020
3847.00,0.0021
3846.00,0.0021
3845.00,0.0021
3844.00,0.0021
3843.00,0.0021
3842.00,0.0022
3841.00,0.0022
3840.00,0.0022
3839.00,0.0022
3838.00,0.0022
3837.00,0.0022
3836.00,0.0022
3835.00,0.0022
3834.00,0.0022
3833.00,0.0021
3832.00,0.0021
3831.00,0.0021
3830.00,0.0021
3829.00,0.0021
3828.00,0.0021
3827.00,0.0021
3826.00,0.0022
3825.00,0.0022
3824.00,0.0022
3823.00,0.0022
3822.00,0.0022
3821.00,0.0022
3820.00,0.0022
3819.00,0.0022
3818.00,0.0021
3817.00,0.0021
3816.00,0.0021
3815.00,0.0021
3814.00,0.0021
3813.00,0.0021
3812.00,0.0021
3811.00,0.0021
3810.00,0.0021
3809.00,0.0021
3808.00,0.0021
3807.00,0.0021
3806.00,0.0021
3805.00,0.0021
3804.00,0.0021
3803.00,0.0021
3802.00,0.0021
3801.00,0.0021
3800.00,0.0021
3799.00,0.0021
3798.00,0.0021
3797.00,0.0021
3796.00,0.0021
3795.00,0.0021
3794.00,0.0020
3793.00,0.0020
3792.00,0.0020
3791.00,0.0019
3790.00,0.0019
3789.00,0.0020
3788.00,0.0020
3787.00,0.0020
3786.00,0.0020
3785.00,0.0020
3784.00,0.0021
3783.00,0.0021
3782.00,0.0021
3781.00,0.0021
3780.00,0.0021
3779.00,0.0021
3778.00,0.0020
3777.00,0.0020
3776.00,0.0020
3775.00,0.0020
3774.00,0.0021
3773.00,0.0021
3772.00,0.0021
3771.00,0.0021
3770.00,0.0021
3769.00,0.0021
3768.00,0.0021
3767.00,0.0021
3766.00,0.0020
3765.00,0.0021
3764.00,0.0021
3763.00,0.0021
3762.00,0.0021
3761.00,0.0021
3760.00,0.0021
3759.00,0.0021
3758.00,0.0022
3757.00,0.0022
3756.00,0.0022
3755.00,0.0022
3754.00,0.0022
3753.00,0.0022
3752.00,0.0022
3751.00,0.0022
3750.00,0.0022
3749.00,0.0022
3748.00,0.0022
3747.00,0.0022
3746.00,0.0021
3745.00,0.0021
3744.00,0.0021
3743.00,0.0021
3742.00,0.0021
3741.00,0.0021
3740.00,0.0021
3739.00,0.0021
3738.00,0.0021
3737.00,0.0021
3736.00,0.0020
3735.00,0.0020
3734.00,0.0020
3733.00,0.0019
3732.00,0.0019
3731.00,0.0019
3730.00,0.0019
3729.00,0.0019
3728.00,0.0019
3727.00,0.0019
3726.00,0.0019
3725.00,0.0019
3724.00,0.0019
3723.00,0.0019
3722.00,0.0019
3721.00,0.0019
3720.00,0.0019
3719.00,0.0019
3718.00,0.0019
3717.00,0.0019
3716.00,0.0020
3715.00,0.0020
3714.00,0.0020
3713.00,0.0021
3712.00,0.0020
3711.00,0.0020
3710.00,0.0020
3709.00,0.0019
3708.00,0.0019
3707.00,0.0019
3706.00,0.0019
3705.00,0.0019
3704.00,0.0019
3703.00,0.0019
3702.00,0.0019
3701.00,0.0019
3700.00,0.0019
3699.00,0.0019
3698.00,0.0019
3697.00,0.0019
3696.00,0.0019
3695.00,0.0019
3694.00,0.0020
3693.00,0.0020
3692.00,0.0020
3691.00,0.0020
3690.00,0.0020
3689.00,0.0020
3688.00,0.0020
3687.00,0.0020
3686.00,0.0020
3685.00,0.0020
3684.00,0.0020
3683.00,0.0020
3682.00,0.0020
3681.00,0.0020
3680.00,0.0021
3679.00,0.0021
3678.00,0.0022
3677.00,0.0022
3676.00,0.0023
3675.00,0.0023
3674.00,0.0023
3673.00,0.0023
3672.00,0.0022
3671.00,0.0021
3670.00,0.0021
3669.00,0.0021
3668.00,0.0021
3667.00,0.0020
3666.00,0.0020
3665.00,0.0020
3664.00,0.0020
3663.00,0.0020
3662.00,0.0020
3661.00,0.0021
3660.00,0.0021
3659.00,0.0022
3658.00,0.0022
3657.00,0.0022
3656.00,0.0022
3655.00,0.0022
3654.00,0.0022
3653.00,0.0022
3652.00,0.0023
3651.00,0.0023
3650.00,0.0023
3649.00,0.0023
3648.00,0.0023
3647.00,0.0023
3646.00,0.0022
3645.00,0.0022
3644.00,0.0022
3643.00,0.0022
3642.00,0.0022
3641.00,0.0022
3640.00,0.0022
3639.00,0.0022
3638.00,0.0022
3637.00,0.0023
3636.00,0.0023
3635.00,0.0023
3634.00,0.0023
3633.00,0.0024
3632.00,0.0024
3631.00,0.0024
3630.00,0.0024
3629.00,0.0024
3628.00,0.0025
3627.00,0.0025
3626.00,0.0025
3625.00,0.0025
3624.00,0.0025
3623.00,0.0025
3622.00,0.0026
3621.00,0.0026
3620.00,0.0027
3619.00,0.0027
3618.00,0.0028
3617.00,0.0028
3616.00,0.0028
3615.00,0.0028
3614.00,0.0029
3613.00,0.0029
3612.00,0.0029
3611.00,0.0029
3610.00,0.0029
3609.00,0.0029
3608.00,0.0029
3607.00,0.0029
3606.00,0.0029
3605.00,0.0029
3604.00,0.0029
3603.00,0.0029
3602.00,0.0030
3601.00,0.0030
3600.00,0.0030
3599.00,0.0030
3598.00,0.0030
3597.00,0.0030
3596.00,0.0031
3595.00,0.0031
3594.00,0.0031
3593.00,0.0032
3592.00,0.0032
3591.00,0.0032
3590.00,0.0033
3589.00,0.0033
3588.00,0.0033
3587.00,0.0033
3586.00,0.0033
3585.00,0.0034
3584.00,0.0034
3583.00,0.0034
3582.00,0.0034
3581.00,0.0035
3580.00,0.0035
3579.00,0.0035
3578.00,0.0035
3577.00,0.0036
3576.00,0.0036
3575.00,0.0037
3574.00,0.0038
3573.00,0.0038
3572.00,0.0038
3571.00,0.0039
3570.00,0.0039
3569.00,0.0040
3568.00,0.0040
3567.00,0.0040
3566.00,0.0041
3565.00,0.0041
3564.00,0.0041
3563.00,0.0042
3562.00,0.0042
3561.00,0.0042
3560.00,0.0043
3559.00,0.0043
3558.00,0.0043
3557.00,0.0043
3556.00,0.0044
3555.00,0.0044
3554.00,0.0045
3553.00,0.0046
3552.00,0.0046
3551.00,0.0047
3550.00,0.0047
3549.00,0.0047
3548.00,0.0047
3547.00,0.0048
3546.00,0.0048
3545.00,0.0048
3544.00,0.0049
3543.00,0.0049
3542.00,0.0050
3541.00,0.0050
3540.00,0.0051
3539.00,0.0052
3538.00,0.0052
3537.00,0.0053
3536.00,0.0053
3535.00,0.0054
3534.00,0.0054
3533.00,0.0054
3532.00,0.0055
3531.00,0.0055
3530.00,0.0056
3529.00,0.0057
3528.00,0.0057
3527.00,0.0058
3526.00,0.0058
3525.00,0.0059
3524.00,0.0059
3523.00,0.0060
3522.00,0.0060
3521.00,0.0061
3520.00,0.0062
3519.00,0.0063
3518.00,0.0064
3517.00,0.0065
3516.00,0.0065
3515.00,0.0066
3514.00,0.0067
3513.00,0.0067
3512.00,0.0068
3511.00,0.0068
3510.00,0.0069
3509.00,0.0069
3508.00,0.0070
3507.00,0.0070
3506.00,0.0071
3505.00,0.0072
3504.00,0.0073
3503.00,0.0074
3502.00,0.0075
3501.00,0.0075
3500.00,0.0076
3499.00,0.0076
3498.00,0.0077
3497.00,0.0078
3496.00,0.0079
3495.00,0.0080
3494.00,0.0081
3493.00,0.0081
3492.00,0.0082
3491.00,0.0083
3490.00,0.0083
3489.00,0.0084
3488.00,0.0085
3487.00,0.0086
3486.00,0.0087
3485.00,0.0088
3484.00,0.0088
3483.00,0.0089
3482.00,0.0090
3481.00,0.0090
3480.00,0.0091
3479.00,0.0092
3478.00,0.0093
3477.00,0.0093
3476.00,0.0094
3475.00,0.0095
3474.00,0.0096
3473.00,0.0097
3472.00,0.0098
3471.00,0.0099
3470.00,0.0101
3469.00,0.0101
3468.00,0.0102
3467.00,0.0103
3466.00,0.0104
3465.00,0.0105
3464.00,0.0105
3463.00,0.0106
3462.00,0.0107
3461.00,0.0108
3460.00,0.0110
3459.00,0.0111
3458.00,0.0112
3457.00,0.0113
3456.00,0.0114
3455.00,0.0115
3454.00,0.0115
3453.00,0.0117
3452.00,0.0118
3451.00,0.0119
3450.00,0.0120
3449.00,0.0121
3448.00,0.0122
3447.00,0.0123
3446.00,0.0124
3445.00,0.0125
3444.00,0.0126
3443.00,0.0127
3442.00,0.0128
3441.00,0.0129
3440.00,0.0130
3439.00,0.0132
3438.00,0.0133
3437.00,0.0134
3436.00,0.0135
3435.00,0.0137
3434.00,0.0138
3433.00,0.0139
3432.00,0.0140
3431.00,0.0141
3430.00,0.0142
3429.00,0.0143
3428.00,0.0145
3427.00,0.0146
3426.00,0.0147
3425.00,0.0148
3424.00,0.0150
3423.00,0.0151
3422.00,0.0152
3421.00,0.0153
3420.00,0.0155
3419.00,0.0156
3418.00,0.0157
3417.00,0.0158
3416.00,0.0160
3415.00,0.0161
3414.00,0.0163
3413.00,0.0164
3412.00,0.0166
3411.00,0.0167
3410.00,0.0169
3409.00,0.0171
3408.00,0.0172
3407.00,0.0174
3406.00,0.0176
3405.00,0.0177
3404.00,0.0179
3403.00,0.0180
3402.00,0.0182
3401.00,0.0183
3400.00,0.0185
3399.00,0.0187
3398.00,0.0189
3397.00,0.0191
3396.00,0.0192
3395.00,0.0194
3394.00,0.0195
3393.00,0.0197
3392.00,0.0199
3391.00,0.0201
3390.00,0.0203
3389.00,0.0205
3388.00,0.0207
3387.00,0.0208
3386.00,0.0210
3385.00,0.0212
3384.00,0.0214
3383.00,0.0215
3382.00,0.0217
3381.00,0.0219
3380.00,0.0221
3379.00,0.0223
3378.00,0.0224
3377.00,0.0226
3376.00,0.0227
3375.00,0.0229
3374.00,0.0231
3373.00,0.0232
3372.00,0.0234
3371.00,0.0235
3370.00,0.0237
3369.00,0.0239
3368.00,0.0241
3367.00,0.0243
3366.00,0.0245
3365.00,0.0247
3364.00,0.0249
3363.00,0.0251
3362.00,0.0252
3361.00,0.0254
3360.00,0.0256
3359.00,0.0258
3358.00,0.0259
3357.00,0.0261
3356.00,0.0262
3355.00,0.0264
3354.00,0.0265
3353.00,0.0266
3352.00,0.0267
3351.00,0.0269
3350.00,0.0271
3349.00,0.0272
3348.00,0.0274
3347.00,0.0276
3346.00,0.0277
3345.00,0.0278
3344.00,0.0280
3343.00,0.0281
3342.00,0.0282
3341.00,0.0283
3340.00,0.0284
3339.00,0.0285
3338.00,0.0287
3337.00,0.0289
3336.00,0.0290
3335.00,0.0292
3334.00,0.0294
3333.00,0.0295
3332.00,0.0296
3331.00,0.0298
3330.00,0.0299
3329.00,0.0300
3328.00,0.0301
3327.00,0.0301
3326.00,0.0302
3325.00,0.0304
3324.00,0.0306
3323.00,0.0307
3322.00,0.0309
3321.00,0.0310
3320.00,0.0310
3319.00,0.0311
3318.00,0.0312
3317.00,0.0314
3316.00,0.0315
3315.00,0.0316
3314.00,0.0317
3313.00,0.0318
3312.00,0.0318
3311.00,0.0318
3310.00,0.0318
3309.00,0.0318
3308.00,0.0318
3307.00,0.0318
3306.00,0.0319
3305.00,0.0321
3304.00,0.0323
3303.00,0.0325
3302.00,0.0327
3301.00,0.0328
3300.00,0.0329
3299.00,0.0329
3298.00,0.0329
3297.00,0.0329
3296.00,0.0329
3295.00,0.0329
3294.00,0.0329
3293.00,0.0330
3292.00,0.0331
3291.00,0.0332
3290.00,0.0333
3289.00,0.0334
3288.00,0.0335
3287.00,0.0335
3286.00,0.0335
3285.00,0.0336
3284.00,0.0336
3283.00,0.0336
3282.00,0.0336
3281.00,0.0336
3280.00,0.0336
3279.00,0.0337
3278.00,0.0337
3277.00,0.0337
3276.00,0.0337
3275.00,0.0337
3274.00,0.0337
3273.00,0.0337
3272.00,0.0337
3271.00,0.0337
3270.00,0.0337
3269.00,0.0337
3268.00,0.0338
3267.00,0.0338
3266.00,0.0339
3265.00,0.0339
3264.00,0.0339
3263.00,0.0339
3262.00,0.0339
3261.00,0.0339
3260.00,0.0339
3259.00,0.0339
3258.00,0.0339
3257.00,0.0339
3256.00,0.0339
3255.00,0.0339
3254.00,0.0339
3253.00,0.0340
3252.00,0.0340
3251.00,0.0340
3250.00,0.0340
3249.00,0.0339
3248.00,0.0339
3247.00,0.0339
3246.00,0.0339
3245.00,0.0339
3244.00,0.0339
3243.00,0.0338
3242.00,0.0338
3241.00,0.0338
3240.00,0.0338
3239.00,0.0338
3238.00,0.0338
3237.00,0.0338
3236.00,0.0337
3235.00,0.0337
3234.00,0.0337
3233.00,0.0337
3232.00,0.0337
3231.00,0.0336
3230.00,0.0336
3229.00,0.0336
3228.00,0.0335
3227.00,0.0335
3226.00,0.0334
3225.00,0.0334
3224.00,0.0334
3223.00,0.0334
3222.00,0.0333
3221.00,0.0333
3220.00,0.0332
3219.00,0.0332
3218.00,0.0332
3217.00,0.0332
3216.00,0.0332
3215.00,0.0332
3214.00,0.0332
3213.00,0.0332
3212.00,0.0332
3211.00,0.0332
3210.00,0.0332
3209.00,0.0332
3208.00,0.0332
3207.00,0.0332
3206.00,0.0332
3205.00,0.0331
3204.00,0.0331
3203.00,0.0330
3202.00,0.0330
3201.00,0.0329
3200.00,0.0329
3199.00,0.0329
3198.00,0.0328
3197.00,0.0328
3196.00,0.0327
3195.00,0.0327
3194.00,0.0326
3193.00,0.0326
3192.00,0.0325
3191.00,0.0324
3190.00,0.0323
3189.00,0.0322
3188.00,0.0321
3187.00,0.0320
3186.00,0.0319
3185.00,0.0319
3184.00,0.0318
3183.00,0.0317
3182.00,0.0315
3181.00,0.0314
3180.00,0.0313
3179.00,0.0312
3178.00,0.0311
3177.00,0.0310
3176.00,0.0309
3175.00,0.0308
3174.00,0.0307
3173.00,0.0306
3172.00,0.0305
3171.00,0.0304
3170.00,0.0303
3169.00,0.0301
3168.00,0.0300
3167.00,0.0299
3166.00,0.0297
3165.00,0.0296
3164.00,0.0295
3163.00,0.0293
3162.00,0.0292
3161.00,0.0291
3160.00,0.0289
3159.00,0.0288
3158.00,0.0287
3157.00,0.0286
3156.00,0.0285
3155.00,0.0283
3154.00,0.0282
3153.00,0.0281
3152.00,0.0280
3151.00,0.0278
3150.00,0.0277
3149.00,0.0276
3148.00,0.0275
3147.00,0.0273
3146.00,0.0272
3145.00,0.0271
3144.00,0.0270
3143.00,0.0268
3142.00,0.0267
3141.00,0.0266
3140.00,0.0265
3139.00,0.0265
3138.00,0.0264
3137.00,0.0263
3136.00,0.0262
3135.00,0.0261
3134.00,0.0260
3133.00,0.0259
3132.00,0.0258
3131.00,0.0257
3130.00,0.0256
3129.00,0.0255
3128.00,0.0254
3127.00,0.0253
3126.00,0.0252
3125.00,0.0251
3124.00,0.0249
3123.00,0.0248
3122.00,0.0247
3121.00,0.0246
3120.00,0.0244
3119.00,0.0243
3118.00,0.0242
3117.00,0.0240
3116.00,0.0239
3115.00,0.0237
3114.00,0.0236
3113.00,0.0235
3112.00,0.0233
3111.00,0.0232
3110.00,0.0230
3109.00,0.0228
3108.00,0.0226
3107.00,0.0225
3106.00,0.0223
3105.00,0.0222
3104.00,0.0220
3103.00,0.0219
3102.00,0.0218
3101.00,0.0217
3100.00,0.0215
3099.00,0.0214
3098.00,0.0212
3097.00,0.0211
3096.00,0.0209
3095.00,0.0208
3094.00,0.0207
3093.00,0.0205
3092.00,0.0204
3091.00,0.0203
3090.00,0.0201
3089.00,0.0200
3088.00,0.0199
3087.00,0.0198
3086.00,0.0197
3085.00,0.0196
3084.00,0.0194
3083.00,0.0193
3082.00,0.0192
3081.00,0.0191
3080.00,0.0190
3079.00,0.0189
3078.00,0.0188
3077.00,0.0187
3076.00,0.0186
3075.00,0.0185
3074.00,0.0185
3073.00,0.0184
3072.00,0.0183
3071.00,0.0182
3070.00,0.0182
3069.00,0.0181
3068.00,0.0180
3067.00,0.0179
3066.00,0.0178
3065.00,0.0178
3064.00,0.0177
3063.00,0.0176
3062.00,0.0176
3061.00,0.0176
3060.00,0.0175
3059.00,0.0175
3058.00,0.0175
3057.00,0.0174
3056.00,0.0174
3055.00,0.0173
3054.00,0.0173
3053.00,0.0172
3052.00,0.0172
3051.00,0.0171
3050.00,0.0170
3049.00,0.0170
3048.00,0.0169
3047.00,0.0168
3046.00,0.0168
3045.00,0.0167
3044.00,0.0167
3043.00,0.0166
3042.00,0.0166
3041.00,0.0165
3040.00,0.0165
3039.00,0.0164
3038.00,0.0164
3037.00,0.0163
3036.00,0.0163
3035.00,0.0164
3034.00,0.0164
3033.00,0.0164
3032.00,0.0164
3031.00,0.0164
3030.00,0.0164
3029.00,0.0164
3028.00,0.0164
3027.00,0.0164
3026.00,0.0164
3025.00,0.0164
3024.00,0.0164
3023.00,0.0164
3022.00,0.0163
3021.00,0.0163
3020.00,0.0163
3019.00,0.0163
3018.00,0.0163
3017.00,0.0163
3016.00,0.0163
3015.00,0.0164
3014.00,0.0164
3013.00,0.0165
3012.00,0.0166
3011.00,0.0168
3010.00,0.0169
3009.00,0.0171
3008.00,0.0173
3007.00,0.0175
3006.00,0.0177
3005.00,0.0180
3004.00,0.0183
3003.00,0.0186
3002.00,0.0190
3001.00,0.0195
3000.00,0.0199
2999.00,0.0204
2998.00,0.0209
2997.00,0.0215
2996.00,0.0220
2995.00,0.0226
2994.00,0.0233
2993.00,0.0239
2992.00,0.0246
2991.00,0.0254
2990.00,0.0261
2989.00,0.0268
2988.00,0.0275
2987.00,0.0282
2986.00,0.0288
2985.00,0.0295
2984.00,0.0300
2983.00,0.0306
2982.00,0.0312
2981.00,0.0317
2980.00,0.0324
2979.00,0.0330
2978.00,0.0337
2977.00,0.0343
2976.00,0.0350
2975.00,0.0358
2974.00,0.0365
2973.00,0.0372
2972.00,0.0380
2971.00,0.0389
2970.00,0.0398
2969.00,0.0407
2968.00,0.0417
2967.00,0.0428
2966.00,0.0438
2965.00,0.0447
2964.00,0.0457
2963.00,0.0465
2962.00,0.0473
2961.00,0.0480
2960.00,0.0486
2959.00,0.0490
2958.00,0.0494
2957.00,0.0497
2956.00,0.0498
2955.00,0.0498
2954.00,0.0497
2953.00,0.0495
2952.00,0.0491
2951.00,0.0487
2950.00,0.0483
2949.00,0.0478
2948.00,0.0475
2947.00,0.0473
2946.00,0.0472
2945.00,0.0473
2944.00,0.0476
2943.00,0.0481
2942.00,0.0487
2941.00,0.0496
2940.00,0.0506
2939.00,0.0517
2938.00,0.0530
2937.00,0.0543
2936.00,0.0558
2935.00,0.0572
2934.00,0.0587
2933.00,0.0601
2932.00,0.0615
2931.00,0.0628
2930.00,0.0639
2929.00,0.0649
2928.00,0.0657
2927.00,0.0664
2926.00,0.0670
2925.00,0.0674
2924.00,0.0677
2923.00,0.0678
2922.00,0.0678
2921.00,0.0677
2920.00,0.0674
2919.00,0.0671
2918.00,0.0667
2917.00,0.0661
2916.00,0.0655
2915.00,0.0646
2914.00,0.0637
2913.00,0.0627
2912.00,0.0615
2911.00,0.0604
2910.00,0.0592
2909.00,0.0580
2908.00,0.0568
2907.00,0.0556
2906.00,0.0545
2905.00,0.0534
2904.00,0.0524
2903.00,0.0515
2902.00,0.0507
2901.00,0.0499
2900.00,0.0492
2899.00,0.0486
2898.00,0.0480
2897.00,0.0474
2896.00,0.0469
2895.00,0.0465
2894.00,0.0460
2893.00,0.0456
2892.00,0.0451
2891.00,0.0447
2890.00,0.0442
2889.00,0.0437
2888.00,0.0433
2887.00,0.0429
2886.00,0.0425
2885.00,0.0422
2884.00,0.0419
2883.00,0.0417
2882.00,0.0415
2881.00,0.0414
2880.00,0.0414
2879.00,0.0414
2878.00,0.0415
2877.00,0.0417
2876.00,0.0419
2875.00,0.0422
2874.00,0.0425
2873.00,0.0428
2872.00,0.0430
2871.00,0.0431
2870.00,0.0432
2869.00,0.0431
2868.00,0.0430
2867.00,0.0430
2866.00,0.0430
2865.00,0.0432
2864.00,0.0435
2863.00,0.0439
2862.00,0.0445
2861.00,0.0451
2860.00,0.0458
2859.00,0.0465
2858.00,0.0470
2857.00,0.0474
2856.00,0.0475
2855.00,0.0473
2854.00,0.0469
2853.00,0.0462
2852.00,0.0454
2851.00,0.0444
2850.00,0.0432
2849.00,0.0419
2848.00,0.0406
2847.00,0.0391
2846.00,0.0376
2845.00,0.0361
2844.00,0.0347
2843.00,0.0333
2842.00,0.0319
2841.00,0.0307
2840.00,0.0295
2839.00,0.0284
2838.00,0.0274
2837.00,0.0266
2836.00,0.0257
2835.00,0.0250
2834.00,0.0242
2833.00,0.0235
2832.00,0.0229
2831.00,0.0222
2830.00,0.0216
2829.00,0.0210
2828.00,0.0204
2827.00,0.0198
2826.00,0.0192
2825.00,0.0186
2824.00,0.0181
2823.00,0.0175
2822.00,0.0170
2821.00,0.0165
2820.00,0.0160
2819.00,0.0155
2818.00,0.0151
2817.00,0.0147
2816.00,0.0143
2815.00,0.0140
2814.00,0.0137
2813.00,0.0134
2812.00,0.0131
2811.00,0.0129
2810.00,0.0126
2809.00,0.0124
2808.00,0.0123
2807.00,0.0121
2806.00,0.0119
2805.00,0.0118
2804.00,0.0116
2803.00,0.0115
2802.00,0.0113
2801.00,0.0112
2800.00,0.0111
2799.00,0.0110
2798.00,0.0108
2797.00,0.0107
2796.00,0.0106
2795.00,0.0105
2794.00,0.0104
2793.00,0.0103
2792.00,0.0103
2791.00,0.0102
2790.00,0.0101
2789.00,0.0100
2788.00,0.0100
2787.00,0.0099
2786.00,0.0099
2785.00,0.0098
2784.00,0.0097
2783.00,0.0097
2782.00,0.0096
2781.00,0.0096
2780.00,0.0096
2779.00,0.0095
2778.00,0.0094
2777.00,0.0094
2776.00,0.0093
2775.00,0.0093
2774.00,0.0092
2773.00,0.0092
2772.00,0.0092
2771.00,0.0092
2770.00,0.0091
2769.00,0.0091
2768.00,0.0091
2767.00,0.0090
2766.00,0.0090
2765.00,0.0090
2764.00,0.0089
2763.00,0.0089
2762.00,0.0089
2761.00,0.0089
2760.00,0.0090
2759.00,0.0090
2758.00,0.0090
2757.00,0.0090
2756.00,0.0090
2755.00,0.0090
2754.00,0.0090
2753.00,0.0090
2752.00,0.0090
2751.00,0.0090
2750.00,0.0090
2749.00,0.0090
2748.00,0.0090
2747.00,0.0090
2746.00,0.0091
2745.00,0.0091
2744.00,0.0092
2743.00,0.0092
2742.00,0.0092
2741.00,0.0093
2740.00,0.0093
2739.00,0.0093
2738.00,0.0094
2737.00,0.0094
2736.00,0.0095
2735.00,0.0095
2734.00,0.0096
2733.00,0.0096
2732.00,0.0096
2731.00,0.0096
2730.00,0.0097
2729.00,0.0096
2728.00,0.0096
2727.00,0.0096
2726.00,0.0096
2725.00,0.0096
2724.00,0.0096
2723.00,0.0096
2722.00,0.0096
2721.00,0.0095
2720.00,0.0095
2719.00,0.0094
2718.00,0.0094
2717.00,0.0094
2716.00,0.0093
2715.00,0.0093
2714.00,0.0093
2713.00,0.0092
2712.00,0.0092
2711.00,0.0092
2710.00,0.0092
2709.00,0.0091
2708.00,0.0091
2707.00,0.0091
2706.00,0.0091
2705.00,0.0090
2704.00,0.0090
2703.00,0.0090
2702.00,0.0089
2701.00,0.0089
2700.00,0.0089
2699.00,0.0089
2698.00,0.0089
2697.00,0.0089
2696.00,0.0089
2695.00,0.0088
2694.00,0.0088
2693.00,0.0088
2692.00,0.0088
2691.00,0.0088
2690.00,0.0088
2689.00,0.0088
2688.00,0.0088
2687.00,0.0088
2686.00,0.0087
2685.00,0.0087
2684.00,0.0087
2683.00,0.0087
2682.00,0.0086
2681.00,0.0086
2680.00,0.0086
2679.00,0.0086
2678.00,0.0086
2677.00,0.0086
2676.00,0.0086
2675.00,0.0085
2674.00,0.0085
2673.00,0.0085
2672.00,0.0085
2671.00,0.0085
2670.00,0.0085
2669.00,0.0085
2668.00,0.0085
2667.00,0.0085
2666.00,0.0084
2665.00,0.0085
2664.00,0.0085
2663.00,0.0085
2662.00,0.0085
2661.00,0.0085
2660.00,0.0085
2659.00,0.0084
2658.00,0.0084
2657.00,0.0084
2656.00,0.0084
2655.00,0.0083
2654.00,0.0083
2653.00,0.0083
2652.00,0.0083
2651.00,0.0082
2650.00,0.0082
2649.00,0.0082
2648.00,0.0082
2647.00,0.0081
2646.00,0.0081
2645.00,0.0080
2644.00,0.0080
2643.00,0.0079
2642.00,0.0079
2641.00,0.0079
2640.00,0.0078
2639.00,0.0078
2638.00,0.0077
2637.00,0.0077
2636.00,0.0077
2635.00,0.0077
2634.00,0.0076
2633.00,0.0076
2632.00,0.0076
2631.00,0.0075
2630.00,0.0075
2629.00,0.0074
2628.00,0.0074
2627.00,0.0074
2626.00,0.0073
2625.00,0.0073
2624.00,0.0072
2623.00,0.0071
2622.00,0.0071
2621.00,0.0071
2620.00,0.0071
2619.00,0.0070
2618.00,0.0070
2617.00,0.0070
2616.00,0.0069
2615.00,0.0069
2614.00,0.0068
2613.00,0.0068
2612.00,0.0068
2611.00,0.0068
2610.00,0.0067
2609.00,0.0067
2608.00,0.0067
2607.00,0.0067
2606.00,0.0066
2605.00,0.0066
2604.00,0.0066
2603.00,0.0066
2602.00,0.0066
2601.00,0.0066
2600.00,0.0065
2599.00,0.0065
2598.00,0.0065
2597.00,0.0065
2596.00,0.0065
2595.00,0.0065
2594.00,0.0065
2593.00,0.0065
2592.00,0.0065
2591.00,0.0065
2590.00,0.0065
2589.00,0.0065
2588.00,0.0065
2587.00,0.0065
2586.00,0.0065
2585.00,0.0064
2584.00,0.0064
2583.00,0.0064
2582.00,0.0064
2581.00,0.0064
2580.00,0.0064
2579.00,0.0063
2578.00,0.0063
2577.00,0.0062
2576.00,0.0062
2575.00,0.0062
2574.00,0.0062
2573.00,0.0061
2572.00,0.0061
2571.00,0.0060
2570.00,0.0060
2569.00,0.0060
2568.00,0.0060
2567.00,0.0059
2566.00,0.0059
2565.00,0.0059
2564.00,0.0059
2563.00,0.0058
2562.00,0.0058
2561.00,0.0058
2560.00,0.0058
2559.00,0.0058
2558.00,0.0057
2557.00,0.0057
2556.00,0.0057
2555.00,0.0057
2554.00,0.0056
2553.00,0.0056
2552.00,0.0055
2551.00,0.0055
2550.00,0.0055
2549.00,0.0055
2548.00,0.0055
2547.00,0.0055
2546.00,0.0054
2545.00,0.0054
2544.00,0.0054
2543.00,0.0054
2542.00,0.0054
2541.00,0.0054
2540.00,0.0054
2539.00,0.0054
2538.00,0.0054
2537.00,0.0053
2536.00,0.0053
2535.00,0.0053
2534.00,0.0053
2533.00,0.0053
2532.00,0.0053
2531.00,0.0052
2530.00,0.0052
2529.00,0.0052
2528.00,0.0052
2527.00,0.0052
2526.00,0.0052
2525.00,0.0051
2524.00,0.0051
2523.00,0.0051
2522.00,0.0050
2521.00,0.0050
2520.00,0.0050
2519.00,0.0050
2518.00,0.0050
2517.00,0.0050
2516.00,0.0050
2515.00,0.0049
2514.00,0.0049
2513.00,0.0049
2512.00,0.0049
2511.00,0.0049
2510.00,0.0049
2509.00,0.0048
2508.00,0.0048
2507.00,0.0048
2506.00,0.0048
2505.00,0.0047
2504.00,0.0047
2503.00,0.0047
2502.00,0.0047
2501.00,0.0047
2500.00,0.0047
2499.00,0.0047
2498.00,0.0046
2497.00,0.0046
2496.00,0.0047
2495.00,0.0046
2494.00,0.0046
2493.00,0.0046
2492.00,0.0046
2491.00,0.0045
2490.00,0.0045
2489.00,0.0045
2488.00,0.0044
2487.00,0.0044
2486.00,0.0044
2485.00,0.0044
2484.00,0.0043
2483.00,0.0043
2482.00,0.0043
2481.00,0.0043
2480.00,0.0043
2479.00,0.0043
2478.00,0.0043
2477.00,0.0043
2476.00,0.0043
2475.00,0.0042
2474.00,0.0042
2473.00,0.0042
2472.00,0.0042
2471.00,0.0042
2470.00,0.0042
2469.00,0.0042
2468.00,0.0041
2467.00,0.0041
2466.00,0.0041
2465.00,0.0041
2464.00,0.0041
2463.00,0.0042
2462.00,0.0042
2461.00,0.0042
2460.00,0.0042
2459.00,0.0042
2458.00,0.0042
2457.00,0.0042
2456.00,0.0042
2455.00,0.0041
2454.00,0.0041
2453.00,0.0041
2452.00,0.0041
2451.00,0.0041
2450.00,0.0040
2449.00,0.0040
2448.00,0.0040
2447.00,0.0040
2446.00,0.0040
2445.00,0.0040
2444.00,0.0040
2443.00,0.0040
2442.00,0.0040
2441.00,0.0040
2440.00,0.0040
2439.00,0.0040
2438.00,0.0039
2437.00,0.0039
2436.00,0.0039
2435.00,0.0038
2434.00,0.0038
2433.00,0.0038
2432.00,0.0038
2431.00,0.0038
2430.00,0.0037
2429.00,0.0037
2428.00,0.0037
2427.00,0.0037
2426.00,0.0037
2425.00,0.0037
2424.00,0.0037
2423.00,0.0037
2422.00,0.0037
2421.00,0.0037
2420.00,0.0037
2419.00,0.0037
2418.00,0.0037
2417.00,0.0037
2416.00,0.0037
2415.00,0.0037
2414.00,0.0037
2413.00,0.0037
2412.00,0.0038
2411.00,0.0038
2410.00,0.0038
2409.00,0.0037
2408.00,0.0037
2407.00,0.0037
2406.00,0.0037
2405.00,0.0036
2404.00,0.0037
2403.00,0.0037
2402.00,0.0037
2401.00,0.0037
2400.00,0.0037
2399.00,0.0037
2398.00,0.0037
2397.00,0.0037
2396.00,0.0037
2395.00,0.0037
2394.00,0.0036
2393.00,0.0036
2392.00,0.0036
2391.00,0.0036
2390.00,0.0036
2389.00,0.0036
2388.00,0.0036
2387.00,0.0035
2386.00,0.0035
2385.00,0.0034
2384.00,0.0034
2383.00,0.0033
2382.00,0.0032
2381.00,0.0032
2380.00,0.0031
2379.00,0.0031
2378.00,0.0031
2377.00,0.0031
2376.00,0.0031
2375.00,0.0031
2374.00,0.0031
2373.00,0.0031
2372.00,0.0030
2371.00,0.0030
2370.00,0.0029
2369.00,0.0029
2368.00,0.0029
2367.00,0.0029
2366.00,0.0029
2365.00,0.0030
2364.00,0.0030
2363.00,0.0030
2362.00,0.0030
2361.00,0.0030
2360.00,0.0030
2359.00,0.0029
2358.00,0.0029
2357.00,0.0029
2356.00,0.0030
2355.00,0.0030
2354.00,0.0030
2353.00,0.0029
2352.00,0.0029
2351.00,0.0029
2350.00,0.0029
2349.00,0.0029
2348.00,0.0029
2347.00,0.0030
2346.00,0.0032
2345.00,0.0033
2344.00,0.0033
2343.00,0.0033
2342.00,0.0032
2341.00,0.0032
2340.00,0.0033
2339.00,0.0033
2338.00,0.0033
2337.00,0.0033
2336.00,0.0033
2335.00,0.0034
2334.00,0.0034
2333.00,0.0033
2332.00,0.0033
2331.00,0.0033
2330.00,0.0033
2329.00,0.0035
2328.00,0.0038
2327.00,0.0041
2326.00,0.0044
2325.00,0.0045
2324.00,0.0044
2323.00,0.0042
2322.00,0.0041
2321.00,0.0039
2320.00,0.0038
2319.00,0.0038
2318.00,0.0037
2317.00,0.0037
2316.00,0.0037
2315.00,0.0036
2314.00,0.0036
2313.00,0.0035
2312.00,0.0034
2311.00,0.0034
2310.00,0.0033
2309.00,0.0033
2308.00,0.0034
2307.00,0.0034
2306.00,0.0034
2305.00,0.0034
2304.00,0.0035
2303.00,0.0035
2302.00,0.0035
2301.00,0.0035
2300.00,0.0035
2299.00,0.0035
2298.00,0.0034
2297.00,0.0035
2296.00,0.0035
2295.00,0.0036
2294.00,0.0037
2293.00,0.0038
2292.00,0.0039
2291.00,0.0040
2290.00,0.0040
2289.00,0.0041
2288.00,0.0041
2287.00,0.0042
2286.00,0.0042
2285.00,0.0041
2284.00,0.0040
2283.00,0.0039
2282.00,0.0038
2281.00,0.0038
2280.00,0.0037
2279.00,0.0037
2278.00,0.0037
2277.00,0.0036
2276.00,0.0036
2275.00,0.0036
2274.00,0.0036
2273.00,0.0036
2272.00,0.0036
2271.00,0.0035
2270.00,0.0035
2269.00,0.0035
2268.00,0.0035
2267.00,0.0035
2266.00,0.0034
2265.00,0.0034
2264.00,0.0034
2263.00,0.0034
2262.00,0.0035
2261.00,0.0035
2260.00,0.0036
2259.00,0.0036
2258.00,0.0036
2257.00,0.0035
2256.00,0.0034
2255.00,0.0033
2254.00,0.0032
2253.00,0.0032
2252.00,0.0032
2251.00,0.0032
2250.00,0.0032
2249.00,0.0032
2248.00,0.0033
2247.00,0.0033
2246.00,0.0033
2245.00,0.0033
2244.00,0.0034
2243.00,0.0034
2242.00,0.0034
2241.00,0.0034
2240.00,0.0034
2239.00,0.0033
2238.00,0.0034
2237.00,0.0034
2236.00,0.0035
2235.00,0.0035
2234.00,0.0034
2233.00,0.0034
2232.00,0.0034
2231.00,0.0033
2230.00,0.0033
2229.00,0.0033
2228.00,0.0033
2227.00,0.0033
2226.00,0.0033
2225.00,0.0033
2224.00,0.0033
2223.00,0.0033
2222.00,0.0033
2221.00,0.0033
2220.00,0.0034
2219.00,0.0034
2218.00,0.0033
2217.00,0.0033
2216.00,0.0032
2215.00,0.0033
2214.00,0.0033
2213.00,0.0033
2212.00,0.0033
2211.00,0.0033
2210.00,0.0032
2209.00,0.0032
2208.00,0.0032
2207.00,0.0031
2206.00,0.0031
2205.00,0.0030
2204.00,0.0031
2203.00,0.0031
2202.00,0.0032
2201.00,0.0034
2200.00,0.0036
2199.00,0.0036
2198.00,0.0036
2197.00,0.0035
2196.00,0.0034
2195.00,0.0033
2194.00,0.0032
2193.00,0.0032
2192.00,0.0033
2191.00,0.0034
2190.00,0.0034
2189.00,0.0035
2188.00,0.0035
2187.00,0.0035
2186.00,0.0034
2185.00,0.0033
2184.00,0.0032
2183.00,0.0030
2182.00,0.0028
2181.00,0.0026
2180.00,0.0026
2179.00,0.0026
2178.00,0.0026
2177.00,0.0026
2176.00,0.0026
2175.00,0.0026
2174.00,0.0028
2173.00,0.0030
2172.00,0.0034
2171.00,0.0037
2170.00,0.0038
2169.00,0.0039
2168.00,0.0039
2167.00,0.0038
2166.00,0.0037
2165.00,0.0037
2164.00,0.0039
2163.00,0.0039
2162.00,0.0034
2161.00,0.0025
2160.00,0.0014
2159.00,0.0005
2158.00,0.0001
2157.00,0.0002
2156.00,0.0005
2155.00,0.0008
2154.00,0.0010
2153.00,0.0012
2152.00,0.0015
2151.00,0.0016
2150.00,0.0017
2149.00,0.0016
2148.00,0.0015
2147.00,0.0014
2146.00,0.0013
2145.00,0.0013
2144.00,0.0014
2143.00,0.0015
2142.00,0.0016
2141.00,0.0017
2140.00,0.0018
2139.00,0.0018
2138.00,0.0018
2137.00,0.0016
2136.00,0.0014
2135.00,0.0012
2134.00,0.0012
2133.00,0.0012
2132.00,0.0014
2131.00,0.0015
2130.00,0.0015
2129.00,0.0016
2128.00,0.0018
2127.00,0.0019
2126.00,0.0020
2125.00,0.0021
2124.00,0.0022
2123.00,0.0023
2122.00,0.0024
2121.00,0.0024
2120.00,0.0025
2119.00,0.0025
2118.00,0.0027
2117.00,0.0028
2116.00,0.0029
2115.00,0.0030
2114.00,0.0029
2113.00,0.0029
2112.00,0.0028
2111.00,0.0027
2110.00,0.0026
2109.00,0.0026
2108.00,0.0026
2107.00,0.0026
2106.00,0.0026
2105.00,0.0025
2104.00,0.0024
2103.00,0.0024
2102.00,0.0024
2101.00,0.0024
2100.00,0.0025
2099.00,0.0024
2098.00,0.0023
2097.00,0.0022
2096.00,0.0022
2095.00,0.0021
2094.00,0.0021
2093.00,0.0021
2092.00,0.0022
2091.00,0.0022
2090.00,0.0023
2089.00,0.0023
2088.00,0.0025
2087.00,0.0026
2086.00,0.0026
2085.00,0.0026
2084.00,0.0026
2083.00,0.0026
2082.00,0.0026
2081.00,0.0026
2080.00,0.0027
2079.00,0.0027
2078.00,0.0027
2077.00,0.0027
2076.00,0.0027
2075.00,0.0028
2074.00,0.0027
2073.00,0.0027
2072.00,0.0027
2071.00,0.0026
2070.00,0.0026
2069.00,0.0026
2068.00,0.0027
2067.00,0.0027
2066.00,0.0027
2065.00,0.0026
2064.00,0.0026
2063.00,0.0025
2062.00,0.0025
2061.00,0.0025
2060.00,0.0025
2059.00,0.0026
2058.00,0.0025
2057.00,0.0025
2056.00,0.0025
2055.00,0.0026
2054.00,0.0029
2053.00,0.0033
2052.00,0.0036
2051.00,0.0036
2050.00,0.0033
2049.00,0.0030
2048.00,0.0029
2047.00,0.0029
2046.00,0.0028
2045.00,0.0027
2044.00,0.0026
2043.00,0.0024
2042.00,0.0024
2041.00,0.0024
2040.00,0.0026
2039.00,0.0028
2038.00,0.0027
2037.00,0.0027
2036.00,0.0027
2035.00,0.0026
2034.00,0.0025
2033.00,0.0025
2032.00,0.0025
2031.00,0.0024
2030.00,0.0023
2029.00,0.0024
2028.00,0.0025
2027.00,0.0027
2026.00,0.0027
2025.00,0.0027
2024.00,0.0026
2023.00,0.0025
2022.00,0.0023
2021.00,0.0022
2020.00,0.0022
2019.00,0.0023
2018.00,0.0022
2017.00,0.0020
2016.00,0.0019
2015.00,0.0019
2014.00,0.0019
2013.00,0.0020
2012.00,0.0022
2011.00,0.0024
2010.00,0.0024
2009.00,0.0022
2008.00,0.0020
2007.00,0.0017
2006.00,0.0016
2005.00,0.0016
2004.00,0.0017
2003.00,0.0019
2002.00,0.0020
2001.00,0.0022
2000.00,0.0023
1999.00,0.0024
1998.00,0.0024
1997.00,0.0024
1996.00,0.0025
1995.00,0.0024
1994.00,0.0024
1993.00,0.0025
1992.00,0.0027
1991.00,0.0028
1990.00,0.0027
1989.00,0.0027
1988.00,0.0028
1987.00,0.0030
1986.00,0.0030
1985.00,0.0031
1984.00,0.0032
1983.00,0.0034
1982.00,0.0034
1981.00,0.0035
1980.00,0.0033
1979.00,0.0028
1978.00,0.0022
1977.00,0.0019
1976.00,0.0018
1975.00,0.0018
1974.00,0.0016
1973.00,0.0015
1972.00,0.0016
1971.00,0.0016
1970.00,0.0016
1969.00,0.0016
1968.00,0.0018
1967.00,0.0018
1966.00,0.0017
1965.00,0.0016
1964.00,0.0015
1963.00,0.0014
1962.00,0.0013
1961.00,0.0012
1960.00,0.0013
1959.00,0.0015
1958.00,0.0016
1957.00,0.0016
1956.00,0.0017
1955.00,0.0017
1954.00,0.0018
1953.00,0.0020
1952.00,0.0021
1951.00,0.0021
1950.00,0.0020
1949.00,0.0019
1948.00,0.0018
1947.00,0.0018
1946.00,0.0018
1945.00,0.0018
1944.00,0.0018
1943.00,0.0019
1942.00,0.0019
1941.00,0.0019
1940.00,0.0020
1939.00,0.0020
1938.00,0.0021
1937.00,0.0021
1936.00,0.0022
1935.00,0.0022
1934.00,0.0022
1933.00,0.0021
1932.00,0.0021
1931.00,0.0021
1930.00,0.0021
1929.00,0.0020
1928.00,0.0020
1927.00,0.0020
1926.00,0.0020
1925.00,0.0021
1924.00,0.0022
1923.00,0.0023
1922.00,0.0024
1921.00,0.0024
1920.00,0.0025
1919.00,0.0024
1918.00,0.0024
1917.00,0.0024
1916.00,0.0024
1915.00,0.0024
1914.00,0.0024
1913.00,0.0024
1912.00,0.0025
1911.00,0.0025
1910.00,0.0025
1909.00,0.0025
1908.00,0.0026
1907.00,0.0026
1906.00,0.0026
1905.00,0.0026
1904.00,0.0026
1903.00,0.0026
1902.00,0.0026
1901.00,0.0026
1900.00,0.0026
1899.00,0.0026
1898.00,0.0025
1897.00,0.0025
1896.00,0.0025
1895.00,0.0025
1894.00,0.0025
1893.00,0.0024
1892.00,0.0025
1891.00,0.0025
1890.00,0.0025
1889.00,0.0025
1888.00,0.0025
1887.00,0.0025
1886.00,0.0025
1885.00,0.0026
1884.00,0.0026
1883.00,0.0026
1882.00,0.0025
1881.00,0.0026
1880.00,0.0026
1879.00,0.0027
1878.00,0.0027
1877.00,0.0027
1876.00,0.0027
1875.00,0.0027
1874.00,0.0027
1873.00,0.0026
1872.00,0.0026
1871.00,0.0026
1870.00,0.0026
1869.00,0.0027
1868.00,0.0027
1867.00,0.0027
1866.00,0.0026
1865.00,0.0026
1864.00,0.0027
1863.00,0.0027
1862.00,0.0027
1861.00,0.0027
1860.00,0.0028
1859.00,0.0028
1858.00,0.0028
1857.00,0.0028
1856.00,0.0028
1855.00,0.0028
1854.00,0.0028
1853.00,0.0028
1852.00,0.0028
1851.00,0.0028
1850.00,0.0028
1849.00,0.0028
1848.00,0.0028
1847.00,0.0028
1846.00,0.0028
1845.00,0.0027
1844.00,0.0027
1843.00,0.0027
1842.00,0.0027
1841.00,0.0027
1840.00,0.0028
1839.00,0.0029
1838.00,0.0029
1837.00,0.0029
1836.00,0.0029
1835.00,0.0029
1834.00,0.0029
1833.00,0.0029
1832.00,0.0030
1831.00,0.0029
1830.00,0.0029
1829.00,0.0029
1828.00,0.0029
1827.00,0.0030
1826.00,0.0030
1825.00,0.0030
1824.00,0.0030
1823.00,0.0030
1822.00,0.0030
1821.00,0.0029
1820.00,0.0029
1819.00,0.0029
1818.00,0.0028
1817.00,0.0028
1816.00,0.0029
1815.00,0.0029
1814.00,0.0029
1813.00,0.0030
1812.00,0.0030
1811.00,0.0030
1810.00,0.0030
1809.00,0.0030
1808.00,0.0031
1807.00,0.0031
1806.00,0.0031
1805.00,0.0032
1804.00,0.0032
1803.00,0.0032
1802.00,0.0032
1801.00,0.0032
1800.00,0.0032
1799.00,0.0032
1798.00,0.0032
1797.00,0.0032
1796.00,0.0032
1795.00,0.0033
1794.00,0.0032
1793.00,0.0032
1792.00,0.0033
1791.00,0.0033
1790.00,0.0032
1789.00,0.0033
1788.00,0.0034
1787.00,0.0035
1786.00,0.0035
1785.00,0.0035
1784.00,0.0035
1783.00,0.0035
1782.00,0.0035
1781.00,0.0035
1780.00,0.0036
1779.00,0.0036
1778.00,0.0036
1777.00,0.0036
1776.00,0.0037
1775.00,0.0037
1774.00,0.0036
1773.00,0.0036
1772.00,0.0037
1771.00,0.0037
1770.00,0.0037
1769.00,0.0038
1768.00,0.0039
1767.00,0.0040
1766.00,0.0041
1765.00,0.0041
1764.00,0.0042
1763.00,0.0042
1762.00,0.0042
1761.00,0.0042
1760.00,0.0043
1759.00,0.0043
1758.00,0.0043
1757.00,0.0044
1756.00,0.0045
1755.00,0.0045
1754.00,0.0045
1753.00,0.0046
1752.00,0.0046
1751.00,0.0047
1750.00,0.0046
1749.00,0.0046
1748.00,0.0047
1747.00,0.0049
1746.00,0.0049
1745.00,0.0050
1744.00,0.0052
1743.00,0.0052
1742.00,0.0052
1741.00,0.0052
1740.00,0.0053
1739.00,0.0054
1738.00,0.0054
1737.00,0.0054
1736.00,0.0055
1735.00,0.0056
1734.00,0.0057
1733.00,0.0057
1732.00,0.0059
1731.00,0.0061
1730.00,0.0063
1729.00,0.0066
1728.00,0.0068
1727.00,0.0070
1726.00,0.0072
1725.00,0.0073
1724.00,0.0076
1723.00,0.0078
1722.00,0.0079
1721.00,0.0081
1720.00,0.0083
1719.00,0.0085
1718.00,0.0087
1717.00,0.0090
1716.00,0.0093
1715.00,0.0098
1714.00,0.0102
1713.00,0.0107
1712.00,0.0114
1711.00,0.0121
1710.00,0.0128
1709.00,0.0136
1708.00,0.0145
1707.00,0.0156
1706.00,0.0169
1705.00,0.0184
1704.00,0.0200
1703.00,0.0216
1702.00,0.0235
1701.00,0.0263
1700.00,0.0301
1699.00,0.0338
1698.00,0.0371
1697.00,0.0411
1696.00,0.0464
1695.00,0.0523
1694.00,0.0577
1693.00,0.0627
1692.00,0.0678
1691.00,0.0732
1690.00,0.0787
1689.00,0.0841
1688.00,0.0889
1687.00,0.0931
1686.00,0.0970
1685.00,0.1007
1684.00,0.1044
1683.00,0.1074
1682.00,0.1096
1681.00,0.1115
1680.00,0.1134
1679.00,0.1151
1678.00,0.1166
1677.00,0.1183
1676.00,0.1202
1675.00,0.1226
1674.00,0.1254
1673.00,0.1287
1672.00,0.1327
1671.00,0.1373
1670.00,0.1425
1669.00,0.1483
1668.00,0.1544
1667.00,0.1604
1666.00,0.1662
1665.00,0.1720
1664.00,0.1780
1663.00,0.1839
1662.00,0.1894
1661.00,0.1944
1660.00,0.1990
1659.00,0.2032
1658.00,0.2068
1657.00,0.2099
1656.00,0.2126
1655.00,0.2142
1654.00,0.2132
1653.00,0.2094
1652.00,0.2055
1651.00,0.2031
1650.00,0.2012
1649.00,0.1982
1648.00,0.1926
1647.00,0.1840
1646.00,0.1741
1645.00,0.1649
1644.00,0.1568
1643.00,0.1492
1642.00,0.1414
1641.00,0.1333
1640.00,0.1256
1639.00,0.1186
1638.00,0.1119
1637.00,0.1050
1636.00,0.0975
1635.00,0.0905
1634.00,0.0852
1633.00,0.0813
1632.00,0.0784
1631.00,0.0759
1630.00,0.0737
1629.00,0.0718
1628.00,0.0704
1627.00,0.0696
1626.00,0.0692
1625.00,0.0691
1624.00,0.0693
1623.00,0.0696
1622.00,0.0698
1621.00,0.0700
1620.00,0.0699
1619.00,0.0696
1618.00,0.0687
1617.00,0.0671
1616.00,0.0651
1615.00,0.0631
1614.00,0.0613
1613.00,0.0596
1612.00,0.0580
1611.00,0.0565
1610.00,0.0553
1609.00,0.0547
1608.00,0.0549
1607.00,0.0558
1606.00,0.0576
1605.00,0.0600
1604.00,0.0632
1603.00,0.0667
1602.00,0.0704
1601.00,0.0738
1600.00,0.0766
1599.00,0.0786
1598.00,0.0796
1597.00,0.0794
1596.00,0.0782
1595.00,0.0762
1594.00,0.0737
1593.00,0.0709
1592.00,0.0681
1591.00,0.0655
1590.00,0.0631
1589.00,0.0608
1588.00,0.0587
1587.00,0.0567
1586.00,0.0545
1585.00,0.0523
1584.00,0.0500
1583.00,0.0476
1582.00,0.0451
1581.00,0.0428
1580.00,0.0406
1579.00,0.0386
1578.00,0.0367
1577.00,0.0347
1576.00,0.0327
1575.00,0.0310
1574.00,0.0298
1573.00,0.0289
1572.00,0.0280
1571.00,0.0271
1570.00,0.0261
1569.00,0.0252
1568.00,0.0244
1567.00,0.0238
1566.00,0.0233
1565.00,0.0228
1564.00,0.0223
1563.00,0.0219
1562.00,0.0214
1561.00,0.0210
1560.00,0.0204
1559.00,0.0198
1558.00,0.0193
1557.00,0.0190
1556.00,0.0190
1555.00,0.0191
1554.00,0.0191
1553.00,0.0191
1552.00,0.0190
1551.00,0.0190
1550.00,0.0191
1549.00,0.0191
1548.00,0.0192
1547.00,0.0193
1546.00,0.0194
1545.00,0.0195
1544.00,0.0196
1543.00,0.0197
1542.00,0.0198
1541.00,0.0199
1540.00,0.0199
1539.00,0.0200
1538.00,0.0201
1537.00,0.0202
1536.00,0.0203
1535.00,0.0204
1534.00,0.0203
1533.00,0.0201
1532.00,0.0199
1531.00,0.0197
1530.00,0.0197
1529.00,0.0197
1528.00,0.0197
1527.00,0.0197
1526.00,0.0197
1525.00,0.0198
1524.00,0.0198
1523.00,0.0199
1522.00,0.0201
1521.00,0.0203
1520.00,0.0204
1519.00,0.0205
1518.00,0.0207
1517.00,0.0208
1516.00,0.0209
1515.00,0.0209
1514.00,0.0209
1513.00,0.0210
1512.00,0.0210
1511.00,0.0211
1510.00,0.0211
1509.00,0.0212
1508.00,0.0214
1507.00,0.0220
1506.00,0.0227
1505.00,0.0238
1504.00,0.0250
1503.00,0.0265
1502.00,0.0283
1501.00,0.0303
1500.00,0.0325
1499.00,0.0349
1498.00,0.0373
1497.00,0.0398
1496.00,0.0420
1495.00,0.0436
1494.00,0.0444
1493.00,0.0446
1492.00,0.0440
1491.00,0.0426
1490.00,0.0405
1489.00,0.0380
1488.00,0.0355
1487.00,0.0332
1486.00,0.0312
1485.00,0.0295
1484.00,0.0282
1483.00,0.0272
1482.00,0.0264
1481.00,0.0260
1480.00,0.0258
1479.00,0.0259
1478.00,0.0263
1477.00,0.0271
1476.00,0.0281
1475.00,0.0294
1474.00,0.0312
1473.00,0.0340
1472.00,0.0376
1471.00,0.0417
1470.00,0.0462
1469.00,0.0510
1468.00,0.0562
1467.00,0.0616
1466.00,0.0674
1465.00,0.0734
1464.00,0.0789
1463.00,0.0831
1462.00,0.0859
1461.00,0.0875
1460.00,0.0881
1459.00,0.0873
1458.00,0.0851
1457.00,0.0820
1456.00,0.0790
1455.00,0.0771
1454.00,0.0761
1453.00,0.0760
1452.00,0.0763
1451.00,0.0773
1450.00,0.0790
1449.00,0.0816
1448.00,0.0851
1447.00,0.0891
1446.00,0.0934
1445.00,0.0980
1444.00,0.1028
1443.00,0.1076
1442.00,0.1123
1441.00,0.1168
1440.00,0.1208
1439.00,0.1245
1438.00,0.1281
1437.00,0.1321
1436.00,0.1364
1435.00,0.1408
1434.00,0.1456
1433.00,0.1509
1432.00,0.1567
1431.00,0.1624
1430.00,0.1674
1429.00,0.1715
1428.00,0.1742
1427.00,0.1755
1426.00,0.1755
1425.00,0.1746
1424.00,0.1728
1423.00,0.1700
1422.00,0.1664
1421.00,0.1615
1420.00,0.1540
1419.00,0.1437
1418.00,0.1326
1417.00,0.1225
1416.00,0.1132
1415.00,0.1046
1414.00,0.0966
1413.00,0.0896
1412.00,0.0835
1411.00,0.0784
1410.00,0.0743
1409.00,0.0710
1408.00,0.0684
1407.00,0.0664
1406.00,0.0648
1405.00,0.0636
1404.00,0.0626
1403.00,0.0620
1402.00,0.0617
1401.00,0.0615
1400.00,0.0613
1399.00,0.0613
1398.00,0.0614
1397.00,0.0617
1396.00,0.0619
1395.00,0.0623
1394.00,0.0629
1393.00,0.0636
1392.00,0.0644
1391.00,0.0654
1390.00,0.0665
1389.00,0.0678
1388.00,0.0693
1387.00,0.0711
1386.00,0.0732
1385.00,0.0755
1384.00,0.0777
1383.00,0.0798
1382.00,0.0818
1381.00,0.0835
1380.00,0.0850
1379.00,0.0863
1378.00,0.0873
1377.00,0.0879
1376.00,0.0879
1375.00,0.0871
1374.00,0.0856
1373.00,0.0835
1372.00,0.0813
1371.00,0.0792
1370.00,0.0772
1369.00,0.0753
1368.00,0.0736
1367.00,0.0720
1366.00,0.0705
1365.00,0.0691
1364.00,0.0675
1363.00,0.0660
1362.00,0.0645
1361.00,0.0631
1360.00,0.0621
1359.00,0.0612
1358.00,0.0605
1357.00,0.0600
1356.00,0.0597
1355.00,0.0593
1354.00,0.0591
1353.00,0.0588
1352.00,0.0584
1351.00,0.0578
1350.00,0.0570
1349.00,0.0561
1348.00,0.0551
1347.00,0.0541
1346.00,0.0530
1345.00,0.0520
1344.00,0.0510
1343.00,0.0502
1342.00,0.0496
1341.00,0.0491
1340.00,0.0486
1339.00,0.0483
1338.00,0.0481
1337.00,0.0480
1336.00,0.0479
1335.00,0.0479
1334.00,0.0480
1333.00,0.0482
1332.00,0.0486
1331.00,0.0490
1330.00,0.0496
1329.00,0.0505
1328.00,0.0515
1327.00,0.0528
1326.00,0.0543
1325.00,0.0560
1324.00,0.0577
1323.00,0.0595
1322.00,0.0613
1321.00,0.0630
1320.00,0.0644
1319.00,0.0655
1318.00,0.0662
1317.00,0.0665
1316.00,0.0663
1315.00,0.0658
1314.00,0.0651
1313.00,0.0640
1312.00,0.0629
1311.00,0.0618
1310.00,0.0608
1309.00,0.0599
1308.00,0.0592
1307.00,0.0588
1306.00,0.0587
1305.00,0.0590
1304.00,0.0598
1303.00,0.0612
1302.00,0.0634
1301.00,0.0663
1300.00,0.0703
1299.00,0.0752
1298.00,0.0814
1297.00,0.0889
1296.00,0.0973
1295.00,0.1065
1294.00,0.1159
1293.00,0.1249
1292.00,0.1329
1291.00,0.1396
1290.00,0.1445
1289.00,0.1477
1288.00,0.1492
1287.00,0.1491
1286.00,0.1476
1285.00,0.1449
1284.00,0.1413
1283.00,0.1371
1282.00,0.1329
1281.00,0.1290
1280.00,0.1259
1279.00,0.1238
1278.00,0.1226
1277.00,0.1224
1276.00,0.1228
1275.00,0.1235
1274.00,0.1240
1273.00,0.1241
1272.00,0.1235
1271.00,0.1220
1270.00,0.1196
1269.00,0.1164
1268.00,0.1125
1267.00,0.1080
1266.00,0.1033
1265.00,0.0986
1264.00,0.0939
1263.00,0.0894
1262.00,0.0851
1261.00,0.0812
1260.00,0.0776
1259.00,0.0744
1258.00,0.0714
1257.00,0.0687
1256.00,0.0662
1255.00,0.0639
1254.00,0.0617
1253.00,0.0597
1252.00,0.0578
1251.00,0.0559
1250.00,0.0542
1249.00,0.0526
1248.00,0.0512
1247.00,0.0500
1246.00,0.0491
1245.00,0.0484
1244.00,0.0480
1243.00,0.0478
1242.00,0.0479
1241.00,0.0483
1240.00,0.0490
1239.00,0.0500
1238.00,0.0515
1237.00,0.0534
1236.00,0.0557
1235.00,0.0583
1234.00,0.0613
1233.00,0.0644
1232.00,0.0676
1231.00,0.0705
1230.00,0.0731
1229.00,0.0752
1228.00,0.0768
1227.00,0.0779
1226.00,0.0785
1225.00,0.0787
1224.00,0.0786
1223.00,0.0783
1222.00,0.0778
1221.00,0.0772
1220.00,0.0764
1219.00,0.0754
1218.00,0.0741
1217.00,0.0727
1216.00,0.0711
1215.00,0.0693
1214.00,0.0674
1213.00,0.0654
1212.00,0.0635
1211.00,0.0618
1210.00,0.0602
1209.00,0.0588
1208.00,0.0576
1207.00,0.0565
1206.00,0.0556
1205.00,0.0548
1204.00,0.0540
1203.00,0.0533
1202.00,0.0526
1201.00,0.0518
1200.00,0.0510
1199.00,0.0502
1198.00,0.0493
1197.00,0.0485
1196.00,0.0476
1195.00,0.0468
1194.00,0.0461
1193.00,0.0455
1192.00,0.0450
1191.00,0.0445
1190.00,0.0441
1189.00,0.0438
1188.00,0.0436
1187.00,0.0434
1186.00,0.0433
1185.00,0.0433
1184.00,0.0433
1183.00,0.0435
1182.00,0.0438
1181.00,0.0443
1180.00,0.0450
1179.00,0.0460
1178.00,0.0472
1177.00,0.0487
1176.00,0.0505
1175.00,0.0526
1174.00,0.0549
1173.00,0.0573
1172.00,0.0600
1171.00,0.0627
1170.00,0.0654
1169.00,0.0681
1168.00,0.0705
1167.00,0.0727
1166.00,0.0744
1165.00,0.0755
1164.00,0.0761
1163.00,0.0759
1162.00,0.0752
1161.00,0.0740
1160.00,0.0725
1159.00,0.0707
1158.00,0.0689
1157.00,0.0670
1156.00,0.0650
1155.00,0.0629
1154.00,0.0608
1153.00,0.0586
1152.00,0.0563
1151.00,0.0541
1150.00,0.0518
1149.00,0.0495
1148.00,0.0472
1147.00,0.0449
1146.00,0.0427
1145.00,0.0408
1144.00,0.0391
1143.00,0.0376
1142.00,0.0365
1141.00,0.0355
1140.00,0.0346
1139.00,0.0338
1138.00,0.0330
1137.00,0.0322
1136.00,0.0314
1135.00,0.0305
1134.00,0.0297
1133.00,0.0289
1132.00,0.0282
1131.00,0.0274
1130.00,0.0268
1129.00,0.0262
1128.00,0.0257
1127.00,0.0252
1126.00,0.0248
1125.00,0.0244
1124.00,0.0241
1123.00,0.0240
1122.00,0.0239
1121.00,0.0239
1120.00,0.0240
1119.00,0.0241
1118.00,0.0244
1117.00,0.0249
1116.00,0.0255
1115.00,0.0264
1114.00,0.0273
1113.00,0.0284
1112.00,0.0294
1111.00,0.0304
1110.00,0.0312
1109.00,0.0318
1108.00,0.0321
1107.00,0.0322
1106.00,0.0322
1105.00,0.0320
1104.00,0.0318
1103.00,0.0316
1102.00,0.0316
1101.00,0.0319
1100.00,0.0322
1099.00,0.0328
1098.00,0.0335
1097.00,0.0342
1096.00,0.0349
1095.00,0.0355
1094.00,0.0360
1093.00,0.0363
1092.00,0.0365
1091.00,0.0366
1090.00,0.0369
1089.00,0.0375
1088.00,0.0383
1087.00,0.0394
1086.00,0.0406
1085.00,0.0418
1084.00,0.0427
1083.00,0.0433
1082.00,0.0434
1081.00,0.0430
1080.00,0.0422
1079.00,0.0411
1078.00,0.0399
1077.00,0.0386
1076.00,0.0373
1075.00,0.0360
1074.00,0.0347
1073.00,0.0335
1072.00,0.0322
1071.00,0.0311
1070.00,0.0300
1069.00,0.0292
1068.00,0.0285
1067.00,0.0281
1066.00,0.0279
1065.00,0.0280
1064.00,0.0284
1063.00,0.0291
1062.00,0.0303
1061.00,0.0320
1060.00,0.0342
1059.00,0.0371
1058.00,0.0408
1057.00,0.0456
1056.00,0.0514
1055.00,0.0583
1054.00,0.0662
1053.00,0.0747
1052.00,0.0833
1051.00,0.0913
1050.00,0.0981
1049.00,0.1029
1048.00,0.1055
1047.00,0.1058
1046.00,0.1043
1045.00,0.1014
1044.00,0.0977
1043.00,0.0938
1042.00,0.0900
1041.00,0.0865
1040.00,0.0834
1039.00,0.0807
1038.00,0.0783
1037.00,0.0762
1036.00,0.0743
1035.00,0.0725
1034.00,0.0707
1033.00,0.0690
1032.00,0.0674
1031.00,0.0660
1030.00,0.0646
1029.00,0.0635
1028.00,0.0623
1027.00,0.0613
1026.00,0.0604
1025.00,0.0595
1024.00,0.0586
1023.00,0.0578
1022.00,0.0569
1021.00,0.0560
1020.00,0.0549
1019.00,0.0537
1018.00,0.0522
1017.00,0.0505
1016.00,0.0484
1015.00,0.0460
1014.00,0.0436
1013.00,0.0412
1012.00,0.0389
1011.00,0.0370
1010.00,0.0355
1009.00,0.0344
1008.00,0.0339
1007.00,0.0338
1006.00,0.0340
1005.00,0.0345
1004.00,0.0350
1003.00,0.0353
1002.00,0.0353
1001.00,0.0350
1000.00,0.0343
999.00,0.0334
998.00,0.0324
997.00,0.0315
996.00,0.0306
995.00,0.0300
994.00,0.0295
993.00,0.0294
992.00,0.0294
991.00,0.0297
990.00,0.0302
989.00,0.0308
988.00,0.0314
987.00,0.0319
986.00,0.0321
985.00,0.0321
984.00,0.0318
983.00,0.0313
982.00,0.0306
981.00,0.0299
980.00,0.0292
979.00,0.0285
978.00,0.0280
977.00,0.0275
976.00,0.0271
975.00,0.0266
974.00,0.0261
973.00,0.0255
972.00,0.0249
971.00,0.0243
970.00,0.0238
969.00,0.0232
968.00,0.0226
967.00,0.0220
966.00,0.0214
965.00,0.0208
964.00,0.0203
963.00,0.0198
962.00,0.0193
961.00,0.0189
960.00,0.0184
959.00,0.0180
958.00,0.0175
957.00,0.0170
956.00,0.0165
955.00,0.0161
954.00,0.0157
953.00,0.0154
952.00,0.0151
951.00,0.0148
950.00,0.0146
949.00,0.0144
948.00,0.0142
947.00,0.0141
946.00,0.0141
945.00,0.0141
944.00,0.0142
943.00,0.0143
942.00,0.0146
941.00,0.0149
940.00,0.0152
939.00,0.0158
938.00,0.0164
937.00,0.0172
936.00,0.0181
935.00,0.0189
934.00,0.0196
933.00,0.0201
932.00,0.0202
931.00,0.0200
930.00,0.0196
929.00,0.0192
928.00,0.0189
927.00,0.0187
926.00,0.0188
925.00,0.0189
924.00,0.0191
923.00,0.0194
922.00,0.0197
921.00,0.0202
920.00,0.0207
919.00,0.0213
918.00,0.0220
917.00,0.0226
916.00,0.0232
915.00,0.0238
914.00,0.0244
913.00,0.0250
912.00,0.0257
911.00,0.0263
910.00,0.0270
909.00,0.0276
908.00,0.0281
907.00,0.0283
906.00,0.0284
905.00,0.0282
904.00,0.0279
903.00,0.0275
902.00,0.0271
901.00,0.0267
900.00,0.0263
899.00,0.0260
898.00,0.0259
897.00,0.0257
896.00,0.0255
895.00,0.0252
894.00,0.0249
893.00,0.0246
892.00,0.0242
891.00,0.0238
890.00,0.0235
889.00,0.0232
888.00,0.0230
887.00,0.0229
886.00,0.0228
885.00,0.0229
884.00,0.0230
883.00,0.0231
882.00,0.0233
881.00,0.0235
880.00,0.0237
879.00,0.0239
878.00,0.0242
877.00,0.0244
876.00,0.0246
875.00,0.0248
874.00,0.0250
873.00,0.0253
872.00,0.0255
871.00,0.0258
870.00,0.0262
869.00,0.0266
868.00,0.0271
867.00,0.0277
866.00,0.0284
865.00,0.0292
864.00,0.0301
863.00,0.0312
862.00,0.0323
861.00,0.0336
860.00,0.0349
859.00,0.0364
858.00,0.0380
857.00,0.0397
856.00,0.0414
855.00,0.0430
854.00,0.0447
853.00,0.0464
852.00,0.0480
851.00,0.0495
850.00,0.0509
849.00,0.0522
848.00,0.0533
847.00,0.0544
846.00,0.0554
845.00,0.0563
844.00,0.0572
843.00,0.0580
842.00,0.0587
841.00,0.0595
840.00,0.0602
839.00,0.0610
838.00,0.0619
837.00,0.0628
836.00,0.0636
835.00,0.0645
834.00,0.0654
833.00,0.0663
832.00,0.0671
831.00,0.0677
830.00,0.0680
829.00,0.0681
828.00,0.0677
827.00,0.0670
826.00,0.0660
825.00,0.0645
824.00,0.0626
823.00,0.0604
822.00,0.0580
821.00,0.0555
820.00,0.0530
819.00,0.0506
818.00,0.0484
817.00,0.0463
816.00,0.0445
815.00,0.0427
814.00,0.0412
813.00,0.0397
812.00,0.0383
811.00,0.0371
810.00,0.0361
809.00,0.0351
808.00,0.0343
807.00,0.0336
806.00,0.0330
805.00,0.0326
804.00,0.0322
803.00,0.0320
802.00,0.0320
801.00,0.0322
800.00,0.0325
799.00,0.0329
798.00,0.0334
797.00,0.0340
796.00,0.0345
795.00,0.0350
794.00,0.0354
793.00,0.0357
792.00,0.0359
791.00,0.0361
790.00,0.0363
789.00,0.0364
788.00,0.0365
787.00,0.0367
786.00,0.0369
785.00,0.0373
784.00,0.0377
783.00,0.0382
782.00,0.0387
781.00,0.0392
780.00,0.0397
779.00,0.0403
778.00,0.0407
777.00,0.0411
776.00,0.0414
775.00,0.0416
774.00,0.0416
773.00,0.0416
772.00,0.0415
771.00,0.0415
770.00,0.0415
769.00,0.0415
768.00,0.0414
767.00,0.0413
766.00,0.0413
765.00,0.0414
764.00,0.0416
763.00,0.0419
762.00,0.0423
761.00,0.0428
760.00,0.0434
759.00,0.0442
758.00,0.0450
757.00,0.0460
756.00,0.0470
755.00,0.0481
754.00,0.0492
753.00,0.0504
752.00,0.0516
751.00,0.0528
750.00,0.0540
749.00,0.0552
748.00,0.0563
747.00,0.0574
746.00,0.0584
745.00,0.0594
744.00,0.0604
743.00,0.0613
742.00,0.0622
741.00,0.0630
740.00,0.0636
739.00,0.0642
738.00,0.0646
737.00,0.0647
736.00,0.0647
735.00,0.0643
734.00,0.0638
733.00,0.0630
732.00,0.0620
731.00,0.0608
730.00,0.0593
729.00,0.0576
728.00,0.0559
727.00,0.0542
726.00,0.0526
725.00,0.0511
724.00,0.0497
723.00,0.0485
722.00,0.0474
721.00,0.0464
720.00,0.0456
719.00,0.0449
718.00,0.0443
717.00,0.0440
716.00,0.0437
715.00,0.0436
714.00,0.0435
713.00,0.0434
712.00,0.0434
711.00,0.0435
710.00,0.0436
709.00,0.0437
708.00,0.0438
707.00,0.0440
706.00,0.0441
705.00,0.0442
704.00,0.0444
703.00,0.0446
702.00,0.0448
701.00,0.0450
700.00,0.0452
699.00,0.0455
698.00,0.0459
697.00,0.0462
696.00,0.0465
695.00,0.0468
694.00,0.0471
693.00,0.0474
692.00,0.0478
691.00,0.0483
690.00,0.0489
689.00,0.0494
688.00,0.0500
687.00,0.0506
686.00,0.0512
685.00,0.0518
684.00,0.0525
683.00,0.0531
682.00,0.0536
681.00,0.0542
680.00,0.0547
679.00,0.0553
678.00,0.0559
677.00,0.0566
676.00,0.0573
675.00,0.0579
674.00,0.0585
673.00,0.0591
672.00,0.0598
671.00,0.0604
670.00,0.0612
669.00,0.0621
668.00,0.0632
667.00,0.0643
666.00,0.0652
665.00,0.0659
664.00,0.0668
663.00,0.0677
662.00,0.0687
661.00,0.0696
660.00,0.0705
659.00,0.0716
658.00,0.0727
657.00,0.0738
656.00,0.0748
655.00,0.0757
654.00,0.0766
653.00,0.0774
652.00,0.0780
651.00,0.0785
650.00,0.0788
649.00,0.0787
648.00,0.0784
647.00,0.0778
646.00,0.0769
645.00,0.0757
644.00,0.0742
643.00,0.0727
642.00,0.0710
641.00,0.0694
640.00,0.0677
639.00,0.0660
638.00,0.0644
637.00,0.0628
636.00,0.0612
635.00,0.0597
634.00,0.0584
633.00,0.0572
632.00,0.0560
631.00,0.0549
630.00,0.0539
629.00,0.0529
628.00,0.0519
627.00,0.0510
626.00,0.0501
625.00,0.0494
624.00,0.0487
623.00,0.0481
622.00,0.0476
621.00,0.0473
620.00,0.0470
619.00,0.0468
618.00,0.0466
617.00,0.0466
616.00,0.0466
615.00,0.0467
614.00,0.0467
613.00,0.0468
612.00,0.0469
611.00,0.0470
610.00,0.0472
609.00,0.0475
608.00,0.0479
607.00,0.0484
606.00,0.0491
605.00,0.0497
604.00,0.0503
603.00,0.0509
602.00,0.0514
601.00,0.0520
600.00,0.0525
599.00,0.0530
598.00,0.0536
597.00,0.0541
596.00,0.0546
595.00,0.0552
594.00,0.0558
593.00,0.0565
592.00,0.0572
591.00,0.0580
590.00,0.0589
589.00,0.0598
588.00,0.0608
587.00,0.0618
586.00,0.0630
585.00,0.0643
584.00,0.0657
583.00,0.0671
582.00,0.0683
581.00,0.0694
580.00,0.0702
579.00,0.0708
578.00,0.0709
577.00,0.0708
576.00,0.0704
575.00,0.0699
574.00,0.0692
573.00,0.0685
572.00,0.0677
571.00,0.0669
570.00,0.0659
569.00,0.0650
568.00,0.0642
567.00,0.0633
566.00,0.0624
565.00,0.0614
564.00,0.0602
563.00,0.0589
562.00,0.0575
561.00,0.0561
560.00,0.0546
559.00,0.0532
558.00,0.0518
557.00,0.0505
556.00,0.0493
555.00,0.0482
554.00,0.0473
553.00,0.0465
552.00,0.0457
551.00,0.0451
550.00,0.0446
549.00,0.0442
548.00,0.0438
547.00,0.0435
546.00,0.0433
545.00,0.0432
544.00,0.0429
543.00,0.0428
542.00,0.0427
541.00,0.0426
540.00,0.0425
539.00,0.0423
538.00,0.0422
537.00,0.0421
536.00,0.0419
535.00,0.0417
534.00,0.0416
533.00,0.0415
532.00,0.0414
531.00,0.0413
530.00,0.0411
529.00,0.0408
528.00,0.0404
527.00,0.0400
526.00,0.0396
525.00,0.0394
524.00,0.0391
523.00,0.0389
522.00,0.0386
521.00,0.0382
520.00,0.0378
519.00,0.0374
518.00,0.0372
517.00,0.0370
516.00,0.0367
515.00,0.0364
514.00,0.0362
513.00,0.0359
512.00,0.0356
511.00,0.0353
510.00,0.0351
509.00,0.0348
508.00,0.0344
507.00,0.0342
506.00,0.0341
505.00,0.0342
504.00,0.0342
503.00,0.0342
502.00,0.0344
501.00,0.0347
500.00,0.0350
499.00,0.0350
498.00,0.0349
497.00,0.0348
496.00,0.0349
495.00,0.0352
494.00,0.0357
493.00,0.0362
492.00,0.0363
491.00,0.0361
490.00,0.0359
489.00,0.0357
488.00,0.0355
487.00,0.0354
486.00,0.0356
485.00,0.0359
484.00,0.0362
483.00,0.0364
482.00,0.0365
481.00,0.0364
480.00,0.0363
479.00,0.0362
478.00,0.0362
477.00,0.0363
476.00,0.0363
475.00,0.0364
474.00,0.0365
473.00,0.0368
472.00,0.0370
471.00,0.0370
470.00,0.0370
469.00,0.0370
468.00,0.0371
467.00,0.0373
466.00,0.0376
465.00,0.0377
464.00,0.0377
463.00,0.0379
462.00,0.0382
461.00,0.0386
460.00,0.0389
459.00,0.0392
458.00,0.0396
457.00,0.0401
456.00,0.0405
455.00,0.0409
454.00,0.0414
453.00,0.0418
452.00,0.0420
451.00,0.0420
450.00,0.0419
449.00,0.0418
448.00,0.0415
447.00,0.0411
446.00,0.0406
445.00,0.0399
444.00,0.0391
443.00,0.0384
442.00,0.0380
441.00,0.0379
440.00,0.0378
439.00,0.0377
438.00,0.0376
437.00,0.0372
436.00,0.0365
435.00,0.0357
434.00,0.0352
433.00,0.0349
432.00,0.0349
431.00,0.0351
430.00,0.0355
429.00,0.0358
428.00,0.0357
427.00,0.0354
426.00,0.0354
425.00,0.0357
424.00,0.0362
423.00,0.0366
422.00,0.0369
421.00,0.0369
420.00,0.0364
419.00,0.0357
418.00,0.0351
417.00,0.0348
416.00,0.0347
415.00,0.0347
414.00,0.0351
413.00,0.0356
412.00,0.0358
411.00,0.0359
410.00,0.0362
409.00,0.0365
408.00,0.0365
407.00,0.0362
406.00,0.0359
405.00,0.0358
404.00,0.0360
403.00,0.0362
402.00,0.0363
401.00,0.0360
400.00,0.0355
