Created as New Dataset,Sample 239 By YargerLab Date Sunday, October 05 2025
cm-1,A
4000.00,0.0023
3999.00,0.0023
3998.00,0.0023
3997.00,0.0023
3996.00,0.0023
3995.00,0.0023
3994.00,0.0023
3993.00,0.0023
3992.00,0.0023
3991.00,0.0023
3990.00,0.0023
3989.00,0.0023
3988.00,0.0023
3987.00,0.0023
3986.00,0.0023
3985.00,0.0023
3984.00,0.0023
3983.00,0.0023
3982.00,0.0023
3981.00,0.0023
3980.00,0.0023
3979.00,0.0022
3978.00,0.0022
3977.00,0.0023
3976.00,0.0023
3975.00,0.0023
3974.00,0.0023
3973.00,0.0023
3972.00,0.0023
3971.00,0.0023
3970.00,0.0023
3969.00,0.0023
3968.00,0.0022
3967.00,0.0022
3966.00,0.0022
3965.00,0.0022
3964.00,0.0022
3963.00,0.0023
3962.00,0.0023
3961.00,0.0023
3960.00,0.0023
3959.00,0.0022
3958.00,0.0022
3957.00,0.0022
3956.00,0.0022
3955.00,0.0022
3954.00,0.0022
3953.00,0.0022
3952.00,0.0022
3951.00,0.0022
3950.00,0.0022
3949.00,0.0022
3948.00,0.0022
3947.00,0.0022
3946.00,0.0023
3945.00,0.0022
3944.00,0.0022
3943.00,0.0022
3942.00,0.0022
3941.00,0.0023
3940.00,0.0023
3939.00,0.0023
3938.00,0.0022
3937.00,0.0022
3936.00,0.0022
3935.00,0.0022
3934.00,0.0022
3933.00,0.0022
3932.00,0.0023
3931.00,0.0023
3930.00,0.0023
3929.00,0.0023
3928.00,0.0023
3927.00,0.0023
3926.00,0.0023
3925.00,0.0023
3924.00,0.0023
3923.00,0.0022
3922.00,0.0022
3921.00,0.0022
3920.00,0.0023
3919.00,0.0023
3918.00,0.0023
3917.00,0.0023
3916.00,0.0023
3915.00,0.0023
3914.00,0.0022
3913.00,0.0022
3912.00,0.0022
3911.00,0.0022
3910.00,0.0022
3909.00,0.0022
3908.00,0.0022
3907.00,0.0023
3906.00,0.0023
3905.00,0.0023
3904.00,0.0024
3903.00,0.0024
3902.00,0.0024
3901.00,0.0024
3900.00,0.0024
3899.00,0.0024
3898.00,0.0024
3897.00,0.0024
3896.00,0.0023
3895.00,0.0023
3894.00,0.0023
3893.00,0.0023
3892.00,0.0023
3891.00,0.0023
3890.00,0.0023
3889.00,0.0023
3888.00,0.0023
3887.00,0.0023
3886.00,0.0023
3885.00,0.0023
3884.00,0.0023
3883.00,0.0023
3882.00,0.0023
3881.00,0.0023
3880.00,0.0023
3879.00,0.0023
3878.00,0.0023
3877.00,0.0023
3876.00,0.0023
3875.00,0.0023
3874.00,0.0023
3873.00,0.0023
3872.00,0.0023
3871.00,0.0023
3870.00,0.0023
3869.00,0.0023
3868.00,0.0023
3867.00,0.0024
3866.00,0.0024
3865.00,0.0024
3864.00,0.0024
3863.00,0.0023
3862.00,0.0023
3861.00,0.0023
3860.00,0.0023
3859.00,0.0023
3858.00,0.0024
3857.00,0.0025
3856.00,0.0026
3855.00,0.0026
3854.00,0.0026
3853.00,0.0026
3852.00,0.0025
3851.00,0.0025
3850.00,0.0025
3849.00,0.0024
3848.00,0.0023
3847.00,0.0023
3846.00,0.0022
3845.00,0.0022
3844.00,0.0023
3843.00,0.0023
3842.00,0.0023
3841.00,0.0024
3840.00,0.0024
3839.00,0.0024
3838.00,0.0024
3837.00,0.0024
3836.00,0.0024
3835.00,0.0024
3834.00,0.0024
3833.00,0.0024
3832.00,0.0023
3831.00,0.0023
3830.00,0.0023
3829.00,0.0022
3828.00,0.0022
3827.00,0.0022
3826.00,0.0022
3825.00,0.0022
3824.00,0.0023
3823.00,0.0023
3822.00,0.0023
3821.00,0.0023
3820.00,0.0023
3819.00,0.0024
3818.00,0.0024
3817.00,0.0024
3816.00,0.0024
3815.00,0.0023
3814.00,0.0023
3813.00,0.0022
3812.00,0.0022
3811.00,0.0022
3810.00,0.0022
3809.00,0.0022
3808.00,0.0022
3807.00,0.0022
3806.00,0.0022
3805.00,0.0023
3804.00,0.0023
3803.00,0.0023
3802.00,0.0023
3801.00,0.0022
3800.00,0.0022
3799.00,0.0022
3798.00,0.0022
3797.00,0.0021
3796.00,0.0021
3795.00,0.0021
3794.00,0.0021
3793.00,0.0021
3792.00,0.0020
3791.00,0.0020
3790.00,0.0020
3789.00,0.0020
3788.00,0.0020
3787.00,0.0020
3786.00,0.0020
3785.00,0.0020
3784.00,0.0020
3783.00,0.0021
3782.00,0.0021
3781.00,0.0021
3780.00,0.0020
3779.00,0.0020
3778.00,0.0020
3777.00,0.0020
3776.00,0.0020
3775.00,0.0020
3774.00,0.0021
3773.00,0.0021
3772.00,0.0021
3771.00,0.0021
3770.00,0.0021
3769.00,0.0021
3768.00,0.0021
3767.00,0.0021
3766.00,0.0021
3765.00,0.0021
3764.00,0.0022
3763.00,0.0022
3762.00,0.0022
3761.00,0.0022
3760.00,0.0022
3759.00,0.0022
3758.00,0.0022
3757.00,0.0022
3756.00,0.0022
3755.00,0.0023
3754.00,0.0023
3753.00,0.0024
3752.00,0.0024
3751.00,0.0024
3750.00,0.0023
3749.00,0.0024
3748.00,0.0024
3747.00,0.0024
3746.00,0.0024
3745.00,0.0024
3744.00,0.0023
3743.00,0.0023
3742.00,0.0023
3741.00,0.0022
3740.00,0.0022
3739.00,0.0021
3738.00,0.0021
3737.00,0.0021
3736.00,0.0022
3735.00,0.0022
3734.00,0.0022
3733.00,0.0022
3732.00,0.0021
3731.00,0.0021
3730.00,0.0021
3729.00,0.0020
3728.00,0.0020
3727.00,0.0020
3726.00,0.0020
3725.00,0.0020
3724.00,0.0020
3723.00,0.0020
3722.00,0.0020
3721.00,0.0020
3720.00,0.0020
3719.00,0.0020
3718.00,0.0020
3717.00,0.0020
3716.00,0.0020
3715.00,0.0021
3714.00,0.0021
3713.00,0.0021
3712.00,0.0021
3711.00,0.0021
3710.00,0.0021
3709.00,0.0021
3708.00,0.0021
3707.00,0.0020
3706.00,0.0020
3705.00,0.0020
3704.00,0.0019
3703.00,0.0019
3702.00,0.0019
3701.00,0.0019
3700.00,0.0019
3699.00,0.0019
3698.00,0.0019
3697.00,0.0019
3696.00,0.0019
3695.00,0.0019
3694.00,0.0019
3693.00,0.0019
3692.00,0.0020
3691.00,0.0021
3690.00,0.0021
3689.00,0.0021
3688.00,0.0021
3687.00,0.0021
3686.00,0.0021
3685.00,0.0021
3684.00,0.0021
3683.00,0.0021
3682.00,0.0021
3681.00,0.0021
3680.00,0.0021
3679.00,0.0022
3678.00,0.0023
3677.00,0.0023
3676.00,0.0023
3675.00,0.0023
3674.00,0.0023
3673.00,0.0023
3672.00,0.0023
3671.00,0.0023
3670.00,0.0022
3669.00,0.0022
3668.00,0.0022
3667.00,0.0022
3666.00,0.0021
3665.00,0.0021
3664.00,0.0021
3663.00,0.0020
3662.00,0.0020
3661.00,0.0020
3660.00,0.0021
3659.00,0.0021
3658.00,0.0021
3657.00,0.0022
3656.00,0.0022
3655.00,0.0022
3654.00,0.0023
3653.00,0.0023
3652.00,0.0024
3651.00,0.0024
3650.00,0.0025
3649.00,0.0025
3648.00,0.0025
3647.00,0.0025
3646.00,0.0025
3645.00,0.0025
3644.00,0.0025
3643.00,0.0024
3642.00,0.0024
3641.00,0.0023
3640.00,0.0023
3639.00,0.0023
3638.00,0.0023
3637.00,0.0023
3636.00,0.0024
3635.00,0.0024
3634.00,0.0025
3633.00,0.0026
3632.00,0.0027
3631.00,0.0028
3630.00,0.0028
3629.00,0.0029
3628.00,0.0029
3627.00,0.0029
3626.00,0.0029
3625.00,0.0029
3624.00,0.0029
3623.00,0.0029
3622.00,0.0030
3621.00,0.0030
3620.00,0.0030
3619.00,0.0030
3618.00,0.0030
3617.00,0.0030
3616.00,0.0031
3615.00,0.0031
3614.00,0.0031
3613.00,0.0031
3612.00,0.0032
3611.00,0.0032
3610.00,0.0032
3609.00,0.0033
3608.00,0.0033
3607.00,0.0033
3606.00,0.0033
3605.00,0.0034
3604.00,0.0034
3603.00,0.0034
3602.00,0.0034
3601.00,0.0034
3600.00,0.0034
3599.00,0.0034
3598.00,0.0034
3597.00,0.0034
3596.00,0.0035
3595.00,0.0035
3594.00,0.0036
3593.00,0.0036
3592.00,0.0037
3591.00,0.0038
3590.00,0.0038
3589.00,0.0039
3588.00,0.0039
3587.00,0.0040
3586.00,0.0040
3585.00,0.0041
3584.00,0.0041
3583.00,0.0041
3582.00,0.0041
3581.00,0.0041
3580.00,0.0041
3579.00,0.0042
3578.00,0.0042
3577.00,0.0042
3576.00,0.0042
3575.00,0.0043
3574.00,0.0043
3573.00,0.0044
3572.00,0.0045
3571.00,0.0046
3570.00,0.0047
3569.00,0.0048
3568.00,0.0048
3567.00,0.0049
3566.00,0.0050
3565.00,0.0050
3564.00,0.0051
3563.00,0.0051
3562.00,0.0051
3561.00,0.0051
3560.00,0.0051
3559.00,0.0052
3558.00,0.0053
3557.00,0.0053
3556.00,0.0054
3555.00,0.0054
3554.00,0.0054
3553.00,0.0055
3552.00,0.0055
3551.00,0.0056
3550.00,0.0057
3549.00,0.0057
3548.00,0.0058
3547.00,0.0059
3546.00,0.0060
3545.00,0.0060
3544.00,0.0061
3543.00,0.0061
3542.00,0.0062
3541.00,0.0062
3540.00,0.0062
3539.00,0.0063
3538.00,0.0064
3537.00,0.0065
3536.00,0.0065
3535.00,0.0066
3534.00,0.0067
3533.00,0.0068
3532.00,0.0069
3531.00,0.0070
3530.00,0.0071
3529.00,0.0071
3528.00,0.0072
3527.00,0.0073
3526.00,0.0074
3525.00,0.0074
3524.00,0.0075
3523.00,0.0076
3522.00,0.0077
3521.00,0.0078
3520.00,0.0079
3519.00,0.0079
3518.00,0.0080
3517.00,0.0081
3516.00,0.0082
3515.00,0.0083
3514.00,0.0084
3513.00,0.0085
3512.00,0.0086
3511.00,0.0087
3510.00,0.0088
3509.00,0.0089
3508.00,0.0090
3507.00,0.0091
3506.00,0.0092
3505.00,0.0093
3504.00,0.0094
3503.00,0.0094
3502.00,0.0095
3501.00,0.0096
3500.00,0.0097
3499.00,0.0098
3498.00,0.0099
3497.00,0.0100
3496.00,0.0101
3495.00,0.0102
3494.00,0.0103
3493.00,0.0105
3492.00,0.0106
3491.00,0.0107
3490.00,0.0108
3489.00,0.0109
3488.00,0.0110
3487.00,0.0111
3486.00,0.0112
3485.00,0.0113
3484.00,0.0115
3483.00,0.0116
3482.00,0.0117
3481.00,0.0118
3480.00,0.0120
3479.00,0.0121
3478.00,0.0122
3477.00,0.0123
3476.00,0.0124
3475.00,0.0125
3474.00,0.0126
3473.00,0.0128
3472.00,0.0129
3471.00,0.0130
3470.00,0.0131
3469.00,0.0133
3468.00,0.0134
3467.00,0.0135
3466.00,0.0136
3465.00,0.0138
3464.00,0.0139
3463.00,0.0140
3462.00,0.0142
3461.00,0.0143
3460.00,0.0144
3459.00,0.0145
3458.00,0.0147
3457.00,0.0148
3456.00,0.0149
3455.00,0.0150
3454.00,0.0152
3453.00,0.0153
3452.00,0.0154
3451.00,0.0155
3450.00,0.0157
3449.00,0.0158
3448.00,0.0160
3447.00,0.0161
3446.00,0.0163
3445.00,0.0164
3444.00,0.0165
3443.00,0.0167
3442.00,0.0168
3441.00,0.0170
3440.00,0.0171
3439.00,0.0173
3438.00,0.0175
3437.00,0.0176
3436.00,0.0178
3435.00,0.0179
3434.00,0.0181
3433.00,0.0182
3432.00,0.0184
3431.00,0.0185
3430.00,0.0187
3429.00,0.0188
3428.00,0.0190
3427.00,0.0191
3426.00,0.0193
3425.00,0.0195
3424.00,0.0196
3423.00,0.0198
3422.00,0.0200
3421.00,0.0202
3420.00,0.0204
3419.00,0.0205
3418.00,0.0207
3417.00,0.0209
3416.00,0.0211
3415.00,0.0212
3414.00,0.0214
3413.00,0.0216
3412.00,0.0218
3411.00,0.0220
3410.00,0.0222
3409.00,0.0224
3408.00,0.0226
3407.00,0.0228
3406.00,0.0230
3405.00,0.0232
3404.00,0.0234
3403.00,0.0236
3402.00,0.0237
3401.00,0.0239
3400.00,0.0241
3399.00,0.0244
3398.00,0.0246
3397.00,0.0248
3396.00,0.0250
3395.00,0.0253
3394.00,0.0255
3393.00,0.0257
3392.00,0.0259
3391.00,0.0261
3390.00,0.0263
3389.00,0.0266
3388.00,0.0268
3387.00,0.0270
3386.00,0.0273
3385.00,0.0275
3384.00,0.0277
3383.00,0.0279
3382.00,0.0281
3381.00,0.0283
3380.00,0.0286
3379.00,0.0288
3378.00,0.0290
3377.00,0.0292
3376.00,0.0295
3375.00,0.0297
3374.00,0.0299
3373.00,0.0301
3372.00,0.0302
3371.00,0.0303
3370.00,0.0304
3369.00,0.0306
3368.00,0.0309
3367.00,0.0312
3366.00,0.0315
3365.00,0.0317
3364.00,0.0320
3363.00,0.0322
3362.00,0.0324
3361.00,0.0326
3360.00,0.0328
3359.00,0.0330
3358.00,0.0332
3357.00,0.0334
3356.00,0.0336
3355.00,0.0338
3354.00,0.0340
3353.00,0.0341
3352.00,0.0342
3351.00,0.0344
3350.00,0.0346
3349.00,0.0348
3348.00,0.0351
3347.00,0.0353
3346.00,0.0354
3345.00,0.0356
3344.00,0.0358
3343.00,0.0359
3342.00,0.0360
3341.00,0.0361
3340.00,0.0363
3339.00,0.0364
3338.00,0.0366
3337.00,0.0368
3336.00,0.0370
3335.00,0.0372
3334.00,0.0374
3333.00,0.0376
3332.00,0.0378
3331.00,0.0380
3330.00,0.0381
3329.00,0.0382
3328.00,0.0383
3327.00,0.0384
3326.00,0.0384
3325.00,0.0386
3324.00,0.0388
3323.00,0.0390
3322.00,0.0392
3321.00,0.0393
3320.00,0.0395
3319.00,0.0396
3318.00,0.0397
3317.00,0.0399
3316.00,0.0400
3315.00,0.0401
3314.00,0.0402
3313.00,0.0403
3312.00,0.0404
3311.00,0.0404
3310.00,0.0404
3309.00,0.0403
3308.00,0.0403
3307.00,0.0403
3306.00,0.0404
3305.00,0.0406
3304.00,0.0409
3303.00,0.0411
3302.00,0.0413
3301.00,0.0415
3300.00,0.0416
3299.00,0.0416
3298.00,0.0416
3297.00,0.0416
3296.00,0.0416
3295.00,0.0416
3294.00,0.0417
3293.00,0.0417
3292.00,0.0418
3291.00,0.0419
3290.00,0.0421
3289.00,0.0422
3288.00,0.0424
3287.00,0.0424
3286.00,0.0425
3285.00,0.0425
3284.00,0.0425
3283.00,0.0425
3282.00,0.0425
3281.00,0.0425
3280.00,0.0426
3279.00,0.0426
3278.00,0.0426
3277.00,0.0426
3276.00,0.0426
3275.00,0.0425
3274.00,0.0425
3273.00,0.0425
3272.00,0.0425
3271.00,0.0425
3270.00,0.0425
3269.00,0.0426
3268.00,0.0427
3267.00,0.0427
3266.00,0.0428
3265.00,0.0428
3264.00,0.0428
3263.00,0.0428
3262.00,0.0427
3261.00,0.0427
3260.00,0.0427
3259.00,0.0427
3258.00,0.0427
3257.00,0.0427
3256.00,0.0426
3255.00,0.0427
3254.00,0.0427
3253.00,0.0427
3252.00,0.0427
3251.00,0.0427
3250.00,0.0427
3249.00,0.0426
3248.00,0.0426
3247.00,0.0425
3246.00,0.0425
3245.00,0.0425
3244.00,0.0425
3243.00,0.0425
3242.00,0.0425
3241.00,0.0425
3240.00,0.0425
3239.00,0.0425
3238.00,0.0424
3237.00,0.0423
3236.00,0.0423
3235.00,0.0422
3234.00,0.0421
3233.00,0.0421
3232.00,0.0420
3231.00,0.0420
3230.00,0.0419
3229.00,0.0419
3228.00,0.0419
3227.00,0.0418
3226.00,0.0417
3225.00,0.0417
3224.00,0.0416
3223.00,0.0416
3222.00,0.0415
3221.00,0.0415
3220.00,0.0414
3219.00,0.0414
3218.00,0.0414
3217.00,0.0414
3216.00,0.0414
3215.00,0.0414
3214.00,0.0414
3213.00,0.0413
3212.00,0.0413
3211.00,0.0413
3210.00,0.0413
3209.00,0.0413
3208.00,0.0413
3207.00,0.0413
3206.00,0.0413
3205.00,0.0412
3204.00,0.0411
3203.00,0.0410
3202.00,0.0410
3201.00,0.0409
3200.00,0.0408
3199.00,0.0407
3198.00,0.0407
3197.00,0.0406
3196.00,0.0405
3195.00,0.0404
3194.00,0.0403
3193.00,0.0403
3192.00,0.0402
3191.00,0.0400
3190.00,0.0399
3189.00,0.0398
3188.00,0.0397
3187.00,0.0396
3186.00,0.0394
3185.00,0.0393
3184.00,0.0392
3183.00,0.0390
3182.00,0.0389
3181.00,0.0387
3180.00,0.0386
3179.00,0.0385
3178.00,0.0383
3177.00,0.0382
3176.00,0.0380
3175.00,0.0379
3174.00,0.0377
3173.00,0.0375
3172.00,0.0374
3171.00,0.0372
3170.00,0.0371
3169.00,0.0369
3168.00,0.0367
3167.00,0.0366
3166.00,0.0364
3165.00,0.0362
3164.00,0.0361
3163.00,0.0359
3162.00,0.0357
3161.00,0.0355
3160.00,0.0354
3159.00,0.0352
3158.00,0.0350
3157.00,0.0349
3156.00,0.0347
3155.00,0.0345
3154.00,0.0343
3153.00,0.0342
3152.00,0.0340
3151.00,0.0338
3150.00,0.0337
3149.00,0.0335
3148.00,0.0333
3147.00,0.0332
3146.00,0.0330
3145.00,0.0328
3144.00,0.0327
3143.00,0.0325
3142.00,0.0324
3141.00,0.0323
3140.00,0.0322
3139.00,0.0321
3138.00,0.0319
3137.00,0.0318
3136.00,0.0317
3135.00,0.0316
3134.00,0.0315
3133.00,0.0314
3132.00,0.0313
3131.00,0.0311
3130.00,0.0310
3129.00,0.0308
3128.00,0.0307
3127.00,0.0305
3126.00,0.0304
3125.00,0.0302
3124.00,0.0300
3123.00,0.0299
3122.00,0.0297
3121.00,0.0296
3120.00,0.0294
3119.00,0.0293
3118.00,0.0291
3117.00,0.0289
3116.00,0.0288
3115.00,0.0286
3114.00,0.0284
3113.00,0.0282
3112.00,0.0280
3111.00,0.0278
3110.00,0.0276
3109.00,0.0274
3108.00,0.0272
3107.00,0.0270
3106.00,0.0268
3105.00,0.0267
3104.00,0.0265
3103.00,0.0263
3102.00,0.0261
3101.00,0.0259
3100.00,0.0257
3099.00,0.0256
3098.00,0.0254
3097.00,0.0252
3096.00,0.0250
3095.00,0.0248
3094.00,0.0247
3093.00,0.0245
3092.00,0.0244
3091.00,0.0242
3090.00,0.0241
3089.00,0.0239
3088.00,0.0238
3087.00,0.0236
3086.00,0.0235
3085.00,0.0233
3084.00,0.0232
3083.00,0.0231
3082.00,0.0229
3081.00,0.0228
3080.00,0.0226
3079.00,0.0225
3078.00,0.0224
3077.00,0.0222
3076.00,0.0221
3075.00,0.0220
3074.00,0.0219
3073.00,0.0218
3072.00,0.0217
3071.00,0.0216
3070.00,0.0215
3069.00,0.0214
3068.00,0.0214
3067.00,0.0213
3066.00,0.0212
3065.00,0.0211
3064.00,0.0211
3063.00,0.0210
3062.00,0.0209
3061.00,0.0209
3060.00,0.0208
3059.00,0.0208
3058.00,0.0207
3057.00,0.0207
3056.00,0.0206
3055.00,0.0206
3054.00,0.0205
3053.00,0.0205
3052.00,0.0204
3051.00,0.0203
3050.00,0.0203
3049.00,0.0202
3048.00,0.0201
3047.00,0.0200
3046.00,0.0199
3045.00,0.0198
3044.00,0.0197
3043.00,0.0196
3042.00,0.0196
3041.00,0.0195
3040.00,0.0195
3039.00,0.0195
3038.00,0.0194
3037.00,0.0194
3036.00,0.0194
3035.00,0.0194
3034.00,0.0194
3033.00,0.0194
3032.00,0.0194
3031.00,0.0195
3030.00,0.0195
3029.00,0.0195
3028.00,0.0195
3027.00,0.0195
3026.00,0.0195
3025.00,0.0194
3024.00,0.0194
3023.00,0.0193
3022.00,0.0193
3021.00,0.0192
3020.00,0.0192
3019.00,0.0192
3018.00,0.0192
3017.00,0.0192
3016.00,0.0193
3015.00,0.0193
3014.00,0.0194
3013.00,0.0195
3012.00,0.0197
3011.00,0.0198
3010.00,0.0200
3009.00,0.0201
3008.00,0.0204
3007.00,0.0206
3006.00,0.0209
3005.00,0.0212
3004.00,0.0216
3003.00,0.0219
3002.00,0.0224
3001.00,0.0229
3000.00,0.0234
2999.00,0.0240
2998.00,0.0246
2997.00,0.0253
2996.00,0.0260
2995.00,0.0268
2994.00,0.0275
2993.00,0.0284
2992.00,0.0293
2991.00,0.0302
2990.00,0.0311
2989.00,0.0320
2988.00,0.0330
2987.00,0.0339
2986.00,0.0348
2985.00,0.0356
2984.00,0.0364
2983.00,0.0372
2982.00,0.0380
2981.00,0.0389
2980.00,0.0398
2979.00,0.0408
2978.00,0.0418
2977.00,0.0429
2976.00,0.0440
2975.00,0.0450
2974.00,0.0462
2973.00,0.0473
2972.00,0.0485
2971.00,0.0498
2970.00,0.0511
2969.00,0.0524
2968.00,0.0536
2967.00,0.0548
2966.00,0.0560
2965.00,0.0571
2964.00,0.0580
2963.00,0.0589
2962.00,0.0597
2961.00,0.0603
2960.00,0.0608
2959.00,0.0611
2958.00,0.0613
2957.00,0.0614
2956.00,0.0613
2955.00,0.0611
2954.00,0.0607
2953.00,0.0602
2952.00,0.0595
2951.00,0.0588
2950.00,0.0582
2949.00,0.0575
2948.00,0.0570
2947.00,0.0567
2946.00,0.0565
2945.00,0.0566
2944.00,0.0570
2943.00,0.0576
2942.00,0.0585
2941.00,0.0595
2940.00,0.0608
2939.00,0.0623
2938.00,0.0640
2937.00,0.0657
2936.00,0.0676
2935.00,0.0695
2934.00,0.0714
2933.00,0.0732
2932.00,0.0750
2931.00,0.0766
2930.00,0.0780
2929.00,0.0793
2928.00,0.0803
2927.00,0.0811
2926.00,0.0818
2925.00,0.0822
2924.00,0.0824
2923.00,0.0824
2922.00,0.0823
2921.00,0.0821
2920.00,0.0817
2919.00,0.0811
2918.00,0.0805
2917.00,0.0797
2916.00,0.0787
2915.00,0.0777
2914.00,0.0765
2913.00,0.0752
2912.00,0.0738
2911.00,0.0724
2910.00,0.0709
2909.00,0.0695
2908.00,0.0680
2907.00,0.0666
2906.00,0.0652
2905.00,0.0640
2904.00,0.0628
2903.00,0.0617
2902.00,0.0607
2901.00,0.0598
2900.00,0.0590
2899.00,0.0582
2898.00,0.0575
2897.00,0.0569
2896.00,0.0563
2895.00,0.0557
2894.00,0.0552
2893.00,0.0547
2892.00,0.0542
2891.00,0.0536
2890.00,0.0531
2889.00,0.0526
2888.00,0.0521
2887.00,0.0516
2886.00,0.0512
2885.00,0.0508
2884.00,0.0504
2883.00,0.0501
2882.00,0.0499
2881.00,0.0498
2880.00,0.0498
2879.00,0.0498
2878.00,0.0500
2877.00,0.0502
2876.00,0.0504
2875.00,0.0508
2874.00,0.0511
2873.00,0.0514
2872.00,0.0517
2871.00,0.0518
2870.00,0.0518
2869.00,0.0517
2868.00,0.0515
2867.00,0.0514
2866.00,0.0515
2865.00,0.0517
2864.00,0.0521
2863.00,0.0528
2862.00,0.0535
2861.00,0.0543
2860.00,0.0552
2859.00,0.0560
2858.00,0.0566
2857.00,0.0569
2856.00,0.0570
2855.00,0.0567
2854.00,0.0561
2853.00,0.0552
2852.00,0.0540
2851.00,0.0526
2850.00,0.0510
2849.00,0.0494
2848.00,0.0476
2847.00,0.0458
2846.00,0.0441
2845.00,0.0424
2844.00,0.0407
2843.00,0.0391
2842.00,0.0375
2841.00,0.0360
2840.00,0.0346
2839.00,0.0333
2838.00,0.0322
2837.00,0.0312
2836.00,0.0302
2835.00,0.0293
2834.00,0.0285
2833.00,0.0277
2832.00,0.0270
2831.00,0.0262
2830.00,0.0255
2829.00,0.0248
2828.00,0.0242
2827.00,0.0235
2826.00,0.0228
2825.00,0.0221
2824.00,0.0214
2823.00,0.0208
2822.00,0.0201
2821.00,0.0195
2820.00,0.0190
2819.00,0.0184
2818.00,0.0179
2817.00,0.0174
2816.00,0.0170
2815.00,0.0166
2814.00,0.0163
2813.00,0.0159
2812.00,0.0156
2811.00,0.0154
2810.00,0.0151
2809.00,0.0149
2808.00,0.0146
2807.00,0.0144
2806.00,0.0142
2805.00,0.0140
2804.00,0.0138
2803.00,0.0136
2802.00,0.0134
2801.00,0.0132
2800.00,0.0131
2799.00,0.0129
2798.00,0.0128
2797.00,0.0127
2796.00,0.0126
2795.00,0.0125
2794.00,0.0124
2793.00,0.0122
2792.00,0.0121
2791.00,0.0120
2790.00,0.0119
2789.00,0.0119
2788.00,0.0118
2787.00,0.0117
2786.00,0.0117
2785.00,0.0116
2784.00,0.0115
2783.00,0.0115
2782.00,0.0114
2781.00,0.0114
2780.00,0.0113
2779.00,0.0112
2778.00,0.0111
2777.00,0.0111
2776.00,0.0110
2775.00,0.0109
2774.00,0.0109
2773.00,0.0109
2772.00,0.0108
2771.00,0.0108
2770.00,0.0107
2769.00,0.0107
2768.00,0.0106
2767.00,0.0106
2766.00,0.0106
2765.00,0.0106
2764.00,0.0106
2763.00,0.0105
2762.00,0.0105
2761.00,0.0105
2760.00,0.0105
2759.00,0.0105
2758.00,0.0105
2757.00,0.0105
2756.00,0.0105
2755.00,0.0105
2754.00,0.0105
2753.00,0.0105
2752.00,0.0106
2751.00,0.0106
2750.00,0.0106
2749.00,0.0106
2748.00,0.0106
2747.00,0.0106
2746.00,0.0107
2745.00,0.0107
2744.00,0.0108
2743.00,0.0108
2742.00,0.0109
2741.00,0.0109
2740.00,0.0109
2739.00,0.0110
2738.00,0.0110
2737.00,0.0111
2736.00,0.0111
2735.00,0.0112
2734.00,0.0112
2733.00,0.0113
2732.00,0.0113
2731.00,0.0113
2730.00,0.0113
2729.00,0.0113
2728.00,0.0113
2727.00,0.0113
2726.00,0.0113
2725.00,0.0113
2724.00,0.0112
2723.00,0.0112
2722.00,0.0112
2721.00,0.0112
2720.00,0.0111
2719.00,0.0111
2718.00,0.0111
2717.00,0.0110
2716.00,0.0110
2715.00,0.0109
2714.00,0.0109
2713.00,0.0108
2712.00,0.0108
2711.00,0.0108
2710.00,0.0107
2709.00,0.0107
2708.00,0.0107
2707.00,0.0106
2706.00,0.0106
2705.00,0.0106
2704.00,0.0105
2703.00,0.0105
2702.00,0.0105
2701.00,0.0104
2700.00,0.0104
2699.00,0.0104
2698.00,0.0104
2697.00,0.0103
2696.00,0.0103
2695.00,0.0103
2694.00,0.0103
2693.00,0.0103
2692.00,0.0103
2691.00,0.0103
2690.00,0.0102
2689.00,0.0102
2688.00,0.0102
2687.00,0.0102
2686.00,0.0101
2685.00,0.0101
2684.00,0.0101
2683.00,0.0100
2682.00,0.0100
2681.00,0.0100
2680.00,0.0099
2679.00,0.0099
2678.00,0.0099
2677.00,0.0099
2676.00,0.0099
2675.00,0.0099
2674.00,0.0098
2673.00,0.0098
2672.00,0.0098
2671.00,0.0098
2670.00,0.0098
2669.00,0.0098
2668.00,0.0098
2667.00,0.0098
2666.00,0.0098
2665.00,0.0098
2664.00,0.0098
2663.00,0.0098
2662.00,0.0098
2661.00,0.0098
2660.00,0.0098
2659.00,0.0098
2658.00,0.0098
2657.00,0.0097
2656.00,0.0097
2655.00,0.0097
2654.00,0.0096
2653.00,0.0096
2652.00,0.0095
2651.00,0.0095
2650.00,0.0094
2649.00,0.0093
2648.00,0.0093
2647.00,0.0092
2646.00,0.0092
2645.00,0.0091
2644.00,0.0090
2643.00,0.0090
2642.00,0.0089
2641.00,0.0089
2640.00,0.0088
2639.00,0.0088
2638.00,0.0087
2637.00,0.0086
2636.00,0.0086
2635.00,0.0085
2634.00,0.0085
2633.00,0.0084
2632.00,0.0084
2631.00,0.0083
2630.00,0.0083
2629.00,0.0082
2628.00,0.0082
2627.00,0.0081
2626.00,0.0081
2625.00,0.0081
2624.00,0.0080
2623.00,0.0080
2622.00,0.0079
2621.00,0.0079
2620.00,0.0078
2619.00,0.0078
2618.00,0.0078
2617.00,0.0077
2616.00,0.0077
2615.00,0.0076
2614.00,0.0076
2613.00,0.0075
2612.00,0.0075
2611.00,0.0075
2610.00,0.0074
2609.00,0.0074
2608.00,0.0073
2607.00,0.0073
2606.00,0.0073
2605.00,0.0072
2604.00,0.0072
2603.00,0.0072
2602.00,0.0072
2601.00,0.0072
2600.00,0.0072
2599.00,0.0072
2598.00,0.0072
2597.00,0.0072
2596.00,0.0072
2595.00,0.0072
2594.00,0.0072
2593.00,0.0072
2592.00,0.0071
2591.00,0.0071
2590.00,0.0071
2589.00,0.0071
2588.00,0.0071
2587.00,0.0072
2586.00,0.0072
2585.00,0.0072
2584.00,0.0072
2583.00,0.0072
2582.00,0.0071
2581.00,0.0070
2580.00,0.0069
2579.00,0.0069
2578.00,0.0068
2577.00,0.0068
2576.00,0.0068
2575.00,0.0068
2574.00,0.0067
2573.00,0.0067
2572.00,0.0067
2571.00,0.0067
2570.00,0.0067
2569.00,0.0066
2568.00,0.0066
2567.00,0.0065
2566.00,0.0065
2565.00,0.0065
2564.00,0.0064
2563.00,0.0064
2562.00,0.0063
2561.00,0.0063
2560.00,0.0063
2559.00,0.0063
2558.00,0.0062
2557.00,0.0062
2556.00,0.0061
2555.00,0.0061
2554.00,0.0060
2553.00,0.0060
2552.00,0.0060
2551.00,0.0059
2550.00,0.0059
2549.00,0.0058
2548.00,0.0058
2547.00,0.0058
2546.00,0.0058
2545.00,0.0058
2544.00,0.0058
2543.00,0.0058
2542.00,0.0058
2541.00,0.0058
2540.00,0.0057
2539.00,0.0057
2538.00,0.0057
2537.00,0.0057
2536.00,0.0057
2535.00,0.0057
2534.00,0.0057
2533.00,0.0057
2532.00,0.0057
2531.00,0.0056
2530.00,0.0056
2529.00,0.0056
2528.00,0.0056
2527.00,0.0056
2526.00,0.0056
2525.00,0.0055
2524.00,0.0055
2523.00,0.0055
2522.00,0.0054
2521.00,0.0054
2520.00,0.0054
2519.00,0.0054
2518.00,0.0053
2517.00,0.0053
2516.00,0.0053
2515.00,0.0053
2514.00,0.0053
2513.00,0.0053
2512.00,0.0052
2511.00,0.0052
2510.00,0.0052
2509.00,0.0051
2508.00,0.0051
2507.00,0.0050
2506.00,0.0050
2505.00,0.0050
2504.00,0.0050
2503.00,0.0050
2502.00,0.0050
2501.00,0.0049
2500.00,0.0049
2499.00,0.0049
2498.00,0.0049
2497.00,0.0049
2496.00,0.0049
2495.00,0.0048
2494.00,0.0048
2493.00,0.0048
2492.00,0.0047
2491.00,0.0047
2490.00,0.0047
2489.00,0.0047
2488.00,0.0047
2487.00,0.0047
2486.00,0.0047
2485.00,0.0046
2484.00,0.0046
2483.00,0.0046
2482.00,0.0046
2481.00,0.0045
2480.00,0.0045
2479.00,0.0045
2478.00,0.0045
2477.00,0.0045
2476.00,0.0045
2475.00,0.0045
2474.00,0.0044
2473.00,0.0044
2472.00,0.0044
2471.00,0.0044
2470.00,0.0043
2469.00,0.0043
2468.00,0.0043
2467.00,0.0043
2466.00,0.0043
2465.00,0.0043
2464.00,0.0043
2463.00,0.0043
2462.00,0.0043
2461.00,0.0043
2460.00,0.0043
2459.00,0.0043
2458.00,0.0043
2457.00,0.0043
2456.00,0.0043
2455.00,0.0043
2454.00,0.0043
2453.00,0.0043
2452.00,0.0043
2451.00,0.0043
2450.00,0.0042
2449.00,0.0042
2448.00,0.0042
2447.00,0.0042
2446.00,0.0042
2445.00,0.0042
2444.00,0.0041
2443.00,0.0041
2442.00,0.0041
2441.00,0.0040
2440.00,0.0040
2439.00,0.0040
2438.00,0.0040
2437.00,0.0040
2436.00,0.0040
2435.00,0.0040
2434.00,0.0039
2433.00,0.0039
2432.00,0.0039
2431.00,0.0039
2430.00,0.0039
2429.00,0.0038
2428.00,0.0038
2427.00,0.0038
2426.00,0.0038
2425.00,0.0038
2424.00,0.0038
2423.00,0.0038
2422.00,0.0038
2421.00,0.0038
2420.00,0.0038
2419.00,0.0038
2418.00,0.0038
2417.00,0.0038
2416.00,0.0038
2415.00,0.0039
2414.00,0.0039
2413.00,0.0039
2412.00,0.0039
2411.00,0.0039
2410.00,0.0039
2409.00,0.0039
2408.00,0.0038
2407.00,0.0038
2406.00,0.0038
2405.00,0.0038
2404.00,0.0038
2403.00,0.0038
2402.00,0.0038
2401.00,0.0038
2400.00,0.0038
2399.00,0.0038
2398.00,0.0038
2397.00,0.0038
2396.00,0.0038
2395.00,0.0038
2394.00,0.0038
2393.00,0.0038
2392.00,0.0037
2391.00,0.0037
2390.00,0.0037
2389.00,0.0037
2388.00,0.0037
2387.00,0.0036
2386.00,0.0036
2385.00,0.0035
2384.00,0.0035
2383.00,0.0034
2382.00,0.0034
2381.00,0.0033
2380.00,0.0033
2379.00,0.0032
2378.00,0.0032
2377.00,0.0032
2376.00,0.0032
2375.00,0.0032
2374.00,0.0032
2373.00,0.0032
2372.00,0.0032
2371.00,0.0031
2370.00,0.0030
2369.00,0.0030
2368.00,0.0030
2367.00,0.0030
2366.00,0.0031
2365.00,0.0031
2364.00,0.0031
2363.00,0.0032
2362.00,0.0032
2361.00,0.0032
2360.00,0.0031
2359.00,0.0031
2358.00,0.0031
2357.00,0.0031
2356.00,0.0031
2355.00,0.0032
2354.00,0.0032
2353.00,0.0031
2352.00,0.0031
2351.00,0.0031
2350.00,0.0032
2349.00,0.0032
2348.00,0.0032
2347.00,0.0032
2346.00,0.0033
2345.00,0.0034
2344.00,0.0034
2343.00,0.0034
2342.00,0.0033
2341.00,0.0033
2340.00,0.0033
2339.00,0.0033
2338.00,0.0034
2337.00,0.0034
2336.00,0.0034
2335.00,0.0034
2334.00,0.0034
2333.00,0.0034
2332.00,0.0034
2331.00,0.0033
2330.00,0.0034
2329.00,0.0035
2328.00,0.0037
2327.00,0.0040
2326.00,0.0042
2325.00,0.0043
2324.00,0.0043
2323.00,0.0041
2322.00,0.0039
2321.00,0.0038
2320.00,0.0037
2319.00,0.0037
2318.00,0.0036
2317.00,0.0036
2316.00,0.0035
2315.00,0.0035
2314.00,0.0034
2313.00,0.0034
2312.00,0.0034
2311.00,0.0033
2310.00,0.0033
2309.00,0.0033
2308.00,0.0033
2307.00,0.0033
2306.00,0.0033
2305.00,0.0033
2304.00,0.0033
2303.00,0.0033
2302.00,0.0033
2301.00,0.0033
2300.00,0.0034
2299.00,0.0034
2298.00,0.0035
2297.00,0.0035
2296.00,0.0035
2295.00,0.0036
2294.00,0.0036
2293.00,0.0037
2292.00,0.0037
2291.00,0.0038
2290.00,0.0038
2289.00,0.0038
2288.00,0.0039
2287.00,0.0039
2286.00,0.0038
2285.00,0.0038
2284.00,0.0037
2283.00,0.0037
2282.00,0.0037
2281.00,0.0037
2280.00,0.0036
2279.00,0.0036
2278.00,0.0034
2277.00,0.0034
2276.00,0.0033
2275.00,0.0034
2274.00,0.0034
2273.00,0.0034
2272.00,0.0034
2271.00,0.0034
2270.00,0.0033
2269.00,0.0033
2268.00,0.0033
2267.00,0.0032
2266.00,0.0031
2265.00,0.0031
2264.00,0.0030
2263.00,0.0031
2262.00,0.0031
2261.00,0.0032
2260.00,0.0032
2259.00,0.0032
2258.00,0.0032
2257.00,0.0031
2256.00,0.0031
2255.00,0.0030
2254.00,0.0030
2253.00,0.0030
2252.00,0.0030
2251.00,0.0031
2250.00,0.0031
2249.00,0.0032
2248.00,0.0032
2247.00,0.0031
2246.00,0.0031
2245.00,0.0030
2244.00,0.0029
2243.00,0.0029
2242.00,0.0029
2241.00,0.0030
2240.00,0.0030
2239.00,0.0030
2238.00,0.0030
2237.00,0.0030
2236.00,0.0031
2235.00,0.0031
2234.00,0.0030
2233.00,0.0030
2232.00,0.0030
2231.00,0.0029
2230.00,0.0028
2229.00,0.0029
2228.00,0.0029
2227.00,0.0030
2226.00,0.0030
2225.00,0.0030
2224.00,0.0030
2223.00,0.0031
2222.00,0.0031
2221.00,0.0031
2220.00,0.0032
2219.00,0.0032
2218.00,0.0032
2217.00,0.0031
2216.00,0.0031
2215.00,0.0030
2214.00,0.0029
2213.00,0.0028
2212.00,0.0029
2211.00,0.0031
2210.00,0.0033
2209.00,0.0033
2208.00,0.0033
2207.00,0.0032
2206.00,0.0031
2205.00,0.0031
2204.00,0.0031
2203.00,0.0032
2202.00,0.0031
2201.00,0.0030
2200.00,0.0029
2199.00,0.0029
2198.00,0.0029
2197.00,0.0029
2196.00,0.0030
2195.00,0.0030
2194.00,0.0030
2193.00,0.0030
2192.00,0.0031
2191.00,0.0032
2190.00,0.0032
2189.00,0.0033
2188.00,0.0033
2187.00,0.0032
2186.00,0.0031
2185.00,0.0030
2184.00,0.0030
2183.00,0.0029
2182.00,0.0028
2181.00,0.0026
2180.00,0.0025
2179.00,0.0023
2178.00,0.0021
2177.00,0.0020
2176.00,0.0019
2175.00,0.0020
2174.00,0.0021
2173.00,0.0024
2172.00,0.0027
2171.00,0.0029
2170.00,0.0030
2169.00,0.0030
2168.00,0.0031
2167.00,0.0032
2166.00,0.0034
2165.00,0.0037
2164.00,0.0040
2163.00,0.0041
2162.00,0.0037
2161.00,0.0027
2160.00,0.0013
2159.00,0.0001
2158.00,-0.0006
2157.00,-0.0005
2156.00,-0.0001
2155.00,0.0002
2154.00,0.0004
2153.00,0.0005
2152.00,0.0007
2151.00,0.0009
2150.00,0.0010
2149.00,0.0011
2148.00,0.0012
2147.00,0.0012
2146.00,0.0011
2145.00,0.0012
2144.00,0.0014
2143.00,0.0015
2142.00,0.0015
2141.00,0.0015
2140.00,0.0014
2139.00,0.0014
2138.00,0.0013
2137.00,0.0012
2136.00,0.0010
2135.00,0.0007
2134.00,0.0006
2133.00,0.0006
2132.00,0.0009
2131.00,0.0011
2130.00,0.0013
2129.00,0.0015
2128.00,0.0016
2127.00,0.0017
2126.00,0.0017
2125.00,0.0018
2124.00,0.0019
2123.00,0.0020
2122.00,0.0020
2121.00,0.0021
2120.00,0.0021
2119.00,0.0022
2118.00,0.0023
2117.00,0.0024
2116.00,0.0025
2115.00,0.0025
2114.00,0.0025
2113.00,0.0025
2112.00,0.0024
2111.00,0.0024
2110.00,0.0023
2109.00,0.0024
2108.00,0.0024
2107.00,0.0023
2106.00,0.0023
2105.00,0.0022
2104.00,0.0022
2103.00,0.0021
2102.00,0.0020
2101.00,0.0020
2100.00,0.0020
2099.00,0.0020
2098.00,0.0020
2097.00,0.0018
2096.00,0.0017
2095.00,0.0016
2094.00,0.0015
2093.00,0.0016
2092.00,0.0018
2091.00,0.0019
2090.00,0.0019
2089.00,0.0020
2088.00,0.0020
2087.00,0.0021
2086.00,0.0021
2085.00,0.0022
2084.00,0.0022
2083.00,0.0023
2082.00,0.0022
2081.00,0.0022
2080.00,0.0022
2079.00,0.0021
2078.00,0.0021
2077.00,0.0021
2076.00,0.0022
2075.00,0.0022
2074.00,0.0022
2073.00,0.0022
2072.00,0.0022
2071.00,0.0023
2070.00,0.0023
2069.00,0.0023
2068.00,0.0023
2067.00,0.0022
2066.00,0.0021
2065.00,0.0020
2064.00,0.0020
2063.00,0.0020
2062.00,0.0020
2061.00,0.0021
2060.00,0.0022
2059.00,0.0023
2058.00,0.0024
2057.00,0.0024
2056.00,0.0025
2055.00,0.0025
2054.00,0.0025
2053.00,0.0027
2052.00,0.0030
2051.00,0.0030
2050.00,0.0029
2049.00,0.0026
2048.00,0.0024
2047.00,0.0023
2046.00,0.0021
2045.00,0.0020
2044.00,0.0020
2043.00,0.0019
2042.00,0.0019
2041.00,0.0019
2040.00,0.0019
2039.00,0.0019
2038.00,0.0019
2037.00,0.0018
2036.00,0.0018
2035.00,0.0017
2034.00,0.0014
2033.00,0.0012
2032.00,0.0012
2031.00,0.0014
2030.00,0.0015
2029.00,0.0017
2028.00,0.0019
2027.00,0.0019
2026.00,0.0019
2025.00,0.0019
2024.00,0.0019
2023.00,0.0018
2022.00,0.0016
2021.00,0.0014
2020.00,0.0014
2019.00,0.0013
2018.00,0.0013
2017.00,0.0013
2016.00,0.0015
2015.00,0.0017
2014.00,0.0018
2013.00,0.0019
2012.00,0.0019
2011.00,0.0018
2010.00,0.0017
2009.00,0.0016
2008.00,0.0015
2007.00,0.0014
2006.00,0.0012
2005.00,0.0012
2004.00,0.0013
2003.00,0.0014
2002.00,0.0015
2001.00,0.0015
2000.00,0.0016
1999.00,0.0016
1998.00,0.0016
1997.00,0.0016
1996.00,0.0016
1995.00,0.0016
1994.00,0.0016
1993.00,0.0017
1992.00,0.0019
1991.00,0.0021
1990.00,0.0022
1989.00,0.0022
1988.00,0.0022
1987.00,0.0021
1986.00,0.0020
1985.00,0.0020
1984.00,0.0023
1983.00,0.0026
1982.00,0.0028
1981.00,0.0029
1980.00,0.0028
1979.00,0.0024
1978.00,0.0019
1977.00,0.0015
1976.00,0.0013
1975.00,0.0012
1974.00,0.0011
1973.00,0.0011
1972.00,0.0012
1971.00,0.0012
1970.00,0.0011
1969.00,0.0011
1968.00,0.0012
1967.00,0.0013
1966.00,0.0014
1965.00,0.0015
1964.00,0.0015
1963.00,0.0015
1962.00,0.0013
1961.00,0.0012
1960.00,0.0012
1959.00,0.0012
1958.00,0.0011
1957.00,0.0013
1956.00,0.0014
1955.00,0.0015
1954.00,0.0015
1953.00,0.0016
1952.00,0.0017
1951.00,0.0017
1950.00,0.0016
1949.00,0.0016
1948.00,0.0018
1947.00,0.0019
1946.00,0.0019
1945.00,0.0020
1944.00,0.0020
1943.00,0.0019
1942.00,0.0019
1941.00,0.0019
1940.00,0.0019
1939.00,0.0019
1938.00,0.0018
1937.00,0.0017
1936.00,0.0018
1935.00,0.0018
1934.00,0.0018
1933.00,0.0019
1932.00,0.0019
1931.00,0.0019
1930.00,0.0018
1929.00,0.0019
1928.00,0.0019
1927.00,0.0020
1926.00,0.0020
1925.00,0.0020
1924.00,0.0019
1923.00,0.0020
1922.00,0.0020
1921.00,0.0020
1920.00,0.0021
1919.00,0.0020
1918.00,0.0019
1917.00,0.0019
1916.00,0.0019
1915.00,0.0019
1914.00,0.0020
1913.00,0.0021
1912.00,0.0023
1911.00,0.0024
1910.00,0.0024
1909.00,0.0024
1908.00,0.0024
1907.00,0.0024
1906.00,0.0024
1905.00,0.0024
1904.00,0.0025
1903.00,0.0024
1902.00,0.0023
1901.00,0.0023
1900.00,0.0023
1899.00,0.0023
1898.00,0.0023
1897.00,0.0023
1896.00,0.0024
1895.00,0.0024
1894.00,0.0024
1893.00,0.0024
1892.00,0.0025
1891.00,0.0025
1890.00,0.0024
1889.00,0.0023
1888.00,0.0024
1887.00,0.0024
1886.00,0.0024
1885.00,0.0025
1884.00,0.0026
1883.00,0.0026
1882.00,0.0025
1881.00,0.0025
1880.00,0.0025
1879.00,0.0025
1878.00,0.0025
1877.00,0.0025
1876.00,0.0026
1875.00,0.0026
1874.00,0.0026
1873.00,0.0026
1872.00,0.0026
1871.00,0.0025
1870.00,0.0025
1869.00,0.0025
1868.00,0.0025
1867.00,0.0025
1866.00,0.0025
1865.00,0.0024
1864.00,0.0025
1863.00,0.0026
1862.00,0.0026
1861.00,0.0027
1860.00,0.0027
1859.00,0.0028
1858.00,0.0027
1857.00,0.0027
1856.00,0.0028
1855.00,0.0028
1854.00,0.0028
1853.00,0.0028
1852.00,0.0029
1851.00,0.0029
1850.00,0.0028
1849.00,0.0028
1848.00,0.0029
1847.00,0.0029
1846.00,0.0028
1845.00,0.0027
1844.00,0.0027
1843.00,0.0027
1842.00,0.0026
1841.00,0.0026
1840.00,0.0027
1839.00,0.0028
1838.00,0.0029
1837.00,0.0029
1836.00,0.0030
1835.00,0.0030
1834.00,0.0030
1833.00,0.0030
1832.00,0.0030
1831.00,0.0029
1830.00,0.0028
1829.00,0.0028
1828.00,0.0028
1827.00,0.0028
1826.00,0.0028
1825.00,0.0029
1824.00,0.0029
1823.00,0.0030
1822.00,0.0030
1821.00,0.0030
1820.00,0.0030
1819.00,0.0030
1818.00,0.0029
1817.00,0.0029
1816.00,0.0029
1815.00,0.0030
1814.00,0.0030
1813.00,0.0030
1812.00,0.0031
1811.00,0.0031
1810.00,0.0031
1809.00,0.0031
1808.00,0.0032
1807.00,0.0033
1806.00,0.0033
1805.00,0.0033
1804.00,0.0033
1803.00,0.0033
1802.00,0.0033
1801.00,0.0033
1800.00,0.0033
1799.00,0.0033
1798.00,0.0032
1797.00,0.0033
1796.00,0.0033
1795.00,0.0034
1794.00,0.0033
1793.00,0.0033
1792.00,0.0033
1791.00,0.0033
1790.00,0.0033
1789.00,0.0034
1788.00,0.0035
1787.00,0.0036
1786.00,0.0036
1785.00,0.0037
1784.00,0.0037
1783.00,0.0038
1782.00,0.0037
1781.00,0.0037
1780.00,0.0038
1779.00,0.0039
1778.00,0.0039
1777.00,0.0039
1776.00,0.0040
1775.00,0.0040
1774.00,0.0040
1773.00,0.0040
1772.00,0.0041
1771.00,0.0041
1770.00,0.0040
1769.00,0.0040
1768.00,0.0042
1767.00,0.0043
1766.00,0.0044
1765.00,0.0044
1764.00,0.0045
1763.00,0.0046
1762.00,0.0046
1761.00,0.0046
1760.00,0.0047
1759.00,0.0048
1758.00,0.0048
1757.00,0.0049
1756.00,0.0050
1755.00,0.0051
1754.00,0.0051
1753.00,0.0051
1752.00,0.0052
1751.00,0.0052
1750.00,0.0052
1749.00,0.0052
1748.00,0.0053
1747.00,0.0054
1746.00,0.0055
1745.00,0.0056
1744.00,0.0058
1743.00,0.0059
1742.00,0.0059
1741.00,0.0060
1740.00,0.0061
1739.00,0.0063
1738.00,0.0064
1737.00,0.0064
1736.00,0.0066
1735.00,0.0067
1734.00,0.0068
1733.00,0.0069
1732.00,0.0071
1731.00,0.0073
1730.00,0.0075
1729.00,0.0079
1728.00,0.0082
1727.00,0.0085
1726.00,0.0088
1725.00,0.0090
1724.00,0.0094
1723.00,0.0097
1722.00,0.0099
1721.00,0.0101
1720.00,0.0104
1719.00,0.0106
1718.00,0.0108
1717.00,0.0111
1716.00,0.0115
1715.00,0.0120
1714.00,0.0125
1713.00,0.0132
1712.00,0.0141
1711.00,0.0150
1710.00,0.0158
1709.00,0.0168
1708.00,0.0179
1707.00,0.0191
1706.00,0.0205
1705.00,0.0221
1704.00,0.0240
1703.00,0.0258
1702.00,0.0278
1701.00,0.0309
1700.00,0.0351
1699.00,0.0392
1698.00,0.0429
1697.00,0.0473
1696.00,0.0533
1695.00,0.0601
1694.00,0.0664
1693.00,0.0722
1692.00,0.0782
1691.00,0.0846
1690.00,0.0912
1689.00,0.0977
1688.00,0.1035
1687.00,0.1086
1686.00,0.1132
1685.00,0.1180
1684.00,0.1229
1683.00,0.1270
1682.00,0.1300
1681.00,0.1326
1680.00,0.1353
1679.00,0.1380
1678.00,0.1406
1677.00,0.1435
1676.00,0.1474
1675.00,0.1521
1674.00,0.1574
1673.00,0.1631
1672.00,0.1694
1671.00,0.1768
1670.00,0.1856
1669.00,0.1955
1668.00,0.2056
1667.00,0.2148
1666.00,0.2234
1665.00,0.2319
1664.00,0.2409
1663.00,0.2500
1662.00,0.2586
1661.00,0.2661
1660.00,0.2725
1659.00,0.2779
1658.00,0.2821
1657.00,0.2854
1656.00,0.2876
1655.00,0.2882
1654.00,0.2861
1653.00,0.2812
1652.00,0.2756
1651.00,0.2705
1650.00,0.2652
1649.00,0.2583
1648.00,0.2484
1647.00,0.2353
1646.00,0.2209
1645.00,0.2075
1644.00,0.1957
1643.00,0.1847
1642.00,0.1737
1641.00,0.1628
1640.00,0.1527
1639.00,0.1435
1638.00,0.1349
1637.00,0.1261
1636.00,0.1169
1635.00,0.1085
1634.00,0.1019
1633.00,0.0972
1632.00,0.0936
1631.00,0.0906
1630.00,0.0880
1629.00,0.0859
1628.00,0.0844
1627.00,0.0836
1626.00,0.0834
1625.00,0.0835
1624.00,0.0840
1623.00,0.0846
1622.00,0.0852
1621.00,0.0855
1620.00,0.0855
1619.00,0.0851
1618.00,0.0839
1617.00,0.0819
1616.00,0.0794
1615.00,0.0769
1614.00,0.0746
1613.00,0.0723
1612.00,0.0701
1611.00,0.0682
1610.00,0.0668
1609.00,0.0660
1608.00,0.0661
1607.00,0.0672
1606.00,0.0693
1605.00,0.0723
1604.00,0.0761
1603.00,0.0805
1602.00,0.0850
1601.00,0.0892
1600.00,0.0927
1599.00,0.0951
1598.00,0.0961
1597.00,0.0957
1596.00,0.0940
1595.00,0.0914
1594.00,0.0881
1593.00,0.0845
1592.00,0.0811
1591.00,0.0779
1590.00,0.0750
1589.00,0.0723
1588.00,0.0699
1587.00,0.0674
1586.00,0.0649
1585.00,0.0621
1584.00,0.0593
1583.00,0.0563
1582.00,0.0533
1581.00,0.0504
1580.00,0.0478
1579.00,0.0454
1578.00,0.0431
1577.00,0.0407
1576.00,0.0384
1575.00,0.0364
1574.00,0.0350
1573.00,0.0338
1572.00,0.0328
1571.00,0.0318
1570.00,0.0307
1569.00,0.0296
1568.00,0.0286
1567.00,0.0279
1566.00,0.0273
1565.00,0.0267
1564.00,0.0262
1563.00,0.0258
1562.00,0.0253
1561.00,0.0248
1560.00,0.0241
1559.00,0.0232
1558.00,0.0226
1557.00,0.0223
1556.00,0.0222
1555.00,0.0222
1554.00,0.0223
1553.00,0.0224
1552.00,0.0224
1551.00,0.0224
1550.00,0.0225
1549.00,0.0226
1548.00,0.0227
1547.00,0.0228
1546.00,0.0229
1545.00,0.0231
1544.00,0.0232
1543.00,0.0233
1542.00,0.0234
1541.00,0.0234
1540.00,0.0235
1539.00,0.0236
1538.00,0.0237
1537.00,0.0239
1536.00,0.0240
1535.00,0.0241
1534.00,0.0239
1533.00,0.0237
1532.00,0.0235
1531.00,0.0234
1530.00,0.0233
1529.00,0.0233
1528.00,0.0233
1527.00,0.0233
1526.00,0.0233
1525.00,0.0234
1524.00,0.0235
1523.00,0.0236
1522.00,0.0238
1521.00,0.0240
1520.00,0.0242
1519.00,0.0243
1518.00,0.0245
1517.00,0.0246
1516.00,0.0248
1515.00,0.0248
1514.00,0.0248
1513.00,0.0249
1512.00,0.0250
1511.00,0.0251
1510.00,0.0252
1509.00,0.0253
1508.00,0.0255
1507.00,0.0260
1506.00,0.0269
1505.00,0.0281
1504.00,0.0295
1503.00,0.0312
1502.00,0.0333
1501.00,0.0357
1500.00,0.0385
1499.00,0.0414
1498.00,0.0445
1497.00,0.0477
1496.00,0.0505
1495.00,0.0524
1494.00,0.0535
1493.00,0.0537
1492.00,0.0529
1491.00,0.0511
1490.00,0.0485
1489.00,0.0455
1488.00,0.0425
1487.00,0.0397
1486.00,0.0372
1485.00,0.0353
1484.00,0.0338
1483.00,0.0326
1482.00,0.0317
1481.00,0.0312
1480.00,0.0311
1479.00,0.0313
1478.00,0.0317
1477.00,0.0326
1476.00,0.0338
1475.00,0.0353
1474.00,0.0375
1473.00,0.0409
1472.00,0.0454
1471.00,0.0506
1470.00,0.0563
1469.00,0.0624
1468.00,0.0691
1467.00,0.0763
1466.00,0.0839
1465.00,0.0920
1464.00,0.0994
1463.00,0.1052
1462.00,0.1089
1461.00,0.1109
1460.00,0.1113
1459.00,0.1099
1458.00,0.1067
1457.00,0.1024
1456.00,0.0984
1455.00,0.0956
1454.00,0.0941
1453.00,0.0937
1452.00,0.0941
1451.00,0.0954
1450.00,0.0977
1449.00,0.1012
1448.00,0.1059
1447.00,0.1115
1446.00,0.1175
1445.00,0.1239
1444.00,0.1305
1443.00,0.1371
1442.00,0.1434
1441.00,0.1494
1440.00,0.1547
1439.00,0.1595
1438.00,0.1642
1437.00,0.1696
1436.00,0.1755
1435.00,0.1815
1434.00,0.1879
1433.00,0.1952
1432.00,0.2032
1431.00,0.2112
1430.00,0.2184
1429.00,0.2243
1428.00,0.2279
1427.00,0.2291
1426.00,0.2285
1425.00,0.2264
1424.00,0.2229
1423.00,0.2180
1422.00,0.2119
1421.00,0.2039
1420.00,0.1927
1419.00,0.1782
1418.00,0.1632
1417.00,0.1498
1416.00,0.1378
1415.00,0.1269
1414.00,0.1171
1413.00,0.1087
1412.00,0.1015
1411.00,0.0956
1410.00,0.0909
1409.00,0.0873
1408.00,0.0844
1407.00,0.0822
1406.00,0.0805
1405.00,0.0792
1404.00,0.0782
1403.00,0.0775
1402.00,0.0771
1401.00,0.0769
1400.00,0.0767
1399.00,0.0766
1398.00,0.0766
1397.00,0.0767
1396.00,0.0769
1395.00,0.0773
1394.00,0.0779
1393.00,0.0787
1392.00,0.0795
1391.00,0.0806
1390.00,0.0819
1389.00,0.0834
1388.00,0.0853
1387.00,0.0877
1386.00,0.0905
1385.00,0.0934
1384.00,0.0965
1383.00,0.0996
1382.00,0.1026
1381.00,0.1052
1380.00,0.1075
1379.00,0.1094
1378.00,0.1108
1377.00,0.1116
1376.00,0.1114
1375.00,0.1102
1374.00,0.1078
1373.00,0.1049
1372.00,0.1018
1371.00,0.0988
1370.00,0.0961
1369.00,0.0936
1368.00,0.0913
1367.00,0.0892
1366.00,0.0872
1365.00,0.0852
1364.00,0.0833
1363.00,0.0813
1362.00,0.0794
1361.00,0.0777
1360.00,0.0762
1359.00,0.0750
1358.00,0.0740
1357.00,0.0733
1356.00,0.0727
1355.00,0.0722
1354.00,0.0718
1353.00,0.0714
1352.00,0.0709
1351.00,0.0702
1350.00,0.0694
1349.00,0.0684
1348.00,0.0673
1347.00,0.0661
1346.00,0.0649
1345.00,0.0639
1344.00,0.0629
1343.00,0.0621
1342.00,0.0614
1341.00,0.0609
1340.00,0.0604
1339.00,0.0601
1338.00,0.0598
1337.00,0.0596
1336.00,0.0595
1335.00,0.0596
1334.00,0.0597
1333.00,0.0600
1332.00,0.0604
1331.00,0.0610
1330.00,0.0618
1329.00,0.0629
1328.00,0.0643
1327.00,0.0659
1326.00,0.0678
1325.00,0.0698
1324.00,0.0720
1323.00,0.0742
1322.00,0.0763
1321.00,0.0782
1320.00,0.0798
1319.00,0.0809
1318.00,0.0815
1317.00,0.0816
1316.00,0.0812
1315.00,0.0805
1314.00,0.0795
1313.00,0.0783
1312.00,0.0770
1311.00,0.0758
1310.00,0.0747
1309.00,0.0738
1308.00,0.0732
1307.00,0.0728
1306.00,0.0729
1305.00,0.0735
1304.00,0.0747
1303.00,0.0767
1302.00,0.0796
1301.00,0.0836
1300.00,0.0889
1299.00,0.0958
1298.00,0.1044
1297.00,0.1148
1296.00,0.1268
1295.00,0.1399
1294.00,0.1533
1293.00,0.1660
1292.00,0.1771
1291.00,0.1859
1290.00,0.1919
1289.00,0.1952
1288.00,0.1958
1287.00,0.1941
1286.00,0.1904
1285.00,0.1854
1284.00,0.1793
1283.00,0.1730
1282.00,0.1668
1281.00,0.1615
1280.00,0.1575
1279.00,0.1549
1278.00,0.1536
1277.00,0.1534
1276.00,0.1539
1275.00,0.1545
1274.00,0.1547
1273.00,0.1541
1272.00,0.1525
1271.00,0.1495
1270.00,0.1455
1269.00,0.1405
1268.00,0.1348
1267.00,0.1287
1266.00,0.1224
1265.00,0.1163
1264.00,0.1104
1263.00,0.1049
1262.00,0.0998
1261.00,0.0952
1260.00,0.0910
1259.00,0.0872
1258.00,0.0837
1257.00,0.0806
1256.00,0.0776
1255.00,0.0748
1254.00,0.0722
1253.00,0.0697
1252.00,0.0674
1251.00,0.0651
1250.00,0.0631
1249.00,0.0613
1248.00,0.0596
1247.00,0.0583
1246.00,0.0573
1245.00,0.0566
1244.00,0.0561
1243.00,0.0560
1242.00,0.0562
1241.00,0.0567
1240.00,0.0576
1239.00,0.0590
1238.00,0.0608
1237.00,0.0631
1236.00,0.0659
1235.00,0.0692
1234.00,0.0729
1233.00,0.0768
1232.00,0.0807
1231.00,0.0843
1230.00,0.0875
1229.00,0.0901
1228.00,0.0920
1227.00,0.0932
1226.00,0.0939
1225.00,0.0940
1224.00,0.0938
1223.00,0.0933
1222.00,0.0926
1221.00,0.0917
1220.00,0.0906
1219.00,0.0892
1218.00,0.0876
1217.00,0.0856
1216.00,0.0834
1215.00,0.0810
1214.00,0.0784
1213.00,0.0758
1212.00,0.0733
1211.00,0.0710
1210.00,0.0689
1209.00,0.0671
1208.00,0.0656
1207.00,0.0643
1206.00,0.0632
1205.00,0.0622
1204.00,0.0613
1203.00,0.0604
1202.00,0.0596
1201.00,0.0589
1200.00,0.0581
1199.00,0.0573
1198.00,0.0565
1197.00,0.0557
1196.00,0.0549
1195.00,0.0542
1194.00,0.0535
1193.00,0.0528
1192.00,0.0522
1191.00,0.0516
1190.00,0.0512
1189.00,0.0508
1188.00,0.0505
1187.00,0.0502
1186.00,0.0500
1185.00,0.0499
1184.00,0.0499
1183.00,0.0500
1182.00,0.0504
1181.00,0.0510
1180.00,0.0519
1179.00,0.0531
1178.00,0.0546
1177.00,0.0565
1176.00,0.0588
1175.00,0.0614
1174.00,0.0643
1173.00,0.0675
1172.00,0.0709
1171.00,0.0745
1170.00,0.0782
1169.00,0.0819
1168.00,0.0854
1167.00,0.0886
1166.00,0.0912
1165.00,0.0932
1164.00,0.0945
1163.00,0.0948
1162.00,0.0943
1161.00,0.0932
1160.00,0.0914
1159.00,0.0893
1158.00,0.0870
1157.00,0.0844
1156.00,0.0816
1155.00,0.0786
1154.00,0.0756
1153.00,0.0724
1152.00,0.0692
1151.00,0.0661
1150.00,0.0630
1149.00,0.0599
1148.00,0.0569
1147.00,0.0540
1146.00,0.0513
1145.00,0.0490
1144.00,0.0470
1143.00,0.0453
1142.00,0.0441
1141.00,0.0432
1140.00,0.0425
1139.00,0.0420
1138.00,0.0416
1137.00,0.0413
1136.00,0.0411
1135.00,0.0410
1134.00,0.0410
1133.00,0.0410
1132.00,0.0409
1131.00,0.0408
1130.00,0.0406
1129.00,0.0401
1128.00,0.0394
1127.00,0.0384
1126.00,0.0373
1125.00,0.0362
1124.00,0.0352
1123.00,0.0343
1122.00,0.0336
1121.00,0.0332
1120.00,0.0329
1119.00,0.0329
1118.00,0.0332
1117.00,0.0337
1116.00,0.0345
1115.00,0.0356
1114.00,0.0369
1113.00,0.0383
1112.00,0.0398
1111.00,0.0412
1110.00,0.0424
1109.00,0.0434
1108.00,0.0439
1107.00,0.0442
1106.00,0.0443
1105.00,0.0441
1104.00,0.0438
1103.00,0.0436
1102.00,0.0436
1101.00,0.0437
1100.00,0.0440
1099.00,0.0444
1098.00,0.0450
1097.00,0.0455
1096.00,0.0460
1095.00,0.0464
1094.00,0.0466
1093.00,0.0466
1092.00,0.0465
1091.00,0.0465
1090.00,0.0467
1089.00,0.0472
1088.00,0.0481
1087.00,0.0493
1086.00,0.0507
1085.00,0.0520
1084.00,0.0530
1083.00,0.0536
1082.00,0.0537
1081.00,0.0533
1080.00,0.0523
1079.00,0.0510
1078.00,0.0496
1077.00,0.0480
1076.00,0.0465
1075.00,0.0450
1074.00,0.0436
1073.00,0.0422
1072.00,0.0408
1071.00,0.0395
1070.00,0.0384
1069.00,0.0376
1068.00,0.0370
1067.00,0.0367
1066.00,0.0368
1065.00,0.0372
1064.00,0.0380
1063.00,0.0392
1062.00,0.0408
1061.00,0.0430
1060.00,0.0457
1059.00,0.0492
1058.00,0.0536
1057.00,0.0592
1056.00,0.0659
1055.00,0.0741
1054.00,0.0835
1053.00,0.0939
1052.00,0.1046
1051.00,0.1147
1050.00,0.1232
1049.00,0.1294
1048.00,0.1326
1047.00,0.1330
1046.00,0.1309
1045.00,0.1271
1044.00,0.1223
1043.00,0.1173
1042.00,0.1125
1041.00,0.1082
1040.00,0.1045
1039.00,0.1013
1038.00,0.0985
1037.00,0.0959
1036.00,0.0935
1035.00,0.0912
1034.00,0.0891
1033.00,0.0870
1032.00,0.0851
1031.00,0.0833
1030.00,0.0816
1029.00,0.0799
1028.00,0.0783
1027.00,0.0768
1026.00,0.0754
1025.00,0.0741
1024.00,0.0729
1023.00,0.0717
1022.00,0.0705
1021.00,0.0693
1020.00,0.0679
1019.00,0.0663
1018.00,0.0645
1017.00,0.0623
1016.00,0.0597
1015.00,0.0568
1014.00,0.0538
1013.00,0.0507
1012.00,0.0478
1011.00,0.0453
1010.00,0.0434
1009.00,0.0421
1008.00,0.0414
1007.00,0.0413
1006.00,0.0417
1005.00,0.0425
1004.00,0.0432
1003.00,0.0437
1002.00,0.0437
1001.00,0.0432
1000.00,0.0422
999.00,0.0410
998.00,0.0398
997.00,0.0386
996.00,0.0376
995.00,0.0369
994.00,0.0364
993.00,0.0362
992.00,0.0362
991.00,0.0365
990.00,0.0369
989.00,0.0375
988.00,0.0381
987.00,0.0386
986.00,0.0388
985.00,0.0387
984.00,0.0383
983.00,0.0376
982.00,0.0367
981.00,0.0359
980.00,0.0350
979.00,0.0343
978.00,0.0336
977.00,0.0330
976.00,0.0325
975.00,0.0320
974.00,0.0314
973.00,0.0308
972.00,0.0302
971.00,0.0295
970.00,0.0288
969.00,0.0282
968.00,0.0276
967.00,0.0270
966.00,0.0265
965.00,0.0262
964.00,0.0260
963.00,0.0261
962.00,0.0263
961.00,0.0269
960.00,0.0277
959.00,0.0287
958.00,0.0300
957.00,0.0313
956.00,0.0324
955.00,0.0334
954.00,0.0339
953.00,0.0341
952.00,0.0337
951.00,0.0329
950.00,0.0317
949.00,0.0303
948.00,0.0287
947.00,0.0270
946.00,0.0255
945.00,0.0242
944.00,0.0231
943.00,0.0222
942.00,0.0216
941.00,0.0213
940.00,0.0212
939.00,0.0214
938.00,0.0219
937.00,0.0226
936.00,0.0235
935.00,0.0243
934.00,0.0250
933.00,0.0254
932.00,0.0253
931.00,0.0248
930.00,0.0241
929.00,0.0234
928.00,0.0229
927.00,0.0227
926.00,0.0227
925.00,0.0229
924.00,0.0231
923.00,0.0234
922.00,0.0237
921.00,0.0242
920.00,0.0248
919.00,0.0254
918.00,0.0261
917.00,0.0267
916.00,0.0273
915.00,0.0279
914.00,0.0285
913.00,0.0292
912.00,0.0300
911.00,0.0307
910.00,0.0315
909.00,0.0321
908.00,0.0326
907.00,0.0329
906.00,0.0330
905.00,0.0328
904.00,0.0325
903.00,0.0320
902.00,0.0316
901.00,0.0312
900.00,0.0310
899.00,0.0308
898.00,0.0307
897.00,0.0306
896.00,0.0305
895.00,0.0303
894.00,0.0300
893.00,0.0296
892.00,0.0291
891.00,0.0286
890.00,0.0282
889.00,0.0278
888.00,0.0275
887.00,0.0274
886.00,0.0274
885.00,0.0275
884.00,0.0277
883.00,0.0280
882.00,0.0283
881.00,0.0287
880.00,0.0291
879.00,0.0294
878.00,0.0297
877.00,0.0301
876.00,0.0304
875.00,0.0307
874.00,0.0310
873.00,0.0314
872.00,0.0317
871.00,0.0322
870.00,0.0326
869.00,0.0331
868.00,0.0337
867.00,0.0345
866.00,0.0354
865.00,0.0363
864.00,0.0374
863.00,0.0386
862.00,0.0400
861.00,0.0415
860.00,0.0431
859.00,0.0449
858.00,0.0468
857.00,0.0488
856.00,0.0508
855.00,0.0529
854.00,0.0550
853.00,0.0570
852.00,0.0590
851.00,0.0609
850.00,0.0628
849.00,0.0645
848.00,0.0661
847.00,0.0675
846.00,0.0688
845.00,0.0700
844.00,0.0711
843.00,0.0721
842.00,0.0731
841.00,0.0741
840.00,0.0752
839.00,0.0762
838.00,0.0773
837.00,0.0784
836.00,0.0796
835.00,0.0809
834.00,0.0821
833.00,0.0832
832.00,0.0842
831.00,0.0850
830.00,0.0855
829.00,0.0857
828.00,0.0856
827.00,0.0849
826.00,0.0837
825.00,0.0821
824.00,0.0801
823.00,0.0778
822.00,0.0755
821.00,0.0732
820.00,0.0711
819.00,0.0689
818.00,0.0666
817.00,0.0642
816.00,0.0616
815.00,0.0590
814.00,0.0564
813.00,0.0541
812.00,0.0519
811.00,0.0498
810.00,0.0479
809.00,0.0462
808.00,0.0447
807.00,0.0435
806.00,0.0426
805.00,0.0419
804.00,0.0413
803.00,0.0409
802.00,0.0407
801.00,0.0408
800.00,0.0411
799.00,0.0416
798.00,0.0422
797.00,0.0429
796.00,0.0436
795.00,0.0443
794.00,0.0449
793.00,0.0454
792.00,0.0457
791.00,0.0459
790.00,0.0460
789.00,0.0462
788.00,0.0464
787.00,0.0466
786.00,0.0469
785.00,0.0473
784.00,0.0478
783.00,0.0484
782.00,0.0490
781.00,0.0497
780.00,0.0503
779.00,0.0509
778.00,0.0514
777.00,0.0518
776.00,0.0520
775.00,0.0521
774.00,0.0521
773.00,0.0521
772.00,0.0521
771.00,0.0520
770.00,0.0519
769.00,0.0519
768.00,0.0518
767.00,0.0519
766.00,0.0520
765.00,0.0523
764.00,0.0526
763.00,0.0531
762.00,0.0537
761.00,0.0545
760.00,0.0555
759.00,0.0566
758.00,0.0578
757.00,0.0591
756.00,0.0605
755.00,0.0619
754.00,0.0634
753.00,0.0649
752.00,0.0664
751.00,0.0679
750.00,0.0694
749.00,0.0709
748.00,0.0724
747.00,0.0738
746.00,0.0752
745.00,0.0765
744.00,0.0777
743.00,0.0789
742.00,0.0800
741.00,0.0810
740.00,0.0820
739.00,0.0827
738.00,0.0833
737.00,0.0835
736.00,0.0835
735.00,0.0831
734.00,0.0824
733.00,0.0814
732.00,0.0801
731.00,0.0784
730.00,0.0765
729.00,0.0744
728.00,0.0723
727.00,0.0702
726.00,0.0682
725.00,0.0664
724.00,0.0647
723.00,0.0632
722.00,0.0618
721.00,0.0606
720.00,0.0596
719.00,0.0588
718.00,0.0582
717.00,0.0579
716.00,0.0576
715.00,0.0574
714.00,0.0573
713.00,0.0573
712.00,0.0574
711.00,0.0574
710.00,0.0576
709.00,0.0577
708.00,0.0579
707.00,0.0581
706.00,0.0584
705.00,0.0586
704.00,0.0588
703.00,0.0591
702.00,0.0593
701.00,0.0596
700.00,0.0599
699.00,0.0603
698.00,0.0607
697.00,0.0612
696.00,0.0617
695.00,0.0623
694.00,0.0629
693.00,0.0635
692.00,0.0641
691.00,0.0647
690.00,0.0653
689.00,0.0661
688.00,0.0668
687.00,0.0676
686.00,0.0684
685.00,0.0691
684.00,0.0699
683.00,0.0706
682.00,0.0713
681.00,0.0719
680.00,0.0726
679.00,0.0733
678.00,0.0740
677.00,0.0748
676.00,0.0756
675.00,0.0764
674.00,0.0773
673.00,0.0781
672.00,0.0788
671.00,0.0795
670.00,0.0803
669.00,0.0814
668.00,0.0830
667.00,0.0846
666.00,0.0858
665.00,0.0867
664.00,0.0878
663.00,0.0891
662.00,0.0904
661.00,0.0917
660.00,0.0930
659.00,0.0944
658.00,0.0957
657.00,0.0971
656.00,0.0985
655.00,0.0999
654.00,0.1012
653.00,0.1024
652.00,0.1034
651.00,0.1042
650.00,0.1046
649.00,0.1046
648.00,0.1043
647.00,0.1034
646.00,0.1022
645.00,0.1007
644.00,0.0989
643.00,0.0969
642.00,0.0947
641.00,0.0924
640.00,0.0902
639.00,0.0879
638.00,0.0858
637.00,0.0837
636.00,0.0817
635.00,0.0799
634.00,0.0781
633.00,0.0765
632.00,0.0750
631.00,0.0735
630.00,0.0722
629.00,0.0710
628.00,0.0698
627.00,0.0688
626.00,0.0678
625.00,0.0669
624.00,0.0659
623.00,0.0651
622.00,0.0643
621.00,0.0638
620.00,0.0635
619.00,0.0632
618.00,0.0630
617.00,0.0629
616.00,0.0628
615.00,0.0627
614.00,0.0627
613.00,0.0628
612.00,0.0630
611.00,0.0632
610.00,0.0637
609.00,0.0642
608.00,0.0648
607.00,0.0654
606.00,0.0662
605.00,0.0671
604.00,0.0680
603.00,0.0689
602.00,0.0697
601.00,0.0703
600.00,0.0709
599.00,0.0715
598.00,0.0720
597.00,0.0727
596.00,0.0733
595.00,0.0741
594.00,0.0748
593.00,0.0756
592.00,0.0764
591.00,0.0773
590.00,0.0783
589.00,0.0793
588.00,0.0805
587.00,0.0820
586.00,0.0837
585.00,0.0857
584.00,0.0878
583.00,0.0899
582.00,0.0917
581.00,0.0933
580.00,0.0944
579.00,0.0949
578.00,0.0950
577.00,0.0947
576.00,0.0940
575.00,0.0932
574.00,0.0923
573.00,0.0913
572.00,0.0903
571.00,0.0891
570.00,0.0880
569.00,0.0870
568.00,0.0858
567.00,0.0846
566.00,0.0833
565.00,0.0819
564.00,0.0804
563.00,0.0787
562.00,0.0768
561.00,0.0748
560.00,0.0729
559.00,0.0709
558.00,0.0691
557.00,0.0674
556.00,0.0658
555.00,0.0643
554.00,0.0630
553.00,0.0617
552.00,0.0607
551.00,0.0599
550.00,0.0594
549.00,0.0588
548.00,0.0582
547.00,0.0576
546.00,0.0571
545.00,0.0569
544.00,0.0567
543.00,0.0566
542.00,0.0564
541.00,0.0562
540.00,0.0559
539.00,0.0556
538.00,0.0554
537.00,0.0553
536.00,0.0552
535.00,0.0552
534.00,0.0552
533.00,0.0553
532.00,0.0554
531.00,0.0554
530.00,0.0551
529.00,0.0546
528.00,0.0539
527.00,0.0532
526.00,0.0526
525.00,0.0521
524.00,0.0516
523.00,0.0512
522.00,0.0508
521.00,0.0505
520.00,0.0501
519.00,0.0496
518.00,0.0491
517.00,0.0485
516.00,0.0479
515.00,0.0476
514.00,0.0475
513.00,0.0473
512.00,0.0470
511.00,0.0467
510.00,0.0465
509.00,0.0463
508.00,0.0460
507.00,0.0457
506.00,0.0455
505.00,0.0453
504.00,0.0451
503.00,0.0450
502.00,0.0451
501.00,0.0453
500.00,0.0456
499.00,0.0459
498.00,0.0461
497.00,0.0462
496.00,0.0464
495.00,0.0466
494.00,0.0469
493.00,0.0472
492.00,0.0476
491.00,0.0480
490.00,0.0485
489.00,0.0489
488.00,0.0490
487.00,0.0491
486.00,0.0493
485.00,0.0493
484.00,0.0493
483.00,0.0492
482.00,0.0492
481.00,0.0491
480.00,0.0488
479.00,0.0484
478.00,0.0480
477.00,0.0478
476.00,0.0478
475.00,0.0478
474.00,0.0481
473.00,0.0482
472.00,0.0482
471.00,0.0482
470.00,0.0484
469.00,0.0485
468.00,0.0486
467.00,0.0486
466.00,0.0488
465.00,0.0491
464.00,0.0491
463.00,0.0490
462.00,0.0490
461.00,0.0493
460.00,0.0498
459.00,0.0503
458.00,0.0509
457.00,0.0515
456.00,0.0521
455.00,0.0527
454.00,0.0534
453.00,0.0539
452.00,0.0540
451.00,0.0537
450.00,0.0533
449.00,0.0529
448.00,0.0526
447.00,0.0523
446.00,0.0522
445.00,0.0519
444.00,0.0513
443.00,0.0505
442.00,0.0500
441.00,0.0497
440.00,0.0496
439.00,0.0494
438.00,0.0492
437.00,0.0490
436.00,0.0488
435.00,0.0485
434.00,0.0481
433.00,0.0476
432.00,0.0471
431.00,0.0468
430.00,0.0468
429.00,0.0470
428.00,0.0474
427.00,0.0480
426.00,0.0488
425.00,0.0491
424.00,0.0485
423.00,0.0475
422.00,0.0464
421.00,0.0455
420.00,0.0448
419.00,0.0449
418.00,0.0458
417.00,0.0469
416.00,0.0472
415.00,0.0471
414.00,0.0470
413.00,0.0470
412.00,0.0473
411.00,0.0477
410.00,0.0483
409.00,0.0488
408.00,0.0492
407.00,0.0495
406.00,0.0501
405.00,0.0506
404.00,0.0509
403.00,0.0511
402.00,0.0514
401.00,0.0512
400.00,0.0504
