Created as New Dataset,Sample 307 By YargerLab Date Saturday, October 18 2025
cm-1,A
4000.00,0.0018
3999.00,0.0018
3998.00,0.0018
3997.00,0.0018
3996.00,0.0018
3995.00,0.0018
3994.00,0.0018
3993.00,0.0018
3992.00,0.0018
3991.00,0.0018
3990.00,0.0018
3989.00,0.0018
3988.00,0.0018
3987.00,0.0018
3986.00,0.0018
3985.00,0.0018
3984.00,0.0017
3983.00,0.0017
3982.00,0.0017
3981.00,0.0017
3980.00,0.0018
3979.00,0.0018
3978.00,0.0018
3977.00,0.0018
3976.00,0.0018
3975.00,0.0018
3974.00,0.0018
3973.00,0.0018
3972.00,0.0018
3971.00,0.0018
3970.00,0.0018
3969.00,0.0018
3968.00,0.0017
3967.00,0.0017
3966.00,0.0017
3965.00,0.0017
3964.00,0.0017
3963.00,0.0017
3962.00,0.0017
3961.00,0.0018
3960.00,0.0018
3959.00,0.0018
3958.00,0.0018
3957.00,0.0018
3956.00,0.0018
3955.00,0.0017
3954.00,0.0017
3953.00,0.0017
3952.00,0.0017
3951.00,0.0017
3950.00,0.0017
3949.00,0.0017
3948.00,0.0017
3947.00,0.0017
3946.00,0.0016
3945.00,0.0016
3944.00,0.0016
3943.00,0.0016
3942.00,0.0017
3941.00,0.0017
3940.00,0.0017
3939.00,0.0017
3938.00,0.0017
3937.00,0.0017
3936.00,0.0017
3935.00,0.0017
3934.00,0.0017
3933.00,0.0017
3932.00,0.0017
3931.00,0.0017
3930.00,0.0016
3929.00,0.0016
3928.00,0.0017
3927.00,0.0017
3926.00,0.0017
3925.00,0.0017
3924.00,0.0017
3923.00,0.0016
3922.00,0.0016
3921.00,0.0016
3920.00,0.0016
3919.00,0.0016
3918.00,0.0016
3917.00,0.0016
3916.00,0.0016
3915.00,0.0016
3914.00,0.0016
3913.00,0.0016
3912.00,0.0016
3911.00,0.0017
3910.00,0.0017
3909.00,0.0016
3908.00,0.0016
3907.00,0.0016
3906.00,0.0015
3905.00,0.0015
3904.00,0.0015
3903.00,0.0015
3902.00,0.0015
3901.00,0.0015
3900.00,0.0015
3899.00,0.0015
3898.00,0.0015
3897.00,0.0015
3896.00,0.0015
3895.00,0.0015
3894.00,0.0015
3893.00,0.0015
3892.00,0.0016
3891.00,0.0016
3890.00,0.0016
3889.00,0.0015
3888.00,0.0015
3887.00,0.0015
3886.00,0.0015
3885.00,0.0015
3884.00,0.0015
3883.00,0.0014
3882.00,0.0013
3881.00,0.0013
3880.00,0.0014
3879.00,0.0014
3878.00,0.0014
3877.00,0.0014
3876.00,0.0014
3875.00,0.0015
3874.00,0.0015
3873.00,0.0015
3872.00,0.0014
3871.00,0.0014
3870.00,0.0014
3869.00,0.0014
3868.00,0.0014
3867.00,0.0014
3866.00,0.0013
3865.00,0.0014
3864.00,0.0014
3863.00,0.0014
3862.00,0.0014
3861.00,0.0015
3860.00,0.0015
3859.00,0.0015
3858.00,0.0015
3857.00,0.0015
3856.00,0.0014
3855.00,0.0014
3854.00,0.0014
3853.00,0.0014
3852.00,0.0014
3851.00,0.0013
3850.00,0.0013
3849.00,0.0013
3848.00,0.0014
3847.00,0.0014
3846.00,0.0014
3845.00,0.0014
3844.00,0.0015
3843.00,0.0015
3842.00,0.0015
3841.00,0.0014
3840.00,0.0014
3839.00,0.0014
3838.00,0.0014
3837.00,0.0014
3836.00,0.0013
3835.00,0.0013
3834.00,0.0014
3833.00,0.0014
3832.00,0.0014
3831.00,0.0014
3830.00,0.0014
3829.00,0.0014
3828.00,0.0014
3827.00,0.0014
3826.00,0.0015
3825.00,0.0015
3824.00,0.0014
3823.00,0.0014
3822.00,0.0013
3821.00,0.0013
3820.00,0.0013
3819.00,0.0013
3818.00,0.0013
3817.00,0.0013
3816.00,0.0013
3815.00,0.0013
3814.00,0.0013
3813.00,0.0013
3812.00,0.0014
3811.00,0.0014
3810.00,0.0014
3809.00,0.0014
3808.00,0.0014
3807.00,0.0014
3806.00,0.0014
3805.00,0.0014
3804.00,0.0013
3803.00,0.0013
3802.00,0.0013
3801.00,0.0013
3800.00,0.0013
3799.00,0.0013
3798.00,0.0013
3797.00,0.0013
3796.00,0.0014
3795.00,0.0014
3794.00,0.0014
3793.00,0.0014
3792.00,0.0014
3791.00,0.0015
3790.00,0.0015
3789.00,0.0015
3788.00,0.0015
3787.00,0.0015
3786.00,0.0015
3785.00,0.0015
3784.00,0.0015
3783.00,0.0014
3782.00,0.0014
3781.00,0.0014
3780.00,0.0014
3779.00,0.0014
3778.00,0.0014
3777.00,0.0014
3776.00,0.0014
3775.00,0.0014
3774.00,0.0014
3773.00,0.0014
3772.00,0.0014
3771.00,0.0014
3770.00,0.0015
3769.00,0.0015
3768.00,0.0014
3767.00,0.0014
3766.00,0.0014
3765.00,0.0014
3764.00,0.0014
3763.00,0.0014
3762.00,0.0014
3761.00,0.0014
3760.00,0.0014
3759.00,0.0014
3758.00,0.0014
3757.00,0.0014
3756.00,0.0014
3755.00,0.0014
3754.00,0.0013
3753.00,0.0013
3752.00,0.0013
3751.00,0.0012
3750.00,0.0012
3749.00,0.0012
3748.00,0.0012
3747.00,0.0012
3746.00,0.0012
3745.00,0.0012
3744.00,0.0013
3743.00,0.0012
3742.00,0.0012
3741.00,0.0012
3740.00,0.0012
3739.00,0.0012
3738.00,0.0012
3737.00,0.0012
3736.00,0.0012
3735.00,0.0012
3734.00,0.0012
3733.00,0.0012
3732.00,0.0012
3731.00,0.0012
3730.00,0.0012
3729.00,0.0012
3728.00,0.0013
3727.00,0.0013
3726.00,0.0013
3725.00,0.0013
3724.00,0.0013
3723.00,0.0013
3722.00,0.0013
3721.00,0.0013
3720.00,0.0013
3719.00,0.0013
3718.00,0.0013
3717.00,0.0013
3716.00,0.0013
3715.00,0.0013
3714.00,0.0013
3713.00,0.0013
3712.00,0.0013
3711.00,0.0013
3710.00,0.0013
3709.00,0.0013
3708.00,0.0013
3707.00,0.0013
3706.00,0.0013
3705.00,0.0012
3704.00,0.0013
3703.00,0.0013
3702.00,0.0013
3701.00,0.0013
3700.00,0.0014
3699.00,0.0014
3698.00,0.0014
3697.00,0.0014
3696.00,0.0014
3695.00,0.0014
3694.00,0.0014
3693.00,0.0014
3692.00,0.0014
3691.00,0.0014
3690.00,0.0014
3689.00,0.0014
3688.00,0.0014
3687.00,0.0014
3686.00,0.0014
3685.00,0.0015
3684.00,0.0015
3683.00,0.0016
3682.00,0.0016
3681.00,0.0016
3680.00,0.0016
3679.00,0.0016
3678.00,0.0015
3677.00,0.0015
3676.00,0.0015
3675.00,0.0016
3674.00,0.0016
3673.00,0.0016
3672.00,0.0016
3671.00,0.0017
3670.00,0.0017
3669.00,0.0018
3668.00,0.0018
3667.00,0.0018
3666.00,0.0018
3665.00,0.0018
3664.00,0.0018
3663.00,0.0019
3662.00,0.0019
3661.00,0.0019
3660.00,0.0019
3659.00,0.0019
3658.00,0.0019
3657.00,0.0020
3656.00,0.0020
3655.00,0.0021
3654.00,0.0021
3653.00,0.0021
3652.00,0.0020
3651.00,0.0020
3650.00,0.0021
3649.00,0.0021
3648.00,0.0021
3647.00,0.0021
3646.00,0.0021
3645.00,0.0022
3644.00,0.0022
3643.00,0.0023
3642.00,0.0024
3641.00,0.0025
3640.00,0.0025
3639.00,0.0026
3638.00,0.0026
3637.00,0.0026
3636.00,0.0027
3635.00,0.0027
3634.00,0.0027
3633.00,0.0028
3632.00,0.0027
3631.00,0.0027
3630.00,0.0028
3629.00,0.0028
3628.00,0.0029
3627.00,0.0030
3626.00,0.0030
3625.00,0.0031
3624.00,0.0032
3623.00,0.0033
3622.00,0.0034
3621.00,0.0034
3620.00,0.0035
3619.00,0.0035
3618.00,0.0036
3617.00,0.0036
3616.00,0.0037
3615.00,0.0038
3614.00,0.0038
3613.00,0.0039
3612.00,0.0039
3611.00,0.0040
3610.00,0.0041
3609.00,0.0041
3608.00,0.0042
3607.00,0.0043
3606.00,0.0044
3605.00,0.0045
3604.00,0.0045
3603.00,0.0046
3602.00,0.0047
3601.00,0.0048
3600.00,0.0049
3599.00,0.0049
3598.00,0.0050
3597.00,0.0051
3596.00,0.0051
3595.00,0.0052
3594.00,0.0053
3593.00,0.0054
3592.00,0.0054
3591.00,0.0055
3590.00,0.0055
3589.00,0.0056
3588.00,0.0057
3587.00,0.0058
3586.00,0.0059
3585.00,0.0060
3584.00,0.0061
3583.00,0.0062
3582.00,0.0063
3581.00,0.0064
3580.00,0.0065
3579.00,0.0066
3578.00,0.0066
3577.00,0.0067
3576.00,0.0068
3575.00,0.0069
3574.00,0.0070
3573.00,0.0072
3572.00,0.0073
3571.00,0.0074
3570.00,0.0075
3569.00,0.0076
3568.00,0.0077
3567.00,0.0078
3566.00,0.0079
3565.00,0.0080
3564.00,0.0082
3563.00,0.0083
3562.00,0.0085
3561.00,0.0086
3560.00,0.0088
3559.00,0.0089
3558.00,0.0090
3557.00,0.0092
3556.00,0.0093
3555.00,0.0095
3554.00,0.0096
3553.00,0.0097
3552.00,0.0099
3551.00,0.0100
3550.00,0.0101
3549.00,0.0103
3548.00,0.0104
3547.00,0.0106
3546.00,0.0108
3545.00,0.0110
3544.00,0.0112
3543.00,0.0114
3542.00,0.0116
3541.00,0.0117
3540.00,0.0119
3539.00,0.0121
3538.00,0.0123
3537.00,0.0124
3536.00,0.0126
3535.00,0.0128
3534.00,0.0130
3533.00,0.0131
3532.00,0.0133
3531.00,0.0135
3530.00,0.0137
3529.00,0.0139
3528.00,0.0141
3527.00,0.0143
3526.00,0.0145
3525.00,0.0147
3524.00,0.0149
3523.00,0.0151
3522.00,0.0153
3521.00,0.0155
3520.00,0.0157
3519.00,0.0159
3518.00,0.0161
3517.00,0.0163
3516.00,0.0166
3515.00,0.0168
3514.00,0.0170
3513.00,0.0172
3512.00,0.0174
3511.00,0.0176
3510.00,0.0178
3509.00,0.0181
3508.00,0.0183
3507.00,0.0185
3506.00,0.0188
3505.00,0.0190
3504.00,0.0192
3503.00,0.0195
3502.00,0.0197
3501.00,0.0199
3500.00,0.0201
3499.00,0.0204
3498.00,0.0206
3497.00,0.0209
3496.00,0.0211
3495.00,0.0213
3494.00,0.0215
3493.00,0.0217
3492.00,0.0220
3491.00,0.0222
3490.00,0.0224
3489.00,0.0227
3488.00,0.0229
3487.00,0.0231
3486.00,0.0233
3485.00,0.0235
3484.00,0.0237
3483.00,0.0240
3482.00,0.0241
3481.00,0.0243
3480.00,0.0245
3479.00,0.0247
3478.00,0.0249
3477.00,0.0251
3476.00,0.0253
3475.00,0.0255
3474.00,0.0257
3473.00,0.0259
3472.00,0.0261
3471.00,0.0264
3470.00,0.0266
3469.00,0.0267
3468.00,0.0269
3467.00,0.0270
3466.00,0.0272
3465.00,0.0273
3464.00,0.0275
3463.00,0.0276
3462.00,0.0278
3461.00,0.0279
3460.00,0.0281
3459.00,0.0282
3458.00,0.0284
3457.00,0.0285
3456.00,0.0286
3455.00,0.0287
3454.00,0.0288
3453.00,0.0289
3452.00,0.0290
3451.00,0.0292
3450.00,0.0293
3449.00,0.0294
3448.00,0.0295
3447.00,0.0297
3446.00,0.0298
3445.00,0.0299
3444.00,0.0300
3443.00,0.0301
3442.00,0.0302
3441.00,0.0303
3440.00,0.0304
3439.00,0.0305
3438.00,0.0306
3437.00,0.0307
3436.00,0.0308
3435.00,0.0308
3434.00,0.0309
3433.00,0.0309
3432.00,0.0310
3431.00,0.0311
3430.00,0.0312
3429.00,0.0313
3428.00,0.0313
3427.00,0.0314
3426.00,0.0315
3425.00,0.0315
3424.00,0.0316
3423.00,0.0316
3422.00,0.0317
3421.00,0.0317
3420.00,0.0317
3419.00,0.0317
3418.00,0.0318
3417.00,0.0319
3416.00,0.0319
3415.00,0.0319
3414.00,0.0319
3413.00,0.0320
3412.00,0.0320
3411.00,0.0321
3410.00,0.0321
3409.00,0.0321
3408.00,0.0321
3407.00,0.0321
3406.00,0.0321
3405.00,0.0322
3404.00,0.0322
3403.00,0.0322
3402.00,0.0323
3401.00,0.0323
3400.00,0.0323
3399.00,0.0323
3398.00,0.0323
3397.00,0.0322
3396.00,0.0322
3395.00,0.0323
3394.00,0.0323
3393.00,0.0323
3392.00,0.0323
3391.00,0.0322
3390.00,0.0322
3389.00,0.0322
3388.00,0.0321
3387.00,0.0321
3386.00,0.0321
3385.00,0.0321
3384.00,0.0321
3383.00,0.0321
3382.00,0.0321
3381.00,0.0321
3380.00,0.0321
3379.00,0.0321
3378.00,0.0320
3377.00,0.0320
3376.00,0.0319
3375.00,0.0319
3374.00,0.0319
3373.00,0.0319
3372.00,0.0319
3371.00,0.0319
3370.00,0.0318
3369.00,0.0318
3368.00,0.0318
3367.00,0.0317
3366.00,0.0316
3365.00,0.0315
3364.00,0.0315
3363.00,0.0315
3362.00,0.0314
3361.00,0.0314
3360.00,0.0313
3359.00,0.0313
3358.00,0.0312
3357.00,0.0312
3356.00,0.0312
3355.00,0.0311
3354.00,0.0311
3353.00,0.0310
3352.00,0.0310
3351.00,0.0309
3350.00,0.0308
3349.00,0.0308
3348.00,0.0307
3347.00,0.0306
3346.00,0.0305
3345.00,0.0305
3344.00,0.0304
3343.00,0.0304
3342.00,0.0303
3341.00,0.0303
3340.00,0.0302
3339.00,0.0301
3338.00,0.0300
3337.00,0.0299
3336.00,0.0298
3335.00,0.0297
3334.00,0.0297
3333.00,0.0296
3332.00,0.0295
3331.00,0.0295
3330.00,0.0294
3329.00,0.0293
3328.00,0.0292
3327.00,0.0292
3326.00,0.0291
3325.00,0.0290
3324.00,0.0289
3323.00,0.0288
3322.00,0.0286
3321.00,0.0286
3320.00,0.0285
3319.00,0.0284
3318.00,0.0283
3317.00,0.0282
3316.00,0.0281
3315.00,0.0280
3314.00,0.0279
3313.00,0.0278
3312.00,0.0278
3311.00,0.0277
3310.00,0.0276
3309.00,0.0275
3308.00,0.0275
3307.00,0.0274
3306.00,0.0273
3305.00,0.0272
3304.00,0.0271
3303.00,0.0269
3302.00,0.0268
3301.00,0.0267
3300.00,0.0266
3299.00,0.0265
3298.00,0.0264
3297.00,0.0263
3296.00,0.0262
3295.00,0.0261
3294.00,0.0260
3293.00,0.0259
3292.00,0.0258
3291.00,0.0256
3290.00,0.0255
3289.00,0.0254
3288.00,0.0253
3287.00,0.0252
3286.00,0.0251
3285.00,0.0250
3284.00,0.0249
3283.00,0.0247
3282.00,0.0246
3281.00,0.0245
3280.00,0.0244
3279.00,0.0243
3278.00,0.0242
3277.00,0.0241
3276.00,0.0240
3275.00,0.0239
3274.00,0.0238
3273.00,0.0237
3272.00,0.0236
3271.00,0.0234
3270.00,0.0233
3269.00,0.0231
3268.00,0.0230
3267.00,0.0229
3266.00,0.0228
3265.00,0.0227
3264.00,0.0226
3263.00,0.0225
3262.00,0.0224
3261.00,0.0223
3260.00,0.0222
3259.00,0.0221
3258.00,0.0219
3257.00,0.0218
3256.00,0.0217
3255.00,0.0215
3254.00,0.0214
3253.00,0.0213
3252.00,0.0212
3251.00,0.0211
3250.00,0.0210
3249.00,0.0209
3248.00,0.0208
3247.00,0.0207
3246.00,0.0206
3245.00,0.0205
3244.00,0.0204
3243.00,0.0203
3242.00,0.0201
3241.00,0.0200
3240.00,0.0198
3239.00,0.0197
3238.00,0.0196
3237.00,0.0195
3236.00,0.0193
3235.00,0.0192
3234.00,0.0191
3233.00,0.0190
3232.00,0.0189
3231.00,0.0188
3230.00,0.0187
3229.00,0.0186
3228.00,0.0186
3227.00,0.0185
3226.00,0.0184
3225.00,0.0183
3224.00,0.0182
3223.00,0.0181
3222.00,0.0180
3221.00,0.0179
3220.00,0.0178
3219.00,0.0177
3218.00,0.0176
3217.00,0.0175
3216.00,0.0175
3215.00,0.0174
3214.00,0.0173
3213.00,0.0172
3212.00,0.0171
3211.00,0.0170
3210.00,0.0169
3209.00,0.0168
3208.00,0.0167
3207.00,0.0166
3206.00,0.0164
3205.00,0.0163
3204.00,0.0163
3203.00,0.0162
3202.00,0.0161
3201.00,0.0160
3200.00,0.0159
3199.00,0.0158
3198.00,0.0157
3197.00,0.0155
3196.00,0.0154
3195.00,0.0153
3194.00,0.0152
3193.00,0.0151
3192.00,0.0150
3191.00,0.0149
3190.00,0.0147
3189.00,0.0146
3188.00,0.0145
3187.00,0.0144
3186.00,0.0143
3185.00,0.0142
3184.00,0.0141
3183.00,0.0140
3182.00,0.0139
3181.00,0.0137
3180.00,0.0136
3179.00,0.0135
3178.00,0.0134
3177.00,0.0133
3176.00,0.0133
3175.00,0.0132
3174.00,0.0131
3173.00,0.0130
3172.00,0.0129
3171.00,0.0128
3170.00,0.0126
3169.00,0.0125
3168.00,0.0125
3167.00,0.0124
3166.00,0.0123
3165.00,0.0122
3164.00,0.0121
3163.00,0.0121
3162.00,0.0120
3161.00,0.0119
3160.00,0.0118
3159.00,0.0117
3158.00,0.0116
3157.00,0.0115
3156.00,0.0114
3155.00,0.0113
3154.00,0.0113
3153.00,0.0112
3152.00,0.0112
3151.00,0.0111
3150.00,0.0110
3149.00,0.0109
3148.00,0.0109
3147.00,0.0108
3146.00,0.0107
3145.00,0.0106
3144.00,0.0106
3143.00,0.0105
3142.00,0.0105
3141.00,0.0104
3140.00,0.0103
3139.00,0.0103
3138.00,0.0102
3137.00,0.0102
3136.00,0.0101
3135.00,0.0101
3134.00,0.0100
3133.00,0.0099
3132.00,0.0099
3131.00,0.0098
3130.00,0.0097
3129.00,0.0097
3128.00,0.0096
3127.00,0.0096
3126.00,0.0095
3125.00,0.0095
3124.00,0.0095
3123.00,0.0094
3122.00,0.0093
3121.00,0.0092
3120.00,0.0091
3119.00,0.0091
3118.00,0.0090
3117.00,0.0089
3116.00,0.0089
3115.00,0.0088
3114.00,0.0088
3113.00,0.0087
3112.00,0.0087
3111.00,0.0086
3110.00,0.0086
3109.00,0.0085
3108.00,0.0085
3107.00,0.0084
3106.00,0.0084
3105.00,0.0083
3104.00,0.0082
3103.00,0.0082
3102.00,0.0081
3101.00,0.0081
3100.00,0.0081
3099.00,0.0080
3098.00,0.0080
3097.00,0.0080
3096.00,0.0080
3095.00,0.0079
3094.00,0.0079
3093.00,0.0079
3092.00,0.0078
3091.00,0.0078
3090.00,0.0077
3089.00,0.0077
3088.00,0.0077
3087.00,0.0076
3086.00,0.0076
3085.00,0.0076
3084.00,0.0075
3083.00,0.0075
3082.00,0.0075
3081.00,0.0075
3080.00,0.0075
3079.00,0.0075
3078.00,0.0074
3077.00,0.0074
3076.00,0.0074
3075.00,0.0075
3074.00,0.0075
3073.00,0.0075
3072.00,0.0075
3071.00,0.0075
3070.00,0.0074
3069.00,0.0074
3068.00,0.0074
3067.00,0.0074
3066.00,0.0074
3065.00,0.0074
3064.00,0.0074
3063.00,0.0074
3062.00,0.0074
3061.00,0.0074
3060.00,0.0075
3059.00,0.0075
3058.00,0.0075
3057.00,0.0075
3056.00,0.0076
3055.00,0.0076
3054.00,0.0076
3053.00,0.0076
3052.00,0.0076
3051.00,0.0076
3050.00,0.0076
3049.00,0.0076
3048.00,0.0076
3047.00,0.0076
3046.00,0.0076
3045.00,0.0076
3044.00,0.0076
3043.00,0.0076
3042.00,0.0076
3041.00,0.0076
3040.00,0.0077
3039.00,0.0077
3038.00,0.0077
3037.00,0.0078
3036.00,0.0078
3035.00,0.0079
3034.00,0.0080
3033.00,0.0081
3032.00,0.0081
3031.00,0.0082
3030.00,0.0082
3029.00,0.0082
3028.00,0.0083
3027.00,0.0083
3026.00,0.0083
3025.00,0.0084
3024.00,0.0084
3023.00,0.0085
3022.00,0.0085
3021.00,0.0086
3020.00,0.0086
3019.00,0.0087
3018.00,0.0087
3017.00,0.0088
3016.00,0.0089
3015.00,0.0090
3014.00,0.0092
3013.00,0.0093
3012.00,0.0095
3011.00,0.0097
3010.00,0.0099
3009.00,0.0101
3008.00,0.0104
3007.00,0.0106
3006.00,0.0109
3005.00,0.0112
3004.00,0.0115
3003.00,0.0118
3002.00,0.0122
3001.00,0.0126
3000.00,0.0130
2999.00,0.0135
2998.00,0.0140
2997.00,0.0145
2996.00,0.0150
2995.00,0.0156
2994.00,0.0162
2993.00,0.0167
2992.00,0.0173
2991.00,0.0179
2990.00,0.0185
2989.00,0.0190
2988.00,0.0196
2987.00,0.0201
2986.00,0.0206
2985.00,0.0211
2984.00,0.0215
2983.00,0.0219
2982.00,0.0223
2981.00,0.0227
2980.00,0.0231
2979.00,0.0235
2978.00,0.0239
2977.00,0.0244
2976.00,0.0248
2975.00,0.0252
2974.00,0.0257
2973.00,0.0262
2972.00,0.0267
2971.00,0.0273
2970.00,0.0279
2969.00,0.0286
2968.00,0.0292
2967.00,0.0298
2966.00,0.0304
2965.00,0.0310
2964.00,0.0315
2963.00,0.0320
2962.00,0.0325
2961.00,0.0329
2960.00,0.0332
2959.00,0.0336
2958.00,0.0339
2957.00,0.0341
2956.00,0.0342
2955.00,0.0344
2954.00,0.0344
2953.00,0.0345
2952.00,0.0345
2951.00,0.0345
2950.00,0.0346
2949.00,0.0348
2948.00,0.0351
2947.00,0.0356
2946.00,0.0363
2945.00,0.0371
2944.00,0.0380
2943.00,0.0391
2942.00,0.0403
2941.00,0.0417
2940.00,0.0431
2939.00,0.0445
2938.00,0.0459
2937.00,0.0474
2936.00,0.0487
2935.00,0.0501
2934.00,0.0513
2933.00,0.0524
2932.00,0.0533
2931.00,0.0542
2930.00,0.0548
2929.00,0.0552
2928.00,0.0556
2927.00,0.0558
2926.00,0.0558
2925.00,0.0558
2924.00,0.0557
2923.00,0.0555
2922.00,0.0552
2921.00,0.0549
2920.00,0.0546
2919.00,0.0543
2918.00,0.0540
2917.00,0.0537
2916.00,0.0534
2915.00,0.0530
2914.00,0.0526
2913.00,0.0522
2912.00,0.0517
2911.00,0.0512
2910.00,0.0507
2909.00,0.0502
2908.00,0.0496
2907.00,0.0491
2906.00,0.0486
2905.00,0.0480
2904.00,0.0475
2903.00,0.0470
2902.00,0.0466
2901.00,0.0461
2900.00,0.0456
2899.00,0.0452
2898.00,0.0447
2897.00,0.0443
2896.00,0.0439
2895.00,0.0435
2894.00,0.0431
2893.00,0.0427
2892.00,0.0422
2891.00,0.0418
2890.00,0.0414
2889.00,0.0410
2888.00,0.0406
2887.00,0.0403
2886.00,0.0399
2885.00,0.0397
2884.00,0.0394
2883.00,0.0392
2882.00,0.0391
2881.00,0.0390
2880.00,0.0389
2879.00,0.0389
2878.00,0.0389
2877.00,0.0390
2876.00,0.0391
2875.00,0.0392
2874.00,0.0392
2873.00,0.0392
2872.00,0.0391
2871.00,0.0389
2870.00,0.0386
2869.00,0.0382
2868.00,0.0379
2867.00,0.0376
2866.00,0.0374
2865.00,0.0374
2864.00,0.0375
2863.00,0.0377
2862.00,0.0380
2861.00,0.0384
2860.00,0.0387
2859.00,0.0390
2858.00,0.0392
2857.00,0.0392
2856.00,0.0391
2855.00,0.0388
2854.00,0.0383
2853.00,0.0378
2852.00,0.0372
2851.00,0.0365
2850.00,0.0358
2849.00,0.0352
2848.00,0.0345
2847.00,0.0338
2846.00,0.0332
2845.00,0.0327
2844.00,0.0321
2843.00,0.0316
2842.00,0.0311
2841.00,0.0307
2840.00,0.0302
2839.00,0.0298
2838.00,0.0294
2837.00,0.0290
2836.00,0.0285
2835.00,0.0280
2834.00,0.0274
2833.00,0.0268
2832.00,0.0261
2831.00,0.0254
2830.00,0.0247
2829.00,0.0240
2828.00,0.0233
2827.00,0.0226
2826.00,0.0219
2825.00,0.0213
2824.00,0.0207
2823.00,0.0202
2822.00,0.0197
2821.00,0.0192
2820.00,0.0188
2819.00,0.0184
2818.00,0.0180
2817.00,0.0176
2816.00,0.0171
2815.00,0.0167
2814.00,0.0163
2813.00,0.0159
2812.00,0.0154
2811.00,0.0149
2810.00,0.0144
2809.00,0.0139
2808.00,0.0134
2807.00,0.0129
2806.00,0.0124
2805.00,0.0119
2804.00,0.0114
2803.00,0.0110
2802.00,0.0106
2801.00,0.0102
2800.00,0.0099
2799.00,0.0097
2798.00,0.0094
2797.00,0.0092
2796.00,0.0090
2795.00,0.0088
2794.00,0.0087
2793.00,0.0085
2792.00,0.0084
2791.00,0.0083
2790.00,0.0081
2789.00,0.0080
2788.00,0.0080
2787.00,0.0079
2786.00,0.0078
2785.00,0.0077
2784.00,0.0076
2783.00,0.0075
2782.00,0.0075
2781.00,0.0074
2780.00,0.0073
2779.00,0.0072
2778.00,0.0071
2777.00,0.0071
2776.00,0.0070
2775.00,0.0069
2774.00,0.0069
2773.00,0.0069
2772.00,0.0068
2771.00,0.0068
2770.00,0.0068
2769.00,0.0068
2768.00,0.0068
2767.00,0.0067
2766.00,0.0067
2765.00,0.0067
2764.00,0.0067
2763.00,0.0066
2762.00,0.0066
2761.00,0.0066
2760.00,0.0066
2759.00,0.0065
2758.00,0.0065
2757.00,0.0065
2756.00,0.0065
2755.00,0.0065
2754.00,0.0065
2753.00,0.0065
2752.00,0.0065
2751.00,0.0065
2750.00,0.0065
2749.00,0.0065
2748.00,0.0065
2747.00,0.0065
2746.00,0.0065
2745.00,0.0066
2744.00,0.0066
2743.00,0.0065
2742.00,0.0065
2741.00,0.0065
2740.00,0.0065
2739.00,0.0065
2738.00,0.0065
2737.00,0.0065
2736.00,0.0065
2735.00,0.0065
2734.00,0.0065
2733.00,0.0065
2732.00,0.0065
2731.00,0.0065
2730.00,0.0065
2729.00,0.0065
2728.00,0.0065
2727.00,0.0065
2726.00,0.0064
2725.00,0.0064
2724.00,0.0064
2723.00,0.0063
2722.00,0.0063
2721.00,0.0062
2720.00,0.0062
2719.00,0.0061
2718.00,0.0061
2717.00,0.0060
2716.00,0.0060
2715.00,0.0059
2714.00,0.0059
2713.00,0.0058
2712.00,0.0058
2711.00,0.0057
2710.00,0.0057
2709.00,0.0057
2708.00,0.0057
2707.00,0.0056
2706.00,0.0056
2705.00,0.0056
2704.00,0.0056
2703.00,0.0055
2702.00,0.0055
2701.00,0.0055
2700.00,0.0055
2699.00,0.0054
2698.00,0.0054
2697.00,0.0054
2696.00,0.0054
2695.00,0.0054
2694.00,0.0054
2693.00,0.0054
2692.00,0.0054
2691.00,0.0054
2690.00,0.0054
2689.00,0.0054
2688.00,0.0054
2687.00,0.0053
2686.00,0.0053
2685.00,0.0053
2684.00,0.0053
2683.00,0.0053
2682.00,0.0053
2681.00,0.0053
2680.00,0.0053
2679.00,0.0053
2678.00,0.0053
2677.00,0.0053
2676.00,0.0053
2675.00,0.0053
2674.00,0.0053
2673.00,0.0053
2672.00,0.0053
2671.00,0.0053
2670.00,0.0053
2669.00,0.0053
2668.00,0.0053
2667.00,0.0053
2666.00,0.0053
2665.00,0.0054
2664.00,0.0054
2663.00,0.0054
2662.00,0.0055
2661.00,0.0055
2660.00,0.0055
2659.00,0.0055
2658.00,0.0055
2657.00,0.0055
2656.00,0.0055
2655.00,0.0055
2654.00,0.0055
2653.00,0.0055
2652.00,0.0054
2651.00,0.0054
2650.00,0.0054
2649.00,0.0054
2648.00,0.0054
2647.00,0.0054
2646.00,0.0054
2645.00,0.0054
2644.00,0.0053
2643.00,0.0053
2642.00,0.0052
2641.00,0.0052
2640.00,0.0052
2639.00,0.0052
2638.00,0.0052
2637.00,0.0052
2636.00,0.0052
2635.00,0.0051
2634.00,0.0051
2633.00,0.0051
2632.00,0.0051
2631.00,0.0051
2630.00,0.0050
2629.00,0.0050
2628.00,0.0050
2627.00,0.0050
2626.00,0.0050
2625.00,0.0049
2624.00,0.0049
2623.00,0.0049
2622.00,0.0049
2621.00,0.0049
2620.00,0.0048
2619.00,0.0048
2618.00,0.0048
2617.00,0.0048
2616.00,0.0048
2615.00,0.0048
2614.00,0.0047
2613.00,0.0047
2612.00,0.0047
2611.00,0.0047
2610.00,0.0047
2609.00,0.0047
2608.00,0.0047
2607.00,0.0047
2606.00,0.0046
2605.00,0.0046
2604.00,0.0046
2603.00,0.0046
2602.00,0.0046
2601.00,0.0046
2600.00,0.0046
2599.00,0.0046
2598.00,0.0046
2597.00,0.0046
2596.00,0.0045
2595.00,0.0045
2594.00,0.0045
2593.00,0.0044
2592.00,0.0044
2591.00,0.0044
2590.00,0.0044
2589.00,0.0044
2588.00,0.0044
2587.00,0.0044
2586.00,0.0043
2585.00,0.0043
2584.00,0.0043
2583.00,0.0043
2582.00,0.0042
2581.00,0.0042
2580.00,0.0042
2579.00,0.0042
2578.00,0.0041
2577.00,0.0042
2576.00,0.0042
2575.00,0.0041
2574.00,0.0041
2573.00,0.0041
2572.00,0.0041
2571.00,0.0041
2570.00,0.0041
2569.00,0.0041
2568.00,0.0040
2567.00,0.0040
2566.00,0.0039
2565.00,0.0039
2564.00,0.0039
2563.00,0.0039
2562.00,0.0039
2561.00,0.0039
2560.00,0.0039
2559.00,0.0039
2558.00,0.0038
2557.00,0.0038
2556.00,0.0038
2555.00,0.0038
2554.00,0.0037
2553.00,0.0037
2552.00,0.0037
2551.00,0.0037
2550.00,0.0037
2549.00,0.0036
2548.00,0.0036
2547.00,0.0036
2546.00,0.0036
2545.00,0.0035
2544.00,0.0035
2543.00,0.0036
2542.00,0.0036
2541.00,0.0036
2540.00,0.0036
2539.00,0.0035
2538.00,0.0035
2537.00,0.0035
2536.00,0.0035
2535.00,0.0035
2534.00,0.0035
2533.00,0.0034
2532.00,0.0034
2531.00,0.0034
2530.00,0.0034
2529.00,0.0034
2528.00,0.0034
2527.00,0.0034
2526.00,0.0034
2525.00,0.0034
2524.00,0.0034
2523.00,0.0034
2522.00,0.0034
2521.00,0.0034
2520.00,0.0033
2519.00,0.0033
2518.00,0.0033
2517.00,0.0034
2516.00,0.0034
2515.00,0.0033
2514.00,0.0033
2513.00,0.0032
2512.00,0.0032
2511.00,0.0033
2510.00,0.0033
2509.00,0.0033
2508.00,0.0033
2507.00,0.0033
2506.00,0.0033
2505.00,0.0033
2504.00,0.0033
2503.00,0.0033
2502.00,0.0032
2501.00,0.0032
2500.00,0.0031
2499.00,0.0031
2498.00,0.0031
2497.00,0.0031
2496.00,0.0032
2495.00,0.0032
2494.00,0.0032
2493.00,0.0032
2492.00,0.0031
2491.00,0.0031
2490.00,0.0031
2489.00,0.0031
2488.00,0.0031
2487.00,0.0031
2486.00,0.0031
2485.00,0.0031
2484.00,0.0031
2483.00,0.0031
2482.00,0.0031
2481.00,0.0031
2480.00,0.0031
2479.00,0.0030
2478.00,0.0030
2477.00,0.0030
2476.00,0.0030
2475.00,0.0030
2474.00,0.0030
2473.00,0.0030
2472.00,0.0030
2471.00,0.0030
2470.00,0.0030
2469.00,0.0030
2468.00,0.0030
2467.00,0.0030
2466.00,0.0030
2465.00,0.0030
2464.00,0.0030
2463.00,0.0030
2462.00,0.0030
2461.00,0.0030
2460.00,0.0031
2459.00,0.0031
2458.00,0.0031
2457.00,0.0031
2456.00,0.0031
2455.00,0.0031
2454.00,0.0030
2453.00,0.0030
2452.00,0.0030
2451.00,0.0030
2450.00,0.0030
2449.00,0.0030
2448.00,0.0030
2447.00,0.0030
2446.00,0.0030
2445.00,0.0030
2444.00,0.0029
2443.00,0.0029
2442.00,0.0028
2441.00,0.0028
2440.00,0.0028
2439.00,0.0028
2438.00,0.0029
2437.00,0.0029
2436.00,0.0028
2435.00,0.0028
2434.00,0.0028
2433.00,0.0028
2432.00,0.0028
2431.00,0.0028
2430.00,0.0028
2429.00,0.0028
2428.00,0.0028
2427.00,0.0027
2426.00,0.0027
2425.00,0.0027
2424.00,0.0027
2423.00,0.0026
2422.00,0.0026
2421.00,0.0026
2420.00,0.0026
2419.00,0.0026
2418.00,0.0026
2417.00,0.0026
2416.00,0.0026
2415.00,0.0026
2414.00,0.0026
2413.00,0.0027
2412.00,0.0027
2411.00,0.0027
2410.00,0.0027
2409.00,0.0026
2408.00,0.0026
2407.00,0.0026
2406.00,0.0025
2405.00,0.0025
2404.00,0.0025
2403.00,0.0025
2402.00,0.0025
2401.00,0.0025
2400.00,0.0025
2399.00,0.0025
2398.00,0.0025
2397.00,0.0025
2396.00,0.0026
2395.00,0.0025
2394.00,0.0025
2393.00,0.0025
2392.00,0.0025
2391.00,0.0025
2390.00,0.0025
2389.00,0.0025
2388.00,0.0025
2387.00,0.0025
2386.00,0.0025
2385.00,0.0024
2384.00,0.0024
2383.00,0.0024
2382.00,0.0024
2381.00,0.0024
2380.00,0.0024
2379.00,0.0024
2378.00,0.0024
2377.00,0.0024
2376.00,0.0024
2375.00,0.0024
2374.00,0.0024
2373.00,0.0024
2372.00,0.0025
2371.00,0.0025
2370.00,0.0024
2369.00,0.0024
2368.00,0.0024
2367.00,0.0024
2366.00,0.0024
2365.00,0.0024
2364.00,0.0025
2363.00,0.0025
2362.00,0.0025
2361.00,0.0025
2360.00,0.0025
2359.00,0.0025
2358.00,0.0025
2357.00,0.0025
2356.00,0.0025
2355.00,0.0024
2354.00,0.0024
2353.00,0.0024
2352.00,0.0024
2351.00,0.0025
2350.00,0.0026
2349.00,0.0026
2348.00,0.0026
2347.00,0.0026
2346.00,0.0027
2345.00,0.0027
2344.00,0.0028
2343.00,0.0028
2342.00,0.0027
2341.00,0.0027
2340.00,0.0027
2339.00,0.0027
2338.00,0.0027
2337.00,0.0027
2336.00,0.0027
2335.00,0.0027
2334.00,0.0026
2333.00,0.0026
2332.00,0.0026
2331.00,0.0026
2330.00,0.0027
2329.00,0.0029
2328.00,0.0032
2327.00,0.0035
2326.00,0.0038
2325.00,0.0039
2324.00,0.0038
2323.00,0.0036
2322.00,0.0035
2321.00,0.0033
2320.00,0.0033
2319.00,0.0032
2318.00,0.0031
2317.00,0.0030
2316.00,0.0030
2315.00,0.0030
2314.00,0.0029
2313.00,0.0029
2312.00,0.0029
2311.00,0.0028
2310.00,0.0028
2309.00,0.0028
2308.00,0.0028
2307.00,0.0028
2306.00,0.0028
2305.00,0.0027
2304.00,0.0027
2303.00,0.0027
2302.00,0.0027
2301.00,0.0027
2300.00,0.0028
2299.00,0.0028
2298.00,0.0029
2297.00,0.0029
2296.00,0.0030
2295.00,0.0030
2294.00,0.0031
2293.00,0.0032
2292.00,0.0033
2291.00,0.0033
2290.00,0.0033
2289.00,0.0033
2288.00,0.0033
2287.00,0.0034
2286.00,0.0034
2285.00,0.0033
2284.00,0.0032
2283.00,0.0031
2282.00,0.0030
2281.00,0.0029
2280.00,0.0029
2279.00,0.0028
2278.00,0.0028
2277.00,0.0028
2276.00,0.0028
2275.00,0.0028
2274.00,0.0028
2273.00,0.0028
2272.00,0.0027
2271.00,0.0027
2270.00,0.0026
2269.00,0.0025
2268.00,0.0025
2267.00,0.0024
2266.00,0.0023
2265.00,0.0023
2264.00,0.0023
2263.00,0.0024
2262.00,0.0024
2261.00,0.0025
2260.00,0.0025
2259.00,0.0025
2258.00,0.0024
2257.00,0.0023
2256.00,0.0022
2255.00,0.0022
2254.00,0.0023
2253.00,0.0023
2252.00,0.0023
2251.00,0.0023
2250.00,0.0023
2249.00,0.0023
2248.00,0.0022
2247.00,0.0022
2246.00,0.0022
2245.00,0.0023
2244.00,0.0024
2243.00,0.0024
2242.00,0.0024
2241.00,0.0023
2240.00,0.0023
2239.00,0.0023
2238.00,0.0023
2237.00,0.0023
2236.00,0.0023
2235.00,0.0024
2234.00,0.0023
2233.00,0.0022
2232.00,0.0021
2231.00,0.0021
2230.00,0.0020
2229.00,0.0021
2228.00,0.0022
2227.00,0.0023
2226.00,0.0023
2225.00,0.0023
2224.00,0.0023
2223.00,0.0023
2222.00,0.0022
2221.00,0.0021
2220.00,0.0021
2219.00,0.0021
2218.00,0.0021
2217.00,0.0022
2216.00,0.0021
2215.00,0.0021
2214.00,0.0020
2213.00,0.0021
2212.00,0.0022
2211.00,0.0022
2210.00,0.0022
2209.00,0.0022
2208.00,0.0021
2207.00,0.0021
2206.00,0.0020
2205.00,0.0020
2204.00,0.0021
2203.00,0.0022
2202.00,0.0022
2201.00,0.0022
2200.00,0.0022
2199.00,0.0021
2198.00,0.0021
2197.00,0.0021
2196.00,0.0021
2195.00,0.0021
2194.00,0.0021
2193.00,0.0021
2192.00,0.0022
2191.00,0.0022
2190.00,0.0023
2189.00,0.0023
2188.00,0.0024
2187.00,0.0024
2186.00,0.0023
2185.00,0.0020
2184.00,0.0018
2183.00,0.0015
2182.00,0.0015
2181.00,0.0016
2180.00,0.0018
2179.00,0.0019
2178.00,0.0018
2177.00,0.0016
2176.00,0.0015
2175.00,0.0015
2174.00,0.0016
2173.00,0.0018
2172.00,0.0020
2171.00,0.0022
2170.00,0.0023
2169.00,0.0024
2168.00,0.0025
2167.00,0.0026
2166.00,0.0027
2165.00,0.0028
2164.00,0.0029
2163.00,0.0028
2162.00,0.0022
2161.00,0.0011
2160.00,-0.0003
2159.00,-0.0013
2158.00,-0.0017
2157.00,-0.0016
2156.00,-0.0011
2155.00,-0.0007
2154.00,-0.0004
2153.00,-0.0003
2152.00,-0.0002
2151.00,-0.0001
2150.00,-0.0000
2149.00,0.0001
2148.00,0.0001
2147.00,0.0002
2146.00,0.0002
2145.00,0.0003
2144.00,0.0005
2143.00,0.0006
2142.00,0.0006
2141.00,0.0006
2140.00,0.0005
2139.00,0.0005
2138.00,0.0004
2137.00,0.0003
2136.00,0.0003
2135.00,0.0002
2134.00,0.0002
2133.00,0.0003
2132.00,0.0004
2131.00,0.0006
2130.00,0.0008
2129.00,0.0010
2128.00,0.0011
2127.00,0.0013
2126.00,0.0014
2125.00,0.0015
2124.00,0.0016
2123.00,0.0016
2122.00,0.0016
2121.00,0.0017
2120.00,0.0018
2119.00,0.0019
2118.00,0.0020
2117.00,0.0021
2116.00,0.0021
2115.00,0.0022
2114.00,0.0022
2113.00,0.0022
2112.00,0.0022
2111.00,0.0022
2110.00,0.0023
2109.00,0.0023
2108.00,0.0023
2107.00,0.0023
2106.00,0.0023
2105.00,0.0023
2104.00,0.0023
2103.00,0.0023
2102.00,0.0023
2101.00,0.0022
2100.00,0.0022
2099.00,0.0022
2098.00,0.0020
2097.00,0.0018
2096.00,0.0016
2095.00,0.0016
2094.00,0.0016
2093.00,0.0018
2092.00,0.0020
2091.00,0.0021
2090.00,0.0021
2089.00,0.0021
2088.00,0.0021
2087.00,0.0022
2086.00,0.0023
2085.00,0.0023
2084.00,0.0023
2083.00,0.0023
2082.00,0.0022
2081.00,0.0021
2080.00,0.0021
2079.00,0.0021
2078.00,0.0021
2077.00,0.0022
2076.00,0.0021
2075.00,0.0021
2074.00,0.0020
2073.00,0.0020
2072.00,0.0020
2071.00,0.0020
2070.00,0.0019
2069.00,0.0019
2068.00,0.0019
2067.00,0.0019
2066.00,0.0020
2065.00,0.0019
2064.00,0.0019
2063.00,0.0019
2062.00,0.0019
2061.00,0.0018
2060.00,0.0018
2059.00,0.0017
2058.00,0.0018
2057.00,0.0019
2056.00,0.0019
2055.00,0.0020
2054.00,0.0021
2053.00,0.0023
2052.00,0.0026
2051.00,0.0026
2050.00,0.0023
2049.00,0.0020
2048.00,0.0018
2047.00,0.0017
2046.00,0.0016
2045.00,0.0016
2044.00,0.0016
2043.00,0.0015
2042.00,0.0013
2041.00,0.0013
2040.00,0.0013
2039.00,0.0014
2038.00,0.0014
2037.00,0.0014
2036.00,0.0012
2035.00,0.0010
2034.00,0.0007
2033.00,0.0005
2032.00,0.0005
2031.00,0.0004
2030.00,0.0004
2029.00,0.0004
2028.00,0.0004
2027.00,0.0004
2026.00,0.0004
2025.00,0.0004
2024.00,0.0004
2023.00,0.0004
2022.00,0.0003
2021.00,0.0003
2020.00,0.0003
2019.00,0.0004
2018.00,0.0004
2017.00,0.0004
2016.00,0.0004
2015.00,0.0004
2014.00,0.0004
2013.00,0.0004
2012.00,0.0005
2011.00,0.0006
2010.00,0.0007
2009.00,0.0007
2008.00,0.0007
2007.00,0.0006
2006.00,0.0004
2005.00,0.0004
2004.00,0.0005
2003.00,0.0007
2002.00,0.0008
2001.00,0.0010
2000.00,0.0010
1999.00,0.0010
1998.00,0.0010
1997.00,0.0009
1996.00,0.0009
1995.00,0.0009
1994.00,0.0010
1993.00,0.0011
1992.00,0.0013
1991.00,0.0014
1990.00,0.0015
1989.00,0.0015
1988.00,0.0014
1987.00,0.0014
1986.00,0.0014
1985.00,0.0015
1984.00,0.0018
1983.00,0.0020
1982.00,0.0022
1981.00,0.0021
1980.00,0.0018
1979.00,0.0012
1978.00,0.0007
1977.00,0.0004
1976.00,0.0004
1975.00,0.0005
1974.00,0.0006
1973.00,0.0005
1972.00,0.0006
1971.00,0.0006
1970.00,0.0005
1969.00,0.0004
1968.00,0.0003
1967.00,0.0004
1966.00,0.0005
1965.00,0.0006
1964.00,0.0006
1963.00,0.0006
1962.00,0.0005
1961.00,0.0004
1960.00,0.0005
1959.00,0.0005
1958.00,0.0005
1957.00,0.0006
1956.00,0.0007
1955.00,0.0008
1954.00,0.0008
1953.00,0.0008
1952.00,0.0009
1951.00,0.0009
1950.00,0.0009
1949.00,0.0009
1948.00,0.0010
1947.00,0.0010
1946.00,0.0010
1945.00,0.0010
1944.00,0.0009
1943.00,0.0009
1942.00,0.0009
1941.00,0.0009
1940.00,0.0009
1939.00,0.0010
1938.00,0.0010
1937.00,0.0010
1936.00,0.0011
1935.00,0.0011
1934.00,0.0012
1933.00,0.0012
1932.00,0.0012
1931.00,0.0011
1930.00,0.0011
1929.00,0.0011
1928.00,0.0011
1927.00,0.0012
1926.00,0.0012
1925.00,0.0012
1924.00,0.0011
1923.00,0.0012
1922.00,0.0012
1921.00,0.0013
1920.00,0.0013
1919.00,0.0013
1918.00,0.0012
1917.00,0.0011
1916.00,0.0011
1915.00,0.0012
1914.00,0.0013
1913.00,0.0013
1912.00,0.0013
1911.00,0.0013
1910.00,0.0013
1909.00,0.0013
1908.00,0.0013
1907.00,0.0013
1906.00,0.0014
1905.00,0.0014
1904.00,0.0013
1903.00,0.0013
1902.00,0.0013
1901.00,0.0013
1900.00,0.0013
1899.00,0.0014
1898.00,0.0014
1897.00,0.0015
1896.00,0.0015
1895.00,0.0014
1894.00,0.0014
1893.00,0.0014
1892.00,0.0013
1891.00,0.0014
1890.00,0.0014
1889.00,0.0014
1888.00,0.0015
1887.00,0.0015
1886.00,0.0015
1885.00,0.0015
1884.00,0.0015
1883.00,0.0015
1882.00,0.0015
1881.00,0.0015
1880.00,0.0016
1879.00,0.0016
1878.00,0.0017
1877.00,0.0017
1876.00,0.0017
1875.00,0.0018
1874.00,0.0017
1873.00,0.0017
1872.00,0.0017
1871.00,0.0017
1870.00,0.0017
1869.00,0.0017
1868.00,0.0018
1867.00,0.0018
1866.00,0.0018
1865.00,0.0018
1864.00,0.0018
1863.00,0.0018
1862.00,0.0018
1861.00,0.0018
1860.00,0.0018
1859.00,0.0018
1858.00,0.0018
1857.00,0.0018
1856.00,0.0018
1855.00,0.0018
1854.00,0.0018
1853.00,0.0018
1852.00,0.0018
1851.00,0.0018
1850.00,0.0018
1849.00,0.0019
1848.00,0.0019
1847.00,0.0019
1846.00,0.0019
1845.00,0.0018
1844.00,0.0018
1843.00,0.0018
1842.00,0.0019
1841.00,0.0019
1840.00,0.0020
1839.00,0.0020
1838.00,0.0019
1837.00,0.0019
1836.00,0.0020
1835.00,0.0020
1834.00,0.0020
1833.00,0.0020
1832.00,0.0020
1831.00,0.0020
1830.00,0.0020
1829.00,0.0020
1828.00,0.0020
1827.00,0.0021
1826.00,0.0021
1825.00,0.0021
1824.00,0.0021
1823.00,0.0021
1822.00,0.0021
1821.00,0.0021
1820.00,0.0021
1819.00,0.0020
1818.00,0.0020
1817.00,0.0020
1816.00,0.0021
1815.00,0.0021
1814.00,0.0022
1813.00,0.0022
1812.00,0.0022
1811.00,0.0023
1810.00,0.0023
1809.00,0.0023
1808.00,0.0023
1807.00,0.0024
1806.00,0.0024
1805.00,0.0024
1804.00,0.0024
1803.00,0.0025
1802.00,0.0025
1801.00,0.0025
1800.00,0.0025
1799.00,0.0025
1798.00,0.0025
1797.00,0.0025
1796.00,0.0025
1795.00,0.0025
1794.00,0.0025
1793.00,0.0025
1792.00,0.0026
1791.00,0.0026
1790.00,0.0026
1789.00,0.0026
1788.00,0.0026
1787.00,0.0026
1786.00,0.0026
1785.00,0.0026
1784.00,0.0026
1783.00,0.0026
1782.00,0.0026
1781.00,0.0027
1780.00,0.0027
1779.00,0.0026
1778.00,0.0026
1777.00,0.0026
1776.00,0.0026
1775.00,0.0026
1774.00,0.0026
1773.00,0.0027
1772.00,0.0027
1771.00,0.0028
1770.00,0.0028
1769.00,0.0028
1768.00,0.0028
1767.00,0.0029
1766.00,0.0029
1765.00,0.0029
1764.00,0.0030
1763.00,0.0030
1762.00,0.0031
1761.00,0.0031
1760.00,0.0031
1759.00,0.0032
1758.00,0.0032
1757.00,0.0033
1756.00,0.0033
1755.00,0.0033
1754.00,0.0034
1753.00,0.0034
1752.00,0.0034
1751.00,0.0034
1750.00,0.0034
1749.00,0.0034
1748.00,0.0034
1747.00,0.0035
1746.00,0.0036
1745.00,0.0036
1744.00,0.0037
1743.00,0.0037
1742.00,0.0037
1741.00,0.0037
1740.00,0.0037
1739.00,0.0037
1738.00,0.0038
1737.00,0.0038
1736.00,0.0039
1735.00,0.0039
1734.00,0.0039
1733.00,0.0039
1732.00,0.0040
1731.00,0.0040
1730.00,0.0041
1729.00,0.0042
1728.00,0.0042
1727.00,0.0042
1726.00,0.0043
1725.00,0.0043
1724.00,0.0043
1723.00,0.0044
1722.00,0.0044
1721.00,0.0044
1720.00,0.0044
1719.00,0.0044
1718.00,0.0044
1717.00,0.0044
1716.00,0.0045
1715.00,0.0045
1714.00,0.0045
1713.00,0.0045
1712.00,0.0046
1711.00,0.0046
1710.00,0.0046
1709.00,0.0046
1708.00,0.0046
1707.00,0.0047
1706.00,0.0047
1705.00,0.0047
1704.00,0.0047
1703.00,0.0048
1702.00,0.0048
1701.00,0.0049
1700.00,0.0050
1699.00,0.0050
1698.00,0.0051
1697.00,0.0052
1696.00,0.0054
1695.00,0.0056
1694.00,0.0058
1693.00,0.0060
1692.00,0.0062
1691.00,0.0063
1690.00,0.0065
1689.00,0.0067
1688.00,0.0068
1687.00,0.0069
1686.00,0.0070
1685.00,0.0072
1684.00,0.0075
1683.00,0.0077
1682.00,0.0079
1681.00,0.0081
1680.00,0.0084
1679.00,0.0086
1678.00,0.0088
1677.00,0.0091
1676.00,0.0094
1675.00,0.0098
1674.00,0.0101
1673.00,0.0104
1672.00,0.0107
1671.00,0.0110
1670.00,0.0113
1669.00,0.0115
1668.00,0.0118
1667.00,0.0120
1666.00,0.0122
1665.00,0.0123
1664.00,0.0124
1663.00,0.0124
1662.00,0.0125
1661.00,0.0125
1660.00,0.0125
1659.00,0.0125
1658.00,0.0124
1657.00,0.0123
1656.00,0.0122
1655.00,0.0121
1654.00,0.0120
1653.00,0.0119
1652.00,0.0118
1651.00,0.0118
1650.00,0.0119
1649.00,0.0119
1648.00,0.0119
1647.00,0.0119
1646.00,0.0120
1645.00,0.0120
1644.00,0.0122
1643.00,0.0124
1642.00,0.0127
1641.00,0.0129
1640.00,0.0133
1639.00,0.0136
1638.00,0.0141
1637.00,0.0147
1636.00,0.0157
1635.00,0.0170
1634.00,0.0182
1633.00,0.0193
1632.00,0.0204
1631.00,0.0216
1630.00,0.0228
1629.00,0.0240
1628.00,0.0252
1627.00,0.0263
1626.00,0.0272
1625.00,0.0278
1624.00,0.0282
1623.00,0.0284
1622.00,0.0283
1621.00,0.0280
1620.00,0.0275
1619.00,0.0269
1618.00,0.0258
1617.00,0.0244
1616.00,0.0229
1615.00,0.0217
1614.00,0.0207
1613.00,0.0200
1612.00,0.0194
1611.00,0.0189
1610.00,0.0186
1609.00,0.0186
1608.00,0.0190
1607.00,0.0197
1606.00,0.0208
1605.00,0.0221
1604.00,0.0238
1603.00,0.0257
1602.00,0.0276
1601.00,0.0294
1600.00,0.0310
1599.00,0.0322
1598.00,0.0329
1597.00,0.0332
1596.00,0.0331
1595.00,0.0326
1594.00,0.0320
1593.00,0.0312
1592.00,0.0306
1591.00,0.0299
1590.00,0.0292
1589.00,0.0285
1588.00,0.0277
1587.00,0.0268
1586.00,0.0257
1585.00,0.0245
1584.00,0.0231
1583.00,0.0218
1582.00,0.0204
1581.00,0.0192
1580.00,0.0181
1579.00,0.0171
1578.00,0.0162
1577.00,0.0152
1576.00,0.0143
1575.00,0.0135
1574.00,0.0129
1573.00,0.0125
1572.00,0.0121
1571.00,0.0117
1570.00,0.0112
1569.00,0.0108
1568.00,0.0104
1567.00,0.0101
1566.00,0.0099
1565.00,0.0097
1564.00,0.0094
1563.00,0.0092
1562.00,0.0091
1561.00,0.0089
1560.00,0.0088
1559.00,0.0086
1558.00,0.0084
1557.00,0.0083
1556.00,0.0083
1555.00,0.0083
1554.00,0.0083
1553.00,0.0083
1552.00,0.0083
1551.00,0.0083
1550.00,0.0083
1549.00,0.0084
1548.00,0.0084
1547.00,0.0085
1546.00,0.0086
1545.00,0.0087
1544.00,0.0087
1543.00,0.0088
1542.00,0.0090
1541.00,0.0092
1540.00,0.0095
1539.00,0.0098
1538.00,0.0101
1537.00,0.0103
1536.00,0.0104
1535.00,0.0105
1534.00,0.0106
1533.00,0.0107
1532.00,0.0107
1531.00,0.0107
1530.00,0.0107
1529.00,0.0107
1528.00,0.0107
1527.00,0.0107
1526.00,0.0107
1525.00,0.0108
1524.00,0.0109
1523.00,0.0110
1522.00,0.0112
1521.00,0.0113
1520.00,0.0114
1519.00,0.0115
1518.00,0.0115
1517.00,0.0114
1516.00,0.0114
1515.00,0.0113
1514.00,0.0111
1513.00,0.0110
1512.00,0.0108
1511.00,0.0107
1510.00,0.0105
1509.00,0.0104
1508.00,0.0102
1507.00,0.0099
1506.00,0.0097
1505.00,0.0096
1504.00,0.0097
1503.00,0.0097
1502.00,0.0098
1501.00,0.0098
1500.00,0.0099
1499.00,0.0099
1498.00,0.0100
1497.00,0.0101
1496.00,0.0102
1495.00,0.0103
1494.00,0.0104
1493.00,0.0105
1492.00,0.0107
1491.00,0.0109
1490.00,0.0111
1489.00,0.0113
1488.00,0.0116
1487.00,0.0120
1486.00,0.0124
1485.00,0.0128
1484.00,0.0134
1483.00,0.0140
1482.00,0.0147
1481.00,0.0156
1480.00,0.0165
1479.00,0.0174
1478.00,0.0183
1477.00,0.0193
1476.00,0.0204
1475.00,0.0215
1474.00,0.0228
1473.00,0.0244
1472.00,0.0263
1471.00,0.0281
1470.00,0.0297
1469.00,0.0311
1468.00,0.0324
1467.00,0.0336
1466.00,0.0347
1465.00,0.0358
1464.00,0.0370
1463.00,0.0381
1462.00,0.0392
1461.00,0.0403
1460.00,0.0414
1459.00,0.0426
1458.00,0.0441
1457.00,0.0458
1456.00,0.0473
1455.00,0.0486
1454.00,0.0497
1453.00,0.0509
1452.00,0.0521
1451.00,0.0533
1450.00,0.0545
1449.00,0.0556
1448.00,0.0566
1447.00,0.0574
1446.00,0.0582
1445.00,0.0589
1444.00,0.0596
1443.00,0.0602
1442.00,0.0608
1441.00,0.0615
1440.00,0.0622
1439.00,0.0629
1438.00,0.0637
1437.00,0.0648
1436.00,0.0661
1435.00,0.0674
1434.00,0.0689
1433.00,0.0704
1432.00,0.0717
1431.00,0.0724
1430.00,0.0724
1429.00,0.0714
1428.00,0.0694
1427.00,0.0666
1426.00,0.0632
1425.00,0.0593
1424.00,0.0550
1423.00,0.0510
1422.00,0.0477
1421.00,0.0448
1420.00,0.0420
1419.00,0.0394
1418.00,0.0372
1417.00,0.0357
1416.00,0.0347
1415.00,0.0339
1414.00,0.0332
1413.00,0.0326
1412.00,0.0321
1411.00,0.0317
1410.00,0.0314
1409.00,0.0311
1408.00,0.0308
1407.00,0.0305
1406.00,0.0303
1405.00,0.0301
1404.00,0.0300
1403.00,0.0298
1402.00,0.0298
1401.00,0.0298
1400.00,0.0299
1399.00,0.0301
1398.00,0.0304
1397.00,0.0308
1396.00,0.0312
1395.00,0.0318
1394.00,0.0325
1393.00,0.0333
1392.00,0.0342
1391.00,0.0352
1390.00,0.0364
1389.00,0.0379
1388.00,0.0396
1387.00,0.0417
1386.00,0.0439
1385.00,0.0460
1384.00,0.0480
1383.00,0.0501
1382.00,0.0520
1381.00,0.0538
1380.00,0.0553
1379.00,0.0568
1378.00,0.0580
1377.00,0.0588
1376.00,0.0591
1375.00,0.0589
1374.00,0.0582
1373.00,0.0572
1372.00,0.0561
1371.00,0.0551
1370.00,0.0540
1369.00,0.0530
1368.00,0.0520
1367.00,0.0510
1366.00,0.0501
1365.00,0.0492
1364.00,0.0483
1363.00,0.0473
1362.00,0.0465
1361.00,0.0458
1360.00,0.0452
1359.00,0.0447
1358.00,0.0445
1357.00,0.0443
1356.00,0.0443
1355.00,0.0444
1354.00,0.0446
1353.00,0.0448
1352.00,0.0450
1351.00,0.0452
1350.00,0.0453
1349.00,0.0454
1348.00,0.0454
1347.00,0.0454
1346.00,0.0453
1345.00,0.0453
1344.00,0.0453
1343.00,0.0453
1342.00,0.0454
1341.00,0.0455
1340.00,0.0456
1339.00,0.0458
1338.00,0.0458
1337.00,0.0459
1336.00,0.0458
1335.00,0.0457
1334.00,0.0454
1333.00,0.0450
1332.00,0.0446
1331.00,0.0440
1330.00,0.0434
1329.00,0.0429
1328.00,0.0424
1327.00,0.0420
1326.00,0.0418
1325.00,0.0416
1324.00,0.0415
1323.00,0.0416
1322.00,0.0418
1321.00,0.0421
1320.00,0.0424
1319.00,0.0428
1318.00,0.0432
1317.00,0.0436
1316.00,0.0440
1315.00,0.0442
1314.00,0.0445
1313.00,0.0446
1312.00,0.0446
1311.00,0.0444
1310.00,0.0442
1309.00,0.0439
1308.00,0.0434
1307.00,0.0429
1306.00,0.0424
1305.00,0.0418
1304.00,0.0412
1303.00,0.0407
1302.00,0.0401
1301.00,0.0396
1300.00,0.0392
1299.00,0.0388
1298.00,0.0385
1297.00,0.0383
1296.00,0.0382
1295.00,0.0381
1294.00,0.0381
1293.00,0.0381
1292.00,0.0380
1291.00,0.0379
1290.00,0.0377
1289.00,0.0375
1288.00,0.0373
1287.00,0.0370
1286.00,0.0366
1285.00,0.0362
1284.00,0.0357
1283.00,0.0353
1282.00,0.0349
1281.00,0.0344
1280.00,0.0341
1279.00,0.0337
1278.00,0.0335
1277.00,0.0333
1276.00,0.0331
1275.00,0.0331
1274.00,0.0330
1273.00,0.0331
1272.00,0.0331
1271.00,0.0332
1270.00,0.0332
1269.00,0.0332
1268.00,0.0332
1267.00,0.0331
1266.00,0.0330
1265.00,0.0328
1264.00,0.0325
1263.00,0.0322
1262.00,0.0319
1261.00,0.0316
1260.00,0.0312
1259.00,0.0308
1258.00,0.0305
1257.00,0.0301
1256.00,0.0297
1255.00,0.0293
1254.00,0.0289
1253.00,0.0285
1252.00,0.0281
1251.00,0.0276
1250.00,0.0272
1249.00,0.0268
1248.00,0.0264
1247.00,0.0260
1246.00,0.0257
1245.00,0.0254
1244.00,0.0252
1243.00,0.0250
1242.00,0.0249
1241.00,0.0248
1240.00,0.0248
1239.00,0.0249
1238.00,0.0252
1237.00,0.0256
1236.00,0.0261
1235.00,0.0267
1234.00,0.0275
1233.00,0.0284
1232.00,0.0294
1231.00,0.0303
1230.00,0.0312
1229.00,0.0320
1228.00,0.0327
1227.00,0.0333
1226.00,0.0338
1225.00,0.0344
1224.00,0.0350
1223.00,0.0356
1222.00,0.0364
1221.00,0.0372
1220.00,0.0381
1219.00,0.0389
1218.00,0.0398
1217.00,0.0406
1216.00,0.0412
1215.00,0.0416
1214.00,0.0419
1213.00,0.0420
1212.00,0.0419
1211.00,0.0417
1210.00,0.0416
1209.00,0.0415
1208.00,0.0415
1207.00,0.0415
1206.00,0.0417
1205.00,0.0419
1204.00,0.0422
1203.00,0.0426
1202.00,0.0430
1201.00,0.0433
1200.00,0.0436
1199.00,0.0438
1198.00,0.0439
1197.00,0.0439
1196.00,0.0439
1195.00,0.0438
1194.00,0.0437
1193.00,0.0437
1192.00,0.0437
1191.00,0.0436
1190.00,0.0434
1189.00,0.0432
1188.00,0.0429
1187.00,0.0426
1186.00,0.0424
1185.00,0.0422
1184.00,0.0422
1183.00,0.0424
1182.00,0.0427
1181.00,0.0433
1180.00,0.0440
1179.00,0.0448
1178.00,0.0457
1177.00,0.0468
1176.00,0.0479
1175.00,0.0491
1174.00,0.0505
1173.00,0.0519
1172.00,0.0535
1171.00,0.0553
1170.00,0.0571
1169.00,0.0591
1168.00,0.0612
1167.00,0.0633
1166.00,0.0655
1165.00,0.0676
1164.00,0.0697
1163.00,0.0718
1162.00,0.0738
1161.00,0.0758
1160.00,0.0777
1159.00,0.0797
1158.00,0.0817
1157.00,0.0837
1156.00,0.0856
1155.00,0.0874
1154.00,0.0890
1153.00,0.0904
1152.00,0.0915
1151.00,0.0923
1150.00,0.0929
1149.00,0.0932
1148.00,0.0933
1147.00,0.0933
1146.00,0.0931
1145.00,0.0930
1144.00,0.0929
1143.00,0.0931
1142.00,0.0935
1141.00,0.0942
1140.00,0.0950
1139.00,0.0961
1138.00,0.0975
1137.00,0.0990
1136.00,0.1008
1135.00,0.1029
1134.00,0.1052
1133.00,0.1078
1132.00,0.1105
1131.00,0.1133
1130.00,0.1163
1129.00,0.1192
1128.00,0.1222
1127.00,0.1251
1126.00,0.1279
1125.00,0.1305
1124.00,0.1329
1123.00,0.1350
1122.00,0.1370
1121.00,0.1388
1120.00,0.1404
1119.00,0.1418
1118.00,0.1430
1117.00,0.1441
1116.00,0.1450
1115.00,0.1458
1114.00,0.1465
1113.00,0.1471
1112.00,0.1476
1111.00,0.1479
1110.00,0.1481
1109.00,0.1482
1108.00,0.1481
1107.00,0.1480
1106.00,0.1478
1105.00,0.1476
1104.00,0.1475
1103.00,0.1474
1102.00,0.1475
1101.00,0.1476
1100.00,0.1478
1099.00,0.1482
1098.00,0.1487
1097.00,0.1493
1096.00,0.1500
1095.00,0.1507
1094.00,0.1516
1093.00,0.1526
1092.00,0.1537
1091.00,0.1551
1090.00,0.1567
1089.00,0.1586
1088.00,0.1609
1087.00,0.1636
1086.00,0.1665
1085.00,0.1696
1084.00,0.1729
1083.00,0.1761
1082.00,0.1794
1081.00,0.1825
1080.00,0.1854
1079.00,0.1881
1078.00,0.1905
1077.00,0.1928
1076.00,0.1947
1075.00,0.1966
1074.00,0.1982
1073.00,0.1998
1072.00,0.2012
1071.00,0.2024
1070.00,0.2036
1069.00,0.2047
1068.00,0.2057
1067.00,0.2067
1066.00,0.2078
1065.00,0.2088
1064.00,0.2099
1063.00,0.2109
1062.00,0.2119
1061.00,0.2129
1060.00,0.2138
1059.00,0.2146
1058.00,0.2153
1057.00,0.2159
1056.00,0.2165
1055.00,0.2172
1054.00,0.2181
1053.00,0.2193
1052.00,0.2208
1051.00,0.2226
1050.00,0.2247
1049.00,0.2268
1048.00,0.2287
1047.00,0.2303
1046.00,0.2313
1045.00,0.2318
1044.00,0.2316
1043.00,0.2309
1042.00,0.2297
1041.00,0.2282
1040.00,0.2265
1039.00,0.2246
1038.00,0.2226
1037.00,0.2206
1036.00,0.2186
1035.00,0.2166
1034.00,0.2146
1033.00,0.2126
1032.00,0.2105
1031.00,0.2084
1030.00,0.2063
1029.00,0.2043
1028.00,0.2023
1027.00,0.2004
1026.00,0.1984
1025.00,0.1963
1024.00,0.1941
1023.00,0.1918
1022.00,0.1894
1021.00,0.1869
1020.00,0.1842
1019.00,0.1812
1018.00,0.1781
1017.00,0.1749
1016.00,0.1714
1015.00,0.1679
1014.00,0.1644
1013.00,0.1608
1012.00,0.1571
1011.00,0.1534
1010.00,0.1497
1009.00,0.1460
1008.00,0.1422
1007.00,0.1385
1006.00,0.1349
1005.00,0.1312
1004.00,0.1276
1003.00,0.1240
1002.00,0.1207
1001.00,0.1174
1000.00,0.1142
999.00,0.1110
998.00,0.1079
997.00,0.1047
996.00,0.1017
995.00,0.0987
994.00,0.0960
993.00,0.0934
992.00,0.0909
991.00,0.0887
990.00,0.0867
989.00,0.0850
988.00,0.0833
987.00,0.0817
986.00,0.0801
985.00,0.0783
984.00,0.0764
983.00,0.0745
982.00,0.0727
981.00,0.0709
980.00,0.0692
979.00,0.0676
978.00,0.0663
977.00,0.0651
976.00,0.0640
975.00,0.0629
974.00,0.0620
973.00,0.0612
972.00,0.0605
971.00,0.0599
970.00,0.0595
969.00,0.0593
968.00,0.0593
967.00,0.0595
966.00,0.0601
965.00,0.0610
964.00,0.0621
963.00,0.0634
962.00,0.0650
961.00,0.0667
960.00,0.0685
959.00,0.0703
958.00,0.0721
957.00,0.0740
956.00,0.0757
955.00,0.0774
954.00,0.0790
953.00,0.0805
952.00,0.0818
951.00,0.0830
950.00,0.0840
949.00,0.0848
948.00,0.0853
947.00,0.0856
946.00,0.0856
945.00,0.0852
944.00,0.0844
943.00,0.0831
942.00,0.0816
941.00,0.0797
940.00,0.0775
939.00,0.0753
938.00,0.0731
937.00,0.0711
936.00,0.0693
935.00,0.0678
934.00,0.0665
933.00,0.0655
932.00,0.0645
931.00,0.0637
930.00,0.0628
929.00,0.0619
928.00,0.0609
927.00,0.0598
926.00,0.0586
925.00,0.0574
924.00,0.0562
923.00,0.0550
922.00,0.0539
921.00,0.0528
920.00,0.0519
919.00,0.0511
918.00,0.0505
917.00,0.0500
916.00,0.0496
915.00,0.0494
914.00,0.0494
913.00,0.0495
912.00,0.0497
911.00,0.0500
910.00,0.0504
909.00,0.0507
908.00,0.0507
907.00,0.0506
906.00,0.0503
905.00,0.0496
904.00,0.0487
903.00,0.0476
902.00,0.0465
901.00,0.0453
900.00,0.0442
899.00,0.0433
898.00,0.0426
897.00,0.0421
896.00,0.0417
895.00,0.0414
894.00,0.0413
893.00,0.0411
892.00,0.0409
891.00,0.0407
890.00,0.0404
889.00,0.0400
888.00,0.0395
887.00,0.0390
886.00,0.0383
885.00,0.0376
884.00,0.0366
883.00,0.0355
882.00,0.0345
881.00,0.0335
880.00,0.0325
879.00,0.0316
878.00,0.0309
877.00,0.0303
876.00,0.0297
875.00,0.0292
874.00,0.0288
873.00,0.0285
872.00,0.0283
871.00,0.0281
870.00,0.0281
869.00,0.0282
868.00,0.0283
867.00,0.0286
866.00,0.0290
865.00,0.0295
864.00,0.0300
863.00,0.0306
862.00,0.0313
861.00,0.0321
860.00,0.0330
859.00,0.0340
858.00,0.0351
857.00,0.0362
856.00,0.0373
855.00,0.0384
854.00,0.0395
853.00,0.0404
852.00,0.0412
851.00,0.0418
850.00,0.0424
849.00,0.0428
848.00,0.0430
847.00,0.0432
846.00,0.0435
845.00,0.0438
844.00,0.0440
843.00,0.0444
842.00,0.0448
841.00,0.0453
840.00,0.0458
839.00,0.0463
838.00,0.0468
837.00,0.0474
836.00,0.0479
835.00,0.0484
834.00,0.0489
833.00,0.0494
832.00,0.0498
831.00,0.0501
830.00,0.0505
829.00,0.0508
828.00,0.0510
827.00,0.0510
826.00,0.0510
825.00,0.0507
824.00,0.0501
823.00,0.0492
822.00,0.0483
821.00,0.0471
820.00,0.0458
819.00,0.0445
818.00,0.0432
817.00,0.0418
816.00,0.0404
815.00,0.0391
814.00,0.0379
813.00,0.0367
812.00,0.0355
811.00,0.0344
810.00,0.0335
809.00,0.0327
808.00,0.0318
807.00,0.0311
806.00,0.0305
805.00,0.0300
804.00,0.0295
803.00,0.0292
802.00,0.0289
801.00,0.0287
800.00,0.0285
799.00,0.0285
798.00,0.0288
797.00,0.0290
796.00,0.0293
795.00,0.0296
794.00,0.0298
793.00,0.0300
792.00,0.0300
791.00,0.0300
790.00,0.0300
789.00,0.0300
788.00,0.0299
787.00,0.0299
786.00,0.0300
785.00,0.0301
784.00,0.0302
783.00,0.0304
782.00,0.0306
781.00,0.0309
780.00,0.0311
779.00,0.0314
778.00,0.0316
777.00,0.0318
776.00,0.0319
775.00,0.0319
774.00,0.0318
773.00,0.0317
772.00,0.0314
771.00,0.0311
770.00,0.0309
769.00,0.0305
768.00,0.0301
767.00,0.0298
766.00,0.0296
765.00,0.0294
764.00,0.0291
763.00,0.0289
762.00,0.0289
761.00,0.0289
760.00,0.0289
759.00,0.0290
758.00,0.0292
757.00,0.0294
756.00,0.0296
755.00,0.0299
754.00,0.0303
753.00,0.0307
752.00,0.0311
751.00,0.0315
750.00,0.0320
749.00,0.0326
748.00,0.0330
747.00,0.0334
746.00,0.0338
745.00,0.0341
744.00,0.0344
743.00,0.0348
742.00,0.0352
741.00,0.0356
740.00,0.0359
739.00,0.0363
738.00,0.0368
737.00,0.0372
736.00,0.0374
735.00,0.0376
734.00,0.0378
733.00,0.0379
732.00,0.0379
731.00,0.0377
730.00,0.0375
729.00,0.0371
728.00,0.0367
727.00,0.0362
726.00,0.0358
725.00,0.0354
724.00,0.0349
723.00,0.0344
722.00,0.0341
721.00,0.0338
720.00,0.0336
719.00,0.0335
718.00,0.0335
717.00,0.0336
716.00,0.0337
715.00,0.0339
714.00,0.0342
713.00,0.0346
712.00,0.0348
711.00,0.0350
710.00,0.0354
709.00,0.0357
708.00,0.0359
707.00,0.0361
706.00,0.0364
705.00,0.0366
704.00,0.0367
703.00,0.0368
702.00,0.0370
701.00,0.0372
700.00,0.0373
699.00,0.0374
698.00,0.0375
697.00,0.0376
696.00,0.0376
695.00,0.0377
694.00,0.0379
693.00,0.0380
692.00,0.0381
691.00,0.0383
690.00,0.0386
689.00,0.0389
688.00,0.0391
687.00,0.0394
686.00,0.0399
685.00,0.0403
684.00,0.0408
683.00,0.0413
682.00,0.0419
681.00,0.0427
680.00,0.0435
679.00,0.0445
678.00,0.0455
677.00,0.0466
676.00,0.0476
675.00,0.0487
674.00,0.0499
673.00,0.0510
672.00,0.0521
671.00,0.0531
670.00,0.0541
669.00,0.0553
668.00,0.0566
667.00,0.0578
666.00,0.0587
665.00,0.0593
664.00,0.0598
663.00,0.0604
662.00,0.0610
661.00,0.0616
660.00,0.0619
659.00,0.0622
658.00,0.0625
657.00,0.0627
656.00,0.0627
655.00,0.0628
654.00,0.0628
653.00,0.0627
652.00,0.0625
651.00,0.0623
650.00,0.0622
649.00,0.0621
648.00,0.0619
647.00,0.0617
646.00,0.0616
645.00,0.0614
644.00,0.0612
643.00,0.0610
642.00,0.0609
641.00,0.0608
640.00,0.0607
639.00,0.0606
638.00,0.0606
637.00,0.0607
636.00,0.0607
635.00,0.0607
634.00,0.0608
633.00,0.0611
632.00,0.0613
631.00,0.0616
630.00,0.0620
629.00,0.0623
628.00,0.0625
627.00,0.0627
626.00,0.0632
625.00,0.0637
624.00,0.0642
623.00,0.0646
622.00,0.0652
621.00,0.0658
620.00,0.0661
619.00,0.0666
618.00,0.0671
617.00,0.0676
616.00,0.0681
615.00,0.0685
614.00,0.0691
613.00,0.0696
612.00,0.0700
611.00,0.0704
610.00,0.0709
609.00,0.0714
608.00,0.0719
607.00,0.0725
606.00,0.0733
605.00,0.0740
604.00,0.0746
603.00,0.0751
602.00,0.0757
601.00,0.0761
600.00,0.0764
599.00,0.0768
598.00,0.0773
597.00,0.0779
596.00,0.0784
595.00,0.0789
594.00,0.0796
593.00,0.0802
592.00,0.0806
591.00,0.0811
590.00,0.0817
589.00,0.0822
588.00,0.0824
587.00,0.0827
586.00,0.0831
585.00,0.0837
584.00,0.0843
583.00,0.0849
582.00,0.0855
581.00,0.0859
580.00,0.0862
579.00,0.0863
578.00,0.0865
577.00,0.0866
576.00,0.0864
575.00,0.0863
574.00,0.0864
573.00,0.0865
572.00,0.0863
571.00,0.0862
570.00,0.0862
569.00,0.0862
568.00,0.0861
567.00,0.0861
566.00,0.0863
565.00,0.0863
564.00,0.0860
563.00,0.0855
562.00,0.0851
561.00,0.0847
560.00,0.0840
559.00,0.0834
558.00,0.0830
557.00,0.0825
556.00,0.0819
555.00,0.0814
554.00,0.0812
553.00,0.0810
552.00,0.0809
551.00,0.0809
550.00,0.0811
549.00,0.0812
548.00,0.0811
547.00,0.0811
546.00,0.0814
545.00,0.0817
544.00,0.0819
543.00,0.0819
542.00,0.0821
541.00,0.0822
540.00,0.0820
539.00,0.0818
538.00,0.0819
537.00,0.0820
536.00,0.0820
535.00,0.0819
534.00,0.0819
533.00,0.0818
532.00,0.0816
531.00,0.0816
530.00,0.0818
529.00,0.0819
528.00,0.0817
527.00,0.0813
526.00,0.0812
525.00,0.0811
524.00,0.0810
523.00,0.0809
522.00,0.0810
521.00,0.0811
520.00,0.0809
519.00,0.0809
518.00,0.0811
517.00,0.0812
516.00,0.0809
515.00,0.0806
514.00,0.0806
513.00,0.0805
512.00,0.0801
511.00,0.0798
510.00,0.0799
509.00,0.0801
508.00,0.0801
507.00,0.0802
506.00,0.0804
505.00,0.0805
504.00,0.0802
503.00,0.0799
502.00,0.0799
501.00,0.0799
500.00,0.0797
499.00,0.0796
498.00,0.0798
497.00,0.0800
496.00,0.0798
495.00,0.0798
494.00,0.0801
493.00,0.0804
492.00,0.0803
491.00,0.0801
490.00,0.0801
489.00,0.0802
488.00,0.0800
487.00,0.0801
486.00,0.0806
485.00,0.0811
484.00,0.0810
483.00,0.0808
482.00,0.0809
481.00,0.0812
480.00,0.0813
479.00,0.0814
478.00,0.0818
477.00,0.0821
476.00,0.0821
475.00,0.0821
474.00,0.0827
473.00,0.0830
472.00,0.0829
471.00,0.0826
470.00,0.0827
469.00,0.0827
468.00,0.0823
467.00,0.0819
466.00,0.0820
465.00,0.0821
464.00,0.0820
463.00,0.0819
462.00,0.0823
461.00,0.0825
460.00,0.0822
459.00,0.0819
458.00,0.0822
457.00,0.0824
456.00,0.0819
455.00,0.0813
454.00,0.0812
453.00,0.0812
452.00,0.0808
451.00,0.0804
450.00,0.0803
449.00,0.0800
448.00,0.0791
447.00,0.0783
446.00,0.0781
445.00,0.0778
444.00,0.0771
443.00,0.0764
442.00,0.0762
441.00,0.0758
440.00,0.0750
439.00,0.0744
438.00,0.0744
437.00,0.0744
436.00,0.0738
435.00,0.0731
434.00,0.0728
433.00,0.0724
432.00,0.0716
431.00,0.0712
430.00,0.0715
429.00,0.0716
428.00,0.0709
427.00,0.0704
426.00,0.0707
425.00,0.0707
424.00,0.0697
423.00,0.0688
422.00,0.0690
421.00,0.0694
420.00,0.0688
419.00,0.0678
418.00,0.0675
417.00,0.0669
416.00,0.0655
415.00,0.0647
414.00,0.0651
413.00,0.0656
412.00,0.0648
411.00,0.0641
410.00,0.0647
409.00,0.0653
408.00,0.0650
407.00,0.0650
406.00,0.0662
405.00,0.0672
404.00,0.0665
403.00,0.0655
402.00,0.0656
401.00,0.0652
400.00,0.0632
