Created as New Dataset,Sample 238 By YargerLab Date Sunday, October 05 2025
cm-1,A
4000.00,0.0015
3999.00,0.0015
3998.00,0.0015
3997.00,0.0015
3996.00,0.0015
3995.00,0.0015
3994.00,0.0015
3993.00,0.0015
3992.00,0.0015
3991.00,0.0015
3990.00,0.0015
3989.00,0.0014
3988.00,0.0014
3987.00,0.0014
3986.00,0.0014
3985.00,0.0015
3984.00,0.0015
3983.00,0.0015
3982.00,0.0015
3981.00,0.0015
3980.00,0.0015
3979.00,0.0015
3978.00,0.0015
3977.00,0.0014
3976.00,0.0014
3975.00,0.0014
3974.00,0.0015
3973.00,0.0015
3972.00,0.0015
3971.00,0.0015
3970.00,0.0015
3969.00,0.0015
3968.00,0.0015
3967.00,0.0015
3966.00,0.0015
3965.00,0.0015
3964.00,0.0015
3963.00,0.0015
3962.00,0.0015
3961.00,0.0015
3960.00,0.0015
3959.00,0.0015
3958.00,0.0015
3957.00,0.0015
3956.00,0.0015
3955.00,0.0014
3954.00,0.0014
3953.00,0.0014
3952.00,0.0014
3951.00,0.0014
3950.00,0.0014
3949.00,0.0014
3948.00,0.0014
3947.00,0.0014
3946.00,0.0014
3945.00,0.0014
3944.00,0.0014
3943.00,0.0014
3942.00,0.0014
3941.00,0.0014
3940.00,0.0014
3939.00,0.0014
3938.00,0.0014
3937.00,0.0014
3936.00,0.0014
3935.00,0.0014
3934.00,0.0014
3933.00,0.0014
3932.00,0.0014
3931.00,0.0015
3930.00,0.0015
3929.00,0.0015
3928.00,0.0015
3927.00,0.0015
3926.00,0.0015
3925.00,0.0015
3924.00,0.0014
3923.00,0.0014
3922.00,0.0014
3921.00,0.0014
3920.00,0.0014
3919.00,0.0014
3918.00,0.0014
3917.00,0.0014
3916.00,0.0014
3915.00,0.0014
3914.00,0.0014
3913.00,0.0014
3912.00,0.0014
3911.00,0.0014
3910.00,0.0014
3909.00,0.0014
3908.00,0.0014
3907.00,0.0015
3906.00,0.0015
3905.00,0.0016
3904.00,0.0016
3903.00,0.0016
3902.00,0.0016
3901.00,0.0016
3900.00,0.0016
3899.00,0.0016
3898.00,0.0015
3897.00,0.0015
3896.00,0.0015
3895.00,0.0015
3894.00,0.0015
3893.00,0.0015
3892.00,0.0015
3891.00,0.0015
3890.00,0.0015
3889.00,0.0016
3888.00,0.0016
3887.00,0.0016
3886.00,0.0016
3885.00,0.0016
3884.00,0.0016
3883.00,0.0016
3882.00,0.0016
3881.00,0.0016
3880.00,0.0015
3879.00,0.0015
3878.00,0.0015
3877.00,0.0015
3876.00,0.0015
3875.00,0.0015
3874.00,0.0015
3873.00,0.0015
3872.00,0.0016
3871.00,0.0016
3870.00,0.0016
3869.00,0.0016
3868.00,0.0017
3867.00,0.0017
3866.00,0.0017
3865.00,0.0017
3864.00,0.0017
3863.00,0.0016
3862.00,0.0016
3861.00,0.0015
3860.00,0.0015
3859.00,0.0015
3858.00,0.0016
3857.00,0.0017
3856.00,0.0018
3855.00,0.0019
3854.00,0.0019
3853.00,0.0019
3852.00,0.0019
3851.00,0.0020
3850.00,0.0019
3849.00,0.0018
3848.00,0.0017
3847.00,0.0016
3846.00,0.0016
3845.00,0.0015
3844.00,0.0015
3843.00,0.0015
3842.00,0.0016
3841.00,0.0017
3840.00,0.0017
3839.00,0.0018
3838.00,0.0018
3837.00,0.0018
3836.00,0.0018
3835.00,0.0018
3834.00,0.0018
3833.00,0.0018
3832.00,0.0017
3831.00,0.0017
3830.00,0.0016
3829.00,0.0016
3828.00,0.0016
3827.00,0.0015
3826.00,0.0015
3825.00,0.0016
3824.00,0.0016
3823.00,0.0017
3822.00,0.0017
3821.00,0.0017
3820.00,0.0017
3819.00,0.0018
3818.00,0.0018
3817.00,0.0017
3816.00,0.0017
3815.00,0.0017
3814.00,0.0017
3813.00,0.0016
3812.00,0.0016
3811.00,0.0016
3810.00,0.0016
3809.00,0.0016
3808.00,0.0015
3807.00,0.0015
3806.00,0.0015
3805.00,0.0016
3804.00,0.0017
3803.00,0.0017
3802.00,0.0017
3801.00,0.0017
3800.00,0.0017
3799.00,0.0017
3798.00,0.0016
3797.00,0.0016
3796.00,0.0016
3795.00,0.0015
3794.00,0.0014
3793.00,0.0014
3792.00,0.0013
3791.00,0.0013
3790.00,0.0013
3789.00,0.0013
3788.00,0.0013
3787.00,0.0013
3786.00,0.0013
3785.00,0.0013
3784.00,0.0013
3783.00,0.0013
3782.00,0.0013
3781.00,0.0013
3780.00,0.0013
3779.00,0.0013
3778.00,0.0013
3777.00,0.0013
3776.00,0.0013
3775.00,0.0013
3774.00,0.0013
3773.00,0.0013
3772.00,0.0013
3771.00,0.0013
3770.00,0.0013
3769.00,0.0013
3768.00,0.0014
3767.00,0.0014
3766.00,0.0014
3765.00,0.0014
3764.00,0.0014
3763.00,0.0014
3762.00,0.0014
3761.00,0.0014
3760.00,0.0014
3759.00,0.0014
3758.00,0.0014
3757.00,0.0015
3756.00,0.0015
3755.00,0.0016
3754.00,0.0016
3753.00,0.0017
3752.00,0.0017
3751.00,0.0017
3750.00,0.0018
3749.00,0.0018
3748.00,0.0019
3747.00,0.0020
3746.00,0.0020
3745.00,0.0019
3744.00,0.0018
3743.00,0.0018
3742.00,0.0017
3741.00,0.0016
3740.00,0.0016
3739.00,0.0015
3738.00,0.0015
3737.00,0.0014
3736.00,0.0014
3735.00,0.0015
3734.00,0.0015
3733.00,0.0015
3732.00,0.0014
3731.00,0.0014
3730.00,0.0014
3729.00,0.0014
3728.00,0.0014
3727.00,0.0013
3726.00,0.0013
3725.00,0.0013
3724.00,0.0012
3723.00,0.0012
3722.00,0.0012
3721.00,0.0012
3720.00,0.0012
3719.00,0.0012
3718.00,0.0012
3717.00,0.0012
3716.00,0.0012
3715.00,0.0012
3714.00,0.0013
3713.00,0.0013
3712.00,0.0013
3711.00,0.0013
3710.00,0.0014
3709.00,0.0014
3708.00,0.0014
3707.00,0.0014
3706.00,0.0013
3705.00,0.0013
3704.00,0.0012
3703.00,0.0012
3702.00,0.0011
3701.00,0.0011
3700.00,0.0011
3699.00,0.0012
3698.00,0.0012
3697.00,0.0011
3696.00,0.0011
3695.00,0.0011
3694.00,0.0012
3693.00,0.0012
3692.00,0.0013
3691.00,0.0014
3690.00,0.0014
3689.00,0.0015
3688.00,0.0015
3687.00,0.0015
3686.00,0.0015
3685.00,0.0015
3684.00,0.0015
3683.00,0.0015
3682.00,0.0014
3681.00,0.0014
3680.00,0.0015
3679.00,0.0015
3678.00,0.0016
3677.00,0.0017
3676.00,0.0017
3675.00,0.0017
3674.00,0.0017
3673.00,0.0018
3672.00,0.0018
3671.00,0.0018
3670.00,0.0018
3669.00,0.0017
3668.00,0.0017
3667.00,0.0017
3666.00,0.0016
3665.00,0.0016
3664.00,0.0015
3663.00,0.0014
3662.00,0.0014
3661.00,0.0014
3660.00,0.0014
3659.00,0.0014
3658.00,0.0015
3657.00,0.0015
3656.00,0.0015
3655.00,0.0016
3654.00,0.0016
3653.00,0.0017
3652.00,0.0018
3651.00,0.0018
3650.00,0.0019
3649.00,0.0019
3648.00,0.0020
3647.00,0.0020
3646.00,0.0020
3645.00,0.0020
3644.00,0.0019
3643.00,0.0019
3642.00,0.0018
3641.00,0.0018
3640.00,0.0018
3639.00,0.0018
3638.00,0.0017
3637.00,0.0018
3636.00,0.0018
3635.00,0.0018
3634.00,0.0019
3633.00,0.0020
3632.00,0.0021
3631.00,0.0022
3630.00,0.0022
3629.00,0.0023
3628.00,0.0023
3627.00,0.0023
3626.00,0.0024
3625.00,0.0023
3624.00,0.0024
3623.00,0.0024
3622.00,0.0024
3621.00,0.0024
3620.00,0.0025
3619.00,0.0025
3618.00,0.0026
3617.00,0.0026
3616.00,0.0026
3615.00,0.0027
3614.00,0.0027
3613.00,0.0027
3612.00,0.0027
3611.00,0.0028
3610.00,0.0028
3609.00,0.0028
3608.00,0.0029
3607.00,0.0029
3606.00,0.0029
3605.00,0.0029
3604.00,0.0029
3603.00,0.0029
3602.00,0.0029
3601.00,0.0030
3600.00,0.0030
3599.00,0.0030
3598.00,0.0030
3597.00,0.0031
3596.00,0.0031
3595.00,0.0032
3594.00,0.0032
3593.00,0.0033
3592.00,0.0033
3591.00,0.0034
3590.00,0.0034
3589.00,0.0035
3588.00,0.0035
3587.00,0.0036
3586.00,0.0036
3585.00,0.0036
3584.00,0.0037
3583.00,0.0037
3582.00,0.0037
3581.00,0.0038
3580.00,0.0038
3579.00,0.0038
3578.00,0.0039
3577.00,0.0039
3576.00,0.0040
3575.00,0.0040
3574.00,0.0041
3573.00,0.0042
3572.00,0.0043
3571.00,0.0044
3570.00,0.0045
3569.00,0.0046
3568.00,0.0047
3567.00,0.0047
3566.00,0.0047
3565.00,0.0048
3564.00,0.0048
3563.00,0.0049
3562.00,0.0049
3561.00,0.0050
3560.00,0.0050
3559.00,0.0051
3558.00,0.0051
3557.00,0.0052
3556.00,0.0053
3555.00,0.0054
3554.00,0.0054
3553.00,0.0055
3552.00,0.0056
3551.00,0.0056
3550.00,0.0057
3549.00,0.0058
3548.00,0.0059
3547.00,0.0060
3546.00,0.0061
3545.00,0.0061
3544.00,0.0061
3543.00,0.0062
3542.00,0.0063
3541.00,0.0064
3540.00,0.0065
3539.00,0.0066
3538.00,0.0067
3537.00,0.0068
3536.00,0.0068
3535.00,0.0069
3534.00,0.0070
3533.00,0.0071
3532.00,0.0072
3531.00,0.0073
3530.00,0.0074
3529.00,0.0075
3528.00,0.0076
3527.00,0.0077
3526.00,0.0078
3525.00,0.0079
3524.00,0.0080
3523.00,0.0080
3522.00,0.0081
3521.00,0.0082
3520.00,0.0083
3519.00,0.0084
3518.00,0.0085
3517.00,0.0086
3516.00,0.0087
3515.00,0.0089
3514.00,0.0090
3513.00,0.0091
3512.00,0.0092
3511.00,0.0093
3510.00,0.0094
3509.00,0.0095
3508.00,0.0097
3507.00,0.0098
3506.00,0.0099
3505.00,0.0101
3504.00,0.0102
3503.00,0.0103
3502.00,0.0104
3501.00,0.0105
3500.00,0.0106
3499.00,0.0107
3498.00,0.0108
3497.00,0.0109
3496.00,0.0111
3495.00,0.0112
3494.00,0.0113
3493.00,0.0114
3492.00,0.0116
3491.00,0.0117
3490.00,0.0118
3489.00,0.0120
3488.00,0.0121
3487.00,0.0122
3486.00,0.0124
3485.00,0.0125
3484.00,0.0127
3483.00,0.0128
3482.00,0.0129
3481.00,0.0131
3480.00,0.0132
3479.00,0.0133
3478.00,0.0134
3477.00,0.0136
3476.00,0.0137
3475.00,0.0139
3474.00,0.0140
3473.00,0.0141
3472.00,0.0143
3471.00,0.0144
3470.00,0.0146
3469.00,0.0147
3468.00,0.0148
3467.00,0.0149
3466.00,0.0151
3465.00,0.0152
3464.00,0.0154
3463.00,0.0156
3462.00,0.0157
3461.00,0.0159
3460.00,0.0160
3459.00,0.0162
3458.00,0.0163
3457.00,0.0165
3456.00,0.0167
3455.00,0.0168
3454.00,0.0169
3453.00,0.0171
3452.00,0.0172
3451.00,0.0174
3450.00,0.0175
3449.00,0.0177
3448.00,0.0178
3447.00,0.0180
3446.00,0.0182
3445.00,0.0183
3444.00,0.0185
3443.00,0.0187
3442.00,0.0188
3441.00,0.0190
3440.00,0.0192
3439.00,0.0194
3438.00,0.0195
3437.00,0.0197
3436.00,0.0199
3435.00,0.0201
3434.00,0.0203
3433.00,0.0204
3432.00,0.0206
3431.00,0.0208
3430.00,0.0209
3429.00,0.0211
3428.00,0.0213
3427.00,0.0215
3426.00,0.0217
3425.00,0.0218
3424.00,0.0220
3423.00,0.0222
3422.00,0.0224
3421.00,0.0226
3420.00,0.0228
3419.00,0.0230
3418.00,0.0232
3417.00,0.0234
3416.00,0.0236
3415.00,0.0238
3414.00,0.0240
3413.00,0.0242
3412.00,0.0244
3411.00,0.0246
3410.00,0.0248
3409.00,0.0251
3408.00,0.0253
3407.00,0.0255
3406.00,0.0257
3405.00,0.0259
3404.00,0.0261
3403.00,0.0264
3402.00,0.0266
3401.00,0.0268
3400.00,0.0270
3399.00,0.0273
3398.00,0.0275
3397.00,0.0277
3396.00,0.0280
3395.00,0.0282
3394.00,0.0284
3393.00,0.0286
3392.00,0.0288
3391.00,0.0291
3390.00,0.0293
3389.00,0.0296
3388.00,0.0299
3387.00,0.0301
3386.00,0.0304
3385.00,0.0307
3384.00,0.0309
3383.00,0.0312
3382.00,0.0314
3381.00,0.0316
3380.00,0.0318
3379.00,0.0321
3378.00,0.0323
3377.00,0.0326
3376.00,0.0328
3375.00,0.0331
3374.00,0.0333
3373.00,0.0335
3372.00,0.0336
3371.00,0.0337
3370.00,0.0339
3369.00,0.0341
3368.00,0.0343
3367.00,0.0346
3366.00,0.0349
3365.00,0.0353
3364.00,0.0355
3363.00,0.0358
3362.00,0.0360
3361.00,0.0362
3360.00,0.0364
3359.00,0.0366
3358.00,0.0369
3357.00,0.0371
3356.00,0.0374
3355.00,0.0376
3354.00,0.0377
3353.00,0.0378
3352.00,0.0380
3351.00,0.0381
3350.00,0.0383
3349.00,0.0386
3348.00,0.0388
3347.00,0.0390
3346.00,0.0392
3345.00,0.0394
3344.00,0.0396
3343.00,0.0397
3342.00,0.0399
3341.00,0.0400
3340.00,0.0402
3339.00,0.0403
3338.00,0.0405
3337.00,0.0408
3336.00,0.0410
3335.00,0.0413
3334.00,0.0415
3333.00,0.0417
3332.00,0.0419
3331.00,0.0420
3330.00,0.0422
3329.00,0.0423
3328.00,0.0424
3327.00,0.0424
3326.00,0.0425
3325.00,0.0427
3324.00,0.0429
3323.00,0.0431
3322.00,0.0434
3321.00,0.0435
3320.00,0.0437
3319.00,0.0439
3318.00,0.0440
3317.00,0.0441
3316.00,0.0443
3315.00,0.0444
3314.00,0.0445
3313.00,0.0446
3312.00,0.0446
3311.00,0.0446
3310.00,0.0446
3309.00,0.0445
3308.00,0.0445
3307.00,0.0446
3306.00,0.0447
3305.00,0.0449
3304.00,0.0452
3303.00,0.0455
3302.00,0.0457
3301.00,0.0459
3300.00,0.0460
3299.00,0.0460
3298.00,0.0460
3297.00,0.0460
3296.00,0.0460
3295.00,0.0460
3294.00,0.0460
3293.00,0.0461
3292.00,0.0462
3291.00,0.0463
3290.00,0.0465
3289.00,0.0466
3288.00,0.0468
3287.00,0.0468
3286.00,0.0469
3285.00,0.0469
3284.00,0.0469
3283.00,0.0469
3282.00,0.0469
3281.00,0.0470
3280.00,0.0470
3279.00,0.0471
3278.00,0.0471
3277.00,0.0471
3276.00,0.0470
3275.00,0.0470
3274.00,0.0469
3273.00,0.0469
3272.00,0.0469
3271.00,0.0469
3270.00,0.0469
3269.00,0.0470
3268.00,0.0471
3267.00,0.0471
3266.00,0.0472
3265.00,0.0472
3264.00,0.0472
3263.00,0.0472
3262.00,0.0472
3261.00,0.0472
3260.00,0.0472
3259.00,0.0472
3258.00,0.0472
3257.00,0.0471
3256.00,0.0471
3255.00,0.0471
3254.00,0.0471
3253.00,0.0471
3252.00,0.0471
3251.00,0.0470
3250.00,0.0470
3249.00,0.0469
3248.00,0.0469
3247.00,0.0469
3246.00,0.0469
3245.00,0.0469
3244.00,0.0469
3243.00,0.0468
3242.00,0.0468
3241.00,0.0468
3240.00,0.0468
3239.00,0.0467
3238.00,0.0466
3237.00,0.0466
3236.00,0.0465
3235.00,0.0464
3234.00,0.0463
3233.00,0.0463
3232.00,0.0463
3231.00,0.0462
3230.00,0.0462
3229.00,0.0461
3228.00,0.0461
3227.00,0.0460
3226.00,0.0460
3225.00,0.0459
3224.00,0.0458
3223.00,0.0458
3222.00,0.0457
3221.00,0.0457
3220.00,0.0456
3219.00,0.0455
3218.00,0.0455
3217.00,0.0455
3216.00,0.0454
3215.00,0.0454
3214.00,0.0454
3213.00,0.0454
3212.00,0.0454
3211.00,0.0453
3210.00,0.0453
3209.00,0.0453
3208.00,0.0452
3207.00,0.0452
3206.00,0.0452
3205.00,0.0451
3204.00,0.0451
3203.00,0.0450
3202.00,0.0449
3201.00,0.0448
3200.00,0.0448
3199.00,0.0447
3198.00,0.0446
3197.00,0.0445
3196.00,0.0444
3195.00,0.0443
3194.00,0.0442
3193.00,0.0440
3192.00,0.0439
3191.00,0.0438
3190.00,0.0436
3189.00,0.0435
3188.00,0.0433
3187.00,0.0432
3186.00,0.0431
3185.00,0.0430
3184.00,0.0428
3183.00,0.0427
3182.00,0.0425
3181.00,0.0423
3180.00,0.0422
3179.00,0.0420
3178.00,0.0418
3177.00,0.0417
3176.00,0.0415
3175.00,0.0413
3174.00,0.0411
3173.00,0.0409
3172.00,0.0407
3171.00,0.0405
3170.00,0.0404
3169.00,0.0402
3168.00,0.0400
3167.00,0.0398
3166.00,0.0396
3165.00,0.0394
3164.00,0.0392
3163.00,0.0390
3162.00,0.0388
3161.00,0.0386
3160.00,0.0384
3159.00,0.0382
3158.00,0.0380
3157.00,0.0378
3156.00,0.0376
3155.00,0.0374
3154.00,0.0372
3153.00,0.0370
3152.00,0.0368
3151.00,0.0366
3150.00,0.0365
3149.00,0.0363
3148.00,0.0361
3147.00,0.0359
3146.00,0.0357
3145.00,0.0355
3144.00,0.0354
3143.00,0.0352
3142.00,0.0350
3141.00,0.0349
3140.00,0.0348
3139.00,0.0346
3138.00,0.0345
3137.00,0.0344
3136.00,0.0342
3135.00,0.0341
3134.00,0.0339
3133.00,0.0338
3132.00,0.0337
3131.00,0.0335
3130.00,0.0334
3129.00,0.0332
3128.00,0.0331
3127.00,0.0329
3126.00,0.0327
3125.00,0.0325
3124.00,0.0324
3123.00,0.0322
3122.00,0.0320
3121.00,0.0318
3120.00,0.0316
3119.00,0.0315
3118.00,0.0313
3117.00,0.0311
3116.00,0.0309
3115.00,0.0307
3114.00,0.0305
3113.00,0.0303
3112.00,0.0300
3111.00,0.0298
3110.00,0.0296
3109.00,0.0293
3108.00,0.0291
3107.00,0.0289
3106.00,0.0287
3105.00,0.0285
3104.00,0.0283
3103.00,0.0282
3102.00,0.0279
3101.00,0.0277
3100.00,0.0275
3099.00,0.0273
3098.00,0.0272
3097.00,0.0270
3096.00,0.0267
3095.00,0.0265
3094.00,0.0264
3093.00,0.0262
3092.00,0.0260
3091.00,0.0258
3090.00,0.0256
3089.00,0.0255
3088.00,0.0253
3087.00,0.0252
3086.00,0.0250
3085.00,0.0248
3084.00,0.0247
3083.00,0.0245
3082.00,0.0244
3081.00,0.0242
3080.00,0.0240
3079.00,0.0239
3078.00,0.0238
3077.00,0.0236
3076.00,0.0235
3075.00,0.0234
3074.00,0.0233
3073.00,0.0231
3072.00,0.0230
3071.00,0.0229
3070.00,0.0228
3069.00,0.0227
3068.00,0.0227
3067.00,0.0226
3066.00,0.0225
3065.00,0.0224
3064.00,0.0223
3063.00,0.0223
3062.00,0.0222
3061.00,0.0222
3060.00,0.0221
3059.00,0.0221
3058.00,0.0220
3057.00,0.0219
3056.00,0.0218
3055.00,0.0218
3054.00,0.0217
3053.00,0.0217
3052.00,0.0216
3051.00,0.0215
3050.00,0.0214
3049.00,0.0213
3048.00,0.0212
3047.00,0.0211
3046.00,0.0211
3045.00,0.0210
3044.00,0.0208
3043.00,0.0207
3042.00,0.0207
3041.00,0.0206
3040.00,0.0205
3039.00,0.0205
3038.00,0.0205
3037.00,0.0204
3036.00,0.0204
3035.00,0.0204
3034.00,0.0204
3033.00,0.0205
3032.00,0.0205
3031.00,0.0205
3030.00,0.0206
3029.00,0.0206
3028.00,0.0206
3027.00,0.0205
3026.00,0.0205
3025.00,0.0204
3024.00,0.0204
3023.00,0.0204
3022.00,0.0203
3021.00,0.0203
3020.00,0.0203
3019.00,0.0203
3018.00,0.0204
3017.00,0.0204
3016.00,0.0204
3015.00,0.0205
3014.00,0.0206
3013.00,0.0207
3012.00,0.0208
3011.00,0.0210
3010.00,0.0212
3009.00,0.0214
3008.00,0.0217
3007.00,0.0220
3006.00,0.0223
3005.00,0.0227
3004.00,0.0231
3003.00,0.0235
3002.00,0.0240
3001.00,0.0246
3000.00,0.0252
2999.00,0.0258
2998.00,0.0265
2997.00,0.0273
2996.00,0.0281
2995.00,0.0290
2994.00,0.0298
2993.00,0.0308
2992.00,0.0317
2991.00,0.0327
2990.00,0.0338
2989.00,0.0348
2988.00,0.0359
2987.00,0.0369
2986.00,0.0379
2985.00,0.0389
2984.00,0.0398
2983.00,0.0407
2982.00,0.0417
2981.00,0.0427
2980.00,0.0438
2979.00,0.0449
2978.00,0.0461
2977.00,0.0474
2976.00,0.0486
2975.00,0.0499
2974.00,0.0512
2973.00,0.0525
2972.00,0.0539
2971.00,0.0554
2970.00,0.0568
2969.00,0.0582
2968.00,0.0595
2967.00,0.0608
2966.00,0.0620
2965.00,0.0631
2964.00,0.0641
2963.00,0.0650
2962.00,0.0657
2961.00,0.0663
2960.00,0.0668
2959.00,0.0671
2958.00,0.0672
2957.00,0.0672
2956.00,0.0670
2955.00,0.0667
2954.00,0.0662
2953.00,0.0655
2952.00,0.0648
2951.00,0.0640
2950.00,0.0632
2949.00,0.0625
2948.00,0.0620
2947.00,0.0616
2946.00,0.0615
2945.00,0.0617
2944.00,0.0621
2943.00,0.0629
2942.00,0.0639
2941.00,0.0651
2940.00,0.0666
2939.00,0.0683
2938.00,0.0702
2937.00,0.0721
2936.00,0.0742
2935.00,0.0762
2934.00,0.0783
2933.00,0.0803
2932.00,0.0821
2931.00,0.0838
2930.00,0.0853
2929.00,0.0867
2928.00,0.0878
2927.00,0.0886
2926.00,0.0893
2925.00,0.0897
2924.00,0.0899
2923.00,0.0899
2922.00,0.0897
2921.00,0.0893
2920.00,0.0889
2919.00,0.0882
2918.00,0.0875
2917.00,0.0866
2916.00,0.0856
2915.00,0.0844
2914.00,0.0831
2913.00,0.0816
2912.00,0.0801
2911.00,0.0786
2910.00,0.0770
2909.00,0.0754
2908.00,0.0738
2907.00,0.0723
2906.00,0.0708
2905.00,0.0694
2904.00,0.0681
2903.00,0.0670
2902.00,0.0659
2901.00,0.0649
2900.00,0.0640
2899.00,0.0632
2898.00,0.0624
2897.00,0.0617
2896.00,0.0611
2895.00,0.0604
2894.00,0.0598
2893.00,0.0592
2892.00,0.0586
2891.00,0.0581
2890.00,0.0575
2889.00,0.0569
2888.00,0.0564
2887.00,0.0559
2886.00,0.0554
2885.00,0.0549
2884.00,0.0545
2883.00,0.0542
2882.00,0.0540
2881.00,0.0538
2880.00,0.0538
2879.00,0.0539
2878.00,0.0541
2877.00,0.0543
2876.00,0.0546
2875.00,0.0549
2874.00,0.0552
2873.00,0.0555
2872.00,0.0558
2871.00,0.0559
2870.00,0.0559
2869.00,0.0557
2868.00,0.0556
2867.00,0.0555
2866.00,0.0555
2865.00,0.0558
2864.00,0.0563
2863.00,0.0570
2862.00,0.0578
2861.00,0.0587
2860.00,0.0596
2859.00,0.0604
2858.00,0.0610
2857.00,0.0613
2856.00,0.0613
2855.00,0.0609
2854.00,0.0602
2853.00,0.0591
2852.00,0.0578
2851.00,0.0563
2850.00,0.0545
2849.00,0.0527
2848.00,0.0508
2847.00,0.0489
2846.00,0.0470
2845.00,0.0451
2844.00,0.0433
2843.00,0.0416
2842.00,0.0399
2841.00,0.0383
2840.00,0.0368
2839.00,0.0355
2838.00,0.0343
2837.00,0.0332
2836.00,0.0322
2835.00,0.0313
2834.00,0.0304
2833.00,0.0296
2832.00,0.0289
2831.00,0.0281
2830.00,0.0274
2829.00,0.0267
2828.00,0.0260
2827.00,0.0253
2826.00,0.0245
2825.00,0.0238
2824.00,0.0231
2823.00,0.0224
2822.00,0.0217
2821.00,0.0210
2820.00,0.0204
2819.00,0.0198
2818.00,0.0192
2817.00,0.0187
2816.00,0.0182
2815.00,0.0177
2814.00,0.0173
2813.00,0.0169
2812.00,0.0166
2811.00,0.0163
2810.00,0.0160
2809.00,0.0157
2808.00,0.0154
2807.00,0.0152
2806.00,0.0149
2805.00,0.0146
2804.00,0.0144
2803.00,0.0142
2802.00,0.0140
2801.00,0.0138
2800.00,0.0136
2799.00,0.0134
2798.00,0.0132
2797.00,0.0131
2796.00,0.0130
2795.00,0.0128
2794.00,0.0127
2793.00,0.0126
2792.00,0.0124
2791.00,0.0123
2790.00,0.0122
2789.00,0.0121
2788.00,0.0121
2787.00,0.0120
2786.00,0.0119
2785.00,0.0118
2784.00,0.0117
2783.00,0.0117
2782.00,0.0116
2781.00,0.0115
2780.00,0.0115
2779.00,0.0114
2778.00,0.0113
2777.00,0.0112
2776.00,0.0112
2775.00,0.0111
2774.00,0.0110
2773.00,0.0109
2772.00,0.0109
2771.00,0.0108
2770.00,0.0108
2769.00,0.0107
2768.00,0.0107
2767.00,0.0107
2766.00,0.0106
2765.00,0.0106
2764.00,0.0106
2763.00,0.0106
2762.00,0.0106
2761.00,0.0105
2760.00,0.0105
2759.00,0.0105
2758.00,0.0105
2757.00,0.0105
2756.00,0.0105
2755.00,0.0105
2754.00,0.0105
2753.00,0.0105
2752.00,0.0105
2751.00,0.0105
2750.00,0.0106
2749.00,0.0106
2748.00,0.0106
2747.00,0.0106
2746.00,0.0107
2745.00,0.0107
2744.00,0.0108
2743.00,0.0108
2742.00,0.0109
2741.00,0.0109
2740.00,0.0109
2739.00,0.0110
2738.00,0.0110
2737.00,0.0111
2736.00,0.0111
2735.00,0.0112
2734.00,0.0112
2733.00,0.0113
2732.00,0.0113
2731.00,0.0113
2730.00,0.0114
2729.00,0.0114
2728.00,0.0114
2727.00,0.0113
2726.00,0.0113
2725.00,0.0113
2724.00,0.0113
2723.00,0.0112
2722.00,0.0112
2721.00,0.0112
2720.00,0.0111
2719.00,0.0111
2718.00,0.0110
2717.00,0.0109
2716.00,0.0109
2715.00,0.0108
2714.00,0.0108
2713.00,0.0108
2712.00,0.0107
2711.00,0.0107
2710.00,0.0107
2709.00,0.0106
2708.00,0.0106
2707.00,0.0106
2706.00,0.0105
2705.00,0.0105
2704.00,0.0104
2703.00,0.0104
2702.00,0.0104
2701.00,0.0103
2700.00,0.0103
2699.00,0.0103
2698.00,0.0103
2697.00,0.0103
2696.00,0.0103
2695.00,0.0102
2694.00,0.0102
2693.00,0.0102
2692.00,0.0102
2691.00,0.0101
2690.00,0.0101
2689.00,0.0101
2688.00,0.0100
2687.00,0.0100
2686.00,0.0100
2685.00,0.0100
2684.00,0.0099
2683.00,0.0099
2682.00,0.0098
2681.00,0.0098
2680.00,0.0098
2679.00,0.0097
2678.00,0.0097
2677.00,0.0097
2676.00,0.0097
2675.00,0.0097
2674.00,0.0097
2673.00,0.0097
2672.00,0.0097
2671.00,0.0097
2670.00,0.0096
2669.00,0.0096
2668.00,0.0096
2667.00,0.0096
2666.00,0.0097
2665.00,0.0097
2664.00,0.0097
2663.00,0.0097
2662.00,0.0097
2661.00,0.0097
2660.00,0.0096
2659.00,0.0096
2658.00,0.0096
2657.00,0.0095
2656.00,0.0095
2655.00,0.0094
2654.00,0.0094
2653.00,0.0094
2652.00,0.0093
2651.00,0.0093
2650.00,0.0092
2649.00,0.0091
2648.00,0.0091
2647.00,0.0090
2646.00,0.0089
2645.00,0.0089
2644.00,0.0088
2643.00,0.0087
2642.00,0.0087
2641.00,0.0086
2640.00,0.0086
2639.00,0.0085
2638.00,0.0084
2637.00,0.0084
2636.00,0.0083
2635.00,0.0082
2634.00,0.0082
2633.00,0.0081
2632.00,0.0081
2631.00,0.0080
2630.00,0.0080
2629.00,0.0079
2628.00,0.0078
2627.00,0.0078
2626.00,0.0078
2625.00,0.0077
2624.00,0.0077
2623.00,0.0076
2622.00,0.0076
2621.00,0.0075
2620.00,0.0074
2619.00,0.0074
2618.00,0.0073
2617.00,0.0073
2616.00,0.0072
2615.00,0.0072
2614.00,0.0071
2613.00,0.0071
2612.00,0.0071
2611.00,0.0071
2610.00,0.0070
2609.00,0.0070
2608.00,0.0070
2607.00,0.0069
2606.00,0.0069
2605.00,0.0069
2604.00,0.0069
2603.00,0.0069
2602.00,0.0069
2601.00,0.0069
2600.00,0.0069
2599.00,0.0068
2598.00,0.0068
2597.00,0.0068
2596.00,0.0068
2595.00,0.0068
2594.00,0.0068
2593.00,0.0068
2592.00,0.0068
2591.00,0.0068
2590.00,0.0068
2589.00,0.0068
2588.00,0.0069
2587.00,0.0069
2586.00,0.0069
2585.00,0.0068
2584.00,0.0068
2583.00,0.0067
2582.00,0.0067
2581.00,0.0066
2580.00,0.0066
2579.00,0.0065
2578.00,0.0065
2577.00,0.0065
2576.00,0.0064
2575.00,0.0064
2574.00,0.0063
2573.00,0.0063
2572.00,0.0063
2571.00,0.0063
2570.00,0.0062
2569.00,0.0062
2568.00,0.0062
2567.00,0.0061
2566.00,0.0060
2565.00,0.0060
2564.00,0.0060
2563.00,0.0059
2562.00,0.0059
2561.00,0.0059
2560.00,0.0058
2559.00,0.0058
2558.00,0.0057
2557.00,0.0056
2556.00,0.0056
2555.00,0.0056
2554.00,0.0056
2553.00,0.0056
2552.00,0.0055
2551.00,0.0055
2550.00,0.0054
2549.00,0.0054
2548.00,0.0053
2547.00,0.0053
2546.00,0.0053
2545.00,0.0053
2544.00,0.0053
2543.00,0.0053
2542.00,0.0053
2541.00,0.0053
2540.00,0.0053
2539.00,0.0053
2538.00,0.0053
2537.00,0.0053
2536.00,0.0053
2535.00,0.0052
2534.00,0.0052
2533.00,0.0052
2532.00,0.0052
2531.00,0.0052
2530.00,0.0052
2529.00,0.0052
2528.00,0.0052
2527.00,0.0051
2526.00,0.0051
2525.00,0.0051
2524.00,0.0050
2523.00,0.0050
2522.00,0.0050
2521.00,0.0049
2520.00,0.0049
2519.00,0.0049
2518.00,0.0048
2517.00,0.0048
2516.00,0.0048
2515.00,0.0048
2514.00,0.0047
2513.00,0.0047
2512.00,0.0047
2511.00,0.0047
2510.00,0.0047
2509.00,0.0046
2508.00,0.0046
2507.00,0.0045
2506.00,0.0045
2505.00,0.0045
2504.00,0.0044
2503.00,0.0044
2502.00,0.0044
2501.00,0.0044
2500.00,0.0044
2499.00,0.0044
2498.00,0.0043
2497.00,0.0043
2496.00,0.0043
2495.00,0.0043
2494.00,0.0042
2493.00,0.0042
2492.00,0.0041
2491.00,0.0041
2490.00,0.0041
2489.00,0.0041
2488.00,0.0041
2487.00,0.0040
2486.00,0.0040
2485.00,0.0040
2484.00,0.0040
2483.00,0.0040
2482.00,0.0039
2481.00,0.0039
2480.00,0.0039
2479.00,0.0039
2478.00,0.0039
2477.00,0.0039
2476.00,0.0038
2475.00,0.0038
2474.00,0.0038
2473.00,0.0037
2472.00,0.0037
2471.00,0.0037
2470.00,0.0037
2469.00,0.0037
2468.00,0.0037
2467.00,0.0036
2466.00,0.0036
2465.00,0.0036
2464.00,0.0036
2463.00,0.0036
2462.00,0.0036
2461.00,0.0036
2460.00,0.0036
2459.00,0.0036
2458.00,0.0036
2457.00,0.0036
2456.00,0.0037
2455.00,0.0037
2454.00,0.0036
2453.00,0.0036
2452.00,0.0036
2451.00,0.0036
2450.00,0.0035
2449.00,0.0035
2448.00,0.0035
2447.00,0.0035
2446.00,0.0035
2445.00,0.0035
2444.00,0.0034
2443.00,0.0034
2442.00,0.0033
2441.00,0.0033
2440.00,0.0033
2439.00,0.0033
2438.00,0.0033
2437.00,0.0033
2436.00,0.0033
2435.00,0.0033
2434.00,0.0033
2433.00,0.0032
2432.00,0.0032
2431.00,0.0032
2430.00,0.0032
2429.00,0.0031
2428.00,0.0032
2427.00,0.0032
2426.00,0.0032
2425.00,0.0032
2424.00,0.0031
2423.00,0.0031
2422.00,0.0031
2421.00,0.0031
2420.00,0.0031
2419.00,0.0031
2418.00,0.0031
2417.00,0.0031
2416.00,0.0031
2415.00,0.0032
2414.00,0.0032
2413.00,0.0033
2412.00,0.0033
2411.00,0.0033
2410.00,0.0033
2409.00,0.0032
2408.00,0.0032
2407.00,0.0031
2406.00,0.0031
2405.00,0.0031
2404.00,0.0031
2403.00,0.0031
2402.00,0.0032
2401.00,0.0032
2400.00,0.0032
2399.00,0.0032
2398.00,0.0032
2397.00,0.0032
2396.00,0.0032
2395.00,0.0032
2394.00,0.0031
2393.00,0.0031
2392.00,0.0031
2391.00,0.0030
2390.00,0.0030
2389.00,0.0029
2388.00,0.0029
2387.00,0.0029
2386.00,0.0029
2385.00,0.0028
2384.00,0.0028
2383.00,0.0027
2382.00,0.0027
2381.00,0.0026
2380.00,0.0025
2379.00,0.0025
2378.00,0.0025
2377.00,0.0025
2376.00,0.0025
2375.00,0.0026
2374.00,0.0026
2373.00,0.0026
2372.00,0.0026
2371.00,0.0025
2370.00,0.0025
2369.00,0.0025
2368.00,0.0025
2367.00,0.0025
2366.00,0.0025
2365.00,0.0026
2364.00,0.0026
2363.00,0.0027
2362.00,0.0027
2361.00,0.0027
2360.00,0.0026
2359.00,0.0026
2358.00,0.0026
2357.00,0.0026
2356.00,0.0026
2355.00,0.0026
2354.00,0.0026
2353.00,0.0026
2352.00,0.0026
2351.00,0.0026
2350.00,0.0026
2349.00,0.0026
2348.00,0.0026
2347.00,0.0027
2346.00,0.0027
2345.00,0.0028
2344.00,0.0028
2343.00,0.0028
2342.00,0.0028
2341.00,0.0027
2340.00,0.0028
2339.00,0.0028
2338.00,0.0028
2337.00,0.0028
2336.00,0.0028
2335.00,0.0028
2334.00,0.0028
2333.00,0.0028
2332.00,0.0028
2331.00,0.0028
2330.00,0.0029
2329.00,0.0030
2328.00,0.0032
2327.00,0.0035
2326.00,0.0037
2325.00,0.0038
2324.00,0.0037
2323.00,0.0036
2322.00,0.0034
2321.00,0.0033
2320.00,0.0032
2319.00,0.0031
2318.00,0.0030
2317.00,0.0030
2316.00,0.0030
2315.00,0.0029
2314.00,0.0028
2313.00,0.0027
2312.00,0.0026
2311.00,0.0026
2310.00,0.0025
2309.00,0.0025
2308.00,0.0025
2307.00,0.0025
2306.00,0.0025
2305.00,0.0025
2304.00,0.0025
2303.00,0.0025
2302.00,0.0026
2301.00,0.0026
2300.00,0.0026
2299.00,0.0027
2298.00,0.0027
2297.00,0.0027
2296.00,0.0028
2295.00,0.0028
2294.00,0.0029
2293.00,0.0029
2292.00,0.0030
2291.00,0.0030
2290.00,0.0030
2289.00,0.0031
2288.00,0.0031
2287.00,0.0031
2286.00,0.0031
2285.00,0.0030
2284.00,0.0030
2283.00,0.0030
2282.00,0.0029
2281.00,0.0029
2280.00,0.0029
2279.00,0.0028
2278.00,0.0027
2277.00,0.0027
2276.00,0.0027
2275.00,0.0027
2274.00,0.0027
2273.00,0.0027
2272.00,0.0027
2271.00,0.0027
2270.00,0.0026
2269.00,0.0025
2268.00,0.0025
2267.00,0.0025
2266.00,0.0024
2265.00,0.0023
2264.00,0.0023
2263.00,0.0023
2262.00,0.0023
2261.00,0.0024
2260.00,0.0025
2259.00,0.0025
2258.00,0.0024
2257.00,0.0024
2256.00,0.0023
2255.00,0.0022
2254.00,0.0021
2253.00,0.0021
2252.00,0.0022
2251.00,0.0022
2250.00,0.0022
2249.00,0.0023
2248.00,0.0023
2247.00,0.0023
2246.00,0.0022
2245.00,0.0022
2244.00,0.0022
2243.00,0.0022
2242.00,0.0022
2241.00,0.0022
2240.00,0.0023
2239.00,0.0023
2238.00,0.0023
2237.00,0.0023
2236.00,0.0024
2235.00,0.0024
2234.00,0.0025
2233.00,0.0024
2232.00,0.0023
2231.00,0.0022
2230.00,0.0021
2229.00,0.0022
2228.00,0.0023
2227.00,0.0023
2226.00,0.0023
2225.00,0.0023
2224.00,0.0023
2223.00,0.0023
2222.00,0.0023
2221.00,0.0024
2220.00,0.0024
2219.00,0.0024
2218.00,0.0023
2217.00,0.0022
2216.00,0.0021
2215.00,0.0020
2214.00,0.0019
2213.00,0.0020
2212.00,0.0021
2211.00,0.0022
2210.00,0.0023
2209.00,0.0024
2208.00,0.0024
2207.00,0.0023
2206.00,0.0022
2205.00,0.0022
2204.00,0.0023
2203.00,0.0024
2202.00,0.0024
2201.00,0.0024
2200.00,0.0023
2199.00,0.0023
2198.00,0.0022
2197.00,0.0023
2196.00,0.0023
2195.00,0.0023
2194.00,0.0023
2193.00,0.0022
2192.00,0.0022
2191.00,0.0022
2190.00,0.0022
2189.00,0.0023
2188.00,0.0024
2187.00,0.0025
2186.00,0.0024
2185.00,0.0023
2184.00,0.0021
2183.00,0.0019
2182.00,0.0017
2181.00,0.0017
2180.00,0.0018
2179.00,0.0018
2178.00,0.0016
2177.00,0.0014
2176.00,0.0013
2175.00,0.0013
2174.00,0.0015
2173.00,0.0017
2172.00,0.0021
2171.00,0.0024
2170.00,0.0025
2169.00,0.0027
2168.00,0.0028
2167.00,0.0028
2166.00,0.0028
2165.00,0.0029
2164.00,0.0032
2163.00,0.0033
2162.00,0.0030
2161.00,0.0020
2160.00,0.0006
2159.00,-0.0007
2158.00,-0.0014
2157.00,-0.0015
2156.00,-0.0011
2155.00,-0.0008
2154.00,-0.0005
2153.00,-0.0003
2152.00,0.0000
2151.00,0.0003
2150.00,0.0004
2149.00,0.0004
2148.00,0.0004
2147.00,0.0002
2146.00,0.0001
2145.00,0.0002
2144.00,0.0003
2143.00,0.0004
2142.00,0.0003
2141.00,0.0003
2140.00,0.0004
2139.00,0.0004
2138.00,0.0005
2137.00,0.0004
2136.00,0.0003
2135.00,0.0001
2134.00,-0.0000
2133.00,-0.0000
2132.00,0.0001
2131.00,0.0003
2130.00,0.0004
2129.00,0.0005
2128.00,0.0007
2127.00,0.0009
2126.00,0.0010
2125.00,0.0011
2124.00,0.0012
2123.00,0.0013
2122.00,0.0012
2121.00,0.0012
2120.00,0.0012
2119.00,0.0012
2118.00,0.0013
2117.00,0.0015
2116.00,0.0016
2115.00,0.0017
2114.00,0.0018
2113.00,0.0018
2112.00,0.0018
2111.00,0.0017
2110.00,0.0017
2109.00,0.0016
2108.00,0.0016
2107.00,0.0015
2106.00,0.0014
2105.00,0.0014
2104.00,0.0013
2103.00,0.0013
2102.00,0.0012
2101.00,0.0012
2100.00,0.0012
2099.00,0.0012
2098.00,0.0011
2097.00,0.0009
2096.00,0.0008
2095.00,0.0007
2094.00,0.0007
2093.00,0.0008
2092.00,0.0010
2091.00,0.0011
2090.00,0.0012
2089.00,0.0012
2088.00,0.0013
2087.00,0.0014
2086.00,0.0014
2085.00,0.0015
2084.00,0.0015
2083.00,0.0014
2082.00,0.0013
2081.00,0.0013
2080.00,0.0013
2079.00,0.0012
2078.00,0.0012
2077.00,0.0012
2076.00,0.0013
2075.00,0.0014
2074.00,0.0014
2073.00,0.0014
2072.00,0.0014
2071.00,0.0014
2070.00,0.0014
2069.00,0.0013
2068.00,0.0013
2067.00,0.0012
2066.00,0.0011
2065.00,0.0010
2064.00,0.0010
2063.00,0.0009
2062.00,0.0009
2061.00,0.0009
2060.00,0.0011
2059.00,0.0012
2058.00,0.0013
2057.00,0.0013
2056.00,0.0014
2055.00,0.0014
2054.00,0.0015
2053.00,0.0017
2052.00,0.0020
2051.00,0.0019
2050.00,0.0016
2049.00,0.0012
2048.00,0.0010
2047.00,0.0009
2046.00,0.0008
2045.00,0.0008
2044.00,0.0009
2043.00,0.0010
2042.00,0.0011
2041.00,0.0012
2040.00,0.0013
2039.00,0.0013
2038.00,0.0013
2037.00,0.0013
2036.00,0.0013
2035.00,0.0012
2034.00,0.0009
2033.00,0.0007
2032.00,0.0005
2031.00,0.0003
2030.00,0.0003
2029.00,0.0004
2028.00,0.0006
2027.00,0.0007
2026.00,0.0007
2025.00,0.0007
2024.00,0.0008
2023.00,0.0008
2022.00,0.0006
2021.00,0.0005
2020.00,0.0005
2019.00,0.0006
2018.00,0.0006
2017.00,0.0007
2016.00,0.0008
2015.00,0.0008
2014.00,0.0008
2013.00,0.0008
2012.00,0.0007
2011.00,0.0006
2010.00,0.0003
2009.00,0.0002
2008.00,0.0002
2007.00,0.0001
2006.00,0.0001
2005.00,0.0001
2004.00,0.0002
2003.00,0.0002
2002.00,0.0002
2001.00,0.0003
2000.00,0.0004
1999.00,0.0005
1998.00,0.0005
1997.00,0.0005
1996.00,0.0006
1995.00,0.0006
1994.00,0.0006
1993.00,0.0008
1992.00,0.0010
1991.00,0.0011
1990.00,0.0011
1989.00,0.0011
1988.00,0.0012
1987.00,0.0012
1986.00,0.0012
1985.00,0.0014
1984.00,0.0016
1983.00,0.0019
1982.00,0.0020
1981.00,0.0021
1980.00,0.0019
1979.00,0.0015
1978.00,0.0008
1977.00,0.0004
1976.00,0.0002
1975.00,0.0000
1974.00,-0.0000
1973.00,0.0001
1972.00,0.0003
1971.00,0.0004
1970.00,0.0003
1969.00,0.0003
1968.00,0.0003
1967.00,0.0004
1966.00,0.0003
1965.00,0.0003
1964.00,0.0004
1963.00,0.0004
1962.00,0.0002
1961.00,0.0001
1960.00,0.0001
1959.00,0.0001
1958.00,0.0001
1957.00,0.0002
1956.00,0.0005
1955.00,0.0006
1954.00,0.0007
1953.00,0.0007
1952.00,0.0008
1951.00,0.0007
1950.00,0.0006
1949.00,0.0006
1948.00,0.0008
1947.00,0.0010
1946.00,0.0010
1945.00,0.0010
1944.00,0.0010
1943.00,0.0009
1942.00,0.0009
1941.00,0.0009
1940.00,0.0010
1939.00,0.0010
1938.00,0.0009
1937.00,0.0009
1936.00,0.0010
1935.00,0.0010
1934.00,0.0010
1933.00,0.0010
1932.00,0.0011
1931.00,0.0010
1930.00,0.0010
1929.00,0.0010
1928.00,0.0011
1927.00,0.0011
1926.00,0.0011
1925.00,0.0011
1924.00,0.0011
1923.00,0.0012
1922.00,0.0012
1921.00,0.0012
1920.00,0.0012
1919.00,0.0013
1918.00,0.0012
1917.00,0.0013
1916.00,0.0013
1915.00,0.0013
1914.00,0.0013
1913.00,0.0014
1912.00,0.0015
1911.00,0.0016
1910.00,0.0016
1909.00,0.0016
1908.00,0.0016
1907.00,0.0015
1906.00,0.0015
1905.00,0.0015
1904.00,0.0016
1903.00,0.0016
1902.00,0.0016
1901.00,0.0015
1900.00,0.0016
1899.00,0.0016
1898.00,0.0016
1897.00,0.0016
1896.00,0.0017
1895.00,0.0017
1894.00,0.0017
1893.00,0.0017
1892.00,0.0017
1891.00,0.0017
1890.00,0.0017
1889.00,0.0016
1888.00,0.0017
1887.00,0.0017
1886.00,0.0017
1885.00,0.0018
1884.00,0.0019
1883.00,0.0019
1882.00,0.0018
1881.00,0.0017
1880.00,0.0018
1879.00,0.0018
1878.00,0.0018
1877.00,0.0019
1876.00,0.0020
1875.00,0.0021
1874.00,0.0020
1873.00,0.0020
1872.00,0.0020
1871.00,0.0019
1870.00,0.0019
1869.00,0.0019
1868.00,0.0019
1867.00,0.0019
1866.00,0.0018
1865.00,0.0018
1864.00,0.0018
1863.00,0.0019
1862.00,0.0019
1861.00,0.0020
1860.00,0.0020
1859.00,0.0021
1858.00,0.0021
1857.00,0.0021
1856.00,0.0021
1855.00,0.0021
1854.00,0.0020
1853.00,0.0020
1852.00,0.0021
1851.00,0.0021
1850.00,0.0021
1849.00,0.0021
1848.00,0.0021
1847.00,0.0022
1846.00,0.0021
1845.00,0.0021
1844.00,0.0020
1843.00,0.0020
1842.00,0.0020
1841.00,0.0020
1840.00,0.0020
1839.00,0.0021
1838.00,0.0022
1837.00,0.0022
1836.00,0.0023
1835.00,0.0023
1834.00,0.0024
1833.00,0.0024
1832.00,0.0024
1831.00,0.0024
1830.00,0.0024
1829.00,0.0023
1828.00,0.0024
1827.00,0.0024
1826.00,0.0023
1825.00,0.0024
1824.00,0.0024
1823.00,0.0024
1822.00,0.0024
1821.00,0.0024
1820.00,0.0024
1819.00,0.0024
1818.00,0.0023
1817.00,0.0022
1816.00,0.0023
1815.00,0.0024
1814.00,0.0024
1813.00,0.0024
1812.00,0.0025
1811.00,0.0025
1810.00,0.0026
1809.00,0.0026
1808.00,0.0026
1807.00,0.0027
1806.00,0.0027
1805.00,0.0027
1804.00,0.0027
1803.00,0.0028
1802.00,0.0027
1801.00,0.0027
1800.00,0.0027
1799.00,0.0027
1798.00,0.0027
1797.00,0.0027
1796.00,0.0028
1795.00,0.0028
1794.00,0.0028
1793.00,0.0028
1792.00,0.0029
1791.00,0.0029
1790.00,0.0029
1789.00,0.0029
1788.00,0.0030
1787.00,0.0031
1786.00,0.0031
1785.00,0.0032
1784.00,0.0032
1783.00,0.0033
1782.00,0.0033
1781.00,0.0033
1780.00,0.0034
1779.00,0.0035
1778.00,0.0035
1777.00,0.0035
1776.00,0.0036
1775.00,0.0036
1774.00,0.0036
1773.00,0.0036
1772.00,0.0036
1771.00,0.0036
1770.00,0.0036
1769.00,0.0037
1768.00,0.0039
1767.00,0.0040
1766.00,0.0040
1765.00,0.0041
1764.00,0.0042
1763.00,0.0043
1762.00,0.0043
1761.00,0.0043
1760.00,0.0044
1759.00,0.0045
1758.00,0.0045
1757.00,0.0046
1756.00,0.0047
1755.00,0.0048
1754.00,0.0048
1753.00,0.0048
1752.00,0.0049
1751.00,0.0050
1750.00,0.0050
1749.00,0.0050
1748.00,0.0051
1747.00,0.0053
1746.00,0.0053
1745.00,0.0055
1744.00,0.0056
1743.00,0.0058
1742.00,0.0058
1741.00,0.0059
1740.00,0.0061
1739.00,0.0062
1738.00,0.0063
1737.00,0.0063
1736.00,0.0065
1735.00,0.0066
1734.00,0.0067
1733.00,0.0068
1732.00,0.0071
1731.00,0.0073
1730.00,0.0077
1729.00,0.0080
1728.00,0.0084
1727.00,0.0087
1726.00,0.0089
1725.00,0.0092
1724.00,0.0095
1723.00,0.0098
1722.00,0.0101
1721.00,0.0103
1720.00,0.0106
1719.00,0.0109
1718.00,0.0112
1717.00,0.0115
1716.00,0.0119
1715.00,0.0125
1714.00,0.0131
1713.00,0.0138
1712.00,0.0147
1711.00,0.0156
1710.00,0.0164
1709.00,0.0174
1708.00,0.0185
1707.00,0.0198
1706.00,0.0213
1705.00,0.0230
1704.00,0.0249
1703.00,0.0266
1702.00,0.0287
1701.00,0.0320
1700.00,0.0363
1699.00,0.0405
1698.00,0.0442
1697.00,0.0488
1696.00,0.0550
1695.00,0.0621
1694.00,0.0686
1693.00,0.0746
1692.00,0.0808
1691.00,0.0875
1690.00,0.0945
1689.00,0.1013
1688.00,0.1074
1687.00,0.1126
1686.00,0.1176
1685.00,0.1231
1684.00,0.1291
1683.00,0.1340
1682.00,0.1375
1681.00,0.1405
1680.00,0.1436
1679.00,0.1467
1678.00,0.1497
1677.00,0.1533
1676.00,0.1583
1675.00,0.1645
1674.00,0.1711
1673.00,0.1777
1672.00,0.1849
1671.00,0.1936
1670.00,0.2041
1669.00,0.2160
1668.00,0.2277
1667.00,0.2383
1666.00,0.2477
1665.00,0.2571
1664.00,0.2673
1663.00,0.2780
1662.00,0.2882
1661.00,0.2969
1660.00,0.3040
1659.00,0.3098
1658.00,0.3141
1657.00,0.3170
1656.00,0.3186
1655.00,0.3188
1654.00,0.3171
1653.00,0.3135
1652.00,0.3082
1651.00,0.3020
1650.00,0.2948
1649.00,0.2860
1648.00,0.2746
1647.00,0.2603
1646.00,0.2445
1645.00,0.2297
1644.00,0.2163
1643.00,0.2037
1642.00,0.1912
1641.00,0.1790
1640.00,0.1675
1639.00,0.1572
1638.00,0.1476
1637.00,0.1379
1636.00,0.1280
1635.00,0.1190
1634.00,0.1119
1633.00,0.1065
1632.00,0.1022
1631.00,0.0987
1630.00,0.0956
1629.00,0.0932
1628.00,0.0915
1627.00,0.0906
1626.00,0.0902
1625.00,0.0903
1624.00,0.0908
1623.00,0.0915
1622.00,0.0921
1621.00,0.0923
1620.00,0.0921
1619.00,0.0915
1618.00,0.0901
1617.00,0.0879
1616.00,0.0852
1615.00,0.0825
1614.00,0.0799
1613.00,0.0773
1612.00,0.0750
1611.00,0.0729
1610.00,0.0714
1609.00,0.0706
1608.00,0.0708
1607.00,0.0721
1606.00,0.0744
1605.00,0.0778
1604.00,0.0820
1603.00,0.0868
1602.00,0.0918
1601.00,0.0963
1600.00,0.1001
1599.00,0.1026
1598.00,0.1035
1597.00,0.1028
1596.00,0.1008
1595.00,0.0978
1594.00,0.0940
1593.00,0.0900
1592.00,0.0861
1591.00,0.0825
1590.00,0.0793
1589.00,0.0762
1588.00,0.0735
1587.00,0.0707
1586.00,0.0679
1585.00,0.0649
1584.00,0.0618
1583.00,0.0586
1582.00,0.0553
1581.00,0.0523
1580.00,0.0494
1579.00,0.0469
1578.00,0.0445
1577.00,0.0420
1576.00,0.0396
1575.00,0.0376
1574.00,0.0361
1573.00,0.0350
1572.00,0.0339
1571.00,0.0329
1570.00,0.0317
1569.00,0.0306
1568.00,0.0296
1567.00,0.0288
1566.00,0.0282
1565.00,0.0276
1564.00,0.0270
1563.00,0.0265
1562.00,0.0260
1561.00,0.0254
1560.00,0.0247
1559.00,0.0241
1558.00,0.0235
1557.00,0.0232
1556.00,0.0231
1555.00,0.0231
1554.00,0.0232
1553.00,0.0232
1552.00,0.0232
1551.00,0.0233
1550.00,0.0234
1549.00,0.0235
1548.00,0.0236
1547.00,0.0237
1546.00,0.0238
1545.00,0.0240
1544.00,0.0242
1543.00,0.0243
1542.00,0.0244
1541.00,0.0245
1540.00,0.0246
1539.00,0.0247
1538.00,0.0249
1537.00,0.0250
1536.00,0.0251
1535.00,0.0252
1534.00,0.0250
1533.00,0.0248
1532.00,0.0246
1531.00,0.0244
1530.00,0.0243
1529.00,0.0242
1528.00,0.0242
1527.00,0.0242
1526.00,0.0243
1525.00,0.0243
1524.00,0.0244
1523.00,0.0245
1522.00,0.0247
1521.00,0.0250
1520.00,0.0252
1519.00,0.0254
1518.00,0.0256
1517.00,0.0258
1516.00,0.0259
1515.00,0.0260
1514.00,0.0260
1513.00,0.0261
1512.00,0.0261
1511.00,0.0262
1510.00,0.0263
1509.00,0.0265
1508.00,0.0268
1507.00,0.0275
1506.00,0.0286
1505.00,0.0299
1504.00,0.0315
1503.00,0.0334
1502.00,0.0356
1501.00,0.0383
1500.00,0.0412
1499.00,0.0445
1498.00,0.0479
1497.00,0.0514
1496.00,0.0544
1495.00,0.0565
1494.00,0.0575
1493.00,0.0576
1492.00,0.0567
1491.00,0.0547
1490.00,0.0518
1489.00,0.0486
1488.00,0.0454
1487.00,0.0424
1486.00,0.0399
1485.00,0.0378
1484.00,0.0362
1483.00,0.0349
1482.00,0.0340
1481.00,0.0336
1480.00,0.0335
1479.00,0.0337
1478.00,0.0343
1477.00,0.0353
1476.00,0.0367
1475.00,0.0385
1474.00,0.0410
1473.00,0.0449
1472.00,0.0501
1471.00,0.0559
1470.00,0.0621
1469.00,0.0688
1468.00,0.0761
1467.00,0.0839
1466.00,0.0923
1465.00,0.1013
1464.00,0.1096
1463.00,0.1157
1462.00,0.1196
1461.00,0.1214
1460.00,0.1215
1459.00,0.1198
1458.00,0.1163
1457.00,0.1118
1456.00,0.1076
1455.00,0.1046
1454.00,0.1029
1453.00,0.1023
1452.00,0.1028
1451.00,0.1042
1450.00,0.1068
1449.00,0.1109
1448.00,0.1163
1447.00,0.1226
1446.00,0.1293
1445.00,0.1363
1444.00,0.1436
1443.00,0.1507
1442.00,0.1576
1441.00,0.1640
1440.00,0.1697
1439.00,0.1747
1438.00,0.1798
1437.00,0.1859
1436.00,0.1928
1435.00,0.1995
1434.00,0.2063
1433.00,0.2140
1432.00,0.2227
1431.00,0.2315
1430.00,0.2395
1429.00,0.2460
1428.00,0.2498
1427.00,0.2509
1426.00,0.2498
1425.00,0.2472
1424.00,0.2431
1423.00,0.2372
1422.00,0.2299
1421.00,0.2205
1420.00,0.2078
1419.00,0.1919
1418.00,0.1756
1417.00,0.1610
1416.00,0.1479
1415.00,0.1360
1414.00,0.1254
1413.00,0.1164
1412.00,0.1088
1411.00,0.1025
1410.00,0.0976
1409.00,0.0938
1408.00,0.0908
1407.00,0.0884
1406.00,0.0866
1405.00,0.0853
1404.00,0.0843
1403.00,0.0836
1402.00,0.0832
1401.00,0.0829
1400.00,0.0827
1399.00,0.0827
1398.00,0.0828
1397.00,0.0830
1396.00,0.0832
1395.00,0.0837
1394.00,0.0844
1393.00,0.0852
1392.00,0.0861
1391.00,0.0872
1390.00,0.0886
1389.00,0.0903
1388.00,0.0924
1387.00,0.0951
1386.00,0.0982
1385.00,0.1015
1384.00,0.1049
1383.00,0.1083
1382.00,0.1116
1381.00,0.1146
1380.00,0.1171
1379.00,0.1192
1378.00,0.1207
1377.00,0.1214
1376.00,0.1211
1375.00,0.1196
1374.00,0.1170
1373.00,0.1136
1372.00,0.1101
1371.00,0.1068
1370.00,0.1038
1369.00,0.1011
1368.00,0.0986
1367.00,0.0962
1366.00,0.0940
1365.00,0.0918
1364.00,0.0896
1363.00,0.0873
1362.00,0.0852
1361.00,0.0834
1360.00,0.0817
1359.00,0.0803
1358.00,0.0791
1357.00,0.0783
1356.00,0.0777
1355.00,0.0772
1354.00,0.0768
1353.00,0.0764
1352.00,0.0758
1351.00,0.0751
1350.00,0.0741
1349.00,0.0730
1348.00,0.0718
1347.00,0.0705
1346.00,0.0692
1345.00,0.0681
1344.00,0.0671
1343.00,0.0663
1342.00,0.0657
1341.00,0.0651
1340.00,0.0647
1339.00,0.0643
1338.00,0.0640
1337.00,0.0638
1336.00,0.0637
1335.00,0.0637
1334.00,0.0639
1333.00,0.0642
1332.00,0.0647
1331.00,0.0654
1330.00,0.0664
1329.00,0.0676
1328.00,0.0691
1327.00,0.0709
1326.00,0.0730
1325.00,0.0753
1324.00,0.0777
1323.00,0.0801
1322.00,0.0824
1321.00,0.0845
1320.00,0.0862
1319.00,0.0874
1318.00,0.0880
1317.00,0.0881
1316.00,0.0877
1315.00,0.0868
1314.00,0.0857
1313.00,0.0844
1312.00,0.0830
1311.00,0.0817
1310.00,0.0806
1309.00,0.0796
1308.00,0.0789
1307.00,0.0785
1306.00,0.0786
1305.00,0.0794
1304.00,0.0808
1303.00,0.0831
1302.00,0.0864
1301.00,0.0910
1300.00,0.0970
1299.00,0.1047
1298.00,0.1144
1297.00,0.1261
1296.00,0.1395
1295.00,0.1541
1294.00,0.1690
1293.00,0.1830
1292.00,0.1951
1291.00,0.2045
1290.00,0.2107
1289.00,0.2138
1288.00,0.2139
1287.00,0.2115
1286.00,0.2069
1285.00,0.2008
1284.00,0.1938
1283.00,0.1866
1282.00,0.1797
1281.00,0.1739
1280.00,0.1696
1279.00,0.1669
1278.00,0.1656
1277.00,0.1655
1276.00,0.1661
1275.00,0.1666
1274.00,0.1666
1273.00,0.1657
1272.00,0.1636
1271.00,0.1601
1270.00,0.1553
1269.00,0.1496
1268.00,0.1432
1267.00,0.1364
1266.00,0.1295
1265.00,0.1228
1264.00,0.1164
1263.00,0.1105
1262.00,0.1051
1261.00,0.1001
1260.00,0.0957
1259.00,0.0916
1258.00,0.0879
1257.00,0.0846
1256.00,0.0814
1255.00,0.0785
1254.00,0.0757
1253.00,0.0731
1252.00,0.0705
1251.00,0.0681
1250.00,0.0659
1249.00,0.0640
1248.00,0.0622
1247.00,0.0608
1246.00,0.0597
1245.00,0.0590
1244.00,0.0586
1243.00,0.0585
1242.00,0.0587
1241.00,0.0594
1240.00,0.0604
1239.00,0.0619
1238.00,0.0639
1237.00,0.0665
1236.00,0.0696
1235.00,0.0733
1234.00,0.0774
1233.00,0.0817
1232.00,0.0859
1231.00,0.0898
1230.00,0.0932
1229.00,0.0960
1228.00,0.0980
1227.00,0.0992
1226.00,0.0998
1225.00,0.0999
1224.00,0.0996
1223.00,0.0990
1222.00,0.0983
1221.00,0.0973
1220.00,0.0961
1219.00,0.0946
1218.00,0.0928
1217.00,0.0907
1216.00,0.0882
1215.00,0.0856
1214.00,0.0828
1213.00,0.0799
1212.00,0.0772
1211.00,0.0747
1210.00,0.0725
1209.00,0.0706
1208.00,0.0689
1207.00,0.0674
1206.00,0.0662
1205.00,0.0651
1204.00,0.0641
1203.00,0.0632
1202.00,0.0624
1201.00,0.0616
1200.00,0.0607
1199.00,0.0598
1198.00,0.0590
1197.00,0.0581
1196.00,0.0573
1195.00,0.0565
1194.00,0.0557
1193.00,0.0551
1192.00,0.0544
1191.00,0.0539
1190.00,0.0534
1189.00,0.0531
1188.00,0.0528
1187.00,0.0525
1186.00,0.0524
1185.00,0.0523
1184.00,0.0523
1183.00,0.0525
1182.00,0.0529
1181.00,0.0535
1180.00,0.0545
1179.00,0.0558
1178.00,0.0575
1177.00,0.0596
1176.00,0.0621
1175.00,0.0649
1174.00,0.0681
1173.00,0.0716
1172.00,0.0753
1171.00,0.0792
1170.00,0.0833
1169.00,0.0873
1168.00,0.0912
1167.00,0.0947
1166.00,0.0977
1165.00,0.0999
1164.00,0.1012
1163.00,0.1015
1162.00,0.1010
1161.00,0.0996
1160.00,0.0976
1159.00,0.0952
1158.00,0.0924
1157.00,0.0896
1156.00,0.0865
1155.00,0.0832
1154.00,0.0799
1153.00,0.0764
1152.00,0.0730
1151.00,0.0695
1150.00,0.0661
1149.00,0.0628
1148.00,0.0596
1147.00,0.0566
1146.00,0.0538
1145.00,0.0513
1144.00,0.0492
1143.00,0.0476
1142.00,0.0463
1141.00,0.0454
1140.00,0.0448
1139.00,0.0443
1138.00,0.0440
1137.00,0.0438
1136.00,0.0437
1135.00,0.0438
1134.00,0.0439
1133.00,0.0440
1132.00,0.0442
1131.00,0.0442
1130.00,0.0439
1129.00,0.0434
1128.00,0.0426
1127.00,0.0416
1126.00,0.0404
1125.00,0.0392
1124.00,0.0381
1123.00,0.0371
1122.00,0.0363
1121.00,0.0358
1120.00,0.0354
1119.00,0.0354
1118.00,0.0357
1117.00,0.0363
1116.00,0.0372
1115.00,0.0384
1114.00,0.0398
1113.00,0.0414
1112.00,0.0430
1111.00,0.0445
1110.00,0.0458
1109.00,0.0469
1108.00,0.0475
1107.00,0.0478
1106.00,0.0478
1105.00,0.0476
1104.00,0.0473
1103.00,0.0471
1102.00,0.0470
1101.00,0.0471
1100.00,0.0474
1099.00,0.0478
1098.00,0.0483
1097.00,0.0488
1096.00,0.0493
1095.00,0.0497
1094.00,0.0498
1093.00,0.0498
1092.00,0.0497
1091.00,0.0496
1090.00,0.0498
1089.00,0.0503
1088.00,0.0512
1087.00,0.0524
1086.00,0.0539
1085.00,0.0553
1084.00,0.0563
1083.00,0.0569
1082.00,0.0570
1081.00,0.0564
1080.00,0.0553
1079.00,0.0539
1078.00,0.0523
1077.00,0.0507
1076.00,0.0490
1075.00,0.0474
1074.00,0.0458
1073.00,0.0442
1072.00,0.0427
1071.00,0.0414
1070.00,0.0402
1069.00,0.0394
1068.00,0.0387
1067.00,0.0385
1066.00,0.0385
1065.00,0.0389
1064.00,0.0397
1063.00,0.0409
1062.00,0.0426
1061.00,0.0450
1060.00,0.0480
1059.00,0.0518
1058.00,0.0567
1057.00,0.0628
1056.00,0.0702
1055.00,0.0791
1054.00,0.0894
1053.00,0.1007
1052.00,0.1123
1051.00,0.1232
1050.00,0.1324
1049.00,0.1389
1048.00,0.1422
1047.00,0.1425
1046.00,0.1402
1045.00,0.1363
1044.00,0.1315
1043.00,0.1265
1042.00,0.1218
1041.00,0.1179
1040.00,0.1146
1039.00,0.1119
1038.00,0.1095
1037.00,0.1074
1036.00,0.1054
1035.00,0.1035
1034.00,0.1016
1033.00,0.0997
1032.00,0.0979
1031.00,0.0960
1030.00,0.0942
1029.00,0.0923
1028.00,0.0904
1027.00,0.0886
1026.00,0.0868
1025.00,0.0850
1024.00,0.0833
1023.00,0.0817
1022.00,0.0800
1021.00,0.0783
1020.00,0.0764
1019.00,0.0744
1018.00,0.0721
1017.00,0.0693
1016.00,0.0661
1015.00,0.0627
1014.00,0.0590
1013.00,0.0554
1012.00,0.0520
1011.00,0.0491
1010.00,0.0468
1009.00,0.0452
1008.00,0.0443
1007.00,0.0442
1006.00,0.0446
1005.00,0.0453
1004.00,0.0461
1003.00,0.0465
1002.00,0.0464
1001.00,0.0457
1000.00,0.0446
999.00,0.0432
998.00,0.0418
997.00,0.0405
996.00,0.0394
995.00,0.0386
994.00,0.0381
993.00,0.0378
992.00,0.0378
991.00,0.0380
990.00,0.0385
989.00,0.0391
988.00,0.0397
987.00,0.0402
986.00,0.0404
985.00,0.0403
984.00,0.0398
983.00,0.0391
982.00,0.0381
981.00,0.0372
980.00,0.0363
979.00,0.0355
978.00,0.0348
977.00,0.0342
976.00,0.0336
975.00,0.0331
974.00,0.0325
973.00,0.0319
972.00,0.0312
971.00,0.0305
970.00,0.0298
969.00,0.0291
968.00,0.0285
967.00,0.0279
966.00,0.0275
965.00,0.0273
964.00,0.0272
963.00,0.0274
962.00,0.0278
961.00,0.0286
960.00,0.0297
959.00,0.0312
958.00,0.0329
957.00,0.0346
956.00,0.0362
955.00,0.0376
954.00,0.0384
953.00,0.0387
952.00,0.0384
951.00,0.0375
950.00,0.0360
949.00,0.0342
948.00,0.0322
947.00,0.0301
946.00,0.0282
945.00,0.0264
944.00,0.0250
943.00,0.0238
942.00,0.0230
941.00,0.0225
940.00,0.0223
939.00,0.0225
938.00,0.0230
937.00,0.0237
936.00,0.0245
935.00,0.0254
934.00,0.0261
933.00,0.0265
932.00,0.0263
931.00,0.0257
930.00,0.0248
929.00,0.0240
928.00,0.0235
927.00,0.0232
926.00,0.0232
925.00,0.0234
924.00,0.0236
923.00,0.0240
922.00,0.0244
921.00,0.0249
920.00,0.0255
919.00,0.0261
918.00,0.0268
917.00,0.0275
916.00,0.0281
915.00,0.0287
914.00,0.0294
913.00,0.0301
912.00,0.0309
911.00,0.0318
910.00,0.0326
909.00,0.0333
908.00,0.0338
907.00,0.0341
906.00,0.0341
905.00,0.0340
904.00,0.0336
903.00,0.0331
902.00,0.0327
901.00,0.0323
900.00,0.0320
899.00,0.0318
898.00,0.0317
897.00,0.0316
896.00,0.0315
895.00,0.0313
894.00,0.0309
893.00,0.0305
892.00,0.0300
891.00,0.0295
890.00,0.0290
889.00,0.0287
888.00,0.0284
887.00,0.0282
886.00,0.0282
885.00,0.0284
884.00,0.0286
883.00,0.0289
882.00,0.0292
881.00,0.0295
880.00,0.0299
879.00,0.0303
878.00,0.0307
877.00,0.0311
876.00,0.0314
875.00,0.0318
874.00,0.0322
873.00,0.0326
872.00,0.0330
871.00,0.0334
870.00,0.0339
869.00,0.0345
868.00,0.0352
867.00,0.0359
866.00,0.0369
865.00,0.0379
864.00,0.0391
863.00,0.0405
862.00,0.0420
861.00,0.0436
860.00,0.0454
859.00,0.0473
858.00,0.0494
857.00,0.0516
856.00,0.0538
855.00,0.0561
854.00,0.0583
853.00,0.0605
852.00,0.0627
851.00,0.0647
850.00,0.0667
849.00,0.0686
848.00,0.0703
847.00,0.0719
846.00,0.0733
845.00,0.0746
844.00,0.0758
843.00,0.0770
842.00,0.0781
841.00,0.0791
840.00,0.0803
839.00,0.0814
838.00,0.0826
837.00,0.0838
836.00,0.0851
835.00,0.0864
834.00,0.0878
833.00,0.0890
832.00,0.0901
831.00,0.0910
830.00,0.0915
829.00,0.0918
828.00,0.0915
827.00,0.0907
826.00,0.0894
825.00,0.0877
824.00,0.0855
823.00,0.0832
822.00,0.0809
821.00,0.0786
820.00,0.0764
819.00,0.0742
818.00,0.0718
817.00,0.0692
816.00,0.0664
815.00,0.0635
814.00,0.0606
813.00,0.0579
812.00,0.0553
811.00,0.0530
810.00,0.0508
809.00,0.0489
808.00,0.0474
807.00,0.0461
806.00,0.0451
805.00,0.0444
804.00,0.0438
803.00,0.0434
802.00,0.0432
801.00,0.0433
800.00,0.0436
799.00,0.0442
798.00,0.0449
797.00,0.0456
796.00,0.0464
795.00,0.0471
794.00,0.0478
793.00,0.0482
792.00,0.0486
791.00,0.0488
790.00,0.0490
789.00,0.0491
788.00,0.0493
787.00,0.0496
786.00,0.0499
785.00,0.0504
784.00,0.0510
783.00,0.0516
782.00,0.0523
781.00,0.0530
780.00,0.0537
779.00,0.0544
778.00,0.0549
777.00,0.0553
776.00,0.0555
775.00,0.0557
774.00,0.0557
773.00,0.0557
772.00,0.0557
771.00,0.0557
770.00,0.0557
769.00,0.0556
768.00,0.0556
767.00,0.0556
766.00,0.0557
765.00,0.0560
764.00,0.0564
763.00,0.0570
762.00,0.0577
761.00,0.0586
760.00,0.0596
759.00,0.0608
758.00,0.0622
757.00,0.0637
756.00,0.0653
755.00,0.0668
754.00,0.0684
753.00,0.0700
752.00,0.0717
751.00,0.0733
750.00,0.0749
749.00,0.0766
748.00,0.0782
747.00,0.0797
746.00,0.0813
745.00,0.0827
744.00,0.0840
743.00,0.0852
742.00,0.0864
741.00,0.0875
740.00,0.0885
739.00,0.0893
738.00,0.0899
737.00,0.0902
736.00,0.0902
735.00,0.0898
734.00,0.0890
733.00,0.0879
732.00,0.0863
731.00,0.0844
730.00,0.0822
729.00,0.0799
728.00,0.0776
727.00,0.0754
726.00,0.0734
725.00,0.0714
724.00,0.0697
723.00,0.0681
722.00,0.0666
721.00,0.0653
720.00,0.0643
719.00,0.0635
718.00,0.0630
717.00,0.0626
716.00,0.0623
715.00,0.0622
714.00,0.0621
713.00,0.0621
712.00,0.0622
711.00,0.0622
710.00,0.0624
709.00,0.0625
708.00,0.0627
707.00,0.0630
706.00,0.0633
705.00,0.0635
704.00,0.0638
703.00,0.0641
702.00,0.0644
701.00,0.0648
700.00,0.0652
699.00,0.0656
698.00,0.0660
697.00,0.0664
696.00,0.0669
695.00,0.0674
694.00,0.0681
693.00,0.0687
692.00,0.0694
691.00,0.0700
690.00,0.0708
689.00,0.0716
688.00,0.0725
687.00,0.0734
686.00,0.0743
685.00,0.0751
684.00,0.0760
683.00,0.0767
682.00,0.0775
681.00,0.0781
680.00,0.0789
679.00,0.0797
678.00,0.0805
677.00,0.0814
676.00,0.0823
675.00,0.0832
674.00,0.0840
673.00,0.0848
672.00,0.0855
671.00,0.0864
670.00,0.0873
669.00,0.0887
668.00,0.0905
667.00,0.0923
666.00,0.0936
665.00,0.0946
664.00,0.0956
663.00,0.0969
662.00,0.0984
661.00,0.0999
660.00,0.1014
659.00,0.1028
658.00,0.1043
657.00,0.1057
656.00,0.1072
655.00,0.1087
654.00,0.1101
653.00,0.1115
652.00,0.1126
651.00,0.1135
650.00,0.1139
649.00,0.1140
648.00,0.1136
647.00,0.1127
646.00,0.1114
645.00,0.1097
644.00,0.1077
643.00,0.1055
642.00,0.1031
641.00,0.1006
640.00,0.0981
639.00,0.0957
638.00,0.0933
637.00,0.0911
636.00,0.0890
635.00,0.0869
634.00,0.0850
633.00,0.0833
632.00,0.0816
631.00,0.0800
630.00,0.0785
629.00,0.0772
628.00,0.0760
627.00,0.0749
626.00,0.0739
625.00,0.0729
624.00,0.0719
623.00,0.0710
622.00,0.0702
621.00,0.0697
620.00,0.0693
619.00,0.0689
618.00,0.0687
617.00,0.0686
616.00,0.0685
615.00,0.0685
614.00,0.0686
613.00,0.0687
612.00,0.0689
611.00,0.0691
610.00,0.0696
609.00,0.0701
608.00,0.0708
607.00,0.0716
606.00,0.0724
605.00,0.0734
604.00,0.0744
603.00,0.0754
602.00,0.0762
601.00,0.0769
600.00,0.0775
599.00,0.0781
598.00,0.0788
597.00,0.0796
596.00,0.0804
595.00,0.0811
594.00,0.0817
593.00,0.0825
592.00,0.0834
591.00,0.0844
590.00,0.0855
589.00,0.0867
588.00,0.0881
587.00,0.0898
586.00,0.0917
585.00,0.0938
584.00,0.0959
583.00,0.0980
582.00,0.0999
581.00,0.1015
580.00,0.1027
579.00,0.1034
578.00,0.1035
577.00,0.1032
576.00,0.1025
575.00,0.1016
574.00,0.1006
573.00,0.0994
572.00,0.0981
571.00,0.0967
570.00,0.0955
569.00,0.0944
568.00,0.0933
567.00,0.0921
566.00,0.0906
565.00,0.0889
564.00,0.0871
563.00,0.0852
562.00,0.0832
561.00,0.0813
560.00,0.0793
559.00,0.0773
558.00,0.0753
557.00,0.0733
556.00,0.0714
555.00,0.0696
554.00,0.0681
553.00,0.0668
552.00,0.0657
551.00,0.0649
550.00,0.0643
549.00,0.0636
548.00,0.0629
547.00,0.0623
546.00,0.0620
545.00,0.0618
544.00,0.0616
543.00,0.0612
542.00,0.0608
541.00,0.0605
540.00,0.0603
539.00,0.0601
538.00,0.0600
537.00,0.0599
536.00,0.0598
535.00,0.0597
534.00,0.0597
533.00,0.0596
532.00,0.0596
531.00,0.0594
530.00,0.0591
529.00,0.0585
528.00,0.0578
527.00,0.0570
526.00,0.0563
525.00,0.0557
524.00,0.0552
523.00,0.0548
522.00,0.0544
521.00,0.0541
520.00,0.0535
519.00,0.0528
518.00,0.0522
517.00,0.0517
516.00,0.0514
515.00,0.0511
514.00,0.0510
513.00,0.0507
512.00,0.0503
511.00,0.0499
510.00,0.0495
509.00,0.0492
508.00,0.0489
507.00,0.0487
506.00,0.0485
505.00,0.0485
504.00,0.0484
503.00,0.0484
502.00,0.0485
501.00,0.0489
500.00,0.0492
499.00,0.0494
498.00,0.0495
497.00,0.0495
496.00,0.0495
495.00,0.0496
494.00,0.0500
493.00,0.0505
492.00,0.0511
491.00,0.0517
490.00,0.0524
489.00,0.0529
488.00,0.0531
487.00,0.0530
486.00,0.0528
485.00,0.0526
484.00,0.0524
483.00,0.0522
482.00,0.0520
481.00,0.0517
480.00,0.0513
479.00,0.0509
478.00,0.0507
477.00,0.0508
476.00,0.0509
475.00,0.0511
474.00,0.0512
473.00,0.0513
472.00,0.0513
471.00,0.0514
470.00,0.0516
469.00,0.0518
468.00,0.0519
467.00,0.0519
466.00,0.0518
465.00,0.0516
464.00,0.0514
463.00,0.0512
462.00,0.0514
461.00,0.0520
460.00,0.0527
459.00,0.0534
458.00,0.0543
457.00,0.0552
456.00,0.0558
455.00,0.0563
454.00,0.0566
453.00,0.0568
452.00,0.0568
451.00,0.0569
450.00,0.0568
449.00,0.0566
448.00,0.0563
447.00,0.0560
446.00,0.0559
445.00,0.0556
444.00,0.0549
443.00,0.0537
442.00,0.0528
441.00,0.0523
440.00,0.0521
439.00,0.0521
438.00,0.0520
437.00,0.0518
436.00,0.0515
435.00,0.0512
434.00,0.0510
433.00,0.0508
432.00,0.0505
431.00,0.0502
430.00,0.0501
429.00,0.0502
428.00,0.0504
427.00,0.0508
426.00,0.0511
425.00,0.0511
424.00,0.0508
423.00,0.0503
422.00,0.0499
421.00,0.0495
420.00,0.0491
419.00,0.0487
418.00,0.0488
417.00,0.0492
416.00,0.0496
415.00,0.0500
414.00,0.0505
413.00,0.0507
412.00,0.0505
411.00,0.0502
410.00,0.0499
409.00,0.0500
408.00,0.0506
407.00,0.0518
406.00,0.0534
405.00,0.0543
404.00,0.0543
403.00,0.0541
402.00,0.0544
401.00,0.0551
400.00,0.0554
