Created as New Dataset,Sample 309 By YargerLab Date Saturday, October 18 2025
cm-1,A
4000.00,0.0017
3999.00,0.0017
3998.00,0.0017
3997.00,0.0017
3996.00,0.0017
3995.00,0.0017
3994.00,0.0016
3993.00,0.0017
3992.00,0.0017
3991.00,0.0017
3990.00,0.0017
3989.00,0.0017
3988.00,0.0017
3987.00,0.0017
3986.00,0.0016
3985.00,0.0016
3984.00,0.0016
3983.00,0.0016
3982.00,0.0016
3981.00,0.0017
3980.00,0.0017
3979.00,0.0017
3978.00,0.0017
3977.00,0.0016
3976.00,0.0016
3975.00,0.0016
3974.00,0.0016
3973.00,0.0016
3972.00,0.0016
3971.00,0.0016
3970.00,0.0016
3969.00,0.0016
3968.00,0.0016
3967.00,0.0016
3966.00,0.0016
3965.00,0.0016
3964.00,0.0016
3963.00,0.0016
3962.00,0.0016
3961.00,0.0016
3960.00,0.0016
3959.00,0.0016
3958.00,0.0016
3957.00,0.0016
3956.00,0.0016
3955.00,0.0016
3954.00,0.0016
3953.00,0.0016
3952.00,0.0016
3951.00,0.0016
3950.00,0.0016
3949.00,0.0016
3948.00,0.0016
3947.00,0.0016
3946.00,0.0016
3945.00,0.0015
3944.00,0.0015
3943.00,0.0015
3942.00,0.0015
3941.00,0.0015
3940.00,0.0015
3939.00,0.0015
3938.00,0.0015
3937.00,0.0015
3936.00,0.0015
3935.00,0.0015
3934.00,0.0015
3933.00,0.0015
3932.00,0.0015
3931.00,0.0015
3930.00,0.0015
3929.00,0.0015
3928.00,0.0015
3927.00,0.0015
3926.00,0.0015
3925.00,0.0015
3924.00,0.0015
3923.00,0.0015
3922.00,0.0014
3921.00,0.0014
3920.00,0.0014
3919.00,0.0015
3918.00,0.0015
3917.00,0.0015
3916.00,0.0014
3915.00,0.0014
3914.00,0.0014
3913.00,0.0014
3912.00,0.0014
3911.00,0.0015
3910.00,0.0015
3909.00,0.0015
3908.00,0.0015
3907.00,0.0015
3906.00,0.0014
3905.00,0.0014
3904.00,0.0014
3903.00,0.0015
3902.00,0.0014
3901.00,0.0014
3900.00,0.0014
3899.00,0.0014
3898.00,0.0014
3897.00,0.0014
3896.00,0.0014
3895.00,0.0014
3894.00,0.0014
3893.00,0.0014
3892.00,0.0014
3891.00,0.0015
3890.00,0.0015
3889.00,0.0014
3888.00,0.0014
3887.00,0.0014
3886.00,0.0013
3885.00,0.0013
3884.00,0.0013
3883.00,0.0013
3882.00,0.0013
3881.00,0.0013
3880.00,0.0013
3879.00,0.0013
3878.00,0.0013
3877.00,0.0013
3876.00,0.0013
3875.00,0.0013
3874.00,0.0013
3873.00,0.0013
3872.00,0.0013
3871.00,0.0013
3870.00,0.0013
3869.00,0.0013
3868.00,0.0013
3867.00,0.0013
3866.00,0.0013
3865.00,0.0013
3864.00,0.0013
3863.00,0.0013
3862.00,0.0013
3861.00,0.0013
3860.00,0.0013
3859.00,0.0013
3858.00,0.0013
3857.00,0.0013
3856.00,0.0013
3855.00,0.0013
3854.00,0.0013
3853.00,0.0013
3852.00,0.0013
3851.00,0.0012
3850.00,0.0012
3849.00,0.0012
3848.00,0.0013
3847.00,0.0013
3846.00,0.0014
3845.00,0.0014
3844.00,0.0014
3843.00,0.0014
3842.00,0.0014
3841.00,0.0014
3840.00,0.0013
3839.00,0.0013
3838.00,0.0013
3837.00,0.0012
3836.00,0.0012
3835.00,0.0012
3834.00,0.0012
3833.00,0.0012
3832.00,0.0012
3831.00,0.0013
3830.00,0.0013
3829.00,0.0013
3828.00,0.0013
3827.00,0.0013
3826.00,0.0013
3825.00,0.0013
3824.00,0.0013
3823.00,0.0013
3822.00,0.0012
3821.00,0.0012
3820.00,0.0012
3819.00,0.0012
3818.00,0.0012
3817.00,0.0012
3816.00,0.0012
3815.00,0.0012
3814.00,0.0012
3813.00,0.0012
3812.00,0.0012
3811.00,0.0012
3810.00,0.0013
3809.00,0.0013
3808.00,0.0013
3807.00,0.0013
3806.00,0.0013
3805.00,0.0013
3804.00,0.0013
3803.00,0.0012
3802.00,0.0012
3801.00,0.0012
3800.00,0.0012
3799.00,0.0012
3798.00,0.0012
3797.00,0.0012
3796.00,0.0012
3795.00,0.0012
3794.00,0.0012
3793.00,0.0012
3792.00,0.0012
3791.00,0.0013
3790.00,0.0013
3789.00,0.0013
3788.00,0.0013
3787.00,0.0013
3786.00,0.0012
3785.00,0.0012
3784.00,0.0012
3783.00,0.0012
3782.00,0.0012
3781.00,0.0012
3780.00,0.0012
3779.00,0.0012
3778.00,0.0012
3777.00,0.0012
3776.00,0.0012
3775.00,0.0013
3774.00,0.0013
3773.00,0.0013
3772.00,0.0013
3771.00,0.0013
3770.00,0.0013
3769.00,0.0013
3768.00,0.0013
3767.00,0.0012
3766.00,0.0012
3765.00,0.0012
3764.00,0.0012
3763.00,0.0012
3762.00,0.0012
3761.00,0.0012
3760.00,0.0012
3759.00,0.0012
3758.00,0.0012
3757.00,0.0012
3756.00,0.0012
3755.00,0.0012
3754.00,0.0012
3753.00,0.0012
3752.00,0.0012
3751.00,0.0012
3750.00,0.0011
3749.00,0.0011
3748.00,0.0011
3747.00,0.0011
3746.00,0.0011
3745.00,0.0011
3744.00,0.0011
3743.00,0.0011
3742.00,0.0011
3741.00,0.0010
3740.00,0.0011
3739.00,0.0011
3738.00,0.0011
3737.00,0.0011
3736.00,0.0011
3735.00,0.0011
3734.00,0.0011
3733.00,0.0011
3732.00,0.0011
3731.00,0.0011
3730.00,0.0011
3729.00,0.0011
3728.00,0.0011
3727.00,0.0011
3726.00,0.0012
3725.00,0.0012
3724.00,0.0011
3723.00,0.0011
3722.00,0.0011
3721.00,0.0011
3720.00,0.0011
3719.00,0.0011
3718.00,0.0011
3717.00,0.0011
3716.00,0.0012
3715.00,0.0012
3714.00,0.0012
3713.00,0.0012
3712.00,0.0012
3711.00,0.0011
3710.00,0.0011
3709.00,0.0011
3708.00,0.0010
3707.00,0.0011
3706.00,0.0011
3705.00,0.0011
3704.00,0.0011
3703.00,0.0011
3702.00,0.0012
3701.00,0.0012
3700.00,0.0012
3699.00,0.0012
3698.00,0.0012
3697.00,0.0012
3696.00,0.0013
3695.00,0.0013
3694.00,0.0013
3693.00,0.0013
3692.00,0.0013
3691.00,0.0013
3690.00,0.0013
3689.00,0.0012
3688.00,0.0012
3687.00,0.0013
3686.00,0.0013
3685.00,0.0013
3684.00,0.0014
3683.00,0.0015
3682.00,0.0015
3681.00,0.0016
3680.00,0.0016
3679.00,0.0016
3678.00,0.0016
3677.00,0.0016
3676.00,0.0016
3675.00,0.0016
3674.00,0.0017
3673.00,0.0017
3672.00,0.0017
3671.00,0.0017
3670.00,0.0018
3669.00,0.0018
3668.00,0.0018
3667.00,0.0018
3666.00,0.0018
3665.00,0.0018
3664.00,0.0019
3663.00,0.0019
3662.00,0.0020
3661.00,0.0020
3660.00,0.0020
3659.00,0.0021
3658.00,0.0021
3657.00,0.0021
3656.00,0.0021
3655.00,0.0022
3654.00,0.0022
3653.00,0.0022
3652.00,0.0022
3651.00,0.0022
3650.00,0.0023
3649.00,0.0023
3648.00,0.0023
3647.00,0.0023
3646.00,0.0023
3645.00,0.0024
3644.00,0.0025
3643.00,0.0026
3642.00,0.0026
3641.00,0.0027
3640.00,0.0027
3639.00,0.0027
3638.00,0.0028
3637.00,0.0029
3636.00,0.0029
3635.00,0.0030
3634.00,0.0030
3633.00,0.0031
3632.00,0.0031
3631.00,0.0031
3630.00,0.0032
3629.00,0.0032
3628.00,0.0033
3627.00,0.0034
3626.00,0.0035
3625.00,0.0036
3624.00,0.0037
3623.00,0.0038
3622.00,0.0039
3621.00,0.0040
3620.00,0.0040
3619.00,0.0041
3618.00,0.0042
3617.00,0.0043
3616.00,0.0044
3615.00,0.0044
3614.00,0.0045
3613.00,0.0046
3612.00,0.0046
3611.00,0.0047
3610.00,0.0048
3609.00,0.0049
3608.00,0.0050
3607.00,0.0051
3606.00,0.0052
3605.00,0.0053
3604.00,0.0053
3603.00,0.0054
3602.00,0.0055
3601.00,0.0056
3600.00,0.0057
3599.00,0.0057
3598.00,0.0058
3597.00,0.0059
3596.00,0.0059
3595.00,0.0060
3594.00,0.0061
3593.00,0.0062
3592.00,0.0063
3591.00,0.0064
3590.00,0.0065
3589.00,0.0065
3588.00,0.0067
3587.00,0.0068
3586.00,0.0069
3585.00,0.0070
3584.00,0.0071
3583.00,0.0073
3582.00,0.0074
3581.00,0.0075
3580.00,0.0076
3579.00,0.0077
3578.00,0.0078
3577.00,0.0080
3576.00,0.0081
3575.00,0.0082
3574.00,0.0083
3573.00,0.0085
3572.00,0.0086
3571.00,0.0088
3570.00,0.0089
3569.00,0.0091
3568.00,0.0092
3567.00,0.0094
3566.00,0.0095
3565.00,0.0097
3564.00,0.0099
3563.00,0.0101
3562.00,0.0102
3561.00,0.0104
3560.00,0.0105
3559.00,0.0107
3558.00,0.0108
3557.00,0.0110
3556.00,0.0112
3555.00,0.0114
3554.00,0.0115
3553.00,0.0117
3552.00,0.0119
3551.00,0.0121
3550.00,0.0122
3549.00,0.0124
3548.00,0.0126
3547.00,0.0128
3546.00,0.0130
3545.00,0.0132
3544.00,0.0135
3543.00,0.0137
3542.00,0.0139
3541.00,0.0141
3540.00,0.0143
3539.00,0.0145
3538.00,0.0147
3537.00,0.0149
3536.00,0.0151
3535.00,0.0154
3534.00,0.0156
3533.00,0.0159
3532.00,0.0161
3531.00,0.0163
3530.00,0.0165
3529.00,0.0167
3528.00,0.0169
3527.00,0.0172
3526.00,0.0174
3525.00,0.0177
3524.00,0.0180
3523.00,0.0182
3522.00,0.0184
3521.00,0.0187
3520.00,0.0189
3519.00,0.0192
3518.00,0.0195
3517.00,0.0197
3516.00,0.0200
3515.00,0.0202
3514.00,0.0205
3513.00,0.0207
3512.00,0.0210
3511.00,0.0213
3510.00,0.0215
3509.00,0.0218
3508.00,0.0220
3507.00,0.0223
3506.00,0.0226
3505.00,0.0229
3504.00,0.0232
3503.00,0.0235
3502.00,0.0238
3501.00,0.0241
3500.00,0.0244
3499.00,0.0246
3498.00,0.0249
3497.00,0.0252
3496.00,0.0255
3495.00,0.0257
3494.00,0.0259
3493.00,0.0262
3492.00,0.0265
3491.00,0.0267
3490.00,0.0270
3489.00,0.0273
3488.00,0.0276
3487.00,0.0279
3486.00,0.0281
3485.00,0.0284
3484.00,0.0287
3483.00,0.0289
3482.00,0.0292
3481.00,0.0295
3480.00,0.0297
3479.00,0.0299
3478.00,0.0302
3477.00,0.0304
3476.00,0.0306
3475.00,0.0309
3474.00,0.0311
3473.00,0.0314
3472.00,0.0316
3471.00,0.0319
3470.00,0.0321
3469.00,0.0324
3468.00,0.0326
3467.00,0.0328
3466.00,0.0330
3465.00,0.0331
3464.00,0.0333
3463.00,0.0335
3462.00,0.0337
3461.00,0.0339
3460.00,0.0341
3459.00,0.0342
3458.00,0.0344
3457.00,0.0345
3456.00,0.0347
3455.00,0.0349
3454.00,0.0350
3453.00,0.0352
3452.00,0.0353
3451.00,0.0355
3450.00,0.0356
3449.00,0.0358
3448.00,0.0360
3447.00,0.0361
3446.00,0.0363
3445.00,0.0364
3444.00,0.0366
3443.00,0.0367
3442.00,0.0368
3441.00,0.0370
3440.00,0.0371
3439.00,0.0373
3438.00,0.0374
3437.00,0.0375
3436.00,0.0376
3435.00,0.0377
3434.00,0.0377
3433.00,0.0378
3432.00,0.0379
3431.00,0.0380
3430.00,0.0382
3429.00,0.0383
3428.00,0.0383
3427.00,0.0384
3426.00,0.0384
3425.00,0.0385
3424.00,0.0386
3423.00,0.0387
3422.00,0.0387
3421.00,0.0388
3420.00,0.0389
3419.00,0.0389
3418.00,0.0390
3417.00,0.0390
3416.00,0.0391
3415.00,0.0391
3414.00,0.0392
3413.00,0.0392
3412.00,0.0393
3411.00,0.0394
3410.00,0.0394
3409.00,0.0394
3408.00,0.0394
3407.00,0.0394
3406.00,0.0394
3405.00,0.0395
3404.00,0.0396
3403.00,0.0396
3402.00,0.0397
3401.00,0.0397
3400.00,0.0397
3399.00,0.0397
3398.00,0.0397
3397.00,0.0397
3396.00,0.0397
3395.00,0.0396
3394.00,0.0396
3393.00,0.0396
3392.00,0.0396
3391.00,0.0396
3390.00,0.0396
3389.00,0.0396
3388.00,0.0395
3387.00,0.0395
3386.00,0.0395
3385.00,0.0395
3384.00,0.0395
3383.00,0.0396
3382.00,0.0396
3381.00,0.0396
3380.00,0.0395
3379.00,0.0395
3378.00,0.0395
3377.00,0.0394
3376.00,0.0394
3375.00,0.0393
3374.00,0.0393
3373.00,0.0393
3372.00,0.0393
3371.00,0.0392
3370.00,0.0392
3369.00,0.0392
3368.00,0.0391
3367.00,0.0391
3366.00,0.0390
3365.00,0.0389
3364.00,0.0389
3363.00,0.0388
3362.00,0.0388
3361.00,0.0387
3360.00,0.0387
3359.00,0.0386
3358.00,0.0385
3357.00,0.0384
3356.00,0.0384
3355.00,0.0383
3354.00,0.0382
3353.00,0.0382
3352.00,0.0381
3351.00,0.0380
3350.00,0.0379
3349.00,0.0379
3348.00,0.0378
3347.00,0.0378
3346.00,0.0377
3345.00,0.0377
3344.00,0.0376
3343.00,0.0376
3342.00,0.0375
3341.00,0.0374
3340.00,0.0373
3339.00,0.0372
3338.00,0.0370
3337.00,0.0369
3336.00,0.0368
3335.00,0.0367
3334.00,0.0366
3333.00,0.0366
3332.00,0.0365
3331.00,0.0364
3330.00,0.0362
3329.00,0.0361
3328.00,0.0360
3327.00,0.0359
3326.00,0.0358
3325.00,0.0357
3324.00,0.0356
3323.00,0.0355
3322.00,0.0353
3321.00,0.0352
3320.00,0.0351
3319.00,0.0350
3318.00,0.0349
3317.00,0.0348
3316.00,0.0347
3315.00,0.0345
3314.00,0.0344
3313.00,0.0343
3312.00,0.0342
3311.00,0.0341
3310.00,0.0340
3309.00,0.0339
3308.00,0.0338
3307.00,0.0337
3306.00,0.0336
3305.00,0.0334
3304.00,0.0333
3303.00,0.0331
3302.00,0.0329
3301.00,0.0328
3300.00,0.0327
3299.00,0.0326
3298.00,0.0325
3297.00,0.0324
3296.00,0.0323
3295.00,0.0322
3294.00,0.0320
3293.00,0.0319
3292.00,0.0317
3291.00,0.0316
3290.00,0.0314
3289.00,0.0312
3288.00,0.0311
3287.00,0.0309
3286.00,0.0308
3285.00,0.0307
3284.00,0.0305
3283.00,0.0304
3282.00,0.0303
3281.00,0.0302
3280.00,0.0300
3279.00,0.0299
3278.00,0.0298
3277.00,0.0296
3276.00,0.0295
3275.00,0.0294
3274.00,0.0292
3273.00,0.0291
3272.00,0.0289
3271.00,0.0288
3270.00,0.0286
3269.00,0.0285
3268.00,0.0283
3267.00,0.0282
3266.00,0.0280
3265.00,0.0279
3264.00,0.0278
3263.00,0.0276
3262.00,0.0275
3261.00,0.0274
3260.00,0.0272
3259.00,0.0270
3258.00,0.0269
3257.00,0.0267
3256.00,0.0266
3255.00,0.0265
3254.00,0.0264
3253.00,0.0262
3252.00,0.0260
3251.00,0.0259
3250.00,0.0257
3249.00,0.0256
3248.00,0.0255
3247.00,0.0253
3246.00,0.0252
3245.00,0.0251
3244.00,0.0249
3243.00,0.0248
3242.00,0.0246
3241.00,0.0245
3240.00,0.0243
3239.00,0.0242
3238.00,0.0240
3237.00,0.0239
3236.00,0.0237
3235.00,0.0236
3234.00,0.0234
3233.00,0.0233
3232.00,0.0232
3231.00,0.0230
3230.00,0.0229
3229.00,0.0228
3228.00,0.0227
3227.00,0.0226
3226.00,0.0224
3225.00,0.0223
3224.00,0.0222
3223.00,0.0221
3222.00,0.0220
3221.00,0.0218
3220.00,0.0217
3219.00,0.0216
3218.00,0.0215
3217.00,0.0214
3216.00,0.0213
3215.00,0.0212
3214.00,0.0211
3213.00,0.0210
3212.00,0.0209
3211.00,0.0208
3210.00,0.0206
3209.00,0.0205
3208.00,0.0203
3207.00,0.0202
3206.00,0.0201
3205.00,0.0199
3204.00,0.0198
3203.00,0.0197
3202.00,0.0196
3201.00,0.0195
3200.00,0.0193
3199.00,0.0192
3198.00,0.0191
3197.00,0.0190
3196.00,0.0188
3195.00,0.0186
3194.00,0.0185
3193.00,0.0183
3192.00,0.0182
3191.00,0.0181
3190.00,0.0180
3189.00,0.0178
3188.00,0.0177
3187.00,0.0175
3186.00,0.0174
3185.00,0.0172
3184.00,0.0171
3183.00,0.0170
3182.00,0.0169
3181.00,0.0167
3180.00,0.0166
3179.00,0.0164
3178.00,0.0162
3177.00,0.0161
3176.00,0.0160
3175.00,0.0159
3174.00,0.0158
3173.00,0.0157
3172.00,0.0156
3171.00,0.0154
3170.00,0.0153
3169.00,0.0152
3168.00,0.0150
3167.00,0.0149
3166.00,0.0148
3165.00,0.0147
3164.00,0.0146
3163.00,0.0145
3162.00,0.0144
3161.00,0.0143
3160.00,0.0142
3159.00,0.0141
3158.00,0.0140
3157.00,0.0138
3156.00,0.0137
3155.00,0.0136
3154.00,0.0135
3153.00,0.0135
3152.00,0.0134
3151.00,0.0133
3150.00,0.0132
3149.00,0.0131
3148.00,0.0130
3147.00,0.0129
3146.00,0.0128
3145.00,0.0127
3144.00,0.0127
3143.00,0.0126
3142.00,0.0125
3141.00,0.0124
3140.00,0.0123
3139.00,0.0122
3138.00,0.0122
3137.00,0.0121
3136.00,0.0121
3135.00,0.0120
3134.00,0.0119
3133.00,0.0118
3132.00,0.0118
3131.00,0.0117
3130.00,0.0116
3129.00,0.0115
3128.00,0.0115
3127.00,0.0114
3126.00,0.0113
3125.00,0.0112
3124.00,0.0111
3123.00,0.0111
3122.00,0.0110
3121.00,0.0109
3120.00,0.0108
3119.00,0.0107
3118.00,0.0107
3117.00,0.0106
3116.00,0.0105
3115.00,0.0105
3114.00,0.0104
3113.00,0.0104
3112.00,0.0103
3111.00,0.0102
3110.00,0.0101
3109.00,0.0101
3108.00,0.0100
3107.00,0.0099
3106.00,0.0099
3105.00,0.0098
3104.00,0.0097
3103.00,0.0097
3102.00,0.0096
3101.00,0.0096
3100.00,0.0095
3099.00,0.0095
3098.00,0.0094
3097.00,0.0093
3096.00,0.0093
3095.00,0.0093
3094.00,0.0092
3093.00,0.0092
3092.00,0.0091
3091.00,0.0091
3090.00,0.0090
3089.00,0.0090
3088.00,0.0089
3087.00,0.0089
3086.00,0.0088
3085.00,0.0088
3084.00,0.0087
3083.00,0.0087
3082.00,0.0087
3081.00,0.0087
3080.00,0.0087
3079.00,0.0087
3078.00,0.0087
3077.00,0.0087
3076.00,0.0087
3075.00,0.0086
3074.00,0.0086
3073.00,0.0086
3072.00,0.0087
3071.00,0.0086
3070.00,0.0086
3069.00,0.0086
3068.00,0.0086
3067.00,0.0086
3066.00,0.0086
3065.00,0.0086
3064.00,0.0087
3063.00,0.0087
3062.00,0.0087
3061.00,0.0087
3060.00,0.0087
3059.00,0.0088
3058.00,0.0088
3057.00,0.0088
3056.00,0.0089
3055.00,0.0089
3054.00,0.0089
3053.00,0.0089
3052.00,0.0090
3051.00,0.0090
3050.00,0.0090
3049.00,0.0090
3048.00,0.0090
3047.00,0.0090
3046.00,0.0090
3045.00,0.0090
3044.00,0.0090
3043.00,0.0090
3042.00,0.0090
3041.00,0.0090
3040.00,0.0090
3039.00,0.0090
3038.00,0.0091
3037.00,0.0091
3036.00,0.0092
3035.00,0.0093
3034.00,0.0094
3033.00,0.0095
3032.00,0.0095
3031.00,0.0096
3030.00,0.0096
3029.00,0.0097
3028.00,0.0097
3027.00,0.0098
3026.00,0.0098
3025.00,0.0099
3024.00,0.0099
3023.00,0.0100
3022.00,0.0100
3021.00,0.0101
3020.00,0.0101
3019.00,0.0102
3018.00,0.0102
3017.00,0.0103
3016.00,0.0105
3015.00,0.0106
3014.00,0.0108
3013.00,0.0110
3012.00,0.0112
3011.00,0.0115
3010.00,0.0117
3009.00,0.0120
3008.00,0.0123
3007.00,0.0126
3006.00,0.0130
3005.00,0.0134
3004.00,0.0138
3003.00,0.0142
3002.00,0.0147
3001.00,0.0152
3000.00,0.0158
2999.00,0.0164
2998.00,0.0170
2997.00,0.0176
2996.00,0.0183
2995.00,0.0189
2994.00,0.0196
2993.00,0.0204
2992.00,0.0211
2991.00,0.0218
2990.00,0.0225
2989.00,0.0232
2988.00,0.0239
2987.00,0.0245
2986.00,0.0252
2985.00,0.0258
2984.00,0.0264
2983.00,0.0269
2982.00,0.0274
2981.00,0.0279
2980.00,0.0284
2979.00,0.0289
2978.00,0.0294
2977.00,0.0298
2976.00,0.0303
2975.00,0.0309
2974.00,0.0314
2973.00,0.0321
2972.00,0.0328
2971.00,0.0335
2970.00,0.0342
2969.00,0.0350
2968.00,0.0357
2967.00,0.0365
2966.00,0.0372
2965.00,0.0379
2964.00,0.0386
2963.00,0.0392
2962.00,0.0397
2961.00,0.0402
2960.00,0.0406
2959.00,0.0410
2958.00,0.0413
2957.00,0.0416
2956.00,0.0418
2955.00,0.0419
2954.00,0.0419
2953.00,0.0419
2952.00,0.0419
2951.00,0.0419
2950.00,0.0420
2949.00,0.0423
2948.00,0.0426
2947.00,0.0432
2946.00,0.0440
2945.00,0.0449
2944.00,0.0461
2943.00,0.0475
2942.00,0.0490
2941.00,0.0506
2940.00,0.0523
2939.00,0.0541
2938.00,0.0559
2937.00,0.0577
2936.00,0.0595
2935.00,0.0611
2934.00,0.0626
2933.00,0.0640
2932.00,0.0652
2931.00,0.0662
2930.00,0.0670
2929.00,0.0676
2928.00,0.0680
2927.00,0.0682
2926.00,0.0683
2925.00,0.0682
2924.00,0.0681
2923.00,0.0678
2922.00,0.0675
2921.00,0.0672
2920.00,0.0669
2919.00,0.0665
2918.00,0.0661
2917.00,0.0657
2916.00,0.0653
2915.00,0.0649
2914.00,0.0644
2913.00,0.0638
2912.00,0.0632
2911.00,0.0626
2910.00,0.0619
2909.00,0.0613
2908.00,0.0606
2907.00,0.0599
2906.00,0.0592
2905.00,0.0586
2904.00,0.0579
2903.00,0.0573
2902.00,0.0567
2901.00,0.0561
2900.00,0.0555
2899.00,0.0550
2898.00,0.0544
2897.00,0.0539
2896.00,0.0534
2895.00,0.0528
2894.00,0.0523
2893.00,0.0518
2892.00,0.0512
2891.00,0.0507
2890.00,0.0502
2889.00,0.0497
2888.00,0.0492
2887.00,0.0488
2886.00,0.0484
2885.00,0.0480
2884.00,0.0477
2883.00,0.0475
2882.00,0.0473
2881.00,0.0472
2880.00,0.0471
2879.00,0.0471
2878.00,0.0471
2877.00,0.0472
2876.00,0.0473
2875.00,0.0474
2874.00,0.0474
2873.00,0.0474
2872.00,0.0472
2871.00,0.0470
2870.00,0.0466
2869.00,0.0461
2868.00,0.0457
2867.00,0.0454
2866.00,0.0452
2865.00,0.0452
2864.00,0.0453
2863.00,0.0456
2862.00,0.0460
2861.00,0.0465
2860.00,0.0469
2859.00,0.0473
2858.00,0.0475
2857.00,0.0475
2856.00,0.0474
2855.00,0.0470
2854.00,0.0464
2853.00,0.0458
2852.00,0.0450
2851.00,0.0442
2850.00,0.0434
2849.00,0.0425
2848.00,0.0417
2847.00,0.0408
2846.00,0.0401
2845.00,0.0394
2844.00,0.0387
2843.00,0.0380
2842.00,0.0374
2841.00,0.0369
2840.00,0.0363
2839.00,0.0358
2838.00,0.0353
2837.00,0.0347
2836.00,0.0341
2835.00,0.0334
2834.00,0.0327
2833.00,0.0319
2832.00,0.0311
2831.00,0.0302
2830.00,0.0293
2829.00,0.0284
2828.00,0.0275
2827.00,0.0267
2826.00,0.0259
2825.00,0.0251
2824.00,0.0244
2823.00,0.0238
2822.00,0.0232
2821.00,0.0226
2820.00,0.0221
2819.00,0.0216
2818.00,0.0211
2817.00,0.0206
2816.00,0.0201
2815.00,0.0195
2814.00,0.0190
2813.00,0.0185
2812.00,0.0179
2811.00,0.0174
2810.00,0.0168
2809.00,0.0162
2808.00,0.0155
2807.00,0.0149
2806.00,0.0143
2805.00,0.0137
2804.00,0.0131
2803.00,0.0126
2802.00,0.0121
2801.00,0.0117
2800.00,0.0114
2799.00,0.0110
2798.00,0.0107
2797.00,0.0105
2796.00,0.0103
2795.00,0.0101
2794.00,0.0099
2793.00,0.0097
2792.00,0.0095
2791.00,0.0094
2790.00,0.0092
2789.00,0.0091
2788.00,0.0090
2787.00,0.0089
2786.00,0.0088
2785.00,0.0087
2784.00,0.0086
2783.00,0.0085
2782.00,0.0084
2781.00,0.0083
2780.00,0.0082
2779.00,0.0081
2778.00,0.0080
2777.00,0.0079
2776.00,0.0079
2775.00,0.0078
2774.00,0.0077
2773.00,0.0077
2772.00,0.0077
2771.00,0.0076
2770.00,0.0076
2769.00,0.0076
2768.00,0.0076
2767.00,0.0075
2766.00,0.0075
2765.00,0.0075
2764.00,0.0075
2763.00,0.0074
2762.00,0.0074
2761.00,0.0074
2760.00,0.0074
2759.00,0.0073
2758.00,0.0073
2757.00,0.0073
2756.00,0.0073
2755.00,0.0073
2754.00,0.0073
2753.00,0.0073
2752.00,0.0073
2751.00,0.0073
2750.00,0.0073
2749.00,0.0073
2748.00,0.0073
2747.00,0.0073
2746.00,0.0073
2745.00,0.0073
2744.00,0.0073
2743.00,0.0073
2742.00,0.0073
2741.00,0.0073
2740.00,0.0073
2739.00,0.0073
2738.00,0.0073
2737.00,0.0073
2736.00,0.0073
2735.00,0.0073
2734.00,0.0074
2733.00,0.0074
2732.00,0.0073
2731.00,0.0073
2730.00,0.0073
2729.00,0.0073
2728.00,0.0073
2727.00,0.0072
2726.00,0.0072
2725.00,0.0071
2724.00,0.0071
2723.00,0.0071
2722.00,0.0070
2721.00,0.0070
2720.00,0.0069
2719.00,0.0069
2718.00,0.0068
2717.00,0.0067
2716.00,0.0067
2715.00,0.0066
2714.00,0.0065
2713.00,0.0065
2712.00,0.0064
2711.00,0.0064
2710.00,0.0064
2709.00,0.0063
2708.00,0.0063
2707.00,0.0063
2706.00,0.0062
2705.00,0.0062
2704.00,0.0062
2703.00,0.0061
2702.00,0.0061
2701.00,0.0061
2700.00,0.0061
2699.00,0.0060
2698.00,0.0060
2697.00,0.0060
2696.00,0.0060
2695.00,0.0060
2694.00,0.0059
2693.00,0.0059
2692.00,0.0059
2691.00,0.0059
2690.00,0.0059
2689.00,0.0059
2688.00,0.0059
2687.00,0.0059
2686.00,0.0059
2685.00,0.0059
2684.00,0.0059
2683.00,0.0058
2682.00,0.0058
2681.00,0.0058
2680.00,0.0058
2679.00,0.0058
2678.00,0.0058
2677.00,0.0058
2676.00,0.0058
2675.00,0.0058
2674.00,0.0058
2673.00,0.0058
2672.00,0.0058
2671.00,0.0058
2670.00,0.0058
2669.00,0.0058
2668.00,0.0058
2667.00,0.0059
2666.00,0.0059
2665.00,0.0059
2664.00,0.0059
2663.00,0.0060
2662.00,0.0060
2661.00,0.0060
2660.00,0.0060
2659.00,0.0060
2658.00,0.0060
2657.00,0.0060
2656.00,0.0060
2655.00,0.0060
2654.00,0.0059
2653.00,0.0059
2652.00,0.0059
2651.00,0.0059
2650.00,0.0059
2649.00,0.0059
2648.00,0.0059
2647.00,0.0058
2646.00,0.0058
2645.00,0.0058
2644.00,0.0058
2643.00,0.0057
2642.00,0.0057
2641.00,0.0056
2640.00,0.0056
2639.00,0.0056
2638.00,0.0056
2637.00,0.0056
2636.00,0.0055
2635.00,0.0055
2634.00,0.0055
2633.00,0.0055
2632.00,0.0054
2631.00,0.0054
2630.00,0.0054
2629.00,0.0054
2628.00,0.0053
2627.00,0.0053
2626.00,0.0053
2625.00,0.0053
2624.00,0.0052
2623.00,0.0052
2622.00,0.0052
2621.00,0.0051
2620.00,0.0051
2619.00,0.0051
2618.00,0.0051
2617.00,0.0051
2616.00,0.0051
2615.00,0.0051
2614.00,0.0051
2613.00,0.0051
2612.00,0.0050
2611.00,0.0050
2610.00,0.0050
2609.00,0.0050
2608.00,0.0050
2607.00,0.0050
2606.00,0.0050
2605.00,0.0049
2604.00,0.0049
2603.00,0.0049
2602.00,0.0049
2601.00,0.0049
2600.00,0.0049
2599.00,0.0049
2598.00,0.0049
2597.00,0.0048
2596.00,0.0048
2595.00,0.0048
2594.00,0.0048
2593.00,0.0048
2592.00,0.0047
2591.00,0.0047
2590.00,0.0047
2589.00,0.0047
2588.00,0.0046
2587.00,0.0046
2586.00,0.0046
2585.00,0.0046
2584.00,0.0045
2583.00,0.0045
2582.00,0.0045
2581.00,0.0045
2580.00,0.0045
2579.00,0.0044
2578.00,0.0044
2577.00,0.0044
2576.00,0.0044
2575.00,0.0044
2574.00,0.0044
2573.00,0.0043
2572.00,0.0043
2571.00,0.0043
2570.00,0.0043
2569.00,0.0043
2568.00,0.0043
2567.00,0.0042
2566.00,0.0042
2565.00,0.0041
2564.00,0.0041
2563.00,0.0041
2562.00,0.0041
2561.00,0.0041
2560.00,0.0041
2559.00,0.0040
2558.00,0.0040
2557.00,0.0039
2556.00,0.0039
2555.00,0.0039
2554.00,0.0039
2553.00,0.0039
2552.00,0.0039
2551.00,0.0038
2550.00,0.0038
2549.00,0.0038
2548.00,0.0038
2547.00,0.0038
2546.00,0.0038
2545.00,0.0037
2544.00,0.0037
2543.00,0.0038
2542.00,0.0038
2541.00,0.0038
2540.00,0.0037
2539.00,0.0037
2538.00,0.0037
2537.00,0.0036
2536.00,0.0036
2535.00,0.0036
2534.00,0.0036
2533.00,0.0036
2532.00,0.0036
2531.00,0.0036
2530.00,0.0036
2529.00,0.0036
2528.00,0.0036
2527.00,0.0035
2526.00,0.0035
2525.00,0.0035
2524.00,0.0035
2523.00,0.0035
2522.00,0.0035
2521.00,0.0035
2520.00,0.0035
2519.00,0.0034
2518.00,0.0034
2517.00,0.0034
2516.00,0.0034
2515.00,0.0034
2514.00,0.0034
2513.00,0.0034
2512.00,0.0034
2511.00,0.0033
2510.00,0.0033
2509.00,0.0033
2508.00,0.0034
2507.00,0.0034
2506.00,0.0034
2505.00,0.0034
2504.00,0.0034
2503.00,0.0034
2502.00,0.0033
2501.00,0.0033
2500.00,0.0032
2499.00,0.0032
2498.00,0.0032
2497.00,0.0033
2496.00,0.0033
2495.00,0.0033
2494.00,0.0033
2493.00,0.0032
2492.00,0.0032
2491.00,0.0032
2490.00,0.0032
2489.00,0.0032
2488.00,0.0032
2487.00,0.0032
2486.00,0.0032
2485.00,0.0031
2484.00,0.0031
2483.00,0.0032
2482.00,0.0032
2481.00,0.0032
2480.00,0.0032
2479.00,0.0031
2478.00,0.0031
2477.00,0.0031
2476.00,0.0031
2475.00,0.0031
2474.00,0.0030
2473.00,0.0030
2472.00,0.0030
2471.00,0.0030
2470.00,0.0030
2469.00,0.0031
2468.00,0.0031
2467.00,0.0031
2466.00,0.0031
2465.00,0.0030
2464.00,0.0030
2463.00,0.0030
2462.00,0.0030
2461.00,0.0031
2460.00,0.0031
2459.00,0.0031
2458.00,0.0031
2457.00,0.0031
2456.00,0.0031
2455.00,0.0031
2454.00,0.0031
2453.00,0.0031
2452.00,0.0030
2451.00,0.0030
2450.00,0.0030
2449.00,0.0030
2448.00,0.0030
2447.00,0.0031
2446.00,0.0031
2445.00,0.0031
2444.00,0.0030
2443.00,0.0030
2442.00,0.0029
2441.00,0.0029
2440.00,0.0029
2439.00,0.0028
2438.00,0.0028
2437.00,0.0028
2436.00,0.0028
2435.00,0.0028
2434.00,0.0028
2433.00,0.0028
2432.00,0.0028
2431.00,0.0028
2430.00,0.0028
2429.00,0.0028
2428.00,0.0028
2427.00,0.0027
2426.00,0.0027
2425.00,0.0027
2424.00,0.0027
2423.00,0.0027
2422.00,0.0027
2421.00,0.0026
2420.00,0.0026
2419.00,0.0026
2418.00,0.0026
2417.00,0.0026
2416.00,0.0027
2415.00,0.0027
2414.00,0.0027
2413.00,0.0027
2412.00,0.0027
2411.00,0.0027
2410.00,0.0027
2409.00,0.0026
2408.00,0.0026
2407.00,0.0026
2406.00,0.0025
2405.00,0.0025
2404.00,0.0025
2403.00,0.0025
2402.00,0.0025
2401.00,0.0025
2400.00,0.0026
2399.00,0.0026
2398.00,0.0026
2397.00,0.0026
2396.00,0.0026
2395.00,0.0026
2394.00,0.0026
2393.00,0.0026
2392.00,0.0026
2391.00,0.0026
2390.00,0.0025
2389.00,0.0025
2388.00,0.0025
2387.00,0.0025
2386.00,0.0025
2385.00,0.0024
2384.00,0.0024
2383.00,0.0024
2382.00,0.0023
2381.00,0.0023
2380.00,0.0023
2379.00,0.0024
2378.00,0.0024
2377.00,0.0023
2376.00,0.0024
2375.00,0.0024
2374.00,0.0024
2373.00,0.0024
2372.00,0.0024
2371.00,0.0024
2370.00,0.0024
2369.00,0.0024
2368.00,0.0023
2367.00,0.0023
2366.00,0.0023
2365.00,0.0023
2364.00,0.0023
2363.00,0.0024
2362.00,0.0024
2361.00,0.0024
2360.00,0.0024
2359.00,0.0025
2358.00,0.0025
2357.00,0.0024
2356.00,0.0024
2355.00,0.0023
2354.00,0.0022
2353.00,0.0022
2352.00,0.0023
2351.00,0.0024
2350.00,0.0026
2349.00,0.0027
2348.00,0.0027
2347.00,0.0026
2346.00,0.0026
2345.00,0.0026
2344.00,0.0026
2343.00,0.0026
2342.00,0.0026
2341.00,0.0026
2340.00,0.0026
2339.00,0.0027
2338.00,0.0026
2337.00,0.0026
2336.00,0.0027
2335.00,0.0026
2334.00,0.0026
2333.00,0.0025
2332.00,0.0025
2331.00,0.0024
2330.00,0.0025
2329.00,0.0026
2328.00,0.0029
2327.00,0.0033
2326.00,0.0035
2325.00,0.0036
2324.00,0.0035
2323.00,0.0033
2322.00,0.0032
2321.00,0.0031
2320.00,0.0030
2319.00,0.0029
2318.00,0.0028
2317.00,0.0027
2316.00,0.0027
2315.00,0.0027
2314.00,0.0026
2313.00,0.0025
2312.00,0.0025
2311.00,0.0024
2310.00,0.0024
2309.00,0.0024
2308.00,0.0024
2307.00,0.0024
2306.00,0.0024
2305.00,0.0024
2304.00,0.0024
2303.00,0.0024
2302.00,0.0024
2301.00,0.0024
2300.00,0.0024
2299.00,0.0025
2298.00,0.0025
2297.00,0.0026
2296.00,0.0026
2295.00,0.0027
2294.00,0.0028
2293.00,0.0029
2292.00,0.0030
2291.00,0.0030
2290.00,0.0030
2289.00,0.0031
2288.00,0.0031
2287.00,0.0031
2286.00,0.0031
2285.00,0.0031
2284.00,0.0030
2283.00,0.0028
2282.00,0.0027
2281.00,0.0026
2280.00,0.0025
2279.00,0.0025
2278.00,0.0024
2277.00,0.0024
2276.00,0.0025
2275.00,0.0025
2274.00,0.0025
2273.00,0.0025
2272.00,0.0024
2271.00,0.0024
2270.00,0.0023
2269.00,0.0023
2268.00,0.0023
2267.00,0.0022
2266.00,0.0021
2265.00,0.0021
2264.00,0.0021
2263.00,0.0022
2262.00,0.0023
2261.00,0.0023
2260.00,0.0023
2259.00,0.0022
2258.00,0.0021
2257.00,0.0020
2256.00,0.0019
2255.00,0.0020
2254.00,0.0020
2253.00,0.0021
2252.00,0.0021
2251.00,0.0021
2250.00,0.0020
2249.00,0.0019
2248.00,0.0019
2247.00,0.0020
2246.00,0.0020
2245.00,0.0021
2244.00,0.0022
2243.00,0.0022
2242.00,0.0021
2241.00,0.0021
2240.00,0.0021
2239.00,0.0021
2238.00,0.0020
2237.00,0.0020
2236.00,0.0020
2235.00,0.0019
2234.00,0.0019
2233.00,0.0019
2232.00,0.0019
2231.00,0.0019
2230.00,0.0018
2229.00,0.0019
2228.00,0.0019
2227.00,0.0020
2226.00,0.0020
2225.00,0.0020
2224.00,0.0020
2223.00,0.0020
2222.00,0.0020
2221.00,0.0020
2220.00,0.0020
2219.00,0.0020
2218.00,0.0019
2217.00,0.0019
2216.00,0.0018
2215.00,0.0018
2214.00,0.0018
2213.00,0.0018
2212.00,0.0018
2211.00,0.0019
2210.00,0.0019
2209.00,0.0019
2208.00,0.0018
2207.00,0.0018
2206.00,0.0017
2205.00,0.0017
2204.00,0.0017
2203.00,0.0018
2202.00,0.0018
2201.00,0.0019
2200.00,0.0020
2199.00,0.0021
2198.00,0.0021
2197.00,0.0021
2196.00,0.0021
2195.00,0.0021
2194.00,0.0020
2193.00,0.0020
2192.00,0.0020
2191.00,0.0021
2190.00,0.0021
2189.00,0.0020
2188.00,0.0020
2187.00,0.0019
2186.00,0.0018
2185.00,0.0018
2184.00,0.0017
2183.00,0.0016
2182.00,0.0014
2181.00,0.0014
2180.00,0.0015
2179.00,0.0015
2178.00,0.0015
2177.00,0.0014
2176.00,0.0013
2175.00,0.0013
2174.00,0.0013
2173.00,0.0014
2172.00,0.0016
2171.00,0.0018
2170.00,0.0019
2169.00,0.0020
2168.00,0.0020
2167.00,0.0021
2166.00,0.0023
2165.00,0.0024
2164.00,0.0025
2163.00,0.0023
2162.00,0.0017
2161.00,0.0007
2160.00,-0.0005
2159.00,-0.0013
2158.00,-0.0016
2157.00,-0.0014
2156.00,-0.0010
2155.00,-0.0006
2154.00,-0.0004
2153.00,-0.0004
2152.00,-0.0003
2151.00,-0.0003
2150.00,-0.0003
2149.00,-0.0002
2148.00,-0.0001
2147.00,-0.0000
2146.00,0.0000
2145.00,0.0001
2144.00,0.0002
2143.00,0.0003
2142.00,0.0003
2141.00,0.0003
2140.00,0.0004
2139.00,0.0005
2138.00,0.0005
2137.00,0.0004
2136.00,0.0003
2135.00,0.0002
2134.00,0.0002
2133.00,0.0002
2132.00,0.0004
2131.00,0.0006
2130.00,0.0008
2129.00,0.0009
2128.00,0.0011
2127.00,0.0012
2126.00,0.0012
2125.00,0.0013
2124.00,0.0014
2123.00,0.0015
2122.00,0.0016
2121.00,0.0017
2120.00,0.0018
2119.00,0.0019
2118.00,0.0020
2117.00,0.0020
2116.00,0.0020
2115.00,0.0021
2114.00,0.0021
2113.00,0.0021
2112.00,0.0021
2111.00,0.0021
2110.00,0.0021
2109.00,0.0021
2108.00,0.0021
2107.00,0.0021
2106.00,0.0021
2105.00,0.0021
2104.00,0.0022
2103.00,0.0022
2102.00,0.0022
2101.00,0.0022
2100.00,0.0022
2099.00,0.0021
2098.00,0.0020
2097.00,0.0018
2096.00,0.0016
2095.00,0.0016
2094.00,0.0016
2093.00,0.0017
2092.00,0.0018
2091.00,0.0018
2090.00,0.0019
2089.00,0.0019
2088.00,0.0020
2087.00,0.0021
2086.00,0.0021
2085.00,0.0021
2084.00,0.0021
2083.00,0.0020
2082.00,0.0019
2081.00,0.0019
2080.00,0.0020
2079.00,0.0020
2078.00,0.0020
2077.00,0.0020
2076.00,0.0020
2075.00,0.0020
2074.00,0.0019
2073.00,0.0019
2072.00,0.0019
2071.00,0.0018
2070.00,0.0018
2069.00,0.0018
2068.00,0.0018
2067.00,0.0018
2066.00,0.0017
2065.00,0.0017
2064.00,0.0017
2063.00,0.0017
2062.00,0.0017
2061.00,0.0017
2060.00,0.0017
2059.00,0.0018
2058.00,0.0019
2057.00,0.0019
2056.00,0.0019
2055.00,0.0020
2054.00,0.0022
2053.00,0.0024
2052.00,0.0025
2051.00,0.0024
2050.00,0.0021
2049.00,0.0017
2048.00,0.0015
2047.00,0.0014
2046.00,0.0014
2045.00,0.0014
2044.00,0.0014
2043.00,0.0012
2042.00,0.0010
2041.00,0.0008
2040.00,0.0008
2039.00,0.0009
2038.00,0.0010
2037.00,0.0009
2036.00,0.0008
2035.00,0.0006
2034.00,0.0004
2033.00,0.0003
2032.00,0.0001
2031.00,-0.0000
2030.00,-0.0001
2029.00,-0.0001
2028.00,0.0000
2027.00,0.0000
2026.00,-0.0001
2025.00,-0.0002
2024.00,-0.0002
2023.00,-0.0002
2022.00,-0.0002
2021.00,-0.0002
2020.00,-0.0002
2019.00,-0.0001
2018.00,-0.0002
2017.00,-0.0002
2016.00,-0.0002
2015.00,-0.0002
2014.00,-0.0001
2013.00,-0.0000
2012.00,0.0001
2011.00,0.0001
2010.00,0.0001
2009.00,0.0000
2008.00,0.0000
2007.00,-0.0000
2006.00,-0.0000
2005.00,0.0001
2004.00,0.0002
2003.00,0.0004
2002.00,0.0005
2001.00,0.0007
2000.00,0.0008
1999.00,0.0008
1998.00,0.0007
1997.00,0.0006
1996.00,0.0006
1995.00,0.0006
1994.00,0.0008
1993.00,0.0009
1992.00,0.0011
1991.00,0.0012
1990.00,0.0012
1989.00,0.0011
1988.00,0.0011
1987.00,0.0012
1986.00,0.0012
1985.00,0.0013
1984.00,0.0014
1983.00,0.0017
1982.00,0.0018
1981.00,0.0019
1980.00,0.0017
1979.00,0.0013
1978.00,0.0007
1977.00,0.0003
1976.00,0.0002
1975.00,0.0002
1974.00,0.0002
1973.00,0.0003
1972.00,0.0004
1971.00,0.0005
1970.00,0.0005
1969.00,0.0004
1968.00,0.0004
1967.00,0.0004
1966.00,0.0005
1965.00,0.0005
1964.00,0.0004
1963.00,0.0003
1962.00,0.0002
1961.00,0.0001
1960.00,0.0002
1959.00,0.0002
1958.00,0.0003
1957.00,0.0004
1956.00,0.0006
1955.00,0.0007
1954.00,0.0008
1953.00,0.0008
1952.00,0.0008
1951.00,0.0008
1950.00,0.0008
1949.00,0.0008
1948.00,0.0009
1947.00,0.0010
1946.00,0.0010
1945.00,0.0009
1944.00,0.0008
1943.00,0.0007
1942.00,0.0007
1941.00,0.0007
1940.00,0.0007
1939.00,0.0008
1938.00,0.0008
1937.00,0.0009
1936.00,0.0009
1935.00,0.0010
1934.00,0.0011
1933.00,0.0011
1932.00,0.0011
1931.00,0.0011
1930.00,0.0011
1929.00,0.0011
1928.00,0.0011
1927.00,0.0011
1926.00,0.0011
1925.00,0.0010
1924.00,0.0010
1923.00,0.0010
1922.00,0.0011
1921.00,0.0012
1920.00,0.0012
1919.00,0.0012
1918.00,0.0011
1917.00,0.0011
1916.00,0.0011
1915.00,0.0011
1914.00,0.0012
1913.00,0.0012
1912.00,0.0012
1911.00,0.0012
1910.00,0.0012
1909.00,0.0011
1908.00,0.0011
1907.00,0.0011
1906.00,0.0011
1905.00,0.0012
1904.00,0.0012
1903.00,0.0012
1902.00,0.0013
1901.00,0.0013
1900.00,0.0013
1899.00,0.0013
1898.00,0.0013
1897.00,0.0012
1896.00,0.0012
1895.00,0.0012
1894.00,0.0013
1893.00,0.0013
1892.00,0.0013
1891.00,0.0013
1890.00,0.0013
1889.00,0.0013
1888.00,0.0014
1887.00,0.0014
1886.00,0.0014
1885.00,0.0014
1884.00,0.0014
1883.00,0.0014
1882.00,0.0014
1881.00,0.0014
1880.00,0.0014
1879.00,0.0015
1878.00,0.0015
1877.00,0.0015
1876.00,0.0015
1875.00,0.0016
1874.00,0.0016
1873.00,0.0016
1872.00,0.0016
1871.00,0.0016
1870.00,0.0015
1869.00,0.0015
1868.00,0.0016
1867.00,0.0016
1866.00,0.0017
1865.00,0.0017
1864.00,0.0017
1863.00,0.0017
1862.00,0.0017
1861.00,0.0017
1860.00,0.0017
1859.00,0.0017
1858.00,0.0017
1857.00,0.0016
1856.00,0.0016
1855.00,0.0017
1854.00,0.0017
1853.00,0.0017
1852.00,0.0017
1851.00,0.0017
1850.00,0.0018
1849.00,0.0018
1848.00,0.0019
1847.00,0.0019
1846.00,0.0018
1845.00,0.0017
1844.00,0.0017
1843.00,0.0017
1842.00,0.0017
1841.00,0.0018
1840.00,0.0018
1839.00,0.0018
1838.00,0.0019
1837.00,0.0019
1836.00,0.0019
1835.00,0.0020
1834.00,0.0020
1833.00,0.0020
1832.00,0.0020
1831.00,0.0020
1830.00,0.0021
1829.00,0.0021
1828.00,0.0021
1827.00,0.0021
1826.00,0.0021
1825.00,0.0021
1824.00,0.0021
1823.00,0.0021
1822.00,0.0021
1821.00,0.0021
1820.00,0.0021
1819.00,0.0020
1818.00,0.0020
1817.00,0.0019
1816.00,0.0020
1815.00,0.0021
1814.00,0.0021
1813.00,0.0022
1812.00,0.0022
1811.00,0.0023
1810.00,0.0023
1809.00,0.0023
1808.00,0.0024
1807.00,0.0024
1806.00,0.0024
1805.00,0.0024
1804.00,0.0024
1803.00,0.0024
1802.00,0.0024
1801.00,0.0025
1800.00,0.0025
1799.00,0.0025
1798.00,0.0025
1797.00,0.0025
1796.00,0.0025
1795.00,0.0025
1794.00,0.0025
1793.00,0.0025
1792.00,0.0025
1791.00,0.0025
1790.00,0.0025
1789.00,0.0026
1788.00,0.0026
1787.00,0.0026
1786.00,0.0026
1785.00,0.0026
1784.00,0.0027
1783.00,0.0027
1782.00,0.0027
1781.00,0.0027
1780.00,0.0027
1779.00,0.0027
1778.00,0.0027
1777.00,0.0027
1776.00,0.0027
1775.00,0.0027
1774.00,0.0027
1773.00,0.0028
1772.00,0.0028
1771.00,0.0028
1770.00,0.0028
1769.00,0.0029
1768.00,0.0029
1767.00,0.0030
1766.00,0.0030
1765.00,0.0030
1764.00,0.0030
1763.00,0.0031
1762.00,0.0031
1761.00,0.0031
1760.00,0.0032
1759.00,0.0032
1758.00,0.0032
1757.00,0.0033
1756.00,0.0033
1755.00,0.0034
1754.00,0.0034
1753.00,0.0035
1752.00,0.0035
1751.00,0.0036
1750.00,0.0036
1749.00,0.0036
1748.00,0.0036
1747.00,0.0037
1746.00,0.0037
1745.00,0.0038
1744.00,0.0038
1743.00,0.0039
1742.00,0.0039
1741.00,0.0039
1740.00,0.0039
1739.00,0.0039
1738.00,0.0040
1737.00,0.0040
1736.00,0.0041
1735.00,0.0041
1734.00,0.0041
1733.00,0.0042
1732.00,0.0042
1731.00,0.0043
1730.00,0.0043
1729.00,0.0044
1728.00,0.0045
1727.00,0.0045
1726.00,0.0045
1725.00,0.0045
1724.00,0.0046
1723.00,0.0046
1722.00,0.0046
1721.00,0.0046
1720.00,0.0047
1719.00,0.0047
1718.00,0.0048
1717.00,0.0048
1716.00,0.0049
1715.00,0.0049
1714.00,0.0049
1713.00,0.0049
1712.00,0.0049
1711.00,0.0050
1710.00,0.0050
1709.00,0.0051
1708.00,0.0051
1707.00,0.0051
1706.00,0.0051
1705.00,0.0052
1704.00,0.0052
1703.00,0.0052
1702.00,0.0053
1701.00,0.0053
1700.00,0.0054
1699.00,0.0055
1698.00,0.0057
1697.00,0.0058
1696.00,0.0060
1695.00,0.0063
1694.00,0.0065
1693.00,0.0066
1692.00,0.0068
1691.00,0.0070
1690.00,0.0072
1689.00,0.0075
1688.00,0.0077
1687.00,0.0078
1686.00,0.0080
1685.00,0.0082
1684.00,0.0085
1683.00,0.0088
1682.00,0.0091
1681.00,0.0094
1680.00,0.0097
1679.00,0.0100
1678.00,0.0103
1677.00,0.0106
1676.00,0.0110
1675.00,0.0115
1674.00,0.0120
1673.00,0.0124
1672.00,0.0128
1671.00,0.0132
1670.00,0.0136
1669.00,0.0139
1668.00,0.0143
1667.00,0.0145
1666.00,0.0147
1665.00,0.0148
1664.00,0.0149
1663.00,0.0149
1662.00,0.0150
1661.00,0.0150
1660.00,0.0150
1659.00,0.0150
1658.00,0.0149
1657.00,0.0148
1656.00,0.0147
1655.00,0.0146
1654.00,0.0144
1653.00,0.0143
1652.00,0.0142
1651.00,0.0142
1650.00,0.0142
1649.00,0.0142
1648.00,0.0142
1647.00,0.0142
1646.00,0.0143
1645.00,0.0143
1644.00,0.0145
1643.00,0.0147
1642.00,0.0150
1641.00,0.0153
1640.00,0.0158
1639.00,0.0162
1638.00,0.0168
1637.00,0.0176
1636.00,0.0188
1635.00,0.0203
1634.00,0.0218
1633.00,0.0232
1632.00,0.0246
1631.00,0.0260
1630.00,0.0275
1629.00,0.0290
1628.00,0.0305
1627.00,0.0319
1626.00,0.0329
1625.00,0.0337
1624.00,0.0343
1623.00,0.0345
1622.00,0.0344
1621.00,0.0340
1620.00,0.0334
1619.00,0.0325
1618.00,0.0313
1617.00,0.0296
1616.00,0.0278
1615.00,0.0262
1614.00,0.0251
1613.00,0.0241
1612.00,0.0233
1611.00,0.0227
1610.00,0.0224
1609.00,0.0225
1608.00,0.0230
1607.00,0.0239
1606.00,0.0252
1605.00,0.0270
1604.00,0.0291
1603.00,0.0315
1602.00,0.0340
1601.00,0.0363
1600.00,0.0384
1599.00,0.0399
1598.00,0.0409
1597.00,0.0412
1596.00,0.0410
1595.00,0.0404
1594.00,0.0395
1593.00,0.0386
1592.00,0.0377
1591.00,0.0368
1590.00,0.0359
1589.00,0.0350
1588.00,0.0339
1587.00,0.0327
1586.00,0.0313
1585.00,0.0297
1584.00,0.0280
1583.00,0.0263
1582.00,0.0245
1581.00,0.0229
1580.00,0.0215
1579.00,0.0203
1578.00,0.0192
1577.00,0.0180
1576.00,0.0168
1575.00,0.0158
1574.00,0.0151
1573.00,0.0146
1572.00,0.0141
1571.00,0.0136
1570.00,0.0130
1569.00,0.0124
1568.00,0.0120
1567.00,0.0117
1566.00,0.0114
1565.00,0.0111
1564.00,0.0109
1563.00,0.0107
1562.00,0.0105
1561.00,0.0103
1560.00,0.0101
1559.00,0.0099
1558.00,0.0096
1557.00,0.0095
1556.00,0.0095
1555.00,0.0095
1554.00,0.0095
1553.00,0.0095
1552.00,0.0095
1551.00,0.0095
1550.00,0.0096
1549.00,0.0096
1548.00,0.0097
1547.00,0.0097
1546.00,0.0098
1545.00,0.0100
1544.00,0.0102
1543.00,0.0103
1542.00,0.0105
1541.00,0.0108
1540.00,0.0112
1539.00,0.0115
1538.00,0.0119
1537.00,0.0121
1536.00,0.0123
1535.00,0.0124
1534.00,0.0125
1533.00,0.0126
1532.00,0.0126
1531.00,0.0126
1530.00,0.0126
1529.00,0.0126
1528.00,0.0126
1527.00,0.0126
1526.00,0.0126
1525.00,0.0127
1524.00,0.0128
1523.00,0.0130
1522.00,0.0131
1521.00,0.0133
1520.00,0.0135
1519.00,0.0135
1518.00,0.0136
1517.00,0.0135
1516.00,0.0134
1515.00,0.0133
1514.00,0.0131
1513.00,0.0129
1512.00,0.0127
1511.00,0.0125
1510.00,0.0123
1509.00,0.0122
1508.00,0.0120
1507.00,0.0117
1506.00,0.0114
1505.00,0.0113
1504.00,0.0113
1503.00,0.0114
1502.00,0.0114
1501.00,0.0115
1500.00,0.0116
1499.00,0.0116
1498.00,0.0117
1497.00,0.0118
1496.00,0.0120
1495.00,0.0121
1494.00,0.0122
1493.00,0.0124
1492.00,0.0125
1491.00,0.0127
1490.00,0.0130
1489.00,0.0133
1488.00,0.0137
1487.00,0.0142
1486.00,0.0146
1485.00,0.0152
1484.00,0.0158
1483.00,0.0166
1482.00,0.0174
1481.00,0.0185
1480.00,0.0195
1479.00,0.0206
1478.00,0.0217
1477.00,0.0230
1476.00,0.0243
1475.00,0.0257
1474.00,0.0273
1473.00,0.0292
1472.00,0.0315
1471.00,0.0337
1470.00,0.0356
1469.00,0.0374
1468.00,0.0390
1467.00,0.0404
1466.00,0.0418
1465.00,0.0432
1464.00,0.0447
1463.00,0.0462
1462.00,0.0475
1461.00,0.0489
1460.00,0.0503
1459.00,0.0518
1458.00,0.0536
1457.00,0.0558
1456.00,0.0578
1455.00,0.0593
1454.00,0.0607
1453.00,0.0621
1452.00,0.0637
1451.00,0.0652
1450.00,0.0666
1449.00,0.0680
1448.00,0.0693
1447.00,0.0704
1446.00,0.0714
1445.00,0.0724
1444.00,0.0732
1443.00,0.0740
1442.00,0.0748
1441.00,0.0757
1440.00,0.0766
1439.00,0.0775
1438.00,0.0786
1437.00,0.0801
1436.00,0.0818
1435.00,0.0837
1434.00,0.0856
1433.00,0.0876
1432.00,0.0893
1431.00,0.0903
1430.00,0.0903
1429.00,0.0890
1428.00,0.0865
1427.00,0.0829
1426.00,0.0785
1425.00,0.0735
1424.00,0.0680
1423.00,0.0629
1422.00,0.0586
1421.00,0.0550
1420.00,0.0514
1419.00,0.0480
1418.00,0.0452
1417.00,0.0433
1416.00,0.0420
1415.00,0.0409
1414.00,0.0401
1413.00,0.0393
1412.00,0.0387
1411.00,0.0382
1410.00,0.0377
1409.00,0.0373
1408.00,0.0370
1407.00,0.0367
1406.00,0.0364
1405.00,0.0362
1404.00,0.0360
1403.00,0.0359
1402.00,0.0359
1401.00,0.0359
1400.00,0.0361
1399.00,0.0364
1398.00,0.0367
1397.00,0.0372
1396.00,0.0378
1395.00,0.0385
1394.00,0.0395
1393.00,0.0405
1392.00,0.0416
1391.00,0.0429
1390.00,0.0444
1389.00,0.0462
1388.00,0.0484
1387.00,0.0510
1386.00,0.0538
1385.00,0.0565
1384.00,0.0591
1383.00,0.0616
1382.00,0.0640
1381.00,0.0662
1380.00,0.0681
1379.00,0.0698
1378.00,0.0712
1377.00,0.0721
1376.00,0.0725
1375.00,0.0723
1374.00,0.0713
1373.00,0.0700
1372.00,0.0686
1371.00,0.0672
1370.00,0.0659
1369.00,0.0646
1368.00,0.0634
1367.00,0.0622
1366.00,0.0610
1365.00,0.0599
1364.00,0.0587
1363.00,0.0576
1362.00,0.0565
1361.00,0.0556
1360.00,0.0549
1359.00,0.0544
1358.00,0.0540
1357.00,0.0539
1356.00,0.0539
1355.00,0.0541
1354.00,0.0543
1353.00,0.0546
1352.00,0.0548
1351.00,0.0551
1350.00,0.0552
1349.00,0.0553
1348.00,0.0553
1347.00,0.0552
1346.00,0.0552
1345.00,0.0551
1344.00,0.0551
1343.00,0.0551
1342.00,0.0552
1341.00,0.0553
1340.00,0.0555
1339.00,0.0556
1338.00,0.0557
1337.00,0.0557
1336.00,0.0556
1335.00,0.0554
1334.00,0.0551
1333.00,0.0546
1332.00,0.0540
1331.00,0.0533
1330.00,0.0526
1329.00,0.0519
1328.00,0.0513
1327.00,0.0508
1326.00,0.0504
1325.00,0.0502
1324.00,0.0502
1323.00,0.0502
1322.00,0.0505
1321.00,0.0508
1320.00,0.0513
1319.00,0.0517
1318.00,0.0522
1317.00,0.0527
1316.00,0.0531
1315.00,0.0535
1314.00,0.0537
1313.00,0.0539
1312.00,0.0539
1311.00,0.0537
1310.00,0.0534
1309.00,0.0530
1308.00,0.0524
1307.00,0.0518
1306.00,0.0511
1305.00,0.0504
1304.00,0.0497
1303.00,0.0490
1302.00,0.0483
1301.00,0.0477
1300.00,0.0471
1299.00,0.0467
1298.00,0.0464
1297.00,0.0462
1296.00,0.0460
1295.00,0.0460
1294.00,0.0459
1293.00,0.0458
1292.00,0.0457
1291.00,0.0456
1290.00,0.0454
1289.00,0.0452
1288.00,0.0448
1287.00,0.0444
1286.00,0.0439
1285.00,0.0434
1284.00,0.0428
1283.00,0.0423
1282.00,0.0418
1281.00,0.0413
1280.00,0.0408
1279.00,0.0405
1278.00,0.0402
1277.00,0.0399
1276.00,0.0398
1275.00,0.0397
1274.00,0.0397
1273.00,0.0397
1272.00,0.0398
1271.00,0.0398
1270.00,0.0399
1269.00,0.0399
1268.00,0.0399
1267.00,0.0398
1266.00,0.0397
1265.00,0.0394
1264.00,0.0391
1263.00,0.0387
1262.00,0.0383
1261.00,0.0379
1260.00,0.0375
1259.00,0.0370
1258.00,0.0367
1257.00,0.0362
1256.00,0.0358
1255.00,0.0353
1254.00,0.0347
1253.00,0.0342
1252.00,0.0336
1251.00,0.0331
1250.00,0.0325
1249.00,0.0320
1248.00,0.0315
1247.00,0.0310
1246.00,0.0306
1245.00,0.0303
1244.00,0.0299
1243.00,0.0297
1242.00,0.0295
1241.00,0.0295
1240.00,0.0295
1239.00,0.0297
1238.00,0.0300
1237.00,0.0305
1236.00,0.0311
1235.00,0.0320
1234.00,0.0330
1233.00,0.0341
1232.00,0.0353
1231.00,0.0365
1230.00,0.0376
1229.00,0.0386
1228.00,0.0395
1227.00,0.0402
1226.00,0.0409
1225.00,0.0416
1224.00,0.0423
1223.00,0.0431
1222.00,0.0440
1221.00,0.0450
1220.00,0.0461
1219.00,0.0472
1218.00,0.0482
1217.00,0.0491
1216.00,0.0498
1215.00,0.0503
1214.00,0.0506
1213.00,0.0506
1212.00,0.0505
1211.00,0.0503
1210.00,0.0501
1209.00,0.0499
1208.00,0.0498
1207.00,0.0498
1206.00,0.0500
1205.00,0.0502
1204.00,0.0506
1203.00,0.0510
1202.00,0.0514
1201.00,0.0518
1200.00,0.0521
1199.00,0.0524
1198.00,0.0525
1197.00,0.0525
1196.00,0.0524
1195.00,0.0523
1194.00,0.0523
1193.00,0.0523
1192.00,0.0522
1191.00,0.0521
1190.00,0.0519
1189.00,0.0517
1188.00,0.0514
1187.00,0.0510
1186.00,0.0508
1185.00,0.0506
1184.00,0.0506
1183.00,0.0509
1182.00,0.0513
1181.00,0.0520
1180.00,0.0529
1179.00,0.0540
1178.00,0.0552
1177.00,0.0565
1176.00,0.0579
1175.00,0.0594
1174.00,0.0611
1173.00,0.0628
1172.00,0.0648
1171.00,0.0669
1170.00,0.0693
1169.00,0.0717
1168.00,0.0743
1167.00,0.0770
1166.00,0.0797
1165.00,0.0824
1164.00,0.0850
1163.00,0.0876
1162.00,0.0901
1161.00,0.0925
1160.00,0.0948
1159.00,0.0972
1158.00,0.0996
1157.00,0.1020
1156.00,0.1044
1155.00,0.1066
1154.00,0.1086
1153.00,0.1104
1152.00,0.1117
1151.00,0.1127
1150.00,0.1133
1149.00,0.1135
1148.00,0.1135
1147.00,0.1133
1146.00,0.1130
1145.00,0.1128
1144.00,0.1127
1143.00,0.1129
1142.00,0.1133
1141.00,0.1140
1140.00,0.1151
1139.00,0.1164
1138.00,0.1180
1137.00,0.1200
1136.00,0.1222
1135.00,0.1248
1134.00,0.1276
1133.00,0.1308
1132.00,0.1342
1131.00,0.1378
1130.00,0.1415
1129.00,0.1452
1128.00,0.1490
1127.00,0.1526
1126.00,0.1561
1125.00,0.1594
1124.00,0.1624
1123.00,0.1651
1122.00,0.1675
1121.00,0.1697
1120.00,0.1716
1119.00,0.1733
1118.00,0.1748
1117.00,0.1761
1116.00,0.1772
1115.00,0.1782
1114.00,0.1790
1113.00,0.1797
1112.00,0.1803
1111.00,0.1808
1110.00,0.1810
1109.00,0.1810
1108.00,0.1808
1107.00,0.1806
1106.00,0.1803
1105.00,0.1800
1104.00,0.1797
1103.00,0.1795
1102.00,0.1795
1101.00,0.1797
1100.00,0.1799
1099.00,0.1804
1098.00,0.1810
1097.00,0.1818
1096.00,0.1827
1095.00,0.1836
1094.00,0.1848
1093.00,0.1861
1092.00,0.1876
1091.00,0.1894
1090.00,0.1915
1089.00,0.1941
1088.00,0.1971
1087.00,0.2006
1086.00,0.2043
1085.00,0.2084
1084.00,0.2126
1083.00,0.2169
1082.00,0.2212
1081.00,0.2254
1080.00,0.2293
1079.00,0.2329
1078.00,0.2361
1077.00,0.2390
1076.00,0.2416
1075.00,0.2440
1074.00,0.2461
1073.00,0.2481
1072.00,0.2499
1071.00,0.2515
1070.00,0.2530
1069.00,0.2543
1068.00,0.2557
1067.00,0.2569
1066.00,0.2582
1065.00,0.2594
1064.00,0.2608
1063.00,0.2621
1062.00,0.2634
1061.00,0.2646
1060.00,0.2658
1059.00,0.2668
1058.00,0.2677
1057.00,0.2686
1056.00,0.2695
1055.00,0.2704
1054.00,0.2716
1053.00,0.2733
1052.00,0.2754
1051.00,0.2779
1050.00,0.2808
1049.00,0.2839
1048.00,0.2868
1047.00,0.2892
1046.00,0.2909
1045.00,0.2917
1044.00,0.2915
1043.00,0.2905
1042.00,0.2889
1041.00,0.2867
1040.00,0.2843
1039.00,0.2817
1038.00,0.2790
1037.00,0.2763
1036.00,0.2736
1035.00,0.2709
1034.00,0.2681
1033.00,0.2654
1032.00,0.2626
1031.00,0.2598
1030.00,0.2571
1029.00,0.2544
1028.00,0.2518
1027.00,0.2491
1026.00,0.2464
1025.00,0.2437
1024.00,0.2408
1023.00,0.2378
1022.00,0.2346
1021.00,0.2312
1020.00,0.2275
1019.00,0.2236
1018.00,0.2194
1017.00,0.2150
1016.00,0.2105
1015.00,0.2058
1014.00,0.2011
1013.00,0.1963
1012.00,0.1914
1011.00,0.1866
1010.00,0.1817
1009.00,0.1768
1008.00,0.1720
1007.00,0.1672
1006.00,0.1624
1005.00,0.1577
1004.00,0.1531
1003.00,0.1487
1002.00,0.1444
1001.00,0.1403
1000.00,0.1362
999.00,0.1322
998.00,0.1283
997.00,0.1244
996.00,0.1206
995.00,0.1169
994.00,0.1135
993.00,0.1103
992.00,0.1073
991.00,0.1046
990.00,0.1022
989.00,0.1001
988.00,0.0980
987.00,0.0961
986.00,0.0941
985.00,0.0920
984.00,0.0898
983.00,0.0875
982.00,0.0852
981.00,0.0830
980.00,0.0809
979.00,0.0790
978.00,0.0774
977.00,0.0759
976.00,0.0746
975.00,0.0734
974.00,0.0723
973.00,0.0713
972.00,0.0703
971.00,0.0696
970.00,0.0692
969.00,0.0690
968.00,0.0690
967.00,0.0694
966.00,0.0701
965.00,0.0712
964.00,0.0725
963.00,0.0742
962.00,0.0761
961.00,0.0782
960.00,0.0803
959.00,0.0826
958.00,0.0848
957.00,0.0871
956.00,0.0893
955.00,0.0913
954.00,0.0933
953.00,0.0952
952.00,0.0968
951.00,0.0982
950.00,0.0994
949.00,0.1004
948.00,0.1011
947.00,0.1015
946.00,0.1014
945.00,0.1010
944.00,0.0999
943.00,0.0984
942.00,0.0964
941.00,0.0940
940.00,0.0912
939.00,0.0885
938.00,0.0858
937.00,0.0833
936.00,0.0811
935.00,0.0791
934.00,0.0776
933.00,0.0764
932.00,0.0752
931.00,0.0741
930.00,0.0730
929.00,0.0718
928.00,0.0705
927.00,0.0690
926.00,0.0676
925.00,0.0661
924.00,0.0646
923.00,0.0632
922.00,0.0619
921.00,0.0607
920.00,0.0597
919.00,0.0588
918.00,0.0581
917.00,0.0575
916.00,0.0571
915.00,0.0569
914.00,0.0569
913.00,0.0572
912.00,0.0575
911.00,0.0580
910.00,0.0585
909.00,0.0590
908.00,0.0591
907.00,0.0590
906.00,0.0586
905.00,0.0578
904.00,0.0567
903.00,0.0553
902.00,0.0540
901.00,0.0525
900.00,0.0512
899.00,0.0500
898.00,0.0492
897.00,0.0486
896.00,0.0481
895.00,0.0477
894.00,0.0475
893.00,0.0473
892.00,0.0471
891.00,0.0468
890.00,0.0465
889.00,0.0461
888.00,0.0455
887.00,0.0448
886.00,0.0441
885.00,0.0431
884.00,0.0420
883.00,0.0408
882.00,0.0396
881.00,0.0383
880.00,0.0372
879.00,0.0361
878.00,0.0353
877.00,0.0345
876.00,0.0339
875.00,0.0333
874.00,0.0329
873.00,0.0326
872.00,0.0323
871.00,0.0322
870.00,0.0322
869.00,0.0323
868.00,0.0325
867.00,0.0328
866.00,0.0332
865.00,0.0338
864.00,0.0345
863.00,0.0353
862.00,0.0363
861.00,0.0373
860.00,0.0384
859.00,0.0396
858.00,0.0409
857.00,0.0423
856.00,0.0436
855.00,0.0450
854.00,0.0463
853.00,0.0475
852.00,0.0485
851.00,0.0493
850.00,0.0500
849.00,0.0506
848.00,0.0509
847.00,0.0512
846.00,0.0516
845.00,0.0519
844.00,0.0523
843.00,0.0527
842.00,0.0532
841.00,0.0538
840.00,0.0544
839.00,0.0550
838.00,0.0558
837.00,0.0565
836.00,0.0571
835.00,0.0577
834.00,0.0584
833.00,0.0590
832.00,0.0595
831.00,0.0600
830.00,0.0605
829.00,0.0608
828.00,0.0610
827.00,0.0611
826.00,0.0610
825.00,0.0606
824.00,0.0599
823.00,0.0589
822.00,0.0577
821.00,0.0562
820.00,0.0546
819.00,0.0528
818.00,0.0511
817.00,0.0494
816.00,0.0477
815.00,0.0461
814.00,0.0446
813.00,0.0431
812.00,0.0416
811.00,0.0403
810.00,0.0392
809.00,0.0382
808.00,0.0371
807.00,0.0362
806.00,0.0355
805.00,0.0349
804.00,0.0343
803.00,0.0339
802.00,0.0336
801.00,0.0334
800.00,0.0333
799.00,0.0333
798.00,0.0336
797.00,0.0339
796.00,0.0342
795.00,0.0345
794.00,0.0349
793.00,0.0351
792.00,0.0351
791.00,0.0351
790.00,0.0351
789.00,0.0351
788.00,0.0350
787.00,0.0350
786.00,0.0351
785.00,0.0353
784.00,0.0355
783.00,0.0357
782.00,0.0360
781.00,0.0363
780.00,0.0365
779.00,0.0369
778.00,0.0372
777.00,0.0374
776.00,0.0375
775.00,0.0374
774.00,0.0374
773.00,0.0372
772.00,0.0369
771.00,0.0366
770.00,0.0363
769.00,0.0359
768.00,0.0355
767.00,0.0351
766.00,0.0348
765.00,0.0345
764.00,0.0342
763.00,0.0340
762.00,0.0339
761.00,0.0338
760.00,0.0338
759.00,0.0339
758.00,0.0341
757.00,0.0345
756.00,0.0348
755.00,0.0353
754.00,0.0358
753.00,0.0363
752.00,0.0368
751.00,0.0373
750.00,0.0379
749.00,0.0386
748.00,0.0391
747.00,0.0396
746.00,0.0401
745.00,0.0406
744.00,0.0411
743.00,0.0415
742.00,0.0420
741.00,0.0424
740.00,0.0428
739.00,0.0432
738.00,0.0437
737.00,0.0442
736.00,0.0445
735.00,0.0448
734.00,0.0450
733.00,0.0451
732.00,0.0450
731.00,0.0448
730.00,0.0446
729.00,0.0442
728.00,0.0436
727.00,0.0430
726.00,0.0425
725.00,0.0419
724.00,0.0413
723.00,0.0408
722.00,0.0403
721.00,0.0400
720.00,0.0397
719.00,0.0396
718.00,0.0397
717.00,0.0398
716.00,0.0399
715.00,0.0402
714.00,0.0405
713.00,0.0409
712.00,0.0412
711.00,0.0415
710.00,0.0419
709.00,0.0422
708.00,0.0425
707.00,0.0428
706.00,0.0432
705.00,0.0434
704.00,0.0435
703.00,0.0437
702.00,0.0439
701.00,0.0441
700.00,0.0442
699.00,0.0443
698.00,0.0445
697.00,0.0447
696.00,0.0448
695.00,0.0449
694.00,0.0451
693.00,0.0452
692.00,0.0454
691.00,0.0456
690.00,0.0459
689.00,0.0463
688.00,0.0466
687.00,0.0470
686.00,0.0474
685.00,0.0480
684.00,0.0486
683.00,0.0493
682.00,0.0502
681.00,0.0511
680.00,0.0520
679.00,0.0531
678.00,0.0544
677.00,0.0557
676.00,0.0569
675.00,0.0583
674.00,0.0598
673.00,0.0612
672.00,0.0624
671.00,0.0636
670.00,0.0649
669.00,0.0663
668.00,0.0680
667.00,0.0696
666.00,0.0706
665.00,0.0714
664.00,0.0720
663.00,0.0727
662.00,0.0735
661.00,0.0741
660.00,0.0745
659.00,0.0749
658.00,0.0752
657.00,0.0755
656.00,0.0755
655.00,0.0755
654.00,0.0755
653.00,0.0753
652.00,0.0751
651.00,0.0748
650.00,0.0747
649.00,0.0746
648.00,0.0744
647.00,0.0741
646.00,0.0740
645.00,0.0738
644.00,0.0735
643.00,0.0733
642.00,0.0731
641.00,0.0730
640.00,0.0727
639.00,0.0726
638.00,0.0725
637.00,0.0726
636.00,0.0726
635.00,0.0726
634.00,0.0728
633.00,0.0731
632.00,0.0734
631.00,0.0736
630.00,0.0740
629.00,0.0744
628.00,0.0748
627.00,0.0752
626.00,0.0757
625.00,0.0764
624.00,0.0769
623.00,0.0776
622.00,0.0783
621.00,0.0789
620.00,0.0794
619.00,0.0799
618.00,0.0806
617.00,0.0813
616.00,0.0819
615.00,0.0825
614.00,0.0832
613.00,0.0838
612.00,0.0842
611.00,0.0847
610.00,0.0853
609.00,0.0860
608.00,0.0867
607.00,0.0874
606.00,0.0884
605.00,0.0893
604.00,0.0900
603.00,0.0907
602.00,0.0913
601.00,0.0919
600.00,0.0923
599.00,0.0928
598.00,0.0934
597.00,0.0941
596.00,0.0947
595.00,0.0954
594.00,0.0962
593.00,0.0969
592.00,0.0975
591.00,0.0982
590.00,0.0989
589.00,0.0995
588.00,0.0998
587.00,0.1003
586.00,0.1009
585.00,0.1016
584.00,0.1021
583.00,0.1027
582.00,0.1033
581.00,0.1039
580.00,0.1042
579.00,0.1045
578.00,0.1046
577.00,0.1046
576.00,0.1043
575.00,0.1040
574.00,0.1039
573.00,0.1039
572.00,0.1038
571.00,0.1038
570.00,0.1039
569.00,0.1039
568.00,0.1039
567.00,0.1040
566.00,0.1041
565.00,0.1040
564.00,0.1035
563.00,0.1029
562.00,0.1024
561.00,0.1018
560.00,0.1010
559.00,0.1003
558.00,0.0997
557.00,0.0992
556.00,0.0985
555.00,0.0978
554.00,0.0974
553.00,0.0970
552.00,0.0967
551.00,0.0966
550.00,0.0968
549.00,0.0970
548.00,0.0972
547.00,0.0974
546.00,0.0980
545.00,0.0983
544.00,0.0984
543.00,0.0984
542.00,0.0985
541.00,0.0987
540.00,0.0987
539.00,0.0986
538.00,0.0987
537.00,0.0986
536.00,0.0984
535.00,0.0981
534.00,0.0981
533.00,0.0981
532.00,0.0979
531.00,0.0977
530.00,0.0977
529.00,0.0977
528.00,0.0974
527.00,0.0971
526.00,0.0971
525.00,0.0971
524.00,0.0970
523.00,0.0970
522.00,0.0971
521.00,0.0971
520.00,0.0968
519.00,0.0966
518.00,0.0966
517.00,0.0965
516.00,0.0962
515.00,0.0959
514.00,0.0959
513.00,0.0959
512.00,0.0957
511.00,0.0955
510.00,0.0956
509.00,0.0956
508.00,0.0953
507.00,0.0951
506.00,0.0952
505.00,0.0952
504.00,0.0950
503.00,0.0948
502.00,0.0948
501.00,0.0947
500.00,0.0945
499.00,0.0944
498.00,0.0947
497.00,0.0950
496.00,0.0949
495.00,0.0947
494.00,0.0948
493.00,0.0950
492.00,0.0949
491.00,0.0948
490.00,0.0949
489.00,0.0950
488.00,0.0949
487.00,0.0949
486.00,0.0954
485.00,0.0959
484.00,0.0960
483.00,0.0959
482.00,0.0962
481.00,0.0964
480.00,0.0964
479.00,0.0965
478.00,0.0969
477.00,0.0971
476.00,0.0969
475.00,0.0967
474.00,0.0969
473.00,0.0973
472.00,0.0973
471.00,0.0972
470.00,0.0975
469.00,0.0975
468.00,0.0970
467.00,0.0967
466.00,0.0969
465.00,0.0972
464.00,0.0971
463.00,0.0970
462.00,0.0974
461.00,0.0976
460.00,0.0973
459.00,0.0970
458.00,0.0971
457.00,0.0971
456.00,0.0964
455.00,0.0957
454.00,0.0956
453.00,0.0954
452.00,0.0949
451.00,0.0944
450.00,0.0943
449.00,0.0941
448.00,0.0933
447.00,0.0924
446.00,0.0921
445.00,0.0918
444.00,0.0909
443.00,0.0901
442.00,0.0897
441.00,0.0893
440.00,0.0884
439.00,0.0877
438.00,0.0877
437.00,0.0876
436.00,0.0868
435.00,0.0857
434.00,0.0852
433.00,0.0848
432.00,0.0841
431.00,0.0839
430.00,0.0843
429.00,0.0847
428.00,0.0843
427.00,0.0841
426.00,0.0844
425.00,0.0846
424.00,0.0838
423.00,0.0829
422.00,0.0827
421.00,0.0823
420.00,0.0808
419.00,0.0795
418.00,0.0796
417.00,0.0797
416.00,0.0788
415.00,0.0782
414.00,0.0784
413.00,0.0785
412.00,0.0777
411.00,0.0773
410.00,0.0783
409.00,0.0792
408.00,0.0786
407.00,0.0778
406.00,0.0781
405.00,0.0782
404.00,0.0771
403.00,0.0763
402.00,0.0773
401.00,0.0782
400.00,0.0770
