Created as New Dataset,Sample 235 By YargerLab Date Sunday, October 05 2025
cm-1,A
4000.00,0.0014
3999.00,0.0014
3998.00,0.0014
3997.00,0.0013
3996.00,0.0013
3995.00,0.0013
3994.00,0.0013
3993.00,0.0013
3992.00,0.0013
3991.00,0.0013
3990.00,0.0013
3989.00,0.0013
3988.00,0.0013
3987.00,0.0013
3986.00,0.0013
3985.00,0.0013
3984.00,0.0013
3983.00,0.0013
3982.00,0.0013
3981.00,0.0013
3980.00,0.0013
3979.00,0.0013
3978.00,0.0013
3977.00,0.0013
3976.00,0.0013
3975.00,0.0014
3974.00,0.0014
3973.00,0.0014
3972.00,0.0013
3971.00,0.0013
3970.00,0.0013
3969.00,0.0013
3968.00,0.0013
3967.00,0.0013
3966.00,0.0013
3965.00,0.0013
3964.00,0.0013
3963.00,0.0013
3962.00,0.0013
3961.00,0.0013
3960.00,0.0013
3959.00,0.0013
3958.00,0.0013
3957.00,0.0013
3956.00,0.0013
3955.00,0.0013
3954.00,0.0013
3953.00,0.0013
3952.00,0.0013
3951.00,0.0013
3950.00,0.0013
3949.00,0.0013
3948.00,0.0013
3947.00,0.0013
3946.00,0.0013
3945.00,0.0013
3944.00,0.0012
3943.00,0.0012
3942.00,0.0012
3941.00,0.0012
3940.00,0.0012
3939.00,0.0012
3938.00,0.0012
3937.00,0.0012
3936.00,0.0012
3935.00,0.0012
3934.00,0.0012
3933.00,0.0012
3932.00,0.0012
3931.00,0.0012
3930.00,0.0012
3929.00,0.0012
3928.00,0.0012
3927.00,0.0012
3926.00,0.0012
3925.00,0.0012
3924.00,0.0012
3923.00,0.0012
3922.00,0.0012
3921.00,0.0012
3920.00,0.0012
3919.00,0.0012
3918.00,0.0012
3917.00,0.0012
3916.00,0.0012
3915.00,0.0012
3914.00,0.0012
3913.00,0.0012
3912.00,0.0012
3911.00,0.0012
3910.00,0.0012
3909.00,0.0012
3908.00,0.0012
3907.00,0.0012
3906.00,0.0012
3905.00,0.0012
3904.00,0.0012
3903.00,0.0012
3902.00,0.0012
3901.00,0.0012
3900.00,0.0012
3899.00,0.0011
3898.00,0.0011
3897.00,0.0011
3896.00,0.0011
3895.00,0.0011
3894.00,0.0011
3893.00,0.0012
3892.00,0.0012
3891.00,0.0012
3890.00,0.0012
3889.00,0.0012
3888.00,0.0012
3887.00,0.0012
3886.00,0.0012
3885.00,0.0012
3884.00,0.0012
3883.00,0.0012
3882.00,0.0012
3881.00,0.0012
3880.00,0.0012
3879.00,0.0012
3878.00,0.0012
3877.00,0.0012
3876.00,0.0012
3875.00,0.0012
3874.00,0.0012
3873.00,0.0012
3872.00,0.0012
3871.00,0.0012
3870.00,0.0012
3869.00,0.0012
3868.00,0.0012
3867.00,0.0012
3866.00,0.0012
3865.00,0.0011
3864.00,0.0011
3863.00,0.0011
3862.00,0.0011
3861.00,0.0011
3860.00,0.0011
3859.00,0.0012
3858.00,0.0012
3857.00,0.0013
3856.00,0.0014
3855.00,0.0014
3854.00,0.0014
3853.00,0.0013
3852.00,0.0013
3851.00,0.0013
3850.00,0.0013
3849.00,0.0012
3848.00,0.0012
3847.00,0.0012
3846.00,0.0012
3845.00,0.0012
3844.00,0.0012
3843.00,0.0012
3842.00,0.0012
3841.00,0.0013
3840.00,0.0013
3839.00,0.0013
3838.00,0.0012
3837.00,0.0013
3836.00,0.0013
3835.00,0.0013
3834.00,0.0013
3833.00,0.0012
3832.00,0.0012
3831.00,0.0012
3830.00,0.0012
3829.00,0.0012
3828.00,0.0012
3827.00,0.0012
3826.00,0.0012
3825.00,0.0012
3824.00,0.0013
3823.00,0.0013
3822.00,0.0013
3821.00,0.0013
3820.00,0.0013
3819.00,0.0013
3818.00,0.0013
3817.00,0.0012
3816.00,0.0012
3815.00,0.0012
3814.00,0.0012
3813.00,0.0012
3812.00,0.0012
3811.00,0.0011
3810.00,0.0011
3809.00,0.0011
3808.00,0.0011
3807.00,0.0011
3806.00,0.0011
3805.00,0.0012
3804.00,0.0012
3803.00,0.0012
3802.00,0.0012
3801.00,0.0012
3800.00,0.0012
3799.00,0.0012
3798.00,0.0011
3797.00,0.0011
3796.00,0.0011
3795.00,0.0011
3794.00,0.0011
3793.00,0.0011
3792.00,0.0011
3791.00,0.0011
3790.00,0.0011
3789.00,0.0010
3788.00,0.0010
3787.00,0.0010
3786.00,0.0010
3785.00,0.0010
3784.00,0.0010
3783.00,0.0010
3782.00,0.0010
3781.00,0.0010
3780.00,0.0010
3779.00,0.0010
3778.00,0.0010
3777.00,0.0010
3776.00,0.0010
3775.00,0.0010
3774.00,0.0010
3773.00,0.0010
3772.00,0.0011
3771.00,0.0011
3770.00,0.0011
3769.00,0.0011
3768.00,0.0011
3767.00,0.0010
3766.00,0.0010
3765.00,0.0010
3764.00,0.0010
3763.00,0.0010
3762.00,0.0010
3761.00,0.0010
3760.00,0.0010
3759.00,0.0010
3758.00,0.0010
3757.00,0.0010
3756.00,0.0010
3755.00,0.0011
3754.00,0.0011
3753.00,0.0011
3752.00,0.0011
3751.00,0.0012
3750.00,0.0012
3749.00,0.0012
3748.00,0.0013
3747.00,0.0013
3746.00,0.0013
3745.00,0.0012
3744.00,0.0012
3743.00,0.0012
3742.00,0.0011
3741.00,0.0011
3740.00,0.0011
3739.00,0.0010
3738.00,0.0010
3737.00,0.0010
3736.00,0.0010
3735.00,0.0010
3734.00,0.0010
3733.00,0.0010
3732.00,0.0010
3731.00,0.0009
3730.00,0.0009
3729.00,0.0009
3728.00,0.0009
3727.00,0.0009
3726.00,0.0009
3725.00,0.0009
3724.00,0.0009
3723.00,0.0009
3722.00,0.0009
3721.00,0.0009
3720.00,0.0009
3719.00,0.0009
3718.00,0.0009
3717.00,0.0009
3716.00,0.0009
3715.00,0.0009
3714.00,0.0009
3713.00,0.0009
3712.00,0.0009
3711.00,0.0009
3710.00,0.0009
3709.00,0.0009
3708.00,0.0009
3707.00,0.0009
3706.00,0.0009
3705.00,0.0009
3704.00,0.0008
3703.00,0.0009
3702.00,0.0009
3701.00,0.0009
3700.00,0.0009
3699.00,0.0010
3698.00,0.0009
3697.00,0.0009
3696.00,0.0010
3695.00,0.0010
3694.00,0.0010
3693.00,0.0010
3692.00,0.0011
3691.00,0.0011
3690.00,0.0011
3689.00,0.0011
3688.00,0.0011
3687.00,0.0012
3686.00,0.0012
3685.00,0.0012
3684.00,0.0012
3683.00,0.0012
3682.00,0.0012
3681.00,0.0012
3680.00,0.0012
3679.00,0.0012
3678.00,0.0013
3677.00,0.0013
3676.00,0.0013
3675.00,0.0013
3674.00,0.0014
3673.00,0.0014
3672.00,0.0014
3671.00,0.0013
3670.00,0.0013
3669.00,0.0013
3668.00,0.0013
3667.00,0.0013
3666.00,0.0013
3665.00,0.0013
3664.00,0.0013
3663.00,0.0013
3662.00,0.0013
3661.00,0.0013
3660.00,0.0013
3659.00,0.0013
3658.00,0.0013
3657.00,0.0013
3656.00,0.0013
3655.00,0.0014
3654.00,0.0014
3653.00,0.0015
3652.00,0.0015
3651.00,0.0015
3650.00,0.0016
3649.00,0.0016
3648.00,0.0017
3647.00,0.0017
3646.00,0.0017
3645.00,0.0017
3644.00,0.0017
3643.00,0.0017
3642.00,0.0017
3641.00,0.0017
3640.00,0.0018
3639.00,0.0018
3638.00,0.0018
3637.00,0.0019
3636.00,0.0019
3635.00,0.0020
3634.00,0.0020
3633.00,0.0021
3632.00,0.0022
3631.00,0.0023
3630.00,0.0023
3629.00,0.0023
3628.00,0.0023
3627.00,0.0024
3626.00,0.0024
3625.00,0.0025
3624.00,0.0025
3623.00,0.0026
3622.00,0.0026
3621.00,0.0027
3620.00,0.0027
3619.00,0.0028
3618.00,0.0028
3617.00,0.0029
3616.00,0.0029
3615.00,0.0029
3614.00,0.0029
3613.00,0.0030
3612.00,0.0030
3611.00,0.0031
3610.00,0.0032
3609.00,0.0032
3608.00,0.0033
3607.00,0.0033
3606.00,0.0034
3605.00,0.0034
3604.00,0.0035
3603.00,0.0035
3602.00,0.0036
3601.00,0.0036
3600.00,0.0037
3599.00,0.0037
3598.00,0.0037
3597.00,0.0038
3596.00,0.0038
3595.00,0.0039
3594.00,0.0040
3593.00,0.0040
3592.00,0.0041
3591.00,0.0042
3590.00,0.0042
3589.00,0.0043
3588.00,0.0043
3587.00,0.0044
3586.00,0.0044
3585.00,0.0045
3584.00,0.0045
3583.00,0.0046
3582.00,0.0047
3581.00,0.0048
3580.00,0.0049
3579.00,0.0050
3578.00,0.0050
3577.00,0.0051
3576.00,0.0052
3575.00,0.0053
3574.00,0.0054
3573.00,0.0054
3572.00,0.0055
3571.00,0.0056
3570.00,0.0057
3569.00,0.0058
3568.00,0.0059
3567.00,0.0059
3566.00,0.0060
3565.00,0.0061
3564.00,0.0062
3563.00,0.0063
3562.00,0.0064
3561.00,0.0065
3560.00,0.0066
3559.00,0.0067
3558.00,0.0068
3557.00,0.0069
3556.00,0.0069
3555.00,0.0070
3554.00,0.0071
3553.00,0.0072
3552.00,0.0073
3551.00,0.0075
3550.00,0.0076
3549.00,0.0077
3548.00,0.0077
3547.00,0.0078
3546.00,0.0079
3545.00,0.0080
3544.00,0.0081
3543.00,0.0083
3542.00,0.0084
3541.00,0.0085
3540.00,0.0086
3539.00,0.0087
3538.00,0.0089
3537.00,0.0090
3536.00,0.0091
3535.00,0.0092
3534.00,0.0093
3533.00,0.0094
3532.00,0.0096
3531.00,0.0097
3530.00,0.0098
3529.00,0.0100
3528.00,0.0101
3527.00,0.0102
3526.00,0.0104
3525.00,0.0105
3524.00,0.0106
3523.00,0.0107
3522.00,0.0109
3521.00,0.0110
3520.00,0.0111
3519.00,0.0113
3518.00,0.0114
3517.00,0.0115
3516.00,0.0117
3515.00,0.0118
3514.00,0.0119
3513.00,0.0120
3512.00,0.0122
3511.00,0.0123
3510.00,0.0125
3509.00,0.0126
3508.00,0.0128
3507.00,0.0129
3506.00,0.0131
3505.00,0.0132
3504.00,0.0134
3503.00,0.0135
3502.00,0.0137
3501.00,0.0138
3500.00,0.0140
3499.00,0.0141
3498.00,0.0143
3497.00,0.0144
3496.00,0.0146
3495.00,0.0148
3494.00,0.0150
3493.00,0.0151
3492.00,0.0152
3491.00,0.0153
3490.00,0.0155
3489.00,0.0156
3488.00,0.0158
3487.00,0.0160
3486.00,0.0162
3485.00,0.0164
3484.00,0.0165
3483.00,0.0167
3482.00,0.0169
3481.00,0.0171
3480.00,0.0173
3479.00,0.0175
3478.00,0.0176
3477.00,0.0178
3476.00,0.0179
3475.00,0.0181
3474.00,0.0182
3473.00,0.0184
3472.00,0.0186
3471.00,0.0188
3470.00,0.0190
3469.00,0.0192
3468.00,0.0194
3467.00,0.0195
3466.00,0.0197
3465.00,0.0199
3464.00,0.0201
3463.00,0.0203
3462.00,0.0205
3461.00,0.0207
3460.00,0.0209
3459.00,0.0211
3458.00,0.0213
3457.00,0.0215
3456.00,0.0217
3455.00,0.0219
3454.00,0.0221
3453.00,0.0223
3452.00,0.0225
3451.00,0.0227
3450.00,0.0230
3449.00,0.0232
3448.00,0.0234
3447.00,0.0237
3446.00,0.0239
3445.00,0.0241
3444.00,0.0243
3443.00,0.0245
3442.00,0.0247
3441.00,0.0250
3440.00,0.0252
3439.00,0.0255
3438.00,0.0257
3437.00,0.0259
3436.00,0.0261
3435.00,0.0264
3434.00,0.0266
3433.00,0.0268
3432.00,0.0270
3431.00,0.0273
3430.00,0.0275
3429.00,0.0278
3428.00,0.0280
3427.00,0.0283
3426.00,0.0285
3425.00,0.0288
3424.00,0.0291
3423.00,0.0294
3422.00,0.0296
3421.00,0.0299
3420.00,0.0302
3419.00,0.0304
3418.00,0.0307
3417.00,0.0310
3416.00,0.0313
3415.00,0.0316
3414.00,0.0318
3413.00,0.0321
3412.00,0.0324
3411.00,0.0327
3410.00,0.0330
3409.00,0.0333
3408.00,0.0336
3407.00,0.0339
3406.00,0.0341
3405.00,0.0345
3404.00,0.0348
3403.00,0.0351
3402.00,0.0354
3401.00,0.0357
3400.00,0.0360
3399.00,0.0363
3398.00,0.0366
3397.00,0.0369
3396.00,0.0372
3395.00,0.0375
3394.00,0.0378
3393.00,0.0381
3392.00,0.0384
3391.00,0.0388
3390.00,0.0391
3389.00,0.0394
3388.00,0.0398
3387.00,0.0401
3386.00,0.0404
3385.00,0.0408
3384.00,0.0411
3383.00,0.0414
3382.00,0.0417
3381.00,0.0420
3380.00,0.0424
3379.00,0.0427
3378.00,0.0430
3377.00,0.0433
3376.00,0.0437
3375.00,0.0440
3374.00,0.0443
3373.00,0.0445
3372.00,0.0448
3371.00,0.0450
3370.00,0.0453
3369.00,0.0456
3368.00,0.0459
3367.00,0.0463
3366.00,0.0466
3365.00,0.0470
3364.00,0.0473
3363.00,0.0476
3362.00,0.0479
3361.00,0.0482
3360.00,0.0485
3359.00,0.0488
3358.00,0.0491
3357.00,0.0493
3356.00,0.0496
3355.00,0.0499
3354.00,0.0501
3353.00,0.0503
3352.00,0.0505
3351.00,0.0507
3350.00,0.0511
3349.00,0.0514
3348.00,0.0517
3347.00,0.0520
3346.00,0.0522
3345.00,0.0525
3344.00,0.0527
3343.00,0.0529
3342.00,0.0531
3341.00,0.0533
3340.00,0.0535
3339.00,0.0537
3338.00,0.0540
3337.00,0.0544
3336.00,0.0548
3335.00,0.0551
3334.00,0.0554
3333.00,0.0557
3332.00,0.0559
3331.00,0.0561
3330.00,0.0563
3329.00,0.0564
3328.00,0.0565
3327.00,0.0566
3326.00,0.0568
3325.00,0.0570
3324.00,0.0573
3323.00,0.0576
3322.00,0.0579
3321.00,0.0581
3320.00,0.0584
3319.00,0.0586
3318.00,0.0588
3317.00,0.0590
3316.00,0.0592
3315.00,0.0593
3314.00,0.0595
3313.00,0.0596
3312.00,0.0596
3311.00,0.0596
3310.00,0.0595
3309.00,0.0595
3308.00,0.0595
3307.00,0.0595
3306.00,0.0597
3305.00,0.0600
3304.00,0.0604
3303.00,0.0608
3302.00,0.0611
3301.00,0.0613
3300.00,0.0614
3299.00,0.0615
3298.00,0.0614
3297.00,0.0614
3296.00,0.0614
3295.00,0.0614
3294.00,0.0615
3293.00,0.0616
3292.00,0.0617
3291.00,0.0619
3290.00,0.0622
3289.00,0.0623
3288.00,0.0625
3287.00,0.0626
3286.00,0.0626
3285.00,0.0627
3284.00,0.0627
3283.00,0.0628
3282.00,0.0628
3281.00,0.0629
3280.00,0.0629
3279.00,0.0629
3278.00,0.0629
3277.00,0.0629
3276.00,0.0629
3275.00,0.0628
3274.00,0.0628
3273.00,0.0628
3272.00,0.0627
3271.00,0.0627
3270.00,0.0628
3269.00,0.0629
3268.00,0.0630
3267.00,0.0630
3266.00,0.0631
3265.00,0.0631
3264.00,0.0631
3263.00,0.0631
3262.00,0.0631
3261.00,0.0630
3260.00,0.0630
3259.00,0.0630
3258.00,0.0629
3257.00,0.0629
3256.00,0.0629
3255.00,0.0629
3254.00,0.0630
3253.00,0.0630
3252.00,0.0630
3251.00,0.0629
3250.00,0.0629
3249.00,0.0628
3248.00,0.0627
3247.00,0.0627
3246.00,0.0626
3245.00,0.0626
3244.00,0.0626
3243.00,0.0625
3242.00,0.0625
3241.00,0.0625
3240.00,0.0624
3239.00,0.0623
3238.00,0.0623
3237.00,0.0622
3236.00,0.0620
3235.00,0.0619
3234.00,0.0618
3233.00,0.0617
3232.00,0.0616
3231.00,0.0616
3230.00,0.0615
3229.00,0.0615
3228.00,0.0614
3227.00,0.0613
3226.00,0.0612
3225.00,0.0612
3224.00,0.0611
3223.00,0.0610
3222.00,0.0609
3221.00,0.0608
3220.00,0.0608
3219.00,0.0607
3218.00,0.0606
3217.00,0.0606
3216.00,0.0605
3215.00,0.0605
3214.00,0.0605
3213.00,0.0605
3212.00,0.0604
3211.00,0.0604
3210.00,0.0603
3209.00,0.0603
3208.00,0.0602
3207.00,0.0602
3206.00,0.0601
3205.00,0.0600
3204.00,0.0599
3203.00,0.0598
3202.00,0.0597
3201.00,0.0596
3200.00,0.0595
3199.00,0.0594
3198.00,0.0593
3197.00,0.0591
3196.00,0.0589
3195.00,0.0588
3194.00,0.0586
3193.00,0.0584
3192.00,0.0582
3191.00,0.0580
3190.00,0.0578
3189.00,0.0576
3188.00,0.0574
3187.00,0.0572
3186.00,0.0570
3185.00,0.0568
3184.00,0.0565
3183.00,0.0563
3182.00,0.0561
3181.00,0.0558
3180.00,0.0556
3179.00,0.0554
3178.00,0.0552
3177.00,0.0549
3176.00,0.0547
3175.00,0.0544
3174.00,0.0542
3173.00,0.0540
3172.00,0.0537
3171.00,0.0535
3170.00,0.0532
3169.00,0.0529
3168.00,0.0526
3167.00,0.0523
3166.00,0.0521
3165.00,0.0518
3164.00,0.0515
3163.00,0.0513
3162.00,0.0510
3161.00,0.0507
3160.00,0.0505
3159.00,0.0502
3158.00,0.0499
3157.00,0.0496
3156.00,0.0494
3155.00,0.0491
3154.00,0.0488
3153.00,0.0486
3152.00,0.0483
3151.00,0.0481
3150.00,0.0478
3149.00,0.0476
3148.00,0.0474
3147.00,0.0471
3146.00,0.0469
3145.00,0.0466
3144.00,0.0464
3143.00,0.0462
3142.00,0.0460
3141.00,0.0458
3140.00,0.0456
3139.00,0.0454
3138.00,0.0452
3137.00,0.0450
3136.00,0.0449
3135.00,0.0447
3134.00,0.0445
3133.00,0.0443
3132.00,0.0441
3131.00,0.0439
3130.00,0.0437
3129.00,0.0435
3128.00,0.0433
3127.00,0.0431
3126.00,0.0428
3125.00,0.0426
3124.00,0.0423
3123.00,0.0421
3122.00,0.0418
3121.00,0.0415
3120.00,0.0413
3119.00,0.0410
3118.00,0.0407
3117.00,0.0405
3116.00,0.0402
3115.00,0.0399
3114.00,0.0397
3113.00,0.0394
3112.00,0.0391
3111.00,0.0388
3110.00,0.0386
3109.00,0.0383
3108.00,0.0380
3107.00,0.0377
3106.00,0.0375
3105.00,0.0372
3104.00,0.0369
3103.00,0.0367
3102.00,0.0364
3101.00,0.0361
3100.00,0.0359
3099.00,0.0356
3098.00,0.0353
3097.00,0.0350
3096.00,0.0348
3095.00,0.0345
3094.00,0.0343
3093.00,0.0340
3092.00,0.0338
3091.00,0.0336
3090.00,0.0333
3089.00,0.0331
3088.00,0.0329
3087.00,0.0327
3086.00,0.0325
3085.00,0.0323
3084.00,0.0321
3083.00,0.0319
3082.00,0.0317
3081.00,0.0315
3080.00,0.0314
3079.00,0.0312
3078.00,0.0310
3077.00,0.0308
3076.00,0.0307
3075.00,0.0305
3074.00,0.0304
3073.00,0.0302
3072.00,0.0301
3071.00,0.0299
3070.00,0.0298
3069.00,0.0296
3068.00,0.0295
3067.00,0.0294
3066.00,0.0293
3065.00,0.0292
3064.00,0.0292
3063.00,0.0291
3062.00,0.0290
3061.00,0.0290
3060.00,0.0289
3059.00,0.0288
3058.00,0.0288
3057.00,0.0287
3056.00,0.0287
3055.00,0.0286
3054.00,0.0285
3053.00,0.0284
3052.00,0.0283
3051.00,0.0282
3050.00,0.0281
3049.00,0.0280
3048.00,0.0279
3047.00,0.0277
3046.00,0.0275
3045.00,0.0274
3044.00,0.0272
3043.00,0.0271
3042.00,0.0271
3041.00,0.0270
3040.00,0.0270
3039.00,0.0270
3038.00,0.0269
3037.00,0.0269
3036.00,0.0269
3035.00,0.0269
3034.00,0.0270
3033.00,0.0270
3032.00,0.0270
3031.00,0.0270
3030.00,0.0271
3029.00,0.0271
3028.00,0.0271
3027.00,0.0271
3026.00,0.0271
3025.00,0.0270
3024.00,0.0270
3023.00,0.0270
3022.00,0.0269
3021.00,0.0269
3020.00,0.0268
3019.00,0.0268
3018.00,0.0268
3017.00,0.0268
3016.00,0.0268
3015.00,0.0269
3014.00,0.0270
3013.00,0.0271
3012.00,0.0273
3011.00,0.0275
3010.00,0.0278
3009.00,0.0281
3008.00,0.0284
3007.00,0.0288
3006.00,0.0292
3005.00,0.0296
3004.00,0.0301
3003.00,0.0306
3002.00,0.0312
3001.00,0.0318
3000.00,0.0325
2999.00,0.0333
2998.00,0.0341
2997.00,0.0350
2996.00,0.0359
2995.00,0.0369
2994.00,0.0379
2993.00,0.0390
2992.00,0.0401
2991.00,0.0412
2990.00,0.0423
2989.00,0.0434
2988.00,0.0445
2987.00,0.0455
2986.00,0.0465
2985.00,0.0473
2984.00,0.0481
2983.00,0.0489
2982.00,0.0496
2981.00,0.0504
2980.00,0.0514
2979.00,0.0524
2978.00,0.0534
2977.00,0.0546
2976.00,0.0557
2975.00,0.0570
2974.00,0.0583
2973.00,0.0597
2972.00,0.0612
2971.00,0.0629
2970.00,0.0647
2969.00,0.0666
2968.00,0.0686
2967.00,0.0706
2966.00,0.0725
2965.00,0.0744
2964.00,0.0762
2963.00,0.0779
2962.00,0.0794
2961.00,0.0807
2960.00,0.0818
2959.00,0.0826
2958.00,0.0832
2957.00,0.0836
2956.00,0.0837
2955.00,0.0835
2954.00,0.0830
2953.00,0.0824
2952.00,0.0816
2951.00,0.0807
2950.00,0.0799
2949.00,0.0791
2948.00,0.0786
2947.00,0.0783
2946.00,0.0784
2945.00,0.0789
2944.00,0.0798
2943.00,0.0811
2942.00,0.0827
2941.00,0.0846
2940.00,0.0868
2939.00,0.0893
2938.00,0.0920
2937.00,0.0948
2936.00,0.0977
2935.00,0.1006
2934.00,0.1035
2933.00,0.1063
2932.00,0.1089
2931.00,0.1113
2930.00,0.1134
2929.00,0.1153
2928.00,0.1170
2927.00,0.1183
2926.00,0.1193
2925.00,0.1201
2924.00,0.1207
2923.00,0.1211
2922.00,0.1214
2921.00,0.1215
2920.00,0.1215
2919.00,0.1212
2918.00,0.1207
2917.00,0.1196
2916.00,0.1181
2915.00,0.1161
2914.00,0.1137
2913.00,0.1110
2912.00,0.1083
2911.00,0.1057
2910.00,0.1032
2909.00,0.1008
2908.00,0.0985
2907.00,0.0963
2906.00,0.0942
2905.00,0.0922
2904.00,0.0903
2903.00,0.0886
2902.00,0.0870
2901.00,0.0855
2900.00,0.0841
2899.00,0.0828
2898.00,0.0816
2897.00,0.0804
2896.00,0.0793
2895.00,0.0783
2894.00,0.0773
2893.00,0.0763
2892.00,0.0754
2891.00,0.0744
2890.00,0.0734
2889.00,0.0725
2888.00,0.0716
2887.00,0.0707
2886.00,0.0699
2885.00,0.0691
2884.00,0.0685
2883.00,0.0680
2882.00,0.0676
2881.00,0.0673
2880.00,0.0673
2879.00,0.0674
2878.00,0.0676
2877.00,0.0680
2876.00,0.0684
2875.00,0.0689
2874.00,0.0694
2873.00,0.0699
2872.00,0.0703
2871.00,0.0705
2870.00,0.0705
2869.00,0.0703
2868.00,0.0701
2867.00,0.0701
2866.00,0.0703
2865.00,0.0708
2864.00,0.0716
2863.00,0.0728
2862.00,0.0741
2861.00,0.0756
2860.00,0.0772
2859.00,0.0786
2858.00,0.0798
2857.00,0.0806
2856.00,0.0810
2855.00,0.0810
2854.00,0.0805
2853.00,0.0798
2852.00,0.0787
2851.00,0.0774
2850.00,0.0755
2849.00,0.0732
2848.00,0.0705
2847.00,0.0674
2846.00,0.0643
2845.00,0.0613
2844.00,0.0584
2843.00,0.0558
2842.00,0.0535
2841.00,0.0513
2840.00,0.0494
2839.00,0.0477
2838.00,0.0462
2837.00,0.0449
2836.00,0.0437
2835.00,0.0427
2834.00,0.0417
2833.00,0.0407
2832.00,0.0399
2831.00,0.0390
2830.00,0.0382
2829.00,0.0373
2828.00,0.0364
2827.00,0.0355
2826.00,0.0346
2825.00,0.0336
2824.00,0.0325
2823.00,0.0315
2822.00,0.0305
2821.00,0.0295
2820.00,0.0286
2819.00,0.0277
2818.00,0.0268
2817.00,0.0260
2816.00,0.0253
2815.00,0.0245
2814.00,0.0239
2813.00,0.0233
2812.00,0.0227
2811.00,0.0222
2810.00,0.0217
2809.00,0.0212
2808.00,0.0208
2807.00,0.0204
2806.00,0.0200
2805.00,0.0197
2804.00,0.0194
2803.00,0.0191
2802.00,0.0187
2801.00,0.0184
2800.00,0.0181
2799.00,0.0178
2798.00,0.0175
2797.00,0.0173
2796.00,0.0171
2795.00,0.0169
2794.00,0.0167
2793.00,0.0165
2792.00,0.0163
2791.00,0.0161
2790.00,0.0159
2789.00,0.0157
2788.00,0.0156
2787.00,0.0155
2786.00,0.0154
2785.00,0.0153
2784.00,0.0152
2783.00,0.0150
2782.00,0.0149
2781.00,0.0148
2780.00,0.0147
2779.00,0.0145
2778.00,0.0144
2777.00,0.0143
2776.00,0.0142
2775.00,0.0141
2774.00,0.0140
2773.00,0.0139
2772.00,0.0138
2771.00,0.0138
2770.00,0.0137
2769.00,0.0136
2768.00,0.0136
2767.00,0.0135
2766.00,0.0135
2765.00,0.0134
2764.00,0.0134
2763.00,0.0134
2762.00,0.0133
2761.00,0.0133
2760.00,0.0133
2759.00,0.0132
2758.00,0.0132
2757.00,0.0132
2756.00,0.0132
2755.00,0.0132
2754.00,0.0132
2753.00,0.0132
2752.00,0.0132
2751.00,0.0132
2750.00,0.0132
2749.00,0.0133
2748.00,0.0133
2747.00,0.0134
2746.00,0.0134
2745.00,0.0134
2744.00,0.0135
2743.00,0.0135
2742.00,0.0136
2741.00,0.0136
2740.00,0.0137
2739.00,0.0137
2738.00,0.0138
2737.00,0.0138
2736.00,0.0139
2735.00,0.0140
2734.00,0.0140
2733.00,0.0141
2732.00,0.0141
2731.00,0.0142
2730.00,0.0142
2729.00,0.0142
2728.00,0.0141
2727.00,0.0141
2726.00,0.0141
2725.00,0.0140
2724.00,0.0140
2723.00,0.0139
2722.00,0.0139
2721.00,0.0138
2720.00,0.0138
2719.00,0.0137
2718.00,0.0136
2717.00,0.0135
2716.00,0.0134
2715.00,0.0133
2714.00,0.0132
2713.00,0.0131
2712.00,0.0131
2711.00,0.0131
2710.00,0.0130
2709.00,0.0130
2708.00,0.0129
2707.00,0.0129
2706.00,0.0129
2705.00,0.0128
2704.00,0.0128
2703.00,0.0127
2702.00,0.0127
2701.00,0.0127
2700.00,0.0126
2699.00,0.0126
2698.00,0.0125
2697.00,0.0125
2696.00,0.0125
2695.00,0.0125
2694.00,0.0125
2693.00,0.0124
2692.00,0.0124
2691.00,0.0124
2690.00,0.0123
2689.00,0.0123
2688.00,0.0123
2687.00,0.0122
2686.00,0.0122
2685.00,0.0122
2684.00,0.0122
2683.00,0.0121
2682.00,0.0121
2681.00,0.0120
2680.00,0.0120
2679.00,0.0119
2678.00,0.0119
2677.00,0.0119
2676.00,0.0118
2675.00,0.0118
2674.00,0.0118
2673.00,0.0118
2672.00,0.0118
2671.00,0.0117
2670.00,0.0117
2669.00,0.0117
2668.00,0.0116
2667.00,0.0116
2666.00,0.0116
2665.00,0.0116
2664.00,0.0116
2663.00,0.0116
2662.00,0.0115
2661.00,0.0115
2660.00,0.0114
2659.00,0.0114
2658.00,0.0113
2657.00,0.0113
2656.00,0.0112
2655.00,0.0111
2654.00,0.0111
2653.00,0.0110
2652.00,0.0109
2651.00,0.0109
2650.00,0.0108
2649.00,0.0107
2648.00,0.0106
2647.00,0.0106
2646.00,0.0105
2645.00,0.0104
2644.00,0.0104
2643.00,0.0103
2642.00,0.0102
2641.00,0.0101
2640.00,0.0101
2639.00,0.0100
2638.00,0.0099
2637.00,0.0099
2636.00,0.0098
2635.00,0.0097
2634.00,0.0097
2633.00,0.0096
2632.00,0.0095
2631.00,0.0095
2630.00,0.0094
2629.00,0.0094
2628.00,0.0093
2627.00,0.0092
2626.00,0.0092
2625.00,0.0091
2624.00,0.0090
2623.00,0.0090
2622.00,0.0089
2621.00,0.0088
2620.00,0.0087
2619.00,0.0087
2618.00,0.0086
2617.00,0.0086
2616.00,0.0085
2615.00,0.0085
2614.00,0.0084
2613.00,0.0084
2612.00,0.0083
2611.00,0.0083
2610.00,0.0082
2609.00,0.0082
2608.00,0.0082
2607.00,0.0082
2606.00,0.0081
2605.00,0.0081
2604.00,0.0081
2603.00,0.0080
2602.00,0.0080
2601.00,0.0080
2600.00,0.0080
2599.00,0.0080
2598.00,0.0080
2597.00,0.0080
2596.00,0.0080
2595.00,0.0080
2594.00,0.0080
2593.00,0.0079
2592.00,0.0079
2591.00,0.0079
2590.00,0.0079
2589.00,0.0079
2588.00,0.0079
2587.00,0.0079
2586.00,0.0079
2585.00,0.0079
2584.00,0.0079
2583.00,0.0078
2582.00,0.0078
2581.00,0.0077
2580.00,0.0077
2579.00,0.0077
2578.00,0.0076
2577.00,0.0076
2576.00,0.0075
2575.00,0.0075
2574.00,0.0074
2573.00,0.0074
2572.00,0.0073
2571.00,0.0073
2570.00,0.0072
2569.00,0.0072
2568.00,0.0071
2567.00,0.0071
2566.00,0.0070
2565.00,0.0070
2564.00,0.0069
2563.00,0.0069
2562.00,0.0068
2561.00,0.0068
2560.00,0.0068
2559.00,0.0067
2558.00,0.0067
2557.00,0.0066
2556.00,0.0066
2555.00,0.0066
2554.00,0.0065
2553.00,0.0065
2552.00,0.0064
2551.00,0.0064
2550.00,0.0064
2549.00,0.0063
2548.00,0.0063
2547.00,0.0063
2546.00,0.0062
2545.00,0.0062
2544.00,0.0062
2543.00,0.0062
2542.00,0.0062
2541.00,0.0062
2540.00,0.0062
2539.00,0.0062
2538.00,0.0062
2537.00,0.0061
2536.00,0.0061
2535.00,0.0061
2534.00,0.0060
2533.00,0.0060
2532.00,0.0060
2531.00,0.0060
2530.00,0.0060
2529.00,0.0059
2528.00,0.0059
2527.00,0.0058
2526.00,0.0058
2525.00,0.0058
2524.00,0.0058
2523.00,0.0058
2522.00,0.0057
2521.00,0.0057
2520.00,0.0057
2519.00,0.0057
2518.00,0.0057
2517.00,0.0056
2516.00,0.0056
2515.00,0.0055
2514.00,0.0055
2513.00,0.0055
2512.00,0.0055
2511.00,0.0054
2510.00,0.0054
2509.00,0.0053
2508.00,0.0053
2507.00,0.0052
2506.00,0.0052
2505.00,0.0051
2504.00,0.0051
2503.00,0.0051
2502.00,0.0050
2501.00,0.0050
2500.00,0.0050
2499.00,0.0050
2498.00,0.0050
2497.00,0.0049
2496.00,0.0049
2495.00,0.0049
2494.00,0.0048
2493.00,0.0048
2492.00,0.0047
2491.00,0.0047
2490.00,0.0046
2489.00,0.0046
2488.00,0.0046
2487.00,0.0046
2486.00,0.0045
2485.00,0.0045
2484.00,0.0044
2483.00,0.0044
2482.00,0.0043
2481.00,0.0043
2480.00,0.0043
2479.00,0.0043
2478.00,0.0043
2477.00,0.0042
2476.00,0.0042
2475.00,0.0042
2474.00,0.0041
2473.00,0.0041
2472.00,0.0040
2471.00,0.0040
2470.00,0.0039
2469.00,0.0039
2468.00,0.0039
2467.00,0.0039
2466.00,0.0039
2465.00,0.0039
2464.00,0.0039
2463.00,0.0038
2462.00,0.0038
2461.00,0.0039
2460.00,0.0039
2459.00,0.0039
2458.00,0.0040
2457.00,0.0040
2456.00,0.0039
2455.00,0.0039
2454.00,0.0039
2453.00,0.0039
2452.00,0.0038
2451.00,0.0038
2450.00,0.0038
2449.00,0.0037
2448.00,0.0037
2447.00,0.0037
2446.00,0.0037
2445.00,0.0037
2444.00,0.0037
2443.00,0.0036
2442.00,0.0036
2441.00,0.0035
2440.00,0.0035
2439.00,0.0035
2438.00,0.0034
2437.00,0.0034
2436.00,0.0034
2435.00,0.0034
2434.00,0.0034
2433.00,0.0034
2432.00,0.0034
2431.00,0.0034
2430.00,0.0033
2429.00,0.0033
2428.00,0.0033
2427.00,0.0032
2426.00,0.0032
2425.00,0.0032
2424.00,0.0032
2423.00,0.0032
2422.00,0.0032
2421.00,0.0032
2420.00,0.0032
2419.00,0.0032
2418.00,0.0032
2417.00,0.0032
2416.00,0.0032
2415.00,0.0033
2414.00,0.0033
2413.00,0.0033
2412.00,0.0033
2411.00,0.0033
2410.00,0.0032
2409.00,0.0032
2408.00,0.0032
2407.00,0.0032
2406.00,0.0032
2405.00,0.0032
2404.00,0.0032
2403.00,0.0032
2402.00,0.0032
2401.00,0.0032
2400.00,0.0032
2399.00,0.0033
2398.00,0.0033
2397.00,0.0033
2396.00,0.0033
2395.00,0.0032
2394.00,0.0032
2393.00,0.0032
2392.00,0.0031
2391.00,0.0031
2390.00,0.0031
2389.00,0.0030
2388.00,0.0030
2387.00,0.0030
2386.00,0.0029
2385.00,0.0029
2384.00,0.0028
2383.00,0.0028
2382.00,0.0028
2381.00,0.0027
2380.00,0.0027
2379.00,0.0026
2378.00,0.0026
2377.00,0.0025
2376.00,0.0025
2375.00,0.0026
2374.00,0.0026
2373.00,0.0026
2372.00,0.0025
2371.00,0.0025
2370.00,0.0024
2369.00,0.0024
2368.00,0.0023
2367.00,0.0023
2366.00,0.0023
2365.00,0.0023
2364.00,0.0023
2363.00,0.0024
2362.00,0.0024
2361.00,0.0024
2360.00,0.0024
2359.00,0.0024
2358.00,0.0023
2357.00,0.0023
2356.00,0.0024
2355.00,0.0024
2354.00,0.0024
2353.00,0.0024
2352.00,0.0024
2351.00,0.0024
2350.00,0.0024
2349.00,0.0024
2348.00,0.0024
2347.00,0.0025
2346.00,0.0025
2345.00,0.0025
2344.00,0.0026
2343.00,0.0026
2342.00,0.0026
2341.00,0.0026
2340.00,0.0026
2339.00,0.0027
2338.00,0.0027
2337.00,0.0027
2336.00,0.0026
2335.00,0.0026
2334.00,0.0026
2333.00,0.0025
2332.00,0.0025
2331.00,0.0025
2330.00,0.0026
2329.00,0.0028
2328.00,0.0031
2327.00,0.0035
2326.00,0.0037
2325.00,0.0038
2324.00,0.0037
2323.00,0.0035
2322.00,0.0033
2321.00,0.0031
2320.00,0.0031
2319.00,0.0030
2318.00,0.0030
2317.00,0.0030
2316.00,0.0030
2315.00,0.0029
2314.00,0.0028
2313.00,0.0028
2312.00,0.0027
2311.00,0.0027
2310.00,0.0026
2309.00,0.0026
2308.00,0.0025
2307.00,0.0025
2306.00,0.0025
2305.00,0.0025
2304.00,0.0026
2303.00,0.0026
2302.00,0.0026
2301.00,0.0026
2300.00,0.0026
2299.00,0.0026
2298.00,0.0026
2297.00,0.0026
2296.00,0.0027
2295.00,0.0027
2294.00,0.0028
2293.00,0.0029
2292.00,0.0029
2291.00,0.0030
2290.00,0.0030
2289.00,0.0030
2288.00,0.0031
2287.00,0.0031
2286.00,0.0031
2285.00,0.0030
2284.00,0.0029
2283.00,0.0028
2282.00,0.0027
2281.00,0.0027
2280.00,0.0026
2279.00,0.0026
2278.00,0.0026
2277.00,0.0026
2276.00,0.0026
2275.00,0.0025
2274.00,0.0025
2273.00,0.0024
2272.00,0.0024
2271.00,0.0025
2270.00,0.0025
2269.00,0.0024
2268.00,0.0024
2267.00,0.0023
2266.00,0.0022
2265.00,0.0021
2264.00,0.0022
2263.00,0.0022
2262.00,0.0022
2261.00,0.0022
2260.00,0.0022
2259.00,0.0023
2258.00,0.0022
2257.00,0.0022
2256.00,0.0022
2255.00,0.0021
2254.00,0.0020
2253.00,0.0020
2252.00,0.0020
2251.00,0.0019
2250.00,0.0019
2249.00,0.0019
2248.00,0.0020
2247.00,0.0021
2246.00,0.0021
2245.00,0.0021
2244.00,0.0022
2243.00,0.0022
2242.00,0.0022
2241.00,0.0022
2240.00,0.0022
2239.00,0.0022
2238.00,0.0021
2237.00,0.0022
2236.00,0.0022
2235.00,0.0022
2234.00,0.0022
2233.00,0.0022
2232.00,0.0022
2231.00,0.0022
2230.00,0.0021
2229.00,0.0020
2228.00,0.0020
2227.00,0.0020
2226.00,0.0020
2225.00,0.0020
2224.00,0.0020
2223.00,0.0021
2222.00,0.0021
2221.00,0.0022
2220.00,0.0024
2219.00,0.0024
2218.00,0.0023
2217.00,0.0022
2216.00,0.0021
2215.00,0.0021
2214.00,0.0021
2213.00,0.0021
2212.00,0.0021
2211.00,0.0020
2210.00,0.0019
2209.00,0.0019
2208.00,0.0020
2207.00,0.0021
2206.00,0.0021
2205.00,0.0022
2204.00,0.0023
2203.00,0.0024
2202.00,0.0024
2201.00,0.0024
2200.00,0.0024
2199.00,0.0023
2198.00,0.0022
2197.00,0.0021
2196.00,0.0020
2195.00,0.0019
2194.00,0.0019
2193.00,0.0020
2192.00,0.0021
2191.00,0.0022
2190.00,0.0023
2189.00,0.0023
2188.00,0.0022
2187.00,0.0021
2186.00,0.0019
2185.00,0.0018
2184.00,0.0017
2183.00,0.0015
2182.00,0.0014
2181.00,0.0014
2180.00,0.0015
2179.00,0.0015
2178.00,0.0014
2177.00,0.0012
2176.00,0.0010
2175.00,0.0010
2174.00,0.0010
2173.00,0.0013
2172.00,0.0016
2171.00,0.0019
2170.00,0.0021
2169.00,0.0023
2168.00,0.0025
2167.00,0.0025
2166.00,0.0025
2165.00,0.0027
2164.00,0.0029
2163.00,0.0028
2162.00,0.0022
2161.00,0.0011
2160.00,-0.0002
2159.00,-0.0012
2158.00,-0.0017
2157.00,-0.0016
2156.00,-0.0013
2155.00,-0.0011
2154.00,-0.0009
2153.00,-0.0006
2152.00,-0.0004
2151.00,-0.0002
2150.00,-0.0002
2149.00,-0.0002
2148.00,-0.0001
2147.00,-0.0000
2146.00,-0.0000
2145.00,0.0000
2144.00,0.0001
2143.00,0.0001
2142.00,0.0002
2141.00,0.0003
2140.00,0.0004
2139.00,0.0005
2138.00,0.0004
2137.00,0.0003
2136.00,0.0002
2135.00,0.0000
2134.00,-0.0000
2133.00,0.0000
2132.00,0.0002
2131.00,0.0003
2130.00,0.0004
2129.00,0.0006
2128.00,0.0007
2127.00,0.0008
2126.00,0.0009
2125.00,0.0009
2124.00,0.0010
2123.00,0.0011
2122.00,0.0012
2121.00,0.0013
2120.00,0.0013
2119.00,0.0014
2118.00,0.0014
2117.00,0.0014
2116.00,0.0014
2115.00,0.0014
2114.00,0.0014
2113.00,0.0015
2112.00,0.0015
2111.00,0.0014
2110.00,0.0014
2109.00,0.0013
2108.00,0.0012
2107.00,0.0011
2106.00,0.0011
2105.00,0.0011
2104.00,0.0011
2103.00,0.0011
2102.00,0.0010
2101.00,0.0010
2100.00,0.0009
2099.00,0.0008
2098.00,0.0006
2097.00,0.0004
2096.00,0.0002
2095.00,0.0002
2094.00,0.0002
2093.00,0.0004
2092.00,0.0006
2091.00,0.0008
2090.00,0.0009
2089.00,0.0009
2088.00,0.0009
2087.00,0.0008
2086.00,0.0007
2085.00,0.0007
2084.00,0.0008
2083.00,0.0008
2082.00,0.0008
2081.00,0.0009
2080.00,0.0010
2079.00,0.0009
2078.00,0.0008
2077.00,0.0008
2076.00,0.0008
2075.00,0.0008
2074.00,0.0007
2073.00,0.0008
2072.00,0.0008
2071.00,0.0009
2070.00,0.0008
2069.00,0.0008
2068.00,0.0008
2067.00,0.0007
2066.00,0.0007
2065.00,0.0006
2064.00,0.0006
2063.00,0.0006
2062.00,0.0005
2061.00,0.0005
2060.00,0.0005
2059.00,0.0006
2058.00,0.0006
2057.00,0.0006
2056.00,0.0006
2055.00,0.0007
2054.00,0.0009
2053.00,0.0013
2052.00,0.0016
2051.00,0.0016
2050.00,0.0013
2049.00,0.0009
2048.00,0.0007
2047.00,0.0005
2046.00,0.0004
2045.00,0.0003
2044.00,0.0004
2043.00,0.0003
2042.00,0.0002
2041.00,0.0001
2040.00,0.0002
2039.00,0.0002
2038.00,0.0002
2037.00,0.0002
2036.00,0.0002
2035.00,0.0001
2034.00,-0.0001
2033.00,-0.0002
2032.00,-0.0002
2031.00,-0.0002
2030.00,-0.0004
2029.00,-0.0004
2028.00,-0.0004
2027.00,-0.0004
2026.00,-0.0004
2025.00,-0.0004
2024.00,-0.0003
2023.00,-0.0003
2022.00,-0.0004
2021.00,-0.0004
2020.00,-0.0003
2019.00,-0.0001
2018.00,0.0001
2017.00,0.0003
2016.00,0.0004
2015.00,0.0004
2014.00,0.0003
2013.00,0.0002
2012.00,0.0003
2011.00,0.0002
2010.00,0.0000
2009.00,-0.0003
2008.00,-0.0005
2007.00,-0.0008
2006.00,-0.0009
2005.00,-0.0008
2004.00,-0.0004
2003.00,-0.0001
2002.00,0.0001
2001.00,0.0003
2000.00,0.0004
1999.00,0.0004
1998.00,0.0004
1997.00,0.0004
1996.00,0.0005
1995.00,0.0006
1994.00,0.0006
1993.00,0.0007
1992.00,0.0008
1991.00,0.0008
1990.00,0.0009
1989.00,0.0010
1988.00,0.0012
1987.00,0.0013
1986.00,0.0014
1985.00,0.0015
1984.00,0.0017
1983.00,0.0018
1982.00,0.0018
1981.00,0.0016
1980.00,0.0013
1979.00,0.0007
1978.00,0.0002
1977.00,0.0000
1976.00,0.0001
1975.00,0.0002
1974.00,0.0001
1973.00,-0.0000
1972.00,0.0000
1971.00,0.0001
1970.00,0.0001
1969.00,0.0002
1968.00,0.0003
1967.00,0.0002
1966.00,0.0001
1965.00,0.0001
1964.00,0.0001
1963.00,0.0001
1962.00,-0.0000
1961.00,-0.0001
1960.00,-0.0001
1959.00,-0.0001
1958.00,-0.0001
1957.00,0.0000
1956.00,0.0002
1955.00,0.0004
1954.00,0.0004
1953.00,0.0004
1952.00,0.0004
1951.00,0.0005
1950.00,0.0005
1949.00,0.0005
1948.00,0.0005
1947.00,0.0006
1946.00,0.0006
1945.00,0.0006
1944.00,0.0007
1943.00,0.0007
1942.00,0.0006
1941.00,0.0006
1940.00,0.0008
1939.00,0.0009
1938.00,0.0009
1937.00,0.0009
1936.00,0.0009
1935.00,0.0009
1934.00,0.0009
1933.00,0.0010
1932.00,0.0010
1931.00,0.0010
1930.00,0.0009
1929.00,0.0010
1928.00,0.0010
1927.00,0.0011
1926.00,0.0011
1925.00,0.0011
1924.00,0.0012
1923.00,0.0012
1922.00,0.0012
1921.00,0.0014
1920.00,0.0015
1919.00,0.0016
1918.00,0.0016
1917.00,0.0015
1916.00,0.0015
1915.00,0.0016
1914.00,0.0016
1913.00,0.0016
1912.00,0.0017
1911.00,0.0016
1910.00,0.0016
1909.00,0.0015
1908.00,0.0015
1907.00,0.0015
1906.00,0.0014
1905.00,0.0015
1904.00,0.0016
1903.00,0.0016
1902.00,0.0016
1901.00,0.0016
1900.00,0.0016
1899.00,0.0017
1898.00,0.0017
1897.00,0.0017
1896.00,0.0018
1895.00,0.0017
1894.00,0.0016
1893.00,0.0016
1892.00,0.0016
1891.00,0.0016
1890.00,0.0016
1889.00,0.0016
1888.00,0.0017
1887.00,0.0017
1886.00,0.0018
1885.00,0.0018
1884.00,0.0019
1883.00,0.0019
1882.00,0.0019
1881.00,0.0018
1880.00,0.0019
1879.00,0.0019
1878.00,0.0019
1877.00,0.0019
1876.00,0.0019
1875.00,0.0019
1874.00,0.0019
1873.00,0.0019
1872.00,0.0019
1871.00,0.0019
1870.00,0.0019
1869.00,0.0019
1868.00,0.0019
1867.00,0.0019
1866.00,0.0019
1865.00,0.0019
1864.00,0.0020
1863.00,0.0021
1862.00,0.0020
1861.00,0.0020
1860.00,0.0020
1859.00,0.0021
1858.00,0.0021
1857.00,0.0021
1856.00,0.0021
1855.00,0.0022
1854.00,0.0022
1853.00,0.0022
1852.00,0.0022
1851.00,0.0022
1850.00,0.0022
1849.00,0.0022
1848.00,0.0023
1847.00,0.0023
1846.00,0.0023
1845.00,0.0022
1844.00,0.0022
1843.00,0.0022
1842.00,0.0021
1841.00,0.0022
1840.00,0.0023
1839.00,0.0023
1838.00,0.0023
1837.00,0.0023
1836.00,0.0024
1835.00,0.0024
1834.00,0.0024
1833.00,0.0024
1832.00,0.0025
1831.00,0.0025
1830.00,0.0024
1829.00,0.0024
1828.00,0.0024
1827.00,0.0025
1826.00,0.0025
1825.00,0.0026
1824.00,0.0026
1823.00,0.0026
1822.00,0.0026
1821.00,0.0025
1820.00,0.0025
1819.00,0.0025
1818.00,0.0024
1817.00,0.0024
1816.00,0.0025
1815.00,0.0026
1814.00,0.0026
1813.00,0.0027
1812.00,0.0028
1811.00,0.0028
1810.00,0.0027
1809.00,0.0027
1808.00,0.0028
1807.00,0.0028
1806.00,0.0028
1805.00,0.0029
1804.00,0.0029
1803.00,0.0030
1802.00,0.0029
1801.00,0.0029
1800.00,0.0029
1799.00,0.0028
1798.00,0.0028
1797.00,0.0029
1796.00,0.0030
1795.00,0.0030
1794.00,0.0030
1793.00,0.0030
1792.00,0.0030
1791.00,0.0030
1790.00,0.0030
1789.00,0.0031
1788.00,0.0032
1787.00,0.0033
1786.00,0.0034
1785.00,0.0034
1784.00,0.0034
1783.00,0.0035
1782.00,0.0035
1781.00,0.0035
1780.00,0.0036
1779.00,0.0036
1778.00,0.0035
1777.00,0.0036
1776.00,0.0036
1775.00,0.0036
1774.00,0.0035
1773.00,0.0034
1772.00,0.0034
1771.00,0.0034
1770.00,0.0035
1769.00,0.0037
1768.00,0.0040
1767.00,0.0041
1766.00,0.0041
1765.00,0.0041
1764.00,0.0043
1763.00,0.0044
1762.00,0.0044
1761.00,0.0044
1760.00,0.0045
1759.00,0.0046
1758.00,0.0047
1757.00,0.0048
1756.00,0.0048
1755.00,0.0049
1754.00,0.0049
1753.00,0.0050
1752.00,0.0051
1751.00,0.0052
1750.00,0.0051
1749.00,0.0052
1748.00,0.0053
1747.00,0.0055
1746.00,0.0056
1745.00,0.0058
1744.00,0.0060
1743.00,0.0061
1742.00,0.0061
1741.00,0.0062
1740.00,0.0063
1739.00,0.0064
1738.00,0.0065
1737.00,0.0066
1736.00,0.0068
1735.00,0.0070
1734.00,0.0070
1733.00,0.0071
1732.00,0.0073
1731.00,0.0077
1730.00,0.0081
1729.00,0.0085
1728.00,0.0088
1727.00,0.0091
1726.00,0.0093
1725.00,0.0096
1724.00,0.0100
1723.00,0.0103
1722.00,0.0105
1721.00,0.0107
1720.00,0.0110
1719.00,0.0113
1718.00,0.0115
1717.00,0.0118
1716.00,0.0123
1715.00,0.0130
1714.00,0.0137
1713.00,0.0145
1712.00,0.0153
1711.00,0.0162
1710.00,0.0170
1709.00,0.0179
1708.00,0.0190
1707.00,0.0202
1706.00,0.0215
1705.00,0.0230
1704.00,0.0246
1703.00,0.0260
1702.00,0.0277
1701.00,0.0304
1700.00,0.0339
1699.00,0.0371
1698.00,0.0400
1697.00,0.0438
1696.00,0.0491
1695.00,0.0551
1694.00,0.0606
1693.00,0.0657
1692.00,0.0710
1691.00,0.0768
1690.00,0.0829
1689.00,0.0888
1688.00,0.0941
1687.00,0.0986
1686.00,0.1030
1685.00,0.1085
1684.00,0.1151
1683.00,0.1209
1682.00,0.1252
1681.00,0.1292
1680.00,0.1335
1679.00,0.1380
1678.00,0.1428
1677.00,0.1488
1676.00,0.1569
1675.00,0.1671
1674.00,0.1776
1673.00,0.1876
1672.00,0.1982
1671.00,0.2106
1670.00,0.2257
1669.00,0.2423
1668.00,0.2585
1667.00,0.2726
1666.00,0.2849
1665.00,0.2969
1664.00,0.3099
1663.00,0.3238
1662.00,0.3368
1661.00,0.3478
1660.00,0.3567
1659.00,0.3636
1658.00,0.3685
1657.00,0.3715
1656.00,0.3727
1655.00,0.3723
1654.00,0.3704
1653.00,0.3671
1652.00,0.3620
1651.00,0.3549
1650.00,0.3459
1649.00,0.3349
1648.00,0.3213
1647.00,0.3051
1646.00,0.2879
1645.00,0.2717
1644.00,0.2570
1643.00,0.2430
1642.00,0.2291
1641.00,0.2156
1640.00,0.2031
1639.00,0.1917
1638.00,0.1810
1637.00,0.1703
1636.00,0.1597
1635.00,0.1501
1634.00,0.1425
1633.00,0.1365
1632.00,0.1316
1631.00,0.1274
1630.00,0.1239
1629.00,0.1212
1628.00,0.1194
1627.00,0.1186
1626.00,0.1182
1625.00,0.1182
1624.00,0.1187
1623.00,0.1194
1622.00,0.1198
1621.00,0.1195
1620.00,0.1187
1619.00,0.1172
1618.00,0.1148
1617.00,0.1115
1616.00,0.1077
1615.00,0.1039
1614.00,0.1002
1613.00,0.0965
1612.00,0.0931
1611.00,0.0901
1610.00,0.0880
1609.00,0.0870
1608.00,0.0875
1607.00,0.0895
1606.00,0.0930
1605.00,0.0979
1604.00,0.1040
1603.00,0.1110
1602.00,0.1182
1601.00,0.1248
1600.00,0.1302
1599.00,0.1340
1598.00,0.1356
1597.00,0.1350
1596.00,0.1326
1595.00,0.1286
1594.00,0.1237
1593.00,0.1183
1592.00,0.1130
1591.00,0.1080
1590.00,0.1033
1589.00,0.0989
1588.00,0.0948
1587.00,0.0908
1586.00,0.0867
1585.00,0.0825
1584.00,0.0782
1583.00,0.0740
1582.00,0.0698
1581.00,0.0658
1580.00,0.0621
1579.00,0.0587
1578.00,0.0555
1577.00,0.0523
1576.00,0.0493
1575.00,0.0468
1574.00,0.0450
1573.00,0.0436
1572.00,0.0423
1571.00,0.0408
1570.00,0.0393
1569.00,0.0379
1568.00,0.0367
1567.00,0.0358
1566.00,0.0350
1565.00,0.0342
1564.00,0.0335
1563.00,0.0327
1562.00,0.0320
1561.00,0.0313
1560.00,0.0304
1559.00,0.0296
1558.00,0.0290
1557.00,0.0288
1556.00,0.0288
1555.00,0.0289
1554.00,0.0289
1553.00,0.0289
1552.00,0.0289
1551.00,0.0291
1550.00,0.0292
1549.00,0.0294
1548.00,0.0295
1547.00,0.0296
1546.00,0.0299
1545.00,0.0303
1544.00,0.0305
1543.00,0.0307
1542.00,0.0308
1541.00,0.0309
1540.00,0.0311
1539.00,0.0314
1538.00,0.0318
1537.00,0.0321
1536.00,0.0323
1535.00,0.0323
1534.00,0.0321
1533.00,0.0318
1532.00,0.0315
1531.00,0.0313
1530.00,0.0311
1529.00,0.0310
1528.00,0.0309
1527.00,0.0309
1526.00,0.0310
1525.00,0.0311
1524.00,0.0311
1523.00,0.0313
1522.00,0.0315
1521.00,0.0317
1520.00,0.0320
1519.00,0.0322
1518.00,0.0324
1517.00,0.0325
1516.00,0.0326
1515.00,0.0326
1514.00,0.0325
1513.00,0.0325
1512.00,0.0325
1511.00,0.0325
1510.00,0.0325
1509.00,0.0326
1508.00,0.0330
1507.00,0.0337
1506.00,0.0349
1505.00,0.0365
1504.00,0.0384
1503.00,0.0406
1502.00,0.0432
1501.00,0.0462
1500.00,0.0496
1499.00,0.0533
1498.00,0.0573
1497.00,0.0614
1496.00,0.0649
1495.00,0.0673
1494.00,0.0684
1493.00,0.0683
1492.00,0.0670
1491.00,0.0645
1490.00,0.0611
1489.00,0.0573
1488.00,0.0536
1487.00,0.0502
1486.00,0.0472
1485.00,0.0449
1484.00,0.0432
1483.00,0.0419
1482.00,0.0411
1481.00,0.0408
1480.00,0.0409
1479.00,0.0413
1478.00,0.0422
1477.00,0.0436
1476.00,0.0454
1475.00,0.0477
1474.00,0.0509
1473.00,0.0556
1472.00,0.0620
1471.00,0.0691
1470.00,0.0766
1469.00,0.0848
1468.00,0.0936
1467.00,0.1031
1466.00,0.1134
1465.00,0.1243
1464.00,0.1340
1463.00,0.1409
1462.00,0.1446
1461.00,0.1460
1460.00,0.1453
1459.00,0.1428
1458.00,0.1389
1457.00,0.1346
1456.00,0.1311
1455.00,0.1288
1454.00,0.1279
1453.00,0.1282
1452.00,0.1299
1451.00,0.1328
1450.00,0.1371
1449.00,0.1431
1448.00,0.1507
1447.00,0.1591
1446.00,0.1677
1445.00,0.1764
1444.00,0.1850
1443.00,0.1934
1442.00,0.2014
1441.00,0.2088
1440.00,0.2153
1439.00,0.2210
1438.00,0.2269
1437.00,0.2345
1436.00,0.2431
1435.00,0.2516
1434.00,0.2601
1433.00,0.2697
1432.00,0.2807
1431.00,0.2921
1430.00,0.3025
1429.00,0.3106
1428.00,0.3148
1427.00,0.3148
1426.00,0.3114
1425.00,0.3056
1424.00,0.2974
1423.00,0.2871
1422.00,0.2752
1421.00,0.2612
1420.00,0.2436
1419.00,0.2231
1418.00,0.2029
1417.00,0.1853
1416.00,0.1699
1415.00,0.1562
1414.00,0.1443
1413.00,0.1343
1412.00,0.1260
1411.00,0.1192
1410.00,0.1139
1409.00,0.1098
1408.00,0.1066
1407.00,0.1041
1406.00,0.1024
1405.00,0.1012
1404.00,0.1003
1403.00,0.0998
1402.00,0.0995
1401.00,0.0996
1400.00,0.0998
1399.00,0.1003
1398.00,0.1010
1397.00,0.1018
1396.00,0.1026
1395.00,0.1037
1394.00,0.1051
1393.00,0.1065
1392.00,0.1079
1391.00,0.1094
1390.00,0.1112
1389.00,0.1134
1388.00,0.1162
1387.00,0.1197
1386.00,0.1234
1385.00,0.1272
1384.00,0.1309
1383.00,0.1346
1382.00,0.1380
1381.00,0.1409
1380.00,0.1434
1379.00,0.1454
1378.00,0.1469
1377.00,0.1476
1376.00,0.1470
1375.00,0.1450
1374.00,0.1415
1373.00,0.1371
1372.00,0.1325
1371.00,0.1281
1370.00,0.1242
1369.00,0.1206
1368.00,0.1174
1367.00,0.1145
1366.00,0.1118
1365.00,0.1092
1364.00,0.1067
1363.00,0.1044
1362.00,0.1023
1361.00,0.1006
1360.00,0.0993
1359.00,0.0982
1358.00,0.0976
1357.00,0.0973
1356.00,0.0972
1355.00,0.0972
1354.00,0.0972
1353.00,0.0971
1352.00,0.0967
1351.00,0.0959
1350.00,0.0948
1349.00,0.0934
1348.00,0.0918
1347.00,0.0900
1346.00,0.0882
1345.00,0.0864
1344.00,0.0848
1343.00,0.0834
1342.00,0.0823
1341.00,0.0814
1340.00,0.0808
1339.00,0.0803
1338.00,0.0800
1337.00,0.0798
1336.00,0.0797
1335.00,0.0797
1334.00,0.0799
1333.00,0.0802
1332.00,0.0807
1331.00,0.0814
1330.00,0.0824
1329.00,0.0838
1328.00,0.0854
1327.00,0.0874
1326.00,0.0896
1325.00,0.0921
1324.00,0.0947
1323.00,0.0973
1322.00,0.0998
1321.00,0.1020
1320.00,0.1038
1319.00,0.1050
1318.00,0.1056
1317.00,0.1056
1316.00,0.1050
1315.00,0.1039
1314.00,0.1026
1313.00,0.1010
1312.00,0.0994
1311.00,0.0977
1310.00,0.0963
1309.00,0.0950
1308.00,0.0940
1307.00,0.0936
1306.00,0.0937
1305.00,0.0946
1304.00,0.0963
1303.00,0.0991
1302.00,0.1033
1301.00,0.1091
1300.00,0.1167
1299.00,0.1266
1298.00,0.1389
1297.00,0.1537
1296.00,0.1704
1295.00,0.1882
1294.00,0.2057
1293.00,0.2215
1292.00,0.2341
1291.00,0.2428
1290.00,0.2470
1289.00,0.2471
1288.00,0.2436
1287.00,0.2373
1286.00,0.2291
1285.00,0.2200
1284.00,0.2106
1283.00,0.2019
1282.00,0.1944
1281.00,0.1887
1280.00,0.1849
1279.00,0.1829
1278.00,0.1825
1277.00,0.1829
1276.00,0.1835
1275.00,0.1836
1274.00,0.1827
1273.00,0.1804
1272.00,0.1766
1271.00,0.1714
1270.00,0.1652
1269.00,0.1583
1268.00,0.1509
1267.00,0.1436
1266.00,0.1364
1265.00,0.1296
1264.00,0.1233
1263.00,0.1175
1262.00,0.1124
1261.00,0.1078
1260.00,0.1036
1259.00,0.0998
1258.00,0.0964
1257.00,0.0932
1256.00,0.0901
1255.00,0.0872
1254.00,0.0844
1253.00,0.0816
1252.00,0.0788
1251.00,0.0761
1250.00,0.0736
1249.00,0.0712
1248.00,0.0691
1247.00,0.0673
1246.00,0.0659
1245.00,0.0648
1244.00,0.0641
1243.00,0.0639
1242.00,0.0640
1241.00,0.0647
1240.00,0.0659
1239.00,0.0676
1238.00,0.0701
1237.00,0.0733
1236.00,0.0771
1235.00,0.0817
1234.00,0.0869
1233.00,0.0923
1232.00,0.0978
1231.00,0.1030
1230.00,0.1076
1229.00,0.1113
1228.00,0.1140
1227.00,0.1158
1226.00,0.1167
1225.00,0.1171
1224.00,0.1170
1223.00,0.1166
1222.00,0.1159
1221.00,0.1150
1220.00,0.1137
1219.00,0.1121
1218.00,0.1101
1217.00,0.1077
1216.00,0.1049
1215.00,0.1019
1214.00,0.0986
1213.00,0.0954
1212.00,0.0923
1211.00,0.0894
1210.00,0.0868
1209.00,0.0846
1208.00,0.0826
1207.00,0.0809
1206.00,0.0795
1205.00,0.0783
1204.00,0.0771
1203.00,0.0759
1202.00,0.0748
1201.00,0.0736
1200.00,0.0722
1199.00,0.0709
1198.00,0.0695
1197.00,0.0681
1196.00,0.0668
1195.00,0.0656
1194.00,0.0646
1193.00,0.0637
1192.00,0.0630
1191.00,0.0625
1190.00,0.0622
1189.00,0.0620
1188.00,0.0619
1187.00,0.0618
1186.00,0.0619
1185.00,0.0620
1184.00,0.0623
1183.00,0.0628
1182.00,0.0636
1181.00,0.0646
1180.00,0.0661
1179.00,0.0679
1178.00,0.0702
1177.00,0.0730
1176.00,0.0761
1175.00,0.0796
1174.00,0.0835
1173.00,0.0878
1172.00,0.0922
1171.00,0.0967
1170.00,0.1012
1169.00,0.1055
1168.00,0.1094
1167.00,0.1128
1166.00,0.1155
1165.00,0.1171
1164.00,0.1175
1163.00,0.1167
1162.00,0.1149
1161.00,0.1123
1160.00,0.1091
1159.00,0.1057
1158.00,0.1022
1157.00,0.0986
1156.00,0.0950
1155.00,0.0913
1154.00,0.0876
1153.00,0.0838
1152.00,0.0800
1151.00,0.0762
1150.00,0.0724
1149.00,0.0685
1148.00,0.0647
1147.00,0.0610
1146.00,0.0576
1145.00,0.0546
1144.00,0.0520
1143.00,0.0499
1142.00,0.0483
1141.00,0.0469
1140.00,0.0458
1139.00,0.0446
1138.00,0.0435
1137.00,0.0423
1136.00,0.0410
1135.00,0.0397
1134.00,0.0385
1133.00,0.0373
1132.00,0.0362
1131.00,0.0352
1130.00,0.0345
1129.00,0.0339
1128.00,0.0335
1127.00,0.0332
1126.00,0.0330
1125.00,0.0329
1124.00,0.0328
1123.00,0.0329
1122.00,0.0331
1121.00,0.0335
1120.00,0.0339
1119.00,0.0345
1118.00,0.0353
1117.00,0.0363
1116.00,0.0375
1115.00,0.0391
1114.00,0.0408
1113.00,0.0427
1112.00,0.0446
1111.00,0.0463
1110.00,0.0478
1109.00,0.0488
1108.00,0.0493
1107.00,0.0494
1106.00,0.0493
1105.00,0.0489
1104.00,0.0484
1103.00,0.0480
1102.00,0.0479
1101.00,0.0481
1100.00,0.0486
1099.00,0.0495
1098.00,0.0506
1097.00,0.0518
1096.00,0.0528
1095.00,0.0537
1094.00,0.0544
1093.00,0.0547
1092.00,0.0550
1091.00,0.0552
1090.00,0.0558
1089.00,0.0568
1088.00,0.0583
1087.00,0.0602
1086.00,0.0624
1085.00,0.0646
1084.00,0.0662
1083.00,0.0673
1082.00,0.0676
1081.00,0.0670
1080.00,0.0657
1079.00,0.0639
1078.00,0.0618
1077.00,0.0597
1076.00,0.0575
1075.00,0.0555
1074.00,0.0535
1073.00,0.0515
1072.00,0.0496
1071.00,0.0478
1070.00,0.0464
1069.00,0.0452
1068.00,0.0443
1067.00,0.0438
1066.00,0.0436
1065.00,0.0438
1064.00,0.0444
1063.00,0.0455
1062.00,0.0473
1061.00,0.0497
1060.00,0.0531
1059.00,0.0575
1058.00,0.0634
1057.00,0.0710
1056.00,0.0804
1055.00,0.0917
1054.00,0.1049
1053.00,0.1195
1052.00,0.1347
1051.00,0.1493
1050.00,0.1621
1049.00,0.1721
1048.00,0.1786
1047.00,0.1816
1046.00,0.1817
1045.00,0.1797
1044.00,0.1765
1043.00,0.1731
1042.00,0.1701
1041.00,0.1679
1040.00,0.1665
1039.00,0.1658
1038.00,0.1657
1037.00,0.1659
1036.00,0.1662
1035.00,0.1665
1034.00,0.1667
1033.00,0.1666
1032.00,0.1662
1031.00,0.1655
1030.00,0.1645
1029.00,0.1631
1028.00,0.1613
1027.00,0.1592
1026.00,0.1567
1025.00,0.1538
1024.00,0.1504
1023.00,0.1467
1022.00,0.1427
1021.00,0.1384
1020.00,0.1336
1019.00,0.1284
1018.00,0.1227
1017.00,0.1165
1016.00,0.1099
1015.00,0.1029
1014.00,0.0960
1013.00,0.0892
1012.00,0.0830
1011.00,0.0775
1010.00,0.0731
1009.00,0.0696
1008.00,0.0671
1007.00,0.0656
1006.00,0.0648
1005.00,0.0646
1004.00,0.0644
1003.00,0.0639
1002.00,0.0630
1001.00,0.0616
1000.00,0.0597
999.00,0.0577
998.00,0.0558
997.00,0.0540
996.00,0.0525
995.00,0.0514
994.00,0.0507
993.00,0.0503
992.00,0.0503
991.00,0.0507
990.00,0.0513
989.00,0.0522
988.00,0.0530
987.00,0.0536
986.00,0.0538
985.00,0.0535
984.00,0.0527
983.00,0.0515
982.00,0.0501
981.00,0.0486
980.00,0.0472
979.00,0.0459
978.00,0.0448
977.00,0.0438
976.00,0.0429
975.00,0.0419
974.00,0.0410
973.00,0.0400
972.00,0.0389
971.00,0.0377
970.00,0.0366
969.00,0.0354
968.00,0.0342
967.00,0.0330
966.00,0.0320
965.00,0.0310
964.00,0.0300
963.00,0.0290
962.00,0.0280
961.00,0.0271
960.00,0.0261
959.00,0.0251
958.00,0.0241
957.00,0.0232
956.00,0.0222
955.00,0.0214
954.00,0.0207
953.00,0.0202
952.00,0.0197
951.00,0.0193
950.00,0.0190
949.00,0.0188
948.00,0.0185
947.00,0.0184
946.00,0.0183
945.00,0.0183
944.00,0.0184
943.00,0.0185
942.00,0.0188
941.00,0.0192
940.00,0.0197
939.00,0.0204
938.00,0.0213
937.00,0.0224
936.00,0.0237
935.00,0.0249
934.00,0.0259
933.00,0.0265
932.00,0.0265
931.00,0.0260
930.00,0.0253
929.00,0.0247
928.00,0.0243
927.00,0.0243
926.00,0.0245
925.00,0.0249
924.00,0.0255
923.00,0.0261
922.00,0.0270
921.00,0.0279
920.00,0.0289
919.00,0.0300
918.00,0.0311
917.00,0.0322
916.00,0.0332
915.00,0.0341
914.00,0.0352
913.00,0.0364
912.00,0.0376
911.00,0.0388
910.00,0.0401
909.00,0.0413
908.00,0.0421
907.00,0.0425
906.00,0.0426
905.00,0.0423
904.00,0.0416
903.00,0.0407
902.00,0.0397
901.00,0.0388
900.00,0.0381
899.00,0.0375
898.00,0.0372
897.00,0.0369
896.00,0.0366
895.00,0.0362
894.00,0.0358
893.00,0.0354
892.00,0.0348
891.00,0.0343
890.00,0.0339
889.00,0.0336
888.00,0.0334
887.00,0.0334
886.00,0.0335
885.00,0.0337
884.00,0.0340
883.00,0.0343
882.00,0.0348
881.00,0.0353
880.00,0.0357
879.00,0.0361
878.00,0.0366
877.00,0.0370
876.00,0.0373
875.00,0.0377
874.00,0.0381
873.00,0.0386
872.00,0.0390
871.00,0.0395
870.00,0.0401
869.00,0.0409
868.00,0.0418
867.00,0.0428
866.00,0.0441
865.00,0.0455
864.00,0.0470
863.00,0.0488
862.00,0.0507
861.00,0.0529
860.00,0.0552
859.00,0.0576
858.00,0.0603
857.00,0.0631
856.00,0.0658
855.00,0.0686
854.00,0.0715
853.00,0.0742
852.00,0.0769
851.00,0.0793
850.00,0.0817
849.00,0.0838
848.00,0.0858
847.00,0.0876
846.00,0.0894
845.00,0.0910
844.00,0.0925
843.00,0.0939
842.00,0.0954
841.00,0.0969
840.00,0.0985
839.00,0.1002
838.00,0.1021
837.00,0.1040
836.00,0.1059
835.00,0.1078
834.00,0.1096
833.00,0.1114
832.00,0.1130
831.00,0.1144
830.00,0.1154
829.00,0.1159
828.00,0.1157
827.00,0.1148
826.00,0.1130
825.00,0.1105
824.00,0.1073
823.00,0.1035
822.00,0.0994
821.00,0.0949
820.00,0.0904
819.00,0.0860
818.00,0.0819
817.00,0.0781
816.00,0.0747
815.00,0.0716
814.00,0.0689
813.00,0.0665
812.00,0.0642
811.00,0.0622
810.00,0.0605
809.00,0.0590
808.00,0.0576
807.00,0.0565
806.00,0.0557
805.00,0.0550
804.00,0.0545
803.00,0.0543
802.00,0.0543
801.00,0.0545
800.00,0.0551
799.00,0.0559
798.00,0.0569
797.00,0.0580
796.00,0.0591
795.00,0.0600
794.00,0.0609
793.00,0.0617
792.00,0.0621
791.00,0.0625
790.00,0.0628
789.00,0.0630
788.00,0.0631
787.00,0.0634
786.00,0.0639
785.00,0.0645
784.00,0.0652
783.00,0.0661
782.00,0.0671
781.00,0.0680
780.00,0.0689
779.00,0.0697
778.00,0.0703
777.00,0.0708
776.00,0.0711
775.00,0.0713
774.00,0.0714
773.00,0.0713
772.00,0.0711
771.00,0.0709
770.00,0.0708
769.00,0.0707
768.00,0.0706
767.00,0.0705
766.00,0.0706
765.00,0.0708
764.00,0.0712
763.00,0.0718
762.00,0.0726
761.00,0.0736
760.00,0.0748
759.00,0.0763
758.00,0.0779
757.00,0.0796
756.00,0.0814
755.00,0.0833
754.00,0.0853
753.00,0.0874
752.00,0.0895
751.00,0.0915
750.00,0.0936
749.00,0.0956
748.00,0.0975
747.00,0.0994
746.00,0.1013
745.00,0.1031
744.00,0.1047
743.00,0.1062
742.00,0.1077
741.00,0.1090
740.00,0.1101
739.00,0.1109
738.00,0.1114
737.00,0.1116
736.00,0.1114
735.00,0.1109
734.00,0.1099
733.00,0.1086
732.00,0.1067
731.00,0.1045
730.00,0.1021
729.00,0.0994
728.00,0.0967
727.00,0.0940
726.00,0.0916
725.00,0.0894
724.00,0.0872
723.00,0.0853
722.00,0.0836
721.00,0.0822
720.00,0.0810
719.00,0.0800
718.00,0.0792
717.00,0.0787
716.00,0.0783
715.00,0.0780
714.00,0.0779
713.00,0.0779
712.00,0.0779
711.00,0.0781
710.00,0.0783
709.00,0.0786
708.00,0.0788
707.00,0.0791
706.00,0.0794
705.00,0.0797
704.00,0.0800
703.00,0.0803
702.00,0.0808
701.00,0.0813
700.00,0.0818
699.00,0.0822
698.00,0.0828
697.00,0.0833
696.00,0.0838
695.00,0.0844
694.00,0.0850
693.00,0.0857
692.00,0.0864
691.00,0.0872
690.00,0.0881
689.00,0.0891
688.00,0.0900
687.00,0.0911
686.00,0.0922
685.00,0.0933
684.00,0.0943
683.00,0.0952
682.00,0.0963
681.00,0.0973
680.00,0.0982
679.00,0.0992
678.00,0.1003
677.00,0.1013
676.00,0.1023
675.00,0.1034
674.00,0.1045
673.00,0.1056
672.00,0.1065
671.00,0.1074
670.00,0.1084
669.00,0.1099
668.00,0.1118
667.00,0.1139
666.00,0.1154
665.00,0.1164
664.00,0.1175
663.00,0.1188
662.00,0.1203
661.00,0.1218
660.00,0.1232
659.00,0.1247
658.00,0.1263
657.00,0.1279
656.00,0.1293
655.00,0.1307
654.00,0.1321
653.00,0.1333
652.00,0.1342
651.00,0.1348
650.00,0.1351
649.00,0.1350
648.00,0.1343
647.00,0.1331
646.00,0.1315
645.00,0.1294
644.00,0.1269
643.00,0.1242
642.00,0.1214
641.00,0.1186
640.00,0.1157
639.00,0.1130
638.00,0.1104
637.00,0.1079
636.00,0.1055
635.00,0.1032
634.00,0.1012
633.00,0.0993
632.00,0.0974
631.00,0.0956
630.00,0.0940
629.00,0.0926
628.00,0.0912
627.00,0.0898
626.00,0.0886
625.00,0.0875
624.00,0.0864
623.00,0.0855
622.00,0.0848
621.00,0.0842
620.00,0.0836
619.00,0.0832
618.00,0.0830
617.00,0.0830
616.00,0.0829
615.00,0.0830
614.00,0.0833
613.00,0.0836
612.00,0.0839
611.00,0.0842
610.00,0.0847
609.00,0.0854
608.00,0.0863
607.00,0.0873
606.00,0.0887
605.00,0.0901
604.00,0.0914
603.00,0.0926
602.00,0.0938
601.00,0.0947
600.00,0.0955
599.00,0.0962
598.00,0.0972
597.00,0.0981
596.00,0.0990
595.00,0.1000
594.00,0.1011
593.00,0.1022
592.00,0.1033
591.00,0.1045
590.00,0.1059
589.00,0.1074
588.00,0.1089
587.00,0.1105
586.00,0.1125
585.00,0.1146
584.00,0.1165
583.00,0.1184
582.00,0.1203
581.00,0.1217
580.00,0.1226
579.00,0.1230
578.00,0.1230
577.00,0.1224
576.00,0.1212
575.00,0.1196
574.00,0.1179
573.00,0.1160
572.00,0.1141
571.00,0.1122
570.00,0.1106
569.00,0.1091
568.00,0.1075
567.00,0.1060
566.00,0.1046
565.00,0.1030
564.00,0.1011
563.00,0.0990
562.00,0.0967
561.00,0.0943
560.00,0.0916
559.00,0.0890
558.00,0.0867
557.00,0.0845
556.00,0.0823
555.00,0.0805
554.00,0.0791
553.00,0.0780
552.00,0.0768
551.00,0.0757
550.00,0.0749
549.00,0.0742
548.00,0.0735
547.00,0.0730
546.00,0.0728
545.00,0.0727
544.00,0.0724
543.00,0.0722
542.00,0.0723
541.00,0.0723
540.00,0.0721
539.00,0.0718
538.00,0.0715
537.00,0.0713
536.00,0.0709
535.00,0.0709
534.00,0.0711
533.00,0.0713
532.00,0.0711
531.00,0.0707
530.00,0.0704
529.00,0.0698
528.00,0.0689
527.00,0.0680
526.00,0.0674
525.00,0.0668
524.00,0.0660
523.00,0.0652
522.00,0.0647
521.00,0.0642
520.00,0.0635
519.00,0.0630
518.00,0.0628
517.00,0.0625
516.00,0.0618
515.00,0.0611
514.00,0.0607
513.00,0.0603
512.00,0.0597
511.00,0.0592
510.00,0.0590
509.00,0.0586
508.00,0.0580
507.00,0.0576
506.00,0.0576
505.00,0.0576
504.00,0.0572
503.00,0.0569
502.00,0.0572
501.00,0.0575
500.00,0.0576
499.00,0.0578
498.00,0.0582
497.00,0.0587
496.00,0.0588
495.00,0.0590
494.00,0.0594
493.00,0.0598
492.00,0.0598
491.00,0.0599
490.00,0.0603
489.00,0.0605
488.00,0.0603
487.00,0.0602
486.00,0.0605
485.00,0.0607
484.00,0.0605
483.00,0.0602
482.00,0.0603
481.00,0.0602
480.00,0.0598
479.00,0.0595
478.00,0.0596
477.00,0.0598
476.00,0.0594
475.00,0.0591
474.00,0.0594
473.00,0.0597
472.00,0.0596
471.00,0.0596
470.00,0.0600
469.00,0.0604
468.00,0.0602
467.00,0.0599
466.00,0.0601
465.00,0.0603
464.00,0.0602
463.00,0.0602
462.00,0.0607
461.00,0.0613
460.00,0.0615
459.00,0.0620
458.00,0.0633
457.00,0.0647
456.00,0.0655
455.00,0.0662
454.00,0.0670
453.00,0.0676
452.00,0.0676
451.00,0.0675
450.00,0.0676
449.00,0.0673
448.00,0.0665
447.00,0.0656
446.00,0.0652
445.00,0.0647
444.00,0.0636
443.00,0.0626
442.00,0.0621
441.00,0.0619
440.00,0.0615
439.00,0.0613
438.00,0.0613
437.00,0.0609
436.00,0.0598
435.00,0.0588
434.00,0.0586
433.00,0.0588
432.00,0.0585
431.00,0.0582
430.00,0.0583
429.00,0.0583
428.00,0.0579
427.00,0.0576
426.00,0.0577
425.00,0.0577
424.00,0.0569
423.00,0.0566
422.00,0.0573
421.00,0.0578
420.00,0.0574
419.00,0.0573
418.00,0.0584
417.00,0.0589
416.00,0.0580
415.00,0.0573
414.00,0.0580
413.00,0.0592
412.00,0.0601
411.00,0.0613
410.00,0.0632
409.00,0.0644
408.00,0.0639
407.00,0.0631
406.00,0.0636
405.00,0.0638
404.00,0.0630
403.00,0.0624
402.00,0.0634
401.00,0.0642
400.00,0.0633
