Created as New Dataset,Sample 283 By YargerLab Date Saturday, October 18 2025
cm-1,A
4000.00,0.0030
3999.00,0.0030
3998.00,0.0030
3997.00,0.0031
3996.00,0.0030
3995.00,0.0030
3994.00,0.0030
3993.00,0.0030
3992.00,0.0030
3991.00,0.0030
3990.00,0.0030
3989.00,0.0030
3988.00,0.0029
3987.00,0.0029
3986.00,0.0029
3985.00,0.0030
3984.00,0.0030
3983.00,0.0030
3982.00,0.0030
3981.00,0.0030
3980.00,0.0030
3979.00,0.0030
3978.00,0.0030
3977.00,0.0030
3976.00,0.0030
3975.00,0.0029
3974.00,0.0029
3973.00,0.0029
3972.00,0.0029
3971.00,0.0029
3970.00,0.0029
3969.00,0.0029
3968.00,0.0029
3967.00,0.0029
3966.00,0.0030
3965.00,0.0030
3964.00,0.0030
3963.00,0.0030
3962.00,0.0030
3961.00,0.0030
3960.00,0.0030
3959.00,0.0030
3958.00,0.0030
3957.00,0.0030
3956.00,0.0030
3955.00,0.0030
3954.00,0.0030
3953.00,0.0030
3952.00,0.0030
3951.00,0.0030
3950.00,0.0030
3949.00,0.0030
3948.00,0.0030
3947.00,0.0030
3946.00,0.0030
3945.00,0.0030
3944.00,0.0030
3943.00,0.0030
3942.00,0.0030
3941.00,0.0030
3940.00,0.0029
3939.00,0.0029
3938.00,0.0029
3937.00,0.0029
3936.00,0.0030
3935.00,0.0030
3934.00,0.0030
3933.00,0.0030
3932.00,0.0030
3931.00,0.0030
3930.00,0.0030
3929.00,0.0030
3928.00,0.0030
3927.00,0.0030
3926.00,0.0030
3925.00,0.0030
3924.00,0.0030
3923.00,0.0030
3922.00,0.0030
3921.00,0.0030
3920.00,0.0030
3919.00,0.0029
3918.00,0.0029
3917.00,0.0029
3916.00,0.0029
3915.00,0.0029
3914.00,0.0029
3913.00,0.0029
3912.00,0.0030
3911.00,0.0030
3910.00,0.0030
3909.00,0.0030
3908.00,0.0030
3907.00,0.0030
3906.00,0.0030
3905.00,0.0030
3904.00,0.0030
3903.00,0.0030
3902.00,0.0030
3901.00,0.0030
3900.00,0.0029
3899.00,0.0029
3898.00,0.0029
3897.00,0.0029
3896.00,0.0030
3895.00,0.0030
3894.00,0.0030
3893.00,0.0030
3892.00,0.0030
3891.00,0.0030
3890.00,0.0030
3889.00,0.0030
3888.00,0.0030
3887.00,0.0030
3886.00,0.0030
3885.00,0.0030
3884.00,0.0030
3883.00,0.0030
3882.00,0.0030
3881.00,0.0029
3880.00,0.0029
3879.00,0.0030
3878.00,0.0030
3877.00,0.0030
3876.00,0.0030
3875.00,0.0030
3874.00,0.0030
3873.00,0.0030
3872.00,0.0030
3871.00,0.0030
3870.00,0.0030
3869.00,0.0031
3868.00,0.0031
3867.00,0.0031
3866.00,0.0030
3865.00,0.0030
3864.00,0.0030
3863.00,0.0030
3862.00,0.0030
3861.00,0.0030
3860.00,0.0030
3859.00,0.0030
3858.00,0.0030
3857.00,0.0030
3856.00,0.0031
3855.00,0.0031
3854.00,0.0030
3853.00,0.0030
3852.00,0.0030
3851.00,0.0031
3850.00,0.0030
3849.00,0.0030
3848.00,0.0030
3847.00,0.0030
3846.00,0.0030
3845.00,0.0030
3844.00,0.0030
3843.00,0.0030
3842.00,0.0030
3841.00,0.0030
3840.00,0.0030
3839.00,0.0030
3838.00,0.0030
3837.00,0.0030
3836.00,0.0030
3835.00,0.0030
3834.00,0.0030
3833.00,0.0030
3832.00,0.0030
3831.00,0.0030
3830.00,0.0030
3829.00,0.0030
3828.00,0.0030
3827.00,0.0030
3826.00,0.0031
3825.00,0.0031
3824.00,0.0031
3823.00,0.0031
3822.00,0.0030
3821.00,0.0030
3820.00,0.0031
3819.00,0.0031
3818.00,0.0030
3817.00,0.0030
3816.00,0.0030
3815.00,0.0030
3814.00,0.0031
3813.00,0.0031
3812.00,0.0030
3811.00,0.0030
3810.00,0.0030
3809.00,0.0030
3808.00,0.0030
3807.00,0.0030
3806.00,0.0030
3805.00,0.0030
3804.00,0.0031
3803.00,0.0030
3802.00,0.0030
3801.00,0.0030
3800.00,0.0031
3799.00,0.0031
3798.00,0.0030
3797.00,0.0030
3796.00,0.0030
3795.00,0.0030
3794.00,0.0030
3793.00,0.0030
3792.00,0.0030
3791.00,0.0030
3790.00,0.0030
3789.00,0.0030
3788.00,0.0030
3787.00,0.0030
3786.00,0.0030
3785.00,0.0030
3784.00,0.0030
3783.00,0.0030
3782.00,0.0030
3781.00,0.0030
3780.00,0.0030
3779.00,0.0030
3778.00,0.0030
3777.00,0.0030
3776.00,0.0030
3775.00,0.0030
3774.00,0.0030
3773.00,0.0031
3772.00,0.0031
3771.00,0.0030
3770.00,0.0030
3769.00,0.0030
3768.00,0.0030
3767.00,0.0030
3766.00,0.0030
3765.00,0.0030
3764.00,0.0030
3763.00,0.0030
3762.00,0.0031
3761.00,0.0031
3760.00,0.0031
3759.00,0.0031
3758.00,0.0031
3757.00,0.0031
3756.00,0.0031
3755.00,0.0031
3754.00,0.0031
3753.00,0.0031
3752.00,0.0030
3751.00,0.0030
3750.00,0.0030
3749.00,0.0031
3748.00,0.0031
3747.00,0.0031
3746.00,0.0031
3745.00,0.0031
3744.00,0.0031
3743.00,0.0031
3742.00,0.0031
3741.00,0.0030
3740.00,0.0030
3739.00,0.0030
3738.00,0.0030
3737.00,0.0030
3736.00,0.0030
3735.00,0.0030
3734.00,0.0030
3733.00,0.0029
3732.00,0.0029
3731.00,0.0029
3730.00,0.0029
3729.00,0.0029
3728.00,0.0029
3727.00,0.0029
3726.00,0.0029
3725.00,0.0029
3724.00,0.0030
3723.00,0.0030
3722.00,0.0030
3721.00,0.0030
3720.00,0.0030
3719.00,0.0030
3718.00,0.0030
3717.00,0.0030
3716.00,0.0030
3715.00,0.0030
3714.00,0.0030
3713.00,0.0030
3712.00,0.0030
3711.00,0.0030
3710.00,0.0030
3709.00,0.0030
3708.00,0.0030
3707.00,0.0030
3706.00,0.0030
3705.00,0.0029
3704.00,0.0029
3703.00,0.0029
3702.00,0.0028
3701.00,0.0029
3700.00,0.0029
3699.00,0.0029
3698.00,0.0029
3697.00,0.0029
3696.00,0.0029
3695.00,0.0029
3694.00,0.0029
3693.00,0.0029
3692.00,0.0030
3691.00,0.0030
3690.00,0.0030
3689.00,0.0030
3688.00,0.0030
3687.00,0.0030
3686.00,0.0030
3685.00,0.0029
3684.00,0.0029
3683.00,0.0029
3682.00,0.0029
3681.00,0.0029
3680.00,0.0030
3679.00,0.0030
3678.00,0.0030
3677.00,0.0030
3676.00,0.0030
3675.00,0.0030
3674.00,0.0030
3673.00,0.0030
3672.00,0.0030
3671.00,0.0029
3670.00,0.0029
3669.00,0.0029
3668.00,0.0030
3667.00,0.0029
3666.00,0.0029
3665.00,0.0029
3664.00,0.0030
3663.00,0.0030
3662.00,0.0030
3661.00,0.0031
3660.00,0.0031
3659.00,0.0031
3658.00,0.0030
3657.00,0.0030
3656.00,0.0030
3655.00,0.0031
3654.00,0.0031
3653.00,0.0031
3652.00,0.0031
3651.00,0.0031
3650.00,0.0032
3649.00,0.0032
3648.00,0.0032
3647.00,0.0032
3646.00,0.0031
3645.00,0.0031
3644.00,0.0031
3643.00,0.0031
3642.00,0.0031
3641.00,0.0031
3640.00,0.0031
3639.00,0.0031
3638.00,0.0031
3637.00,0.0031
3636.00,0.0032
3635.00,0.0032
3634.00,0.0032
3633.00,0.0032
3632.00,0.0033
3631.00,0.0033
3630.00,0.0033
3629.00,0.0033
3628.00,0.0032
3627.00,0.0032
3626.00,0.0032
3625.00,0.0031
3624.00,0.0031
3623.00,0.0032
3622.00,0.0032
3621.00,0.0033
3620.00,0.0033
3619.00,0.0033
3618.00,0.0034
3617.00,0.0034
3616.00,0.0034
3615.00,0.0034
3614.00,0.0034
3613.00,0.0035
3612.00,0.0035
3611.00,0.0035
3610.00,0.0035
3609.00,0.0035
3608.00,0.0035
3607.00,0.0035
3606.00,0.0035
3605.00,0.0035
3604.00,0.0035
3603.00,0.0035
3602.00,0.0035
3601.00,0.0035
3600.00,0.0036
3599.00,0.0036
3598.00,0.0036
3597.00,0.0036
3596.00,0.0036
3595.00,0.0036
3594.00,0.0036
3593.00,0.0036
3592.00,0.0037
3591.00,0.0037
3590.00,0.0037
3589.00,0.0038
3588.00,0.0038
3587.00,0.0038
3586.00,0.0038
3585.00,0.0038
3584.00,0.0038
3583.00,0.0038
3582.00,0.0038
3581.00,0.0039
3580.00,0.0039
3579.00,0.0039
3578.00,0.0040
3577.00,0.0040
3576.00,0.0040
3575.00,0.0040
3574.00,0.0040
3573.00,0.0041
3572.00,0.0041
3571.00,0.0041
3570.00,0.0041
3569.00,0.0041
3568.00,0.0042
3567.00,0.0042
3566.00,0.0042
3565.00,0.0043
3564.00,0.0043
3563.00,0.0043
3562.00,0.0043
3561.00,0.0043
3560.00,0.0043
3559.00,0.0043
3558.00,0.0043
3557.00,0.0044
3556.00,0.0044
3555.00,0.0044
3554.00,0.0044
3553.00,0.0044
3552.00,0.0045
3551.00,0.0045
3550.00,0.0046
3549.00,0.0046
3548.00,0.0046
3547.00,0.0046
3546.00,0.0047
3545.00,0.0047
3544.00,0.0047
3543.00,0.0048
3542.00,0.0048
3541.00,0.0048
3540.00,0.0048
3539.00,0.0048
3538.00,0.0048
3537.00,0.0048
3536.00,0.0049
3535.00,0.0049
3534.00,0.0049
3533.00,0.0049
3532.00,0.0049
3531.00,0.0049
3530.00,0.0050
3529.00,0.0050
3528.00,0.0050
3527.00,0.0051
3526.00,0.0051
3525.00,0.0051
3524.00,0.0051
3523.00,0.0051
3522.00,0.0051
3521.00,0.0052
3520.00,0.0052
3519.00,0.0052
3518.00,0.0053
3517.00,0.0053
3516.00,0.0053
3515.00,0.0053
3514.00,0.0053
3513.00,0.0054
3512.00,0.0054
3511.00,0.0054
3510.00,0.0055
3509.00,0.0055
3508.00,0.0055
3507.00,0.0055
3506.00,0.0055
3505.00,0.0055
3504.00,0.0055
3503.00,0.0055
3502.00,0.0056
3501.00,0.0056
3500.00,0.0056
3499.00,0.0056
3498.00,0.0057
3497.00,0.0057
3496.00,0.0058
3495.00,0.0058
3494.00,0.0058
3493.00,0.0059
3492.00,0.0059
3491.00,0.0059
3490.00,0.0059
3489.00,0.0059
3488.00,0.0059
3487.00,0.0060
3486.00,0.0060
3485.00,0.0060
3484.00,0.0061
3483.00,0.0061
3482.00,0.0061
3481.00,0.0061
3480.00,0.0062
3479.00,0.0062
3478.00,0.0062
3477.00,0.0062
3476.00,0.0062
3475.00,0.0063
3474.00,0.0063
3473.00,0.0063
3472.00,0.0063
3471.00,0.0064
3470.00,0.0064
3469.00,0.0064
3468.00,0.0064
3467.00,0.0064
3466.00,0.0064
3465.00,0.0064
3464.00,0.0064
3463.00,0.0065
3462.00,0.0065
3461.00,0.0066
3460.00,0.0066
3459.00,0.0066
3458.00,0.0067
3457.00,0.0067
3456.00,0.0067
3455.00,0.0067
3454.00,0.0067
3453.00,0.0067
3452.00,0.0067
3451.00,0.0068
3450.00,0.0068
3449.00,0.0068
3448.00,0.0068
3447.00,0.0068
3446.00,0.0069
3445.00,0.0069
3444.00,0.0069
3443.00,0.0069
3442.00,0.0069
3441.00,0.0069
3440.00,0.0069
3439.00,0.0069
3438.00,0.0069
3437.00,0.0069
3436.00,0.0069
3435.00,0.0070
3434.00,0.0070
3433.00,0.0070
3432.00,0.0070
3431.00,0.0070
3430.00,0.0070
3429.00,0.0070
3428.00,0.0071
3427.00,0.0071
3426.00,0.0071
3425.00,0.0071
3424.00,0.0072
3423.00,0.0072
3422.00,0.0072
3421.00,0.0072
3420.00,0.0072
3419.00,0.0073
3418.00,0.0073
3417.00,0.0073
3416.00,0.0073
3415.00,0.0073
3414.00,0.0073
3413.00,0.0073
3412.00,0.0073
3411.00,0.0073
3410.00,0.0073
3409.00,0.0073
3408.00,0.0074
3407.00,0.0074
3406.00,0.0074
3405.00,0.0074
3404.00,0.0074
3403.00,0.0074
3402.00,0.0074
3401.00,0.0075
3400.00,0.0075
3399.00,0.0076
3398.00,0.0076
3397.00,0.0076
3396.00,0.0076
3395.00,0.0076
3394.00,0.0076
3393.00,0.0076
3392.00,0.0076
3391.00,0.0076
3390.00,0.0076
3389.00,0.0076
3388.00,0.0077
3387.00,0.0077
3386.00,0.0078
3385.00,0.0078
3384.00,0.0078
3383.00,0.0078
3382.00,0.0078
3381.00,0.0078
3380.00,0.0079
3379.00,0.0079
3378.00,0.0079
3377.00,0.0079
3376.00,0.0079
3375.00,0.0080
3374.00,0.0080
3373.00,0.0080
3372.00,0.0079
3371.00,0.0079
3370.00,0.0079
3369.00,0.0079
3368.00,0.0079
3367.00,0.0080
3366.00,0.0080
3365.00,0.0081
3364.00,0.0081
3363.00,0.0081
3362.00,0.0081
3361.00,0.0082
3360.00,0.0082
3359.00,0.0082
3358.00,0.0083
3357.00,0.0083
3356.00,0.0083
3355.00,0.0083
3354.00,0.0083
3353.00,0.0083
3352.00,0.0082
3351.00,0.0082
3350.00,0.0083
3349.00,0.0083
3348.00,0.0084
3347.00,0.0084
3346.00,0.0084
3345.00,0.0084
3344.00,0.0083
3343.00,0.0083
3342.00,0.0083
3341.00,0.0084
3340.00,0.0083
3339.00,0.0083
3338.00,0.0084
3337.00,0.0084
3336.00,0.0085
3335.00,0.0085
3334.00,0.0085
3333.00,0.0086
3332.00,0.0086
3331.00,0.0086
3330.00,0.0086
3329.00,0.0086
3328.00,0.0086
3327.00,0.0086
3326.00,0.0086
3325.00,0.0086
3324.00,0.0086
3323.00,0.0086
3322.00,0.0086
3321.00,0.0087
3320.00,0.0087
3319.00,0.0087
3318.00,0.0088
3317.00,0.0088
3316.00,0.0088
3315.00,0.0088
3314.00,0.0088
3313.00,0.0088
3312.00,0.0087
3311.00,0.0086
3310.00,0.0086
3309.00,0.0086
3308.00,0.0085
3307.00,0.0085
3306.00,0.0086
3305.00,0.0086
3304.00,0.0087
3303.00,0.0088
3302.00,0.0088
3301.00,0.0089
3300.00,0.0089
3299.00,0.0089
3298.00,0.0088
3297.00,0.0088
3296.00,0.0088
3295.00,0.0088
3294.00,0.0088
3293.00,0.0088
3292.00,0.0088
3291.00,0.0089
3290.00,0.0089
3289.00,0.0090
3288.00,0.0090
3287.00,0.0090
3286.00,0.0090
3285.00,0.0090
3284.00,0.0090
3283.00,0.0090
3282.00,0.0090
3281.00,0.0090
3280.00,0.0090
3279.00,0.0090
3278.00,0.0090
3277.00,0.0090
3276.00,0.0090
3275.00,0.0090
3274.00,0.0090
3273.00,0.0089
3272.00,0.0089
3271.00,0.0090
3270.00,0.0090
3269.00,0.0090
3268.00,0.0091
3267.00,0.0091
3266.00,0.0091
3265.00,0.0091
3264.00,0.0091
3263.00,0.0091
3262.00,0.0091
3261.00,0.0091
3260.00,0.0091
3259.00,0.0091
3258.00,0.0091
3257.00,0.0091
3256.00,0.0091
3255.00,0.0091
3254.00,0.0091
3253.00,0.0091
3252.00,0.0091
3251.00,0.0091
3250.00,0.0091
3249.00,0.0091
3248.00,0.0091
3247.00,0.0091
3246.00,0.0091
3245.00,0.0091
3244.00,0.0091
3243.00,0.0092
3242.00,0.0092
3241.00,0.0092
3240.00,0.0092
3239.00,0.0092
3238.00,0.0092
3237.00,0.0092
3236.00,0.0091
3235.00,0.0091
3234.00,0.0091
3233.00,0.0091
3232.00,0.0091
3231.00,0.0091
3230.00,0.0092
3229.00,0.0092
3228.00,0.0092
3227.00,0.0091
3226.00,0.0091
3225.00,0.0091
3224.00,0.0091
3223.00,0.0091
3222.00,0.0091
3221.00,0.0091
3220.00,0.0091
3219.00,0.0091
3218.00,0.0091
3217.00,0.0091
3216.00,0.0091
3215.00,0.0091
3214.00,0.0091
3213.00,0.0091
3212.00,0.0091
3211.00,0.0091
3210.00,0.0091
3209.00,0.0091
3208.00,0.0091
3207.00,0.0091
3206.00,0.0091
3205.00,0.0091
3204.00,0.0090
3203.00,0.0090
3202.00,0.0090
3201.00,0.0090
3200.00,0.0090
3199.00,0.0090
3198.00,0.0090
3197.00,0.0090
3196.00,0.0090
3195.00,0.0090
3194.00,0.0090
3193.00,0.0090
3192.00,0.0090
3191.00,0.0090
3190.00,0.0090
3189.00,0.0090
3188.00,0.0090
3187.00,0.0090
3186.00,0.0090
3185.00,0.0090
3184.00,0.0090
3183.00,0.0090
3182.00,0.0090
3181.00,0.0090
3180.00,0.0090
3179.00,0.0090
3178.00,0.0090
3177.00,0.0090
3176.00,0.0090
3175.00,0.0090
3174.00,0.0090
3173.00,0.0090
3172.00,0.0090
3171.00,0.0090
3170.00,0.0090
3169.00,0.0089
3168.00,0.0089
3167.00,0.0089
3166.00,0.0089
3165.00,0.0089
3164.00,0.0089
3163.00,0.0088
3162.00,0.0088
3161.00,0.0088
3160.00,0.0088
3159.00,0.0088
3158.00,0.0088
3157.00,0.0088
3156.00,0.0087
3155.00,0.0087
3154.00,0.0087
3153.00,0.0087
3152.00,0.0087
3151.00,0.0087
3150.00,0.0087
3149.00,0.0087
3148.00,0.0087
3147.00,0.0087
3146.00,0.0086
3145.00,0.0086
3144.00,0.0086
3143.00,0.0086
3142.00,0.0086
3141.00,0.0086
3140.00,0.0086
3139.00,0.0085
3138.00,0.0085
3137.00,0.0085
3136.00,0.0085
3135.00,0.0085
3134.00,0.0085
3133.00,0.0085
3132.00,0.0085
3131.00,0.0085
3130.00,0.0085
3129.00,0.0085
3128.00,0.0085
3127.00,0.0085
3126.00,0.0085
3125.00,0.0085
3124.00,0.0085
3123.00,0.0085
3122.00,0.0084
3121.00,0.0084
3120.00,0.0084
3119.00,0.0084
3118.00,0.0084
3117.00,0.0083
3116.00,0.0083
3115.00,0.0083
3114.00,0.0083
3113.00,0.0083
3112.00,0.0083
3111.00,0.0083
3110.00,0.0083
3109.00,0.0083
3108.00,0.0082
3107.00,0.0082
3106.00,0.0082
3105.00,0.0082
3104.00,0.0082
3103.00,0.0082
3102.00,0.0082
3101.00,0.0082
3100.00,0.0081
3099.00,0.0081
3098.00,0.0081
3097.00,0.0081
3096.00,0.0081
3095.00,0.0081
3094.00,0.0081
3093.00,0.0081
3092.00,0.0081
3091.00,0.0081
3090.00,0.0081
3089.00,0.0081
3088.00,0.0081
3087.00,0.0081
3086.00,0.0081
3085.00,0.0081
3084.00,0.0081
3083.00,0.0081
3082.00,0.0081
3081.00,0.0081
3080.00,0.0081
3079.00,0.0081
3078.00,0.0081
3077.00,0.0081
3076.00,0.0081
3075.00,0.0081
3074.00,0.0081
3073.00,0.0081
3072.00,0.0080
3071.00,0.0080
3070.00,0.0080
3069.00,0.0080
3068.00,0.0080
3067.00,0.0080
3066.00,0.0079
3065.00,0.0079
3064.00,0.0079
3063.00,0.0079
3062.00,0.0079
3061.00,0.0079
3060.00,0.0078
3059.00,0.0078
3058.00,0.0078
3057.00,0.0078
3056.00,0.0078
3055.00,0.0077
3054.00,0.0077
3053.00,0.0077
3052.00,0.0077
3051.00,0.0077
3050.00,0.0077
3049.00,0.0077
3048.00,0.0077
3047.00,0.0077
3046.00,0.0077
3045.00,0.0077
3044.00,0.0077
3043.00,0.0077
3042.00,0.0076
3041.00,0.0076
3040.00,0.0076
3039.00,0.0076
3038.00,0.0076
3037.00,0.0076
3036.00,0.0076
3035.00,0.0075
3034.00,0.0075
3033.00,0.0075
3032.00,0.0075
3031.00,0.0075
3030.00,0.0075
3029.00,0.0075
3028.00,0.0075
3027.00,0.0075
3026.00,0.0075
3025.00,0.0075
3024.00,0.0074
3023.00,0.0074
3022.00,0.0074
3021.00,0.0074
3020.00,0.0074
3019.00,0.0074
3018.00,0.0074
3017.00,0.0073
3016.00,0.0073
3015.00,0.0074
3014.00,0.0074
3013.00,0.0074
3012.00,0.0075
3011.00,0.0075
3010.00,0.0075
3009.00,0.0076
3008.00,0.0076
3007.00,0.0077
3006.00,0.0078
3005.00,0.0079
3004.00,0.0080
3003.00,0.0081
3002.00,0.0082
3001.00,0.0083
3000.00,0.0085
2999.00,0.0087
2998.00,0.0088
2997.00,0.0090
2996.00,0.0093
2995.00,0.0095
2994.00,0.0097
2993.00,0.0099
2992.00,0.0102
2991.00,0.0105
2990.00,0.0107
2989.00,0.0110
2988.00,0.0113
2987.00,0.0116
2986.00,0.0118
2985.00,0.0121
2984.00,0.0123
2983.00,0.0124
2982.00,0.0126
2981.00,0.0128
2980.00,0.0130
2979.00,0.0132
2978.00,0.0134
2977.00,0.0135
2976.00,0.0137
2975.00,0.0139
2974.00,0.0140
2973.00,0.0141
2972.00,0.0142
2971.00,0.0143
2970.00,0.0145
2969.00,0.0147
2968.00,0.0149
2967.00,0.0150
2966.00,0.0152
2965.00,0.0154
2964.00,0.0156
2963.00,0.0158
2962.00,0.0161
2961.00,0.0163
2960.00,0.0165
2959.00,0.0166
2958.00,0.0168
2957.00,0.0169
2956.00,0.0171
2955.00,0.0172
2954.00,0.0173
2953.00,0.0174
2952.00,0.0174
2951.00,0.0174
2950.00,0.0173
2949.00,0.0173
2948.00,0.0173
2947.00,0.0172
2946.00,0.0172
2945.00,0.0172
2944.00,0.0172
2943.00,0.0173
2942.00,0.0174
2941.00,0.0175
2940.00,0.0177
2939.00,0.0178
2938.00,0.0179
2937.00,0.0181
2936.00,0.0183
2935.00,0.0184
2934.00,0.0186
2933.00,0.0188
2932.00,0.0190
2931.00,0.0192
2930.00,0.0194
2929.00,0.0195
2928.00,0.0196
2927.00,0.0197
2926.00,0.0198
2925.00,0.0199
2924.00,0.0199
2923.00,0.0198
2922.00,0.0198
2921.00,0.0196
2920.00,0.0195
2919.00,0.0193
2918.00,0.0191
2917.00,0.0189
2916.00,0.0187
2915.00,0.0184
2914.00,0.0182
2913.00,0.0179
2912.00,0.0176
2911.00,0.0173
2910.00,0.0170
2909.00,0.0168
2908.00,0.0165
2907.00,0.0163
2906.00,0.0161
2905.00,0.0159
2904.00,0.0157
2903.00,0.0156
2902.00,0.0154
2901.00,0.0153
2900.00,0.0152
2899.00,0.0151
2898.00,0.0150
2897.00,0.0150
2896.00,0.0149
2895.00,0.0149
2894.00,0.0148
2893.00,0.0148
2892.00,0.0147
2891.00,0.0147
2890.00,0.0147
2889.00,0.0146
2888.00,0.0146
2887.00,0.0146
2886.00,0.0145
2885.00,0.0145
2884.00,0.0145
2883.00,0.0145
2882.00,0.0145
2881.00,0.0145
2880.00,0.0145
2879.00,0.0146
2878.00,0.0147
2877.00,0.0148
2876.00,0.0149
2875.00,0.0150
2874.00,0.0151
2873.00,0.0152
2872.00,0.0152
2871.00,0.0153
2870.00,0.0153
2869.00,0.0153
2868.00,0.0152
2867.00,0.0152
2866.00,0.0152
2865.00,0.0152
2864.00,0.0152
2863.00,0.0153
2862.00,0.0153
2861.00,0.0154
2860.00,0.0154
2859.00,0.0155
2858.00,0.0155
2857.00,0.0155
2856.00,0.0154
2855.00,0.0152
2854.00,0.0151
2853.00,0.0149
2852.00,0.0146
2851.00,0.0143
2850.00,0.0140
2849.00,0.0137
2848.00,0.0133
2847.00,0.0130
2846.00,0.0127
2845.00,0.0124
2844.00,0.0121
2843.00,0.0119
2842.00,0.0116
2841.00,0.0113
2840.00,0.0110
2839.00,0.0108
2838.00,0.0107
2837.00,0.0105
2836.00,0.0104
2835.00,0.0103
2834.00,0.0102
2833.00,0.0101
2832.00,0.0100
2831.00,0.0099
2830.00,0.0098
2829.00,0.0097
2828.00,0.0096
2827.00,0.0095
2826.00,0.0094
2825.00,0.0093
2824.00,0.0093
2823.00,0.0092
2822.00,0.0091
2821.00,0.0090
2820.00,0.0089
2819.00,0.0089
2818.00,0.0088
2817.00,0.0087
2816.00,0.0086
2815.00,0.0085
2814.00,0.0084
2813.00,0.0083
2812.00,0.0083
2811.00,0.0082
2810.00,0.0081
2809.00,0.0080
2808.00,0.0080
2807.00,0.0079
2806.00,0.0078
2805.00,0.0077
2804.00,0.0077
2803.00,0.0076
2802.00,0.0075
2801.00,0.0075
2800.00,0.0074
2799.00,0.0073
2798.00,0.0073
2797.00,0.0073
2796.00,0.0073
2795.00,0.0073
2794.00,0.0072
2793.00,0.0072
2792.00,0.0071
2791.00,0.0071
2790.00,0.0070
2789.00,0.0070
2788.00,0.0070
2787.00,0.0069
2786.00,0.0069
2785.00,0.0069
2784.00,0.0069
2783.00,0.0068
2782.00,0.0068
2781.00,0.0068
2780.00,0.0067
2779.00,0.0067
2778.00,0.0067
2777.00,0.0067
2776.00,0.0066
2775.00,0.0066
2774.00,0.0066
2773.00,0.0066
2772.00,0.0066
2771.00,0.0065
2770.00,0.0065
2769.00,0.0065
2768.00,0.0065
2767.00,0.0065
2766.00,0.0065
2765.00,0.0065
2764.00,0.0064
2763.00,0.0064
2762.00,0.0064
2761.00,0.0064
2760.00,0.0064
2759.00,0.0064
2758.00,0.0064
2757.00,0.0064
2756.00,0.0064
2755.00,0.0064
2754.00,0.0063
2753.00,0.0063
2752.00,0.0063
2751.00,0.0063
2750.00,0.0063
2749.00,0.0064
2748.00,0.0064
2747.00,0.0064
2746.00,0.0064
2745.00,0.0064
2744.00,0.0064
2743.00,0.0064
2742.00,0.0064
2741.00,0.0064
2740.00,0.0064
2739.00,0.0064
2738.00,0.0064
2737.00,0.0064
2736.00,0.0064
2735.00,0.0064
2734.00,0.0064
2733.00,0.0064
2732.00,0.0064
2731.00,0.0064
2730.00,0.0064
2729.00,0.0063
2728.00,0.0063
2727.00,0.0063
2726.00,0.0063
2725.00,0.0063
2724.00,0.0063
2723.00,0.0063
2722.00,0.0063
2721.00,0.0063
2720.00,0.0063
2719.00,0.0063
2718.00,0.0063
2717.00,0.0063
2716.00,0.0062
2715.00,0.0062
2714.00,0.0062
2713.00,0.0062
2712.00,0.0062
2711.00,0.0062
2710.00,0.0062
2709.00,0.0062
2708.00,0.0062
2707.00,0.0061
2706.00,0.0061
2705.00,0.0061
2704.00,0.0061
2703.00,0.0061
2702.00,0.0061
2701.00,0.0061
2700.00,0.0061
2699.00,0.0060
2698.00,0.0060
2697.00,0.0060
2696.00,0.0060
2695.00,0.0060
2694.00,0.0060
2693.00,0.0060
2692.00,0.0060
2691.00,0.0060
2690.00,0.0060
2689.00,0.0059
2688.00,0.0059
2687.00,0.0059
2686.00,0.0059
2685.00,0.0059
2684.00,0.0059
2683.00,0.0059
2682.00,0.0059
2681.00,0.0058
2680.00,0.0058
2679.00,0.0059
2678.00,0.0058
2677.00,0.0058
2676.00,0.0058
2675.00,0.0058
2674.00,0.0058
2673.00,0.0058
2672.00,0.0058
2671.00,0.0058
2670.00,0.0058
2669.00,0.0058
2668.00,0.0058
2667.00,0.0059
2666.00,0.0059
2665.00,0.0059
2664.00,0.0059
2663.00,0.0059
2662.00,0.0060
2661.00,0.0060
2660.00,0.0060
2659.00,0.0060
2658.00,0.0060
2657.00,0.0060
2656.00,0.0060
2655.00,0.0060
2654.00,0.0060
2653.00,0.0060
2652.00,0.0061
2651.00,0.0061
2650.00,0.0061
2649.00,0.0060
2648.00,0.0060
2647.00,0.0060
2646.00,0.0060
2645.00,0.0060
2644.00,0.0060
2643.00,0.0059
2642.00,0.0059
2641.00,0.0059
2640.00,0.0059
2639.00,0.0058
2638.00,0.0058
2637.00,0.0058
2636.00,0.0058
2635.00,0.0058
2634.00,0.0058
2633.00,0.0058
2632.00,0.0058
2631.00,0.0058
2630.00,0.0058
2629.00,0.0058
2628.00,0.0058
2627.00,0.0058
2626.00,0.0058
2625.00,0.0058
2624.00,0.0057
2623.00,0.0057
2622.00,0.0057
2621.00,0.0057
2620.00,0.0057
2619.00,0.0057
2618.00,0.0057
2617.00,0.0057
2616.00,0.0057
2615.00,0.0057
2614.00,0.0057
2613.00,0.0057
2612.00,0.0057
2611.00,0.0056
2610.00,0.0056
2609.00,0.0056
2608.00,0.0056
2607.00,0.0056
2606.00,0.0056
2605.00,0.0056
2604.00,0.0055
2603.00,0.0055
2602.00,0.0055
2601.00,0.0055
2600.00,0.0056
2599.00,0.0055
2598.00,0.0055
2597.00,0.0055
2596.00,0.0055
2595.00,0.0055
2594.00,0.0055
2593.00,0.0055
2592.00,0.0055
2591.00,0.0055
2590.00,0.0055
2589.00,0.0055
2588.00,0.0055
2587.00,0.0055
2586.00,0.0055
2585.00,0.0055
2584.00,0.0055
2583.00,0.0055
2582.00,0.0055
2581.00,0.0054
2580.00,0.0054
2579.00,0.0054
2578.00,0.0054
2577.00,0.0053
2576.00,0.0054
2575.00,0.0054
2574.00,0.0054
2573.00,0.0054
2572.00,0.0054
2571.00,0.0054
2570.00,0.0054
2569.00,0.0054
2568.00,0.0054
2567.00,0.0054
2566.00,0.0054
2565.00,0.0053
2564.00,0.0053
2563.00,0.0053
2562.00,0.0053
2561.00,0.0053
2560.00,0.0053
2559.00,0.0053
2558.00,0.0053
2557.00,0.0053
2556.00,0.0053
2555.00,0.0053
2554.00,0.0053
2553.00,0.0053
2552.00,0.0052
2551.00,0.0052
2550.00,0.0052
2549.00,0.0052
2548.00,0.0052
2547.00,0.0052
2546.00,0.0051
2545.00,0.0051
2544.00,0.0051
2543.00,0.0051
2542.00,0.0051
2541.00,0.0051
2540.00,0.0051
2539.00,0.0051
2538.00,0.0051
2537.00,0.0051
2536.00,0.0051
2535.00,0.0051
2534.00,0.0050
2533.00,0.0050
2532.00,0.0050
2531.00,0.0050
2530.00,0.0050
2529.00,0.0050
2528.00,0.0050
2527.00,0.0050
2526.00,0.0049
2525.00,0.0049
2524.00,0.0049
2523.00,0.0049
2522.00,0.0049
2521.00,0.0049
2520.00,0.0048
2519.00,0.0048
2518.00,0.0048
2517.00,0.0048
2516.00,0.0048
2515.00,0.0048
2514.00,0.0048
2513.00,0.0048
2512.00,0.0048
2511.00,0.0048
2510.00,0.0047
2509.00,0.0047
2508.00,0.0047
2507.00,0.0047
2506.00,0.0047
2505.00,0.0047
2504.00,0.0047
2503.00,0.0047
2502.00,0.0047
2501.00,0.0047
2500.00,0.0047
2499.00,0.0047
2498.00,0.0047
2497.00,0.0047
2496.00,0.0047
2495.00,0.0047
2494.00,0.0047
2493.00,0.0047
2492.00,0.0047
2491.00,0.0047
2490.00,0.0046
2489.00,0.0046
2488.00,0.0046
2487.00,0.0046
2486.00,0.0046
2485.00,0.0046
2484.00,0.0046
2483.00,0.0046
2482.00,0.0046
2481.00,0.0045
2480.00,0.0045
2479.00,0.0045
2478.00,0.0045
2477.00,0.0045
2476.00,0.0045
2475.00,0.0045
2474.00,0.0045
2473.00,0.0045
2472.00,0.0046
2471.00,0.0046
2470.00,0.0046
2469.00,0.0047
2468.00,0.0047
2467.00,0.0047
2466.00,0.0047
2465.00,0.0046
2464.00,0.0046
2463.00,0.0046
2462.00,0.0046
2461.00,0.0045
2460.00,0.0046
2459.00,0.0046
2458.00,0.0046
2457.00,0.0046
2456.00,0.0046
2455.00,0.0046
2454.00,0.0046
2453.00,0.0046
2452.00,0.0046
2451.00,0.0046
2450.00,0.0045
2449.00,0.0045
2448.00,0.0045
2447.00,0.0045
2446.00,0.0045
2445.00,0.0045
2444.00,0.0045
2443.00,0.0045
2442.00,0.0045
2441.00,0.0045
2440.00,0.0045
2439.00,0.0045
2438.00,0.0045
2437.00,0.0045
2436.00,0.0045
2435.00,0.0044
2434.00,0.0044
2433.00,0.0044
2432.00,0.0044
2431.00,0.0044
2430.00,0.0044
2429.00,0.0045
2428.00,0.0045
2427.00,0.0045
2426.00,0.0045
2425.00,0.0044
2424.00,0.0044
2423.00,0.0044
2422.00,0.0044
2421.00,0.0043
2420.00,0.0043
2419.00,0.0044
2418.00,0.0044
2417.00,0.0044
2416.00,0.0044
2415.00,0.0043
2414.00,0.0043
2413.00,0.0043
2412.00,0.0043
2411.00,0.0043
2410.00,0.0043
2409.00,0.0043
2408.00,0.0042
2407.00,0.0042
2406.00,0.0042
2405.00,0.0042
2404.00,0.0042
2403.00,0.0042
2402.00,0.0042
2401.00,0.0042
2400.00,0.0042
2399.00,0.0042
2398.00,0.0042
2397.00,0.0041
2396.00,0.0041
2395.00,0.0041
2394.00,0.0041
2393.00,0.0041
2392.00,0.0041
2391.00,0.0041
2390.00,0.0041
2389.00,0.0041
2388.00,0.0041
2387.00,0.0040
2386.00,0.0040
2385.00,0.0039
2384.00,0.0039
2383.00,0.0039
2382.00,0.0038
2381.00,0.0038
2380.00,0.0037
2379.00,0.0037
2378.00,0.0037
2377.00,0.0037
2376.00,0.0037
2375.00,0.0038
2374.00,0.0038
2373.00,0.0038
2372.00,0.0038
2371.00,0.0037
2370.00,0.0037
2369.00,0.0037
2368.00,0.0037
2367.00,0.0037
2366.00,0.0037
2365.00,0.0037
2364.00,0.0037
2363.00,0.0037
2362.00,0.0037
2361.00,0.0037
2360.00,0.0037
2359.00,0.0037
2358.00,0.0038
2357.00,0.0038
2356.00,0.0038
2355.00,0.0038
2354.00,0.0038
2353.00,0.0038
2352.00,0.0038
2351.00,0.0038
2350.00,0.0038
2349.00,0.0038
2348.00,0.0039
2347.00,0.0039
2346.00,0.0040
2345.00,0.0040
2344.00,0.0040
2343.00,0.0040
2342.00,0.0039
2341.00,0.0040
2340.00,0.0040
2339.00,0.0040
2338.00,0.0041
2337.00,0.0041
2336.00,0.0041
2335.00,0.0041
2334.00,0.0041
2333.00,0.0041
2332.00,0.0041
2331.00,0.0041
2330.00,0.0041
2329.00,0.0042
2328.00,0.0044
2327.00,0.0047
2326.00,0.0049
2325.00,0.0050
2324.00,0.0050
2323.00,0.0048
2322.00,0.0047
2321.00,0.0046
2320.00,0.0045
2319.00,0.0044
2318.00,0.0044
2317.00,0.0044
2316.00,0.0044
2315.00,0.0044
2314.00,0.0043
2313.00,0.0042
2312.00,0.0042
2311.00,0.0041
2310.00,0.0041
2309.00,0.0040
2308.00,0.0041
2307.00,0.0041
2306.00,0.0042
2305.00,0.0042
2304.00,0.0042
2303.00,0.0042
2302.00,0.0042
2301.00,0.0042
2300.00,0.0043
2299.00,0.0043
2298.00,0.0044
2297.00,0.0045
2296.00,0.0046
2295.00,0.0047
2294.00,0.0048
2293.00,0.0049
2292.00,0.0049
2291.00,0.0049
2290.00,0.0049
2289.00,0.0050
2288.00,0.0050
2287.00,0.0050
2286.00,0.0049
2285.00,0.0049
2284.00,0.0049
2283.00,0.0048
2282.00,0.0048
2281.00,0.0048
2280.00,0.0048
2279.00,0.0048
2278.00,0.0048
2277.00,0.0047
2276.00,0.0047
2275.00,0.0046
2274.00,0.0046
2273.00,0.0045
2272.00,0.0045
2271.00,0.0045
2270.00,0.0045
2269.00,0.0045
2268.00,0.0045
2267.00,0.0045
2266.00,0.0044
2265.00,0.0044
2264.00,0.0044
2263.00,0.0044
2262.00,0.0044
2261.00,0.0044
2260.00,0.0045
2259.00,0.0046
2258.00,0.0046
2257.00,0.0045
2256.00,0.0044
2255.00,0.0043
2254.00,0.0042
2253.00,0.0042
2252.00,0.0043
2251.00,0.0043
2250.00,0.0043
2249.00,0.0043
2248.00,0.0043
2247.00,0.0043
2246.00,0.0043
2245.00,0.0043
2244.00,0.0043
2243.00,0.0043
2242.00,0.0043
2241.00,0.0043
2240.00,0.0044
2239.00,0.0044
2238.00,0.0043
2237.00,0.0043
2236.00,0.0043
2235.00,0.0044
2234.00,0.0044
2233.00,0.0043
2232.00,0.0043
2231.00,0.0043
2230.00,0.0043
2229.00,0.0043
2228.00,0.0043
2227.00,0.0043
2226.00,0.0043
2225.00,0.0043
2224.00,0.0043
2223.00,0.0043
2222.00,0.0042
2221.00,0.0041
2220.00,0.0041
2219.00,0.0041
2218.00,0.0041
2217.00,0.0042
2216.00,0.0042
2215.00,0.0042
2214.00,0.0043
2213.00,0.0043
2212.00,0.0044
2211.00,0.0044
2210.00,0.0045
2209.00,0.0045
2208.00,0.0045
2207.00,0.0044
2206.00,0.0044
2205.00,0.0044
2204.00,0.0043
2203.00,0.0043
2202.00,0.0042
2201.00,0.0042
2200.00,0.0042
2199.00,0.0043
2198.00,0.0043
2197.00,0.0043
2196.00,0.0043
2195.00,0.0044
2194.00,0.0045
2193.00,0.0045
2192.00,0.0045
2191.00,0.0046
2190.00,0.0047
2189.00,0.0047
2188.00,0.0047
2187.00,0.0046
2186.00,0.0045
2185.00,0.0043
2184.00,0.0041
2183.00,0.0039
2182.00,0.0038
2181.00,0.0038
2180.00,0.0040
2179.00,0.0041
2178.00,0.0041
2177.00,0.0040
2176.00,0.0039
2175.00,0.0039
2174.00,0.0040
2173.00,0.0042
2172.00,0.0044
2171.00,0.0046
2170.00,0.0047
2169.00,0.0048
2168.00,0.0049
2167.00,0.0049
2166.00,0.0049
2165.00,0.0050
2164.00,0.0051
2163.00,0.0052
2162.00,0.0049
2161.00,0.0044
2160.00,0.0037
2159.00,0.0029
2158.00,0.0024
2157.00,0.0021
2156.00,0.0021
2155.00,0.0023
2154.00,0.0024
2153.00,0.0026
2152.00,0.0028
2151.00,0.0029
2150.00,0.0029
2149.00,0.0029
2148.00,0.0028
2147.00,0.0028
2146.00,0.0027
2145.00,0.0028
2144.00,0.0029
2143.00,0.0030
2142.00,0.0031
2141.00,0.0031
2140.00,0.0031
2139.00,0.0031
2138.00,0.0030
2137.00,0.0029
2136.00,0.0028
2135.00,0.0026
2134.00,0.0026
2133.00,0.0026
2132.00,0.0027
2131.00,0.0028
2130.00,0.0029
2129.00,0.0030
2128.00,0.0032
2127.00,0.0033
2126.00,0.0034
2125.00,0.0034
2124.00,0.0034
2123.00,0.0034
2122.00,0.0033
2121.00,0.0034
2120.00,0.0035
2119.00,0.0036
2118.00,0.0036
2117.00,0.0037
2116.00,0.0038
2115.00,0.0039
2114.00,0.0039
2113.00,0.0039
2112.00,0.0039
2111.00,0.0039
2110.00,0.0038
2109.00,0.0038
2108.00,0.0039
2107.00,0.0039
2106.00,0.0040
2105.00,0.0040
2104.00,0.0041
2103.00,0.0040
2102.00,0.0040
2101.00,0.0039
2100.00,0.0038
2099.00,0.0037
2098.00,0.0036
2097.00,0.0036
2096.00,0.0035
2095.00,0.0036
2094.00,0.0036
2093.00,0.0037
2092.00,0.0038
2091.00,0.0039
2090.00,0.0039
2089.00,0.0040
2088.00,0.0040
2087.00,0.0040
2086.00,0.0040
2085.00,0.0041
2084.00,0.0040
2083.00,0.0040
2082.00,0.0040
2081.00,0.0040
2080.00,0.0040
2079.00,0.0041
2078.00,0.0041
2077.00,0.0041
2076.00,0.0040
2075.00,0.0040
2074.00,0.0039
2073.00,0.0039
2072.00,0.0039
2071.00,0.0038
2070.00,0.0038
2069.00,0.0038
2068.00,0.0038
2067.00,0.0038
2066.00,0.0039
2065.00,0.0039
2064.00,0.0039
2063.00,0.0039
2062.00,0.0038
2061.00,0.0037
2060.00,0.0037
2059.00,0.0038
2058.00,0.0039
2057.00,0.0039
2056.00,0.0039
2055.00,0.0040
2054.00,0.0042
2053.00,0.0044
2052.00,0.0047
2051.00,0.0047
2050.00,0.0045
2049.00,0.0042
2048.00,0.0040
2047.00,0.0039
2046.00,0.0039
2045.00,0.0039
2044.00,0.0039
2043.00,0.0039
2042.00,0.0039
2041.00,0.0039
2040.00,0.0040
2039.00,0.0040
2038.00,0.0041
2037.00,0.0040
2036.00,0.0040
2035.00,0.0039
2034.00,0.0037
2033.00,0.0036
2032.00,0.0035
2031.00,0.0035
2030.00,0.0035
2029.00,0.0034
2028.00,0.0034
2027.00,0.0033
2026.00,0.0032
2025.00,0.0031
2024.00,0.0031
2023.00,0.0030
2022.00,0.0029
2021.00,0.0029
2020.00,0.0030
2019.00,0.0031
2018.00,0.0033
2017.00,0.0034
2016.00,0.0036
2015.00,0.0036
2014.00,0.0034
2013.00,0.0032
2012.00,0.0030
2011.00,0.0030
2010.00,0.0030
2009.00,0.0032
2008.00,0.0032
2007.00,0.0032
2006.00,0.0031
2005.00,0.0031
2004.00,0.0031
2003.00,0.0031
2002.00,0.0030
2001.00,0.0030
2000.00,0.0030
1999.00,0.0031
1998.00,0.0032
1997.00,0.0034
1996.00,0.0035
1995.00,0.0034
1994.00,0.0034
1993.00,0.0033
1992.00,0.0034
1991.00,0.0035
1990.00,0.0036
1989.00,0.0036
1988.00,0.0037
1987.00,0.0038
1986.00,0.0038
1985.00,0.0038
1984.00,0.0039
1983.00,0.0041
1982.00,0.0043
1981.00,0.0046
1980.00,0.0047
1979.00,0.0044
1978.00,0.0039
1977.00,0.0035
1976.00,0.0032
1975.00,0.0031
1974.00,0.0031
1973.00,0.0031
1972.00,0.0031
1971.00,0.0031
1970.00,0.0030
1969.00,0.0030
1968.00,0.0029
1967.00,0.0028
1966.00,0.0027
1965.00,0.0027
1964.00,0.0027
1963.00,0.0027
1962.00,0.0026
1961.00,0.0025
1960.00,0.0026
1959.00,0.0027
1958.00,0.0028
1957.00,0.0029
1956.00,0.0030
1955.00,0.0030
1954.00,0.0030
1953.00,0.0031
1952.00,0.0031
1951.00,0.0031
1950.00,0.0031
1949.00,0.0031
1948.00,0.0031
1947.00,0.0032
1946.00,0.0032
1945.00,0.0032
1944.00,0.0032
1943.00,0.0032
1942.00,0.0032
1941.00,0.0032
1940.00,0.0033
1939.00,0.0033
1938.00,0.0032
1937.00,0.0032
1936.00,0.0031
1935.00,0.0031
1934.00,0.0030
1933.00,0.0030
1932.00,0.0031
1931.00,0.0031
1930.00,0.0031
1929.00,0.0031
1928.00,0.0031
1927.00,0.0031
1926.00,0.0032
1925.00,0.0033
1924.00,0.0034
1923.00,0.0035
1922.00,0.0035
1921.00,0.0035
1920.00,0.0035
1919.00,0.0035
1918.00,0.0035
1917.00,0.0035
1916.00,0.0035
1915.00,0.0035
1914.00,0.0035
1913.00,0.0035
1912.00,0.0035
1911.00,0.0035
1910.00,0.0035
1909.00,0.0034
1908.00,0.0034
1907.00,0.0034
1906.00,0.0034
1905.00,0.0034
1904.00,0.0035
1903.00,0.0035
1902.00,0.0035
1901.00,0.0035
1900.00,0.0035
1899.00,0.0035
1898.00,0.0034
1897.00,0.0034
1896.00,0.0034
1895.00,0.0034
1894.00,0.0034
1893.00,0.0034
1892.00,0.0035
1891.00,0.0035
1890.00,0.0035
1889.00,0.0035
1888.00,0.0035
1887.00,0.0035
1886.00,0.0035
1885.00,0.0034
1884.00,0.0034
1883.00,0.0034
1882.00,0.0034
1881.00,0.0034
1880.00,0.0034
1879.00,0.0034
1878.00,0.0034
1877.00,0.0034
1876.00,0.0034
1875.00,0.0034
1874.00,0.0034
1873.00,0.0035
1872.00,0.0035
1871.00,0.0036
1870.00,0.0036
1869.00,0.0036
1868.00,0.0036
1867.00,0.0036
1866.00,0.0036
1865.00,0.0036
1864.00,0.0036
1863.00,0.0036
1862.00,0.0035
1861.00,0.0035
1860.00,0.0035
1859.00,0.0034
1858.00,0.0034
1857.00,0.0034
1856.00,0.0034
1855.00,0.0035
1854.00,0.0035
1853.00,0.0035
1852.00,0.0035
1851.00,0.0035
1850.00,0.0035
1849.00,0.0035
1848.00,0.0035
1847.00,0.0035
1846.00,0.0036
1845.00,0.0036
1844.00,0.0036
1843.00,0.0035
1842.00,0.0035
1841.00,0.0034
1840.00,0.0034
1839.00,0.0034
1838.00,0.0034
1837.00,0.0034
1836.00,0.0034
1835.00,0.0034
1834.00,0.0034
1833.00,0.0034
1832.00,0.0034
1831.00,0.0035
1830.00,0.0034
1829.00,0.0034
1828.00,0.0034
1827.00,0.0034
1826.00,0.0034
1825.00,0.0034
1824.00,0.0034
1823.00,0.0035
1822.00,0.0034
1821.00,0.0034
1820.00,0.0033
1819.00,0.0033
1818.00,0.0032
1817.00,0.0031
1816.00,0.0032
1815.00,0.0033
1814.00,0.0033
1813.00,0.0034
1812.00,0.0034
1811.00,0.0034
1810.00,0.0034
1809.00,0.0034
1808.00,0.0034
1807.00,0.0034
1806.00,0.0034
1805.00,0.0034
1804.00,0.0034
1803.00,0.0035
1802.00,0.0035
1801.00,0.0035
1800.00,0.0035
1799.00,0.0035
1798.00,0.0035
1797.00,0.0035
1796.00,0.0035
1795.00,0.0035
1794.00,0.0035
1793.00,0.0035
1792.00,0.0036
1791.00,0.0036
1790.00,0.0035
1789.00,0.0035
1788.00,0.0035
1787.00,0.0035
1786.00,0.0035
1785.00,0.0035
1784.00,0.0035
1783.00,0.0035
1782.00,0.0035
1781.00,0.0035
1780.00,0.0035
1779.00,0.0035
1778.00,0.0035
1777.00,0.0035
1776.00,0.0035
1775.00,0.0035
1774.00,0.0036
1773.00,0.0036
1772.00,0.0037
1771.00,0.0037
1770.00,0.0037
1769.00,0.0036
1768.00,0.0036
1767.00,0.0036
1766.00,0.0035
1765.00,0.0036
1764.00,0.0036
1763.00,0.0037
1762.00,0.0037
1761.00,0.0038
1760.00,0.0038
1759.00,0.0038
1758.00,0.0038
1757.00,0.0038
1756.00,0.0038
1755.00,0.0038
1754.00,0.0038
1753.00,0.0038
1752.00,0.0038
1751.00,0.0039
1750.00,0.0039
1749.00,0.0040
1748.00,0.0040
1747.00,0.0040
1746.00,0.0040
1745.00,0.0040
1744.00,0.0040
1743.00,0.0041
1742.00,0.0041
1741.00,0.0041
1740.00,0.0042
1739.00,0.0042
1738.00,0.0042
1737.00,0.0042
1736.00,0.0043
1735.00,0.0044
1734.00,0.0044
1733.00,0.0045
1732.00,0.0045
1731.00,0.0046
1730.00,0.0046
1729.00,0.0046
1728.00,0.0047
1727.00,0.0048
1726.00,0.0049
1725.00,0.0050
1724.00,0.0051
1723.00,0.0052
1722.00,0.0053
1721.00,0.0054
1720.00,0.0055
1719.00,0.0057
1718.00,0.0059
1717.00,0.0061
1716.00,0.0064
1715.00,0.0067
1714.00,0.0069
1713.00,0.0071
1712.00,0.0074
1711.00,0.0078
1710.00,0.0081
1709.00,0.0086
1708.00,0.0091
1707.00,0.0098
1706.00,0.0105
1705.00,0.0113
1704.00,0.0122
1703.00,0.0129
1702.00,0.0139
1701.00,0.0155
1700.00,0.0176
1699.00,0.0195
1698.00,0.0210
1697.00,0.0227
1696.00,0.0252
1695.00,0.0280
1694.00,0.0302
1693.00,0.0322
1692.00,0.0342
1691.00,0.0365
1690.00,0.0390
1689.00,0.0415
1688.00,0.0436
1687.00,0.0455
1686.00,0.0474
1685.00,0.0498
1684.00,0.0528
1683.00,0.0551
1682.00,0.0565
1681.00,0.0574
1680.00,0.0584
1679.00,0.0592
1678.00,0.0598
1677.00,0.0604
1676.00,0.0609
1675.00,0.0615
1674.00,0.0618
1673.00,0.0619
1672.00,0.0619
1671.00,0.0621
1670.00,0.0624
1669.00,0.0629
1668.00,0.0633
1667.00,0.0636
1666.00,0.0638
1665.00,0.0642
1664.00,0.0648
1663.00,0.0656
1662.00,0.0664
1661.00,0.0670
1660.00,0.0674
1659.00,0.0676
1658.00,0.0677
1657.00,0.0677
1656.00,0.0676
1655.00,0.0675
1654.00,0.0673
1653.00,0.0670
1652.00,0.0665
1651.00,0.0655
1650.00,0.0643
1649.00,0.0630
1648.00,0.0615
1647.00,0.0596
1646.00,0.0576
1645.00,0.0556
1644.00,0.0536
1643.00,0.0517
1642.00,0.0497
1641.00,0.0476
1640.00,0.0456
1639.00,0.0438
1638.00,0.0420
1637.00,0.0402
1636.00,0.0382
1635.00,0.0363
1634.00,0.0347
1633.00,0.0334
1632.00,0.0322
1631.00,0.0311
1630.00,0.0302
1629.00,0.0295
1628.00,0.0291
1627.00,0.0289
1626.00,0.0289
1625.00,0.0292
1624.00,0.0299
1623.00,0.0309
1622.00,0.0319
1621.00,0.0326
1620.00,0.0331
1619.00,0.0334
1618.00,0.0335
1617.00,0.0333
1616.00,0.0329
1615.00,0.0323
1614.00,0.0316
1613.00,0.0310
1612.00,0.0304
1611.00,0.0299
1610.00,0.0294
1609.00,0.0288
1608.00,0.0281
1607.00,0.0271
1606.00,0.0260
1605.00,0.0247
1604.00,0.0235
1603.00,0.0222
1602.00,0.0211
1601.00,0.0201
1600.00,0.0192
1599.00,0.0186
1598.00,0.0180
1597.00,0.0177
1596.00,0.0175
1595.00,0.0175
1594.00,0.0178
1593.00,0.0183
1592.00,0.0191
1591.00,0.0201
1590.00,0.0213
1589.00,0.0226
1588.00,0.0238
1587.00,0.0249
1586.00,0.0255
1585.00,0.0258
1584.00,0.0256
1583.00,0.0251
1582.00,0.0243
1581.00,0.0233
1580.00,0.0224
1579.00,0.0214
1578.00,0.0205
1577.00,0.0197
1576.00,0.0188
1575.00,0.0182
1574.00,0.0176
1573.00,0.0171
1572.00,0.0167
1571.00,0.0163
1570.00,0.0159
1569.00,0.0155
1568.00,0.0152
1567.00,0.0148
1566.00,0.0145
1565.00,0.0142
1564.00,0.0139
1563.00,0.0136
1562.00,0.0134
1561.00,0.0133
1560.00,0.0132
1559.00,0.0130
1558.00,0.0129
1557.00,0.0126
1556.00,0.0123
1555.00,0.0121
1554.00,0.0119
1553.00,0.0117
1552.00,0.0115
1551.00,0.0113
1550.00,0.0112
1549.00,0.0111
1548.00,0.0110
1547.00,0.0109
1546.00,0.0109
1545.00,0.0108
1544.00,0.0108
1543.00,0.0108
1542.00,0.0108
1541.00,0.0108
1540.00,0.0108
1539.00,0.0107
1538.00,0.0106
1537.00,0.0105
1536.00,0.0103
1535.00,0.0102
1534.00,0.0102
1533.00,0.0102
1532.00,0.0102
1531.00,0.0102
1530.00,0.0102
1529.00,0.0102
1528.00,0.0102
1527.00,0.0103
1526.00,0.0104
1525.00,0.0106
1524.00,0.0107
1523.00,0.0108
1522.00,0.0110
1521.00,0.0113
1520.00,0.0115
1519.00,0.0116
1518.00,0.0118
1517.00,0.0119
1516.00,0.0121
1515.00,0.0121
1514.00,0.0122
1513.00,0.0122
1512.00,0.0123
1511.00,0.0123
1510.00,0.0123
1509.00,0.0124
1508.00,0.0125
1507.00,0.0128
1506.00,0.0133
1505.00,0.0136
1504.00,0.0139
1503.00,0.0142
1502.00,0.0148
1501.00,0.0156
1500.00,0.0166
1499.00,0.0177
1498.00,0.0190
1497.00,0.0202
1496.00,0.0211
1495.00,0.0216
1494.00,0.0217
1493.00,0.0216
1492.00,0.0212
1491.00,0.0207
1490.00,0.0199
1489.00,0.0189
1488.00,0.0180
1487.00,0.0170
1486.00,0.0161
1485.00,0.0153
1484.00,0.0145
1483.00,0.0139
1482.00,0.0134
1481.00,0.0130
1480.00,0.0128
1479.00,0.0127
1478.00,0.0126
1477.00,0.0127
1476.00,0.0129
1475.00,0.0132
1474.00,0.0138
1473.00,0.0147
1472.00,0.0160
1471.00,0.0173
1470.00,0.0186
1469.00,0.0200
1468.00,0.0215
1467.00,0.0233
1466.00,0.0253
1465.00,0.0276
1464.00,0.0298
1463.00,0.0314
1462.00,0.0326
1461.00,0.0334
1460.00,0.0338
1459.00,0.0339
1458.00,0.0334
1457.00,0.0323
1456.00,0.0310
1455.00,0.0297
1454.00,0.0285
1453.00,0.0277
1452.00,0.0270
1451.00,0.0266
1450.00,0.0265
1449.00,0.0269
1448.00,0.0275
1447.00,0.0285
1446.00,0.0295
1445.00,0.0307
1444.00,0.0319
1443.00,0.0331
1442.00,0.0343
1441.00,0.0354
1440.00,0.0364
1439.00,0.0373
1438.00,0.0383
1437.00,0.0396
1436.00,0.0409
1435.00,0.0419
1434.00,0.0426
1433.00,0.0432
1432.00,0.0438
1431.00,0.0445
1430.00,0.0451
1429.00,0.0459
1428.00,0.0467
1427.00,0.0475
1426.00,0.0485
1425.00,0.0497
1424.00,0.0509
1423.00,0.0518
1422.00,0.0523
1421.00,0.0522
1420.00,0.0515
1419.00,0.0499
1418.00,0.0478
1417.00,0.0454
1416.00,0.0431
1415.00,0.0408
1414.00,0.0386
1413.00,0.0368
1412.00,0.0352
1411.00,0.0340
1410.00,0.0331
1409.00,0.0326
1408.00,0.0323
1407.00,0.0322
1406.00,0.0324
1405.00,0.0327
1404.00,0.0330
1403.00,0.0332
1402.00,0.0332
1401.00,0.0330
1400.00,0.0325
1399.00,0.0317
1398.00,0.0306
1397.00,0.0294
1396.00,0.0281
1395.00,0.0267
1394.00,0.0253
1393.00,0.0242
1392.00,0.0233
1391.00,0.0225
1390.00,0.0220
1389.00,0.0216
1388.00,0.0215
1387.00,0.0215
1386.00,0.0217
1385.00,0.0221
1384.00,0.0225
1383.00,0.0231
1382.00,0.0237
1381.00,0.0244
1380.00,0.0249
1379.00,0.0253
1378.00,0.0256
1377.00,0.0257
1376.00,0.0256
1375.00,0.0255
1374.00,0.0252
1373.00,0.0249
1372.00,0.0246
1371.00,0.0243
1370.00,0.0240
1369.00,0.0237
1368.00,0.0234
1367.00,0.0232
1366.00,0.0231
1365.00,0.0232
1364.00,0.0235
1363.00,0.0239
1362.00,0.0243
1361.00,0.0245
1360.00,0.0244
1359.00,0.0239
1358.00,0.0232
1357.00,0.0222
1356.00,0.0212
1355.00,0.0202
1354.00,0.0194
1353.00,0.0188
1352.00,0.0183
1351.00,0.0179
1350.00,0.0176
1349.00,0.0174
1348.00,0.0172
1347.00,0.0171
1346.00,0.0170
1345.00,0.0169
1344.00,0.0169
1343.00,0.0168
1342.00,0.0168
1341.00,0.0168
1340.00,0.0168
1339.00,0.0168
1338.00,0.0169
1337.00,0.0171
1336.00,0.0173
1335.00,0.0175
1334.00,0.0177
1333.00,0.0179
1332.00,0.0181
1331.00,0.0184
1330.00,0.0187
1329.00,0.0190
1328.00,0.0193
1327.00,0.0197
1326.00,0.0201
1325.00,0.0206
1324.00,0.0211
1323.00,0.0216
1322.00,0.0220
1321.00,0.0225
1320.00,0.0229
1319.00,0.0231
1318.00,0.0232
1317.00,0.0232
1316.00,0.0231
1315.00,0.0228
1314.00,0.0225
1313.00,0.0221
1312.00,0.0218
1311.00,0.0215
1310.00,0.0213
1309.00,0.0212
1308.00,0.0212
1307.00,0.0213
1306.00,0.0216
1305.00,0.0219
1304.00,0.0224
1303.00,0.0230
1302.00,0.0237
1301.00,0.0247
1300.00,0.0259
1299.00,0.0275
1298.00,0.0294
1297.00,0.0317
1296.00,0.0343
1295.00,0.0372
1294.00,0.0402
1293.00,0.0433
1292.00,0.0462
1291.00,0.0489
1290.00,0.0513
1289.00,0.0534
1288.00,0.0552
1287.00,0.0564
1286.00,0.0572
1285.00,0.0573
1284.00,0.0570
1283.00,0.0563
1282.00,0.0551
1281.00,0.0539
1280.00,0.0526
1279.00,0.0514
1278.00,0.0506
1277.00,0.0500
1276.00,0.0498
1275.00,0.0498
1274.00,0.0499
1273.00,0.0500
1272.00,0.0499
1271.00,0.0496
1270.00,0.0490
1269.00,0.0481
1268.00,0.0468
1267.00,0.0453
1266.00,0.0437
1265.00,0.0419
1264.00,0.0401
1263.00,0.0384
1262.00,0.0367
1261.00,0.0351
1260.00,0.0336
1259.00,0.0322
1258.00,0.0309
1257.00,0.0298
1256.00,0.0287
1255.00,0.0278
1254.00,0.0269
1253.00,0.0262
1252.00,0.0256
1251.00,0.0251
1250.00,0.0248
1249.00,0.0246
1248.00,0.0246
1247.00,0.0248
1246.00,0.0252
1245.00,0.0257
1244.00,0.0263
1243.00,0.0269
1242.00,0.0276
1241.00,0.0281
1240.00,0.0286
1239.00,0.0290
1238.00,0.0293
1237.00,0.0296
1236.00,0.0298
1235.00,0.0300
1234.00,0.0301
1233.00,0.0302
1232.00,0.0302
1231.00,0.0302
1230.00,0.0300
1229.00,0.0299
1228.00,0.0297
1227.00,0.0296
1226.00,0.0294
1225.00,0.0293
1224.00,0.0293
1223.00,0.0293
1222.00,0.0293
1221.00,0.0293
1220.00,0.0294
1219.00,0.0293
1218.00,0.0292
1217.00,0.0290
1216.00,0.0286
1215.00,0.0281
1214.00,0.0273
1213.00,0.0265
1212.00,0.0256
1211.00,0.0247
1210.00,0.0239
1209.00,0.0231
1208.00,0.0225
1207.00,0.0220
1206.00,0.0216
1205.00,0.0214
1204.00,0.0213
1203.00,0.0214
1202.00,0.0217
1201.00,0.0221
1200.00,0.0227
1199.00,0.0233
1198.00,0.0241
1197.00,0.0249
1196.00,0.0256
1195.00,0.0263
1194.00,0.0267
1193.00,0.0267
1192.00,0.0265
1191.00,0.0259
1190.00,0.0251
1189.00,0.0242
1188.00,0.0233
1187.00,0.0224
1186.00,0.0215
1185.00,0.0208
1184.00,0.0202
1183.00,0.0197
1182.00,0.0193
1181.00,0.0190
1180.00,0.0188
1179.00,0.0186
1178.00,0.0185
1177.00,0.0186
1176.00,0.0186
1175.00,0.0188
1174.00,0.0189
1173.00,0.0191
1172.00,0.0193
1171.00,0.0195
1170.00,0.0196
1169.00,0.0197
1168.00,0.0198
1167.00,0.0199
1166.00,0.0200
1165.00,0.0202
1164.00,0.0205
1163.00,0.0210
1162.00,0.0216
1161.00,0.0223
1160.00,0.0232
1159.00,0.0240
1158.00,0.0248
1157.00,0.0253
1156.00,0.0255
1155.00,0.0254
1154.00,0.0249
1153.00,0.0242
1152.00,0.0234
1151.00,0.0224
1150.00,0.0214
1149.00,0.0204
1148.00,0.0194
1147.00,0.0185
1146.00,0.0177
1145.00,0.0170
1144.00,0.0165
1143.00,0.0160
1142.00,0.0157
1141.00,0.0155
1140.00,0.0154
1139.00,0.0154
1138.00,0.0157
1137.00,0.0161
1136.00,0.0168
1135.00,0.0177
1134.00,0.0189
1133.00,0.0204
1132.00,0.0219
1131.00,0.0231
1130.00,0.0240
1129.00,0.0243
1128.00,0.0240
1127.00,0.0231
1126.00,0.0219
1125.00,0.0206
1124.00,0.0194
1123.00,0.0184
1122.00,0.0175
1121.00,0.0169
1120.00,0.0164
1119.00,0.0160
1118.00,0.0158
1117.00,0.0157
1116.00,0.0156
1115.00,0.0156
1114.00,0.0156
1113.00,0.0157
1112.00,0.0158
1111.00,0.0159
1110.00,0.0160
1109.00,0.0161
1108.00,0.0163
1107.00,0.0165
1106.00,0.0168
1105.00,0.0172
1104.00,0.0176
1103.00,0.0181
1102.00,0.0186
1101.00,0.0190
1100.00,0.0192
1099.00,0.0191
1098.00,0.0189
1097.00,0.0186
1096.00,0.0181
1095.00,0.0177
1094.00,0.0172
1093.00,0.0167
1092.00,0.0163
1091.00,0.0159
1090.00,0.0156
1089.00,0.0154
1088.00,0.0152
1087.00,0.0151
1086.00,0.0150
1085.00,0.0149
1084.00,0.0149
1083.00,0.0150
1082.00,0.0151
1081.00,0.0152
1080.00,0.0155
1079.00,0.0157
1078.00,0.0161
1077.00,0.0164
1076.00,0.0168
1075.00,0.0172
1074.00,0.0176
1073.00,0.0180
1072.00,0.0185
1071.00,0.0191
1070.00,0.0198
1069.00,0.0207
1068.00,0.0218
1067.00,0.0230
1066.00,0.0245
1065.00,0.0261
1064.00,0.0279
1063.00,0.0298
1062.00,0.0317
1061.00,0.0335
1060.00,0.0352
1059.00,0.0366
1058.00,0.0375
1057.00,0.0377
1056.00,0.0373
1055.00,0.0363
1054.00,0.0348
1053.00,0.0329
1052.00,0.0310
1051.00,0.0292
1050.00,0.0276
1049.00,0.0264
1048.00,0.0255
1047.00,0.0249
1046.00,0.0247
1045.00,0.0247
1044.00,0.0248
1043.00,0.0251
1042.00,0.0254
1041.00,0.0258
1040.00,0.0262
1039.00,0.0265
1038.00,0.0268
1037.00,0.0271
1036.00,0.0274
1035.00,0.0276
1034.00,0.0279
1033.00,0.0281
1032.00,0.0284
1031.00,0.0285
1030.00,0.0284
1029.00,0.0280
1028.00,0.0274
1027.00,0.0265
1026.00,0.0256
1025.00,0.0248
1024.00,0.0240
1023.00,0.0233
1022.00,0.0228
1021.00,0.0224
1020.00,0.0220
1019.00,0.0218
1018.00,0.0216
1017.00,0.0213
1016.00,0.0210
1015.00,0.0205
1014.00,0.0200
1013.00,0.0194
1012.00,0.0189
1011.00,0.0185
1010.00,0.0182
1009.00,0.0181
1008.00,0.0182
1007.00,0.0185
1006.00,0.0189
1005.00,0.0193
1004.00,0.0198
1003.00,0.0201
1002.00,0.0202
1001.00,0.0201
1000.00,0.0198
999.00,0.0195
998.00,0.0191
997.00,0.0187
996.00,0.0184
995.00,0.0181
994.00,0.0178
993.00,0.0175
992.00,0.0172
991.00,0.0169
990.00,0.0166
989.00,0.0163
988.00,0.0159
987.00,0.0156
986.00,0.0153
985.00,0.0150
984.00,0.0148
983.00,0.0146
982.00,0.0144
981.00,0.0143
980.00,0.0143
979.00,0.0142
978.00,0.0142
977.00,0.0142
976.00,0.0142
975.00,0.0142
974.00,0.0142
973.00,0.0141
972.00,0.0139
971.00,0.0137
970.00,0.0135
969.00,0.0134
968.00,0.0132
967.00,0.0131
966.00,0.0130
965.00,0.0129
964.00,0.0129
963.00,0.0128
962.00,0.0128
961.00,0.0127
960.00,0.0127
959.00,0.0126
958.00,0.0125
957.00,0.0125
956.00,0.0124
955.00,0.0123
954.00,0.0123
953.00,0.0122
952.00,0.0121
951.00,0.0120
950.00,0.0119
949.00,0.0118
948.00,0.0118
947.00,0.0118
946.00,0.0118
945.00,0.0118
944.00,0.0119
943.00,0.0119
942.00,0.0121
941.00,0.0123
940.00,0.0126
939.00,0.0131
938.00,0.0136
937.00,0.0140
936.00,0.0145
935.00,0.0149
934.00,0.0153
933.00,0.0156
932.00,0.0158
931.00,0.0157
930.00,0.0156
929.00,0.0155
928.00,0.0154
927.00,0.0153
926.00,0.0153
925.00,0.0153
924.00,0.0152
923.00,0.0151
922.00,0.0150
921.00,0.0148
920.00,0.0146
919.00,0.0144
918.00,0.0142
917.00,0.0140
916.00,0.0138
915.00,0.0136
914.00,0.0134
913.00,0.0133
912.00,0.0132
911.00,0.0131
910.00,0.0131
909.00,0.0131
908.00,0.0132
907.00,0.0134
906.00,0.0136
905.00,0.0138
904.00,0.0142
903.00,0.0146
902.00,0.0151
901.00,0.0156
900.00,0.0160
899.00,0.0164
898.00,0.0167
897.00,0.0169
896.00,0.0170
895.00,0.0169
894.00,0.0168
893.00,0.0165
892.00,0.0161
891.00,0.0158
890.00,0.0154
889.00,0.0152
888.00,0.0150
887.00,0.0149
886.00,0.0148
885.00,0.0149
884.00,0.0149
883.00,0.0151
882.00,0.0153
881.00,0.0156
880.00,0.0160
879.00,0.0165
878.00,0.0170
877.00,0.0175
876.00,0.0181
875.00,0.0186
874.00,0.0191
873.00,0.0196
872.00,0.0201
871.00,0.0204
870.00,0.0206
869.00,0.0207
868.00,0.0207
867.00,0.0207
866.00,0.0207
865.00,0.0207
864.00,0.0207
863.00,0.0207
862.00,0.0207
861.00,0.0206
860.00,0.0207
859.00,0.0208
858.00,0.0210
857.00,0.0212
856.00,0.0215
855.00,0.0218
854.00,0.0221
853.00,0.0224
852.00,0.0228
851.00,0.0231
850.00,0.0235
849.00,0.0239
848.00,0.0243
847.00,0.0246
846.00,0.0248
845.00,0.0250
844.00,0.0251
843.00,0.0252
842.00,0.0252
841.00,0.0252
840.00,0.0252
839.00,0.0252
838.00,0.0252
837.00,0.0252
836.00,0.0252
835.00,0.0252
834.00,0.0253
833.00,0.0253
832.00,0.0254
831.00,0.0254
830.00,0.0255
829.00,0.0254
828.00,0.0254
827.00,0.0253
826.00,0.0252
825.00,0.0252
824.00,0.0252
823.00,0.0254
822.00,0.0256
821.00,0.0258
820.00,0.0260
819.00,0.0263
818.00,0.0265
817.00,0.0267
816.00,0.0268
815.00,0.0269
814.00,0.0268
813.00,0.0267
812.00,0.0263
811.00,0.0257
810.00,0.0249
809.00,0.0239
808.00,0.0228
807.00,0.0217
806.00,0.0206
805.00,0.0197
804.00,0.0190
803.00,0.0183
802.00,0.0178
801.00,0.0174
800.00,0.0171
799.00,0.0169
798.00,0.0168
797.00,0.0168
796.00,0.0167
795.00,0.0167
794.00,0.0167
793.00,0.0167
792.00,0.0168
791.00,0.0168
790.00,0.0168
789.00,0.0169
788.00,0.0169
787.00,0.0168
786.00,0.0168
785.00,0.0168
784.00,0.0168
783.00,0.0168
782.00,0.0169
781.00,0.0171
780.00,0.0173
779.00,0.0175
778.00,0.0177
777.00,0.0178
776.00,0.0178
775.00,0.0176
774.00,0.0174
773.00,0.0173
772.00,0.0172
771.00,0.0172
770.00,0.0172
769.00,0.0173
768.00,0.0173
767.00,0.0174
766.00,0.0175
765.00,0.0178
764.00,0.0180
763.00,0.0183
762.00,0.0185
761.00,0.0187
760.00,0.0189
759.00,0.0192
758.00,0.0194
757.00,0.0197
756.00,0.0200
755.00,0.0203
754.00,0.0206
753.00,0.0209
752.00,0.0212
751.00,0.0214
750.00,0.0217
749.00,0.0220
748.00,0.0223
747.00,0.0226
746.00,0.0230
745.00,0.0234
744.00,0.0238
743.00,0.0243
742.00,0.0249
741.00,0.0256
740.00,0.0263
739.00,0.0271
738.00,0.0278
737.00,0.0282
736.00,0.0283
735.00,0.0281
734.00,0.0278
733.00,0.0273
732.00,0.0267
731.00,0.0260
730.00,0.0255
729.00,0.0249
728.00,0.0244
727.00,0.0238
726.00,0.0233
725.00,0.0228
724.00,0.0224
723.00,0.0219
722.00,0.0216
721.00,0.0212
720.00,0.0210
719.00,0.0208
718.00,0.0207
717.00,0.0206
716.00,0.0205
715.00,0.0205
714.00,0.0205
713.00,0.0205
712.00,0.0204
711.00,0.0202
710.00,0.0200
709.00,0.0199
708.00,0.0198
707.00,0.0197
706.00,0.0196
705.00,0.0195
704.00,0.0195
703.00,0.0195
702.00,0.0195
701.00,0.0196
700.00,0.0198
699.00,0.0199
698.00,0.0201
697.00,0.0204
696.00,0.0209
695.00,0.0213
694.00,0.0219
693.00,0.0224
692.00,0.0229
691.00,0.0233
690.00,0.0236
689.00,0.0237
688.00,0.0238
687.00,0.0237
686.00,0.0236
685.00,0.0234
684.00,0.0233
683.00,0.0231
682.00,0.0230
681.00,0.0229
680.00,0.0229
679.00,0.0230
678.00,0.0231
677.00,0.0233
676.00,0.0234
675.00,0.0236
674.00,0.0238
673.00,0.0241
672.00,0.0245
671.00,0.0248
670.00,0.0252
669.00,0.0257
668.00,0.0264
667.00,0.0271
666.00,0.0275
665.00,0.0277
664.00,0.0279
663.00,0.0283
662.00,0.0288
661.00,0.0293
660.00,0.0299
659.00,0.0306
658.00,0.0312
657.00,0.0318
656.00,0.0323
655.00,0.0328
654.00,0.0334
653.00,0.0340
652.00,0.0345
651.00,0.0349
650.00,0.0352
649.00,0.0354
648.00,0.0354
647.00,0.0354
646.00,0.0352
645.00,0.0348
644.00,0.0344
643.00,0.0339
642.00,0.0333
641.00,0.0328
640.00,0.0322
639.00,0.0316
638.00,0.0311
637.00,0.0306
636.00,0.0302
635.00,0.0298
634.00,0.0294
633.00,0.0290
632.00,0.0287
631.00,0.0284
630.00,0.0281
629.00,0.0279
628.00,0.0278
627.00,0.0277
626.00,0.0276
625.00,0.0276
624.00,0.0275
623.00,0.0274
622.00,0.0273
621.00,0.0271
620.00,0.0270
619.00,0.0268
618.00,0.0266
617.00,0.0264
616.00,0.0262
615.00,0.0260
614.00,0.0259
613.00,0.0260
612.00,0.0261
611.00,0.0262
610.00,0.0263
609.00,0.0265
608.00,0.0266
607.00,0.0267
606.00,0.0268
605.00,0.0269
604.00,0.0269
603.00,0.0270
602.00,0.0271
601.00,0.0273
600.00,0.0275
599.00,0.0276
598.00,0.0277
597.00,0.0276
596.00,0.0275
595.00,0.0274
594.00,0.0273
593.00,0.0272
592.00,0.0273
591.00,0.0276
590.00,0.0279
589.00,0.0284
588.00,0.0292
587.00,0.0303
586.00,0.0314
585.00,0.0327
584.00,0.0339
583.00,0.0349
582.00,0.0356
581.00,0.0360
580.00,0.0362
579.00,0.0364
578.00,0.0365
577.00,0.0366
576.00,0.0366
575.00,0.0366
574.00,0.0365
573.00,0.0363
572.00,0.0362
571.00,0.0361
570.00,0.0361
569.00,0.0361
568.00,0.0360
567.00,0.0359
566.00,0.0357
565.00,0.0356
564.00,0.0354
563.00,0.0350
562.00,0.0345
561.00,0.0339
560.00,0.0334
559.00,0.0329
558.00,0.0325
557.00,0.0322
556.00,0.0319
555.00,0.0316
554.00,0.0314
553.00,0.0311
552.00,0.0308
551.00,0.0305
550.00,0.0301
549.00,0.0299
548.00,0.0296
547.00,0.0293
546.00,0.0290
545.00,0.0287
544.00,0.0284
543.00,0.0282
542.00,0.0279
541.00,0.0277
540.00,0.0275
539.00,0.0274
538.00,0.0274
537.00,0.0277
536.00,0.0281
535.00,0.0286
534.00,0.0291
533.00,0.0295
532.00,0.0299
531.00,0.0301
530.00,0.0301
529.00,0.0299
528.00,0.0295
527.00,0.0288
526.00,0.0281
525.00,0.0275
524.00,0.0269
523.00,0.0265
522.00,0.0262
521.00,0.0260
520.00,0.0257
519.00,0.0255
518.00,0.0253
517.00,0.0252
516.00,0.0251
515.00,0.0250
514.00,0.0250
513.00,0.0250
512.00,0.0251
511.00,0.0253
510.00,0.0256
509.00,0.0257
508.00,0.0258
507.00,0.0259
506.00,0.0259
505.00,0.0258
504.00,0.0256
503.00,0.0254
502.00,0.0251
501.00,0.0250
500.00,0.0249
499.00,0.0248
498.00,0.0248
497.00,0.0249
496.00,0.0250
495.00,0.0251
494.00,0.0252
493.00,0.0253
492.00,0.0254
491.00,0.0255
490.00,0.0256
489.00,0.0256
488.00,0.0256
487.00,0.0255
486.00,0.0255
485.00,0.0254
484.00,0.0255
483.00,0.0256
482.00,0.0257
481.00,0.0258
480.00,0.0258
479.00,0.0257
478.00,0.0257
477.00,0.0259
476.00,0.0262
475.00,0.0265
474.00,0.0266
473.00,0.0264
472.00,0.0262
471.00,0.0259
470.00,0.0256
469.00,0.0254
468.00,0.0253
467.00,0.0254
466.00,0.0255
465.00,0.0255
464.00,0.0253
463.00,0.0251
462.00,0.0249
461.00,0.0247
460.00,0.0246
459.00,0.0245
458.00,0.0245
457.00,0.0245
456.00,0.0246
455.00,0.0247
454.00,0.0249
453.00,0.0250
452.00,0.0251
451.00,0.0251
450.00,0.0250
449.00,0.0247
448.00,0.0245
447.00,0.0243
446.00,0.0244
445.00,0.0244
444.00,0.0242
443.00,0.0239
442.00,0.0238
441.00,0.0238
440.00,0.0238
439.00,0.0238
438.00,0.0238
437.00,0.0238
436.00,0.0237
435.00,0.0234
434.00,0.0231
433.00,0.0230
432.00,0.0231
431.00,0.0235
430.00,0.0239
429.00,0.0243
428.00,0.0243
427.00,0.0240
426.00,0.0237
425.00,0.0236
424.00,0.0237
423.00,0.0237
422.00,0.0238
421.00,0.0239
420.00,0.0242
419.00,0.0245
418.00,0.0246
417.00,0.0247
416.00,0.0250
415.00,0.0255
414.00,0.0260
413.00,0.0263
412.00,0.0263
411.00,0.0261
410.00,0.0259
409.00,0.0259
408.00,0.0261
407.00,0.0263
406.00,0.0264
405.00,0.0259
404.00,0.0249
403.00,0.0240
402.00,0.0238
401.00,0.0247
400.00,0.0261
