Created as New Dataset,Sample 287 By YargerLab Date Saturday, October 18 2025
cm-1,A
4000.00,0.0075
3999.00,0.0075
3998.00,0.0075
3997.00,0.0075
3996.00,0.0075
3995.00,0.0075
3994.00,0.0075
3993.00,0.0075
3992.00,0.0075
3991.00,0.0075
3990.00,0.0075
3989.00,0.0075
3988.00,0.0075
3987.00,0.0075
3986.00,0.0075
3985.00,0.0075
3984.00,0.0075
3983.00,0.0075
3982.00,0.0075
3981.00,0.0075
3980.00,0.0075
3979.00,0.0075
3978.00,0.0075
3977.00,0.0075
3976.00,0.0075
3975.00,0.0075
3974.00,0.0075
3973.00,0.0075
3972.00,0.0075
3971.00,0.0074
3970.00,0.0074
3969.00,0.0074
3968.00,0.0074
3967.00,0.0075
3966.00,0.0075
3965.00,0.0075
3964.00,0.0075
3963.00,0.0075
3962.00,0.0075
3961.00,0.0075
3960.00,0.0075
3959.00,0.0075
3958.00,0.0075
3957.00,0.0075
3956.00,0.0075
3955.00,0.0075
3954.00,0.0075
3953.00,0.0075
3952.00,0.0075
3951.00,0.0074
3950.00,0.0074
3949.00,0.0074
3948.00,0.0074
3947.00,0.0075
3946.00,0.0075
3945.00,0.0075
3944.00,0.0075
3943.00,0.0075
3942.00,0.0074
3941.00,0.0074
3940.00,0.0074
3939.00,0.0074
3938.00,0.0074
3937.00,0.0074
3936.00,0.0074
3935.00,0.0074
3934.00,0.0074
3933.00,0.0074
3932.00,0.0074
3931.00,0.0074
3930.00,0.0074
3929.00,0.0074
3928.00,0.0074
3927.00,0.0074
3926.00,0.0074
3925.00,0.0074
3924.00,0.0074
3923.00,0.0074
3922.00,0.0074
3921.00,0.0074
3920.00,0.0073
3919.00,0.0073
3918.00,0.0073
3917.00,0.0073
3916.00,0.0073
3915.00,0.0074
3914.00,0.0074
3913.00,0.0074
3912.00,0.0074
3911.00,0.0074
3910.00,0.0074
3909.00,0.0074
3908.00,0.0074
3907.00,0.0074
3906.00,0.0074
3905.00,0.0073
3904.00,0.0073
3903.00,0.0073
3902.00,0.0073
3901.00,0.0073
3900.00,0.0073
3899.00,0.0073
3898.00,0.0073
3897.00,0.0073
3896.00,0.0073
3895.00,0.0073
3894.00,0.0073
3893.00,0.0073
3892.00,0.0073
3891.00,0.0073
3890.00,0.0073
3889.00,0.0073
3888.00,0.0073
3887.00,0.0073
3886.00,0.0073
3885.00,0.0073
3884.00,0.0073
3883.00,0.0073
3882.00,0.0073
3881.00,0.0073
3880.00,0.0073
3879.00,0.0073
3878.00,0.0073
3877.00,0.0073
3876.00,0.0073
3875.00,0.0073
3874.00,0.0073
3873.00,0.0072
3872.00,0.0072
3871.00,0.0072
3870.00,0.0073
3869.00,0.0073
3868.00,0.0073
3867.00,0.0073
3866.00,0.0072
3865.00,0.0072
3864.00,0.0072
3863.00,0.0072
3862.00,0.0072
3861.00,0.0072
3860.00,0.0072
3859.00,0.0072
3858.00,0.0072
3857.00,0.0072
3856.00,0.0072
3855.00,0.0073
3854.00,0.0073
3853.00,0.0073
3852.00,0.0073
3851.00,0.0073
3850.00,0.0073
3849.00,0.0073
3848.00,0.0073
3847.00,0.0073
3846.00,0.0073
3845.00,0.0073
3844.00,0.0072
3843.00,0.0072
3842.00,0.0072
3841.00,0.0072
3840.00,0.0072
3839.00,0.0072
3838.00,0.0072
3837.00,0.0072
3836.00,0.0072
3835.00,0.0072
3834.00,0.0072
3833.00,0.0072
3832.00,0.0072
3831.00,0.0072
3830.00,0.0072
3829.00,0.0072
3828.00,0.0073
3827.00,0.0073
3826.00,0.0073
3825.00,0.0072
3824.00,0.0072
3823.00,0.0072
3822.00,0.0072
3821.00,0.0072
3820.00,0.0072
3819.00,0.0072
3818.00,0.0072
3817.00,0.0072
3816.00,0.0072
3815.00,0.0072
3814.00,0.0072
3813.00,0.0072
3812.00,0.0072
3811.00,0.0072
3810.00,0.0072
3809.00,0.0072
3808.00,0.0072
3807.00,0.0072
3806.00,0.0072
3805.00,0.0072
3804.00,0.0073
3803.00,0.0073
3802.00,0.0073
3801.00,0.0073
3800.00,0.0072
3799.00,0.0072
3798.00,0.0072
3797.00,0.0072
3796.00,0.0072
3795.00,0.0072
3794.00,0.0072
3793.00,0.0072
3792.00,0.0072
3791.00,0.0072
3790.00,0.0072
3789.00,0.0072
3788.00,0.0072
3787.00,0.0072
3786.00,0.0072
3785.00,0.0072
3784.00,0.0072
3783.00,0.0072
3782.00,0.0072
3781.00,0.0073
3780.00,0.0073
3779.00,0.0073
3778.00,0.0072
3777.00,0.0072
3776.00,0.0072
3775.00,0.0072
3774.00,0.0072
3773.00,0.0072
3772.00,0.0072
3771.00,0.0072
3770.00,0.0071
3769.00,0.0071
3768.00,0.0071
3767.00,0.0071
3766.00,0.0071
3765.00,0.0071
3764.00,0.0072
3763.00,0.0072
3762.00,0.0072
3761.00,0.0072
3760.00,0.0072
3759.00,0.0072
3758.00,0.0072
3757.00,0.0072
3756.00,0.0072
3755.00,0.0072
3754.00,0.0072
3753.00,0.0072
3752.00,0.0072
3751.00,0.0072
3750.00,0.0072
3749.00,0.0072
3748.00,0.0072
3747.00,0.0072
3746.00,0.0071
3745.00,0.0071
3744.00,0.0071
3743.00,0.0071
3742.00,0.0071
3741.00,0.0070
3740.00,0.0070
3739.00,0.0071
3738.00,0.0071
3737.00,0.0071
3736.00,0.0071
3735.00,0.0071
3734.00,0.0070
3733.00,0.0070
3732.00,0.0070
3731.00,0.0070
3730.00,0.0070
3729.00,0.0070
3728.00,0.0070
3727.00,0.0070
3726.00,0.0070
3725.00,0.0070
3724.00,0.0070
3723.00,0.0070
3722.00,0.0070
3721.00,0.0071
3720.00,0.0071
3719.00,0.0071
3718.00,0.0071
3717.00,0.0071
3716.00,0.0071
3715.00,0.0071
3714.00,0.0071
3713.00,0.0071
3712.00,0.0070
3711.00,0.0070
3710.00,0.0070
3709.00,0.0070
3708.00,0.0070
3707.00,0.0070
3706.00,0.0070
3705.00,0.0071
3704.00,0.0071
3703.00,0.0070
3702.00,0.0070
3701.00,0.0070
3700.00,0.0070
3699.00,0.0069
3698.00,0.0069
3697.00,0.0069
3696.00,0.0069
3695.00,0.0069
3694.00,0.0070
3693.00,0.0070
3692.00,0.0070
3691.00,0.0070
3690.00,0.0070
3689.00,0.0070
3688.00,0.0070
3687.00,0.0070
3686.00,0.0069
3685.00,0.0069
3684.00,0.0069
3683.00,0.0069
3682.00,0.0069
3681.00,0.0069
3680.00,0.0070
3679.00,0.0070
3678.00,0.0070
3677.00,0.0070
3676.00,0.0070
3675.00,0.0070
3674.00,0.0070
3673.00,0.0070
3672.00,0.0070
3671.00,0.0070
3670.00,0.0070
3669.00,0.0071
3668.00,0.0071
3667.00,0.0071
3666.00,0.0071
3665.00,0.0071
3664.00,0.0072
3663.00,0.0072
3662.00,0.0072
3661.00,0.0072
3660.00,0.0072
3659.00,0.0072
3658.00,0.0072
3657.00,0.0072
3656.00,0.0072
3655.00,0.0072
3654.00,0.0072
3653.00,0.0073
3652.00,0.0073
3651.00,0.0073
3650.00,0.0072
3649.00,0.0072
3648.00,0.0073
3647.00,0.0073
3646.00,0.0073
3645.00,0.0073
3644.00,0.0073
3643.00,0.0074
3642.00,0.0074
3641.00,0.0074
3640.00,0.0075
3639.00,0.0075
3638.00,0.0075
3637.00,0.0075
3636.00,0.0075
3635.00,0.0076
3634.00,0.0076
3633.00,0.0076
3632.00,0.0076
3631.00,0.0076
3630.00,0.0076
3629.00,0.0077
3628.00,0.0077
3627.00,0.0077
3626.00,0.0077
3625.00,0.0077
3624.00,0.0077
3623.00,0.0077
3622.00,0.0078
3621.00,0.0078
3620.00,0.0079
3619.00,0.0079
3618.00,0.0080
3617.00,0.0080
3616.00,0.0081
3615.00,0.0081
3614.00,0.0081
3613.00,0.0082
3612.00,0.0082
3611.00,0.0083
3610.00,0.0083
3609.00,0.0084
3608.00,0.0084
3607.00,0.0085
3606.00,0.0085
3605.00,0.0085
3604.00,0.0084
3603.00,0.0084
3602.00,0.0084
3601.00,0.0085
3600.00,0.0085
3599.00,0.0086
3598.00,0.0086
3597.00,0.0087
3596.00,0.0087
3595.00,0.0087
3594.00,0.0088
3593.00,0.0088
3592.00,0.0089
3591.00,0.0089
3590.00,0.0089
3589.00,0.0089
3588.00,0.0090
3587.00,0.0091
3586.00,0.0091
3585.00,0.0091
3584.00,0.0092
3583.00,0.0092
3582.00,0.0093
3581.00,0.0093
3580.00,0.0094
3579.00,0.0094
3578.00,0.0095
3577.00,0.0095
3576.00,0.0095
3575.00,0.0096
3574.00,0.0096
3573.00,0.0096
3572.00,0.0097
3571.00,0.0097
3570.00,0.0097
3569.00,0.0097
3568.00,0.0098
3567.00,0.0100
3566.00,0.0101
3565.00,0.0101
3564.00,0.0102
3563.00,0.0102
3562.00,0.0102
3561.00,0.0103
3560.00,0.0103
3559.00,0.0104
3558.00,0.0104
3557.00,0.0105
3556.00,0.0106
3555.00,0.0106
3554.00,0.0107
3553.00,0.0108
3552.00,0.0108
3551.00,0.0109
3550.00,0.0110
3549.00,0.0110
3548.00,0.0111
3547.00,0.0112
3546.00,0.0113
3545.00,0.0114
3544.00,0.0115
3543.00,0.0116
3542.00,0.0117
3541.00,0.0118
3540.00,0.0119
3539.00,0.0119
3538.00,0.0120
3537.00,0.0121
3536.00,0.0122
3535.00,0.0123
3534.00,0.0124
3533.00,0.0125
3532.00,0.0126
3531.00,0.0127
3530.00,0.0128
3529.00,0.0129
3528.00,0.0131
3527.00,0.0132
3526.00,0.0133
3525.00,0.0134
3524.00,0.0135
3523.00,0.0136
3522.00,0.0137
3521.00,0.0138
3520.00,0.0140
3519.00,0.0141
3518.00,0.0142
3517.00,0.0143
3516.00,0.0145
3515.00,0.0146
3514.00,0.0147
3513.00,0.0149
3512.00,0.0150
3511.00,0.0152
3510.00,0.0153
3509.00,0.0155
3508.00,0.0156
3507.00,0.0157
3506.00,0.0159
3505.00,0.0160
3504.00,0.0161
3503.00,0.0163
3502.00,0.0164
3501.00,0.0166
3500.00,0.0167
3499.00,0.0169
3498.00,0.0170
3497.00,0.0172
3496.00,0.0174
3495.00,0.0176
3494.00,0.0177
3493.00,0.0179
3492.00,0.0180
3491.00,0.0181
3490.00,0.0182
3489.00,0.0184
3488.00,0.0185
3487.00,0.0187
3486.00,0.0188
3485.00,0.0190
3484.00,0.0191
3483.00,0.0192
3482.00,0.0193
3481.00,0.0194
3480.00,0.0195
3479.00,0.0196
3478.00,0.0197
3477.00,0.0198
3476.00,0.0198
3475.00,0.0199
3474.00,0.0200
3473.00,0.0201
3472.00,0.0202
3471.00,0.0202
3470.00,0.0203
3469.00,0.0203
3468.00,0.0203
3467.00,0.0204
3466.00,0.0204
3465.00,0.0204
3464.00,0.0204
3463.00,0.0205
3462.00,0.0205
3461.00,0.0205
3460.00,0.0205
3459.00,0.0205
3458.00,0.0205
3457.00,0.0205
3456.00,0.0204
3455.00,0.0204
3454.00,0.0204
3453.00,0.0204
3452.00,0.0204
3451.00,0.0203
3450.00,0.0203
3449.00,0.0202
3448.00,0.0202
3447.00,0.0202
3446.00,0.0202
3445.00,0.0201
3444.00,0.0201
3443.00,0.0200
3442.00,0.0200
3441.00,0.0199
3440.00,0.0198
3439.00,0.0198
3438.00,0.0197
3437.00,0.0196
3436.00,0.0196
3435.00,0.0195
3434.00,0.0195
3433.00,0.0194
3432.00,0.0194
3431.00,0.0193
3430.00,0.0192
3429.00,0.0191
3428.00,0.0190
3427.00,0.0190
3426.00,0.0189
3425.00,0.0188
3424.00,0.0188
3423.00,0.0187
3422.00,0.0186
3421.00,0.0186
3420.00,0.0185
3419.00,0.0185
3418.00,0.0184
3417.00,0.0183
3416.00,0.0182
3415.00,0.0182
3414.00,0.0181
3413.00,0.0180
3412.00,0.0179
3411.00,0.0179
3410.00,0.0178
3409.00,0.0177
3408.00,0.0177
3407.00,0.0176
3406.00,0.0176
3405.00,0.0175
3404.00,0.0175
3403.00,0.0174
3402.00,0.0173
3401.00,0.0172
3400.00,0.0171
3399.00,0.0171
3398.00,0.0170
3397.00,0.0169
3396.00,0.0169
3395.00,0.0168
3394.00,0.0167
3393.00,0.0167
3392.00,0.0166
3391.00,0.0165
3390.00,0.0164
3389.00,0.0164
3388.00,0.0163
3387.00,0.0162
3386.00,0.0162
3385.00,0.0161
3384.00,0.0160
3383.00,0.0160
3382.00,0.0159
3381.00,0.0158
3380.00,0.0157
3379.00,0.0157
3378.00,0.0156
3377.00,0.0155
3376.00,0.0155
3375.00,0.0154
3374.00,0.0153
3373.00,0.0153
3372.00,0.0152
3371.00,0.0151
3370.00,0.0151
3369.00,0.0150
3368.00,0.0149
3367.00,0.0148
3366.00,0.0148
3365.00,0.0147
3364.00,0.0146
3363.00,0.0145
3362.00,0.0145
3361.00,0.0144
3360.00,0.0144
3359.00,0.0143
3358.00,0.0142
3357.00,0.0141
3356.00,0.0141
3355.00,0.0140
3354.00,0.0140
3353.00,0.0139
3352.00,0.0139
3351.00,0.0138
3350.00,0.0138
3349.00,0.0137
3348.00,0.0136
3347.00,0.0136
3346.00,0.0135
3345.00,0.0134
3344.00,0.0134
3343.00,0.0133
3342.00,0.0133
3341.00,0.0132
3340.00,0.0132
3339.00,0.0131
3338.00,0.0131
3337.00,0.0130
3336.00,0.0130
3335.00,0.0129
3334.00,0.0129
3333.00,0.0128
3332.00,0.0128
3331.00,0.0127
3330.00,0.0127
3329.00,0.0126
3328.00,0.0126
3327.00,0.0125
3326.00,0.0125
3325.00,0.0124
3324.00,0.0124
3323.00,0.0123
3322.00,0.0123
3321.00,0.0123
3320.00,0.0122
3319.00,0.0122
3318.00,0.0121
3317.00,0.0121
3316.00,0.0120
3315.00,0.0120
3314.00,0.0119
3313.00,0.0118
3312.00,0.0118
3311.00,0.0117
3310.00,0.0117
3309.00,0.0116
3308.00,0.0116
3307.00,0.0116
3306.00,0.0116
3305.00,0.0116
3304.00,0.0115
3303.00,0.0115
3302.00,0.0114
3301.00,0.0114
3300.00,0.0114
3299.00,0.0113
3298.00,0.0113
3297.00,0.0112
3296.00,0.0112
3295.00,0.0112
3294.00,0.0111
3293.00,0.0111
3292.00,0.0111
3291.00,0.0111
3290.00,0.0111
3289.00,0.0110
3288.00,0.0110
3287.00,0.0110
3286.00,0.0110
3285.00,0.0109
3284.00,0.0109
3283.00,0.0109
3282.00,0.0108
3281.00,0.0108
3280.00,0.0108
3279.00,0.0108
3278.00,0.0107
3277.00,0.0107
3276.00,0.0106
3275.00,0.0106
3274.00,0.0106
3273.00,0.0106
3272.00,0.0106
3271.00,0.0106
3270.00,0.0106
3269.00,0.0106
3268.00,0.0105
3267.00,0.0105
3266.00,0.0105
3265.00,0.0104
3264.00,0.0104
3263.00,0.0103
3262.00,0.0103
3261.00,0.0103
3260.00,0.0103
3259.00,0.0102
3258.00,0.0102
3257.00,0.0101
3256.00,0.0101
3255.00,0.0101
3254.00,0.0101
3253.00,0.0101
3252.00,0.0101
3251.00,0.0100
3250.00,0.0100
3249.00,0.0099
3248.00,0.0099
3247.00,0.0099
3246.00,0.0099
3245.00,0.0099
3244.00,0.0099
3243.00,0.0099
3242.00,0.0099
3241.00,0.0098
3240.00,0.0098
3239.00,0.0098
3238.00,0.0097
3237.00,0.0097
3236.00,0.0096
3235.00,0.0096
3234.00,0.0096
3233.00,0.0095
3232.00,0.0095
3231.00,0.0095
3230.00,0.0095
3229.00,0.0095
3228.00,0.0095
3227.00,0.0094
3226.00,0.0094
3225.00,0.0094
3224.00,0.0094
3223.00,0.0094
3222.00,0.0093
3221.00,0.0093
3220.00,0.0093
3219.00,0.0092
3218.00,0.0092
3217.00,0.0093
3216.00,0.0093
3215.00,0.0093
3214.00,0.0092
3213.00,0.0092
3212.00,0.0092
3211.00,0.0092
3210.00,0.0091
3209.00,0.0091
3208.00,0.0091
3207.00,0.0091
3206.00,0.0091
3205.00,0.0091
3204.00,0.0090
3203.00,0.0090
3202.00,0.0090
3201.00,0.0089
3200.00,0.0089
3199.00,0.0089
3198.00,0.0089
3197.00,0.0089
3196.00,0.0089
3195.00,0.0089
3194.00,0.0089
3193.00,0.0089
3192.00,0.0088
3191.00,0.0088
3190.00,0.0088
3189.00,0.0088
3188.00,0.0088
3187.00,0.0088
3186.00,0.0088
3185.00,0.0088
3184.00,0.0088
3183.00,0.0087
3182.00,0.0087
3181.00,0.0087
3180.00,0.0087
3179.00,0.0087
3178.00,0.0087
3177.00,0.0087
3176.00,0.0087
3175.00,0.0087
3174.00,0.0087
3173.00,0.0087
3172.00,0.0087
3171.00,0.0087
3170.00,0.0087
3169.00,0.0087
3168.00,0.0086
3167.00,0.0086
3166.00,0.0086
3165.00,0.0086
3164.00,0.0086
3163.00,0.0086
3162.00,0.0086
3161.00,0.0086
3160.00,0.0086
3159.00,0.0086
3158.00,0.0085
3157.00,0.0085
3156.00,0.0085
3155.00,0.0085
3154.00,0.0085
3153.00,0.0085
3152.00,0.0085
3151.00,0.0085
3150.00,0.0085
3149.00,0.0085
3148.00,0.0085
3147.00,0.0085
3146.00,0.0084
3145.00,0.0084
3144.00,0.0084
3143.00,0.0084
3142.00,0.0084
3141.00,0.0084
3140.00,0.0084
3139.00,0.0084
3138.00,0.0084
3137.00,0.0084
3136.00,0.0084
3135.00,0.0084
3134.00,0.0084
3133.00,0.0084
3132.00,0.0084
3131.00,0.0084
3130.00,0.0084
3129.00,0.0084
3128.00,0.0085
3127.00,0.0084
3126.00,0.0084
3125.00,0.0084
3124.00,0.0084
3123.00,0.0083
3122.00,0.0083
3121.00,0.0083
3120.00,0.0083
3119.00,0.0083
3118.00,0.0083
3117.00,0.0083
3116.00,0.0083
3115.00,0.0083
3114.00,0.0083
3113.00,0.0083
3112.00,0.0083
3111.00,0.0083
3110.00,0.0083
3109.00,0.0083
3108.00,0.0083
3107.00,0.0083
3106.00,0.0083
3105.00,0.0083
3104.00,0.0083
3103.00,0.0083
3102.00,0.0083
3101.00,0.0083
3100.00,0.0083
3099.00,0.0083
3098.00,0.0083
3097.00,0.0084
3096.00,0.0084
3095.00,0.0084
3094.00,0.0084
3093.00,0.0083
3092.00,0.0083
3091.00,0.0083
3090.00,0.0083
3089.00,0.0083
3088.00,0.0083
3087.00,0.0083
3086.00,0.0083
3085.00,0.0083
3084.00,0.0083
3083.00,0.0083
3082.00,0.0083
3081.00,0.0083
3080.00,0.0083
3079.00,0.0083
3078.00,0.0083
3077.00,0.0083
3076.00,0.0083
3075.00,0.0084
3074.00,0.0084
3073.00,0.0084
3072.00,0.0084
3071.00,0.0083
3070.00,0.0083
3069.00,0.0083
3068.00,0.0083
3067.00,0.0084
3066.00,0.0084
3065.00,0.0084
3064.00,0.0084
3063.00,0.0084
3062.00,0.0084
3061.00,0.0084
3060.00,0.0084
3059.00,0.0084
3058.00,0.0084
3057.00,0.0084
3056.00,0.0084
3055.00,0.0084
3054.00,0.0084
3053.00,0.0084
3052.00,0.0084
3051.00,0.0084
3050.00,0.0084
3049.00,0.0084
3048.00,0.0084
3047.00,0.0084
3046.00,0.0084
3045.00,0.0083
3044.00,0.0084
3043.00,0.0084
3042.00,0.0084
3041.00,0.0084
3040.00,0.0084
3039.00,0.0085
3038.00,0.0085
3037.00,0.0085
3036.00,0.0085
3035.00,0.0085
3034.00,0.0085
3033.00,0.0085
3032.00,0.0085
3031.00,0.0086
3030.00,0.0086
3029.00,0.0086
3028.00,0.0086
3027.00,0.0087
3026.00,0.0087
3025.00,0.0087
3024.00,0.0087
3023.00,0.0087
3022.00,0.0088
3021.00,0.0088
3020.00,0.0089
3019.00,0.0089
3018.00,0.0090
3017.00,0.0090
3016.00,0.0091
3015.00,0.0092
3014.00,0.0092
3013.00,0.0094
3012.00,0.0095
3011.00,0.0096
3010.00,0.0097
3009.00,0.0099
3008.00,0.0100
3007.00,0.0101
3006.00,0.0103
3005.00,0.0105
3004.00,0.0107
3003.00,0.0108
3002.00,0.0110
3001.00,0.0112
3000.00,0.0115
2999.00,0.0117
2998.00,0.0119
2997.00,0.0122
2996.00,0.0125
2995.00,0.0128
2994.00,0.0130
2993.00,0.0133
2992.00,0.0136
2991.00,0.0139
2990.00,0.0142
2989.00,0.0145
2988.00,0.0148
2987.00,0.0150
2986.00,0.0152
2985.00,0.0154
2984.00,0.0156
2983.00,0.0157
2982.00,0.0159
2981.00,0.0161
2980.00,0.0162
2979.00,0.0164
2978.00,0.0165
2977.00,0.0166
2976.00,0.0167
2975.00,0.0167
2974.00,0.0168
2973.00,0.0168
2972.00,0.0168
2971.00,0.0169
2970.00,0.0169
2969.00,0.0170
2968.00,0.0170
2967.00,0.0171
2966.00,0.0172
2965.00,0.0172
2964.00,0.0173
2963.00,0.0175
2962.00,0.0176
2961.00,0.0178
2960.00,0.0179
2959.00,0.0181
2958.00,0.0183
2957.00,0.0185
2956.00,0.0188
2955.00,0.0190
2954.00,0.0193
2953.00,0.0196
2952.00,0.0199
2951.00,0.0203
2950.00,0.0206
2949.00,0.0210
2948.00,0.0214
2947.00,0.0218
2946.00,0.0222
2945.00,0.0227
2944.00,0.0232
2943.00,0.0237
2942.00,0.0242
2941.00,0.0246
2940.00,0.0251
2939.00,0.0255
2938.00,0.0258
2937.00,0.0262
2936.00,0.0265
2935.00,0.0268
2934.00,0.0270
2933.00,0.0272
2932.00,0.0273
2931.00,0.0275
2930.00,0.0276
2929.00,0.0276
2928.00,0.0277
2927.00,0.0278
2926.00,0.0279
2925.00,0.0280
2924.00,0.0280
2923.00,0.0281
2922.00,0.0282
2921.00,0.0282
2920.00,0.0283
2919.00,0.0284
2918.00,0.0285
2917.00,0.0287
2916.00,0.0288
2915.00,0.0289
2914.00,0.0291
2913.00,0.0292
2912.00,0.0293
2911.00,0.0294
2910.00,0.0295
2909.00,0.0296
2908.00,0.0298
2907.00,0.0299
2906.00,0.0300
2905.00,0.0301
2904.00,0.0302
2903.00,0.0302
2902.00,0.0303
2901.00,0.0303
2900.00,0.0303
2899.00,0.0303
2898.00,0.0303
2897.00,0.0302
2896.00,0.0302
2895.00,0.0301
2894.00,0.0301
2893.00,0.0300
2892.00,0.0299
2891.00,0.0299
2890.00,0.0298
2889.00,0.0297
2888.00,0.0296
2887.00,0.0295
2886.00,0.0293
2885.00,0.0292
2884.00,0.0291
2883.00,0.0290
2882.00,0.0289
2881.00,0.0287
2880.00,0.0286
2879.00,0.0284
2878.00,0.0283
2877.00,0.0281
2876.00,0.0279
2875.00,0.0277
2874.00,0.0275
2873.00,0.0272
2872.00,0.0270
2871.00,0.0267
2870.00,0.0264
2869.00,0.0261
2868.00,0.0258
2867.00,0.0255
2866.00,0.0252
2865.00,0.0249
2864.00,0.0246
2863.00,0.0243
2862.00,0.0240
2861.00,0.0237
2860.00,0.0235
2859.00,0.0233
2858.00,0.0231
2857.00,0.0229
2856.00,0.0228
2855.00,0.0227
2854.00,0.0226
2853.00,0.0226
2852.00,0.0226
2851.00,0.0227
2850.00,0.0227
2849.00,0.0228
2848.00,0.0230
2847.00,0.0231
2846.00,0.0233
2845.00,0.0236
2844.00,0.0239
2843.00,0.0242
2842.00,0.0245
2841.00,0.0247
2840.00,0.0250
2839.00,0.0252
2838.00,0.0254
2837.00,0.0255
2836.00,0.0256
2835.00,0.0257
2834.00,0.0257
2833.00,0.0256
2832.00,0.0254
2831.00,0.0253
2830.00,0.0250
2829.00,0.0248
2828.00,0.0245
2827.00,0.0243
2826.00,0.0240
2825.00,0.0238
2824.00,0.0236
2823.00,0.0233
2822.00,0.0232
2821.00,0.0230
2820.00,0.0228
2819.00,0.0226
2818.00,0.0224
2817.00,0.0222
2816.00,0.0220
2815.00,0.0217
2814.00,0.0214
2813.00,0.0211
2812.00,0.0207
2811.00,0.0204
2810.00,0.0199
2809.00,0.0195
2808.00,0.0190
2807.00,0.0186
2806.00,0.0181
2805.00,0.0176
2804.00,0.0171
2803.00,0.0167
2802.00,0.0163
2801.00,0.0160
2800.00,0.0156
2799.00,0.0154
2798.00,0.0151
2797.00,0.0149
2796.00,0.0147
2795.00,0.0146
2794.00,0.0144
2793.00,0.0143
2792.00,0.0141
2791.00,0.0140
2790.00,0.0139
2789.00,0.0137
2788.00,0.0136
2787.00,0.0136
2786.00,0.0135
2785.00,0.0134
2784.00,0.0134
2783.00,0.0133
2782.00,0.0132
2781.00,0.0132
2780.00,0.0131
2779.00,0.0130
2778.00,0.0129
2777.00,0.0129
2776.00,0.0128
2775.00,0.0128
2774.00,0.0127
2773.00,0.0127
2772.00,0.0126
2771.00,0.0126
2770.00,0.0126
2769.00,0.0125
2768.00,0.0125
2767.00,0.0125
2766.00,0.0124
2765.00,0.0124
2764.00,0.0124
2763.00,0.0124
2762.00,0.0123
2761.00,0.0123
2760.00,0.0123
2759.00,0.0123
2758.00,0.0122
2757.00,0.0122
2756.00,0.0122
2755.00,0.0121
2754.00,0.0121
2753.00,0.0121
2752.00,0.0121
2751.00,0.0120
2750.00,0.0120
2749.00,0.0120
2748.00,0.0120
2747.00,0.0120
2746.00,0.0120
2745.00,0.0120
2744.00,0.0120
2743.00,0.0119
2742.00,0.0119
2741.00,0.0119
2740.00,0.0119
2739.00,0.0118
2738.00,0.0118
2737.00,0.0118
2736.00,0.0118
2735.00,0.0118
2734.00,0.0117
2733.00,0.0117
2732.00,0.0117
2731.00,0.0117
2730.00,0.0116
2729.00,0.0116
2728.00,0.0116
2727.00,0.0115
2726.00,0.0115
2725.00,0.0115
2724.00,0.0115
2723.00,0.0115
2722.00,0.0115
2721.00,0.0115
2720.00,0.0115
2719.00,0.0115
2718.00,0.0114
2717.00,0.0114
2716.00,0.0114
2715.00,0.0113
2714.00,0.0113
2713.00,0.0113
2712.00,0.0113
2711.00,0.0112
2710.00,0.0112
2709.00,0.0112
2708.00,0.0112
2707.00,0.0112
2706.00,0.0112
2705.00,0.0112
2704.00,0.0112
2703.00,0.0112
2702.00,0.0111
2701.00,0.0111
2700.00,0.0111
2699.00,0.0111
2698.00,0.0110
2697.00,0.0110
2696.00,0.0110
2695.00,0.0110
2694.00,0.0110
2693.00,0.0110
2692.00,0.0110
2691.00,0.0110
2690.00,0.0110
2689.00,0.0110
2688.00,0.0110
2687.00,0.0110
2686.00,0.0110
2685.00,0.0109
2684.00,0.0109
2683.00,0.0109
2682.00,0.0109
2681.00,0.0109
2680.00,0.0109
2679.00,0.0109
2678.00,0.0109
2677.00,0.0109
2676.00,0.0108
2675.00,0.0108
2674.00,0.0108
2673.00,0.0109
2672.00,0.0109
2671.00,0.0109
2670.00,0.0109
2669.00,0.0109
2668.00,0.0109
2667.00,0.0110
2666.00,0.0110
2665.00,0.0111
2664.00,0.0111
2663.00,0.0111
2662.00,0.0111
2661.00,0.0112
2660.00,0.0112
2659.00,0.0112
2658.00,0.0112
2657.00,0.0112
2656.00,0.0112
2655.00,0.0112
2654.00,0.0112
2653.00,0.0112
2652.00,0.0112
2651.00,0.0112
2650.00,0.0113
2649.00,0.0113
2648.00,0.0113
2647.00,0.0112
2646.00,0.0112
2645.00,0.0112
2644.00,0.0112
2643.00,0.0112
2642.00,0.0112
2641.00,0.0112
2640.00,0.0111
2639.00,0.0111
2638.00,0.0111
2637.00,0.0111
2636.00,0.0111
2635.00,0.0111
2634.00,0.0111
2633.00,0.0111
2632.00,0.0111
2631.00,0.0111
2630.00,0.0111
2629.00,0.0111
2628.00,0.0111
2627.00,0.0111
2626.00,0.0111
2625.00,0.0110
2624.00,0.0110
2623.00,0.0110
2622.00,0.0111
2621.00,0.0111
2620.00,0.0110
2619.00,0.0110
2618.00,0.0110
2617.00,0.0110
2616.00,0.0110
2615.00,0.0110
2614.00,0.0110
2613.00,0.0110
2612.00,0.0110
2611.00,0.0109
2610.00,0.0109
2609.00,0.0109
2608.00,0.0109
2607.00,0.0109
2606.00,0.0109
2605.00,0.0109
2604.00,0.0109
2603.00,0.0109
2602.00,0.0109
2601.00,0.0109
2600.00,0.0109
2599.00,0.0109
2598.00,0.0108
2597.00,0.0108
2596.00,0.0108
2595.00,0.0108
2594.00,0.0108
2593.00,0.0108
2592.00,0.0108
2591.00,0.0108
2590.00,0.0108
2589.00,0.0108
2588.00,0.0107
2587.00,0.0107
2586.00,0.0107
2585.00,0.0107
2584.00,0.0107
2583.00,0.0107
2582.00,0.0107
2581.00,0.0106
2580.00,0.0106
2579.00,0.0105
2578.00,0.0105
2577.00,0.0105
2576.00,0.0105
2575.00,0.0105
2574.00,0.0105
2573.00,0.0105
2572.00,0.0105
2571.00,0.0105
2570.00,0.0104
2569.00,0.0104
2568.00,0.0104
2567.00,0.0104
2566.00,0.0104
2565.00,0.0104
2564.00,0.0104
2563.00,0.0104
2562.00,0.0104
2561.00,0.0104
2560.00,0.0104
2559.00,0.0103
2558.00,0.0103
2557.00,0.0103
2556.00,0.0103
2555.00,0.0103
2554.00,0.0103
2553.00,0.0103
2552.00,0.0103
2551.00,0.0103
2550.00,0.0103
2549.00,0.0103
2548.00,0.0102
2547.00,0.0102
2546.00,0.0102
2545.00,0.0102
2544.00,0.0102
2543.00,0.0102
2542.00,0.0101
2541.00,0.0101
2540.00,0.0101
2539.00,0.0101
2538.00,0.0101
2537.00,0.0101
2536.00,0.0101
2535.00,0.0101
2534.00,0.0101
2533.00,0.0101
2532.00,0.0101
2531.00,0.0101
2530.00,0.0101
2529.00,0.0101
2528.00,0.0101
2527.00,0.0101
2526.00,0.0101
2525.00,0.0100
2524.00,0.0100
2523.00,0.0100
2522.00,0.0100
2521.00,0.0100
2520.00,0.0100
2519.00,0.0100
2518.00,0.0100
2517.00,0.0101
2516.00,0.0101
2515.00,0.0101
2514.00,0.0101
2513.00,0.0100
2512.00,0.0100
2511.00,0.0100
2510.00,0.0100
2509.00,0.0100
2508.00,0.0100
2507.00,0.0100
2506.00,0.0099
2505.00,0.0099
2504.00,0.0100
2503.00,0.0100
2502.00,0.0100
2501.00,0.0099
2500.00,0.0099
2499.00,0.0099
2498.00,0.0099
2497.00,0.0100
2496.00,0.0100
2495.00,0.0100
2494.00,0.0100
2493.00,0.0100
2492.00,0.0100
2491.00,0.0100
2490.00,0.0099
2489.00,0.0099
2488.00,0.0099
2487.00,0.0099
2486.00,0.0099
2485.00,0.0099
2484.00,0.0099
2483.00,0.0099
2482.00,0.0099
2481.00,0.0099
2480.00,0.0099
2479.00,0.0099
2478.00,0.0099
2477.00,0.0099
2476.00,0.0099
2475.00,0.0099
2474.00,0.0099
2473.00,0.0099
2472.00,0.0099
2471.00,0.0099
2470.00,0.0099
2469.00,0.0100
2468.00,0.0100
2467.00,0.0100
2466.00,0.0100
2465.00,0.0100
2464.00,0.0100
2463.00,0.0100
2462.00,0.0100
2461.00,0.0100
2460.00,0.0100
2459.00,0.0100
2458.00,0.0100
2457.00,0.0101
2456.00,0.0101
2455.00,0.0101
2454.00,0.0101
2453.00,0.0101
2452.00,0.0100
2451.00,0.0100
2450.00,0.0100
2449.00,0.0100
2448.00,0.0100
2447.00,0.0100
2446.00,0.0100
2445.00,0.0100
2444.00,0.0099
2443.00,0.0099
2442.00,0.0099
2441.00,0.0099
2440.00,0.0099
2439.00,0.0099
2438.00,0.0099
2437.00,0.0099
2436.00,0.0099
2435.00,0.0099
2434.00,0.0098
2433.00,0.0098
2432.00,0.0098
2431.00,0.0098
2430.00,0.0098
2429.00,0.0098
2428.00,0.0098
2427.00,0.0098
2426.00,0.0099
2425.00,0.0099
2424.00,0.0099
2423.00,0.0099
2422.00,0.0098
2421.00,0.0098
2420.00,0.0098
2419.00,0.0098
2418.00,0.0098
2417.00,0.0098
2416.00,0.0098
2415.00,0.0098
2414.00,0.0098
2413.00,0.0098
2412.00,0.0098
2411.00,0.0098
2410.00,0.0098
2409.00,0.0098
2408.00,0.0097
2407.00,0.0097
2406.00,0.0097
2405.00,0.0097
2404.00,0.0097
2403.00,0.0097
2402.00,0.0097
2401.00,0.0097
2400.00,0.0097
2399.00,0.0097
2398.00,0.0097
2397.00,0.0096
2396.00,0.0096
2395.00,0.0096
2394.00,0.0097
2393.00,0.0097
2392.00,0.0097
2391.00,0.0096
2390.00,0.0096
2389.00,0.0096
2388.00,0.0095
2387.00,0.0095
2386.00,0.0094
2385.00,0.0093
2384.00,0.0092
2383.00,0.0092
2382.00,0.0091
2381.00,0.0091
2380.00,0.0091
2379.00,0.0091
2378.00,0.0091
2377.00,0.0091
2376.00,0.0091
2375.00,0.0092
2374.00,0.0092
2373.00,0.0092
2372.00,0.0092
2371.00,0.0092
2370.00,0.0091
2369.00,0.0091
2368.00,0.0091
2367.00,0.0091
2366.00,0.0091
2365.00,0.0091
2364.00,0.0092
2363.00,0.0092
2362.00,0.0092
2361.00,0.0093
2360.00,0.0093
2359.00,0.0094
2358.00,0.0094
2357.00,0.0094
2356.00,0.0094
2355.00,0.0094
2354.00,0.0093
2353.00,0.0093
2352.00,0.0093
2351.00,0.0093
2350.00,0.0093
2349.00,0.0093
2348.00,0.0093
2347.00,0.0093
2346.00,0.0093
2345.00,0.0094
2344.00,0.0095
2343.00,0.0095
2342.00,0.0096
2341.00,0.0096
2340.00,0.0097
2339.00,0.0097
2338.00,0.0096
2337.00,0.0096
2336.00,0.0096
2335.00,0.0097
2334.00,0.0097
2333.00,0.0097
2332.00,0.0096
2331.00,0.0096
2330.00,0.0097
2329.00,0.0098
2328.00,0.0102
2327.00,0.0105
2326.00,0.0108
2325.00,0.0109
2324.00,0.0108
2323.00,0.0106
2322.00,0.0104
2321.00,0.0103
2320.00,0.0102
2319.00,0.0101
2318.00,0.0101
2317.00,0.0100
2316.00,0.0100
2315.00,0.0099
2314.00,0.0098
2313.00,0.0098
2312.00,0.0097
2311.00,0.0097
2310.00,0.0097
2309.00,0.0098
2308.00,0.0098
2307.00,0.0099
2306.00,0.0099
2305.00,0.0099
2304.00,0.0099
2303.00,0.0099
2302.00,0.0099
2301.00,0.0099
2300.00,0.0100
2299.00,0.0100
2298.00,0.0101
2297.00,0.0102
2296.00,0.0103
2295.00,0.0104
2294.00,0.0105
2293.00,0.0106
2292.00,0.0107
2291.00,0.0107
2290.00,0.0108
2289.00,0.0108
2288.00,0.0108
2287.00,0.0108
2286.00,0.0107
2285.00,0.0107
2284.00,0.0106
2283.00,0.0106
2282.00,0.0106
2281.00,0.0105
2280.00,0.0105
2279.00,0.0105
2278.00,0.0104
2277.00,0.0103
2276.00,0.0102
2275.00,0.0102
2274.00,0.0101
2273.00,0.0101
2272.00,0.0102
2271.00,0.0102
2270.00,0.0102
2269.00,0.0102
2268.00,0.0101
2267.00,0.0101
2266.00,0.0100
2265.00,0.0100
2264.00,0.0099
2263.00,0.0099
2262.00,0.0100
2261.00,0.0100
2260.00,0.0101
2259.00,0.0102
2258.00,0.0102
2257.00,0.0101
2256.00,0.0100
2255.00,0.0099
2254.00,0.0098
2253.00,0.0098
2252.00,0.0098
2251.00,0.0098
2250.00,0.0098
2249.00,0.0097
2248.00,0.0097
2247.00,0.0098
2246.00,0.0098
2245.00,0.0099
2244.00,0.0099
2243.00,0.0100
2242.00,0.0100
2241.00,0.0100
2240.00,0.0099
2239.00,0.0099
2238.00,0.0099
2237.00,0.0098
2236.00,0.0098
2235.00,0.0098
2234.00,0.0098
2233.00,0.0097
2232.00,0.0097
2231.00,0.0097
2230.00,0.0097
2229.00,0.0098
2228.00,0.0098
2227.00,0.0099
2226.00,0.0099
2225.00,0.0099
2224.00,0.0099
2223.00,0.0098
2222.00,0.0098
2221.00,0.0097
2220.00,0.0097
2219.00,0.0097
2218.00,0.0097
2217.00,0.0098
2216.00,0.0098
2215.00,0.0098
2214.00,0.0098
2213.00,0.0098
2212.00,0.0098
2211.00,0.0098
2210.00,0.0098
2209.00,0.0098
2208.00,0.0098
2207.00,0.0098
2206.00,0.0097
2205.00,0.0097
2204.00,0.0097
2203.00,0.0098
2202.00,0.0097
2201.00,0.0097
2200.00,0.0097
2199.00,0.0096
2198.00,0.0096
2197.00,0.0096
2196.00,0.0097
2195.00,0.0098
2194.00,0.0099
2193.00,0.0100
2192.00,0.0100
2191.00,0.0100
2190.00,0.0100
2189.00,0.0099
2188.00,0.0099
2187.00,0.0098
2186.00,0.0097
2185.00,0.0095
2184.00,0.0093
2183.00,0.0092
2182.00,0.0092
2181.00,0.0092
2180.00,0.0094
2179.00,0.0094
2178.00,0.0093
2177.00,0.0091
2176.00,0.0091
2175.00,0.0091
2174.00,0.0093
2173.00,0.0096
2172.00,0.0098
2171.00,0.0100
2170.00,0.0102
2169.00,0.0102
2168.00,0.0102
2167.00,0.0102
2166.00,0.0102
2165.00,0.0103
2164.00,0.0105
2163.00,0.0105
2162.00,0.0100
2161.00,0.0090
2160.00,0.0076
2159.00,0.0066
2158.00,0.0062
2157.00,0.0063
2156.00,0.0066
2155.00,0.0070
2154.00,0.0074
2153.00,0.0077
2152.00,0.0079
2151.00,0.0079
2150.00,0.0079
2149.00,0.0078
2148.00,0.0077
2147.00,0.0076
2146.00,0.0076
2145.00,0.0077
2144.00,0.0078
2143.00,0.0079
2142.00,0.0080
2141.00,0.0081
2140.00,0.0081
2139.00,0.0081
2138.00,0.0081
2137.00,0.0080
2136.00,0.0078
2135.00,0.0077
2134.00,0.0078
2133.00,0.0079
2132.00,0.0080
2131.00,0.0081
2130.00,0.0083
2129.00,0.0084
2128.00,0.0087
2127.00,0.0088
2126.00,0.0089
2125.00,0.0090
2124.00,0.0090
2123.00,0.0090
2122.00,0.0091
2121.00,0.0092
2120.00,0.0092
2119.00,0.0094
2118.00,0.0095
2117.00,0.0096
2116.00,0.0097
2115.00,0.0098
2114.00,0.0098
2113.00,0.0098
2112.00,0.0097
2111.00,0.0096
2110.00,0.0096
2109.00,0.0096
2108.00,0.0097
2107.00,0.0097
2106.00,0.0098
2105.00,0.0098
2104.00,0.0098
2103.00,0.0098
2102.00,0.0097
2101.00,0.0097
2100.00,0.0097
2099.00,0.0096
2098.00,0.0096
2097.00,0.0095
2096.00,0.0094
2095.00,0.0094
2094.00,0.0094
2093.00,0.0095
2092.00,0.0096
2091.00,0.0096
2090.00,0.0097
2089.00,0.0097
2088.00,0.0098
2087.00,0.0098
2086.00,0.0098
2085.00,0.0098
2084.00,0.0098
2083.00,0.0097
2082.00,0.0097
2081.00,0.0098
2080.00,0.0099
2079.00,0.0100
2078.00,0.0100
2077.00,0.0099
2076.00,0.0099
2075.00,0.0098
2074.00,0.0098
2073.00,0.0098
2072.00,0.0098
2071.00,0.0097
2070.00,0.0097
2069.00,0.0096
2068.00,0.0095
2067.00,0.0095
2066.00,0.0095
2065.00,0.0095
2064.00,0.0096
2063.00,0.0096
2062.00,0.0096
2061.00,0.0097
2060.00,0.0097
2059.00,0.0097
2058.00,0.0097
2057.00,0.0096
2056.00,0.0096
2055.00,0.0097
2054.00,0.0100
2053.00,0.0104
2052.00,0.0107
2051.00,0.0107
2050.00,0.0104
2049.00,0.0100
2048.00,0.0097
2047.00,0.0095
2046.00,0.0094
2045.00,0.0094
2044.00,0.0094
2043.00,0.0093
2042.00,0.0093
2041.00,0.0092
2040.00,0.0092
2039.00,0.0091
2038.00,0.0091
2037.00,0.0090
2036.00,0.0088
2035.00,0.0086
2034.00,0.0083
2033.00,0.0082
2032.00,0.0082
2031.00,0.0082
2030.00,0.0083
2029.00,0.0083
2028.00,0.0082
2027.00,0.0081
2026.00,0.0081
2025.00,0.0080
2024.00,0.0080
2023.00,0.0079
2022.00,0.0079
2021.00,0.0079
2020.00,0.0081
2019.00,0.0083
2018.00,0.0084
2017.00,0.0084
2016.00,0.0083
2015.00,0.0082
2014.00,0.0082
2013.00,0.0081
2012.00,0.0080
2011.00,0.0080
2010.00,0.0080
2009.00,0.0081
2008.00,0.0081
2007.00,0.0081
2006.00,0.0080
2005.00,0.0081
2004.00,0.0081
2003.00,0.0082
2002.00,0.0084
2001.00,0.0085
2000.00,0.0087
1999.00,0.0088
1998.00,0.0088
1997.00,0.0088
1996.00,0.0088
1995.00,0.0088
1994.00,0.0087
1993.00,0.0087
1992.00,0.0087
1991.00,0.0088
1990.00,0.0089
1989.00,0.0090
1988.00,0.0090
1987.00,0.0091
1986.00,0.0092
1985.00,0.0093
1984.00,0.0095
1983.00,0.0098
1982.00,0.0100
1981.00,0.0102
1980.00,0.0100
1979.00,0.0096
1978.00,0.0091
1977.00,0.0086
1976.00,0.0083
1975.00,0.0081
1974.00,0.0080
1973.00,0.0080
1972.00,0.0081
1971.00,0.0081
1970.00,0.0082
1969.00,0.0083
1968.00,0.0083
1967.00,0.0082
1966.00,0.0081
1965.00,0.0081
1964.00,0.0081
1963.00,0.0081
1962.00,0.0081
1961.00,0.0080
1960.00,0.0079
1959.00,0.0080
1958.00,0.0081
1957.00,0.0084
1956.00,0.0086
1955.00,0.0088
1954.00,0.0089
1953.00,0.0088
1952.00,0.0087
1951.00,0.0086
1950.00,0.0086
1949.00,0.0086
1948.00,0.0086
1947.00,0.0086
1946.00,0.0085
1945.00,0.0085
1944.00,0.0085
1943.00,0.0085
1942.00,0.0085
1941.00,0.0086
1940.00,0.0087
1939.00,0.0088
1938.00,0.0087
1937.00,0.0087
1936.00,0.0087
1935.00,0.0087
1934.00,0.0087
1933.00,0.0087
1932.00,0.0087
1931.00,0.0087
1930.00,0.0087
1929.00,0.0087
1928.00,0.0087
1927.00,0.0088
1926.00,0.0089
1925.00,0.0089
1924.00,0.0090
1923.00,0.0091
1922.00,0.0092
1921.00,0.0092
1920.00,0.0091
1919.00,0.0090
1918.00,0.0090
1917.00,0.0090
1916.00,0.0090
1915.00,0.0090
1914.00,0.0090
1913.00,0.0090
1912.00,0.0090
1911.00,0.0090
1910.00,0.0089
1909.00,0.0089
1908.00,0.0088
1907.00,0.0089
1906.00,0.0089
1905.00,0.0090
1904.00,0.0090
1903.00,0.0090
1902.00,0.0090
1901.00,0.0090
1900.00,0.0091
1899.00,0.0091
1898.00,0.0091
1897.00,0.0090
1896.00,0.0090
1895.00,0.0090
1894.00,0.0090
1893.00,0.0090
1892.00,0.0090
1891.00,0.0090
1890.00,0.0090
1889.00,0.0090
1888.00,0.0090
1887.00,0.0090
1886.00,0.0090
1885.00,0.0090
1884.00,0.0090
1883.00,0.0090
1882.00,0.0091
1881.00,0.0090
1880.00,0.0090
1879.00,0.0090
1878.00,0.0090
1877.00,0.0090
1876.00,0.0090
1875.00,0.0090
1874.00,0.0090
1873.00,0.0091
1872.00,0.0091
1871.00,0.0091
1870.00,0.0091
1869.00,0.0091
1868.00,0.0092
1867.00,0.0092
1866.00,0.0093
1865.00,0.0093
1864.00,0.0093
1863.00,0.0093
1862.00,0.0093
1861.00,0.0092
1860.00,0.0092
1859.00,0.0092
1858.00,0.0092
1857.00,0.0092
1856.00,0.0092
1855.00,0.0093
1854.00,0.0093
1853.00,0.0093
1852.00,0.0093
1851.00,0.0092
1850.00,0.0092
1849.00,0.0092
1848.00,0.0092
1847.00,0.0092
1846.00,0.0093
1845.00,0.0093
1844.00,0.0093
1843.00,0.0093
1842.00,0.0093
1841.00,0.0093
1840.00,0.0093
1839.00,0.0093
1838.00,0.0093
1837.00,0.0093
1836.00,0.0092
1835.00,0.0092
1834.00,0.0092
1833.00,0.0093
1832.00,0.0093
1831.00,0.0093
1830.00,0.0093
1829.00,0.0093
1828.00,0.0094
1827.00,0.0094
1826.00,0.0094
1825.00,0.0095
1824.00,0.0095
1823.00,0.0095
1822.00,0.0094
1821.00,0.0094
1820.00,0.0094
1819.00,0.0093
1818.00,0.0092
1817.00,0.0092
1816.00,0.0093
1815.00,0.0093
1814.00,0.0094
1813.00,0.0094
1812.00,0.0094
1811.00,0.0095
1810.00,0.0095
1809.00,0.0096
1808.00,0.0096
1807.00,0.0097
1806.00,0.0097
1805.00,0.0097
1804.00,0.0097
1803.00,0.0096
1802.00,0.0096
1801.00,0.0096
1800.00,0.0096
1799.00,0.0097
1798.00,0.0097
1797.00,0.0097
1796.00,0.0097
1795.00,0.0097
1794.00,0.0096
1793.00,0.0097
1792.00,0.0097
1791.00,0.0097
1790.00,0.0097
1789.00,0.0097
1788.00,0.0097
1787.00,0.0097
1786.00,0.0097
1785.00,0.0097
1784.00,0.0097
1783.00,0.0097
1782.00,0.0097
1781.00,0.0097
1780.00,0.0098
1779.00,0.0098
1778.00,0.0097
1777.00,0.0097
1776.00,0.0097
1775.00,0.0097
1774.00,0.0097
1773.00,0.0097
1772.00,0.0098
1771.00,0.0098
1770.00,0.0098
1769.00,0.0098
1768.00,0.0098
1767.00,0.0098
1766.00,0.0098
1765.00,0.0098
1764.00,0.0098
1763.00,0.0098
1762.00,0.0098
1761.00,0.0098
1760.00,0.0098
1759.00,0.0099
1758.00,0.0099
1757.00,0.0099
1756.00,0.0099
1755.00,0.0099
1754.00,0.0098
1753.00,0.0098
1752.00,0.0098
1751.00,0.0098
1750.00,0.0098
1749.00,0.0099
1748.00,0.0099
1747.00,0.0099
1746.00,0.0099
1745.00,0.0099
1744.00,0.0099
1743.00,0.0100
1742.00,0.0100
1741.00,0.0100
1740.00,0.0100
1739.00,0.0100
1738.00,0.0100
1737.00,0.0100
1736.00,0.0100
1735.00,0.0100
1734.00,0.0101
1733.00,0.0101
1732.00,0.0101
1731.00,0.0101
1730.00,0.0101
1729.00,0.0101
1728.00,0.0101
1727.00,0.0100
1726.00,0.0101
1725.00,0.0101
1724.00,0.0101
1723.00,0.0100
1722.00,0.0100
1721.00,0.0100
1720.00,0.0099
1719.00,0.0098
1718.00,0.0097
1717.00,0.0097
1716.00,0.0097
1715.00,0.0097
1714.00,0.0097
1713.00,0.0097
1712.00,0.0096
1711.00,0.0096
1710.00,0.0095
1709.00,0.0094
1708.00,0.0093
1707.00,0.0092
1706.00,0.0091
1705.00,0.0090
1704.00,0.0088
1703.00,0.0087
1702.00,0.0085
1701.00,0.0083
1700.00,0.0079
1699.00,0.0076
1698.00,0.0073
1697.00,0.0069
1696.00,0.0065
1695.00,0.0059
1694.00,0.0055
1693.00,0.0051
1692.00,0.0047
1691.00,0.0042
1690.00,0.0038
1689.00,0.0033
1688.00,0.0029
1687.00,0.0026
1686.00,0.0022
1685.00,0.0018
1684.00,0.0014
1683.00,0.0011
1682.00,0.0009
1681.00,0.0009
1680.00,0.0008
1679.00,0.0007
1678.00,0.0007
1677.00,0.0008
1676.00,0.0008
1675.00,0.0009
1674.00,0.0009
1673.00,0.0010
1672.00,0.0011
1671.00,0.0011
1670.00,0.0012
1669.00,0.0013
1668.00,0.0014
1667.00,0.0014
1666.00,0.0015
1665.00,0.0016
1664.00,0.0017
1663.00,0.0019
1662.00,0.0021
1661.00,0.0023
1660.00,0.0025
1659.00,0.0028
1658.00,0.0031
1657.00,0.0034
1656.00,0.0036
1655.00,0.0040
1654.00,0.0045
1653.00,0.0052
1652.00,0.0058
1651.00,0.0062
1650.00,0.0065
1649.00,0.0069
1648.00,0.0073
1647.00,0.0079
1646.00,0.0084
1645.00,0.0088
1644.00,0.0092
1643.00,0.0095
1642.00,0.0098
1641.00,0.0100
1640.00,0.0103
1639.00,0.0105
1638.00,0.0106
1637.00,0.0108
1636.00,0.0111
1635.00,0.0113
1634.00,0.0115
1633.00,0.0115
1632.00,0.0116
1631.00,0.0116
1630.00,0.0117
1629.00,0.0117
1628.00,0.0118
1627.00,0.0118
1626.00,0.0118
1625.00,0.0118
1624.00,0.0119
1623.00,0.0119
1622.00,0.0119
1621.00,0.0119
1620.00,0.0118
1619.00,0.0118
1618.00,0.0117
1617.00,0.0117
1616.00,0.0117
1615.00,0.0117
1614.00,0.0117
1613.00,0.0117
1612.00,0.0117
1611.00,0.0117
1610.00,0.0116
1609.00,0.0116
1608.00,0.0116
1607.00,0.0116
1606.00,0.0115
1605.00,0.0115
1604.00,0.0114
1603.00,0.0113
1602.00,0.0112
1601.00,0.0111
1600.00,0.0111
1599.00,0.0110
1598.00,0.0109
1597.00,0.0109
1596.00,0.0109
1595.00,0.0108
1594.00,0.0108
1593.00,0.0109
1592.00,0.0110
1591.00,0.0110
1590.00,0.0111
1589.00,0.0111
1588.00,0.0112
1587.00,0.0112
1586.00,0.0112
1585.00,0.0112
1584.00,0.0112
1583.00,0.0112
1582.00,0.0112
1581.00,0.0112
1580.00,0.0112
1579.00,0.0112
1578.00,0.0111
1577.00,0.0111
1576.00,0.0111
1575.00,0.0111
1574.00,0.0111
1573.00,0.0111
1572.00,0.0111
1571.00,0.0111
1570.00,0.0111
1569.00,0.0111
1568.00,0.0111
1567.00,0.0111
1566.00,0.0111
1565.00,0.0111
1564.00,0.0111
1563.00,0.0111
1562.00,0.0111
1561.00,0.0111
1560.00,0.0111
1559.00,0.0110
1558.00,0.0110
1557.00,0.0110
1556.00,0.0110
1555.00,0.0110
1554.00,0.0109
1553.00,0.0109
1552.00,0.0108
1551.00,0.0108
1550.00,0.0108
1549.00,0.0108
1548.00,0.0108
1547.00,0.0108
1546.00,0.0108
1545.00,0.0109
1544.00,0.0109
1543.00,0.0108
1542.00,0.0108
1541.00,0.0108
1540.00,0.0108
1539.00,0.0108
1538.00,0.0108
1537.00,0.0108
1536.00,0.0108
1535.00,0.0108
1534.00,0.0107
1533.00,0.0107
1532.00,0.0107
1531.00,0.0107
1530.00,0.0107
1529.00,0.0107
1528.00,0.0107
1527.00,0.0107
1526.00,0.0107
1525.00,0.0107
1524.00,0.0107
1523.00,0.0107
1522.00,0.0107
1521.00,0.0107
1520.00,0.0107
1519.00,0.0107
1518.00,0.0107
1517.00,0.0107
1516.00,0.0107
1515.00,0.0107
1514.00,0.0107
1513.00,0.0107
1512.00,0.0107
1511.00,0.0107
1510.00,0.0107
1509.00,0.0107
1508.00,0.0107
1507.00,0.0107
1506.00,0.0107
1505.00,0.0106
1504.00,0.0106
1503.00,0.0105
1502.00,0.0105
1501.00,0.0104
1500.00,0.0104
1499.00,0.0104
1498.00,0.0103
1497.00,0.0103
1496.00,0.0104
1495.00,0.0104
1494.00,0.0105
1493.00,0.0106
1492.00,0.0107
1491.00,0.0109
1490.00,0.0111
1489.00,0.0115
1488.00,0.0118
1487.00,0.0122
1486.00,0.0126
1485.00,0.0130
1484.00,0.0135
1483.00,0.0140
1482.00,0.0146
1481.00,0.0152
1480.00,0.0159
1479.00,0.0165
1478.00,0.0172
1477.00,0.0179
1476.00,0.0186
1475.00,0.0192
1474.00,0.0200
1473.00,0.0207
1472.00,0.0215
1471.00,0.0221
1470.00,0.0224
1469.00,0.0226
1468.00,0.0228
1467.00,0.0229
1466.00,0.0231
1465.00,0.0233
1464.00,0.0236
1463.00,0.0239
1462.00,0.0241
1461.00,0.0243
1460.00,0.0245
1459.00,0.0249
1458.00,0.0255
1457.00,0.0262
1456.00,0.0269
1455.00,0.0272
1454.00,0.0273
1453.00,0.0273
1452.00,0.0273
1451.00,0.0272
1450.00,0.0270
1449.00,0.0267
1448.00,0.0263
1447.00,0.0258
1446.00,0.0253
1445.00,0.0246
1444.00,0.0239
1443.00,0.0231
1442.00,0.0223
1441.00,0.0214
1440.00,0.0206
1439.00,0.0198
1438.00,0.0190
1437.00,0.0182
1436.00,0.0174
1435.00,0.0169
1434.00,0.0164
1433.00,0.0160
1432.00,0.0156
1431.00,0.0153
1430.00,0.0151
1429.00,0.0150
1428.00,0.0150
1427.00,0.0150
1426.00,0.0150
1425.00,0.0152
1424.00,0.0154
1423.00,0.0158
1422.00,0.0162
1421.00,0.0166
1420.00,0.0172
1419.00,0.0181
1418.00,0.0189
1417.00,0.0196
1416.00,0.0201
1415.00,0.0205
1414.00,0.0209
1413.00,0.0213
1412.00,0.0216
1411.00,0.0218
1410.00,0.0220
1409.00,0.0222
1408.00,0.0223
1407.00,0.0223
1406.00,0.0223
1405.00,0.0223
1404.00,0.0223
1403.00,0.0222
1402.00,0.0221
1401.00,0.0220
1400.00,0.0218
1399.00,0.0217
1398.00,0.0217
1397.00,0.0216
1396.00,0.0216
1395.00,0.0216
1394.00,0.0217
1393.00,0.0219
1392.00,0.0220
1391.00,0.0222
1390.00,0.0225
1389.00,0.0228
1388.00,0.0233
1387.00,0.0239
1386.00,0.0245
1385.00,0.0252
1384.00,0.0258
1383.00,0.0264
1382.00,0.0271
1381.00,0.0278
1380.00,0.0284
1379.00,0.0290
1378.00,0.0295
1377.00,0.0299
1376.00,0.0303
1375.00,0.0306
1374.00,0.0309
1373.00,0.0311
1372.00,0.0311
1371.00,0.0310
1370.00,0.0308
1369.00,0.0305
1368.00,0.0301
1367.00,0.0296
1366.00,0.0290
1365.00,0.0284
1364.00,0.0278
1363.00,0.0272
1362.00,0.0266
1361.00,0.0261
1360.00,0.0255
1359.00,0.0251
1358.00,0.0247
1357.00,0.0243
1356.00,0.0241
1355.00,0.0239
1354.00,0.0238
1353.00,0.0238
1352.00,0.0238
1351.00,0.0239
1350.00,0.0240
1349.00,0.0242
1348.00,0.0244
1347.00,0.0246
1346.00,0.0249
1345.00,0.0251
1344.00,0.0254
1343.00,0.0256
1342.00,0.0258
1341.00,0.0261
1340.00,0.0264
1339.00,0.0266
1338.00,0.0268
1337.00,0.0269
1336.00,0.0270
1335.00,0.0270
1334.00,0.0269
1333.00,0.0269
1332.00,0.0267
1331.00,0.0266
1330.00,0.0266
1329.00,0.0265
1328.00,0.0264
1327.00,0.0264
1326.00,0.0264
1325.00,0.0265
1324.00,0.0266
1323.00,0.0267
1322.00,0.0269
1321.00,0.0271
1320.00,0.0273
1319.00,0.0276
1318.00,0.0279
1317.00,0.0282
1316.00,0.0284
1315.00,0.0286
1314.00,0.0288
1313.00,0.0289
1312.00,0.0290
1311.00,0.0289
1310.00,0.0288
1309.00,0.0285
1308.00,0.0282
1307.00,0.0278
1306.00,0.0274
1305.00,0.0269
1304.00,0.0263
1303.00,0.0258
1302.00,0.0252
1301.00,0.0246
1300.00,0.0240
1299.00,0.0234
1298.00,0.0228
1297.00,0.0221
1296.00,0.0215
1295.00,0.0209
1294.00,0.0204
1293.00,0.0199
1292.00,0.0195
1291.00,0.0192
1290.00,0.0190
1289.00,0.0188
1288.00,0.0187
1287.00,0.0187
1286.00,0.0187
1285.00,0.0187
1284.00,0.0187
1283.00,0.0187
1282.00,0.0186
1281.00,0.0185
1280.00,0.0183
1279.00,0.0181
1278.00,0.0179
1277.00,0.0178
1276.00,0.0176
1275.00,0.0174
1274.00,0.0174
1273.00,0.0173
1272.00,0.0174
1271.00,0.0175
1270.00,0.0176
1269.00,0.0178
1268.00,0.0180
1267.00,0.0181
1266.00,0.0182
1265.00,0.0183
1264.00,0.0183
1263.00,0.0182
1262.00,0.0181
1261.00,0.0180
1260.00,0.0179
1259.00,0.0178
1258.00,0.0176
1257.00,0.0175
1256.00,0.0173
1255.00,0.0171
1254.00,0.0170
1253.00,0.0169
1252.00,0.0168
1251.00,0.0167
1250.00,0.0166
1249.00,0.0166
1248.00,0.0165
1247.00,0.0165
1246.00,0.0165
1245.00,0.0165
1244.00,0.0165
1243.00,0.0165
1242.00,0.0165
1241.00,0.0164
1240.00,0.0164
1239.00,0.0163
1238.00,0.0163
1237.00,0.0162
1236.00,0.0161
1235.00,0.0161
1234.00,0.0160
1233.00,0.0160
1232.00,0.0159
1231.00,0.0159
1230.00,0.0159
1229.00,0.0160
1228.00,0.0161
1227.00,0.0163
1226.00,0.0165
1225.00,0.0168
1224.00,0.0172
1223.00,0.0177
1222.00,0.0183
1221.00,0.0190
1220.00,0.0197
1219.00,0.0205
1218.00,0.0214
1217.00,0.0224
1216.00,0.0233
1215.00,0.0241
1214.00,0.0249
1213.00,0.0256
1212.00,0.0262
1211.00,0.0268
1210.00,0.0273
1209.00,0.0277
1208.00,0.0281
1207.00,0.0286
1206.00,0.0290
1205.00,0.0295
1204.00,0.0300
1203.00,0.0305
1202.00,0.0310
1201.00,0.0314
1200.00,0.0318
1199.00,0.0320
1198.00,0.0323
1197.00,0.0324
1196.00,0.0326
1195.00,0.0327
1194.00,0.0328
1193.00,0.0329
1192.00,0.0330
1191.00,0.0331
1190.00,0.0332
1189.00,0.0332
1188.00,0.0332
1187.00,0.0331
1186.00,0.0329
1185.00,0.0327
1184.00,0.0325
1183.00,0.0323
1182.00,0.0321
1181.00,0.0319
1180.00,0.0318
1179.00,0.0317
1178.00,0.0318
1177.00,0.0319
1176.00,0.0321
1175.00,0.0324
1174.00,0.0328
1173.00,0.0332
1172.00,0.0338
1171.00,0.0346
1170.00,0.0354
1169.00,0.0365
1168.00,0.0376
1167.00,0.0388
1166.00,0.0402
1165.00,0.0417
1164.00,0.0432
1163.00,0.0448
1162.00,0.0465
1161.00,0.0482
1160.00,0.0499
1159.00,0.0517
1158.00,0.0534
1157.00,0.0551
1156.00,0.0567
1155.00,0.0582
1154.00,0.0596
1153.00,0.0609
1152.00,0.0620
1151.00,0.0630
1150.00,0.0639
1149.00,0.0646
1148.00,0.0653
1147.00,0.0659
1146.00,0.0665
1145.00,0.0671
1144.00,0.0677
1143.00,0.0684
1142.00,0.0693
1141.00,0.0703
1140.00,0.0714
1139.00,0.0727
1138.00,0.0741
1137.00,0.0757
1136.00,0.0775
1135.00,0.0794
1134.00,0.0816
1133.00,0.0838
1132.00,0.0862
1131.00,0.0886
1130.00,0.0911
1129.00,0.0935
1128.00,0.0959
1127.00,0.0982
1126.00,0.1005
1125.00,0.1026
1124.00,0.1046
1123.00,0.1066
1122.00,0.1085
1121.00,0.1103
1120.00,0.1121
1119.00,0.1137
1118.00,0.1152
1117.00,0.1167
1116.00,0.1180
1115.00,0.1192
1114.00,0.1203
1113.00,0.1212
1112.00,0.1221
1111.00,0.1229
1110.00,0.1236
1109.00,0.1242
1108.00,0.1247
1107.00,0.1251
1106.00,0.1255
1105.00,0.1259
1104.00,0.1263
1103.00,0.1266
1102.00,0.1269
1101.00,0.1272
1100.00,0.1275
1099.00,0.1277
1098.00,0.1279
1097.00,0.1281
1096.00,0.1283
1095.00,0.1286
1094.00,0.1288
1093.00,0.1292
1092.00,0.1297
1091.00,0.1303
1090.00,0.1311
1089.00,0.1322
1088.00,0.1334
1087.00,0.1348
1086.00,0.1364
1085.00,0.1382
1084.00,0.1401
1083.00,0.1421
1082.00,0.1442
1081.00,0.1464
1080.00,0.1486
1079.00,0.1507
1078.00,0.1529
1077.00,0.1550
1076.00,0.1571
1075.00,0.1592
1074.00,0.1613
1073.00,0.1633
1072.00,0.1652
1071.00,0.1671
1070.00,0.1690
1069.00,0.1709
1068.00,0.1728
1067.00,0.1746
1066.00,0.1765
1065.00,0.1783
1064.00,0.1800
1063.00,0.1817
1062.00,0.1832
1061.00,0.1847
1060.00,0.1859
1059.00,0.1870
1058.00,0.1879
1057.00,0.1887
1056.00,0.1893
1055.00,0.1897
1054.00,0.1899
1053.00,0.1899
1052.00,0.1899
1051.00,0.1896
1050.00,0.1892
1049.00,0.1887
1048.00,0.1880
1047.00,0.1871
1046.00,0.1861
1045.00,0.1849
1044.00,0.1837
1043.00,0.1823
1042.00,0.1809
1041.00,0.1794
1040.00,0.1778
1039.00,0.1763
1038.00,0.1748
1037.00,0.1734
1036.00,0.1719
1035.00,0.1705
1034.00,0.1691
1033.00,0.1677
1032.00,0.1664
1031.00,0.1650
1030.00,0.1636
1029.00,0.1622
1028.00,0.1609
1027.00,0.1596
1026.00,0.1584
1025.00,0.1571
1024.00,0.1558
1023.00,0.1544
1022.00,0.1531
1021.00,0.1518
1020.00,0.1506
1019.00,0.1493
1018.00,0.1481
1017.00,0.1469
1016.00,0.1456
1015.00,0.1444
1014.00,0.1431
1013.00,0.1418
1012.00,0.1404
1011.00,0.1389
1010.00,0.1373
1009.00,0.1355
1008.00,0.1335
1007.00,0.1314
1006.00,0.1292
1005.00,0.1269
1004.00,0.1246
1003.00,0.1222
1002.00,0.1199
1001.00,0.1175
1000.00,0.1151
999.00,0.1126
998.00,0.1102
997.00,0.1079
996.00,0.1055
995.00,0.1033
994.00,0.1011
993.00,0.0989
992.00,0.0967
991.00,0.0946
990.00,0.0925
989.00,0.0905
988.00,0.0886
987.00,0.0867
986.00,0.0849
985.00,0.0832
984.00,0.0815
983.00,0.0799
982.00,0.0784
981.00,0.0770
980.00,0.0757
979.00,0.0745
978.00,0.0734
977.00,0.0723
976.00,0.0713
975.00,0.0705
974.00,0.0697
973.00,0.0691
972.00,0.0685
971.00,0.0680
970.00,0.0677
969.00,0.0676
968.00,0.0677
967.00,0.0680
966.00,0.0685
965.00,0.0693
964.00,0.0702
963.00,0.0713
962.00,0.0725
961.00,0.0737
960.00,0.0751
959.00,0.0765
958.00,0.0780
957.00,0.0796
956.00,0.0811
955.00,0.0827
954.00,0.0842
953.00,0.0856
952.00,0.0870
951.00,0.0884
950.00,0.0897
949.00,0.0908
948.00,0.0918
947.00,0.0927
946.00,0.0935
945.00,0.0939
944.00,0.0941
943.00,0.0939
942.00,0.0934
941.00,0.0926
940.00,0.0915
939.00,0.0901
938.00,0.0886
937.00,0.0871
936.00,0.0855
935.00,0.0841
934.00,0.0830
933.00,0.0820
932.00,0.0812
931.00,0.0806
930.00,0.0800
929.00,0.0795
928.00,0.0790
927.00,0.0784
926.00,0.0779
925.00,0.0772
924.00,0.0765
923.00,0.0757
922.00,0.0748
921.00,0.0739
920.00,0.0729
919.00,0.0719
918.00,0.0709
917.00,0.0700
916.00,0.0690
915.00,0.0681
914.00,0.0674
913.00,0.0666
912.00,0.0659
911.00,0.0653
910.00,0.0647
909.00,0.0641
908.00,0.0635
907.00,0.0628
906.00,0.0622
905.00,0.0616
904.00,0.0608
903.00,0.0601
902.00,0.0595
901.00,0.0588
900.00,0.0582
899.00,0.0577
898.00,0.0573
897.00,0.0570
896.00,0.0568
895.00,0.0566
894.00,0.0565
893.00,0.0563
892.00,0.0561
891.00,0.0558
890.00,0.0555
889.00,0.0552
888.00,0.0547
887.00,0.0542
886.00,0.0536
885.00,0.0529
884.00,0.0520
883.00,0.0510
882.00,0.0500
881.00,0.0490
880.00,0.0480
879.00,0.0470
878.00,0.0462
877.00,0.0454
876.00,0.0446
875.00,0.0439
874.00,0.0433
873.00,0.0427
872.00,0.0422
871.00,0.0418
870.00,0.0414
869.00,0.0411
868.00,0.0408
867.00,0.0405
866.00,0.0404
865.00,0.0402
864.00,0.0401
863.00,0.0399
862.00,0.0398
861.00,0.0398
860.00,0.0397
859.00,0.0398
858.00,0.0398
857.00,0.0399
856.00,0.0398
855.00,0.0398
854.00,0.0398
853.00,0.0398
852.00,0.0397
851.00,0.0397
850.00,0.0396
849.00,0.0395
848.00,0.0393
847.00,0.0392
846.00,0.0391
845.00,0.0389
844.00,0.0387
843.00,0.0386
842.00,0.0385
841.00,0.0384
840.00,0.0383
839.00,0.0382
838.00,0.0381
837.00,0.0379
836.00,0.0376
835.00,0.0373
834.00,0.0370
833.00,0.0367
832.00,0.0365
831.00,0.0363
830.00,0.0361
829.00,0.0360
828.00,0.0359
827.00,0.0359
826.00,0.0359
825.00,0.0359
824.00,0.0359
823.00,0.0359
822.00,0.0360
821.00,0.0360
820.00,0.0360
819.00,0.0359
818.00,0.0359
817.00,0.0358
816.00,0.0356
815.00,0.0355
814.00,0.0354
813.00,0.0353
812.00,0.0351
811.00,0.0350
810.00,0.0349
809.00,0.0349
808.00,0.0347
807.00,0.0346
806.00,0.0345
805.00,0.0344
804.00,0.0342
803.00,0.0340
802.00,0.0339
801.00,0.0337
800.00,0.0336
799.00,0.0334
798.00,0.0334
797.00,0.0333
796.00,0.0331
795.00,0.0330
794.00,0.0329
793.00,0.0328
792.00,0.0327
791.00,0.0327
790.00,0.0326
789.00,0.0326
788.00,0.0325
787.00,0.0324
786.00,0.0323
785.00,0.0323
784.00,0.0322
783.00,0.0321
782.00,0.0321
781.00,0.0321
780.00,0.0321
779.00,0.0320
778.00,0.0319
777.00,0.0319
776.00,0.0318
775.00,0.0318
774.00,0.0318
773.00,0.0318
772.00,0.0317
771.00,0.0317
770.00,0.0317
769.00,0.0317
768.00,0.0316
767.00,0.0316
766.00,0.0316
765.00,0.0316
764.00,0.0315
763.00,0.0315
762.00,0.0315
761.00,0.0314
760.00,0.0314
759.00,0.0313
758.00,0.0313
757.00,0.0313
756.00,0.0312
755.00,0.0312
754.00,0.0312
753.00,0.0313
752.00,0.0313
751.00,0.0313
750.00,0.0313
749.00,0.0313
748.00,0.0312
747.00,0.0312
746.00,0.0313
745.00,0.0313
744.00,0.0312
743.00,0.0312
742.00,0.0313
741.00,0.0313
740.00,0.0313
739.00,0.0314
738.00,0.0314
737.00,0.0315
736.00,0.0314
735.00,0.0314
734.00,0.0314
733.00,0.0314
732.00,0.0314
731.00,0.0315
730.00,0.0316
729.00,0.0316
728.00,0.0316
727.00,0.0316
726.00,0.0317
725.00,0.0318
724.00,0.0319
723.00,0.0321
722.00,0.0323
721.00,0.0324
720.00,0.0326
719.00,0.0328
718.00,0.0331
717.00,0.0333
716.00,0.0335
715.00,0.0337
714.00,0.0340
713.00,0.0342
712.00,0.0344
711.00,0.0345
710.00,0.0347
709.00,0.0348
708.00,0.0348
707.00,0.0348
706.00,0.0349
705.00,0.0350
704.00,0.0351
703.00,0.0351
702.00,0.0352
701.00,0.0353
700.00,0.0352
699.00,0.0351
698.00,0.0351
697.00,0.0351
696.00,0.0350
695.00,0.0350
694.00,0.0350
693.00,0.0350
692.00,0.0350
691.00,0.0350
690.00,0.0351
689.00,0.0352
688.00,0.0353
687.00,0.0354
686.00,0.0357
685.00,0.0360
684.00,0.0363
683.00,0.0367
682.00,0.0373
681.00,0.0379
680.00,0.0386
679.00,0.0394
678.00,0.0404
677.00,0.0415
676.00,0.0425
675.00,0.0435
674.00,0.0444
673.00,0.0454
672.00,0.0461
671.00,0.0468
670.00,0.0474
669.00,0.0484
668.00,0.0496
667.00,0.0506
666.00,0.0510
665.00,0.0511
664.00,0.0511
663.00,0.0512
662.00,0.0514
661.00,0.0517
660.00,0.0518
659.00,0.0519
658.00,0.0520
657.00,0.0520
656.00,0.0520
655.00,0.0520
654.00,0.0520
653.00,0.0520
652.00,0.0520
651.00,0.0519
650.00,0.0520
649.00,0.0520
648.00,0.0519
647.00,0.0519
646.00,0.0519
645.00,0.0520
644.00,0.0520
643.00,0.0520
642.00,0.0521
641.00,0.0522
640.00,0.0523
639.00,0.0525
638.00,0.0528
637.00,0.0530
636.00,0.0533
635.00,0.0535
634.00,0.0538
633.00,0.0542
632.00,0.0545
631.00,0.0549
630.00,0.0553
629.00,0.0556
628.00,0.0559
627.00,0.0563
626.00,0.0569
625.00,0.0574
624.00,0.0579
623.00,0.0583
622.00,0.0587
621.00,0.0592
620.00,0.0596
619.00,0.0600
618.00,0.0605
617.00,0.0610
616.00,0.0615
615.00,0.0618
614.00,0.0622
613.00,0.0625
612.00,0.0627
611.00,0.0629
610.00,0.0631
609.00,0.0633
608.00,0.0635
607.00,0.0637
606.00,0.0638
605.00,0.0639
604.00,0.0639
603.00,0.0638
602.00,0.0639
601.00,0.0641
600.00,0.0642
599.00,0.0643
598.00,0.0645
597.00,0.0646
596.00,0.0646
595.00,0.0646
594.00,0.0648
593.00,0.0651
592.00,0.0653
591.00,0.0656
590.00,0.0659
589.00,0.0663
588.00,0.0665
587.00,0.0668
586.00,0.0671
585.00,0.0675
584.00,0.0678
583.00,0.0681
582.00,0.0685
581.00,0.0688
580.00,0.0691
579.00,0.0694
578.00,0.0699
577.00,0.0705
576.00,0.0709
575.00,0.0714
574.00,0.0719
573.00,0.0722
572.00,0.0724
571.00,0.0727
570.00,0.0730
569.00,0.0733
568.00,0.0734
567.00,0.0736
566.00,0.0739
565.00,0.0742
564.00,0.0743
563.00,0.0742
562.00,0.0742
561.00,0.0742
560.00,0.0740
559.00,0.0738
558.00,0.0738
557.00,0.0736
556.00,0.0734
555.00,0.0733
554.00,0.0734
553.00,0.0736
552.00,0.0736
551.00,0.0735
550.00,0.0735
549.00,0.0735
548.00,0.0734
547.00,0.0735
546.00,0.0737
545.00,0.0739
544.00,0.0739
543.00,0.0739
542.00,0.0739
541.00,0.0739
540.00,0.0736
539.00,0.0734
538.00,0.0735
537.00,0.0735
536.00,0.0735
535.00,0.0736
534.00,0.0738
533.00,0.0740
532.00,0.0740
531.00,0.0740
530.00,0.0742
529.00,0.0744
528.00,0.0743
527.00,0.0742
526.00,0.0743
525.00,0.0743
524.00,0.0743
523.00,0.0744
522.00,0.0748
521.00,0.0750
520.00,0.0750
519.00,0.0750
518.00,0.0752
517.00,0.0754
516.00,0.0755
515.00,0.0755
514.00,0.0756
513.00,0.0757
512.00,0.0756
511.00,0.0758
510.00,0.0762
509.00,0.0764
508.00,0.0763
507.00,0.0762
506.00,0.0762
505.00,0.0763
504.00,0.0762
503.00,0.0763
502.00,0.0766
501.00,0.0768
500.00,0.0767
499.00,0.0766
498.00,0.0767
497.00,0.0768
496.00,0.0768
495.00,0.0768
494.00,0.0770
493.00,0.0771
492.00,0.0769
491.00,0.0769
490.00,0.0771
489.00,0.0772
488.00,0.0771
487.00,0.0772
486.00,0.0778
485.00,0.0784
484.00,0.0788
483.00,0.0790
482.00,0.0793
481.00,0.0794
480.00,0.0792
479.00,0.0790
478.00,0.0793
477.00,0.0797
476.00,0.0799
475.00,0.0801
474.00,0.0805
473.00,0.0806
472.00,0.0804
471.00,0.0802
470.00,0.0804
469.00,0.0805
468.00,0.0802
467.00,0.0799
466.00,0.0801
465.00,0.0801
464.00,0.0798
463.00,0.0794
462.00,0.0792
461.00,0.0790
460.00,0.0786
459.00,0.0783
458.00,0.0784
457.00,0.0782
456.00,0.0774
455.00,0.0769
454.00,0.0770
453.00,0.0772
452.00,0.0769
451.00,0.0764
450.00,0.0761
449.00,0.0756
448.00,0.0750
447.00,0.0745
446.00,0.0744
445.00,0.0741
444.00,0.0733
443.00,0.0726
442.00,0.0726
441.00,0.0728
440.00,0.0728
439.00,0.0728
438.00,0.0731
437.00,0.0731
436.00,0.0726
435.00,0.0721
434.00,0.0722
433.00,0.0724
432.00,0.0720
431.00,0.0716
430.00,0.0717
429.00,0.0717
428.00,0.0710
427.00,0.0705
426.00,0.0706
425.00,0.0709
424.00,0.0708
423.00,0.0706
422.00,0.0709
421.00,0.0709
420.00,0.0701
419.00,0.0695
418.00,0.0701
417.00,0.0704
416.00,0.0698
415.00,0.0694
414.00,0.0697
413.00,0.0699
412.00,0.0689
411.00,0.0678
410.00,0.0676
409.00,0.0675
408.00,0.0669
407.00,0.0666
406.00,0.0671
405.00,0.0674
404.00,0.0665
403.00,0.0658
402.00,0.0667
401.00,0.0682
400.00,0.0685
