Created as New Dataset,Sample 288 By YargerLab Date Saturday, October 18 2025
cm-1,A
4000.00,0.0077
3999.00,0.0077
3998.00,0.0077
3997.00,0.0077
3996.00,0.0077
3995.00,0.0077
3994.00,0.0077
3993.00,0.0077
3992.00,0.0077
3991.00,0.0077
3990.00,0.0077
3989.00,0.0077
3988.00,0.0077
3987.00,0.0077
3986.00,0.0077
3985.00,0.0076
3984.00,0.0076
3983.00,0.0076
3982.00,0.0076
3981.00,0.0076
3980.00,0.0076
3979.00,0.0076
3978.00,0.0076
3977.00,0.0076
3976.00,0.0076
3975.00,0.0076
3974.00,0.0076
3973.00,0.0076
3972.00,0.0076
3971.00,0.0076
3970.00,0.0076
3969.00,0.0076
3968.00,0.0076
3967.00,0.0076
3966.00,0.0076
3965.00,0.0076
3964.00,0.0076
3963.00,0.0077
3962.00,0.0077
3961.00,0.0076
3960.00,0.0076
3959.00,0.0076
3958.00,0.0076
3957.00,0.0076
3956.00,0.0076
3955.00,0.0076
3954.00,0.0076
3953.00,0.0077
3952.00,0.0077
3951.00,0.0077
3950.00,0.0077
3949.00,0.0077
3948.00,0.0077
3947.00,0.0077
3946.00,0.0077
3945.00,0.0077
3944.00,0.0077
3943.00,0.0077
3942.00,0.0077
3941.00,0.0076
3940.00,0.0076
3939.00,0.0076
3938.00,0.0076
3937.00,0.0076
3936.00,0.0076
3935.00,0.0076
3934.00,0.0076
3933.00,0.0076
3932.00,0.0076
3931.00,0.0076
3930.00,0.0076
3929.00,0.0076
3928.00,0.0076
3927.00,0.0076
3926.00,0.0076
3925.00,0.0076
3924.00,0.0076
3923.00,0.0076
3922.00,0.0076
3921.00,0.0076
3920.00,0.0076
3919.00,0.0076
3918.00,0.0075
3917.00,0.0075
3916.00,0.0075
3915.00,0.0076
3914.00,0.0076
3913.00,0.0076
3912.00,0.0076
3911.00,0.0076
3910.00,0.0076
3909.00,0.0076
3908.00,0.0076
3907.00,0.0076
3906.00,0.0076
3905.00,0.0075
3904.00,0.0075
3903.00,0.0075
3902.00,0.0075
3901.00,0.0075
3900.00,0.0075
3899.00,0.0075
3898.00,0.0075
3897.00,0.0075
3896.00,0.0075
3895.00,0.0076
3894.00,0.0076
3893.00,0.0076
3892.00,0.0076
3891.00,0.0076
3890.00,0.0076
3889.00,0.0075
3888.00,0.0075
3887.00,0.0075
3886.00,0.0075
3885.00,0.0075
3884.00,0.0075
3883.00,0.0075
3882.00,0.0075
3881.00,0.0075
3880.00,0.0075
3879.00,0.0075
3878.00,0.0075
3877.00,0.0075
3876.00,0.0075
3875.00,0.0075
3874.00,0.0075
3873.00,0.0074
3872.00,0.0074
3871.00,0.0075
3870.00,0.0075
3869.00,0.0075
3868.00,0.0075
3867.00,0.0075
3866.00,0.0075
3865.00,0.0075
3864.00,0.0074
3863.00,0.0074
3862.00,0.0074
3861.00,0.0074
3860.00,0.0074
3859.00,0.0074
3858.00,0.0074
3857.00,0.0074
3856.00,0.0075
3855.00,0.0075
3854.00,0.0075
3853.00,0.0074
3852.00,0.0074
3851.00,0.0074
3850.00,0.0075
3849.00,0.0075
3848.00,0.0075
3847.00,0.0075
3846.00,0.0074
3845.00,0.0074
3844.00,0.0074
3843.00,0.0074
3842.00,0.0074
3841.00,0.0074
3840.00,0.0074
3839.00,0.0074
3838.00,0.0074
3837.00,0.0074
3836.00,0.0074
3835.00,0.0074
3834.00,0.0074
3833.00,0.0074
3832.00,0.0074
3831.00,0.0074
3830.00,0.0074
3829.00,0.0074
3828.00,0.0074
3827.00,0.0074
3826.00,0.0074
3825.00,0.0074
3824.00,0.0074
3823.00,0.0074
3822.00,0.0074
3821.00,0.0074
3820.00,0.0074
3819.00,0.0074
3818.00,0.0074
3817.00,0.0074
3816.00,0.0074
3815.00,0.0074
3814.00,0.0074
3813.00,0.0074
3812.00,0.0074
3811.00,0.0074
3810.00,0.0074
3809.00,0.0074
3808.00,0.0074
3807.00,0.0074
3806.00,0.0074
3805.00,0.0074
3804.00,0.0074
3803.00,0.0074
3802.00,0.0074
3801.00,0.0074
3800.00,0.0074
3799.00,0.0073
3798.00,0.0073
3797.00,0.0074
3796.00,0.0074
3795.00,0.0074
3794.00,0.0074
3793.00,0.0074
3792.00,0.0074
3791.00,0.0074
3790.00,0.0075
3789.00,0.0075
3788.00,0.0075
3787.00,0.0074
3786.00,0.0074
3785.00,0.0074
3784.00,0.0074
3783.00,0.0074
3782.00,0.0074
3781.00,0.0074
3780.00,0.0074
3779.00,0.0074
3778.00,0.0074
3777.00,0.0075
3776.00,0.0075
3775.00,0.0075
3774.00,0.0075
3773.00,0.0075
3772.00,0.0074
3771.00,0.0074
3770.00,0.0074
3769.00,0.0074
3768.00,0.0073
3767.00,0.0074
3766.00,0.0074
3765.00,0.0074
3764.00,0.0074
3763.00,0.0074
3762.00,0.0074
3761.00,0.0074
3760.00,0.0074
3759.00,0.0074
3758.00,0.0074
3757.00,0.0074
3756.00,0.0073
3755.00,0.0073
3754.00,0.0073
3753.00,0.0073
3752.00,0.0073
3751.00,0.0074
3750.00,0.0074
3749.00,0.0074
3748.00,0.0074
3747.00,0.0074
3746.00,0.0074
3745.00,0.0074
3744.00,0.0074
3743.00,0.0073
3742.00,0.0073
3741.00,0.0073
3740.00,0.0073
3739.00,0.0072
3738.00,0.0072
3737.00,0.0072
3736.00,0.0072
3735.00,0.0072
3734.00,0.0072
3733.00,0.0072
3732.00,0.0073
3731.00,0.0073
3730.00,0.0073
3729.00,0.0073
3728.00,0.0073
3727.00,0.0072
3726.00,0.0072
3725.00,0.0072
3724.00,0.0072
3723.00,0.0073
3722.00,0.0073
3721.00,0.0073
3720.00,0.0073
3719.00,0.0073
3718.00,0.0073
3717.00,0.0073
3716.00,0.0073
3715.00,0.0073
3714.00,0.0072
3713.00,0.0072
3712.00,0.0072
3711.00,0.0072
3710.00,0.0072
3709.00,0.0072
3708.00,0.0072
3707.00,0.0072
3706.00,0.0073
3705.00,0.0072
3704.00,0.0072
3703.00,0.0072
3702.00,0.0072
3701.00,0.0072
3700.00,0.0072
3699.00,0.0072
3698.00,0.0072
3697.00,0.0072
3696.00,0.0072
3695.00,0.0072
3694.00,0.0072
3693.00,0.0072
3692.00,0.0072
3691.00,0.0072
3690.00,0.0072
3689.00,0.0072
3688.00,0.0072
3687.00,0.0072
3686.00,0.0072
3685.00,0.0072
3684.00,0.0072
3683.00,0.0072
3682.00,0.0072
3681.00,0.0072
3680.00,0.0072
3679.00,0.0072
3678.00,0.0073
3677.00,0.0073
3676.00,0.0073
3675.00,0.0073
3674.00,0.0072
3673.00,0.0072
3672.00,0.0072
3671.00,0.0072
3670.00,0.0072
3669.00,0.0073
3668.00,0.0073
3667.00,0.0073
3666.00,0.0073
3665.00,0.0074
3664.00,0.0074
3663.00,0.0074
3662.00,0.0075
3661.00,0.0075
3660.00,0.0075
3659.00,0.0075
3658.00,0.0075
3657.00,0.0075
3656.00,0.0075
3655.00,0.0075
3654.00,0.0075
3653.00,0.0075
3652.00,0.0075
3651.00,0.0075
3650.00,0.0075
3649.00,0.0075
3648.00,0.0075
3647.00,0.0075
3646.00,0.0075
3645.00,0.0076
3644.00,0.0076
3643.00,0.0076
3642.00,0.0077
3641.00,0.0077
3640.00,0.0078
3639.00,0.0078
3638.00,0.0078
3637.00,0.0078
3636.00,0.0078
3635.00,0.0078
3634.00,0.0079
3633.00,0.0079
3632.00,0.0079
3631.00,0.0080
3630.00,0.0080
3629.00,0.0080
3628.00,0.0080
3627.00,0.0080
3626.00,0.0080
3625.00,0.0081
3624.00,0.0081
3623.00,0.0081
3622.00,0.0082
3621.00,0.0082
3620.00,0.0083
3619.00,0.0083
3618.00,0.0083
3617.00,0.0084
3616.00,0.0084
3615.00,0.0085
3614.00,0.0085
3613.00,0.0086
3612.00,0.0086
3611.00,0.0086
3610.00,0.0087
3609.00,0.0087
3608.00,0.0088
3607.00,0.0088
3606.00,0.0089
3605.00,0.0089
3604.00,0.0089
3603.00,0.0090
3602.00,0.0090
3601.00,0.0090
3600.00,0.0091
3599.00,0.0091
3598.00,0.0092
3597.00,0.0092
3596.00,0.0093
3595.00,0.0093
3594.00,0.0093
3593.00,0.0093
3592.00,0.0094
3591.00,0.0094
3590.00,0.0095
3589.00,0.0095
3588.00,0.0096
3587.00,0.0096
3586.00,0.0096
3585.00,0.0097
3584.00,0.0097
3583.00,0.0098
3582.00,0.0099
3581.00,0.0099
3580.00,0.0100
3579.00,0.0100
3578.00,0.0101
3577.00,0.0101
3576.00,0.0102
3575.00,0.0102
3574.00,0.0103
3573.00,0.0103
3572.00,0.0104
3571.00,0.0104
3570.00,0.0104
3569.00,0.0105
3568.00,0.0105
3567.00,0.0106
3566.00,0.0107
3565.00,0.0108
3564.00,0.0109
3563.00,0.0109
3562.00,0.0110
3561.00,0.0110
3560.00,0.0111
3559.00,0.0111
3558.00,0.0112
3557.00,0.0113
3556.00,0.0113
3555.00,0.0114
3554.00,0.0114
3553.00,0.0115
3552.00,0.0116
3551.00,0.0117
3550.00,0.0118
3549.00,0.0119
3548.00,0.0119
3547.00,0.0120
3546.00,0.0122
3545.00,0.0123
3544.00,0.0124
3543.00,0.0125
3542.00,0.0126
3541.00,0.0127
3540.00,0.0127
3539.00,0.0128
3538.00,0.0129
3537.00,0.0130
3536.00,0.0131
3535.00,0.0132
3534.00,0.0133
3533.00,0.0134
3532.00,0.0135
3531.00,0.0136
3530.00,0.0137
3529.00,0.0139
3528.00,0.0140
3527.00,0.0141
3526.00,0.0143
3525.00,0.0144
3524.00,0.0145
3523.00,0.0147
3522.00,0.0148
3521.00,0.0150
3520.00,0.0151
3519.00,0.0152
3518.00,0.0154
3517.00,0.0155
3516.00,0.0157
3515.00,0.0158
3514.00,0.0159
3513.00,0.0161
3512.00,0.0163
3511.00,0.0164
3510.00,0.0166
3509.00,0.0167
3508.00,0.0169
3507.00,0.0170
3506.00,0.0172
3505.00,0.0173
3504.00,0.0175
3503.00,0.0177
3502.00,0.0179
3501.00,0.0181
3500.00,0.0183
3499.00,0.0184
3498.00,0.0186
3497.00,0.0188
3496.00,0.0190
3495.00,0.0191
3494.00,0.0193
3493.00,0.0194
3492.00,0.0196
3491.00,0.0197
3490.00,0.0199
3489.00,0.0200
3488.00,0.0202
3487.00,0.0203
3486.00,0.0205
3485.00,0.0206
3484.00,0.0208
3483.00,0.0209
3482.00,0.0211
3481.00,0.0212
3480.00,0.0213
3479.00,0.0214
3478.00,0.0215
3477.00,0.0216
3476.00,0.0217
3475.00,0.0217
3474.00,0.0218
3473.00,0.0219
3472.00,0.0219
3471.00,0.0220
3470.00,0.0221
3469.00,0.0222
3468.00,0.0222
3467.00,0.0223
3466.00,0.0223
3465.00,0.0223
3464.00,0.0223
3463.00,0.0223
3462.00,0.0223
3461.00,0.0223
3460.00,0.0223
3459.00,0.0223
3458.00,0.0223
3457.00,0.0223
3456.00,0.0223
3455.00,0.0222
3454.00,0.0222
3453.00,0.0222
3452.00,0.0221
3451.00,0.0221
3450.00,0.0221
3449.00,0.0220
3448.00,0.0220
3447.00,0.0219
3446.00,0.0219
3445.00,0.0218
3444.00,0.0218
3443.00,0.0217
3442.00,0.0216
3441.00,0.0216
3440.00,0.0215
3439.00,0.0214
3438.00,0.0214
3437.00,0.0213
3436.00,0.0212
3435.00,0.0212
3434.00,0.0211
3433.00,0.0210
3432.00,0.0209
3431.00,0.0209
3430.00,0.0208
3429.00,0.0207
3428.00,0.0206
3427.00,0.0205
3426.00,0.0204
3425.00,0.0203
3424.00,0.0203
3423.00,0.0202
3422.00,0.0201
3421.00,0.0201
3420.00,0.0200
3419.00,0.0199
3418.00,0.0198
3417.00,0.0197
3416.00,0.0196
3415.00,0.0195
3414.00,0.0195
3413.00,0.0194
3412.00,0.0193
3411.00,0.0192
3410.00,0.0191
3409.00,0.0191
3408.00,0.0190
3407.00,0.0189
3406.00,0.0189
3405.00,0.0188
3404.00,0.0188
3403.00,0.0187
3402.00,0.0186
3401.00,0.0185
3400.00,0.0185
3399.00,0.0184
3398.00,0.0183
3397.00,0.0182
3396.00,0.0181
3395.00,0.0180
3394.00,0.0179
3393.00,0.0178
3392.00,0.0178
3391.00,0.0177
3390.00,0.0176
3389.00,0.0175
3388.00,0.0174
3387.00,0.0173
3386.00,0.0172
3385.00,0.0171
3384.00,0.0171
3383.00,0.0170
3382.00,0.0169
3381.00,0.0168
3380.00,0.0167
3379.00,0.0166
3378.00,0.0166
3377.00,0.0165
3376.00,0.0164
3375.00,0.0163
3374.00,0.0162
3373.00,0.0162
3372.00,0.0161
3371.00,0.0160
3370.00,0.0160
3369.00,0.0159
3368.00,0.0158
3367.00,0.0157
3366.00,0.0156
3365.00,0.0155
3364.00,0.0154
3363.00,0.0153
3362.00,0.0152
3361.00,0.0152
3360.00,0.0151
3359.00,0.0150
3358.00,0.0149
3357.00,0.0149
3356.00,0.0148
3355.00,0.0147
3354.00,0.0147
3353.00,0.0146
3352.00,0.0146
3351.00,0.0145
3350.00,0.0144
3349.00,0.0144
3348.00,0.0143
3347.00,0.0142
3346.00,0.0141
3345.00,0.0141
3344.00,0.0140
3343.00,0.0140
3342.00,0.0139
3341.00,0.0139
3340.00,0.0138
3339.00,0.0138
3338.00,0.0137
3337.00,0.0136
3336.00,0.0135
3335.00,0.0135
3334.00,0.0134
3333.00,0.0133
3332.00,0.0133
3331.00,0.0132
3330.00,0.0132
3329.00,0.0131
3328.00,0.0131
3327.00,0.0130
3326.00,0.0129
3325.00,0.0129
3324.00,0.0128
3323.00,0.0127
3322.00,0.0127
3321.00,0.0126
3320.00,0.0126
3319.00,0.0125
3318.00,0.0125
3317.00,0.0124
3316.00,0.0124
3315.00,0.0123
3314.00,0.0123
3313.00,0.0122
3312.00,0.0122
3311.00,0.0122
3310.00,0.0121
3309.00,0.0121
3308.00,0.0121
3307.00,0.0121
3306.00,0.0120
3305.00,0.0120
3304.00,0.0119
3303.00,0.0118
3302.00,0.0118
3301.00,0.0117
3300.00,0.0117
3299.00,0.0117
3298.00,0.0116
3297.00,0.0116
3296.00,0.0115
3295.00,0.0115
3294.00,0.0115
3293.00,0.0114
3292.00,0.0114
3291.00,0.0114
3290.00,0.0113
3289.00,0.0113
3288.00,0.0113
3287.00,0.0112
3286.00,0.0112
3285.00,0.0112
3284.00,0.0112
3283.00,0.0111
3282.00,0.0111
3281.00,0.0110
3280.00,0.0110
3279.00,0.0110
3278.00,0.0109
3277.00,0.0109
3276.00,0.0109
3275.00,0.0108
3274.00,0.0108
3273.00,0.0108
3272.00,0.0108
3271.00,0.0107
3270.00,0.0107
3269.00,0.0107
3268.00,0.0107
3267.00,0.0106
3266.00,0.0106
3265.00,0.0105
3264.00,0.0105
3263.00,0.0105
3262.00,0.0105
3261.00,0.0104
3260.00,0.0104
3259.00,0.0104
3258.00,0.0104
3257.00,0.0103
3256.00,0.0103
3255.00,0.0102
3254.00,0.0102
3253.00,0.0102
3252.00,0.0101
3251.00,0.0101
3250.00,0.0101
3249.00,0.0101
3248.00,0.0100
3247.00,0.0100
3246.00,0.0100
3245.00,0.0100
3244.00,0.0100
3243.00,0.0099
3242.00,0.0099
3241.00,0.0099
3240.00,0.0098
3239.00,0.0098
3238.00,0.0098
3237.00,0.0098
3236.00,0.0097
3235.00,0.0097
3234.00,0.0097
3233.00,0.0097
3232.00,0.0097
3231.00,0.0096
3230.00,0.0096
3229.00,0.0096
3228.00,0.0096
3227.00,0.0095
3226.00,0.0095
3225.00,0.0094
3224.00,0.0094
3223.00,0.0094
3222.00,0.0093
3221.00,0.0093
3220.00,0.0093
3219.00,0.0093
3218.00,0.0093
3217.00,0.0093
3216.00,0.0093
3215.00,0.0092
3214.00,0.0092
3213.00,0.0092
3212.00,0.0092
3211.00,0.0092
3210.00,0.0092
3209.00,0.0092
3208.00,0.0091
3207.00,0.0091
3206.00,0.0091
3205.00,0.0090
3204.00,0.0090
3203.00,0.0090
3202.00,0.0090
3201.00,0.0090
3200.00,0.0090
3199.00,0.0089
3198.00,0.0089
3197.00,0.0089
3196.00,0.0089
3195.00,0.0088
3194.00,0.0088
3193.00,0.0088
3192.00,0.0088
3191.00,0.0088
3190.00,0.0088
3189.00,0.0088
3188.00,0.0088
3187.00,0.0088
3186.00,0.0088
3185.00,0.0088
3184.00,0.0087
3183.00,0.0087
3182.00,0.0087
3181.00,0.0087
3180.00,0.0087
3179.00,0.0087
3178.00,0.0087
3177.00,0.0087
3176.00,0.0087
3175.00,0.0087
3174.00,0.0086
3173.00,0.0086
3172.00,0.0086
3171.00,0.0086
3170.00,0.0086
3169.00,0.0086
3168.00,0.0086
3167.00,0.0086
3166.00,0.0086
3165.00,0.0086
3164.00,0.0086
3163.00,0.0086
3162.00,0.0086
3161.00,0.0086
3160.00,0.0086
3159.00,0.0086
3158.00,0.0086
3157.00,0.0085
3156.00,0.0085
3155.00,0.0085
3154.00,0.0085
3153.00,0.0085
3152.00,0.0085
3151.00,0.0085
3150.00,0.0085
3149.00,0.0085
3148.00,0.0085
3147.00,0.0085
3146.00,0.0085
3145.00,0.0085
3144.00,0.0085
3143.00,0.0085
3142.00,0.0085
3141.00,0.0085
3140.00,0.0085
3139.00,0.0085
3138.00,0.0085
3137.00,0.0085
3136.00,0.0085
3135.00,0.0084
3134.00,0.0084
3133.00,0.0085
3132.00,0.0085
3131.00,0.0085
3130.00,0.0085
3129.00,0.0085
3128.00,0.0085
3127.00,0.0085
3126.00,0.0085
3125.00,0.0085
3124.00,0.0084
3123.00,0.0084
3122.00,0.0084
3121.00,0.0084
3120.00,0.0084
3119.00,0.0084
3118.00,0.0084
3117.00,0.0084
3116.00,0.0084
3115.00,0.0084
3114.00,0.0084
3113.00,0.0084
3112.00,0.0084
3111.00,0.0084
3110.00,0.0084
3109.00,0.0084
3108.00,0.0084
3107.00,0.0084
3106.00,0.0084
3105.00,0.0084
3104.00,0.0085
3103.00,0.0085
3102.00,0.0085
3101.00,0.0085
3100.00,0.0085
3099.00,0.0085
3098.00,0.0084
3097.00,0.0084
3096.00,0.0085
3095.00,0.0085
3094.00,0.0085
3093.00,0.0085
3092.00,0.0085
3091.00,0.0085
3090.00,0.0085
3089.00,0.0085
3088.00,0.0085
3087.00,0.0085
3086.00,0.0084
3085.00,0.0084
3084.00,0.0084
3083.00,0.0085
3082.00,0.0085
3081.00,0.0085
3080.00,0.0085
3079.00,0.0085
3078.00,0.0085
3077.00,0.0085
3076.00,0.0085
3075.00,0.0085
3074.00,0.0085
3073.00,0.0085
3072.00,0.0085
3071.00,0.0085
3070.00,0.0085
3069.00,0.0085
3068.00,0.0085
3067.00,0.0085
3066.00,0.0085
3065.00,0.0085
3064.00,0.0085
3063.00,0.0085
3062.00,0.0085
3061.00,0.0085
3060.00,0.0085
3059.00,0.0085
3058.00,0.0085
3057.00,0.0085
3056.00,0.0085
3055.00,0.0085
3054.00,0.0085
3053.00,0.0086
3052.00,0.0086
3051.00,0.0086
3050.00,0.0086
3049.00,0.0085
3048.00,0.0085
3047.00,0.0085
3046.00,0.0086
3045.00,0.0086
3044.00,0.0086
3043.00,0.0086
3042.00,0.0086
3041.00,0.0086
3040.00,0.0087
3039.00,0.0087
3038.00,0.0087
3037.00,0.0087
3036.00,0.0087
3035.00,0.0087
3034.00,0.0087
3033.00,0.0088
3032.00,0.0088
3031.00,0.0088
3030.00,0.0088
3029.00,0.0088
3028.00,0.0089
3027.00,0.0089
3026.00,0.0089
3025.00,0.0090
3024.00,0.0090
3023.00,0.0090
3022.00,0.0091
3021.00,0.0091
3020.00,0.0092
3019.00,0.0092
3018.00,0.0093
3017.00,0.0093
3016.00,0.0094
3015.00,0.0095
3014.00,0.0096
3013.00,0.0097
3012.00,0.0098
3011.00,0.0099
3010.00,0.0100
3009.00,0.0102
3008.00,0.0103
3007.00,0.0105
3006.00,0.0106
3005.00,0.0108
3004.00,0.0110
3003.00,0.0112
3002.00,0.0114
3001.00,0.0116
3000.00,0.0119
2999.00,0.0121
2998.00,0.0124
2997.00,0.0127
2996.00,0.0130
2995.00,0.0133
2994.00,0.0136
2993.00,0.0139
2992.00,0.0142
2991.00,0.0145
2990.00,0.0149
2989.00,0.0152
2988.00,0.0155
2987.00,0.0157
2986.00,0.0160
2985.00,0.0162
2984.00,0.0164
2983.00,0.0165
2982.00,0.0167
2981.00,0.0168
2980.00,0.0170
2979.00,0.0172
2978.00,0.0173
2977.00,0.0175
2976.00,0.0176
2975.00,0.0176
2974.00,0.0176
2973.00,0.0176
2972.00,0.0176
2971.00,0.0176
2970.00,0.0176
2969.00,0.0177
2968.00,0.0178
2967.00,0.0178
2966.00,0.0178
2965.00,0.0179
2964.00,0.0180
2963.00,0.0181
2962.00,0.0183
2961.00,0.0184
2960.00,0.0186
2959.00,0.0188
2958.00,0.0190
2957.00,0.0193
2956.00,0.0196
2955.00,0.0199
2954.00,0.0202
2953.00,0.0206
2952.00,0.0210
2951.00,0.0214
2950.00,0.0218
2949.00,0.0222
2948.00,0.0227
2947.00,0.0231
2946.00,0.0236
2945.00,0.0241
2944.00,0.0246
2943.00,0.0252
2942.00,0.0257
2941.00,0.0261
2940.00,0.0266
2939.00,0.0270
2938.00,0.0275
2937.00,0.0278
2936.00,0.0281
2935.00,0.0284
2934.00,0.0286
2933.00,0.0288
2932.00,0.0290
2931.00,0.0291
2930.00,0.0292
2929.00,0.0293
2928.00,0.0293
2927.00,0.0294
2926.00,0.0295
2925.00,0.0296
2924.00,0.0297
2923.00,0.0297
2922.00,0.0298
2921.00,0.0300
2920.00,0.0301
2919.00,0.0303
2918.00,0.0305
2917.00,0.0307
2916.00,0.0308
2915.00,0.0310
2914.00,0.0312
2913.00,0.0313
2912.00,0.0315
2911.00,0.0316
2910.00,0.0318
2909.00,0.0320
2908.00,0.0321
2907.00,0.0323
2906.00,0.0324
2905.00,0.0325
2904.00,0.0326
2903.00,0.0327
2902.00,0.0328
2901.00,0.0328
2900.00,0.0328
2899.00,0.0328
2898.00,0.0328
2897.00,0.0328
2896.00,0.0328
2895.00,0.0327
2894.00,0.0326
2893.00,0.0325
2892.00,0.0324
2891.00,0.0323
2890.00,0.0322
2889.00,0.0321
2888.00,0.0320
2887.00,0.0319
2886.00,0.0318
2885.00,0.0316
2884.00,0.0315
2883.00,0.0314
2882.00,0.0312
2881.00,0.0311
2880.00,0.0310
2879.00,0.0308
2878.00,0.0306
2877.00,0.0304
2876.00,0.0302
2875.00,0.0300
2874.00,0.0297
2873.00,0.0294
2872.00,0.0291
2871.00,0.0287
2870.00,0.0284
2869.00,0.0280
2868.00,0.0277
2867.00,0.0274
2866.00,0.0270
2865.00,0.0267
2864.00,0.0264
2863.00,0.0260
2862.00,0.0257
2861.00,0.0254
2860.00,0.0251
2859.00,0.0248
2858.00,0.0245
2857.00,0.0243
2856.00,0.0241
2855.00,0.0240
2854.00,0.0239
2853.00,0.0239
2852.00,0.0240
2851.00,0.0240
2850.00,0.0242
2849.00,0.0243
2848.00,0.0245
2847.00,0.0247
2846.00,0.0250
2845.00,0.0253
2844.00,0.0256
2843.00,0.0260
2842.00,0.0263
2841.00,0.0267
2840.00,0.0270
2839.00,0.0273
2838.00,0.0275
2837.00,0.0277
2836.00,0.0278
2835.00,0.0279
2834.00,0.0279
2833.00,0.0278
2832.00,0.0276
2831.00,0.0274
2830.00,0.0272
2829.00,0.0269
2828.00,0.0266
2827.00,0.0263
2826.00,0.0260
2825.00,0.0258
2824.00,0.0255
2823.00,0.0253
2822.00,0.0251
2821.00,0.0248
2820.00,0.0246
2819.00,0.0244
2818.00,0.0242
2817.00,0.0240
2816.00,0.0237
2815.00,0.0234
2814.00,0.0231
2813.00,0.0228
2812.00,0.0224
2811.00,0.0219
2810.00,0.0215
2809.00,0.0210
2808.00,0.0204
2807.00,0.0199
2806.00,0.0193
2805.00,0.0188
2804.00,0.0182
2803.00,0.0178
2802.00,0.0173
2801.00,0.0169
2800.00,0.0165
2799.00,0.0162
2798.00,0.0160
2797.00,0.0157
2796.00,0.0155
2795.00,0.0154
2794.00,0.0152
2793.00,0.0150
2792.00,0.0149
2791.00,0.0147
2790.00,0.0146
2789.00,0.0144
2788.00,0.0143
2787.00,0.0142
2786.00,0.0141
2785.00,0.0141
2784.00,0.0140
2783.00,0.0139
2782.00,0.0138
2781.00,0.0138
2780.00,0.0137
2779.00,0.0136
2778.00,0.0136
2777.00,0.0135
2776.00,0.0135
2775.00,0.0134
2774.00,0.0134
2773.00,0.0133
2772.00,0.0133
2771.00,0.0132
2770.00,0.0132
2769.00,0.0131
2768.00,0.0131
2767.00,0.0130
2766.00,0.0130
2765.00,0.0130
2764.00,0.0129
2763.00,0.0129
2762.00,0.0129
2761.00,0.0128
2760.00,0.0128
2759.00,0.0128
2758.00,0.0128
2757.00,0.0128
2756.00,0.0127
2755.00,0.0127
2754.00,0.0126
2753.00,0.0126
2752.00,0.0126
2751.00,0.0126
2750.00,0.0126
2749.00,0.0126
2748.00,0.0125
2747.00,0.0125
2746.00,0.0125
2745.00,0.0125
2744.00,0.0124
2743.00,0.0124
2742.00,0.0123
2741.00,0.0123
2740.00,0.0123
2739.00,0.0123
2738.00,0.0123
2737.00,0.0123
2736.00,0.0122
2735.00,0.0122
2734.00,0.0122
2733.00,0.0121
2732.00,0.0121
2731.00,0.0121
2730.00,0.0121
2729.00,0.0120
2728.00,0.0120
2727.00,0.0120
2726.00,0.0120
2725.00,0.0120
2724.00,0.0119
2723.00,0.0119
2722.00,0.0119
2721.00,0.0119
2720.00,0.0119
2719.00,0.0119
2718.00,0.0119
2717.00,0.0118
2716.00,0.0118
2715.00,0.0118
2714.00,0.0117
2713.00,0.0117
2712.00,0.0117
2711.00,0.0117
2710.00,0.0116
2709.00,0.0116
2708.00,0.0116
2707.00,0.0116
2706.00,0.0116
2705.00,0.0116
2704.00,0.0116
2703.00,0.0116
2702.00,0.0116
2701.00,0.0115
2700.00,0.0115
2699.00,0.0115
2698.00,0.0114
2697.00,0.0114
2696.00,0.0114
2695.00,0.0114
2694.00,0.0114
2693.00,0.0114
2692.00,0.0114
2691.00,0.0114
2690.00,0.0114
2689.00,0.0113
2688.00,0.0113
2687.00,0.0113
2686.00,0.0113
2685.00,0.0113
2684.00,0.0113
2683.00,0.0113
2682.00,0.0113
2681.00,0.0113
2680.00,0.0113
2679.00,0.0113
2678.00,0.0112
2677.00,0.0112
2676.00,0.0112
2675.00,0.0112
2674.00,0.0112
2673.00,0.0112
2672.00,0.0112
2671.00,0.0113
2670.00,0.0113
2669.00,0.0113
2668.00,0.0113
2667.00,0.0113
2666.00,0.0113
2665.00,0.0114
2664.00,0.0114
2663.00,0.0115
2662.00,0.0115
2661.00,0.0116
2660.00,0.0116
2659.00,0.0116
2658.00,0.0116
2657.00,0.0116
2656.00,0.0116
2655.00,0.0116
2654.00,0.0116
2653.00,0.0116
2652.00,0.0116
2651.00,0.0116
2650.00,0.0116
2649.00,0.0116
2648.00,0.0116
2647.00,0.0116
2646.00,0.0116
2645.00,0.0116
2644.00,0.0115
2643.00,0.0115
2642.00,0.0115
2641.00,0.0115
2640.00,0.0114
2639.00,0.0114
2638.00,0.0114
2637.00,0.0114
2636.00,0.0114
2635.00,0.0114
2634.00,0.0114
2633.00,0.0114
2632.00,0.0114
2631.00,0.0114
2630.00,0.0114
2629.00,0.0114
2628.00,0.0114
2627.00,0.0113
2626.00,0.0113
2625.00,0.0113
2624.00,0.0113
2623.00,0.0113
2622.00,0.0113
2621.00,0.0113
2620.00,0.0113
2619.00,0.0113
2618.00,0.0113
2617.00,0.0112
2616.00,0.0112
2615.00,0.0113
2614.00,0.0112
2613.00,0.0112
2612.00,0.0112
2611.00,0.0112
2610.00,0.0112
2609.00,0.0112
2608.00,0.0112
2607.00,0.0112
2606.00,0.0112
2605.00,0.0111
2604.00,0.0111
2603.00,0.0111
2602.00,0.0111
2601.00,0.0111
2600.00,0.0111
2599.00,0.0111
2598.00,0.0111
2597.00,0.0111
2596.00,0.0111
2595.00,0.0111
2594.00,0.0111
2593.00,0.0111
2592.00,0.0111
2591.00,0.0110
2590.00,0.0110
2589.00,0.0110
2588.00,0.0110
2587.00,0.0110
2586.00,0.0110
2585.00,0.0110
2584.00,0.0109
2583.00,0.0109
2582.00,0.0108
2581.00,0.0108
2580.00,0.0108
2579.00,0.0108
2578.00,0.0107
2577.00,0.0107
2576.00,0.0107
2575.00,0.0107
2574.00,0.0107
2573.00,0.0107
2572.00,0.0107
2571.00,0.0107
2570.00,0.0106
2569.00,0.0106
2568.00,0.0106
2567.00,0.0106
2566.00,0.0106
2565.00,0.0106
2564.00,0.0106
2563.00,0.0105
2562.00,0.0105
2561.00,0.0105
2560.00,0.0105
2559.00,0.0104
2558.00,0.0104
2557.00,0.0105
2556.00,0.0105
2555.00,0.0105
2554.00,0.0105
2553.00,0.0105
2552.00,0.0105
2551.00,0.0104
2550.00,0.0104
2549.00,0.0104
2548.00,0.0104
2547.00,0.0104
2546.00,0.0103
2545.00,0.0103
2544.00,0.0103
2543.00,0.0103
2542.00,0.0103
2541.00,0.0103
2540.00,0.0103
2539.00,0.0103
2538.00,0.0102
2537.00,0.0103
2536.00,0.0103
2535.00,0.0103
2534.00,0.0103
2533.00,0.0103
2532.00,0.0103
2531.00,0.0103
2530.00,0.0103
2529.00,0.0103
2528.00,0.0103
2527.00,0.0103
2526.00,0.0102
2525.00,0.0102
2524.00,0.0102
2523.00,0.0102
2522.00,0.0102
2521.00,0.0102
2520.00,0.0102
2519.00,0.0102
2518.00,0.0102
2517.00,0.0101
2516.00,0.0101
2515.00,0.0101
2514.00,0.0101
2513.00,0.0101
2512.00,0.0102
2511.00,0.0102
2510.00,0.0101
2509.00,0.0101
2508.00,0.0101
2507.00,0.0101
2506.00,0.0101
2505.00,0.0101
2504.00,0.0101
2503.00,0.0101
2502.00,0.0101
2501.00,0.0101
2500.00,0.0101
2499.00,0.0101
2498.00,0.0101
2497.00,0.0101
2496.00,0.0101
2495.00,0.0102
2494.00,0.0102
2493.00,0.0102
2492.00,0.0102
2491.00,0.0101
2490.00,0.0101
2489.00,0.0101
2488.00,0.0101
2487.00,0.0101
2486.00,0.0101
2485.00,0.0101
2484.00,0.0101
2483.00,0.0101
2482.00,0.0101
2481.00,0.0101
2480.00,0.0101
2479.00,0.0101
2478.00,0.0101
2477.00,0.0101
2476.00,0.0101
2475.00,0.0101
2474.00,0.0101
2473.00,0.0101
2472.00,0.0101
2471.00,0.0101
2470.00,0.0102
2469.00,0.0102
2468.00,0.0102
2467.00,0.0102
2466.00,0.0102
2465.00,0.0102
2464.00,0.0102
2463.00,0.0102
2462.00,0.0102
2461.00,0.0101
2460.00,0.0101
2459.00,0.0102
2458.00,0.0102
2457.00,0.0102
2456.00,0.0103
2455.00,0.0103
2454.00,0.0103
2453.00,0.0102
2452.00,0.0102
2451.00,0.0102
2450.00,0.0101
2449.00,0.0101
2448.00,0.0101
2447.00,0.0101
2446.00,0.0101
2445.00,0.0102
2444.00,0.0102
2443.00,0.0102
2442.00,0.0102
2441.00,0.0101
2440.00,0.0101
2439.00,0.0101
2438.00,0.0101
2437.00,0.0101
2436.00,0.0101
2435.00,0.0100
2434.00,0.0100
2433.00,0.0100
2432.00,0.0100
2431.00,0.0100
2430.00,0.0100
2429.00,0.0100
2428.00,0.0101
2427.00,0.0101
2426.00,0.0101
2425.00,0.0101
2424.00,0.0101
2423.00,0.0100
2422.00,0.0100
2421.00,0.0100
2420.00,0.0100
2419.00,0.0100
2418.00,0.0100
2417.00,0.0100
2416.00,0.0100
2415.00,0.0100
2414.00,0.0100
2413.00,0.0100
2412.00,0.0100
2411.00,0.0100
2410.00,0.0100
2409.00,0.0100
2408.00,0.0100
2407.00,0.0099
2406.00,0.0099
2405.00,0.0099
2404.00,0.0099
2403.00,0.0099
2402.00,0.0099
2401.00,0.0100
2400.00,0.0100
2399.00,0.0100
2398.00,0.0099
2397.00,0.0099
2396.00,0.0099
2395.00,0.0099
2394.00,0.0099
2393.00,0.0099
2392.00,0.0099
2391.00,0.0099
2390.00,0.0098
2389.00,0.0098
2388.00,0.0097
2387.00,0.0097
2386.00,0.0096
2385.00,0.0095
2384.00,0.0094
2383.00,0.0094
2382.00,0.0093
2381.00,0.0093
2380.00,0.0093
2379.00,0.0092
2378.00,0.0092
2377.00,0.0093
2376.00,0.0093
2375.00,0.0093
2374.00,0.0093
2373.00,0.0093
2372.00,0.0092
2371.00,0.0092
2370.00,0.0091
2369.00,0.0091
2368.00,0.0091
2367.00,0.0092
2366.00,0.0092
2365.00,0.0092
2364.00,0.0092
2363.00,0.0092
2362.00,0.0092
2361.00,0.0092
2360.00,0.0093
2359.00,0.0093
2358.00,0.0093
2357.00,0.0093
2356.00,0.0093
2355.00,0.0093
2354.00,0.0093
2353.00,0.0093
2352.00,0.0093
2351.00,0.0093
2350.00,0.0094
2349.00,0.0094
2348.00,0.0094
2347.00,0.0094
2346.00,0.0094
2345.00,0.0094
2344.00,0.0095
2343.00,0.0095
2342.00,0.0096
2341.00,0.0096
2340.00,0.0097
2339.00,0.0097
2338.00,0.0097
2337.00,0.0097
2336.00,0.0097
2335.00,0.0098
2334.00,0.0097
2333.00,0.0097
2332.00,0.0096
2331.00,0.0096
2330.00,0.0097
2329.00,0.0099
2328.00,0.0102
2327.00,0.0106
2326.00,0.0109
2325.00,0.0109
2324.00,0.0108
2323.00,0.0106
2322.00,0.0105
2321.00,0.0104
2320.00,0.0103
2319.00,0.0102
2318.00,0.0102
2317.00,0.0102
2316.00,0.0101
2315.00,0.0101
2314.00,0.0100
2313.00,0.0100
2312.00,0.0099
2311.00,0.0099
2310.00,0.0099
2309.00,0.0099
2308.00,0.0099
2307.00,0.0100
2306.00,0.0100
2305.00,0.0101
2304.00,0.0101
2303.00,0.0101
2302.00,0.0101
2301.00,0.0101
2300.00,0.0102
2299.00,0.0102
2298.00,0.0103
2297.00,0.0104
2296.00,0.0105
2295.00,0.0106
2294.00,0.0108
2293.00,0.0108
2292.00,0.0109
2291.00,0.0109
2290.00,0.0109
2289.00,0.0109
2288.00,0.0110
2287.00,0.0110
2286.00,0.0110
2285.00,0.0110
2284.00,0.0109
2283.00,0.0109
2282.00,0.0108
2281.00,0.0107
2280.00,0.0107
2279.00,0.0106
2278.00,0.0105
2277.00,0.0105
2276.00,0.0104
2275.00,0.0104
2274.00,0.0103
2273.00,0.0104
2272.00,0.0104
2271.00,0.0103
2270.00,0.0103
2269.00,0.0103
2268.00,0.0102
2267.00,0.0102
2266.00,0.0101
2265.00,0.0101
2264.00,0.0101
2263.00,0.0102
2262.00,0.0102
2261.00,0.0103
2260.00,0.0104
2259.00,0.0104
2258.00,0.0103
2257.00,0.0102
2256.00,0.0101
2255.00,0.0100
2254.00,0.0100
2253.00,0.0100
2252.00,0.0100
2251.00,0.0100
2250.00,0.0100
2249.00,0.0100
2248.00,0.0100
2247.00,0.0100
2246.00,0.0100
2245.00,0.0101
2244.00,0.0101
2243.00,0.0101
2242.00,0.0101
2241.00,0.0100
2240.00,0.0100
2239.00,0.0100
2238.00,0.0099
2237.00,0.0099
2236.00,0.0099
2235.00,0.0099
2234.00,0.0099
2233.00,0.0099
2232.00,0.0099
2231.00,0.0099
2230.00,0.0099
2229.00,0.0099
2228.00,0.0099
2227.00,0.0099
2226.00,0.0099
2225.00,0.0099
2224.00,0.0100
2223.00,0.0100
2222.00,0.0099
2221.00,0.0099
2220.00,0.0098
2219.00,0.0098
2218.00,0.0098
2217.00,0.0099
2216.00,0.0099
2215.00,0.0099
2214.00,0.0099
2213.00,0.0099
2212.00,0.0098
2211.00,0.0098
2210.00,0.0098
2209.00,0.0098
2208.00,0.0098
2207.00,0.0098
2206.00,0.0098
2205.00,0.0098
2204.00,0.0098
2203.00,0.0099
2202.00,0.0099
2201.00,0.0099
2200.00,0.0099
2199.00,0.0099
2198.00,0.0098
2197.00,0.0098
2196.00,0.0098
2195.00,0.0097
2194.00,0.0098
2193.00,0.0099
2192.00,0.0100
2191.00,0.0100
2190.00,0.0100
2189.00,0.0100
2188.00,0.0099
2187.00,0.0098
2186.00,0.0098
2185.00,0.0097
2184.00,0.0096
2183.00,0.0094
2182.00,0.0094
2181.00,0.0094
2180.00,0.0095
2179.00,0.0094
2178.00,0.0093
2177.00,0.0090
2176.00,0.0089
2175.00,0.0090
2174.00,0.0092
2173.00,0.0095
2172.00,0.0098
2171.00,0.0100
2170.00,0.0102
2169.00,0.0103
2168.00,0.0102
2167.00,0.0100
2166.00,0.0099
2165.00,0.0098
2164.00,0.0099
2163.00,0.0099
2162.00,0.0096
2161.00,0.0087
2160.00,0.0076
2159.00,0.0067
2158.00,0.0064
2157.00,0.0065
2156.00,0.0069
2155.00,0.0072
2154.00,0.0075
2153.00,0.0076
2152.00,0.0078
2151.00,0.0078
2150.00,0.0079
2149.00,0.0079
2148.00,0.0079
2147.00,0.0078
2146.00,0.0078
2145.00,0.0079
2144.00,0.0080
2143.00,0.0081
2142.00,0.0082
2141.00,0.0083
2140.00,0.0084
2139.00,0.0084
2138.00,0.0084
2137.00,0.0084
2136.00,0.0083
2135.00,0.0082
2134.00,0.0081
2133.00,0.0082
2132.00,0.0083
2131.00,0.0084
2130.00,0.0086
2129.00,0.0089
2128.00,0.0091
2127.00,0.0092
2126.00,0.0094
2125.00,0.0094
2124.00,0.0095
2123.00,0.0095
2122.00,0.0095
2121.00,0.0095
2120.00,0.0096
2119.00,0.0097
2118.00,0.0098
2117.00,0.0100
2116.00,0.0101
2115.00,0.0102
2114.00,0.0102
2113.00,0.0102
2112.00,0.0101
2111.00,0.0100
2110.00,0.0100
2109.00,0.0100
2108.00,0.0100
2107.00,0.0101
2106.00,0.0102
2105.00,0.0102
2104.00,0.0103
2103.00,0.0103
2102.00,0.0103
2101.00,0.0102
2100.00,0.0102
2099.00,0.0101
2098.00,0.0100
2097.00,0.0098
2096.00,0.0097
2095.00,0.0096
2094.00,0.0096
2093.00,0.0097
2092.00,0.0098
2091.00,0.0099
2090.00,0.0100
2089.00,0.0101
2088.00,0.0102
2087.00,0.0103
2086.00,0.0103
2085.00,0.0103
2084.00,0.0103
2083.00,0.0102
2082.00,0.0102
2081.00,0.0102
2080.00,0.0102
2079.00,0.0103
2078.00,0.0103
2077.00,0.0102
2076.00,0.0102
2075.00,0.0102
2074.00,0.0102
2073.00,0.0103
2072.00,0.0103
2071.00,0.0102
2070.00,0.0101
2069.00,0.0100
2068.00,0.0100
2067.00,0.0100
2066.00,0.0101
2065.00,0.0101
2064.00,0.0102
2063.00,0.0101
2062.00,0.0101
2061.00,0.0101
2060.00,0.0101
2059.00,0.0101
2058.00,0.0101
2057.00,0.0101
2056.00,0.0101
2055.00,0.0102
2054.00,0.0104
2053.00,0.0108
2052.00,0.0111
2051.00,0.0110
2050.00,0.0107
2049.00,0.0103
2048.00,0.0100
2047.00,0.0099
2046.00,0.0099
2045.00,0.0099
2044.00,0.0098
2043.00,0.0097
2042.00,0.0096
2041.00,0.0096
2040.00,0.0096
2039.00,0.0096
2038.00,0.0096
2037.00,0.0096
2036.00,0.0095
2035.00,0.0092
2034.00,0.0089
2033.00,0.0087
2032.00,0.0086
2031.00,0.0085
2030.00,0.0084
2029.00,0.0083
2028.00,0.0081
2027.00,0.0081
2026.00,0.0081
2025.00,0.0083
2024.00,0.0083
2023.00,0.0082
2022.00,0.0081
2021.00,0.0081
2020.00,0.0081
2019.00,0.0082
2018.00,0.0083
2017.00,0.0084
2016.00,0.0085
2015.00,0.0084
2014.00,0.0084
2013.00,0.0084
2012.00,0.0084
2011.00,0.0085
2010.00,0.0086
2009.00,0.0087
2008.00,0.0087
2007.00,0.0087
2006.00,0.0087
2005.00,0.0087
2004.00,0.0087
2003.00,0.0087
2002.00,0.0086
2001.00,0.0086
2000.00,0.0086
1999.00,0.0088
1998.00,0.0090
1997.00,0.0092
1996.00,0.0093
1995.00,0.0093
1994.00,0.0092
1993.00,0.0091
1992.00,0.0090
1991.00,0.0090
1990.00,0.0090
1989.00,0.0091
1988.00,0.0091
1987.00,0.0092
1986.00,0.0094
1985.00,0.0096
1984.00,0.0099
1983.00,0.0102
1982.00,0.0105
1981.00,0.0106
1980.00,0.0104
1979.00,0.0099
1978.00,0.0093
1977.00,0.0088
1976.00,0.0085
1975.00,0.0084
1974.00,0.0084
1973.00,0.0085
1972.00,0.0085
1971.00,0.0085
1970.00,0.0085
1969.00,0.0085
1968.00,0.0085
1967.00,0.0085
1966.00,0.0085
1965.00,0.0085
1964.00,0.0085
1963.00,0.0084
1962.00,0.0083
1961.00,0.0083
1960.00,0.0083
1959.00,0.0084
1958.00,0.0084
1957.00,0.0086
1956.00,0.0087
1955.00,0.0089
1954.00,0.0089
1953.00,0.0090
1952.00,0.0090
1951.00,0.0090
1950.00,0.0091
1949.00,0.0091
1948.00,0.0091
1947.00,0.0090
1946.00,0.0090
1945.00,0.0090
1944.00,0.0090
1943.00,0.0090
1942.00,0.0091
1941.00,0.0091
1940.00,0.0091
1939.00,0.0091
1938.00,0.0091
1937.00,0.0090
1936.00,0.0091
1935.00,0.0091
1934.00,0.0092
1933.00,0.0092
1932.00,0.0092
1931.00,0.0092
1930.00,0.0091
1929.00,0.0092
1928.00,0.0092
1927.00,0.0093
1926.00,0.0093
1925.00,0.0093
1924.00,0.0093
1923.00,0.0094
1922.00,0.0094
1921.00,0.0094
1920.00,0.0095
1919.00,0.0095
1918.00,0.0095
1917.00,0.0095
1916.00,0.0095
1915.00,0.0095
1914.00,0.0095
1913.00,0.0094
1912.00,0.0094
1911.00,0.0094
1910.00,0.0094
1909.00,0.0094
1908.00,0.0094
1907.00,0.0093
1906.00,0.0093
1905.00,0.0093
1904.00,0.0094
1903.00,0.0094
1902.00,0.0094
1901.00,0.0094
1900.00,0.0095
1899.00,0.0094
1898.00,0.0094
1897.00,0.0094
1896.00,0.0094
1895.00,0.0094
1894.00,0.0094
1893.00,0.0094
1892.00,0.0095
1891.00,0.0095
1890.00,0.0095
1889.00,0.0095
1888.00,0.0095
1887.00,0.0095
1886.00,0.0095
1885.00,0.0095
1884.00,0.0095
1883.00,0.0095
1882.00,0.0095
1881.00,0.0095
1880.00,0.0095
1879.00,0.0095
1878.00,0.0095
1877.00,0.0095
1876.00,0.0095
1875.00,0.0096
1874.00,0.0096
1873.00,0.0097
1872.00,0.0097
1871.00,0.0097
1870.00,0.0096
1869.00,0.0096
1868.00,0.0096
1867.00,0.0096
1866.00,0.0097
1865.00,0.0097
1864.00,0.0097
1863.00,0.0097
1862.00,0.0096
1861.00,0.0096
1860.00,0.0096
1859.00,0.0096
1858.00,0.0096
1857.00,0.0097
1856.00,0.0097
1855.00,0.0098
1854.00,0.0098
1853.00,0.0097
1852.00,0.0097
1851.00,0.0097
1850.00,0.0097
1849.00,0.0098
1848.00,0.0098
1847.00,0.0098
1846.00,0.0097
1845.00,0.0097
1844.00,0.0097
1843.00,0.0097
1842.00,0.0097
1841.00,0.0097
1840.00,0.0097
1839.00,0.0097
1838.00,0.0097
1837.00,0.0097
1836.00,0.0098
1835.00,0.0098
1834.00,0.0098
1833.00,0.0098
1832.00,0.0098
1831.00,0.0098
1830.00,0.0098
1829.00,0.0098
1828.00,0.0099
1827.00,0.0099
1826.00,0.0099
1825.00,0.0100
1824.00,0.0100
1823.00,0.0100
1822.00,0.0100
1821.00,0.0100
1820.00,0.0099
1819.00,0.0098
1818.00,0.0098
1817.00,0.0097
1816.00,0.0098
1815.00,0.0099
1814.00,0.0099
1813.00,0.0100
1812.00,0.0100
1811.00,0.0100
1810.00,0.0100
1809.00,0.0100
1808.00,0.0101
1807.00,0.0101
1806.00,0.0101
1805.00,0.0101
1804.00,0.0101
1803.00,0.0101
1802.00,0.0101
1801.00,0.0101
1800.00,0.0102
1799.00,0.0102
1798.00,0.0102
1797.00,0.0102
1796.00,0.0102
1795.00,0.0102
1794.00,0.0101
1793.00,0.0102
1792.00,0.0102
1791.00,0.0103
1790.00,0.0103
1789.00,0.0103
1788.00,0.0103
1787.00,0.0103
1786.00,0.0103
1785.00,0.0102
1784.00,0.0102
1783.00,0.0102
1782.00,0.0102
1781.00,0.0103
1780.00,0.0103
1779.00,0.0103
1778.00,0.0103
1777.00,0.0102
1776.00,0.0102
1775.00,0.0102
1774.00,0.0102
1773.00,0.0102
1772.00,0.0103
1771.00,0.0103
1770.00,0.0103
1769.00,0.0103
1768.00,0.0103
1767.00,0.0103
1766.00,0.0103
1765.00,0.0103
1764.00,0.0103
1763.00,0.0103
1762.00,0.0104
1761.00,0.0104
1760.00,0.0104
1759.00,0.0104
1758.00,0.0104
1757.00,0.0103
1756.00,0.0103
1755.00,0.0103
1754.00,0.0102
1753.00,0.0102
1752.00,0.0102
1751.00,0.0102
1750.00,0.0102
1749.00,0.0102
1748.00,0.0102
1747.00,0.0103
1746.00,0.0103
1745.00,0.0102
1744.00,0.0102
1743.00,0.0103
1742.00,0.0103
1741.00,0.0103
1740.00,0.0104
1739.00,0.0104
1738.00,0.0104
1737.00,0.0104
1736.00,0.0104
1735.00,0.0104
1734.00,0.0104
1733.00,0.0104
1732.00,0.0104
1731.00,0.0105
1730.00,0.0105
1729.00,0.0105
1728.00,0.0105
1727.00,0.0105
1726.00,0.0105
1725.00,0.0105
1724.00,0.0105
1723.00,0.0105
1722.00,0.0104
1721.00,0.0104
1720.00,0.0104
1719.00,0.0103
1718.00,0.0102
1717.00,0.0101
1716.00,0.0101
1715.00,0.0101
1714.00,0.0101
1713.00,0.0101
1712.00,0.0100
1711.00,0.0100
1710.00,0.0099
1709.00,0.0098
1708.00,0.0097
1707.00,0.0096
1706.00,0.0095
1705.00,0.0093
1704.00,0.0091
1703.00,0.0090
1702.00,0.0088
1701.00,0.0085
1700.00,0.0080
1699.00,0.0076
1698.00,0.0073
1697.00,0.0069
1696.00,0.0064
1695.00,0.0057
1694.00,0.0052
1693.00,0.0047
1692.00,0.0042
1691.00,0.0037
1690.00,0.0031
1689.00,0.0026
1688.00,0.0022
1687.00,0.0018
1686.00,0.0015
1685.00,0.0010
1684.00,0.0005
1683.00,0.0001
1682.00,-0.0001
1681.00,-0.0001
1680.00,-0.0002
1679.00,-0.0002
1678.00,-0.0002
1677.00,-0.0001
1676.00,-0.0001
1675.00,-0.0001
1674.00,-0.0001
1673.00,-0.0001
1672.00,-0.0000
1671.00,0.0000
1670.00,0.0000
1669.00,0.0001
1668.00,0.0001
1667.00,0.0001
1666.00,0.0002
1665.00,0.0003
1664.00,0.0004
1663.00,0.0006
1662.00,0.0007
1661.00,0.0010
1660.00,0.0013
1659.00,0.0016
1658.00,0.0019
1657.00,0.0023
1656.00,0.0026
1655.00,0.0031
1654.00,0.0037
1653.00,0.0045
1652.00,0.0052
1651.00,0.0057
1650.00,0.0060
1649.00,0.0064
1648.00,0.0070
1647.00,0.0076
1646.00,0.0083
1645.00,0.0089
1644.00,0.0093
1643.00,0.0097
1642.00,0.0101
1641.00,0.0104
1640.00,0.0107
1639.00,0.0109
1638.00,0.0111
1637.00,0.0114
1636.00,0.0116
1635.00,0.0119
1634.00,0.0120
1633.00,0.0121
1632.00,0.0122
1631.00,0.0123
1630.00,0.0123
1629.00,0.0124
1628.00,0.0124
1627.00,0.0125
1626.00,0.0125
1625.00,0.0125
1624.00,0.0125
1623.00,0.0125
1622.00,0.0125
1621.00,0.0125
1620.00,0.0124
1619.00,0.0124
1618.00,0.0123
1617.00,0.0123
1616.00,0.0122
1615.00,0.0122
1614.00,0.0122
1613.00,0.0123
1612.00,0.0123
1611.00,0.0123
1610.00,0.0123
1609.00,0.0123
1608.00,0.0122
1607.00,0.0122
1606.00,0.0121
1605.00,0.0121
1604.00,0.0120
1603.00,0.0119
1602.00,0.0118
1601.00,0.0117
1600.00,0.0116
1599.00,0.0116
1598.00,0.0115
1597.00,0.0114
1596.00,0.0114
1595.00,0.0114
1594.00,0.0114
1593.00,0.0114
1592.00,0.0115
1591.00,0.0115
1590.00,0.0116
1589.00,0.0116
1588.00,0.0117
1587.00,0.0118
1586.00,0.0118
1585.00,0.0118
1584.00,0.0118
1583.00,0.0118
1582.00,0.0118
1581.00,0.0118
1580.00,0.0118
1579.00,0.0118
1578.00,0.0118
1577.00,0.0118
1576.00,0.0118
1575.00,0.0118
1574.00,0.0118
1573.00,0.0118
1572.00,0.0118
1571.00,0.0118
1570.00,0.0118
1569.00,0.0118
1568.00,0.0118
1567.00,0.0118
1566.00,0.0118
1565.00,0.0118
1564.00,0.0118
1563.00,0.0118
1562.00,0.0118
1561.00,0.0118
1560.00,0.0117
1559.00,0.0117
1558.00,0.0117
1557.00,0.0117
1556.00,0.0117
1555.00,0.0117
1554.00,0.0117
1553.00,0.0116
1552.00,0.0116
1551.00,0.0115
1550.00,0.0115
1549.00,0.0114
1548.00,0.0114
1547.00,0.0115
1546.00,0.0115
1545.00,0.0115
1544.00,0.0115
1543.00,0.0115
1542.00,0.0114
1541.00,0.0114
1540.00,0.0114
1539.00,0.0114
1538.00,0.0114
1537.00,0.0114
1536.00,0.0114
1535.00,0.0114
1534.00,0.0114
1533.00,0.0114
1532.00,0.0114
1531.00,0.0114
1530.00,0.0113
1529.00,0.0113
1528.00,0.0113
1527.00,0.0113
1526.00,0.0113
1525.00,0.0113
1524.00,0.0113
1523.00,0.0113
1522.00,0.0113
1521.00,0.0113
1520.00,0.0113
1519.00,0.0113
1518.00,0.0113
1517.00,0.0113
1516.00,0.0113
1515.00,0.0113
1514.00,0.0113
1513.00,0.0113
1512.00,0.0113
1511.00,0.0114
1510.00,0.0113
1509.00,0.0113
1508.00,0.0113
1507.00,0.0113
1506.00,0.0113
1505.00,0.0113
1504.00,0.0112
1503.00,0.0111
1502.00,0.0111
1501.00,0.0110
1500.00,0.0110
1499.00,0.0109
1498.00,0.0108
1497.00,0.0109
1496.00,0.0109
1495.00,0.0110
1494.00,0.0110
1493.00,0.0111
1492.00,0.0113
1491.00,0.0115
1490.00,0.0118
1489.00,0.0121
1488.00,0.0126
1487.00,0.0130
1486.00,0.0135
1485.00,0.0140
1484.00,0.0145
1483.00,0.0151
1482.00,0.0158
1481.00,0.0165
1480.00,0.0173
1479.00,0.0180
1478.00,0.0187
1477.00,0.0195
1476.00,0.0203
1475.00,0.0210
1474.00,0.0218
1473.00,0.0226
1472.00,0.0234
1471.00,0.0240
1470.00,0.0244
1469.00,0.0247
1468.00,0.0249
1467.00,0.0250
1466.00,0.0252
1465.00,0.0254
1464.00,0.0256
1463.00,0.0259
1462.00,0.0262
1461.00,0.0265
1460.00,0.0268
1459.00,0.0272
1458.00,0.0278
1457.00,0.0286
1456.00,0.0293
1455.00,0.0296
1454.00,0.0298
1453.00,0.0298
1452.00,0.0298
1451.00,0.0297
1450.00,0.0294
1449.00,0.0291
1448.00,0.0286
1447.00,0.0280
1446.00,0.0273
1445.00,0.0266
1444.00,0.0258
1443.00,0.0249
1442.00,0.0239
1441.00,0.0230
1440.00,0.0220
1439.00,0.0212
1438.00,0.0203
1437.00,0.0193
1436.00,0.0184
1435.00,0.0177
1434.00,0.0172
1433.00,0.0167
1432.00,0.0163
1431.00,0.0160
1430.00,0.0158
1429.00,0.0157
1428.00,0.0156
1427.00,0.0157
1426.00,0.0158
1425.00,0.0160
1424.00,0.0164
1423.00,0.0168
1422.00,0.0173
1421.00,0.0179
1420.00,0.0187
1419.00,0.0196
1418.00,0.0205
1417.00,0.0213
1416.00,0.0219
1415.00,0.0224
1414.00,0.0228
1413.00,0.0232
1412.00,0.0236
1411.00,0.0238
1410.00,0.0240
1409.00,0.0242
1408.00,0.0242
1407.00,0.0243
1406.00,0.0243
1405.00,0.0243
1404.00,0.0242
1403.00,0.0241
1402.00,0.0240
1401.00,0.0238
1400.00,0.0237
1399.00,0.0236
1398.00,0.0235
1397.00,0.0234
1396.00,0.0234
1395.00,0.0235
1394.00,0.0236
1393.00,0.0238
1392.00,0.0240
1391.00,0.0242
1390.00,0.0245
1389.00,0.0249
1388.00,0.0254
1387.00,0.0261
1386.00,0.0268
1385.00,0.0275
1384.00,0.0282
1383.00,0.0289
1382.00,0.0297
1381.00,0.0304
1380.00,0.0311
1379.00,0.0318
1378.00,0.0324
1377.00,0.0329
1376.00,0.0334
1375.00,0.0337
1374.00,0.0340
1373.00,0.0342
1372.00,0.0343
1371.00,0.0342
1370.00,0.0339
1369.00,0.0336
1368.00,0.0331
1367.00,0.0326
1366.00,0.0319
1365.00,0.0313
1364.00,0.0306
1363.00,0.0298
1362.00,0.0291
1361.00,0.0285
1360.00,0.0279
1359.00,0.0274
1358.00,0.0270
1357.00,0.0266
1356.00,0.0263
1355.00,0.0261
1354.00,0.0260
1353.00,0.0259
1352.00,0.0259
1351.00,0.0260
1350.00,0.0262
1349.00,0.0264
1348.00,0.0267
1347.00,0.0269
1346.00,0.0272
1345.00,0.0275
1344.00,0.0278
1343.00,0.0281
1342.00,0.0284
1341.00,0.0287
1340.00,0.0290
1339.00,0.0292
1338.00,0.0294
1337.00,0.0296
1336.00,0.0297
1335.00,0.0297
1334.00,0.0296
1333.00,0.0295
1332.00,0.0294
1331.00,0.0293
1330.00,0.0292
1329.00,0.0291
1328.00,0.0291
1327.00,0.0290
1326.00,0.0290
1325.00,0.0291
1324.00,0.0292
1323.00,0.0293
1322.00,0.0295
1321.00,0.0297
1320.00,0.0299
1319.00,0.0302
1318.00,0.0305
1317.00,0.0309
1316.00,0.0312
1315.00,0.0315
1314.00,0.0317
1313.00,0.0318
1312.00,0.0319
1311.00,0.0318
1310.00,0.0316
1309.00,0.0314
1308.00,0.0310
1307.00,0.0306
1306.00,0.0301
1305.00,0.0295
1304.00,0.0288
1303.00,0.0282
1302.00,0.0275
1301.00,0.0268
1300.00,0.0261
1299.00,0.0254
1298.00,0.0246
1297.00,0.0239
1296.00,0.0231
1295.00,0.0224
1294.00,0.0218
1293.00,0.0212
1292.00,0.0207
1291.00,0.0204
1290.00,0.0201
1289.00,0.0200
1288.00,0.0200
1287.00,0.0200
1286.00,0.0201
1285.00,0.0201
1284.00,0.0202
1283.00,0.0202
1282.00,0.0201
1281.00,0.0200
1280.00,0.0198
1279.00,0.0196
1278.00,0.0194
1277.00,0.0191
1276.00,0.0189
1275.00,0.0188
1274.00,0.0187
1273.00,0.0187
1272.00,0.0188
1271.00,0.0189
1270.00,0.0191
1269.00,0.0193
1268.00,0.0195
1267.00,0.0197
1266.00,0.0198
1265.00,0.0198
1264.00,0.0198
1263.00,0.0198
1262.00,0.0197
1261.00,0.0196
1260.00,0.0194
1259.00,0.0192
1258.00,0.0191
1257.00,0.0189
1256.00,0.0187
1255.00,0.0185
1254.00,0.0183
1253.00,0.0182
1252.00,0.0181
1251.00,0.0180
1250.00,0.0179
1249.00,0.0179
1248.00,0.0178
1247.00,0.0178
1246.00,0.0178
1245.00,0.0178
1244.00,0.0178
1243.00,0.0178
1242.00,0.0177
1241.00,0.0177
1240.00,0.0177
1239.00,0.0176
1238.00,0.0176
1237.00,0.0175
1236.00,0.0174
1235.00,0.0174
1234.00,0.0173
1233.00,0.0172
1232.00,0.0172
1231.00,0.0172
1230.00,0.0172
1229.00,0.0173
1228.00,0.0175
1227.00,0.0177
1226.00,0.0180
1225.00,0.0183
1224.00,0.0188
1223.00,0.0193
1222.00,0.0200
1221.00,0.0208
1220.00,0.0217
1219.00,0.0226
1218.00,0.0236
1217.00,0.0247
1216.00,0.0257
1215.00,0.0267
1214.00,0.0276
1213.00,0.0285
1212.00,0.0292
1211.00,0.0298
1210.00,0.0304
1209.00,0.0308
1208.00,0.0313
1207.00,0.0318
1206.00,0.0323
1205.00,0.0328
1204.00,0.0334
1203.00,0.0340
1202.00,0.0345
1201.00,0.0350
1200.00,0.0354
1199.00,0.0358
1198.00,0.0360
1197.00,0.0362
1196.00,0.0364
1195.00,0.0366
1194.00,0.0367
1193.00,0.0368
1192.00,0.0370
1191.00,0.0371
1190.00,0.0372
1189.00,0.0372
1188.00,0.0372
1187.00,0.0371
1186.00,0.0369
1185.00,0.0367
1184.00,0.0365
1183.00,0.0362
1182.00,0.0360
1181.00,0.0358
1180.00,0.0357
1179.00,0.0357
1178.00,0.0357
1177.00,0.0358
1176.00,0.0360
1175.00,0.0363
1174.00,0.0368
1173.00,0.0373
1172.00,0.0380
1171.00,0.0389
1170.00,0.0399
1169.00,0.0410
1168.00,0.0423
1167.00,0.0438
1166.00,0.0454
1165.00,0.0471
1164.00,0.0489
1163.00,0.0508
1162.00,0.0527
1161.00,0.0546
1160.00,0.0566
1159.00,0.0586
1158.00,0.0605
1157.00,0.0625
1156.00,0.0644
1155.00,0.0662
1154.00,0.0678
1153.00,0.0693
1152.00,0.0706
1151.00,0.0718
1150.00,0.0727
1149.00,0.0736
1148.00,0.0745
1147.00,0.0752
1146.00,0.0759
1145.00,0.0767
1144.00,0.0775
1143.00,0.0783
1142.00,0.0793
1141.00,0.0804
1140.00,0.0817
1139.00,0.0832
1138.00,0.0848
1137.00,0.0867
1136.00,0.0888
1135.00,0.0911
1134.00,0.0935
1133.00,0.0961
1132.00,0.0989
1131.00,0.1018
1130.00,0.1046
1129.00,0.1075
1128.00,0.1103
1127.00,0.1131
1126.00,0.1157
1125.00,0.1182
1124.00,0.1206
1123.00,0.1230
1122.00,0.1252
1121.00,0.1273
1120.00,0.1294
1119.00,0.1314
1118.00,0.1331
1117.00,0.1347
1116.00,0.1363
1115.00,0.1377
1114.00,0.1389
1113.00,0.1401
1112.00,0.1412
1111.00,0.1422
1110.00,0.1429
1109.00,0.1436
1108.00,0.1442
1107.00,0.1447
1106.00,0.1451
1105.00,0.1455
1104.00,0.1460
1103.00,0.1464
1102.00,0.1467
1101.00,0.1471
1100.00,0.1475
1099.00,0.1478
1098.00,0.1480
1097.00,0.1483
1096.00,0.1485
1095.00,0.1488
1094.00,0.1491
1093.00,0.1495
1092.00,0.1500
1091.00,0.1508
1090.00,0.1518
1089.00,0.1530
1088.00,0.1545
1087.00,0.1562
1086.00,0.1580
1085.00,0.1601
1084.00,0.1624
1083.00,0.1649
1082.00,0.1673
1081.00,0.1699
1080.00,0.1725
1079.00,0.1751
1078.00,0.1776
1077.00,0.1801
1076.00,0.1827
1075.00,0.1851
1074.00,0.1874
1073.00,0.1897
1072.00,0.1921
1071.00,0.1943
1070.00,0.1965
1069.00,0.1986
1068.00,0.2009
1067.00,0.2030
1066.00,0.2051
1065.00,0.2072
1064.00,0.2093
1063.00,0.2113
1062.00,0.2131
1061.00,0.2148
1060.00,0.2163
1059.00,0.2176
1058.00,0.2186
1057.00,0.2194
1056.00,0.2201
1055.00,0.2206
1054.00,0.2207
1053.00,0.2208
1052.00,0.2207
1051.00,0.2204
1050.00,0.2198
1049.00,0.2191
1048.00,0.2183
1047.00,0.2172
1046.00,0.2158
1045.00,0.2144
1044.00,0.2129
1043.00,0.2113
1042.00,0.2095
1041.00,0.2076
1040.00,0.2058
1039.00,0.2040
1038.00,0.2021
1037.00,0.2003
1036.00,0.1986
1035.00,0.1969
1034.00,0.1951
1033.00,0.1934
1032.00,0.1917
1031.00,0.1900
1030.00,0.1883
1029.00,0.1867
1028.00,0.1851
1027.00,0.1836
1026.00,0.1820
1025.00,0.1805
1024.00,0.1790
1023.00,0.1775
1022.00,0.1759
1021.00,0.1742
1020.00,0.1727
1019.00,0.1711
1018.00,0.1696
1017.00,0.1681
1016.00,0.1667
1015.00,0.1652
1014.00,0.1637
1013.00,0.1621
1012.00,0.1605
1011.00,0.1587
1010.00,0.1567
1009.00,0.1546
1008.00,0.1523
1007.00,0.1498
1006.00,0.1471
1005.00,0.1443
1004.00,0.1416
1003.00,0.1387
1002.00,0.1358
1001.00,0.1329
1000.00,0.1301
999.00,0.1272
998.00,0.1243
997.00,0.1215
996.00,0.1188
995.00,0.1162
994.00,0.1136
993.00,0.1111
992.00,0.1086
991.00,0.1061
990.00,0.1036
989.00,0.1012
988.00,0.0989
987.00,0.0967
986.00,0.0946
985.00,0.0926
984.00,0.0907
983.00,0.0888
982.00,0.0871
981.00,0.0854
980.00,0.0839
979.00,0.0825
978.00,0.0812
977.00,0.0800
976.00,0.0789
975.00,0.0779
974.00,0.0770
973.00,0.0763
972.00,0.0757
971.00,0.0752
970.00,0.0749
969.00,0.0749
968.00,0.0751
967.00,0.0755
966.00,0.0761
965.00,0.0770
964.00,0.0781
963.00,0.0794
962.00,0.0808
961.00,0.0824
960.00,0.0840
959.00,0.0857
958.00,0.0875
957.00,0.0893
956.00,0.0911
955.00,0.0929
954.00,0.0947
953.00,0.0964
952.00,0.0981
951.00,0.0997
950.00,0.1011
949.00,0.1024
948.00,0.1037
947.00,0.1047
946.00,0.1055
945.00,0.1060
944.00,0.1062
943.00,0.1060
942.00,0.1054
941.00,0.1043
940.00,0.1030
939.00,0.1014
938.00,0.0995
937.00,0.0976
936.00,0.0958
935.00,0.0942
934.00,0.0928
933.00,0.0916
932.00,0.0907
931.00,0.0900
930.00,0.0893
929.00,0.0886
928.00,0.0881
927.00,0.0875
926.00,0.0868
925.00,0.0859
924.00,0.0851
923.00,0.0841
922.00,0.0830
921.00,0.0819
920.00,0.0808
919.00,0.0796
918.00,0.0784
917.00,0.0772
916.00,0.0761
915.00,0.0751
914.00,0.0742
913.00,0.0733
912.00,0.0726
911.00,0.0718
910.00,0.0711
909.00,0.0704
908.00,0.0696
907.00,0.0689
906.00,0.0681
905.00,0.0673
904.00,0.0665
903.00,0.0657
902.00,0.0648
901.00,0.0640
900.00,0.0634
899.00,0.0628
898.00,0.0623
897.00,0.0619
896.00,0.0616
895.00,0.0614
894.00,0.0612
893.00,0.0610
892.00,0.0608
891.00,0.0606
890.00,0.0603
889.00,0.0599
888.00,0.0594
887.00,0.0588
886.00,0.0580
885.00,0.0570
884.00,0.0560
883.00,0.0548
882.00,0.0536
881.00,0.0524
880.00,0.0513
879.00,0.0502
878.00,0.0492
877.00,0.0482
876.00,0.0474
875.00,0.0466
874.00,0.0459
873.00,0.0453
872.00,0.0447
871.00,0.0443
870.00,0.0438
869.00,0.0434
868.00,0.0431
867.00,0.0428
866.00,0.0426
865.00,0.0424
864.00,0.0422
863.00,0.0421
862.00,0.0420
861.00,0.0419
860.00,0.0419
859.00,0.0420
858.00,0.0420
857.00,0.0421
856.00,0.0422
855.00,0.0422
854.00,0.0422
853.00,0.0421
852.00,0.0421
851.00,0.0420
850.00,0.0419
849.00,0.0418
848.00,0.0416
847.00,0.0414
846.00,0.0411
845.00,0.0409
844.00,0.0407
843.00,0.0406
842.00,0.0405
841.00,0.0404
840.00,0.0403
839.00,0.0401
838.00,0.0400
837.00,0.0398
836.00,0.0395
835.00,0.0392
834.00,0.0390
833.00,0.0387
832.00,0.0385
831.00,0.0382
830.00,0.0380
829.00,0.0378
828.00,0.0377
827.00,0.0377
826.00,0.0376
825.00,0.0376
824.00,0.0376
823.00,0.0377
822.00,0.0378
821.00,0.0378
820.00,0.0377
819.00,0.0376
818.00,0.0375
817.00,0.0373
816.00,0.0372
815.00,0.0371
814.00,0.0370
813.00,0.0369
812.00,0.0368
811.00,0.0367
810.00,0.0365
809.00,0.0364
808.00,0.0362
807.00,0.0361
806.00,0.0360
805.00,0.0358
804.00,0.0357
803.00,0.0356
802.00,0.0353
801.00,0.0351
800.00,0.0350
799.00,0.0349
798.00,0.0348
797.00,0.0347
796.00,0.0346
795.00,0.0345
794.00,0.0343
793.00,0.0342
792.00,0.0342
791.00,0.0342
790.00,0.0341
789.00,0.0341
788.00,0.0340
787.00,0.0339
786.00,0.0338
785.00,0.0337
784.00,0.0336
783.00,0.0335
782.00,0.0334
781.00,0.0334
780.00,0.0334
779.00,0.0334
778.00,0.0333
777.00,0.0333
776.00,0.0333
775.00,0.0333
774.00,0.0332
773.00,0.0332
772.00,0.0332
771.00,0.0331
770.00,0.0331
769.00,0.0330
768.00,0.0330
767.00,0.0329
766.00,0.0329
765.00,0.0329
764.00,0.0329
763.00,0.0329
762.00,0.0328
761.00,0.0328
760.00,0.0328
759.00,0.0328
758.00,0.0327
757.00,0.0327
756.00,0.0327
755.00,0.0327
754.00,0.0327
753.00,0.0328
752.00,0.0328
751.00,0.0328
750.00,0.0327
749.00,0.0327
748.00,0.0326
747.00,0.0327
746.00,0.0327
745.00,0.0327
744.00,0.0328
743.00,0.0328
742.00,0.0328
741.00,0.0328
740.00,0.0328
739.00,0.0329
738.00,0.0329
737.00,0.0329
736.00,0.0329
735.00,0.0329
734.00,0.0329
733.00,0.0330
732.00,0.0331
731.00,0.0332
730.00,0.0333
729.00,0.0333
728.00,0.0334
727.00,0.0335
726.00,0.0336
725.00,0.0337
724.00,0.0338
723.00,0.0340
722.00,0.0342
721.00,0.0344
720.00,0.0346
719.00,0.0348
718.00,0.0351
717.00,0.0353
716.00,0.0355
715.00,0.0358
714.00,0.0360
713.00,0.0362
712.00,0.0365
711.00,0.0367
710.00,0.0369
709.00,0.0370
708.00,0.0372
707.00,0.0373
706.00,0.0374
705.00,0.0374
704.00,0.0375
703.00,0.0376
702.00,0.0376
701.00,0.0376
700.00,0.0377
699.00,0.0377
698.00,0.0376
697.00,0.0376
696.00,0.0375
695.00,0.0375
694.00,0.0374
693.00,0.0374
692.00,0.0375
691.00,0.0376
690.00,0.0376
689.00,0.0377
688.00,0.0378
687.00,0.0380
686.00,0.0382
685.00,0.0385
684.00,0.0390
683.00,0.0395
682.00,0.0401
681.00,0.0408
680.00,0.0417
679.00,0.0427
678.00,0.0437
677.00,0.0449
676.00,0.0460
675.00,0.0472
674.00,0.0483
673.00,0.0493
672.00,0.0503
671.00,0.0511
670.00,0.0517
669.00,0.0526
668.00,0.0540
667.00,0.0551
666.00,0.0556
665.00,0.0558
664.00,0.0560
663.00,0.0562
662.00,0.0564
661.00,0.0566
660.00,0.0568
659.00,0.0569
658.00,0.0570
657.00,0.0571
656.00,0.0571
655.00,0.0570
654.00,0.0570
653.00,0.0570
652.00,0.0571
651.00,0.0571
650.00,0.0571
649.00,0.0570
648.00,0.0570
647.00,0.0570
646.00,0.0570
645.00,0.0570
644.00,0.0571
643.00,0.0571
642.00,0.0571
641.00,0.0572
640.00,0.0573
639.00,0.0576
638.00,0.0578
637.00,0.0581
636.00,0.0584
635.00,0.0588
634.00,0.0592
633.00,0.0596
632.00,0.0600
631.00,0.0604
630.00,0.0608
629.00,0.0612
628.00,0.0616
627.00,0.0621
626.00,0.0626
625.00,0.0631
624.00,0.0637
623.00,0.0643
622.00,0.0648
621.00,0.0653
620.00,0.0658
619.00,0.0663
618.00,0.0668
617.00,0.0672
616.00,0.0677
615.00,0.0682
614.00,0.0686
613.00,0.0689
612.00,0.0693
611.00,0.0697
610.00,0.0699
609.00,0.0701
608.00,0.0703
607.00,0.0704
606.00,0.0704
605.00,0.0704
604.00,0.0705
603.00,0.0705
602.00,0.0706
601.00,0.0707
600.00,0.0709
599.00,0.0710
598.00,0.0711
597.00,0.0712
596.00,0.0712
595.00,0.0714
594.00,0.0715
593.00,0.0717
592.00,0.0720
591.00,0.0724
590.00,0.0727
589.00,0.0731
588.00,0.0734
587.00,0.0738
586.00,0.0742
585.00,0.0747
584.00,0.0752
583.00,0.0756
582.00,0.0760
581.00,0.0763
580.00,0.0768
579.00,0.0773
578.00,0.0778
577.00,0.0782
576.00,0.0788
575.00,0.0793
574.00,0.0796
573.00,0.0799
572.00,0.0803
571.00,0.0806
570.00,0.0809
569.00,0.0812
568.00,0.0815
567.00,0.0817
566.00,0.0819
565.00,0.0822
564.00,0.0825
563.00,0.0826
562.00,0.0825
561.00,0.0823
560.00,0.0822
559.00,0.0820
558.00,0.0818
557.00,0.0815
556.00,0.0814
555.00,0.0813
554.00,0.0813
553.00,0.0814
552.00,0.0816
551.00,0.0817
550.00,0.0816
549.00,0.0815
548.00,0.0815
547.00,0.0814
546.00,0.0814
545.00,0.0815
544.00,0.0817
543.00,0.0818
542.00,0.0817
541.00,0.0816
540.00,0.0815
539.00,0.0814
538.00,0.0815
537.00,0.0816
536.00,0.0819
535.00,0.0821
534.00,0.0821
533.00,0.0821
532.00,0.0821
531.00,0.0822
530.00,0.0823
529.00,0.0824
528.00,0.0826
527.00,0.0827
526.00,0.0827
525.00,0.0827
524.00,0.0827
523.00,0.0828
522.00,0.0828
521.00,0.0830
520.00,0.0832
519.00,0.0834
518.00,0.0835
517.00,0.0837
516.00,0.0839
515.00,0.0841
514.00,0.0841
513.00,0.0840
512.00,0.0841
511.00,0.0842
510.00,0.0842
509.00,0.0842
508.00,0.0843
507.00,0.0846
506.00,0.0848
505.00,0.0849
504.00,0.0851
503.00,0.0852
502.00,0.0852
501.00,0.0854
500.00,0.0855
499.00,0.0854
498.00,0.0851
497.00,0.0851
496.00,0.0853
495.00,0.0855
494.00,0.0854
493.00,0.0853
492.00,0.0853
491.00,0.0854
490.00,0.0854
489.00,0.0854
488.00,0.0857
487.00,0.0861
486.00,0.0867
485.00,0.0874
484.00,0.0880
483.00,0.0884
482.00,0.0884
481.00,0.0883
480.00,0.0883
479.00,0.0883
478.00,0.0885
477.00,0.0889
476.00,0.0895
475.00,0.0898
474.00,0.0898
473.00,0.0897
472.00,0.0897
471.00,0.0897
470.00,0.0894
469.00,0.0890
468.00,0.0888
467.00,0.0888
466.00,0.0888
465.00,0.0888
464.00,0.0888
463.00,0.0886
462.00,0.0882
461.00,0.0878
460.00,0.0875
459.00,0.0871
458.00,0.0864
457.00,0.0859
456.00,0.0858
455.00,0.0857
454.00,0.0854
453.00,0.0852
452.00,0.0851
451.00,0.0849
450.00,0.0844
449.00,0.0840
448.00,0.0837
447.00,0.0835
446.00,0.0832
445.00,0.0826
444.00,0.0822
443.00,0.0818
442.00,0.0813
441.00,0.0810
440.00,0.0808
439.00,0.0804
438.00,0.0798
437.00,0.0795
436.00,0.0797
435.00,0.0798
434.00,0.0795
433.00,0.0790
432.00,0.0790
431.00,0.0792
430.00,0.0793
429.00,0.0792
428.00,0.0790
427.00,0.0785
426.00,0.0777
425.00,0.0770
424.00,0.0767
423.00,0.0767
422.00,0.0765
421.00,0.0764
420.00,0.0766
419.00,0.0765
418.00,0.0758
417.00,0.0754
416.00,0.0757
415.00,0.0760
414.00,0.0759
413.00,0.0756
412.00,0.0755
411.00,0.0755
410.00,0.0753
409.00,0.0752
408.00,0.0755
407.00,0.0756
406.00,0.0750
405.00,0.0739
404.00,0.0731
403.00,0.0726
402.00,0.0722
401.00,0.0728
400.00,0.0745
