Created as New Dataset,Sample 197 By YargerLab Date Saturday, October 04 2025
cm-1,A
4000.00,0.0068
3999.00,0.0068
3998.00,0.0068
3997.00,0.0068
3996.00,0.0068
3995.00,0.0068
3994.00,0.0068
3993.00,0.0068
3992.00,0.0068
3991.00,0.0068
3990.00,0.0068
3989.00,0.0068
3988.00,0.0068
3987.00,0.0068
3986.00,0.0068
3985.00,0.0068
3984.00,0.0068
3983.00,0.0068
3982.00,0.0068
3981.00,0.0068
3980.00,0.0068
3979.00,0.0068
3978.00,0.0068
3977.00,0.0068
3976.00,0.0067
3975.00,0.0067
3974.00,0.0068
3973.00,0.0068
3972.00,0.0068
3971.00,0.0068
3970.00,0.0068
3969.00,0.0068
3968.00,0.0068
3967.00,0.0068
3966.00,0.0068
3965.00,0.0067
3964.00,0.0067
3963.00,0.0067
3962.00,0.0067
3961.00,0.0067
3960.00,0.0067
3959.00,0.0067
3958.00,0.0068
3957.00,0.0068
3956.00,0.0068
3955.00,0.0068
3954.00,0.0067
3953.00,0.0067
3952.00,0.0067
3951.00,0.0067
3950.00,0.0067
3949.00,0.0067
3948.00,0.0067
3947.00,0.0067
3946.00,0.0067
3945.00,0.0067
3944.00,0.0067
3943.00,0.0067
3942.00,0.0067
3941.00,0.0067
3940.00,0.0067
3939.00,0.0067
3938.00,0.0067
3937.00,0.0067
3936.00,0.0067
3935.00,0.0067
3934.00,0.0067
3933.00,0.0067
3932.00,0.0067
3931.00,0.0067
3930.00,0.0067
3929.00,0.0067
3928.00,0.0067
3927.00,0.0067
3926.00,0.0067
3925.00,0.0068
3924.00,0.0068
3923.00,0.0067
3922.00,0.0067
3921.00,0.0067
3920.00,0.0067
3919.00,0.0067
3918.00,0.0067
3917.00,0.0067
3916.00,0.0067
3915.00,0.0067
3914.00,0.0067
3913.00,0.0068
3912.00,0.0068
3911.00,0.0068
3910.00,0.0067
3909.00,0.0067
3908.00,0.0067
3907.00,0.0067
3906.00,0.0067
3905.00,0.0067
3904.00,0.0066
3903.00,0.0066
3902.00,0.0066
3901.00,0.0066
3900.00,0.0066
3899.00,0.0066
3898.00,0.0067
3897.00,0.0067
3896.00,0.0067
3895.00,0.0067
3894.00,0.0067
3893.00,0.0067
3892.00,0.0067
3891.00,0.0067
3890.00,0.0067
3889.00,0.0066
3888.00,0.0066
3887.00,0.0066
3886.00,0.0066
3885.00,0.0066
3884.00,0.0066
3883.00,0.0067
3882.00,0.0067
3881.00,0.0067
3880.00,0.0067
3879.00,0.0067
3878.00,0.0067
3877.00,0.0067
3876.00,0.0067
3875.00,0.0066
3874.00,0.0066
3873.00,0.0066
3872.00,0.0066
3871.00,0.0066
3870.00,0.0066
3869.00,0.0066
3868.00,0.0066
3867.00,0.0065
3866.00,0.0066
3865.00,0.0066
3864.00,0.0066
3863.00,0.0066
3862.00,0.0066
3861.00,0.0066
3860.00,0.0066
3859.00,0.0066
3858.00,0.0066
3857.00,0.0066
3856.00,0.0066
3855.00,0.0066
3854.00,0.0065
3853.00,0.0065
3852.00,0.0065
3851.00,0.0066
3850.00,0.0066
3849.00,0.0067
3848.00,0.0067
3847.00,0.0067
3846.00,0.0067
3845.00,0.0067
3844.00,0.0067
3843.00,0.0067
3842.00,0.0067
3841.00,0.0067
3840.00,0.0067
3839.00,0.0067
3838.00,0.0067
3837.00,0.0067
3836.00,0.0067
3835.00,0.0067
3834.00,0.0067
3833.00,0.0067
3832.00,0.0068
3831.00,0.0068
3830.00,0.0068
3829.00,0.0068
3828.00,0.0068
3827.00,0.0068
3826.00,0.0068
3825.00,0.0068
3824.00,0.0067
3823.00,0.0067
3822.00,0.0067
3821.00,0.0067
3820.00,0.0067
3819.00,0.0067
3818.00,0.0067
3817.00,0.0067
3816.00,0.0067
3815.00,0.0067
3814.00,0.0067
3813.00,0.0067
3812.00,0.0067
3811.00,0.0067
3810.00,0.0067
3809.00,0.0067
3808.00,0.0067
3807.00,0.0067
3806.00,0.0067
3805.00,0.0067
3804.00,0.0067
3803.00,0.0067
3802.00,0.0067
3801.00,0.0067
3800.00,0.0067
3799.00,0.0067
3798.00,0.0066
3797.00,0.0066
3796.00,0.0067
3795.00,0.0067
3794.00,0.0067
3793.00,0.0067
3792.00,0.0067
3791.00,0.0067
3790.00,0.0067
3789.00,0.0067
3788.00,0.0067
3787.00,0.0067
3786.00,0.0067
3785.00,0.0067
3784.00,0.0067
3783.00,0.0067
3782.00,0.0067
3781.00,0.0068
3780.00,0.0068
3779.00,0.0068
3778.00,0.0068
3777.00,0.0068
3776.00,0.0068
3775.00,0.0068
3774.00,0.0067
3773.00,0.0067
3772.00,0.0067
3771.00,0.0067
3770.00,0.0067
3769.00,0.0067
3768.00,0.0067
3767.00,0.0067
3766.00,0.0067
3765.00,0.0067
3764.00,0.0067
3763.00,0.0067
3762.00,0.0067
3761.00,0.0067
3760.00,0.0067
3759.00,0.0067
3758.00,0.0067
3757.00,0.0066
3756.00,0.0066
3755.00,0.0066
3754.00,0.0066
3753.00,0.0066
3752.00,0.0066
3751.00,0.0065
3750.00,0.0065
3749.00,0.0065
3748.00,0.0065
3747.00,0.0065
3746.00,0.0065
3745.00,0.0065
3744.00,0.0065
3743.00,0.0065
3742.00,0.0065
3741.00,0.0065
3740.00,0.0065
3739.00,0.0065
3738.00,0.0065
3737.00,0.0065
3736.00,0.0065
3735.00,0.0065
3734.00,0.0065
3733.00,0.0065
3732.00,0.0064
3731.00,0.0064
3730.00,0.0064
3729.00,0.0064
3728.00,0.0064
3727.00,0.0065
3726.00,0.0065
3725.00,0.0065
3724.00,0.0065
3723.00,0.0065
3722.00,0.0064
3721.00,0.0064
3720.00,0.0064
3719.00,0.0064
3718.00,0.0064
3717.00,0.0064
3716.00,0.0064
3715.00,0.0063
3714.00,0.0063
3713.00,0.0063
3712.00,0.0062
3711.00,0.0062
3710.00,0.0062
3709.00,0.0062
3708.00,0.0062
3707.00,0.0063
3706.00,0.0063
3705.00,0.0063
3704.00,0.0063
3703.00,0.0064
3702.00,0.0064
3701.00,0.0064
3700.00,0.0064
3699.00,0.0064
3698.00,0.0064
3697.00,0.0064
3696.00,0.0063
3695.00,0.0063
3694.00,0.0063
3693.00,0.0063
3692.00,0.0064
3691.00,0.0064
3690.00,0.0065
3689.00,0.0065
3688.00,0.0065
3687.00,0.0066
3686.00,0.0066
3685.00,0.0066
3684.00,0.0066
3683.00,0.0066
3682.00,0.0066
3681.00,0.0066
3680.00,0.0066
3679.00,0.0066
3678.00,0.0066
3677.00,0.0066
3676.00,0.0067
3675.00,0.0067
3674.00,0.0068
3673.00,0.0068
3672.00,0.0068
3671.00,0.0069
3670.00,0.0069
3669.00,0.0069
3668.00,0.0070
3667.00,0.0070
3666.00,0.0070
3665.00,0.0071
3664.00,0.0071
3663.00,0.0071
3662.00,0.0072
3661.00,0.0072
3660.00,0.0073
3659.00,0.0073
3658.00,0.0074
3657.00,0.0075
3656.00,0.0075
3655.00,0.0076
3654.00,0.0076
3653.00,0.0076
3652.00,0.0076
3651.00,0.0077
3650.00,0.0078
3649.00,0.0079
3648.00,0.0079
3647.00,0.0080
3646.00,0.0080
3645.00,0.0081
3644.00,0.0082
3643.00,0.0083
3642.00,0.0085
3641.00,0.0086
3640.00,0.0087
3639.00,0.0088
3638.00,0.0089
3637.00,0.0089
3636.00,0.0090
3635.00,0.0090
3634.00,0.0090
3633.00,0.0091
3632.00,0.0092
3631.00,0.0092
3630.00,0.0093
3629.00,0.0094
3628.00,0.0095
3627.00,0.0096
3626.00,0.0097
3625.00,0.0098
3624.00,0.0100
3623.00,0.0101
3622.00,0.0102
3621.00,0.0103
3620.00,0.0104
3619.00,0.0105
3618.00,0.0106
3617.00,0.0107
3616.00,0.0108
3615.00,0.0109
3614.00,0.0110
3613.00,0.0112
3612.00,0.0113
3611.00,0.0114
3610.00,0.0115
3609.00,0.0116
3608.00,0.0117
3607.00,0.0119
3606.00,0.0120
3605.00,0.0121
3604.00,0.0123
3603.00,0.0124
3602.00,0.0125
3601.00,0.0127
3600.00,0.0128
3599.00,0.0129
3598.00,0.0131
3597.00,0.0132
3596.00,0.0134
3595.00,0.0136
3594.00,0.0138
3593.00,0.0139
3592.00,0.0140
3591.00,0.0141
3590.00,0.0142
3589.00,0.0144
3588.00,0.0145
3587.00,0.0147
3586.00,0.0149
3585.00,0.0151
3584.00,0.0153
3583.00,0.0155
3582.00,0.0156
3581.00,0.0158
3580.00,0.0160
3579.00,0.0162
3578.00,0.0163
3577.00,0.0165
3576.00,0.0166
3575.00,0.0168
3574.00,0.0170
3573.00,0.0172
3572.00,0.0173
3571.00,0.0175
3570.00,0.0177
3569.00,0.0178
3568.00,0.0180
3567.00,0.0182
3566.00,0.0183
3565.00,0.0185
3564.00,0.0187
3563.00,0.0189
3562.00,0.0191
3561.00,0.0193
3560.00,0.0195
3559.00,0.0197
3558.00,0.0199
3557.00,0.0200
3556.00,0.0202
3555.00,0.0203
3554.00,0.0205
3553.00,0.0207
3552.00,0.0208
3551.00,0.0210
3550.00,0.0211
3549.00,0.0213
3548.00,0.0214
3547.00,0.0216
3546.00,0.0217
3545.00,0.0219
3544.00,0.0220
3543.00,0.0221
3542.00,0.0223
3541.00,0.0224
3540.00,0.0226
3539.00,0.0227
3538.00,0.0229
3537.00,0.0230
3536.00,0.0231
3535.00,0.0232
3534.00,0.0234
3533.00,0.0235
3532.00,0.0236
3531.00,0.0237
3530.00,0.0238
3529.00,0.0239
3528.00,0.0240
3527.00,0.0241
3526.00,0.0242
3525.00,0.0243
3524.00,0.0244
3523.00,0.0245
3522.00,0.0247
3521.00,0.0248
3520.00,0.0248
3519.00,0.0249
3518.00,0.0250
3517.00,0.0251
3516.00,0.0252
3515.00,0.0253
3514.00,0.0254
3513.00,0.0255
3512.00,0.0255
3511.00,0.0256
3510.00,0.0257
3509.00,0.0258
3508.00,0.0259
3507.00,0.0259
3506.00,0.0260
3505.00,0.0261
3504.00,0.0261
3503.00,0.0262
3502.00,0.0262
3501.00,0.0263
3500.00,0.0264
3499.00,0.0264
3498.00,0.0265
3497.00,0.0266
3496.00,0.0267
3495.00,0.0267
3494.00,0.0267
3493.00,0.0268
3492.00,0.0268
3491.00,0.0269
3490.00,0.0270
3489.00,0.0270
3488.00,0.0271
3487.00,0.0271
3486.00,0.0272
3485.00,0.0272
3484.00,0.0273
3483.00,0.0273
3482.00,0.0274
3481.00,0.0275
3480.00,0.0276
3479.00,0.0276
3478.00,0.0277
3477.00,0.0277
3476.00,0.0277
3475.00,0.0278
3474.00,0.0278
3473.00,0.0279
3472.00,0.0279
3471.00,0.0280
3470.00,0.0281
3469.00,0.0281
3468.00,0.0282
3467.00,0.0282
3466.00,0.0283
3465.00,0.0283
3464.00,0.0283
3463.00,0.0283
3462.00,0.0283
3461.00,0.0284
3460.00,0.0284
3459.00,0.0285
3458.00,0.0285
3457.00,0.0286
3456.00,0.0286
3455.00,0.0286
3454.00,0.0287
3453.00,0.0287
3452.00,0.0287
3451.00,0.0287
3450.00,0.0288
3449.00,0.0288
3448.00,0.0288
3447.00,0.0289
3446.00,0.0289
3445.00,0.0289
3444.00,0.0289
3443.00,0.0289
3442.00,0.0289
3441.00,0.0289
3440.00,0.0290
3439.00,0.0290
3438.00,0.0291
3437.00,0.0291
3436.00,0.0291
3435.00,0.0291
3434.00,0.0290
3433.00,0.0290
3432.00,0.0291
3431.00,0.0291
3430.00,0.0290
3429.00,0.0290
3428.00,0.0290
3427.00,0.0290
3426.00,0.0290
3425.00,0.0289
3424.00,0.0289
3423.00,0.0289
3422.00,0.0289
3421.00,0.0289
3420.00,0.0289
3419.00,0.0289
3418.00,0.0289
3417.00,0.0289
3416.00,0.0289
3415.00,0.0288
3414.00,0.0288
3413.00,0.0288
3412.00,0.0287
3411.00,0.0287
3410.00,0.0287
3409.00,0.0286
3408.00,0.0286
3407.00,0.0286
3406.00,0.0285
3405.00,0.0285
3404.00,0.0284
3403.00,0.0284
3402.00,0.0284
3401.00,0.0284
3400.00,0.0283
3399.00,0.0283
3398.00,0.0283
3397.00,0.0282
3396.00,0.0282
3395.00,0.0281
3394.00,0.0280
3393.00,0.0280
3392.00,0.0279
3391.00,0.0279
3390.00,0.0278
3389.00,0.0278
3388.00,0.0277
3387.00,0.0276
3386.00,0.0275
3385.00,0.0275
3384.00,0.0274
3383.00,0.0274
3382.00,0.0273
3381.00,0.0273
3380.00,0.0272
3379.00,0.0272
3378.00,0.0271
3377.00,0.0271
3376.00,0.0270
3375.00,0.0269
3374.00,0.0268
3373.00,0.0267
3372.00,0.0266
3371.00,0.0265
3370.00,0.0264
3369.00,0.0263
3368.00,0.0262
3367.00,0.0262
3366.00,0.0262
3365.00,0.0262
3364.00,0.0261
3363.00,0.0261
3362.00,0.0260
3361.00,0.0259
3360.00,0.0258
3359.00,0.0258
3358.00,0.0258
3357.00,0.0257
3356.00,0.0257
3355.00,0.0256
3354.00,0.0255
3353.00,0.0253
3352.00,0.0252
3351.00,0.0252
3350.00,0.0251
3349.00,0.0251
3348.00,0.0251
3347.00,0.0251
3346.00,0.0250
3345.00,0.0249
3344.00,0.0248
3343.00,0.0248
3342.00,0.0247
3341.00,0.0246
3340.00,0.0245
3339.00,0.0245
3338.00,0.0245
3337.00,0.0245
3336.00,0.0245
3335.00,0.0245
3334.00,0.0245
3333.00,0.0245
3332.00,0.0245
3331.00,0.0244
3330.00,0.0244
3329.00,0.0243
3328.00,0.0242
3327.00,0.0241
3326.00,0.0240
3325.00,0.0240
3324.00,0.0240
3323.00,0.0240
3322.00,0.0240
3321.00,0.0240
3320.00,0.0240
3319.00,0.0240
3318.00,0.0240
3317.00,0.0240
3316.00,0.0240
3315.00,0.0240
3314.00,0.0239
3313.00,0.0238
3312.00,0.0237
3311.00,0.0236
3310.00,0.0234
3309.00,0.0233
3308.00,0.0232
3307.00,0.0231
3306.00,0.0231
3305.00,0.0231
3304.00,0.0232
3303.00,0.0233
3302.00,0.0234
3301.00,0.0235
3300.00,0.0234
3299.00,0.0234
3298.00,0.0233
3297.00,0.0232
3296.00,0.0231
3295.00,0.0230
3294.00,0.0230
3293.00,0.0229
3292.00,0.0230
3291.00,0.0230
3290.00,0.0231
3289.00,0.0231
3288.00,0.0231
3287.00,0.0231
3286.00,0.0231
3285.00,0.0230
3284.00,0.0230
3283.00,0.0230
3282.00,0.0229
3281.00,0.0229
3280.00,0.0228
3279.00,0.0227
3278.00,0.0226
3277.00,0.0226
3276.00,0.0225
3275.00,0.0224
3274.00,0.0223
3273.00,0.0221
3272.00,0.0220
3271.00,0.0220
3270.00,0.0219
3269.00,0.0220
3268.00,0.0220
3267.00,0.0220
3266.00,0.0220
3265.00,0.0220
3264.00,0.0219
3263.00,0.0218
3262.00,0.0218
3261.00,0.0217
3260.00,0.0216
3259.00,0.0215
3258.00,0.0214
3257.00,0.0213
3256.00,0.0212
3255.00,0.0212
3254.00,0.0211
3253.00,0.0211
3252.00,0.0210
3251.00,0.0209
3250.00,0.0207
3249.00,0.0206
3248.00,0.0205
3247.00,0.0204
3246.00,0.0204
3245.00,0.0204
3244.00,0.0204
3243.00,0.0203
3242.00,0.0202
3241.00,0.0201
3240.00,0.0200
3239.00,0.0199
3238.00,0.0199
3237.00,0.0198
3236.00,0.0197
3235.00,0.0196
3234.00,0.0195
3233.00,0.0194
3232.00,0.0193
3231.00,0.0193
3230.00,0.0193
3229.00,0.0192
3228.00,0.0191
3227.00,0.0190
3226.00,0.0190
3225.00,0.0189
3224.00,0.0188
3223.00,0.0188
3222.00,0.0187
3221.00,0.0186
3220.00,0.0185
3219.00,0.0184
3218.00,0.0183
3217.00,0.0182
3216.00,0.0181
3215.00,0.0180
3214.00,0.0180
3213.00,0.0179
3212.00,0.0178
3211.00,0.0177
3210.00,0.0176
3209.00,0.0176
3208.00,0.0175
3207.00,0.0174
3206.00,0.0173
3205.00,0.0173
3204.00,0.0172
3203.00,0.0171
3202.00,0.0170
3201.00,0.0170
3200.00,0.0169
3199.00,0.0168
3198.00,0.0168
3197.00,0.0167
3196.00,0.0166
3195.00,0.0165
3194.00,0.0164
3193.00,0.0164
3192.00,0.0163
3191.00,0.0163
3190.00,0.0162
3189.00,0.0162
3188.00,0.0161
3187.00,0.0160
3186.00,0.0159
3185.00,0.0158
3184.00,0.0158
3183.00,0.0157
3182.00,0.0156
3181.00,0.0155
3180.00,0.0155
3179.00,0.0154
3178.00,0.0154
3177.00,0.0153
3176.00,0.0153
3175.00,0.0152
3174.00,0.0151
3173.00,0.0151
3172.00,0.0150
3171.00,0.0150
3170.00,0.0150
3169.00,0.0149
3168.00,0.0149
3167.00,0.0148
3166.00,0.0147
3165.00,0.0146
3164.00,0.0145
3163.00,0.0145
3162.00,0.0145
3161.00,0.0144
3160.00,0.0144
3159.00,0.0144
3158.00,0.0143
3157.00,0.0142
3156.00,0.0142
3155.00,0.0141
3154.00,0.0140
3153.00,0.0140
3152.00,0.0139
3151.00,0.0139
3150.00,0.0138
3149.00,0.0138
3148.00,0.0138
3147.00,0.0137
3146.00,0.0137
3145.00,0.0137
3144.00,0.0137
3143.00,0.0136
3142.00,0.0136
3141.00,0.0135
3140.00,0.0135
3139.00,0.0134
3138.00,0.0134
3137.00,0.0134
3136.00,0.0134
3135.00,0.0133
3134.00,0.0133
3133.00,0.0132
3132.00,0.0132
3131.00,0.0131
3130.00,0.0131
3129.00,0.0131
3128.00,0.0131
3127.00,0.0131
3126.00,0.0130
3125.00,0.0130
3124.00,0.0130
3123.00,0.0129
3122.00,0.0129
3121.00,0.0128
3120.00,0.0128
3119.00,0.0128
3118.00,0.0127
3117.00,0.0127
3116.00,0.0126
3115.00,0.0126
3114.00,0.0126
3113.00,0.0126
3112.00,0.0126
3111.00,0.0125
3110.00,0.0125
3109.00,0.0125
3108.00,0.0125
3107.00,0.0124
3106.00,0.0124
3105.00,0.0124
3104.00,0.0124
3103.00,0.0123
3102.00,0.0123
3101.00,0.0122
3100.00,0.0122
3099.00,0.0122
3098.00,0.0122
3097.00,0.0121
3096.00,0.0121
3095.00,0.0121
3094.00,0.0120
3093.00,0.0120
3092.00,0.0119
3091.00,0.0119
3090.00,0.0119
3089.00,0.0119
3088.00,0.0119
3087.00,0.0118
3086.00,0.0118
3085.00,0.0118
3084.00,0.0117
3083.00,0.0117
3082.00,0.0117
3081.00,0.0116
3080.00,0.0116
3079.00,0.0116
3078.00,0.0115
3077.00,0.0115
3076.00,0.0115
3075.00,0.0115
3074.00,0.0115
3073.00,0.0115
3072.00,0.0115
3071.00,0.0114
3070.00,0.0114
3069.00,0.0113
3068.00,0.0113
3067.00,0.0113
3066.00,0.0113
3065.00,0.0112
3064.00,0.0112
3063.00,0.0112
3062.00,0.0112
3061.00,0.0112
3060.00,0.0111
3059.00,0.0111
3058.00,0.0111
3057.00,0.0111
3056.00,0.0110
3055.00,0.0110
3054.00,0.0110
3053.00,0.0110
3052.00,0.0109
3051.00,0.0109
3050.00,0.0109
3049.00,0.0109
3048.00,0.0109
3047.00,0.0108
3046.00,0.0108
3045.00,0.0107
3044.00,0.0107
3043.00,0.0107
3042.00,0.0108
3041.00,0.0108
3040.00,0.0108
3039.00,0.0107
3038.00,0.0107
3037.00,0.0107
3036.00,0.0106
3035.00,0.0106
3034.00,0.0106
3033.00,0.0106
3032.00,0.0106
3031.00,0.0106
3030.00,0.0106
3029.00,0.0106
3028.00,0.0106
3027.00,0.0106
3026.00,0.0106
3025.00,0.0106
3024.00,0.0106
3023.00,0.0106
3022.00,0.0106
3021.00,0.0106
3020.00,0.0107
3019.00,0.0107
3018.00,0.0107
3017.00,0.0107
3016.00,0.0108
3015.00,0.0108
3014.00,0.0109
3013.00,0.0110
3012.00,0.0111
3011.00,0.0112
3010.00,0.0113
3009.00,0.0115
3008.00,0.0117
3007.00,0.0119
3006.00,0.0121
3005.00,0.0123
3004.00,0.0126
3003.00,0.0128
3002.00,0.0131
3001.00,0.0133
3000.00,0.0137
2999.00,0.0140
2998.00,0.0143
2997.00,0.0146
2996.00,0.0150
2995.00,0.0153
2994.00,0.0156
2993.00,0.0159
2992.00,0.0163
2991.00,0.0166
2990.00,0.0170
2989.00,0.0173
2988.00,0.0176
2987.00,0.0179
2986.00,0.0182
2985.00,0.0185
2984.00,0.0188
2983.00,0.0190
2982.00,0.0192
2981.00,0.0195
2980.00,0.0197
2979.00,0.0200
2978.00,0.0203
2977.00,0.0205
2976.00,0.0207
2975.00,0.0209
2974.00,0.0211
2973.00,0.0213
2972.00,0.0216
2971.00,0.0219
2970.00,0.0222
2969.00,0.0225
2968.00,0.0228
2967.00,0.0231
2966.00,0.0234
2965.00,0.0237
2964.00,0.0240
2963.00,0.0244
2962.00,0.0247
2961.00,0.0250
2960.00,0.0253
2959.00,0.0255
2958.00,0.0257
2957.00,0.0259
2956.00,0.0261
2955.00,0.0263
2954.00,0.0265
2953.00,0.0266
2952.00,0.0266
2951.00,0.0267
2950.00,0.0267
2949.00,0.0267
2948.00,0.0266
2947.00,0.0265
2946.00,0.0264
2945.00,0.0263
2944.00,0.0261
2943.00,0.0259
2942.00,0.0257
2941.00,0.0255
2940.00,0.0253
2939.00,0.0251
2938.00,0.0250
2937.00,0.0250
2936.00,0.0249
2935.00,0.0249
2934.00,0.0250
2933.00,0.0250
2932.00,0.0250
2931.00,0.0251
2930.00,0.0252
2929.00,0.0253
2928.00,0.0254
2927.00,0.0255
2926.00,0.0256
2925.00,0.0256
2924.00,0.0257
2923.00,0.0257
2922.00,0.0257
2921.00,0.0257
2920.00,0.0257
2919.00,0.0256
2918.00,0.0255
2917.00,0.0254
2916.00,0.0252
2915.00,0.0251
2914.00,0.0248
2913.00,0.0246
2912.00,0.0244
2911.00,0.0241
2910.00,0.0239
2909.00,0.0237
2908.00,0.0235
2907.00,0.0234
2906.00,0.0232
2905.00,0.0231
2904.00,0.0231
2903.00,0.0230
2902.00,0.0230
2901.00,0.0230
2900.00,0.0231
2899.00,0.0232
2898.00,0.0233
2897.00,0.0233
2896.00,0.0234
2895.00,0.0235
2894.00,0.0235
2893.00,0.0236
2892.00,0.0237
2891.00,0.0237
2890.00,0.0238
2889.00,0.0238
2888.00,0.0238
2887.00,0.0238
2886.00,0.0238
2885.00,0.0238
2884.00,0.0238
2883.00,0.0238
2882.00,0.0238
2881.00,0.0237
2880.00,0.0237
2879.00,0.0236
2878.00,0.0235
2877.00,0.0235
2876.00,0.0233
2875.00,0.0232
2874.00,0.0231
2873.00,0.0230
2872.00,0.0229
2871.00,0.0227
2870.00,0.0226
2869.00,0.0225
2868.00,0.0224
2867.00,0.0222
2866.00,0.0221
2865.00,0.0220
2864.00,0.0219
2863.00,0.0218
2862.00,0.0216
2861.00,0.0215
2860.00,0.0214
2859.00,0.0213
2858.00,0.0211
2857.00,0.0209
2856.00,0.0207
2855.00,0.0205
2854.00,0.0203
2853.00,0.0200
2852.00,0.0197
2851.00,0.0194
2850.00,0.0190
2849.00,0.0187
2848.00,0.0183
2847.00,0.0179
2846.00,0.0176
2845.00,0.0173
2844.00,0.0171
2843.00,0.0168
2842.00,0.0166
2841.00,0.0164
2840.00,0.0163
2839.00,0.0161
2838.00,0.0160
2837.00,0.0159
2836.00,0.0157
2835.00,0.0156
2834.00,0.0154
2833.00,0.0152
2832.00,0.0150
2831.00,0.0148
2830.00,0.0146
2829.00,0.0145
2828.00,0.0143
2827.00,0.0141
2826.00,0.0139
2825.00,0.0138
2824.00,0.0136
2823.00,0.0135
2822.00,0.0133
2821.00,0.0132
2820.00,0.0131
2819.00,0.0130
2818.00,0.0129
2817.00,0.0128
2816.00,0.0128
2815.00,0.0127
2814.00,0.0126
2813.00,0.0126
2812.00,0.0125
2811.00,0.0124
2810.00,0.0124
2809.00,0.0123
2808.00,0.0123
2807.00,0.0123
2806.00,0.0122
2805.00,0.0122
2804.00,0.0122
2803.00,0.0122
2802.00,0.0121
2801.00,0.0121
2800.00,0.0121
2799.00,0.0120
2798.00,0.0120
2797.00,0.0119
2796.00,0.0119
2795.00,0.0119
2794.00,0.0119
2793.00,0.0118
2792.00,0.0118
2791.00,0.0118
2790.00,0.0118
2789.00,0.0118
2788.00,0.0118
2787.00,0.0118
2786.00,0.0118
2785.00,0.0118
2784.00,0.0117
2783.00,0.0117
2782.00,0.0117
2781.00,0.0116
2780.00,0.0116
2779.00,0.0116
2778.00,0.0116
2777.00,0.0115
2776.00,0.0115
2775.00,0.0115
2774.00,0.0115
2773.00,0.0115
2772.00,0.0115
2771.00,0.0114
2770.00,0.0114
2769.00,0.0114
2768.00,0.0114
2767.00,0.0114
2766.00,0.0113
2765.00,0.0113
2764.00,0.0113
2763.00,0.0113
2762.00,0.0113
2761.00,0.0113
2760.00,0.0113
2759.00,0.0112
2758.00,0.0112
2757.00,0.0113
2756.00,0.0113
2755.00,0.0113
2754.00,0.0113
2753.00,0.0113
2752.00,0.0113
2751.00,0.0112
2750.00,0.0112
2749.00,0.0112
2748.00,0.0112
2747.00,0.0112
2746.00,0.0112
2745.00,0.0112
2744.00,0.0112
2743.00,0.0112
2742.00,0.0112
2741.00,0.0112
2740.00,0.0112
2739.00,0.0112
2738.00,0.0111
2737.00,0.0111
2736.00,0.0111
2735.00,0.0111
2734.00,0.0111
2733.00,0.0111
2732.00,0.0111
2731.00,0.0111
2730.00,0.0111
2729.00,0.0111
2728.00,0.0111
2727.00,0.0111
2726.00,0.0111
2725.00,0.0110
2724.00,0.0110
2723.00,0.0110
2722.00,0.0110
2721.00,0.0110
2720.00,0.0110
2719.00,0.0110
2718.00,0.0110
2717.00,0.0110
2716.00,0.0110
2715.00,0.0109
2714.00,0.0109
2713.00,0.0109
2712.00,0.0109
2711.00,0.0109
2710.00,0.0109
2709.00,0.0109
2708.00,0.0109
2707.00,0.0109
2706.00,0.0109
2705.00,0.0109
2704.00,0.0109
2703.00,0.0109
2702.00,0.0108
2701.00,0.0108
2700.00,0.0108
2699.00,0.0108
2698.00,0.0108
2697.00,0.0108
2696.00,0.0108
2695.00,0.0108
2694.00,0.0107
2693.00,0.0107
2692.00,0.0107
2691.00,0.0107
2690.00,0.0107
2689.00,0.0107
2688.00,0.0107
2687.00,0.0107
2686.00,0.0107
2685.00,0.0107
2684.00,0.0107
2683.00,0.0107
2682.00,0.0106
2681.00,0.0106
2680.00,0.0106
2679.00,0.0106
2678.00,0.0106
2677.00,0.0107
2676.00,0.0107
2675.00,0.0106
2674.00,0.0106
2673.00,0.0106
2672.00,0.0106
2671.00,0.0106
2670.00,0.0107
2669.00,0.0107
2668.00,0.0107
2667.00,0.0107
2666.00,0.0107
2665.00,0.0108
2664.00,0.0108
2663.00,0.0109
2662.00,0.0109
2661.00,0.0109
2660.00,0.0109
2659.00,0.0109
2658.00,0.0110
2657.00,0.0110
2656.00,0.0110
2655.00,0.0110
2654.00,0.0110
2653.00,0.0110
2652.00,0.0109
2651.00,0.0110
2650.00,0.0110
2649.00,0.0110
2648.00,0.0110
2647.00,0.0110
2646.00,0.0110
2645.00,0.0110
2644.00,0.0110
2643.00,0.0110
2642.00,0.0109
2641.00,0.0109
2640.00,0.0109
2639.00,0.0109
2638.00,0.0109
2637.00,0.0109
2636.00,0.0109
2635.00,0.0108
2634.00,0.0108
2633.00,0.0108
2632.00,0.0108
2631.00,0.0108
2630.00,0.0108
2629.00,0.0108
2628.00,0.0108
2627.00,0.0108
2626.00,0.0108
2625.00,0.0107
2624.00,0.0107
2623.00,0.0107
2622.00,0.0107
2621.00,0.0106
2620.00,0.0107
2619.00,0.0107
2618.00,0.0107
2617.00,0.0107
2616.00,0.0107
2615.00,0.0106
2614.00,0.0106
2613.00,0.0106
2612.00,0.0106
2611.00,0.0106
2610.00,0.0106
2609.00,0.0106
2608.00,0.0106
2607.00,0.0106
2606.00,0.0106
2605.00,0.0106
2604.00,0.0106
2603.00,0.0106
2602.00,0.0106
2601.00,0.0106
2600.00,0.0106
2599.00,0.0106
2598.00,0.0105
2597.00,0.0105
2596.00,0.0105
2595.00,0.0105
2594.00,0.0105
2593.00,0.0106
2592.00,0.0106
2591.00,0.0106
2590.00,0.0106
2589.00,0.0106
2588.00,0.0106
2587.00,0.0106
2586.00,0.0106
2585.00,0.0106
2584.00,0.0106
2583.00,0.0106
2582.00,0.0106
2581.00,0.0105
2580.00,0.0105
2579.00,0.0105
2578.00,0.0105
2577.00,0.0106
2576.00,0.0106
2575.00,0.0106
2574.00,0.0106
2573.00,0.0106
2572.00,0.0105
2571.00,0.0105
2570.00,0.0105
2569.00,0.0105
2568.00,0.0105
2567.00,0.0105
2566.00,0.0105
2565.00,0.0105
2564.00,0.0105
2563.00,0.0105
2562.00,0.0105
2561.00,0.0105
2560.00,0.0105
2559.00,0.0105
2558.00,0.0105
2557.00,0.0105
2556.00,0.0105
2555.00,0.0105
2554.00,0.0105
2553.00,0.0104
2552.00,0.0104
2551.00,0.0104
2550.00,0.0104
2549.00,0.0104
2548.00,0.0104
2547.00,0.0104
2546.00,0.0104
2545.00,0.0104
2544.00,0.0103
2543.00,0.0103
2542.00,0.0103
2541.00,0.0103
2540.00,0.0103
2539.00,0.0103
2538.00,0.0103
2537.00,0.0103
2536.00,0.0103
2535.00,0.0103
2534.00,0.0103
2533.00,0.0104
2532.00,0.0104
2531.00,0.0104
2530.00,0.0103
2529.00,0.0103
2528.00,0.0103
2527.00,0.0103
2526.00,0.0103
2525.00,0.0102
2524.00,0.0102
2523.00,0.0101
2522.00,0.0101
2521.00,0.0101
2520.00,0.0101
2519.00,0.0101
2518.00,0.0101
2517.00,0.0101
2516.00,0.0101
2515.00,0.0101
2514.00,0.0101
2513.00,0.0101
2512.00,0.0100
2511.00,0.0100
2510.00,0.0100
2509.00,0.0101
2508.00,0.0101
2507.00,0.0102
2506.00,0.0102
2505.00,0.0101
2504.00,0.0101
2503.00,0.0101
2502.00,0.0101
2501.00,0.0101
2500.00,0.0101
2499.00,0.0101
2498.00,0.0101
2497.00,0.0101
2496.00,0.0102
2495.00,0.0102
2494.00,0.0101
2493.00,0.0101
2492.00,0.0101
2491.00,0.0101
2490.00,0.0101
2489.00,0.0101
2488.00,0.0101
2487.00,0.0101
2486.00,0.0101
2485.00,0.0101
2484.00,0.0101
2483.00,0.0101
2482.00,0.0101
2481.00,0.0101
2480.00,0.0100
2479.00,0.0100
2478.00,0.0100
2477.00,0.0100
2476.00,0.0100
2475.00,0.0100
2474.00,0.0101
2473.00,0.0101
2472.00,0.0101
2471.00,0.0101
2470.00,0.0101
2469.00,0.0100
2468.00,0.0100
2467.00,0.0100
2466.00,0.0100
2465.00,0.0100
2464.00,0.0100
2463.00,0.0101
2462.00,0.0101
2461.00,0.0102
2460.00,0.0102
2459.00,0.0102
2458.00,0.0102
2457.00,0.0102
2456.00,0.0102
2455.00,0.0102
2454.00,0.0102
2453.00,0.0101
2452.00,0.0101
2451.00,0.0101
2450.00,0.0101
2449.00,0.0102
2448.00,0.0102
2447.00,0.0102
2446.00,0.0102
2445.00,0.0101
2444.00,0.0101
2443.00,0.0101
2442.00,0.0100
2441.00,0.0100
2440.00,0.0101
2439.00,0.0101
2438.00,0.0101
2437.00,0.0101
2436.00,0.0101
2435.00,0.0101
2434.00,0.0101
2433.00,0.0101
2432.00,0.0101
2431.00,0.0101
2430.00,0.0100
2429.00,0.0100
2428.00,0.0100
2427.00,0.0100
2426.00,0.0100
2425.00,0.0101
2424.00,0.0101
2423.00,0.0100
2422.00,0.0100
2421.00,0.0100
2420.00,0.0100
2419.00,0.0100
2418.00,0.0100
2417.00,0.0101
2416.00,0.0101
2415.00,0.0101
2414.00,0.0101
2413.00,0.0101
2412.00,0.0101
2411.00,0.0101
2410.00,0.0101
2409.00,0.0101
2408.00,0.0100
2407.00,0.0100
2406.00,0.0099
2405.00,0.0099
2404.00,0.0099
2403.00,0.0100
2402.00,0.0100
2401.00,0.0100
2400.00,0.0101
2399.00,0.0101
2398.00,0.0101
2397.00,0.0101
2396.00,0.0101
2395.00,0.0101
2394.00,0.0101
2393.00,0.0101
2392.00,0.0101
2391.00,0.0100
2390.00,0.0100
2389.00,0.0100
2388.00,0.0100
2387.00,0.0100
2386.00,0.0100
2385.00,0.0099
2384.00,0.0099
2383.00,0.0099
2382.00,0.0099
2381.00,0.0099
2380.00,0.0099
2379.00,0.0099
2378.00,0.0099
2377.00,0.0099
2376.00,0.0099
2375.00,0.0098
2374.00,0.0098
2373.00,0.0098
2372.00,0.0098
2371.00,0.0098
2370.00,0.0098
2369.00,0.0098
2368.00,0.0098
2367.00,0.0099
2366.00,0.0099
2365.00,0.0099
2364.00,0.0099
2363.00,0.0099
2362.00,0.0100
2361.00,0.0100
2360.00,0.0100
2359.00,0.0100
2358.00,0.0100
2357.00,0.0100
2356.00,0.0100
2355.00,0.0100
2354.00,0.0100
2353.00,0.0100
2352.00,0.0100
2351.00,0.0101
2350.00,0.0101
2349.00,0.0101
2348.00,0.0102
2347.00,0.0102
2346.00,0.0102
2345.00,0.0102
2344.00,0.0103
2343.00,0.0103
2342.00,0.0103
2341.00,0.0103
2340.00,0.0104
2339.00,0.0104
2338.00,0.0104
2337.00,0.0104
2336.00,0.0104
2335.00,0.0105
2334.00,0.0104
2333.00,0.0104
2332.00,0.0104
2331.00,0.0104
2330.00,0.0104
2329.00,0.0106
2328.00,0.0109
2327.00,0.0112
2326.00,0.0114
2325.00,0.0115
2324.00,0.0114
2323.00,0.0113
2322.00,0.0112
2321.00,0.0111
2320.00,0.0110
2319.00,0.0109
2318.00,0.0108
2317.00,0.0108
2316.00,0.0107
2315.00,0.0107
2314.00,0.0107
2313.00,0.0107
2312.00,0.0107
2311.00,0.0107
2310.00,0.0108
2309.00,0.0108
2308.00,0.0108
2307.00,0.0108
2306.00,0.0107
2305.00,0.0107
2304.00,0.0107
2303.00,0.0107
2302.00,0.0107
2301.00,0.0107
2300.00,0.0107
2299.00,0.0108
2298.00,0.0108
2297.00,0.0108
2296.00,0.0109
2295.00,0.0110
2294.00,0.0110
2293.00,0.0110
2292.00,0.0110
2291.00,0.0110
2290.00,0.0111
2289.00,0.0112
2288.00,0.0112
2287.00,0.0112
2286.00,0.0112
2285.00,0.0112
2284.00,0.0111
2283.00,0.0111
2282.00,0.0110
2281.00,0.0110
2280.00,0.0110
2279.00,0.0110
2278.00,0.0109
2277.00,0.0108
2276.00,0.0108
2275.00,0.0107
2274.00,0.0107
2273.00,0.0107
2272.00,0.0108
2271.00,0.0108
2270.00,0.0108
2269.00,0.0107
2268.00,0.0106
2267.00,0.0105
2266.00,0.0105
2265.00,0.0105
2264.00,0.0106
2263.00,0.0106
2262.00,0.0106
2261.00,0.0107
2260.00,0.0107
2259.00,0.0108
2258.00,0.0107
2257.00,0.0107
2256.00,0.0106
2255.00,0.0106
2254.00,0.0106
2253.00,0.0106
2252.00,0.0106
2251.00,0.0106
2250.00,0.0106
2249.00,0.0105
2248.00,0.0105
2247.00,0.0105
2246.00,0.0105
2245.00,0.0104
2244.00,0.0104
2243.00,0.0104
2242.00,0.0105
2241.00,0.0105
2240.00,0.0106
2239.00,0.0106
2238.00,0.0105
2237.00,0.0104
2236.00,0.0104
2235.00,0.0105
2234.00,0.0105
2233.00,0.0105
2232.00,0.0105
2231.00,0.0105
2230.00,0.0105
2229.00,0.0105
2228.00,0.0106
2227.00,0.0105
2226.00,0.0105
2225.00,0.0104
2224.00,0.0105
2223.00,0.0105
2222.00,0.0105
2221.00,0.0105
2220.00,0.0105
2219.00,0.0105
2218.00,0.0105
2217.00,0.0106
2216.00,0.0106
2215.00,0.0106
2214.00,0.0104
2213.00,0.0103
2212.00,0.0102
2211.00,0.0103
2210.00,0.0104
2209.00,0.0106
2208.00,0.0106
2207.00,0.0106
2206.00,0.0105
2205.00,0.0105
2204.00,0.0105
2203.00,0.0105
2202.00,0.0105
2201.00,0.0106
2200.00,0.0108
2199.00,0.0108
2198.00,0.0108
2197.00,0.0107
2196.00,0.0107
2195.00,0.0106
2194.00,0.0106
2193.00,0.0106
2192.00,0.0107
2191.00,0.0108
2190.00,0.0108
2189.00,0.0108
2188.00,0.0109
2187.00,0.0109
2186.00,0.0109
2185.00,0.0108
2184.00,0.0107
2183.00,0.0106
2182.00,0.0105
2181.00,0.0105
2180.00,0.0106
2179.00,0.0106
2178.00,0.0106
2177.00,0.0105
2176.00,0.0104
2175.00,0.0103
2174.00,0.0103
2173.00,0.0104
2172.00,0.0105
2171.00,0.0107
2170.00,0.0109
2169.00,0.0111
2168.00,0.0113
2167.00,0.0114
2166.00,0.0114
2165.00,0.0115
2164.00,0.0118
2163.00,0.0118
2162.00,0.0113
2161.00,0.0103
2160.00,0.0090
2159.00,0.0081
2158.00,0.0077
2157.00,0.0079
2156.00,0.0082
2155.00,0.0085
2154.00,0.0087
2153.00,0.0089
2152.00,0.0090
2151.00,0.0091
2150.00,0.0092
2149.00,0.0092
2148.00,0.0092
2147.00,0.0093
2146.00,0.0093
2145.00,0.0093
2144.00,0.0094
2143.00,0.0095
2142.00,0.0095
2141.00,0.0096
2140.00,0.0097
2139.00,0.0097
2138.00,0.0097
2137.00,0.0095
2136.00,0.0094
2135.00,0.0092
2134.00,0.0091
2133.00,0.0091
2132.00,0.0093
2131.00,0.0094
2130.00,0.0096
2129.00,0.0097
2128.00,0.0098
2127.00,0.0099
2126.00,0.0100
2125.00,0.0101
2124.00,0.0103
2123.00,0.0104
2122.00,0.0104
2121.00,0.0105
2120.00,0.0105
2119.00,0.0106
2118.00,0.0106
2117.00,0.0107
2116.00,0.0107
2115.00,0.0107
2114.00,0.0107
2113.00,0.0107
2112.00,0.0107
2111.00,0.0107
2110.00,0.0107
2109.00,0.0108
2108.00,0.0108
2107.00,0.0108
2106.00,0.0107
2105.00,0.0106
2104.00,0.0105
2103.00,0.0105
2102.00,0.0105
2101.00,0.0105
2100.00,0.0106
2099.00,0.0105
2098.00,0.0104
2097.00,0.0103
2096.00,0.0102
2095.00,0.0102
2094.00,0.0101
2093.00,0.0102
2092.00,0.0103
2091.00,0.0104
2090.00,0.0105
2089.00,0.0105
2088.00,0.0106
2087.00,0.0106
2086.00,0.0105
2085.00,0.0105
2084.00,0.0105
2083.00,0.0105
2082.00,0.0106
2081.00,0.0106
2080.00,0.0106
2079.00,0.0105
2078.00,0.0104
2077.00,0.0104
2076.00,0.0104
2075.00,0.0104
2074.00,0.0104
2073.00,0.0103
2072.00,0.0103
2071.00,0.0103
2070.00,0.0102
2069.00,0.0102
2068.00,0.0102
2067.00,0.0102
2066.00,0.0102
2065.00,0.0101
2064.00,0.0100
2063.00,0.0099
2062.00,0.0099
2061.00,0.0100
2060.00,0.0101
2059.00,0.0103
2058.00,0.0104
2057.00,0.0103
2056.00,0.0102
2055.00,0.0102
2054.00,0.0102
2053.00,0.0105
2052.00,0.0109
2051.00,0.0110
2050.00,0.0108
2049.00,0.0104
2048.00,0.0101
2047.00,0.0099
2046.00,0.0098
2045.00,0.0098
2044.00,0.0100
2043.00,0.0101
2042.00,0.0102
2041.00,0.0102
2040.00,0.0101
2039.00,0.0100
2038.00,0.0099
2037.00,0.0099
2036.00,0.0099
2035.00,0.0097
2034.00,0.0095
2033.00,0.0094
2032.00,0.0095
2031.00,0.0096
2030.00,0.0096
2029.00,0.0096
2028.00,0.0097
2027.00,0.0096
2026.00,0.0095
2025.00,0.0095
2024.00,0.0095
2023.00,0.0095
2022.00,0.0094
2021.00,0.0093
2020.00,0.0093
2019.00,0.0093
2018.00,0.0093
2017.00,0.0093
2016.00,0.0093
2015.00,0.0093
2014.00,0.0092
2013.00,0.0092
2012.00,0.0093
2011.00,0.0093
2010.00,0.0092
2009.00,0.0091
2008.00,0.0091
2007.00,0.0090
2006.00,0.0088
2005.00,0.0087
2004.00,0.0087
2003.00,0.0087
2002.00,0.0087
2001.00,0.0088
2000.00,0.0089
1999.00,0.0091
1998.00,0.0092
1997.00,0.0093
1996.00,0.0094
1995.00,0.0094
1994.00,0.0093
1993.00,0.0094
1992.00,0.0095
1991.00,0.0096
1990.00,0.0095
1989.00,0.0094
1988.00,0.0094
1987.00,0.0095
1986.00,0.0096
1985.00,0.0097
1984.00,0.0098
1983.00,0.0100
1982.00,0.0101
1981.00,0.0102
1980.00,0.0102
1979.00,0.0099
1978.00,0.0094
1977.00,0.0089
1976.00,0.0087
1975.00,0.0085
1974.00,0.0085
1973.00,0.0085
1972.00,0.0085
1971.00,0.0084
1970.00,0.0083
1969.00,0.0083
1968.00,0.0084
1967.00,0.0085
1966.00,0.0084
1965.00,0.0083
1964.00,0.0082
1963.00,0.0082
1962.00,0.0081
1961.00,0.0081
1960.00,0.0082
1959.00,0.0083
1958.00,0.0084
1957.00,0.0086
1956.00,0.0087
1955.00,0.0087
1954.00,0.0085
1953.00,0.0084
1952.00,0.0084
1951.00,0.0084
1950.00,0.0084
1949.00,0.0084
1948.00,0.0085
1947.00,0.0086
1946.00,0.0086
1945.00,0.0087
1944.00,0.0088
1943.00,0.0088
1942.00,0.0087
1941.00,0.0086
1940.00,0.0086
1939.00,0.0085
1938.00,0.0085
1937.00,0.0085
1936.00,0.0086
1935.00,0.0087
1934.00,0.0087
1933.00,0.0088
1932.00,0.0088
1931.00,0.0087
1930.00,0.0087
1929.00,0.0086
1928.00,0.0087
1927.00,0.0087
1926.00,0.0087
1925.00,0.0088
1924.00,0.0089
1923.00,0.0090
1922.00,0.0090
1921.00,0.0090
1920.00,0.0089
1919.00,0.0089
1918.00,0.0088
1917.00,0.0088
1916.00,0.0089
1915.00,0.0089
1914.00,0.0089
1913.00,0.0089
1912.00,0.0089
1911.00,0.0089
1910.00,0.0090
1909.00,0.0090
1908.00,0.0090
1907.00,0.0089
1906.00,0.0088
1905.00,0.0088
1904.00,0.0088
1903.00,0.0088
1902.00,0.0088
1901.00,0.0088
1900.00,0.0088
1899.00,0.0088
1898.00,0.0088
1897.00,0.0088
1896.00,0.0088
1895.00,0.0088
1894.00,0.0088
1893.00,0.0087
1892.00,0.0087
1891.00,0.0088
1890.00,0.0087
1889.00,0.0087
1888.00,0.0087
1887.00,0.0087
1886.00,0.0087
1885.00,0.0087
1884.00,0.0088
1883.00,0.0088
1882.00,0.0087
1881.00,0.0086
1880.00,0.0086
1879.00,0.0085
1878.00,0.0085
1877.00,0.0085
1876.00,0.0085
1875.00,0.0086
1874.00,0.0085
1873.00,0.0085
1872.00,0.0085
1871.00,0.0086
1870.00,0.0086
1869.00,0.0086
1868.00,0.0087
1867.00,0.0088
1866.00,0.0088
1865.00,0.0087
1864.00,0.0087
1863.00,0.0086
1862.00,0.0086
1861.00,0.0086
1860.00,0.0086
1859.00,0.0086
1858.00,0.0086
1857.00,0.0086
1856.00,0.0086
1855.00,0.0086
1854.00,0.0085
1853.00,0.0085
1852.00,0.0085
1851.00,0.0085
1850.00,0.0085
1849.00,0.0085
1848.00,0.0085
1847.00,0.0085
1846.00,0.0085
1845.00,0.0085
1844.00,0.0085
1843.00,0.0085
1842.00,0.0085
1841.00,0.0085
1840.00,0.0085
1839.00,0.0085
1838.00,0.0085
1837.00,0.0085
1836.00,0.0085
1835.00,0.0085
1834.00,0.0084
1833.00,0.0084
1832.00,0.0085
1831.00,0.0085
1830.00,0.0085
1829.00,0.0084
1828.00,0.0084
1827.00,0.0084
1826.00,0.0084
1825.00,0.0084
1824.00,0.0084
1823.00,0.0084
1822.00,0.0084
1821.00,0.0083
1820.00,0.0082
1819.00,0.0081
1818.00,0.0080
1817.00,0.0080
1816.00,0.0080
1815.00,0.0081
1814.00,0.0081
1813.00,0.0081
1812.00,0.0082
1811.00,0.0082
1810.00,0.0082
1809.00,0.0081
1808.00,0.0081
1807.00,0.0081
1806.00,0.0080
1805.00,0.0080
1804.00,0.0080
1803.00,0.0081
1802.00,0.0081
1801.00,0.0081
1800.00,0.0081
1799.00,0.0081
1798.00,0.0080
1797.00,0.0080
1796.00,0.0080
1795.00,0.0080
1794.00,0.0080
1793.00,0.0080
1792.00,0.0081
1791.00,0.0081
1790.00,0.0080
1789.00,0.0079
1788.00,0.0079
1787.00,0.0080
1786.00,0.0080
1785.00,0.0080
1784.00,0.0080
1783.00,0.0080
1782.00,0.0080
1781.00,0.0080
1780.00,0.0080
1779.00,0.0080
1778.00,0.0080
1777.00,0.0079
1776.00,0.0079
1775.00,0.0080
1774.00,0.0080
1773.00,0.0080
1772.00,0.0081
1771.00,0.0080
1770.00,0.0080
1769.00,0.0080
1768.00,0.0080
1767.00,0.0080
1766.00,0.0080
1765.00,0.0079
1764.00,0.0080
1763.00,0.0080
1762.00,0.0081
1761.00,0.0081
1760.00,0.0081
1759.00,0.0081
1758.00,0.0081
1757.00,0.0081
1756.00,0.0081
1755.00,0.0081
1754.00,0.0080
1753.00,0.0081
1752.00,0.0082
1751.00,0.0083
1750.00,0.0083
1749.00,0.0083
1748.00,0.0084
1747.00,0.0084
1746.00,0.0084
1745.00,0.0084
1744.00,0.0085
1743.00,0.0085
1742.00,0.0085
1741.00,0.0085
1740.00,0.0086
1739.00,0.0086
1738.00,0.0086
1737.00,0.0086
1736.00,0.0088
1735.00,0.0089
1734.00,0.0090
1733.00,0.0091
1732.00,0.0092
1731.00,0.0093
1730.00,0.0093
1729.00,0.0093
1728.00,0.0094
1727.00,0.0096
1726.00,0.0097
1725.00,0.0098
1724.00,0.0100
1723.00,0.0103
1722.00,0.0104
1721.00,0.0105
1720.00,0.0108
1719.00,0.0112
1718.00,0.0115
1717.00,0.0119
1716.00,0.0123
1715.00,0.0127
1714.00,0.0130
1713.00,0.0134
1712.00,0.0139
1711.00,0.0145
1710.00,0.0151
1709.00,0.0157
1708.00,0.0166
1707.00,0.0175
1706.00,0.0186
1705.00,0.0198
1704.00,0.0210
1703.00,0.0221
1702.00,0.0234
1701.00,0.0253
1700.00,0.0279
1699.00,0.0303
1698.00,0.0323
1697.00,0.0347
1696.00,0.0380
1695.00,0.0414
1694.00,0.0445
1693.00,0.0472
1692.00,0.0503
1691.00,0.0537
1690.00,0.0574
1689.00,0.0612
1688.00,0.0648
1687.00,0.0682
1686.00,0.0719
1685.00,0.0766
1684.00,0.0821
1683.00,0.0870
1682.00,0.0908
1681.00,0.0943
1680.00,0.0980
1679.00,0.1016
1678.00,0.1050
1677.00,0.1085
1676.00,0.1125
1675.00,0.1167
1674.00,0.1203
1673.00,0.1234
1672.00,0.1265
1671.00,0.1297
1670.00,0.1332
1669.00,0.1366
1668.00,0.1398
1667.00,0.1427
1666.00,0.1452
1665.00,0.1478
1664.00,0.1506
1663.00,0.1536
1662.00,0.1564
1661.00,0.1588
1660.00,0.1612
1659.00,0.1634
1658.00,0.1653
1657.00,0.1671
1656.00,0.1689
1655.00,0.1707
1654.00,0.1722
1653.00,0.1729
1652.00,0.1731
1651.00,0.1731
1650.00,0.1731
1649.00,0.1729
1648.00,0.1723
1647.00,0.1708
1646.00,0.1683
1645.00,0.1657
1644.00,0.1633
1643.00,0.1609
1642.00,0.1580
1641.00,0.1548
1640.00,0.1514
1639.00,0.1480
1638.00,0.1444
1637.00,0.1403
1636.00,0.1352
1635.00,0.1298
1634.00,0.1251
1633.00,0.1212
1632.00,0.1177
1631.00,0.1141
1630.00,0.1104
1629.00,0.1066
1628.00,0.1028
1627.00,0.0993
1626.00,0.0961
1625.00,0.0930
1624.00,0.0898
1623.00,0.0867
1622.00,0.0837
1621.00,0.0812
1620.00,0.0790
1619.00,0.0768
1618.00,0.0745
1617.00,0.0721
1616.00,0.0697
1615.00,0.0675
1614.00,0.0657
1613.00,0.0640
1612.00,0.0622
1611.00,0.0605
1610.00,0.0588
1609.00,0.0572
1608.00,0.0557
1607.00,0.0542
1606.00,0.0528
1605.00,0.0515
1604.00,0.0502
1603.00,0.0490
1602.00,0.0478
1601.00,0.0467
1600.00,0.0456
1599.00,0.0445
1598.00,0.0436
1597.00,0.0427
1596.00,0.0418
1595.00,0.0410
1594.00,0.0401
1593.00,0.0393
1592.00,0.0386
1591.00,0.0378
1590.00,0.0372
1589.00,0.0366
1588.00,0.0359
1587.00,0.0353
1586.00,0.0348
1585.00,0.0342
1584.00,0.0336
1583.00,0.0331
1582.00,0.0326
1581.00,0.0321
1580.00,0.0316
1579.00,0.0312
1578.00,0.0308
1577.00,0.0304
1576.00,0.0300
1575.00,0.0296
1574.00,0.0292
1573.00,0.0288
1572.00,0.0284
1571.00,0.0281
1570.00,0.0278
1569.00,0.0275
1568.00,0.0272
1567.00,0.0269
1566.00,0.0267
1565.00,0.0264
1564.00,0.0261
1563.00,0.0259
1562.00,0.0256
1561.00,0.0254
1560.00,0.0252
1559.00,0.0251
1558.00,0.0250
1557.00,0.0248
1556.00,0.0246
1555.00,0.0244
1554.00,0.0243
1553.00,0.0241
1552.00,0.0239
1551.00,0.0238
1550.00,0.0236
1549.00,0.0234
1548.00,0.0232
1547.00,0.0230
1546.00,0.0229
1545.00,0.0228
1544.00,0.0227
1543.00,0.0225
1542.00,0.0224
1541.00,0.0223
1540.00,0.0222
1539.00,0.0221
1538.00,0.0220
1537.00,0.0218
1536.00,0.0216
1535.00,0.0214
1534.00,0.0213
1533.00,0.0212
1532.00,0.0211
1531.00,0.0210
1530.00,0.0209
1529.00,0.0208
1528.00,0.0207
1527.00,0.0207
1526.00,0.0206
1525.00,0.0205
1524.00,0.0204
1523.00,0.0203
1522.00,0.0203
1521.00,0.0202
1520.00,0.0202
1519.00,0.0201
1518.00,0.0201
1517.00,0.0202
1516.00,0.0202
1515.00,0.0202
1514.00,0.0203
1513.00,0.0204
1512.00,0.0206
1511.00,0.0208
1510.00,0.0211
1509.00,0.0215
1508.00,0.0222
1507.00,0.0231
1506.00,0.0241
1505.00,0.0252
1504.00,0.0263
1503.00,0.0274
1502.00,0.0287
1501.00,0.0302
1500.00,0.0319
1499.00,0.0337
1498.00,0.0355
1497.00,0.0373
1496.00,0.0388
1495.00,0.0398
1494.00,0.0404
1493.00,0.0406
1492.00,0.0404
1491.00,0.0399
1490.00,0.0389
1489.00,0.0375
1488.00,0.0359
1487.00,0.0341
1486.00,0.0325
1485.00,0.0309
1484.00,0.0296
1483.00,0.0283
1482.00,0.0273
1481.00,0.0265
1480.00,0.0259
1479.00,0.0255
1478.00,0.0254
1477.00,0.0257
1476.00,0.0261
1475.00,0.0268
1474.00,0.0279
1473.00,0.0297
1472.00,0.0322
1471.00,0.0348
1470.00,0.0376
1469.00,0.0407
1468.00,0.0442
1467.00,0.0481
1466.00,0.0525
1465.00,0.0573
1464.00,0.0617
1463.00,0.0650
1462.00,0.0672
1461.00,0.0684
1460.00,0.0688
1459.00,0.0682
1458.00,0.0662
1457.00,0.0629
1456.00,0.0592
1455.00,0.0561
1454.00,0.0538
1453.00,0.0521
1452.00,0.0508
1451.00,0.0501
1450.00,0.0501
1449.00,0.0509
1448.00,0.0524
1447.00,0.0545
1446.00,0.0570
1445.00,0.0599
1444.00,0.0632
1443.00,0.0666
1442.00,0.0700
1441.00,0.0732
1440.00,0.0762
1439.00,0.0787
1438.00,0.0810
1437.00,0.0832
1436.00,0.0848
1435.00,0.0857
1434.00,0.0861
1433.00,0.0863
1432.00,0.0866
1431.00,0.0871
1430.00,0.0880
1429.00,0.0896
1428.00,0.0918
1427.00,0.0945
1426.00,0.0977
1425.00,0.1012
1424.00,0.1045
1423.00,0.1069
1422.00,0.1081
1421.00,0.1082
1420.00,0.1068
1419.00,0.1034
1418.00,0.0987
1417.00,0.0935
1416.00,0.0881
1415.00,0.0825
1414.00,0.0770
1413.00,0.0717
1412.00,0.0667
1411.00,0.0622
1410.00,0.0581
1409.00,0.0546
1408.00,0.0516
1407.00,0.0488
1406.00,0.0465
1405.00,0.0444
1404.00,0.0425
1403.00,0.0410
1402.00,0.0397
1401.00,0.0386
1400.00,0.0375
1399.00,0.0366
1398.00,0.0359
1397.00,0.0353
1396.00,0.0347
1395.00,0.0343
1394.00,0.0340
1393.00,0.0338
1392.00,0.0337
1391.00,0.0337
1390.00,0.0338
1389.00,0.0341
1388.00,0.0345
1387.00,0.0350
1386.00,0.0356
1385.00,0.0362
1384.00,0.0368
1383.00,0.0376
1382.00,0.0384
1381.00,0.0393
1380.00,0.0402
1379.00,0.0411
1378.00,0.0420
1377.00,0.0428
1376.00,0.0435
1375.00,0.0441
1374.00,0.0445
1373.00,0.0447
1372.00,0.0447
1371.00,0.0445
1370.00,0.0442
1369.00,0.0437
1368.00,0.0430
1367.00,0.0421
1366.00,0.0412
1365.00,0.0402
1364.00,0.0392
1363.00,0.0381
1362.00,0.0369
1361.00,0.0358
1360.00,0.0348
1359.00,0.0339
1358.00,0.0332
1357.00,0.0325
1356.00,0.0319
1355.00,0.0314
1354.00,0.0309
1353.00,0.0304
1352.00,0.0300
1351.00,0.0296
1350.00,0.0293
1349.00,0.0290
1348.00,0.0287
1347.00,0.0284
1346.00,0.0282
1345.00,0.0280
1344.00,0.0278
1343.00,0.0277
1342.00,0.0277
1341.00,0.0278
1340.00,0.0278
1339.00,0.0279
1338.00,0.0280
1337.00,0.0281
1336.00,0.0283
1335.00,0.0285
1334.00,0.0288
1333.00,0.0292
1332.00,0.0298
1331.00,0.0305
1330.00,0.0313
1329.00,0.0323
1328.00,0.0334
1327.00,0.0345
1326.00,0.0358
1325.00,0.0372
1324.00,0.0386
1323.00,0.0401
1322.00,0.0415
1321.00,0.0429
1320.00,0.0442
1319.00,0.0452
1318.00,0.0459
1317.00,0.0464
1316.00,0.0465
1315.00,0.0462
1314.00,0.0457
1313.00,0.0449
1312.00,0.0440
1311.00,0.0431
1310.00,0.0422
1309.00,0.0414
1308.00,0.0408
1307.00,0.0404
1306.00,0.0403
1305.00,0.0405
1304.00,0.0411
1303.00,0.0422
1302.00,0.0438
1301.00,0.0460
1300.00,0.0488
1299.00,0.0524
1298.00,0.0568
1297.00,0.0620
1296.00,0.0678
1295.00,0.0741
1294.00,0.0808
1293.00,0.0876
1292.00,0.0942
1291.00,0.1004
1290.00,0.1060
1289.00,0.1108
1288.00,0.1145
1287.00,0.1171
1286.00,0.1185
1285.00,0.1188
1284.00,0.1181
1283.00,0.1167
1282.00,0.1148
1281.00,0.1128
1280.00,0.1112
1279.00,0.1101
1278.00,0.1096
1277.00,0.1097
1276.00,0.1104
1275.00,0.1113
1274.00,0.1124
1273.00,0.1133
1272.00,0.1138
1271.00,0.1137
1270.00,0.1130
1269.00,0.1116
1268.00,0.1096
1267.00,0.1070
1266.00,0.1040
1265.00,0.1007
1264.00,0.0972
1263.00,0.0936
1262.00,0.0901
1261.00,0.0866
1260.00,0.0834
1259.00,0.0803
1258.00,0.0774
1257.00,0.0748
1256.00,0.0724
1255.00,0.0701
1254.00,0.0681
1253.00,0.0662
1252.00,0.0645
1251.00,0.0631
1250.00,0.0618
1249.00,0.0607
1248.00,0.0597
1247.00,0.0590
1246.00,0.0583
1245.00,0.0578
1244.00,0.0574
1243.00,0.0571
1242.00,0.0569
1241.00,0.0569
1240.00,0.0571
1239.00,0.0574
1238.00,0.0578
1237.00,0.0583
1236.00,0.0588
1235.00,0.0594
1234.00,0.0600
1233.00,0.0605
1232.00,0.0611
1231.00,0.0615
1230.00,0.0618
1229.00,0.0620
1228.00,0.0621
1227.00,0.0620
1226.00,0.0619
1225.00,0.0617
1224.00,0.0614
1223.00,0.0612
1222.00,0.0610
1221.00,0.0607
1220.00,0.0605
1219.00,0.0602
1218.00,0.0599
1217.00,0.0595
1216.00,0.0590
1215.00,0.0584
1214.00,0.0578
1213.00,0.0571
1212.00,0.0563
1211.00,0.0555
1210.00,0.0548
1209.00,0.0540
1208.00,0.0533
1207.00,0.0525
1206.00,0.0518
1205.00,0.0511
1204.00,0.0504
1203.00,0.0497
1202.00,0.0491
1201.00,0.0486
1200.00,0.0480
1199.00,0.0475
1198.00,0.0470
1197.00,0.0465
1196.00,0.0461
1195.00,0.0456
1194.00,0.0452
1193.00,0.0449
1192.00,0.0446
1191.00,0.0443
1190.00,0.0440
1189.00,0.0438
1188.00,0.0436
1187.00,0.0435
1186.00,0.0434
1185.00,0.0433
1184.00,0.0432
1183.00,0.0433
1182.00,0.0434
1181.00,0.0435
1180.00,0.0437
1179.00,0.0440
1178.00,0.0443
1177.00,0.0447
1176.00,0.0452
1175.00,0.0457
1174.00,0.0462
1173.00,0.0468
1172.00,0.0473
1171.00,0.0477
1170.00,0.0480
1169.00,0.0482
1168.00,0.0482
1167.00,0.0480
1166.00,0.0478
1165.00,0.0474
1164.00,0.0469
1163.00,0.0463
1162.00,0.0456
1161.00,0.0450
1160.00,0.0443
1159.00,0.0436
1158.00,0.0430
1157.00,0.0423
1156.00,0.0417
1155.00,0.0412
1154.00,0.0407
1153.00,0.0402
1152.00,0.0397
1151.00,0.0393
1150.00,0.0389
1149.00,0.0385
1148.00,0.0381
1147.00,0.0377
1146.00,0.0373
1145.00,0.0369
1144.00,0.0365
1143.00,0.0361
1142.00,0.0357
1141.00,0.0354
1140.00,0.0350
1139.00,0.0346
1138.00,0.0343
1137.00,0.0340
1136.00,0.0338
1135.00,0.0336
1134.00,0.0335
1133.00,0.0334
1132.00,0.0334
1131.00,0.0334
1130.00,0.0334
1129.00,0.0334
1128.00,0.0335
1127.00,0.0336
1126.00,0.0337
1125.00,0.0339
1124.00,0.0340
1123.00,0.0341
1122.00,0.0342
1121.00,0.0344
1120.00,0.0344
1119.00,0.0345
1118.00,0.0346
1117.00,0.0346
1116.00,0.0346
1115.00,0.0347
1114.00,0.0347
1113.00,0.0348
1112.00,0.0348
1111.00,0.0349
1110.00,0.0349
1109.00,0.0349
1108.00,0.0350
1107.00,0.0350
1106.00,0.0351
1105.00,0.0351
1104.00,0.0352
1103.00,0.0353
1102.00,0.0353
1101.00,0.0353
1100.00,0.0353
1099.00,0.0353
1098.00,0.0353
1097.00,0.0354
1096.00,0.0354
1095.00,0.0354
1094.00,0.0354
1093.00,0.0355
1092.00,0.0355
1091.00,0.0355
1090.00,0.0355
1089.00,0.0355
1088.00,0.0356
1087.00,0.0356
1086.00,0.0357
1085.00,0.0358
1084.00,0.0359
1083.00,0.0360
1082.00,0.0361
1081.00,0.0364
1080.00,0.0366
1079.00,0.0368
1078.00,0.0370
1077.00,0.0373
1076.00,0.0374
1075.00,0.0375
1074.00,0.0376
1073.00,0.0376
1072.00,0.0375
1071.00,0.0373
1070.00,0.0370
1069.00,0.0368
1068.00,0.0365
1067.00,0.0362
1066.00,0.0359
1065.00,0.0356
1064.00,0.0353
1063.00,0.0349
1062.00,0.0346
1061.00,0.0344
1060.00,0.0341
1059.00,0.0338
1058.00,0.0336
1057.00,0.0334
1056.00,0.0331
1055.00,0.0329
1054.00,0.0328
1053.00,0.0327
1052.00,0.0326
1051.00,0.0325
1050.00,0.0325
1049.00,0.0326
1048.00,0.0326
1047.00,0.0327
1046.00,0.0328
1045.00,0.0329
1044.00,0.0330
1043.00,0.0331
1042.00,0.0333
1041.00,0.0334
1040.00,0.0335
1039.00,0.0336
1038.00,0.0336
1037.00,0.0334
1036.00,0.0326
1035.00,0.0315
1034.00,0.0305
1033.00,0.0302
1032.00,0.0309
1031.00,0.0321
1030.00,0.0331
1029.00,0.0339
1028.00,0.0343
1027.00,0.0346
1026.00,0.0349
1025.00,0.0352
1024.00,0.0356
1023.00,0.0361
1022.00,0.0366
1021.00,0.0370
1020.00,0.0375
1019.00,0.0378
1018.00,0.0380
1017.00,0.0380
1016.00,0.0377
1015.00,0.0373
1014.00,0.0366
1013.00,0.0359
1012.00,0.0352
1011.00,0.0346
1010.00,0.0341
1009.00,0.0338
1008.00,0.0337
1007.00,0.0338
1006.00,0.0341
1005.00,0.0346
1004.00,0.0351
1003.00,0.0356
1002.00,0.0360
1001.00,0.0362
1000.00,0.0362
999.00,0.0361
998.00,0.0358
997.00,0.0355
996.00,0.0351
995.00,0.0348
994.00,0.0344
993.00,0.0341
992.00,0.0338
991.00,0.0335
990.00,0.0332
989.00,0.0330
988.00,0.0327
987.00,0.0325
986.00,0.0324
985.00,0.0322
984.00,0.0320
983.00,0.0318
982.00,0.0316
981.00,0.0314
980.00,0.0312
979.00,0.0310
978.00,0.0309
977.00,0.0307
976.00,0.0306
975.00,0.0304
974.00,0.0303
973.00,0.0301
972.00,0.0300
971.00,0.0298
970.00,0.0297
969.00,0.0295
968.00,0.0294
967.00,0.0293
966.00,0.0292
965.00,0.0290
964.00,0.0289
963.00,0.0288
962.00,0.0287
961.00,0.0285
960.00,0.0284
959.00,0.0283
958.00,0.0282
957.00,0.0281
956.00,0.0280
955.00,0.0279
954.00,0.0278
953.00,0.0277
952.00,0.0277
951.00,0.0276
950.00,0.0276
949.00,0.0276
948.00,0.0275
947.00,0.0275
946.00,0.0275
945.00,0.0276
944.00,0.0277
943.00,0.0279
942.00,0.0282
941.00,0.0285
940.00,0.0289
939.00,0.0294
938.00,0.0300
937.00,0.0307
936.00,0.0314
935.00,0.0320
934.00,0.0324
933.00,0.0325
932.00,0.0324
931.00,0.0321
930.00,0.0316
929.00,0.0312
928.00,0.0309
927.00,0.0306
926.00,0.0305
925.00,0.0303
924.00,0.0301
923.00,0.0299
922.00,0.0297
921.00,0.0295
920.00,0.0293
919.00,0.0292
918.00,0.0290
917.00,0.0289
916.00,0.0287
915.00,0.0286
914.00,0.0285
913.00,0.0284
912.00,0.0283
911.00,0.0283
910.00,0.0282
909.00,0.0283
908.00,0.0283
907.00,0.0285
906.00,0.0286
905.00,0.0288
904.00,0.0291
903.00,0.0293
902.00,0.0296
901.00,0.0299
900.00,0.0302
899.00,0.0305
898.00,0.0308
897.00,0.0311
896.00,0.0313
895.00,0.0314
894.00,0.0314
893.00,0.0313
892.00,0.0311
891.00,0.0309
890.00,0.0307
889.00,0.0305
888.00,0.0302
887.00,0.0299
886.00,0.0297
885.00,0.0295
884.00,0.0293
883.00,0.0291
882.00,0.0289
881.00,0.0288
880.00,0.0287
879.00,0.0286
878.00,0.0286
877.00,0.0286
876.00,0.0285
875.00,0.0285
874.00,0.0285
873.00,0.0286
872.00,0.0286
871.00,0.0287
870.00,0.0289
869.00,0.0290
868.00,0.0291
867.00,0.0293
866.00,0.0295
865.00,0.0297
864.00,0.0300
863.00,0.0303
862.00,0.0306
861.00,0.0310
860.00,0.0315
859.00,0.0321
858.00,0.0327
857.00,0.0335
856.00,0.0343
855.00,0.0351
854.00,0.0360
853.00,0.0368
852.00,0.0377
851.00,0.0386
850.00,0.0394
849.00,0.0402
848.00,0.0409
847.00,0.0414
846.00,0.0419
845.00,0.0422
844.00,0.0423
843.00,0.0424
842.00,0.0423
841.00,0.0421
840.00,0.0418
839.00,0.0415
838.00,0.0411
837.00,0.0406
836.00,0.0402
835.00,0.0397
834.00,0.0392
833.00,0.0386
832.00,0.0381
831.00,0.0375
830.00,0.0370
829.00,0.0364
828.00,0.0359
827.00,0.0354
826.00,0.0349
825.00,0.0345
824.00,0.0341
823.00,0.0337
822.00,0.0334
821.00,0.0332
820.00,0.0329
819.00,0.0327
818.00,0.0325
817.00,0.0323
816.00,0.0321
815.00,0.0320
814.00,0.0318
813.00,0.0318
812.00,0.0317
811.00,0.0316
810.00,0.0315
809.00,0.0314
808.00,0.0313
807.00,0.0312
806.00,0.0311
805.00,0.0311
804.00,0.0311
803.00,0.0310
802.00,0.0310
801.00,0.0310
800.00,0.0310
799.00,0.0310
798.00,0.0311
797.00,0.0312
796.00,0.0313
795.00,0.0313
794.00,0.0314
793.00,0.0315
792.00,0.0316
791.00,0.0317
790.00,0.0318
789.00,0.0319
788.00,0.0320
787.00,0.0321
786.00,0.0322
785.00,0.0323
784.00,0.0324
783.00,0.0325
782.00,0.0325
781.00,0.0326
780.00,0.0327
779.00,0.0328
778.00,0.0329
777.00,0.0330
776.00,0.0331
775.00,0.0332
774.00,0.0334
773.00,0.0336
772.00,0.0338
771.00,0.0340
770.00,0.0343
769.00,0.0345
768.00,0.0348
767.00,0.0352
766.00,0.0355
765.00,0.0359
764.00,0.0364
763.00,0.0369
762.00,0.0374
761.00,0.0379
760.00,0.0384
759.00,0.0389
758.00,0.0394
757.00,0.0399
756.00,0.0405
755.00,0.0411
754.00,0.0417
753.00,0.0423
752.00,0.0429
751.00,0.0435
750.00,0.0440
749.00,0.0446
748.00,0.0452
747.00,0.0458
746.00,0.0464
745.00,0.0470
744.00,0.0476
743.00,0.0482
742.00,0.0488
741.00,0.0495
740.00,0.0501
739.00,0.0507
738.00,0.0513
737.00,0.0519
736.00,0.0524
735.00,0.0528
734.00,0.0530
733.00,0.0531
732.00,0.0530
731.00,0.0528
730.00,0.0523
729.00,0.0518
728.00,0.0512
727.00,0.0506
726.00,0.0500
725.00,0.0495
724.00,0.0490
723.00,0.0486
722.00,0.0481
721.00,0.0477
720.00,0.0473
719.00,0.0470
718.00,0.0468
717.00,0.0467
716.00,0.0465
715.00,0.0464
714.00,0.0463
713.00,0.0463
712.00,0.0463
711.00,0.0463
710.00,0.0464
709.00,0.0464
708.00,0.0464
707.00,0.0465
706.00,0.0466
705.00,0.0467
704.00,0.0469
703.00,0.0471
702.00,0.0473
701.00,0.0475
700.00,0.0478
699.00,0.0481
698.00,0.0483
697.00,0.0485
696.00,0.0488
695.00,0.0491
694.00,0.0494
693.00,0.0498
692.00,0.0501
691.00,0.0504
690.00,0.0507
689.00,0.0512
688.00,0.0516
687.00,0.0521
686.00,0.0526
685.00,0.0531
684.00,0.0536
683.00,0.0541
682.00,0.0547
681.00,0.0552
680.00,0.0556
679.00,0.0561
678.00,0.0565
677.00,0.0570
676.00,0.0575
675.00,0.0581
674.00,0.0587
673.00,0.0593
672.00,0.0599
671.00,0.0605
670.00,0.0611
669.00,0.0617
668.00,0.0626
667.00,0.0636
666.00,0.0645
665.00,0.0652
664.00,0.0660
663.00,0.0668
662.00,0.0678
661.00,0.0688
660.00,0.0700
659.00,0.0712
658.00,0.0724
657.00,0.0736
656.00,0.0749
655.00,0.0762
654.00,0.0775
653.00,0.0788
652.00,0.0800
651.00,0.0810
650.00,0.0818
649.00,0.0825
648.00,0.0830
647.00,0.0833
646.00,0.0833
645.00,0.0832
644.00,0.0830
643.00,0.0826
642.00,0.0821
641.00,0.0814
640.00,0.0808
639.00,0.0801
638.00,0.0794
637.00,0.0787
636.00,0.0782
635.00,0.0776
634.00,0.0771
633.00,0.0766
632.00,0.0762
631.00,0.0758
630.00,0.0755
629.00,0.0752
628.00,0.0749
627.00,0.0746
626.00,0.0743
625.00,0.0741
624.00,0.0740
623.00,0.0738
622.00,0.0736
621.00,0.0734
620.00,0.0733
619.00,0.0733
618.00,0.0733
617.00,0.0733
616.00,0.0733
615.00,0.0733
614.00,0.0733
613.00,0.0736
612.00,0.0741
611.00,0.0748
610.00,0.0752
609.00,0.0750
608.00,0.0744
607.00,0.0738
606.00,0.0736
605.00,0.0738
604.00,0.0741
603.00,0.0743
602.00,0.0745
601.00,0.0747
600.00,0.0749
599.00,0.0750
598.00,0.0752
597.00,0.0754
596.00,0.0757
595.00,0.0762
594.00,0.0767
593.00,0.0772
592.00,0.0777
591.00,0.0782
590.00,0.0789
589.00,0.0797
588.00,0.0806
587.00,0.0815
586.00,0.0825
585.00,0.0835
584.00,0.0845
583.00,0.0856
582.00,0.0867
581.00,0.0879
580.00,0.0891
579.00,0.0903
578.00,0.0913
577.00,0.0923
576.00,0.0931
575.00,0.0937
574.00,0.0943
573.00,0.0947
572.00,0.0951
571.00,0.0953
570.00,0.0954
569.00,0.0953
568.00,0.0951
567.00,0.0948
566.00,0.0943
565.00,0.0939
564.00,0.0933
563.00,0.0928
562.00,0.0923
561.00,0.0918
560.00,0.0914
559.00,0.0909
558.00,0.0904
557.00,0.0900
556.00,0.0897
555.00,0.0894
554.00,0.0889
553.00,0.0883
552.00,0.0878
551.00,0.0874
550.00,0.0873
549.00,0.0871
548.00,0.0870
547.00,0.0866
546.00,0.0862
545.00,0.0859
544.00,0.0855
543.00,0.0853
542.00,0.0850
541.00,0.0848
540.00,0.0847
539.00,0.0846
538.00,0.0844
537.00,0.0843
536.00,0.0843
535.00,0.0843
534.00,0.0843
533.00,0.0844
532.00,0.0844
531.00,0.0845
530.00,0.0845
529.00,0.0845
528.00,0.0845
527.00,0.0845
526.00,0.0846
525.00,0.0845
524.00,0.0845
523.00,0.0845
522.00,0.0846
521.00,0.0847
520.00,0.0848
519.00,0.0847
518.00,0.0845
517.00,0.0843
516.00,0.0844
515.00,0.0845
514.00,0.0847
513.00,0.0849
512.00,0.0849
511.00,0.0848
510.00,0.0848
509.00,0.0847
508.00,0.0847
507.00,0.0847
506.00,0.0848
505.00,0.0848
504.00,0.0849
503.00,0.0849
502.00,0.0850
501.00,0.0851
500.00,0.0852
499.00,0.0853
498.00,0.0855
497.00,0.0857
496.00,0.0858
495.00,0.0858
494.00,0.0859
493.00,0.0860
492.00,0.0863
491.00,0.0863
490.00,0.0862
489.00,0.0862
488.00,0.0864
487.00,0.0867
486.00,0.0871
485.00,0.0873
484.00,0.0875
483.00,0.0875
482.00,0.0876
481.00,0.0879
480.00,0.0884
479.00,0.0888
478.00,0.0890
477.00,0.0890
476.00,0.0890
475.00,0.0891
474.00,0.0895
473.00,0.0900
472.00,0.0905
471.00,0.0909
470.00,0.0910
469.00,0.0912
468.00,0.0912
467.00,0.0908
466.00,0.0901
465.00,0.0892
464.00,0.0886
463.00,0.0884
462.00,0.0886
461.00,0.0889
460.00,0.0891
459.00,0.0891
458.00,0.0888
457.00,0.0883
456.00,0.0877
455.00,0.0870
454.00,0.0864
453.00,0.0859
452.00,0.0857
451.00,0.0858
450.00,0.0860
449.00,0.0862
448.00,0.0863
447.00,0.0859
446.00,0.0852
445.00,0.0845
444.00,0.0842
443.00,0.0840
442.00,0.0838
441.00,0.0835
440.00,0.0831
439.00,0.0826
438.00,0.0821
437.00,0.0817
436.00,0.0813
435.00,0.0807
434.00,0.0802
433.00,0.0797
432.00,0.0795
431.00,0.0794
430.00,0.0791
429.00,0.0788
428.00,0.0785
427.00,0.0785
426.00,0.0787
425.00,0.0790
424.00,0.0792
423.00,0.0794
422.00,0.0796
421.00,0.0797
420.00,0.0797
419.00,0.0795
418.00,0.0793
417.00,0.0791
416.00,0.0788
415.00,0.0783
414.00,0.0775
413.00,0.0763
412.00,0.0750
411.00,0.0741
410.00,0.0739
409.00,0.0743
408.00,0.0747
407.00,0.0746
406.00,0.0744
405.00,0.0745
404.00,0.0748
403.00,0.0750
402.00,0.0749
401.00,0.0750
400.00,0.0751
