Created as New Dataset,Sample 201 By YargerLab Date Saturday, October 04 2025
cm-1,A
4000.00,0.0027
3999.00,0.0027
3998.00,0.0027
3997.00,0.0027
3996.00,0.0026
3995.00,0.0026
3994.00,0.0026
3993.00,0.0026
3992.00,0.0027
3991.00,0.0027
3990.00,0.0027
3989.00,0.0027
3988.00,0.0026
3987.00,0.0026
3986.00,0.0026
3985.00,0.0026
3984.00,0.0026
3983.00,0.0026
3982.00,0.0026
3981.00,0.0026
3980.00,0.0026
3979.00,0.0027
3978.00,0.0027
3977.00,0.0027
3976.00,0.0027
3975.00,0.0027
3974.00,0.0027
3973.00,0.0027
3972.00,0.0027
3971.00,0.0027
3970.00,0.0027
3969.00,0.0027
3968.00,0.0027
3967.00,0.0026
3966.00,0.0026
3965.00,0.0026
3964.00,0.0026
3963.00,0.0026
3962.00,0.0026
3961.00,0.0026
3960.00,0.0027
3959.00,0.0027
3958.00,0.0027
3957.00,0.0027
3956.00,0.0027
3955.00,0.0027
3954.00,0.0027
3953.00,0.0027
3952.00,0.0027
3951.00,0.0026
3950.00,0.0026
3949.00,0.0026
3948.00,0.0026
3947.00,0.0026
3946.00,0.0026
3945.00,0.0026
3944.00,0.0026
3943.00,0.0026
3942.00,0.0027
3941.00,0.0027
3940.00,0.0027
3939.00,0.0027
3938.00,0.0027
3937.00,0.0027
3936.00,0.0026
3935.00,0.0026
3934.00,0.0026
3933.00,0.0026
3932.00,0.0026
3931.00,0.0026
3930.00,0.0027
3929.00,0.0026
3928.00,0.0026
3927.00,0.0026
3926.00,0.0026
3925.00,0.0026
3924.00,0.0026
3923.00,0.0026
3922.00,0.0026
3921.00,0.0026
3920.00,0.0026
3919.00,0.0026
3918.00,0.0026
3917.00,0.0026
3916.00,0.0026
3915.00,0.0027
3914.00,0.0027
3913.00,0.0027
3912.00,0.0027
3911.00,0.0027
3910.00,0.0027
3909.00,0.0027
3908.00,0.0026
3907.00,0.0026
3906.00,0.0026
3905.00,0.0026
3904.00,0.0026
3903.00,0.0026
3902.00,0.0026
3901.00,0.0026
3900.00,0.0026
3899.00,0.0026
3898.00,0.0027
3897.00,0.0027
3896.00,0.0027
3895.00,0.0027
3894.00,0.0026
3893.00,0.0026
3892.00,0.0026
3891.00,0.0027
3890.00,0.0027
3889.00,0.0027
3888.00,0.0027
3887.00,0.0026
3886.00,0.0026
3885.00,0.0026
3884.00,0.0027
3883.00,0.0026
3882.00,0.0026
3881.00,0.0026
3880.00,0.0027
3879.00,0.0027
3878.00,0.0027
3877.00,0.0027
3876.00,0.0026
3875.00,0.0026
3874.00,0.0026
3873.00,0.0026
3872.00,0.0026
3871.00,0.0026
3870.00,0.0026
3869.00,0.0026
3868.00,0.0026
3867.00,0.0026
3866.00,0.0026
3865.00,0.0026
3864.00,0.0026
3863.00,0.0026
3862.00,0.0026
3861.00,0.0026
3860.00,0.0026
3859.00,0.0026
3858.00,0.0027
3857.00,0.0027
3856.00,0.0027
3855.00,0.0027
3854.00,0.0026
3853.00,0.0026
3852.00,0.0026
3851.00,0.0026
3850.00,0.0026
3849.00,0.0026
3848.00,0.0026
3847.00,0.0026
3846.00,0.0026
3845.00,0.0026
3844.00,0.0026
3843.00,0.0026
3842.00,0.0026
3841.00,0.0026
3840.00,0.0026
3839.00,0.0026
3838.00,0.0026
3837.00,0.0026
3836.00,0.0026
3835.00,0.0026
3834.00,0.0026
3833.00,0.0026
3832.00,0.0026
3831.00,0.0026
3830.00,0.0026
3829.00,0.0026
3828.00,0.0026
3827.00,0.0026
3826.00,0.0026
3825.00,0.0026
3824.00,0.0026
3823.00,0.0026
3822.00,0.0025
3821.00,0.0025
3820.00,0.0026
3819.00,0.0026
3818.00,0.0026
3817.00,0.0025
3816.00,0.0025
3815.00,0.0026
3814.00,0.0026
3813.00,0.0026
3812.00,0.0026
3811.00,0.0026
3810.00,0.0026
3809.00,0.0026
3808.00,0.0026
3807.00,0.0026
3806.00,0.0027
3805.00,0.0026
3804.00,0.0026
3803.00,0.0025
3802.00,0.0025
3801.00,0.0026
3800.00,0.0026
3799.00,0.0026
3798.00,0.0026
3797.00,0.0025
3796.00,0.0026
3795.00,0.0026
3794.00,0.0026
3793.00,0.0026
3792.00,0.0027
3791.00,0.0027
3790.00,0.0027
3789.00,0.0027
3788.00,0.0027
3787.00,0.0027
3786.00,0.0027
3785.00,0.0027
3784.00,0.0027
3783.00,0.0027
3782.00,0.0027
3781.00,0.0027
3780.00,0.0027
3779.00,0.0027
3778.00,0.0027
3777.00,0.0027
3776.00,0.0027
3775.00,0.0027
3774.00,0.0027
3773.00,0.0027
3772.00,0.0027
3771.00,0.0027
3770.00,0.0027
3769.00,0.0027
3768.00,0.0027
3767.00,0.0026
3766.00,0.0026
3765.00,0.0026
3764.00,0.0027
3763.00,0.0027
3762.00,0.0027
3761.00,0.0027
3760.00,0.0026
3759.00,0.0026
3758.00,0.0026
3757.00,0.0027
3756.00,0.0027
3755.00,0.0026
3754.00,0.0026
3753.00,0.0026
3752.00,0.0025
3751.00,0.0025
3750.00,0.0025
3749.00,0.0025
3748.00,0.0025
3747.00,0.0025
3746.00,0.0025
3745.00,0.0025
3744.00,0.0025
3743.00,0.0025
3742.00,0.0025
3741.00,0.0024
3740.00,0.0024
3739.00,0.0024
3738.00,0.0024
3737.00,0.0024
3736.00,0.0023
3735.00,0.0024
3734.00,0.0024
3733.00,0.0024
3732.00,0.0024
3731.00,0.0024
3730.00,0.0025
3729.00,0.0025
3728.00,0.0025
3727.00,0.0024
3726.00,0.0024
3725.00,0.0024
3724.00,0.0023
3723.00,0.0023
3722.00,0.0022
3721.00,0.0022
3720.00,0.0022
3719.00,0.0022
3718.00,0.0023
3717.00,0.0023
3716.00,0.0023
3715.00,0.0023
3714.00,0.0023
3713.00,0.0022
3712.00,0.0021
3711.00,0.0021
3710.00,0.0020
3709.00,0.0021
3708.00,0.0021
3707.00,0.0021
3706.00,0.0021
3705.00,0.0021
3704.00,0.0021
3703.00,0.0021
3702.00,0.0021
3701.00,0.0021
3700.00,0.0021
3699.00,0.0021
3698.00,0.0021
3697.00,0.0021
3696.00,0.0021
3695.00,0.0021
3694.00,0.0021
3693.00,0.0022
3692.00,0.0022
3691.00,0.0022
3690.00,0.0022
3689.00,0.0022
3688.00,0.0023
3687.00,0.0023
3686.00,0.0022
3685.00,0.0022
3684.00,0.0022
3683.00,0.0022
3682.00,0.0021
3681.00,0.0022
3680.00,0.0022
3679.00,0.0022
3678.00,0.0023
3677.00,0.0022
3676.00,0.0022
3675.00,0.0023
3674.00,0.0023
3673.00,0.0023
3672.00,0.0022
3671.00,0.0021
3670.00,0.0021
3669.00,0.0022
3668.00,0.0022
3667.00,0.0022
3666.00,0.0022
3665.00,0.0022
3664.00,0.0022
3663.00,0.0023
3662.00,0.0023
3661.00,0.0024
3660.00,0.0024
3659.00,0.0024
3658.00,0.0024
3657.00,0.0024
3656.00,0.0025
3655.00,0.0025
3654.00,0.0025
3653.00,0.0025
3652.00,0.0025
3651.00,0.0025
3650.00,0.0024
3649.00,0.0024
3648.00,0.0025
3647.00,0.0025
3646.00,0.0026
3645.00,0.0026
3644.00,0.0026
3643.00,0.0027
3642.00,0.0028
3641.00,0.0028
3640.00,0.0029
3639.00,0.0029
3638.00,0.0029
3637.00,0.0029
3636.00,0.0029
3635.00,0.0029
3634.00,0.0029
3633.00,0.0030
3632.00,0.0030
3631.00,0.0031
3630.00,0.0031
3629.00,0.0031
3628.00,0.0031
3627.00,0.0032
3626.00,0.0032
3625.00,0.0032
3624.00,0.0032
3623.00,0.0033
3622.00,0.0033
3621.00,0.0033
3620.00,0.0034
3619.00,0.0034
3618.00,0.0034
3617.00,0.0034
3616.00,0.0034
3615.00,0.0035
3614.00,0.0035
3613.00,0.0036
3612.00,0.0037
3611.00,0.0037
3610.00,0.0037
3609.00,0.0037
3608.00,0.0037
3607.00,0.0037
3606.00,0.0037
3605.00,0.0038
3604.00,0.0038
3603.00,0.0039
3602.00,0.0039
3601.00,0.0039
3600.00,0.0039
3599.00,0.0040
3598.00,0.0040
3597.00,0.0040
3596.00,0.0041
3595.00,0.0041
3594.00,0.0041
3593.00,0.0042
3592.00,0.0043
3591.00,0.0043
3590.00,0.0044
3589.00,0.0044
3588.00,0.0044
3587.00,0.0045
3586.00,0.0045
3585.00,0.0045
3584.00,0.0046
3583.00,0.0046
3582.00,0.0047
3581.00,0.0048
3580.00,0.0048
3579.00,0.0049
3578.00,0.0049
3577.00,0.0049
3576.00,0.0050
3575.00,0.0050
3574.00,0.0051
3573.00,0.0052
3572.00,0.0052
3571.00,0.0053
3570.00,0.0053
3569.00,0.0054
3568.00,0.0054
3567.00,0.0054
3566.00,0.0055
3565.00,0.0055
3564.00,0.0055
3563.00,0.0056
3562.00,0.0056
3561.00,0.0057
3560.00,0.0057
3559.00,0.0058
3558.00,0.0059
3557.00,0.0059
3556.00,0.0060
3555.00,0.0060
3554.00,0.0061
3553.00,0.0061
3552.00,0.0061
3551.00,0.0061
3550.00,0.0062
3549.00,0.0062
3548.00,0.0062
3547.00,0.0063
3546.00,0.0063
3545.00,0.0063
3544.00,0.0064
3543.00,0.0064
3542.00,0.0064
3541.00,0.0065
3540.00,0.0065
3539.00,0.0066
3538.00,0.0066
3537.00,0.0067
3536.00,0.0067
3535.00,0.0067
3534.00,0.0068
3533.00,0.0068
3532.00,0.0068
3531.00,0.0069
3530.00,0.0069
3529.00,0.0069
3528.00,0.0069
3527.00,0.0069
3526.00,0.0069
3525.00,0.0069
3524.00,0.0069
3523.00,0.0069
3522.00,0.0069
3521.00,0.0069
3520.00,0.0070
3519.00,0.0070
3518.00,0.0071
3517.00,0.0071
3516.00,0.0071
3515.00,0.0072
3514.00,0.0072
3513.00,0.0071
3512.00,0.0071
3511.00,0.0071
3510.00,0.0071
3509.00,0.0072
3508.00,0.0072
3507.00,0.0072
3506.00,0.0073
3505.00,0.0073
3504.00,0.0073
3503.00,0.0074
3502.00,0.0074
3501.00,0.0074
3500.00,0.0074
3499.00,0.0074
3498.00,0.0074
3497.00,0.0074
3496.00,0.0074
3495.00,0.0074
3494.00,0.0074
3493.00,0.0074
3492.00,0.0074
3491.00,0.0075
3490.00,0.0075
3489.00,0.0075
3488.00,0.0074
3487.00,0.0074
3486.00,0.0074
3485.00,0.0074
3484.00,0.0075
3483.00,0.0075
3482.00,0.0075
3481.00,0.0075
3480.00,0.0075
3479.00,0.0075
3478.00,0.0075
3477.00,0.0075
3476.00,0.0076
3475.00,0.0076
3474.00,0.0076
3473.00,0.0076
3472.00,0.0076
3471.00,0.0076
3470.00,0.0077
3469.00,0.0077
3468.00,0.0077
3467.00,0.0077
3466.00,0.0077
3465.00,0.0077
3464.00,0.0076
3463.00,0.0076
3462.00,0.0076
3461.00,0.0076
3460.00,0.0077
3459.00,0.0077
3458.00,0.0077
3457.00,0.0077
3456.00,0.0077
3455.00,0.0077
3454.00,0.0077
3453.00,0.0077
3452.00,0.0077
3451.00,0.0077
3450.00,0.0077
3449.00,0.0078
3448.00,0.0078
3447.00,0.0078
3446.00,0.0077
3445.00,0.0077
3444.00,0.0077
3443.00,0.0077
3442.00,0.0077
3441.00,0.0077
3440.00,0.0077
3439.00,0.0077
3438.00,0.0077
3437.00,0.0077
3436.00,0.0077
3435.00,0.0077
3434.00,0.0077
3433.00,0.0077
3432.00,0.0077
3431.00,0.0077
3430.00,0.0077
3429.00,0.0076
3428.00,0.0076
3427.00,0.0076
3426.00,0.0076
3425.00,0.0076
3424.00,0.0076
3423.00,0.0076
3422.00,0.0076
3421.00,0.0075
3420.00,0.0075
3419.00,0.0075
3418.00,0.0075
3417.00,0.0075
3416.00,0.0075
3415.00,0.0075
3414.00,0.0075
3413.00,0.0074
3412.00,0.0074
3411.00,0.0074
3410.00,0.0074
3409.00,0.0074
3408.00,0.0074
3407.00,0.0074
3406.00,0.0074
3405.00,0.0074
3404.00,0.0074
3403.00,0.0074
3402.00,0.0074
3401.00,0.0073
3400.00,0.0073
3399.00,0.0073
3398.00,0.0072
3397.00,0.0072
3396.00,0.0072
3395.00,0.0072
3394.00,0.0072
3393.00,0.0072
3392.00,0.0072
3391.00,0.0072
3390.00,0.0072
3389.00,0.0072
3388.00,0.0071
3387.00,0.0071
3386.00,0.0071
3385.00,0.0070
3384.00,0.0070
3383.00,0.0070
3382.00,0.0069
3381.00,0.0069
3380.00,0.0070
3379.00,0.0070
3378.00,0.0070
3377.00,0.0069
3376.00,0.0069
3375.00,0.0069
3374.00,0.0068
3373.00,0.0068
3372.00,0.0068
3371.00,0.0068
3370.00,0.0067
3369.00,0.0067
3368.00,0.0067
3367.00,0.0067
3366.00,0.0067
3365.00,0.0067
3364.00,0.0067
3363.00,0.0067
3362.00,0.0067
3361.00,0.0067
3360.00,0.0067
3359.00,0.0067
3358.00,0.0066
3357.00,0.0066
3356.00,0.0066
3355.00,0.0066
3354.00,0.0065
3353.00,0.0065
3352.00,0.0065
3351.00,0.0065
3350.00,0.0065
3349.00,0.0065
3348.00,0.0065
3347.00,0.0065
3346.00,0.0065
3345.00,0.0064
3344.00,0.0064
3343.00,0.0064
3342.00,0.0064
3341.00,0.0064
3340.00,0.0064
3339.00,0.0064
3338.00,0.0064
3337.00,0.0064
3336.00,0.0064
3335.00,0.0064
3334.00,0.0064
3333.00,0.0064
3332.00,0.0063
3331.00,0.0063
3330.00,0.0063
3329.00,0.0063
3328.00,0.0062
3327.00,0.0062
3326.00,0.0062
3325.00,0.0062
3324.00,0.0062
3323.00,0.0062
3322.00,0.0062
3321.00,0.0062
3320.00,0.0062
3319.00,0.0063
3318.00,0.0063
3317.00,0.0062
3316.00,0.0062
3315.00,0.0062
3314.00,0.0062
3313.00,0.0062
3312.00,0.0062
3311.00,0.0061
3310.00,0.0061
3309.00,0.0061
3308.00,0.0060
3307.00,0.0060
3306.00,0.0060
3305.00,0.0060
3304.00,0.0060
3303.00,0.0061
3302.00,0.0061
3301.00,0.0061
3300.00,0.0061
3299.00,0.0060
3298.00,0.0060
3297.00,0.0059
3296.00,0.0059
3295.00,0.0059
3294.00,0.0059
3293.00,0.0059
3292.00,0.0059
3291.00,0.0059
3290.00,0.0059
3289.00,0.0059
3288.00,0.0059
3287.00,0.0059
3286.00,0.0059
3285.00,0.0059
3284.00,0.0059
3283.00,0.0059
3282.00,0.0059
3281.00,0.0059
3280.00,0.0059
3279.00,0.0059
3278.00,0.0058
3277.00,0.0058
3276.00,0.0058
3275.00,0.0058
3274.00,0.0057
3273.00,0.0057
3272.00,0.0057
3271.00,0.0057
3270.00,0.0057
3269.00,0.0057
3268.00,0.0057
3267.00,0.0057
3266.00,0.0057
3265.00,0.0057
3264.00,0.0057
3263.00,0.0056
3262.00,0.0056
3261.00,0.0056
3260.00,0.0056
3259.00,0.0056
3258.00,0.0055
3257.00,0.0055
3256.00,0.0055
3255.00,0.0055
3254.00,0.0055
3253.00,0.0055
3252.00,0.0055
3251.00,0.0054
3250.00,0.0054
3249.00,0.0054
3248.00,0.0054
3247.00,0.0054
3246.00,0.0054
3245.00,0.0053
3244.00,0.0053
3243.00,0.0053
3242.00,0.0053
3241.00,0.0053
3240.00,0.0053
3239.00,0.0053
3238.00,0.0052
3237.00,0.0052
3236.00,0.0052
3235.00,0.0052
3234.00,0.0052
3233.00,0.0051
3232.00,0.0051
3231.00,0.0051
3230.00,0.0051
3229.00,0.0051
3228.00,0.0051
3227.00,0.0051
3226.00,0.0051
3225.00,0.0050
3224.00,0.0050
3223.00,0.0050
3222.00,0.0050
3221.00,0.0049
3220.00,0.0049
3219.00,0.0049
3218.00,0.0049
3217.00,0.0049
3216.00,0.0049
3215.00,0.0049
3214.00,0.0049
3213.00,0.0048
3212.00,0.0048
3211.00,0.0048
3210.00,0.0048
3209.00,0.0047
3208.00,0.0047
3207.00,0.0047
3206.00,0.0047
3205.00,0.0047
3204.00,0.0047
3203.00,0.0047
3202.00,0.0047
3201.00,0.0047
3200.00,0.0047
3199.00,0.0046
3198.00,0.0046
3197.00,0.0046
3196.00,0.0046
3195.00,0.0046
3194.00,0.0046
3193.00,0.0046
3192.00,0.0045
3191.00,0.0045
3190.00,0.0045
3189.00,0.0045
3188.00,0.0045
3187.00,0.0045
3186.00,0.0045
3185.00,0.0044
3184.00,0.0044
3183.00,0.0044
3182.00,0.0044
3181.00,0.0044
3180.00,0.0044
3179.00,0.0044
3178.00,0.0044
3177.00,0.0043
3176.00,0.0043
3175.00,0.0043
3174.00,0.0043
3173.00,0.0043
3172.00,0.0043
3171.00,0.0043
3170.00,0.0043
3169.00,0.0043
3168.00,0.0042
3167.00,0.0042
3166.00,0.0042
3165.00,0.0042
3164.00,0.0042
3163.00,0.0042
3162.00,0.0042
3161.00,0.0042
3160.00,0.0042
3159.00,0.0042
3158.00,0.0041
3157.00,0.0041
3156.00,0.0041
3155.00,0.0041
3154.00,0.0041
3153.00,0.0041
3152.00,0.0041
3151.00,0.0041
3150.00,0.0041
3149.00,0.0041
3148.00,0.0041
3147.00,0.0041
3146.00,0.0041
3145.00,0.0040
3144.00,0.0040
3143.00,0.0040
3142.00,0.0040
3141.00,0.0041
3140.00,0.0041
3139.00,0.0041
3138.00,0.0041
3137.00,0.0041
3136.00,0.0041
3135.00,0.0040
3134.00,0.0040
3133.00,0.0040
3132.00,0.0040
3131.00,0.0040
3130.00,0.0040
3129.00,0.0040
3128.00,0.0040
3127.00,0.0040
3126.00,0.0039
3125.00,0.0039
3124.00,0.0039
3123.00,0.0039
3122.00,0.0039
3121.00,0.0039
3120.00,0.0039
3119.00,0.0039
3118.00,0.0039
3117.00,0.0039
3116.00,0.0039
3115.00,0.0039
3114.00,0.0039
3113.00,0.0039
3112.00,0.0039
3111.00,0.0039
3110.00,0.0039
3109.00,0.0039
3108.00,0.0039
3107.00,0.0039
3106.00,0.0038
3105.00,0.0038
3104.00,0.0038
3103.00,0.0038
3102.00,0.0038
3101.00,0.0038
3100.00,0.0038
3099.00,0.0038
3098.00,0.0038
3097.00,0.0038
3096.00,0.0038
3095.00,0.0038
3094.00,0.0038
3093.00,0.0038
3092.00,0.0037
3091.00,0.0037
3090.00,0.0037
3089.00,0.0037
3088.00,0.0037
3087.00,0.0037
3086.00,0.0037
3085.00,0.0037
3084.00,0.0036
3083.00,0.0036
3082.00,0.0036
3081.00,0.0036
3080.00,0.0036
3079.00,0.0036
3078.00,0.0036
3077.00,0.0036
3076.00,0.0036
3075.00,0.0036
3074.00,0.0036
3073.00,0.0036
3072.00,0.0035
3071.00,0.0035
3070.00,0.0035
3069.00,0.0035
3068.00,0.0035
3067.00,0.0035
3066.00,0.0035
3065.00,0.0035
3064.00,0.0035
3063.00,0.0035
3062.00,0.0035
3061.00,0.0035
3060.00,0.0035
3059.00,0.0035
3058.00,0.0035
3057.00,0.0035
3056.00,0.0034
3055.00,0.0034
3054.00,0.0034
3053.00,0.0034
3052.00,0.0034
3051.00,0.0034
3050.00,0.0034
3049.00,0.0034
3048.00,0.0033
3047.00,0.0033
3046.00,0.0033
3045.00,0.0033
3044.00,0.0033
3043.00,0.0033
3042.00,0.0032
3041.00,0.0032
3040.00,0.0032
3039.00,0.0032
3038.00,0.0032
3037.00,0.0032
3036.00,0.0032
3035.00,0.0032
3034.00,0.0032
3033.00,0.0032
3032.00,0.0031
3031.00,0.0031
3030.00,0.0031
3029.00,0.0031
3028.00,0.0031
3027.00,0.0031
3026.00,0.0031
3025.00,0.0031
3024.00,0.0031
3023.00,0.0030
3022.00,0.0030
3021.00,0.0030
3020.00,0.0030
3019.00,0.0030
3018.00,0.0030
3017.00,0.0030
3016.00,0.0030
3015.00,0.0030
3014.00,0.0030
3013.00,0.0030
3012.00,0.0030
3011.00,0.0030
3010.00,0.0030
3009.00,0.0031
3008.00,0.0031
3007.00,0.0032
3006.00,0.0032
3005.00,0.0033
3004.00,0.0033
3003.00,0.0034
3002.00,0.0035
3001.00,0.0036
3000.00,0.0037
2999.00,0.0038
2998.00,0.0038
2997.00,0.0039
2996.00,0.0040
2995.00,0.0041
2994.00,0.0042
2993.00,0.0043
2992.00,0.0044
2991.00,0.0044
2990.00,0.0045
2989.00,0.0046
2988.00,0.0047
2987.00,0.0047
2986.00,0.0048
2985.00,0.0049
2984.00,0.0049
2983.00,0.0050
2982.00,0.0050
2981.00,0.0051
2980.00,0.0052
2979.00,0.0053
2978.00,0.0055
2977.00,0.0055
2976.00,0.0056
2975.00,0.0057
2974.00,0.0057
2973.00,0.0058
2972.00,0.0058
2971.00,0.0059
2970.00,0.0060
2969.00,0.0060
2968.00,0.0061
2967.00,0.0062
2966.00,0.0063
2965.00,0.0065
2964.00,0.0066
2963.00,0.0067
2962.00,0.0069
2961.00,0.0070
2960.00,0.0070
2959.00,0.0071
2958.00,0.0072
2957.00,0.0073
2956.00,0.0074
2955.00,0.0074
2954.00,0.0075
2953.00,0.0075
2952.00,0.0075
2951.00,0.0076
2950.00,0.0076
2949.00,0.0076
2948.00,0.0076
2947.00,0.0077
2946.00,0.0076
2945.00,0.0076
2944.00,0.0075
2943.00,0.0074
2942.00,0.0074
2941.00,0.0073
2940.00,0.0072
2939.00,0.0072
2938.00,0.0071
2937.00,0.0071
2936.00,0.0071
2935.00,0.0071
2934.00,0.0072
2933.00,0.0072
2932.00,0.0072
2931.00,0.0072
2930.00,0.0073
2929.00,0.0073
2928.00,0.0073
2927.00,0.0073
2926.00,0.0073
2925.00,0.0073
2924.00,0.0072
2923.00,0.0072
2922.00,0.0073
2921.00,0.0073
2920.00,0.0074
2919.00,0.0074
2918.00,0.0075
2917.00,0.0075
2916.00,0.0075
2915.00,0.0075
2914.00,0.0075
2913.00,0.0074
2912.00,0.0074
2911.00,0.0073
2910.00,0.0073
2909.00,0.0072
2908.00,0.0072
2907.00,0.0071
2906.00,0.0071
2905.00,0.0070
2904.00,0.0070
2903.00,0.0070
2902.00,0.0070
2901.00,0.0070
2900.00,0.0070
2899.00,0.0071
2898.00,0.0071
2897.00,0.0072
2896.00,0.0072
2895.00,0.0072
2894.00,0.0073
2893.00,0.0073
2892.00,0.0074
2891.00,0.0074
2890.00,0.0074
2889.00,0.0075
2888.00,0.0075
2887.00,0.0075
2886.00,0.0075
2885.00,0.0075
2884.00,0.0075
2883.00,0.0074
2882.00,0.0074
2881.00,0.0074
2880.00,0.0074
2879.00,0.0074
2878.00,0.0074
2877.00,0.0073
2876.00,0.0073
2875.00,0.0072
2874.00,0.0072
2873.00,0.0071
2872.00,0.0071
2871.00,0.0070
2870.00,0.0070
2869.00,0.0070
2868.00,0.0069
2867.00,0.0069
2866.00,0.0068
2865.00,0.0068
2864.00,0.0068
2863.00,0.0067
2862.00,0.0067
2861.00,0.0066
2860.00,0.0066
2859.00,0.0066
2858.00,0.0066
2857.00,0.0065
2856.00,0.0065
2855.00,0.0065
2854.00,0.0065
2853.00,0.0065
2852.00,0.0064
2851.00,0.0063
2850.00,0.0062
2849.00,0.0061
2848.00,0.0059
2847.00,0.0058
2846.00,0.0056
2845.00,0.0055
2844.00,0.0054
2843.00,0.0054
2842.00,0.0054
2841.00,0.0054
2840.00,0.0054
2839.00,0.0054
2838.00,0.0053
2837.00,0.0053
2836.00,0.0052
2835.00,0.0052
2834.00,0.0051
2833.00,0.0050
2832.00,0.0050
2831.00,0.0049
2830.00,0.0048
2829.00,0.0047
2828.00,0.0047
2827.00,0.0046
2826.00,0.0045
2825.00,0.0045
2824.00,0.0045
2823.00,0.0044
2822.00,0.0044
2821.00,0.0044
2820.00,0.0043
2819.00,0.0043
2818.00,0.0042
2817.00,0.0042
2816.00,0.0042
2815.00,0.0042
2814.00,0.0042
2813.00,0.0042
2812.00,0.0042
2811.00,0.0042
2810.00,0.0041
2809.00,0.0042
2808.00,0.0042
2807.00,0.0042
2806.00,0.0042
2805.00,0.0042
2804.00,0.0042
2803.00,0.0042
2802.00,0.0042
2801.00,0.0042
2800.00,0.0042
2799.00,0.0042
2798.00,0.0042
2797.00,0.0042
2796.00,0.0042
2795.00,0.0042
2794.00,0.0042
2793.00,0.0042
2792.00,0.0042
2791.00,0.0042
2790.00,0.0042
2789.00,0.0042
2788.00,0.0042
2787.00,0.0041
2786.00,0.0041
2785.00,0.0041
2784.00,0.0041
2783.00,0.0041
2782.00,0.0041
2781.00,0.0041
2780.00,0.0042
2779.00,0.0041
2778.00,0.0041
2777.00,0.0041
2776.00,0.0041
2775.00,0.0041
2774.00,0.0041
2773.00,0.0041
2772.00,0.0041
2771.00,0.0041
2770.00,0.0040
2769.00,0.0040
2768.00,0.0040
2767.00,0.0040
2766.00,0.0040
2765.00,0.0040
2764.00,0.0040
2763.00,0.0040
2762.00,0.0041
2761.00,0.0040
2760.00,0.0040
2759.00,0.0040
2758.00,0.0040
2757.00,0.0040
2756.00,0.0040
2755.00,0.0040
2754.00,0.0040
2753.00,0.0040
2752.00,0.0040
2751.00,0.0040
2750.00,0.0040
2749.00,0.0040
2748.00,0.0040
2747.00,0.0041
2746.00,0.0041
2745.00,0.0041
2744.00,0.0040
2743.00,0.0040
2742.00,0.0040
2741.00,0.0040
2740.00,0.0040
2739.00,0.0040
2738.00,0.0040
2737.00,0.0040
2736.00,0.0040
2735.00,0.0040
2734.00,0.0040
2733.00,0.0040
2732.00,0.0040
2731.00,0.0040
2730.00,0.0040
2729.00,0.0040
2728.00,0.0040
2727.00,0.0040
2726.00,0.0040
2725.00,0.0040
2724.00,0.0040
2723.00,0.0040
2722.00,0.0040
2721.00,0.0040
2720.00,0.0040
2719.00,0.0040
2718.00,0.0040
2717.00,0.0040
2716.00,0.0040
2715.00,0.0040
2714.00,0.0040
2713.00,0.0040
2712.00,0.0040
2711.00,0.0040
2710.00,0.0040
2709.00,0.0040
2708.00,0.0040
2707.00,0.0040
2706.00,0.0040
2705.00,0.0040
2704.00,0.0040
2703.00,0.0040
2702.00,0.0040
2701.00,0.0040
2700.00,0.0040
2699.00,0.0040
2698.00,0.0040
2697.00,0.0040
2696.00,0.0040
2695.00,0.0039
2694.00,0.0039
2693.00,0.0039
2692.00,0.0039
2691.00,0.0039
2690.00,0.0039
2689.00,0.0039
2688.00,0.0039
2687.00,0.0039
2686.00,0.0039
2685.00,0.0039
2684.00,0.0039
2683.00,0.0039
2682.00,0.0039
2681.00,0.0039
2680.00,0.0039
2679.00,0.0039
2678.00,0.0039
2677.00,0.0039
2676.00,0.0039
2675.00,0.0039
2674.00,0.0039
2673.00,0.0039
2672.00,0.0039
2671.00,0.0039
2670.00,0.0039
2669.00,0.0039
2668.00,0.0040
2667.00,0.0040
2666.00,0.0040
2665.00,0.0040
2664.00,0.0041
2663.00,0.0041
2662.00,0.0041
2661.00,0.0042
2660.00,0.0042
2659.00,0.0042
2658.00,0.0042
2657.00,0.0042
2656.00,0.0042
2655.00,0.0042
2654.00,0.0042
2653.00,0.0042
2652.00,0.0042
2651.00,0.0042
2650.00,0.0042
2649.00,0.0042
2648.00,0.0043
2647.00,0.0043
2646.00,0.0043
2645.00,0.0043
2644.00,0.0043
2643.00,0.0043
2642.00,0.0043
2641.00,0.0042
2640.00,0.0042
2639.00,0.0042
2638.00,0.0042
2637.00,0.0042
2636.00,0.0042
2635.00,0.0042
2634.00,0.0042
2633.00,0.0042
2632.00,0.0042
2631.00,0.0042
2630.00,0.0042
2629.00,0.0042
2628.00,0.0042
2627.00,0.0042
2626.00,0.0042
2625.00,0.0042
2624.00,0.0041
2623.00,0.0042
2622.00,0.0042
2621.00,0.0042
2620.00,0.0042
2619.00,0.0041
2618.00,0.0041
2617.00,0.0041
2616.00,0.0041
2615.00,0.0041
2614.00,0.0041
2613.00,0.0041
2612.00,0.0041
2611.00,0.0041
2610.00,0.0041
2609.00,0.0041
2608.00,0.0041
2607.00,0.0041
2606.00,0.0041
2605.00,0.0040
2604.00,0.0040
2603.00,0.0040
2602.00,0.0040
2601.00,0.0041
2600.00,0.0041
2599.00,0.0041
2598.00,0.0040
2597.00,0.0040
2596.00,0.0040
2595.00,0.0040
2594.00,0.0040
2593.00,0.0040
2592.00,0.0040
2591.00,0.0041
2590.00,0.0041
2589.00,0.0041
2588.00,0.0041
2587.00,0.0041
2586.00,0.0040
2585.00,0.0040
2584.00,0.0040
2583.00,0.0040
2582.00,0.0040
2581.00,0.0040
2580.00,0.0040
2579.00,0.0040
2578.00,0.0040
2577.00,0.0040
2576.00,0.0041
2575.00,0.0041
2574.00,0.0041
2573.00,0.0041
2572.00,0.0040
2571.00,0.0040
2570.00,0.0040
2569.00,0.0040
2568.00,0.0040
2567.00,0.0040
2566.00,0.0040
2565.00,0.0039
2564.00,0.0039
2563.00,0.0039
2562.00,0.0039
2561.00,0.0039
2560.00,0.0040
2559.00,0.0040
2558.00,0.0040
2557.00,0.0040
2556.00,0.0040
2555.00,0.0040
2554.00,0.0040
2553.00,0.0040
2552.00,0.0040
2551.00,0.0039
2550.00,0.0039
2549.00,0.0039
2548.00,0.0039
2547.00,0.0039
2546.00,0.0039
2545.00,0.0039
2544.00,0.0039
2543.00,0.0039
2542.00,0.0039
2541.00,0.0039
2540.00,0.0038
2539.00,0.0038
2538.00,0.0038
2537.00,0.0038
2536.00,0.0038
2535.00,0.0038
2534.00,0.0038
2533.00,0.0038
2532.00,0.0039
2531.00,0.0039
2530.00,0.0039
2529.00,0.0039
2528.00,0.0039
2527.00,0.0038
2526.00,0.0038
2525.00,0.0038
2524.00,0.0038
2523.00,0.0038
2522.00,0.0037
2521.00,0.0038
2520.00,0.0038
2519.00,0.0038
2518.00,0.0038
2517.00,0.0038
2516.00,0.0039
2515.00,0.0039
2514.00,0.0039
2513.00,0.0039
2512.00,0.0039
2511.00,0.0038
2510.00,0.0038
2509.00,0.0038
2508.00,0.0037
2507.00,0.0037
2506.00,0.0037
2505.00,0.0037
2504.00,0.0037
2503.00,0.0037
2502.00,0.0038
2501.00,0.0038
2500.00,0.0038
2499.00,0.0039
2498.00,0.0038
2497.00,0.0038
2496.00,0.0038
2495.00,0.0038
2494.00,0.0038
2493.00,0.0038
2492.00,0.0038
2491.00,0.0038
2490.00,0.0038
2489.00,0.0038
2488.00,0.0038
2487.00,0.0038
2486.00,0.0038
2485.00,0.0037
2484.00,0.0037
2483.00,0.0037
2482.00,0.0037
2481.00,0.0037
2480.00,0.0037
2479.00,0.0037
2478.00,0.0037
2477.00,0.0037
2476.00,0.0037
2475.00,0.0037
2474.00,0.0037
2473.00,0.0037
2472.00,0.0038
2471.00,0.0038
2470.00,0.0038
2469.00,0.0038
2468.00,0.0038
2467.00,0.0038
2466.00,0.0038
2465.00,0.0038
2464.00,0.0038
2463.00,0.0038
2462.00,0.0038
2461.00,0.0039
2460.00,0.0039
2459.00,0.0039
2458.00,0.0039
2457.00,0.0039
2456.00,0.0039
2455.00,0.0039
2454.00,0.0039
2453.00,0.0038
2452.00,0.0039
2451.00,0.0039
2450.00,0.0039
2449.00,0.0039
2448.00,0.0038
2447.00,0.0038
2446.00,0.0038
2445.00,0.0038
2444.00,0.0037
2443.00,0.0037
2442.00,0.0038
2441.00,0.0038
2440.00,0.0038
2439.00,0.0038
2438.00,0.0038
2437.00,0.0037
2436.00,0.0037
2435.00,0.0037
2434.00,0.0038
2433.00,0.0038
2432.00,0.0038
2431.00,0.0038
2430.00,0.0037
2429.00,0.0037
2428.00,0.0037
2427.00,0.0037
2426.00,0.0036
2425.00,0.0036
2424.00,0.0036
2423.00,0.0037
2422.00,0.0037
2421.00,0.0037
2420.00,0.0037
2419.00,0.0037
2418.00,0.0037
2417.00,0.0037
2416.00,0.0037
2415.00,0.0037
2414.00,0.0037
2413.00,0.0037
2412.00,0.0037
2411.00,0.0038
2410.00,0.0037
2409.00,0.0037
2408.00,0.0037
2407.00,0.0037
2406.00,0.0037
2405.00,0.0037
2404.00,0.0036
2403.00,0.0036
2402.00,0.0036
2401.00,0.0036
2400.00,0.0036
2399.00,0.0036
2398.00,0.0036
2397.00,0.0036
2396.00,0.0036
2395.00,0.0036
2394.00,0.0036
2393.00,0.0036
2392.00,0.0036
2391.00,0.0036
2390.00,0.0036
2389.00,0.0036
2388.00,0.0036
2387.00,0.0036
2386.00,0.0035
2385.00,0.0035
2384.00,0.0034
2383.00,0.0033
2382.00,0.0033
2381.00,0.0032
2380.00,0.0033
2379.00,0.0033
2378.00,0.0033
2377.00,0.0034
2376.00,0.0034
2375.00,0.0033
2374.00,0.0033
2373.00,0.0033
2372.00,0.0033
2371.00,0.0033
2370.00,0.0033
2369.00,0.0033
2368.00,0.0033
2367.00,0.0033
2366.00,0.0033
2365.00,0.0033
2364.00,0.0033
2363.00,0.0034
2362.00,0.0034
2361.00,0.0034
2360.00,0.0034
2359.00,0.0033
2358.00,0.0033
2357.00,0.0034
2356.00,0.0034
2355.00,0.0035
2354.00,0.0035
2353.00,0.0034
2352.00,0.0034
2351.00,0.0034
2350.00,0.0034
2349.00,0.0035
2348.00,0.0036
2347.00,0.0037
2346.00,0.0038
2345.00,0.0038
2344.00,0.0038
2343.00,0.0037
2342.00,0.0037
2341.00,0.0037
2340.00,0.0037
2339.00,0.0037
2338.00,0.0037
2337.00,0.0037
2336.00,0.0037
2335.00,0.0038
2334.00,0.0038
2333.00,0.0038
2332.00,0.0038
2331.00,0.0038
2330.00,0.0038
2329.00,0.0039
2328.00,0.0040
2327.00,0.0042
2326.00,0.0044
2325.00,0.0045
2324.00,0.0045
2323.00,0.0044
2322.00,0.0042
2321.00,0.0042
2320.00,0.0041
2319.00,0.0041
2318.00,0.0041
2317.00,0.0040
2316.00,0.0040
2315.00,0.0040
2314.00,0.0039
2313.00,0.0039
2312.00,0.0038
2311.00,0.0038
2310.00,0.0037
2309.00,0.0037
2308.00,0.0037
2307.00,0.0037
2306.00,0.0037
2305.00,0.0037
2304.00,0.0038
2303.00,0.0038
2302.00,0.0038
2301.00,0.0039
2300.00,0.0039
2299.00,0.0039
2298.00,0.0039
2297.00,0.0040
2296.00,0.0041
2295.00,0.0041
2294.00,0.0042
2293.00,0.0043
2292.00,0.0044
2291.00,0.0045
2290.00,0.0046
2289.00,0.0046
2288.00,0.0046
2287.00,0.0046
2286.00,0.0046
2285.00,0.0046
2284.00,0.0045
2283.00,0.0045
2282.00,0.0044
2281.00,0.0044
2280.00,0.0044
2279.00,0.0043
2278.00,0.0043
2277.00,0.0042
2276.00,0.0042
2275.00,0.0042
2274.00,0.0042
2273.00,0.0042
2272.00,0.0042
2271.00,0.0042
2270.00,0.0042
2269.00,0.0042
2268.00,0.0041
2267.00,0.0041
2266.00,0.0041
2265.00,0.0041
2264.00,0.0041
2263.00,0.0042
2262.00,0.0042
2261.00,0.0042
2260.00,0.0042
2259.00,0.0043
2258.00,0.0043
2257.00,0.0042
2256.00,0.0042
2255.00,0.0041
2254.00,0.0040
2253.00,0.0039
2252.00,0.0039
2251.00,0.0039
2250.00,0.0040
2249.00,0.0041
2248.00,0.0041
2247.00,0.0042
2246.00,0.0042
2245.00,0.0043
2244.00,0.0043
2243.00,0.0044
2242.00,0.0043
2241.00,0.0043
2240.00,0.0043
2239.00,0.0042
2238.00,0.0042
2237.00,0.0042
2236.00,0.0042
2235.00,0.0042
2234.00,0.0042
2233.00,0.0042
2232.00,0.0042
2231.00,0.0042
2230.00,0.0042
2229.00,0.0043
2228.00,0.0042
2227.00,0.0042
2226.00,0.0041
2225.00,0.0041
2224.00,0.0041
2223.00,0.0041
2222.00,0.0041
2221.00,0.0041
2220.00,0.0041
2219.00,0.0041
2218.00,0.0040
2217.00,0.0040
2216.00,0.0039
2215.00,0.0039
2214.00,0.0039
2213.00,0.0040
2212.00,0.0040
2211.00,0.0040
2210.00,0.0039
2209.00,0.0039
2208.00,0.0039
2207.00,0.0040
2206.00,0.0041
2205.00,0.0042
2204.00,0.0042
2203.00,0.0042
2202.00,0.0041
2201.00,0.0040
2200.00,0.0040
2199.00,0.0041
2198.00,0.0041
2197.00,0.0042
2196.00,0.0043
2195.00,0.0043
2194.00,0.0043
2193.00,0.0043
2192.00,0.0043
2191.00,0.0043
2190.00,0.0043
2189.00,0.0043
2188.00,0.0043
2187.00,0.0043
2186.00,0.0043
2185.00,0.0042
2184.00,0.0041
2183.00,0.0040
2182.00,0.0039
2181.00,0.0040
2180.00,0.0041
2179.00,0.0041
2178.00,0.0040
2177.00,0.0038
2176.00,0.0037
2175.00,0.0037
2174.00,0.0038
2173.00,0.0041
2172.00,0.0043
2171.00,0.0045
2170.00,0.0047
2169.00,0.0047
2168.00,0.0048
2167.00,0.0048
2166.00,0.0048
2165.00,0.0050
2164.00,0.0052
2163.00,0.0053
2162.00,0.0051
2161.00,0.0045
2160.00,0.0037
2159.00,0.0029
2158.00,0.0023
2157.00,0.0020
2156.00,0.0021
2155.00,0.0023
2154.00,0.0026
2153.00,0.0029
2152.00,0.0030
2151.00,0.0030
2150.00,0.0029
2149.00,0.0028
2148.00,0.0028
2147.00,0.0029
2146.00,0.0029
2145.00,0.0029
2144.00,0.0030
2143.00,0.0030
2142.00,0.0030
2141.00,0.0029
2140.00,0.0029
2139.00,0.0029
2138.00,0.0029
2137.00,0.0028
2136.00,0.0026
2135.00,0.0025
2134.00,0.0025
2133.00,0.0025
2132.00,0.0027
2131.00,0.0028
2130.00,0.0029
2129.00,0.0030
2128.00,0.0030
2127.00,0.0031
2126.00,0.0032
2125.00,0.0033
2124.00,0.0034
2123.00,0.0034
2122.00,0.0035
2121.00,0.0036
2120.00,0.0037
2119.00,0.0038
2118.00,0.0038
2117.00,0.0039
2116.00,0.0040
2115.00,0.0040
2114.00,0.0040
2113.00,0.0040
2112.00,0.0040
2111.00,0.0040
2110.00,0.0040
2109.00,0.0039
2108.00,0.0039
2107.00,0.0039
2106.00,0.0039
2105.00,0.0039
2104.00,0.0039
2103.00,0.0040
2102.00,0.0040
2101.00,0.0040
2100.00,0.0040
2099.00,0.0040
2098.00,0.0040
2097.00,0.0039
2096.00,0.0038
2095.00,0.0038
2094.00,0.0037
2093.00,0.0037
2092.00,0.0038
2091.00,0.0038
2090.00,0.0038
2089.00,0.0038
2088.00,0.0039
2087.00,0.0039
2086.00,0.0039
2085.00,0.0039
2084.00,0.0040
2083.00,0.0041
2082.00,0.0041
2081.00,0.0041
2080.00,0.0041
2079.00,0.0040
2078.00,0.0040
2077.00,0.0039
2076.00,0.0039
2075.00,0.0039
2074.00,0.0039
2073.00,0.0038
2072.00,0.0038
2071.00,0.0038
2070.00,0.0038
2069.00,0.0039
2068.00,0.0040
2067.00,0.0041
2066.00,0.0041
2065.00,0.0040
2064.00,0.0039
2063.00,0.0038
2062.00,0.0037
2061.00,0.0037
2060.00,0.0036
2059.00,0.0036
2058.00,0.0036
2057.00,0.0036
2056.00,0.0036
2055.00,0.0037
2054.00,0.0039
2053.00,0.0042
2052.00,0.0045
2051.00,0.0046
2050.00,0.0045
2049.00,0.0043
2048.00,0.0041
2047.00,0.0041
2046.00,0.0041
2045.00,0.0040
2044.00,0.0039
2043.00,0.0039
2042.00,0.0039
2041.00,0.0039
2040.00,0.0040
2039.00,0.0042
2038.00,0.0043
2037.00,0.0044
2036.00,0.0044
2035.00,0.0042
2034.00,0.0041
2033.00,0.0039
2032.00,0.0039
2031.00,0.0039
2030.00,0.0038
2029.00,0.0035
2028.00,0.0033
2027.00,0.0032
2026.00,0.0032
2025.00,0.0033
2024.00,0.0034
2023.00,0.0035
2022.00,0.0034
2021.00,0.0032
2020.00,0.0032
2019.00,0.0033
2018.00,0.0034
2017.00,0.0034
2016.00,0.0034
2015.00,0.0035
2014.00,0.0034
2013.00,0.0034
2012.00,0.0035
2011.00,0.0035
2010.00,0.0035
2009.00,0.0033
2008.00,0.0031
2007.00,0.0029
2006.00,0.0029
2005.00,0.0030
2004.00,0.0031
2003.00,0.0033
2002.00,0.0035
2001.00,0.0036
2000.00,0.0038
1999.00,0.0038
1998.00,0.0037
1997.00,0.0036
1996.00,0.0035
1995.00,0.0034
1994.00,0.0034
1993.00,0.0034
1992.00,0.0035
1991.00,0.0035
1990.00,0.0035
1989.00,0.0035
1988.00,0.0036
1987.00,0.0038
1986.00,0.0039
1985.00,0.0039
1984.00,0.0040
1983.00,0.0041
1982.00,0.0042
1981.00,0.0043
1980.00,0.0043
1979.00,0.0041
1978.00,0.0038
1977.00,0.0034
1976.00,0.0032
1975.00,0.0030
1974.00,0.0028
1973.00,0.0028
1972.00,0.0028
1971.00,0.0028
1970.00,0.0029
1969.00,0.0028
1968.00,0.0028
1967.00,0.0028
1966.00,0.0029
1965.00,0.0029
1964.00,0.0030
1963.00,0.0031
1962.00,0.0031
1961.00,0.0030
1960.00,0.0029
1959.00,0.0028
1958.00,0.0027
1957.00,0.0027
1956.00,0.0028
1955.00,0.0029
1954.00,0.0030
1953.00,0.0031
1952.00,0.0031
1951.00,0.0030
1950.00,0.0030
1949.00,0.0030
1948.00,0.0031
1947.00,0.0032
1946.00,0.0033
1945.00,0.0033
1944.00,0.0033
1943.00,0.0032
1942.00,0.0030
1941.00,0.0029
1940.00,0.0029
1939.00,0.0029
1938.00,0.0029
1937.00,0.0030
1936.00,0.0030
1935.00,0.0029
1934.00,0.0029
1933.00,0.0029
1932.00,0.0029
1931.00,0.0030
1930.00,0.0030
1929.00,0.0030
1928.00,0.0030
1927.00,0.0031
1926.00,0.0030
1925.00,0.0030
1924.00,0.0029
1923.00,0.0030
1922.00,0.0031
1921.00,0.0031
1920.00,0.0032
1919.00,0.0032
1918.00,0.0032
1917.00,0.0031
1916.00,0.0031
1915.00,0.0031
1914.00,0.0031
1913.00,0.0031
1912.00,0.0031
1911.00,0.0031
1910.00,0.0031
1909.00,0.0031
1908.00,0.0031
1907.00,0.0031
1906.00,0.0031
1905.00,0.0031
1904.00,0.0031
1903.00,0.0031
1902.00,0.0030
1901.00,0.0030
1900.00,0.0031
1899.00,0.0031
1898.00,0.0032
1897.00,0.0032
1896.00,0.0032
1895.00,0.0031
1894.00,0.0031
1893.00,0.0031
1892.00,0.0031
1891.00,0.0031
1890.00,0.0031
1889.00,0.0031
1888.00,0.0031
1887.00,0.0031
1886.00,0.0031
1885.00,0.0031
1884.00,0.0032
1883.00,0.0032
1882.00,0.0032
1881.00,0.0032
1880.00,0.0031
1879.00,0.0031
1878.00,0.0030
1877.00,0.0030
1876.00,0.0030
1875.00,0.0030
1874.00,0.0030
1873.00,0.0030
1872.00,0.0029
1871.00,0.0029
1870.00,0.0029
1869.00,0.0029
1868.00,0.0029
1867.00,0.0030
1866.00,0.0031
1865.00,0.0031
1864.00,0.0031
1863.00,0.0031
1862.00,0.0031
1861.00,0.0031
1860.00,0.0031
1859.00,0.0031
1858.00,0.0031
1857.00,0.0031
1856.00,0.0031
1855.00,0.0030
1854.00,0.0030
1853.00,0.0030
1852.00,0.0030
1851.00,0.0030
1850.00,0.0030
1849.00,0.0031
1848.00,0.0031
1847.00,0.0031
1846.00,0.0030
1845.00,0.0030
1844.00,0.0030
1843.00,0.0030
1842.00,0.0029
1841.00,0.0029
1840.00,0.0029
1839.00,0.0029
1838.00,0.0029
1837.00,0.0029
1836.00,0.0029
1835.00,0.0028
1834.00,0.0028
1833.00,0.0028
1832.00,0.0028
1831.00,0.0028
1830.00,0.0029
1829.00,0.0029
1828.00,0.0029
1827.00,0.0029
1826.00,0.0029
1825.00,0.0030
1824.00,0.0030
1823.00,0.0030
1822.00,0.0030
1821.00,0.0029
1820.00,0.0028
1819.00,0.0028
1818.00,0.0027
1817.00,0.0027
1816.00,0.0027
1815.00,0.0027
1814.00,0.0027
1813.00,0.0027
1812.00,0.0027
1811.00,0.0027
1810.00,0.0028
1809.00,0.0028
1808.00,0.0028
1807.00,0.0028
1806.00,0.0028
1805.00,0.0028
1804.00,0.0028
1803.00,0.0028
1802.00,0.0028
1801.00,0.0027
1800.00,0.0027
1799.00,0.0028
1798.00,0.0028
1797.00,0.0028
1796.00,0.0028
1795.00,0.0028
1794.00,0.0028
1793.00,0.0027
1792.00,0.0027
1791.00,0.0027
1790.00,0.0028
1789.00,0.0028
1788.00,0.0028
1787.00,0.0027
1786.00,0.0027
1785.00,0.0027
1784.00,0.0027
1783.00,0.0027
1782.00,0.0027
1781.00,0.0027
1780.00,0.0027
1779.00,0.0027
1778.00,0.0027
1777.00,0.0027
1776.00,0.0026
1775.00,0.0026
1774.00,0.0026
1773.00,0.0026
1772.00,0.0027
1771.00,0.0027
1770.00,0.0028
1769.00,0.0027
1768.00,0.0027
1767.00,0.0027
1766.00,0.0027
1765.00,0.0027
1764.00,0.0027
1763.00,0.0027
1762.00,0.0027
1761.00,0.0027
1760.00,0.0027
1759.00,0.0027
1758.00,0.0027
1757.00,0.0027
1756.00,0.0027
1755.00,0.0027
1754.00,0.0027
1753.00,0.0027
1752.00,0.0026
1751.00,0.0027
1750.00,0.0027
1749.00,0.0027
1748.00,0.0028
1747.00,0.0028
1746.00,0.0028
1745.00,0.0028
1744.00,0.0028
1743.00,0.0028
1742.00,0.0028
1741.00,0.0028
1740.00,0.0028
1739.00,0.0029
1738.00,0.0029
1737.00,0.0029
1736.00,0.0029
1735.00,0.0029
1734.00,0.0029
1733.00,0.0029
1732.00,0.0029
1731.00,0.0030
1730.00,0.0030
1729.00,0.0030
1728.00,0.0031
1727.00,0.0031
1726.00,0.0032
1725.00,0.0032
1724.00,0.0033
1723.00,0.0034
1722.00,0.0034
1721.00,0.0035
1720.00,0.0036
1719.00,0.0037
1718.00,0.0038
1717.00,0.0039
1716.00,0.0040
1715.00,0.0041
1714.00,0.0043
1713.00,0.0044
1712.00,0.0046
1711.00,0.0049
1710.00,0.0052
1709.00,0.0054
1708.00,0.0057
1707.00,0.0061
1706.00,0.0065
1705.00,0.0070
1704.00,0.0075
1703.00,0.0082
1702.00,0.0089
1701.00,0.0096
1700.00,0.0104
1699.00,0.0113
1698.00,0.0122
1697.00,0.0132
1696.00,0.0144
1695.00,0.0156
1694.00,0.0168
1693.00,0.0180
1692.00,0.0194
1691.00,0.0208
1690.00,0.0223
1689.00,0.0237
1688.00,0.0253
1687.00,0.0270
1686.00,0.0287
1685.00,0.0300
1684.00,0.0309
1683.00,0.0318
1682.00,0.0329
1681.00,0.0344
1680.00,0.0360
1679.00,0.0376
1678.00,0.0391
1677.00,0.0406
1676.00,0.0418
1675.00,0.0424
1674.00,0.0430
1673.00,0.0439
1672.00,0.0453
1671.00,0.0464
1670.00,0.0469
1669.00,0.0469
1668.00,0.0470
1667.00,0.0477
1666.00,0.0488
1665.00,0.0500
1664.00,0.0508
1663.00,0.0511
1662.00,0.0509
1661.00,0.0509
1660.00,0.0514
1659.00,0.0520
1658.00,0.0528
1657.00,0.0539
1656.00,0.0553
1655.00,0.0566
1654.00,0.0561
1653.00,0.0529
1652.00,0.0500
1651.00,0.0495
1650.00,0.0504
1649.00,0.0515
1648.00,0.0516
1647.00,0.0501
1646.00,0.0478
1645.00,0.0460
1644.00,0.0450
1643.00,0.0445
1642.00,0.0438
1641.00,0.0430
1640.00,0.0421
1639.00,0.0413
1638.00,0.0405
1637.00,0.0393
1636.00,0.0372
1635.00,0.0347
1634.00,0.0329
1633.00,0.0319
1632.00,0.0314
1631.00,0.0310
1630.00,0.0303
1629.00,0.0294
1628.00,0.0283
1627.00,0.0273
1626.00,0.0266
1625.00,0.0259
1624.00,0.0251
1623.00,0.0241
1622.00,0.0232
1621.00,0.0226
1620.00,0.0222
1619.00,0.0219
1618.00,0.0214
1617.00,0.0206
1616.00,0.0197
1615.00,0.0190
1614.00,0.0186
1613.00,0.0183
1612.00,0.0179
1611.00,0.0175
1610.00,0.0171
1609.00,0.0166
1608.00,0.0162
1607.00,0.0158
1606.00,0.0155
1605.00,0.0151
1604.00,0.0148
1603.00,0.0145
1602.00,0.0141
1601.00,0.0138
1600.00,0.0135
1599.00,0.0133
1598.00,0.0130
1597.00,0.0128
1596.00,0.0126
1595.00,0.0124
1594.00,0.0122
1593.00,0.0120
1592.00,0.0118
1591.00,0.0116
1590.00,0.0114
1589.00,0.0112
1588.00,0.0111
1587.00,0.0109
1586.00,0.0108
1585.00,0.0106
1584.00,0.0105
1583.00,0.0103
1582.00,0.0102
1581.00,0.0101
1580.00,0.0100
1579.00,0.0099
1578.00,0.0098
1577.00,0.0097
1576.00,0.0095
1575.00,0.0093
1574.00,0.0092
1573.00,0.0092
1572.00,0.0091
1571.00,0.0090
1570.00,0.0089
1569.00,0.0088
1568.00,0.0087
1567.00,0.0086
1566.00,0.0086
1565.00,0.0085
1564.00,0.0084
1563.00,0.0084
1562.00,0.0084
1561.00,0.0084
1560.00,0.0083
1559.00,0.0080
1558.00,0.0079
1557.00,0.0079
1556.00,0.0079
1555.00,0.0078
1554.00,0.0078
1553.00,0.0078
1552.00,0.0077
1551.00,0.0076
1550.00,0.0076
1549.00,0.0076
1548.00,0.0075
1547.00,0.0075
1546.00,0.0074
1545.00,0.0074
1544.00,0.0073
1543.00,0.0073
1542.00,0.0072
1541.00,0.0072
1540.00,0.0071
1539.00,0.0071
1538.00,0.0071
1537.00,0.0070
1536.00,0.0070
1535.00,0.0070
1534.00,0.0069
1533.00,0.0069
1532.00,0.0069
1531.00,0.0068
1530.00,0.0068
1529.00,0.0068
1528.00,0.0068
1527.00,0.0068
1526.00,0.0067
1525.00,0.0067
1524.00,0.0066
1523.00,0.0066
1522.00,0.0066
1521.00,0.0065
1520.00,0.0065
1519.00,0.0065
1518.00,0.0065
1517.00,0.0065
1516.00,0.0065
1515.00,0.0065
1514.00,0.0065
1513.00,0.0065
1512.00,0.0066
1511.00,0.0066
1510.00,0.0067
1509.00,0.0068
1508.00,0.0070
1507.00,0.0072
1506.00,0.0075
1505.00,0.0078
1504.00,0.0081
1503.00,0.0085
1502.00,0.0090
1501.00,0.0095
1500.00,0.0100
1499.00,0.0106
1498.00,0.0111
1497.00,0.0116
1496.00,0.0120
1495.00,0.0123
1494.00,0.0126
1493.00,0.0128
1492.00,0.0129
1491.00,0.0128
1490.00,0.0125
1489.00,0.0121
1488.00,0.0117
1487.00,0.0112
1486.00,0.0108
1485.00,0.0103
1484.00,0.0099
1483.00,0.0095
1482.00,0.0092
1481.00,0.0088
1480.00,0.0086
1479.00,0.0084
1478.00,0.0083
1477.00,0.0083
1476.00,0.0083
1475.00,0.0085
1474.00,0.0087
1473.00,0.0091
1472.00,0.0096
1471.00,0.0103
1470.00,0.0111
1469.00,0.0121
1468.00,0.0132
1467.00,0.0144
1466.00,0.0157
1465.00,0.0170
1464.00,0.0182
1463.00,0.0193
1462.00,0.0202
1461.00,0.0210
1460.00,0.0216
1459.00,0.0218
1458.00,0.0213
1457.00,0.0199
1456.00,0.0184
1455.00,0.0172
1454.00,0.0166
1453.00,0.0162
1452.00,0.0158
1451.00,0.0155
1450.00,0.0154
1449.00,0.0154
1448.00,0.0155
1447.00,0.0158
1446.00,0.0164
1445.00,0.0171
1444.00,0.0180
1443.00,0.0190
1442.00,0.0200
1441.00,0.0211
1440.00,0.0223
1439.00,0.0234
1438.00,0.0244
1437.00,0.0251
1436.00,0.0255
1435.00,0.0260
1434.00,0.0265
1433.00,0.0271
1432.00,0.0277
1431.00,0.0280
1430.00,0.0284
1429.00,0.0288
1428.00,0.0295
1427.00,0.0304
1426.00,0.0315
1425.00,0.0327
1424.00,0.0337
1423.00,0.0347
1422.00,0.0355
1421.00,0.0361
1420.00,0.0360
1419.00,0.0349
1418.00,0.0333
1417.00,0.0318
1416.00,0.0304
1415.00,0.0289
1414.00,0.0272
1413.00,0.0256
1412.00,0.0239
1411.00,0.0222
1410.00,0.0207
1409.00,0.0194
1408.00,0.0183
1407.00,0.0173
1406.00,0.0163
1405.00,0.0155
1404.00,0.0147
1403.00,0.0141
1402.00,0.0136
1401.00,0.0132
1400.00,0.0128
1399.00,0.0124
1398.00,0.0121
1397.00,0.0119
1396.00,0.0116
1395.00,0.0114
1394.00,0.0113
1393.00,0.0112
1392.00,0.0111
1391.00,0.0112
1390.00,0.0112
1389.00,0.0113
1388.00,0.0114
1387.00,0.0115
1386.00,0.0116
1385.00,0.0118
1384.00,0.0121
1383.00,0.0123
1382.00,0.0126
1381.00,0.0129
1380.00,0.0132
1379.00,0.0134
1378.00,0.0137
1377.00,0.0140
1376.00,0.0143
1375.00,0.0145
1374.00,0.0146
1373.00,0.0147
1372.00,0.0147
1371.00,0.0147
1370.00,0.0147
1369.00,0.0146
1368.00,0.0144
1367.00,0.0142
1366.00,0.0140
1365.00,0.0137
1364.00,0.0134
1363.00,0.0129
1362.00,0.0125
1361.00,0.0121
1360.00,0.0118
1359.00,0.0115
1358.00,0.0113
1357.00,0.0110
1356.00,0.0108
1355.00,0.0106
1354.00,0.0104
1353.00,0.0102
1352.00,0.0101
1351.00,0.0099
1350.00,0.0098
1349.00,0.0096
1348.00,0.0094
1347.00,0.0093
1346.00,0.0092
1345.00,0.0091
1344.00,0.0091
1343.00,0.0091
1342.00,0.0090
1341.00,0.0090
1340.00,0.0089
1339.00,0.0089
1338.00,0.0089
1337.00,0.0090
1336.00,0.0091
1335.00,0.0091
1334.00,0.0092
1333.00,0.0093
1332.00,0.0095
1331.00,0.0096
1330.00,0.0099
1329.00,0.0102
1328.00,0.0105
1327.00,0.0108
1326.00,0.0112
1325.00,0.0116
1324.00,0.0120
1323.00,0.0124
1322.00,0.0129
1321.00,0.0134
1320.00,0.0138
1319.00,0.0142
1318.00,0.0145
1317.00,0.0147
1316.00,0.0148
1315.00,0.0149
1314.00,0.0148
1313.00,0.0147
1312.00,0.0144
1311.00,0.0141
1310.00,0.0139
1309.00,0.0136
1308.00,0.0134
1307.00,0.0132
1306.00,0.0132
1305.00,0.0132
1304.00,0.0133
1303.00,0.0135
1302.00,0.0139
1301.00,0.0144
1300.00,0.0152
1299.00,0.0161
1298.00,0.0173
1297.00,0.0187
1296.00,0.0203
1295.00,0.0222
1294.00,0.0242
1293.00,0.0264
1292.00,0.0286
1291.00,0.0307
1290.00,0.0327
1289.00,0.0345
1288.00,0.0360
1287.00,0.0372
1286.00,0.0381
1285.00,0.0386
1284.00,0.0387
1283.00,0.0385
1282.00,0.0381
1281.00,0.0376
1280.00,0.0370
1279.00,0.0365
1278.00,0.0362
1277.00,0.0361
1276.00,0.0362
1275.00,0.0365
1274.00,0.0368
1273.00,0.0373
1272.00,0.0376
1271.00,0.0378
1270.00,0.0379
1269.00,0.0378
1268.00,0.0374
1267.00,0.0369
1266.00,0.0361
1265.00,0.0352
1264.00,0.0342
1263.00,0.0331
1262.00,0.0319
1261.00,0.0308
1260.00,0.0296
1259.00,0.0285
1258.00,0.0275
1257.00,0.0266
1256.00,0.0257
1255.00,0.0248
1254.00,0.0241
1253.00,0.0234
1252.00,0.0227
1251.00,0.0221
1250.00,0.0216
1249.00,0.0212
1248.00,0.0208
1247.00,0.0204
1246.00,0.0202
1245.00,0.0200
1244.00,0.0198
1243.00,0.0197
1242.00,0.0197
1241.00,0.0197
1240.00,0.0197
1239.00,0.0198
1238.00,0.0199
1237.00,0.0200
1236.00,0.0202
1235.00,0.0203
1234.00,0.0206
1233.00,0.0208
1232.00,0.0210
1231.00,0.0212
1230.00,0.0213
1229.00,0.0214
1228.00,0.0215
1227.00,0.0215
1226.00,0.0215
1225.00,0.0214
1224.00,0.0213
1223.00,0.0212
1222.00,0.0211
1221.00,0.0209
1220.00,0.0208
1219.00,0.0207
1218.00,0.0206
1217.00,0.0205
1216.00,0.0202
1215.00,0.0200
1214.00,0.0198
1213.00,0.0195
1212.00,0.0192
1211.00,0.0190
1210.00,0.0187
1209.00,0.0184
1208.00,0.0182
1207.00,0.0179
1206.00,0.0177
1205.00,0.0176
1204.00,0.0174
1203.00,0.0172
1202.00,0.0170
1201.00,0.0169
1200.00,0.0167
1199.00,0.0165
1198.00,0.0164
1197.00,0.0162
1196.00,0.0161
1195.00,0.0159
1194.00,0.0158
1193.00,0.0157
1192.00,0.0156
1191.00,0.0155
1190.00,0.0154
1189.00,0.0154
1188.00,0.0153
1187.00,0.0153
1186.00,0.0152
1185.00,0.0152
1184.00,0.0152
1183.00,0.0152
1182.00,0.0152
1181.00,0.0152
1180.00,0.0152
1179.00,0.0153
1178.00,0.0154
1177.00,0.0155
1176.00,0.0156
1175.00,0.0158
1174.00,0.0160
1173.00,0.0161
1172.00,0.0163
1171.00,0.0164
1170.00,0.0166
1169.00,0.0167
1168.00,0.0168
1167.00,0.0168
1166.00,0.0168
1165.00,0.0168
1164.00,0.0166
1163.00,0.0165
1162.00,0.0163
1161.00,0.0161
1160.00,0.0158
1159.00,0.0156
1158.00,0.0153
1157.00,0.0151
1156.00,0.0149
1155.00,0.0148
1154.00,0.0146
1153.00,0.0144
1152.00,0.0143
1151.00,0.0141
1150.00,0.0139
1149.00,0.0138
1148.00,0.0137
1147.00,0.0135
1146.00,0.0134
1145.00,0.0133
1144.00,0.0131
1143.00,0.0129
1142.00,0.0128
1141.00,0.0127
1140.00,0.0126
1139.00,0.0125
1138.00,0.0124
1137.00,0.0123
1136.00,0.0122
1135.00,0.0121
1134.00,0.0120
1133.00,0.0120
1132.00,0.0119
1131.00,0.0119
1130.00,0.0120
1129.00,0.0120
1128.00,0.0120
1127.00,0.0120
1126.00,0.0121
1125.00,0.0122
1124.00,0.0122
1123.00,0.0122
1122.00,0.0122
1121.00,0.0122
1120.00,0.0122
1119.00,0.0123
1118.00,0.0124
1117.00,0.0124
1116.00,0.0124
1115.00,0.0124
1114.00,0.0124
1113.00,0.0124
1112.00,0.0124
1111.00,0.0124
1110.00,0.0124
1109.00,0.0124
1108.00,0.0125
1107.00,0.0125
1106.00,0.0125
1105.00,0.0126
1104.00,0.0125
1103.00,0.0125
1102.00,0.0125
1101.00,0.0125
1100.00,0.0124
1099.00,0.0124
1098.00,0.0124
1097.00,0.0124
1096.00,0.0124
1095.00,0.0124
1094.00,0.0124
1093.00,0.0124
1092.00,0.0124
1091.00,0.0124
1090.00,0.0125
1089.00,0.0125
1088.00,0.0125
1087.00,0.0125
1086.00,0.0125
1085.00,0.0125
1084.00,0.0124
1083.00,0.0124
1082.00,0.0124
1081.00,0.0124
1080.00,0.0124
1079.00,0.0125
1078.00,0.0125
1077.00,0.0126
1076.00,0.0125
1075.00,0.0124
1074.00,0.0123
1073.00,0.0122
1072.00,0.0121
1071.00,0.0119
1070.00,0.0117
1069.00,0.0114
1068.00,0.0110
1067.00,0.0107
1066.00,0.0105
1065.00,0.0103
1064.00,0.0101
1063.00,0.0099
1062.00,0.0097
1061.00,0.0095
1060.00,0.0092
1059.00,0.0090
1058.00,0.0088
1057.00,0.0087
1056.00,0.0086
1055.00,0.0086
1054.00,0.0086
1053.00,0.0087
1052.00,0.0087
1051.00,0.0087
1050.00,0.0089
1049.00,0.0090
1048.00,0.0091
1047.00,0.0092
1046.00,0.0095
1045.00,0.0097
1044.00,0.0099
1043.00,0.0101
1042.00,0.0103
1041.00,0.0105
1040.00,0.0106
1039.00,0.0107
1038.00,0.0107
1037.00,0.0105
1036.00,0.0096
1035.00,0.0083
1034.00,0.0070
1033.00,0.0067
1032.00,0.0074
1031.00,0.0086
1030.00,0.0098
1029.00,0.0105
1028.00,0.0108
1027.00,0.0110
1026.00,0.0112
1025.00,0.0113
1024.00,0.0114
1023.00,0.0115
1022.00,0.0115
1021.00,0.0116
1020.00,0.0116
1019.00,0.0116
1018.00,0.0116
1017.00,0.0116
1016.00,0.0115
1015.00,0.0114
1014.00,0.0112
1013.00,0.0110
1012.00,0.0108
1011.00,0.0105
1010.00,0.0104
1009.00,0.0104
1008.00,0.0103
1007.00,0.0103
1006.00,0.0104
1005.00,0.0106
1004.00,0.0107
1003.00,0.0109
1002.00,0.0111
1001.00,0.0112
1000.00,0.0113
999.00,0.0114
998.00,0.0115
997.00,0.0115
996.00,0.0114
995.00,0.0113
994.00,0.0113
993.00,0.0113
992.00,0.0112
991.00,0.0111
990.00,0.0111
989.00,0.0110
988.00,0.0109
987.00,0.0109
986.00,0.0109
985.00,0.0109
984.00,0.0109
983.00,0.0109
982.00,0.0109
981.00,0.0109
980.00,0.0109
979.00,0.0109
978.00,0.0109
977.00,0.0109
976.00,0.0108
975.00,0.0108
974.00,0.0108
973.00,0.0108
972.00,0.0107
971.00,0.0107
970.00,0.0107
969.00,0.0106
968.00,0.0106
967.00,0.0106
966.00,0.0106
965.00,0.0106
964.00,0.0106
963.00,0.0105
962.00,0.0104
961.00,0.0104
960.00,0.0104
959.00,0.0103
958.00,0.0103
957.00,0.0103
956.00,0.0103
955.00,0.0102
954.00,0.0102
953.00,0.0101
952.00,0.0101
951.00,0.0101
950.00,0.0101
949.00,0.0101
948.00,0.0100
947.00,0.0100
946.00,0.0101
945.00,0.0101
944.00,0.0101
943.00,0.0102
942.00,0.0103
941.00,0.0104
940.00,0.0105
939.00,0.0107
938.00,0.0109
937.00,0.0111
936.00,0.0113
935.00,0.0116
934.00,0.0118
933.00,0.0119
932.00,0.0120
931.00,0.0119
930.00,0.0118
929.00,0.0117
928.00,0.0115
927.00,0.0114
926.00,0.0113
925.00,0.0113
924.00,0.0112
923.00,0.0110
922.00,0.0110
921.00,0.0109
920.00,0.0108
919.00,0.0107
918.00,0.0107
917.00,0.0106
916.00,0.0105
915.00,0.0104
914.00,0.0104
913.00,0.0104
912.00,0.0103
911.00,0.0103
910.00,0.0103
909.00,0.0103
908.00,0.0104
907.00,0.0104
906.00,0.0104
905.00,0.0104
904.00,0.0104
903.00,0.0105
902.00,0.0106
901.00,0.0108
900.00,0.0109
899.00,0.0110
898.00,0.0111
897.00,0.0113
896.00,0.0113
895.00,0.0113
894.00,0.0114
893.00,0.0113
892.00,0.0113
891.00,0.0112
890.00,0.0111
889.00,0.0110
888.00,0.0109
887.00,0.0108
886.00,0.0108
885.00,0.0108
884.00,0.0107
883.00,0.0106
882.00,0.0105
881.00,0.0104
880.00,0.0104
879.00,0.0103
878.00,0.0103
877.00,0.0103
876.00,0.0102
875.00,0.0102
874.00,0.0102
873.00,0.0103
872.00,0.0103
871.00,0.0103
870.00,0.0103
869.00,0.0103
868.00,0.0103
867.00,0.0103
866.00,0.0105
865.00,0.0106
864.00,0.0107
863.00,0.0108
862.00,0.0109
861.00,0.0111
860.00,0.0112
859.00,0.0114
858.00,0.0116
857.00,0.0119
856.00,0.0122
855.00,0.0125
854.00,0.0128
853.00,0.0132
852.00,0.0134
851.00,0.0136
850.00,0.0139
849.00,0.0142
848.00,0.0144
847.00,0.0147
846.00,0.0149
845.00,0.0150
844.00,0.0150
843.00,0.0150
842.00,0.0150
841.00,0.0149
840.00,0.0148
839.00,0.0146
838.00,0.0146
837.00,0.0145
836.00,0.0143
835.00,0.0141
834.00,0.0140
833.00,0.0137
832.00,0.0134
831.00,0.0132
830.00,0.0130
829.00,0.0128
828.00,0.0126
827.00,0.0124
826.00,0.0122
825.00,0.0120
824.00,0.0118
823.00,0.0117
822.00,0.0116
821.00,0.0115
820.00,0.0114
819.00,0.0113
818.00,0.0112
817.00,0.0111
816.00,0.0110
815.00,0.0109
814.00,0.0109
813.00,0.0108
812.00,0.0107
811.00,0.0106
810.00,0.0106
809.00,0.0106
808.00,0.0106
807.00,0.0105
806.00,0.0105
805.00,0.0105
804.00,0.0103
803.00,0.0102
802.00,0.0103
801.00,0.0103
800.00,0.0102
799.00,0.0102
798.00,0.0103
797.00,0.0103
796.00,0.0103
795.00,0.0102
794.00,0.0103
793.00,0.0103
792.00,0.0103
791.00,0.0103
790.00,0.0103
789.00,0.0103
788.00,0.0103
787.00,0.0103
786.00,0.0104
785.00,0.0104
784.00,0.0103
783.00,0.0102
782.00,0.0102
781.00,0.0103
780.00,0.0103
779.00,0.0103
778.00,0.0103
777.00,0.0103
776.00,0.0103
775.00,0.0103
774.00,0.0104
773.00,0.0105
772.00,0.0105
771.00,0.0106
770.00,0.0107
769.00,0.0108
768.00,0.0110
767.00,0.0111
766.00,0.0112
765.00,0.0113
764.00,0.0113
763.00,0.0114
762.00,0.0116
761.00,0.0117
760.00,0.0118
759.00,0.0120
758.00,0.0122
757.00,0.0124
756.00,0.0125
755.00,0.0127
754.00,0.0129
753.00,0.0131
752.00,0.0132
751.00,0.0133
750.00,0.0136
749.00,0.0138
748.00,0.0139
747.00,0.0141
746.00,0.0143
745.00,0.0145
744.00,0.0146
743.00,0.0147
742.00,0.0150
741.00,0.0152
740.00,0.0153
739.00,0.0154
738.00,0.0157
737.00,0.0159
736.00,0.0160
735.00,0.0161
734.00,0.0163
733.00,0.0163
732.00,0.0163
731.00,0.0161
730.00,0.0160
729.00,0.0158
728.00,0.0156
727.00,0.0154
726.00,0.0152
725.00,0.0151
724.00,0.0148
723.00,0.0146
722.00,0.0144
721.00,0.0143
720.00,0.0140
719.00,0.0139
718.00,0.0138
717.00,0.0138
716.00,0.0137
715.00,0.0136
714.00,0.0135
713.00,0.0135
712.00,0.0134
711.00,0.0133
710.00,0.0133
709.00,0.0134
708.00,0.0133
707.00,0.0133
706.00,0.0134
705.00,0.0135
704.00,0.0135
703.00,0.0134
702.00,0.0135
701.00,0.0135
700.00,0.0135
699.00,0.0136
698.00,0.0138
697.00,0.0139
696.00,0.0140
695.00,0.0140
694.00,0.0142
693.00,0.0143
692.00,0.0143
691.00,0.0145
690.00,0.0146
689.00,0.0148
688.00,0.0149
687.00,0.0150
686.00,0.0152
685.00,0.0154
684.00,0.0156
683.00,0.0157
682.00,0.0159
681.00,0.0161
680.00,0.0162
679.00,0.0163
678.00,0.0165
677.00,0.0166
676.00,0.0167
675.00,0.0168
674.00,0.0171
673.00,0.0173
672.00,0.0175
671.00,0.0178
670.00,0.0182
669.00,0.0187
668.00,0.0190
667.00,0.0191
666.00,0.0191
665.00,0.0193
664.00,0.0196
663.00,0.0199
662.00,0.0203
661.00,0.0207
660.00,0.0210
659.00,0.0214
658.00,0.0218
657.00,0.0222
656.00,0.0226
655.00,0.0230
654.00,0.0235
653.00,0.0239
652.00,0.0242
651.00,0.0245
650.00,0.0247
649.00,0.0249
648.00,0.0250
647.00,0.0250
646.00,0.0251
645.00,0.0251
644.00,0.0249
643.00,0.0247
642.00,0.0246
641.00,0.0244
640.00,0.0241
639.00,0.0238
638.00,0.0235
637.00,0.0233
636.00,0.0230
635.00,0.0228
634.00,0.0226
633.00,0.0225
632.00,0.0224
631.00,0.0222
630.00,0.0222
629.00,0.0221
628.00,0.0219
627.00,0.0217
626.00,0.0217
625.00,0.0216
624.00,0.0214
623.00,0.0212
622.00,0.0211
621.00,0.0210
620.00,0.0209
619.00,0.0208
618.00,0.0209
617.00,0.0209
616.00,0.0208
615.00,0.0209
614.00,0.0210
613.00,0.0211
612.00,0.0209
611.00,0.0207
610.00,0.0206
609.00,0.0207
608.00,0.0208
607.00,0.0210
606.00,0.0211
605.00,0.0211
604.00,0.0210
603.00,0.0210
602.00,0.0211
601.00,0.0213
600.00,0.0213
599.00,0.0213
598.00,0.0215
597.00,0.0218
596.00,0.0218
595.00,0.0219
594.00,0.0221
593.00,0.0222
592.00,0.0222
591.00,0.0224
590.00,0.0228
589.00,0.0231
588.00,0.0233
587.00,0.0235
586.00,0.0240
585.00,0.0244
584.00,0.0248
583.00,0.0251
582.00,0.0256
581.00,0.0260
580.00,0.0263
579.00,0.0266
578.00,0.0271
577.00,0.0274
576.00,0.0276
575.00,0.0278
574.00,0.0281
573.00,0.0283
572.00,0.0284
571.00,0.0285
570.00,0.0287
569.00,0.0288
568.00,0.0286
567.00,0.0285
566.00,0.0284
565.00,0.0282
564.00,0.0279
563.00,0.0276
562.00,0.0274
561.00,0.0272
560.00,0.0269
559.00,0.0266
558.00,0.0266
557.00,0.0266
556.00,0.0263
555.00,0.0260
554.00,0.0259
553.00,0.0259
552.00,0.0258
551.00,0.0257
550.00,0.0258
549.00,0.0258
548.00,0.0256
547.00,0.0254
546.00,0.0253
545.00,0.0252
544.00,0.0250
543.00,0.0247
542.00,0.0247
541.00,0.0247
540.00,0.0245
539.00,0.0244
538.00,0.0246
537.00,0.0248
536.00,0.0249
535.00,0.0249
534.00,0.0250
533.00,0.0250
532.00,0.0248
531.00,0.0245
530.00,0.0246
529.00,0.0246
528.00,0.0246
527.00,0.0246
526.00,0.0249
525.00,0.0251
524.00,0.0251
523.00,0.0251
522.00,0.0253
521.00,0.0253
520.00,0.0250
519.00,0.0247
518.00,0.0247
517.00,0.0248
516.00,0.0249
515.00,0.0251
514.00,0.0254
513.00,0.0255
512.00,0.0253
511.00,0.0251
510.00,0.0254
509.00,0.0257
508.00,0.0258
507.00,0.0256
506.00,0.0255
505.00,0.0254
504.00,0.0251
503.00,0.0250
502.00,0.0251
501.00,0.0253
500.00,0.0253
499.00,0.0253
498.00,0.0258
497.00,0.0262
496.00,0.0262
495.00,0.0262
494.00,0.0262
493.00,0.0262
492.00,0.0259
491.00,0.0258
490.00,0.0261
489.00,0.0264
488.00,0.0264
487.00,0.0265
486.00,0.0268
485.00,0.0271
484.00,0.0271
483.00,0.0269
482.00,0.0270
481.00,0.0271
480.00,0.0268
479.00,0.0267
478.00,0.0271
477.00,0.0275
476.00,0.0276
475.00,0.0277
474.00,0.0280
473.00,0.0281
472.00,0.0277
471.00,0.0274
470.00,0.0276
469.00,0.0278
468.00,0.0277
467.00,0.0276
466.00,0.0279
465.00,0.0279
464.00,0.0273
463.00,0.0268
462.00,0.0268
461.00,0.0269
460.00,0.0266
459.00,0.0264
458.00,0.0267
457.00,0.0270
456.00,0.0269
455.00,0.0268
454.00,0.0270
453.00,0.0269
452.00,0.0264
451.00,0.0261
450.00,0.0264
449.00,0.0266
448.00,0.0263
447.00,0.0259
446.00,0.0259
445.00,0.0258
444.00,0.0252
443.00,0.0247
442.00,0.0249
441.00,0.0250
440.00,0.0248
439.00,0.0248
438.00,0.0254
437.00,0.0256
436.00,0.0250
435.00,0.0243
434.00,0.0243
433.00,0.0245
432.00,0.0242
431.00,0.0239
430.00,0.0240
429.00,0.0239
428.00,0.0234
427.00,0.0231
426.00,0.0235
425.00,0.0238
424.00,0.0233
423.00,0.0231
422.00,0.0239
421.00,0.0245
420.00,0.0239
419.00,0.0229
418.00,0.0229
417.00,0.0229
416.00,0.0223
415.00,0.0219
414.00,0.0224
413.00,0.0229
412.00,0.0227
411.00,0.0226
410.00,0.0233
409.00,0.0234
408.00,0.0227
407.00,0.0225
406.00,0.0235
405.00,0.0237
404.00,0.0220
403.00,0.0207
402.00,0.0215
401.00,0.0225
400.00,0.0217
