Created as New Dataset,Sample 205 By YargerLab Date Monday, June 10 2024
cm-1,A
4000.00,0.0038
3999.00,0.0038
3998.00,0.0038
3997.00,0.0038
3996.00,0.0037
3995.00,0.0037
3994.00,0.0037
3993.00,0.0037
3992.00,0.0037
3991.00,0.0037
3990.00,0.0037
3989.00,0.0037
3988.00,0.0037
3987.00,0.0037
3986.00,0.0037
3985.00,0.0037
3984.00,0.0037
3983.00,0.0037
3982.00,0.0037
3981.00,0.0037
3980.00,0.0037
3979.00,0.0037
3978.00,0.0037
3977.00,0.0037
3976.00,0.0037
3975.00,0.0037
3974.00,0.0037
3973.00,0.0037
3972.00,0.0037
3971.00,0.0037
3970.00,0.0037
3969.00,0.0037
3968.00,0.0037
3967.00,0.0037
3966.00,0.0037
3965.00,0.0037
3964.00,0.0037
3963.00,0.0037
3962.00,0.0037
3961.00,0.0037
3960.00,0.0037
3959.00,0.0037
3958.00,0.0037
3957.00,0.0037
3956.00,0.0037
3955.00,0.0037
3954.00,0.0037
3953.00,0.0037
3952.00,0.0037
3951.00,0.0037
3950.00,0.0037
3949.00,0.0037
3948.00,0.0038
3947.00,0.0038
3946.00,0.0038
3945.00,0.0037
3944.00,0.0037
3943.00,0.0037
3942.00,0.0037
3941.00,0.0037
3940.00,0.0037
3939.00,0.0037
3938.00,0.0037
3937.00,0.0037
3936.00,0.0037
3935.00,0.0037
3934.00,0.0038
3933.00,0.0038
3932.00,0.0038
3931.00,0.0038
3930.00,0.0037
3929.00,0.0037
3928.00,0.0037
3927.00,0.0037
3926.00,0.0037
3925.00,0.0037
3924.00,0.0037
3923.00,0.0037
3922.00,0.0037
3921.00,0.0037
3920.00,0.0038
3919.00,0.0038
3918.00,0.0038
3917.00,0.0038
3916.00,0.0038
3915.00,0.0037
3914.00,0.0037
3913.00,0.0037
3912.00,0.0037
3911.00,0.0037
3910.00,0.0037
3909.00,0.0037
3908.00,0.0037
3907.00,0.0037
3906.00,0.0037
3905.00,0.0038
3904.00,0.0038
3903.00,0.0039
3902.00,0.0040
3901.00,0.0040
3900.00,0.0039
3899.00,0.0039
3898.00,0.0038
3897.00,0.0038
3896.00,0.0038
3895.00,0.0038
3894.00,0.0037
3893.00,0.0037
3892.00,0.0037
3891.00,0.0037
3890.00,0.0037
3889.00,0.0038
3888.00,0.0038
3887.00,0.0038
3886.00,0.0038
3885.00,0.0038
3884.00,0.0038
3883.00,0.0038
3882.00,0.0038
3881.00,0.0038
3880.00,0.0038
3879.00,0.0037
3878.00,0.0037
3877.00,0.0038
3876.00,0.0038
3875.00,0.0038
3874.00,0.0038
3873.00,0.0038
3872.00,0.0038
3871.00,0.0039
3870.00,0.0039
3869.00,0.0038
3868.00,0.0038
3867.00,0.0038
3866.00,0.0038
3865.00,0.0038
3864.00,0.0038
3863.00,0.0038
3862.00,0.0038
3861.00,0.0038
3860.00,0.0038
3859.00,0.0038
3858.00,0.0037
3857.00,0.0036
3856.00,0.0036
3855.00,0.0036
3854.00,0.0036
3853.00,0.0037
3852.00,0.0037
3851.00,0.0038
3850.00,0.0038
3849.00,0.0038
3848.00,0.0038
3847.00,0.0037
3846.00,0.0037
3845.00,0.0037
3844.00,0.0038
3843.00,0.0038
3842.00,0.0038
3841.00,0.0038
3840.00,0.0038
3839.00,0.0038
3838.00,0.0038
3837.00,0.0038
3836.00,0.0038
3835.00,0.0038
3834.00,0.0038
3833.00,0.0038
3832.00,0.0038
3831.00,0.0038
3830.00,0.0038
3829.00,0.0038
3828.00,0.0038
3827.00,0.0037
3826.00,0.0037
3825.00,0.0037
3824.00,0.0037
3823.00,0.0038
3822.00,0.0038
3821.00,0.0038
3820.00,0.0038
3819.00,0.0038
3818.00,0.0038
3817.00,0.0038
3816.00,0.0038
3815.00,0.0037
3814.00,0.0037
3813.00,0.0037
3812.00,0.0037
3811.00,0.0036
3810.00,0.0036
3809.00,0.0036
3808.00,0.0036
3807.00,0.0037
3806.00,0.0037
3805.00,0.0037
3804.00,0.0038
3803.00,0.0038
3802.00,0.0038
3801.00,0.0038
3800.00,0.0037
3799.00,0.0037
3798.00,0.0037
3797.00,0.0037
3796.00,0.0037
3795.00,0.0036
3794.00,0.0036
3793.00,0.0036
3792.00,0.0036
3791.00,0.0035
3790.00,0.0035
3789.00,0.0035
3788.00,0.0035
3787.00,0.0035
3786.00,0.0035
3785.00,0.0035
3784.00,0.0035
3783.00,0.0035
3782.00,0.0036
3781.00,0.0036
3780.00,0.0036
3779.00,0.0036
3778.00,0.0035
3777.00,0.0035
3776.00,0.0035
3775.00,0.0035
3774.00,0.0035
3773.00,0.0035
3772.00,0.0035
3771.00,0.0035
3770.00,0.0036
3769.00,0.0036
3768.00,0.0036
3767.00,0.0036
3766.00,0.0036
3765.00,0.0036
3764.00,0.0035
3763.00,0.0035
3762.00,0.0035
3761.00,0.0036
3760.00,0.0036
3759.00,0.0036
3758.00,0.0036
3757.00,0.0036
3756.00,0.0036
3755.00,0.0036
3754.00,0.0037
3753.00,0.0037
3752.00,0.0037
3751.00,0.0038
3750.00,0.0038
3749.00,0.0038
3748.00,0.0038
3747.00,0.0038
3746.00,0.0038
3745.00,0.0038
3744.00,0.0038
3743.00,0.0038
3742.00,0.0038
3741.00,0.0038
3740.00,0.0039
3739.00,0.0039
3738.00,0.0039
3737.00,0.0039
3736.00,0.0039
3735.00,0.0039
3734.00,0.0039
3733.00,0.0039
3732.00,0.0038
3731.00,0.0038
3730.00,0.0037
3729.00,0.0037
3728.00,0.0038
3727.00,0.0038
3726.00,0.0037
3725.00,0.0037
3724.00,0.0037
3723.00,0.0037
3722.00,0.0037
3721.00,0.0036
3720.00,0.0036
3719.00,0.0036
3718.00,0.0036
3717.00,0.0036
3716.00,0.0036
3715.00,0.0036
3714.00,0.0037
3713.00,0.0037
3712.00,0.0037
3711.00,0.0037
3710.00,0.0037
3709.00,0.0037
3708.00,0.0037
3707.00,0.0037
3706.00,0.0037
3705.00,0.0036
3704.00,0.0036
3703.00,0.0036
3702.00,0.0036
3701.00,0.0036
3700.00,0.0037
3699.00,0.0037
3698.00,0.0037
3697.00,0.0037
3696.00,0.0038
3695.00,0.0038
3694.00,0.0039
3693.00,0.0039
3692.00,0.0040
3691.00,0.0041
3690.00,0.0042
3689.00,0.0043
3688.00,0.0045
3687.00,0.0046
3686.00,0.0047
3685.00,0.0049
3684.00,0.0051
3683.00,0.0052
3682.00,0.0054
3681.00,0.0057
3680.00,0.0059
3679.00,0.0061
3678.00,0.0064
3677.00,0.0068
3676.00,0.0071
3675.00,0.0074
3674.00,0.0076
3673.00,0.0078
3672.00,0.0080
3671.00,0.0081
3670.00,0.0082
3669.00,0.0082
3668.00,0.0083
3667.00,0.0084
3666.00,0.0085
3665.00,0.0086
3664.00,0.0087
3663.00,0.0088
3662.00,0.0089
3661.00,0.0090
3660.00,0.0091
3659.00,0.0092
3658.00,0.0092
3657.00,0.0093
3656.00,0.0093
3655.00,0.0093
3654.00,0.0093
3653.00,0.0093
3652.00,0.0094
3651.00,0.0094
3650.00,0.0094
3649.00,0.0094
3648.00,0.0094
3647.00,0.0093
3646.00,0.0092
3645.00,0.0090
3644.00,0.0089
3643.00,0.0088
3642.00,0.0086
3641.00,0.0085
3640.00,0.0084
3639.00,0.0085
3638.00,0.0085
3637.00,0.0085
3636.00,0.0083
3635.00,0.0080
3634.00,0.0076
3633.00,0.0074
3632.00,0.0072
3631.00,0.0071
3630.00,0.0071
3629.00,0.0070
3628.00,0.0070
3627.00,0.0070
3626.00,0.0070
3625.00,0.0070
3624.00,0.0070
3623.00,0.0070
3622.00,0.0070
3621.00,0.0070
3620.00,0.0069
3619.00,0.0070
3618.00,0.0070
3617.00,0.0071
3616.00,0.0072
3615.00,0.0072
3614.00,0.0072
3613.00,0.0072
3612.00,0.0072
3611.00,0.0073
3610.00,0.0073
3609.00,0.0073
3608.00,0.0073
3607.00,0.0073
3606.00,0.0073
3605.00,0.0074
3604.00,0.0074
3603.00,0.0074
3602.00,0.0075
3601.00,0.0075
3600.00,0.0076
3599.00,0.0077
3598.00,0.0077
3597.00,0.0078
3596.00,0.0079
3595.00,0.0079
3594.00,0.0080
3593.00,0.0080
3592.00,0.0081
3591.00,0.0082
3590.00,0.0083
3589.00,0.0083
3588.00,0.0083
3587.00,0.0084
3586.00,0.0084
3585.00,0.0085
3584.00,0.0086
3583.00,0.0087
3582.00,0.0087
3581.00,0.0087
3580.00,0.0088
3579.00,0.0089
3578.00,0.0089
3577.00,0.0090
3576.00,0.0090
3575.00,0.0091
3574.00,0.0092
3573.00,0.0093
3572.00,0.0094
3571.00,0.0095
3570.00,0.0097
3569.00,0.0098
3568.00,0.0098
3567.00,0.0099
3566.00,0.0099
3565.00,0.0100
3564.00,0.0101
3563.00,0.0102
3562.00,0.0102
3561.00,0.0103
3560.00,0.0103
3559.00,0.0103
3558.00,0.0104
3557.00,0.0105
3556.00,0.0105
3555.00,0.0106
3554.00,0.0107
3553.00,0.0107
3552.00,0.0108
3551.00,0.0109
3550.00,0.0110
3549.00,0.0112
3548.00,0.0113
3547.00,0.0113
3546.00,0.0114
3545.00,0.0115
3544.00,0.0115
3543.00,0.0116
3542.00,0.0116
3541.00,0.0117
3540.00,0.0117
3539.00,0.0118
3538.00,0.0119
3537.00,0.0119
3536.00,0.0120
3535.00,0.0120
3534.00,0.0121
3533.00,0.0122
3532.00,0.0123
3531.00,0.0124
3530.00,0.0124
3529.00,0.0125
3528.00,0.0126
3527.00,0.0127
3526.00,0.0128
3525.00,0.0128
3524.00,0.0129
3523.00,0.0129
3522.00,0.0129
3521.00,0.0130
3520.00,0.0130
3519.00,0.0131
3518.00,0.0132
3517.00,0.0133
3516.00,0.0133
3515.00,0.0134
3514.00,0.0134
3513.00,0.0135
3512.00,0.0136
3511.00,0.0136
3510.00,0.0137
3509.00,0.0137
3508.00,0.0138
3507.00,0.0139
3506.00,0.0140
3505.00,0.0141
3504.00,0.0141
3503.00,0.0142
3502.00,0.0142
3501.00,0.0143
3500.00,0.0144
3499.00,0.0144
3498.00,0.0145
3497.00,0.0146
3496.00,0.0146
3495.00,0.0147
3494.00,0.0147
3493.00,0.0148
3492.00,0.0149
3491.00,0.0149
3490.00,0.0150
3489.00,0.0150
3488.00,0.0151
3487.00,0.0152
3486.00,0.0153
3485.00,0.0153
3484.00,0.0154
3483.00,0.0154
3482.00,0.0155
3481.00,0.0156
3480.00,0.0156
3479.00,0.0157
3478.00,0.0158
3477.00,0.0158
3476.00,0.0159
3475.00,0.0159
3474.00,0.0160
3473.00,0.0160
3472.00,0.0161
3471.00,0.0162
3470.00,0.0163
3469.00,0.0163
3468.00,0.0164
3467.00,0.0164
3466.00,0.0165
3465.00,0.0165
3464.00,0.0166
3463.00,0.0166
3462.00,0.0167
3461.00,0.0167
3460.00,0.0168
3459.00,0.0168
3458.00,0.0169
3457.00,0.0169
3456.00,0.0170
3455.00,0.0170
3454.00,0.0171
3453.00,0.0172
3452.00,0.0172
3451.00,0.0173
3450.00,0.0174
3449.00,0.0175
3448.00,0.0175
3447.00,0.0176
3446.00,0.0177
3445.00,0.0177
3444.00,0.0178
3443.00,0.0179
3442.00,0.0179
3441.00,0.0180
3440.00,0.0181
3439.00,0.0182
3438.00,0.0183
3437.00,0.0184
3436.00,0.0184
3435.00,0.0185
3434.00,0.0186
3433.00,0.0187
3432.00,0.0188
3431.00,0.0189
3430.00,0.0190
3429.00,0.0190
3428.00,0.0191
3427.00,0.0192
3426.00,0.0193
3425.00,0.0194
3424.00,0.0195
3423.00,0.0196
3422.00,0.0197
3421.00,0.0198
3420.00,0.0199
3419.00,0.0200
3418.00,0.0201
3417.00,0.0202
3416.00,0.0203
3415.00,0.0204
3414.00,0.0205
3413.00,0.0206
3412.00,0.0207
3411.00,0.0208
3410.00,0.0209
3409.00,0.0210
3408.00,0.0211
3407.00,0.0212
3406.00,0.0213
3405.00,0.0214
3404.00,0.0216
3403.00,0.0217
3402.00,0.0218
3401.00,0.0219
3400.00,0.0220
3399.00,0.0221
3398.00,0.0221
3397.00,0.0222
3396.00,0.0223
3395.00,0.0224
3394.00,0.0226
3393.00,0.0227
3392.00,0.0228
3391.00,0.0228
3390.00,0.0229
3389.00,0.0230
3388.00,0.0231
3387.00,0.0233
3386.00,0.0234
3385.00,0.0235
3384.00,0.0236
3383.00,0.0237
3382.00,0.0238
3381.00,0.0239
3380.00,0.0241
3379.00,0.0242
3378.00,0.0243
3377.00,0.0244
3376.00,0.0246
3375.00,0.0247
3374.00,0.0248
3373.00,0.0249
3372.00,0.0251
3371.00,0.0252
3370.00,0.0254
3369.00,0.0256
3368.00,0.0257
3367.00,0.0259
3366.00,0.0260
3365.00,0.0262
3364.00,0.0264
3363.00,0.0265
3362.00,0.0267
3361.00,0.0269
3360.00,0.0271
3359.00,0.0272
3358.00,0.0274
3357.00,0.0276
3356.00,0.0278
3355.00,0.0280
3354.00,0.0282
3353.00,0.0284
3352.00,0.0287
3351.00,0.0289
3350.00,0.0291
3349.00,0.0293
3348.00,0.0296
3347.00,0.0298
3346.00,0.0301
3345.00,0.0303
3344.00,0.0306
3343.00,0.0308
3342.00,0.0311
3341.00,0.0314
3340.00,0.0316
3339.00,0.0319
3338.00,0.0322
3337.00,0.0324
3336.00,0.0327
3335.00,0.0330
3334.00,0.0333
3333.00,0.0336
3332.00,0.0339
3331.00,0.0342
3330.00,0.0345
3329.00,0.0348
3328.00,0.0352
3327.00,0.0355
3326.00,0.0358
3325.00,0.0361
3324.00,0.0365
3323.00,0.0368
3322.00,0.0371
3321.00,0.0374
3320.00,0.0378
3319.00,0.0381
3318.00,0.0385
3317.00,0.0389
3316.00,0.0392
3315.00,0.0396
3314.00,0.0399
3313.00,0.0403
3312.00,0.0407
3311.00,0.0410
3310.00,0.0414
3309.00,0.0417
3308.00,0.0420
3307.00,0.0424
3306.00,0.0427
3305.00,0.0430
3304.00,0.0434
3303.00,0.0436
3302.00,0.0439
3301.00,0.0442
3300.00,0.0445
3299.00,0.0448
3298.00,0.0450
3297.00,0.0453
3296.00,0.0455
3295.00,0.0458
3294.00,0.0460
3293.00,0.0461
3292.00,0.0463
3291.00,0.0464
3290.00,0.0465
3289.00,0.0466
3288.00,0.0466
3287.00,0.0467
3286.00,0.0467
3285.00,0.0467
3284.00,0.0466
3283.00,0.0466
3282.00,0.0465
3281.00,0.0464
3280.00,0.0463
3279.00,0.0461
3278.00,0.0460
3277.00,0.0458
3276.00,0.0456
3275.00,0.0454
3274.00,0.0451
3273.00,0.0448
3272.00,0.0446
3271.00,0.0443
3270.00,0.0440
3269.00,0.0437
3268.00,0.0433
3267.00,0.0430
3266.00,0.0426
3265.00,0.0423
3264.00,0.0419
3263.00,0.0416
3262.00,0.0412
3261.00,0.0409
3260.00,0.0406
3259.00,0.0403
3258.00,0.0399
3257.00,0.0396
3256.00,0.0393
3255.00,0.0390
3254.00,0.0386
3253.00,0.0383
3252.00,0.0380
3251.00,0.0378
3250.00,0.0375
3249.00,0.0372
3248.00,0.0369
3247.00,0.0367
3246.00,0.0364
3245.00,0.0361
3244.00,0.0358
3243.00,0.0356
3242.00,0.0353
3241.00,0.0351
3240.00,0.0348
3239.00,0.0346
3238.00,0.0344
3237.00,0.0342
3236.00,0.0340
3235.00,0.0338
3234.00,0.0335
3233.00,0.0333
3232.00,0.0331
3231.00,0.0329
3230.00,0.0327
3229.00,0.0325
3228.00,0.0323
3227.00,0.0321
3226.00,0.0319
3225.00,0.0318
3224.00,0.0316
3223.00,0.0314
3222.00,0.0312
3221.00,0.0310
3220.00,0.0308
3219.00,0.0307
3218.00,0.0305
3217.00,0.0303
3216.00,0.0301
3215.00,0.0300
3214.00,0.0298
3213.00,0.0296
3212.00,0.0294
3211.00,0.0292
3210.00,0.0290
3209.00,0.0289
3208.00,0.0287
3207.00,0.0285
3206.00,0.0284
3205.00,0.0282
3204.00,0.0280
3203.00,0.0279
3202.00,0.0277
3201.00,0.0275
3200.00,0.0274
3199.00,0.0272
3198.00,0.0270
3197.00,0.0268
3196.00,0.0266
3195.00,0.0264
3194.00,0.0262
3193.00,0.0260
3192.00,0.0259
3191.00,0.0257
3190.00,0.0255
3189.00,0.0253
3188.00,0.0251
3187.00,0.0249
3186.00,0.0247
3185.00,0.0245
3184.00,0.0243
3183.00,0.0241
3182.00,0.0240
3181.00,0.0238
3180.00,0.0236
3179.00,0.0234
3178.00,0.0232
3177.00,0.0230
3176.00,0.0228
3175.00,0.0226
3174.00,0.0224
3173.00,0.0222
3172.00,0.0221
3171.00,0.0219
3170.00,0.0217
3169.00,0.0215
3168.00,0.0213
3167.00,0.0211
3166.00,0.0210
3165.00,0.0208
3164.00,0.0206
3163.00,0.0205
3162.00,0.0203
3161.00,0.0201
3160.00,0.0200
3159.00,0.0198
3158.00,0.0197
3157.00,0.0195
3156.00,0.0194
3155.00,0.0193
3154.00,0.0192
3153.00,0.0190
3152.00,0.0189
3151.00,0.0187
3150.00,0.0186
3149.00,0.0185
3148.00,0.0184
3147.00,0.0183
3146.00,0.0182
3145.00,0.0181
3144.00,0.0180
3143.00,0.0179
3142.00,0.0178
3141.00,0.0177
3140.00,0.0176
3139.00,0.0175
3138.00,0.0175
3137.00,0.0174
3136.00,0.0173
3135.00,0.0172
3134.00,0.0172
3133.00,0.0171
3132.00,0.0170
3131.00,0.0170
3130.00,0.0169
3129.00,0.0169
3128.00,0.0169
3127.00,0.0168
3126.00,0.0168
3125.00,0.0168
3124.00,0.0167
3123.00,0.0167
3122.00,0.0167
3121.00,0.0167
3120.00,0.0167
3119.00,0.0167
3118.00,0.0167
3117.00,0.0167
3116.00,0.0167
3115.00,0.0167
3114.00,0.0167
3113.00,0.0168
3112.00,0.0168
3111.00,0.0168
3110.00,0.0168
3109.00,0.0169
3108.00,0.0169
3107.00,0.0169
3106.00,0.0169
3105.00,0.0170
3104.00,0.0170
3103.00,0.0171
3102.00,0.0171
3101.00,0.0172
3100.00,0.0172
3099.00,0.0173
3098.00,0.0173
3097.00,0.0174
3096.00,0.0174
3095.00,0.0175
3094.00,0.0175
3093.00,0.0176
3092.00,0.0176
3091.00,0.0177
3090.00,0.0177
3089.00,0.0178
3088.00,0.0178
3087.00,0.0179
3086.00,0.0179
3085.00,0.0179
3084.00,0.0180
3083.00,0.0180
3082.00,0.0181
3081.00,0.0181
3080.00,0.0181
3079.00,0.0181
3078.00,0.0181
3077.00,0.0182
3076.00,0.0182
3075.00,0.0182
3074.00,0.0182
3073.00,0.0182
3072.00,0.0182
3071.00,0.0181
3070.00,0.0181
3069.00,0.0181
3068.00,0.0181
3067.00,0.0180
3066.00,0.0180
3065.00,0.0179
3064.00,0.0179
3063.00,0.0178
3062.00,0.0177
3061.00,0.0176
3060.00,0.0176
3059.00,0.0175
3058.00,0.0174
3057.00,0.0173
3056.00,0.0172
3055.00,0.0171
3054.00,0.0170
3053.00,0.0169
3052.00,0.0168
3051.00,0.0167
3050.00,0.0166
3049.00,0.0165
3048.00,0.0164
3047.00,0.0163
3046.00,0.0161
3045.00,0.0160
3044.00,0.0159
3043.00,0.0158
3042.00,0.0156
3041.00,0.0155
3040.00,0.0154
3039.00,0.0154
3038.00,0.0153
3037.00,0.0152
3036.00,0.0151
3035.00,0.0150
3034.00,0.0149
3033.00,0.0148
3032.00,0.0148
3031.00,0.0147
3030.00,0.0146
3029.00,0.0146
3028.00,0.0145
3027.00,0.0145
3026.00,0.0145
3025.00,0.0144
3024.00,0.0145
3023.00,0.0145
3022.00,0.0146
3021.00,0.0146
3020.00,0.0148
3019.00,0.0150
3018.00,0.0152
3017.00,0.0155
3016.00,0.0158
3015.00,0.0163
3014.00,0.0168
3013.00,0.0174
3012.00,0.0181
3011.00,0.0189
3010.00,0.0198
3009.00,0.0209
3008.00,0.0220
3007.00,0.0232
3006.00,0.0245
3005.00,0.0258
3004.00,0.0272
3003.00,0.0287
3002.00,0.0301
3001.00,0.0314
3000.00,0.0327
2999.00,0.0340
2998.00,0.0351
2997.00,0.0361
2996.00,0.0370
2995.00,0.0379
2994.00,0.0387
2993.00,0.0396
2992.00,0.0404
2991.00,0.0411
2990.00,0.0419
2989.00,0.0427
2988.00,0.0436
2987.00,0.0450
2986.00,0.0471
2985.00,0.0504
2984.00,0.0545
2983.00,0.0587
2982.00,0.0618
2981.00,0.0629
2980.00,0.0621
2979.00,0.0602
2978.00,0.0580
2977.00,0.0560
2976.00,0.0546
2975.00,0.0539
2974.00,0.0540
2973.00,0.0545
2972.00,0.0549
2971.00,0.0545
2970.00,0.0533
2969.00,0.0516
2968.00,0.0498
2967.00,0.0483
2966.00,0.0471
2965.00,0.0460
2964.00,0.0449
2963.00,0.0439
2962.00,0.0430
2961.00,0.0422
2960.00,0.0414
2959.00,0.0407
2958.00,0.0400
2957.00,0.0392
2956.00,0.0385
2955.00,0.0377
2954.00,0.0370
2953.00,0.0362
2952.00,0.0354
2951.00,0.0347
2950.00,0.0340
2949.00,0.0335
2948.00,0.0329
2947.00,0.0323
2946.00,0.0318
2945.00,0.0313
2944.00,0.0309
2943.00,0.0306
2942.00,0.0305
2941.00,0.0306
2940.00,0.0307
2939.00,0.0309
2938.00,0.0310
2937.00,0.0312
2936.00,0.0314
2935.00,0.0316
2934.00,0.0320
2933.00,0.0324
2932.00,0.0327
2931.00,0.0329
2930.00,0.0331
2929.00,0.0331
2928.00,0.0331
2927.00,0.0330
2926.00,0.0329
2925.00,0.0329
2924.00,0.0328
2923.00,0.0327
2922.00,0.0326
2921.00,0.0325
2920.00,0.0324
2919.00,0.0322
2918.00,0.0320
2917.00,0.0316
2916.00,0.0312
2915.00,0.0308
2914.00,0.0303
2913.00,0.0299
2912.00,0.0295
2911.00,0.0292
2910.00,0.0289
2909.00,0.0287
2908.00,0.0286
2907.00,0.0284
2906.00,0.0283
2905.00,0.0282
2904.00,0.0281
2903.00,0.0280
2902.00,0.0279
2901.00,0.0278
2900.00,0.0277
2899.00,0.0276
2898.00,0.0276
2897.00,0.0276
2896.00,0.0276
2895.00,0.0277
2894.00,0.0279
2893.00,0.0281
2892.00,0.0283
2891.00,0.0285
2890.00,0.0286
2889.00,0.0285
2888.00,0.0284
2887.00,0.0282
2886.00,0.0281
2885.00,0.0280
2884.00,0.0279
2883.00,0.0275
2882.00,0.0270
2881.00,0.0263
2880.00,0.0255
2879.00,0.0248
2878.00,0.0242
2877.00,0.0237
2876.00,0.0234
2875.00,0.0231
2874.00,0.0228
2873.00,0.0226
2872.00,0.0223
2871.00,0.0220
2870.00,0.0216
2869.00,0.0213
2868.00,0.0209
2867.00,0.0205
2866.00,0.0202
2865.00,0.0199
2864.00,0.0195
2863.00,0.0193
2862.00,0.0190
2861.00,0.0189
2860.00,0.0187
2859.00,0.0187
2858.00,0.0187
2857.00,0.0187
2856.00,0.0187
2855.00,0.0188
2854.00,0.0189
2853.00,0.0188
2852.00,0.0187
2851.00,0.0184
2850.00,0.0180
2849.00,0.0174
2848.00,0.0167
2847.00,0.0160
2846.00,0.0153
2845.00,0.0146
2844.00,0.0141
2843.00,0.0136
2842.00,0.0132
2841.00,0.0129
2840.00,0.0126
2839.00,0.0123
2838.00,0.0121
2837.00,0.0120
2836.00,0.0118
2835.00,0.0117
2834.00,0.0115
2833.00,0.0114
2832.00,0.0113
2831.00,0.0113
2830.00,0.0112
2829.00,0.0111
2828.00,0.0110
2827.00,0.0109
2826.00,0.0108
2825.00,0.0108
2824.00,0.0107
2823.00,0.0106
2822.00,0.0105
2821.00,0.0105
2820.00,0.0104
2819.00,0.0103
2818.00,0.0103
2817.00,0.0102
2816.00,0.0102
2815.00,0.0101
2814.00,0.0100
2813.00,0.0100
2812.00,0.0099
2811.00,0.0099
2810.00,0.0098
2809.00,0.0097
2808.00,0.0097
2807.00,0.0096
2806.00,0.0096
2805.00,0.0095
2804.00,0.0095
2803.00,0.0094
2802.00,0.0094
2801.00,0.0093
2800.00,0.0093
2799.00,0.0093
2798.00,0.0092
2797.00,0.0092
2796.00,0.0091
2795.00,0.0091
2794.00,0.0090
2793.00,0.0090
2792.00,0.0089
2791.00,0.0089
2790.00,0.0089
2789.00,0.0088
2788.00,0.0088
2787.00,0.0088
2786.00,0.0087
2785.00,0.0087
2784.00,0.0086
2783.00,0.0086
2782.00,0.0085
2781.00,0.0085
2780.00,0.0084
2779.00,0.0084
2778.00,0.0083
2777.00,0.0083
2776.00,0.0082
2775.00,0.0082
2774.00,0.0082
2773.00,0.0082
2772.00,0.0082
2771.00,0.0081
2770.00,0.0081
2769.00,0.0081
2768.00,0.0080
2767.00,0.0080
2766.00,0.0079
2765.00,0.0079
2764.00,0.0079
2763.00,0.0078
2762.00,0.0078
2761.00,0.0077
2760.00,0.0077
2759.00,0.0077
2758.00,0.0076
2757.00,0.0076
2756.00,0.0076
2755.00,0.0075
2754.00,0.0075
2753.00,0.0075
2752.00,0.0075
2751.00,0.0074
2750.00,0.0074
2749.00,0.0074
2748.00,0.0073
2747.00,0.0073
2746.00,0.0073
2745.00,0.0073
2744.00,0.0072
2743.00,0.0072
2742.00,0.0072
2741.00,0.0072
2740.00,0.0072
2739.00,0.0071
2738.00,0.0071
2737.00,0.0071
2736.00,0.0071
2735.00,0.0070
2734.00,0.0070
2733.00,0.0070
2732.00,0.0069
2731.00,0.0069
2730.00,0.0068
2729.00,0.0068
2728.00,0.0068
2727.00,0.0067
2726.00,0.0067
2725.00,0.0067
2724.00,0.0067
2723.00,0.0066
2722.00,0.0066
2721.00,0.0066
2720.00,0.0065
2719.00,0.0065
2718.00,0.0065
2717.00,0.0065
2716.00,0.0064
2715.00,0.0064
2714.00,0.0064
2713.00,0.0063
2712.00,0.0063
2711.00,0.0063
2710.00,0.0062
2709.00,0.0062
2708.00,0.0062
2707.00,0.0062
2706.00,0.0061
2705.00,0.0061
2704.00,0.0061
2703.00,0.0061
2702.00,0.0061
2701.00,0.0060
2700.00,0.0060
2699.00,0.0060
2698.00,0.0060
2697.00,0.0060
2696.00,0.0060
2695.00,0.0060
2694.00,0.0060
2693.00,0.0060
2692.00,0.0060
2691.00,0.0060
2690.00,0.0060
2689.00,0.0060
2688.00,0.0059
2687.00,0.0059
2686.00,0.0059
2685.00,0.0059
2684.00,0.0059
2683.00,0.0059
2682.00,0.0060
2681.00,0.0060
2680.00,0.0060
2679.00,0.0060
2678.00,0.0060
2677.00,0.0060
2676.00,0.0059
2675.00,0.0059
2674.00,0.0059
2673.00,0.0060
2672.00,0.0060
2671.00,0.0060
2670.00,0.0060
2669.00,0.0060
2668.00,0.0060
2667.00,0.0061
2666.00,0.0061
2665.00,0.0061
2664.00,0.0061
2663.00,0.0060
2662.00,0.0060
2661.00,0.0060
2660.00,0.0060
2659.00,0.0060
2658.00,0.0060
2657.00,0.0060
2656.00,0.0060
2655.00,0.0060
2654.00,0.0060
2653.00,0.0060
2652.00,0.0060
2651.00,0.0060
2650.00,0.0060
2649.00,0.0060
2648.00,0.0060
2647.00,0.0060
2646.00,0.0060
2645.00,0.0060
2644.00,0.0060
2643.00,0.0060
2642.00,0.0060
2641.00,0.0060
2640.00,0.0060
2639.00,0.0060
2638.00,0.0059
2637.00,0.0059
2636.00,0.0058
2635.00,0.0058
2634.00,0.0058
2633.00,0.0058
2632.00,0.0058
2631.00,0.0058
2630.00,0.0058
2629.00,0.0058
2628.00,0.0057
2627.00,0.0057
2626.00,0.0057
2625.00,0.0057
2624.00,0.0057
2623.00,0.0056
2622.00,0.0056
2621.00,0.0056
2620.00,0.0056
2619.00,0.0056
2618.00,0.0056
2617.00,0.0055
2616.00,0.0055
2615.00,0.0055
2614.00,0.0055
2613.00,0.0055
2612.00,0.0055
2611.00,0.0055
2610.00,0.0055
2609.00,0.0055
2608.00,0.0055
2607.00,0.0055
2606.00,0.0055
2605.00,0.0054
2604.00,0.0054
2603.00,0.0054
2602.00,0.0053
2601.00,0.0053
2600.00,0.0052
2599.00,0.0052
2598.00,0.0052
2597.00,0.0052
2596.00,0.0052
2595.00,0.0051
2594.00,0.0051
2593.00,0.0051
2592.00,0.0051
2591.00,0.0051
2590.00,0.0050
2589.00,0.0050
2588.00,0.0050
2587.00,0.0050
2586.00,0.0050
2585.00,0.0050
2584.00,0.0049
2583.00,0.0049
2582.00,0.0049
2581.00,0.0049
2580.00,0.0049
2579.00,0.0049
2578.00,0.0049
2577.00,0.0049
2576.00,0.0049
2575.00,0.0048
2574.00,0.0048
2573.00,0.0048
2572.00,0.0047
2571.00,0.0047
2570.00,0.0047
2569.00,0.0047
2568.00,0.0047
2567.00,0.0047
2566.00,0.0047
2565.00,0.0047
2564.00,0.0047
2563.00,0.0047
2562.00,0.0047
2561.00,0.0047
2560.00,0.0046
2559.00,0.0046
2558.00,0.0046
2557.00,0.0046
2556.00,0.0046
2555.00,0.0046
2554.00,0.0046
2553.00,0.0046
2552.00,0.0046
2551.00,0.0045
2550.00,0.0045
2549.00,0.0045
2548.00,0.0045
2547.00,0.0045
2546.00,0.0045
2545.00,0.0045
2544.00,0.0045
2543.00,0.0045
2542.00,0.0045
2541.00,0.0045
2540.00,0.0045
2539.00,0.0045
2538.00,0.0045
2537.00,0.0045
2536.00,0.0044
2535.00,0.0044
2534.00,0.0044
2533.00,0.0044
2532.00,0.0044
2531.00,0.0044
2530.00,0.0044
2529.00,0.0044
2528.00,0.0044
2527.00,0.0044
2526.00,0.0044
2525.00,0.0044
2524.00,0.0044
2523.00,0.0044
2522.00,0.0044
2521.00,0.0044
2520.00,0.0044
2519.00,0.0044
2518.00,0.0044
2517.00,0.0044
2516.00,0.0044
2515.00,0.0044
2514.00,0.0044
2513.00,0.0044
2512.00,0.0044
2511.00,0.0044
2510.00,0.0044
2509.00,0.0044
2508.00,0.0044
2507.00,0.0044
2506.00,0.0044
2505.00,0.0044
2504.00,0.0044
2503.00,0.0043
2502.00,0.0043
2501.00,0.0043
2500.00,0.0043
2499.00,0.0043
2498.00,0.0043
2497.00,0.0043
2496.00,0.0043
2495.00,0.0043
2494.00,0.0043
2493.00,0.0043
2492.00,0.0042
2491.00,0.0042
2490.00,0.0042
2489.00,0.0042
2488.00,0.0042
2487.00,0.0042
2486.00,0.0042
2485.00,0.0042
2484.00,0.0042
2483.00,0.0042
2482.00,0.0042
2481.00,0.0042
2480.00,0.0041
2479.00,0.0041
2478.00,0.0041
2477.00,0.0041
2476.00,0.0041
2475.00,0.0041
2474.00,0.0041
2473.00,0.0041
2472.00,0.0041
2471.00,0.0041
2470.00,0.0041
2469.00,0.0041
2468.00,0.0041
2467.00,0.0041
2466.00,0.0040
2465.00,0.0040
2464.00,0.0040
2463.00,0.0040
2462.00,0.0040
2461.00,0.0040
2460.00,0.0040
2459.00,0.0040
2458.00,0.0040
2457.00,0.0040
2456.00,0.0040
2455.00,0.0040
2454.00,0.0040
2453.00,0.0040
2452.00,0.0039
2451.00,0.0039
2450.00,0.0039
2449.00,0.0039
2448.00,0.0039
2447.00,0.0039
2446.00,0.0039
2445.00,0.0039
2444.00,0.0039
2443.00,0.0039
2442.00,0.0038
2441.00,0.0038
2440.00,0.0038
2439.00,0.0038
2438.00,0.0038
2437.00,0.0038
2436.00,0.0038
2435.00,0.0038
2434.00,0.0038
2433.00,0.0038
2432.00,0.0038
2431.00,0.0038
2430.00,0.0038
2429.00,0.0037
2428.00,0.0037
2427.00,0.0037
2426.00,0.0037
2425.00,0.0037
2424.00,0.0037
2423.00,0.0037
2422.00,0.0036
2421.00,0.0036
2420.00,0.0036
2419.00,0.0036
2418.00,0.0036
2417.00,0.0036
2416.00,0.0036
2415.00,0.0036
2414.00,0.0036
2413.00,0.0035
2412.00,0.0035
2411.00,0.0035
2410.00,0.0035
2409.00,0.0035
2408.00,0.0035
2407.00,0.0034
2406.00,0.0034
2405.00,0.0034
2404.00,0.0034
2403.00,0.0034
2402.00,0.0034
2401.00,0.0034
2400.00,0.0034
2399.00,0.0034
2398.00,0.0034
2397.00,0.0034
2396.00,0.0034
2395.00,0.0034
2394.00,0.0034
2393.00,0.0034
2392.00,0.0033
2391.00,0.0033
2390.00,0.0033
2389.00,0.0033
2388.00,0.0033
2387.00,0.0033
2386.00,0.0032
2385.00,0.0032
2384.00,0.0032
2383.00,0.0032
2382.00,0.0032
2381.00,0.0032
2380.00,0.0032
2379.00,0.0032
2378.00,0.0032
2377.00,0.0032
2376.00,0.0032
2375.00,0.0032
2374.00,0.0032
2373.00,0.0032
2372.00,0.0032
2371.00,0.0032
2370.00,0.0032
2369.00,0.0032
2368.00,0.0032
2367.00,0.0032
2366.00,0.0032
2365.00,0.0032
2364.00,0.0032
2363.00,0.0032
2362.00,0.0032
2361.00,0.0032
2360.00,0.0032
2359.00,0.0032
2358.00,0.0032
2357.00,0.0032
2356.00,0.0032
2355.00,0.0032
2354.00,0.0032
2353.00,0.0032
2352.00,0.0032
2351.00,0.0033
2350.00,0.0033
2349.00,0.0033
2348.00,0.0033
2347.00,0.0033
2346.00,0.0033
2345.00,0.0033
2344.00,0.0033
2343.00,0.0033
2342.00,0.0033
2341.00,0.0033
2340.00,0.0033
2339.00,0.0033
2338.00,0.0033
2337.00,0.0033
2336.00,0.0033
2335.00,0.0033
2334.00,0.0033
2333.00,0.0033
2332.00,0.0033
2331.00,0.0033
2330.00,0.0033
2329.00,0.0034
2328.00,0.0035
2327.00,0.0036
2326.00,0.0036
2325.00,0.0035
2324.00,0.0034
2323.00,0.0034
2322.00,0.0034
2321.00,0.0034
2320.00,0.0034
2319.00,0.0033
2318.00,0.0033
2317.00,0.0033
2316.00,0.0033
2315.00,0.0033
2314.00,0.0033
2313.00,0.0033
2312.00,0.0033
2311.00,0.0033
2310.00,0.0033
2309.00,0.0033
2308.00,0.0032
2307.00,0.0032
2306.00,0.0032
2305.00,0.0032
2304.00,0.0032
2303.00,0.0032
2302.00,0.0032
2301.00,0.0032
2300.00,0.0032
2299.00,0.0032
2298.00,0.0032
2297.00,0.0033
2296.00,0.0033
2295.00,0.0033
2294.00,0.0033
2293.00,0.0033
2292.00,0.0033
2291.00,0.0033
2290.00,0.0033
2289.00,0.0033
2288.00,0.0032
2287.00,0.0032
2286.00,0.0032
2285.00,0.0032
2284.00,0.0032
2283.00,0.0032
2282.00,0.0032
2281.00,0.0032
2280.00,0.0032
2279.00,0.0032
2278.00,0.0032
2277.00,0.0032
2276.00,0.0032
2275.00,0.0031
2274.00,0.0031
2273.00,0.0031
2272.00,0.0031
2271.00,0.0030
2270.00,0.0030
2269.00,0.0031
2268.00,0.0031
2267.00,0.0031
2266.00,0.0031
2265.00,0.0030
2264.00,0.0030
2263.00,0.0030
2262.00,0.0030
2261.00,0.0030
2260.00,0.0030
2259.00,0.0029
2258.00,0.0029
2257.00,0.0029
2256.00,0.0029
2255.00,0.0029
2254.00,0.0029
2253.00,0.0029
2252.00,0.0029
2251.00,0.0030
2250.00,0.0030
2249.00,0.0029
2248.00,0.0029
2247.00,0.0029
2246.00,0.0029
2245.00,0.0029
2244.00,0.0029
2243.00,0.0029
2242.00,0.0029
2241.00,0.0029
2240.00,0.0029
2239.00,0.0029
2238.00,0.0029
2237.00,0.0029
2236.00,0.0029
2235.00,0.0029
2234.00,0.0029
2233.00,0.0029
2232.00,0.0029
2231.00,0.0029
2230.00,0.0029
2229.00,0.0029
2228.00,0.0029
2227.00,0.0029
2226.00,0.0029
2225.00,0.0029
2224.00,0.0029
2223.00,0.0029
2222.00,0.0028
2221.00,0.0028
2220.00,0.0028
2219.00,0.0029
2218.00,0.0029
2217.00,0.0029
2216.00,0.0029
2215.00,0.0030
2214.00,0.0030
2213.00,0.0030
2212.00,0.0030
2211.00,0.0030
2210.00,0.0030
2209.00,0.0030
2208.00,0.0030
2207.00,0.0030
2206.00,0.0030
2205.00,0.0030
2204.00,0.0030
2203.00,0.0030
2202.00,0.0030
2201.00,0.0030
2200.00,0.0031
2199.00,0.0031
2198.00,0.0032
2197.00,0.0032
2196.00,0.0032
2195.00,0.0031
2194.00,0.0030
2193.00,0.0030
2192.00,0.0030
2191.00,0.0030
2190.00,0.0030
2189.00,0.0031
2188.00,0.0031
2187.00,0.0030
2186.00,0.0030
2185.00,0.0029
2184.00,0.0028
2183.00,0.0027
2182.00,0.0027
2181.00,0.0028
2180.00,0.0029
2179.00,0.0029
2178.00,0.0029
2177.00,0.0028
2176.00,0.0029
2175.00,0.0029
2174.00,0.0029
2173.00,0.0030
2172.00,0.0031
2171.00,0.0031
2170.00,0.0031
2169.00,0.0031
2168.00,0.0030
2167.00,0.0029
2166.00,0.0029
2165.00,0.0030
2164.00,0.0030
2163.00,0.0030
2162.00,0.0028
2161.00,0.0024
2160.00,0.0021
2159.00,0.0019
2158.00,0.0020
2157.00,0.0021
2156.00,0.0023
2155.00,0.0024
2154.00,0.0024
2153.00,0.0024
2152.00,0.0025
2151.00,0.0025
2150.00,0.0025
2149.00,0.0024
2148.00,0.0024
2147.00,0.0024
2146.00,0.0024
2145.00,0.0024
2144.00,0.0024
2143.00,0.0024
2142.00,0.0024
2141.00,0.0024
2140.00,0.0024
2139.00,0.0024
2138.00,0.0024
2137.00,0.0024
2136.00,0.0023
2135.00,0.0023
2134.00,0.0024
2133.00,0.0025
2132.00,0.0025
2131.00,0.0026
2130.00,0.0027
2129.00,0.0027
2128.00,0.0027
2127.00,0.0027
2126.00,0.0027
2125.00,0.0027
2124.00,0.0027
2123.00,0.0027
2122.00,0.0027
2121.00,0.0027
2120.00,0.0027
2119.00,0.0028
2118.00,0.0028
2117.00,0.0029
2116.00,0.0029
2115.00,0.0029
2114.00,0.0028
2113.00,0.0028
2112.00,0.0028
2111.00,0.0028
2110.00,0.0028
2109.00,0.0028
2108.00,0.0028
2107.00,0.0028
2106.00,0.0028
2105.00,0.0028
2104.00,0.0028
2103.00,0.0028
2102.00,0.0028
2101.00,0.0028
2100.00,0.0029
2099.00,0.0029
2098.00,0.0029
2097.00,0.0028
2096.00,0.0028
2095.00,0.0028
2094.00,0.0028
2093.00,0.0028
2092.00,0.0028
2091.00,0.0028
2090.00,0.0028
2089.00,0.0028
2088.00,0.0029
2087.00,0.0029
2086.00,0.0029
2085.00,0.0029
2084.00,0.0029
2083.00,0.0028
2082.00,0.0028
2081.00,0.0028
2080.00,0.0028
2079.00,0.0028
2078.00,0.0028
2077.00,0.0028
2076.00,0.0029
2075.00,0.0029
2074.00,0.0028
2073.00,0.0028
2072.00,0.0027
2071.00,0.0027
2070.00,0.0026
2069.00,0.0026
2068.00,0.0026
2067.00,0.0026
2066.00,0.0026
2065.00,0.0026
2064.00,0.0026
2063.00,0.0026
2062.00,0.0026
2061.00,0.0026
2060.00,0.0026
2059.00,0.0026
2058.00,0.0026
2057.00,0.0026
2056.00,0.0025
2055.00,0.0025
2054.00,0.0026
2053.00,0.0026
2052.00,0.0026
2051.00,0.0026
2050.00,0.0025
2049.00,0.0025
2048.00,0.0025
2047.00,0.0025
2046.00,0.0025
2045.00,0.0025
2044.00,0.0025
2043.00,0.0025
2042.00,0.0026
2041.00,0.0026
2040.00,0.0027
2039.00,0.0026
2038.00,0.0025
2037.00,0.0024
2036.00,0.0024
2035.00,0.0024
2034.00,0.0024
2033.00,0.0023
2032.00,0.0024
2031.00,0.0024
2030.00,0.0023
2029.00,0.0024
2028.00,0.0024
2027.00,0.0024
2026.00,0.0024
2025.00,0.0023
2024.00,0.0023
2023.00,0.0024
2022.00,0.0023
2021.00,0.0023
2020.00,0.0022
2019.00,0.0021
2018.00,0.0021
2017.00,0.0021
2016.00,0.0022
2015.00,0.0023
2014.00,0.0024
2013.00,0.0024
2012.00,0.0024
2011.00,0.0024
2010.00,0.0024
2009.00,0.0023
2008.00,0.0023
2007.00,0.0022
2006.00,0.0020
2005.00,0.0020
2004.00,0.0020
2003.00,0.0020
2002.00,0.0020
2001.00,0.0021
2000.00,0.0021
1999.00,0.0022
1998.00,0.0022
1997.00,0.0022
1996.00,0.0022
1995.00,0.0022
1994.00,0.0022
1993.00,0.0021
1992.00,0.0022
1991.00,0.0022
1990.00,0.0022
1989.00,0.0022
1988.00,0.0023
1987.00,0.0023
1986.00,0.0023
1985.00,0.0024
1984.00,0.0025
1983.00,0.0026
1982.00,0.0025
1981.00,0.0024
1980.00,0.0022
1979.00,0.0020
1978.00,0.0019
1977.00,0.0019
1976.00,0.0020
1975.00,0.0021
1974.00,0.0021
1973.00,0.0021
1972.00,0.0021
1971.00,0.0020
1970.00,0.0018
1969.00,0.0018
1968.00,0.0018
1967.00,0.0019
1966.00,0.0020
1965.00,0.0019
1964.00,0.0019
1963.00,0.0018
1962.00,0.0017
1961.00,0.0017
1960.00,0.0017
1959.00,0.0017
1958.00,0.0017
1957.00,0.0017
1956.00,0.0018
1955.00,0.0019
1954.00,0.0018
1953.00,0.0018
1952.00,0.0017
1951.00,0.0017
1950.00,0.0017
1949.00,0.0017
1948.00,0.0018
1947.00,0.0018
1946.00,0.0018
1945.00,0.0017
1944.00,0.0017
1943.00,0.0017
1942.00,0.0017
1941.00,0.0016
1940.00,0.0016
1939.00,0.0016
1938.00,0.0016
1937.00,0.0016
1936.00,0.0017
1935.00,0.0017
1934.00,0.0017
1933.00,0.0017
1932.00,0.0017
1931.00,0.0017
1930.00,0.0017
1929.00,0.0017
1928.00,0.0017
1927.00,0.0016
1926.00,0.0016
1925.00,0.0015
1924.00,0.0016
1923.00,0.0016
1922.00,0.0016
1921.00,0.0016
1920.00,0.0016
1919.00,0.0016
1918.00,0.0016
1917.00,0.0017
1916.00,0.0017
1915.00,0.0018
1914.00,0.0018
1913.00,0.0017
1912.00,0.0017
1911.00,0.0017
1910.00,0.0017
1909.00,0.0018
1908.00,0.0018
1907.00,0.0018
1906.00,0.0018
1905.00,0.0018
1904.00,0.0018
1903.00,0.0018
1902.00,0.0018
1901.00,0.0018
1900.00,0.0018
1899.00,0.0018
1898.00,0.0018
1897.00,0.0018
1896.00,0.0018
1895.00,0.0018
1894.00,0.0018
1893.00,0.0018
1892.00,0.0017
1891.00,0.0017
1890.00,0.0017
1889.00,0.0017
1888.00,0.0018
1887.00,0.0018
1886.00,0.0018
1885.00,0.0018
1884.00,0.0018
1883.00,0.0018
1882.00,0.0018
1881.00,0.0018
1880.00,0.0017
1879.00,0.0017
1878.00,0.0017
1877.00,0.0017
1876.00,0.0017
1875.00,0.0017
1874.00,0.0017
1873.00,0.0016
1872.00,0.0015
1871.00,0.0014
1870.00,0.0014
1869.00,0.0015
1868.00,0.0016
1867.00,0.0016
1866.00,0.0016
1865.00,0.0016
1864.00,0.0016
1863.00,0.0016
1862.00,0.0016
1861.00,0.0016
1860.00,0.0016
1859.00,0.0016
1858.00,0.0016
1857.00,0.0016
1856.00,0.0016
1855.00,0.0016
1854.00,0.0016
1853.00,0.0016
1852.00,0.0016
1851.00,0.0016
1850.00,0.0016
1849.00,0.0015
1848.00,0.0015
1847.00,0.0015
1846.00,0.0015
1845.00,0.0015
1844.00,0.0017
1843.00,0.0017
1842.00,0.0017
1841.00,0.0016
1840.00,0.0016
1839.00,0.0016
1838.00,0.0016
1837.00,0.0016
1836.00,0.0016
1835.00,0.0016
1834.00,0.0015
1833.00,0.0014
1832.00,0.0013
1831.00,0.0013
1830.00,0.0014
1829.00,0.0014
1828.00,0.0015
1827.00,0.0014
1826.00,0.0014
1825.00,0.0014
1824.00,0.0015
1823.00,0.0016
1822.00,0.0016
1821.00,0.0016
1820.00,0.0016
1819.00,0.0015
1818.00,0.0015
1817.00,0.0015
1816.00,0.0015
1815.00,0.0015
1814.00,0.0015
1813.00,0.0015
1812.00,0.0015
1811.00,0.0016
1810.00,0.0016
1809.00,0.0016
1808.00,0.0017
1807.00,0.0016
1806.00,0.0016
1805.00,0.0015
1804.00,0.0014
1803.00,0.0013
1802.00,0.0013
1801.00,0.0014
1800.00,0.0015
1799.00,0.0016
1798.00,0.0017
1797.00,0.0017
1796.00,0.0017
1795.00,0.0017
1794.00,0.0017
1793.00,0.0017
1792.00,0.0018
1791.00,0.0018
1790.00,0.0019
1789.00,0.0019
1788.00,0.0019
1787.00,0.0019
1786.00,0.0019
1785.00,0.0019
1784.00,0.0019
1783.00,0.0020
1782.00,0.0020
1781.00,0.0020
1780.00,0.0021
1779.00,0.0021
1778.00,0.0021
1777.00,0.0021
1776.00,0.0022
1775.00,0.0024
1774.00,0.0026
1773.00,0.0028
1772.00,0.0028
1771.00,0.0026
1770.00,0.0024
1769.00,0.0024
1768.00,0.0024
1767.00,0.0025
1766.00,0.0025
1765.00,0.0025
1764.00,0.0025
1763.00,0.0025
1762.00,0.0025
1761.00,0.0027
1760.00,0.0028
1759.00,0.0028
1758.00,0.0028
1757.00,0.0029
1756.00,0.0031
1755.00,0.0033
1754.00,0.0035
1753.00,0.0037
1752.00,0.0039
1751.00,0.0041
1750.00,0.0041
1749.00,0.0042
1748.00,0.0044
1747.00,0.0045
1746.00,0.0046
1745.00,0.0047
1744.00,0.0048
1743.00,0.0049
1742.00,0.0049
1741.00,0.0050
1740.00,0.0052
1739.00,0.0053
1738.00,0.0053
1737.00,0.0055
1736.00,0.0058
1735.00,0.0062
1734.00,0.0065
1733.00,0.0065
1732.00,0.0062
1731.00,0.0058
1730.00,0.0056
1729.00,0.0056
1728.00,0.0057
1727.00,0.0058
1726.00,0.0058
1725.00,0.0059
1724.00,0.0061
1723.00,0.0063
1722.00,0.0064
1721.00,0.0065
1720.00,0.0070
1719.00,0.0077
1718.00,0.0085
1717.00,0.0090
1716.00,0.0093
1715.00,0.0094
1714.00,0.0096
1713.00,0.0101
1712.00,0.0108
1711.00,0.0116
1710.00,0.0125
1709.00,0.0134
1708.00,0.0145
1707.00,0.0158
1706.00,0.0175
1705.00,0.0194
1704.00,0.0213
1703.00,0.0232
1702.00,0.0250
1701.00,0.0271
1700.00,0.0294
1699.00,0.0316
1698.00,0.0332
1697.00,0.0343
1696.00,0.0350
1695.00,0.0352
1694.00,0.0353
1693.00,0.0355
1692.00,0.0359
1691.00,0.0366
1690.00,0.0373
1689.00,0.0382
1688.00,0.0395
1687.00,0.0410
1686.00,0.0423
1685.00,0.0433
1684.00,0.0439
1683.00,0.0445
1682.00,0.0453
1681.00,0.0463
1680.00,0.0475
1679.00,0.0487
1678.00,0.0499
1677.00,0.0510
1676.00,0.0521
1675.00,0.0533
1674.00,0.0547
1673.00,0.0561
1672.00,0.0575
1671.00,0.0587
1670.00,0.0600
1669.00,0.0613
1668.00,0.0629
1667.00,0.0644
1666.00,0.0659
1665.00,0.0674
1664.00,0.0688
1663.00,0.0701
1662.00,0.0716
1661.00,0.0731
1660.00,0.0748
1659.00,0.0764
1658.00,0.0779
1657.00,0.0796
1656.00,0.0816
1655.00,0.0836
1654.00,0.0849
1653.00,0.0856
1652.00,0.0863
1651.00,0.0871
1650.00,0.0877
1649.00,0.0886
1648.00,0.0895
1647.00,0.0901
1646.00,0.0905
1645.00,0.0911
1644.00,0.0918
1643.00,0.0926
1642.00,0.0933
1641.00,0.0940
1640.00,0.0947
1639.00,0.0957
1638.00,0.0966
1637.00,0.0971
1636.00,0.0970
1635.00,0.0968
1634.00,0.0971
1633.00,0.0977
1632.00,0.0985
1631.00,0.0991
1630.00,0.0995
1629.00,0.0995
1628.00,0.0994
1627.00,0.0994
1626.00,0.0993
1625.00,0.0989
1624.00,0.0979
1623.00,0.0965
1622.00,0.0950
1621.00,0.0940
1620.00,0.0932
1619.00,0.0924
1618.00,0.0907
1617.00,0.0879
1616.00,0.0846
1615.00,0.0816
1614.00,0.0792
1613.00,0.0770
1612.00,0.0747
1611.00,0.0722
1610.00,0.0695
1609.00,0.0669
1608.00,0.0642
1607.00,0.0617
1606.00,0.0593
1605.00,0.0572
1604.00,0.0551
1603.00,0.0531
1602.00,0.0513
1601.00,0.0497
1600.00,0.0482
1599.00,0.0469
1598.00,0.0457
1597.00,0.0446
1596.00,0.0435
1595.00,0.0425
1594.00,0.0415
1593.00,0.0405
1592.00,0.0395
1591.00,0.0387
1590.00,0.0379
1589.00,0.0372
1588.00,0.0366
1587.00,0.0361
1586.00,0.0358
1585.00,0.0356
1584.00,0.0354
1583.00,0.0353
1582.00,0.0353
1581.00,0.0355
1580.00,0.0358
1579.00,0.0365
1578.00,0.0374
1577.00,0.0384
1576.00,0.0390
1575.00,0.0392
1574.00,0.0392
1573.00,0.0395
1572.00,0.0400
1571.00,0.0407
1570.00,0.0416
1569.00,0.0427
1568.00,0.0438
1567.00,0.0449
1566.00,0.0460
1565.00,0.0471
1564.00,0.0484
1563.00,0.0499
1562.00,0.0515
1561.00,0.0528
1560.00,0.0538
1559.00,0.0551
1558.00,0.0564
1557.00,0.0577
1556.00,0.0588
1555.00,0.0600
1554.00,0.0612
1553.00,0.0624
1552.00,0.0635
1551.00,0.0645
1550.00,0.0656
1549.00,0.0669
1548.00,0.0682
1547.00,0.0693
1546.00,0.0703
1545.00,0.0714
1544.00,0.0726
1543.00,0.0739
1542.00,0.0754
1541.00,0.0767
1540.00,0.0777
1539.00,0.0782
1538.00,0.0787
1537.00,0.0792
1536.00,0.0798
1535.00,0.0803
1534.00,0.0808
1533.00,0.0814
1532.00,0.0823
1531.00,0.0833
1530.00,0.0843
1529.00,0.0852
1528.00,0.0859
1527.00,0.0865
1526.00,0.0874
1525.00,0.0884
1524.00,0.0896
1523.00,0.0907
1522.00,0.0916
1521.00,0.0923
1520.00,0.0931
1519.00,0.0940
1518.00,0.0950
1517.00,0.0958
1516.00,0.0965
1515.00,0.0971
1514.00,0.0976
1513.00,0.0977
1512.00,0.0973
1511.00,0.0968
1510.00,0.0967
1509.00,0.0966
1508.00,0.0959
1507.00,0.0940
1506.00,0.0918
1505.00,0.0903
1504.00,0.0893
1503.00,0.0883
1502.00,0.0873
1501.00,0.0860
1500.00,0.0844
1499.00,0.0829
1498.00,0.0814
1497.00,0.0795
1496.00,0.0774
1495.00,0.0754
1494.00,0.0737
1493.00,0.0720
1492.00,0.0702
1491.00,0.0681
1490.00,0.0659
1489.00,0.0639
1488.00,0.0622
1487.00,0.0606
1486.00,0.0592
1485.00,0.0579
1484.00,0.0566
1483.00,0.0553
1482.00,0.0540
1481.00,0.0528
1480.00,0.0518
1479.00,0.0510
1478.00,0.0503
1477.00,0.0498
1476.00,0.0498
1475.00,0.0502
1474.00,0.0506
1473.00,0.0506
1472.00,0.0502
1471.00,0.0495
1470.00,0.0491
1469.00,0.0488
1468.00,0.0486
1467.00,0.0487
1466.00,0.0491
1465.00,0.0497
1464.00,0.0505
1463.00,0.0512
1462.00,0.0515
1461.00,0.0516
1460.00,0.0517
1459.00,0.0520
1458.00,0.0525
1457.00,0.0530
1456.00,0.0535
1455.00,0.0539
1454.00,0.0542
1453.00,0.0546
1452.00,0.0550
1451.00,0.0553
1450.00,0.0555
1449.00,0.0555
1448.00,0.0555
1447.00,0.0553
1446.00,0.0551
1445.00,0.0549
1444.00,0.0545
1443.00,0.0539
1442.00,0.0533
1441.00,0.0527
1440.00,0.0521
1439.00,0.0513
1438.00,0.0503
1437.00,0.0491
1436.00,0.0480
1435.00,0.0471
1434.00,0.0464
1433.00,0.0457
1432.00,0.0449
1431.00,0.0440
1430.00,0.0433
1429.00,0.0428
1428.00,0.0424
1427.00,0.0421
1426.00,0.0419
1425.00,0.0418
1424.00,0.0418
1423.00,0.0419
1422.00,0.0422
1421.00,0.0424
1420.00,0.0425
1419.00,0.0427
1418.00,0.0430
1417.00,0.0434
1416.00,0.0439
1415.00,0.0444
1414.00,0.0448
1413.00,0.0452
1412.00,0.0456
1411.00,0.0460
1410.00,0.0464
1409.00,0.0467
1408.00,0.0470
1407.00,0.0473
1406.00,0.0476
1405.00,0.0479
1404.00,0.0484
1403.00,0.0489
1402.00,0.0494
1401.00,0.0499
1400.00,0.0504
1399.00,0.0510
1398.00,0.0517
1397.00,0.0524
1396.00,0.0530
1395.00,0.0537
1394.00,0.0542
1393.00,0.0547
1392.00,0.0549
1391.00,0.0550
1390.00,0.0551
1389.00,0.0552
1388.00,0.0553
1387.00,0.0555
1386.00,0.0557
1385.00,0.0559
1384.00,0.0561
1383.00,0.0563
1382.00,0.0563
1381.00,0.0560
1380.00,0.0556
1379.00,0.0549
1378.00,0.0543
1377.00,0.0536
1376.00,0.0528
1375.00,0.0521
1374.00,0.0514
1373.00,0.0507
1372.00,0.0501
1371.00,0.0493
1370.00,0.0485
1369.00,0.0476
1368.00,0.0466
1367.00,0.0456
1366.00,0.0447
1365.00,0.0436
1364.00,0.0425
1363.00,0.0415
1362.00,0.0407
1361.00,0.0400
1360.00,0.0395
1359.00,0.0390
1358.00,0.0385
1357.00,0.0381
1356.00,0.0377
1355.00,0.0373
1354.00,0.0370
1353.00,0.0367
1352.00,0.0365
1351.00,0.0363
1350.00,0.0362
1349.00,0.0361
1348.00,0.0361
1347.00,0.0361
1346.00,0.0361
1345.00,0.0362
1344.00,0.0362
1343.00,0.0362
1342.00,0.0363
1341.00,0.0362
1340.00,0.0362
1339.00,0.0361
1338.00,0.0361
1337.00,0.0360
1336.00,0.0360
1335.00,0.0358
1334.00,0.0357
1333.00,0.0355
1332.00,0.0352
1331.00,0.0349
1330.00,0.0346
1329.00,0.0343
1328.00,0.0340
1327.00,0.0336
1326.00,0.0334
1325.00,0.0331
1324.00,0.0328
1323.00,0.0326
1322.00,0.0325
1321.00,0.0324
1320.00,0.0322
1319.00,0.0322
1318.00,0.0322
1317.00,0.0322
1316.00,0.0322
1315.00,0.0322
1314.00,0.0323
1313.00,0.0323
1312.00,0.0324
1311.00,0.0325
1310.00,0.0325
1309.00,0.0326
1308.00,0.0327
1307.00,0.0328
1306.00,0.0328
1305.00,0.0329
1304.00,0.0329
1303.00,0.0330
1302.00,0.0331
1301.00,0.0331
1300.00,0.0332
1299.00,0.0333
1298.00,0.0334
1297.00,0.0335
1296.00,0.0336
1295.00,0.0337
1294.00,0.0339
1293.00,0.0340
1292.00,0.0342
1291.00,0.0345
1290.00,0.0347
1289.00,0.0350
1288.00,0.0353
1287.00,0.0356
1286.00,0.0359
1285.00,0.0362
1284.00,0.0366
1283.00,0.0370
1282.00,0.0374
1281.00,0.0379
1280.00,0.0384
1279.00,0.0390
1278.00,0.0397
1277.00,0.0404
1276.00,0.0412
1275.00,0.0421
1274.00,0.0430
1273.00,0.0439
1272.00,0.0449
1271.00,0.0459
1270.00,0.0469
1269.00,0.0479
1268.00,0.0489
1267.00,0.0498
1266.00,0.0507
1265.00,0.0515
1264.00,0.0521
1263.00,0.0527
1262.00,0.0531
1261.00,0.0535
1260.00,0.0539
1259.00,0.0542
1258.00,0.0546
1257.00,0.0550
1256.00,0.0555
1255.00,0.0560
1254.00,0.0566
1253.00,0.0571
1252.00,0.0576
1251.00,0.0579
1250.00,0.0581
1249.00,0.0581
1248.00,0.0581
1247.00,0.0582
1246.00,0.0583
1245.00,0.0586
1244.00,0.0589
1243.00,0.0593
1242.00,0.0597
1241.00,0.0601
1240.00,0.0605
1239.00,0.0608
1238.00,0.0611
1237.00,0.0613
1236.00,0.0614
1235.00,0.0615
1234.00,0.0615
1233.00,0.0614
1232.00,0.0612
1231.00,0.0609
1230.00,0.0606
1229.00,0.0601
1228.00,0.0596
1227.00,0.0589
1226.00,0.0582
1225.00,0.0575
1224.00,0.0567
1223.00,0.0559
1222.00,0.0550
1221.00,0.0541
1220.00,0.0532
1219.00,0.0522
1218.00,0.0512
1217.00,0.0503
1216.00,0.0493
1215.00,0.0482
1214.00,0.0472
1213.00,0.0462
1212.00,0.0451
1211.00,0.0441
1210.00,0.0431
1209.00,0.0421
1208.00,0.0411
1207.00,0.0401
1206.00,0.0391
1205.00,0.0382
1204.00,0.0373
1203.00,0.0364
1202.00,0.0356
1201.00,0.0349
1200.00,0.0342
1199.00,0.0335
1198.00,0.0330
1197.00,0.0325
1196.00,0.0321
1195.00,0.0318
1194.00,0.0315
1193.00,0.0314
1192.00,0.0313
1191.00,0.0313
1190.00,0.0314
1189.00,0.0315
1188.00,0.0317
1187.00,0.0320
1186.00,0.0324
1185.00,0.0329
1184.00,0.0334
1183.00,0.0340
1182.00,0.0347
1181.00,0.0355
1180.00,0.0363
1179.00,0.0372
1178.00,0.0382
1177.00,0.0392
1176.00,0.0403
1175.00,0.0413
1174.00,0.0423
1173.00,0.0433
1172.00,0.0442
1171.00,0.0449
1170.00,0.0457
1169.00,0.0463
1168.00,0.0468
1167.00,0.0472
1166.00,0.0476
1165.00,0.0480
1164.00,0.0483
1163.00,0.0484
1162.00,0.0485
1161.00,0.0485
1160.00,0.0484
1159.00,0.0484
1158.00,0.0483
1157.00,0.0481
1156.00,0.0479
1155.00,0.0476
1154.00,0.0472
1153.00,0.0468
1152.00,0.0463
1151.00,0.0458
1150.00,0.0452
1149.00,0.0445
1148.00,0.0437
1147.00,0.0429
1146.00,0.0422
1145.00,0.0414
1144.00,0.0407
1143.00,0.0400
1142.00,0.0394
1141.00,0.0389
1140.00,0.0384
1139.00,0.0379
1138.00,0.0375
1137.00,0.0371
1136.00,0.0366
1135.00,0.0362
1134.00,0.0358
1133.00,0.0355
1132.00,0.0353
1131.00,0.0351
1130.00,0.0349
1129.00,0.0347
1128.00,0.0345
1127.00,0.0342
1126.00,0.0340
1125.00,0.0338
1124.00,0.0335
1123.00,0.0333
1122.00,0.0331
1121.00,0.0329
1120.00,0.0326
1119.00,0.0324
1118.00,0.0322
1117.00,0.0320
1116.00,0.0318
1115.00,0.0316
1114.00,0.0315
1113.00,0.0313
1112.00,0.0312
1111.00,0.0311
1110.00,0.0311
1109.00,0.0311
1108.00,0.0311
1107.00,0.0312
1106.00,0.0314
1105.00,0.0315
1104.00,0.0317
1103.00,0.0318
1102.00,0.0320
1101.00,0.0322
1100.00,0.0323
1099.00,0.0325
1098.00,0.0328
1097.00,0.0331
1096.00,0.0335
1095.00,0.0339
1094.00,0.0344
1093.00,0.0349
1092.00,0.0354
1091.00,0.0359
1090.00,0.0365
1089.00,0.0369
1088.00,0.0373
1087.00,0.0377
1086.00,0.0381
1085.00,0.0385
1084.00,0.0389
1083.00,0.0393
1082.00,0.0398
1081.00,0.0402
1080.00,0.0405
1079.00,0.0408
1078.00,0.0412
1077.00,0.0415
1076.00,0.0417
1075.00,0.0420
1074.00,0.0423
1073.00,0.0426
1072.00,0.0426
1071.00,0.0426
1070.00,0.0424
1069.00,0.0421
1068.00,0.0417
1067.00,0.0412
1066.00,0.0408
1065.00,0.0403
1064.00,0.0399
1063.00,0.0396
1062.00,0.0393
1061.00,0.0390
1060.00,0.0386
1059.00,0.0381
1058.00,0.0377
1057.00,0.0371
1056.00,0.0365
1055.00,0.0359
1054.00,0.0353
1053.00,0.0347
1052.00,0.0341
1051.00,0.0335
1050.00,0.0329
1049.00,0.0323
1048.00,0.0317
1047.00,0.0311
1046.00,0.0305
1045.00,0.0299
1044.00,0.0293
1043.00,0.0288
1042.00,0.0283
1041.00,0.0278
1040.00,0.0274
1039.00,0.0270
1038.00,0.0266
1037.00,0.0263
1036.00,0.0260
1035.00,0.0258
1034.00,0.0256
1033.00,0.0254
1032.00,0.0252
1031.00,0.0250
1030.00,0.0249
1029.00,0.0247
1028.00,0.0246
1027.00,0.0245
1026.00,0.0244
1025.00,0.0245
1024.00,0.0245
1023.00,0.0246
1022.00,0.0249
1021.00,0.0251
1020.00,0.0254
1019.00,0.0257
1018.00,0.0261
1017.00,0.0264
1016.00,0.0265
1015.00,0.0266
1014.00,0.0266
1013.00,0.0264
1012.00,0.0262
1011.00,0.0259
1010.00,0.0256
1009.00,0.0253
1008.00,0.0250
1007.00,0.0248
1006.00,0.0246
1005.00,0.0244
1004.00,0.0242
1003.00,0.0241
1002.00,0.0240
1001.00,0.0239
1000.00,0.0237
999.00,0.0235
998.00,0.0233
997.00,0.0230
996.00,0.0227
995.00,0.0223
994.00,0.0219
993.00,0.0215
992.00,0.0211
991.00,0.0207
990.00,0.0204
989.00,0.0202
988.00,0.0201
987.00,0.0200
986.00,0.0201
985.00,0.0203
984.00,0.0205
983.00,0.0209
982.00,0.0214
981.00,0.0220
980.00,0.0226
979.00,0.0232
978.00,0.0240
977.00,0.0249
976.00,0.0257
975.00,0.0266
974.00,0.0275
973.00,0.0283
972.00,0.0291
971.00,0.0298
970.00,0.0304
969.00,0.0308
968.00,0.0311
967.00,0.0313
966.00,0.0313
965.00,0.0311
964.00,0.0308
963.00,0.0305
962.00,0.0303
961.00,0.0304
960.00,0.0307
959.00,0.0311
958.00,0.0317
957.00,0.0320
956.00,0.0320
955.00,0.0320
954.00,0.0319
953.00,0.0318
952.00,0.0314
951.00,0.0310
950.00,0.0305
949.00,0.0300
948.00,0.0295
947.00,0.0291
946.00,0.0288
945.00,0.0286
944.00,0.0283
943.00,0.0280
942.00,0.0277
941.00,0.0273
940.00,0.0268
939.00,0.0263
938.00,0.0257
937.00,0.0250
936.00,0.0243
935.00,0.0235
934.00,0.0228
933.00,0.0221
932.00,0.0213
931.00,0.0206
930.00,0.0200
929.00,0.0194
928.00,0.0188
927.00,0.0182
926.00,0.0177
925.00,0.0171
924.00,0.0166
923.00,0.0161
922.00,0.0157
921.00,0.0153
920.00,0.0149
919.00,0.0145
918.00,0.0142
917.00,0.0138
916.00,0.0135
915.00,0.0132
914.00,0.0130
913.00,0.0128
912.00,0.0126
911.00,0.0125
910.00,0.0124
909.00,0.0123
908.00,0.0121
907.00,0.0120
906.00,0.0120
905.00,0.0119
904.00,0.0118
903.00,0.0118
902.00,0.0117
901.00,0.0117
900.00,0.0116
899.00,0.0116
898.00,0.0116
897.00,0.0116
896.00,0.0115
895.00,0.0115
894.00,0.0115
893.00,0.0114
892.00,0.0114
891.00,0.0114
890.00,0.0114
889.00,0.0114
888.00,0.0114
887.00,0.0113
886.00,0.0113
885.00,0.0114
884.00,0.0113
883.00,0.0113
882.00,0.0114
881.00,0.0114
880.00,0.0115
879.00,0.0115
878.00,0.0116
877.00,0.0117
876.00,0.0117
875.00,0.0118
874.00,0.0119
873.00,0.0119
872.00,0.0119
871.00,0.0119
870.00,0.0120
869.00,0.0120
868.00,0.0120
867.00,0.0121
866.00,0.0123
865.00,0.0124
864.00,0.0125
863.00,0.0126
862.00,0.0128
861.00,0.0131
860.00,0.0132
859.00,0.0135
858.00,0.0138
857.00,0.0141
856.00,0.0143
855.00,0.0146
854.00,0.0148
853.00,0.0151
852.00,0.0152
851.00,0.0153
850.00,0.0154
849.00,0.0154
848.00,0.0154
847.00,0.0154
846.00,0.0155
845.00,0.0155
844.00,0.0156
843.00,0.0157
842.00,0.0158
841.00,0.0161
840.00,0.0163
839.00,0.0165
838.00,0.0168
837.00,0.0172
836.00,0.0175
835.00,0.0179
834.00,0.0183
833.00,0.0187
832.00,0.0190
831.00,0.0193
830.00,0.0195
829.00,0.0197
828.00,0.0197
827.00,0.0197
826.00,0.0197
825.00,0.0197
824.00,0.0197
823.00,0.0197
822.00,0.0199
821.00,0.0200
820.00,0.0200
819.00,0.0201
818.00,0.0202
817.00,0.0204
816.00,0.0205
815.00,0.0206
814.00,0.0207
813.00,0.0207
812.00,0.0208
811.00,0.0209
810.00,0.0210
809.00,0.0211
808.00,0.0212
807.00,0.0213
806.00,0.0215
805.00,0.0216
804.00,0.0217
803.00,0.0217
802.00,0.0217
801.00,0.0218
800.00,0.0217
799.00,0.0216
798.00,0.0216
797.00,0.0216
796.00,0.0215
795.00,0.0215
794.00,0.0216
793.00,0.0217
792.00,0.0217
791.00,0.0217
790.00,0.0218
789.00,0.0219
788.00,0.0220
787.00,0.0221
786.00,0.0222
785.00,0.0224
784.00,0.0224
783.00,0.0226
782.00,0.0227
781.00,0.0229
780.00,0.0231
779.00,0.0232
778.00,0.0235
777.00,0.0237
776.00,0.0238
775.00,0.0240
774.00,0.0243
773.00,0.0245
772.00,0.0247
771.00,0.0249
770.00,0.0252
769.00,0.0255
768.00,0.0257
767.00,0.0258
766.00,0.0261
765.00,0.0262
764.00,0.0264
763.00,0.0265
762.00,0.0268
761.00,0.0270
760.00,0.0272
759.00,0.0273
758.00,0.0276
757.00,0.0278
756.00,0.0280
755.00,0.0283
754.00,0.0286
753.00,0.0288
752.00,0.0291
751.00,0.0293
750.00,0.0296
749.00,0.0300
748.00,0.0302
747.00,0.0305
746.00,0.0309
745.00,0.0312
744.00,0.0315
743.00,0.0318
742.00,0.0322
741.00,0.0326
740.00,0.0329
739.00,0.0333
738.00,0.0337
737.00,0.0341
736.00,0.0345
735.00,0.0350
734.00,0.0355
733.00,0.0360
732.00,0.0365
731.00,0.0369
730.00,0.0375
729.00,0.0381
728.00,0.0385
727.00,0.0390
726.00,0.0396
725.00,0.0401
724.00,0.0406
723.00,0.0410
722.00,0.0415
721.00,0.0419
720.00,0.0422
719.00,0.0425
718.00,0.0429
717.00,0.0431
716.00,0.0434
715.00,0.0437
714.00,0.0440
713.00,0.0444
712.00,0.0447
711.00,0.0450
710.00,0.0454
709.00,0.0458
708.00,0.0461
707.00,0.0464
706.00,0.0468
705.00,0.0472
704.00,0.0475
703.00,0.0479
702.00,0.0483
701.00,0.0486
700.00,0.0489
699.00,0.0491
698.00,0.0493
697.00,0.0495
696.00,0.0497
695.00,0.0498
694.00,0.0501
693.00,0.0503
692.00,0.0504
691.00,0.0505
690.00,0.0508
689.00,0.0510
688.00,0.0512
687.00,0.0513
686.00,0.0515
685.00,0.0517
684.00,0.0518
683.00,0.0520
682.00,0.0522
681.00,0.0524
680.00,0.0525
679.00,0.0526
678.00,0.0528
677.00,0.0529
676.00,0.0530
675.00,0.0531
674.00,0.0533
673.00,0.0534
672.00,0.0535
671.00,0.0537
670.00,0.0540
669.00,0.0542
668.00,0.0542
667.00,0.0541
666.00,0.0542
665.00,0.0544
664.00,0.0546
663.00,0.0547
662.00,0.0549
661.00,0.0551
660.00,0.0552
659.00,0.0553
658.00,0.0555
657.00,0.0557
656.00,0.0559
655.00,0.0560
654.00,0.0562
653.00,0.0564
652.00,0.0564
651.00,0.0565
650.00,0.0566
649.00,0.0568
648.00,0.0569
647.00,0.0570
646.00,0.0573
645.00,0.0575
644.00,0.0575
643.00,0.0576
642.00,0.0578
641.00,0.0579
640.00,0.0580
639.00,0.0580
638.00,0.0582
637.00,0.0583
636.00,0.0583
635.00,0.0584
634.00,0.0585
633.00,0.0586
632.00,0.0587
631.00,0.0587
630.00,0.0588
629.00,0.0588
628.00,0.0588
627.00,0.0588
626.00,0.0589
625.00,0.0590
624.00,0.0590
623.00,0.0591
622.00,0.0592
621.00,0.0594
620.00,0.0594
619.00,0.0595
618.00,0.0598
617.00,0.0600
616.00,0.0601
615.00,0.0602
614.00,0.0603
613.00,0.0604
612.00,0.0603
611.00,0.0602
610.00,0.0603
609.00,0.0602
608.00,0.0600
607.00,0.0599
606.00,0.0598
605.00,0.0597
604.00,0.0595
603.00,0.0594
602.00,0.0594
601.00,0.0593
600.00,0.0592
599.00,0.0590
598.00,0.0590
597.00,0.0590
596.00,0.0588
595.00,0.0588
594.00,0.0588
593.00,0.0589
592.00,0.0588
591.00,0.0588
590.00,0.0589
589.00,0.0591
588.00,0.0591
587.00,0.0592
586.00,0.0594
585.00,0.0595
584.00,0.0595
583.00,0.0595
582.00,0.0597
581.00,0.0599
580.00,0.0600
579.00,0.0601
578.00,0.0603
577.00,0.0605
576.00,0.0606
575.00,0.0608
574.00,0.0612
573.00,0.0615
572.00,0.0616
571.00,0.0618
570.00,0.0621
569.00,0.0624
568.00,0.0626
567.00,0.0629
566.00,0.0633
565.00,0.0637
564.00,0.0640
563.00,0.0643
562.00,0.0648
561.00,0.0654
560.00,0.0658
559.00,0.0662
558.00,0.0668
557.00,0.0673
556.00,0.0677
555.00,0.0680
554.00,0.0684
553.00,0.0687
552.00,0.0688
551.00,0.0689
550.00,0.0691
549.00,0.0692
548.00,0.0692
547.00,0.0691
546.00,0.0692
545.00,0.0692
544.00,0.0690
543.00,0.0690
542.00,0.0690
541.00,0.0690
540.00,0.0688
539.00,0.0685
538.00,0.0685
537.00,0.0684
536.00,0.0682
535.00,0.0680
534.00,0.0681
533.00,0.0680
532.00,0.0678
531.00,0.0676
530.00,0.0676
529.00,0.0676
528.00,0.0675
527.00,0.0673
526.00,0.0674
525.00,0.0674
524.00,0.0673
523.00,0.0672
522.00,0.0673
521.00,0.0673
520.00,0.0672
519.00,0.0671
518.00,0.0672
517.00,0.0673
516.00,0.0671
515.00,0.0670
514.00,0.0671
513.00,0.0670
512.00,0.0668
511.00,0.0665
510.00,0.0666
509.00,0.0667
508.00,0.0665
507.00,0.0664
506.00,0.0664
505.00,0.0664
504.00,0.0661
503.00,0.0659
502.00,0.0660
501.00,0.0662
500.00,0.0661
499.00,0.0660
498.00,0.0661
497.00,0.0661
496.00,0.0660
495.00,0.0660
494.00,0.0663
493.00,0.0666
492.00,0.0665
491.00,0.0664
490.00,0.0664
489.00,0.0663
488.00,0.0658
487.00,0.0656
486.00,0.0657
485.00,0.0658
484.00,0.0655
483.00,0.0653
482.00,0.0654
481.00,0.0654
480.00,0.0652
479.00,0.0650
478.00,0.0652
477.00,0.0654
476.00,0.0651
475.00,0.0648
474.00,0.0648
473.00,0.0648
472.00,0.0643
471.00,0.0639
470.00,0.0639
469.00,0.0638
468.00,0.0635
467.00,0.0632
466.00,0.0633
465.00,0.0633
464.00,0.0629
463.00,0.0625
462.00,0.0626
461.00,0.0627
460.00,0.0624
459.00,0.0621
458.00,0.0622
457.00,0.0622
456.00,0.0616
455.00,0.0613
454.00,0.0614
453.00,0.0615
452.00,0.0610
451.00,0.0606
450.00,0.0606
449.00,0.0605
448.00,0.0601
447.00,0.0597
446.00,0.0596
445.00,0.0594
444.00,0.0588
443.00,0.0583
442.00,0.0585
441.00,0.0586
440.00,0.0581
439.00,0.0578
438.00,0.0580
437.00,0.0582
436.00,0.0579
435.00,0.0576
434.00,0.0579
433.00,0.0581
432.00,0.0579
431.00,0.0578
430.00,0.0583
429.00,0.0587
428.00,0.0585
427.00,0.0583
426.00,0.0588
425.00,0.0591
424.00,0.0586
423.00,0.0582
422.00,0.0587
421.00,0.0591
420.00,0.0584
419.00,0.0575
418.00,0.0575
417.00,0.0573
416.00,0.0563
415.00,0.0556
414.00,0.0559
413.00,0.0561
412.00,0.0553
411.00,0.0545
410.00,0.0546
409.00,0.0544
408.00,0.0533
407.00,0.0526
406.00,0.0534
405.00,0.0541
404.00,0.0533
403.00,0.0527
402.00,0.0536
401.00,0.0545
400.00,0.0537
