Created as New Dataset,Sample 206 By YargerLab Date Monday, June 10 2024
cm-1,A
4000.00,0.0039
3999.00,0.0039
3998.00,0.0039
3997.00,0.0039
3996.00,0.0039
3995.00,0.0039
3994.00,0.0039
3993.00,0.0039
3992.00,0.0039
3991.00,0.0039
3990.00,0.0039
3989.00,0.0039
3988.00,0.0039
3987.00,0.0039
3986.00,0.0039
3985.00,0.0039
3984.00,0.0039
3983.00,0.0039
3982.00,0.0039
3981.00,0.0039
3980.00,0.0039
3979.00,0.0039
3978.00,0.0039
3977.00,0.0039
3976.00,0.0039
3975.00,0.0039
3974.00,0.0039
3973.00,0.0039
3972.00,0.0039
3971.00,0.0039
3970.00,0.0039
3969.00,0.0039
3968.00,0.0039
3967.00,0.0039
3966.00,0.0039
3965.00,0.0039
3964.00,0.0039
3963.00,0.0039
3962.00,0.0039
3961.00,0.0039
3960.00,0.0039
3959.00,0.0039
3958.00,0.0039
3957.00,0.0039
3956.00,0.0039
3955.00,0.0039
3954.00,0.0039
3953.00,0.0039
3952.00,0.0039
3951.00,0.0039
3950.00,0.0039
3949.00,0.0039
3948.00,0.0039
3947.00,0.0039
3946.00,0.0039
3945.00,0.0039
3944.00,0.0039
3943.00,0.0039
3942.00,0.0039
3941.00,0.0039
3940.00,0.0039
3939.00,0.0039
3938.00,0.0039
3937.00,0.0039
3936.00,0.0039
3935.00,0.0039
3934.00,0.0040
3933.00,0.0040
3932.00,0.0040
3931.00,0.0039
3930.00,0.0039
3929.00,0.0039
3928.00,0.0039
3927.00,0.0039
3926.00,0.0039
3925.00,0.0039
3924.00,0.0039
3923.00,0.0039
3922.00,0.0039
3921.00,0.0039
3920.00,0.0040
3919.00,0.0040
3918.00,0.0040
3917.00,0.0040
3916.00,0.0039
3915.00,0.0039
3914.00,0.0039
3913.00,0.0039
3912.00,0.0039
3911.00,0.0039
3910.00,0.0039
3909.00,0.0039
3908.00,0.0039
3907.00,0.0039
3906.00,0.0039
3905.00,0.0040
3904.00,0.0040
3903.00,0.0041
3902.00,0.0041
3901.00,0.0041
3900.00,0.0041
3899.00,0.0040
3898.00,0.0040
3897.00,0.0040
3896.00,0.0040
3895.00,0.0040
3894.00,0.0039
3893.00,0.0039
3892.00,0.0039
3891.00,0.0039
3890.00,0.0039
3889.00,0.0040
3888.00,0.0040
3887.00,0.0040
3886.00,0.0040
3885.00,0.0040
3884.00,0.0040
3883.00,0.0040
3882.00,0.0040
3881.00,0.0040
3880.00,0.0040
3879.00,0.0040
3878.00,0.0040
3877.00,0.0040
3876.00,0.0040
3875.00,0.0040
3874.00,0.0040
3873.00,0.0040
3872.00,0.0040
3871.00,0.0041
3870.00,0.0041
3869.00,0.0041
3868.00,0.0040
3867.00,0.0041
3866.00,0.0041
3865.00,0.0040
3864.00,0.0040
3863.00,0.0040
3862.00,0.0040
3861.00,0.0040
3860.00,0.0040
3859.00,0.0040
3858.00,0.0039
3857.00,0.0039
3856.00,0.0039
3855.00,0.0039
3854.00,0.0039
3853.00,0.0039
3852.00,0.0039
3851.00,0.0040
3850.00,0.0040
3849.00,0.0040
3848.00,0.0040
3847.00,0.0040
3846.00,0.0040
3845.00,0.0040
3844.00,0.0040
3843.00,0.0040
3842.00,0.0040
3841.00,0.0041
3840.00,0.0041
3839.00,0.0040
3838.00,0.0040
3837.00,0.0040
3836.00,0.0040
3835.00,0.0040
3834.00,0.0040
3833.00,0.0040
3832.00,0.0040
3831.00,0.0040
3830.00,0.0040
3829.00,0.0040
3828.00,0.0040
3827.00,0.0040
3826.00,0.0040
3825.00,0.0040
3824.00,0.0040
3823.00,0.0040
3822.00,0.0040
3821.00,0.0040
3820.00,0.0040
3819.00,0.0040
3818.00,0.0040
3817.00,0.0040
3816.00,0.0040
3815.00,0.0039
3814.00,0.0039
3813.00,0.0039
3812.00,0.0039
3811.00,0.0039
3810.00,0.0038
3809.00,0.0038
3808.00,0.0039
3807.00,0.0039
3806.00,0.0039
3805.00,0.0039
3804.00,0.0040
3803.00,0.0040
3802.00,0.0040
3801.00,0.0039
3800.00,0.0039
3799.00,0.0039
3798.00,0.0039
3797.00,0.0039
3796.00,0.0039
3795.00,0.0038
3794.00,0.0038
3793.00,0.0038
3792.00,0.0037
3791.00,0.0037
3790.00,0.0037
3789.00,0.0037
3788.00,0.0037
3787.00,0.0037
3786.00,0.0037
3785.00,0.0037
3784.00,0.0037
3783.00,0.0037
3782.00,0.0038
3781.00,0.0038
3780.00,0.0038
3779.00,0.0037
3778.00,0.0037
3777.00,0.0037
3776.00,0.0037
3775.00,0.0037
3774.00,0.0037
3773.00,0.0037
3772.00,0.0037
3771.00,0.0037
3770.00,0.0037
3769.00,0.0038
3768.00,0.0038
3767.00,0.0038
3766.00,0.0038
3765.00,0.0037
3764.00,0.0037
3763.00,0.0037
3762.00,0.0038
3761.00,0.0038
3760.00,0.0038
3759.00,0.0038
3758.00,0.0038
3757.00,0.0038
3756.00,0.0038
3755.00,0.0039
3754.00,0.0039
3753.00,0.0039
3752.00,0.0039
3751.00,0.0040
3750.00,0.0040
3749.00,0.0040
3748.00,0.0040
3747.00,0.0040
3746.00,0.0040
3745.00,0.0040
3744.00,0.0040
3743.00,0.0039
3742.00,0.0040
3741.00,0.0040
3740.00,0.0041
3739.00,0.0041
3738.00,0.0041
3737.00,0.0041
3736.00,0.0041
3735.00,0.0040
3734.00,0.0040
3733.00,0.0040
3732.00,0.0040
3731.00,0.0039
3730.00,0.0039
3729.00,0.0039
3728.00,0.0039
3727.00,0.0039
3726.00,0.0039
3725.00,0.0039
3724.00,0.0039
3723.00,0.0038
3722.00,0.0038
3721.00,0.0038
3720.00,0.0038
3719.00,0.0037
3718.00,0.0038
3717.00,0.0038
3716.00,0.0038
3715.00,0.0038
3714.00,0.0038
3713.00,0.0039
3712.00,0.0039
3711.00,0.0039
3710.00,0.0039
3709.00,0.0039
3708.00,0.0038
3707.00,0.0038
3706.00,0.0038
3705.00,0.0038
3704.00,0.0038
3703.00,0.0038
3702.00,0.0038
3701.00,0.0038
3700.00,0.0038
3699.00,0.0038
3698.00,0.0038
3697.00,0.0038
3696.00,0.0039
3695.00,0.0039
3694.00,0.0039
3693.00,0.0040
3692.00,0.0041
3691.00,0.0041
3690.00,0.0042
3689.00,0.0043
3688.00,0.0045
3687.00,0.0046
3686.00,0.0047
3685.00,0.0048
3684.00,0.0049
3683.00,0.0051
3682.00,0.0053
3681.00,0.0055
3680.00,0.0057
3679.00,0.0059
3678.00,0.0061
3677.00,0.0064
3676.00,0.0067
3675.00,0.0069
3674.00,0.0071
3673.00,0.0073
3672.00,0.0075
3671.00,0.0076
3670.00,0.0076
3669.00,0.0077
3668.00,0.0077
3667.00,0.0078
3666.00,0.0079
3665.00,0.0079
3664.00,0.0080
3663.00,0.0081
3662.00,0.0082
3661.00,0.0082
3660.00,0.0083
3659.00,0.0084
3658.00,0.0084
3657.00,0.0085
3656.00,0.0085
3655.00,0.0085
3654.00,0.0085
3653.00,0.0085
3652.00,0.0086
3651.00,0.0086
3650.00,0.0086
3649.00,0.0086
3648.00,0.0086
3647.00,0.0085
3646.00,0.0084
3645.00,0.0082
3644.00,0.0081
3643.00,0.0080
3642.00,0.0078
3641.00,0.0077
3640.00,0.0077
3639.00,0.0077
3638.00,0.0077
3637.00,0.0077
3636.00,0.0075
3635.00,0.0073
3634.00,0.0070
3633.00,0.0067
3632.00,0.0065
3631.00,0.0065
3630.00,0.0064
3629.00,0.0064
3628.00,0.0064
3627.00,0.0064
3626.00,0.0064
3625.00,0.0064
3624.00,0.0063
3623.00,0.0063
3622.00,0.0063
3621.00,0.0062
3620.00,0.0062
3619.00,0.0063
3618.00,0.0063
3617.00,0.0064
3616.00,0.0064
3615.00,0.0064
3614.00,0.0064
3613.00,0.0064
3612.00,0.0064
3611.00,0.0065
3610.00,0.0065
3609.00,0.0065
3608.00,0.0065
3607.00,0.0065
3606.00,0.0065
3605.00,0.0065
3604.00,0.0065
3603.00,0.0066
3602.00,0.0066
3601.00,0.0066
3600.00,0.0067
3599.00,0.0067
3598.00,0.0068
3597.00,0.0068
3596.00,0.0069
3595.00,0.0069
3594.00,0.0069
3593.00,0.0070
3592.00,0.0070
3591.00,0.0071
3590.00,0.0071
3589.00,0.0072
3588.00,0.0072
3587.00,0.0073
3586.00,0.0074
3585.00,0.0074
3584.00,0.0074
3583.00,0.0074
3582.00,0.0074
3581.00,0.0075
3580.00,0.0075
3579.00,0.0076
3578.00,0.0076
3577.00,0.0077
3576.00,0.0077
3575.00,0.0078
3574.00,0.0078
3573.00,0.0079
3572.00,0.0080
3571.00,0.0081
3570.00,0.0081
3569.00,0.0082
3568.00,0.0083
3567.00,0.0084
3566.00,0.0084
3565.00,0.0085
3564.00,0.0086
3563.00,0.0086
3562.00,0.0086
3561.00,0.0087
3560.00,0.0087
3559.00,0.0087
3558.00,0.0088
3557.00,0.0088
3556.00,0.0089
3555.00,0.0089
3554.00,0.0089
3553.00,0.0090
3552.00,0.0091
3551.00,0.0092
3550.00,0.0092
3549.00,0.0093
3548.00,0.0094
3547.00,0.0094
3546.00,0.0095
3545.00,0.0096
3544.00,0.0096
3543.00,0.0097
3542.00,0.0097
3541.00,0.0097
3540.00,0.0098
3539.00,0.0098
3538.00,0.0098
3537.00,0.0099
3536.00,0.0100
3535.00,0.0100
3534.00,0.0101
3533.00,0.0101
3532.00,0.0102
3531.00,0.0102
3530.00,0.0103
3529.00,0.0103
3528.00,0.0104
3527.00,0.0105
3526.00,0.0106
3525.00,0.0106
3524.00,0.0107
3523.00,0.0107
3522.00,0.0107
3521.00,0.0107
3520.00,0.0108
3519.00,0.0108
3518.00,0.0108
3517.00,0.0109
3516.00,0.0109
3515.00,0.0110
3514.00,0.0111
3513.00,0.0111
3512.00,0.0111
3511.00,0.0112
3510.00,0.0112
3509.00,0.0113
3508.00,0.0113
3507.00,0.0114
3506.00,0.0115
3505.00,0.0115
3504.00,0.0116
3503.00,0.0116
3502.00,0.0117
3501.00,0.0118
3500.00,0.0118
3499.00,0.0119
3498.00,0.0119
3497.00,0.0119
3496.00,0.0120
3495.00,0.0120
3494.00,0.0121
3493.00,0.0121
3492.00,0.0122
3491.00,0.0122
3490.00,0.0122
3489.00,0.0123
3488.00,0.0123
3487.00,0.0124
3486.00,0.0125
3485.00,0.0125
3484.00,0.0126
3483.00,0.0126
3482.00,0.0127
3481.00,0.0128
3480.00,0.0128
3479.00,0.0129
3478.00,0.0129
3477.00,0.0129
3476.00,0.0130
3475.00,0.0130
3474.00,0.0131
3473.00,0.0131
3472.00,0.0132
3471.00,0.0132
3470.00,0.0133
3469.00,0.0133
3468.00,0.0133
3467.00,0.0134
3466.00,0.0134
3465.00,0.0135
3464.00,0.0135
3463.00,0.0135
3462.00,0.0136
3461.00,0.0136
3460.00,0.0137
3459.00,0.0137
3458.00,0.0138
3457.00,0.0138
3456.00,0.0138
3455.00,0.0139
3454.00,0.0139
3453.00,0.0140
3452.00,0.0140
3451.00,0.0141
3450.00,0.0142
3449.00,0.0142
3448.00,0.0143
3447.00,0.0143
3446.00,0.0144
3445.00,0.0144
3444.00,0.0145
3443.00,0.0145
3442.00,0.0146
3441.00,0.0147
3440.00,0.0147
3439.00,0.0148
3438.00,0.0148
3437.00,0.0149
3436.00,0.0149
3435.00,0.0150
3434.00,0.0151
3433.00,0.0151
3432.00,0.0152
3431.00,0.0153
3430.00,0.0154
3429.00,0.0154
3428.00,0.0155
3427.00,0.0156
3426.00,0.0156
3425.00,0.0157
3424.00,0.0158
3423.00,0.0159
3422.00,0.0159
3421.00,0.0160
3420.00,0.0161
3419.00,0.0162
3418.00,0.0163
3417.00,0.0163
3416.00,0.0164
3415.00,0.0165
3414.00,0.0166
3413.00,0.0167
3412.00,0.0167
3411.00,0.0168
3410.00,0.0169
3409.00,0.0170
3408.00,0.0170
3407.00,0.0171
3406.00,0.0172
3405.00,0.0173
3404.00,0.0173
3403.00,0.0174
3402.00,0.0175
3401.00,0.0176
3400.00,0.0177
3399.00,0.0177
3398.00,0.0178
3397.00,0.0179
3396.00,0.0180
3395.00,0.0180
3394.00,0.0181
3393.00,0.0182
3392.00,0.0183
3391.00,0.0183
3390.00,0.0184
3389.00,0.0185
3388.00,0.0186
3387.00,0.0187
3386.00,0.0188
3385.00,0.0189
3384.00,0.0189
3383.00,0.0190
3382.00,0.0191
3381.00,0.0192
3380.00,0.0193
3379.00,0.0194
3378.00,0.0195
3377.00,0.0196
3376.00,0.0197
3375.00,0.0198
3374.00,0.0199
3373.00,0.0200
3372.00,0.0201
3371.00,0.0202
3370.00,0.0203
3369.00,0.0204
3368.00,0.0205
3367.00,0.0207
3366.00,0.0208
3365.00,0.0210
3364.00,0.0211
3363.00,0.0213
3362.00,0.0214
3361.00,0.0215
3360.00,0.0217
3359.00,0.0218
3358.00,0.0220
3357.00,0.0221
3356.00,0.0223
3355.00,0.0224
3354.00,0.0226
3353.00,0.0227
3352.00,0.0229
3351.00,0.0231
3350.00,0.0232
3349.00,0.0234
3348.00,0.0236
3347.00,0.0238
3346.00,0.0240
3345.00,0.0242
3344.00,0.0244
3343.00,0.0246
3342.00,0.0248
3341.00,0.0250
3340.00,0.0252
3339.00,0.0254
3338.00,0.0256
3337.00,0.0258
3336.00,0.0261
3335.00,0.0263
3334.00,0.0266
3333.00,0.0268
3332.00,0.0271
3331.00,0.0273
3330.00,0.0275
3329.00,0.0278
3328.00,0.0280
3327.00,0.0282
3326.00,0.0285
3325.00,0.0288
3324.00,0.0290
3323.00,0.0293
3322.00,0.0296
3321.00,0.0299
3320.00,0.0301
3319.00,0.0304
3318.00,0.0307
3317.00,0.0310
3316.00,0.0313
3315.00,0.0315
3314.00,0.0318
3313.00,0.0321
3312.00,0.0323
3311.00,0.0326
3310.00,0.0328
3309.00,0.0330
3308.00,0.0333
3307.00,0.0335
3306.00,0.0338
3305.00,0.0341
3304.00,0.0344
3303.00,0.0347
3302.00,0.0350
3301.00,0.0352
3300.00,0.0354
3299.00,0.0356
3298.00,0.0358
3297.00,0.0359
3296.00,0.0361
3295.00,0.0363
3294.00,0.0364
3293.00,0.0365
3292.00,0.0367
3291.00,0.0368
3290.00,0.0370
3289.00,0.0371
3288.00,0.0371
3287.00,0.0371
3286.00,0.0372
3285.00,0.0371
3284.00,0.0371
3283.00,0.0371
3282.00,0.0370
3281.00,0.0370
3280.00,0.0369
3279.00,0.0367
3278.00,0.0366
3277.00,0.0364
3276.00,0.0362
3275.00,0.0360
3274.00,0.0358
3273.00,0.0356
3272.00,0.0353
3271.00,0.0351
3270.00,0.0349
3269.00,0.0347
3268.00,0.0345
3267.00,0.0343
3266.00,0.0340
3265.00,0.0338
3264.00,0.0335
3263.00,0.0332
3262.00,0.0329
3261.00,0.0327
3260.00,0.0324
3259.00,0.0321
3258.00,0.0319
3257.00,0.0316
3256.00,0.0313
3255.00,0.0311
3254.00,0.0309
3253.00,0.0307
3252.00,0.0305
3251.00,0.0302
3250.00,0.0300
3249.00,0.0297
3248.00,0.0295
3247.00,0.0292
3246.00,0.0291
3245.00,0.0289
3244.00,0.0287
3243.00,0.0286
3242.00,0.0284
3241.00,0.0282
3240.00,0.0280
3239.00,0.0278
3238.00,0.0276
3237.00,0.0274
3236.00,0.0272
3235.00,0.0270
3234.00,0.0268
3233.00,0.0267
3232.00,0.0266
3231.00,0.0264
3230.00,0.0263
3229.00,0.0261
3228.00,0.0260
3227.00,0.0259
3226.00,0.0257
3225.00,0.0256
3224.00,0.0255
3223.00,0.0253
3222.00,0.0251
3221.00,0.0250
3220.00,0.0248
3219.00,0.0247
3218.00,0.0246
3217.00,0.0245
3216.00,0.0244
3215.00,0.0242
3214.00,0.0241
3213.00,0.0239
3212.00,0.0238
3211.00,0.0236
3210.00,0.0235
3209.00,0.0233
3208.00,0.0232
3207.00,0.0231
3206.00,0.0230
3205.00,0.0228
3204.00,0.0227
3203.00,0.0226
3202.00,0.0225
3201.00,0.0223
3200.00,0.0222
3199.00,0.0221
3198.00,0.0219
3197.00,0.0218
3196.00,0.0216
3195.00,0.0215
3194.00,0.0213
3193.00,0.0212
3192.00,0.0210
3191.00,0.0209
3190.00,0.0207
3189.00,0.0206
3188.00,0.0205
3187.00,0.0203
3186.00,0.0202
3185.00,0.0200
3184.00,0.0199
3183.00,0.0197
3182.00,0.0196
3181.00,0.0194
3180.00,0.0193
3179.00,0.0192
3178.00,0.0190
3177.00,0.0189
3176.00,0.0187
3175.00,0.0186
3174.00,0.0184
3173.00,0.0183
3172.00,0.0181
3171.00,0.0180
3170.00,0.0179
3169.00,0.0177
3168.00,0.0176
3167.00,0.0175
3166.00,0.0173
3165.00,0.0172
3164.00,0.0171
3163.00,0.0170
3162.00,0.0168
3161.00,0.0167
3160.00,0.0166
3159.00,0.0165
3158.00,0.0164
3157.00,0.0163
3156.00,0.0161
3155.00,0.0160
3154.00,0.0159
3153.00,0.0158
3152.00,0.0157
3151.00,0.0156
3150.00,0.0155
3149.00,0.0155
3148.00,0.0154
3147.00,0.0153
3146.00,0.0152
3145.00,0.0151
3144.00,0.0151
3143.00,0.0150
3142.00,0.0149
3141.00,0.0148
3140.00,0.0147
3139.00,0.0147
3138.00,0.0146
3137.00,0.0146
3136.00,0.0146
3135.00,0.0145
3134.00,0.0145
3133.00,0.0144
3132.00,0.0144
3131.00,0.0143
3130.00,0.0143
3129.00,0.0142
3128.00,0.0142
3127.00,0.0142
3126.00,0.0142
3125.00,0.0142
3124.00,0.0141
3123.00,0.0141
3122.00,0.0140
3121.00,0.0140
3120.00,0.0140
3119.00,0.0139
3118.00,0.0139
3117.00,0.0140
3116.00,0.0140
3115.00,0.0140
3114.00,0.0140
3113.00,0.0141
3112.00,0.0141
3111.00,0.0141
3110.00,0.0141
3109.00,0.0141
3108.00,0.0142
3107.00,0.0142
3106.00,0.0143
3105.00,0.0143
3104.00,0.0143
3103.00,0.0144
3102.00,0.0144
3101.00,0.0144
3100.00,0.0145
3099.00,0.0145
3098.00,0.0146
3097.00,0.0146
3096.00,0.0147
3095.00,0.0147
3094.00,0.0147
3093.00,0.0147
3092.00,0.0147
3091.00,0.0148
3090.00,0.0148
3089.00,0.0148
3088.00,0.0149
3087.00,0.0149
3086.00,0.0149
3085.00,0.0149
3084.00,0.0150
3083.00,0.0150
3082.00,0.0150
3081.00,0.0150
3080.00,0.0150
3079.00,0.0150
3078.00,0.0150
3077.00,0.0151
3076.00,0.0152
3075.00,0.0152
3074.00,0.0152
3073.00,0.0152
3072.00,0.0152
3071.00,0.0152
3070.00,0.0152
3069.00,0.0151
3068.00,0.0151
3067.00,0.0150
3066.00,0.0150
3065.00,0.0150
3064.00,0.0150
3063.00,0.0150
3062.00,0.0149
3061.00,0.0149
3060.00,0.0148
3059.00,0.0147
3058.00,0.0147
3057.00,0.0146
3056.00,0.0145
3055.00,0.0144
3054.00,0.0143
3053.00,0.0142
3052.00,0.0142
3051.00,0.0141
3050.00,0.0140
3049.00,0.0139
3048.00,0.0139
3047.00,0.0137
3046.00,0.0136
3045.00,0.0135
3044.00,0.0134
3043.00,0.0133
3042.00,0.0132
3041.00,0.0132
3040.00,0.0132
3039.00,0.0131
3038.00,0.0130
3037.00,0.0130
3036.00,0.0129
3035.00,0.0128
3034.00,0.0127
3033.00,0.0127
3032.00,0.0127
3031.00,0.0126
3030.00,0.0126
3029.00,0.0126
3028.00,0.0126
3027.00,0.0125
3026.00,0.0125
3025.00,0.0125
3024.00,0.0125
3023.00,0.0125
3022.00,0.0126
3021.00,0.0127
3020.00,0.0128
3019.00,0.0129
3018.00,0.0131
3017.00,0.0133
3016.00,0.0136
3015.00,0.0139
3014.00,0.0144
3013.00,0.0149
3012.00,0.0156
3011.00,0.0163
3010.00,0.0171
3009.00,0.0181
3008.00,0.0190
3007.00,0.0201
3006.00,0.0212
3005.00,0.0223
3004.00,0.0235
3003.00,0.0247
3002.00,0.0259
3001.00,0.0271
3000.00,0.0282
2999.00,0.0292
2998.00,0.0302
2997.00,0.0310
2996.00,0.0318
2995.00,0.0326
2994.00,0.0332
2993.00,0.0339
2992.00,0.0346
2991.00,0.0353
2990.00,0.0359
2989.00,0.0366
2988.00,0.0374
2987.00,0.0386
2986.00,0.0404
2985.00,0.0432
2984.00,0.0468
2983.00,0.0504
2982.00,0.0530
2981.00,0.0539
2980.00,0.0533
2979.00,0.0516
2978.00,0.0497
2977.00,0.0480
2976.00,0.0468
2975.00,0.0462
2974.00,0.0463
2973.00,0.0468
2972.00,0.0471
2971.00,0.0469
2970.00,0.0459
2969.00,0.0444
2968.00,0.0429
2967.00,0.0416
2966.00,0.0405
2965.00,0.0396
2964.00,0.0387
2963.00,0.0378
2962.00,0.0371
2961.00,0.0364
2960.00,0.0357
2959.00,0.0351
2958.00,0.0345
2957.00,0.0338
2956.00,0.0332
2955.00,0.0325
2954.00,0.0318
2953.00,0.0311
2952.00,0.0305
2951.00,0.0298
2950.00,0.0293
2949.00,0.0288
2948.00,0.0283
2947.00,0.0278
2946.00,0.0273
2945.00,0.0269
2944.00,0.0265
2943.00,0.0263
2942.00,0.0262
2941.00,0.0263
2940.00,0.0264
2939.00,0.0265
2938.00,0.0266
2937.00,0.0267
2936.00,0.0269
2935.00,0.0271
2934.00,0.0274
2933.00,0.0276
2932.00,0.0279
2931.00,0.0280
2930.00,0.0281
2929.00,0.0281
2928.00,0.0280
2927.00,0.0279
2926.00,0.0279
2925.00,0.0278
2924.00,0.0276
2923.00,0.0275
2922.00,0.0274
2921.00,0.0273
2920.00,0.0272
2919.00,0.0270
2918.00,0.0268
2917.00,0.0265
2916.00,0.0261
2915.00,0.0258
2914.00,0.0254
2913.00,0.0251
2912.00,0.0249
2911.00,0.0247
2910.00,0.0245
2909.00,0.0244
2908.00,0.0243
2907.00,0.0243
2906.00,0.0242
2905.00,0.0241
2904.00,0.0240
2903.00,0.0239
2902.00,0.0239
2901.00,0.0238
2900.00,0.0237
2899.00,0.0237
2898.00,0.0237
2897.00,0.0237
2896.00,0.0237
2895.00,0.0238
2894.00,0.0240
2893.00,0.0242
2892.00,0.0244
2891.00,0.0245
2890.00,0.0246
2889.00,0.0246
2888.00,0.0245
2887.00,0.0244
2886.00,0.0243
2885.00,0.0242
2884.00,0.0241
2883.00,0.0238
2882.00,0.0233
2881.00,0.0227
2880.00,0.0221
2879.00,0.0215
2878.00,0.0210
2877.00,0.0206
2876.00,0.0203
2875.00,0.0200
2874.00,0.0198
2873.00,0.0196
2872.00,0.0193
2871.00,0.0191
2870.00,0.0188
2869.00,0.0185
2868.00,0.0182
2867.00,0.0179
2866.00,0.0176
2865.00,0.0173
2864.00,0.0170
2863.00,0.0168
2862.00,0.0166
2861.00,0.0164
2860.00,0.0163
2859.00,0.0162
2858.00,0.0162
2857.00,0.0162
2856.00,0.0162
2855.00,0.0162
2854.00,0.0161
2853.00,0.0161
2852.00,0.0159
2851.00,0.0156
2850.00,0.0152
2849.00,0.0147
2848.00,0.0141
2847.00,0.0136
2846.00,0.0131
2845.00,0.0126
2844.00,0.0122
2843.00,0.0118
2842.00,0.0115
2841.00,0.0113
2840.00,0.0110
2839.00,0.0109
2838.00,0.0107
2837.00,0.0106
2836.00,0.0105
2835.00,0.0104
2834.00,0.0103
2833.00,0.0102
2832.00,0.0101
2831.00,0.0101
2830.00,0.0100
2829.00,0.0099
2828.00,0.0098
2827.00,0.0098
2826.00,0.0097
2825.00,0.0097
2824.00,0.0096
2823.00,0.0096
2822.00,0.0095
2821.00,0.0094
2820.00,0.0094
2819.00,0.0093
2818.00,0.0093
2817.00,0.0092
2816.00,0.0092
2815.00,0.0091
2814.00,0.0091
2813.00,0.0090
2812.00,0.0090
2811.00,0.0089
2810.00,0.0088
2809.00,0.0088
2808.00,0.0088
2807.00,0.0087
2806.00,0.0087
2805.00,0.0086
2804.00,0.0086
2803.00,0.0086
2802.00,0.0086
2801.00,0.0085
2800.00,0.0085
2799.00,0.0084
2798.00,0.0084
2797.00,0.0084
2796.00,0.0083
2795.00,0.0083
2794.00,0.0083
2793.00,0.0082
2792.00,0.0082
2791.00,0.0081
2790.00,0.0081
2789.00,0.0081
2788.00,0.0081
2787.00,0.0080
2786.00,0.0080
2785.00,0.0080
2784.00,0.0079
2783.00,0.0079
2782.00,0.0079
2781.00,0.0078
2780.00,0.0078
2779.00,0.0077
2778.00,0.0077
2777.00,0.0076
2776.00,0.0076
2775.00,0.0076
2774.00,0.0076
2773.00,0.0076
2772.00,0.0076
2771.00,0.0075
2770.00,0.0075
2769.00,0.0075
2768.00,0.0074
2767.00,0.0074
2766.00,0.0074
2765.00,0.0074
2764.00,0.0073
2763.00,0.0073
2762.00,0.0073
2761.00,0.0072
2760.00,0.0072
2759.00,0.0072
2758.00,0.0071
2757.00,0.0071
2756.00,0.0071
2755.00,0.0070
2754.00,0.0070
2753.00,0.0070
2752.00,0.0070
2751.00,0.0069
2750.00,0.0069
2749.00,0.0069
2748.00,0.0069
2747.00,0.0069
2746.00,0.0069
2745.00,0.0068
2744.00,0.0068
2743.00,0.0068
2742.00,0.0068
2741.00,0.0068
2740.00,0.0067
2739.00,0.0067
2738.00,0.0067
2737.00,0.0067
2736.00,0.0067
2735.00,0.0066
2734.00,0.0066
2733.00,0.0066
2732.00,0.0066
2731.00,0.0065
2730.00,0.0065
2729.00,0.0065
2728.00,0.0064
2727.00,0.0064
2726.00,0.0064
2725.00,0.0064
2724.00,0.0063
2723.00,0.0063
2722.00,0.0063
2721.00,0.0063
2720.00,0.0062
2719.00,0.0062
2718.00,0.0062
2717.00,0.0062
2716.00,0.0061
2715.00,0.0061
2714.00,0.0061
2713.00,0.0061
2712.00,0.0060
2711.00,0.0060
2710.00,0.0060
2709.00,0.0060
2708.00,0.0059
2707.00,0.0059
2706.00,0.0059
2705.00,0.0059
2704.00,0.0059
2703.00,0.0059
2702.00,0.0059
2701.00,0.0058
2700.00,0.0058
2699.00,0.0058
2698.00,0.0058
2697.00,0.0058
2696.00,0.0058
2695.00,0.0058
2694.00,0.0058
2693.00,0.0058
2692.00,0.0058
2691.00,0.0058
2690.00,0.0058
2689.00,0.0058
2688.00,0.0058
2687.00,0.0058
2686.00,0.0058
2685.00,0.0058
2684.00,0.0058
2683.00,0.0058
2682.00,0.0058
2681.00,0.0058
2680.00,0.0058
2679.00,0.0058
2678.00,0.0057
2677.00,0.0057
2676.00,0.0057
2675.00,0.0057
2674.00,0.0058
2673.00,0.0058
2672.00,0.0058
2671.00,0.0058
2670.00,0.0058
2669.00,0.0058
2668.00,0.0059
2667.00,0.0059
2666.00,0.0059
2665.00,0.0059
2664.00,0.0059
2663.00,0.0058
2662.00,0.0058
2661.00,0.0058
2660.00,0.0058
2659.00,0.0058
2658.00,0.0058
2657.00,0.0058
2656.00,0.0058
2655.00,0.0058
2654.00,0.0058
2653.00,0.0058
2652.00,0.0058
2651.00,0.0058
2650.00,0.0058
2649.00,0.0058
2648.00,0.0058
2647.00,0.0058
2646.00,0.0058
2645.00,0.0058
2644.00,0.0058
2643.00,0.0058
2642.00,0.0058
2641.00,0.0058
2640.00,0.0058
2639.00,0.0058
2638.00,0.0058
2637.00,0.0057
2636.00,0.0057
2635.00,0.0057
2634.00,0.0056
2633.00,0.0056
2632.00,0.0056
2631.00,0.0056
2630.00,0.0056
2629.00,0.0056
2628.00,0.0056
2627.00,0.0056
2626.00,0.0055
2625.00,0.0055
2624.00,0.0055
2623.00,0.0055
2622.00,0.0055
2621.00,0.0055
2620.00,0.0055
2619.00,0.0054
2618.00,0.0054
2617.00,0.0054
2616.00,0.0054
2615.00,0.0054
2614.00,0.0054
2613.00,0.0054
2612.00,0.0054
2611.00,0.0054
2610.00,0.0054
2609.00,0.0054
2608.00,0.0054
2607.00,0.0053
2606.00,0.0053
2605.00,0.0053
2604.00,0.0053
2603.00,0.0052
2602.00,0.0052
2601.00,0.0052
2600.00,0.0051
2599.00,0.0051
2598.00,0.0051
2597.00,0.0051
2596.00,0.0051
2595.00,0.0051
2594.00,0.0051
2593.00,0.0051
2592.00,0.0050
2591.00,0.0050
2590.00,0.0050
2589.00,0.0050
2588.00,0.0050
2587.00,0.0050
2586.00,0.0049
2585.00,0.0049
2584.00,0.0049
2583.00,0.0049
2582.00,0.0049
2581.00,0.0049
2580.00,0.0049
2579.00,0.0049
2578.00,0.0049
2577.00,0.0049
2576.00,0.0049
2575.00,0.0048
2574.00,0.0048
2573.00,0.0048
2572.00,0.0047
2571.00,0.0047
2570.00,0.0047
2569.00,0.0047
2568.00,0.0047
2567.00,0.0047
2566.00,0.0047
2565.00,0.0047
2564.00,0.0047
2563.00,0.0047
2562.00,0.0047
2561.00,0.0047
2560.00,0.0047
2559.00,0.0046
2558.00,0.0046
2557.00,0.0046
2556.00,0.0046
2555.00,0.0046
2554.00,0.0046
2553.00,0.0046
2552.00,0.0046
2551.00,0.0046
2550.00,0.0046
2549.00,0.0046
2548.00,0.0046
2547.00,0.0046
2546.00,0.0045
2545.00,0.0045
2544.00,0.0045
2543.00,0.0045
2542.00,0.0045
2541.00,0.0045
2540.00,0.0045
2539.00,0.0045
2538.00,0.0046
2537.00,0.0046
2536.00,0.0045
2535.00,0.0045
2534.00,0.0045
2533.00,0.0045
2532.00,0.0045
2531.00,0.0045
2530.00,0.0045
2529.00,0.0045
2528.00,0.0045
2527.00,0.0045
2526.00,0.0045
2525.00,0.0045
2524.00,0.0045
2523.00,0.0045
2522.00,0.0045
2521.00,0.0045
2520.00,0.0045
2519.00,0.0044
2518.00,0.0044
2517.00,0.0044
2516.00,0.0044
2515.00,0.0044
2514.00,0.0044
2513.00,0.0044
2512.00,0.0044
2511.00,0.0044
2510.00,0.0044
2509.00,0.0044
2508.00,0.0044
2507.00,0.0044
2506.00,0.0044
2505.00,0.0044
2504.00,0.0044
2503.00,0.0044
2502.00,0.0044
2501.00,0.0044
2500.00,0.0044
2499.00,0.0044
2498.00,0.0044
2497.00,0.0044
2496.00,0.0044
2495.00,0.0044
2494.00,0.0043
2493.00,0.0043
2492.00,0.0043
2491.00,0.0043
2490.00,0.0043
2489.00,0.0043
2488.00,0.0043
2487.00,0.0043
2486.00,0.0042
2485.00,0.0042
2484.00,0.0042
2483.00,0.0042
2482.00,0.0042
2481.00,0.0042
2480.00,0.0042
2479.00,0.0042
2478.00,0.0042
2477.00,0.0042
2476.00,0.0042
2475.00,0.0041
2474.00,0.0041
2473.00,0.0041
2472.00,0.0042
2471.00,0.0042
2470.00,0.0041
2469.00,0.0041
2468.00,0.0041
2467.00,0.0041
2466.00,0.0041
2465.00,0.0041
2464.00,0.0041
2463.00,0.0041
2462.00,0.0041
2461.00,0.0041
2460.00,0.0041
2459.00,0.0041
2458.00,0.0041
2457.00,0.0041
2456.00,0.0041
2455.00,0.0041
2454.00,0.0041
2453.00,0.0041
2452.00,0.0040
2451.00,0.0040
2450.00,0.0040
2449.00,0.0040
2448.00,0.0040
2447.00,0.0040
2446.00,0.0040
2445.00,0.0040
2444.00,0.0040
2443.00,0.0039
2442.00,0.0039
2441.00,0.0039
2440.00,0.0039
2439.00,0.0039
2438.00,0.0039
2437.00,0.0039
2436.00,0.0039
2435.00,0.0039
2434.00,0.0039
2433.00,0.0039
2432.00,0.0038
2431.00,0.0038
2430.00,0.0038
2429.00,0.0038
2428.00,0.0038
2427.00,0.0038
2426.00,0.0038
2425.00,0.0038
2424.00,0.0038
2423.00,0.0038
2422.00,0.0037
2421.00,0.0037
2420.00,0.0037
2419.00,0.0037
2418.00,0.0037
2417.00,0.0037
2416.00,0.0037
2415.00,0.0037
2414.00,0.0037
2413.00,0.0037
2412.00,0.0037
2411.00,0.0037
2410.00,0.0036
2409.00,0.0036
2408.00,0.0036
2407.00,0.0036
2406.00,0.0035
2405.00,0.0035
2404.00,0.0035
2403.00,0.0036
2402.00,0.0036
2401.00,0.0036
2400.00,0.0035
2399.00,0.0035
2398.00,0.0035
2397.00,0.0035
2396.00,0.0035
2395.00,0.0035
2394.00,0.0035
2393.00,0.0035
2392.00,0.0035
2391.00,0.0035
2390.00,0.0035
2389.00,0.0034
2388.00,0.0034
2387.00,0.0034
2386.00,0.0034
2385.00,0.0034
2384.00,0.0034
2383.00,0.0034
2382.00,0.0034
2381.00,0.0034
2380.00,0.0034
2379.00,0.0034
2378.00,0.0034
2377.00,0.0034
2376.00,0.0034
2375.00,0.0033
2374.00,0.0033
2373.00,0.0033
2372.00,0.0033
2371.00,0.0033
2370.00,0.0033
2369.00,0.0033
2368.00,0.0033
2367.00,0.0033
2366.00,0.0034
2365.00,0.0034
2364.00,0.0034
2363.00,0.0034
2362.00,0.0034
2361.00,0.0034
2360.00,0.0034
2359.00,0.0034
2358.00,0.0034
2357.00,0.0034
2356.00,0.0034
2355.00,0.0034
2354.00,0.0034
2353.00,0.0034
2352.00,0.0034
2351.00,0.0034
2350.00,0.0034
2349.00,0.0034
2348.00,0.0034
2347.00,0.0034
2346.00,0.0034
2345.00,0.0034
2344.00,0.0034
2343.00,0.0034
2342.00,0.0034
2341.00,0.0034
2340.00,0.0034
2339.00,0.0034
2338.00,0.0034
2337.00,0.0034
2336.00,0.0034
2335.00,0.0034
2334.00,0.0034
2333.00,0.0033
2332.00,0.0033
2331.00,0.0033
2330.00,0.0034
2329.00,0.0034
2328.00,0.0035
2327.00,0.0036
2326.00,0.0036
2325.00,0.0036
2324.00,0.0035
2323.00,0.0034
2322.00,0.0034
2321.00,0.0034
2320.00,0.0034
2319.00,0.0035
2318.00,0.0035
2317.00,0.0035
2316.00,0.0034
2315.00,0.0034
2314.00,0.0034
2313.00,0.0034
2312.00,0.0034
2311.00,0.0034
2310.00,0.0034
2309.00,0.0034
2308.00,0.0034
2307.00,0.0034
2306.00,0.0033
2305.00,0.0033
2304.00,0.0034
2303.00,0.0034
2302.00,0.0034
2301.00,0.0034
2300.00,0.0034
2299.00,0.0034
2298.00,0.0034
2297.00,0.0034
2296.00,0.0034
2295.00,0.0034
2294.00,0.0034
2293.00,0.0034
2292.00,0.0034
2291.00,0.0034
2290.00,0.0034
2289.00,0.0034
2288.00,0.0034
2287.00,0.0034
2286.00,0.0034
2285.00,0.0034
2284.00,0.0033
2283.00,0.0033
2282.00,0.0033
2281.00,0.0033
2280.00,0.0033
2279.00,0.0033
2278.00,0.0033
2277.00,0.0033
2276.00,0.0033
2275.00,0.0032
2274.00,0.0032
2273.00,0.0032
2272.00,0.0032
2271.00,0.0031
2270.00,0.0031
2269.00,0.0032
2268.00,0.0032
2267.00,0.0032
2266.00,0.0032
2265.00,0.0031
2264.00,0.0031
2263.00,0.0031
2262.00,0.0031
2261.00,0.0031
2260.00,0.0031
2259.00,0.0031
2258.00,0.0031
2257.00,0.0030
2256.00,0.0030
2255.00,0.0030
2254.00,0.0030
2253.00,0.0030
2252.00,0.0030
2251.00,0.0031
2250.00,0.0031
2249.00,0.0031
2248.00,0.0031
2247.00,0.0030
2246.00,0.0030
2245.00,0.0030
2244.00,0.0030
2243.00,0.0030
2242.00,0.0030
2241.00,0.0030
2240.00,0.0030
2239.00,0.0030
2238.00,0.0030
2237.00,0.0030
2236.00,0.0030
2235.00,0.0030
2234.00,0.0030
2233.00,0.0030
2232.00,0.0030
2231.00,0.0030
2230.00,0.0029
2229.00,0.0029
2228.00,0.0029
2227.00,0.0029
2226.00,0.0029
2225.00,0.0028
2224.00,0.0028
2223.00,0.0028
2222.00,0.0028
2221.00,0.0028
2220.00,0.0028
2219.00,0.0029
2218.00,0.0029
2217.00,0.0029
2216.00,0.0030
2215.00,0.0030
2214.00,0.0031
2213.00,0.0031
2212.00,0.0031
2211.00,0.0031
2210.00,0.0031
2209.00,0.0031
2208.00,0.0031
2207.00,0.0030
2206.00,0.0030
2205.00,0.0030
2204.00,0.0030
2203.00,0.0030
2202.00,0.0030
2201.00,0.0030
2200.00,0.0030
2199.00,0.0031
2198.00,0.0031
2197.00,0.0031
2196.00,0.0031
2195.00,0.0030
2194.00,0.0029
2193.00,0.0029
2192.00,0.0030
2191.00,0.0030
2190.00,0.0031
2189.00,0.0031
2188.00,0.0031
2187.00,0.0030
2186.00,0.0029
2185.00,0.0028
2184.00,0.0028
2183.00,0.0028
2182.00,0.0028
2181.00,0.0029
2180.00,0.0030
2179.00,0.0030
2178.00,0.0029
2177.00,0.0028
2176.00,0.0028
2175.00,0.0028
2174.00,0.0028
2173.00,0.0029
2172.00,0.0029
2171.00,0.0030
2170.00,0.0030
2169.00,0.0030
2168.00,0.0029
2167.00,0.0029
2166.00,0.0028
2165.00,0.0029
2164.00,0.0030
2163.00,0.0030
2162.00,0.0028
2161.00,0.0024
2160.00,0.0021
2159.00,0.0019
2158.00,0.0019
2157.00,0.0020
2156.00,0.0021
2155.00,0.0022
2154.00,0.0023
2153.00,0.0024
2152.00,0.0024
2151.00,0.0024
2150.00,0.0023
2149.00,0.0023
2148.00,0.0024
2147.00,0.0024
2146.00,0.0024
2145.00,0.0024
2144.00,0.0024
2143.00,0.0024
2142.00,0.0024
2141.00,0.0024
2140.00,0.0024
2139.00,0.0023
2138.00,0.0022
2137.00,0.0022
2136.00,0.0022
2135.00,0.0023
2134.00,0.0023
2133.00,0.0024
2132.00,0.0025
2131.00,0.0026
2130.00,0.0026
2129.00,0.0026
2128.00,0.0026
2127.00,0.0026
2126.00,0.0026
2125.00,0.0026
2124.00,0.0026
2123.00,0.0027
2122.00,0.0027
2121.00,0.0028
2120.00,0.0028
2119.00,0.0028
2118.00,0.0028
2117.00,0.0029
2116.00,0.0029
2115.00,0.0029
2114.00,0.0029
2113.00,0.0029
2112.00,0.0029
2111.00,0.0029
2110.00,0.0028
2109.00,0.0028
2108.00,0.0028
2107.00,0.0028
2106.00,0.0028
2105.00,0.0028
2104.00,0.0028
2103.00,0.0028
2102.00,0.0028
2101.00,0.0028
2100.00,0.0028
2099.00,0.0028
2098.00,0.0028
2097.00,0.0027
2096.00,0.0027
2095.00,0.0027
2094.00,0.0027
2093.00,0.0027
2092.00,0.0027
2091.00,0.0027
2090.00,0.0027
2089.00,0.0028
2088.00,0.0028
2087.00,0.0028
2086.00,0.0028
2085.00,0.0028
2084.00,0.0028
2083.00,0.0028
2082.00,0.0028
2081.00,0.0028
2080.00,0.0028
2079.00,0.0027
2078.00,0.0027
2077.00,0.0027
2076.00,0.0028
2075.00,0.0027
2074.00,0.0027
2073.00,0.0027
2072.00,0.0026
2071.00,0.0026
2070.00,0.0025
2069.00,0.0025
2068.00,0.0025
2067.00,0.0025
2066.00,0.0026
2065.00,0.0026
2064.00,0.0026
2063.00,0.0026
2062.00,0.0026
2061.00,0.0026
2060.00,0.0026
2059.00,0.0026
2058.00,0.0026
2057.00,0.0025
2056.00,0.0025
2055.00,0.0025
2054.00,0.0025
2053.00,0.0025
2052.00,0.0025
2051.00,0.0025
2050.00,0.0025
2049.00,0.0025
2048.00,0.0025
2047.00,0.0025
2046.00,0.0024
2045.00,0.0024
2044.00,0.0024
2043.00,0.0025
2042.00,0.0025
2041.00,0.0025
2040.00,0.0025
2039.00,0.0024
2038.00,0.0023
2037.00,0.0023
2036.00,0.0023
2035.00,0.0022
2034.00,0.0022
2033.00,0.0021
2032.00,0.0021
2031.00,0.0021
2030.00,0.0021
2029.00,0.0021
2028.00,0.0021
2027.00,0.0021
2026.00,0.0020
2025.00,0.0020
2024.00,0.0020
2023.00,0.0021
2022.00,0.0021
2021.00,0.0021
2020.00,0.0022
2019.00,0.0022
2018.00,0.0021
2017.00,0.0021
2016.00,0.0021
2015.00,0.0021
2014.00,0.0021
2013.00,0.0021
2012.00,0.0021
2011.00,0.0021
2010.00,0.0020
2009.00,0.0020
2008.00,0.0020
2007.00,0.0019
2006.00,0.0018
2005.00,0.0018
2004.00,0.0018
2003.00,0.0018
2002.00,0.0018
2001.00,0.0019
2000.00,0.0020
1999.00,0.0021
1998.00,0.0021
1997.00,0.0021
1996.00,0.0021
1995.00,0.0021
1994.00,0.0021
1993.00,0.0021
1992.00,0.0021
1991.00,0.0021
1990.00,0.0021
1989.00,0.0022
1988.00,0.0023
1987.00,0.0023
1986.00,0.0023
1985.00,0.0023
1984.00,0.0024
1983.00,0.0024
1982.00,0.0024
1981.00,0.0023
1980.00,0.0022
1979.00,0.0020
1978.00,0.0018
1977.00,0.0018
1976.00,0.0019
1975.00,0.0020
1974.00,0.0019
1973.00,0.0019
1972.00,0.0019
1971.00,0.0018
1970.00,0.0018
1969.00,0.0018
1968.00,0.0019
1967.00,0.0020
1966.00,0.0020
1965.00,0.0019
1964.00,0.0018
1963.00,0.0017
1962.00,0.0016
1961.00,0.0017
1960.00,0.0017
1959.00,0.0017
1958.00,0.0017
1957.00,0.0017
1956.00,0.0018
1955.00,0.0018
1954.00,0.0017
1953.00,0.0017
1952.00,0.0018
1951.00,0.0018
1950.00,0.0018
1949.00,0.0018
1948.00,0.0018
1947.00,0.0018
1946.00,0.0018
1945.00,0.0018
1944.00,0.0018
1943.00,0.0018
1942.00,0.0017
1941.00,0.0016
1940.00,0.0016
1939.00,0.0016
1938.00,0.0016
1937.00,0.0016
1936.00,0.0017
1935.00,0.0017
1934.00,0.0017
1933.00,0.0017
1932.00,0.0017
1931.00,0.0017
1930.00,0.0017
1929.00,0.0017
1928.00,0.0017
1927.00,0.0017
1926.00,0.0017
1925.00,0.0017
1924.00,0.0018
1923.00,0.0018
1922.00,0.0018
1921.00,0.0017
1920.00,0.0017
1919.00,0.0017
1918.00,0.0017
1917.00,0.0017
1916.00,0.0017
1915.00,0.0017
1914.00,0.0018
1913.00,0.0018
1912.00,0.0019
1911.00,0.0019
1910.00,0.0019
1909.00,0.0019
1908.00,0.0019
1907.00,0.0018
1906.00,0.0018
1905.00,0.0018
1904.00,0.0018
1903.00,0.0018
1902.00,0.0018
1901.00,0.0018
1900.00,0.0018
1899.00,0.0018
1898.00,0.0018
1897.00,0.0018
1896.00,0.0018
1895.00,0.0018
1894.00,0.0018
1893.00,0.0018
1892.00,0.0019
1891.00,0.0019
1890.00,0.0019
1889.00,0.0018
1888.00,0.0017
1887.00,0.0017
1886.00,0.0017
1885.00,0.0018
1884.00,0.0018
1883.00,0.0018
1882.00,0.0018
1881.00,0.0018
1880.00,0.0018
1879.00,0.0017
1878.00,0.0017
1877.00,0.0017
1876.00,0.0017
1875.00,0.0017
1874.00,0.0017
1873.00,0.0017
1872.00,0.0017
1871.00,0.0017
1870.00,0.0018
1869.00,0.0018
1868.00,0.0017
1867.00,0.0017
1866.00,0.0016
1865.00,0.0016
1864.00,0.0016
1863.00,0.0016
1862.00,0.0016
1861.00,0.0016
1860.00,0.0016
1859.00,0.0016
1858.00,0.0016
1857.00,0.0016
1856.00,0.0016
1855.00,0.0016
1854.00,0.0015
1853.00,0.0016
1852.00,0.0016
1851.00,0.0016
1850.00,0.0017
1849.00,0.0017
1848.00,0.0017
1847.00,0.0016
1846.00,0.0016
1845.00,0.0016
1844.00,0.0016
1843.00,0.0015
1842.00,0.0015
1841.00,0.0015
1840.00,0.0016
1839.00,0.0016
1838.00,0.0017
1837.00,0.0016
1836.00,0.0016
1835.00,0.0016
1834.00,0.0015
1833.00,0.0016
1832.00,0.0016
1831.00,0.0017
1830.00,0.0017
1829.00,0.0016
1828.00,0.0016
1827.00,0.0016
1826.00,0.0016
1825.00,0.0016
1824.00,0.0015
1823.00,0.0015
1822.00,0.0015
1821.00,0.0015
1820.00,0.0015
1819.00,0.0015
1818.00,0.0015
1817.00,0.0015
1816.00,0.0015
1815.00,0.0015
1814.00,0.0016
1813.00,0.0016
1812.00,0.0017
1811.00,0.0017
1810.00,0.0016
1809.00,0.0016
1808.00,0.0016
1807.00,0.0016
1806.00,0.0015
1805.00,0.0015
1804.00,0.0016
1803.00,0.0016
1802.00,0.0016
1801.00,0.0016
1800.00,0.0016
1799.00,0.0016
1798.00,0.0016
1797.00,0.0017
1796.00,0.0017
1795.00,0.0017
1794.00,0.0017
1793.00,0.0017
1792.00,0.0017
1791.00,0.0016
1790.00,0.0016
1789.00,0.0016
1788.00,0.0017
1787.00,0.0018
1786.00,0.0018
1785.00,0.0018
1784.00,0.0018
1783.00,0.0018
1782.00,0.0019
1781.00,0.0020
1780.00,0.0020
1779.00,0.0020
1778.00,0.0019
1777.00,0.0020
1776.00,0.0020
1775.00,0.0021
1774.00,0.0021
1773.00,0.0022
1772.00,0.0023
1771.00,0.0021
1770.00,0.0020
1769.00,0.0020
1768.00,0.0020
1767.00,0.0021
1766.00,0.0021
1765.00,0.0022
1764.00,0.0022
1763.00,0.0023
1762.00,0.0023
1761.00,0.0023
1760.00,0.0024
1759.00,0.0024
1758.00,0.0025
1757.00,0.0026
1756.00,0.0027
1755.00,0.0028
1754.00,0.0029
1753.00,0.0031
1752.00,0.0034
1751.00,0.0036
1750.00,0.0038
1749.00,0.0039
1748.00,0.0040
1747.00,0.0041
1746.00,0.0042
1745.00,0.0043
1744.00,0.0045
1743.00,0.0045
1742.00,0.0046
1741.00,0.0047
1740.00,0.0048
1739.00,0.0049
1738.00,0.0049
1737.00,0.0049
1736.00,0.0050
1735.00,0.0052
1734.00,0.0054
1733.00,0.0055
1732.00,0.0056
1731.00,0.0057
1730.00,0.0057
1729.00,0.0058
1728.00,0.0059
1727.00,0.0060
1726.00,0.0061
1725.00,0.0064
1724.00,0.0066
1723.00,0.0068
1722.00,0.0069
1721.00,0.0070
1720.00,0.0072
1719.00,0.0077
1718.00,0.0082
1717.00,0.0087
1716.00,0.0090
1715.00,0.0094
1714.00,0.0097
1713.00,0.0101
1712.00,0.0107
1711.00,0.0113
1710.00,0.0119
1709.00,0.0127
1708.00,0.0136
1707.00,0.0148
1706.00,0.0162
1705.00,0.0176
1704.00,0.0189
1703.00,0.0199
1702.00,0.0211
1701.00,0.0229
1700.00,0.0250
1699.00,0.0265
1698.00,0.0274
1697.00,0.0280
1696.00,0.0286
1695.00,0.0292
1694.00,0.0297
1693.00,0.0300
1692.00,0.0304
1691.00,0.0310
1690.00,0.0317
1689.00,0.0325
1688.00,0.0330
1687.00,0.0335
1686.00,0.0342
1685.00,0.0355
1684.00,0.0372
1683.00,0.0384
1682.00,0.0392
1681.00,0.0400
1680.00,0.0408
1679.00,0.0417
1678.00,0.0424
1677.00,0.0431
1676.00,0.0443
1675.00,0.0458
1674.00,0.0472
1673.00,0.0482
1672.00,0.0491
1671.00,0.0502
1670.00,0.0516
1669.00,0.0532
1668.00,0.0546
1667.00,0.0557
1666.00,0.0566
1665.00,0.0576
1664.00,0.0588
1663.00,0.0604
1662.00,0.0620
1661.00,0.0634
1660.00,0.0646
1659.00,0.0657
1658.00,0.0667
1657.00,0.0674
1656.00,0.0678
1655.00,0.0683
1654.00,0.0698
1653.00,0.0722
1652.00,0.0743
1651.00,0.0752
1650.00,0.0753
1649.00,0.0753
1648.00,0.0757
1647.00,0.0767
1646.00,0.0776
1645.00,0.0783
1644.00,0.0787
1643.00,0.0789
1642.00,0.0791
1641.00,0.0794
1640.00,0.0797
1639.00,0.0798
1638.00,0.0799
1637.00,0.0803
1636.00,0.0811
1635.00,0.0821
1634.00,0.0827
1633.00,0.0829
1632.00,0.0829
1631.00,0.0829
1630.00,0.0828
1629.00,0.0828
1628.00,0.0829
1627.00,0.0828
1626.00,0.0824
1625.00,0.0817
1624.00,0.0810
1623.00,0.0801
1622.00,0.0790
1621.00,0.0777
1620.00,0.0760
1619.00,0.0742
1618.00,0.0724
1617.00,0.0705
1616.00,0.0687
1615.00,0.0668
1614.00,0.0648
1613.00,0.0627
1612.00,0.0606
1611.00,0.0584
1610.00,0.0563
1609.00,0.0542
1608.00,0.0521
1607.00,0.0500
1606.00,0.0481
1605.00,0.0463
1604.00,0.0446
1603.00,0.0431
1602.00,0.0417
1601.00,0.0404
1600.00,0.0392
1599.00,0.0381
1598.00,0.0372
1597.00,0.0363
1596.00,0.0355
1595.00,0.0346
1594.00,0.0338
1593.00,0.0331
1592.00,0.0323
1591.00,0.0316
1590.00,0.0310
1589.00,0.0305
1588.00,0.0300
1587.00,0.0296
1586.00,0.0293
1585.00,0.0291
1584.00,0.0290
1583.00,0.0290
1582.00,0.0290
1581.00,0.0291
1580.00,0.0292
1579.00,0.0293
1578.00,0.0296
1577.00,0.0302
1576.00,0.0310
1575.00,0.0317
1574.00,0.0321
1573.00,0.0324
1572.00,0.0328
1571.00,0.0334
1570.00,0.0344
1569.00,0.0356
1568.00,0.0365
1567.00,0.0373
1566.00,0.0381
1565.00,0.0391
1564.00,0.0400
1563.00,0.0406
1562.00,0.0410
1561.00,0.0415
1560.00,0.0430
1559.00,0.0454
1558.00,0.0475
1557.00,0.0486
1556.00,0.0494
1555.00,0.0503
1554.00,0.0514
1553.00,0.0525
1552.00,0.0535
1551.00,0.0544
1550.00,0.0555
1549.00,0.0565
1548.00,0.0573
1547.00,0.0580
1546.00,0.0587
1545.00,0.0595
1544.00,0.0603
1543.00,0.0610
1542.00,0.0618
1541.00,0.0629
1540.00,0.0644
1539.00,0.0657
1538.00,0.0665
1537.00,0.0667
1536.00,0.0667
1535.00,0.0669
1534.00,0.0677
1533.00,0.0687
1532.00,0.0695
1531.00,0.0701
1530.00,0.0705
1529.00,0.0709
1528.00,0.0714
1527.00,0.0721
1526.00,0.0728
1525.00,0.0735
1524.00,0.0740
1523.00,0.0746
1522.00,0.0757
1521.00,0.0771
1520.00,0.0784
1519.00,0.0792
1518.00,0.0800
1517.00,0.0809
1516.00,0.0817
1515.00,0.0821
1514.00,0.0819
1513.00,0.0815
1512.00,0.0810
1511.00,0.0802
1510.00,0.0793
1509.00,0.0783
1508.00,0.0775
1507.00,0.0766
1506.00,0.0758
1505.00,0.0748
1504.00,0.0736
1503.00,0.0722
1502.00,0.0707
1501.00,0.0692
1500.00,0.0676
1499.00,0.0661
1498.00,0.0646
1497.00,0.0632
1496.00,0.0618
1495.00,0.0603
1494.00,0.0588
1493.00,0.0573
1492.00,0.0558
1491.00,0.0543
1490.00,0.0529
1489.00,0.0514
1488.00,0.0500
1487.00,0.0486
1486.00,0.0473
1485.00,0.0461
1484.00,0.0450
1483.00,0.0439
1482.00,0.0429
1481.00,0.0420
1480.00,0.0412
1479.00,0.0405
1478.00,0.0400
1477.00,0.0398
1476.00,0.0398
1475.00,0.0401
1474.00,0.0404
1473.00,0.0407
1472.00,0.0406
1471.00,0.0403
1470.00,0.0398
1469.00,0.0395
1468.00,0.0392
1467.00,0.0392
1466.00,0.0396
1465.00,0.0404
1464.00,0.0412
1463.00,0.0417
1462.00,0.0419
1461.00,0.0418
1460.00,0.0417
1459.00,0.0417
1458.00,0.0421
1457.00,0.0429
1456.00,0.0437
1455.00,0.0442
1454.00,0.0445
1453.00,0.0447
1452.00,0.0449
1451.00,0.0451
1450.00,0.0452
1449.00,0.0453
1448.00,0.0453
1447.00,0.0452
1446.00,0.0449
1445.00,0.0446
1444.00,0.0441
1443.00,0.0436
1442.00,0.0431
1441.00,0.0425
1440.00,0.0418
1439.00,0.0410
1438.00,0.0401
1437.00,0.0394
1436.00,0.0387
1435.00,0.0381
1434.00,0.0375
1433.00,0.0368
1432.00,0.0361
1431.00,0.0355
1430.00,0.0350
1429.00,0.0345
1428.00,0.0342
1427.00,0.0339
1426.00,0.0338
1425.00,0.0338
1424.00,0.0338
1423.00,0.0339
1422.00,0.0338
1421.00,0.0338
1420.00,0.0341
1419.00,0.0347
1418.00,0.0352
1417.00,0.0357
1416.00,0.0361
1415.00,0.0364
1414.00,0.0368
1413.00,0.0372
1412.00,0.0376
1411.00,0.0380
1410.00,0.0384
1409.00,0.0387
1408.00,0.0389
1407.00,0.0392
1406.00,0.0394
1405.00,0.0398
1404.00,0.0401
1403.00,0.0405
1402.00,0.0409
1401.00,0.0413
1400.00,0.0418
1399.00,0.0425
1398.00,0.0431
1397.00,0.0436
1396.00,0.0442
1395.00,0.0447
1394.00,0.0452
1393.00,0.0455
1392.00,0.0456
1391.00,0.0456
1390.00,0.0456
1389.00,0.0456
1388.00,0.0458
1387.00,0.0460
1386.00,0.0462
1385.00,0.0464
1384.00,0.0465
1383.00,0.0466
1382.00,0.0466
1381.00,0.0464
1380.00,0.0460
1379.00,0.0455
1378.00,0.0449
1377.00,0.0443
1376.00,0.0438
1375.00,0.0432
1374.00,0.0427
1373.00,0.0420
1372.00,0.0414
1371.00,0.0407
1370.00,0.0399
1369.00,0.0391
1368.00,0.0383
1367.00,0.0375
1366.00,0.0366
1365.00,0.0358
1364.00,0.0350
1363.00,0.0342
1362.00,0.0335
1361.00,0.0328
1360.00,0.0323
1359.00,0.0319
1358.00,0.0315
1357.00,0.0311
1356.00,0.0308
1355.00,0.0305
1354.00,0.0302
1353.00,0.0300
1352.00,0.0298
1351.00,0.0297
1350.00,0.0296
1349.00,0.0296
1348.00,0.0296
1347.00,0.0297
1346.00,0.0297
1345.00,0.0298
1344.00,0.0299
1343.00,0.0301
1342.00,0.0302
1341.00,0.0303
1340.00,0.0303
1339.00,0.0303
1338.00,0.0302
1337.00,0.0301
1336.00,0.0299
1335.00,0.0297
1334.00,0.0295
1333.00,0.0292
1332.00,0.0289
1331.00,0.0286
1330.00,0.0284
1329.00,0.0281
1328.00,0.0278
1327.00,0.0275
1326.00,0.0273
1325.00,0.0271
1324.00,0.0269
1323.00,0.0267
1322.00,0.0266
1321.00,0.0265
1320.00,0.0265
1319.00,0.0265
1318.00,0.0265
1317.00,0.0265
1316.00,0.0265
1315.00,0.0265
1314.00,0.0266
1313.00,0.0266
1312.00,0.0267
1311.00,0.0267
1310.00,0.0268
1309.00,0.0268
1308.00,0.0269
1307.00,0.0270
1306.00,0.0270
1305.00,0.0271
1304.00,0.0271
1303.00,0.0272
1302.00,0.0273
1301.00,0.0273
1300.00,0.0274
1299.00,0.0275
1298.00,0.0276
1297.00,0.0277
1296.00,0.0278
1295.00,0.0279
1294.00,0.0281
1293.00,0.0283
1292.00,0.0284
1291.00,0.0287
1290.00,0.0289
1289.00,0.0291
1288.00,0.0294
1287.00,0.0297
1286.00,0.0299
1285.00,0.0302
1284.00,0.0306
1283.00,0.0309
1282.00,0.0313
1281.00,0.0317
1280.00,0.0322
1279.00,0.0327
1278.00,0.0332
1277.00,0.0338
1276.00,0.0345
1275.00,0.0353
1274.00,0.0361
1273.00,0.0369
1272.00,0.0378
1271.00,0.0387
1270.00,0.0396
1269.00,0.0405
1268.00,0.0413
1267.00,0.0422
1266.00,0.0429
1265.00,0.0436
1264.00,0.0442
1263.00,0.0447
1262.00,0.0451
1261.00,0.0454
1260.00,0.0457
1259.00,0.0460
1258.00,0.0463
1257.00,0.0467
1256.00,0.0471
1255.00,0.0475
1254.00,0.0480
1253.00,0.0484
1252.00,0.0488
1251.00,0.0491
1250.00,0.0492
1249.00,0.0493
1248.00,0.0493
1247.00,0.0493
1246.00,0.0494
1245.00,0.0496
1244.00,0.0498
1243.00,0.0501
1242.00,0.0504
1241.00,0.0507
1240.00,0.0510
1239.00,0.0512
1238.00,0.0513
1237.00,0.0514
1236.00,0.0514
1235.00,0.0514
1234.00,0.0513
1233.00,0.0511
1232.00,0.0508
1231.00,0.0505
1230.00,0.0500
1229.00,0.0495
1228.00,0.0490
1227.00,0.0483
1226.00,0.0477
1225.00,0.0469
1224.00,0.0462
1223.00,0.0454
1222.00,0.0446
1221.00,0.0438
1220.00,0.0430
1219.00,0.0422
1218.00,0.0413
1217.00,0.0405
1216.00,0.0396
1215.00,0.0387
1214.00,0.0379
1213.00,0.0370
1212.00,0.0362
1211.00,0.0353
1210.00,0.0345
1209.00,0.0336
1208.00,0.0328
1207.00,0.0320
1206.00,0.0312
1205.00,0.0305
1204.00,0.0298
1203.00,0.0291
1202.00,0.0285
1201.00,0.0279
1200.00,0.0273
1199.00,0.0268
1198.00,0.0264
1197.00,0.0260
1196.00,0.0257
1195.00,0.0255
1194.00,0.0253
1193.00,0.0252
1192.00,0.0251
1191.00,0.0251
1190.00,0.0252
1189.00,0.0253
1188.00,0.0255
1187.00,0.0258
1186.00,0.0261
1185.00,0.0265
1184.00,0.0270
1183.00,0.0275
1182.00,0.0281
1181.00,0.0287
1180.00,0.0294
1179.00,0.0302
1178.00,0.0310
1177.00,0.0318
1176.00,0.0327
1175.00,0.0335
1174.00,0.0343
1173.00,0.0351
1172.00,0.0358
1171.00,0.0365
1170.00,0.0370
1169.00,0.0375
1168.00,0.0379
1167.00,0.0383
1166.00,0.0386
1165.00,0.0389
1164.00,0.0391
1163.00,0.0393
1162.00,0.0394
1161.00,0.0394
1160.00,0.0393
1159.00,0.0393
1158.00,0.0392
1157.00,0.0391
1156.00,0.0390
1155.00,0.0387
1154.00,0.0385
1153.00,0.0382
1152.00,0.0378
1151.00,0.0374
1150.00,0.0369
1149.00,0.0364
1148.00,0.0358
1147.00,0.0352
1146.00,0.0346
1145.00,0.0341
1144.00,0.0335
1143.00,0.0330
1142.00,0.0326
1141.00,0.0322
1140.00,0.0318
1139.00,0.0315
1138.00,0.0312
1137.00,0.0309
1136.00,0.0306
1135.00,0.0302
1134.00,0.0300
1133.00,0.0298
1132.00,0.0297
1131.00,0.0296
1130.00,0.0296
1129.00,0.0295
1128.00,0.0293
1127.00,0.0292
1126.00,0.0290
1125.00,0.0288
1124.00,0.0287
1123.00,0.0285
1122.00,0.0284
1121.00,0.0282
1120.00,0.0281
1119.00,0.0279
1118.00,0.0277
1117.00,0.0275
1116.00,0.0273
1115.00,0.0272
1114.00,0.0271
1113.00,0.0269
1112.00,0.0268
1111.00,0.0268
1110.00,0.0268
1109.00,0.0268
1108.00,0.0269
1107.00,0.0270
1106.00,0.0272
1105.00,0.0273
1104.00,0.0275
1103.00,0.0277
1102.00,0.0279
1101.00,0.0280
1100.00,0.0282
1099.00,0.0284
1098.00,0.0286
1097.00,0.0289
1096.00,0.0292
1095.00,0.0296
1094.00,0.0300
1093.00,0.0304
1092.00,0.0308
1091.00,0.0313
1090.00,0.0317
1089.00,0.0320
1088.00,0.0323
1087.00,0.0326
1086.00,0.0329
1085.00,0.0332
1084.00,0.0335
1083.00,0.0338
1082.00,0.0341
1081.00,0.0344
1080.00,0.0346
1079.00,0.0348
1078.00,0.0350
1077.00,0.0352
1076.00,0.0353
1075.00,0.0355
1074.00,0.0357
1073.00,0.0358
1072.00,0.0358
1071.00,0.0357
1070.00,0.0355
1069.00,0.0352
1068.00,0.0349
1067.00,0.0344
1066.00,0.0340
1065.00,0.0336
1064.00,0.0333
1063.00,0.0330
1062.00,0.0327
1061.00,0.0325
1060.00,0.0321
1059.00,0.0318
1058.00,0.0313
1057.00,0.0308
1056.00,0.0304
1055.00,0.0299
1054.00,0.0293
1053.00,0.0288
1052.00,0.0283
1051.00,0.0278
1050.00,0.0273
1049.00,0.0268
1048.00,0.0263
1047.00,0.0259
1046.00,0.0254
1045.00,0.0249
1044.00,0.0245
1043.00,0.0240
1042.00,0.0236
1041.00,0.0232
1040.00,0.0228
1039.00,0.0225
1038.00,0.0222
1037.00,0.0219
1036.00,0.0217
1035.00,0.0215
1034.00,0.0213
1033.00,0.0211
1032.00,0.0209
1031.00,0.0208
1030.00,0.0206
1029.00,0.0205
1028.00,0.0204
1027.00,0.0204
1026.00,0.0204
1025.00,0.0205
1024.00,0.0206
1023.00,0.0208
1022.00,0.0211
1021.00,0.0214
1020.00,0.0217
1019.00,0.0220
1018.00,0.0223
1017.00,0.0225
1016.00,0.0225
1015.00,0.0225
1014.00,0.0223
1013.00,0.0221
1012.00,0.0218
1011.00,0.0215
1010.00,0.0212
1009.00,0.0209
1008.00,0.0206
1007.00,0.0204
1006.00,0.0202
1005.00,0.0201
1004.00,0.0199
1003.00,0.0198
1002.00,0.0197
1001.00,0.0196
1000.00,0.0195
999.00,0.0193
998.00,0.0192
997.00,0.0189
996.00,0.0186
995.00,0.0183
994.00,0.0180
993.00,0.0177
992.00,0.0174
991.00,0.0171
990.00,0.0169
989.00,0.0168
988.00,0.0167
987.00,0.0166
986.00,0.0167
985.00,0.0168
984.00,0.0171
983.00,0.0174
982.00,0.0178
981.00,0.0183
980.00,0.0188
979.00,0.0194
978.00,0.0201
977.00,0.0208
976.00,0.0215
975.00,0.0223
974.00,0.0231
973.00,0.0239
972.00,0.0245
971.00,0.0252
970.00,0.0257
969.00,0.0261
968.00,0.0264
967.00,0.0265
966.00,0.0265
965.00,0.0264
964.00,0.0261
963.00,0.0259
962.00,0.0257
961.00,0.0258
960.00,0.0260
959.00,0.0265
958.00,0.0269
957.00,0.0272
956.00,0.0272
955.00,0.0272
954.00,0.0271
953.00,0.0270
952.00,0.0267
951.00,0.0263
950.00,0.0259
949.00,0.0255
948.00,0.0250
947.00,0.0247
946.00,0.0244
945.00,0.0242
944.00,0.0240
943.00,0.0238
942.00,0.0236
941.00,0.0232
940.00,0.0228
939.00,0.0224
938.00,0.0219
937.00,0.0213
936.00,0.0207
935.00,0.0201
934.00,0.0194
933.00,0.0188
932.00,0.0182
931.00,0.0176
930.00,0.0171
929.00,0.0166
928.00,0.0160
927.00,0.0155
926.00,0.0151
925.00,0.0146
924.00,0.0142
923.00,0.0138
922.00,0.0134
921.00,0.0131
920.00,0.0128
919.00,0.0125
918.00,0.0122
917.00,0.0120
916.00,0.0117
915.00,0.0115
914.00,0.0113
913.00,0.0112
912.00,0.0110
911.00,0.0109
910.00,0.0108
909.00,0.0107
908.00,0.0106
907.00,0.0106
906.00,0.0106
905.00,0.0105
904.00,0.0105
903.00,0.0105
902.00,0.0105
901.00,0.0104
900.00,0.0104
899.00,0.0104
898.00,0.0104
897.00,0.0104
896.00,0.0104
895.00,0.0103
894.00,0.0103
893.00,0.0102
892.00,0.0102
891.00,0.0102
890.00,0.0102
889.00,0.0101
888.00,0.0101
887.00,0.0101
886.00,0.0101
885.00,0.0100
884.00,0.0100
883.00,0.0101
882.00,0.0101
881.00,0.0102
880.00,0.0103
879.00,0.0104
878.00,0.0104
877.00,0.0105
876.00,0.0106
875.00,0.0107
874.00,0.0108
873.00,0.0110
872.00,0.0110
871.00,0.0110
870.00,0.0110
869.00,0.0110
868.00,0.0109
867.00,0.0110
866.00,0.0110
865.00,0.0111
864.00,0.0112
863.00,0.0113
862.00,0.0114
861.00,0.0116
860.00,0.0117
859.00,0.0119
858.00,0.0121
857.00,0.0124
856.00,0.0126
855.00,0.0128
854.00,0.0131
853.00,0.0132
852.00,0.0134
851.00,0.0135
850.00,0.0136
849.00,0.0136
848.00,0.0136
847.00,0.0137
846.00,0.0137
845.00,0.0137
844.00,0.0138
843.00,0.0138
842.00,0.0140
841.00,0.0141
840.00,0.0143
839.00,0.0146
838.00,0.0148
837.00,0.0151
836.00,0.0154
835.00,0.0157
834.00,0.0160
833.00,0.0163
832.00,0.0165
831.00,0.0168
830.00,0.0169
829.00,0.0170
828.00,0.0171
827.00,0.0171
826.00,0.0171
825.00,0.0171
824.00,0.0171
823.00,0.0171
822.00,0.0171
821.00,0.0172
820.00,0.0173
819.00,0.0174
818.00,0.0175
817.00,0.0176
816.00,0.0177
815.00,0.0178
814.00,0.0178
813.00,0.0179
812.00,0.0179
811.00,0.0180
810.00,0.0181
809.00,0.0182
808.00,0.0183
807.00,0.0184
806.00,0.0185
805.00,0.0186
804.00,0.0187
803.00,0.0187
802.00,0.0187
801.00,0.0187
800.00,0.0187
799.00,0.0187
798.00,0.0187
797.00,0.0186
796.00,0.0186
795.00,0.0186
794.00,0.0187
793.00,0.0187
792.00,0.0187
791.00,0.0188
790.00,0.0188
789.00,0.0189
788.00,0.0190
787.00,0.0190
786.00,0.0191
785.00,0.0192
784.00,0.0193
783.00,0.0194
782.00,0.0195
781.00,0.0197
780.00,0.0198
779.00,0.0200
778.00,0.0201
777.00,0.0203
776.00,0.0204
775.00,0.0206
774.00,0.0208
773.00,0.0209
772.00,0.0211
771.00,0.0213
770.00,0.0215
769.00,0.0217
768.00,0.0219
767.00,0.0221
766.00,0.0223
765.00,0.0224
764.00,0.0226
763.00,0.0227
762.00,0.0229
761.00,0.0231
760.00,0.0233
759.00,0.0234
758.00,0.0236
757.00,0.0238
756.00,0.0240
755.00,0.0242
754.00,0.0244
753.00,0.0246
752.00,0.0248
751.00,0.0250
750.00,0.0252
749.00,0.0255
748.00,0.0257
747.00,0.0260
746.00,0.0262
745.00,0.0265
744.00,0.0268
743.00,0.0271
742.00,0.0275
741.00,0.0278
740.00,0.0282
739.00,0.0287
738.00,0.0291
737.00,0.0296
736.00,0.0302
735.00,0.0307
734.00,0.0313
733.00,0.0319
732.00,0.0325
731.00,0.0331
730.00,0.0337
729.00,0.0344
728.00,0.0350
727.00,0.0356
726.00,0.0362
725.00,0.0367
724.00,0.0372
723.00,0.0377
722.00,0.0380
721.00,0.0382
720.00,0.0384
719.00,0.0385
718.00,0.0386
717.00,0.0387
716.00,0.0388
715.00,0.0389
714.00,0.0391
713.00,0.0393
712.00,0.0395
711.00,0.0398
710.00,0.0401
709.00,0.0403
708.00,0.0406
707.00,0.0409
706.00,0.0412
705.00,0.0416
704.00,0.0419
703.00,0.0422
702.00,0.0425
701.00,0.0427
700.00,0.0430
699.00,0.0432
698.00,0.0433
697.00,0.0435
696.00,0.0436
695.00,0.0437
694.00,0.0438
693.00,0.0439
692.00,0.0441
691.00,0.0442
690.00,0.0443
689.00,0.0444
688.00,0.0446
687.00,0.0447
686.00,0.0448
685.00,0.0450
684.00,0.0451
683.00,0.0453
682.00,0.0454
681.00,0.0455
680.00,0.0457
679.00,0.0458
678.00,0.0460
677.00,0.0461
676.00,0.0463
675.00,0.0464
674.00,0.0465
673.00,0.0466
672.00,0.0466
671.00,0.0466
670.00,0.0466
669.00,0.0468
668.00,0.0471
667.00,0.0475
666.00,0.0476
665.00,0.0477
664.00,0.0477
663.00,0.0478
662.00,0.0480
661.00,0.0481
660.00,0.0483
659.00,0.0484
658.00,0.0485
657.00,0.0487
656.00,0.0489
655.00,0.0490
654.00,0.0491
653.00,0.0493
652.00,0.0494
651.00,0.0495
650.00,0.0496
649.00,0.0498
648.00,0.0499
647.00,0.0500
646.00,0.0502
645.00,0.0503
644.00,0.0504
643.00,0.0506
642.00,0.0507
641.00,0.0508
640.00,0.0509
639.00,0.0510
638.00,0.0511
637.00,0.0512
636.00,0.0513
635.00,0.0514
634.00,0.0515
633.00,0.0516
632.00,0.0517
631.00,0.0517
630.00,0.0518
629.00,0.0518
628.00,0.0518
627.00,0.0518
626.00,0.0519
625.00,0.0519
624.00,0.0520
623.00,0.0521
622.00,0.0522
621.00,0.0523
620.00,0.0524
619.00,0.0526
618.00,0.0528
617.00,0.0530
616.00,0.0531
615.00,0.0532
614.00,0.0533
613.00,0.0534
612.00,0.0535
611.00,0.0535
610.00,0.0535
609.00,0.0533
608.00,0.0532
607.00,0.0531
606.00,0.0529
605.00,0.0528
604.00,0.0527
603.00,0.0525
602.00,0.0524
601.00,0.0524
600.00,0.0523
599.00,0.0523
598.00,0.0522
597.00,0.0521
596.00,0.0521
595.00,0.0521
594.00,0.0522
593.00,0.0522
592.00,0.0523
591.00,0.0523
590.00,0.0523
589.00,0.0524
588.00,0.0524
587.00,0.0525
586.00,0.0526
585.00,0.0527
584.00,0.0528
583.00,0.0529
582.00,0.0530
581.00,0.0531
580.00,0.0532
579.00,0.0534
578.00,0.0535
577.00,0.0537
576.00,0.0539
575.00,0.0541
574.00,0.0543
573.00,0.0546
572.00,0.0548
571.00,0.0550
570.00,0.0552
569.00,0.0555
568.00,0.0558
567.00,0.0561
566.00,0.0564
565.00,0.0567
564.00,0.0571
563.00,0.0574
562.00,0.0577
561.00,0.0581
560.00,0.0586
559.00,0.0591
558.00,0.0596
557.00,0.0600
556.00,0.0604
555.00,0.0607
554.00,0.0609
553.00,0.0611
552.00,0.0612
551.00,0.0613
550.00,0.0613
549.00,0.0613
548.00,0.0613
547.00,0.0613
546.00,0.0612
545.00,0.0611
544.00,0.0611
543.00,0.0611
542.00,0.0610
541.00,0.0609
540.00,0.0607
539.00,0.0606
538.00,0.0604
537.00,0.0602
536.00,0.0601
535.00,0.0600
534.00,0.0598
533.00,0.0597
532.00,0.0596
531.00,0.0594
530.00,0.0592
529.00,0.0591
528.00,0.0590
527.00,0.0589
526.00,0.0589
525.00,0.0589
524.00,0.0590
523.00,0.0590
522.00,0.0590
521.00,0.0589
520.00,0.0588
519.00,0.0586
518.00,0.0585
517.00,0.0584
516.00,0.0583
515.00,0.0583
514.00,0.0583
513.00,0.0581
512.00,0.0580
511.00,0.0579
510.00,0.0577
509.00,0.0576
508.00,0.0576
507.00,0.0577
506.00,0.0576
505.00,0.0575
504.00,0.0574
503.00,0.0573
502.00,0.0572
501.00,0.0571
500.00,0.0571
499.00,0.0571
498.00,0.0570
497.00,0.0569
496.00,0.0569
495.00,0.0570
494.00,0.0570
493.00,0.0570
492.00,0.0571
491.00,0.0571
490.00,0.0570
489.00,0.0568
488.00,0.0566
487.00,0.0565
486.00,0.0564
485.00,0.0563
484.00,0.0564
483.00,0.0563
482.00,0.0561
481.00,0.0559
480.00,0.0557
479.00,0.0556
478.00,0.0556
477.00,0.0555
476.00,0.0555
475.00,0.0554
474.00,0.0553
473.00,0.0551
472.00,0.0550
471.00,0.0549
470.00,0.0547
469.00,0.0545
468.00,0.0543
467.00,0.0543
466.00,0.0542
465.00,0.0541
464.00,0.0540
463.00,0.0539
462.00,0.0539
461.00,0.0538
460.00,0.0537
459.00,0.0536
458.00,0.0534
457.00,0.0532
456.00,0.0530
455.00,0.0529
454.00,0.0528
453.00,0.0528
452.00,0.0527
451.00,0.0525
450.00,0.0523
449.00,0.0522
448.00,0.0520
447.00,0.0519
446.00,0.0517
445.00,0.0515
444.00,0.0515
443.00,0.0516
442.00,0.0516
441.00,0.0516
440.00,0.0516
439.00,0.0516
438.00,0.0516
437.00,0.0517
436.00,0.0518
435.00,0.0518
434.00,0.0517
433.00,0.0517
432.00,0.0518
431.00,0.0520
430.00,0.0522
429.00,0.0524
428.00,0.0529
427.00,0.0534
426.00,0.0537
425.00,0.0538
424.00,0.0537
423.00,0.0534
422.00,0.0531
421.00,0.0526
420.00,0.0522
419.00,0.0518
418.00,0.0512
417.00,0.0507
416.00,0.0505
415.00,0.0505
414.00,0.0505
413.00,0.0504
412.00,0.0500
411.00,0.0494
410.00,0.0486
409.00,0.0479
408.00,0.0475
407.00,0.0471
406.00,0.0469
405.00,0.0468
404.00,0.0470
403.00,0.0475
402.00,0.0482
401.00,0.0493
400.00,0.0505
