Created as New Dataset,Sample 277 By YargerLab Date Wednesday, July 24 2024
cm-1,A
4000.00,0.0024
3999.00,0.0024
3998.00,0.0024
3997.00,0.0025
3996.00,0.0025
3995.00,0.0024
3994.00,0.0024
3993.00,0.0024
3992.00,0.0024
3991.00,0.0024
3990.00,0.0024
3989.00,0.0024
3988.00,0.0024
3987.00,0.0024
3986.00,0.0024
3985.00,0.0024
3984.00,0.0024
3983.00,0.0024
3982.00,0.0024
3981.00,0.0024
3980.00,0.0024
3979.00,0.0024
3978.00,0.0024
3977.00,0.0024
3976.00,0.0024
3975.00,0.0024
3974.00,0.0024
3973.00,0.0024
3972.00,0.0024
3971.00,0.0024
3970.00,0.0024
3969.00,0.0024
3968.00,0.0024
3967.00,0.0024
3966.00,0.0024
3965.00,0.0024
3964.00,0.0024
3963.00,0.0024
3962.00,0.0024
3961.00,0.0024
3960.00,0.0024
3959.00,0.0024
3958.00,0.0024
3957.00,0.0024
3956.00,0.0024
3955.00,0.0024
3954.00,0.0024
3953.00,0.0024
3952.00,0.0024
3951.00,0.0024
3950.00,0.0024
3949.00,0.0024
3948.00,0.0024
3947.00,0.0024
3946.00,0.0024
3945.00,0.0024
3944.00,0.0024
3943.00,0.0024
3942.00,0.0024
3941.00,0.0024
3940.00,0.0024
3939.00,0.0024
3938.00,0.0024
3937.00,0.0024
3936.00,0.0024
3935.00,0.0024
3934.00,0.0024
3933.00,0.0024
3932.00,0.0024
3931.00,0.0024
3930.00,0.0024
3929.00,0.0024
3928.00,0.0024
3927.00,0.0023
3926.00,0.0023
3925.00,0.0023
3924.00,0.0023
3923.00,0.0024
3922.00,0.0024
3921.00,0.0024
3920.00,0.0024
3919.00,0.0024
3918.00,0.0024
3917.00,0.0024
3916.00,0.0024
3915.00,0.0024
3914.00,0.0023
3913.00,0.0023
3912.00,0.0023
3911.00,0.0023
3910.00,0.0023
3909.00,0.0023
3908.00,0.0023
3907.00,0.0023
3906.00,0.0023
3905.00,0.0023
3904.00,0.0023
3903.00,0.0023
3902.00,0.0023
3901.00,0.0023
3900.00,0.0023
3899.00,0.0023
3898.00,0.0023
3897.00,0.0023
3896.00,0.0023
3895.00,0.0023
3894.00,0.0023
3893.00,0.0023
3892.00,0.0023
3891.00,0.0023
3890.00,0.0023
3889.00,0.0023
3888.00,0.0023
3887.00,0.0023
3886.00,0.0023
3885.00,0.0023
3884.00,0.0022
3883.00,0.0022
3882.00,0.0022
3881.00,0.0023
3880.00,0.0023
3879.00,0.0023
3878.00,0.0023
3877.00,0.0023
3876.00,0.0022
3875.00,0.0022
3874.00,0.0022
3873.00,0.0022
3872.00,0.0022
3871.00,0.0022
3870.00,0.0022
3869.00,0.0022
3868.00,0.0022
3867.00,0.0022
3866.00,0.0022
3865.00,0.0023
3864.00,0.0023
3863.00,0.0023
3862.00,0.0023
3861.00,0.0023
3860.00,0.0023
3859.00,0.0023
3858.00,0.0022
3857.00,0.0022
3856.00,0.0021
3855.00,0.0021
3854.00,0.0021
3853.00,0.0021
3852.00,0.0021
3851.00,0.0021
3850.00,0.0022
3849.00,0.0022
3848.00,0.0022
3847.00,0.0022
3846.00,0.0022
3845.00,0.0022
3844.00,0.0022
3843.00,0.0022
3842.00,0.0022
3841.00,0.0022
3840.00,0.0021
3839.00,0.0021
3838.00,0.0021
3837.00,0.0021
3836.00,0.0021
3835.00,0.0021
3834.00,0.0021
3833.00,0.0021
3832.00,0.0022
3831.00,0.0022
3830.00,0.0022
3829.00,0.0022
3828.00,0.0022
3827.00,0.0022
3826.00,0.0022
3825.00,0.0022
3824.00,0.0022
3823.00,0.0022
3822.00,0.0021
3821.00,0.0021
3820.00,0.0021
3819.00,0.0021
3818.00,0.0021
3817.00,0.0021
3816.00,0.0021
3815.00,0.0021
3814.00,0.0021
3813.00,0.0021
3812.00,0.0022
3811.00,0.0022
3810.00,0.0022
3809.00,0.0022
3808.00,0.0022
3807.00,0.0022
3806.00,0.0021
3805.00,0.0021
3804.00,0.0021
3803.00,0.0021
3802.00,0.0021
3801.00,0.0021
3800.00,0.0021
3799.00,0.0021
3798.00,0.0021
3797.00,0.0022
3796.00,0.0022
3795.00,0.0022
3794.00,0.0022
3793.00,0.0022
3792.00,0.0022
3791.00,0.0022
3790.00,0.0022
3789.00,0.0022
3788.00,0.0022
3787.00,0.0022
3786.00,0.0022
3785.00,0.0022
3784.00,0.0022
3783.00,0.0022
3782.00,0.0022
3781.00,0.0022
3780.00,0.0022
3779.00,0.0022
3778.00,0.0022
3777.00,0.0022
3776.00,0.0022
3775.00,0.0022
3774.00,0.0022
3773.00,0.0022
3772.00,0.0022
3771.00,0.0022
3770.00,0.0022
3769.00,0.0022
3768.00,0.0022
3767.00,0.0022
3766.00,0.0022
3765.00,0.0022
3764.00,0.0022
3763.00,0.0022
3762.00,0.0022
3761.00,0.0022
3760.00,0.0022
3759.00,0.0022
3758.00,0.0022
3757.00,0.0022
3756.00,0.0022
3755.00,0.0022
3754.00,0.0022
3753.00,0.0022
3752.00,0.0022
3751.00,0.0022
3750.00,0.0022
3749.00,0.0022
3748.00,0.0021
3747.00,0.0021
3746.00,0.0021
3745.00,0.0021
3744.00,0.0022
3743.00,0.0022
3742.00,0.0022
3741.00,0.0022
3740.00,0.0022
3739.00,0.0022
3738.00,0.0023
3737.00,0.0023
3736.00,0.0022
3735.00,0.0023
3734.00,0.0023
3733.00,0.0023
3732.00,0.0022
3731.00,0.0022
3730.00,0.0022
3729.00,0.0022
3728.00,0.0022
3727.00,0.0022
3726.00,0.0022
3725.00,0.0022
3724.00,0.0022
3723.00,0.0022
3722.00,0.0022
3721.00,0.0022
3720.00,0.0022
3719.00,0.0022
3718.00,0.0022
3717.00,0.0022
3716.00,0.0022
3715.00,0.0022
3714.00,0.0022
3713.00,0.0022
3712.00,0.0022
3711.00,0.0022
3710.00,0.0022
3709.00,0.0021
3708.00,0.0021
3707.00,0.0021
3706.00,0.0022
3705.00,0.0022
3704.00,0.0022
3703.00,0.0022
3702.00,0.0022
3701.00,0.0022
3700.00,0.0022
3699.00,0.0022
3698.00,0.0022
3697.00,0.0022
3696.00,0.0022
3695.00,0.0021
3694.00,0.0021
3693.00,0.0021
3692.00,0.0020
3691.00,0.0020
3690.00,0.0020
3689.00,0.0020
3688.00,0.0020
3687.00,0.0020
3686.00,0.0020
3685.00,0.0020
3684.00,0.0020
3683.00,0.0020
3682.00,0.0020
3681.00,0.0019
3680.00,0.0019
3679.00,0.0018
3678.00,0.0018
3677.00,0.0017
3676.00,0.0017
3675.00,0.0016
3674.00,0.0016
3673.00,0.0016
3672.00,0.0016
3671.00,0.0016
3670.00,0.0016
3669.00,0.0016
3668.00,0.0017
3667.00,0.0017
3666.00,0.0017
3665.00,0.0017
3664.00,0.0017
3663.00,0.0017
3662.00,0.0017
3661.00,0.0017
3660.00,0.0017
3659.00,0.0017
3658.00,0.0017
3657.00,0.0017
3656.00,0.0017
3655.00,0.0017
3654.00,0.0018
3653.00,0.0018
3652.00,0.0018
3651.00,0.0018
3650.00,0.0019
3649.00,0.0019
3648.00,0.0020
3647.00,0.0021
3646.00,0.0021
3645.00,0.0022
3644.00,0.0023
3643.00,0.0023
3642.00,0.0024
3641.00,0.0024
3640.00,0.0025
3639.00,0.0025
3638.00,0.0025
3637.00,0.0026
3636.00,0.0027
3635.00,0.0028
3634.00,0.0029
3633.00,0.0030
3632.00,0.0031
3631.00,0.0031
3630.00,0.0032
3629.00,0.0032
3628.00,0.0033
3627.00,0.0033
3626.00,0.0034
3625.00,0.0034
3624.00,0.0035
3623.00,0.0035
3622.00,0.0036
3621.00,0.0036
3620.00,0.0037
3619.00,0.0037
3618.00,0.0037
3617.00,0.0038
3616.00,0.0039
3615.00,0.0039
3614.00,0.0040
3613.00,0.0040
3612.00,0.0040
3611.00,0.0041
3610.00,0.0041
3609.00,0.0041
3608.00,0.0041
3607.00,0.0042
3606.00,0.0042
3605.00,0.0043
3604.00,0.0043
3603.00,0.0044
3602.00,0.0044
3601.00,0.0045
3600.00,0.0045
3599.00,0.0046
3598.00,0.0046
3597.00,0.0047
3596.00,0.0047
3595.00,0.0047
3594.00,0.0048
3593.00,0.0048
3592.00,0.0049
3591.00,0.0050
3590.00,0.0050
3589.00,0.0050
3588.00,0.0050
3587.00,0.0051
3586.00,0.0051
3585.00,0.0051
3584.00,0.0052
3583.00,0.0052
3582.00,0.0053
3581.00,0.0053
3580.00,0.0054
3579.00,0.0054
3578.00,0.0055
3577.00,0.0055
3576.00,0.0056
3575.00,0.0056
3574.00,0.0057
3573.00,0.0057
3572.00,0.0058
3571.00,0.0059
3570.00,0.0059
3569.00,0.0060
3568.00,0.0060
3567.00,0.0060
3566.00,0.0061
3565.00,0.0061
3564.00,0.0061
3563.00,0.0062
3562.00,0.0063
3561.00,0.0063
3560.00,0.0064
3559.00,0.0064
3558.00,0.0064
3557.00,0.0065
3556.00,0.0066
3555.00,0.0066
3554.00,0.0067
3553.00,0.0067
3552.00,0.0068
3551.00,0.0068
3550.00,0.0069
3549.00,0.0070
3548.00,0.0070
3547.00,0.0071
3546.00,0.0071
3545.00,0.0072
3544.00,0.0072
3543.00,0.0072
3542.00,0.0073
3541.00,0.0073
3540.00,0.0074
3539.00,0.0075
3538.00,0.0075
3537.00,0.0076
3536.00,0.0076
3535.00,0.0077
3534.00,0.0077
3533.00,0.0077
3532.00,0.0078
3531.00,0.0078
3530.00,0.0079
3529.00,0.0080
3528.00,0.0080
3527.00,0.0081
3526.00,0.0081
3525.00,0.0082
3524.00,0.0082
3523.00,0.0082
3522.00,0.0083
3521.00,0.0083
3520.00,0.0084
3519.00,0.0084
3518.00,0.0085
3517.00,0.0085
3516.00,0.0086
3515.00,0.0087
3514.00,0.0087
3513.00,0.0088
3512.00,0.0088
3511.00,0.0089
3510.00,0.0089
3509.00,0.0090
3508.00,0.0090
3507.00,0.0091
3506.00,0.0091
3505.00,0.0092
3504.00,0.0093
3503.00,0.0093
3502.00,0.0093
3501.00,0.0094
3500.00,0.0094
3499.00,0.0095
3498.00,0.0096
3497.00,0.0096
3496.00,0.0097
3495.00,0.0097
3494.00,0.0097
3493.00,0.0098
3492.00,0.0099
3491.00,0.0099
3490.00,0.0100
3489.00,0.0101
3488.00,0.0101
3487.00,0.0102
3486.00,0.0102
3485.00,0.0103
3484.00,0.0104
3483.00,0.0104
3482.00,0.0104
3481.00,0.0105
3480.00,0.0105
3479.00,0.0106
3478.00,0.0106
3477.00,0.0107
3476.00,0.0108
3475.00,0.0108
3474.00,0.0109
3473.00,0.0110
3472.00,0.0110
3471.00,0.0111
3470.00,0.0112
3469.00,0.0112
3468.00,0.0113
3467.00,0.0113
3466.00,0.0114
3465.00,0.0114
3464.00,0.0115
3463.00,0.0115
3462.00,0.0116
3461.00,0.0117
3460.00,0.0117
3459.00,0.0118
3458.00,0.0118
3457.00,0.0119
3456.00,0.0119
3455.00,0.0120
3454.00,0.0120
3453.00,0.0121
3452.00,0.0121
3451.00,0.0122
3450.00,0.0122
3449.00,0.0123
3448.00,0.0124
3447.00,0.0124
3446.00,0.0125
3445.00,0.0125
3444.00,0.0126
3443.00,0.0126
3442.00,0.0127
3441.00,0.0127
3440.00,0.0128
3439.00,0.0129
3438.00,0.0129
3437.00,0.0130
3436.00,0.0131
3435.00,0.0131
3434.00,0.0132
3433.00,0.0132
3432.00,0.0133
3431.00,0.0133
3430.00,0.0134
3429.00,0.0134
3428.00,0.0135
3427.00,0.0135
3426.00,0.0136
3425.00,0.0137
3424.00,0.0137
3423.00,0.0138
3422.00,0.0139
3421.00,0.0139
3420.00,0.0139
3419.00,0.0140
3418.00,0.0141
3417.00,0.0141
3416.00,0.0142
3415.00,0.0143
3414.00,0.0143
3413.00,0.0144
3412.00,0.0145
3411.00,0.0145
3410.00,0.0146
3409.00,0.0146
3408.00,0.0147
3407.00,0.0147
3406.00,0.0148
3405.00,0.0148
3404.00,0.0149
3403.00,0.0150
3402.00,0.0150
3401.00,0.0151
3400.00,0.0151
3399.00,0.0152
3398.00,0.0152
3397.00,0.0153
3396.00,0.0153
3395.00,0.0154
3394.00,0.0154
3393.00,0.0155
3392.00,0.0155
3391.00,0.0156
3390.00,0.0156
3389.00,0.0157
3388.00,0.0157
3387.00,0.0158
3386.00,0.0158
3385.00,0.0159
3384.00,0.0160
3383.00,0.0160
3382.00,0.0161
3381.00,0.0161
3380.00,0.0162
3379.00,0.0163
3378.00,0.0164
3377.00,0.0164
3376.00,0.0165
3375.00,0.0166
3374.00,0.0166
3373.00,0.0167
3372.00,0.0168
3371.00,0.0169
3370.00,0.0169
3369.00,0.0170
3368.00,0.0171
3367.00,0.0172
3366.00,0.0172
3365.00,0.0173
3364.00,0.0174
3363.00,0.0175
3362.00,0.0176
3361.00,0.0177
3360.00,0.0178
3359.00,0.0179
3358.00,0.0180
3357.00,0.0181
3356.00,0.0182
3355.00,0.0183
3354.00,0.0184
3353.00,0.0185
3352.00,0.0186
3351.00,0.0187
3350.00,0.0188
3349.00,0.0189
3348.00,0.0190
3347.00,0.0191
3346.00,0.0192
3345.00,0.0193
3344.00,0.0194
3343.00,0.0195
3342.00,0.0196
3341.00,0.0197
3340.00,0.0198
3339.00,0.0200
3338.00,0.0201
3337.00,0.0202
3336.00,0.0203
3335.00,0.0204
3334.00,0.0206
3333.00,0.0207
3332.00,0.0208
3331.00,0.0210
3330.00,0.0211
3329.00,0.0212
3328.00,0.0214
3327.00,0.0215
3326.00,0.0216
3325.00,0.0218
3324.00,0.0219
3323.00,0.0221
3322.00,0.0222
3321.00,0.0223
3320.00,0.0225
3319.00,0.0227
3318.00,0.0228
3317.00,0.0230
3316.00,0.0231
3315.00,0.0233
3314.00,0.0235
3313.00,0.0236
3312.00,0.0238
3311.00,0.0239
3310.00,0.0241
3309.00,0.0242
3308.00,0.0244
3307.00,0.0245
3306.00,0.0247
3305.00,0.0249
3304.00,0.0251
3303.00,0.0253
3302.00,0.0255
3301.00,0.0256
3300.00,0.0258
3299.00,0.0260
3298.00,0.0261
3297.00,0.0263
3296.00,0.0264
3295.00,0.0266
3294.00,0.0268
3293.00,0.0269
3292.00,0.0271
3291.00,0.0272
3290.00,0.0274
3289.00,0.0275
3288.00,0.0277
3287.00,0.0278
3286.00,0.0279
3285.00,0.0280
3284.00,0.0281
3283.00,0.0282
3282.00,0.0283
3281.00,0.0284
3280.00,0.0285
3279.00,0.0285
3278.00,0.0286
3277.00,0.0286
3276.00,0.0286
3275.00,0.0286
3274.00,0.0286
3273.00,0.0285
3272.00,0.0285
3271.00,0.0285
3270.00,0.0284
3269.00,0.0284
3268.00,0.0283
3267.00,0.0282
3266.00,0.0281
3265.00,0.0280
3264.00,0.0279
3263.00,0.0278
3262.00,0.0276
3261.00,0.0275
3260.00,0.0274
3259.00,0.0273
3258.00,0.0271
3257.00,0.0270
3256.00,0.0268
3255.00,0.0267
3254.00,0.0265
3253.00,0.0264
3252.00,0.0262
3251.00,0.0261
3250.00,0.0259
3249.00,0.0258
3248.00,0.0256
3247.00,0.0255
3246.00,0.0254
3245.00,0.0252
3244.00,0.0251
3243.00,0.0250
3242.00,0.0249
3241.00,0.0247
3240.00,0.0246
3239.00,0.0245
3238.00,0.0243
3237.00,0.0242
3236.00,0.0241
3235.00,0.0240
3234.00,0.0238
3233.00,0.0237
3232.00,0.0237
3231.00,0.0236
3230.00,0.0235
3229.00,0.0234
3228.00,0.0233
3227.00,0.0232
3226.00,0.0231
3225.00,0.0230
3224.00,0.0229
3223.00,0.0229
3222.00,0.0228
3221.00,0.0227
3220.00,0.0226
3219.00,0.0225
3218.00,0.0224
3217.00,0.0224
3216.00,0.0223
3215.00,0.0222
3214.00,0.0221
3213.00,0.0221
3212.00,0.0220
3211.00,0.0219
3210.00,0.0218
3209.00,0.0218
3208.00,0.0217
3207.00,0.0216
3206.00,0.0215
3205.00,0.0215
3204.00,0.0214
3203.00,0.0213
3202.00,0.0212
3201.00,0.0212
3200.00,0.0211
3199.00,0.0210
3198.00,0.0209
3197.00,0.0209
3196.00,0.0208
3195.00,0.0207
3194.00,0.0206
3193.00,0.0205
3192.00,0.0204
3191.00,0.0204
3190.00,0.0203
3189.00,0.0202
3188.00,0.0201
3187.00,0.0200
3186.00,0.0199
3185.00,0.0198
3184.00,0.0197
3183.00,0.0196
3182.00,0.0195
3181.00,0.0194
3180.00,0.0193
3179.00,0.0192
3178.00,0.0191
3177.00,0.0190
3176.00,0.0189
3175.00,0.0188
3174.00,0.0187
3173.00,0.0186
3172.00,0.0185
3171.00,0.0184
3170.00,0.0183
3169.00,0.0182
3168.00,0.0181
3167.00,0.0180
3166.00,0.0180
3165.00,0.0179
3164.00,0.0178
3163.00,0.0177
3162.00,0.0176
3161.00,0.0175
3160.00,0.0174
3159.00,0.0173
3158.00,0.0172
3157.00,0.0171
3156.00,0.0170
3155.00,0.0169
3154.00,0.0168
3153.00,0.0167
3152.00,0.0166
3151.00,0.0166
3150.00,0.0165
3149.00,0.0164
3148.00,0.0163
3147.00,0.0163
3146.00,0.0162
3145.00,0.0161
3144.00,0.0160
3143.00,0.0160
3142.00,0.0159
3141.00,0.0158
3140.00,0.0157
3139.00,0.0157
3138.00,0.0156
3137.00,0.0155
3136.00,0.0155
3135.00,0.0154
3134.00,0.0154
3133.00,0.0153
3132.00,0.0153
3131.00,0.0152
3130.00,0.0151
3129.00,0.0151
3128.00,0.0151
3127.00,0.0150
3126.00,0.0150
3125.00,0.0149
3124.00,0.0149
3123.00,0.0148
3122.00,0.0148
3121.00,0.0147
3120.00,0.0147
3119.00,0.0147
3118.00,0.0147
3117.00,0.0146
3116.00,0.0146
3115.00,0.0146
3114.00,0.0146
3113.00,0.0146
3112.00,0.0146
3111.00,0.0145
3110.00,0.0145
3109.00,0.0145
3108.00,0.0145
3107.00,0.0145
3106.00,0.0145
3105.00,0.0146
3104.00,0.0146
3103.00,0.0146
3102.00,0.0146
3101.00,0.0146
3100.00,0.0146
3099.00,0.0146
3098.00,0.0146
3097.00,0.0146
3096.00,0.0147
3095.00,0.0147
3094.00,0.0147
3093.00,0.0147
3092.00,0.0147
3091.00,0.0147
3090.00,0.0147
3089.00,0.0148
3088.00,0.0148
3087.00,0.0148
3086.00,0.0148
3085.00,0.0149
3084.00,0.0149
3083.00,0.0149
3082.00,0.0149
3081.00,0.0149
3080.00,0.0150
3079.00,0.0150
3078.00,0.0150
3077.00,0.0150
3076.00,0.0150
3075.00,0.0151
3074.00,0.0151
3073.00,0.0151
3072.00,0.0151
3071.00,0.0151
3070.00,0.0151
3069.00,0.0151
3068.00,0.0150
3067.00,0.0150
3066.00,0.0150
3065.00,0.0150
3064.00,0.0150
3063.00,0.0149
3062.00,0.0149
3061.00,0.0149
3060.00,0.0148
3059.00,0.0148
3058.00,0.0148
3057.00,0.0147
3056.00,0.0146
3055.00,0.0146
3054.00,0.0145
3053.00,0.0145
3052.00,0.0144
3051.00,0.0143
3050.00,0.0143
3049.00,0.0142
3048.00,0.0141
3047.00,0.0141
3046.00,0.0140
3045.00,0.0140
3044.00,0.0139
3043.00,0.0138
3042.00,0.0138
3041.00,0.0137
3040.00,0.0137
3039.00,0.0137
3038.00,0.0136
3037.00,0.0135
3036.00,0.0135
3035.00,0.0134
3034.00,0.0133
3033.00,0.0133
3032.00,0.0132
3031.00,0.0132
3030.00,0.0131
3029.00,0.0130
3028.00,0.0130
3027.00,0.0129
3026.00,0.0128
3025.00,0.0127
3024.00,0.0126
3023.00,0.0125
3022.00,0.0124
3021.00,0.0123
3020.00,0.0122
3019.00,0.0121
3018.00,0.0120
3017.00,0.0118
3016.00,0.0117
3015.00,0.0115
3014.00,0.0114
3013.00,0.0112
3012.00,0.0110
3011.00,0.0109
3010.00,0.0107
3009.00,0.0105
3008.00,0.0103
3007.00,0.0100
3006.00,0.0098
3005.00,0.0095
3004.00,0.0092
3003.00,0.0090
3002.00,0.0087
3001.00,0.0085
3000.00,0.0083
2999.00,0.0081
2998.00,0.0079
2997.00,0.0078
2996.00,0.0076
2995.00,0.0075
2994.00,0.0074
2993.00,0.0074
2992.00,0.0073
2991.00,0.0073
2990.00,0.0073
2989.00,0.0072
2988.00,0.0072
2987.00,0.0070
2986.00,0.0068
2985.00,0.0063
2984.00,0.0057
2983.00,0.0050
2982.00,0.0046
2981.00,0.0045
2980.00,0.0048
2979.00,0.0053
2978.00,0.0058
2977.00,0.0063
2976.00,0.0067
2975.00,0.0070
2974.00,0.0071
2973.00,0.0071
2972.00,0.0072
2971.00,0.0074
2970.00,0.0078
2969.00,0.0083
2968.00,0.0087
2967.00,0.0091
2966.00,0.0095
2965.00,0.0098
2964.00,0.0101
2963.00,0.0103
2962.00,0.0105
2961.00,0.0107
2960.00,0.0109
2959.00,0.0111
2958.00,0.0112
2957.00,0.0113
2956.00,0.0114
2955.00,0.0115
2954.00,0.0116
2953.00,0.0117
2952.00,0.0118
2951.00,0.0119
2950.00,0.0121
2949.00,0.0122
2948.00,0.0123
2947.00,0.0125
2946.00,0.0126
2945.00,0.0128
2944.00,0.0130
2943.00,0.0132
2942.00,0.0134
2941.00,0.0136
2940.00,0.0138
2939.00,0.0140
2938.00,0.0142
2937.00,0.0143
2936.00,0.0145
2935.00,0.0147
2934.00,0.0148
2933.00,0.0149
2932.00,0.0150
2931.00,0.0151
2930.00,0.0152
2929.00,0.0153
2928.00,0.0153
2927.00,0.0154
2926.00,0.0155
2925.00,0.0155
2924.00,0.0155
2923.00,0.0155
2922.00,0.0155
2921.00,0.0154
2920.00,0.0154
2919.00,0.0153
2918.00,0.0151
2917.00,0.0149
2916.00,0.0146
2915.00,0.0144
2914.00,0.0140
2913.00,0.0137
2912.00,0.0134
2911.00,0.0131
2910.00,0.0129
2909.00,0.0126
2908.00,0.0124
2907.00,0.0122
2906.00,0.0121
2905.00,0.0119
2904.00,0.0118
2903.00,0.0117
2902.00,0.0115
2901.00,0.0114
2900.00,0.0113
2899.00,0.0112
2898.00,0.0111
2897.00,0.0110
2896.00,0.0109
2895.00,0.0108
2894.00,0.0107
2893.00,0.0105
2892.00,0.0104
2891.00,0.0103
2890.00,0.0103
2889.00,0.0102
2888.00,0.0102
2887.00,0.0102
2886.00,0.0102
2885.00,0.0102
2884.00,0.0102
2883.00,0.0103
2882.00,0.0104
2881.00,0.0106
2880.00,0.0108
2879.00,0.0109
2878.00,0.0111
2877.00,0.0112
2876.00,0.0113
2875.00,0.0114
2874.00,0.0114
2873.00,0.0115
2872.00,0.0115
2871.00,0.0115
2870.00,0.0115
2869.00,0.0115
2868.00,0.0115
2867.00,0.0114
2866.00,0.0114
2865.00,0.0114
2864.00,0.0114
2863.00,0.0114
2862.00,0.0114
2861.00,0.0115
2860.00,0.0116
2859.00,0.0116
2858.00,0.0117
2857.00,0.0118
2856.00,0.0119
2855.00,0.0120
2854.00,0.0121
2853.00,0.0122
2852.00,0.0123
2851.00,0.0123
2850.00,0.0123
2849.00,0.0121
2848.00,0.0120
2847.00,0.0117
2846.00,0.0115
2845.00,0.0112
2844.00,0.0110
2843.00,0.0108
2842.00,0.0106
2841.00,0.0105
2840.00,0.0103
2839.00,0.0102
2838.00,0.0101
2837.00,0.0100
2836.00,0.0100
2835.00,0.0099
2834.00,0.0098
2833.00,0.0098
2832.00,0.0097
2831.00,0.0097
2830.00,0.0096
2829.00,0.0096
2828.00,0.0096
2827.00,0.0095
2826.00,0.0095
2825.00,0.0095
2824.00,0.0094
2823.00,0.0094
2822.00,0.0094
2821.00,0.0093
2820.00,0.0093
2819.00,0.0093
2818.00,0.0093
2817.00,0.0092
2816.00,0.0092
2815.00,0.0092
2814.00,0.0092
2813.00,0.0091
2812.00,0.0091
2811.00,0.0091
2810.00,0.0090
2809.00,0.0090
2808.00,0.0090
2807.00,0.0090
2806.00,0.0090
2805.00,0.0089
2804.00,0.0089
2803.00,0.0089
2802.00,0.0089
2801.00,0.0089
2800.00,0.0088
2799.00,0.0088
2798.00,0.0088
2797.00,0.0088
2796.00,0.0087
2795.00,0.0087
2794.00,0.0087
2793.00,0.0087
2792.00,0.0086
2791.00,0.0086
2790.00,0.0086
2789.00,0.0086
2788.00,0.0086
2787.00,0.0085
2786.00,0.0085
2785.00,0.0085
2784.00,0.0085
2783.00,0.0084
2782.00,0.0084
2781.00,0.0084
2780.00,0.0084
2779.00,0.0084
2778.00,0.0083
2777.00,0.0083
2776.00,0.0083
2775.00,0.0083
2774.00,0.0083
2773.00,0.0082
2772.00,0.0082
2771.00,0.0082
2770.00,0.0082
2769.00,0.0082
2768.00,0.0082
2767.00,0.0081
2766.00,0.0081
2765.00,0.0081
2764.00,0.0081
2763.00,0.0081
2762.00,0.0081
2761.00,0.0080
2760.00,0.0080
2759.00,0.0080
2758.00,0.0080
2757.00,0.0080
2756.00,0.0080
2755.00,0.0079
2754.00,0.0079
2753.00,0.0079
2752.00,0.0079
2751.00,0.0079
2750.00,0.0078
2749.00,0.0078
2748.00,0.0078
2747.00,0.0078
2746.00,0.0078
2745.00,0.0078
2744.00,0.0078
2743.00,0.0077
2742.00,0.0077
2741.00,0.0077
2740.00,0.0077
2739.00,0.0077
2738.00,0.0076
2737.00,0.0076
2736.00,0.0076
2735.00,0.0076
2734.00,0.0076
2733.00,0.0075
2732.00,0.0075
2731.00,0.0075
2730.00,0.0075
2729.00,0.0075
2728.00,0.0075
2727.00,0.0074
2726.00,0.0074
2725.00,0.0074
2724.00,0.0074
2723.00,0.0074
2722.00,0.0074
2721.00,0.0074
2720.00,0.0073
2719.00,0.0073
2718.00,0.0073
2717.00,0.0073
2716.00,0.0072
2715.00,0.0072
2714.00,0.0072
2713.00,0.0072
2712.00,0.0072
2711.00,0.0072
2710.00,0.0071
2709.00,0.0071
2708.00,0.0071
2707.00,0.0071
2706.00,0.0071
2705.00,0.0071
2704.00,0.0070
2703.00,0.0070
2702.00,0.0070
2701.00,0.0070
2700.00,0.0070
2699.00,0.0070
2698.00,0.0070
2697.00,0.0070
2696.00,0.0070
2695.00,0.0069
2694.00,0.0069
2693.00,0.0069
2692.00,0.0069
2691.00,0.0069
2690.00,0.0069
2689.00,0.0069
2688.00,0.0068
2687.00,0.0068
2686.00,0.0068
2685.00,0.0068
2684.00,0.0068
2683.00,0.0068
2682.00,0.0068
2681.00,0.0067
2680.00,0.0067
2679.00,0.0067
2678.00,0.0067
2677.00,0.0067
2676.00,0.0067
2675.00,0.0067
2674.00,0.0067
2673.00,0.0067
2672.00,0.0066
2671.00,0.0066
2670.00,0.0066
2669.00,0.0066
2668.00,0.0066
2667.00,0.0066
2666.00,0.0066
2665.00,0.0065
2664.00,0.0065
2663.00,0.0065
2662.00,0.0065
2661.00,0.0065
2660.00,0.0065
2659.00,0.0065
2658.00,0.0065
2657.00,0.0065
2656.00,0.0065
2655.00,0.0065
2654.00,0.0065
2653.00,0.0065
2652.00,0.0065
2651.00,0.0065
2650.00,0.0065
2649.00,0.0065
2648.00,0.0065
2647.00,0.0065
2646.00,0.0065
2645.00,0.0065
2644.00,0.0065
2643.00,0.0065
2642.00,0.0065
2641.00,0.0065
2640.00,0.0065
2639.00,0.0065
2638.00,0.0065
2637.00,0.0065
2636.00,0.0065
2635.00,0.0065
2634.00,0.0065
2633.00,0.0065
2632.00,0.0065
2631.00,0.0065
2630.00,0.0065
2629.00,0.0065
2628.00,0.0065
2627.00,0.0065
2626.00,0.0065
2625.00,0.0065
2624.00,0.0065
2623.00,0.0065
2622.00,0.0065
2621.00,0.0065
2620.00,0.0065
2619.00,0.0065
2618.00,0.0065
2617.00,0.0065
2616.00,0.0065
2615.00,0.0065
2614.00,0.0065
2613.00,0.0065
2612.00,0.0065
2611.00,0.0065
2610.00,0.0065
2609.00,0.0065
2608.00,0.0064
2607.00,0.0064
2606.00,0.0065
2605.00,0.0065
2604.00,0.0064
2603.00,0.0064
2602.00,0.0064
2601.00,0.0064
2600.00,0.0064
2599.00,0.0064
2598.00,0.0064
2597.00,0.0064
2596.00,0.0064
2595.00,0.0064
2594.00,0.0063
2593.00,0.0063
2592.00,0.0063
2591.00,0.0063
2590.00,0.0063
2589.00,0.0063
2588.00,0.0063
2587.00,0.0063
2586.00,0.0063
2585.00,0.0063
2584.00,0.0063
2583.00,0.0063
2582.00,0.0063
2581.00,0.0063
2580.00,0.0063
2579.00,0.0063
2578.00,0.0063
2577.00,0.0063
2576.00,0.0063
2575.00,0.0062
2574.00,0.0062
2573.00,0.0062
2572.00,0.0062
2571.00,0.0062
2570.00,0.0062
2569.00,0.0062
2568.00,0.0062
2567.00,0.0062
2566.00,0.0062
2565.00,0.0062
2564.00,0.0062
2563.00,0.0062
2562.00,0.0062
2561.00,0.0062
2560.00,0.0062
2559.00,0.0062
2558.00,0.0061
2557.00,0.0061
2556.00,0.0061
2555.00,0.0061
2554.00,0.0061
2553.00,0.0061
2552.00,0.0061
2551.00,0.0061
2550.00,0.0061
2549.00,0.0061
2548.00,0.0061
2547.00,0.0061
2546.00,0.0061
2545.00,0.0061
2544.00,0.0060
2543.00,0.0060
2542.00,0.0060
2541.00,0.0060
2540.00,0.0060
2539.00,0.0060
2538.00,0.0060
2537.00,0.0060
2536.00,0.0060
2535.00,0.0060
2534.00,0.0060
2533.00,0.0060
2532.00,0.0060
2531.00,0.0060
2530.00,0.0059
2529.00,0.0059
2528.00,0.0059
2527.00,0.0059
2526.00,0.0059
2525.00,0.0059
2524.00,0.0059
2523.00,0.0059
2522.00,0.0059
2521.00,0.0059
2520.00,0.0059
2519.00,0.0059
2518.00,0.0059
2517.00,0.0058
2516.00,0.0058
2515.00,0.0058
2514.00,0.0058
2513.00,0.0058
2512.00,0.0058
2511.00,0.0058
2510.00,0.0058
2509.00,0.0058
2508.00,0.0058
2507.00,0.0058
2506.00,0.0058
2505.00,0.0058
2504.00,0.0058
2503.00,0.0057
2502.00,0.0057
2501.00,0.0057
2500.00,0.0058
2499.00,0.0058
2498.00,0.0058
2497.00,0.0057
2496.00,0.0057
2495.00,0.0057
2494.00,0.0057
2493.00,0.0057
2492.00,0.0057
2491.00,0.0057
2490.00,0.0057
2489.00,0.0057
2488.00,0.0057
2487.00,0.0057
2486.00,0.0057
2485.00,0.0057
2484.00,0.0057
2483.00,0.0057
2482.00,0.0057
2481.00,0.0057
2480.00,0.0057
2479.00,0.0056
2478.00,0.0056
2477.00,0.0056
2476.00,0.0056
2475.00,0.0056
2474.00,0.0056
2473.00,0.0056
2472.00,0.0056
2471.00,0.0056
2470.00,0.0056
2469.00,0.0056
2468.00,0.0055
2467.00,0.0055
2466.00,0.0056
2465.00,0.0056
2464.00,0.0056
2463.00,0.0055
2462.00,0.0055
2461.00,0.0055
2460.00,0.0055
2459.00,0.0055
2458.00,0.0055
2457.00,0.0055
2456.00,0.0055
2455.00,0.0055
2454.00,0.0055
2453.00,0.0055
2452.00,0.0054
2451.00,0.0054
2450.00,0.0054
2449.00,0.0054
2448.00,0.0054
2447.00,0.0054
2446.00,0.0054
2445.00,0.0054
2444.00,0.0054
2443.00,0.0054
2442.00,0.0054
2441.00,0.0054
2440.00,0.0054
2439.00,0.0054
2438.00,0.0054
2437.00,0.0054
2436.00,0.0054
2435.00,0.0054
2434.00,0.0054
2433.00,0.0054
2432.00,0.0053
2431.00,0.0053
2430.00,0.0053
2429.00,0.0053
2428.00,0.0053
2427.00,0.0053
2426.00,0.0053
2425.00,0.0053
2424.00,0.0053
2423.00,0.0053
2422.00,0.0053
2421.00,0.0052
2420.00,0.0052
2419.00,0.0052
2418.00,0.0052
2417.00,0.0052
2416.00,0.0052
2415.00,0.0052
2414.00,0.0052
2413.00,0.0052
2412.00,0.0052
2411.00,0.0052
2410.00,0.0052
2409.00,0.0051
2408.00,0.0051
2407.00,0.0051
2406.00,0.0051
2405.00,0.0051
2404.00,0.0051
2403.00,0.0051
2402.00,0.0051
2401.00,0.0051
2400.00,0.0051
2399.00,0.0051
2398.00,0.0051
2397.00,0.0051
2396.00,0.0051
2395.00,0.0051
2394.00,0.0050
2393.00,0.0050
2392.00,0.0050
2391.00,0.0050
2390.00,0.0050
2389.00,0.0050
2388.00,0.0050
2387.00,0.0050
2386.00,0.0050
2385.00,0.0049
2384.00,0.0049
2383.00,0.0049
2382.00,0.0049
2381.00,0.0050
2380.00,0.0050
2379.00,0.0050
2378.00,0.0050
2377.00,0.0050
2376.00,0.0050
2375.00,0.0050
2374.00,0.0049
2373.00,0.0049
2372.00,0.0049
2371.00,0.0049
2370.00,0.0049
2369.00,0.0049
2368.00,0.0049
2367.00,0.0049
2366.00,0.0049
2365.00,0.0049
2364.00,0.0049
2363.00,0.0049
2362.00,0.0049
2361.00,0.0049
2360.00,0.0048
2359.00,0.0048
2358.00,0.0048
2357.00,0.0048
2356.00,0.0048
2355.00,0.0048
2354.00,0.0048
2353.00,0.0048
2352.00,0.0048
2351.00,0.0048
2350.00,0.0048
2349.00,0.0048
2348.00,0.0047
2347.00,0.0047
2346.00,0.0047
2345.00,0.0047
2344.00,0.0047
2343.00,0.0047
2342.00,0.0047
2341.00,0.0047
2340.00,0.0047
2339.00,0.0047
2338.00,0.0047
2337.00,0.0047
2336.00,0.0047
2335.00,0.0047
2334.00,0.0047
2333.00,0.0047
2332.00,0.0047
2331.00,0.0046
2330.00,0.0046
2329.00,0.0046
2328.00,0.0046
2327.00,0.0046
2326.00,0.0046
2325.00,0.0045
2324.00,0.0046
2323.00,0.0046
2322.00,0.0046
2321.00,0.0046
2320.00,0.0046
2319.00,0.0046
2318.00,0.0046
2317.00,0.0046
2316.00,0.0046
2315.00,0.0046
2314.00,0.0046
2313.00,0.0046
2312.00,0.0046
2311.00,0.0046
2310.00,0.0046
2309.00,0.0046
2308.00,0.0046
2307.00,0.0046
2306.00,0.0046
2305.00,0.0046
2304.00,0.0046
2303.00,0.0046
2302.00,0.0046
2301.00,0.0046
2300.00,0.0046
2299.00,0.0046
2298.00,0.0046
2297.00,0.0046
2296.00,0.0046
2295.00,0.0046
2294.00,0.0046
2293.00,0.0046
2292.00,0.0046
2291.00,0.0046
2290.00,0.0046
2289.00,0.0046
2288.00,0.0046
2287.00,0.0046
2286.00,0.0046
2285.00,0.0046
2284.00,0.0046
2283.00,0.0047
2282.00,0.0047
2281.00,0.0047
2280.00,0.0047
2279.00,0.0046
2278.00,0.0046
2277.00,0.0046
2276.00,0.0046
2275.00,0.0046
2274.00,0.0046
2273.00,0.0046
2272.00,0.0046
2271.00,0.0046
2270.00,0.0046
2269.00,0.0046
2268.00,0.0046
2267.00,0.0046
2266.00,0.0045
2265.00,0.0045
2264.00,0.0045
2263.00,0.0046
2262.00,0.0046
2261.00,0.0046
2260.00,0.0046
2259.00,0.0047
2258.00,0.0046
2257.00,0.0046
2256.00,0.0046
2255.00,0.0046
2254.00,0.0046
2253.00,0.0046
2252.00,0.0046
2251.00,0.0046
2250.00,0.0046
2249.00,0.0046
2248.00,0.0046
2247.00,0.0046
2246.00,0.0046
2245.00,0.0045
2244.00,0.0045
2243.00,0.0045
2242.00,0.0046
2241.00,0.0046
2240.00,0.0046
2239.00,0.0045
2238.00,0.0045
2237.00,0.0045
2236.00,0.0045
2235.00,0.0045
2234.00,0.0045
2233.00,0.0044
2232.00,0.0044
2231.00,0.0044
2230.00,0.0044
2229.00,0.0044
2228.00,0.0045
2227.00,0.0045
2226.00,0.0045
2225.00,0.0044
2224.00,0.0044
2223.00,0.0043
2222.00,0.0043
2221.00,0.0044
2220.00,0.0044
2219.00,0.0044
2218.00,0.0044
2217.00,0.0044
2216.00,0.0044
2215.00,0.0045
2214.00,0.0045
2213.00,0.0045
2212.00,0.0045
2211.00,0.0046
2210.00,0.0046
2209.00,0.0046
2208.00,0.0046
2207.00,0.0045
2206.00,0.0045
2205.00,0.0045
2204.00,0.0045
2203.00,0.0045
2202.00,0.0044
2201.00,0.0044
2200.00,0.0044
2199.00,0.0044
2198.00,0.0043
2197.00,0.0043
2196.00,0.0043
2195.00,0.0043
2194.00,0.0043
2193.00,0.0044
2192.00,0.0044
2191.00,0.0044
2190.00,0.0044
2189.00,0.0044
2188.00,0.0044
2187.00,0.0044
2186.00,0.0043
2185.00,0.0044
2184.00,0.0044
2183.00,0.0044
2182.00,0.0044
2181.00,0.0043
2180.00,0.0043
2179.00,0.0043
2178.00,0.0043
2177.00,0.0043
2176.00,0.0044
2175.00,0.0044
2174.00,0.0045
2173.00,0.0044
2172.00,0.0044
2171.00,0.0043
2170.00,0.0043
2169.00,0.0042
2168.00,0.0042
2167.00,0.0042
2166.00,0.0042
2165.00,0.0042
2164.00,0.0042
2163.00,0.0042
2162.00,0.0042
2161.00,0.0041
2160.00,0.0042
2159.00,0.0042
2158.00,0.0043
2157.00,0.0044
2156.00,0.0045
2155.00,0.0045
2154.00,0.0044
2153.00,0.0044
2152.00,0.0043
2151.00,0.0043
2150.00,0.0043
2149.00,0.0043
2148.00,0.0044
2147.00,0.0044
2146.00,0.0044
2145.00,0.0043
2144.00,0.0043
2143.00,0.0042
2142.00,0.0042
2141.00,0.0042
2140.00,0.0042
2139.00,0.0042
2138.00,0.0043
2137.00,0.0043
2136.00,0.0043
2135.00,0.0043
2134.00,0.0042
2133.00,0.0042
2132.00,0.0042
2131.00,0.0042
2130.00,0.0042
2129.00,0.0042
2128.00,0.0042
2127.00,0.0042
2126.00,0.0043
2125.00,0.0043
2124.00,0.0043
2123.00,0.0043
2122.00,0.0042
2121.00,0.0042
2120.00,0.0041
2119.00,0.0041
2118.00,0.0042
2117.00,0.0042
2116.00,0.0042
2115.00,0.0042
2114.00,0.0042
2113.00,0.0042
2112.00,0.0042
2111.00,0.0042
2110.00,0.0042
2109.00,0.0042
2108.00,0.0042
2107.00,0.0042
2106.00,0.0042
2105.00,0.0042
2104.00,0.0042
2103.00,0.0041
2102.00,0.0041
2101.00,0.0042
2100.00,0.0042
2099.00,0.0042
2098.00,0.0042
2097.00,0.0041
2096.00,0.0041
2095.00,0.0041
2094.00,0.0041
2093.00,0.0041
2092.00,0.0041
2091.00,0.0041
2090.00,0.0041
2089.00,0.0041
2088.00,0.0041
2087.00,0.0041
2086.00,0.0040
2085.00,0.0040
2084.00,0.0039
2083.00,0.0039
2082.00,0.0039
2081.00,0.0039
2080.00,0.0040
2079.00,0.0040
2078.00,0.0041
2077.00,0.0041
2076.00,0.0040
2075.00,0.0040
2074.00,0.0040
2073.00,0.0040
2072.00,0.0040
2071.00,0.0039
2070.00,0.0039
2069.00,0.0039
2068.00,0.0039
2067.00,0.0039
2066.00,0.0039
2065.00,0.0039
2064.00,0.0039
2063.00,0.0040
2062.00,0.0039
2061.00,0.0039
2060.00,0.0039
2059.00,0.0038
2058.00,0.0038
2057.00,0.0038
2056.00,0.0038
2055.00,0.0037
2054.00,0.0037
2053.00,0.0037
2052.00,0.0037
2051.00,0.0038
2050.00,0.0038
2049.00,0.0038
2048.00,0.0038
2047.00,0.0037
2046.00,0.0037
2045.00,0.0037
2044.00,0.0037
2043.00,0.0037
2042.00,0.0037
2041.00,0.0036
2040.00,0.0037
2039.00,0.0037
2038.00,0.0037
2037.00,0.0037
2036.00,0.0037
2035.00,0.0036
2034.00,0.0036
2033.00,0.0036
2032.00,0.0036
2031.00,0.0036
2030.00,0.0035
2029.00,0.0035
2028.00,0.0035
2027.00,0.0035
2026.00,0.0034
2025.00,0.0034
2024.00,0.0034
2023.00,0.0034
2022.00,0.0034
2021.00,0.0034
2020.00,0.0034
2019.00,0.0034
2018.00,0.0033
2017.00,0.0033
2016.00,0.0034
2015.00,0.0035
2014.00,0.0035
2013.00,0.0035
2012.00,0.0036
2011.00,0.0036
2010.00,0.0036
2009.00,0.0036
2008.00,0.0037
2007.00,0.0037
2006.00,0.0036
2005.00,0.0036
2004.00,0.0036
2003.00,0.0036
2002.00,0.0036
2001.00,0.0036
2000.00,0.0036
1999.00,0.0036
1998.00,0.0035
1997.00,0.0035
1996.00,0.0034
1995.00,0.0034
1994.00,0.0033
1993.00,0.0033
1992.00,0.0033
1991.00,0.0034
1990.00,0.0034
1989.00,0.0034
1988.00,0.0034
1987.00,0.0034
1986.00,0.0034
1985.00,0.0034
1984.00,0.0034
1983.00,0.0034
1982.00,0.0033
1981.00,0.0033
1980.00,0.0033
1979.00,0.0033
1978.00,0.0033
1977.00,0.0033
1976.00,0.0034
1975.00,0.0034
1974.00,0.0034
1973.00,0.0033
1972.00,0.0033
1971.00,0.0033
1970.00,0.0033
1969.00,0.0032
1968.00,0.0032
1967.00,0.0032
1966.00,0.0032
1965.00,0.0033
1964.00,0.0034
1963.00,0.0034
1962.00,0.0033
1961.00,0.0033
1960.00,0.0032
1959.00,0.0032
1958.00,0.0032
1957.00,0.0031
1956.00,0.0031
1955.00,0.0031
1954.00,0.0031
1953.00,0.0032
1952.00,0.0033
1951.00,0.0033
1950.00,0.0033
1949.00,0.0032
1948.00,0.0031
1947.00,0.0031
1946.00,0.0030
1945.00,0.0030
1944.00,0.0030
1943.00,0.0031
1942.00,0.0031
1941.00,0.0032
1940.00,0.0032
1939.00,0.0031
1938.00,0.0031
1937.00,0.0031
1936.00,0.0031
1935.00,0.0031
1934.00,0.0031
1933.00,0.0031
1932.00,0.0031
1931.00,0.0031
1930.00,0.0031
1929.00,0.0030
1928.00,0.0030
1927.00,0.0030
1926.00,0.0030
1925.00,0.0029
1924.00,0.0029
1923.00,0.0029
1922.00,0.0029
1921.00,0.0030
1920.00,0.0030
1919.00,0.0031
1918.00,0.0031
1917.00,0.0031
1916.00,0.0031
1915.00,0.0030
1914.00,0.0029
1913.00,0.0028
1912.00,0.0027
1911.00,0.0027
1910.00,0.0026
1909.00,0.0026
1908.00,0.0027
1907.00,0.0027
1906.00,0.0027
1905.00,0.0027
1904.00,0.0027
1903.00,0.0027
1902.00,0.0027
1901.00,0.0027
1900.00,0.0027
1899.00,0.0027
1898.00,0.0026
1897.00,0.0026
1896.00,0.0026
1895.00,0.0026
1894.00,0.0026
1893.00,0.0026
1892.00,0.0025
1891.00,0.0025
1890.00,0.0025
1889.00,0.0026
1888.00,0.0026
1887.00,0.0026
1886.00,0.0026
1885.00,0.0025
1884.00,0.0025
1883.00,0.0025
1882.00,0.0025
1881.00,0.0025
1880.00,0.0025
1879.00,0.0025
1878.00,0.0025
1877.00,0.0024
1876.00,0.0024
1875.00,0.0024
1874.00,0.0024
1873.00,0.0024
1872.00,0.0023
1871.00,0.0023
1870.00,0.0023
1869.00,0.0023
1868.00,0.0023
1867.00,0.0024
1866.00,0.0023
1865.00,0.0023
1864.00,0.0023
1863.00,0.0022
1862.00,0.0022
1861.00,0.0022
1860.00,0.0022
1859.00,0.0022
1858.00,0.0022
1857.00,0.0022
1856.00,0.0021
1855.00,0.0021
1854.00,0.0021
1853.00,0.0021
1852.00,0.0021
1851.00,0.0021
1850.00,0.0020
1849.00,0.0020
1848.00,0.0020
1847.00,0.0020
1846.00,0.0022
1845.00,0.0023
1844.00,0.0025
1843.00,0.0025
1842.00,0.0024
1841.00,0.0022
1840.00,0.0020
1839.00,0.0019
1838.00,0.0019
1837.00,0.0019
1836.00,0.0019
1835.00,0.0019
1834.00,0.0019
1833.00,0.0019
1832.00,0.0018
1831.00,0.0017
1830.00,0.0017
1829.00,0.0018
1828.00,0.0019
1827.00,0.0018
1826.00,0.0018
1825.00,0.0018
1824.00,0.0019
1823.00,0.0019
1822.00,0.0018
1821.00,0.0017
1820.00,0.0017
1819.00,0.0017
1818.00,0.0016
1817.00,0.0016
1816.00,0.0016
1815.00,0.0016
1814.00,0.0015
1813.00,0.0015
1812.00,0.0014
1811.00,0.0014
1810.00,0.0015
1809.00,0.0015
1808.00,0.0015
1807.00,0.0015
1806.00,0.0015
1805.00,0.0014
1804.00,0.0014
1803.00,0.0014
1802.00,0.0014
1801.00,0.0014
1800.00,0.0014
1799.00,0.0014
1798.00,0.0014
1797.00,0.0013
1796.00,0.0013
1795.00,0.0013
1794.00,0.0014
1793.00,0.0016
1792.00,0.0017
1791.00,0.0018
1790.00,0.0017
1789.00,0.0015
1788.00,0.0014
1787.00,0.0013
1786.00,0.0013
1785.00,0.0014
1784.00,0.0013
1783.00,0.0012
1782.00,0.0011
1781.00,0.0011
1780.00,0.0011
1779.00,0.0012
1778.00,0.0012
1777.00,0.0011
1776.00,0.0011
1775.00,0.0011
1774.00,0.0012
1773.00,0.0013
1772.00,0.0015
1771.00,0.0017
1770.00,0.0017
1769.00,0.0016
1768.00,0.0016
1767.00,0.0015
1766.00,0.0014
1765.00,0.0013
1764.00,0.0012
1763.00,0.0013
1762.00,0.0014
1761.00,0.0015
1760.00,0.0015
1759.00,0.0014
1758.00,0.0013
1757.00,0.0014
1756.00,0.0016
1755.00,0.0016
1754.00,0.0016
1753.00,0.0016
1752.00,0.0018
1751.00,0.0018
1750.00,0.0018
1749.00,0.0017
1748.00,0.0018
1747.00,0.0018
1746.00,0.0019
1745.00,0.0019
1744.00,0.0020
1743.00,0.0022
1742.00,0.0024
1741.00,0.0026
1740.00,0.0028
1739.00,0.0030
1738.00,0.0031
1737.00,0.0032
1736.00,0.0035
1735.00,0.0038
1734.00,0.0041
1733.00,0.0041
1732.00,0.0038
1731.00,0.0034
1730.00,0.0032
1729.00,0.0032
1728.00,0.0032
1727.00,0.0032
1726.00,0.0032
1725.00,0.0031
1724.00,0.0032
1723.00,0.0032
1722.00,0.0033
1721.00,0.0034
1720.00,0.0035
1719.00,0.0037
1718.00,0.0039
1717.00,0.0042
1716.00,0.0044
1715.00,0.0045
1714.00,0.0045
1713.00,0.0045
1712.00,0.0046
1711.00,0.0048
1710.00,0.0050
1709.00,0.0053
1708.00,0.0057
1707.00,0.0061
1706.00,0.0067
1705.00,0.0076
1704.00,0.0085
1703.00,0.0097
1702.00,0.0111
1701.00,0.0130
1700.00,0.0149
1699.00,0.0162
1698.00,0.0168
1697.00,0.0174
1696.00,0.0184
1695.00,0.0193
1694.00,0.0198
1693.00,0.0200
1692.00,0.0203
1691.00,0.0209
1690.00,0.0215
1689.00,0.0223
1688.00,0.0233
1687.00,0.0243
1686.00,0.0254
1685.00,0.0264
1684.00,0.0275
1683.00,0.0285
1682.00,0.0291
1681.00,0.0297
1680.00,0.0306
1679.00,0.0316
1678.00,0.0328
1677.00,0.0341
1676.00,0.0353
1675.00,0.0363
1674.00,0.0372
1673.00,0.0380
1672.00,0.0389
1671.00,0.0399
1670.00,0.0409
1669.00,0.0420
1668.00,0.0431
1667.00,0.0441
1666.00,0.0452
1665.00,0.0463
1664.00,0.0475
1663.00,0.0486
1662.00,0.0496
1661.00,0.0506
1660.00,0.0517
1659.00,0.0528
1658.00,0.0539
1657.00,0.0554
1656.00,0.0571
1655.00,0.0587
1654.00,0.0595
1653.00,0.0594
1652.00,0.0595
1651.00,0.0598
1650.00,0.0603
1649.00,0.0609
1648.00,0.0614
1647.00,0.0616
1646.00,0.0616
1645.00,0.0618
1644.00,0.0621
1643.00,0.0624
1642.00,0.0628
1641.00,0.0631
1640.00,0.0635
1639.00,0.0640
1638.00,0.0645
1637.00,0.0647
1636.00,0.0642
1635.00,0.0637
1634.00,0.0635
1633.00,0.0635
1632.00,0.0639
1631.00,0.0643
1630.00,0.0647
1629.00,0.0649
1628.00,0.0651
1627.00,0.0654
1626.00,0.0659
1625.00,0.0665
1624.00,0.0668
1623.00,0.0669
1622.00,0.0670
1621.00,0.0674
1620.00,0.0682
1619.00,0.0689
1618.00,0.0690
1617.00,0.0683
1616.00,0.0672
1615.00,0.0663
1614.00,0.0656
1613.00,0.0649
1612.00,0.0640
1611.00,0.0628
1610.00,0.0613
1609.00,0.0597
1608.00,0.0581
1607.00,0.0565
1606.00,0.0550
1605.00,0.0535
1604.00,0.0520
1603.00,0.0505
1602.00,0.0490
1601.00,0.0476
1600.00,0.0463
1599.00,0.0451
1598.00,0.0439
1597.00,0.0428
1596.00,0.0416
1595.00,0.0404
1594.00,0.0394
1593.00,0.0384
1592.00,0.0376
1591.00,0.0368
1590.00,0.0361
1589.00,0.0355
1588.00,0.0349
1587.00,0.0343
1586.00,0.0339
1585.00,0.0335
1584.00,0.0331
1583.00,0.0328
1582.00,0.0325
1581.00,0.0323
1580.00,0.0322
1579.00,0.0322
1578.00,0.0323
1577.00,0.0323
1576.00,0.0322
1575.00,0.0321
1574.00,0.0320
1573.00,0.0322
1572.00,0.0325
1571.00,0.0328
1570.00,0.0330
1569.00,0.0334
1568.00,0.0338
1567.00,0.0342
1566.00,0.0346
1565.00,0.0352
1564.00,0.0360
1563.00,0.0370
1562.00,0.0383
1561.00,0.0398
1560.00,0.0407
1559.00,0.0413
1558.00,0.0422
1557.00,0.0431
1556.00,0.0437
1555.00,0.0444
1554.00,0.0453
1553.00,0.0462
1552.00,0.0471
1551.00,0.0479
1550.00,0.0488
1549.00,0.0498
1548.00,0.0509
1547.00,0.0519
1546.00,0.0529
1545.00,0.0537
1544.00,0.0545
1543.00,0.0554
1542.00,0.0562
1541.00,0.0565
1540.00,0.0565
1539.00,0.0567
1538.00,0.0571
1537.00,0.0576
1536.00,0.0582
1535.00,0.0588
1534.00,0.0590
1533.00,0.0591
1532.00,0.0593
1531.00,0.0597
1530.00,0.0603
1529.00,0.0608
1528.00,0.0612
1527.00,0.0616
1526.00,0.0620
1525.00,0.0625
1524.00,0.0631
1523.00,0.0636
1522.00,0.0638
1521.00,0.0639
1520.00,0.0641
1519.00,0.0644
1518.00,0.0647
1517.00,0.0648
1516.00,0.0648
1515.00,0.0650
1514.00,0.0652
1513.00,0.0652
1512.00,0.0650
1511.00,0.0647
1510.00,0.0646
1509.00,0.0644
1508.00,0.0634
1507.00,0.0614
1506.00,0.0595
1505.00,0.0582
1504.00,0.0573
1503.00,0.0566
1502.00,0.0560
1501.00,0.0553
1500.00,0.0545
1499.00,0.0535
1498.00,0.0524
1497.00,0.0510
1496.00,0.0495
1495.00,0.0481
1494.00,0.0470
1493.00,0.0462
1492.00,0.0452
1491.00,0.0439
1490.00,0.0423
1489.00,0.0408
1488.00,0.0396
1487.00,0.0386
1486.00,0.0377
1485.00,0.0369
1484.00,0.0362
1483.00,0.0355
1482.00,0.0347
1481.00,0.0341
1480.00,0.0336
1479.00,0.0332
1478.00,0.0330
1477.00,0.0327
1476.00,0.0325
1475.00,0.0325
1474.00,0.0324
1473.00,0.0324
1472.00,0.0325
1471.00,0.0326
1470.00,0.0327
1469.00,0.0328
1468.00,0.0330
1467.00,0.0331
1466.00,0.0332
1465.00,0.0331
1464.00,0.0330
1463.00,0.0330
1462.00,0.0331
1461.00,0.0335
1460.00,0.0340
1459.00,0.0347
1458.00,0.0354
1457.00,0.0362
1456.00,0.0368
1455.00,0.0370
1454.00,0.0370
1453.00,0.0371
1452.00,0.0372
1451.00,0.0373
1450.00,0.0374
1449.00,0.0373
1448.00,0.0370
1447.00,0.0367
1446.00,0.0364
1445.00,0.0361
1444.00,0.0358
1443.00,0.0354
1442.00,0.0350
1441.00,0.0347
1440.00,0.0345
1439.00,0.0344
1438.00,0.0343
1437.00,0.0339
1436.00,0.0332
1435.00,0.0324
1434.00,0.0319
1433.00,0.0314
1432.00,0.0311
1431.00,0.0308
1430.00,0.0306
1429.00,0.0304
1428.00,0.0303
1427.00,0.0303
1426.00,0.0303
1425.00,0.0303
1424.00,0.0304
1423.00,0.0306
1422.00,0.0311
1421.00,0.0316
1420.00,0.0319
1419.00,0.0321
1418.00,0.0322
1417.00,0.0322
1416.00,0.0323
1415.00,0.0325
1414.00,0.0327
1413.00,0.0328
1412.00,0.0330
1411.00,0.0331
1410.00,0.0331
1409.00,0.0332
1408.00,0.0333
1407.00,0.0333
1406.00,0.0332
1405.00,0.0331
1404.00,0.0330
1403.00,0.0329
1402.00,0.0328
1401.00,0.0327
1400.00,0.0326
1399.00,0.0323
1398.00,0.0321
1397.00,0.0320
1396.00,0.0319
1395.00,0.0318
1394.00,0.0317
1393.00,0.0316
1392.00,0.0316
1391.00,0.0316
1390.00,0.0316
1389.00,0.0318
1388.00,0.0318
1387.00,0.0317
1386.00,0.0316
1385.00,0.0315
1384.00,0.0314
1383.00,0.0313
1382.00,0.0312
1381.00,0.0312
1380.00,0.0312
1379.00,0.0312
1378.00,0.0312
1377.00,0.0312
1376.00,0.0312
1375.00,0.0311
1374.00,0.0311
1373.00,0.0311
1372.00,0.0312
1371.00,0.0313
1370.00,0.0313
1369.00,0.0312
1368.00,0.0312
1367.00,0.0311
1366.00,0.0309
1365.00,0.0308
1364.00,0.0305
1363.00,0.0302
1362.00,0.0300
1361.00,0.0298
1360.00,0.0297
1359.00,0.0296
1358.00,0.0295
1357.00,0.0294
1356.00,0.0293
1355.00,0.0293
1354.00,0.0293
1353.00,0.0293
1352.00,0.0293
1351.00,0.0294
1350.00,0.0294
1349.00,0.0295
1348.00,0.0295
1347.00,0.0296
1346.00,0.0297
1345.00,0.0298
1344.00,0.0299
1343.00,0.0299
1342.00,0.0299
1341.00,0.0299
1340.00,0.0299
1339.00,0.0299
1338.00,0.0299
1337.00,0.0300
1336.00,0.0300
1335.00,0.0299
1334.00,0.0299
1333.00,0.0298
1332.00,0.0297
1331.00,0.0296
1330.00,0.0296
1329.00,0.0295
1328.00,0.0294
1327.00,0.0294
1326.00,0.0294
1325.00,0.0294
1324.00,0.0294
1323.00,0.0295
1322.00,0.0295
1321.00,0.0295
1320.00,0.0295
1319.00,0.0296
1318.00,0.0296
1317.00,0.0297
1316.00,0.0298
1315.00,0.0298
1314.00,0.0299
1313.00,0.0299
1312.00,0.0300
1311.00,0.0300
1310.00,0.0301
1309.00,0.0302
1308.00,0.0302
1307.00,0.0302
1306.00,0.0303
1305.00,0.0303
1304.00,0.0303
1303.00,0.0303
1302.00,0.0303
1301.00,0.0302
1300.00,0.0302
1299.00,0.0301
1298.00,0.0301
1297.00,0.0300
1296.00,0.0299
1295.00,0.0299
1294.00,0.0298
1293.00,0.0297
1292.00,0.0297
1291.00,0.0296
1290.00,0.0295
1289.00,0.0295
1288.00,0.0294
1287.00,0.0293
1286.00,0.0293
1285.00,0.0292
1284.00,0.0292
1283.00,0.0291
1282.00,0.0291
1281.00,0.0290
1280.00,0.0290
1279.00,0.0289
1278.00,0.0289
1277.00,0.0288
1276.00,0.0287
1275.00,0.0286
1274.00,0.0285
1273.00,0.0285
1272.00,0.0284
1271.00,0.0285
1270.00,0.0285
1269.00,0.0287
1268.00,0.0288
1267.00,0.0289
1266.00,0.0290
1265.00,0.0292
1264.00,0.0294
1263.00,0.0296
1262.00,0.0297
1261.00,0.0299
1260.00,0.0301
1259.00,0.0303
1258.00,0.0305
1257.00,0.0306
1256.00,0.0308
1255.00,0.0310
1254.00,0.0312
1253.00,0.0314
1252.00,0.0316
1251.00,0.0319
1250.00,0.0321
1249.00,0.0324
1248.00,0.0327
1247.00,0.0330
1246.00,0.0333
1245.00,0.0335
1244.00,0.0337
1243.00,0.0339
1242.00,0.0340
1241.00,0.0342
1240.00,0.0343
1239.00,0.0345
1238.00,0.0346
1237.00,0.0346
1236.00,0.0347
1235.00,0.0348
1234.00,0.0348
1233.00,0.0348
1232.00,0.0348
1231.00,0.0347
1230.00,0.0347
1229.00,0.0346
1228.00,0.0345
1227.00,0.0344
1226.00,0.0343
1225.00,0.0341
1224.00,0.0340
1223.00,0.0338
1222.00,0.0337
1221.00,0.0335
1220.00,0.0333
1219.00,0.0331
1218.00,0.0329
1217.00,0.0326
1216.00,0.0324
1215.00,0.0321
1214.00,0.0319
1213.00,0.0316
1212.00,0.0313
1211.00,0.0310
1210.00,0.0307
1209.00,0.0305
1208.00,0.0302
1207.00,0.0300
1206.00,0.0297
1205.00,0.0294
1204.00,0.0291
1203.00,0.0288
1202.00,0.0285
1201.00,0.0281
1200.00,0.0278
1199.00,0.0275
1198.00,0.0272
1197.00,0.0269
1196.00,0.0266
1195.00,0.0263
1194.00,0.0261
1193.00,0.0258
1192.00,0.0256
1191.00,0.0253
1190.00,0.0251
1189.00,0.0249
1188.00,0.0246
1187.00,0.0245
1186.00,0.0243
1185.00,0.0241
1184.00,0.0240
1183.00,0.0238
1182.00,0.0238
1181.00,0.0237
1180.00,0.0237
1179.00,0.0238
1178.00,0.0238
1177.00,0.0240
1176.00,0.0242
1175.00,0.0244
1174.00,0.0246
1173.00,0.0249
1172.00,0.0251
1171.00,0.0253
1170.00,0.0255
1169.00,0.0257
1168.00,0.0258
1167.00,0.0259
1166.00,0.0260
1165.00,0.0261
1164.00,0.0261
1163.00,0.0260
1162.00,0.0259
1161.00,0.0258
1160.00,0.0257
1159.00,0.0255
1158.00,0.0253
1157.00,0.0250
1156.00,0.0247
1155.00,0.0244
1154.00,0.0241
1153.00,0.0238
1152.00,0.0235
1151.00,0.0233
1150.00,0.0230
1149.00,0.0228
1148.00,0.0226
1147.00,0.0224
1146.00,0.0222
1145.00,0.0220
1144.00,0.0219
1143.00,0.0218
1142.00,0.0217
1141.00,0.0216
1140.00,0.0215
1139.00,0.0215
1138.00,0.0214
1137.00,0.0214
1136.00,0.0214
1135.00,0.0214
1134.00,0.0214
1133.00,0.0214
1132.00,0.0214
1131.00,0.0214
1130.00,0.0214
1129.00,0.0213
1128.00,0.0213
1127.00,0.0213
1126.00,0.0213
1125.00,0.0213
1124.00,0.0213
1123.00,0.0213
1122.00,0.0214
1121.00,0.0214
1120.00,0.0215
1119.00,0.0216
1118.00,0.0216
1117.00,0.0217
1116.00,0.0218
1115.00,0.0218
1114.00,0.0219
1113.00,0.0219
1112.00,0.0220
1111.00,0.0221
1110.00,0.0221
1109.00,0.0222
1108.00,0.0223
1107.00,0.0224
1106.00,0.0224
1105.00,0.0225
1104.00,0.0226
1103.00,0.0226
1102.00,0.0226
1101.00,0.0227
1100.00,0.0227
1099.00,0.0227
1098.00,0.0227
1097.00,0.0228
1096.00,0.0228
1095.00,0.0229
1094.00,0.0230
1093.00,0.0232
1092.00,0.0234
1091.00,0.0236
1090.00,0.0239
1089.00,0.0242
1088.00,0.0245
1087.00,0.0249
1086.00,0.0253
1085.00,0.0257
1084.00,0.0261
1083.00,0.0266
1082.00,0.0270
1081.00,0.0274
1080.00,0.0278
1079.00,0.0282
1078.00,0.0285
1077.00,0.0289
1076.00,0.0292
1075.00,0.0295
1074.00,0.0297
1073.00,0.0299
1072.00,0.0302
1071.00,0.0304
1070.00,0.0306
1069.00,0.0308
1068.00,0.0311
1067.00,0.0313
1066.00,0.0315
1065.00,0.0316
1064.00,0.0318
1063.00,0.0318
1062.00,0.0319
1061.00,0.0318
1060.00,0.0318
1059.00,0.0317
1058.00,0.0316
1057.00,0.0315
1056.00,0.0315
1055.00,0.0314
1054.00,0.0313
1053.00,0.0312
1052.00,0.0311
1051.00,0.0310
1050.00,0.0309
1049.00,0.0307
1048.00,0.0305
1047.00,0.0304
1046.00,0.0301
1045.00,0.0299
1044.00,0.0297
1043.00,0.0294
1042.00,0.0292
1041.00,0.0289
1040.00,0.0286
1039.00,0.0283
1038.00,0.0280
1037.00,0.0277
1036.00,0.0275
1035.00,0.0272
1034.00,0.0271
1033.00,0.0269
1032.00,0.0267
1031.00,0.0266
1030.00,0.0263
1029.00,0.0261
1028.00,0.0258
1027.00,0.0254
1026.00,0.0251
1025.00,0.0248
1024.00,0.0244
1023.00,0.0241
1022.00,0.0238
1021.00,0.0234
1020.00,0.0232
1019.00,0.0229
1018.00,0.0226
1017.00,0.0223
1016.00,0.0220
1015.00,0.0218
1014.00,0.0215
1013.00,0.0213
1012.00,0.0210
1011.00,0.0207
1010.00,0.0204
1009.00,0.0200
1008.00,0.0197
1007.00,0.0194
1006.00,0.0192
1005.00,0.0190
1004.00,0.0188
1003.00,0.0187
1002.00,0.0185
1001.00,0.0184
1000.00,0.0182
999.00,0.0181
998.00,0.0180
997.00,0.0178
996.00,0.0177
995.00,0.0177
994.00,0.0176
993.00,0.0175
992.00,0.0174
991.00,0.0173
990.00,0.0172
989.00,0.0171
988.00,0.0170
987.00,0.0169
986.00,0.0168
985.00,0.0167
984.00,0.0166
983.00,0.0165
982.00,0.0164
981.00,0.0163
980.00,0.0162
979.00,0.0161
978.00,0.0160
977.00,0.0159
976.00,0.0158
975.00,0.0157
974.00,0.0155
973.00,0.0154
972.00,0.0153
971.00,0.0152
970.00,0.0151
969.00,0.0151
968.00,0.0151
967.00,0.0151
966.00,0.0152
965.00,0.0153
964.00,0.0153
963.00,0.0153
962.00,0.0153
961.00,0.0151
960.00,0.0150
959.00,0.0148
958.00,0.0146
957.00,0.0144
956.00,0.0143
955.00,0.0142
954.00,0.0140
953.00,0.0139
952.00,0.0139
951.00,0.0138
950.00,0.0138
949.00,0.0138
948.00,0.0138
947.00,0.0138
946.00,0.0138
945.00,0.0138
944.00,0.0137
943.00,0.0137
942.00,0.0137
941.00,0.0138
940.00,0.0138
939.00,0.0139
938.00,0.0140
937.00,0.0141
936.00,0.0143
935.00,0.0144
934.00,0.0145
933.00,0.0147
932.00,0.0147
931.00,0.0148
930.00,0.0149
929.00,0.0149
928.00,0.0150
927.00,0.0150
926.00,0.0150
925.00,0.0150
924.00,0.0150
923.00,0.0149
922.00,0.0149
921.00,0.0149
920.00,0.0148
919.00,0.0148
918.00,0.0147
917.00,0.0146
916.00,0.0146
915.00,0.0145
914.00,0.0145
913.00,0.0145
912.00,0.0145
911.00,0.0145
910.00,0.0145
909.00,0.0145
908.00,0.0145
907.00,0.0145
906.00,0.0145
905.00,0.0146
904.00,0.0147
903.00,0.0147
902.00,0.0147
901.00,0.0147
900.00,0.0147
899.00,0.0147
898.00,0.0147
897.00,0.0147
896.00,0.0147
895.00,0.0147
894.00,0.0146
893.00,0.0146
892.00,0.0145
891.00,0.0145
890.00,0.0144
889.00,0.0143
888.00,0.0142
887.00,0.0142
886.00,0.0141
885.00,0.0140
884.00,0.0140
883.00,0.0140
882.00,0.0140
881.00,0.0140
880.00,0.0140
879.00,0.0140
878.00,0.0140
877.00,0.0140
876.00,0.0140
875.00,0.0139
874.00,0.0139
873.00,0.0139
872.00,0.0138
871.00,0.0138
870.00,0.0138
869.00,0.0137
868.00,0.0137
867.00,0.0136
866.00,0.0135
865.00,0.0134
864.00,0.0133
863.00,0.0132
862.00,0.0131
861.00,0.0130
860.00,0.0130
859.00,0.0130
858.00,0.0130
857.00,0.0130
856.00,0.0130
855.00,0.0130
854.00,0.0131
853.00,0.0131
852.00,0.0132
851.00,0.0132
850.00,0.0133
849.00,0.0132
848.00,0.0132
847.00,0.0131
846.00,0.0131
845.00,0.0131
844.00,0.0131
843.00,0.0132
842.00,0.0133
841.00,0.0134
840.00,0.0135
839.00,0.0135
838.00,0.0137
837.00,0.0138
836.00,0.0139
835.00,0.0140
834.00,0.0142
833.00,0.0143
832.00,0.0145
831.00,0.0147
830.00,0.0148
829.00,0.0150
828.00,0.0151
827.00,0.0152
826.00,0.0152
825.00,0.0152
824.00,0.0152
823.00,0.0153
822.00,0.0153
821.00,0.0154
820.00,0.0155
819.00,0.0156
818.00,0.0157
817.00,0.0158
816.00,0.0159
815.00,0.0161
814.00,0.0162
813.00,0.0164
812.00,0.0166
811.00,0.0167
810.00,0.0169
809.00,0.0170
808.00,0.0172
807.00,0.0173
806.00,0.0175
805.00,0.0176
804.00,0.0177
803.00,0.0179
802.00,0.0180
801.00,0.0180
800.00,0.0180
799.00,0.0181
798.00,0.0181
797.00,0.0182
796.00,0.0183
795.00,0.0184
794.00,0.0185
793.00,0.0185
792.00,0.0186
791.00,0.0187
790.00,0.0188
789.00,0.0189
788.00,0.0191
787.00,0.0193
786.00,0.0195
785.00,0.0196
784.00,0.0198
783.00,0.0200
782.00,0.0203
781.00,0.0205
780.00,0.0207
779.00,0.0209
778.00,0.0211
777.00,0.0213
776.00,0.0216
775.00,0.0218
774.00,0.0221
773.00,0.0224
772.00,0.0226
771.00,0.0228
770.00,0.0231
769.00,0.0234
768.00,0.0237
767.00,0.0240
766.00,0.0243
765.00,0.0245
764.00,0.0248
763.00,0.0250
762.00,0.0252
761.00,0.0255
760.00,0.0257
759.00,0.0259
758.00,0.0261
757.00,0.0263
756.00,0.0265
755.00,0.0266
754.00,0.0268
753.00,0.0270
752.00,0.0272
751.00,0.0273
750.00,0.0274
749.00,0.0275
748.00,0.0276
747.00,0.0276
746.00,0.0277
745.00,0.0278
744.00,0.0278
743.00,0.0278
742.00,0.0277
741.00,0.0276
740.00,0.0276
739.00,0.0276
738.00,0.0277
737.00,0.0277
736.00,0.0278
735.00,0.0280
734.00,0.0281
733.00,0.0283
732.00,0.0285
731.00,0.0287
730.00,0.0290
729.00,0.0292
728.00,0.0295
727.00,0.0298
726.00,0.0302
725.00,0.0306
724.00,0.0310
723.00,0.0315
722.00,0.0320
721.00,0.0324
720.00,0.0329
719.00,0.0333
718.00,0.0337
717.00,0.0341
716.00,0.0346
715.00,0.0351
714.00,0.0356
713.00,0.0360
712.00,0.0365
711.00,0.0370
710.00,0.0376
709.00,0.0381
708.00,0.0387
707.00,0.0394
706.00,0.0400
705.00,0.0407
704.00,0.0414
703.00,0.0420
702.00,0.0425
701.00,0.0430
700.00,0.0433
699.00,0.0435
698.00,0.0436
697.00,0.0436
696.00,0.0436
695.00,0.0436
694.00,0.0436
693.00,0.0436
692.00,0.0437
691.00,0.0437
690.00,0.0438
689.00,0.0439
688.00,0.0439
687.00,0.0440
686.00,0.0441
685.00,0.0442
684.00,0.0443
683.00,0.0445
682.00,0.0447
681.00,0.0448
680.00,0.0450
679.00,0.0451
678.00,0.0453
677.00,0.0454
676.00,0.0455
675.00,0.0456
674.00,0.0458
673.00,0.0459
672.00,0.0461
671.00,0.0463
670.00,0.0465
669.00,0.0466
668.00,0.0467
667.00,0.0467
666.00,0.0467
665.00,0.0469
664.00,0.0471
663.00,0.0472
662.00,0.0474
661.00,0.0475
660.00,0.0476
659.00,0.0478
658.00,0.0479
657.00,0.0480
656.00,0.0480
655.00,0.0481
654.00,0.0481
653.00,0.0483
652.00,0.0484
651.00,0.0486
650.00,0.0487
649.00,0.0489
648.00,0.0491
647.00,0.0493
646.00,0.0495
645.00,0.0497
644.00,0.0499
643.00,0.0502
642.00,0.0504
641.00,0.0507
640.00,0.0509
639.00,0.0511
638.00,0.0513
637.00,0.0515
636.00,0.0516
635.00,0.0518
634.00,0.0520
633.00,0.0522
632.00,0.0524
631.00,0.0527
630.00,0.0529
629.00,0.0530
628.00,0.0532
627.00,0.0534
626.00,0.0534
625.00,0.0535
624.00,0.0536
623.00,0.0536
622.00,0.0536
621.00,0.0536
620.00,0.0536
619.00,0.0536
618.00,0.0535
617.00,0.0534
616.00,0.0534
615.00,0.0535
614.00,0.0534
613.00,0.0534
612.00,0.0534
611.00,0.0533
610.00,0.0532
609.00,0.0531
608.00,0.0531
607.00,0.0531
606.00,0.0532
605.00,0.0532
604.00,0.0533
603.00,0.0533
602.00,0.0533
601.00,0.0533
600.00,0.0533
599.00,0.0533
598.00,0.0534
597.00,0.0534
596.00,0.0535
595.00,0.0536
594.00,0.0537
593.00,0.0537
592.00,0.0537
591.00,0.0538
590.00,0.0538
589.00,0.0538
588.00,0.0539
587.00,0.0541
586.00,0.0542
585.00,0.0543
584.00,0.0544
583.00,0.0546
582.00,0.0547
581.00,0.0547
580.00,0.0548
579.00,0.0549
578.00,0.0550
577.00,0.0550
576.00,0.0551
575.00,0.0552
574.00,0.0553
573.00,0.0554
572.00,0.0555
571.00,0.0555
570.00,0.0555
569.00,0.0556
568.00,0.0557
567.00,0.0558
566.00,0.0560
565.00,0.0561
564.00,0.0563
563.00,0.0564
562.00,0.0565
561.00,0.0566
560.00,0.0566
559.00,0.0567
558.00,0.0567
557.00,0.0568
556.00,0.0569
555.00,0.0570
554.00,0.0572
553.00,0.0573
552.00,0.0574
551.00,0.0575
550.00,0.0576
549.00,0.0576
548.00,0.0577
547.00,0.0578
546.00,0.0578
545.00,0.0579
544.00,0.0580
543.00,0.0580
542.00,0.0580
541.00,0.0581
540.00,0.0582
539.00,0.0584
538.00,0.0586
537.00,0.0588
536.00,0.0590
535.00,0.0591
534.00,0.0592
533.00,0.0592
532.00,0.0592
531.00,0.0594
530.00,0.0595
529.00,0.0598
528.00,0.0602
527.00,0.0605
526.00,0.0607
525.00,0.0608
524.00,0.0609
523.00,0.0609
522.00,0.0610
521.00,0.0610
520.00,0.0610
519.00,0.0611
518.00,0.0611
517.00,0.0612
516.00,0.0613
515.00,0.0612
514.00,0.0610
513.00,0.0608
512.00,0.0606
511.00,0.0604
510.00,0.0602
509.00,0.0600
508.00,0.0597
507.00,0.0595
506.00,0.0592
505.00,0.0590
504.00,0.0588
503.00,0.0587
502.00,0.0585
501.00,0.0584
500.00,0.0583
499.00,0.0583
498.00,0.0584
497.00,0.0585
496.00,0.0587
495.00,0.0588
494.00,0.0589
493.00,0.0590
492.00,0.0591
491.00,0.0590
490.00,0.0588
489.00,0.0585
488.00,0.0582
487.00,0.0581
486.00,0.0580
485.00,0.0580
484.00,0.0580
483.00,0.0582
482.00,0.0583
481.00,0.0584
480.00,0.0584
479.00,0.0583
478.00,0.0582
477.00,0.0582
476.00,0.0584
475.00,0.0586
474.00,0.0586
473.00,0.0585
472.00,0.0582
471.00,0.0579
470.00,0.0577
469.00,0.0577
468.00,0.0580
467.00,0.0582
466.00,0.0582
465.00,0.0581
464.00,0.0581
463.00,0.0583
462.00,0.0584
461.00,0.0585
460.00,0.0584
459.00,0.0583
458.00,0.0580
457.00,0.0579
456.00,0.0578
455.00,0.0576
454.00,0.0574
453.00,0.0572
452.00,0.0571
451.00,0.0570
450.00,0.0567
449.00,0.0564
448.00,0.0561
447.00,0.0560
446.00,0.0559
445.00,0.0555
444.00,0.0550
443.00,0.0544
442.00,0.0540
441.00,0.0538
440.00,0.0537
439.00,0.0535
438.00,0.0532
437.00,0.0526
436.00,0.0518
435.00,0.0509
434.00,0.0502
433.00,0.0498
432.00,0.0498
431.00,0.0499
430.00,0.0500
429.00,0.0499
428.00,0.0498
427.00,0.0496
426.00,0.0492
425.00,0.0489
424.00,0.0486
423.00,0.0485
422.00,0.0485
421.00,0.0486
420.00,0.0487
419.00,0.0487
418.00,0.0486
417.00,0.0485
416.00,0.0483
415.00,0.0479
414.00,0.0475
413.00,0.0473
412.00,0.0473
411.00,0.0472
410.00,0.0467
409.00,0.0462
408.00,0.0461
407.00,0.0464
406.00,0.0466
405.00,0.0466
404.00,0.0464
403.00,0.0459
402.00,0.0454
401.00,0.0451
400.00,0.0449
