Created as New Dataset,Sample 375 By YargerLab Date Wednesday, October 23 2024
cm-1,A
4000.00,0.0021
3999.00,0.0021
3998.00,0.0021
3997.00,0.0021
3996.00,0.0021
3995.00,0.0022
3994.00,0.0022
3993.00,0.0022
3992.00,0.0022
3991.00,0.0022
3990.00,0.0022
3989.00,0.0022
3988.00,0.0022
3987.00,0.0022
3986.00,0.0022
3985.00,0.0022
3984.00,0.0022
3983.00,0.0022
3982.00,0.0022
3981.00,0.0022
3980.00,0.0021
3979.00,0.0021
3978.00,0.0021
3977.00,0.0021
3976.00,0.0021
3975.00,0.0021
3974.00,0.0021
3973.00,0.0021
3972.00,0.0021
3971.00,0.0021
3970.00,0.0021
3969.00,0.0021
3968.00,0.0021
3967.00,0.0021
3966.00,0.0021
3965.00,0.0021
3964.00,0.0021
3963.00,0.0021
3962.00,0.0021
3961.00,0.0021
3960.00,0.0021
3959.00,0.0021
3958.00,0.0021
3957.00,0.0021
3956.00,0.0021
3955.00,0.0021
3954.00,0.0021
3953.00,0.0021
3952.00,0.0021
3951.00,0.0021
3950.00,0.0022
3949.00,0.0022
3948.00,0.0022
3947.00,0.0021
3946.00,0.0021
3945.00,0.0021
3944.00,0.0021
3943.00,0.0021
3942.00,0.0021
3941.00,0.0021
3940.00,0.0021
3939.00,0.0021
3938.00,0.0021
3937.00,0.0021
3936.00,0.0021
3935.00,0.0021
3934.00,0.0021
3933.00,0.0021
3932.00,0.0021
3931.00,0.0021
3930.00,0.0021
3929.00,0.0021
3928.00,0.0021
3927.00,0.0021
3926.00,0.0021
3925.00,0.0021
3924.00,0.0021
3923.00,0.0021
3922.00,0.0021
3921.00,0.0021
3920.00,0.0021
3919.00,0.0021
3918.00,0.0021
3917.00,0.0021
3916.00,0.0021
3915.00,0.0021
3914.00,0.0021
3913.00,0.0020
3912.00,0.0020
3911.00,0.0020
3910.00,0.0020
3909.00,0.0020
3908.00,0.0020
3907.00,0.0020
3906.00,0.0021
3905.00,0.0021
3904.00,0.0021
3903.00,0.0021
3902.00,0.0021
3901.00,0.0021
3900.00,0.0021
3899.00,0.0021
3898.00,0.0021
3897.00,0.0020
3896.00,0.0020
3895.00,0.0020
3894.00,0.0020
3893.00,0.0020
3892.00,0.0020
3891.00,0.0020
3890.00,0.0020
3889.00,0.0020
3888.00,0.0020
3887.00,0.0020
3886.00,0.0020
3885.00,0.0020
3884.00,0.0020
3883.00,0.0020
3882.00,0.0020
3881.00,0.0020
3880.00,0.0020
3879.00,0.0020
3878.00,0.0020
3877.00,0.0020
3876.00,0.0020
3875.00,0.0020
3874.00,0.0020
3873.00,0.0020
3872.00,0.0020
3871.00,0.0020
3870.00,0.0020
3869.00,0.0019
3868.00,0.0020
3867.00,0.0020
3866.00,0.0020
3865.00,0.0020
3864.00,0.0020
3863.00,0.0020
3862.00,0.0020
3861.00,0.0020
3860.00,0.0019
3859.00,0.0019
3858.00,0.0019
3857.00,0.0020
3856.00,0.0020
3855.00,0.0019
3854.00,0.0019
3853.00,0.0019
3852.00,0.0019
3851.00,0.0019
3850.00,0.0019
3849.00,0.0019
3848.00,0.0019
3847.00,0.0019
3846.00,0.0019
3845.00,0.0019
3844.00,0.0019
3843.00,0.0019
3842.00,0.0019
3841.00,0.0019
3840.00,0.0019
3839.00,0.0019
3838.00,0.0019
3837.00,0.0019
3836.00,0.0019
3835.00,0.0019
3834.00,0.0019
3833.00,0.0019
3832.00,0.0019
3831.00,0.0019
3830.00,0.0019
3829.00,0.0019
3828.00,0.0019
3827.00,0.0019
3826.00,0.0019
3825.00,0.0019
3824.00,0.0019
3823.00,0.0019
3822.00,0.0019
3821.00,0.0018
3820.00,0.0018
3819.00,0.0019
3818.00,0.0019
3817.00,0.0019
3816.00,0.0019
3815.00,0.0019
3814.00,0.0019
3813.00,0.0019
3812.00,0.0019
3811.00,0.0018
3810.00,0.0018
3809.00,0.0018
3808.00,0.0018
3807.00,0.0018
3806.00,0.0018
3805.00,0.0018
3804.00,0.0019
3803.00,0.0019
3802.00,0.0018
3801.00,0.0018
3800.00,0.0018
3799.00,0.0019
3798.00,0.0019
3797.00,0.0019
3796.00,0.0019
3795.00,0.0018
3794.00,0.0018
3793.00,0.0018
3792.00,0.0018
3791.00,0.0018
3790.00,0.0018
3789.00,0.0018
3788.00,0.0018
3787.00,0.0018
3786.00,0.0018
3785.00,0.0018
3784.00,0.0018
3783.00,0.0018
3782.00,0.0018
3781.00,0.0018
3780.00,0.0018
3779.00,0.0018
3778.00,0.0018
3777.00,0.0019
3776.00,0.0019
3775.00,0.0019
3774.00,0.0019
3773.00,0.0019
3772.00,0.0019
3771.00,0.0019
3770.00,0.0019
3769.00,0.0019
3768.00,0.0019
3767.00,0.0019
3766.00,0.0019
3765.00,0.0019
3764.00,0.0018
3763.00,0.0018
3762.00,0.0018
3761.00,0.0018
3760.00,0.0018
3759.00,0.0018
3758.00,0.0018
3757.00,0.0018
3756.00,0.0018
3755.00,0.0018
3754.00,0.0019
3753.00,0.0019
3752.00,0.0019
3751.00,0.0019
3750.00,0.0019
3749.00,0.0019
3748.00,0.0019
3747.00,0.0020
3746.00,0.0020
3745.00,0.0020
3744.00,0.0019
3743.00,0.0019
3742.00,0.0019
3741.00,0.0019
3740.00,0.0019
3739.00,0.0019
3738.00,0.0019
3737.00,0.0019
3736.00,0.0020
3735.00,0.0020
3734.00,0.0020
3733.00,0.0020
3732.00,0.0020
3731.00,0.0019
3730.00,0.0019
3729.00,0.0018
3728.00,0.0018
3727.00,0.0018
3726.00,0.0018
3725.00,0.0019
3724.00,0.0019
3723.00,0.0019
3722.00,0.0019
3721.00,0.0019
3720.00,0.0019
3719.00,0.0019
3718.00,0.0019
3717.00,0.0019
3716.00,0.0019
3715.00,0.0019
3714.00,0.0019
3713.00,0.0018
3712.00,0.0018
3711.00,0.0018
3710.00,0.0019
3709.00,0.0019
3708.00,0.0019
3707.00,0.0019
3706.00,0.0019
3705.00,0.0019
3704.00,0.0019
3703.00,0.0019
3702.00,0.0019
3701.00,0.0019
3700.00,0.0019
3699.00,0.0019
3698.00,0.0019
3697.00,0.0019
3696.00,0.0019
3695.00,0.0019
3694.00,0.0019
3693.00,0.0019
3692.00,0.0020
3691.00,0.0020
3690.00,0.0020
3689.00,0.0020
3688.00,0.0021
3687.00,0.0021
3686.00,0.0021
3685.00,0.0021
3684.00,0.0021
3683.00,0.0021
3682.00,0.0022
3681.00,0.0022
3680.00,0.0022
3679.00,0.0022
3678.00,0.0022
3677.00,0.0022
3676.00,0.0022
3675.00,0.0023
3674.00,0.0024
3673.00,0.0024
3672.00,0.0025
3671.00,0.0025
3670.00,0.0025
3669.00,0.0025
3668.00,0.0025
3667.00,0.0026
3666.00,0.0026
3665.00,0.0026
3664.00,0.0026
3663.00,0.0026
3662.00,0.0027
3661.00,0.0027
3660.00,0.0027
3659.00,0.0027
3658.00,0.0028
3657.00,0.0028
3656.00,0.0028
3655.00,0.0029
3654.00,0.0029
3653.00,0.0030
3652.00,0.0030
3651.00,0.0031
3650.00,0.0031
3649.00,0.0032
3648.00,0.0033
3647.00,0.0033
3646.00,0.0033
3645.00,0.0033
3644.00,0.0033
3643.00,0.0034
3642.00,0.0034
3641.00,0.0035
3640.00,0.0035
3639.00,0.0036
3638.00,0.0036
3637.00,0.0037
3636.00,0.0037
3635.00,0.0038
3634.00,0.0038
3633.00,0.0039
3632.00,0.0039
3631.00,0.0040
3630.00,0.0040
3629.00,0.0041
3628.00,0.0042
3627.00,0.0043
3626.00,0.0043
3625.00,0.0043
3624.00,0.0044
3623.00,0.0044
3622.00,0.0044
3621.00,0.0045
3620.00,0.0046
3619.00,0.0047
3618.00,0.0047
3617.00,0.0048
3616.00,0.0049
3615.00,0.0049
3614.00,0.0050
3613.00,0.0050
3612.00,0.0051
3611.00,0.0052
3610.00,0.0053
3609.00,0.0054
3608.00,0.0054
3607.00,0.0055
3606.00,0.0055
3605.00,0.0055
3604.00,0.0056
3603.00,0.0056
3602.00,0.0057
3601.00,0.0057
3600.00,0.0058
3599.00,0.0059
3598.00,0.0059
3597.00,0.0060
3596.00,0.0061
3595.00,0.0062
3594.00,0.0063
3593.00,0.0064
3592.00,0.0064
3591.00,0.0065
3590.00,0.0066
3589.00,0.0067
3588.00,0.0068
3587.00,0.0069
3586.00,0.0070
3585.00,0.0071
3584.00,0.0071
3583.00,0.0072
3582.00,0.0072
3581.00,0.0073
3580.00,0.0073
3579.00,0.0074
3578.00,0.0075
3577.00,0.0076
3576.00,0.0077
3575.00,0.0078
3574.00,0.0079
3573.00,0.0079
3572.00,0.0080
3571.00,0.0081
3570.00,0.0082
3569.00,0.0083
3568.00,0.0084
3567.00,0.0086
3566.00,0.0087
3565.00,0.0088
3564.00,0.0088
3563.00,0.0088
3562.00,0.0088
3561.00,0.0089
3560.00,0.0090
3559.00,0.0091
3558.00,0.0092
3557.00,0.0092
3556.00,0.0093
3555.00,0.0094
3554.00,0.0095
3553.00,0.0096
3552.00,0.0097
3551.00,0.0098
3550.00,0.0099
3549.00,0.0099
3548.00,0.0100
3547.00,0.0101
3546.00,0.0102
3545.00,0.0103
3544.00,0.0104
3543.00,0.0105
3542.00,0.0106
3541.00,0.0106
3540.00,0.0107
3539.00,0.0108
3538.00,0.0108
3537.00,0.0109
3536.00,0.0110
3535.00,0.0111
3534.00,0.0112
3533.00,0.0113
3532.00,0.0114
3531.00,0.0114
3530.00,0.0115
3529.00,0.0116
3528.00,0.0117
3527.00,0.0118
3526.00,0.0120
3525.00,0.0121
3524.00,0.0122
3523.00,0.0122
3522.00,0.0123
3521.00,0.0124
3520.00,0.0124
3519.00,0.0125
3518.00,0.0126
3517.00,0.0127
3516.00,0.0128
3515.00,0.0129
3514.00,0.0130
3513.00,0.0131
3512.00,0.0132
3511.00,0.0133
3510.00,0.0134
3509.00,0.0135
3508.00,0.0136
3507.00,0.0137
3506.00,0.0138
3505.00,0.0139
3504.00,0.0140
3503.00,0.0141
3502.00,0.0143
3501.00,0.0144
3500.00,0.0145
3499.00,0.0145
3498.00,0.0146
3497.00,0.0147
3496.00,0.0148
3495.00,0.0149
3494.00,0.0150
3493.00,0.0151
3492.00,0.0152
3491.00,0.0153
3490.00,0.0154
3489.00,0.0156
3488.00,0.0157
3487.00,0.0158
3486.00,0.0159
3485.00,0.0160
3484.00,0.0162
3483.00,0.0163
3482.00,0.0164
3481.00,0.0165
3480.00,0.0166
3479.00,0.0167
3478.00,0.0168
3477.00,0.0169
3476.00,0.0170
3475.00,0.0171
3474.00,0.0172
3473.00,0.0173
3472.00,0.0174
3471.00,0.0175
3470.00,0.0176
3469.00,0.0177
3468.00,0.0178
3467.00,0.0180
3466.00,0.0181
3465.00,0.0182
3464.00,0.0183
3463.00,0.0184
3462.00,0.0185
3461.00,0.0186
3460.00,0.0187
3459.00,0.0188
3458.00,0.0189
3457.00,0.0190
3456.00,0.0191
3455.00,0.0192
3454.00,0.0193
3453.00,0.0194
3452.00,0.0195
3451.00,0.0196
3450.00,0.0198
3449.00,0.0199
3448.00,0.0200
3447.00,0.0202
3446.00,0.0203
3445.00,0.0204
3444.00,0.0205
3443.00,0.0207
3442.00,0.0208
3441.00,0.0210
3440.00,0.0211
3439.00,0.0212
3438.00,0.0214
3437.00,0.0215
3436.00,0.0216
3435.00,0.0218
3434.00,0.0219
3433.00,0.0220
3432.00,0.0222
3431.00,0.0223
3430.00,0.0225
3429.00,0.0226
3428.00,0.0228
3427.00,0.0229
3426.00,0.0231
3425.00,0.0232
3424.00,0.0234
3423.00,0.0235
3422.00,0.0236
3421.00,0.0238
3420.00,0.0239
3419.00,0.0241
3418.00,0.0242
3417.00,0.0244
3416.00,0.0245
3415.00,0.0246
3414.00,0.0248
3413.00,0.0249
3412.00,0.0250
3411.00,0.0252
3410.00,0.0253
3409.00,0.0255
3408.00,0.0256
3407.00,0.0258
3406.00,0.0259
3405.00,0.0260
3404.00,0.0261
3403.00,0.0262
3402.00,0.0263
3401.00,0.0265
3400.00,0.0266
3399.00,0.0268
3398.00,0.0269
3397.00,0.0270
3396.00,0.0272
3395.00,0.0273
3394.00,0.0274
3393.00,0.0275
3392.00,0.0277
3391.00,0.0278
3390.00,0.0280
3389.00,0.0282
3388.00,0.0284
3387.00,0.0285
3386.00,0.0286
3385.00,0.0288
3384.00,0.0289
3383.00,0.0290
3382.00,0.0292
3381.00,0.0293
3380.00,0.0295
3379.00,0.0296
3378.00,0.0298
3377.00,0.0300
3376.00,0.0301
3375.00,0.0303
3374.00,0.0304
3373.00,0.0306
3372.00,0.0307
3371.00,0.0309
3370.00,0.0310
3369.00,0.0312
3368.00,0.0314
3367.00,0.0316
3366.00,0.0318
3365.00,0.0320
3364.00,0.0323
3363.00,0.0325
3362.00,0.0326
3361.00,0.0328
3360.00,0.0330
3359.00,0.0332
3358.00,0.0335
3357.00,0.0337
3356.00,0.0339
3355.00,0.0341
3354.00,0.0343
3353.00,0.0344
3352.00,0.0346
3351.00,0.0348
3350.00,0.0351
3349.00,0.0353
3348.00,0.0355
3347.00,0.0358
3346.00,0.0360
3345.00,0.0362
3344.00,0.0364
3343.00,0.0366
3342.00,0.0368
3341.00,0.0370
3340.00,0.0372
3339.00,0.0374
3338.00,0.0377
3337.00,0.0379
3336.00,0.0382
3335.00,0.0385
3334.00,0.0388
3333.00,0.0391
3332.00,0.0394
3331.00,0.0396
3330.00,0.0398
3329.00,0.0401
3328.00,0.0403
3327.00,0.0405
3326.00,0.0408
3325.00,0.0411
3324.00,0.0414
3323.00,0.0417
3322.00,0.0420
3321.00,0.0423
3320.00,0.0425
3319.00,0.0428
3318.00,0.0431
3317.00,0.0434
3316.00,0.0437
3315.00,0.0439
3314.00,0.0442
3313.00,0.0445
3312.00,0.0447
3311.00,0.0449
3310.00,0.0451
3309.00,0.0453
3308.00,0.0455
3307.00,0.0458
3306.00,0.0461
3305.00,0.0464
3304.00,0.0468
3303.00,0.0471
3302.00,0.0475
3301.00,0.0478
3300.00,0.0481
3299.00,0.0483
3298.00,0.0485
3297.00,0.0486
3296.00,0.0488
3295.00,0.0490
3294.00,0.0492
3293.00,0.0494
3292.00,0.0497
3291.00,0.0499
3290.00,0.0501
3289.00,0.0504
3288.00,0.0506
3287.00,0.0507
3286.00,0.0508
3285.00,0.0510
3284.00,0.0511
3283.00,0.0511
3282.00,0.0512
3281.00,0.0512
3280.00,0.0513
3279.00,0.0513
3278.00,0.0513
3277.00,0.0512
3276.00,0.0511
3275.00,0.0510
3274.00,0.0509
3273.00,0.0507
3272.00,0.0506
3271.00,0.0505
3270.00,0.0504
3269.00,0.0503
3268.00,0.0502
3267.00,0.0501
3266.00,0.0499
3265.00,0.0496
3264.00,0.0494
3263.00,0.0492
3262.00,0.0489
3261.00,0.0487
3260.00,0.0484
3259.00,0.0481
3258.00,0.0478
3257.00,0.0475
3256.00,0.0472
3255.00,0.0470
3254.00,0.0467
3253.00,0.0465
3252.00,0.0463
3251.00,0.0460
3250.00,0.0457
3249.00,0.0453
3248.00,0.0450
3247.00,0.0448
3246.00,0.0445
3245.00,0.0444
3244.00,0.0442
3243.00,0.0440
3242.00,0.0438
3241.00,0.0436
3240.00,0.0434
3239.00,0.0431
3238.00,0.0429
3237.00,0.0426
3236.00,0.0424
3235.00,0.0421
3234.00,0.0419
3233.00,0.0417
3232.00,0.0416
3231.00,0.0415
3230.00,0.0414
3229.00,0.0413
3228.00,0.0412
3227.00,0.0410
3226.00,0.0408
3225.00,0.0407
3224.00,0.0406
3223.00,0.0404
3222.00,0.0402
3221.00,0.0401
3220.00,0.0399
3219.00,0.0398
3218.00,0.0397
3217.00,0.0396
3216.00,0.0394
3215.00,0.0393
3214.00,0.0392
3213.00,0.0390
3212.00,0.0389
3211.00,0.0388
3210.00,0.0387
3209.00,0.0385
3208.00,0.0384
3207.00,0.0383
3206.00,0.0382
3205.00,0.0380
3204.00,0.0379
3203.00,0.0378
3202.00,0.0377
3201.00,0.0376
3200.00,0.0374
3199.00,0.0372
3198.00,0.0371
3197.00,0.0370
3196.00,0.0368
3195.00,0.0367
3194.00,0.0366
3193.00,0.0364
3192.00,0.0363
3191.00,0.0362
3190.00,0.0360
3189.00,0.0359
3188.00,0.0357
3187.00,0.0356
3186.00,0.0354
3185.00,0.0353
3184.00,0.0352
3183.00,0.0350
3182.00,0.0349
3181.00,0.0347
3180.00,0.0346
3179.00,0.0344
3178.00,0.0343
3177.00,0.0341
3176.00,0.0340
3175.00,0.0339
3174.00,0.0337
3173.00,0.0336
3172.00,0.0334
3171.00,0.0332
3170.00,0.0331
3169.00,0.0329
3168.00,0.0328
3167.00,0.0326
3166.00,0.0325
3165.00,0.0324
3164.00,0.0322
3163.00,0.0321
3162.00,0.0319
3161.00,0.0318
3160.00,0.0316
3159.00,0.0315
3158.00,0.0313
3157.00,0.0312
3156.00,0.0310
3155.00,0.0309
3154.00,0.0307
3153.00,0.0306
3152.00,0.0305
3151.00,0.0304
3150.00,0.0303
3149.00,0.0303
3148.00,0.0302
3147.00,0.0301
3146.00,0.0299
3145.00,0.0298
3144.00,0.0297
3143.00,0.0295
3142.00,0.0294
3141.00,0.0293
3140.00,0.0291
3139.00,0.0291
3138.00,0.0290
3137.00,0.0290
3136.00,0.0289
3135.00,0.0288
3134.00,0.0287
3133.00,0.0286
3132.00,0.0286
3131.00,0.0285
3130.00,0.0284
3129.00,0.0284
3128.00,0.0283
3127.00,0.0283
3126.00,0.0282
3125.00,0.0281
3124.00,0.0280
3123.00,0.0279
3122.00,0.0278
3121.00,0.0277
3120.00,0.0276
3119.00,0.0276
3118.00,0.0276
3117.00,0.0276
3116.00,0.0276
3115.00,0.0276
3114.00,0.0277
3113.00,0.0278
3112.00,0.0278
3111.00,0.0278
3110.00,0.0277
3109.00,0.0277
3108.00,0.0277
3107.00,0.0278
3106.00,0.0279
3105.00,0.0279
3104.00,0.0279
3103.00,0.0279
3102.00,0.0278
3101.00,0.0279
3100.00,0.0279
3099.00,0.0280
3098.00,0.0281
3097.00,0.0282
3096.00,0.0282
3095.00,0.0283
3094.00,0.0283
3093.00,0.0283
3092.00,0.0282
3091.00,0.0282
3090.00,0.0283
3089.00,0.0283
3088.00,0.0284
3087.00,0.0284
3086.00,0.0284
3085.00,0.0284
3084.00,0.0284
3083.00,0.0284
3082.00,0.0284
3081.00,0.0283
3080.00,0.0283
3079.00,0.0284
3078.00,0.0285
3077.00,0.0286
3076.00,0.0287
3075.00,0.0288
3074.00,0.0288
3073.00,0.0288
3072.00,0.0288
3071.00,0.0287
3070.00,0.0286
3069.00,0.0285
3068.00,0.0285
3067.00,0.0285
3066.00,0.0285
3065.00,0.0285
3064.00,0.0285
3063.00,0.0285
3062.00,0.0285
3061.00,0.0284
3060.00,0.0284
3059.00,0.0282
3058.00,0.0281
3057.00,0.0280
3056.00,0.0279
3055.00,0.0277
3054.00,0.0276
3053.00,0.0275
3052.00,0.0274
3051.00,0.0273
3050.00,0.0272
3049.00,0.0271
3048.00,0.0269
3047.00,0.0268
3046.00,0.0266
3045.00,0.0264
3044.00,0.0263
3043.00,0.0262
3042.00,0.0261
3041.00,0.0261
3040.00,0.0260
3039.00,0.0260
3038.00,0.0259
3037.00,0.0257
3036.00,0.0256
3035.00,0.0254
3034.00,0.0253
3033.00,0.0253
3032.00,0.0253
3031.00,0.0252
3030.00,0.0251
3029.00,0.0250
3028.00,0.0249
3027.00,0.0248
3026.00,0.0246
3025.00,0.0245
3024.00,0.0244
3023.00,0.0243
3022.00,0.0242
3021.00,0.0241
3020.00,0.0239
3019.00,0.0238
3018.00,0.0236
3017.00,0.0235
3016.00,0.0234
3015.00,0.0233
3014.00,0.0232
3013.00,0.0231
3012.00,0.0231
3011.00,0.0231
3010.00,0.0231
3009.00,0.0232
3008.00,0.0232
3007.00,0.0231
3006.00,0.0231
3005.00,0.0230
3004.00,0.0230
3003.00,0.0230
3002.00,0.0230
3001.00,0.0230
3000.00,0.0230
2999.00,0.0230
2998.00,0.0230
2997.00,0.0231
2996.00,0.0232
2995.00,0.0233
2994.00,0.0234
2993.00,0.0235
2992.00,0.0237
2991.00,0.0239
2990.00,0.0242
2989.00,0.0244
2988.00,0.0247
2987.00,0.0250
2986.00,0.0253
2985.00,0.0256
2984.00,0.0259
2983.00,0.0262
2982.00,0.0266
2981.00,0.0270
2980.00,0.0274
2979.00,0.0279
2978.00,0.0284
2977.00,0.0288
2976.00,0.0293
2975.00,0.0298
2974.00,0.0303
2973.00,0.0307
2972.00,0.0312
2971.00,0.0317
2970.00,0.0321
2969.00,0.0325
2968.00,0.0329
2967.00,0.0333
2966.00,0.0336
2965.00,0.0338
2964.00,0.0340
2963.00,0.0342
2962.00,0.0343
2961.00,0.0344
2960.00,0.0344
2959.00,0.0344
2958.00,0.0344
2957.00,0.0343
2956.00,0.0341
2955.00,0.0339
2954.00,0.0336
2953.00,0.0334
2952.00,0.0332
2951.00,0.0330
2950.00,0.0328
2949.00,0.0327
2948.00,0.0326
2947.00,0.0326
2946.00,0.0327
2945.00,0.0328
2944.00,0.0330
2943.00,0.0332
2942.00,0.0336
2941.00,0.0339
2940.00,0.0343
2939.00,0.0347
2938.00,0.0351
2937.00,0.0355
2936.00,0.0358
2935.00,0.0362
2934.00,0.0365
2933.00,0.0368
2932.00,0.0370
2931.00,0.0372
2930.00,0.0373
2929.00,0.0375
2928.00,0.0376
2927.00,0.0376
2926.00,0.0376
2925.00,0.0376
2924.00,0.0375
2923.00,0.0374
2922.00,0.0371
2921.00,0.0368
2920.00,0.0365
2919.00,0.0360
2918.00,0.0355
2917.00,0.0350
2916.00,0.0345
2915.00,0.0339
2914.00,0.0334
2913.00,0.0329
2912.00,0.0325
2911.00,0.0321
2910.00,0.0317
2909.00,0.0313
2908.00,0.0309
2907.00,0.0306
2906.00,0.0302
2905.00,0.0299
2904.00,0.0296
2903.00,0.0293
2902.00,0.0291
2901.00,0.0289
2900.00,0.0286
2899.00,0.0284
2898.00,0.0282
2897.00,0.0280
2896.00,0.0278
2895.00,0.0276
2894.00,0.0274
2893.00,0.0273
2892.00,0.0272
2891.00,0.0270
2890.00,0.0269
2889.00,0.0269
2888.00,0.0268
2887.00,0.0268
2886.00,0.0268
2885.00,0.0268
2884.00,0.0268
2883.00,0.0269
2882.00,0.0270
2881.00,0.0271
2880.00,0.0273
2879.00,0.0274
2878.00,0.0275
2877.00,0.0276
2876.00,0.0277
2875.00,0.0277
2874.00,0.0276
2873.00,0.0276
2872.00,0.0276
2871.00,0.0275
2870.00,0.0273
2869.00,0.0271
2868.00,0.0269
2867.00,0.0267
2866.00,0.0264
2865.00,0.0263
2864.00,0.0261
2863.00,0.0260
2862.00,0.0260
2861.00,0.0259
2860.00,0.0259
2859.00,0.0260
2858.00,0.0260
2857.00,0.0261
2856.00,0.0261
2855.00,0.0260
2854.00,0.0260
2853.00,0.0258
2852.00,0.0256
2851.00,0.0253
2850.00,0.0249
2849.00,0.0244
2848.00,0.0239
2847.00,0.0234
2846.00,0.0229
2845.00,0.0224
2844.00,0.0220
2843.00,0.0216
2842.00,0.0212
2841.00,0.0209
2840.00,0.0206
2839.00,0.0203
2838.00,0.0201
2837.00,0.0199
2836.00,0.0198
2835.00,0.0196
2834.00,0.0194
2833.00,0.0193
2832.00,0.0192
2831.00,0.0190
2830.00,0.0189
2829.00,0.0188
2828.00,0.0187
2827.00,0.0186
2826.00,0.0185
2825.00,0.0185
2824.00,0.0184
2823.00,0.0183
2822.00,0.0183
2821.00,0.0182
2820.00,0.0181
2819.00,0.0180
2818.00,0.0179
2817.00,0.0178
2816.00,0.0177
2815.00,0.0177
2814.00,0.0176
2813.00,0.0175
2812.00,0.0174
2811.00,0.0174
2810.00,0.0173
2809.00,0.0173
2808.00,0.0172
2807.00,0.0172
2806.00,0.0171
2805.00,0.0170
2804.00,0.0170
2803.00,0.0169
2802.00,0.0168
2801.00,0.0167
2800.00,0.0166
2799.00,0.0166
2798.00,0.0165
2797.00,0.0165
2796.00,0.0165
2795.00,0.0164
2794.00,0.0164
2793.00,0.0163
2792.00,0.0162
2791.00,0.0161
2790.00,0.0161
2789.00,0.0160
2788.00,0.0160
2787.00,0.0160
2786.00,0.0160
2785.00,0.0159
2784.00,0.0159
2783.00,0.0158
2782.00,0.0158
2781.00,0.0157
2780.00,0.0157
2779.00,0.0156
2778.00,0.0156
2777.00,0.0155
2776.00,0.0154
2775.00,0.0154
2774.00,0.0153
2773.00,0.0153
2772.00,0.0152
2771.00,0.0152
2770.00,0.0152
2769.00,0.0151
2768.00,0.0150
2767.00,0.0150
2766.00,0.0149
2765.00,0.0149
2764.00,0.0148
2763.00,0.0148
2762.00,0.0148
2761.00,0.0147
2760.00,0.0147
2759.00,0.0146
2758.00,0.0145
2757.00,0.0145
2756.00,0.0144
2755.00,0.0144
2754.00,0.0144
2753.00,0.0143
2752.00,0.0143
2751.00,0.0142
2750.00,0.0141
2749.00,0.0141
2748.00,0.0140
2747.00,0.0140
2746.00,0.0140
2745.00,0.0139
2744.00,0.0139
2743.00,0.0139
2742.00,0.0139
2741.00,0.0138
2740.00,0.0138
2739.00,0.0137
2738.00,0.0137
2737.00,0.0136
2736.00,0.0136
2735.00,0.0135
2734.00,0.0135
2733.00,0.0135
2732.00,0.0134
2731.00,0.0133
2730.00,0.0132
2729.00,0.0132
2728.00,0.0131
2727.00,0.0131
2726.00,0.0130
2725.00,0.0130
2724.00,0.0129
2723.00,0.0129
2722.00,0.0128
2721.00,0.0128
2720.00,0.0127
2719.00,0.0127
2718.00,0.0127
2717.00,0.0126
2716.00,0.0125
2715.00,0.0125
2714.00,0.0124
2713.00,0.0124
2712.00,0.0124
2711.00,0.0123
2710.00,0.0123
2709.00,0.0123
2708.00,0.0122
2707.00,0.0122
2706.00,0.0121
2705.00,0.0121
2704.00,0.0121
2703.00,0.0120
2702.00,0.0120
2701.00,0.0119
2700.00,0.0119
2699.00,0.0119
2698.00,0.0119
2697.00,0.0119
2696.00,0.0118
2695.00,0.0118
2694.00,0.0118
2693.00,0.0117
2692.00,0.0117
2691.00,0.0117
2690.00,0.0117
2689.00,0.0116
2688.00,0.0116
2687.00,0.0116
2686.00,0.0115
2685.00,0.0115
2684.00,0.0115
2683.00,0.0115
2682.00,0.0114
2681.00,0.0114
2680.00,0.0114
2679.00,0.0113
2678.00,0.0113
2677.00,0.0113
2676.00,0.0113
2675.00,0.0113
2674.00,0.0113
2673.00,0.0112
2672.00,0.0112
2671.00,0.0111
2670.00,0.0111
2669.00,0.0111
2668.00,0.0111
2667.00,0.0111
2666.00,0.0110
2665.00,0.0110
2664.00,0.0110
2663.00,0.0110
2662.00,0.0109
2661.00,0.0109
2660.00,0.0109
2659.00,0.0109
2658.00,0.0109
2657.00,0.0109
2656.00,0.0109
2655.00,0.0108
2654.00,0.0108
2653.00,0.0108
2652.00,0.0108
2651.00,0.0108
2650.00,0.0108
2649.00,0.0107
2648.00,0.0107
2647.00,0.0107
2646.00,0.0107
2645.00,0.0106
2644.00,0.0106
2643.00,0.0106
2642.00,0.0106
2641.00,0.0106
2640.00,0.0105
2639.00,0.0105
2638.00,0.0105
2637.00,0.0105
2636.00,0.0105
2635.00,0.0105
2634.00,0.0105
2633.00,0.0104
2632.00,0.0104
2631.00,0.0104
2630.00,0.0104
2629.00,0.0104
2628.00,0.0104
2627.00,0.0104
2626.00,0.0104
2625.00,0.0104
2624.00,0.0103
2623.00,0.0103
2622.00,0.0103
2621.00,0.0103
2620.00,0.0102
2619.00,0.0102
2618.00,0.0102
2617.00,0.0101
2616.00,0.0101
2615.00,0.0101
2614.00,0.0101
2613.00,0.0101
2612.00,0.0101
2611.00,0.0100
2610.00,0.0100
2609.00,0.0100
2608.00,0.0099
2607.00,0.0099
2606.00,0.0099
2605.00,0.0099
2604.00,0.0099
2603.00,0.0099
2602.00,0.0099
2601.00,0.0099
2600.00,0.0099
2599.00,0.0099
2598.00,0.0098
2597.00,0.0098
2596.00,0.0097
2595.00,0.0097
2594.00,0.0097
2593.00,0.0097
2592.00,0.0097
2591.00,0.0097
2590.00,0.0097
2589.00,0.0097
2588.00,0.0096
2587.00,0.0096
2586.00,0.0096
2585.00,0.0095
2584.00,0.0095
2583.00,0.0095
2582.00,0.0095
2581.00,0.0095
2580.00,0.0095
2579.00,0.0095
2578.00,0.0095
2577.00,0.0095
2576.00,0.0095
2575.00,0.0095
2574.00,0.0094
2573.00,0.0094
2572.00,0.0094
2571.00,0.0093
2570.00,0.0093
2569.00,0.0093
2568.00,0.0093
2567.00,0.0092
2566.00,0.0092
2565.00,0.0092
2564.00,0.0092
2563.00,0.0092
2562.00,0.0092
2561.00,0.0091
2560.00,0.0091
2559.00,0.0091
2558.00,0.0091
2557.00,0.0090
2556.00,0.0090
2555.00,0.0090
2554.00,0.0090
2553.00,0.0089
2552.00,0.0089
2551.00,0.0089
2550.00,0.0089
2549.00,0.0089
2548.00,0.0089
2547.00,0.0089
2546.00,0.0088
2545.00,0.0088
2544.00,0.0088
2543.00,0.0087
2542.00,0.0087
2541.00,0.0087
2540.00,0.0087
2539.00,0.0087
2538.00,0.0086
2537.00,0.0086
2536.00,0.0086
2535.00,0.0085
2534.00,0.0085
2533.00,0.0085
2532.00,0.0085
2531.00,0.0084
2530.00,0.0084
2529.00,0.0085
2528.00,0.0084
2527.00,0.0084
2526.00,0.0084
2525.00,0.0084
2524.00,0.0084
2523.00,0.0083
2522.00,0.0083
2521.00,0.0083
2520.00,0.0083
2519.00,0.0083
2518.00,0.0083
2517.00,0.0083
2516.00,0.0082
2515.00,0.0081
2514.00,0.0081
2513.00,0.0081
2512.00,0.0081
2511.00,0.0081
2510.00,0.0081
2509.00,0.0081
2508.00,0.0081
2507.00,0.0081
2506.00,0.0081
2505.00,0.0081
2504.00,0.0080
2503.00,0.0080
2502.00,0.0080
2501.00,0.0080
2500.00,0.0080
2499.00,0.0080
2498.00,0.0080
2497.00,0.0079
2496.00,0.0079
2495.00,0.0079
2494.00,0.0079
2493.00,0.0079
2492.00,0.0079
2491.00,0.0079
2490.00,0.0079
2489.00,0.0078
2488.00,0.0078
2487.00,0.0078
2486.00,0.0078
2485.00,0.0078
2484.00,0.0078
2483.00,0.0077
2482.00,0.0077
2481.00,0.0077
2480.00,0.0076
2479.00,0.0076
2478.00,0.0076
2477.00,0.0076
2476.00,0.0076
2475.00,0.0076
2474.00,0.0076
2473.00,0.0076
2472.00,0.0076
2471.00,0.0076
2470.00,0.0075
2469.00,0.0075
2468.00,0.0075
2467.00,0.0075
2466.00,0.0075
2465.00,0.0074
2464.00,0.0074
2463.00,0.0074
2462.00,0.0073
2461.00,0.0073
2460.00,0.0072
2459.00,0.0072
2458.00,0.0072
2457.00,0.0072
2456.00,0.0072
2455.00,0.0072
2454.00,0.0072
2453.00,0.0071
2452.00,0.0071
2451.00,0.0071
2450.00,0.0071
2449.00,0.0071
2448.00,0.0072
2447.00,0.0072
2446.00,0.0071
2445.00,0.0071
2444.00,0.0070
2443.00,0.0070
2442.00,0.0069
2441.00,0.0069
2440.00,0.0069
2439.00,0.0068
2438.00,0.0068
2437.00,0.0068
2436.00,0.0068
2435.00,0.0068
2434.00,0.0068
2433.00,0.0068
2432.00,0.0067
2431.00,0.0067
2430.00,0.0067
2429.00,0.0067
2428.00,0.0067
2427.00,0.0067
2426.00,0.0066
2425.00,0.0066
2424.00,0.0066
2423.00,0.0066
2422.00,0.0066
2421.00,0.0066
2420.00,0.0066
2419.00,0.0066
2418.00,0.0065
2417.00,0.0065
2416.00,0.0065
2415.00,0.0064
2414.00,0.0064
2413.00,0.0063
2412.00,0.0064
2411.00,0.0064
2410.00,0.0064
2409.00,0.0063
2408.00,0.0063
2407.00,0.0063
2406.00,0.0062
2405.00,0.0062
2404.00,0.0062
2403.00,0.0062
2402.00,0.0062
2401.00,0.0062
2400.00,0.0062
2399.00,0.0062
2398.00,0.0062
2397.00,0.0062
2396.00,0.0062
2395.00,0.0061
2394.00,0.0061
2393.00,0.0061
2392.00,0.0061
2391.00,0.0060
2390.00,0.0060
2389.00,0.0060
2388.00,0.0060
2387.00,0.0059
2386.00,0.0059
2385.00,0.0059
2384.00,0.0058
2383.00,0.0058
2382.00,0.0057
2381.00,0.0057
2380.00,0.0057
2379.00,0.0057
2378.00,0.0057
2377.00,0.0057
2376.00,0.0057
2375.00,0.0057
2374.00,0.0057
2373.00,0.0057
2372.00,0.0056
2371.00,0.0056
2370.00,0.0056
2369.00,0.0056
2368.00,0.0056
2367.00,0.0057
2366.00,0.0057
2365.00,0.0057
2364.00,0.0056
2363.00,0.0055
2362.00,0.0055
2361.00,0.0054
2360.00,0.0054
2359.00,0.0054
2358.00,0.0054
2357.00,0.0055
2356.00,0.0055
2355.00,0.0055
2354.00,0.0055
2353.00,0.0055
2352.00,0.0054
2351.00,0.0054
2350.00,0.0054
2349.00,0.0053
2348.00,0.0053
2347.00,0.0052
2346.00,0.0052
2345.00,0.0052
2344.00,0.0053
2343.00,0.0054
2342.00,0.0054
2341.00,0.0054
2340.00,0.0054
2339.00,0.0054
2338.00,0.0054
2337.00,0.0054
2336.00,0.0054
2335.00,0.0054
2334.00,0.0054
2333.00,0.0054
2332.00,0.0054
2331.00,0.0053
2330.00,0.0053
2329.00,0.0054
2328.00,0.0054
2327.00,0.0054
2326.00,0.0054
2325.00,0.0054
2324.00,0.0053
2323.00,0.0053
2322.00,0.0053
2321.00,0.0053
2320.00,0.0053
2319.00,0.0053
2318.00,0.0053
2317.00,0.0053
2316.00,0.0053
2315.00,0.0053
2314.00,0.0053
2313.00,0.0052
2312.00,0.0052
2311.00,0.0052
2310.00,0.0052
2309.00,0.0052
2308.00,0.0051
2307.00,0.0051
2306.00,0.0051
2305.00,0.0051
2304.00,0.0051
2303.00,0.0051
2302.00,0.0051
2301.00,0.0050
2300.00,0.0050
2299.00,0.0050
2298.00,0.0051
2297.00,0.0051
2296.00,0.0051
2295.00,0.0051
2294.00,0.0051
2293.00,0.0051
2292.00,0.0051
2291.00,0.0051
2290.00,0.0051
2289.00,0.0051
2288.00,0.0050
2287.00,0.0050
2286.00,0.0050
2285.00,0.0050
2284.00,0.0050
2283.00,0.0051
2282.00,0.0051
2281.00,0.0050
2280.00,0.0050
2279.00,0.0049
2278.00,0.0049
2277.00,0.0049
2276.00,0.0049
2275.00,0.0049
2274.00,0.0049
2273.00,0.0050
2272.00,0.0050
2271.00,0.0049
2270.00,0.0049
2269.00,0.0049
2268.00,0.0049
2267.00,0.0049
2266.00,0.0049
2265.00,0.0049
2264.00,0.0048
2263.00,0.0048
2262.00,0.0048
2261.00,0.0049
2260.00,0.0049
2259.00,0.0049
2258.00,0.0049
2257.00,0.0048
2256.00,0.0048
2255.00,0.0048
2254.00,0.0048
2253.00,0.0048
2252.00,0.0047
2251.00,0.0047
2250.00,0.0046
2249.00,0.0046
2248.00,0.0047
2247.00,0.0048
2246.00,0.0048
2245.00,0.0048
2244.00,0.0048
2243.00,0.0048
2242.00,0.0048
2241.00,0.0048
2240.00,0.0049
2239.00,0.0049
2238.00,0.0048
2237.00,0.0048
2236.00,0.0048
2235.00,0.0048
2234.00,0.0048
2233.00,0.0047
2232.00,0.0047
2231.00,0.0046
2230.00,0.0045
2229.00,0.0045
2228.00,0.0046
2227.00,0.0046
2226.00,0.0046
2225.00,0.0046
2224.00,0.0046
2223.00,0.0045
2222.00,0.0045
2221.00,0.0046
2220.00,0.0046
2219.00,0.0046
2218.00,0.0046
2217.00,0.0046
2216.00,0.0045
2215.00,0.0045
2214.00,0.0045
2213.00,0.0044
2212.00,0.0044
2211.00,0.0044
2210.00,0.0044
2209.00,0.0044
2208.00,0.0044
2207.00,0.0044
2206.00,0.0043
2205.00,0.0043
2204.00,0.0043
2203.00,0.0042
2202.00,0.0043
2201.00,0.0043
2200.00,0.0045
2199.00,0.0046
2198.00,0.0047
2197.00,0.0047
2196.00,0.0047
2195.00,0.0047
2194.00,0.0046
2193.00,0.0045
2192.00,0.0044
2191.00,0.0044
2190.00,0.0044
2189.00,0.0045
2188.00,0.0045
2187.00,0.0046
2186.00,0.0045
2185.00,0.0045
2184.00,0.0044
2183.00,0.0043
2182.00,0.0042
2181.00,0.0042
2180.00,0.0043
2179.00,0.0043
2178.00,0.0042
2177.00,0.0042
2176.00,0.0041
2175.00,0.0041
2174.00,0.0041
2173.00,0.0041
2172.00,0.0041
2171.00,0.0041
2170.00,0.0041
2169.00,0.0043
2168.00,0.0045
2167.00,0.0046
2166.00,0.0047
2165.00,0.0048
2164.00,0.0048
2163.00,0.0046
2162.00,0.0042
2161.00,0.0038
2160.00,0.0036
2159.00,0.0034
2158.00,0.0033
2157.00,0.0033
2156.00,0.0035
2155.00,0.0036
2154.00,0.0038
2153.00,0.0039
2152.00,0.0039
2151.00,0.0038
2150.00,0.0038
2149.00,0.0039
2148.00,0.0039
2147.00,0.0040
2146.00,0.0041
2145.00,0.0042
2144.00,0.0043
2143.00,0.0043
2142.00,0.0042
2141.00,0.0042
2140.00,0.0041
2139.00,0.0041
2138.00,0.0042
2137.00,0.0043
2136.00,0.0043
2135.00,0.0043
2134.00,0.0043
2133.00,0.0043
2132.00,0.0043
2131.00,0.0043
2130.00,0.0043
2129.00,0.0042
2128.00,0.0042
2127.00,0.0043
2126.00,0.0043
2125.00,0.0044
2124.00,0.0044
2123.00,0.0044
2122.00,0.0043
2121.00,0.0043
2120.00,0.0043
2119.00,0.0043
2118.00,0.0044
2117.00,0.0045
2116.00,0.0046
2115.00,0.0046
2114.00,0.0045
2113.00,0.0045
2112.00,0.0044
2111.00,0.0044
2110.00,0.0044
2109.00,0.0044
2108.00,0.0044
2107.00,0.0044
2106.00,0.0043
2105.00,0.0043
2104.00,0.0043
2103.00,0.0043
2102.00,0.0043
2101.00,0.0043
2100.00,0.0043
2099.00,0.0042
2098.00,0.0042
2097.00,0.0042
2096.00,0.0042
2095.00,0.0043
2094.00,0.0043
2093.00,0.0043
2092.00,0.0043
2091.00,0.0043
2090.00,0.0043
2089.00,0.0042
2088.00,0.0043
2087.00,0.0043
2086.00,0.0043
2085.00,0.0043
2084.00,0.0043
2083.00,0.0043
2082.00,0.0043
2081.00,0.0043
2080.00,0.0042
2079.00,0.0042
2078.00,0.0041
2077.00,0.0041
2076.00,0.0041
2075.00,0.0041
2074.00,0.0040
2073.00,0.0040
2072.00,0.0039
2071.00,0.0039
2070.00,0.0039
2069.00,0.0040
2068.00,0.0041
2067.00,0.0041
2066.00,0.0040
2065.00,0.0040
2064.00,0.0040
2063.00,0.0040
2062.00,0.0040
2061.00,0.0040
2060.00,0.0039
2059.00,0.0038
2058.00,0.0037
2057.00,0.0037
2056.00,0.0038
2055.00,0.0039
2054.00,0.0039
2053.00,0.0040
2052.00,0.0039
2051.00,0.0037
2050.00,0.0036
2049.00,0.0035
2048.00,0.0035
2047.00,0.0034
2046.00,0.0033
2045.00,0.0033
2044.00,0.0033
2043.00,0.0033
2042.00,0.0032
2041.00,0.0032
2040.00,0.0032
2039.00,0.0033
2038.00,0.0033
2037.00,0.0034
2036.00,0.0035
2035.00,0.0036
2034.00,0.0036
2033.00,0.0036
2032.00,0.0036
2031.00,0.0036
2030.00,0.0035
2029.00,0.0035
2028.00,0.0034
2027.00,0.0033
2026.00,0.0031
2025.00,0.0031
2024.00,0.0032
2023.00,0.0032
2022.00,0.0032
2021.00,0.0032
2020.00,0.0032
2019.00,0.0033
2018.00,0.0034
2017.00,0.0035
2016.00,0.0036
2015.00,0.0036
2014.00,0.0036
2013.00,0.0036
2012.00,0.0037
2011.00,0.0037
2010.00,0.0036
2009.00,0.0034
2008.00,0.0032
2007.00,0.0031
2006.00,0.0030
2005.00,0.0030
2004.00,0.0032
2003.00,0.0033
2002.00,0.0034
2001.00,0.0036
2000.00,0.0038
1999.00,0.0038
1998.00,0.0037
1997.00,0.0036
1996.00,0.0035
1995.00,0.0034
1994.00,0.0034
1993.00,0.0033
1992.00,0.0033
1991.00,0.0033
1990.00,0.0033
1989.00,0.0034
1988.00,0.0034
1987.00,0.0035
1986.00,0.0035
1985.00,0.0035
1984.00,0.0036
1983.00,0.0035
1982.00,0.0034
1981.00,0.0033
1980.00,0.0033
1979.00,0.0032
1978.00,0.0030
1977.00,0.0030
1976.00,0.0029
1975.00,0.0029
1974.00,0.0029
1973.00,0.0030
1972.00,0.0031
1971.00,0.0032
1970.00,0.0033
1969.00,0.0035
1968.00,0.0035
1967.00,0.0033
1966.00,0.0031
1965.00,0.0029
1964.00,0.0029
1963.00,0.0030
1962.00,0.0030
1961.00,0.0030
1960.00,0.0030
1959.00,0.0030
1958.00,0.0030
1957.00,0.0031
1956.00,0.0033
1955.00,0.0034
1954.00,0.0034
1953.00,0.0034
1952.00,0.0034
1951.00,0.0034
1950.00,0.0034
1949.00,0.0034
1948.00,0.0034
1947.00,0.0033
1946.00,0.0032
1945.00,0.0033
1944.00,0.0033
1943.00,0.0033
1942.00,0.0032
1941.00,0.0032
1940.00,0.0032
1939.00,0.0032
1938.00,0.0032
1937.00,0.0033
1936.00,0.0033
1935.00,0.0033
1934.00,0.0032
1933.00,0.0032
1932.00,0.0033
1931.00,0.0033
1930.00,0.0033
1929.00,0.0033
1928.00,0.0032
1927.00,0.0032
1926.00,0.0031
1925.00,0.0032
1924.00,0.0032
1923.00,0.0032
1922.00,0.0031
1921.00,0.0031
1920.00,0.0032
1919.00,0.0031
1918.00,0.0031
1917.00,0.0030
1916.00,0.0030
1915.00,0.0030
1914.00,0.0030
1913.00,0.0031
1912.00,0.0031
1911.00,0.0032
1910.00,0.0031
1909.00,0.0031
1908.00,0.0031
1907.00,0.0031
1906.00,0.0030
1905.00,0.0030
1904.00,0.0031
1903.00,0.0031
1902.00,0.0030
1901.00,0.0030
1900.00,0.0030
1899.00,0.0030
1898.00,0.0030
1897.00,0.0031
1896.00,0.0031
1895.00,0.0031
1894.00,0.0031
1893.00,0.0030
1892.00,0.0031
1891.00,0.0031
1890.00,0.0030
1889.00,0.0030
1888.00,0.0030
1887.00,0.0030
1886.00,0.0030
1885.00,0.0031
1884.00,0.0031
1883.00,0.0030
1882.00,0.0029
1881.00,0.0028
1880.00,0.0029
1879.00,0.0029
1878.00,0.0030
1877.00,0.0031
1876.00,0.0031
1875.00,0.0031
1874.00,0.0031
1873.00,0.0030
1872.00,0.0030
1871.00,0.0030
1870.00,0.0030
1869.00,0.0030
1868.00,0.0030
1867.00,0.0029
1866.00,0.0029
1865.00,0.0029
1864.00,0.0029
1863.00,0.0029
1862.00,0.0029
1861.00,0.0029
1860.00,0.0029
1859.00,0.0028
1858.00,0.0028
1857.00,0.0028
1856.00,0.0028
1855.00,0.0027
1854.00,0.0027
1853.00,0.0027
1852.00,0.0027
1851.00,0.0027
1850.00,0.0027
1849.00,0.0028
1848.00,0.0028
1847.00,0.0028
1846.00,0.0028
1845.00,0.0028
1844.00,0.0027
1843.00,0.0027
1842.00,0.0027
1841.00,0.0028
1840.00,0.0028
1839.00,0.0028
1838.00,0.0028
1837.00,0.0028
1836.00,0.0027
1835.00,0.0027
1834.00,0.0027
1833.00,0.0028
1832.00,0.0029
1831.00,0.0030
1830.00,0.0030
1829.00,0.0028
1828.00,0.0028
1827.00,0.0028
1826.00,0.0028
1825.00,0.0028
1824.00,0.0027
1823.00,0.0027
1822.00,0.0027
1821.00,0.0027
1820.00,0.0027
1819.00,0.0027
1818.00,0.0026
1817.00,0.0026
1816.00,0.0026
1815.00,0.0027
1814.00,0.0027
1813.00,0.0028
1812.00,0.0029
1811.00,0.0029
1810.00,0.0028
1809.00,0.0027
1808.00,0.0026
1807.00,0.0026
1806.00,0.0027
1805.00,0.0027
1804.00,0.0028
1803.00,0.0028
1802.00,0.0028
1801.00,0.0028
1800.00,0.0028
1799.00,0.0028
1798.00,0.0028
1797.00,0.0028
1796.00,0.0029
1795.00,0.0029
1794.00,0.0029
1793.00,0.0028
1792.00,0.0028
1791.00,0.0027
1790.00,0.0026
1789.00,0.0026
1788.00,0.0027
1787.00,0.0027
1786.00,0.0027
1785.00,0.0028
1784.00,0.0028
1783.00,0.0029
1782.00,0.0029
1781.00,0.0030
1780.00,0.0029
1779.00,0.0029
1778.00,0.0029
1777.00,0.0030
1776.00,0.0031
1775.00,0.0032
1774.00,0.0033
1773.00,0.0033
1772.00,0.0032
1771.00,0.0030
1770.00,0.0030
1769.00,0.0030
1768.00,0.0030
1767.00,0.0031
1766.00,0.0031
1765.00,0.0033
1764.00,0.0034
1763.00,0.0035
1762.00,0.0035
1761.00,0.0035
1760.00,0.0036
1759.00,0.0038
1758.00,0.0039
1757.00,0.0040
1756.00,0.0041
1755.00,0.0042
1754.00,0.0044
1753.00,0.0047
1752.00,0.0050
1751.00,0.0053
1750.00,0.0056
1749.00,0.0059
1748.00,0.0062
1747.00,0.0063
1746.00,0.0065
1745.00,0.0067
1744.00,0.0070
1743.00,0.0071
1742.00,0.0073
1741.00,0.0074
1740.00,0.0076
1739.00,0.0077
1738.00,0.0077
1737.00,0.0078
1736.00,0.0080
1735.00,0.0081
1734.00,0.0081
1733.00,0.0082
1732.00,0.0085
1731.00,0.0088
1730.00,0.0089
1729.00,0.0090
1728.00,0.0092
1727.00,0.0093
1726.00,0.0095
1725.00,0.0097
1724.00,0.0100
1723.00,0.0102
1722.00,0.0103
1721.00,0.0106
1720.00,0.0110
1719.00,0.0114
1718.00,0.0118
1717.00,0.0122
1716.00,0.0127
1715.00,0.0131
1714.00,0.0136
1713.00,0.0141
1712.00,0.0148
1711.00,0.0155
1710.00,0.0163
1709.00,0.0172
1708.00,0.0183
1707.00,0.0195
1706.00,0.0210
1705.00,0.0225
1704.00,0.0239
1703.00,0.0251
1702.00,0.0266
1701.00,0.0291
1700.00,0.0323
1699.00,0.0351
1698.00,0.0371
1697.00,0.0389
1696.00,0.0410
1695.00,0.0431
1694.00,0.0448
1693.00,0.0461
1692.00,0.0472
1691.00,0.0485
1690.00,0.0499
1689.00,0.0514
1688.00,0.0525
1687.00,0.0535
1686.00,0.0547
1685.00,0.0568
1684.00,0.0595
1683.00,0.0618
1682.00,0.0634
1681.00,0.0647
1680.00,0.0659
1679.00,0.0671
1678.00,0.0682
1677.00,0.0694
1676.00,0.0712
1675.00,0.0735
1674.00,0.0755
1673.00,0.0770
1672.00,0.0783
1671.00,0.0799
1670.00,0.0819
1669.00,0.0842
1668.00,0.0863
1667.00,0.0878
1666.00,0.0889
1665.00,0.0900
1664.00,0.0916
1663.00,0.0938
1662.00,0.0961
1661.00,0.0981
1660.00,0.0997
1659.00,0.1010
1658.00,0.1021
1657.00,0.1028
1656.00,0.1031
1655.00,0.1038
1654.00,0.1060
1653.00,0.1100
1652.00,0.1135
1651.00,0.1148
1650.00,0.1146
1649.00,0.1143
1648.00,0.1147
1647.00,0.1162
1646.00,0.1179
1645.00,0.1192
1644.00,0.1199
1643.00,0.1201
1642.00,0.1203
1641.00,0.1207
1640.00,0.1212
1639.00,0.1216
1638.00,0.1219
1637.00,0.1228
1636.00,0.1250
1635.00,0.1276
1634.00,0.1296
1633.00,0.1305
1632.00,0.1309
1631.00,0.1312
1630.00,0.1318
1629.00,0.1327
1628.00,0.1337
1627.00,0.1344
1626.00,0.1344
1625.00,0.1340
1624.00,0.1336
1623.00,0.1331
1622.00,0.1320
1621.00,0.1301
1620.00,0.1274
1619.00,0.1244
1618.00,0.1214
1617.00,0.1186
1616.00,0.1159
1615.00,0.1131
1614.00,0.1099
1613.00,0.1064
1612.00,0.1029
1611.00,0.0995
1610.00,0.0964
1609.00,0.0933
1608.00,0.0903
1607.00,0.0876
1606.00,0.0850
1605.00,0.0826
1604.00,0.0803
1603.00,0.0783
1602.00,0.0765
1601.00,0.0748
1600.00,0.0732
1599.00,0.0717
1598.00,0.0704
1597.00,0.0693
1596.00,0.0681
1595.00,0.0671
1594.00,0.0662
1593.00,0.0654
1592.00,0.0645
1591.00,0.0638
1590.00,0.0632
1589.00,0.0626
1588.00,0.0621
1587.00,0.0617
1586.00,0.0615
1585.00,0.0613
1584.00,0.0612
1583.00,0.0612
1582.00,0.0613
1581.00,0.0614
1580.00,0.0614
1579.00,0.0614
1578.00,0.0617
1577.00,0.0623
1576.00,0.0633
1575.00,0.0643
1574.00,0.0650
1573.00,0.0653
1572.00,0.0656
1571.00,0.0662
1570.00,0.0674
1569.00,0.0688
1568.00,0.0698
1567.00,0.0706
1566.00,0.0715
1565.00,0.0725
1564.00,0.0734
1563.00,0.0739
1562.00,0.0741
1561.00,0.0745
1560.00,0.0763
1559.00,0.0797
1558.00,0.0828
1557.00,0.0845
1556.00,0.0853
1555.00,0.0862
1554.00,0.0875
1553.00,0.0889
1552.00,0.0902
1551.00,0.0915
1550.00,0.0931
1549.00,0.0945
1548.00,0.0957
1547.00,0.0966
1546.00,0.0976
1545.00,0.0989
1544.00,0.1002
1543.00,0.1014
1542.00,0.1026
1541.00,0.1044
1540.00,0.1068
1539.00,0.1091
1538.00,0.1104
1537.00,0.1107
1536.00,0.1104
1535.00,0.1106
1534.00,0.1117
1533.00,0.1132
1532.00,0.1144
1531.00,0.1149
1530.00,0.1150
1529.00,0.1152
1528.00,0.1156
1527.00,0.1162
1526.00,0.1169
1525.00,0.1173
1524.00,0.1174
1523.00,0.1176
1522.00,0.1185
1521.00,0.1200
1520.00,0.1212
1519.00,0.1217
1518.00,0.1220
1517.00,0.1226
1516.00,0.1231
1515.00,0.1230
1514.00,0.1224
1513.00,0.1214
1512.00,0.1202
1511.00,0.1189
1510.00,0.1173
1509.00,0.1156
1508.00,0.1141
1507.00,0.1131
1506.00,0.1123
1505.00,0.1110
1504.00,0.1090
1503.00,0.1067
1502.00,0.1043
1501.00,0.1019
1500.00,0.0998
1499.00,0.0978
1498.00,0.0958
1497.00,0.0939
1496.00,0.0920
1495.00,0.0900
1494.00,0.0878
1493.00,0.0855
1492.00,0.0831
1491.00,0.0810
1490.00,0.0790
1489.00,0.0771
1488.00,0.0751
1487.00,0.0731
1486.00,0.0711
1485.00,0.0693
1484.00,0.0676
1483.00,0.0661
1482.00,0.0647
1481.00,0.0636
1480.00,0.0626
1479.00,0.0617
1478.00,0.0610
1477.00,0.0606
1476.00,0.0605
1475.00,0.0605
1474.00,0.0608
1473.00,0.0615
1472.00,0.0624
1471.00,0.0632
1470.00,0.0637
1469.00,0.0638
1468.00,0.0638
1467.00,0.0637
1466.00,0.0638
1465.00,0.0640
1464.00,0.0642
1463.00,0.0642
1462.00,0.0641
1461.00,0.0638
1460.00,0.0636
1459.00,0.0637
1458.00,0.0643
1457.00,0.0654
1456.00,0.0665
1455.00,0.0671
1454.00,0.0672
1453.00,0.0670
1452.00,0.0667
1451.00,0.0666
1450.00,0.0664
1449.00,0.0663
1448.00,0.0663
1447.00,0.0662
1446.00,0.0660
1445.00,0.0657
1444.00,0.0653
1443.00,0.0649
1442.00,0.0645
1441.00,0.0641
1440.00,0.0635
1439.00,0.0628
1438.00,0.0621
1437.00,0.0617
1436.00,0.0614
1435.00,0.0610
1434.00,0.0603
1433.00,0.0594
1432.00,0.0585
1431.00,0.0578
1430.00,0.0571
1429.00,0.0566
1428.00,0.0561
1427.00,0.0558
1426.00,0.0555
1425.00,0.0554
1424.00,0.0555
1423.00,0.0555
1422.00,0.0555
1421.00,0.0554
1420.00,0.0558
1419.00,0.0565
1418.00,0.0573
1417.00,0.0579
1416.00,0.0583
1415.00,0.0586
1414.00,0.0589
1413.00,0.0593
1412.00,0.0598
1411.00,0.0604
1410.00,0.0609
1409.00,0.0613
1408.00,0.0618
1407.00,0.0623
1406.00,0.0628
1405.00,0.0635
1404.00,0.0641
1403.00,0.0646
1402.00,0.0650
1401.00,0.0653
1400.00,0.0658
1399.00,0.0664
1398.00,0.0670
1397.00,0.0673
1396.00,0.0676
1395.00,0.0679
1394.00,0.0683
1393.00,0.0685
1392.00,0.0686
1391.00,0.0686
1390.00,0.0685
1389.00,0.0684
1388.00,0.0684
1387.00,0.0684
1386.00,0.0683
1385.00,0.0680
1384.00,0.0674
1383.00,0.0669
1382.00,0.0663
1381.00,0.0657
1380.00,0.0651
1379.00,0.0645
1378.00,0.0639
1377.00,0.0633
1376.00,0.0627
1375.00,0.0622
1374.00,0.0617
1373.00,0.0613
1372.00,0.0609
1371.00,0.0605
1370.00,0.0602
1369.00,0.0598
1368.00,0.0593
1367.00,0.0587
1366.00,0.0580
1365.00,0.0573
1364.00,0.0565
1363.00,0.0559
1362.00,0.0552
1361.00,0.0546
1360.00,0.0541
1359.00,0.0536
1358.00,0.0531
1357.00,0.0527
1356.00,0.0524
1355.00,0.0522
1354.00,0.0520
1353.00,0.0518
1352.00,0.0516
1351.00,0.0515
1350.00,0.0513
1349.00,0.0512
1348.00,0.0512
1347.00,0.0511
1346.00,0.0511
1345.00,0.0510
1344.00,0.0510
1343.00,0.0510
1342.00,0.0509
1341.00,0.0509
1340.00,0.0508
1339.00,0.0508
1338.00,0.0507
1337.00,0.0505
1336.00,0.0504
1335.00,0.0502
1334.00,0.0500
1333.00,0.0498
1332.00,0.0497
1331.00,0.0496
1330.00,0.0495
1329.00,0.0494
1328.00,0.0494
1327.00,0.0494
1326.00,0.0494
1325.00,0.0494
1324.00,0.0495
1323.00,0.0496
1322.00,0.0497
1321.00,0.0499
1320.00,0.0500
1319.00,0.0502
1318.00,0.0504
1317.00,0.0506
1316.00,0.0507
1315.00,0.0509
1314.00,0.0511
1313.00,0.0512
1312.00,0.0513
1311.00,0.0513
1310.00,0.0513
1309.00,0.0513
1308.00,0.0513
1307.00,0.0513
1306.00,0.0513
1305.00,0.0513
1304.00,0.0513
1303.00,0.0512
1302.00,0.0512
1301.00,0.0512
1300.00,0.0512
1299.00,0.0512
1298.00,0.0512
1297.00,0.0512
1296.00,0.0512
1295.00,0.0513
1294.00,0.0514
1293.00,0.0515
1292.00,0.0516
1291.00,0.0518
1290.00,0.0519
1289.00,0.0521
1288.00,0.0522
1287.00,0.0524
1286.00,0.0525
1285.00,0.0526
1284.00,0.0527
1283.00,0.0528
1282.00,0.0529
1281.00,0.0529
1280.00,0.0530
1279.00,0.0531
1278.00,0.0531
1277.00,0.0531
1276.00,0.0531
1275.00,0.0531
1274.00,0.0532
1273.00,0.0533
1272.00,0.0534
1271.00,0.0536
1270.00,0.0538
1269.00,0.0539
1268.00,0.0541
1267.00,0.0544
1266.00,0.0547
1265.00,0.0551
1264.00,0.0555
1263.00,0.0560
1262.00,0.0565
1261.00,0.0571
1260.00,0.0576
1259.00,0.0582
1258.00,0.0589
1257.00,0.0594
1256.00,0.0600
1255.00,0.0607
1254.00,0.0613
1253.00,0.0619
1252.00,0.0625
1251.00,0.0632
1250.00,0.0638
1249.00,0.0644
1248.00,0.0650
1247.00,0.0656
1246.00,0.0662
1245.00,0.0667
1244.00,0.0672
1243.00,0.0677
1242.00,0.0682
1241.00,0.0686
1240.00,0.0690
1239.00,0.0694
1238.00,0.0698
1237.00,0.0701
1236.00,0.0704
1235.00,0.0706
1234.00,0.0709
1233.00,0.0710
1232.00,0.0711
1231.00,0.0712
1230.00,0.0712
1229.00,0.0712
1228.00,0.0711
1227.00,0.0710
1226.00,0.0708
1225.00,0.0706
1224.00,0.0703
1223.00,0.0700
1222.00,0.0696
1221.00,0.0692
1220.00,0.0687
1219.00,0.0683
1218.00,0.0677
1217.00,0.0671
1216.00,0.0664
1215.00,0.0657
1214.00,0.0650
1213.00,0.0643
1212.00,0.0635
1211.00,0.0627
1210.00,0.0618
1209.00,0.0609
1208.00,0.0601
1207.00,0.0593
1206.00,0.0584
1205.00,0.0576
1204.00,0.0567
1203.00,0.0559
1202.00,0.0551
1201.00,0.0543
1200.00,0.0536
1199.00,0.0529
1198.00,0.0522
1197.00,0.0516
1196.00,0.0510
1195.00,0.0505
1194.00,0.0500
1193.00,0.0495
1192.00,0.0491
1191.00,0.0487
1190.00,0.0483
1189.00,0.0480
1188.00,0.0477
1187.00,0.0474
1186.00,0.0471
1185.00,0.0469
1184.00,0.0467
1183.00,0.0465
1182.00,0.0463
1181.00,0.0462
1180.00,0.0462
1179.00,0.0462
1178.00,0.0463
1177.00,0.0465
1176.00,0.0467
1175.00,0.0470
1174.00,0.0474
1173.00,0.0477
1172.00,0.0480
1171.00,0.0483
1170.00,0.0485
1169.00,0.0487
1168.00,0.0488
1167.00,0.0491
1166.00,0.0493
1165.00,0.0496
1164.00,0.0499
1163.00,0.0501
1162.00,0.0504
1161.00,0.0506
1160.00,0.0507
1159.00,0.0508
1158.00,0.0509
1157.00,0.0509
1156.00,0.0508
1155.00,0.0508
1154.00,0.0506
1153.00,0.0504
1152.00,0.0501
1151.00,0.0498
1150.00,0.0495
1149.00,0.0492
1148.00,0.0488
1147.00,0.0485
1146.00,0.0482
1145.00,0.0478
1144.00,0.0475
1143.00,0.0473
1142.00,0.0471
1141.00,0.0469
1140.00,0.0468
1139.00,0.0468
1138.00,0.0468
1137.00,0.0469
1136.00,0.0471
1135.00,0.0475
1134.00,0.0479
1133.00,0.0483
1132.00,0.0488
1131.00,0.0493
1130.00,0.0497
1129.00,0.0500
1128.00,0.0502
1127.00,0.0504
1126.00,0.0506
1125.00,0.0507
1124.00,0.0508
1123.00,0.0509
1122.00,0.0510
1121.00,0.0510
1120.00,0.0511
1119.00,0.0512
1118.00,0.0513
1117.00,0.0514
1116.00,0.0516
1115.00,0.0517
1114.00,0.0520
1113.00,0.0522
1112.00,0.0524
1111.00,0.0527
1110.00,0.0530
1109.00,0.0533
1108.00,0.0536
1107.00,0.0540
1106.00,0.0543
1105.00,0.0546
1104.00,0.0549
1103.00,0.0552
1102.00,0.0555
1101.00,0.0558
1100.00,0.0562
1099.00,0.0565
1098.00,0.0569
1097.00,0.0573
1096.00,0.0578
1095.00,0.0583
1094.00,0.0588
1093.00,0.0594
1092.00,0.0600
1091.00,0.0607
1090.00,0.0614
1089.00,0.0621
1088.00,0.0628
1087.00,0.0635
1086.00,0.0642
1085.00,0.0649
1084.00,0.0656
1083.00,0.0663
1082.00,0.0670
1081.00,0.0676
1080.00,0.0682
1079.00,0.0686
1078.00,0.0690
1077.00,0.0692
1076.00,0.0694
1075.00,0.0696
1074.00,0.0698
1073.00,0.0699
1072.00,0.0699
1071.00,0.0699
1070.00,0.0699
1069.00,0.0698
1068.00,0.0698
1067.00,0.0697
1066.00,0.0697
1065.00,0.0697
1064.00,0.0697
1063.00,0.0696
1062.00,0.0695
1061.00,0.0695
1060.00,0.0694
1059.00,0.0692
1058.00,0.0690
1057.00,0.0688
1056.00,0.0686
1055.00,0.0684
1054.00,0.0681
1053.00,0.0679
1052.00,0.0676
1051.00,0.0672
1050.00,0.0669
1049.00,0.0665
1048.00,0.0662
1047.00,0.0659
1046.00,0.0655
1045.00,0.0651
1044.00,0.0648
1043.00,0.0644
1042.00,0.0641
1041.00,0.0638
1040.00,0.0635
1039.00,0.0632
1038.00,0.0629
1037.00,0.0627
1036.00,0.0624
1035.00,0.0622
1034.00,0.0619
1033.00,0.0618
1032.00,0.0616
1031.00,0.0614
1030.00,0.0612
1029.00,0.0609
1028.00,0.0606
1027.00,0.0602
1026.00,0.0597
1025.00,0.0592
1024.00,0.0587
1023.00,0.0581
1022.00,0.0575
1021.00,0.0569
1020.00,0.0563
1019.00,0.0557
1018.00,0.0550
1017.00,0.0543
1016.00,0.0537
1015.00,0.0531
1014.00,0.0524
1013.00,0.0518
1012.00,0.0512
1011.00,0.0506
1010.00,0.0499
1009.00,0.0493
1008.00,0.0486
1007.00,0.0480
1006.00,0.0474
1005.00,0.0467
1004.00,0.0462
1003.00,0.0456
1002.00,0.0451
1001.00,0.0446
1000.00,0.0442
999.00,0.0438
998.00,0.0434
997.00,0.0429
996.00,0.0425
995.00,0.0421
994.00,0.0417
993.00,0.0412
992.00,0.0408
991.00,0.0403
990.00,0.0399
989.00,0.0394
988.00,0.0389
987.00,0.0385
986.00,0.0381
985.00,0.0377
984.00,0.0373
983.00,0.0370
982.00,0.0368
981.00,0.0366
980.00,0.0364
979.00,0.0363
978.00,0.0363
977.00,0.0363
976.00,0.0363
975.00,0.0363
974.00,0.0364
973.00,0.0365
972.00,0.0366
971.00,0.0367
970.00,0.0368
969.00,0.0368
968.00,0.0369
967.00,0.0370
966.00,0.0371
965.00,0.0372
964.00,0.0373
963.00,0.0374
962.00,0.0376
961.00,0.0378
960.00,0.0381
959.00,0.0384
958.00,0.0389
957.00,0.0394
956.00,0.0399
955.00,0.0405
954.00,0.0410
953.00,0.0415
952.00,0.0418
951.00,0.0420
950.00,0.0421
949.00,0.0419
948.00,0.0417
947.00,0.0414
946.00,0.0410
945.00,0.0406
944.00,0.0401
943.00,0.0397
942.00,0.0394
941.00,0.0391
940.00,0.0389
939.00,0.0388
938.00,0.0386
937.00,0.0385
936.00,0.0385
935.00,0.0384
934.00,0.0384
933.00,0.0383
932.00,0.0381
931.00,0.0380
930.00,0.0378
929.00,0.0376
928.00,0.0374
927.00,0.0372
926.00,0.0371
925.00,0.0369
924.00,0.0367
923.00,0.0366
922.00,0.0364
921.00,0.0363
920.00,0.0361
919.00,0.0359
918.00,0.0357
917.00,0.0355
916.00,0.0353
915.00,0.0351
914.00,0.0349
913.00,0.0348
912.00,0.0346
911.00,0.0344
910.00,0.0342
909.00,0.0340
908.00,0.0338
907.00,0.0337
906.00,0.0336
905.00,0.0335
904.00,0.0334
903.00,0.0333
902.00,0.0332
901.00,0.0331
900.00,0.0330
899.00,0.0330
898.00,0.0330
897.00,0.0330
896.00,0.0329
895.00,0.0329
894.00,0.0329
893.00,0.0329
892.00,0.0329
891.00,0.0329
890.00,0.0329
889.00,0.0329
888.00,0.0330
887.00,0.0331
886.00,0.0331
885.00,0.0331
884.00,0.0331
883.00,0.0331
882.00,0.0330
881.00,0.0330
880.00,0.0329
879.00,0.0329
878.00,0.0329
877.00,0.0328
876.00,0.0328
875.00,0.0327
874.00,0.0327
873.00,0.0326
872.00,0.0326
871.00,0.0326
870.00,0.0326
869.00,0.0326
868.00,0.0326
867.00,0.0327
866.00,0.0327
865.00,0.0328
864.00,0.0329
863.00,0.0330
862.00,0.0331
861.00,0.0333
860.00,0.0334
859.00,0.0337
858.00,0.0339
857.00,0.0341
856.00,0.0344
855.00,0.0346
854.00,0.0348
853.00,0.0350
852.00,0.0352
851.00,0.0353
850.00,0.0354
849.00,0.0355
848.00,0.0356
847.00,0.0356
846.00,0.0357
845.00,0.0358
844.00,0.0359
843.00,0.0361
842.00,0.0363
841.00,0.0365
840.00,0.0368
839.00,0.0370
838.00,0.0373
837.00,0.0376
836.00,0.0379
835.00,0.0382
834.00,0.0386
833.00,0.0389
832.00,0.0392
831.00,0.0395
830.00,0.0397
829.00,0.0399
828.00,0.0401
827.00,0.0402
826.00,0.0403
825.00,0.0404
824.00,0.0405
823.00,0.0406
822.00,0.0408
821.00,0.0411
820.00,0.0415
819.00,0.0418
818.00,0.0422
817.00,0.0425
816.00,0.0427
815.00,0.0428
814.00,0.0428
813.00,0.0428
812.00,0.0428
811.00,0.0427
810.00,0.0426
809.00,0.0426
808.00,0.0425
807.00,0.0425
806.00,0.0425
805.00,0.0426
804.00,0.0427
803.00,0.0428
802.00,0.0430
801.00,0.0432
800.00,0.0434
799.00,0.0436
798.00,0.0438
797.00,0.0440
796.00,0.0442
795.00,0.0444
794.00,0.0446
793.00,0.0449
792.00,0.0452
791.00,0.0456
790.00,0.0460
789.00,0.0464
788.00,0.0467
787.00,0.0471
786.00,0.0475
785.00,0.0478
784.00,0.0481
783.00,0.0484
782.00,0.0487
781.00,0.0489
780.00,0.0491
779.00,0.0493
778.00,0.0495
777.00,0.0496
776.00,0.0497
775.00,0.0498
774.00,0.0499
773.00,0.0500
772.00,0.0501
771.00,0.0503
770.00,0.0505
769.00,0.0507
768.00,0.0509
767.00,0.0511
766.00,0.0513
765.00,0.0515
764.00,0.0517
763.00,0.0518
762.00,0.0520
761.00,0.0522
760.00,0.0524
759.00,0.0527
758.00,0.0529
757.00,0.0532
756.00,0.0534
755.00,0.0537
754.00,0.0540
753.00,0.0543
752.00,0.0546
751.00,0.0550
750.00,0.0554
749.00,0.0558
748.00,0.0562
747.00,0.0566
746.00,0.0569
745.00,0.0572
744.00,0.0575
743.00,0.0577
742.00,0.0580
741.00,0.0582
740.00,0.0584
739.00,0.0586
738.00,0.0587
737.00,0.0590
736.00,0.0592
735.00,0.0594
734.00,0.0597
733.00,0.0600
732.00,0.0603
731.00,0.0607
730.00,0.0611
729.00,0.0615
728.00,0.0620
727.00,0.0625
726.00,0.0631
725.00,0.0637
724.00,0.0643
723.00,0.0649
722.00,0.0655
721.00,0.0661
720.00,0.0668
719.00,0.0674
718.00,0.0679
717.00,0.0683
716.00,0.0688
715.00,0.0692
714.00,0.0697
713.00,0.0703
712.00,0.0709
711.00,0.0715
710.00,0.0722
709.00,0.0728
708.00,0.0735
707.00,0.0742
706.00,0.0750
705.00,0.0758
704.00,0.0766
703.00,0.0774
702.00,0.0781
701.00,0.0788
700.00,0.0793
699.00,0.0797
698.00,0.0800
697.00,0.0802
696.00,0.0803
695.00,0.0803
694.00,0.0802
693.00,0.0802
692.00,0.0802
691.00,0.0802
690.00,0.0803
689.00,0.0804
688.00,0.0805
687.00,0.0806
686.00,0.0808
685.00,0.0809
684.00,0.0811
683.00,0.0814
682.00,0.0815
681.00,0.0817
680.00,0.0819
679.00,0.0822
678.00,0.0824
677.00,0.0826
676.00,0.0828
675.00,0.0830
674.00,0.0832
673.00,0.0834
672.00,0.0835
671.00,0.0836
670.00,0.0838
669.00,0.0844
668.00,0.0854
667.00,0.0862
666.00,0.0863
665.00,0.0861
664.00,0.0860
663.00,0.0861
662.00,0.0863
661.00,0.0865
660.00,0.0868
659.00,0.0870
658.00,0.0872
657.00,0.0873
656.00,0.0874
655.00,0.0876
654.00,0.0877
653.00,0.0878
652.00,0.0880
651.00,0.0882
650.00,0.0884
649.00,0.0886
648.00,0.0888
647.00,0.0890
646.00,0.0891
645.00,0.0892
644.00,0.0893
643.00,0.0895
642.00,0.0897
641.00,0.0898
640.00,0.0900
639.00,0.0902
638.00,0.0903
637.00,0.0905
636.00,0.0907
635.00,0.0910
634.00,0.0912
633.00,0.0914
632.00,0.0916
631.00,0.0918
630.00,0.0920
629.00,0.0922
628.00,0.0924
627.00,0.0927
626.00,0.0930
625.00,0.0933
624.00,0.0936
623.00,0.0938
622.00,0.0940
621.00,0.0941
620.00,0.0942
619.00,0.0943
618.00,0.0944
617.00,0.0945
616.00,0.0946
615.00,0.0947
614.00,0.0948
613.00,0.0948
612.00,0.0949
611.00,0.0949
610.00,0.0950
609.00,0.0951
608.00,0.0952
607.00,0.0952
606.00,0.0953
605.00,0.0954
604.00,0.0954
603.00,0.0954
602.00,0.0954
601.00,0.0955
600.00,0.0956
599.00,0.0958
598.00,0.0960
597.00,0.0962
596.00,0.0964
595.00,0.0966
594.00,0.0968
593.00,0.0969
592.00,0.0970
591.00,0.0972
590.00,0.0974
589.00,0.0977
588.00,0.0979
587.00,0.0981
586.00,0.0983
585.00,0.0984
584.00,0.0986
583.00,0.0988
582.00,0.0990
581.00,0.0992
580.00,0.0995
579.00,0.0997
578.00,0.0998
577.00,0.0999
576.00,0.1000
575.00,0.1002
574.00,0.1004
573.00,0.1006
572.00,0.1009
571.00,0.1011
570.00,0.1013
569.00,0.1015
568.00,0.1016
567.00,0.1017
566.00,0.1019
565.00,0.1021
564.00,0.1024
563.00,0.1027
562.00,0.1030
561.00,0.1032
560.00,0.1034
559.00,0.1035
558.00,0.1036
557.00,0.1037
556.00,0.1039
555.00,0.1041
554.00,0.1043
553.00,0.1045
552.00,0.1047
551.00,0.1048
550.00,0.1049
549.00,0.1050
548.00,0.1052
547.00,0.1054
546.00,0.1055
545.00,0.1057
544.00,0.1059
543.00,0.1060
542.00,0.1061
541.00,0.1062
540.00,0.1064
539.00,0.1066
538.00,0.1067
537.00,0.1067
536.00,0.1067
535.00,0.1067
534.00,0.1067
533.00,0.1068
532.00,0.1070
531.00,0.1072
530.00,0.1074
529.00,0.1075
528.00,0.1075
527.00,0.1076
526.00,0.1077
525.00,0.1077
524.00,0.1078
523.00,0.1079
522.00,0.1079
521.00,0.1079
520.00,0.1080
519.00,0.1082
518.00,0.1083
517.00,0.1083
516.00,0.1083
515.00,0.1082
514.00,0.1080
513.00,0.1077
512.00,0.1076
511.00,0.1074
510.00,0.1073
509.00,0.1073
508.00,0.1073
507.00,0.1073
506.00,0.1071
505.00,0.1068
504.00,0.1062
503.00,0.1057
502.00,0.1055
501.00,0.1057
500.00,0.1061
499.00,0.1063
498.00,0.1063
497.00,0.1062
496.00,0.1061
495.00,0.1060
494.00,0.1059
493.00,0.1059
492.00,0.1059
491.00,0.1059
490.00,0.1057
489.00,0.1055
488.00,0.1054
487.00,0.1054
486.00,0.1053
485.00,0.1052
484.00,0.1050
483.00,0.1048
482.00,0.1045
481.00,0.1041
480.00,0.1038
479.00,0.1036
478.00,0.1034
477.00,0.1034
476.00,0.1034
475.00,0.1034
474.00,0.1033
473.00,0.1032
472.00,0.1032
471.00,0.1032
470.00,0.1032
469.00,0.1033
468.00,0.1035
467.00,0.1035
466.00,0.1034
465.00,0.1031
464.00,0.1029
463.00,0.1027
462.00,0.1024
461.00,0.1021
460.00,0.1019
459.00,0.1018
458.00,0.1018
457.00,0.1020
456.00,0.1021
455.00,0.1019
454.00,0.1014
453.00,0.1009
452.00,0.1006
451.00,0.1004
450.00,0.1001
449.00,0.0997
448.00,0.0993
447.00,0.0990
446.00,0.0987
445.00,0.0987
444.00,0.0989
443.00,0.0990
442.00,0.0988
441.00,0.0984
440.00,0.0980
439.00,0.0977
438.00,0.0976
437.00,0.0976
436.00,0.0977
435.00,0.0978
434.00,0.0977
433.00,0.0977
432.00,0.0979
431.00,0.0981
430.00,0.0981
429.00,0.0979
428.00,0.0976
427.00,0.0973
426.00,0.0972
425.00,0.0971
424.00,0.0973
423.00,0.0973
422.00,0.0969
421.00,0.0963
420.00,0.0956
419.00,0.0950
418.00,0.0947
417.00,0.0948
416.00,0.0951
415.00,0.0952
414.00,0.0950
413.00,0.0947
412.00,0.0947
411.00,0.0946
410.00,0.0944
409.00,0.0941
408.00,0.0938
407.00,0.0936
406.00,0.0930
405.00,0.0923
404.00,0.0917
403.00,0.0914
402.00,0.0913
401.00,0.0912
400.00,0.0911
