Created as New Dataset,Sample 194 By YargerLab Date Sunday, June 09 2024
cm-1,A
4000.00,0.0116
3999.00,0.0116
3998.00,0.0116
3997.00,0.0116
3996.00,0.0116
3995.00,0.0116
3994.00,0.0116
3993.00,0.0116
3992.00,0.0116
3991.00,0.0116
3990.00,0.0116
3989.00,0.0116
3988.00,0.0116
3987.00,0.0116
3986.00,0.0116
3985.00,0.0115
3984.00,0.0115
3983.00,0.0115
3982.00,0.0115
3981.00,0.0115
3980.00,0.0115
3979.00,0.0115
3978.00,0.0115
3977.00,0.0115
3976.00,0.0115
3975.00,0.0115
3974.00,0.0115
3973.00,0.0115
3972.00,0.0115
3971.00,0.0115
3970.00,0.0115
3969.00,0.0115
3968.00,0.0115
3967.00,0.0115
3966.00,0.0115
3965.00,0.0115
3964.00,0.0115
3963.00,0.0115
3962.00,0.0115
3961.00,0.0115
3960.00,0.0115
3959.00,0.0115
3958.00,0.0115
3957.00,0.0115
3956.00,0.0115
3955.00,0.0115
3954.00,0.0115
3953.00,0.0115
3952.00,0.0114
3951.00,0.0114
3950.00,0.0114
3949.00,0.0114
3948.00,0.0113
3947.00,0.0113
3946.00,0.0113
3945.00,0.0113
3944.00,0.0113
3943.00,0.0114
3942.00,0.0114
3941.00,0.0114
3940.00,0.0114
3939.00,0.0114
3938.00,0.0113
3937.00,0.0113
3936.00,0.0113
3935.00,0.0112
3934.00,0.0112
3933.00,0.0112
3932.00,0.0112
3931.00,0.0113
3930.00,0.0113
3929.00,0.0113
3928.00,0.0113
3927.00,0.0113
3926.00,0.0113
3925.00,0.0113
3924.00,0.0113
3923.00,0.0113
3922.00,0.0112
3921.00,0.0111
3920.00,0.0111
3919.00,0.0111
3918.00,0.0111
3917.00,0.0111
3916.00,0.0112
3915.00,0.0112
3914.00,0.0112
3913.00,0.0113
3912.00,0.0113
3911.00,0.0113
3910.00,0.0113
3909.00,0.0113
3908.00,0.0113
3907.00,0.0112
3906.00,0.0112
3905.00,0.0111
3904.00,0.0109
3903.00,0.0107
3902.00,0.0106
3901.00,0.0106
3900.00,0.0107
3899.00,0.0108
3898.00,0.0109
3897.00,0.0110
3896.00,0.0110
3895.00,0.0110
3894.00,0.0110
3893.00,0.0110
3892.00,0.0111
3891.00,0.0111
3890.00,0.0110
3889.00,0.0110
3888.00,0.0108
3887.00,0.0107
3886.00,0.0108
3885.00,0.0108
3884.00,0.0109
3883.00,0.0108
3882.00,0.0108
3881.00,0.0108
3880.00,0.0109
3879.00,0.0109
3878.00,0.0108
3877.00,0.0108
3876.00,0.0107
3875.00,0.0108
3874.00,0.0109
3873.00,0.0109
3872.00,0.0108
3871.00,0.0107
3870.00,0.0106
3869.00,0.0107
3868.00,0.0107
3867.00,0.0106
3866.00,0.0105
3865.00,0.0105
3864.00,0.0106
3863.00,0.0107
3862.00,0.0106
3861.00,0.0106
3860.00,0.0106
3859.00,0.0107
3858.00,0.0109
3857.00,0.0111
3856.00,0.0111
3855.00,0.0111
3854.00,0.0110
3853.00,0.0109
3852.00,0.0108
3851.00,0.0107
3850.00,0.0106
3849.00,0.0106
3848.00,0.0106
3847.00,0.0106
3846.00,0.0106
3845.00,0.0106
3844.00,0.0106
3843.00,0.0105
3842.00,0.0105
3841.00,0.0105
3840.00,0.0104
3839.00,0.0104
3838.00,0.0105
3837.00,0.0105
3836.00,0.0105
3835.00,0.0105
3834.00,0.0105
3833.00,0.0105
3832.00,0.0105
3831.00,0.0105
3830.00,0.0105
3829.00,0.0105
3828.00,0.0105
3827.00,0.0105
3826.00,0.0106
3825.00,0.0105
3824.00,0.0104
3823.00,0.0103
3822.00,0.0103
3821.00,0.0104
3820.00,0.0104
3819.00,0.0104
3818.00,0.0103
3817.00,0.0103
3816.00,0.0104
3815.00,0.0106
3814.00,0.0107
3813.00,0.0107
3812.00,0.0107
3811.00,0.0107
3810.00,0.0107
3809.00,0.0107
3808.00,0.0106
3807.00,0.0106
3806.00,0.0106
3805.00,0.0105
3804.00,0.0103
3803.00,0.0103
3802.00,0.0103
3801.00,0.0104
3800.00,0.0105
3799.00,0.0104
3798.00,0.0103
3797.00,0.0104
3796.00,0.0104
3795.00,0.0105
3794.00,0.0106
3793.00,0.0107
3792.00,0.0107
3791.00,0.0108
3790.00,0.0108
3789.00,0.0108
3788.00,0.0108
3787.00,0.0108
3786.00,0.0108
3785.00,0.0107
3784.00,0.0107
3783.00,0.0106
3782.00,0.0106
3781.00,0.0105
3780.00,0.0105
3779.00,0.0106
3778.00,0.0106
3777.00,0.0106
3776.00,0.0106
3775.00,0.0106
3774.00,0.0107
3773.00,0.0107
3772.00,0.0106
3771.00,0.0105
3770.00,0.0105
3769.00,0.0104
3768.00,0.0104
3767.00,0.0103
3766.00,0.0103
3765.00,0.0103
3764.00,0.0104
3763.00,0.0103
3762.00,0.0103
3761.00,0.0102
3760.00,0.0102
3759.00,0.0102
3758.00,0.0102
3757.00,0.0101
3756.00,0.0101
3755.00,0.0100
3754.00,0.0099
3753.00,0.0099
3752.00,0.0098
3751.00,0.0097
3750.00,0.0096
3749.00,0.0096
3748.00,0.0096
3747.00,0.0096
3746.00,0.0095
3745.00,0.0095
3744.00,0.0096
3743.00,0.0097
3742.00,0.0097
3741.00,0.0096
3740.00,0.0095
3739.00,0.0094
3738.00,0.0093
3737.00,0.0093
3736.00,0.0094
3735.00,0.0095
3734.00,0.0095
3733.00,0.0095
3732.00,0.0096
3731.00,0.0098
3730.00,0.0099
3729.00,0.0100
3728.00,0.0100
3727.00,0.0100
3726.00,0.0101
3725.00,0.0101
3724.00,0.0101
3723.00,0.0101
3722.00,0.0101
3721.00,0.0102
3720.00,0.0102
3719.00,0.0102
3718.00,0.0103
3717.00,0.0103
3716.00,0.0102
3715.00,0.0101
3714.00,0.0100
3713.00,0.0099
3712.00,0.0099
3711.00,0.0099
3710.00,0.0099
3709.00,0.0099
3708.00,0.0100
3707.00,0.0101
3706.00,0.0101
3705.00,0.0102
3704.00,0.0102
3703.00,0.0103
3702.00,0.0103
3701.00,0.0104
3700.00,0.0104
3699.00,0.0103
3698.00,0.0103
3697.00,0.0103
3696.00,0.0104
3695.00,0.0103
3694.00,0.0103
3693.00,0.0102
3692.00,0.0102
3691.00,0.0102
3690.00,0.0101
3689.00,0.0100
3688.00,0.0100
3687.00,0.0100
3686.00,0.0100
3685.00,0.0100
3684.00,0.0100
3683.00,0.0100
3682.00,0.0100
3681.00,0.0100
3680.00,0.0100
3679.00,0.0100
3678.00,0.0099
3677.00,0.0097
3676.00,0.0097
3675.00,0.0097
3674.00,0.0097
3673.00,0.0097
3672.00,0.0096
3671.00,0.0096
3670.00,0.0098
3669.00,0.0100
3668.00,0.0100
3667.00,0.0100
3666.00,0.0100
3665.00,0.0101
3664.00,0.0102
3663.00,0.0102
3662.00,0.0103
3661.00,0.0103
3660.00,0.0104
3659.00,0.0103
3658.00,0.0103
3657.00,0.0102
3656.00,0.0101
3655.00,0.0101
3654.00,0.0100
3653.00,0.0098
3652.00,0.0097
3651.00,0.0095
3650.00,0.0095
3649.00,0.0094
3648.00,0.0094
3647.00,0.0095
3646.00,0.0096
3645.00,0.0098
3644.00,0.0099
3643.00,0.0101
3642.00,0.0102
3641.00,0.0103
3640.00,0.0104
3639.00,0.0104
3638.00,0.0104
3637.00,0.0103
3636.00,0.0103
3635.00,0.0102
3634.00,0.0102
3633.00,0.0103
3632.00,0.0102
3631.00,0.0101
3630.00,0.0100
3629.00,0.0100
3628.00,0.0100
3627.00,0.0099
3626.00,0.0099
3625.00,0.0100
3624.00,0.0100
3623.00,0.0101
3622.00,0.0102
3621.00,0.0102
3620.00,0.0103
3619.00,0.0102
3618.00,0.0102
3617.00,0.0101
3616.00,0.0100
3615.00,0.0099
3614.00,0.0099
3613.00,0.0100
3612.00,0.0100
3611.00,0.0100
3610.00,0.0099
3609.00,0.0100
3608.00,0.0101
3607.00,0.0102
3606.00,0.0103
3605.00,0.0104
3604.00,0.0104
3603.00,0.0105
3602.00,0.0105
3601.00,0.0105
3600.00,0.0105
3599.00,0.0105
3598.00,0.0104
3597.00,0.0104
3596.00,0.0105
3595.00,0.0105
3594.00,0.0105
3593.00,0.0105
3592.00,0.0105
3591.00,0.0105
3590.00,0.0104
3589.00,0.0104
3588.00,0.0105
3587.00,0.0105
3586.00,0.0106
3585.00,0.0106
3584.00,0.0106
3583.00,0.0107
3582.00,0.0107
3581.00,0.0108
3580.00,0.0109
3579.00,0.0109
3578.00,0.0110
3577.00,0.0110
3576.00,0.0110
3575.00,0.0110
3574.00,0.0110
3573.00,0.0110
3572.00,0.0110
3571.00,0.0109
3570.00,0.0108
3569.00,0.0108
3568.00,0.0107
3567.00,0.0108
3566.00,0.0108
3565.00,0.0108
3564.00,0.0108
3563.00,0.0109
3562.00,0.0110
3561.00,0.0111
3560.00,0.0112
3559.00,0.0112
3558.00,0.0112
3557.00,0.0112
3556.00,0.0113
3555.00,0.0113
3554.00,0.0113
3553.00,0.0113
3552.00,0.0113
3551.00,0.0113
3550.00,0.0113
3549.00,0.0112
3548.00,0.0112
3547.00,0.0112
3546.00,0.0113
3545.00,0.0113
3544.00,0.0114
3543.00,0.0114
3542.00,0.0114
3541.00,0.0115
3540.00,0.0115
3539.00,0.0116
3538.00,0.0116
3537.00,0.0117
3536.00,0.0117
3535.00,0.0117
3534.00,0.0117
3533.00,0.0117
3532.00,0.0116
3531.00,0.0116
3530.00,0.0116
3529.00,0.0116
3528.00,0.0116
3527.00,0.0116
3526.00,0.0116
3525.00,0.0117
3524.00,0.0117
3523.00,0.0118
3522.00,0.0118
3521.00,0.0118
3520.00,0.0119
3519.00,0.0119
3518.00,0.0119
3517.00,0.0120
3516.00,0.0120
3515.00,0.0120
3514.00,0.0120
3513.00,0.0120
3512.00,0.0120
3511.00,0.0121
3510.00,0.0121
3509.00,0.0121
3508.00,0.0121
3507.00,0.0121
3506.00,0.0121
3505.00,0.0121
3504.00,0.0121
3503.00,0.0121
3502.00,0.0122
3501.00,0.0122
3500.00,0.0122
3499.00,0.0123
3498.00,0.0123
3497.00,0.0124
3496.00,0.0124
3495.00,0.0124
3494.00,0.0124
3493.00,0.0124
3492.00,0.0124
3491.00,0.0124
3490.00,0.0125
3489.00,0.0125
3488.00,0.0125
3487.00,0.0125
3486.00,0.0125
3485.00,0.0126
3484.00,0.0126
3483.00,0.0126
3482.00,0.0126
3481.00,0.0127
3480.00,0.0127
3479.00,0.0127
3478.00,0.0127
3477.00,0.0128
3476.00,0.0128
3475.00,0.0128
3474.00,0.0129
3473.00,0.0129
3472.00,0.0129
3471.00,0.0129
3470.00,0.0129
3469.00,0.0130
3468.00,0.0130
3467.00,0.0130
3466.00,0.0130
3465.00,0.0131
3464.00,0.0131
3463.00,0.0131
3462.00,0.0132
3461.00,0.0132
3460.00,0.0132
3459.00,0.0132
3458.00,0.0132
3457.00,0.0133
3456.00,0.0133
3455.00,0.0133
3454.00,0.0133
3453.00,0.0133
3452.00,0.0133
3451.00,0.0133
3450.00,0.0134
3449.00,0.0134
3448.00,0.0134
3447.00,0.0134
3446.00,0.0134
3445.00,0.0134
3444.00,0.0134
3443.00,0.0135
3442.00,0.0135
3441.00,0.0135
3440.00,0.0135
3439.00,0.0136
3438.00,0.0136
3437.00,0.0137
3436.00,0.0137
3435.00,0.0137
3434.00,0.0137
3433.00,0.0138
3432.00,0.0138
3431.00,0.0138
3430.00,0.0138
3429.00,0.0138
3428.00,0.0138
3427.00,0.0139
3426.00,0.0139
3425.00,0.0139
3424.00,0.0139
3423.00,0.0140
3422.00,0.0140
3421.00,0.0140
3420.00,0.0140
3419.00,0.0140
3418.00,0.0141
3417.00,0.0141
3416.00,0.0141
3415.00,0.0142
3414.00,0.0142
3413.00,0.0142
3412.00,0.0143
3411.00,0.0143
3410.00,0.0143
3409.00,0.0143
3408.00,0.0143
3407.00,0.0143
3406.00,0.0143
3405.00,0.0143
3404.00,0.0144
3403.00,0.0144
3402.00,0.0145
3401.00,0.0145
3400.00,0.0145
3399.00,0.0145
3398.00,0.0145
3397.00,0.0145
3396.00,0.0145
3395.00,0.0145
3394.00,0.0146
3393.00,0.0146
3392.00,0.0147
3391.00,0.0147
3390.00,0.0147
3389.00,0.0147
3388.00,0.0147
3387.00,0.0147
3386.00,0.0148
3385.00,0.0148
3384.00,0.0148
3383.00,0.0148
3382.00,0.0149
3381.00,0.0149
3380.00,0.0149
3379.00,0.0149
3378.00,0.0150
3377.00,0.0150
3376.00,0.0150
3375.00,0.0151
3374.00,0.0151
3373.00,0.0151
3372.00,0.0151
3371.00,0.0152
3370.00,0.0152
3369.00,0.0153
3368.00,0.0153
3367.00,0.0153
3366.00,0.0154
3365.00,0.0154
3364.00,0.0154
3363.00,0.0155
3362.00,0.0155
3361.00,0.0155
3360.00,0.0156
3359.00,0.0156
3358.00,0.0157
3357.00,0.0157
3356.00,0.0158
3355.00,0.0158
3354.00,0.0159
3353.00,0.0159
3352.00,0.0160
3351.00,0.0160
3350.00,0.0161
3349.00,0.0161
3348.00,0.0162
3347.00,0.0162
3346.00,0.0163
3345.00,0.0163
3344.00,0.0164
3343.00,0.0164
3342.00,0.0165
3341.00,0.0165
3340.00,0.0166
3339.00,0.0166
3338.00,0.0167
3337.00,0.0167
3336.00,0.0168
3335.00,0.0169
3334.00,0.0169
3333.00,0.0170
3332.00,0.0171
3331.00,0.0171
3330.00,0.0172
3329.00,0.0173
3328.00,0.0173
3327.00,0.0174
3326.00,0.0174
3325.00,0.0175
3324.00,0.0176
3323.00,0.0177
3322.00,0.0178
3321.00,0.0179
3320.00,0.0179
3319.00,0.0180
3318.00,0.0181
3317.00,0.0182
3316.00,0.0182
3315.00,0.0183
3314.00,0.0184
3313.00,0.0185
3312.00,0.0186
3311.00,0.0187
3310.00,0.0188
3309.00,0.0189
3308.00,0.0190
3307.00,0.0191
3306.00,0.0192
3305.00,0.0193
3304.00,0.0194
3303.00,0.0194
3302.00,0.0195
3301.00,0.0196
3300.00,0.0197
3299.00,0.0198
3298.00,0.0199
3297.00,0.0200
3296.00,0.0201
3295.00,0.0202
3294.00,0.0203
3293.00,0.0204
3292.00,0.0205
3291.00,0.0205
3290.00,0.0206
3289.00,0.0207
3288.00,0.0208
3287.00,0.0209
3286.00,0.0210
3285.00,0.0211
3284.00,0.0212
3283.00,0.0213
3282.00,0.0213
3281.00,0.0214
3280.00,0.0214
3279.00,0.0215
3278.00,0.0215
3277.00,0.0215
3276.00,0.0215
3275.00,0.0215
3274.00,0.0216
3273.00,0.0216
3272.00,0.0216
3271.00,0.0216
3270.00,0.0216
3269.00,0.0215
3268.00,0.0215
3267.00,0.0215
3266.00,0.0215
3265.00,0.0214
3264.00,0.0214
3263.00,0.0213
3262.00,0.0212
3261.00,0.0212
3260.00,0.0211
3259.00,0.0210
3258.00,0.0210
3257.00,0.0209
3256.00,0.0208
3255.00,0.0207
3254.00,0.0207
3253.00,0.0206
3252.00,0.0205
3251.00,0.0204
3250.00,0.0203
3249.00,0.0202
3248.00,0.0201
3247.00,0.0200
3246.00,0.0200
3245.00,0.0199
3244.00,0.0198
3243.00,0.0198
3242.00,0.0197
3241.00,0.0196
3240.00,0.0196
3239.00,0.0195
3238.00,0.0194
3237.00,0.0193
3236.00,0.0193
3235.00,0.0192
3234.00,0.0192
3233.00,0.0191
3232.00,0.0190
3231.00,0.0190
3230.00,0.0189
3229.00,0.0189
3228.00,0.0188
3227.00,0.0188
3226.00,0.0187
3225.00,0.0187
3224.00,0.0186
3223.00,0.0186
3222.00,0.0185
3221.00,0.0185
3220.00,0.0184
3219.00,0.0183
3218.00,0.0183
3217.00,0.0182
3216.00,0.0182
3215.00,0.0182
3214.00,0.0181
3213.00,0.0181
3212.00,0.0180
3211.00,0.0180
3210.00,0.0179
3209.00,0.0179
3208.00,0.0178
3207.00,0.0178
3206.00,0.0178
3205.00,0.0177
3204.00,0.0177
3203.00,0.0176
3202.00,0.0176
3201.00,0.0176
3200.00,0.0175
3199.00,0.0175
3198.00,0.0174
3197.00,0.0174
3196.00,0.0174
3195.00,0.0173
3194.00,0.0173
3193.00,0.0173
3192.00,0.0172
3191.00,0.0172
3190.00,0.0172
3189.00,0.0171
3188.00,0.0171
3187.00,0.0170
3186.00,0.0169
3185.00,0.0169
3184.00,0.0168
3183.00,0.0168
3182.00,0.0168
3181.00,0.0167
3180.00,0.0167
3179.00,0.0166
3178.00,0.0165
3177.00,0.0165
3176.00,0.0164
3175.00,0.0164
3174.00,0.0164
3173.00,0.0163
3172.00,0.0163
3171.00,0.0162
3170.00,0.0162
3169.00,0.0161
3168.00,0.0161
3167.00,0.0160
3166.00,0.0160
3165.00,0.0159
3164.00,0.0159
3163.00,0.0159
3162.00,0.0158
3161.00,0.0158
3160.00,0.0158
3159.00,0.0157
3158.00,0.0156
3157.00,0.0156
3156.00,0.0155
3155.00,0.0155
3154.00,0.0154
3153.00,0.0154
3152.00,0.0154
3151.00,0.0153
3150.00,0.0153
3149.00,0.0152
3148.00,0.0152
3147.00,0.0152
3146.00,0.0151
3145.00,0.0151
3144.00,0.0151
3143.00,0.0150
3142.00,0.0150
3141.00,0.0149
3140.00,0.0149
3139.00,0.0149
3138.00,0.0149
3137.00,0.0148
3136.00,0.0148
3135.00,0.0148
3134.00,0.0147
3133.00,0.0147
3132.00,0.0147
3131.00,0.0146
3130.00,0.0146
3129.00,0.0146
3128.00,0.0145
3127.00,0.0145
3126.00,0.0145
3125.00,0.0145
3124.00,0.0145
3123.00,0.0145
3122.00,0.0145
3121.00,0.0144
3120.00,0.0144
3119.00,0.0144
3118.00,0.0144
3117.00,0.0144
3116.00,0.0144
3115.00,0.0143
3114.00,0.0143
3113.00,0.0143
3112.00,0.0143
3111.00,0.0143
3110.00,0.0143
3109.00,0.0143
3108.00,0.0143
3107.00,0.0143
3106.00,0.0143
3105.00,0.0143
3104.00,0.0143
3103.00,0.0143
3102.00,0.0143
3101.00,0.0143
3100.00,0.0143
3099.00,0.0143
3098.00,0.0143
3097.00,0.0143
3096.00,0.0143
3095.00,0.0143
3094.00,0.0143
3093.00,0.0143
3092.00,0.0143
3091.00,0.0143
3090.00,0.0144
3089.00,0.0144
3088.00,0.0144
3087.00,0.0144
3086.00,0.0144
3085.00,0.0144
3084.00,0.0144
3083.00,0.0144
3082.00,0.0144
3081.00,0.0144
3080.00,0.0144
3079.00,0.0144
3078.00,0.0145
3077.00,0.0145
3076.00,0.0145
3075.00,0.0145
3074.00,0.0145
3073.00,0.0145
3072.00,0.0145
3071.00,0.0145
3070.00,0.0145
3069.00,0.0145
3068.00,0.0145
3067.00,0.0144
3066.00,0.0144
3065.00,0.0144
3064.00,0.0144
3063.00,0.0144
3062.00,0.0144
3061.00,0.0144
3060.00,0.0144
3059.00,0.0144
3058.00,0.0144
3057.00,0.0143
3056.00,0.0143
3055.00,0.0143
3054.00,0.0143
3053.00,0.0143
3052.00,0.0142
3051.00,0.0142
3050.00,0.0142
3049.00,0.0142
3048.00,0.0141
3047.00,0.0141
3046.00,0.0140
3045.00,0.0140
3044.00,0.0140
3043.00,0.0140
3042.00,0.0140
3041.00,0.0139
3040.00,0.0139
3039.00,0.0139
3038.00,0.0138
3037.00,0.0138
3036.00,0.0138
3035.00,0.0137
3034.00,0.0137
3033.00,0.0137
3032.00,0.0136
3031.00,0.0136
3030.00,0.0136
3029.00,0.0136
3028.00,0.0136
3027.00,0.0136
3026.00,0.0135
3025.00,0.0135
3024.00,0.0135
3023.00,0.0134
3022.00,0.0134
3021.00,0.0134
3020.00,0.0133
3019.00,0.0133
3018.00,0.0133
3017.00,0.0133
3016.00,0.0133
3015.00,0.0132
3014.00,0.0132
3013.00,0.0132
3012.00,0.0132
3011.00,0.0132
3010.00,0.0131
3009.00,0.0131
3008.00,0.0131
3007.00,0.0131
3006.00,0.0131
3005.00,0.0131
3004.00,0.0131
3003.00,0.0131
3002.00,0.0131
3001.00,0.0131
3000.00,0.0131
2999.00,0.0131
2998.00,0.0131
2997.00,0.0131
2996.00,0.0131
2995.00,0.0131
2994.00,0.0131
2993.00,0.0132
2992.00,0.0132
2991.00,0.0132
2990.00,0.0133
2989.00,0.0133
2988.00,0.0134
2987.00,0.0134
2986.00,0.0135
2985.00,0.0135
2984.00,0.0136
2983.00,0.0136
2982.00,0.0137
2981.00,0.0138
2980.00,0.0138
2979.00,0.0139
2978.00,0.0139
2977.00,0.0140
2976.00,0.0141
2975.00,0.0142
2974.00,0.0143
2973.00,0.0143
2972.00,0.0144
2971.00,0.0145
2970.00,0.0146
2969.00,0.0147
2968.00,0.0148
2967.00,0.0149
2966.00,0.0149
2965.00,0.0150
2964.00,0.0151
2963.00,0.0152
2962.00,0.0153
2961.00,0.0153
2960.00,0.0154
2959.00,0.0154
2958.00,0.0154
2957.00,0.0155
2956.00,0.0155
2955.00,0.0155
2954.00,0.0156
2953.00,0.0156
2952.00,0.0155
2951.00,0.0155
2950.00,0.0155
2949.00,0.0155
2948.00,0.0156
2947.00,0.0156
2946.00,0.0156
2945.00,0.0157
2944.00,0.0158
2943.00,0.0159
2942.00,0.0160
2941.00,0.0162
2940.00,0.0164
2939.00,0.0165
2938.00,0.0168
2937.00,0.0170
2936.00,0.0172
2935.00,0.0174
2934.00,0.0177
2933.00,0.0179
2932.00,0.0181
2931.00,0.0184
2930.00,0.0186
2929.00,0.0188
2928.00,0.0189
2927.00,0.0191
2926.00,0.0192
2925.00,0.0193
2924.00,0.0193
2923.00,0.0192
2922.00,0.0191
2921.00,0.0189
2920.00,0.0186
2919.00,0.0183
2918.00,0.0179
2917.00,0.0175
2916.00,0.0172
2915.00,0.0169
2914.00,0.0167
2913.00,0.0166
2912.00,0.0165
2911.00,0.0164
2910.00,0.0163
2909.00,0.0161
2908.00,0.0160
2907.00,0.0159
2906.00,0.0158
2905.00,0.0157
2904.00,0.0156
2903.00,0.0155
2902.00,0.0155
2901.00,0.0154
2900.00,0.0153
2899.00,0.0152
2898.00,0.0151
2897.00,0.0151
2896.00,0.0150
2895.00,0.0149
2894.00,0.0149
2893.00,0.0148
2892.00,0.0147
2891.00,0.0146
2890.00,0.0146
2889.00,0.0145
2888.00,0.0145
2887.00,0.0145
2886.00,0.0144
2885.00,0.0144
2884.00,0.0144
2883.00,0.0144
2882.00,0.0144
2881.00,0.0144
2880.00,0.0144
2879.00,0.0144
2878.00,0.0144
2877.00,0.0144
2876.00,0.0145
2875.00,0.0145
2874.00,0.0146
2873.00,0.0146
2872.00,0.0146
2871.00,0.0146
2870.00,0.0146
2869.00,0.0146
2868.00,0.0145
2867.00,0.0145
2866.00,0.0145
2865.00,0.0145
2864.00,0.0146
2863.00,0.0146
2862.00,0.0147
2861.00,0.0149
2860.00,0.0150
2859.00,0.0152
2858.00,0.0154
2857.00,0.0156
2856.00,0.0157
2855.00,0.0158
2854.00,0.0159
2853.00,0.0158
2852.00,0.0157
2851.00,0.0154
2850.00,0.0150
2849.00,0.0147
2848.00,0.0144
2847.00,0.0141
2846.00,0.0140
2845.00,0.0139
2844.00,0.0138
2843.00,0.0137
2842.00,0.0135
2841.00,0.0134
2840.00,0.0133
2839.00,0.0132
2838.00,0.0131
2837.00,0.0130
2836.00,0.0129
2835.00,0.0129
2834.00,0.0128
2833.00,0.0127
2832.00,0.0127
2831.00,0.0126
2830.00,0.0126
2829.00,0.0125
2828.00,0.0125
2827.00,0.0125
2826.00,0.0124
2825.00,0.0124
2824.00,0.0124
2823.00,0.0124
2822.00,0.0123
2821.00,0.0123
2820.00,0.0123
2819.00,0.0123
2818.00,0.0122
2817.00,0.0122
2816.00,0.0122
2815.00,0.0122
2814.00,0.0121
2813.00,0.0121
2812.00,0.0121
2811.00,0.0121
2810.00,0.0121
2809.00,0.0121
2808.00,0.0120
2807.00,0.0120
2806.00,0.0120
2805.00,0.0120
2804.00,0.0120
2803.00,0.0119
2802.00,0.0119
2801.00,0.0119
2800.00,0.0119
2799.00,0.0119
2798.00,0.0119
2797.00,0.0119
2796.00,0.0118
2795.00,0.0118
2794.00,0.0118
2793.00,0.0118
2792.00,0.0118
2791.00,0.0117
2790.00,0.0117
2789.00,0.0117
2788.00,0.0117
2787.00,0.0117
2786.00,0.0117
2785.00,0.0117
2784.00,0.0117
2783.00,0.0116
2782.00,0.0116
2781.00,0.0116
2780.00,0.0116
2779.00,0.0116
2778.00,0.0116
2777.00,0.0116
2776.00,0.0116
2775.00,0.0115
2774.00,0.0115
2773.00,0.0115
2772.00,0.0115
2771.00,0.0115
2770.00,0.0115
2769.00,0.0115
2768.00,0.0114
2767.00,0.0114
2766.00,0.0114
2765.00,0.0114
2764.00,0.0114
2763.00,0.0114
2762.00,0.0114
2761.00,0.0114
2760.00,0.0114
2759.00,0.0113
2758.00,0.0113
2757.00,0.0113
2756.00,0.0113
2755.00,0.0113
2754.00,0.0113
2753.00,0.0113
2752.00,0.0113
2751.00,0.0113
2750.00,0.0113
2749.00,0.0112
2748.00,0.0112
2747.00,0.0112
2746.00,0.0112
2745.00,0.0112
2744.00,0.0112
2743.00,0.0112
2742.00,0.0112
2741.00,0.0111
2740.00,0.0111
2739.00,0.0111
2738.00,0.0111
2737.00,0.0111
2736.00,0.0111
2735.00,0.0111
2734.00,0.0111
2733.00,0.0111
2732.00,0.0110
2731.00,0.0110
2730.00,0.0110
2729.00,0.0110
2728.00,0.0110
2727.00,0.0110
2726.00,0.0110
2725.00,0.0110
2724.00,0.0110
2723.00,0.0109
2722.00,0.0109
2721.00,0.0109
2720.00,0.0109
2719.00,0.0109
2718.00,0.0109
2717.00,0.0109
2716.00,0.0108
2715.00,0.0108
2714.00,0.0108
2713.00,0.0108
2712.00,0.0108
2711.00,0.0108
2710.00,0.0108
2709.00,0.0108
2708.00,0.0108
2707.00,0.0108
2706.00,0.0107
2705.00,0.0107
2704.00,0.0107
2703.00,0.0107
2702.00,0.0107
2701.00,0.0107
2700.00,0.0107
2699.00,0.0107
2698.00,0.0107
2697.00,0.0107
2696.00,0.0107
2695.00,0.0106
2694.00,0.0106
2693.00,0.0106
2692.00,0.0106
2691.00,0.0106
2690.00,0.0106
2689.00,0.0106
2688.00,0.0106
2687.00,0.0106
2686.00,0.0106
2685.00,0.0106
2684.00,0.0106
2683.00,0.0105
2682.00,0.0105
2681.00,0.0105
2680.00,0.0105
2679.00,0.0105
2678.00,0.0105
2677.00,0.0105
2676.00,0.0105
2675.00,0.0105
2674.00,0.0105
2673.00,0.0104
2672.00,0.0104
2671.00,0.0104
2670.00,0.0104
2669.00,0.0104
2668.00,0.0104
2667.00,0.0104
2666.00,0.0104
2665.00,0.0104
2664.00,0.0103
2663.00,0.0103
2662.00,0.0103
2661.00,0.0103
2660.00,0.0102
2659.00,0.0102
2658.00,0.0102
2657.00,0.0102
2656.00,0.0102
2655.00,0.0102
2654.00,0.0102
2653.00,0.0102
2652.00,0.0102
2651.00,0.0102
2650.00,0.0102
2649.00,0.0102
2648.00,0.0102
2647.00,0.0102
2646.00,0.0102
2645.00,0.0102
2644.00,0.0101
2643.00,0.0101
2642.00,0.0101
2641.00,0.0101
2640.00,0.0101
2639.00,0.0101
2638.00,0.0101
2637.00,0.0101
2636.00,0.0101
2635.00,0.0101
2634.00,0.0101
2633.00,0.0101
2632.00,0.0101
2631.00,0.0101
2630.00,0.0101
2629.00,0.0101
2628.00,0.0101
2627.00,0.0101
2626.00,0.0100
2625.00,0.0100
2624.00,0.0100
2623.00,0.0100
2622.00,0.0100
2621.00,0.0100
2620.00,0.0100
2619.00,0.0100
2618.00,0.0100
2617.00,0.0100
2616.00,0.0100
2615.00,0.0100
2614.00,0.0100
2613.00,0.0100
2612.00,0.0100
2611.00,0.0100
2610.00,0.0100
2609.00,0.0100
2608.00,0.0100
2607.00,0.0100
2606.00,0.0100
2605.00,0.0100
2604.00,0.0100
2603.00,0.0100
2602.00,0.0099
2601.00,0.0099
2600.00,0.0099
2599.00,0.0099
2598.00,0.0099
2597.00,0.0099
2596.00,0.0099
2595.00,0.0099
2594.00,0.0099
2593.00,0.0099
2592.00,0.0099
2591.00,0.0099
2590.00,0.0099
2589.00,0.0098
2588.00,0.0098
2587.00,0.0098
2586.00,0.0098
2585.00,0.0098
2584.00,0.0098
2583.00,0.0098
2582.00,0.0098
2581.00,0.0098
2580.00,0.0098
2579.00,0.0098
2578.00,0.0098
2577.00,0.0098
2576.00,0.0098
2575.00,0.0098
2574.00,0.0098
2573.00,0.0098
2572.00,0.0098
2571.00,0.0098
2570.00,0.0098
2569.00,0.0098
2568.00,0.0097
2567.00,0.0097
2566.00,0.0097
2565.00,0.0097
2564.00,0.0097
2563.00,0.0097
2562.00,0.0097
2561.00,0.0097
2560.00,0.0097
2559.00,0.0097
2558.00,0.0097
2557.00,0.0097
2556.00,0.0097
2555.00,0.0097
2554.00,0.0097
2553.00,0.0097
2552.00,0.0097
2551.00,0.0097
2550.00,0.0096
2549.00,0.0096
2548.00,0.0096
2547.00,0.0096
2546.00,0.0096
2545.00,0.0096
2544.00,0.0096
2543.00,0.0096
2542.00,0.0096
2541.00,0.0096
2540.00,0.0096
2539.00,0.0096
2538.00,0.0096
2537.00,0.0096
2536.00,0.0096
2535.00,0.0096
2534.00,0.0096
2533.00,0.0096
2532.00,0.0095
2531.00,0.0095
2530.00,0.0095
2529.00,0.0095
2528.00,0.0095
2527.00,0.0095
2526.00,0.0095
2525.00,0.0095
2524.00,0.0095
2523.00,0.0095
2522.00,0.0095
2521.00,0.0095
2520.00,0.0095
2519.00,0.0095
2518.00,0.0095
2517.00,0.0095
2516.00,0.0095
2515.00,0.0095
2514.00,0.0094
2513.00,0.0094
2512.00,0.0094
2511.00,0.0094
2510.00,0.0094
2509.00,0.0094
2508.00,0.0094
2507.00,0.0094
2506.00,0.0094
2505.00,0.0094
2504.00,0.0094
2503.00,0.0094
2502.00,0.0094
2501.00,0.0094
2500.00,0.0094
2499.00,0.0094
2498.00,0.0094
2497.00,0.0094
2496.00,0.0093
2495.00,0.0093
2494.00,0.0093
2493.00,0.0093
2492.00,0.0093
2491.00,0.0093
2490.00,0.0093
2489.00,0.0093
2488.00,0.0093
2487.00,0.0093
2486.00,0.0093
2485.00,0.0093
2484.00,0.0093
2483.00,0.0093
2482.00,0.0093
2481.00,0.0093
2480.00,0.0093
2479.00,0.0093
2478.00,0.0093
2477.00,0.0092
2476.00,0.0092
2475.00,0.0092
2474.00,0.0092
2473.00,0.0092
2472.00,0.0092
2471.00,0.0092
2470.00,0.0092
2469.00,0.0092
2468.00,0.0092
2467.00,0.0092
2466.00,0.0092
2465.00,0.0091
2464.00,0.0091
2463.00,0.0091
2462.00,0.0091
2461.00,0.0091
2460.00,0.0091
2459.00,0.0091
2458.00,0.0091
2457.00,0.0091
2456.00,0.0091
2455.00,0.0091
2454.00,0.0091
2453.00,0.0090
2452.00,0.0090
2451.00,0.0090
2450.00,0.0090
2449.00,0.0090
2448.00,0.0090
2447.00,0.0090
2446.00,0.0090
2445.00,0.0090
2444.00,0.0090
2443.00,0.0090
2442.00,0.0090
2441.00,0.0090
2440.00,0.0090
2439.00,0.0090
2438.00,0.0090
2437.00,0.0090
2436.00,0.0090
2435.00,0.0090
2434.00,0.0090
2433.00,0.0090
2432.00,0.0090
2431.00,0.0090
2430.00,0.0090
2429.00,0.0090
2428.00,0.0090
2427.00,0.0090
2426.00,0.0090
2425.00,0.0090
2424.00,0.0090
2423.00,0.0089
2422.00,0.0089
2421.00,0.0089
2420.00,0.0089
2419.00,0.0089
2418.00,0.0089
2417.00,0.0089
2416.00,0.0089
2415.00,0.0089
2414.00,0.0089
2413.00,0.0089
2412.00,0.0089
2411.00,0.0089
2410.00,0.0089
2409.00,0.0089
2408.00,0.0089
2407.00,0.0089
2406.00,0.0089
2405.00,0.0089
2404.00,0.0089
2403.00,0.0089
2402.00,0.0088
2401.00,0.0088
2400.00,0.0088
2399.00,0.0088
2398.00,0.0088
2397.00,0.0088
2396.00,0.0088
2395.00,0.0088
2394.00,0.0088
2393.00,0.0088
2392.00,0.0088
2391.00,0.0088
2390.00,0.0088
2389.00,0.0087
2388.00,0.0087
2387.00,0.0087
2386.00,0.0087
2385.00,0.0087
2384.00,0.0087
2383.00,0.0087
2382.00,0.0087
2381.00,0.0087
2380.00,0.0087
2379.00,0.0087
2378.00,0.0087
2377.00,0.0087
2376.00,0.0087
2375.00,0.0087
2374.00,0.0086
2373.00,0.0086
2372.00,0.0086
2371.00,0.0086
2370.00,0.0086
2369.00,0.0086
2368.00,0.0086
2367.00,0.0086
2366.00,0.0086
2365.00,0.0086
2364.00,0.0086
2363.00,0.0085
2362.00,0.0085
2361.00,0.0085
2360.00,0.0085
2359.00,0.0085
2358.00,0.0085
2357.00,0.0084
2356.00,0.0084
2355.00,0.0084
2354.00,0.0084
2353.00,0.0084
2352.00,0.0085
2351.00,0.0085
2350.00,0.0084
2349.00,0.0084
2348.00,0.0083
2347.00,0.0083
2346.00,0.0083
2345.00,0.0083
2344.00,0.0083
2343.00,0.0083
2342.00,0.0083
2341.00,0.0083
2340.00,0.0083
2339.00,0.0082
2338.00,0.0082
2337.00,0.0082
2336.00,0.0082
2335.00,0.0082
2334.00,0.0082
2333.00,0.0082
2332.00,0.0083
2331.00,0.0083
2330.00,0.0083
2329.00,0.0082
2328.00,0.0081
2327.00,0.0080
2326.00,0.0080
2325.00,0.0079
2324.00,0.0079
2323.00,0.0079
2322.00,0.0080
2321.00,0.0080
2320.00,0.0080
2319.00,0.0080
2318.00,0.0080
2317.00,0.0080
2316.00,0.0080
2315.00,0.0081
2314.00,0.0081
2313.00,0.0081
2312.00,0.0081
2311.00,0.0081
2310.00,0.0081
2309.00,0.0081
2308.00,0.0081
2307.00,0.0080
2306.00,0.0080
2305.00,0.0080
2304.00,0.0080
2303.00,0.0080
2302.00,0.0080
2301.00,0.0080
2300.00,0.0080
2299.00,0.0080
2298.00,0.0080
2297.00,0.0080
2296.00,0.0080
2295.00,0.0080
2294.00,0.0080
2293.00,0.0080
2292.00,0.0080
2291.00,0.0080
2290.00,0.0080
2289.00,0.0080
2288.00,0.0080
2287.00,0.0080
2286.00,0.0080
2285.00,0.0080
2284.00,0.0080
2283.00,0.0080
2282.00,0.0080
2281.00,0.0081
2280.00,0.0081
2279.00,0.0081
2278.00,0.0081
2277.00,0.0081
2276.00,0.0080
2275.00,0.0080
2274.00,0.0080
2273.00,0.0080
2272.00,0.0080
2271.00,0.0080
2270.00,0.0081
2269.00,0.0080
2268.00,0.0080
2267.00,0.0080
2266.00,0.0080
2265.00,0.0080
2264.00,0.0080
2263.00,0.0080
2262.00,0.0080
2261.00,0.0080
2260.00,0.0080
2259.00,0.0080
2258.00,0.0080
2257.00,0.0080
2256.00,0.0081
2255.00,0.0081
2254.00,0.0081
2253.00,0.0081
2252.00,0.0081
2251.00,0.0080
2250.00,0.0080
2249.00,0.0080
2248.00,0.0080
2247.00,0.0080
2246.00,0.0080
2245.00,0.0080
2244.00,0.0080
2243.00,0.0080
2242.00,0.0080
2241.00,0.0080
2240.00,0.0080
2239.00,0.0080
2238.00,0.0080
2237.00,0.0080
2236.00,0.0080
2235.00,0.0079
2234.00,0.0079
2233.00,0.0079
2232.00,0.0079
2231.00,0.0079
2230.00,0.0079
2229.00,0.0079
2228.00,0.0079
2227.00,0.0079
2226.00,0.0079
2225.00,0.0079
2224.00,0.0080
2223.00,0.0080
2222.00,0.0080
2221.00,0.0080
2220.00,0.0080
2219.00,0.0080
2218.00,0.0080
2217.00,0.0079
2216.00,0.0079
2215.00,0.0079
2214.00,0.0079
2213.00,0.0080
2212.00,0.0080
2211.00,0.0080
2210.00,0.0080
2209.00,0.0080
2208.00,0.0080
2207.00,0.0079
2206.00,0.0079
2205.00,0.0079
2204.00,0.0078
2203.00,0.0078
2202.00,0.0078
2201.00,0.0078
2200.00,0.0079
2199.00,0.0079
2198.00,0.0080
2197.00,0.0080
2196.00,0.0079
2195.00,0.0079
2194.00,0.0079
2193.00,0.0079
2192.00,0.0079
2191.00,0.0079
2190.00,0.0079
2189.00,0.0079
2188.00,0.0078
2187.00,0.0078
2186.00,0.0077
2185.00,0.0077
2184.00,0.0077
2183.00,0.0077
2182.00,0.0077
2181.00,0.0078
2180.00,0.0078
2179.00,0.0079
2178.00,0.0079
2177.00,0.0080
2176.00,0.0080
2175.00,0.0081
2174.00,0.0081
2173.00,0.0080
2172.00,0.0080
2171.00,0.0079
2170.00,0.0078
2169.00,0.0076
2168.00,0.0076
2167.00,0.0075
2166.00,0.0075
2165.00,0.0074
2164.00,0.0074
2163.00,0.0073
2162.00,0.0073
2161.00,0.0074
2160.00,0.0076
2159.00,0.0079
2158.00,0.0081
2157.00,0.0082
2156.00,0.0082
2155.00,0.0081
2154.00,0.0081
2153.00,0.0080
2152.00,0.0080
2151.00,0.0080
2150.00,0.0079
2149.00,0.0079
2148.00,0.0079
2147.00,0.0080
2146.00,0.0080
2145.00,0.0081
2144.00,0.0081
2143.00,0.0082
2142.00,0.0082
2141.00,0.0082
2140.00,0.0081
2139.00,0.0080
2138.00,0.0080
2137.00,0.0081
2136.00,0.0081
2135.00,0.0082
2134.00,0.0082
2133.00,0.0082
2132.00,0.0082
2131.00,0.0082
2130.00,0.0081
2129.00,0.0081
2128.00,0.0081
2127.00,0.0081
2126.00,0.0080
2125.00,0.0080
2124.00,0.0080
2123.00,0.0079
2122.00,0.0079
2121.00,0.0079
2120.00,0.0079
2119.00,0.0079
2118.00,0.0079
2117.00,0.0079
2116.00,0.0078
2115.00,0.0078
2114.00,0.0078
2113.00,0.0078
2112.00,0.0078
2111.00,0.0078
2110.00,0.0078
2109.00,0.0078
2108.00,0.0078
2107.00,0.0078
2106.00,0.0078
2105.00,0.0077
2104.00,0.0077
2103.00,0.0077
2102.00,0.0078
2101.00,0.0078
2100.00,0.0078
2099.00,0.0078
2098.00,0.0078
2097.00,0.0078
2096.00,0.0078
2095.00,0.0078
2094.00,0.0079
2093.00,0.0079
2092.00,0.0078
2091.00,0.0078
2090.00,0.0077
2089.00,0.0077
2088.00,0.0076
2087.00,0.0076
2086.00,0.0076
2085.00,0.0076
2084.00,0.0076
2083.00,0.0076
2082.00,0.0076
2081.00,0.0076
2080.00,0.0076
2079.00,0.0076
2078.00,0.0076
2077.00,0.0076
2076.00,0.0075
2075.00,0.0075
2074.00,0.0075
2073.00,0.0075
2072.00,0.0076
2071.00,0.0076
2070.00,0.0076
2069.00,0.0076
2068.00,0.0076
2067.00,0.0076
2066.00,0.0075
2065.00,0.0075
2064.00,0.0075
2063.00,0.0074
2062.00,0.0074
2061.00,0.0075
2060.00,0.0075
2059.00,0.0075
2058.00,0.0075
2057.00,0.0075
2056.00,0.0075
2055.00,0.0075
2054.00,0.0074
2053.00,0.0073
2052.00,0.0072
2051.00,0.0072
2050.00,0.0072
2049.00,0.0073
2048.00,0.0073
2047.00,0.0074
2046.00,0.0074
2045.00,0.0073
2044.00,0.0073
2043.00,0.0073
2042.00,0.0073
2041.00,0.0074
2040.00,0.0074
2039.00,0.0074
2038.00,0.0074
2037.00,0.0074
2036.00,0.0074
2035.00,0.0074
2034.00,0.0075
2033.00,0.0075
2032.00,0.0075
2031.00,0.0075
2030.00,0.0075
2029.00,0.0075
2028.00,0.0075
2027.00,0.0075
2026.00,0.0074
2025.00,0.0075
2024.00,0.0076
2023.00,0.0077
2022.00,0.0077
2021.00,0.0077
2020.00,0.0076
2019.00,0.0076
2018.00,0.0075
2017.00,0.0075
2016.00,0.0075
2015.00,0.0075
2014.00,0.0074
2013.00,0.0074
2012.00,0.0074
2011.00,0.0074
2010.00,0.0074
2009.00,0.0075
2008.00,0.0075
2007.00,0.0076
2006.00,0.0076
2005.00,0.0076
2004.00,0.0077
2003.00,0.0077
2002.00,0.0076
2001.00,0.0075
2000.00,0.0075
1999.00,0.0075
1998.00,0.0075
1997.00,0.0075
1996.00,0.0075
1995.00,0.0074
1994.00,0.0074
1993.00,0.0073
1992.00,0.0073
1991.00,0.0073
1990.00,0.0073
1989.00,0.0073
1988.00,0.0073
1987.00,0.0073
1986.00,0.0073
1985.00,0.0073
1984.00,0.0072
1983.00,0.0071
1982.00,0.0070
1981.00,0.0070
1980.00,0.0070
1979.00,0.0072
1978.00,0.0073
1977.00,0.0074
1976.00,0.0075
1975.00,0.0074
1974.00,0.0074
1973.00,0.0074
1972.00,0.0074
1971.00,0.0075
1970.00,0.0075
1969.00,0.0076
1968.00,0.0076
1967.00,0.0075
1966.00,0.0075
1965.00,0.0075
1964.00,0.0075
1963.00,0.0075
1962.00,0.0075
1961.00,0.0075
1960.00,0.0075
1959.00,0.0075
1958.00,0.0075
1957.00,0.0075
1956.00,0.0076
1955.00,0.0076
1954.00,0.0075
1953.00,0.0075
1952.00,0.0075
1951.00,0.0075
1950.00,0.0075
1949.00,0.0075
1948.00,0.0075
1947.00,0.0075
1946.00,0.0074
1945.00,0.0074
1944.00,0.0073
1943.00,0.0073
1942.00,0.0073
1941.00,0.0074
1940.00,0.0074
1939.00,0.0074
1938.00,0.0074
1937.00,0.0074
1936.00,0.0074
1935.00,0.0074
1934.00,0.0074
1933.00,0.0074
1932.00,0.0074
1931.00,0.0074
1930.00,0.0074
1929.00,0.0074
1928.00,0.0073
1927.00,0.0073
1926.00,0.0073
1925.00,0.0073
1924.00,0.0073
1923.00,0.0073
1922.00,0.0073
1921.00,0.0073
1920.00,0.0073
1919.00,0.0072
1918.00,0.0072
1917.00,0.0072
1916.00,0.0072
1915.00,0.0072
1914.00,0.0072
1913.00,0.0072
1912.00,0.0072
1911.00,0.0072
1910.00,0.0072
1909.00,0.0072
1908.00,0.0072
1907.00,0.0072
1906.00,0.0071
1905.00,0.0071
1904.00,0.0071
1903.00,0.0071
1902.00,0.0071
1901.00,0.0071
1900.00,0.0071
1899.00,0.0071
1898.00,0.0071
1897.00,0.0071
1896.00,0.0071
1895.00,0.0071
1894.00,0.0071
1893.00,0.0071
1892.00,0.0070
1891.00,0.0070
1890.00,0.0070
1889.00,0.0071
1888.00,0.0071
1887.00,0.0070
1886.00,0.0070
1885.00,0.0070
1884.00,0.0070
1883.00,0.0070
1882.00,0.0070
1881.00,0.0070
1880.00,0.0070
1879.00,0.0070
1878.00,0.0070
1877.00,0.0070
1876.00,0.0069
1875.00,0.0069
1874.00,0.0069
1873.00,0.0068
1872.00,0.0068
1871.00,0.0068
1870.00,0.0067
1869.00,0.0068
1868.00,0.0068
1867.00,0.0068
1866.00,0.0067
1865.00,0.0067
1864.00,0.0068
1863.00,0.0068
1862.00,0.0068
1861.00,0.0068
1860.00,0.0068
1859.00,0.0068
1858.00,0.0068
1857.00,0.0068
1856.00,0.0068
1855.00,0.0068
1854.00,0.0067
1853.00,0.0067
1852.00,0.0067
1851.00,0.0067
1850.00,0.0067
1849.00,0.0067
1848.00,0.0067
1847.00,0.0066
1846.00,0.0066
1845.00,0.0066
1844.00,0.0066
1843.00,0.0067
1842.00,0.0066
1841.00,0.0066
1840.00,0.0065
1839.00,0.0065
1838.00,0.0065
1837.00,0.0065
1836.00,0.0065
1835.00,0.0065
1834.00,0.0065
1833.00,0.0065
1832.00,0.0065
1831.00,0.0065
1830.00,0.0065
1829.00,0.0065
1828.00,0.0064
1827.00,0.0064
1826.00,0.0063
1825.00,0.0064
1824.00,0.0064
1823.00,0.0064
1822.00,0.0064
1821.00,0.0063
1820.00,0.0064
1819.00,0.0064
1818.00,0.0064
1817.00,0.0064
1816.00,0.0064
1815.00,0.0064
1814.00,0.0063
1813.00,0.0062
1812.00,0.0062
1811.00,0.0062
1810.00,0.0061
1809.00,0.0061
1808.00,0.0061
1807.00,0.0062
1806.00,0.0062
1805.00,0.0062
1804.00,0.0062
1803.00,0.0062
1802.00,0.0061
1801.00,0.0060
1800.00,0.0060
1799.00,0.0059
1798.00,0.0059
1797.00,0.0059
1796.00,0.0059
1795.00,0.0059
1794.00,0.0058
1793.00,0.0058
1792.00,0.0059
1791.00,0.0059
1790.00,0.0059
1789.00,0.0059
1788.00,0.0058
1787.00,0.0058
1786.00,0.0058
1785.00,0.0058
1784.00,0.0058
1783.00,0.0058
1782.00,0.0058
1781.00,0.0057
1780.00,0.0057
1779.00,0.0057
1778.00,0.0057
1777.00,0.0057
1776.00,0.0057
1775.00,0.0057
1774.00,0.0056
1773.00,0.0056
1772.00,0.0056
1771.00,0.0057
1770.00,0.0057
1769.00,0.0056
1768.00,0.0056
1767.00,0.0057
1766.00,0.0057
1765.00,0.0057
1764.00,0.0056
1763.00,0.0057
1762.00,0.0058
1761.00,0.0058
1760.00,0.0058
1759.00,0.0057
1758.00,0.0057
1757.00,0.0057
1756.00,0.0057
1755.00,0.0058
1754.00,0.0057
1753.00,0.0057
1752.00,0.0057
1751.00,0.0057
1750.00,0.0058
1749.00,0.0058
1748.00,0.0059
1747.00,0.0060
1746.00,0.0062
1745.00,0.0063
1744.00,0.0065
1743.00,0.0066
1742.00,0.0067
1741.00,0.0067
1740.00,0.0067
1739.00,0.0067
1738.00,0.0067
1737.00,0.0066
1736.00,0.0065
1735.00,0.0064
1734.00,0.0064
1733.00,0.0063
1732.00,0.0062
1731.00,0.0060
1730.00,0.0058
1729.00,0.0058
1728.00,0.0058
1727.00,0.0058
1726.00,0.0058
1725.00,0.0057
1724.00,0.0057
1723.00,0.0056
1722.00,0.0056
1721.00,0.0056
1720.00,0.0056
1719.00,0.0056
1718.00,0.0055
1717.00,0.0056
1716.00,0.0056
1715.00,0.0056
1714.00,0.0056
1713.00,0.0057
1712.00,0.0058
1711.00,0.0059
1710.00,0.0060
1709.00,0.0061
1708.00,0.0063
1707.00,0.0066
1706.00,0.0069
1705.00,0.0074
1704.00,0.0080
1703.00,0.0085
1702.00,0.0089
1701.00,0.0096
1700.00,0.0105
1699.00,0.0112
1698.00,0.0115
1697.00,0.0117
1696.00,0.0121
1695.00,0.0126
1694.00,0.0128
1693.00,0.0129
1692.00,0.0130
1691.00,0.0132
1690.00,0.0135
1689.00,0.0139
1688.00,0.0143
1687.00,0.0147
1686.00,0.0151
1685.00,0.0155
1684.00,0.0159
1683.00,0.0164
1682.00,0.0167
1681.00,0.0170
1680.00,0.0174
1679.00,0.0179
1678.00,0.0184
1677.00,0.0188
1676.00,0.0193
1675.00,0.0197
1674.00,0.0201
1673.00,0.0205
1672.00,0.0208
1671.00,0.0212
1670.00,0.0217
1669.00,0.0223
1668.00,0.0229
1667.00,0.0234
1666.00,0.0239
1665.00,0.0244
1664.00,0.0249
1663.00,0.0254
1662.00,0.0259
1661.00,0.0264
1660.00,0.0268
1659.00,0.0273
1658.00,0.0278
1657.00,0.0285
1656.00,0.0292
1655.00,0.0298
1654.00,0.0302
1653.00,0.0303
1652.00,0.0303
1651.00,0.0304
1650.00,0.0303
1649.00,0.0304
1648.00,0.0304
1647.00,0.0304
1646.00,0.0304
1645.00,0.0305
1644.00,0.0307
1643.00,0.0308
1642.00,0.0309
1641.00,0.0311
1640.00,0.0312
1639.00,0.0314
1638.00,0.0315
1637.00,0.0315
1636.00,0.0315
1635.00,0.0315
1634.00,0.0317
1633.00,0.0319
1632.00,0.0321
1631.00,0.0324
1630.00,0.0326
1629.00,0.0329
1628.00,0.0332
1627.00,0.0336
1626.00,0.0339
1625.00,0.0343
1624.00,0.0347
1623.00,0.0350
1622.00,0.0353
1621.00,0.0357
1620.00,0.0362
1619.00,0.0365
1618.00,0.0367
1617.00,0.0366
1616.00,0.0363
1615.00,0.0360
1614.00,0.0357
1613.00,0.0353
1612.00,0.0349
1611.00,0.0343
1610.00,0.0336
1609.00,0.0329
1608.00,0.0321
1607.00,0.0314
1606.00,0.0307
1605.00,0.0300
1604.00,0.0292
1603.00,0.0285
1602.00,0.0278
1601.00,0.0271
1600.00,0.0264
1599.00,0.0258
1598.00,0.0252
1597.00,0.0247
1596.00,0.0241
1595.00,0.0235
1594.00,0.0230
1593.00,0.0226
1592.00,0.0222
1591.00,0.0218
1590.00,0.0214
1589.00,0.0211
1588.00,0.0207
1587.00,0.0204
1586.00,0.0201
1585.00,0.0199
1584.00,0.0197
1583.00,0.0194
1582.00,0.0193
1581.00,0.0192
1580.00,0.0191
1579.00,0.0190
1578.00,0.0190
1577.00,0.0189
1576.00,0.0188
1575.00,0.0186
1574.00,0.0186
1573.00,0.0186
1572.00,0.0186
1571.00,0.0187
1570.00,0.0187
1569.00,0.0188
1568.00,0.0188
1567.00,0.0189
1566.00,0.0191
1565.00,0.0194
1564.00,0.0198
1563.00,0.0202
1562.00,0.0208
1561.00,0.0214
1560.00,0.0216
1559.00,0.0216
1558.00,0.0219
1557.00,0.0225
1556.00,0.0229
1555.00,0.0232
1554.00,0.0237
1553.00,0.0242
1552.00,0.0246
1551.00,0.0250
1550.00,0.0255
1549.00,0.0259
1548.00,0.0264
1547.00,0.0268
1546.00,0.0273
1545.00,0.0278
1544.00,0.0282
1543.00,0.0286
1542.00,0.0288
1541.00,0.0289
1540.00,0.0290
1539.00,0.0292
1538.00,0.0296
1537.00,0.0299
1536.00,0.0302
1535.00,0.0305
1534.00,0.0307
1533.00,0.0308
1532.00,0.0310
1531.00,0.0312
1530.00,0.0315
1529.00,0.0317
1528.00,0.0320
1527.00,0.0322
1526.00,0.0323
1525.00,0.0325
1524.00,0.0328
1523.00,0.0330
1522.00,0.0331
1521.00,0.0332
1520.00,0.0334
1519.00,0.0335
1518.00,0.0336
1517.00,0.0336
1516.00,0.0335
1515.00,0.0336
1514.00,0.0336
1513.00,0.0336
1512.00,0.0336
1511.00,0.0336
1510.00,0.0335
1509.00,0.0333
1508.00,0.0329
1507.00,0.0321
1506.00,0.0313
1505.00,0.0308
1504.00,0.0305
1503.00,0.0303
1502.00,0.0300
1501.00,0.0296
1500.00,0.0293
1499.00,0.0289
1498.00,0.0284
1497.00,0.0278
1496.00,0.0272
1495.00,0.0268
1494.00,0.0264
1493.00,0.0260
1492.00,0.0256
1491.00,0.0251
1490.00,0.0245
1489.00,0.0239
1488.00,0.0235
1487.00,0.0231
1486.00,0.0227
1485.00,0.0224
1484.00,0.0221
1483.00,0.0218
1482.00,0.0214
1481.00,0.0211
1480.00,0.0209
1479.00,0.0207
1478.00,0.0205
1477.00,0.0204
1476.00,0.0203
1475.00,0.0202
1474.00,0.0201
1473.00,0.0200
1472.00,0.0201
1471.00,0.0203
1470.00,0.0205
1469.00,0.0206
1468.00,0.0208
1467.00,0.0209
1466.00,0.0209
1465.00,0.0207
1464.00,0.0206
1463.00,0.0206
1462.00,0.0207
1461.00,0.0208
1460.00,0.0210
1459.00,0.0213
1458.00,0.0215
1457.00,0.0217
1456.00,0.0218
1455.00,0.0219
1454.00,0.0219
1453.00,0.0219
1452.00,0.0220
1451.00,0.0220
1450.00,0.0221
1449.00,0.0221
1448.00,0.0220
1447.00,0.0220
1446.00,0.0219
1445.00,0.0218
1444.00,0.0216
1443.00,0.0214
1442.00,0.0213
1441.00,0.0212
1440.00,0.0210
1439.00,0.0210
1438.00,0.0209
1437.00,0.0206
1436.00,0.0203
1435.00,0.0201
1434.00,0.0199
1433.00,0.0197
1432.00,0.0195
1431.00,0.0194
1430.00,0.0193
1429.00,0.0192
1428.00,0.0191
1427.00,0.0190
1426.00,0.0190
1425.00,0.0190
1424.00,0.0190
1423.00,0.0191
1422.00,0.0192
1421.00,0.0194
1420.00,0.0196
1419.00,0.0197
1418.00,0.0197
1417.00,0.0197
1416.00,0.0197
1415.00,0.0198
1414.00,0.0200
1413.00,0.0201
1412.00,0.0201
1411.00,0.0202
1410.00,0.0203
1409.00,0.0203
1408.00,0.0203
1407.00,0.0203
1406.00,0.0203
1405.00,0.0203
1404.00,0.0202
1403.00,0.0202
1402.00,0.0203
1401.00,0.0203
1400.00,0.0202
1399.00,0.0201
1398.00,0.0201
1397.00,0.0202
1396.00,0.0202
1395.00,0.0202
1394.00,0.0202
1393.00,0.0202
1392.00,0.0202
1391.00,0.0202
1390.00,0.0202
1389.00,0.0203
1388.00,0.0203
1387.00,0.0203
1386.00,0.0203
1385.00,0.0202
1384.00,0.0202
1383.00,0.0201
1382.00,0.0201
1381.00,0.0201
1380.00,0.0201
1379.00,0.0200
1378.00,0.0200
1377.00,0.0199
1376.00,0.0199
1375.00,0.0198
1374.00,0.0197
1373.00,0.0197
1372.00,0.0197
1371.00,0.0196
1370.00,0.0196
1369.00,0.0196
1368.00,0.0195
1367.00,0.0194
1366.00,0.0194
1365.00,0.0193
1364.00,0.0192
1363.00,0.0191
1362.00,0.0190
1361.00,0.0188
1360.00,0.0187
1359.00,0.0186
1358.00,0.0185
1357.00,0.0185
1356.00,0.0184
1355.00,0.0184
1354.00,0.0184
1353.00,0.0183
1352.00,0.0183
1351.00,0.0183
1350.00,0.0183
1349.00,0.0183
1348.00,0.0183
1347.00,0.0183
1346.00,0.0183
1345.00,0.0183
1344.00,0.0183
1343.00,0.0183
1342.00,0.0183
1341.00,0.0184
1340.00,0.0184
1339.00,0.0183
1338.00,0.0183
1337.00,0.0183
1336.00,0.0182
1335.00,0.0182
1334.00,0.0182
1333.00,0.0181
1332.00,0.0181
1331.00,0.0181
1330.00,0.0180
1329.00,0.0180
1328.00,0.0180
1327.00,0.0179
1326.00,0.0179
1325.00,0.0179
1324.00,0.0179
1323.00,0.0179
1322.00,0.0179
1321.00,0.0179
1320.00,0.0179
1319.00,0.0179
1318.00,0.0180
1317.00,0.0180
1316.00,0.0180
1315.00,0.0181
1314.00,0.0181
1313.00,0.0181
1312.00,0.0181
1311.00,0.0181
1310.00,0.0182
1309.00,0.0182
1308.00,0.0182
1307.00,0.0182
1306.00,0.0182
1305.00,0.0182
1304.00,0.0182
1303.00,0.0182
1302.00,0.0182
1301.00,0.0182
1300.00,0.0182
1299.00,0.0181
1298.00,0.0181
1297.00,0.0181
1296.00,0.0181
1295.00,0.0180
1294.00,0.0180
1293.00,0.0180
1292.00,0.0180
1291.00,0.0180
1290.00,0.0180
1289.00,0.0179
1288.00,0.0179
1287.00,0.0179
1286.00,0.0179
1285.00,0.0178
1284.00,0.0178
1283.00,0.0178
1282.00,0.0178
1281.00,0.0178
1280.00,0.0177
1279.00,0.0177
1278.00,0.0177
1277.00,0.0176
1276.00,0.0176
1275.00,0.0176
1274.00,0.0176
1273.00,0.0176
1272.00,0.0176
1271.00,0.0176
1270.00,0.0176
1269.00,0.0176
1268.00,0.0176
1267.00,0.0177
1266.00,0.0177
1265.00,0.0177
1264.00,0.0178
1263.00,0.0178
1262.00,0.0179
1261.00,0.0179
1260.00,0.0180
1259.00,0.0181
1258.00,0.0182
1257.00,0.0183
1256.00,0.0184
1255.00,0.0185
1254.00,0.0187
1253.00,0.0188
1252.00,0.0189
1251.00,0.0191
1250.00,0.0192
1249.00,0.0193
1248.00,0.0194
1247.00,0.0195
1246.00,0.0196
1245.00,0.0197
1244.00,0.0198
1243.00,0.0198
1242.00,0.0199
1241.00,0.0200
1240.00,0.0200
1239.00,0.0200
1238.00,0.0201
1237.00,0.0201
1236.00,0.0201
1235.00,0.0201
1234.00,0.0201
1233.00,0.0201
1232.00,0.0201
1231.00,0.0201
1230.00,0.0201
1229.00,0.0201
1228.00,0.0200
1227.00,0.0200
1226.00,0.0199
1225.00,0.0199
1224.00,0.0198
1223.00,0.0197
1222.00,0.0197
1221.00,0.0196
1220.00,0.0195
1219.00,0.0194
1218.00,0.0194
1217.00,0.0193
1216.00,0.0192
1215.00,0.0191
1214.00,0.0190
1213.00,0.0189
1212.00,0.0188
1211.00,0.0186
1210.00,0.0185
1209.00,0.0184
1208.00,0.0183
1207.00,0.0181
1206.00,0.0180
1205.00,0.0179
1204.00,0.0178
1203.00,0.0176
1202.00,0.0175
1201.00,0.0174
1200.00,0.0172
1199.00,0.0171
1198.00,0.0170
1197.00,0.0169
1196.00,0.0168
1195.00,0.0167
1194.00,0.0166
1193.00,0.0165
1192.00,0.0164
1191.00,0.0164
1190.00,0.0163
1189.00,0.0163
1188.00,0.0162
1187.00,0.0161
1186.00,0.0161
1185.00,0.0161
1184.00,0.0160
1183.00,0.0160
1182.00,0.0160
1181.00,0.0160
1180.00,0.0160
1179.00,0.0160
1178.00,0.0161
1177.00,0.0162
1176.00,0.0163
1175.00,0.0164
1174.00,0.0165
1173.00,0.0167
1172.00,0.0168
1171.00,0.0169
1170.00,0.0170
1169.00,0.0171
1168.00,0.0172
1167.00,0.0173
1166.00,0.0173
1165.00,0.0174
1164.00,0.0174
1163.00,0.0174
1162.00,0.0174
1161.00,0.0174
1160.00,0.0173
1159.00,0.0173
1158.00,0.0172
1157.00,0.0171
1156.00,0.0170
1155.00,0.0169
1154.00,0.0168
1153.00,0.0167
1152.00,0.0165
1151.00,0.0164
1150.00,0.0163
1149.00,0.0162
1148.00,0.0161
1147.00,0.0160
1146.00,0.0159
1145.00,0.0158
1144.00,0.0157
1143.00,0.0156
1142.00,0.0156
1141.00,0.0155
1140.00,0.0155
1139.00,0.0154
1138.00,0.0154
1137.00,0.0154
1136.00,0.0153
1135.00,0.0153
1134.00,0.0153
1133.00,0.0153
1132.00,0.0153
1131.00,0.0152
1130.00,0.0152
1129.00,0.0152
1128.00,0.0152
1127.00,0.0152
1126.00,0.0152
1125.00,0.0152
1124.00,0.0152
1123.00,0.0152
1122.00,0.0152
1121.00,0.0152
1120.00,0.0152
1119.00,0.0152
1118.00,0.0152
1117.00,0.0152
1116.00,0.0151
1115.00,0.0151
1114.00,0.0151
1113.00,0.0151
1112.00,0.0151
1111.00,0.0151
1110.00,0.0151
1109.00,0.0151
1108.00,0.0151
1107.00,0.0151
1106.00,0.0152
1105.00,0.0152
1104.00,0.0152
1103.00,0.0152
1102.00,0.0152
1101.00,0.0153
1100.00,0.0153
1099.00,0.0153
1098.00,0.0153
1097.00,0.0153
1096.00,0.0153
1095.00,0.0154
1094.00,0.0155
1093.00,0.0156
1092.00,0.0157
1091.00,0.0158
1090.00,0.0159
1089.00,0.0161
1088.00,0.0162
1087.00,0.0164
1086.00,0.0166
1085.00,0.0168
1084.00,0.0170
1083.00,0.0172
1082.00,0.0174
1081.00,0.0176
1080.00,0.0178
1079.00,0.0180
1078.00,0.0182
1077.00,0.0184
1076.00,0.0185
1075.00,0.0187
1074.00,0.0189
1073.00,0.0190
1072.00,0.0191
1071.00,0.0192
1070.00,0.0193
1069.00,0.0195
1068.00,0.0195
1067.00,0.0196
1066.00,0.0197
1065.00,0.0197
1064.00,0.0197
1063.00,0.0197
1062.00,0.0198
1061.00,0.0197
1060.00,0.0197
1059.00,0.0196
1058.00,0.0196
1057.00,0.0196
1056.00,0.0195
1055.00,0.0194
1054.00,0.0194
1053.00,0.0194
1052.00,0.0193
1051.00,0.0193
1050.00,0.0193
1049.00,0.0192
1048.00,0.0192
1047.00,0.0191
1046.00,0.0191
1045.00,0.0190
1044.00,0.0189
1043.00,0.0187
1042.00,0.0186
1041.00,0.0185
1040.00,0.0183
1039.00,0.0182
1038.00,0.0180
1037.00,0.0179
1036.00,0.0177
1035.00,0.0176
1034.00,0.0175
1033.00,0.0174
1032.00,0.0173
1031.00,0.0172
1030.00,0.0171
1029.00,0.0169
1028.00,0.0167
1027.00,0.0166
1026.00,0.0164
1025.00,0.0162
1024.00,0.0161
1023.00,0.0159
1022.00,0.0157
1021.00,0.0156
1020.00,0.0154
1019.00,0.0153
1018.00,0.0152
1017.00,0.0151
1016.00,0.0149
1015.00,0.0148
1014.00,0.0147
1013.00,0.0146
1012.00,0.0145
1011.00,0.0144
1010.00,0.0143
1009.00,0.0143
1008.00,0.0142
1007.00,0.0141
1006.00,0.0140
1005.00,0.0140
1004.00,0.0139
1003.00,0.0138
1002.00,0.0137
1001.00,0.0137
1000.00,0.0136
999.00,0.0135
998.00,0.0135
997.00,0.0135
996.00,0.0134
995.00,0.0133
994.00,0.0133
993.00,0.0133
992.00,0.0133
991.00,0.0132
990.00,0.0132
989.00,0.0131
988.00,0.0130
987.00,0.0130
986.00,0.0130
985.00,0.0129
984.00,0.0129
983.00,0.0129
982.00,0.0128
981.00,0.0128
980.00,0.0128
979.00,0.0128
978.00,0.0128
977.00,0.0128
976.00,0.0128
975.00,0.0127
974.00,0.0128
973.00,0.0128
972.00,0.0128
971.00,0.0128
970.00,0.0129
969.00,0.0129
968.00,0.0129
967.00,0.0130
966.00,0.0130
965.00,0.0130
964.00,0.0130
963.00,0.0130
962.00,0.0131
961.00,0.0130
960.00,0.0130
959.00,0.0129
958.00,0.0129
957.00,0.0129
956.00,0.0128
955.00,0.0127
954.00,0.0127
953.00,0.0127
952.00,0.0126
951.00,0.0125
950.00,0.0125
949.00,0.0125
948.00,0.0124
947.00,0.0124
946.00,0.0124
945.00,0.0124
944.00,0.0123
943.00,0.0123
942.00,0.0123
941.00,0.0123
940.00,0.0123
939.00,0.0122
938.00,0.0123
937.00,0.0123
936.00,0.0123
935.00,0.0123
934.00,0.0123
933.00,0.0123
932.00,0.0123
931.00,0.0123
930.00,0.0123
929.00,0.0123
928.00,0.0122
927.00,0.0122
926.00,0.0122
925.00,0.0121
924.00,0.0121
923.00,0.0120
922.00,0.0120
921.00,0.0119
920.00,0.0119
919.00,0.0118
918.00,0.0118
917.00,0.0118
916.00,0.0117
915.00,0.0116
914.00,0.0116
913.00,0.0116
912.00,0.0115
911.00,0.0115
910.00,0.0115
909.00,0.0116
908.00,0.0116
907.00,0.0116
906.00,0.0116
905.00,0.0116
904.00,0.0116
903.00,0.0116
902.00,0.0116
901.00,0.0116
900.00,0.0116
899.00,0.0116
898.00,0.0116
897.00,0.0116
896.00,0.0116
895.00,0.0115
894.00,0.0115
893.00,0.0115
892.00,0.0115
891.00,0.0114
890.00,0.0114
889.00,0.0113
888.00,0.0113
887.00,0.0112
886.00,0.0111
885.00,0.0111
884.00,0.0111
883.00,0.0111
882.00,0.0111
881.00,0.0111
880.00,0.0111
879.00,0.0111
878.00,0.0111
877.00,0.0111
876.00,0.0111
875.00,0.0111
874.00,0.0111
873.00,0.0110
872.00,0.0110
871.00,0.0109
870.00,0.0109
869.00,0.0109
868.00,0.0109
867.00,0.0108
866.00,0.0108
865.00,0.0108
864.00,0.0107
863.00,0.0106
862.00,0.0106
861.00,0.0106
860.00,0.0106
859.00,0.0105
858.00,0.0105
857.00,0.0105
856.00,0.0105
855.00,0.0105
854.00,0.0106
853.00,0.0106
852.00,0.0106
851.00,0.0106
850.00,0.0106
849.00,0.0106
848.00,0.0106
847.00,0.0106
846.00,0.0106
845.00,0.0106
844.00,0.0105
843.00,0.0106
842.00,0.0106
841.00,0.0106
840.00,0.0106
839.00,0.0106
838.00,0.0107
837.00,0.0108
836.00,0.0108
835.00,0.0108
834.00,0.0109
833.00,0.0109
832.00,0.0109
831.00,0.0109
830.00,0.0110
829.00,0.0111
828.00,0.0111
827.00,0.0111
826.00,0.0112
825.00,0.0113
824.00,0.0113
823.00,0.0113
822.00,0.0113
821.00,0.0113
820.00,0.0113
819.00,0.0113
818.00,0.0114
817.00,0.0115
816.00,0.0115
815.00,0.0115
814.00,0.0116
813.00,0.0116
812.00,0.0117
811.00,0.0117
810.00,0.0118
809.00,0.0118
808.00,0.0118
807.00,0.0118
806.00,0.0119
805.00,0.0120
804.00,0.0120
803.00,0.0120
802.00,0.0120
801.00,0.0121
800.00,0.0121
799.00,0.0121
798.00,0.0121
797.00,0.0122
796.00,0.0121
795.00,0.0122
794.00,0.0122
793.00,0.0123
792.00,0.0124
791.00,0.0124
790.00,0.0125
789.00,0.0127
788.00,0.0127
787.00,0.0128
786.00,0.0129
785.00,0.0130
784.00,0.0130
783.00,0.0131
782.00,0.0132
781.00,0.0133
780.00,0.0134
779.00,0.0135
778.00,0.0136
777.00,0.0137
776.00,0.0138
775.00,0.0139
774.00,0.0140
773.00,0.0141
772.00,0.0141
771.00,0.0142
770.00,0.0142
769.00,0.0143
768.00,0.0144
767.00,0.0144
766.00,0.0145
765.00,0.0146
764.00,0.0146
763.00,0.0147
762.00,0.0147
761.00,0.0148
760.00,0.0148
759.00,0.0149
758.00,0.0150
757.00,0.0151
756.00,0.0151
755.00,0.0152
754.00,0.0153
753.00,0.0154
752.00,0.0155
751.00,0.0155
750.00,0.0156
749.00,0.0157
748.00,0.0157
747.00,0.0158
746.00,0.0158
745.00,0.0159
744.00,0.0158
743.00,0.0158
742.00,0.0159
741.00,0.0159
740.00,0.0159
739.00,0.0159
738.00,0.0159
737.00,0.0159
736.00,0.0159
735.00,0.0160
734.00,0.0161
733.00,0.0162
732.00,0.0163
731.00,0.0163
730.00,0.0164
729.00,0.0166
728.00,0.0167
727.00,0.0168
726.00,0.0171
725.00,0.0173
724.00,0.0174
723.00,0.0176
722.00,0.0178
721.00,0.0180
720.00,0.0182
719.00,0.0184
718.00,0.0187
717.00,0.0189
716.00,0.0191
715.00,0.0193
714.00,0.0195
713.00,0.0196
712.00,0.0198
711.00,0.0199
710.00,0.0202
709.00,0.0205
708.00,0.0207
707.00,0.0210
706.00,0.0213
705.00,0.0215
704.00,0.0217
703.00,0.0219
702.00,0.0222
701.00,0.0224
700.00,0.0225
699.00,0.0226
698.00,0.0227
697.00,0.0228
696.00,0.0228
695.00,0.0227
694.00,0.0228
693.00,0.0228
692.00,0.0227
691.00,0.0227
690.00,0.0227
689.00,0.0228
688.00,0.0228
687.00,0.0228
686.00,0.0229
685.00,0.0230
684.00,0.0230
683.00,0.0231
682.00,0.0231
681.00,0.0232
680.00,0.0232
679.00,0.0232
678.00,0.0233
677.00,0.0234
676.00,0.0234
675.00,0.0234
674.00,0.0234
673.00,0.0235
672.00,0.0235
671.00,0.0235
670.00,0.0235
669.00,0.0233
668.00,0.0232
667.00,0.0232
666.00,0.0235
665.00,0.0237
664.00,0.0238
663.00,0.0239
662.00,0.0240
661.00,0.0241
660.00,0.0241
659.00,0.0241
658.00,0.0242
657.00,0.0243
656.00,0.0243
655.00,0.0243
654.00,0.0244
653.00,0.0244
652.00,0.0244
651.00,0.0245
650.00,0.0246
649.00,0.0246
648.00,0.0247
647.00,0.0247
646.00,0.0249
645.00,0.0250
644.00,0.0251
643.00,0.0251
642.00,0.0252
641.00,0.0253
640.00,0.0253
639.00,0.0253
638.00,0.0254
637.00,0.0255
636.00,0.0256
635.00,0.0257
634.00,0.0258
633.00,0.0260
632.00,0.0260
631.00,0.0260
630.00,0.0261
629.00,0.0262
628.00,0.0262
627.00,0.0262
626.00,0.0262
625.00,0.0263
624.00,0.0263
623.00,0.0263
622.00,0.0263
621.00,0.0264
620.00,0.0263
619.00,0.0263
618.00,0.0263
617.00,0.0264
616.00,0.0263
615.00,0.0263
614.00,0.0263
613.00,0.0264
612.00,0.0263
611.00,0.0262
610.00,0.0263
609.00,0.0262
608.00,0.0261
607.00,0.0260
606.00,0.0260
605.00,0.0261
604.00,0.0261
603.00,0.0261
602.00,0.0262
601.00,0.0262
600.00,0.0262
599.00,0.0261
598.00,0.0262
597.00,0.0262
596.00,0.0263
595.00,0.0263
594.00,0.0264
593.00,0.0264
592.00,0.0263
591.00,0.0262
590.00,0.0263
589.00,0.0264
588.00,0.0264
587.00,0.0264
586.00,0.0265
585.00,0.0266
584.00,0.0265
583.00,0.0265
582.00,0.0266
581.00,0.0267
580.00,0.0266
579.00,0.0266
578.00,0.0267
577.00,0.0268
576.00,0.0267
575.00,0.0266
574.00,0.0267
573.00,0.0268
572.00,0.0268
571.00,0.0268
570.00,0.0269
569.00,0.0270
568.00,0.0269
567.00,0.0269
566.00,0.0271
565.00,0.0272
564.00,0.0272
563.00,0.0272
562.00,0.0273
561.00,0.0274
560.00,0.0273
559.00,0.0272
558.00,0.0274
557.00,0.0275
556.00,0.0275
555.00,0.0274
554.00,0.0275
553.00,0.0276
552.00,0.0275
551.00,0.0275
550.00,0.0276
549.00,0.0276
548.00,0.0275
547.00,0.0275
546.00,0.0276
545.00,0.0278
544.00,0.0278
543.00,0.0277
542.00,0.0278
541.00,0.0278
540.00,0.0278
539.00,0.0278
538.00,0.0279
537.00,0.0279
536.00,0.0278
535.00,0.0278
534.00,0.0279
533.00,0.0281
532.00,0.0280
531.00,0.0281
530.00,0.0283
529.00,0.0284
528.00,0.0283
527.00,0.0282
526.00,0.0283
525.00,0.0284
524.00,0.0285
523.00,0.0286
522.00,0.0288
521.00,0.0289
520.00,0.0288
519.00,0.0287
518.00,0.0287
517.00,0.0287
516.00,0.0286
515.00,0.0285
514.00,0.0285
513.00,0.0285
512.00,0.0284
511.00,0.0283
510.00,0.0283
509.00,0.0283
508.00,0.0281
507.00,0.0279
506.00,0.0280
505.00,0.0280
504.00,0.0278
503.00,0.0277
502.00,0.0277
501.00,0.0278
500.00,0.0278
499.00,0.0278
498.00,0.0279
497.00,0.0279
496.00,0.0277
495.00,0.0276
494.00,0.0276
493.00,0.0278
492.00,0.0277
491.00,0.0277
490.00,0.0278
489.00,0.0280
488.00,0.0279
487.00,0.0278
486.00,0.0279
485.00,0.0279
484.00,0.0277
483.00,0.0276
482.00,0.0278
481.00,0.0279
480.00,0.0278
479.00,0.0276
478.00,0.0277
477.00,0.0278
476.00,0.0276
475.00,0.0274
474.00,0.0275
473.00,0.0275
472.00,0.0273
471.00,0.0273
470.00,0.0275
469.00,0.0277
468.00,0.0275
467.00,0.0273
466.00,0.0274
465.00,0.0275
464.00,0.0274
463.00,0.0272
462.00,0.0273
461.00,0.0272
460.00,0.0269
459.00,0.0267
458.00,0.0269
457.00,0.0270
456.00,0.0267
455.00,0.0266
454.00,0.0268
453.00,0.0269
452.00,0.0268
451.00,0.0266
450.00,0.0268
449.00,0.0269
448.00,0.0267
447.00,0.0264
446.00,0.0265
445.00,0.0264
444.00,0.0261
443.00,0.0257
442.00,0.0257
441.00,0.0255
440.00,0.0249
439.00,0.0246
438.00,0.0247
437.00,0.0250
436.00,0.0248
435.00,0.0246
434.00,0.0245
433.00,0.0243
432.00,0.0237
431.00,0.0233
430.00,0.0234
429.00,0.0235
428.00,0.0230
427.00,0.0227
426.00,0.0230
425.00,0.0233
424.00,0.0230
423.00,0.0225
422.00,0.0224
421.00,0.0224
420.00,0.0217
419.00,0.0211
418.00,0.0216
417.00,0.0221
416.00,0.0220
415.00,0.0218
414.00,0.0222
413.00,0.0224
412.00,0.0220
411.00,0.0219
410.00,0.0227
409.00,0.0233
408.00,0.0230
407.00,0.0225
406.00,0.0227
405.00,0.0227
404.00,0.0218
403.00,0.0209
402.00,0.0211
401.00,0.0215
400.00,0.0208
