Created as New Dataset,Sample 359 By YargerLab Date Wednesday, September 25 2024
cm-1,A
4000.00,0.0013
3999.00,0.0013
3998.00,0.0013
3997.00,0.0013
3996.00,0.0013
3995.00,0.0013
3994.00,0.0013
3993.00,0.0012
3992.00,0.0012
3991.00,0.0012
3990.00,0.0012
3989.00,0.0012
3988.00,0.0012
3987.00,0.0012
3986.00,0.0012
3985.00,0.0012
3984.00,0.0013
3983.00,0.0013
3982.00,0.0013
3981.00,0.0013
3980.00,0.0012
3979.00,0.0012
3978.00,0.0011
3977.00,0.0011
3976.00,0.0012
3975.00,0.0012
3974.00,0.0012
3973.00,0.0012
3972.00,0.0012
3971.00,0.0012
3970.00,0.0011
3969.00,0.0012
3968.00,0.0012
3967.00,0.0012
3966.00,0.0011
3965.00,0.0011
3964.00,0.0011
3963.00,0.0011
3962.00,0.0011
3961.00,0.0011
3960.00,0.0011
3959.00,0.0011
3958.00,0.0012
3957.00,0.0012
3956.00,0.0012
3955.00,0.0012
3954.00,0.0012
3953.00,0.0011
3952.00,0.0011
3951.00,0.0010
3950.00,0.0008
3949.00,0.0006
3948.00,0.0005
3947.00,0.0004
3946.00,0.0004
3945.00,0.0005
3944.00,0.0007
3943.00,0.0009
3942.00,0.0010
3941.00,0.0010
3940.00,0.0009
3939.00,0.0008
3938.00,0.0008
3937.00,0.0008
3936.00,0.0007
3935.00,0.0005
3934.00,0.0003
3933.00,0.0002
3932.00,0.0003
3931.00,0.0005
3930.00,0.0006
3929.00,0.0006
3928.00,0.0007
3927.00,0.0009
3926.00,0.0010
3925.00,0.0011
3924.00,0.0011
3923.00,0.0008
3922.00,0.0004
3921.00,0.0001
3920.00,-0.0001
3919.00,-0.0002
3918.00,-0.0003
3917.00,-0.0001
3916.00,0.0001
3915.00,0.0004
3914.00,0.0006
3913.00,0.0007
3912.00,0.0009
3911.00,0.0010
3910.00,0.0010
3909.00,0.0010
3908.00,0.0010
3907.00,0.0009
3906.00,0.0006
3905.00,0.0001
3904.00,-0.0006
3903.00,-0.0014
3902.00,-0.0019
3901.00,-0.0019
3900.00,-0.0014
3899.00,-0.0009
3898.00,-0.0005
3897.00,-0.0003
3896.00,-0.0002
3895.00,-0.0001
3894.00,0.0002
3893.00,0.0004
3892.00,0.0005
3891.00,0.0004
3890.00,0.0002
3889.00,-0.0002
3888.00,-0.0007
3887.00,-0.0010
3886.00,-0.0009
3885.00,-0.0006
3884.00,-0.0004
3883.00,-0.0005
3882.00,-0.0006
3881.00,-0.0006
3880.00,-0.0004
3879.00,-0.0003
3878.00,-0.0005
3877.00,-0.0006
3876.00,-0.0006
3875.00,-0.0004
3874.00,-0.0000
3873.00,-0.0000
3872.00,-0.0005
3871.00,-0.0011
3870.00,-0.0013
3869.00,-0.0012
3868.00,-0.0011
3867.00,-0.0014
3866.00,-0.0015
3865.00,-0.0013
3864.00,-0.0009
3863.00,-0.0009
3862.00,-0.0011
3861.00,-0.0013
3860.00,-0.0012
3859.00,-0.0008
3858.00,-0.0000
3857.00,0.0007
3856.00,0.0011
3855.00,0.0010
3854.00,0.0006
3853.00,0.0000
3852.00,-0.0005
3851.00,-0.0009
3850.00,-0.0012
3849.00,-0.0013
3848.00,-0.0012
3847.00,-0.0010
3846.00,-0.0009
3845.00,-0.0008
3844.00,-0.0008
3843.00,-0.0008
3842.00,-0.0010
3841.00,-0.0011
3840.00,-0.0012
3839.00,-0.0012
3838.00,-0.0011
3837.00,-0.0011
3836.00,-0.0010
3835.00,-0.0010
3834.00,-0.0010
3833.00,-0.0011
3832.00,-0.0011
3831.00,-0.0010
3830.00,-0.0008
3829.00,-0.0008
3828.00,-0.0007
3827.00,-0.0006
3826.00,-0.0004
3825.00,-0.0005
3824.00,-0.0010
3823.00,-0.0014
3822.00,-0.0015
3821.00,-0.0012
3820.00,-0.0010
3819.00,-0.0011
3818.00,-0.0014
3817.00,-0.0015
3816.00,-0.0011
3815.00,-0.0005
3814.00,-0.0001
3813.00,-0.0000
3812.00,-0.0000
3811.00,0.0001
3810.00,0.0002
3809.00,0.0001
3808.00,-0.0002
3807.00,-0.0004
3806.00,-0.0005
3805.00,-0.0007
3804.00,-0.0011
3803.00,-0.0013
3802.00,-0.0011
3801.00,-0.0007
3800.00,-0.0006
3799.00,-0.0008
3798.00,-0.0010
3797.00,-0.0010
3796.00,-0.0007
3795.00,-0.0003
3794.00,0.0000
3793.00,0.0002
3792.00,0.0005
3791.00,0.0007
3790.00,0.0009
3789.00,0.0010
3788.00,0.0010
3787.00,0.0009
3786.00,0.0009
3785.00,0.0009
3784.00,0.0008
3783.00,0.0006
3782.00,0.0003
3781.00,0.0002
3780.00,0.0002
3779.00,0.0004
3778.00,0.0004
3777.00,0.0004
3776.00,0.0004
3775.00,0.0004
3774.00,0.0005
3773.00,0.0004
3772.00,0.0002
3771.00,-0.0001
3770.00,-0.0002
3769.00,-0.0003
3768.00,-0.0005
3767.00,-0.0007
3766.00,-0.0008
3765.00,-0.0006
3764.00,-0.0005
3763.00,-0.0006
3762.00,-0.0008
3761.00,-0.0009
3760.00,-0.0008
3759.00,-0.0008
3758.00,-0.0010
3757.00,-0.0012
3756.00,-0.0014
3755.00,-0.0016
3754.00,-0.0020
3753.00,-0.0023
3752.00,-0.0026
3751.00,-0.0031
3750.00,-0.0037
3749.00,-0.0038
3748.00,-0.0036
3747.00,-0.0035
3746.00,-0.0036
3745.00,-0.0036
3744.00,-0.0032
3743.00,-0.0028
3742.00,-0.0029
3741.00,-0.0033
3740.00,-0.0038
3739.00,-0.0041
3738.00,-0.0044
3737.00,-0.0045
3736.00,-0.0042
3735.00,-0.0038
3734.00,-0.0036
3733.00,-0.0036
3732.00,-0.0033
3731.00,-0.0027
3730.00,-0.0022
3729.00,-0.0020
3728.00,-0.0020
3727.00,-0.0019
3726.00,-0.0017
3725.00,-0.0014
3724.00,-0.0014
3723.00,-0.0013
3722.00,-0.0011
3721.00,-0.0009
3720.00,-0.0007
3719.00,-0.0006
3718.00,-0.0006
3717.00,-0.0005
3716.00,-0.0006
3715.00,-0.0008
3714.00,-0.0011
3713.00,-0.0013
3712.00,-0.0012
3711.00,-0.0013
3710.00,-0.0014
3709.00,-0.0014
3708.00,-0.0013
3707.00,-0.0010
3706.00,-0.0007
3705.00,-0.0004
3704.00,-0.0002
3703.00,0.0000
3702.00,0.0003
3701.00,0.0004
3700.00,0.0004
3699.00,0.0003
3698.00,0.0002
3697.00,0.0002
3696.00,0.0003
3695.00,0.0003
3694.00,0.0001
3693.00,-0.0000
3692.00,0.0000
3691.00,0.0001
3690.00,-0.0001
3689.00,-0.0006
3688.00,-0.0010
3687.00,-0.0009
3686.00,-0.0007
3685.00,-0.0005
3684.00,-0.0004
3683.00,-0.0003
3682.00,-0.0002
3681.00,-0.0001
3680.00,0.0001
3679.00,0.0001
3678.00,-0.0003
3677.00,-0.0008
3676.00,-0.0011
3675.00,-0.0010
3674.00,-0.0010
3673.00,-0.0012
3672.00,-0.0015
3671.00,-0.0013
3670.00,-0.0007
3669.00,-0.0001
3668.00,0.0002
3667.00,0.0004
3666.00,0.0006
3665.00,0.0009
3664.00,0.0013
3663.00,0.0016
3662.00,0.0018
3661.00,0.0019
3660.00,0.0019
3659.00,0.0017
3658.00,0.0014
3657.00,0.0011
3656.00,0.0009
3655.00,0.0007
3654.00,0.0003
3653.00,-0.0003
3652.00,-0.0009
3651.00,-0.0013
3650.00,-0.0015
3649.00,-0.0018
3648.00,-0.0019
3647.00,-0.0016
3646.00,-0.0011
3645.00,-0.0006
3644.00,-0.0002
3643.00,0.0003
3642.00,0.0008
3641.00,0.0012
3640.00,0.0014
3639.00,0.0014
3638.00,0.0014
3637.00,0.0013
3636.00,0.0010
3635.00,0.0007
3634.00,0.0005
3633.00,0.0003
3632.00,-0.0001
3631.00,-0.0007
3630.00,-0.0012
3629.00,-0.0013
3628.00,-0.0013
3627.00,-0.0013
3626.00,-0.0013
3625.00,-0.0012
3624.00,-0.0010
3623.00,-0.0007
3622.00,-0.0005
3621.00,-0.0003
3620.00,-0.0001
3619.00,-0.0002
3618.00,-0.0005
3617.00,-0.0009
3616.00,-0.0013
3615.00,-0.0015
3614.00,-0.0015
3613.00,-0.0015
3612.00,-0.0016
3611.00,-0.0019
3610.00,-0.0020
3609.00,-0.0018
3608.00,-0.0012
3607.00,-0.0007
3606.00,-0.0004
3605.00,-0.0002
3604.00,-0.0000
3603.00,0.0002
3602.00,0.0004
3601.00,0.0005
3600.00,0.0005
3599.00,0.0004
3598.00,0.0003
3597.00,0.0002
3596.00,0.0002
3595.00,0.0003
3594.00,0.0003
3593.00,0.0002
3592.00,-0.0000
3591.00,-0.0003
3590.00,-0.0006
3589.00,-0.0006
3588.00,-0.0003
3587.00,-0.0000
3586.00,0.0000
3585.00,0.0001
3584.00,0.0002
3583.00,0.0005
3582.00,0.0008
3581.00,0.0012
3580.00,0.0015
3579.00,0.0016
3578.00,0.0017
3577.00,0.0018
3576.00,0.0018
3575.00,0.0018
3574.00,0.0017
3573.00,0.0016
3572.00,0.0014
3571.00,0.0011
3570.00,0.0007
3569.00,0.0003
3568.00,0.0002
3567.00,0.0003
3566.00,0.0004
3565.00,0.0005
3564.00,0.0006
3563.00,0.0008
3562.00,0.0011
3561.00,0.0015
3560.00,0.0018
3559.00,0.0020
3558.00,0.0021
3557.00,0.0021
3556.00,0.0022
3555.00,0.0022
3554.00,0.0022
3553.00,0.0023
3552.00,0.0022
3551.00,0.0021
3550.00,0.0018
3549.00,0.0015
3548.00,0.0014
3547.00,0.0013
3546.00,0.0015
3545.00,0.0016
3544.00,0.0018
3543.00,0.0020
3542.00,0.0022
3541.00,0.0024
3540.00,0.0026
3539.00,0.0027
3538.00,0.0028
3537.00,0.0029
3536.00,0.0030
3535.00,0.0030
3534.00,0.0030
3533.00,0.0030
3532.00,0.0030
3531.00,0.0030
3530.00,0.0030
3529.00,0.0029
3528.00,0.0028
3527.00,0.0026
3526.00,0.0024
3525.00,0.0024
3524.00,0.0025
3523.00,0.0027
3522.00,0.0030
3521.00,0.0031
3520.00,0.0032
3519.00,0.0033
3518.00,0.0035
3517.00,0.0036
3516.00,0.0036
3515.00,0.0036
3514.00,0.0037
3513.00,0.0037
3512.00,0.0037
3511.00,0.0037
3510.00,0.0037
3509.00,0.0037
3508.00,0.0037
3507.00,0.0036
3506.00,0.0035
3505.00,0.0035
3504.00,0.0035
3503.00,0.0036
3502.00,0.0036
3501.00,0.0036
3500.00,0.0037
3499.00,0.0038
3498.00,0.0039
3497.00,0.0041
3496.00,0.0042
3495.00,0.0043
3494.00,0.0043
3493.00,0.0044
3492.00,0.0044
3491.00,0.0045
3490.00,0.0045
3489.00,0.0045
3488.00,0.0046
3487.00,0.0046
3486.00,0.0046
3485.00,0.0046
3484.00,0.0047
3483.00,0.0047
3482.00,0.0048
3481.00,0.0048
3480.00,0.0048
3479.00,0.0048
3478.00,0.0049
3477.00,0.0051
3476.00,0.0052
3475.00,0.0053
3474.00,0.0054
3473.00,0.0054
3472.00,0.0054
3471.00,0.0054
3470.00,0.0054
3469.00,0.0054
3468.00,0.0055
3467.00,0.0055
3466.00,0.0056
3465.00,0.0057
3464.00,0.0058
3463.00,0.0058
3462.00,0.0059
3461.00,0.0059
3460.00,0.0059
3459.00,0.0060
3458.00,0.0061
3457.00,0.0062
3456.00,0.0063
3455.00,0.0063
3454.00,0.0064
3453.00,0.0064
3452.00,0.0064
3451.00,0.0064
3450.00,0.0064
3449.00,0.0065
3448.00,0.0065
3447.00,0.0065
3446.00,0.0065
3445.00,0.0065
3444.00,0.0065
3443.00,0.0066
3442.00,0.0067
3441.00,0.0068
3440.00,0.0068
3439.00,0.0069
3438.00,0.0069
3437.00,0.0070
3436.00,0.0070
3435.00,0.0071
3434.00,0.0071
3433.00,0.0072
3432.00,0.0072
3431.00,0.0073
3430.00,0.0073
3429.00,0.0074
3428.00,0.0075
3427.00,0.0075
3426.00,0.0076
3425.00,0.0076
3424.00,0.0077
3423.00,0.0077
3422.00,0.0078
3421.00,0.0078
3420.00,0.0079
3419.00,0.0079
3418.00,0.0079
3417.00,0.0080
3416.00,0.0080
3415.00,0.0081
3414.00,0.0081
3413.00,0.0082
3412.00,0.0083
3411.00,0.0083
3410.00,0.0084
3409.00,0.0084
3408.00,0.0085
3407.00,0.0085
3406.00,0.0086
3405.00,0.0086
3404.00,0.0087
3403.00,0.0087
3402.00,0.0087
3401.00,0.0088
3400.00,0.0088
3399.00,0.0088
3398.00,0.0089
3397.00,0.0089
3396.00,0.0089
3395.00,0.0089
3394.00,0.0089
3393.00,0.0090
3392.00,0.0091
3391.00,0.0091
3390.00,0.0092
3389.00,0.0093
3388.00,0.0094
3387.00,0.0095
3386.00,0.0096
3385.00,0.0097
3384.00,0.0097
3383.00,0.0097
3382.00,0.0097
3381.00,0.0098
3380.00,0.0098
3379.00,0.0099
3378.00,0.0100
3377.00,0.0100
3376.00,0.0101
3375.00,0.0102
3374.00,0.0103
3373.00,0.0103
3372.00,0.0103
3371.00,0.0104
3370.00,0.0104
3369.00,0.0105
3368.00,0.0105
3367.00,0.0106
3366.00,0.0107
3365.00,0.0108
3364.00,0.0109
3363.00,0.0109
3362.00,0.0110
3361.00,0.0111
3360.00,0.0112
3359.00,0.0114
3358.00,0.0115
3357.00,0.0116
3356.00,0.0117
3355.00,0.0118
3354.00,0.0118
3353.00,0.0119
3352.00,0.0120
3351.00,0.0121
3350.00,0.0122
3349.00,0.0123
3348.00,0.0124
3347.00,0.0125
3346.00,0.0126
3345.00,0.0127
3344.00,0.0128
3343.00,0.0128
3342.00,0.0129
3341.00,0.0130
3340.00,0.0131
3339.00,0.0132
3338.00,0.0133
3337.00,0.0134
3336.00,0.0136
3335.00,0.0137
3334.00,0.0138
3333.00,0.0140
3332.00,0.0141
3331.00,0.0142
3330.00,0.0143
3329.00,0.0144
3328.00,0.0144
3327.00,0.0145
3326.00,0.0145
3325.00,0.0146
3324.00,0.0148
3323.00,0.0149
3322.00,0.0151
3321.00,0.0152
3320.00,0.0154
3319.00,0.0155
3318.00,0.0156
3317.00,0.0157
3316.00,0.0158
3315.00,0.0159
3314.00,0.0160
3313.00,0.0161
3312.00,0.0162
3311.00,0.0162
3310.00,0.0163
3309.00,0.0164
3308.00,0.0166
3307.00,0.0168
3306.00,0.0169
3305.00,0.0171
3304.00,0.0172
3303.00,0.0174
3302.00,0.0176
3301.00,0.0178
3300.00,0.0179
3299.00,0.0180
3298.00,0.0181
3297.00,0.0182
3296.00,0.0183
3295.00,0.0184
3294.00,0.0185
3293.00,0.0186
3292.00,0.0188
3291.00,0.0190
3290.00,0.0191
3289.00,0.0193
3288.00,0.0195
3287.00,0.0196
3286.00,0.0197
3285.00,0.0198
3284.00,0.0199
3283.00,0.0200
3282.00,0.0201
3281.00,0.0201
3280.00,0.0202
3279.00,0.0202
3278.00,0.0202
3277.00,0.0201
3276.00,0.0201
3275.00,0.0201
3274.00,0.0201
3273.00,0.0201
3272.00,0.0200
3271.00,0.0200
3270.00,0.0201
3269.00,0.0201
3268.00,0.0201
3267.00,0.0201
3266.00,0.0200
3265.00,0.0200
3264.00,0.0199
3263.00,0.0198
3262.00,0.0197
3261.00,0.0196
3260.00,0.0194
3259.00,0.0193
3258.00,0.0191
3257.00,0.0189
3256.00,0.0188
3255.00,0.0187
3254.00,0.0186
3253.00,0.0185
3252.00,0.0184
3251.00,0.0182
3250.00,0.0181
3249.00,0.0179
3248.00,0.0178
3247.00,0.0176
3246.00,0.0175
3245.00,0.0174
3244.00,0.0174
3243.00,0.0173
3242.00,0.0173
3241.00,0.0172
3240.00,0.0171
3239.00,0.0170
3238.00,0.0169
3237.00,0.0168
3236.00,0.0166
3235.00,0.0165
3234.00,0.0163
3233.00,0.0163
3232.00,0.0162
3231.00,0.0162
3230.00,0.0162
3229.00,0.0162
3228.00,0.0162
3227.00,0.0161
3226.00,0.0161
3225.00,0.0160
3224.00,0.0159
3223.00,0.0158
3222.00,0.0157
3221.00,0.0156
3220.00,0.0156
3219.00,0.0155
3218.00,0.0154
3217.00,0.0153
3216.00,0.0153
3215.00,0.0152
3214.00,0.0152
3213.00,0.0152
3212.00,0.0151
3211.00,0.0151
3210.00,0.0151
3209.00,0.0150
3208.00,0.0150
3207.00,0.0149
3206.00,0.0149
3205.00,0.0149
3204.00,0.0148
3203.00,0.0148
3202.00,0.0147
3201.00,0.0147
3200.00,0.0146
3199.00,0.0146
3198.00,0.0145
3197.00,0.0144
3196.00,0.0144
3195.00,0.0143
3194.00,0.0143
3193.00,0.0142
3192.00,0.0142
3191.00,0.0141
3190.00,0.0141
3189.00,0.0140
3188.00,0.0140
3187.00,0.0139
3186.00,0.0139
3185.00,0.0138
3184.00,0.0137
3183.00,0.0137
3182.00,0.0136
3181.00,0.0135
3180.00,0.0134
3179.00,0.0133
3178.00,0.0133
3177.00,0.0132
3176.00,0.0132
3175.00,0.0131
3174.00,0.0131
3173.00,0.0130
3172.00,0.0130
3171.00,0.0129
3170.00,0.0129
3169.00,0.0128
3168.00,0.0127
3167.00,0.0127
3166.00,0.0126
3165.00,0.0125
3164.00,0.0124
3163.00,0.0123
3162.00,0.0123
3161.00,0.0122
3160.00,0.0122
3159.00,0.0121
3158.00,0.0120
3157.00,0.0119
3156.00,0.0118
3155.00,0.0117
3154.00,0.0116
3153.00,0.0115
3152.00,0.0115
3151.00,0.0115
3150.00,0.0114
3149.00,0.0114
3148.00,0.0114
3147.00,0.0114
3146.00,0.0114
3145.00,0.0113
3144.00,0.0113
3143.00,0.0112
3142.00,0.0111
3141.00,0.0110
3140.00,0.0109
3139.00,0.0109
3138.00,0.0109
3137.00,0.0109
3136.00,0.0109
3135.00,0.0108
3134.00,0.0108
3133.00,0.0107
3132.00,0.0106
3131.00,0.0106
3130.00,0.0105
3129.00,0.0105
3128.00,0.0106
3127.00,0.0106
3126.00,0.0105
3125.00,0.0105
3124.00,0.0104
3123.00,0.0103
3122.00,0.0102
3121.00,0.0102
3120.00,0.0102
3119.00,0.0101
3118.00,0.0101
3117.00,0.0101
3116.00,0.0101
3115.00,0.0101
3114.00,0.0101
3113.00,0.0102
3112.00,0.0102
3111.00,0.0102
3110.00,0.0102
3109.00,0.0102
3108.00,0.0102
3107.00,0.0103
3106.00,0.0103
3105.00,0.0104
3104.00,0.0104
3103.00,0.0103
3102.00,0.0103
3101.00,0.0102
3100.00,0.0102
3099.00,0.0103
3098.00,0.0103
3097.00,0.0104
3096.00,0.0105
3095.00,0.0105
3094.00,0.0105
3093.00,0.0105
3092.00,0.0105
3091.00,0.0104
3090.00,0.0105
3089.00,0.0105
3088.00,0.0105
3087.00,0.0105
3086.00,0.0105
3085.00,0.0106
3084.00,0.0106
3083.00,0.0106
3082.00,0.0106
3081.00,0.0105
3080.00,0.0105
3079.00,0.0106
3078.00,0.0106
3077.00,0.0106
3076.00,0.0107
3075.00,0.0108
3074.00,0.0109
3073.00,0.0109
3072.00,0.0109
3071.00,0.0109
3070.00,0.0108
3069.00,0.0108
3068.00,0.0107
3067.00,0.0107
3066.00,0.0107
3065.00,0.0107
3064.00,0.0107
3063.00,0.0108
3062.00,0.0108
3061.00,0.0108
3060.00,0.0108
3059.00,0.0108
3058.00,0.0107
3057.00,0.0106
3056.00,0.0105
3055.00,0.0105
3054.00,0.0105
3053.00,0.0105
3052.00,0.0104
3051.00,0.0104
3050.00,0.0104
3049.00,0.0103
3048.00,0.0103
3047.00,0.0102
3046.00,0.0102
3045.00,0.0101
3044.00,0.0101
3043.00,0.0100
3042.00,0.0100
3041.00,0.0100
3040.00,0.0100
3039.00,0.0100
3038.00,0.0099
3037.00,0.0098
3036.00,0.0097
3035.00,0.0096
3034.00,0.0096
3033.00,0.0095
3032.00,0.0095
3031.00,0.0095
3030.00,0.0096
3029.00,0.0096
3028.00,0.0096
3027.00,0.0096
3026.00,0.0096
3025.00,0.0095
3024.00,0.0095
3023.00,0.0095
3022.00,0.0095
3021.00,0.0094
3020.00,0.0094
3019.00,0.0094
3018.00,0.0094
3017.00,0.0095
3016.00,0.0095
3015.00,0.0096
3014.00,0.0097
3013.00,0.0098
3012.00,0.0100
3011.00,0.0102
3010.00,0.0105
3009.00,0.0109
3008.00,0.0112
3007.00,0.0116
3006.00,0.0119
3005.00,0.0123
3004.00,0.0127
3003.00,0.0130
3002.00,0.0134
3001.00,0.0137
3000.00,0.0141
2999.00,0.0144
2998.00,0.0147
2997.00,0.0149
2996.00,0.0152
2995.00,0.0154
2994.00,0.0156
2993.00,0.0158
2992.00,0.0161
2991.00,0.0163
2990.00,0.0166
2989.00,0.0169
2988.00,0.0172
2987.00,0.0176
2986.00,0.0182
2985.00,0.0191
2984.00,0.0202
2983.00,0.0214
2982.00,0.0222
2981.00,0.0225
2980.00,0.0223
2979.00,0.0218
2978.00,0.0213
2977.00,0.0207
2976.00,0.0204
2975.00,0.0202
2974.00,0.0203
2973.00,0.0205
2972.00,0.0207
2971.00,0.0207
2970.00,0.0204
2969.00,0.0199
2968.00,0.0194
2967.00,0.0189
2966.00,0.0185
2965.00,0.0181
2964.00,0.0177
2963.00,0.0174
2962.00,0.0170
2961.00,0.0167
2960.00,0.0164
2959.00,0.0162
2958.00,0.0159
2957.00,0.0156
2956.00,0.0154
2955.00,0.0151
2954.00,0.0149
2953.00,0.0147
2952.00,0.0146
2951.00,0.0145
2950.00,0.0144
2949.00,0.0143
2948.00,0.0142
2947.00,0.0140
2946.00,0.0138
2945.00,0.0136
2944.00,0.0135
2943.00,0.0134
2942.00,0.0134
2941.00,0.0134
2940.00,0.0133
2939.00,0.0133
2938.00,0.0132
2937.00,0.0130
2936.00,0.0129
2935.00,0.0127
2934.00,0.0126
2933.00,0.0123
2932.00,0.0121
2931.00,0.0118
2930.00,0.0114
2929.00,0.0110
2928.00,0.0105
2927.00,0.0099
2926.00,0.0092
2925.00,0.0085
2924.00,0.0076
2923.00,0.0066
2922.00,0.0055
2921.00,0.0043
2920.00,0.0031
2919.00,0.0019
2918.00,0.0010
2917.00,0.0005
2916.00,0.0005
2915.00,0.0012
2914.00,0.0024
2913.00,0.0039
2912.00,0.0053
2911.00,0.0066
2910.00,0.0076
2909.00,0.0084
2908.00,0.0090
2907.00,0.0094
2906.00,0.0097
2905.00,0.0100
2904.00,0.0102
2903.00,0.0103
2902.00,0.0104
2901.00,0.0106
2900.00,0.0106
2899.00,0.0107
2898.00,0.0108
2897.00,0.0108
2896.00,0.0109
2895.00,0.0111
2894.00,0.0112
2893.00,0.0114
2892.00,0.0116
2891.00,0.0117
2890.00,0.0118
2889.00,0.0119
2888.00,0.0120
2887.00,0.0121
2886.00,0.0122
2885.00,0.0122
2884.00,0.0123
2883.00,0.0123
2882.00,0.0122
2881.00,0.0121
2880.00,0.0119
2879.00,0.0118
2878.00,0.0116
2877.00,0.0115
2876.00,0.0114
2875.00,0.0113
2874.00,0.0112
2873.00,0.0112
2872.00,0.0111
2871.00,0.0111
2870.00,0.0110
2869.00,0.0109
2868.00,0.0107
2867.00,0.0106
2866.00,0.0104
2865.00,0.0102
2864.00,0.0100
2863.00,0.0097
2862.00,0.0094
2861.00,0.0091
2860.00,0.0088
2859.00,0.0085
2858.00,0.0081
2857.00,0.0077
2856.00,0.0072
2855.00,0.0066
2854.00,0.0057
2853.00,0.0046
2852.00,0.0033
2851.00,0.0019
2850.00,0.0008
2849.00,0.0003
2848.00,0.0006
2847.00,0.0016
2846.00,0.0029
2845.00,0.0042
2844.00,0.0052
2843.00,0.0060
2842.00,0.0065
2841.00,0.0069
2840.00,0.0071
2839.00,0.0072
2838.00,0.0074
2837.00,0.0075
2836.00,0.0076
2835.00,0.0076
2834.00,0.0077
2833.00,0.0077
2832.00,0.0078
2831.00,0.0078
2830.00,0.0078
2829.00,0.0078
2828.00,0.0078
2827.00,0.0078
2826.00,0.0078
2825.00,0.0078
2824.00,0.0078
2823.00,0.0078
2822.00,0.0077
2821.00,0.0078
2820.00,0.0077
2819.00,0.0077
2818.00,0.0077
2817.00,0.0077
2816.00,0.0077
2815.00,0.0076
2814.00,0.0076
2813.00,0.0076
2812.00,0.0075
2811.00,0.0075
2810.00,0.0075
2809.00,0.0075
2808.00,0.0075
2807.00,0.0075
2806.00,0.0075
2805.00,0.0075
2804.00,0.0074
2803.00,0.0074
2802.00,0.0074
2801.00,0.0073
2800.00,0.0073
2799.00,0.0073
2798.00,0.0073
2797.00,0.0073
2796.00,0.0073
2795.00,0.0073
2794.00,0.0073
2793.00,0.0073
2792.00,0.0072
2791.00,0.0072
2790.00,0.0072
2789.00,0.0072
2788.00,0.0072
2787.00,0.0072
2786.00,0.0072
2785.00,0.0072
2784.00,0.0072
2783.00,0.0072
2782.00,0.0072
2781.00,0.0072
2780.00,0.0071
2779.00,0.0071
2778.00,0.0071
2777.00,0.0070
2776.00,0.0070
2775.00,0.0070
2774.00,0.0069
2773.00,0.0069
2772.00,0.0070
2771.00,0.0070
2770.00,0.0070
2769.00,0.0070
2768.00,0.0070
2767.00,0.0069
2766.00,0.0069
2765.00,0.0069
2764.00,0.0069
2763.00,0.0069
2762.00,0.0069
2761.00,0.0069
2760.00,0.0068
2759.00,0.0068
2758.00,0.0068
2757.00,0.0068
2756.00,0.0068
2755.00,0.0068
2754.00,0.0067
2753.00,0.0067
2752.00,0.0067
2751.00,0.0066
2750.00,0.0066
2749.00,0.0066
2748.00,0.0066
2747.00,0.0066
2746.00,0.0066
2745.00,0.0066
2744.00,0.0066
2743.00,0.0066
2742.00,0.0066
2741.00,0.0066
2740.00,0.0066
2739.00,0.0065
2738.00,0.0065
2737.00,0.0065
2736.00,0.0065
2735.00,0.0065
2734.00,0.0065
2733.00,0.0065
2732.00,0.0065
2731.00,0.0064
2730.00,0.0064
2729.00,0.0064
2728.00,0.0063
2727.00,0.0063
2726.00,0.0063
2725.00,0.0063
2724.00,0.0063
2723.00,0.0063
2722.00,0.0063
2721.00,0.0063
2720.00,0.0063
2719.00,0.0063
2718.00,0.0062
2717.00,0.0062
2716.00,0.0062
2715.00,0.0062
2714.00,0.0061
2713.00,0.0061
2712.00,0.0061
2711.00,0.0061
2710.00,0.0061
2709.00,0.0061
2708.00,0.0061
2707.00,0.0061
2706.00,0.0060
2705.00,0.0060
2704.00,0.0060
2703.00,0.0060
2702.00,0.0060
2701.00,0.0060
2700.00,0.0060
2699.00,0.0060
2698.00,0.0060
2697.00,0.0060
2696.00,0.0060
2695.00,0.0060
2694.00,0.0059
2693.00,0.0059
2692.00,0.0059
2691.00,0.0059
2690.00,0.0059
2689.00,0.0059
2688.00,0.0059
2687.00,0.0059
2686.00,0.0059
2685.00,0.0059
2684.00,0.0059
2683.00,0.0058
2682.00,0.0058
2681.00,0.0058
2680.00,0.0058
2679.00,0.0058
2678.00,0.0058
2677.00,0.0058
2676.00,0.0058
2675.00,0.0058
2674.00,0.0058
2673.00,0.0058
2672.00,0.0058
2671.00,0.0058
2670.00,0.0058
2669.00,0.0058
2668.00,0.0058
2667.00,0.0058
2666.00,0.0058
2665.00,0.0058
2664.00,0.0058
2663.00,0.0058
2662.00,0.0058
2661.00,0.0058
2660.00,0.0058
2659.00,0.0057
2658.00,0.0057
2657.00,0.0057
2656.00,0.0057
2655.00,0.0057
2654.00,0.0057
2653.00,0.0057
2652.00,0.0057
2651.00,0.0057
2650.00,0.0057
2649.00,0.0057
2648.00,0.0057
2647.00,0.0057
2646.00,0.0057
2645.00,0.0057
2644.00,0.0057
2643.00,0.0057
2642.00,0.0057
2641.00,0.0057
2640.00,0.0057
2639.00,0.0057
2638.00,0.0057
2637.00,0.0057
2636.00,0.0057
2635.00,0.0057
2634.00,0.0057
2633.00,0.0057
2632.00,0.0057
2631.00,0.0057
2630.00,0.0057
2629.00,0.0057
2628.00,0.0057
2627.00,0.0057
2626.00,0.0057
2625.00,0.0057
2624.00,0.0057
2623.00,0.0057
2622.00,0.0057
2621.00,0.0057
2620.00,0.0057
2619.00,0.0057
2618.00,0.0057
2617.00,0.0057
2616.00,0.0057
2615.00,0.0057
2614.00,0.0057
2613.00,0.0057
2612.00,0.0057
2611.00,0.0057
2610.00,0.0057
2609.00,0.0057
2608.00,0.0057
2607.00,0.0057
2606.00,0.0057
2605.00,0.0057
2604.00,0.0057
2603.00,0.0057
2602.00,0.0057
2601.00,0.0056
2600.00,0.0056
2599.00,0.0056
2598.00,0.0056
2597.00,0.0056
2596.00,0.0056
2595.00,0.0056
2594.00,0.0056
2593.00,0.0056
2592.00,0.0056
2591.00,0.0056
2590.00,0.0055
2589.00,0.0055
2588.00,0.0055
2587.00,0.0055
2586.00,0.0055
2585.00,0.0055
2584.00,0.0056
2583.00,0.0056
2582.00,0.0056
2581.00,0.0055
2580.00,0.0055
2579.00,0.0055
2578.00,0.0055
2577.00,0.0055
2576.00,0.0055
2575.00,0.0055
2574.00,0.0055
2573.00,0.0055
2572.00,0.0055
2571.00,0.0055
2570.00,0.0055
2569.00,0.0055
2568.00,0.0055
2567.00,0.0055
2566.00,0.0054
2565.00,0.0054
2564.00,0.0054
2563.00,0.0054
2562.00,0.0054
2561.00,0.0055
2560.00,0.0055
2559.00,0.0055
2558.00,0.0054
2557.00,0.0054
2556.00,0.0054
2555.00,0.0054
2554.00,0.0054
2553.00,0.0054
2552.00,0.0054
2551.00,0.0054
2550.00,0.0054
2549.00,0.0054
2548.00,0.0054
2547.00,0.0054
2546.00,0.0054
2545.00,0.0054
2544.00,0.0054
2543.00,0.0054
2542.00,0.0054
2541.00,0.0054
2540.00,0.0054
2539.00,0.0054
2538.00,0.0054
2537.00,0.0054
2536.00,0.0054
2535.00,0.0054
2534.00,0.0054
2533.00,0.0054
2532.00,0.0054
2531.00,0.0054
2530.00,0.0054
2529.00,0.0054
2528.00,0.0054
2527.00,0.0054
2526.00,0.0054
2525.00,0.0054
2524.00,0.0054
2523.00,0.0054
2522.00,0.0053
2521.00,0.0053
2520.00,0.0053
2519.00,0.0053
2518.00,0.0053
2517.00,0.0053
2516.00,0.0053
2515.00,0.0053
2514.00,0.0053
2513.00,0.0053
2512.00,0.0053
2511.00,0.0053
2510.00,0.0053
2509.00,0.0053
2508.00,0.0053
2507.00,0.0053
2506.00,0.0053
2505.00,0.0053
2504.00,0.0053
2503.00,0.0053
2502.00,0.0053
2501.00,0.0053
2500.00,0.0053
2499.00,0.0053
2498.00,0.0053
2497.00,0.0053
2496.00,0.0053
2495.00,0.0053
2494.00,0.0053
2493.00,0.0053
2492.00,0.0053
2491.00,0.0053
2490.00,0.0052
2489.00,0.0052
2488.00,0.0053
2487.00,0.0052
2486.00,0.0052
2485.00,0.0052
2484.00,0.0052
2483.00,0.0052
2482.00,0.0052
2481.00,0.0052
2480.00,0.0052
2479.00,0.0052
2478.00,0.0052
2477.00,0.0052
2476.00,0.0051
2475.00,0.0051
2474.00,0.0051
2473.00,0.0051
2472.00,0.0051
2471.00,0.0051
2470.00,0.0051
2469.00,0.0051
2468.00,0.0051
2467.00,0.0051
2466.00,0.0051
2465.00,0.0051
2464.00,0.0051
2463.00,0.0051
2462.00,0.0051
2461.00,0.0050
2460.00,0.0050
2459.00,0.0050
2458.00,0.0050
2457.00,0.0050
2456.00,0.0050
2455.00,0.0050
2454.00,0.0050
2453.00,0.0050
2452.00,0.0050
2451.00,0.0050
2450.00,0.0050
2449.00,0.0050
2448.00,0.0050
2447.00,0.0050
2446.00,0.0050
2445.00,0.0050
2444.00,0.0050
2443.00,0.0050
2442.00,0.0050
2441.00,0.0050
2440.00,0.0049
2439.00,0.0049
2438.00,0.0049
2437.00,0.0049
2436.00,0.0049
2435.00,0.0049
2434.00,0.0049
2433.00,0.0049
2432.00,0.0049
2431.00,0.0049
2430.00,0.0049
2429.00,0.0048
2428.00,0.0048
2427.00,0.0048
2426.00,0.0048
2425.00,0.0048
2424.00,0.0048
2423.00,0.0048
2422.00,0.0048
2421.00,0.0048
2420.00,0.0048
2419.00,0.0048
2418.00,0.0048
2417.00,0.0048
2416.00,0.0048
2415.00,0.0048
2414.00,0.0048
2413.00,0.0048
2412.00,0.0048
2411.00,0.0048
2410.00,0.0048
2409.00,0.0048
2408.00,0.0048
2407.00,0.0048
2406.00,0.0047
2405.00,0.0047
2404.00,0.0047
2403.00,0.0047
2402.00,0.0047
2401.00,0.0047
2400.00,0.0047
2399.00,0.0047
2398.00,0.0047
2397.00,0.0047
2396.00,0.0047
2395.00,0.0047
2394.00,0.0047
2393.00,0.0047
2392.00,0.0046
2391.00,0.0046
2390.00,0.0046
2389.00,0.0046
2388.00,0.0046
2387.00,0.0046
2386.00,0.0046
2385.00,0.0046
2384.00,0.0046
2383.00,0.0046
2382.00,0.0046
2381.00,0.0046
2380.00,0.0046
2379.00,0.0046
2378.00,0.0046
2377.00,0.0046
2376.00,0.0046
2375.00,0.0046
2374.00,0.0046
2373.00,0.0045
2372.00,0.0045
2371.00,0.0045
2370.00,0.0045
2369.00,0.0045
2368.00,0.0045
2367.00,0.0044
2366.00,0.0044
2365.00,0.0044
2364.00,0.0044
2363.00,0.0044
2362.00,0.0044
2361.00,0.0044
2360.00,0.0044
2359.00,0.0044
2358.00,0.0044
2357.00,0.0044
2356.00,0.0044
2355.00,0.0044
2354.00,0.0044
2353.00,0.0043
2352.00,0.0043
2351.00,0.0043
2350.00,0.0043
2349.00,0.0043
2348.00,0.0043
2347.00,0.0043
2346.00,0.0042
2345.00,0.0043
2344.00,0.0043
2343.00,0.0044
2342.00,0.0044
2341.00,0.0043
2340.00,0.0043
2339.00,0.0043
2338.00,0.0043
2337.00,0.0042
2336.00,0.0042
2335.00,0.0042
2334.00,0.0042
2333.00,0.0042
2332.00,0.0042
2331.00,0.0042
2330.00,0.0042
2329.00,0.0042
2328.00,0.0042
2327.00,0.0042
2326.00,0.0041
2325.00,0.0040
2324.00,0.0040
2323.00,0.0040
2322.00,0.0040
2321.00,0.0040
2320.00,0.0041
2319.00,0.0041
2318.00,0.0041
2317.00,0.0041
2316.00,0.0042
2315.00,0.0042
2314.00,0.0042
2313.00,0.0042
2312.00,0.0042
2311.00,0.0042
2310.00,0.0042
2309.00,0.0042
2308.00,0.0042
2307.00,0.0042
2306.00,0.0042
2305.00,0.0042
2304.00,0.0042
2303.00,0.0042
2302.00,0.0042
2301.00,0.0043
2300.00,0.0043
2299.00,0.0042
2298.00,0.0042
2297.00,0.0042
2296.00,0.0042
2295.00,0.0042
2294.00,0.0041
2293.00,0.0041
2292.00,0.0042
2291.00,0.0042
2290.00,0.0042
2289.00,0.0042
2288.00,0.0042
2287.00,0.0041
2286.00,0.0041
2285.00,0.0041
2284.00,0.0041
2283.00,0.0041
2282.00,0.0041
2281.00,0.0041
2280.00,0.0041
2279.00,0.0041
2278.00,0.0041
2277.00,0.0041
2276.00,0.0041
2275.00,0.0041
2274.00,0.0041
2273.00,0.0041
2272.00,0.0042
2271.00,0.0042
2270.00,0.0042
2269.00,0.0042
2268.00,0.0042
2267.00,0.0042
2266.00,0.0042
2265.00,0.0042
2264.00,0.0042
2263.00,0.0042
2262.00,0.0042
2261.00,0.0041
2260.00,0.0041
2259.00,0.0040
2258.00,0.0040
2257.00,0.0040
2256.00,0.0041
2255.00,0.0041
2254.00,0.0041
2253.00,0.0041
2252.00,0.0041
2251.00,0.0041
2250.00,0.0041
2249.00,0.0041
2248.00,0.0042
2247.00,0.0042
2246.00,0.0042
2245.00,0.0041
2244.00,0.0041
2243.00,0.0041
2242.00,0.0041
2241.00,0.0041
2240.00,0.0041
2239.00,0.0041
2238.00,0.0041
2237.00,0.0040
2236.00,0.0040
2235.00,0.0040
2234.00,0.0040
2233.00,0.0040
2232.00,0.0041
2231.00,0.0041
2230.00,0.0040
2229.00,0.0041
2228.00,0.0041
2227.00,0.0041
2226.00,0.0041
2225.00,0.0041
2224.00,0.0041
2223.00,0.0041
2222.00,0.0041
2221.00,0.0041
2220.00,0.0041
2219.00,0.0041
2218.00,0.0040
2217.00,0.0041
2216.00,0.0041
2215.00,0.0042
2214.00,0.0042
2213.00,0.0041
2212.00,0.0041
2211.00,0.0040
2210.00,0.0040
2209.00,0.0040
2208.00,0.0041
2207.00,0.0042
2206.00,0.0041
2205.00,0.0041
2204.00,0.0041
2203.00,0.0041
2202.00,0.0041
2201.00,0.0041
2200.00,0.0042
2199.00,0.0042
2198.00,0.0042
2197.00,0.0041
2196.00,0.0041
2195.00,0.0041
2194.00,0.0041
2193.00,0.0041
2192.00,0.0041
2191.00,0.0041
2190.00,0.0040
2189.00,0.0040
2188.00,0.0041
2187.00,0.0041
2186.00,0.0040
2185.00,0.0040
2184.00,0.0041
2183.00,0.0041
2182.00,0.0040
2181.00,0.0040
2180.00,0.0040
2179.00,0.0040
2178.00,0.0040
2177.00,0.0040
2176.00,0.0040
2175.00,0.0041
2174.00,0.0041
2173.00,0.0041
2172.00,0.0041
2171.00,0.0041
2170.00,0.0040
2169.00,0.0039
2168.00,0.0039
2167.00,0.0039
2166.00,0.0039
2165.00,0.0039
2164.00,0.0039
2163.00,0.0038
2162.00,0.0036
2161.00,0.0037
2160.00,0.0039
2159.00,0.0040
2158.00,0.0040
2157.00,0.0040
2156.00,0.0040
2155.00,0.0040
2154.00,0.0040
2153.00,0.0041
2152.00,0.0041
2151.00,0.0041
2150.00,0.0040
2149.00,0.0040
2148.00,0.0041
2147.00,0.0042
2146.00,0.0042
2145.00,0.0042
2144.00,0.0042
2143.00,0.0041
2142.00,0.0041
2141.00,0.0040
2140.00,0.0040
2139.00,0.0041
2138.00,0.0041
2137.00,0.0041
2136.00,0.0042
2135.00,0.0043
2134.00,0.0043
2133.00,0.0043
2132.00,0.0043
2131.00,0.0042
2130.00,0.0042
2129.00,0.0041
2128.00,0.0041
2127.00,0.0041
2126.00,0.0041
2125.00,0.0041
2124.00,0.0041
2123.00,0.0041
2122.00,0.0040
2121.00,0.0040
2120.00,0.0040
2119.00,0.0040
2118.00,0.0040
2117.00,0.0040
2116.00,0.0040
2115.00,0.0040
2114.00,0.0040
2113.00,0.0040
2112.00,0.0040
2111.00,0.0041
2110.00,0.0041
2109.00,0.0041
2108.00,0.0041
2107.00,0.0041
2106.00,0.0040
2105.00,0.0040
2104.00,0.0040
2103.00,0.0039
2102.00,0.0039
2101.00,0.0039
2100.00,0.0039
2099.00,0.0040
2098.00,0.0040
2097.00,0.0040
2096.00,0.0041
2095.00,0.0041
2094.00,0.0041
2093.00,0.0040
2092.00,0.0041
2091.00,0.0041
2090.00,0.0041
2089.00,0.0041
2088.00,0.0041
2087.00,0.0040
2086.00,0.0039
2085.00,0.0039
2084.00,0.0039
2083.00,0.0040
2082.00,0.0039
2081.00,0.0039
2080.00,0.0039
2079.00,0.0038
2078.00,0.0038
2077.00,0.0038
2076.00,0.0038
2075.00,0.0038
2074.00,0.0039
2073.00,0.0039
2072.00,0.0039
2071.00,0.0039
2070.00,0.0038
2069.00,0.0038
2068.00,0.0038
2067.00,0.0038
2066.00,0.0038
2065.00,0.0038
2064.00,0.0038
2063.00,0.0038
2062.00,0.0037
2061.00,0.0037
2060.00,0.0037
2059.00,0.0037
2058.00,0.0037
2057.00,0.0037
2056.00,0.0037
2055.00,0.0038
2054.00,0.0038
2053.00,0.0037
2052.00,0.0037
2051.00,0.0036
2050.00,0.0035
2049.00,0.0036
2048.00,0.0036
2047.00,0.0037
2046.00,0.0036
2045.00,0.0035
2044.00,0.0036
2043.00,0.0036
2042.00,0.0036
2041.00,0.0036
2040.00,0.0037
2039.00,0.0036
2038.00,0.0035
2037.00,0.0035
2036.00,0.0035
2035.00,0.0036
2034.00,0.0036
2033.00,0.0036
2032.00,0.0037
2031.00,0.0037
2030.00,0.0037
2029.00,0.0038
2028.00,0.0039
2027.00,0.0039
2026.00,0.0038
2025.00,0.0037
2024.00,0.0037
2023.00,0.0037
2022.00,0.0036
2021.00,0.0036
2020.00,0.0037
2019.00,0.0037
2018.00,0.0037
2017.00,0.0038
2016.00,0.0038
2015.00,0.0038
2014.00,0.0037
2013.00,0.0037
2012.00,0.0037
2011.00,0.0037
2010.00,0.0037
2009.00,0.0038
2008.00,0.0039
2007.00,0.0040
2006.00,0.0039
2005.00,0.0037
2004.00,0.0037
2003.00,0.0037
2002.00,0.0036
2001.00,0.0036
2000.00,0.0036
1999.00,0.0037
1998.00,0.0036
1997.00,0.0036
1996.00,0.0036
1995.00,0.0036
1994.00,0.0035
1993.00,0.0035
1992.00,0.0034
1991.00,0.0034
1990.00,0.0033
1989.00,0.0033
1988.00,0.0034
1987.00,0.0034
1986.00,0.0034
1985.00,0.0034
1984.00,0.0034
1983.00,0.0034
1982.00,0.0033
1981.00,0.0032
1980.00,0.0032
1979.00,0.0032
1978.00,0.0033
1977.00,0.0034
1976.00,0.0035
1975.00,0.0035
1974.00,0.0034
1973.00,0.0034
1972.00,0.0034
1971.00,0.0034
1970.00,0.0033
1969.00,0.0034
1968.00,0.0035
1967.00,0.0035
1966.00,0.0035
1965.00,0.0035
1964.00,0.0034
1963.00,0.0035
1962.00,0.0035
1961.00,0.0035
1960.00,0.0036
1959.00,0.0036
1958.00,0.0036
1957.00,0.0037
1956.00,0.0037
1955.00,0.0037
1954.00,0.0036
1953.00,0.0036
1952.00,0.0035
1951.00,0.0035
1950.00,0.0035
1949.00,0.0035
1948.00,0.0034
1947.00,0.0034
1946.00,0.0033
1945.00,0.0033
1944.00,0.0033
1943.00,0.0034
1942.00,0.0035
1941.00,0.0035
1940.00,0.0035
1939.00,0.0034
1938.00,0.0034
1937.00,0.0034
1936.00,0.0035
1935.00,0.0035
1934.00,0.0035
1933.00,0.0036
1932.00,0.0036
1931.00,0.0035
1930.00,0.0034
1929.00,0.0034
1928.00,0.0034
1927.00,0.0034
1926.00,0.0032
1925.00,0.0032
1924.00,0.0033
1923.00,0.0034
1922.00,0.0033
1921.00,0.0031
1920.00,0.0029
1919.00,0.0027
1918.00,0.0027
1917.00,0.0029
1916.00,0.0030
1915.00,0.0030
1914.00,0.0030
1913.00,0.0031
1912.00,0.0032
1911.00,0.0032
1910.00,0.0033
1909.00,0.0033
1908.00,0.0034
1907.00,0.0033
1906.00,0.0031
1905.00,0.0031
1904.00,0.0032
1903.00,0.0033
1902.00,0.0032
1901.00,0.0032
1900.00,0.0033
1899.00,0.0032
1898.00,0.0031
1897.00,0.0031
1896.00,0.0032
1895.00,0.0032
1894.00,0.0031
1893.00,0.0031
1892.00,0.0031
1891.00,0.0031
1890.00,0.0032
1889.00,0.0033
1888.00,0.0034
1887.00,0.0032
1886.00,0.0030
1885.00,0.0030
1884.00,0.0031
1883.00,0.0031
1882.00,0.0030
1881.00,0.0030
1880.00,0.0031
1879.00,0.0030
1878.00,0.0029
1877.00,0.0029
1876.00,0.0030
1875.00,0.0029
1874.00,0.0028
1873.00,0.0027
1872.00,0.0027
1871.00,0.0026
1870.00,0.0025
1869.00,0.0027
1868.00,0.0029
1867.00,0.0030
1866.00,0.0028
1865.00,0.0026
1864.00,0.0027
1863.00,0.0027
1862.00,0.0027
1861.00,0.0027
1860.00,0.0028
1859.00,0.0029
1858.00,0.0028
1857.00,0.0028
1856.00,0.0028
1855.00,0.0028
1854.00,0.0027
1853.00,0.0027
1852.00,0.0027
1851.00,0.0026
1850.00,0.0025
1849.00,0.0025
1848.00,0.0026
1847.00,0.0026
1846.00,0.0024
1845.00,0.0023
1844.00,0.0024
1843.00,0.0024
1842.00,0.0024
1841.00,0.0023
1840.00,0.0022
1839.00,0.0023
1838.00,0.0024
1837.00,0.0025
1836.00,0.0025
1835.00,0.0025
1834.00,0.0024
1833.00,0.0024
1832.00,0.0024
1831.00,0.0026
1830.00,0.0029
1829.00,0.0029
1828.00,0.0027
1827.00,0.0025
1826.00,0.0023
1825.00,0.0023
1824.00,0.0025
1823.00,0.0024
1822.00,0.0023
1821.00,0.0022
1820.00,0.0023
1819.00,0.0024
1818.00,0.0023
1817.00,0.0023
1816.00,0.0024
1815.00,0.0024
1814.00,0.0023
1813.00,0.0021
1812.00,0.0022
1811.00,0.0023
1810.00,0.0023
1809.00,0.0022
1808.00,0.0022
1807.00,0.0022
1806.00,0.0021
1805.00,0.0021
1804.00,0.0022
1803.00,0.0022
1802.00,0.0020
1801.00,0.0019
1800.00,0.0018
1799.00,0.0018
1798.00,0.0016
1797.00,0.0016
1796.00,0.0017
1795.00,0.0017
1794.00,0.0015
1793.00,0.0014
1792.00,0.0016
1791.00,0.0018
1790.00,0.0017
1789.00,0.0016
1788.00,0.0016
1787.00,0.0016
1786.00,0.0016
1785.00,0.0016
1784.00,0.0018
1783.00,0.0019
1782.00,0.0019
1781.00,0.0018
1780.00,0.0018
1779.00,0.0018
1778.00,0.0016
1777.00,0.0015
1776.00,0.0017
1775.00,0.0018
1774.00,0.0018
1773.00,0.0018
1772.00,0.0020
1771.00,0.0021
1770.00,0.0019
1769.00,0.0015
1768.00,0.0014
1767.00,0.0015
1766.00,0.0017
1765.00,0.0018
1764.00,0.0019
1763.00,0.0021
1762.00,0.0024
1761.00,0.0024
1760.00,0.0022
1759.00,0.0021
1758.00,0.0020
1757.00,0.0018
1756.00,0.0017
1755.00,0.0017
1754.00,0.0014
1753.00,0.0009
1752.00,0.0005
1751.00,0.0004
1750.00,0.0009
1749.00,0.0012
1748.00,0.0014
1747.00,0.0016
1746.00,0.0018
1745.00,0.0021
1744.00,0.0023
1743.00,0.0027
1742.00,0.0029
1741.00,0.0029
1740.00,0.0029
1739.00,0.0031
1738.00,0.0033
1737.00,0.0032
1736.00,0.0027
1735.00,0.0023
1734.00,0.0025
1733.00,0.0028
1732.00,0.0029
1731.00,0.0030
1730.00,0.0031
1729.00,0.0033
1728.00,0.0034
1727.00,0.0035
1726.00,0.0035
1725.00,0.0035
1724.00,0.0035
1723.00,0.0035
1722.00,0.0036
1721.00,0.0037
1720.00,0.0037
1719.00,0.0037
1718.00,0.0035
1717.00,0.0035
1716.00,0.0037
1715.00,0.0037
1714.00,0.0036
1713.00,0.0037
1712.00,0.0040
1711.00,0.0043
1710.00,0.0045
1709.00,0.0048
1708.00,0.0052
1707.00,0.0058
1706.00,0.0066
1705.00,0.0077
1704.00,0.0087
1703.00,0.0094
1702.00,0.0095
1701.00,0.0098
1700.00,0.0113
1699.00,0.0127
1698.00,0.0131
1697.00,0.0135
1696.00,0.0144
1695.00,0.0153
1694.00,0.0155
1693.00,0.0156
1692.00,0.0159
1691.00,0.0163
1690.00,0.0169
1689.00,0.0176
1688.00,0.0185
1687.00,0.0193
1686.00,0.0198
1685.00,0.0205
1684.00,0.0218
1683.00,0.0227
1682.00,0.0233
1681.00,0.0237
1680.00,0.0242
1679.00,0.0250
1678.00,0.0258
1677.00,0.0266
1676.00,0.0272
1675.00,0.0280
1674.00,0.0288
1673.00,0.0295
1672.00,0.0301
1671.00,0.0309
1670.00,0.0320
1669.00,0.0332
1668.00,0.0342
1667.00,0.0350
1666.00,0.0358
1665.00,0.0366
1664.00,0.0373
1663.00,0.0382
1662.00,0.0391
1661.00,0.0399
1660.00,0.0406
1659.00,0.0413
1658.00,0.0424
1657.00,0.0438
1656.00,0.0453
1655.00,0.0464
1654.00,0.0472
1653.00,0.0481
1652.00,0.0480
1651.00,0.0478
1650.00,0.0476
1649.00,0.0475
1648.00,0.0474
1647.00,0.0475
1646.00,0.0476
1645.00,0.0477
1644.00,0.0479
1643.00,0.0481
1642.00,0.0482
1641.00,0.0483
1640.00,0.0486
1639.00,0.0489
1638.00,0.0492
1637.00,0.0492
1636.00,0.0493
1635.00,0.0495
1634.00,0.0497
1633.00,0.0501
1632.00,0.0503
1631.00,0.0505
1630.00,0.0507
1629.00,0.0511
1628.00,0.0516
1627.00,0.0521
1626.00,0.0525
1625.00,0.0529
1624.00,0.0531
1623.00,0.0532
1622.00,0.0535
1621.00,0.0540
1620.00,0.0543
1619.00,0.0545
1618.00,0.0544
1617.00,0.0540
1616.00,0.0532
1615.00,0.0522
1614.00,0.0514
1613.00,0.0506
1612.00,0.0495
1611.00,0.0481
1610.00,0.0469
1609.00,0.0458
1608.00,0.0445
1607.00,0.0432
1606.00,0.0420
1605.00,0.0409
1604.00,0.0396
1603.00,0.0384
1602.00,0.0373
1601.00,0.0364
1600.00,0.0354
1599.00,0.0343
1598.00,0.0335
1597.00,0.0328
1596.00,0.0320
1595.00,0.0311
1594.00,0.0305
1593.00,0.0299
1592.00,0.0292
1591.00,0.0285
1590.00,0.0280
1589.00,0.0276
1588.00,0.0271
1587.00,0.0265
1586.00,0.0261
1585.00,0.0258
1584.00,0.0254
1583.00,0.0249
1582.00,0.0246
1581.00,0.0246
1580.00,0.0246
1579.00,0.0245
1578.00,0.0246
1577.00,0.0246
1576.00,0.0243
1575.00,0.0240
1574.00,0.0241
1573.00,0.0243
1572.00,0.0245
1571.00,0.0246
1570.00,0.0251
1569.00,0.0255
1568.00,0.0256
1567.00,0.0257
1566.00,0.0261
1565.00,0.0269
1564.00,0.0278
1563.00,0.0290
1562.00,0.0303
1561.00,0.0312
1560.00,0.0312
1559.00,0.0315
1558.00,0.0325
1557.00,0.0334
1556.00,0.0338
1555.00,0.0341
1554.00,0.0346
1553.00,0.0353
1552.00,0.0360
1551.00,0.0367
1550.00,0.0374
1549.00,0.0381
1548.00,0.0386
1547.00,0.0390
1546.00,0.0395
1545.00,0.0403
1544.00,0.0412
1543.00,0.0419
1542.00,0.0421
1541.00,0.0421
1540.00,0.0425
1539.00,0.0428
1538.00,0.0433
1537.00,0.0439
1536.00,0.0444
1535.00,0.0447
1534.00,0.0452
1533.00,0.0458
1532.00,0.0464
1531.00,0.0467
1530.00,0.0469
1529.00,0.0472
1528.00,0.0478
1527.00,0.0482
1526.00,0.0485
1525.00,0.0488
1524.00,0.0493
1523.00,0.0497
1522.00,0.0499
1521.00,0.0502
1520.00,0.0505
1519.00,0.0507
1518.00,0.0507
1517.00,0.0506
1516.00,0.0505
1515.00,0.0504
1514.00,0.0502
1513.00,0.0498
1512.00,0.0497
1511.00,0.0498
1510.00,0.0497
1509.00,0.0492
1508.00,0.0485
1507.00,0.0478
1506.00,0.0467
1505.00,0.0456
1504.00,0.0449
1503.00,0.0443
1502.00,0.0437
1501.00,0.0429
1500.00,0.0423
1499.00,0.0418
1498.00,0.0408
1497.00,0.0396
1496.00,0.0385
1495.00,0.0377
1494.00,0.0369
1493.00,0.0359
1492.00,0.0348
1491.00,0.0339
1490.00,0.0331
1489.00,0.0325
1488.00,0.0321
1487.00,0.0315
1486.00,0.0307
1485.00,0.0300
1484.00,0.0294
1483.00,0.0288
1482.00,0.0281
1481.00,0.0275
1480.00,0.0271
1479.00,0.0267
1478.00,0.0263
1477.00,0.0259
1476.00,0.0258
1475.00,0.0256
1474.00,0.0250
1473.00,0.0245
1472.00,0.0246
1471.00,0.0251
1470.00,0.0253
1469.00,0.0255
1468.00,0.0257
1467.00,0.0260
1466.00,0.0260
1465.00,0.0259
1464.00,0.0259
1463.00,0.0260
1462.00,0.0263
1461.00,0.0267
1460.00,0.0274
1459.00,0.0283
1458.00,0.0288
1457.00,0.0289
1456.00,0.0290
1455.00,0.0293
1454.00,0.0295
1453.00,0.0297
1452.00,0.0299
1451.00,0.0302
1450.00,0.0304
1449.00,0.0304
1448.00,0.0304
1447.00,0.0305
1446.00,0.0305
1445.00,0.0302
1444.00,0.0298
1443.00,0.0296
1442.00,0.0293
1441.00,0.0290
1440.00,0.0288
1439.00,0.0286
1438.00,0.0283
1437.00,0.0277
1436.00,0.0271
1435.00,0.0268
1434.00,0.0266
1433.00,0.0263
1432.00,0.0260
1431.00,0.0260
1430.00,0.0261
1429.00,0.0259
1428.00,0.0258
1427.00,0.0258
1426.00,0.0258
1425.00,0.0258
1424.00,0.0257
1423.00,0.0261
1422.00,0.0266
1421.00,0.0268
1420.00,0.0270
1419.00,0.0274
1418.00,0.0277
1417.00,0.0277
1416.00,0.0278
1415.00,0.0282
1414.00,0.0288
1413.00,0.0291
1412.00,0.0294
1411.00,0.0298
1410.00,0.0302
1409.00,0.0305
1408.00,0.0307
1407.00,0.0309
1406.00,0.0312
1405.00,0.0313
1404.00,0.0314
1403.00,0.0317
1402.00,0.0320
1401.00,0.0321
1400.00,0.0322
1399.00,0.0323
1398.00,0.0327
1397.00,0.0330
1396.00,0.0333
1395.00,0.0337
1394.00,0.0341
1393.00,0.0342
1392.00,0.0340
1391.00,0.0341
1390.00,0.0343
1389.00,0.0345
1388.00,0.0346
1387.00,0.0347
1386.00,0.0347
1385.00,0.0348
1384.00,0.0348
1383.00,0.0348
1382.00,0.0348
1381.00,0.0347
1380.00,0.0344
1379.00,0.0341
1378.00,0.0338
1377.00,0.0336
1376.00,0.0335
1375.00,0.0334
1374.00,0.0333
1373.00,0.0332
1372.00,0.0329
1371.00,0.0326
1370.00,0.0323
1369.00,0.0321
1368.00,0.0318
1367.00,0.0315
1366.00,0.0312
1365.00,0.0310
1364.00,0.0308
1363.00,0.0306
1362.00,0.0304
1361.00,0.0302
1360.00,0.0299
1359.00,0.0296
1358.00,0.0294
1357.00,0.0293
1356.00,0.0292
1355.00,0.0292
1354.00,0.0291
1353.00,0.0290
1352.00,0.0290
1351.00,0.0290
1350.00,0.0290
1349.00,0.0290
1348.00,0.0290
1347.00,0.0290
1346.00,0.0290
1345.00,0.0291
1344.00,0.0292
1343.00,0.0292
1342.00,0.0293
1341.00,0.0293
1340.00,0.0294
1339.00,0.0294
1338.00,0.0295
1337.00,0.0294
1336.00,0.0293
1335.00,0.0292
1334.00,0.0292
1333.00,0.0291
1332.00,0.0290
1331.00,0.0289
1330.00,0.0288
1329.00,0.0287
1328.00,0.0286
1327.00,0.0285
1326.00,0.0284
1325.00,0.0284
1324.00,0.0283
1323.00,0.0282
1322.00,0.0282
1321.00,0.0283
1320.00,0.0283
1319.00,0.0283
1318.00,0.0283
1317.00,0.0284
1316.00,0.0284
1315.00,0.0284
1314.00,0.0284
1313.00,0.0284
1312.00,0.0283
1311.00,0.0283
1310.00,0.0282
1309.00,0.0282
1308.00,0.0281
1307.00,0.0280
1306.00,0.0279
1305.00,0.0278
1304.00,0.0276
1303.00,0.0274
1302.00,0.0273
1301.00,0.0271
1300.00,0.0270
1299.00,0.0270
1298.00,0.0269
1297.00,0.0268
1296.00,0.0267
1295.00,0.0266
1294.00,0.0265
1293.00,0.0265
1292.00,0.0264
1291.00,0.0264
1290.00,0.0264
1289.00,0.0264
1288.00,0.0264
1287.00,0.0265
1286.00,0.0265
1285.00,0.0266
1284.00,0.0266
1283.00,0.0267
1282.00,0.0268
1281.00,0.0268
1280.00,0.0269
1279.00,0.0269
1278.00,0.0270
1277.00,0.0271
1276.00,0.0272
1275.00,0.0273
1274.00,0.0274
1273.00,0.0276
1272.00,0.0277
1271.00,0.0278
1270.00,0.0281
1269.00,0.0283
1268.00,0.0285
1267.00,0.0287
1266.00,0.0290
1265.00,0.0292
1264.00,0.0294
1263.00,0.0296
1262.00,0.0298
1261.00,0.0299
1260.00,0.0301
1259.00,0.0302
1258.00,0.0304
1257.00,0.0307
1256.00,0.0309
1255.00,0.0311
1254.00,0.0315
1253.00,0.0318
1252.00,0.0320
1251.00,0.0322
1250.00,0.0324
1249.00,0.0325
1248.00,0.0326
1247.00,0.0326
1246.00,0.0328
1245.00,0.0329
1244.00,0.0330
1243.00,0.0331
1242.00,0.0332
1241.00,0.0333
1240.00,0.0334
1239.00,0.0334
1238.00,0.0335
1237.00,0.0335
1236.00,0.0334
1235.00,0.0333
1234.00,0.0333
1233.00,0.0332
1232.00,0.0330
1231.00,0.0329
1230.00,0.0327
1229.00,0.0325
1228.00,0.0323
1227.00,0.0321
1226.00,0.0319
1225.00,0.0317
1224.00,0.0314
1223.00,0.0312
1222.00,0.0310
1221.00,0.0308
1220.00,0.0305
1219.00,0.0303
1218.00,0.0301
1217.00,0.0299
1216.00,0.0296
1215.00,0.0294
1214.00,0.0291
1213.00,0.0289
1212.00,0.0287
1211.00,0.0285
1210.00,0.0283
1209.00,0.0281
1208.00,0.0279
1207.00,0.0276
1206.00,0.0274
1205.00,0.0272
1204.00,0.0269
1203.00,0.0266
1202.00,0.0263
1201.00,0.0260
1200.00,0.0257
1199.00,0.0254
1198.00,0.0251
1197.00,0.0248
1196.00,0.0245
1195.00,0.0242
1194.00,0.0239
1193.00,0.0237
1192.00,0.0235
1191.00,0.0234
1190.00,0.0233
1189.00,0.0233
1188.00,0.0233
1187.00,0.0232
1186.00,0.0233
1185.00,0.0234
1184.00,0.0234
1183.00,0.0236
1182.00,0.0238
1181.00,0.0240
1180.00,0.0242
1179.00,0.0245
1178.00,0.0248
1177.00,0.0252
1176.00,0.0256
1175.00,0.0260
1174.00,0.0265
1173.00,0.0270
1172.00,0.0274
1171.00,0.0279
1170.00,0.0284
1169.00,0.0289
1168.00,0.0292
1167.00,0.0296
1166.00,0.0300
1165.00,0.0303
1164.00,0.0306
1163.00,0.0308
1162.00,0.0309
1161.00,0.0310
1160.00,0.0309
1159.00,0.0309
1158.00,0.0308
1157.00,0.0307
1156.00,0.0306
1155.00,0.0304
1154.00,0.0302
1153.00,0.0300
1152.00,0.0297
1151.00,0.0294
1150.00,0.0291
1149.00,0.0289
1148.00,0.0285
1147.00,0.0282
1146.00,0.0279
1145.00,0.0277
1144.00,0.0273
1143.00,0.0271
1142.00,0.0268
1141.00,0.0266
1140.00,0.0264
1139.00,0.0262
1138.00,0.0261
1137.00,0.0260
1136.00,0.0258
1135.00,0.0257
1134.00,0.0256
1133.00,0.0255
1132.00,0.0254
1131.00,0.0253
1130.00,0.0253
1129.00,0.0253
1128.00,0.0252
1127.00,0.0251
1126.00,0.0250
1125.00,0.0250
1124.00,0.0249
1123.00,0.0248
1122.00,0.0248
1121.00,0.0247
1120.00,0.0246
1119.00,0.0245
1118.00,0.0245
1117.00,0.0245
1116.00,0.0245
1115.00,0.0245
1114.00,0.0245
1113.00,0.0245
1112.00,0.0245
1111.00,0.0245
1110.00,0.0246
1109.00,0.0246
1108.00,0.0246
1107.00,0.0246
1106.00,0.0246
1105.00,0.0247
1104.00,0.0248
1103.00,0.0248
1102.00,0.0250
1101.00,0.0250
1100.00,0.0250
1099.00,0.0251
1098.00,0.0252
1097.00,0.0254
1096.00,0.0255
1095.00,0.0256
1094.00,0.0259
1093.00,0.0261
1092.00,0.0264
1091.00,0.0267
1090.00,0.0271
1089.00,0.0275
1088.00,0.0278
1087.00,0.0282
1086.00,0.0286
1085.00,0.0290
1084.00,0.0293
1083.00,0.0297
1082.00,0.0301
1081.00,0.0305
1080.00,0.0309
1079.00,0.0312
1078.00,0.0316
1077.00,0.0320
1076.00,0.0323
1075.00,0.0326
1074.00,0.0329
1073.00,0.0332
1072.00,0.0334
1071.00,0.0335
1070.00,0.0337
1069.00,0.0338
1068.00,0.0338
1067.00,0.0339
1066.00,0.0340
1065.00,0.0342
1064.00,0.0342
1063.00,0.0343
1062.00,0.0344
1061.00,0.0344
1060.00,0.0343
1059.00,0.0342
1058.00,0.0342
1057.00,0.0340
1056.00,0.0338
1055.00,0.0335
1054.00,0.0333
1053.00,0.0331
1052.00,0.0327
1051.00,0.0324
1050.00,0.0322
1049.00,0.0319
1048.00,0.0316
1047.00,0.0312
1046.00,0.0309
1045.00,0.0306
1044.00,0.0303
1043.00,0.0300
1042.00,0.0298
1041.00,0.0295
1040.00,0.0293
1039.00,0.0291
1038.00,0.0290
1037.00,0.0289
1036.00,0.0287
1035.00,0.0286
1034.00,0.0285
1033.00,0.0284
1032.00,0.0282
1031.00,0.0280
1030.00,0.0278
1029.00,0.0276
1028.00,0.0273
1027.00,0.0270
1026.00,0.0267
1025.00,0.0263
1024.00,0.0259
1023.00,0.0256
1022.00,0.0253
1021.00,0.0250
1020.00,0.0246
1019.00,0.0243
1018.00,0.0241
1017.00,0.0238
1016.00,0.0235
1015.00,0.0233
1014.00,0.0231
1013.00,0.0229
1012.00,0.0227
1011.00,0.0224
1010.00,0.0222
1009.00,0.0221
1008.00,0.0219
1007.00,0.0217
1006.00,0.0216
1005.00,0.0215
1004.00,0.0213
1003.00,0.0211
1002.00,0.0210
1001.00,0.0209
1000.00,0.0208
999.00,0.0206
998.00,0.0205
997.00,0.0204
996.00,0.0203
995.00,0.0201
994.00,0.0201
993.00,0.0200
992.00,0.0199
991.00,0.0198
990.00,0.0197
989.00,0.0197
988.00,0.0196
987.00,0.0196
986.00,0.0197
985.00,0.0197
984.00,0.0197
983.00,0.0197
982.00,0.0198
981.00,0.0198
980.00,0.0198
979.00,0.0199
978.00,0.0200
977.00,0.0202
976.00,0.0203
975.00,0.0205
974.00,0.0208
973.00,0.0210
972.00,0.0213
971.00,0.0215
970.00,0.0218
969.00,0.0221
968.00,0.0223
967.00,0.0224
966.00,0.0226
965.00,0.0226
964.00,0.0225
963.00,0.0225
962.00,0.0225
961.00,0.0225
960.00,0.0225
959.00,0.0225
958.00,0.0226
957.00,0.0225
956.00,0.0224
955.00,0.0222
954.00,0.0221
953.00,0.0220
952.00,0.0217
951.00,0.0215
950.00,0.0213
949.00,0.0211
948.00,0.0209
947.00,0.0207
946.00,0.0206
945.00,0.0205
944.00,0.0203
943.00,0.0202
942.00,0.0201
941.00,0.0200
940.00,0.0198
939.00,0.0196
938.00,0.0195
937.00,0.0193
936.00,0.0191
935.00,0.0188
934.00,0.0186
933.00,0.0184
932.00,0.0182
931.00,0.0180
930.00,0.0178
929.00,0.0176
928.00,0.0174
927.00,0.0171
926.00,0.0170
925.00,0.0169
924.00,0.0167
923.00,0.0165
922.00,0.0164
921.00,0.0163
920.00,0.0161
919.00,0.0159
918.00,0.0158
917.00,0.0157
916.00,0.0156
915.00,0.0155
914.00,0.0155
913.00,0.0154
912.00,0.0153
911.00,0.0153
910.00,0.0153
909.00,0.0153
908.00,0.0152
907.00,0.0152
906.00,0.0152
905.00,0.0152
904.00,0.0152
903.00,0.0152
902.00,0.0152
901.00,0.0153
900.00,0.0152
899.00,0.0152
898.00,0.0152
897.00,0.0152
896.00,0.0151
895.00,0.0151
894.00,0.0151
893.00,0.0150
892.00,0.0149
891.00,0.0148
890.00,0.0148
889.00,0.0147
888.00,0.0146
887.00,0.0145
886.00,0.0144
885.00,0.0143
884.00,0.0142
883.00,0.0141
882.00,0.0141
881.00,0.0141
880.00,0.0141
879.00,0.0141
878.00,0.0142
877.00,0.0142
876.00,0.0142
875.00,0.0142
874.00,0.0142
873.00,0.0141
872.00,0.0140
871.00,0.0139
870.00,0.0139
869.00,0.0139
868.00,0.0138
867.00,0.0137
866.00,0.0136
865.00,0.0135
864.00,0.0134
863.00,0.0133
862.00,0.0132
861.00,0.0132
860.00,0.0131
859.00,0.0131
858.00,0.0131
857.00,0.0131
856.00,0.0131
855.00,0.0131
854.00,0.0131
853.00,0.0132
852.00,0.0132
851.00,0.0132
850.00,0.0132
849.00,0.0132
848.00,0.0132
847.00,0.0131
846.00,0.0132
845.00,0.0132
844.00,0.0131
843.00,0.0131
842.00,0.0132
841.00,0.0133
840.00,0.0134
839.00,0.0134
838.00,0.0136
837.00,0.0137
836.00,0.0138
835.00,0.0139
834.00,0.0141
833.00,0.0144
832.00,0.0145
831.00,0.0148
830.00,0.0151
829.00,0.0153
828.00,0.0154
827.00,0.0155
826.00,0.0157
825.00,0.0157
824.00,0.0157
823.00,0.0156
822.00,0.0156
821.00,0.0157
820.00,0.0157
819.00,0.0157
818.00,0.0158
817.00,0.0159
816.00,0.0159
815.00,0.0160
814.00,0.0161
813.00,0.0163
812.00,0.0164
811.00,0.0165
810.00,0.0166
809.00,0.0167
808.00,0.0168
807.00,0.0168
806.00,0.0170
805.00,0.0171
804.00,0.0171
803.00,0.0172
802.00,0.0173
801.00,0.0173
800.00,0.0172
799.00,0.0171
798.00,0.0171
797.00,0.0172
796.00,0.0172
795.00,0.0172
794.00,0.0174
793.00,0.0174
792.00,0.0175
791.00,0.0175
790.00,0.0177
789.00,0.0178
788.00,0.0179
787.00,0.0180
786.00,0.0182
785.00,0.0183
784.00,0.0184
783.00,0.0185
782.00,0.0188
781.00,0.0190
780.00,0.0191
779.00,0.0192
778.00,0.0195
777.00,0.0197
776.00,0.0198
775.00,0.0200
774.00,0.0202
773.00,0.0204
772.00,0.0206
771.00,0.0207
770.00,0.0209
769.00,0.0210
768.00,0.0212
767.00,0.0213
766.00,0.0215
765.00,0.0217
764.00,0.0218
763.00,0.0219
762.00,0.0221
761.00,0.0223
760.00,0.0224
759.00,0.0225
758.00,0.0227
757.00,0.0229
756.00,0.0230
755.00,0.0231
754.00,0.0232
753.00,0.0234
752.00,0.0235
751.00,0.0237
750.00,0.0238
749.00,0.0239
748.00,0.0239
747.00,0.0239
746.00,0.0239
745.00,0.0240
744.00,0.0239
743.00,0.0239
742.00,0.0239
741.00,0.0239
740.00,0.0239
739.00,0.0238
738.00,0.0239
737.00,0.0240
736.00,0.0241
735.00,0.0241
734.00,0.0242
733.00,0.0243
732.00,0.0242
731.00,0.0242
730.00,0.0244
729.00,0.0246
728.00,0.0249
727.00,0.0253
726.00,0.0257
725.00,0.0261
724.00,0.0265
723.00,0.0268
722.00,0.0272
721.00,0.0275
720.00,0.0278
719.00,0.0282
718.00,0.0288
717.00,0.0294
716.00,0.0300
715.00,0.0305
714.00,0.0311
713.00,0.0316
712.00,0.0321
711.00,0.0325
710.00,0.0331
709.00,0.0336
708.00,0.0341
707.00,0.0346
706.00,0.0352
705.00,0.0357
704.00,0.0362
703.00,0.0367
702.00,0.0371
701.00,0.0375
700.00,0.0377
699.00,0.0379
698.00,0.0380
697.00,0.0381
696.00,0.0380
695.00,0.0380
694.00,0.0380
693.00,0.0380
692.00,0.0379
691.00,0.0379
690.00,0.0379
689.00,0.0380
688.00,0.0380
687.00,0.0380
686.00,0.0382
685.00,0.0383
684.00,0.0384
683.00,0.0384
682.00,0.0386
681.00,0.0388
680.00,0.0389
679.00,0.0390
678.00,0.0392
677.00,0.0394
676.00,0.0395
675.00,0.0396
674.00,0.0398
673.00,0.0400
672.00,0.0401
671.00,0.0403
670.00,0.0407
669.00,0.0410
668.00,0.0411
667.00,0.0412
666.00,0.0413
665.00,0.0413
664.00,0.0413
663.00,0.0414
662.00,0.0415
661.00,0.0416
660.00,0.0417
659.00,0.0417
658.00,0.0418
657.00,0.0419
656.00,0.0420
655.00,0.0420
654.00,0.0421
653.00,0.0422
652.00,0.0422
651.00,0.0423
650.00,0.0425
649.00,0.0427
648.00,0.0428
647.00,0.0429
646.00,0.0431
645.00,0.0433
644.00,0.0434
643.00,0.0436
642.00,0.0438
641.00,0.0440
640.00,0.0441
639.00,0.0442
638.00,0.0444
637.00,0.0446
636.00,0.0447
635.00,0.0449
634.00,0.0452
633.00,0.0455
632.00,0.0457
631.00,0.0458
630.00,0.0461
629.00,0.0463
628.00,0.0463
627.00,0.0464
626.00,0.0466
625.00,0.0467
624.00,0.0467
623.00,0.0468
622.00,0.0469
621.00,0.0470
620.00,0.0470
619.00,0.0470
618.00,0.0470
617.00,0.0470
616.00,0.0470
615.00,0.0469
614.00,0.0470
613.00,0.0470
612.00,0.0469
611.00,0.0468
610.00,0.0469
609.00,0.0469
608.00,0.0468
607.00,0.0467
606.00,0.0468
605.00,0.0469
604.00,0.0468
603.00,0.0468
602.00,0.0469
601.00,0.0469
600.00,0.0469
599.00,0.0468
598.00,0.0468
597.00,0.0469
596.00,0.0468
595.00,0.0468
594.00,0.0470
593.00,0.0471
592.00,0.0470
591.00,0.0469
590.00,0.0471
589.00,0.0473
588.00,0.0472
587.00,0.0471
586.00,0.0472
585.00,0.0473
584.00,0.0473
583.00,0.0473
582.00,0.0475
581.00,0.0477
580.00,0.0477
579.00,0.0476
578.00,0.0477
577.00,0.0478
576.00,0.0476
575.00,0.0477
574.00,0.0480
573.00,0.0484
572.00,0.0484
571.00,0.0484
570.00,0.0486
569.00,0.0488
568.00,0.0487
567.00,0.0487
566.00,0.0491
565.00,0.0493
564.00,0.0492
563.00,0.0492
562.00,0.0495
561.00,0.0498
560.00,0.0499
559.00,0.0499
558.00,0.0502
557.00,0.0504
556.00,0.0503
555.00,0.0502
554.00,0.0503
553.00,0.0504
552.00,0.0503
551.00,0.0502
550.00,0.0504
549.00,0.0506
548.00,0.0505
547.00,0.0504
546.00,0.0506
545.00,0.0507
544.00,0.0506
543.00,0.0506
542.00,0.0508
541.00,0.0510
540.00,0.0510
539.00,0.0510
538.00,0.0512
537.00,0.0514
536.00,0.0513
535.00,0.0513
534.00,0.0516
533.00,0.0519
532.00,0.0519
531.00,0.0519
530.00,0.0521
529.00,0.0522
528.00,0.0519
527.00,0.0516
526.00,0.0517
525.00,0.0519
524.00,0.0521
523.00,0.0524
522.00,0.0529
521.00,0.0532
520.00,0.0530
519.00,0.0528
518.00,0.0528
517.00,0.0528
516.00,0.0527
515.00,0.0526
514.00,0.0528
513.00,0.0528
512.00,0.0524
511.00,0.0520
510.00,0.0519
509.00,0.0518
508.00,0.0515
507.00,0.0512
506.00,0.0511
505.00,0.0509
504.00,0.0503
503.00,0.0499
502.00,0.0500
501.00,0.0503
500.00,0.0505
499.00,0.0506
498.00,0.0508
497.00,0.0508
496.00,0.0505
495.00,0.0502
494.00,0.0503
493.00,0.0504
492.00,0.0502
491.00,0.0501
490.00,0.0502
489.00,0.0504
488.00,0.0502
487.00,0.0499
486.00,0.0499
485.00,0.0499
484.00,0.0498
483.00,0.0497
482.00,0.0499
481.00,0.0500
480.00,0.0498
479.00,0.0495
478.00,0.0497
477.00,0.0498
476.00,0.0496
475.00,0.0493
474.00,0.0494
473.00,0.0493
472.00,0.0487
471.00,0.0484
470.00,0.0489
469.00,0.0494
468.00,0.0492
467.00,0.0491
466.00,0.0494
465.00,0.0497
464.00,0.0494
463.00,0.0492
462.00,0.0494
461.00,0.0493
460.00,0.0487
459.00,0.0481
458.00,0.0482
457.00,0.0482
456.00,0.0478
455.00,0.0476
454.00,0.0481
453.00,0.0483
452.00,0.0478
451.00,0.0476
450.00,0.0479
449.00,0.0480
448.00,0.0474
447.00,0.0469
446.00,0.0471
445.00,0.0471
444.00,0.0468
443.00,0.0465
442.00,0.0466
441.00,0.0462
440.00,0.0454
439.00,0.0451
438.00,0.0455
437.00,0.0456
436.00,0.0449
435.00,0.0443
434.00,0.0445
433.00,0.0445
432.00,0.0438
431.00,0.0432
430.00,0.0432
429.00,0.0432
428.00,0.0425
427.00,0.0420
426.00,0.0423
425.00,0.0426
424.00,0.0418
423.00,0.0407
422.00,0.0405
421.00,0.0403
420.00,0.0390
419.00,0.0379
418.00,0.0390
417.00,0.0402
416.00,0.0401
415.00,0.0400
414.00,0.0409
413.00,0.0415
412.00,0.0410
411.00,0.0405
410.00,0.0413
409.00,0.0421
408.00,0.0415
407.00,0.0407
406.00,0.0410
405.00,0.0409
404.00,0.0392
403.00,0.0376
402.00,0.0381
401.00,0.0394
400.00,0.0389
