Created as New Dataset,Sample 377 By YargerLab Date Wednesday, October 23 2024
cm-1,A
4000.00,0.0004
3999.00,0.0004
3998.00,0.0004
3997.00,0.0004
3996.00,0.0004
3995.00,0.0004
3994.00,0.0004
3993.00,0.0004
3992.00,0.0004
3991.00,0.0004
3990.00,0.0004
3989.00,0.0004
3988.00,0.0004
3987.00,0.0004
3986.00,0.0004
3985.00,0.0004
3984.00,0.0004
3983.00,0.0004
3982.00,0.0004
3981.00,0.0004
3980.00,0.0004
3979.00,0.0004
3978.00,0.0004
3977.00,0.0004
3976.00,0.0004
3975.00,0.0004
3974.00,0.0004
3973.00,0.0004
3972.00,0.0004
3971.00,0.0004
3970.00,0.0003
3969.00,0.0003
3968.00,0.0003
3967.00,0.0003
3966.00,0.0003
3965.00,0.0003
3964.00,0.0003
3963.00,0.0003
3962.00,0.0003
3961.00,0.0003
3960.00,0.0003
3959.00,0.0003
3958.00,0.0003
3957.00,0.0003
3956.00,0.0003
3955.00,0.0003
3954.00,0.0003
3953.00,0.0003
3952.00,0.0003
3951.00,0.0003
3950.00,0.0003
3949.00,0.0003
3948.00,0.0003
3947.00,0.0003
3946.00,0.0003
3945.00,0.0003
3944.00,0.0003
3943.00,0.0003
3942.00,0.0003
3941.00,0.0003
3940.00,0.0003
3939.00,0.0003
3938.00,0.0003
3937.00,0.0003
3936.00,0.0003
3935.00,0.0003
3934.00,0.0003
3933.00,0.0003
3932.00,0.0003
3931.00,0.0003
3930.00,0.0003
3929.00,0.0003
3928.00,0.0003
3927.00,0.0003
3926.00,0.0003
3925.00,0.0003
3924.00,0.0003
3923.00,0.0003
3922.00,0.0003
3921.00,0.0003
3920.00,0.0003
3919.00,0.0003
3918.00,0.0003
3917.00,0.0003
3916.00,0.0003
3915.00,0.0003
3914.00,0.0003
3913.00,0.0003
3912.00,0.0003
3911.00,0.0003
3910.00,0.0003
3909.00,0.0002
3908.00,0.0002
3907.00,0.0002
3906.00,0.0002
3905.00,0.0002
3904.00,0.0002
3903.00,0.0002
3902.00,0.0002
3901.00,0.0002
3900.00,0.0002
3899.00,0.0002
3898.00,0.0002
3897.00,0.0002
3896.00,0.0002
3895.00,0.0002
3894.00,0.0002
3893.00,0.0002
3892.00,0.0002
3891.00,0.0002
3890.00,0.0002
3889.00,0.0002
3888.00,0.0002
3887.00,0.0002
3886.00,0.0002
3885.00,0.0002
3884.00,0.0002
3883.00,0.0002
3882.00,0.0002
3881.00,0.0002
3880.00,0.0002
3879.00,0.0002
3878.00,0.0002
3877.00,0.0002
3876.00,0.0002
3875.00,0.0002
3874.00,0.0002
3873.00,0.0002
3872.00,0.0002
3871.00,0.0001
3870.00,0.0001
3869.00,0.0001
3868.00,0.0001
3867.00,0.0001
3866.00,0.0001
3865.00,0.0001
3864.00,0.0002
3863.00,0.0002
3862.00,0.0002
3861.00,0.0002
3860.00,0.0002
3859.00,0.0002
3858.00,0.0002
3857.00,0.0002
3856.00,0.0002
3855.00,0.0001
3854.00,0.0001
3853.00,0.0001
3852.00,0.0001
3851.00,0.0001
3850.00,0.0001
3849.00,0.0001
3848.00,0.0001
3847.00,0.0001
3846.00,0.0002
3845.00,0.0002
3844.00,0.0002
3843.00,0.0002
3842.00,0.0002
3841.00,0.0001
3840.00,0.0001
3839.00,0.0001
3838.00,0.0001
3837.00,0.0001
3836.00,0.0001
3835.00,0.0001
3834.00,0.0001
3833.00,0.0001
3832.00,0.0001
3831.00,0.0001
3830.00,0.0001
3829.00,0.0001
3828.00,0.0001
3827.00,0.0001
3826.00,0.0001
3825.00,0.0001
3824.00,0.0001
3823.00,0.0001
3822.00,0.0001
3821.00,0.0001
3820.00,0.0001
3819.00,0.0001
3818.00,0.0001
3817.00,0.0001
3816.00,0.0001
3815.00,0.0001
3814.00,0.0001
3813.00,0.0001
3812.00,0.0001
3811.00,0.0001
3810.00,0.0001
3809.00,0.0001
3808.00,0.0001
3807.00,0.0001
3806.00,0.0001
3805.00,0.0001
3804.00,0.0001
3803.00,0.0001
3802.00,0.0001
3801.00,0.0001
3800.00,0.0001
3799.00,0.0001
3798.00,0.0001
3797.00,0.0001
3796.00,0.0001
3795.00,0.0001
3794.00,0.0001
3793.00,0.0001
3792.00,0.0001
3791.00,0.0001
3790.00,0.0001
3789.00,0.0002
3788.00,0.0002
3787.00,0.0002
3786.00,0.0002
3785.00,0.0001
3784.00,0.0001
3783.00,0.0001
3782.00,0.0001
3781.00,0.0001
3780.00,0.0001
3779.00,0.0001
3778.00,0.0002
3777.00,0.0002
3776.00,0.0002
3775.00,0.0002
3774.00,0.0002
3773.00,0.0002
3772.00,0.0001
3771.00,0.0001
3770.00,0.0001
3769.00,0.0002
3768.00,0.0002
3767.00,0.0002
3766.00,0.0002
3765.00,0.0002
3764.00,0.0001
3763.00,0.0001
3762.00,0.0001
3761.00,0.0001
3760.00,0.0001
3759.00,0.0001
3758.00,0.0001
3757.00,0.0001
3756.00,0.0001
3755.00,0.0001
3754.00,0.0001
3753.00,0.0001
3752.00,0.0001
3751.00,0.0001
3750.00,0.0001
3749.00,0.0001
3748.00,0.0001
3747.00,0.0000
3746.00,0.0000
3745.00,0.0001
3744.00,0.0001
3743.00,0.0001
3742.00,0.0001
3741.00,0.0001
3740.00,0.0001
3739.00,0.0001
3738.00,0.0001
3737.00,0.0001
3736.00,0.0001
3735.00,0.0001
3734.00,0.0001
3733.00,0.0001
3732.00,0.0001
3731.00,0.0001
3730.00,0.0001
3729.00,0.0001
3728.00,0.0001
3727.00,0.0001
3726.00,0.0001
3725.00,0.0002
3724.00,0.0002
3723.00,0.0002
3722.00,0.0002
3721.00,0.0001
3720.00,0.0002
3719.00,0.0002
3718.00,0.0002
3717.00,0.0002
3716.00,0.0002
3715.00,0.0002
3714.00,0.0002
3713.00,0.0002
3712.00,0.0002
3711.00,0.0002
3710.00,0.0002
3709.00,0.0002
3708.00,0.0002
3707.00,0.0002
3706.00,0.0002
3705.00,0.0002
3704.00,0.0002
3703.00,0.0002
3702.00,0.0002
3701.00,0.0002
3700.00,0.0002
3699.00,0.0002
3698.00,0.0002
3697.00,0.0002
3696.00,0.0002
3695.00,0.0002
3694.00,0.0002
3693.00,0.0002
3692.00,0.0002
3691.00,0.0002
3690.00,0.0002
3689.00,0.0002
3688.00,0.0002
3687.00,0.0003
3686.00,0.0003
3685.00,0.0003
3684.00,0.0003
3683.00,0.0004
3682.00,0.0004
3681.00,0.0004
3680.00,0.0004
3679.00,0.0004
3678.00,0.0004
3677.00,0.0004
3676.00,0.0004
3675.00,0.0004
3674.00,0.0004
3673.00,0.0004
3672.00,0.0004
3671.00,0.0004
3670.00,0.0004
3669.00,0.0005
3668.00,0.0005
3667.00,0.0005
3666.00,0.0006
3665.00,0.0006
3664.00,0.0006
3663.00,0.0007
3662.00,0.0007
3661.00,0.0007
3660.00,0.0007
3659.00,0.0007
3658.00,0.0007
3657.00,0.0007
3656.00,0.0007
3655.00,0.0008
3654.00,0.0008
3653.00,0.0008
3652.00,0.0008
3651.00,0.0008
3650.00,0.0008
3649.00,0.0009
3648.00,0.0009
3647.00,0.0010
3646.00,0.0010
3645.00,0.0010
3644.00,0.0011
3643.00,0.0011
3642.00,0.0011
3641.00,0.0012
3640.00,0.0012
3639.00,0.0012
3638.00,0.0013
3637.00,0.0013
3636.00,0.0013
3635.00,0.0013
3634.00,0.0013
3633.00,0.0014
3632.00,0.0014
3631.00,0.0015
3630.00,0.0015
3629.00,0.0015
3628.00,0.0016
3627.00,0.0016
3626.00,0.0016
3625.00,0.0017
3624.00,0.0017
3623.00,0.0017
3622.00,0.0018
3621.00,0.0018
3620.00,0.0018
3619.00,0.0019
3618.00,0.0019
3617.00,0.0019
3616.00,0.0020
3615.00,0.0020
3614.00,0.0021
3613.00,0.0021
3612.00,0.0022
3611.00,0.0022
3610.00,0.0023
3609.00,0.0023
3608.00,0.0023
3607.00,0.0024
3606.00,0.0024
3605.00,0.0024
3604.00,0.0025
3603.00,0.0026
3602.00,0.0026
3601.00,0.0027
3600.00,0.0027
3599.00,0.0027
3598.00,0.0027
3597.00,0.0028
3596.00,0.0028
3595.00,0.0028
3594.00,0.0029
3593.00,0.0029
3592.00,0.0030
3591.00,0.0031
3590.00,0.0031
3589.00,0.0032
3588.00,0.0032
3587.00,0.0033
3586.00,0.0033
3585.00,0.0033
3584.00,0.0034
3583.00,0.0034
3582.00,0.0035
3581.00,0.0036
3580.00,0.0036
3579.00,0.0037
3578.00,0.0037
3577.00,0.0038
3576.00,0.0038
3575.00,0.0039
3574.00,0.0039
3573.00,0.0040
3572.00,0.0040
3571.00,0.0041
3570.00,0.0041
3569.00,0.0041
3568.00,0.0042
3567.00,0.0042
3566.00,0.0043
3565.00,0.0043
3564.00,0.0044
3563.00,0.0045
3562.00,0.0045
3561.00,0.0046
3560.00,0.0046
3559.00,0.0047
3558.00,0.0047
3557.00,0.0048
3556.00,0.0048
3555.00,0.0049
3554.00,0.0049
3553.00,0.0050
3552.00,0.0051
3551.00,0.0051
3550.00,0.0052
3549.00,0.0052
3548.00,0.0053
3547.00,0.0053
3546.00,0.0054
3545.00,0.0054
3544.00,0.0055
3543.00,0.0055
3542.00,0.0056
3541.00,0.0056
3540.00,0.0057
3539.00,0.0057
3538.00,0.0058
3537.00,0.0058
3536.00,0.0059
3535.00,0.0059
3534.00,0.0060
3533.00,0.0061
3532.00,0.0061
3531.00,0.0062
3530.00,0.0063
3529.00,0.0063
3528.00,0.0064
3527.00,0.0064
3526.00,0.0065
3525.00,0.0065
3524.00,0.0066
3523.00,0.0066
3522.00,0.0067
3521.00,0.0068
3520.00,0.0068
3519.00,0.0069
3518.00,0.0070
3517.00,0.0070
3516.00,0.0071
3515.00,0.0071
3514.00,0.0072
3513.00,0.0073
3512.00,0.0073
3511.00,0.0074
3510.00,0.0074
3509.00,0.0075
3508.00,0.0075
3507.00,0.0076
3506.00,0.0076
3505.00,0.0077
3504.00,0.0078
3503.00,0.0078
3502.00,0.0079
3501.00,0.0080
3500.00,0.0081
3499.00,0.0081
3498.00,0.0082
3497.00,0.0083
3496.00,0.0083
3495.00,0.0084
3494.00,0.0084
3493.00,0.0085
3492.00,0.0086
3491.00,0.0086
3490.00,0.0087
3489.00,0.0088
3488.00,0.0088
3487.00,0.0089
3486.00,0.0090
3485.00,0.0090
3484.00,0.0091
3483.00,0.0092
3482.00,0.0092
3481.00,0.0093
3480.00,0.0094
3479.00,0.0095
3478.00,0.0095
3477.00,0.0096
3476.00,0.0096
3475.00,0.0097
3474.00,0.0098
3473.00,0.0098
3472.00,0.0099
3471.00,0.0100
3470.00,0.0100
3469.00,0.0101
3468.00,0.0102
3467.00,0.0102
3466.00,0.0103
3465.00,0.0104
3464.00,0.0105
3463.00,0.0105
3462.00,0.0106
3461.00,0.0107
3460.00,0.0107
3459.00,0.0108
3458.00,0.0109
3457.00,0.0109
3456.00,0.0110
3455.00,0.0111
3454.00,0.0111
3453.00,0.0112
3452.00,0.0113
3451.00,0.0114
3450.00,0.0114
3449.00,0.0115
3448.00,0.0116
3447.00,0.0117
3446.00,0.0117
3445.00,0.0118
3444.00,0.0119
3443.00,0.0120
3442.00,0.0121
3441.00,0.0122
3440.00,0.0122
3439.00,0.0123
3438.00,0.0124
3437.00,0.0125
3436.00,0.0126
3435.00,0.0127
3434.00,0.0128
3433.00,0.0129
3432.00,0.0129
3431.00,0.0130
3430.00,0.0131
3429.00,0.0132
3428.00,0.0133
3427.00,0.0134
3426.00,0.0135
3425.00,0.0136
3424.00,0.0137
3423.00,0.0138
3422.00,0.0139
3421.00,0.0140
3420.00,0.0140
3419.00,0.0141
3418.00,0.0142
3417.00,0.0143
3416.00,0.0144
3415.00,0.0145
3414.00,0.0146
3413.00,0.0147
3412.00,0.0147
3411.00,0.0148
3410.00,0.0149
3409.00,0.0150
3408.00,0.0151
3407.00,0.0152
3406.00,0.0152
3405.00,0.0153
3404.00,0.0154
3403.00,0.0155
3402.00,0.0156
3401.00,0.0156
3400.00,0.0157
3399.00,0.0158
3398.00,0.0159
3397.00,0.0160
3396.00,0.0160
3395.00,0.0161
3394.00,0.0162
3393.00,0.0163
3392.00,0.0163
3391.00,0.0164
3390.00,0.0165
3389.00,0.0166
3388.00,0.0168
3387.00,0.0169
3386.00,0.0170
3385.00,0.0170
3384.00,0.0171
3383.00,0.0172
3382.00,0.0173
3381.00,0.0174
3380.00,0.0175
3379.00,0.0176
3378.00,0.0177
3377.00,0.0178
3376.00,0.0179
3375.00,0.0180
3374.00,0.0181
3373.00,0.0182
3372.00,0.0183
3371.00,0.0184
3370.00,0.0185
3369.00,0.0186
3368.00,0.0187
3367.00,0.0189
3366.00,0.0190
3365.00,0.0191
3364.00,0.0193
3363.00,0.0194
3362.00,0.0195
3361.00,0.0196
3360.00,0.0197
3359.00,0.0198
3358.00,0.0199
3357.00,0.0201
3356.00,0.0202
3355.00,0.0203
3354.00,0.0205
3353.00,0.0206
3352.00,0.0207
3351.00,0.0208
3350.00,0.0209
3349.00,0.0211
3348.00,0.0212
3347.00,0.0214
3346.00,0.0215
3345.00,0.0217
3344.00,0.0218
3343.00,0.0219
3342.00,0.0220
3341.00,0.0222
3340.00,0.0223
3339.00,0.0224
3338.00,0.0226
3337.00,0.0227
3336.00,0.0229
3335.00,0.0231
3334.00,0.0232
3333.00,0.0234
3332.00,0.0236
3331.00,0.0237
3330.00,0.0239
3329.00,0.0240
3328.00,0.0242
3327.00,0.0243
3326.00,0.0245
3325.00,0.0246
3324.00,0.0248
3323.00,0.0250
3322.00,0.0252
3321.00,0.0253
3320.00,0.0255
3319.00,0.0257
3318.00,0.0258
3317.00,0.0260
3316.00,0.0262
3315.00,0.0263
3314.00,0.0265
3313.00,0.0266
3312.00,0.0268
3311.00,0.0269
3310.00,0.0271
3309.00,0.0272
3308.00,0.0273
3307.00,0.0275
3306.00,0.0277
3305.00,0.0279
3304.00,0.0281
3303.00,0.0283
3302.00,0.0285
3301.00,0.0287
3300.00,0.0288
3299.00,0.0289
3298.00,0.0291
3297.00,0.0292
3296.00,0.0293
3295.00,0.0294
3294.00,0.0296
3293.00,0.0297
3292.00,0.0298
3291.00,0.0299
3290.00,0.0301
3289.00,0.0302
3288.00,0.0303
3287.00,0.0304
3286.00,0.0305
3285.00,0.0306
3284.00,0.0306
3283.00,0.0307
3282.00,0.0307
3281.00,0.0307
3280.00,0.0308
3279.00,0.0308
3278.00,0.0308
3277.00,0.0307
3276.00,0.0307
3275.00,0.0306
3274.00,0.0306
3273.00,0.0305
3272.00,0.0304
3271.00,0.0304
3270.00,0.0303
3269.00,0.0302
3268.00,0.0301
3267.00,0.0300
3266.00,0.0299
3265.00,0.0298
3264.00,0.0297
3263.00,0.0295
3262.00,0.0294
3261.00,0.0292
3260.00,0.0290
3259.00,0.0289
3258.00,0.0287
3257.00,0.0285
3256.00,0.0284
3255.00,0.0282
3254.00,0.0280
3253.00,0.0279
3252.00,0.0277
3251.00,0.0276
3250.00,0.0274
3249.00,0.0272
3248.00,0.0270
3247.00,0.0269
3246.00,0.0267
3245.00,0.0266
3244.00,0.0265
3243.00,0.0264
3242.00,0.0262
3241.00,0.0261
3240.00,0.0259
3239.00,0.0258
3238.00,0.0257
3237.00,0.0255
3236.00,0.0254
3235.00,0.0252
3234.00,0.0251
3233.00,0.0250
3232.00,0.0250
3231.00,0.0249
3230.00,0.0248
3229.00,0.0247
3228.00,0.0246
3227.00,0.0245
3226.00,0.0244
3225.00,0.0243
3224.00,0.0242
3223.00,0.0241
3222.00,0.0240
3221.00,0.0240
3220.00,0.0239
3219.00,0.0238
3218.00,0.0237
3217.00,0.0237
3216.00,0.0236
3215.00,0.0235
3214.00,0.0234
3213.00,0.0234
3212.00,0.0233
3211.00,0.0232
3210.00,0.0231
3209.00,0.0230
3208.00,0.0230
3207.00,0.0229
3206.00,0.0228
3205.00,0.0227
3204.00,0.0227
3203.00,0.0226
3202.00,0.0225
3201.00,0.0224
3200.00,0.0224
3199.00,0.0223
3198.00,0.0222
3197.00,0.0221
3196.00,0.0220
3195.00,0.0220
3194.00,0.0219
3193.00,0.0218
3192.00,0.0217
3191.00,0.0216
3190.00,0.0215
3189.00,0.0214
3188.00,0.0214
3187.00,0.0213
3186.00,0.0212
3185.00,0.0211
3184.00,0.0210
3183.00,0.0209
3182.00,0.0208
3181.00,0.0207
3180.00,0.0206
3179.00,0.0205
3178.00,0.0204
3177.00,0.0204
3176.00,0.0203
3175.00,0.0202
3174.00,0.0201
3173.00,0.0200
3172.00,0.0199
3171.00,0.0198
3170.00,0.0197
3169.00,0.0196
3168.00,0.0195
3167.00,0.0194
3166.00,0.0193
3165.00,0.0192
3164.00,0.0191
3163.00,0.0190
3162.00,0.0189
3161.00,0.0188
3160.00,0.0188
3159.00,0.0187
3158.00,0.0186
3157.00,0.0185
3156.00,0.0184
3155.00,0.0183
3154.00,0.0182
3153.00,0.0182
3152.00,0.0181
3151.00,0.0180
3150.00,0.0180
3149.00,0.0179
3148.00,0.0178
3147.00,0.0178
3146.00,0.0177
3145.00,0.0176
3144.00,0.0175
3143.00,0.0175
3142.00,0.0174
3141.00,0.0173
3140.00,0.0172
3139.00,0.0172
3138.00,0.0171
3137.00,0.0171
3136.00,0.0170
3135.00,0.0170
3134.00,0.0169
3133.00,0.0169
3132.00,0.0168
3131.00,0.0168
3130.00,0.0167
3129.00,0.0167
3128.00,0.0167
3127.00,0.0166
3126.00,0.0166
3125.00,0.0166
3124.00,0.0165
3123.00,0.0165
3122.00,0.0164
3121.00,0.0163
3120.00,0.0163
3119.00,0.0163
3118.00,0.0162
3117.00,0.0162
3116.00,0.0162
3115.00,0.0163
3114.00,0.0163
3113.00,0.0163
3112.00,0.0163
3111.00,0.0163
3110.00,0.0163
3109.00,0.0163
3108.00,0.0163
3107.00,0.0163
3106.00,0.0163
3105.00,0.0163
3104.00,0.0164
3103.00,0.0164
3102.00,0.0164
3101.00,0.0164
3100.00,0.0164
3099.00,0.0164
3098.00,0.0164
3097.00,0.0165
3096.00,0.0165
3095.00,0.0165
3094.00,0.0166
3093.00,0.0166
3092.00,0.0166
3091.00,0.0166
3090.00,0.0166
3089.00,0.0166
3088.00,0.0166
3087.00,0.0167
3086.00,0.0167
3085.00,0.0167
3084.00,0.0167
3083.00,0.0167
3082.00,0.0167
3081.00,0.0167
3080.00,0.0167
3079.00,0.0167
3078.00,0.0168
3077.00,0.0168
3076.00,0.0168
3075.00,0.0169
3074.00,0.0169
3073.00,0.0169
3072.00,0.0169
3071.00,0.0169
3070.00,0.0169
3069.00,0.0168
3068.00,0.0168
3067.00,0.0168
3066.00,0.0168
3065.00,0.0168
3064.00,0.0168
3063.00,0.0168
3062.00,0.0167
3061.00,0.0167
3060.00,0.0167
3059.00,0.0166
3058.00,0.0165
3057.00,0.0165
3056.00,0.0164
3055.00,0.0163
3054.00,0.0162
3053.00,0.0162
3052.00,0.0161
3051.00,0.0160
3050.00,0.0160
3049.00,0.0159
3048.00,0.0158
3047.00,0.0158
3046.00,0.0157
3045.00,0.0156
3044.00,0.0155
3043.00,0.0154
3042.00,0.0153
3041.00,0.0153
3040.00,0.0153
3039.00,0.0152
3038.00,0.0152
3037.00,0.0151
3036.00,0.0150
3035.00,0.0150
3034.00,0.0149
3033.00,0.0148
3032.00,0.0148
3031.00,0.0147
3030.00,0.0147
3029.00,0.0146
3028.00,0.0146
3027.00,0.0145
3026.00,0.0144
3025.00,0.0143
3024.00,0.0143
3023.00,0.0142
3022.00,0.0141
3021.00,0.0141
3020.00,0.0140
3019.00,0.0139
3018.00,0.0138
3017.00,0.0137
3016.00,0.0136
3015.00,0.0135
3014.00,0.0135
3013.00,0.0134
3012.00,0.0134
3011.00,0.0134
3010.00,0.0134
3009.00,0.0134
3008.00,0.0134
3007.00,0.0134
3006.00,0.0133
3005.00,0.0133
3004.00,0.0133
3003.00,0.0133
3002.00,0.0132
3001.00,0.0132
3000.00,0.0132
2999.00,0.0132
2998.00,0.0132
2997.00,0.0133
2996.00,0.0133
2995.00,0.0134
2994.00,0.0134
2993.00,0.0135
2992.00,0.0136
2991.00,0.0137
2990.00,0.0138
2989.00,0.0140
2988.00,0.0141
2987.00,0.0143
2986.00,0.0145
2985.00,0.0146
2984.00,0.0148
2983.00,0.0150
2982.00,0.0152
2981.00,0.0154
2980.00,0.0157
2979.00,0.0159
2978.00,0.0162
2977.00,0.0165
2976.00,0.0168
2975.00,0.0171
2974.00,0.0174
2973.00,0.0177
2972.00,0.0180
2971.00,0.0183
2970.00,0.0185
2969.00,0.0188
2968.00,0.0190
2967.00,0.0192
2966.00,0.0194
2965.00,0.0196
2964.00,0.0197
2963.00,0.0199
2962.00,0.0199
2961.00,0.0200
2960.00,0.0200
2959.00,0.0200
2958.00,0.0200
2957.00,0.0199
2956.00,0.0198
2955.00,0.0197
2954.00,0.0195
2953.00,0.0194
2952.00,0.0193
2951.00,0.0191
2950.00,0.0190
2949.00,0.0190
2948.00,0.0189
2947.00,0.0189
2946.00,0.0189
2945.00,0.0190
2944.00,0.0191
2943.00,0.0193
2942.00,0.0194
2941.00,0.0197
2940.00,0.0199
2939.00,0.0201
2938.00,0.0203
2937.00,0.0206
2936.00,0.0208
2935.00,0.0210
2934.00,0.0212
2933.00,0.0214
2932.00,0.0215
2931.00,0.0217
2930.00,0.0218
2929.00,0.0219
2928.00,0.0220
2927.00,0.0220
2926.00,0.0220
2925.00,0.0220
2924.00,0.0219
2923.00,0.0219
2922.00,0.0217
2921.00,0.0216
2920.00,0.0214
2919.00,0.0211
2918.00,0.0209
2917.00,0.0206
2916.00,0.0203
2915.00,0.0199
2914.00,0.0196
2913.00,0.0193
2912.00,0.0190
2911.00,0.0187
2910.00,0.0185
2909.00,0.0182
2908.00,0.0180
2907.00,0.0178
2906.00,0.0176
2905.00,0.0174
2904.00,0.0172
2903.00,0.0170
2902.00,0.0169
2901.00,0.0167
2900.00,0.0166
2899.00,0.0164
2898.00,0.0163
2897.00,0.0161
2896.00,0.0160
2895.00,0.0159
2894.00,0.0158
2893.00,0.0157
2892.00,0.0156
2891.00,0.0155
2890.00,0.0155
2889.00,0.0154
2888.00,0.0154
2887.00,0.0153
2886.00,0.0153
2885.00,0.0153
2884.00,0.0153
2883.00,0.0154
2882.00,0.0154
2881.00,0.0155
2880.00,0.0156
2879.00,0.0157
2878.00,0.0157
2877.00,0.0158
2876.00,0.0158
2875.00,0.0159
2874.00,0.0159
2873.00,0.0159
2872.00,0.0158
2871.00,0.0158
2870.00,0.0157
2869.00,0.0156
2868.00,0.0154
2867.00,0.0153
2866.00,0.0152
2865.00,0.0151
2864.00,0.0150
2863.00,0.0149
2862.00,0.0149
2861.00,0.0148
2860.00,0.0148
2859.00,0.0148
2858.00,0.0149
2857.00,0.0149
2856.00,0.0149
2855.00,0.0149
2854.00,0.0149
2853.00,0.0149
2852.00,0.0148
2851.00,0.0146
2850.00,0.0143
2849.00,0.0141
2848.00,0.0138
2847.00,0.0135
2846.00,0.0132
2845.00,0.0129
2844.00,0.0126
2843.00,0.0124
2842.00,0.0122
2841.00,0.0120
2840.00,0.0118
2839.00,0.0116
2838.00,0.0114
2837.00,0.0113
2836.00,0.0112
2835.00,0.0111
2834.00,0.0110
2833.00,0.0110
2832.00,0.0109
2831.00,0.0108
2830.00,0.0107
2829.00,0.0107
2828.00,0.0106
2827.00,0.0106
2826.00,0.0105
2825.00,0.0104
2824.00,0.0104
2823.00,0.0103
2822.00,0.0103
2821.00,0.0102
2820.00,0.0102
2819.00,0.0101
2818.00,0.0101
2817.00,0.0100
2816.00,0.0100
2815.00,0.0099
2814.00,0.0099
2813.00,0.0098
2812.00,0.0098
2811.00,0.0098
2810.00,0.0097
2809.00,0.0097
2808.00,0.0097
2807.00,0.0096
2806.00,0.0096
2805.00,0.0095
2804.00,0.0095
2803.00,0.0095
2802.00,0.0094
2801.00,0.0094
2800.00,0.0093
2799.00,0.0093
2798.00,0.0093
2797.00,0.0092
2796.00,0.0092
2795.00,0.0092
2794.00,0.0091
2793.00,0.0091
2792.00,0.0091
2791.00,0.0090
2790.00,0.0090
2789.00,0.0089
2788.00,0.0089
2787.00,0.0089
2786.00,0.0089
2785.00,0.0089
2784.00,0.0088
2783.00,0.0088
2782.00,0.0088
2781.00,0.0087
2780.00,0.0087
2779.00,0.0087
2778.00,0.0086
2777.00,0.0086
2776.00,0.0085
2775.00,0.0085
2774.00,0.0085
2773.00,0.0084
2772.00,0.0084
2771.00,0.0084
2770.00,0.0084
2769.00,0.0083
2768.00,0.0083
2767.00,0.0083
2766.00,0.0082
2765.00,0.0082
2764.00,0.0082
2763.00,0.0082
2762.00,0.0081
2761.00,0.0081
2760.00,0.0081
2759.00,0.0080
2758.00,0.0080
2757.00,0.0080
2756.00,0.0079
2755.00,0.0079
2754.00,0.0079
2753.00,0.0079
2752.00,0.0078
2751.00,0.0078
2750.00,0.0078
2749.00,0.0077
2748.00,0.0077
2747.00,0.0077
2746.00,0.0077
2745.00,0.0076
2744.00,0.0076
2743.00,0.0076
2742.00,0.0075
2741.00,0.0075
2740.00,0.0075
2739.00,0.0075
2738.00,0.0074
2737.00,0.0074
2736.00,0.0074
2735.00,0.0073
2734.00,0.0073
2733.00,0.0073
2732.00,0.0073
2731.00,0.0072
2730.00,0.0072
2729.00,0.0072
2728.00,0.0071
2727.00,0.0071
2726.00,0.0071
2725.00,0.0070
2724.00,0.0070
2723.00,0.0070
2722.00,0.0069
2721.00,0.0069
2720.00,0.0069
2719.00,0.0068
2718.00,0.0068
2717.00,0.0068
2716.00,0.0067
2715.00,0.0067
2714.00,0.0067
2713.00,0.0067
2712.00,0.0066
2711.00,0.0066
2710.00,0.0066
2709.00,0.0066
2708.00,0.0065
2707.00,0.0065
2706.00,0.0065
2705.00,0.0065
2704.00,0.0065
2703.00,0.0064
2702.00,0.0064
2701.00,0.0064
2700.00,0.0064
2699.00,0.0064
2698.00,0.0063
2697.00,0.0063
2696.00,0.0063
2695.00,0.0063
2694.00,0.0063
2693.00,0.0062
2692.00,0.0062
2691.00,0.0062
2690.00,0.0062
2689.00,0.0062
2688.00,0.0062
2687.00,0.0062
2686.00,0.0061
2685.00,0.0061
2684.00,0.0061
2683.00,0.0061
2682.00,0.0061
2681.00,0.0060
2680.00,0.0060
2679.00,0.0060
2678.00,0.0060
2677.00,0.0060
2676.00,0.0060
2675.00,0.0060
2674.00,0.0059
2673.00,0.0059
2672.00,0.0059
2671.00,0.0059
2670.00,0.0059
2669.00,0.0059
2668.00,0.0059
2667.00,0.0058
2666.00,0.0058
2665.00,0.0058
2664.00,0.0058
2663.00,0.0058
2662.00,0.0058
2661.00,0.0057
2660.00,0.0057
2659.00,0.0057
2658.00,0.0057
2657.00,0.0057
2656.00,0.0057
2655.00,0.0057
2654.00,0.0057
2653.00,0.0057
2652.00,0.0056
2651.00,0.0056
2650.00,0.0056
2649.00,0.0056
2648.00,0.0056
2647.00,0.0056
2646.00,0.0056
2645.00,0.0056
2644.00,0.0056
2643.00,0.0056
2642.00,0.0055
2641.00,0.0055
2640.00,0.0055
2639.00,0.0055
2638.00,0.0055
2637.00,0.0055
2636.00,0.0055
2635.00,0.0055
2634.00,0.0055
2633.00,0.0055
2632.00,0.0055
2631.00,0.0055
2630.00,0.0055
2629.00,0.0054
2628.00,0.0054
2627.00,0.0054
2626.00,0.0054
2625.00,0.0054
2624.00,0.0054
2623.00,0.0054
2622.00,0.0054
2621.00,0.0054
2620.00,0.0054
2619.00,0.0054
2618.00,0.0054
2617.00,0.0053
2616.00,0.0053
2615.00,0.0053
2614.00,0.0053
2613.00,0.0053
2612.00,0.0053
2611.00,0.0053
2610.00,0.0053
2609.00,0.0052
2608.00,0.0052
2607.00,0.0052
2606.00,0.0052
2605.00,0.0052
2604.00,0.0052
2603.00,0.0052
2602.00,0.0052
2601.00,0.0051
2600.00,0.0051
2599.00,0.0051
2598.00,0.0051
2597.00,0.0051
2596.00,0.0051
2595.00,0.0051
2594.00,0.0051
2593.00,0.0050
2592.00,0.0051
2591.00,0.0051
2590.00,0.0050
2589.00,0.0050
2588.00,0.0050
2587.00,0.0050
2586.00,0.0050
2585.00,0.0050
2584.00,0.0049
2583.00,0.0049
2582.00,0.0049
2581.00,0.0049
2580.00,0.0049
2579.00,0.0049
2578.00,0.0049
2577.00,0.0049
2576.00,0.0049
2575.00,0.0049
2574.00,0.0049
2573.00,0.0048
2572.00,0.0048
2571.00,0.0048
2570.00,0.0048
2569.00,0.0048
2568.00,0.0048
2567.00,0.0048
2566.00,0.0047
2565.00,0.0047
2564.00,0.0047
2563.00,0.0047
2562.00,0.0047
2561.00,0.0047
2560.00,0.0047
2559.00,0.0047
2558.00,0.0047
2557.00,0.0047
2556.00,0.0047
2555.00,0.0046
2554.00,0.0046
2553.00,0.0046
2552.00,0.0046
2551.00,0.0046
2550.00,0.0046
2549.00,0.0046
2548.00,0.0046
2547.00,0.0046
2546.00,0.0045
2545.00,0.0045
2544.00,0.0045
2543.00,0.0045
2542.00,0.0045
2541.00,0.0045
2540.00,0.0045
2539.00,0.0045
2538.00,0.0045
2537.00,0.0044
2536.00,0.0044
2535.00,0.0044
2534.00,0.0044
2533.00,0.0044
2532.00,0.0044
2531.00,0.0044
2530.00,0.0044
2529.00,0.0044
2528.00,0.0044
2527.00,0.0044
2526.00,0.0043
2525.00,0.0043
2524.00,0.0043
2523.00,0.0043
2522.00,0.0043
2521.00,0.0043
2520.00,0.0043
2519.00,0.0043
2518.00,0.0043
2517.00,0.0043
2516.00,0.0042
2515.00,0.0042
2514.00,0.0042
2513.00,0.0042
2512.00,0.0042
2511.00,0.0042
2510.00,0.0042
2509.00,0.0042
2508.00,0.0042
2507.00,0.0042
2506.00,0.0041
2505.00,0.0041
2504.00,0.0041
2503.00,0.0041
2502.00,0.0041
2501.00,0.0041
2500.00,0.0041
2499.00,0.0040
2498.00,0.0040
2497.00,0.0040
2496.00,0.0040
2495.00,0.0040
2494.00,0.0040
2493.00,0.0040
2492.00,0.0040
2491.00,0.0039
2490.00,0.0039
2489.00,0.0039
2488.00,0.0039
2487.00,0.0039
2486.00,0.0039
2485.00,0.0039
2484.00,0.0039
2483.00,0.0039
2482.00,0.0038
2481.00,0.0038
2480.00,0.0038
2479.00,0.0038
2478.00,0.0038
2477.00,0.0038
2476.00,0.0038
2475.00,0.0038
2474.00,0.0038
2473.00,0.0037
2472.00,0.0037
2471.00,0.0037
2470.00,0.0037
2469.00,0.0037
2468.00,0.0037
2467.00,0.0036
2466.00,0.0036
2465.00,0.0036
2464.00,0.0036
2463.00,0.0036
2462.00,0.0036
2461.00,0.0035
2460.00,0.0035
2459.00,0.0035
2458.00,0.0035
2457.00,0.0035
2456.00,0.0035
2455.00,0.0035
2454.00,0.0035
2453.00,0.0035
2452.00,0.0035
2451.00,0.0035
2450.00,0.0034
2449.00,0.0034
2448.00,0.0034
2447.00,0.0034
2446.00,0.0034
2445.00,0.0034
2444.00,0.0034
2443.00,0.0033
2442.00,0.0033
2441.00,0.0033
2440.00,0.0033
2439.00,0.0033
2438.00,0.0033
2437.00,0.0033
2436.00,0.0033
2435.00,0.0033
2434.00,0.0033
2433.00,0.0032
2432.00,0.0032
2431.00,0.0032
2430.00,0.0032
2429.00,0.0032
2428.00,0.0032
2427.00,0.0032
2426.00,0.0032
2425.00,0.0032
2424.00,0.0032
2423.00,0.0031
2422.00,0.0031
2421.00,0.0031
2420.00,0.0031
2419.00,0.0031
2418.00,0.0031
2417.00,0.0031
2416.00,0.0031
2415.00,0.0030
2414.00,0.0030
2413.00,0.0030
2412.00,0.0030
2411.00,0.0030
2410.00,0.0030
2409.00,0.0030
2408.00,0.0030
2407.00,0.0029
2406.00,0.0029
2405.00,0.0029
2404.00,0.0029
2403.00,0.0029
2402.00,0.0029
2401.00,0.0029
2400.00,0.0029
2399.00,0.0029
2398.00,0.0029
2397.00,0.0029
2396.00,0.0029
2395.00,0.0028
2394.00,0.0028
2393.00,0.0028
2392.00,0.0028
2391.00,0.0028
2390.00,0.0027
2389.00,0.0027
2388.00,0.0027
2387.00,0.0027
2386.00,0.0027
2385.00,0.0027
2384.00,0.0026
2383.00,0.0026
2382.00,0.0026
2381.00,0.0026
2380.00,0.0026
2379.00,0.0026
2378.00,0.0026
2377.00,0.0026
2376.00,0.0026
2375.00,0.0025
2374.00,0.0025
2373.00,0.0025
2372.00,0.0025
2371.00,0.0025
2370.00,0.0025
2369.00,0.0025
2368.00,0.0024
2367.00,0.0024
2366.00,0.0024
2365.00,0.0024
2364.00,0.0023
2363.00,0.0023
2362.00,0.0023
2361.00,0.0023
2360.00,0.0022
2359.00,0.0022
2358.00,0.0022
2357.00,0.0022
2356.00,0.0022
2355.00,0.0023
2354.00,0.0023
2353.00,0.0023
2352.00,0.0022
2351.00,0.0022
2350.00,0.0022
2349.00,0.0022
2348.00,0.0022
2347.00,0.0022
2346.00,0.0022
2345.00,0.0022
2344.00,0.0021
2343.00,0.0021
2342.00,0.0021
2341.00,0.0021
2340.00,0.0022
2339.00,0.0022
2338.00,0.0022
2337.00,0.0022
2336.00,0.0022
2335.00,0.0022
2334.00,0.0022
2333.00,0.0022
2332.00,0.0022
2331.00,0.0021
2330.00,0.0021
2329.00,0.0021
2328.00,0.0021
2327.00,0.0021
2326.00,0.0021
2325.00,0.0021
2324.00,0.0021
2323.00,0.0021
2322.00,0.0021
2321.00,0.0021
2320.00,0.0021
2319.00,0.0021
2318.00,0.0021
2317.00,0.0021
2316.00,0.0021
2315.00,0.0021
2314.00,0.0021
2313.00,0.0021
2312.00,0.0021
2311.00,0.0021
2310.00,0.0021
2309.00,0.0021
2308.00,0.0021
2307.00,0.0021
2306.00,0.0021
2305.00,0.0021
2304.00,0.0021
2303.00,0.0021
2302.00,0.0021
2301.00,0.0021
2300.00,0.0021
2299.00,0.0021
2298.00,0.0021
2297.00,0.0021
2296.00,0.0021
2295.00,0.0021
2294.00,0.0021
2293.00,0.0021
2292.00,0.0021
2291.00,0.0021
2290.00,0.0021
2289.00,0.0021
2288.00,0.0021
2287.00,0.0021
2286.00,0.0021
2285.00,0.0021
2284.00,0.0021
2283.00,0.0021
2282.00,0.0021
2281.00,0.0021
2280.00,0.0021
2279.00,0.0021
2278.00,0.0021
2277.00,0.0021
2276.00,0.0021
2275.00,0.0021
2274.00,0.0021
2273.00,0.0021
2272.00,0.0021
2271.00,0.0021
2270.00,0.0021
2269.00,0.0021
2268.00,0.0021
2267.00,0.0021
2266.00,0.0021
2265.00,0.0021
2264.00,0.0021
2263.00,0.0021
2262.00,0.0021
2261.00,0.0021
2260.00,0.0021
2259.00,0.0021
2258.00,0.0020
2257.00,0.0020
2256.00,0.0020
2255.00,0.0020
2254.00,0.0020
2253.00,0.0020
2252.00,0.0020
2251.00,0.0020
2250.00,0.0020
2249.00,0.0020
2248.00,0.0020
2247.00,0.0020
2246.00,0.0020
2245.00,0.0020
2244.00,0.0020
2243.00,0.0020
2242.00,0.0020
2241.00,0.0020
2240.00,0.0020
2239.00,0.0020
2238.00,0.0020
2237.00,0.0019
2236.00,0.0019
2235.00,0.0019
2234.00,0.0019
2233.00,0.0019
2232.00,0.0019
2231.00,0.0019
2230.00,0.0018
2229.00,0.0018
2228.00,0.0018
2227.00,0.0019
2226.00,0.0019
2225.00,0.0019
2224.00,0.0019
2223.00,0.0019
2222.00,0.0019
2221.00,0.0019
2220.00,0.0019
2219.00,0.0020
2218.00,0.0020
2217.00,0.0020
2216.00,0.0020
2215.00,0.0020
2214.00,0.0020
2213.00,0.0020
2212.00,0.0020
2211.00,0.0019
2210.00,0.0019
2209.00,0.0018
2208.00,0.0017
2207.00,0.0017
2206.00,0.0017
2205.00,0.0017
2204.00,0.0018
2203.00,0.0018
2202.00,0.0018
2201.00,0.0018
2200.00,0.0019
2199.00,0.0020
2198.00,0.0019
2197.00,0.0019
2196.00,0.0018
2195.00,0.0018
2194.00,0.0017
2193.00,0.0017
2192.00,0.0018
2191.00,0.0018
2190.00,0.0018
2189.00,0.0019
2188.00,0.0019
2187.00,0.0019
2186.00,0.0018
2185.00,0.0018
2184.00,0.0018
2183.00,0.0017
2182.00,0.0017
2181.00,0.0016
2180.00,0.0016
2179.00,0.0015
2178.00,0.0014
2177.00,0.0014
2176.00,0.0014
2175.00,0.0014
2174.00,0.0015
2173.00,0.0017
2172.00,0.0017
2171.00,0.0017
2170.00,0.0017
2169.00,0.0016
2168.00,0.0016
2167.00,0.0017
2166.00,0.0017
2165.00,0.0017
2164.00,0.0017
2163.00,0.0016
2162.00,0.0015
2161.00,0.0014
2160.00,0.0014
2159.00,0.0014
2158.00,0.0014
2157.00,0.0015
2156.00,0.0016
2155.00,0.0017
2154.00,0.0017
2153.00,0.0017
2152.00,0.0018
2151.00,0.0017
2150.00,0.0017
2149.00,0.0017
2148.00,0.0016
2147.00,0.0016
2146.00,0.0016
2145.00,0.0016
2144.00,0.0017
2143.00,0.0017
2142.00,0.0017
2141.00,0.0017
2140.00,0.0017
2139.00,0.0017
2138.00,0.0017
2137.00,0.0017
2136.00,0.0018
2135.00,0.0018
2134.00,0.0018
2133.00,0.0018
2132.00,0.0018
2131.00,0.0017
2130.00,0.0017
2129.00,0.0017
2128.00,0.0018
2127.00,0.0018
2126.00,0.0018
2125.00,0.0018
2124.00,0.0018
2123.00,0.0018
2122.00,0.0017
2121.00,0.0017
2120.00,0.0018
2119.00,0.0018
2118.00,0.0018
2117.00,0.0019
2116.00,0.0019
2115.00,0.0018
2114.00,0.0018
2113.00,0.0018
2112.00,0.0018
2111.00,0.0018
2110.00,0.0018
2109.00,0.0018
2108.00,0.0018
2107.00,0.0018
2106.00,0.0018
2105.00,0.0018
2104.00,0.0018
2103.00,0.0018
2102.00,0.0018
2101.00,0.0018
2100.00,0.0018
2099.00,0.0018
2098.00,0.0018
2097.00,0.0017
2096.00,0.0018
2095.00,0.0018
2094.00,0.0018
2093.00,0.0017
2092.00,0.0017
2091.00,0.0017
2090.00,0.0017
2089.00,0.0017
2088.00,0.0017
2087.00,0.0017
2086.00,0.0017
2085.00,0.0016
2084.00,0.0017
2083.00,0.0016
2082.00,0.0016
2081.00,0.0016
2080.00,0.0016
2079.00,0.0016
2078.00,0.0016
2077.00,0.0016
2076.00,0.0016
2075.00,0.0016
2074.00,0.0016
2073.00,0.0016
2072.00,0.0016
2071.00,0.0015
2070.00,0.0015
2069.00,0.0015
2068.00,0.0015
2067.00,0.0015
2066.00,0.0015
2065.00,0.0014
2064.00,0.0014
2063.00,0.0015
2062.00,0.0014
2061.00,0.0014
2060.00,0.0014
2059.00,0.0014
2058.00,0.0015
2057.00,0.0015
2056.00,0.0015
2055.00,0.0015
2054.00,0.0014
2053.00,0.0013
2052.00,0.0012
2051.00,0.0012
2050.00,0.0012
2049.00,0.0012
2048.00,0.0012
2047.00,0.0012
2046.00,0.0012
2045.00,0.0012
2044.00,0.0013
2043.00,0.0013
2042.00,0.0013
2041.00,0.0012
2040.00,0.0012
2039.00,0.0012
2038.00,0.0012
2037.00,0.0013
2036.00,0.0013
2035.00,0.0014
2034.00,0.0015
2033.00,0.0015
2032.00,0.0015
2031.00,0.0015
2030.00,0.0014
2029.00,0.0014
2028.00,0.0014
2027.00,0.0013
2026.00,0.0012
2025.00,0.0012
2024.00,0.0012
2023.00,0.0013
2022.00,0.0012
2021.00,0.0012
2020.00,0.0012
2019.00,0.0012
2018.00,0.0011
2017.00,0.0011
2016.00,0.0011
2015.00,0.0011
2014.00,0.0011
2013.00,0.0011
2012.00,0.0010
2011.00,0.0010
2010.00,0.0010
2009.00,0.0009
2008.00,0.0009
2007.00,0.0009
2006.00,0.0009
2005.00,0.0009
2004.00,0.0010
2003.00,0.0010
2002.00,0.0010
2001.00,0.0010
2000.00,0.0010
1999.00,0.0010
1998.00,0.0011
1997.00,0.0011
1996.00,0.0011
1995.00,0.0011
1994.00,0.0010
1993.00,0.0010
1992.00,0.0010
1991.00,0.0010
1990.00,0.0010
1989.00,0.0010
1988.00,0.0010
1987.00,0.0010
1986.00,0.0010
1985.00,0.0010
1984.00,0.0011
1983.00,0.0010
1982.00,0.0009
1981.00,0.0009
1980.00,0.0009
1979.00,0.0009
1978.00,0.0009
1977.00,0.0009
1976.00,0.0009
1975.00,0.0009
1974.00,0.0008
1973.00,0.0008
1972.00,0.0009
1971.00,0.0009
1970.00,0.0010
1969.00,0.0010
1968.00,0.0011
1967.00,0.0011
1966.00,0.0010
1965.00,0.0010
1964.00,0.0009
1963.00,0.0009
1962.00,0.0008
1961.00,0.0008
1960.00,0.0008
1959.00,0.0009
1958.00,0.0009
1957.00,0.0010
1956.00,0.0010
1955.00,0.0010
1954.00,0.0010
1953.00,0.0010
1952.00,0.0010
1951.00,0.0010
1950.00,0.0010
1949.00,0.0010
1948.00,0.0010
1947.00,0.0010
1946.00,0.0010
1945.00,0.0010
1944.00,0.0010
1943.00,0.0010
1942.00,0.0010
1941.00,0.0010
1940.00,0.0010
1939.00,0.0009
1938.00,0.0009
1937.00,0.0009
1936.00,0.0009
1935.00,0.0009
1934.00,0.0009
1933.00,0.0009
1932.00,0.0009
1931.00,0.0009
1930.00,0.0008
1929.00,0.0008
1928.00,0.0008
1927.00,0.0008
1926.00,0.0008
1925.00,0.0009
1924.00,0.0009
1923.00,0.0009
1922.00,0.0008
1921.00,0.0008
1920.00,0.0008
1919.00,0.0008
1918.00,0.0008
1917.00,0.0008
1916.00,0.0008
1915.00,0.0008
1914.00,0.0008
1913.00,0.0008
1912.00,0.0007
1911.00,0.0007
1910.00,0.0007
1909.00,0.0007
1908.00,0.0007
1907.00,0.0007
1906.00,0.0007
1905.00,0.0007
1904.00,0.0008
1903.00,0.0008
1902.00,0.0007
1901.00,0.0007
1900.00,0.0007
1899.00,0.0007
1898.00,0.0007
1897.00,0.0007
1896.00,0.0007
1895.00,0.0007
1894.00,0.0007
1893.00,0.0007
1892.00,0.0006
1891.00,0.0006
1890.00,0.0006
1889.00,0.0006
1888.00,0.0007
1887.00,0.0007
1886.00,0.0007
1885.00,0.0007
1884.00,0.0007
1883.00,0.0007
1882.00,0.0007
1881.00,0.0006
1880.00,0.0006
1879.00,0.0006
1878.00,0.0006
1877.00,0.0006
1876.00,0.0006
1875.00,0.0006
1874.00,0.0006
1873.00,0.0006
1872.00,0.0005
1871.00,0.0005
1870.00,0.0005
1869.00,0.0005
1868.00,0.0005
1867.00,0.0006
1866.00,0.0006
1865.00,0.0006
1864.00,0.0006
1863.00,0.0006
1862.00,0.0006
1861.00,0.0006
1860.00,0.0006
1859.00,0.0006
1858.00,0.0006
1857.00,0.0005
1856.00,0.0005
1855.00,0.0005
1854.00,0.0005
1853.00,0.0005
1852.00,0.0005
1851.00,0.0005
1850.00,0.0005
1849.00,0.0005
1848.00,0.0005
1847.00,0.0005
1846.00,0.0004
1845.00,0.0004
1844.00,0.0004
1843.00,0.0004
1842.00,0.0004
1841.00,0.0004
1840.00,0.0004
1839.00,0.0004
1838.00,0.0004
1837.00,0.0004
1836.00,0.0004
1835.00,0.0004
1834.00,0.0004
1833.00,0.0003
1832.00,0.0003
1831.00,0.0002
1830.00,0.0002
1829.00,0.0003
1828.00,0.0003
1827.00,0.0002
1826.00,0.0002
1825.00,0.0003
1824.00,0.0003
1823.00,0.0003
1822.00,0.0003
1821.00,0.0003
1820.00,0.0003
1819.00,0.0003
1818.00,0.0003
1817.00,0.0003
1816.00,0.0003
1815.00,0.0003
1814.00,0.0003
1813.00,0.0003
1812.00,0.0003
1811.00,0.0002
1810.00,0.0002
1809.00,0.0002
1808.00,0.0003
1807.00,0.0002
1806.00,0.0002
1805.00,0.0002
1804.00,0.0002
1803.00,0.0002
1802.00,0.0002
1801.00,0.0002
1800.00,0.0002
1799.00,0.0002
1798.00,0.0003
1797.00,0.0003
1796.00,0.0003
1795.00,0.0003
1794.00,0.0002
1793.00,0.0002
1792.00,0.0002
1791.00,0.0002
1790.00,0.0002
1789.00,0.0002
1788.00,0.0002
1787.00,0.0002
1786.00,0.0002
1785.00,0.0002
1784.00,0.0002
1783.00,0.0002
1782.00,0.0002
1781.00,0.0002
1780.00,0.0002
1779.00,0.0003
1778.00,0.0003
1777.00,0.0003
1776.00,0.0005
1775.00,0.0005
1774.00,0.0005
1773.00,0.0004
1772.00,0.0003
1771.00,0.0003
1770.00,0.0003
1769.00,0.0003
1768.00,0.0004
1767.00,0.0004
1766.00,0.0004
1765.00,0.0004
1764.00,0.0005
1763.00,0.0005
1762.00,0.0006
1761.00,0.0006
1760.00,0.0007
1759.00,0.0007
1758.00,0.0008
1757.00,0.0009
1756.00,0.0010
1755.00,0.0012
1754.00,0.0014
1753.00,0.0015
1752.00,0.0017
1751.00,0.0017
1750.00,0.0018
1749.00,0.0019
1748.00,0.0020
1747.00,0.0022
1746.00,0.0023
1745.00,0.0024
1744.00,0.0025
1743.00,0.0026
1742.00,0.0027
1741.00,0.0028
1740.00,0.0029
1739.00,0.0032
1738.00,0.0034
1737.00,0.0037
1736.00,0.0033
1735.00,0.0033
1734.00,0.0034
1733.00,0.0035
1732.00,0.0036
1731.00,0.0037
1730.00,0.0038
1729.00,0.0039
1728.00,0.0040
1727.00,0.0041
1726.00,0.0042
1725.00,0.0043
1724.00,0.0045
1723.00,0.0046
1722.00,0.0048
1721.00,0.0050
1720.00,0.0054
1719.00,0.0058
1718.00,0.0060
1717.00,0.0061
1716.00,0.0062
1715.00,0.0063
1714.00,0.0065
1713.00,0.0069
1712.00,0.0073
1711.00,0.0078
1710.00,0.0082
1709.00,0.0087
1708.00,0.0093
1707.00,0.0100
1706.00,0.0109
1705.00,0.0119
1704.00,0.0130
1703.00,0.0140
1702.00,0.0151
1701.00,0.0166
1700.00,0.0187
1699.00,0.0206
1698.00,0.0220
1697.00,0.0232
1696.00,0.0243
1695.00,0.0253
1694.00,0.0261
1693.00,0.0268
1692.00,0.0276
1691.00,0.0285
1690.00,0.0295
1689.00,0.0306
1688.00,0.0318
1687.00,0.0329
1686.00,0.0338
1685.00,0.0345
1684.00,0.0353
1683.00,0.0362
1682.00,0.0371
1681.00,0.0380
1680.00,0.0390
1679.00,0.0400
1678.00,0.0409
1677.00,0.0418
1676.00,0.0428
1675.00,0.0439
1674.00,0.0450
1673.00,0.0459
1672.00,0.0469
1671.00,0.0479
1670.00,0.0489
1669.00,0.0500
1668.00,0.0511
1667.00,0.0521
1666.00,0.0531
1665.00,0.0541
1664.00,0.0551
1663.00,0.0562
1662.00,0.0573
1661.00,0.0583
1660.00,0.0594
1659.00,0.0605
1658.00,0.0616
1657.00,0.0628
1656.00,0.0642
1655.00,0.0654
1654.00,0.0662
1653.00,0.0667
1652.00,0.0670
1651.00,0.0673
1650.00,0.0678
1649.00,0.0685
1648.00,0.0692
1647.00,0.0697
1646.00,0.0701
1645.00,0.0705
1644.00,0.0709
1643.00,0.0714
1642.00,0.0719
1641.00,0.0724
1640.00,0.0729
1639.00,0.0736
1638.00,0.0742
1637.00,0.0747
1636.00,0.0750
1635.00,0.0753
1634.00,0.0759
1633.00,0.0765
1632.00,0.0772
1631.00,0.0778
1630.00,0.0784
1629.00,0.0788
1628.00,0.0791
1627.00,0.0793
1626.00,0.0794
1625.00,0.0792
1624.00,0.0787
1623.00,0.0779
1622.00,0.0770
1621.00,0.0762
1620.00,0.0755
1619.00,0.0746
1618.00,0.0731
1617.00,0.0708
1616.00,0.0683
1615.00,0.0660
1614.00,0.0642
1613.00,0.0625
1612.00,0.0607
1611.00,0.0588
1610.00,0.0570
1609.00,0.0551
1608.00,0.0533
1607.00,0.0516
1606.00,0.0501
1605.00,0.0487
1604.00,0.0474
1603.00,0.0461
1602.00,0.0450
1601.00,0.0440
1600.00,0.0431
1599.00,0.0422
1598.00,0.0415
1597.00,0.0408
1596.00,0.0402
1595.00,0.0396
1594.00,0.0390
1593.00,0.0385
1592.00,0.0380
1591.00,0.0376
1590.00,0.0372
1589.00,0.0369
1588.00,0.0366
1587.00,0.0364
1586.00,0.0363
1585.00,0.0362
1584.00,0.0361
1583.00,0.0361
1582.00,0.0361
1581.00,0.0363
1580.00,0.0366
1579.00,0.0371
1578.00,0.0376
1577.00,0.0379
1576.00,0.0379
1575.00,0.0379
1574.00,0.0381
1573.00,0.0384
1572.00,0.0388
1571.00,0.0391
1570.00,0.0396
1569.00,0.0402
1568.00,0.0408
1567.00,0.0414
1566.00,0.0420
1565.00,0.0428
1564.00,0.0437
1563.00,0.0446
1562.00,0.0455
1561.00,0.0461
1560.00,0.0467
1559.00,0.0473
1558.00,0.0482
1557.00,0.0490
1556.00,0.0498
1555.00,0.0506
1554.00,0.0514
1553.00,0.0522
1552.00,0.0530
1551.00,0.0539
1550.00,0.0548
1549.00,0.0557
1548.00,0.0566
1547.00,0.0574
1546.00,0.0583
1545.00,0.0592
1544.00,0.0601
1543.00,0.0611
1542.00,0.0620
1541.00,0.0629
1540.00,0.0634
1539.00,0.0638
1538.00,0.0642
1537.00,0.0647
1536.00,0.0652
1535.00,0.0657
1534.00,0.0662
1533.00,0.0667
1532.00,0.0672
1531.00,0.0677
1530.00,0.0682
1529.00,0.0687
1528.00,0.0691
1527.00,0.0694
1526.00,0.0698
1525.00,0.0702
1524.00,0.0707
1523.00,0.0710
1522.00,0.0713
1521.00,0.0713
1520.00,0.0714
1519.00,0.0716
1518.00,0.0719
1517.00,0.0722
1516.00,0.0723
1515.00,0.0724
1514.00,0.0724
1513.00,0.0721
1512.00,0.0717
1511.00,0.0713
1510.00,0.0710
1509.00,0.0706
1508.00,0.0698
1507.00,0.0682
1506.00,0.0666
1505.00,0.0653
1504.00,0.0643
1503.00,0.0635
1502.00,0.0626
1501.00,0.0616
1500.00,0.0606
1499.00,0.0596
1498.00,0.0585
1497.00,0.0572
1496.00,0.0557
1495.00,0.0542
1494.00,0.0528
1493.00,0.0516
1492.00,0.0503
1491.00,0.0489
1490.00,0.0474
1489.00,0.0460
1488.00,0.0447
1487.00,0.0435
1486.00,0.0424
1485.00,0.0414
1484.00,0.0405
1483.00,0.0396
1482.00,0.0387
1481.00,0.0380
1480.00,0.0373
1479.00,0.0368
1478.00,0.0364
1477.00,0.0361
1476.00,0.0361
1475.00,0.0361
1474.00,0.0362
1473.00,0.0364
1472.00,0.0366
1471.00,0.0369
1470.00,0.0372
1469.00,0.0375
1468.00,0.0377
1467.00,0.0377
1466.00,0.0377
1465.00,0.0376
1464.00,0.0376
1463.00,0.0376
1462.00,0.0377
1461.00,0.0378
1460.00,0.0381
1459.00,0.0384
1458.00,0.0387
1457.00,0.0389
1456.00,0.0390
1455.00,0.0391
1454.00,0.0391
1453.00,0.0392
1452.00,0.0392
1451.00,0.0391
1450.00,0.0391
1449.00,0.0390
1448.00,0.0389
1447.00,0.0388
1446.00,0.0387
1445.00,0.0386
1444.00,0.0384
1443.00,0.0383
1442.00,0.0381
1441.00,0.0380
1440.00,0.0378
1439.00,0.0375
1438.00,0.0372
1437.00,0.0368
1436.00,0.0363
1435.00,0.0358
1434.00,0.0354
1433.00,0.0350
1432.00,0.0345
1431.00,0.0340
1430.00,0.0336
1429.00,0.0333
1428.00,0.0330
1427.00,0.0329
1426.00,0.0328
1425.00,0.0327
1424.00,0.0327
1423.00,0.0328
1422.00,0.0330
1421.00,0.0331
1420.00,0.0332
1419.00,0.0334
1418.00,0.0336
1417.00,0.0338
1416.00,0.0340
1415.00,0.0343
1414.00,0.0346
1413.00,0.0349
1412.00,0.0352
1411.00,0.0355
1410.00,0.0358
1409.00,0.0361
1408.00,0.0364
1407.00,0.0367
1406.00,0.0370
1405.00,0.0374
1404.00,0.0377
1403.00,0.0381
1402.00,0.0384
1401.00,0.0386
1400.00,0.0389
1399.00,0.0391
1398.00,0.0394
1397.00,0.0396
1396.00,0.0398
1395.00,0.0400
1394.00,0.0402
1393.00,0.0404
1392.00,0.0405
1391.00,0.0406
1390.00,0.0407
1389.00,0.0408
1388.00,0.0407
1387.00,0.0405
1386.00,0.0403
1385.00,0.0401
1384.00,0.0398
1383.00,0.0395
1382.00,0.0392
1381.00,0.0388
1380.00,0.0385
1379.00,0.0381
1378.00,0.0378
1377.00,0.0374
1376.00,0.0370
1375.00,0.0366
1374.00,0.0363
1373.00,0.0360
1372.00,0.0358
1371.00,0.0356
1370.00,0.0354
1369.00,0.0352
1368.00,0.0349
1367.00,0.0345
1366.00,0.0341
1365.00,0.0337
1364.00,0.0332
1363.00,0.0327
1362.00,0.0323
1361.00,0.0320
1360.00,0.0316
1359.00,0.0314
1358.00,0.0311
1357.00,0.0309
1356.00,0.0307
1355.00,0.0305
1354.00,0.0304
1353.00,0.0303
1352.00,0.0302
1351.00,0.0301
1350.00,0.0300
1349.00,0.0300
1348.00,0.0299
1347.00,0.0299
1346.00,0.0299
1345.00,0.0299
1344.00,0.0299
1343.00,0.0299
1342.00,0.0299
1341.00,0.0299
1340.00,0.0299
1339.00,0.0298
1338.00,0.0297
1337.00,0.0296
1336.00,0.0295
1335.00,0.0294
1334.00,0.0293
1333.00,0.0292
1332.00,0.0291
1331.00,0.0291
1330.00,0.0290
1329.00,0.0290
1328.00,0.0290
1327.00,0.0289
1326.00,0.0289
1325.00,0.0290
1324.00,0.0290
1323.00,0.0291
1322.00,0.0291
1321.00,0.0292
1320.00,0.0293
1319.00,0.0294
1318.00,0.0295
1317.00,0.0296
1316.00,0.0297
1315.00,0.0298
1314.00,0.0299
1313.00,0.0300
1312.00,0.0300
1311.00,0.0301
1310.00,0.0301
1309.00,0.0301
1308.00,0.0301
1307.00,0.0301
1306.00,0.0301
1305.00,0.0301
1304.00,0.0300
1303.00,0.0300
1302.00,0.0300
1301.00,0.0300
1300.00,0.0300
1299.00,0.0300
1298.00,0.0300
1297.00,0.0300
1296.00,0.0300
1295.00,0.0301
1294.00,0.0301
1293.00,0.0302
1292.00,0.0303
1291.00,0.0303
1290.00,0.0304
1289.00,0.0305
1288.00,0.0306
1287.00,0.0307
1286.00,0.0308
1285.00,0.0309
1284.00,0.0309
1283.00,0.0310
1282.00,0.0311
1281.00,0.0311
1280.00,0.0312
1279.00,0.0312
1278.00,0.0312
1277.00,0.0312
1276.00,0.0312
1275.00,0.0313
1274.00,0.0313
1273.00,0.0314
1272.00,0.0314
1271.00,0.0315
1270.00,0.0316
1269.00,0.0317
1268.00,0.0319
1267.00,0.0320
1266.00,0.0322
1265.00,0.0324
1264.00,0.0327
1263.00,0.0329
1262.00,0.0332
1261.00,0.0335
1260.00,0.0338
1259.00,0.0342
1258.00,0.0345
1257.00,0.0349
1256.00,0.0352
1255.00,0.0356
1254.00,0.0360
1253.00,0.0363
1252.00,0.0367
1251.00,0.0370
1250.00,0.0374
1249.00,0.0378
1248.00,0.0381
1247.00,0.0385
1246.00,0.0388
1245.00,0.0392
1244.00,0.0395
1243.00,0.0398
1242.00,0.0401
1241.00,0.0404
1240.00,0.0406
1239.00,0.0409
1238.00,0.0412
1237.00,0.0414
1236.00,0.0416
1235.00,0.0417
1234.00,0.0419
1233.00,0.0420
1232.00,0.0421
1231.00,0.0421
1230.00,0.0422
1229.00,0.0422
1228.00,0.0422
1227.00,0.0421
1226.00,0.0420
1225.00,0.0419
1224.00,0.0418
1223.00,0.0416
1222.00,0.0414
1221.00,0.0412
1220.00,0.0409
1219.00,0.0406
1218.00,0.0403
1217.00,0.0400
1216.00,0.0396
1215.00,0.0392
1214.00,0.0388
1213.00,0.0383
1212.00,0.0379
1211.00,0.0374
1210.00,0.0369
1209.00,0.0364
1208.00,0.0358
1207.00,0.0353
1206.00,0.0348
1205.00,0.0343
1204.00,0.0338
1203.00,0.0333
1202.00,0.0328
1201.00,0.0323
1200.00,0.0319
1199.00,0.0314
1198.00,0.0310
1197.00,0.0306
1196.00,0.0303
1195.00,0.0299
1194.00,0.0296
1193.00,0.0293
1192.00,0.0290
1191.00,0.0288
1190.00,0.0285
1189.00,0.0283
1188.00,0.0281
1187.00,0.0279
1186.00,0.0278
1185.00,0.0276
1184.00,0.0275
1183.00,0.0274
1182.00,0.0273
1181.00,0.0272
1180.00,0.0272
1179.00,0.0272
1178.00,0.0273
1177.00,0.0275
1176.00,0.0276
1175.00,0.0278
1174.00,0.0280
1173.00,0.0282
1172.00,0.0284
1171.00,0.0286
1170.00,0.0287
1169.00,0.0288
1168.00,0.0289
1167.00,0.0290
1166.00,0.0292
1165.00,0.0294
1164.00,0.0295
1163.00,0.0297
1162.00,0.0299
1161.00,0.0300
1160.00,0.0301
1159.00,0.0301
1158.00,0.0302
1157.00,0.0302
1156.00,0.0301
1155.00,0.0301
1154.00,0.0300
1153.00,0.0298
1152.00,0.0296
1151.00,0.0294
1150.00,0.0292
1149.00,0.0290
1148.00,0.0287
1147.00,0.0285
1146.00,0.0283
1145.00,0.0281
1144.00,0.0278
1143.00,0.0277
1142.00,0.0275
1141.00,0.0274
1140.00,0.0273
1139.00,0.0272
1138.00,0.0273
1137.00,0.0273
1136.00,0.0274
1135.00,0.0276
1134.00,0.0278
1133.00,0.0281
1132.00,0.0283
1131.00,0.0286
1130.00,0.0289
1129.00,0.0291
1128.00,0.0292
1127.00,0.0294
1126.00,0.0295
1125.00,0.0296
1124.00,0.0296
1123.00,0.0296
1122.00,0.0297
1121.00,0.0297
1120.00,0.0297
1119.00,0.0298
1118.00,0.0298
1117.00,0.0299
1116.00,0.0300
1115.00,0.0301
1114.00,0.0302
1113.00,0.0304
1112.00,0.0305
1111.00,0.0306
1110.00,0.0307
1109.00,0.0309
1108.00,0.0310
1107.00,0.0312
1106.00,0.0315
1105.00,0.0317
1104.00,0.0318
1103.00,0.0320
1102.00,0.0323
1101.00,0.0325
1100.00,0.0326
1099.00,0.0329
1098.00,0.0331
1097.00,0.0334
1096.00,0.0336
1095.00,0.0339
1094.00,0.0343
1093.00,0.0346
1092.00,0.0350
1091.00,0.0354
1090.00,0.0359
1089.00,0.0363
1088.00,0.0368
1087.00,0.0372
1086.00,0.0377
1085.00,0.0382
1084.00,0.0386
1083.00,0.0391
1082.00,0.0395
1081.00,0.0399
1080.00,0.0403
1079.00,0.0406
1078.00,0.0408
1077.00,0.0411
1076.00,0.0412
1075.00,0.0413
1074.00,0.0414
1073.00,0.0415
1072.00,0.0415
1071.00,0.0414
1070.00,0.0414
1069.00,0.0414
1068.00,0.0413
1067.00,0.0413
1066.00,0.0413
1065.00,0.0413
1064.00,0.0412
1063.00,0.0412
1062.00,0.0412
1061.00,0.0411
1060.00,0.0411
1059.00,0.0410
1058.00,0.0409
1057.00,0.0407
1056.00,0.0406
1055.00,0.0404
1054.00,0.0403
1053.00,0.0402
1052.00,0.0399
1051.00,0.0397
1050.00,0.0395
1049.00,0.0393
1048.00,0.0391
1047.00,0.0389
1046.00,0.0387
1045.00,0.0385
1044.00,0.0383
1043.00,0.0381
1042.00,0.0379
1041.00,0.0377
1040.00,0.0375
1039.00,0.0373
1038.00,0.0371
1037.00,0.0370
1036.00,0.0368
1035.00,0.0366
1034.00,0.0365
1033.00,0.0364
1032.00,0.0363
1031.00,0.0362
1030.00,0.0360
1029.00,0.0358
1028.00,0.0356
1027.00,0.0354
1026.00,0.0351
1025.00,0.0348
1024.00,0.0345
1023.00,0.0341
1022.00,0.0338
1021.00,0.0335
1020.00,0.0330
1019.00,0.0326
1018.00,0.0323
1017.00,0.0319
1016.00,0.0314
1015.00,0.0310
1014.00,0.0306
1013.00,0.0303
1012.00,0.0299
1011.00,0.0295
1010.00,0.0291
1009.00,0.0287
1008.00,0.0283
1007.00,0.0279
1006.00,0.0275
1005.00,0.0272
1004.00,0.0269
1003.00,0.0265
1002.00,0.0263
1001.00,0.0260
1000.00,0.0257
999.00,0.0254
998.00,0.0252
997.00,0.0250
996.00,0.0247
995.00,0.0244
994.00,0.0242
993.00,0.0240
992.00,0.0237
991.00,0.0234
990.00,0.0232
989.00,0.0229
988.00,0.0226
987.00,0.0223
986.00,0.0221
985.00,0.0219
984.00,0.0217
983.00,0.0214
982.00,0.0213
981.00,0.0211
980.00,0.0210
979.00,0.0209
978.00,0.0209
977.00,0.0209
976.00,0.0208
975.00,0.0208
974.00,0.0209
973.00,0.0209
972.00,0.0209
971.00,0.0209
970.00,0.0210
969.00,0.0210
968.00,0.0211
967.00,0.0211
966.00,0.0212
965.00,0.0212
964.00,0.0212
963.00,0.0213
962.00,0.0214
961.00,0.0215
960.00,0.0216
959.00,0.0218
958.00,0.0221
957.00,0.0224
956.00,0.0227
955.00,0.0231
954.00,0.0234
953.00,0.0238
952.00,0.0239
951.00,0.0241
950.00,0.0241
949.00,0.0240
948.00,0.0239
947.00,0.0237
946.00,0.0234
945.00,0.0232
944.00,0.0229
943.00,0.0227
942.00,0.0225
941.00,0.0223
940.00,0.0221
939.00,0.0220
938.00,0.0220
937.00,0.0219
936.00,0.0219
935.00,0.0218
934.00,0.0218
933.00,0.0218
932.00,0.0217
931.00,0.0216
930.00,0.0215
929.00,0.0214
928.00,0.0212
927.00,0.0211
926.00,0.0210
925.00,0.0209
924.00,0.0208
923.00,0.0207
922.00,0.0206
921.00,0.0205
920.00,0.0204
919.00,0.0202
918.00,0.0202
917.00,0.0200
916.00,0.0199
915.00,0.0198
914.00,0.0197
913.00,0.0196
912.00,0.0194
911.00,0.0193
910.00,0.0192
909.00,0.0191
908.00,0.0190
907.00,0.0189
906.00,0.0188
905.00,0.0188
904.00,0.0187
903.00,0.0186
902.00,0.0186
901.00,0.0185
900.00,0.0185
899.00,0.0184
898.00,0.0184
897.00,0.0183
896.00,0.0183
895.00,0.0182
894.00,0.0183
893.00,0.0183
892.00,0.0182
891.00,0.0182
890.00,0.0182
889.00,0.0183
888.00,0.0183
887.00,0.0183
886.00,0.0183
885.00,0.0183
884.00,0.0183
883.00,0.0183
882.00,0.0183
881.00,0.0183
880.00,0.0182
879.00,0.0182
878.00,0.0182
877.00,0.0181
876.00,0.0181
875.00,0.0180
874.00,0.0180
873.00,0.0179
872.00,0.0178
871.00,0.0178
870.00,0.0179
869.00,0.0179
868.00,0.0179
867.00,0.0179
866.00,0.0179
865.00,0.0180
864.00,0.0180
863.00,0.0180
862.00,0.0181
861.00,0.0182
860.00,0.0182
859.00,0.0184
858.00,0.0185
857.00,0.0187
856.00,0.0188
855.00,0.0189
854.00,0.0191
853.00,0.0192
852.00,0.0192
851.00,0.0193
850.00,0.0194
849.00,0.0195
848.00,0.0195
847.00,0.0195
846.00,0.0196
845.00,0.0196
844.00,0.0196
843.00,0.0197
842.00,0.0198
841.00,0.0200
840.00,0.0201
839.00,0.0202
838.00,0.0204
837.00,0.0206
836.00,0.0207
835.00,0.0209
834.00,0.0211
833.00,0.0213
832.00,0.0215
831.00,0.0216
830.00,0.0218
829.00,0.0219
828.00,0.0220
827.00,0.0220
826.00,0.0222
825.00,0.0223
824.00,0.0223
823.00,0.0224
822.00,0.0225
821.00,0.0227
820.00,0.0229
819.00,0.0231
818.00,0.0233
817.00,0.0236
816.00,0.0237
815.00,0.0237
814.00,0.0238
813.00,0.0238
812.00,0.0237
811.00,0.0236
810.00,0.0236
809.00,0.0236
808.00,0.0236
807.00,0.0236
806.00,0.0236
805.00,0.0237
804.00,0.0237
803.00,0.0238
802.00,0.0239
801.00,0.0240
800.00,0.0241
799.00,0.0242
798.00,0.0244
797.00,0.0246
796.00,0.0246
795.00,0.0247
794.00,0.0249
793.00,0.0250
792.00,0.0252
791.00,0.0253
790.00,0.0256
789.00,0.0259
788.00,0.0261
787.00,0.0263
786.00,0.0266
785.00,0.0268
784.00,0.0270
783.00,0.0271
782.00,0.0273
781.00,0.0275
780.00,0.0276
779.00,0.0277
778.00,0.0279
777.00,0.0280
776.00,0.0280
775.00,0.0280
774.00,0.0281
773.00,0.0282
772.00,0.0282
771.00,0.0283
770.00,0.0285
769.00,0.0286
768.00,0.0287
767.00,0.0288
766.00,0.0289
765.00,0.0290
764.00,0.0291
763.00,0.0291
762.00,0.0293
761.00,0.0294
760.00,0.0295
759.00,0.0296
758.00,0.0298
757.00,0.0300
756.00,0.0302
755.00,0.0304
754.00,0.0306
753.00,0.0308
752.00,0.0310
751.00,0.0312
750.00,0.0314
749.00,0.0317
748.00,0.0319
747.00,0.0321
746.00,0.0323
745.00,0.0325
744.00,0.0326
743.00,0.0328
742.00,0.0330
741.00,0.0332
740.00,0.0332
739.00,0.0333
738.00,0.0335
737.00,0.0336
736.00,0.0336
735.00,0.0338
734.00,0.0340
733.00,0.0342
732.00,0.0343
731.00,0.0345
730.00,0.0347
729.00,0.0350
728.00,0.0353
727.00,0.0356
726.00,0.0360
725.00,0.0364
724.00,0.0367
723.00,0.0371
722.00,0.0375
721.00,0.0378
720.00,0.0381
719.00,0.0384
718.00,0.0387
717.00,0.0390
716.00,0.0393
715.00,0.0396
714.00,0.0399
713.00,0.0403
712.00,0.0406
711.00,0.0409
710.00,0.0413
709.00,0.0417
708.00,0.0421
707.00,0.0425
706.00,0.0430
705.00,0.0435
704.00,0.0439
703.00,0.0443
702.00,0.0448
701.00,0.0452
700.00,0.0455
699.00,0.0458
698.00,0.0460
697.00,0.0461
696.00,0.0461
695.00,0.0461
694.00,0.0461
693.00,0.0461
692.00,0.0461
691.00,0.0461
690.00,0.0462
689.00,0.0462
688.00,0.0462
687.00,0.0463
686.00,0.0465
685.00,0.0466
684.00,0.0467
683.00,0.0468
682.00,0.0469
681.00,0.0471
680.00,0.0472
679.00,0.0472
678.00,0.0474
677.00,0.0475
676.00,0.0476
675.00,0.0477
674.00,0.0479
673.00,0.0480
672.00,0.0480
671.00,0.0482
670.00,0.0484
669.00,0.0487
668.00,0.0489
667.00,0.0490
666.00,0.0492
665.00,0.0493
664.00,0.0494
663.00,0.0495
662.00,0.0497
661.00,0.0498
660.00,0.0499
659.00,0.0499
658.00,0.0500
657.00,0.0502
656.00,0.0502
655.00,0.0503
654.00,0.0504
653.00,0.0506
652.00,0.0506
651.00,0.0507
650.00,0.0508
649.00,0.0509
648.00,0.0509
647.00,0.0510
646.00,0.0511
645.00,0.0512
644.00,0.0513
643.00,0.0514
642.00,0.0516
641.00,0.0517
640.00,0.0517
639.00,0.0517
638.00,0.0518
637.00,0.0519
636.00,0.0519
635.00,0.0520
634.00,0.0521
633.00,0.0523
632.00,0.0523
631.00,0.0525
630.00,0.0527
629.00,0.0529
628.00,0.0530
627.00,0.0531
626.00,0.0533
625.00,0.0535
624.00,0.0535
623.00,0.0536
622.00,0.0537
621.00,0.0539
620.00,0.0539
619.00,0.0540
618.00,0.0541
617.00,0.0541
616.00,0.0540
615.00,0.0539
614.00,0.0539
613.00,0.0540
612.00,0.0540
611.00,0.0541
610.00,0.0543
609.00,0.0544
608.00,0.0543
607.00,0.0543
606.00,0.0544
605.00,0.0545
604.00,0.0545
603.00,0.0545
602.00,0.0546
601.00,0.0547
600.00,0.0547
599.00,0.0547
598.00,0.0549
597.00,0.0551
596.00,0.0552
595.00,0.0553
594.00,0.0554
593.00,0.0555
592.00,0.0555
591.00,0.0555
590.00,0.0557
589.00,0.0559
588.00,0.0560
587.00,0.0560
586.00,0.0562
585.00,0.0564
584.00,0.0564
583.00,0.0565
582.00,0.0568
581.00,0.0569
580.00,0.0569
579.00,0.0569
578.00,0.0571
577.00,0.0572
576.00,0.0572
575.00,0.0573
574.00,0.0575
573.00,0.0577
572.00,0.0578
571.00,0.0579
570.00,0.0582
569.00,0.0584
568.00,0.0584
567.00,0.0584
566.00,0.0586
565.00,0.0588
564.00,0.0588
563.00,0.0588
562.00,0.0591
561.00,0.0592
560.00,0.0592
559.00,0.0592
558.00,0.0594
557.00,0.0596
556.00,0.0596
555.00,0.0597
554.00,0.0601
553.00,0.0603
552.00,0.0604
551.00,0.0604
550.00,0.0606
549.00,0.0607
548.00,0.0606
547.00,0.0607
546.00,0.0609
545.00,0.0611
544.00,0.0611
543.00,0.0611
542.00,0.0613
541.00,0.0615
540.00,0.0614
539.00,0.0613
538.00,0.0615
537.00,0.0617
536.00,0.0616
535.00,0.0616
534.00,0.0619
533.00,0.0620
532.00,0.0619
531.00,0.0619
530.00,0.0620
529.00,0.0621
528.00,0.0620
527.00,0.0620
526.00,0.0622
525.00,0.0624
524.00,0.0623
523.00,0.0623
522.00,0.0625
521.00,0.0627
520.00,0.0626
519.00,0.0626
518.00,0.0628
517.00,0.0629
516.00,0.0627
515.00,0.0626
514.00,0.0627
513.00,0.0627
512.00,0.0625
511.00,0.0624
510.00,0.0625
509.00,0.0626
508.00,0.0624
507.00,0.0622
506.00,0.0623
505.00,0.0624
504.00,0.0622
503.00,0.0621
502.00,0.0622
501.00,0.0622
500.00,0.0621
499.00,0.0620
498.00,0.0622
497.00,0.0624
496.00,0.0623
495.00,0.0622
494.00,0.0624
493.00,0.0624
492.00,0.0622
491.00,0.0621
490.00,0.0622
489.00,0.0622
488.00,0.0620
487.00,0.0618
486.00,0.0619
485.00,0.0618
484.00,0.0615
483.00,0.0613
482.00,0.0615
481.00,0.0616
480.00,0.0614
479.00,0.0612
478.00,0.0612
477.00,0.0612
476.00,0.0609
475.00,0.0607
474.00,0.0609
473.00,0.0609
472.00,0.0606
471.00,0.0604
470.00,0.0607
469.00,0.0609
468.00,0.0607
467.00,0.0605
466.00,0.0606
465.00,0.0606
464.00,0.0602
463.00,0.0599
462.00,0.0600
461.00,0.0600
460.00,0.0595
459.00,0.0593
458.00,0.0595
457.00,0.0597
456.00,0.0594
455.00,0.0589
454.00,0.0589
453.00,0.0589
452.00,0.0585
451.00,0.0582
450.00,0.0584
449.00,0.0584
448.00,0.0579
447.00,0.0574
446.00,0.0575
445.00,0.0575
444.00,0.0572
443.00,0.0569
442.00,0.0569
441.00,0.0568
440.00,0.0563
439.00,0.0558
438.00,0.0559
437.00,0.0559
436.00,0.0555
435.00,0.0552
434.00,0.0555
433.00,0.0557
432.00,0.0553
431.00,0.0551
430.00,0.0556
429.00,0.0561
428.00,0.0560
427.00,0.0557
426.00,0.0559
425.00,0.0558
424.00,0.0550
423.00,0.0544
422.00,0.0547
421.00,0.0548
420.00,0.0540
419.00,0.0533
418.00,0.0538
417.00,0.0543
416.00,0.0537
415.00,0.0530
414.00,0.0532
413.00,0.0533
412.00,0.0526
411.00,0.0522
410.00,0.0528
409.00,0.0534
408.00,0.0528
407.00,0.0522
406.00,0.0525
405.00,0.0524
404.00,0.0512
403.00,0.0505
402.00,0.0513
401.00,0.0518
400.00,0.0504
