Created as New Dataset,Sample 267 By YargerLab Date Wednesday, July 24 2024
cm-1,A
4000.00,0.0024
3999.00,0.0024
3998.00,0.0024
3997.00,0.0024
3996.00,0.0024
3995.00,0.0024
3994.00,0.0024
3993.00,0.0024
3992.00,0.0024
3991.00,0.0024
3990.00,0.0024
3989.00,0.0024
3988.00,0.0024
3987.00,0.0024
3986.00,0.0024
3985.00,0.0024
3984.00,0.0024
3983.00,0.0024
3982.00,0.0024
3981.00,0.0024
3980.00,0.0024
3979.00,0.0024
3978.00,0.0024
3977.00,0.0024
3976.00,0.0024
3975.00,0.0024
3974.00,0.0024
3973.00,0.0024
3972.00,0.0024
3971.00,0.0024
3970.00,0.0024
3969.00,0.0024
3968.00,0.0024
3967.00,0.0024
3966.00,0.0024
3965.00,0.0023
3964.00,0.0023
3963.00,0.0023
3962.00,0.0023
3961.00,0.0023
3960.00,0.0023
3959.00,0.0023
3958.00,0.0023
3957.00,0.0023
3956.00,0.0024
3955.00,0.0024
3954.00,0.0024
3953.00,0.0024
3952.00,0.0023
3951.00,0.0023
3950.00,0.0023
3949.00,0.0023
3948.00,0.0023
3947.00,0.0023
3946.00,0.0023
3945.00,0.0023
3944.00,0.0023
3943.00,0.0023
3942.00,0.0023
3941.00,0.0023
3940.00,0.0023
3939.00,0.0023
3938.00,0.0023
3937.00,0.0023
3936.00,0.0023
3935.00,0.0023
3934.00,0.0023
3933.00,0.0023
3932.00,0.0023
3931.00,0.0023
3930.00,0.0023
3929.00,0.0023
3928.00,0.0022
3927.00,0.0022
3926.00,0.0022
3925.00,0.0022
3924.00,0.0023
3923.00,0.0023
3922.00,0.0023
3921.00,0.0023
3920.00,0.0023
3919.00,0.0023
3918.00,0.0023
3917.00,0.0023
3916.00,0.0023
3915.00,0.0023
3914.00,0.0023
3913.00,0.0022
3912.00,0.0022
3911.00,0.0022
3910.00,0.0022
3909.00,0.0022
3908.00,0.0022
3907.00,0.0022
3906.00,0.0022
3905.00,0.0022
3904.00,0.0022
3903.00,0.0022
3902.00,0.0022
3901.00,0.0022
3900.00,0.0022
3899.00,0.0022
3898.00,0.0022
3897.00,0.0022
3896.00,0.0022
3895.00,0.0022
3894.00,0.0022
3893.00,0.0022
3892.00,0.0022
3891.00,0.0021
3890.00,0.0021
3889.00,0.0021
3888.00,0.0021
3887.00,0.0021
3886.00,0.0021
3885.00,0.0021
3884.00,0.0021
3883.00,0.0021
3882.00,0.0021
3881.00,0.0021
3880.00,0.0021
3879.00,0.0021
3878.00,0.0021
3877.00,0.0021
3876.00,0.0021
3875.00,0.0021
3874.00,0.0021
3873.00,0.0021
3872.00,0.0021
3871.00,0.0021
3870.00,0.0021
3869.00,0.0021
3868.00,0.0021
3867.00,0.0021
3866.00,0.0021
3865.00,0.0021
3864.00,0.0021
3863.00,0.0021
3862.00,0.0021
3861.00,0.0021
3860.00,0.0021
3859.00,0.0021
3858.00,0.0021
3857.00,0.0021
3856.00,0.0020
3855.00,0.0020
3854.00,0.0020
3853.00,0.0020
3852.00,0.0020
3851.00,0.0020
3850.00,0.0020
3849.00,0.0020
3848.00,0.0021
3847.00,0.0021
3846.00,0.0021
3845.00,0.0021
3844.00,0.0021
3843.00,0.0021
3842.00,0.0021
3841.00,0.0020
3840.00,0.0020
3839.00,0.0020
3838.00,0.0020
3837.00,0.0020
3836.00,0.0020
3835.00,0.0020
3834.00,0.0020
3833.00,0.0020
3832.00,0.0020
3831.00,0.0020
3830.00,0.0020
3829.00,0.0020
3828.00,0.0020
3827.00,0.0020
3826.00,0.0020
3825.00,0.0020
3824.00,0.0020
3823.00,0.0020
3822.00,0.0020
3821.00,0.0020
3820.00,0.0020
3819.00,0.0020
3818.00,0.0020
3817.00,0.0020
3816.00,0.0020
3815.00,0.0020
3814.00,0.0020
3813.00,0.0020
3812.00,0.0020
3811.00,0.0020
3810.00,0.0020
3809.00,0.0020
3808.00,0.0020
3807.00,0.0020
3806.00,0.0020
3805.00,0.0020
3804.00,0.0020
3803.00,0.0020
3802.00,0.0019
3801.00,0.0019
3800.00,0.0019
3799.00,0.0019
3798.00,0.0019
3797.00,0.0020
3796.00,0.0020
3795.00,0.0020
3794.00,0.0020
3793.00,0.0020
3792.00,0.0020
3791.00,0.0020
3790.00,0.0020
3789.00,0.0020
3788.00,0.0020
3787.00,0.0020
3786.00,0.0020
3785.00,0.0020
3784.00,0.0020
3783.00,0.0020
3782.00,0.0020
3781.00,0.0020
3780.00,0.0020
3779.00,0.0020
3778.00,0.0020
3777.00,0.0020
3776.00,0.0020
3775.00,0.0020
3774.00,0.0020
3773.00,0.0020
3772.00,0.0020
3771.00,0.0020
3770.00,0.0020
3769.00,0.0020
3768.00,0.0020
3767.00,0.0020
3766.00,0.0020
3765.00,0.0020
3764.00,0.0020
3763.00,0.0020
3762.00,0.0020
3761.00,0.0020
3760.00,0.0020
3759.00,0.0020
3758.00,0.0020
3757.00,0.0020
3756.00,0.0020
3755.00,0.0020
3754.00,0.0020
3753.00,0.0020
3752.00,0.0020
3751.00,0.0020
3750.00,0.0020
3749.00,0.0020
3748.00,0.0020
3747.00,0.0019
3746.00,0.0019
3745.00,0.0019
3744.00,0.0019
3743.00,0.0019
3742.00,0.0019
3741.00,0.0019
3740.00,0.0020
3739.00,0.0020
3738.00,0.0020
3737.00,0.0020
3736.00,0.0020
3735.00,0.0020
3734.00,0.0020
3733.00,0.0020
3732.00,0.0020
3731.00,0.0020
3730.00,0.0020
3729.00,0.0020
3728.00,0.0020
3727.00,0.0020
3726.00,0.0020
3725.00,0.0020
3724.00,0.0019
3723.00,0.0019
3722.00,0.0019
3721.00,0.0019
3720.00,0.0019
3719.00,0.0020
3718.00,0.0020
3717.00,0.0020
3716.00,0.0020
3715.00,0.0020
3714.00,0.0020
3713.00,0.0020
3712.00,0.0020
3711.00,0.0020
3710.00,0.0019
3709.00,0.0019
3708.00,0.0019
3707.00,0.0019
3706.00,0.0020
3705.00,0.0020
3704.00,0.0020
3703.00,0.0020
3702.00,0.0020
3701.00,0.0020
3700.00,0.0020
3699.00,0.0020
3698.00,0.0020
3697.00,0.0020
3696.00,0.0020
3695.00,0.0020
3694.00,0.0020
3693.00,0.0020
3692.00,0.0019
3691.00,0.0019
3690.00,0.0019
3689.00,0.0019
3688.00,0.0019
3687.00,0.0019
3686.00,0.0019
3685.00,0.0019
3684.00,0.0019
3683.00,0.0019
3682.00,0.0019
3681.00,0.0019
3680.00,0.0018
3679.00,0.0018
3678.00,0.0018
3677.00,0.0017
3676.00,0.0017
3675.00,0.0017
3674.00,0.0017
3673.00,0.0016
3672.00,0.0016
3671.00,0.0016
3670.00,0.0017
3669.00,0.0017
3668.00,0.0017
3667.00,0.0017
3666.00,0.0018
3665.00,0.0018
3664.00,0.0018
3663.00,0.0018
3662.00,0.0018
3661.00,0.0018
3660.00,0.0019
3659.00,0.0019
3658.00,0.0019
3657.00,0.0019
3656.00,0.0019
3655.00,0.0019
3654.00,0.0019
3653.00,0.0020
3652.00,0.0020
3651.00,0.0020
3650.00,0.0020
3649.00,0.0021
3648.00,0.0021
3647.00,0.0022
3646.00,0.0022
3645.00,0.0023
3644.00,0.0023
3643.00,0.0024
3642.00,0.0025
3641.00,0.0025
3640.00,0.0026
3639.00,0.0026
3638.00,0.0026
3637.00,0.0027
3636.00,0.0028
3635.00,0.0029
3634.00,0.0030
3633.00,0.0030
3632.00,0.0031
3631.00,0.0032
3630.00,0.0032
3629.00,0.0032
3628.00,0.0033
3627.00,0.0033
3626.00,0.0033
3625.00,0.0034
3624.00,0.0035
3623.00,0.0035
3622.00,0.0036
3621.00,0.0036
3620.00,0.0036
3619.00,0.0036
3618.00,0.0037
3617.00,0.0037
3616.00,0.0038
3615.00,0.0039
3614.00,0.0039
3613.00,0.0040
3612.00,0.0040
3611.00,0.0040
3610.00,0.0041
3609.00,0.0041
3608.00,0.0041
3607.00,0.0042
3606.00,0.0042
3605.00,0.0043
3604.00,0.0043
3603.00,0.0044
3602.00,0.0044
3601.00,0.0044
3600.00,0.0045
3599.00,0.0045
3598.00,0.0045
3597.00,0.0046
3596.00,0.0046
3595.00,0.0047
3594.00,0.0047
3593.00,0.0048
3592.00,0.0048
3591.00,0.0049
3590.00,0.0050
3589.00,0.0050
3588.00,0.0050
3587.00,0.0050
3586.00,0.0050
3585.00,0.0050
3584.00,0.0051
3583.00,0.0051
3582.00,0.0052
3581.00,0.0053
3580.00,0.0053
3579.00,0.0053
3578.00,0.0054
3577.00,0.0054
3576.00,0.0055
3575.00,0.0055
3574.00,0.0056
3573.00,0.0057
3572.00,0.0057
3571.00,0.0058
3570.00,0.0059
3569.00,0.0059
3568.00,0.0059
3567.00,0.0059
3566.00,0.0059
3565.00,0.0060
3564.00,0.0060
3563.00,0.0061
3562.00,0.0062
3561.00,0.0062
3560.00,0.0063
3559.00,0.0063
3558.00,0.0063
3557.00,0.0064
3556.00,0.0065
3555.00,0.0065
3554.00,0.0065
3553.00,0.0066
3552.00,0.0066
3551.00,0.0067
3550.00,0.0067
3549.00,0.0068
3548.00,0.0068
3547.00,0.0069
3546.00,0.0069
3545.00,0.0070
3544.00,0.0070
3543.00,0.0070
3542.00,0.0071
3541.00,0.0071
3540.00,0.0072
3539.00,0.0072
3538.00,0.0073
3537.00,0.0073
3536.00,0.0074
3535.00,0.0074
3534.00,0.0074
3533.00,0.0075
3532.00,0.0075
3531.00,0.0076
3530.00,0.0076
3529.00,0.0076
3528.00,0.0077
3527.00,0.0077
3526.00,0.0078
3525.00,0.0078
3524.00,0.0078
3523.00,0.0079
3522.00,0.0079
3521.00,0.0080
3520.00,0.0080
3519.00,0.0080
3518.00,0.0081
3517.00,0.0081
3516.00,0.0082
3515.00,0.0082
3514.00,0.0083
3513.00,0.0083
3512.00,0.0083
3511.00,0.0084
3510.00,0.0084
3509.00,0.0084
3508.00,0.0084
3507.00,0.0085
3506.00,0.0086
3505.00,0.0086
3504.00,0.0086
3503.00,0.0087
3502.00,0.0087
3501.00,0.0087
3500.00,0.0088
3499.00,0.0088
3498.00,0.0088
3497.00,0.0089
3496.00,0.0089
3495.00,0.0089
3494.00,0.0090
3493.00,0.0090
3492.00,0.0091
3491.00,0.0091
3490.00,0.0092
3489.00,0.0092
3488.00,0.0092
3487.00,0.0092
3486.00,0.0093
3485.00,0.0093
3484.00,0.0094
3483.00,0.0094
3482.00,0.0094
3481.00,0.0094
3480.00,0.0094
3479.00,0.0094
3478.00,0.0095
3477.00,0.0095
3476.00,0.0096
3475.00,0.0096
3474.00,0.0096
3473.00,0.0097
3472.00,0.0097
3471.00,0.0098
3470.00,0.0098
3469.00,0.0098
3468.00,0.0099
3467.00,0.0099
3466.00,0.0099
3465.00,0.0100
3464.00,0.0100
3463.00,0.0100
3462.00,0.0100
3461.00,0.0101
3460.00,0.0101
3459.00,0.0101
3458.00,0.0101
3457.00,0.0101
3456.00,0.0102
3455.00,0.0102
3454.00,0.0103
3453.00,0.0103
3452.00,0.0103
3451.00,0.0104
3450.00,0.0104
3449.00,0.0104
3448.00,0.0105
3447.00,0.0105
3446.00,0.0105
3445.00,0.0106
3444.00,0.0106
3443.00,0.0107
3442.00,0.0107
3441.00,0.0107
3440.00,0.0108
3439.00,0.0108
3438.00,0.0109
3437.00,0.0110
3436.00,0.0110
3435.00,0.0111
3434.00,0.0111
3433.00,0.0111
3432.00,0.0112
3431.00,0.0112
3430.00,0.0112
3429.00,0.0113
3428.00,0.0114
3427.00,0.0114
3426.00,0.0114
3425.00,0.0115
3424.00,0.0115
3423.00,0.0116
3422.00,0.0116
3421.00,0.0117
3420.00,0.0117
3419.00,0.0118
3418.00,0.0118
3417.00,0.0119
3416.00,0.0119
3415.00,0.0120
3414.00,0.0121
3413.00,0.0121
3412.00,0.0122
3411.00,0.0122
3410.00,0.0123
3409.00,0.0123
3408.00,0.0124
3407.00,0.0124
3406.00,0.0125
3405.00,0.0126
3404.00,0.0126
3403.00,0.0126
3402.00,0.0127
3401.00,0.0127
3400.00,0.0128
3399.00,0.0128
3398.00,0.0129
3397.00,0.0129
3396.00,0.0130
3395.00,0.0130
3394.00,0.0131
3393.00,0.0131
3392.00,0.0132
3391.00,0.0132
3390.00,0.0133
3389.00,0.0133
3388.00,0.0134
3387.00,0.0134
3386.00,0.0135
3385.00,0.0136
3384.00,0.0136
3383.00,0.0137
3382.00,0.0138
3381.00,0.0138
3380.00,0.0139
3379.00,0.0139
3378.00,0.0140
3377.00,0.0141
3376.00,0.0141
3375.00,0.0142
3374.00,0.0142
3373.00,0.0143
3372.00,0.0144
3371.00,0.0145
3370.00,0.0145
3369.00,0.0146
3368.00,0.0147
3367.00,0.0148
3366.00,0.0149
3365.00,0.0149
3364.00,0.0150
3363.00,0.0151
3362.00,0.0152
3361.00,0.0154
3360.00,0.0155
3359.00,0.0156
3358.00,0.0157
3357.00,0.0158
3356.00,0.0159
3355.00,0.0160
3354.00,0.0161
3353.00,0.0162
3352.00,0.0164
3351.00,0.0165
3350.00,0.0166
3349.00,0.0167
3348.00,0.0169
3347.00,0.0170
3346.00,0.0171
3345.00,0.0173
3344.00,0.0174
3343.00,0.0176
3342.00,0.0178
3341.00,0.0179
3340.00,0.0181
3339.00,0.0183
3338.00,0.0185
3337.00,0.0186
3336.00,0.0188
3335.00,0.0190
3334.00,0.0192
3333.00,0.0194
3332.00,0.0196
3331.00,0.0198
3330.00,0.0200
3329.00,0.0203
3328.00,0.0205
3327.00,0.0207
3326.00,0.0209
3325.00,0.0211
3324.00,0.0214
3323.00,0.0216
3322.00,0.0218
3321.00,0.0221
3320.00,0.0223
3319.00,0.0226
3318.00,0.0229
3317.00,0.0231
3316.00,0.0234
3315.00,0.0237
3314.00,0.0239
3313.00,0.0242
3312.00,0.0244
3311.00,0.0247
3310.00,0.0250
3309.00,0.0252
3308.00,0.0255
3307.00,0.0258
3306.00,0.0260
3305.00,0.0263
3304.00,0.0266
3303.00,0.0268
3302.00,0.0271
3301.00,0.0273
3300.00,0.0276
3299.00,0.0278
3298.00,0.0280
3297.00,0.0282
3296.00,0.0284
3295.00,0.0286
3294.00,0.0288
3293.00,0.0290
3292.00,0.0291
3291.00,0.0292
3290.00,0.0293
3289.00,0.0294
3288.00,0.0295
3287.00,0.0296
3286.00,0.0296
3285.00,0.0296
3284.00,0.0296
3283.00,0.0296
3282.00,0.0295
3281.00,0.0295
3280.00,0.0294
3279.00,0.0293
3278.00,0.0292
3277.00,0.0290
3276.00,0.0289
3275.00,0.0287
3274.00,0.0285
3273.00,0.0282
3272.00,0.0280
3271.00,0.0278
3270.00,0.0276
3269.00,0.0273
3268.00,0.0271
3267.00,0.0269
3266.00,0.0266
3265.00,0.0263
3264.00,0.0261
3263.00,0.0258
3262.00,0.0256
3261.00,0.0253
3260.00,0.0251
3259.00,0.0248
3258.00,0.0246
3257.00,0.0243
3256.00,0.0241
3255.00,0.0239
3254.00,0.0237
3253.00,0.0235
3252.00,0.0233
3251.00,0.0230
3250.00,0.0228
3249.00,0.0226
3248.00,0.0225
3247.00,0.0223
3246.00,0.0221
3245.00,0.0219
3244.00,0.0218
3243.00,0.0216
3242.00,0.0214
3241.00,0.0213
3240.00,0.0211
3239.00,0.0209
3238.00,0.0208
3237.00,0.0206
3236.00,0.0205
3235.00,0.0204
3234.00,0.0202
3233.00,0.0201
3232.00,0.0199
3231.00,0.0198
3230.00,0.0197
3229.00,0.0196
3228.00,0.0194
3227.00,0.0193
3226.00,0.0192
3225.00,0.0191
3224.00,0.0189
3223.00,0.0188
3222.00,0.0187
3221.00,0.0186
3220.00,0.0185
3219.00,0.0184
3218.00,0.0183
3217.00,0.0182
3216.00,0.0180
3215.00,0.0179
3214.00,0.0178
3213.00,0.0177
3212.00,0.0176
3211.00,0.0175
3210.00,0.0174
3209.00,0.0173
3208.00,0.0171
3207.00,0.0170
3206.00,0.0169
3205.00,0.0168
3204.00,0.0167
3203.00,0.0166
3202.00,0.0165
3201.00,0.0164
3200.00,0.0163
3199.00,0.0161
3198.00,0.0160
3197.00,0.0159
3196.00,0.0158
3195.00,0.0157
3194.00,0.0156
3193.00,0.0155
3192.00,0.0154
3191.00,0.0152
3190.00,0.0151
3189.00,0.0150
3188.00,0.0149
3187.00,0.0148
3186.00,0.0147
3185.00,0.0146
3184.00,0.0145
3183.00,0.0144
3182.00,0.0143
3181.00,0.0141
3180.00,0.0140
3179.00,0.0139
3178.00,0.0138
3177.00,0.0137
3176.00,0.0136
3175.00,0.0135
3174.00,0.0134
3173.00,0.0133
3172.00,0.0132
3171.00,0.0131
3170.00,0.0130
3169.00,0.0129
3168.00,0.0128
3167.00,0.0127
3166.00,0.0126
3165.00,0.0125
3164.00,0.0124
3163.00,0.0123
3162.00,0.0122
3161.00,0.0122
3160.00,0.0121
3159.00,0.0120
3158.00,0.0119
3157.00,0.0118
3156.00,0.0117
3155.00,0.0116
3154.00,0.0116
3153.00,0.0115
3152.00,0.0114
3151.00,0.0113
3150.00,0.0113
3149.00,0.0112
3148.00,0.0112
3147.00,0.0111
3146.00,0.0110
3145.00,0.0110
3144.00,0.0109
3143.00,0.0109
3142.00,0.0108
3141.00,0.0107
3140.00,0.0107
3139.00,0.0106
3138.00,0.0106
3137.00,0.0105
3136.00,0.0105
3135.00,0.0105
3134.00,0.0104
3133.00,0.0104
3132.00,0.0104
3131.00,0.0103
3130.00,0.0103
3129.00,0.0103
3128.00,0.0103
3127.00,0.0102
3126.00,0.0102
3125.00,0.0102
3124.00,0.0102
3123.00,0.0101
3122.00,0.0101
3121.00,0.0101
3120.00,0.0101
3119.00,0.0101
3118.00,0.0101
3117.00,0.0101
3116.00,0.0101
3115.00,0.0101
3114.00,0.0101
3113.00,0.0102
3112.00,0.0102
3111.00,0.0102
3110.00,0.0102
3109.00,0.0102
3108.00,0.0102
3107.00,0.0103
3106.00,0.0103
3105.00,0.0103
3104.00,0.0103
3103.00,0.0104
3102.00,0.0104
3101.00,0.0104
3100.00,0.0104
3099.00,0.0105
3098.00,0.0105
3097.00,0.0105
3096.00,0.0106
3095.00,0.0106
3094.00,0.0106
3093.00,0.0106
3092.00,0.0106
3091.00,0.0107
3090.00,0.0107
3089.00,0.0107
3088.00,0.0107
3087.00,0.0108
3086.00,0.0108
3085.00,0.0108
3084.00,0.0108
3083.00,0.0109
3082.00,0.0109
3081.00,0.0109
3080.00,0.0109
3079.00,0.0109
3078.00,0.0110
3077.00,0.0110
3076.00,0.0110
3075.00,0.0110
3074.00,0.0110
3073.00,0.0110
3072.00,0.0110
3071.00,0.0110
3070.00,0.0109
3069.00,0.0109
3068.00,0.0109
3067.00,0.0108
3066.00,0.0108
3065.00,0.0107
3064.00,0.0107
3063.00,0.0106
3062.00,0.0106
3061.00,0.0106
3060.00,0.0106
3059.00,0.0105
3058.00,0.0105
3057.00,0.0104
3056.00,0.0103
3055.00,0.0102
3054.00,0.0102
3053.00,0.0101
3052.00,0.0100
3051.00,0.0099
3050.00,0.0098
3049.00,0.0098
3048.00,0.0097
3047.00,0.0096
3046.00,0.0096
3045.00,0.0095
3044.00,0.0094
3043.00,0.0093
3042.00,0.0092
3041.00,0.0092
3040.00,0.0091
3039.00,0.0091
3038.00,0.0090
3037.00,0.0089
3036.00,0.0088
3035.00,0.0088
3034.00,0.0087
3033.00,0.0086
3032.00,0.0086
3031.00,0.0085
3030.00,0.0085
3029.00,0.0084
3028.00,0.0083
3027.00,0.0083
3026.00,0.0082
3025.00,0.0081
3024.00,0.0081
3023.00,0.0080
3022.00,0.0080
3021.00,0.0079
3020.00,0.0078
3019.00,0.0077
3018.00,0.0077
3017.00,0.0076
3016.00,0.0075
3015.00,0.0073
3014.00,0.0072
3013.00,0.0071
3012.00,0.0070
3011.00,0.0069
3010.00,0.0068
3009.00,0.0066
3008.00,0.0065
3007.00,0.0063
3006.00,0.0061
3005.00,0.0059
3004.00,0.0058
3003.00,0.0056
3002.00,0.0054
3001.00,0.0053
3000.00,0.0051
2999.00,0.0050
2998.00,0.0049
2997.00,0.0048
2996.00,0.0048
2995.00,0.0047
2994.00,0.0047
2993.00,0.0047
2992.00,0.0047
2991.00,0.0047
2990.00,0.0047
2989.00,0.0046
2988.00,0.0046
2987.00,0.0045
2986.00,0.0044
2985.00,0.0040
2984.00,0.0036
2983.00,0.0031
2982.00,0.0028
2981.00,0.0027
2980.00,0.0029
2979.00,0.0033
2978.00,0.0036
2977.00,0.0040
2976.00,0.0042
2975.00,0.0044
2974.00,0.0045
2973.00,0.0045
2972.00,0.0045
2971.00,0.0046
2970.00,0.0049
2969.00,0.0052
2968.00,0.0055
2967.00,0.0057
2966.00,0.0059
2965.00,0.0061
2964.00,0.0063
2963.00,0.0064
2962.00,0.0065
2961.00,0.0067
2960.00,0.0068
2959.00,0.0068
2958.00,0.0069
2957.00,0.0070
2956.00,0.0070
2955.00,0.0071
2954.00,0.0071
2953.00,0.0072
2952.00,0.0072
2951.00,0.0073
2950.00,0.0073
2949.00,0.0074
2948.00,0.0075
2947.00,0.0077
2946.00,0.0079
2945.00,0.0080
2944.00,0.0082
2943.00,0.0084
2942.00,0.0086
2941.00,0.0088
2940.00,0.0089
2939.00,0.0091
2938.00,0.0093
2937.00,0.0095
2936.00,0.0097
2935.00,0.0099
2934.00,0.0100
2933.00,0.0102
2932.00,0.0103
2931.00,0.0105
2930.00,0.0107
2929.00,0.0109
2928.00,0.0112
2927.00,0.0114
2926.00,0.0116
2925.00,0.0119
2924.00,0.0121
2923.00,0.0124
2922.00,0.0127
2921.00,0.0129
2920.00,0.0131
2919.00,0.0133
2918.00,0.0133
2917.00,0.0132
2916.00,0.0129
2915.00,0.0125
2914.00,0.0119
2913.00,0.0113
2912.00,0.0107
2911.00,0.0102
2910.00,0.0097
2909.00,0.0093
2908.00,0.0089
2907.00,0.0086
2906.00,0.0084
2905.00,0.0082
2904.00,0.0080
2903.00,0.0078
2902.00,0.0077
2901.00,0.0075
2900.00,0.0074
2899.00,0.0072
2898.00,0.0071
2897.00,0.0070
2896.00,0.0068
2895.00,0.0067
2894.00,0.0066
2893.00,0.0065
2892.00,0.0063
2891.00,0.0062
2890.00,0.0061
2889.00,0.0060
2888.00,0.0060
2887.00,0.0059
2886.00,0.0059
2885.00,0.0059
2884.00,0.0059
2883.00,0.0059
2882.00,0.0060
2881.00,0.0061
2880.00,0.0062
2879.00,0.0063
2878.00,0.0064
2877.00,0.0065
2876.00,0.0065
2875.00,0.0066
2874.00,0.0066
2873.00,0.0066
2872.00,0.0066
2871.00,0.0066
2870.00,0.0066
2869.00,0.0065
2868.00,0.0065
2867.00,0.0065
2866.00,0.0065
2865.00,0.0065
2864.00,0.0065
2863.00,0.0066
2862.00,0.0066
2861.00,0.0067
2860.00,0.0069
2859.00,0.0070
2858.00,0.0072
2857.00,0.0074
2856.00,0.0077
2855.00,0.0080
2854.00,0.0083
2853.00,0.0087
2852.00,0.0091
2851.00,0.0093
2850.00,0.0094
2849.00,0.0093
2848.00,0.0090
2847.00,0.0086
2846.00,0.0081
2845.00,0.0076
2844.00,0.0071
2843.00,0.0067
2842.00,0.0064
2841.00,0.0062
2840.00,0.0060
2839.00,0.0058
2838.00,0.0056
2837.00,0.0055
2836.00,0.0054
2835.00,0.0054
2834.00,0.0053
2833.00,0.0052
2832.00,0.0052
2831.00,0.0051
2830.00,0.0051
2829.00,0.0051
2828.00,0.0050
2827.00,0.0050
2826.00,0.0050
2825.00,0.0049
2824.00,0.0049
2823.00,0.0049
2822.00,0.0049
2821.00,0.0049
2820.00,0.0049
2819.00,0.0048
2818.00,0.0048
2817.00,0.0048
2816.00,0.0048
2815.00,0.0047
2814.00,0.0047
2813.00,0.0047
2812.00,0.0047
2811.00,0.0047
2810.00,0.0047
2809.00,0.0046
2808.00,0.0046
2807.00,0.0046
2806.00,0.0046
2805.00,0.0046
2804.00,0.0046
2803.00,0.0045
2802.00,0.0045
2801.00,0.0045
2800.00,0.0045
2799.00,0.0044
2798.00,0.0044
2797.00,0.0044
2796.00,0.0044
2795.00,0.0043
2794.00,0.0043
2793.00,0.0043
2792.00,0.0043
2791.00,0.0043
2790.00,0.0042
2789.00,0.0042
2788.00,0.0042
2787.00,0.0042
2786.00,0.0042
2785.00,0.0042
2784.00,0.0041
2783.00,0.0041
2782.00,0.0041
2781.00,0.0041
2780.00,0.0041
2779.00,0.0041
2778.00,0.0040
2777.00,0.0040
2776.00,0.0040
2775.00,0.0040
2774.00,0.0040
2773.00,0.0040
2772.00,0.0039
2771.00,0.0039
2770.00,0.0039
2769.00,0.0039
2768.00,0.0039
2767.00,0.0039
2766.00,0.0038
2765.00,0.0038
2764.00,0.0038
2763.00,0.0038
2762.00,0.0038
2761.00,0.0038
2760.00,0.0038
2759.00,0.0037
2758.00,0.0037
2757.00,0.0037
2756.00,0.0037
2755.00,0.0037
2754.00,0.0037
2753.00,0.0036
2752.00,0.0036
2751.00,0.0036
2750.00,0.0036
2749.00,0.0036
2748.00,0.0036
2747.00,0.0035
2746.00,0.0035
2745.00,0.0035
2744.00,0.0035
2743.00,0.0035
2742.00,0.0035
2741.00,0.0034
2740.00,0.0034
2739.00,0.0034
2738.00,0.0034
2737.00,0.0034
2736.00,0.0034
2735.00,0.0034
2734.00,0.0033
2733.00,0.0033
2732.00,0.0033
2731.00,0.0033
2730.00,0.0033
2729.00,0.0033
2728.00,0.0033
2727.00,0.0032
2726.00,0.0032
2725.00,0.0032
2724.00,0.0032
2723.00,0.0032
2722.00,0.0032
2721.00,0.0032
2720.00,0.0031
2719.00,0.0031
2718.00,0.0031
2717.00,0.0031
2716.00,0.0031
2715.00,0.0031
2714.00,0.0030
2713.00,0.0030
2712.00,0.0030
2711.00,0.0030
2710.00,0.0030
2709.00,0.0030
2708.00,0.0030
2707.00,0.0030
2706.00,0.0029
2705.00,0.0029
2704.00,0.0029
2703.00,0.0029
2702.00,0.0029
2701.00,0.0029
2700.00,0.0029
2699.00,0.0029
2698.00,0.0029
2697.00,0.0029
2696.00,0.0028
2695.00,0.0028
2694.00,0.0028
2693.00,0.0028
2692.00,0.0028
2691.00,0.0028
2690.00,0.0028
2689.00,0.0028
2688.00,0.0028
2687.00,0.0028
2686.00,0.0027
2685.00,0.0027
2684.00,0.0027
2683.00,0.0027
2682.00,0.0027
2681.00,0.0027
2680.00,0.0027
2679.00,0.0027
2678.00,0.0026
2677.00,0.0026
2676.00,0.0026
2675.00,0.0026
2674.00,0.0026
2673.00,0.0026
2672.00,0.0026
2671.00,0.0026
2670.00,0.0026
2669.00,0.0026
2668.00,0.0025
2667.00,0.0025
2666.00,0.0025
2665.00,0.0025
2664.00,0.0025
2663.00,0.0025
2662.00,0.0025
2661.00,0.0025
2660.00,0.0025
2659.00,0.0025
2658.00,0.0025
2657.00,0.0025
2656.00,0.0025
2655.00,0.0025
2654.00,0.0025
2653.00,0.0025
2652.00,0.0025
2651.00,0.0025
2650.00,0.0025
2649.00,0.0025
2648.00,0.0025
2647.00,0.0025
2646.00,0.0025
2645.00,0.0025
2644.00,0.0025
2643.00,0.0025
2642.00,0.0025
2641.00,0.0025
2640.00,0.0025
2639.00,0.0025
2638.00,0.0025
2637.00,0.0025
2636.00,0.0025
2635.00,0.0025
2634.00,0.0025
2633.00,0.0025
2632.00,0.0025
2631.00,0.0025
2630.00,0.0025
2629.00,0.0025
2628.00,0.0025
2627.00,0.0025
2626.00,0.0025
2625.00,0.0025
2624.00,0.0025
2623.00,0.0025
2622.00,0.0025
2621.00,0.0025
2620.00,0.0025
2619.00,0.0026
2618.00,0.0026
2617.00,0.0025
2616.00,0.0025
2615.00,0.0025
2614.00,0.0025
2613.00,0.0025
2612.00,0.0025
2611.00,0.0025
2610.00,0.0025
2609.00,0.0025
2608.00,0.0025
2607.00,0.0026
2606.00,0.0025
2605.00,0.0025
2604.00,0.0025
2603.00,0.0025
2602.00,0.0025
2601.00,0.0025
2600.00,0.0025
2599.00,0.0025
2598.00,0.0025
2597.00,0.0025
2596.00,0.0024
2595.00,0.0024
2594.00,0.0024
2593.00,0.0024
2592.00,0.0024
2591.00,0.0024
2590.00,0.0024
2589.00,0.0024
2588.00,0.0024
2587.00,0.0024
2586.00,0.0024
2585.00,0.0024
2584.00,0.0024
2583.00,0.0023
2582.00,0.0023
2581.00,0.0023
2580.00,0.0023
2579.00,0.0023
2578.00,0.0023
2577.00,0.0023
2576.00,0.0023
2575.00,0.0023
2574.00,0.0023
2573.00,0.0023
2572.00,0.0023
2571.00,0.0023
2570.00,0.0023
2569.00,0.0023
2568.00,0.0023
2567.00,0.0023
2566.00,0.0023
2565.00,0.0022
2564.00,0.0022
2563.00,0.0022
2562.00,0.0022
2561.00,0.0022
2560.00,0.0022
2559.00,0.0022
2558.00,0.0021
2557.00,0.0021
2556.00,0.0022
2555.00,0.0021
2554.00,0.0021
2553.00,0.0021
2552.00,0.0021
2551.00,0.0021
2550.00,0.0021
2549.00,0.0021
2548.00,0.0021
2547.00,0.0021
2546.00,0.0021
2545.00,0.0021
2544.00,0.0021
2543.00,0.0021
2542.00,0.0021
2541.00,0.0021
2540.00,0.0021
2539.00,0.0021
2538.00,0.0021
2537.00,0.0021
2536.00,0.0021
2535.00,0.0021
2534.00,0.0021
2533.00,0.0021
2532.00,0.0020
2531.00,0.0020
2530.00,0.0020
2529.00,0.0020
2528.00,0.0020
2527.00,0.0020
2526.00,0.0020
2525.00,0.0020
2524.00,0.0020
2523.00,0.0020
2522.00,0.0020
2521.00,0.0020
2520.00,0.0020
2519.00,0.0019
2518.00,0.0019
2517.00,0.0019
2516.00,0.0019
2515.00,0.0019
2514.00,0.0019
2513.00,0.0019
2512.00,0.0019
2511.00,0.0019
2510.00,0.0019
2509.00,0.0019
2508.00,0.0019
2507.00,0.0019
2506.00,0.0019
2505.00,0.0019
2504.00,0.0019
2503.00,0.0019
2502.00,0.0019
2501.00,0.0019
2500.00,0.0019
2499.00,0.0019
2498.00,0.0019
2497.00,0.0019
2496.00,0.0019
2495.00,0.0019
2494.00,0.0019
2493.00,0.0019
2492.00,0.0018
2491.00,0.0018
2490.00,0.0018
2489.00,0.0018
2488.00,0.0018
2487.00,0.0018
2486.00,0.0018
2485.00,0.0018
2484.00,0.0018
2483.00,0.0018
2482.00,0.0017
2481.00,0.0017
2480.00,0.0017
2479.00,0.0017
2478.00,0.0017
2477.00,0.0018
2476.00,0.0018
2475.00,0.0018
2474.00,0.0017
2473.00,0.0017
2472.00,0.0017
2471.00,0.0017
2470.00,0.0017
2469.00,0.0017
2468.00,0.0017
2467.00,0.0017
2466.00,0.0017
2465.00,0.0017
2464.00,0.0017
2463.00,0.0017
2462.00,0.0017
2461.00,0.0017
2460.00,0.0017
2459.00,0.0016
2458.00,0.0016
2457.00,0.0016
2456.00,0.0016
2455.00,0.0016
2454.00,0.0016
2453.00,0.0016
2452.00,0.0016
2451.00,0.0016
2450.00,0.0016
2449.00,0.0016
2448.00,0.0016
2447.00,0.0016
2446.00,0.0016
2445.00,0.0016
2444.00,0.0016
2443.00,0.0016
2442.00,0.0015
2441.00,0.0015
2440.00,0.0015
2439.00,0.0015
2438.00,0.0015
2437.00,0.0015
2436.00,0.0015
2435.00,0.0015
2434.00,0.0015
2433.00,0.0015
2432.00,0.0015
2431.00,0.0015
2430.00,0.0015
2429.00,0.0015
2428.00,0.0015
2427.00,0.0015
2426.00,0.0015
2425.00,0.0015
2424.00,0.0015
2423.00,0.0015
2422.00,0.0014
2421.00,0.0014
2420.00,0.0014
2419.00,0.0014
2418.00,0.0014
2417.00,0.0014
2416.00,0.0014
2415.00,0.0014
2414.00,0.0014
2413.00,0.0014
2412.00,0.0014
2411.00,0.0013
2410.00,0.0013
2409.00,0.0013
2408.00,0.0013
2407.00,0.0013
2406.00,0.0013
2405.00,0.0013
2404.00,0.0013
2403.00,0.0013
2402.00,0.0013
2401.00,0.0013
2400.00,0.0013
2399.00,0.0013
2398.00,0.0013
2397.00,0.0013
2396.00,0.0013
2395.00,0.0012
2394.00,0.0012
2393.00,0.0012
2392.00,0.0012
2391.00,0.0012
2390.00,0.0012
2389.00,0.0012
2388.00,0.0012
2387.00,0.0012
2386.00,0.0012
2385.00,0.0012
2384.00,0.0011
2383.00,0.0011
2382.00,0.0011
2381.00,0.0011
2380.00,0.0011
2379.00,0.0011
2378.00,0.0012
2377.00,0.0012
2376.00,0.0012
2375.00,0.0011
2374.00,0.0011
2373.00,0.0011
2372.00,0.0011
2371.00,0.0011
2370.00,0.0011
2369.00,0.0011
2368.00,0.0011
2367.00,0.0011
2366.00,0.0011
2365.00,0.0011
2364.00,0.0011
2363.00,0.0010
2362.00,0.0010
2361.00,0.0010
2360.00,0.0010
2359.00,0.0010
2358.00,0.0010
2357.00,0.0010
2356.00,0.0010
2355.00,0.0010
2354.00,0.0010
2353.00,0.0009
2352.00,0.0010
2351.00,0.0010
2350.00,0.0010
2349.00,0.0010
2348.00,0.0010
2347.00,0.0009
2346.00,0.0009
2345.00,0.0009
2344.00,0.0009
2343.00,0.0009
2342.00,0.0009
2341.00,0.0010
2340.00,0.0010
2339.00,0.0009
2338.00,0.0009
2337.00,0.0009
2336.00,0.0009
2335.00,0.0009
2334.00,0.0008
2333.00,0.0008
2332.00,0.0008
2331.00,0.0008
2330.00,0.0008
2329.00,0.0008
2328.00,0.0008
2327.00,0.0008
2326.00,0.0008
2325.00,0.0008
2324.00,0.0009
2323.00,0.0009
2322.00,0.0009
2321.00,0.0009
2320.00,0.0009
2319.00,0.0009
2318.00,0.0009
2317.00,0.0009
2316.00,0.0009
2315.00,0.0009
2314.00,0.0009
2313.00,0.0009
2312.00,0.0009
2311.00,0.0009
2310.00,0.0009
2309.00,0.0009
2308.00,0.0009
2307.00,0.0009
2306.00,0.0009
2305.00,0.0009
2304.00,0.0009
2303.00,0.0009
2302.00,0.0009
2301.00,0.0009
2300.00,0.0009
2299.00,0.0009
2298.00,0.0009
2297.00,0.0009
2296.00,0.0009
2295.00,0.0009
2294.00,0.0009
2293.00,0.0009
2292.00,0.0009
2291.00,0.0009
2290.00,0.0009
2289.00,0.0009
2288.00,0.0009
2287.00,0.0009
2286.00,0.0009
2285.00,0.0010
2284.00,0.0010
2283.00,0.0010
2282.00,0.0010
2281.00,0.0009
2280.00,0.0009
2279.00,0.0009
2278.00,0.0009
2277.00,0.0009
2276.00,0.0009
2275.00,0.0009
2274.00,0.0009
2273.00,0.0009
2272.00,0.0009
2271.00,0.0009
2270.00,0.0009
2269.00,0.0009
2268.00,0.0009
2267.00,0.0009
2266.00,0.0009
2265.00,0.0008
2264.00,0.0008
2263.00,0.0008
2262.00,0.0008
2261.00,0.0009
2260.00,0.0009
2259.00,0.0009
2258.00,0.0009
2257.00,0.0009
2256.00,0.0009
2255.00,0.0009
2254.00,0.0009
2253.00,0.0009
2252.00,0.0009
2251.00,0.0009
2250.00,0.0009
2249.00,0.0009
2248.00,0.0008
2247.00,0.0008
2246.00,0.0008
2245.00,0.0008
2244.00,0.0008
2243.00,0.0008
2242.00,0.0008
2241.00,0.0008
2240.00,0.0008
2239.00,0.0008
2238.00,0.0008
2237.00,0.0008
2236.00,0.0008
2235.00,0.0008
2234.00,0.0008
2233.00,0.0007
2232.00,0.0007
2231.00,0.0008
2230.00,0.0008
2229.00,0.0008
2228.00,0.0008
2227.00,0.0008
2226.00,0.0007
2225.00,0.0007
2224.00,0.0007
2223.00,0.0007
2222.00,0.0007
2221.00,0.0007
2220.00,0.0008
2219.00,0.0008
2218.00,0.0008
2217.00,0.0007
2216.00,0.0007
2215.00,0.0007
2214.00,0.0007
2213.00,0.0007
2212.00,0.0008
2211.00,0.0008
2210.00,0.0009
2209.00,0.0009
2208.00,0.0009
2207.00,0.0009
2206.00,0.0008
2205.00,0.0007
2204.00,0.0007
2203.00,0.0006
2202.00,0.0006
2201.00,0.0006
2200.00,0.0006
2199.00,0.0006
2198.00,0.0006
2197.00,0.0007
2196.00,0.0007
2195.00,0.0007
2194.00,0.0006
2193.00,0.0006
2192.00,0.0007
2191.00,0.0007
2190.00,0.0007
2189.00,0.0007
2188.00,0.0007
2187.00,0.0007
2186.00,0.0007
2185.00,0.0007
2184.00,0.0007
2183.00,0.0007
2182.00,0.0007
2181.00,0.0007
2180.00,0.0007
2179.00,0.0006
2178.00,0.0006
2177.00,0.0006
2176.00,0.0006
2175.00,0.0007
2174.00,0.0006
2173.00,0.0006
2172.00,0.0006
2171.00,0.0006
2170.00,0.0005
2169.00,0.0006
2168.00,0.0006
2167.00,0.0006
2166.00,0.0006
2165.00,0.0005
2164.00,0.0005
2163.00,0.0005
2162.00,0.0004
2161.00,0.0004
2160.00,0.0004
2159.00,0.0004
2158.00,0.0005
2157.00,0.0005
2156.00,0.0006
2155.00,0.0007
2154.00,0.0007
2153.00,0.0006
2152.00,0.0006
2151.00,0.0006
2150.00,0.0005
2149.00,0.0005
2148.00,0.0005
2147.00,0.0005
2146.00,0.0005
2145.00,0.0005
2144.00,0.0005
2143.00,0.0005
2142.00,0.0005
2141.00,0.0004
2140.00,0.0004
2139.00,0.0004
2138.00,0.0005
2137.00,0.0005
2136.00,0.0005
2135.00,0.0005
2134.00,0.0005
2133.00,0.0004
2132.00,0.0004
2131.00,0.0005
2130.00,0.0005
2129.00,0.0005
2128.00,0.0005
2127.00,0.0005
2126.00,0.0005
2125.00,0.0005
2124.00,0.0005
2123.00,0.0005
2122.00,0.0005
2121.00,0.0005
2120.00,0.0004
2119.00,0.0004
2118.00,0.0004
2117.00,0.0004
2116.00,0.0004
2115.00,0.0005
2114.00,0.0005
2113.00,0.0005
2112.00,0.0005
2111.00,0.0005
2110.00,0.0005
2109.00,0.0004
2108.00,0.0004
2107.00,0.0004
2106.00,0.0004
2105.00,0.0004
2104.00,0.0004
2103.00,0.0004
2102.00,0.0004
2101.00,0.0004
2100.00,0.0004
2099.00,0.0004
2098.00,0.0004
2097.00,0.0004
2096.00,0.0004
2095.00,0.0003
2094.00,0.0003
2093.00,0.0003
2092.00,0.0004
2091.00,0.0004
2090.00,0.0004
2089.00,0.0004
2088.00,0.0004
2087.00,0.0004
2086.00,0.0003
2085.00,0.0003
2084.00,0.0003
2083.00,0.0003
2082.00,0.0003
2081.00,0.0003
2080.00,0.0003
2079.00,0.0004
2078.00,0.0004
2077.00,0.0004
2076.00,0.0004
2075.00,0.0003
2074.00,0.0002
2073.00,0.0002
2072.00,0.0002
2071.00,0.0002
2070.00,0.0002
2069.00,0.0002
2068.00,0.0001
2067.00,0.0001
2066.00,0.0001
2065.00,0.0001
2064.00,0.0002
2063.00,0.0002
2062.00,0.0002
2061.00,0.0002
2060.00,0.0002
2059.00,0.0002
2058.00,0.0001
2057.00,0.0001
2056.00,0.0000
2055.00,0.0000
2054.00,-0.0000
2053.00,0.0000
2052.00,0.0001
2051.00,0.0001
2050.00,0.0001
2049.00,0.0000
2048.00,0.0000
2047.00,0.0001
2046.00,0.0001
2045.00,0.0001
2044.00,0.0001
2043.00,0.0001
2042.00,0.0000
2041.00,-0.0000
2040.00,-0.0000
2039.00,0.0000
2038.00,-0.0000
2037.00,-0.0001
2036.00,-0.0002
2035.00,-0.0002
2034.00,-0.0002
2033.00,-0.0002
2032.00,-0.0002
2031.00,-0.0002
2030.00,-0.0003
2029.00,-0.0003
2028.00,-0.0002
2027.00,-0.0002
2026.00,-0.0002
2025.00,-0.0003
2024.00,-0.0003
2023.00,-0.0003
2022.00,-0.0002
2021.00,-0.0002
2020.00,-0.0001
2019.00,-0.0002
2018.00,-0.0003
2017.00,-0.0003
2016.00,-0.0003
2015.00,-0.0003
2014.00,-0.0002
2013.00,-0.0002
2012.00,-0.0001
2011.00,-0.0001
2010.00,-0.0001
2009.00,-0.0001
2008.00,-0.0000
2007.00,-0.0000
2006.00,-0.0001
2005.00,-0.0001
2004.00,-0.0001
2003.00,-0.0002
2002.00,-0.0002
2001.00,-0.0002
2000.00,-0.0001
1999.00,-0.0001
1998.00,-0.0001
1997.00,-0.0002
1996.00,-0.0002
1995.00,-0.0002
1994.00,-0.0003
1993.00,-0.0003
1992.00,-0.0002
1991.00,-0.0002
1990.00,-0.0002
1989.00,-0.0002
1988.00,-0.0002
1987.00,-0.0002
1986.00,-0.0002
1985.00,-0.0002
1984.00,-0.0002
1983.00,-0.0002
1982.00,-0.0003
1981.00,-0.0003
1980.00,-0.0003
1979.00,-0.0003
1978.00,-0.0004
1977.00,-0.0004
1976.00,-0.0004
1975.00,-0.0004
1974.00,-0.0004
1973.00,-0.0005
1972.00,-0.0005
1971.00,-0.0005
1970.00,-0.0005
1969.00,-0.0005
1968.00,-0.0005
1967.00,-0.0005
1966.00,-0.0005
1965.00,-0.0004
1964.00,-0.0003
1963.00,-0.0003
1962.00,-0.0003
1961.00,-0.0004
1960.00,-0.0003
1959.00,-0.0003
1958.00,-0.0004
1957.00,-0.0004
1956.00,-0.0004
1955.00,-0.0004
1954.00,-0.0005
1953.00,-0.0005
1952.00,-0.0004
1951.00,-0.0004
1950.00,-0.0005
1949.00,-0.0005
1948.00,-0.0006
1947.00,-0.0006
1946.00,-0.0006
1945.00,-0.0006
1944.00,-0.0006
1943.00,-0.0006
1942.00,-0.0006
1941.00,-0.0006
1940.00,-0.0005
1939.00,-0.0005
1938.00,-0.0005
1937.00,-0.0005
1936.00,-0.0005
1935.00,-0.0005
1934.00,-0.0006
1933.00,-0.0006
1932.00,-0.0006
1931.00,-0.0006
1930.00,-0.0006
1929.00,-0.0006
1928.00,-0.0006
1927.00,-0.0006
1926.00,-0.0006
1925.00,-0.0006
1924.00,-0.0007
1923.00,-0.0007
1922.00,-0.0007
1921.00,-0.0007
1920.00,-0.0007
1919.00,-0.0007
1918.00,-0.0008
1917.00,-0.0008
1916.00,-0.0007
1915.00,-0.0007
1914.00,-0.0007
1913.00,-0.0007
1912.00,-0.0007
1911.00,-0.0008
1910.00,-0.0008
1909.00,-0.0008
1908.00,-0.0007
1907.00,-0.0007
1906.00,-0.0007
1905.00,-0.0008
1904.00,-0.0008
1903.00,-0.0008
1902.00,-0.0008
1901.00,-0.0008
1900.00,-0.0008
1899.00,-0.0008
1898.00,-0.0008
1897.00,-0.0008
1896.00,-0.0008
1895.00,-0.0009
1894.00,-0.0009
1893.00,-0.0008
1892.00,-0.0009
1891.00,-0.0009
1890.00,-0.0010
1889.00,-0.0010
1888.00,-0.0009
1887.00,-0.0009
1886.00,-0.0009
1885.00,-0.0009
1884.00,-0.0008
1883.00,-0.0008
1882.00,-0.0009
1881.00,-0.0009
1880.00,-0.0009
1879.00,-0.0009
1878.00,-0.0009
1877.00,-0.0009
1876.00,-0.0009
1875.00,-0.0009
1874.00,-0.0010
1873.00,-0.0010
1872.00,-0.0010
1871.00,-0.0011
1870.00,-0.0012
1869.00,-0.0013
1868.00,-0.0013
1867.00,-0.0012
1866.00,-0.0011
1865.00,-0.0011
1864.00,-0.0011
1863.00,-0.0011
1862.00,-0.0011
1861.00,-0.0011
1860.00,-0.0011
1859.00,-0.0011
1858.00,-0.0011
1857.00,-0.0011
1856.00,-0.0011
1855.00,-0.0011
1854.00,-0.0011
1853.00,-0.0011
1852.00,-0.0011
1851.00,-0.0011
1850.00,-0.0011
1849.00,-0.0011
1848.00,-0.0012
1847.00,-0.0012
1846.00,-0.0013
1845.00,-0.0013
1844.00,-0.0013
1843.00,-0.0012
1842.00,-0.0012
1841.00,-0.0012
1840.00,-0.0012
1839.00,-0.0012
1838.00,-0.0012
1837.00,-0.0012
1836.00,-0.0012
1835.00,-0.0012
1834.00,-0.0012
1833.00,-0.0013
1832.00,-0.0014
1831.00,-0.0015
1830.00,-0.0015
1829.00,-0.0015
1828.00,-0.0014
1827.00,-0.0014
1826.00,-0.0015
1825.00,-0.0015
1824.00,-0.0014
1823.00,-0.0013
1822.00,-0.0013
1821.00,-0.0012
1820.00,-0.0013
1819.00,-0.0013
1818.00,-0.0013
1817.00,-0.0013
1816.00,-0.0013
1815.00,-0.0013
1814.00,-0.0013
1813.00,-0.0014
1812.00,-0.0014
1811.00,-0.0014
1810.00,-0.0014
1809.00,-0.0014
1808.00,-0.0014
1807.00,-0.0014
1806.00,-0.0014
1805.00,-0.0014
1804.00,-0.0014
1803.00,-0.0015
1802.00,-0.0015
1801.00,-0.0016
1800.00,-0.0016
1799.00,-0.0015
1798.00,-0.0015
1797.00,-0.0014
1796.00,-0.0014
1795.00,-0.0014
1794.00,-0.0015
1793.00,-0.0016
1792.00,-0.0016
1791.00,-0.0016
1790.00,-0.0015
1789.00,-0.0014
1788.00,-0.0014
1787.00,-0.0014
1786.00,-0.0015
1785.00,-0.0015
1784.00,-0.0015
1783.00,-0.0015
1782.00,-0.0015
1781.00,-0.0015
1780.00,-0.0015
1779.00,-0.0014
1778.00,-0.0014
1777.00,-0.0014
1776.00,-0.0014
1775.00,-0.0014
1774.00,-0.0015
1773.00,-0.0015
1772.00,-0.0016
1771.00,-0.0016
1770.00,-0.0015
1769.00,-0.0015
1768.00,-0.0014
1767.00,-0.0014
1766.00,-0.0013
1765.00,-0.0013
1764.00,-0.0014
1763.00,-0.0014
1762.00,-0.0015
1761.00,-0.0014
1760.00,-0.0013
1759.00,-0.0013
1758.00,-0.0013
1757.00,-0.0013
1756.00,-0.0012
1755.00,-0.0010
1754.00,-0.0010
1753.00,-0.0009
1752.00,-0.0008
1751.00,-0.0008
1750.00,-0.0008
1749.00,-0.0008
1748.00,-0.0007
1747.00,-0.0005
1746.00,-0.0003
1745.00,-0.0002
1744.00,0.0000
1743.00,0.0002
1742.00,0.0003
1741.00,0.0004
1740.00,0.0006
1739.00,0.0009
1738.00,0.0012
1737.00,0.0015
1736.00,0.0018
1735.00,0.0021
1734.00,0.0023
1733.00,0.0026
1732.00,0.0028
1731.00,0.0028
1730.00,0.0029
1729.00,0.0031
1728.00,0.0034
1727.00,0.0037
1726.00,0.0039
1725.00,0.0042
1724.00,0.0044
1723.00,0.0047
1722.00,0.0049
1721.00,0.0052
1720.00,0.0054
1719.00,0.0058
1718.00,0.0061
1717.00,0.0065
1716.00,0.0068
1715.00,0.0071
1714.00,0.0074
1713.00,0.0078
1712.00,0.0083
1711.00,0.0087
1710.00,0.0092
1709.00,0.0097
1708.00,0.0102
1707.00,0.0108
1706.00,0.0117
1705.00,0.0128
1704.00,0.0142
1703.00,0.0155
1702.00,0.0167
1701.00,0.0178
1700.00,0.0192
1699.00,0.0205
1698.00,0.0214
1697.00,0.0219
1696.00,0.0219
1695.00,0.0220
1694.00,0.0221
1693.00,0.0222
1692.00,0.0225
1691.00,0.0227
1690.00,0.0230
1689.00,0.0235
1688.00,0.0242
1687.00,0.0250
1686.00,0.0257
1685.00,0.0260
1684.00,0.0263
1683.00,0.0268
1682.00,0.0276
1681.00,0.0284
1680.00,0.0293
1679.00,0.0302
1678.00,0.0310
1677.00,0.0317
1676.00,0.0323
1675.00,0.0331
1674.00,0.0340
1673.00,0.0349
1672.00,0.0358
1671.00,0.0366
1670.00,0.0372
1669.00,0.0381
1668.00,0.0391
1667.00,0.0403
1666.00,0.0414
1665.00,0.0424
1664.00,0.0432
1663.00,0.0441
1662.00,0.0449
1661.00,0.0460
1660.00,0.0472
1659.00,0.0483
1658.00,0.0494
1657.00,0.0505
1656.00,0.0518
1655.00,0.0529
1654.00,0.0533
1653.00,0.0533
1652.00,0.0541
1651.00,0.0552
1650.00,0.0560
1649.00,0.0567
1648.00,0.0572
1647.00,0.0574
1646.00,0.0578
1645.00,0.0585
1644.00,0.0594
1643.00,0.0602
1642.00,0.0610
1641.00,0.0617
1640.00,0.0625
1639.00,0.0633
1638.00,0.0640
1637.00,0.0644
1636.00,0.0644
1635.00,0.0645
1634.00,0.0652
1633.00,0.0662
1632.00,0.0672
1631.00,0.0680
1630.00,0.0684
1629.00,0.0686
1628.00,0.0685
1627.00,0.0686
1626.00,0.0686
1625.00,0.0683
1624.00,0.0674
1623.00,0.0660
1622.00,0.0648
1621.00,0.0639
1620.00,0.0633
1619.00,0.0625
1618.00,0.0609
1617.00,0.0582
1616.00,0.0553
1615.00,0.0531
1614.00,0.0515
1613.00,0.0501
1612.00,0.0485
1611.00,0.0466
1610.00,0.0446
1609.00,0.0426
1608.00,0.0406
1607.00,0.0387
1606.00,0.0370
1605.00,0.0355
1604.00,0.0340
1603.00,0.0326
1602.00,0.0314
1601.00,0.0303
1600.00,0.0293
1599.00,0.0285
1598.00,0.0277
1597.00,0.0270
1596.00,0.0263
1595.00,0.0255
1594.00,0.0248
1593.00,0.0243
1592.00,0.0238
1591.00,0.0233
1590.00,0.0230
1589.00,0.0227
1588.00,0.0224
1587.00,0.0223
1586.00,0.0222
1585.00,0.0222
1584.00,0.0224
1583.00,0.0225
1582.00,0.0228
1581.00,0.0232
1580.00,0.0236
1579.00,0.0241
1578.00,0.0246
1577.00,0.0251
1576.00,0.0253
1575.00,0.0255
1574.00,0.0258
1573.00,0.0261
1572.00,0.0265
1571.00,0.0268
1570.00,0.0271
1569.00,0.0276
1568.00,0.0283
1567.00,0.0290
1566.00,0.0297
1565.00,0.0305
1564.00,0.0314
1563.00,0.0324
1562.00,0.0334
1561.00,0.0343
1560.00,0.0346
1559.00,0.0348
1558.00,0.0355
1557.00,0.0366
1556.00,0.0377
1555.00,0.0386
1554.00,0.0395
1553.00,0.0404
1552.00,0.0412
1551.00,0.0420
1550.00,0.0427
1549.00,0.0436
1548.00,0.0446
1547.00,0.0455
1546.00,0.0464
1545.00,0.0472
1544.00,0.0481
1543.00,0.0489
1542.00,0.0498
1541.00,0.0504
1540.00,0.0507
1539.00,0.0511
1538.00,0.0518
1537.00,0.0527
1536.00,0.0533
1535.00,0.0537
1534.00,0.0539
1533.00,0.0541
1532.00,0.0547
1531.00,0.0555
1530.00,0.0563
1529.00,0.0570
1528.00,0.0575
1527.00,0.0580
1526.00,0.0585
1525.00,0.0591
1524.00,0.0599
1523.00,0.0606
1522.00,0.0610
1521.00,0.0613
1520.00,0.0619
1519.00,0.0627
1518.00,0.0633
1517.00,0.0637
1516.00,0.0640
1515.00,0.0643
1514.00,0.0645
1513.00,0.0643
1512.00,0.0638
1511.00,0.0632
1510.00,0.0628
1509.00,0.0623
1508.00,0.0610
1507.00,0.0583
1506.00,0.0558
1505.00,0.0545
1504.00,0.0539
1503.00,0.0533
1502.00,0.0524
1501.00,0.0512
1500.00,0.0498
1499.00,0.0483
1498.00,0.0467
1497.00,0.0449
1496.00,0.0431
1495.00,0.0416
1494.00,0.0405
1493.00,0.0395
1492.00,0.0382
1491.00,0.0367
1490.00,0.0350
1489.00,0.0334
1488.00,0.0322
1487.00,0.0313
1486.00,0.0305
1485.00,0.0299
1484.00,0.0293
1483.00,0.0287
1482.00,0.0280
1481.00,0.0274
1480.00,0.0270
1479.00,0.0266
1478.00,0.0262
1477.00,0.0258
1476.00,0.0256
1475.00,0.0254
1474.00,0.0253
1473.00,0.0251
1472.00,0.0250
1471.00,0.0251
1470.00,0.0253
1469.00,0.0254
1468.00,0.0255
1467.00,0.0254
1466.00,0.0252
1465.00,0.0249
1464.00,0.0248
1463.00,0.0249
1462.00,0.0251
1461.00,0.0254
1460.00,0.0257
1459.00,0.0260
1458.00,0.0264
1457.00,0.0269
1456.00,0.0276
1455.00,0.0284
1454.00,0.0290
1453.00,0.0296
1452.00,0.0301
1451.00,0.0306
1450.00,0.0309
1449.00,0.0311
1448.00,0.0311
1447.00,0.0311
1446.00,0.0310
1445.00,0.0310
1444.00,0.0308
1443.00,0.0306
1442.00,0.0303
1441.00,0.0300
1440.00,0.0297
1439.00,0.0293
1438.00,0.0287
1437.00,0.0277
1436.00,0.0268
1435.00,0.0262
1434.00,0.0258
1433.00,0.0254
1432.00,0.0248
1431.00,0.0242
1430.00,0.0236
1429.00,0.0232
1428.00,0.0230
1427.00,0.0229
1426.00,0.0228
1425.00,0.0227
1424.00,0.0226
1423.00,0.0227
1422.00,0.0229
1421.00,0.0231
1420.00,0.0232
1419.00,0.0232
1418.00,0.0233
1417.00,0.0235
1416.00,0.0238
1415.00,0.0242
1414.00,0.0245
1413.00,0.0248
1412.00,0.0250
1411.00,0.0251
1410.00,0.0252
1409.00,0.0252
1408.00,0.0251
1407.00,0.0249
1406.00,0.0245
1405.00,0.0240
1404.00,0.0236
1403.00,0.0233
1402.00,0.0229
1401.00,0.0226
1400.00,0.0221
1399.00,0.0216
1398.00,0.0213
1397.00,0.0210
1396.00,0.0207
1395.00,0.0204
1394.00,0.0202
1393.00,0.0201
1392.00,0.0201
1391.00,0.0201
1390.00,0.0201
1389.00,0.0200
1388.00,0.0198
1387.00,0.0196
1386.00,0.0195
1385.00,0.0194
1384.00,0.0194
1383.00,0.0193
1382.00,0.0193
1381.00,0.0192
1380.00,0.0192
1379.00,0.0192
1378.00,0.0193
1377.00,0.0193
1376.00,0.0193
1375.00,0.0192
1374.00,0.0192
1373.00,0.0192
1372.00,0.0194
1371.00,0.0195
1370.00,0.0196
1369.00,0.0195
1368.00,0.0193
1367.00,0.0191
1366.00,0.0189
1365.00,0.0186
1364.00,0.0181
1363.00,0.0176
1362.00,0.0172
1361.00,0.0169
1360.00,0.0168
1359.00,0.0167
1358.00,0.0166
1357.00,0.0165
1356.00,0.0164
1355.00,0.0163
1354.00,0.0164
1353.00,0.0164
1352.00,0.0165
1351.00,0.0165
1350.00,0.0166
1349.00,0.0168
1348.00,0.0170
1347.00,0.0172
1346.00,0.0174
1345.00,0.0177
1344.00,0.0179
1343.00,0.0182
1342.00,0.0184
1341.00,0.0186
1340.00,0.0187
1339.00,0.0187
1338.00,0.0187
1337.00,0.0186
1336.00,0.0184
1335.00,0.0182
1334.00,0.0180
1333.00,0.0177
1332.00,0.0175
1331.00,0.0172
1330.00,0.0169
1329.00,0.0167
1328.00,0.0165
1327.00,0.0164
1326.00,0.0163
1325.00,0.0162
1324.00,0.0161
1323.00,0.0161
1322.00,0.0161
1321.00,0.0161
1320.00,0.0161
1319.00,0.0161
1318.00,0.0162
1317.00,0.0163
1316.00,0.0163
1315.00,0.0164
1314.00,0.0165
1313.00,0.0166
1312.00,0.0167
1311.00,0.0167
1310.00,0.0168
1309.00,0.0169
1308.00,0.0170
1307.00,0.0170
1306.00,0.0171
1305.00,0.0171
1304.00,0.0172
1303.00,0.0172
1302.00,0.0173
1301.00,0.0174
1300.00,0.0175
1299.00,0.0175
1298.00,0.0176
1297.00,0.0177
1296.00,0.0179
1295.00,0.0180
1294.00,0.0181
1293.00,0.0183
1292.00,0.0184
1291.00,0.0186
1290.00,0.0188
1289.00,0.0190
1288.00,0.0192
1287.00,0.0194
1286.00,0.0196
1285.00,0.0198
1284.00,0.0200
1283.00,0.0202
1282.00,0.0205
1281.00,0.0208
1280.00,0.0210
1279.00,0.0214
1278.00,0.0217
1277.00,0.0220
1276.00,0.0224
1275.00,0.0228
1274.00,0.0232
1273.00,0.0236
1272.00,0.0241
1271.00,0.0247
1270.00,0.0252
1269.00,0.0258
1268.00,0.0264
1267.00,0.0269
1266.00,0.0274
1265.00,0.0278
1264.00,0.0282
1263.00,0.0285
1262.00,0.0288
1261.00,0.0290
1260.00,0.0292
1259.00,0.0293
1258.00,0.0293
1257.00,0.0294
1256.00,0.0295
1255.00,0.0295
1254.00,0.0297
1253.00,0.0298
1252.00,0.0300
1251.00,0.0303
1250.00,0.0306
1249.00,0.0309
1248.00,0.0313
1247.00,0.0317
1246.00,0.0321
1245.00,0.0325
1244.00,0.0328
1243.00,0.0332
1242.00,0.0335
1241.00,0.0338
1240.00,0.0342
1239.00,0.0345
1238.00,0.0348
1237.00,0.0351
1236.00,0.0354
1235.00,0.0356
1234.00,0.0358
1233.00,0.0359
1232.00,0.0359
1231.00,0.0359
1230.00,0.0358
1229.00,0.0356
1228.00,0.0353
1227.00,0.0350
1226.00,0.0346
1225.00,0.0341
1224.00,0.0336
1223.00,0.0330
1222.00,0.0324
1221.00,0.0318
1220.00,0.0311
1219.00,0.0305
1218.00,0.0297
1217.00,0.0290
1216.00,0.0283
1215.00,0.0275
1214.00,0.0267
1213.00,0.0258
1212.00,0.0250
1211.00,0.0242
1210.00,0.0235
1209.00,0.0228
1208.00,0.0220
1207.00,0.0213
1206.00,0.0206
1205.00,0.0200
1204.00,0.0193
1203.00,0.0186
1202.00,0.0180
1201.00,0.0174
1200.00,0.0169
1199.00,0.0164
1198.00,0.0159
1197.00,0.0155
1196.00,0.0152
1195.00,0.0148
1194.00,0.0146
1193.00,0.0143
1192.00,0.0141
1191.00,0.0139
1190.00,0.0137
1189.00,0.0135
1188.00,0.0134
1187.00,0.0132
1186.00,0.0131
1185.00,0.0131
1184.00,0.0131
1183.00,0.0131
1182.00,0.0132
1181.00,0.0134
1180.00,0.0136
1179.00,0.0138
1178.00,0.0141
1177.00,0.0145
1176.00,0.0149
1175.00,0.0153
1174.00,0.0156
1173.00,0.0159
1172.00,0.0162
1171.00,0.0163
1170.00,0.0164
1169.00,0.0165
1168.00,0.0165
1167.00,0.0164
1166.00,0.0164
1165.00,0.0163
1164.00,0.0162
1163.00,0.0160
1162.00,0.0158
1161.00,0.0157
1160.00,0.0154
1159.00,0.0152
1158.00,0.0149
1157.00,0.0146
1156.00,0.0142
1155.00,0.0139
1154.00,0.0136
1153.00,0.0133
1152.00,0.0129
1151.00,0.0126
1150.00,0.0124
1149.00,0.0121
1148.00,0.0119
1147.00,0.0117
1146.00,0.0116
1145.00,0.0114
1144.00,0.0113
1143.00,0.0113
1142.00,0.0112
1141.00,0.0113
1140.00,0.0113
1139.00,0.0113
1138.00,0.0114
1137.00,0.0116
1136.00,0.0117
1135.00,0.0120
1134.00,0.0122
1133.00,0.0124
1132.00,0.0126
1131.00,0.0128
1130.00,0.0130
1129.00,0.0132
1128.00,0.0134
1127.00,0.0136
1126.00,0.0138
1125.00,0.0140
1124.00,0.0142
1123.00,0.0143
1122.00,0.0145
1121.00,0.0147
1120.00,0.0149
1119.00,0.0151
1118.00,0.0152
1117.00,0.0153
1116.00,0.0154
1115.00,0.0155
1114.00,0.0156
1113.00,0.0157
1112.00,0.0158
1111.00,0.0159
1110.00,0.0160
1109.00,0.0162
1108.00,0.0163
1107.00,0.0165
1106.00,0.0167
1105.00,0.0168
1104.00,0.0170
1103.00,0.0170
1102.00,0.0171
1101.00,0.0171
1100.00,0.0170
1099.00,0.0170
1098.00,0.0169
1097.00,0.0168
1096.00,0.0167
1095.00,0.0166
1094.00,0.0165
1093.00,0.0164
1092.00,0.0164
1091.00,0.0163
1090.00,0.0163
1089.00,0.0163
1088.00,0.0163
1087.00,0.0163
1086.00,0.0164
1085.00,0.0165
1084.00,0.0165
1083.00,0.0166
1082.00,0.0166
1081.00,0.0166
1080.00,0.0167
1079.00,0.0167
1078.00,0.0166
1077.00,0.0166
1076.00,0.0165
1075.00,0.0165
1074.00,0.0164
1073.00,0.0163
1072.00,0.0162
1071.00,0.0162
1070.00,0.0161
1069.00,0.0161
1068.00,0.0160
1067.00,0.0160
1066.00,0.0160
1065.00,0.0161
1064.00,0.0161
1063.00,0.0161
1062.00,0.0160
1061.00,0.0160
1060.00,0.0159
1059.00,0.0158
1058.00,0.0157
1057.00,0.0156
1056.00,0.0155
1055.00,0.0154
1054.00,0.0153
1053.00,0.0152
1052.00,0.0151
1051.00,0.0150
1050.00,0.0149
1049.00,0.0147
1048.00,0.0146
1047.00,0.0144
1046.00,0.0143
1045.00,0.0142
1044.00,0.0140
1043.00,0.0139
1042.00,0.0137
1041.00,0.0136
1040.00,0.0135
1039.00,0.0134
1038.00,0.0133
1037.00,0.0132
1036.00,0.0131
1035.00,0.0130
1034.00,0.0129
1033.00,0.0128
1032.00,0.0128
1031.00,0.0127
1030.00,0.0127
1029.00,0.0127
1028.00,0.0128
1027.00,0.0130
1026.00,0.0132
1025.00,0.0135
1024.00,0.0139
1023.00,0.0143
1022.00,0.0147
1021.00,0.0151
1020.00,0.0156
1019.00,0.0161
1018.00,0.0164
1017.00,0.0167
1016.00,0.0167
1015.00,0.0167
1014.00,0.0164
1013.00,0.0161
1012.00,0.0158
1011.00,0.0154
1010.00,0.0150
1009.00,0.0146
1008.00,0.0143
1007.00,0.0140
1006.00,0.0139
1005.00,0.0138
1004.00,0.0137
1003.00,0.0137
1002.00,0.0137
1001.00,0.0137
1000.00,0.0136
999.00,0.0135
998.00,0.0133
997.00,0.0131
996.00,0.0127
995.00,0.0124
994.00,0.0120
993.00,0.0116
992.00,0.0112
991.00,0.0108
990.00,0.0105
989.00,0.0102
988.00,0.0099
987.00,0.0098
986.00,0.0097
985.00,0.0096
984.00,0.0096
983.00,0.0097
982.00,0.0098
981.00,0.0099
980.00,0.0099
979.00,0.0100
978.00,0.0101
977.00,0.0101
976.00,0.0100
975.00,0.0099
974.00,0.0097
973.00,0.0095
972.00,0.0092
971.00,0.0088
970.00,0.0085
969.00,0.0082
968.00,0.0079
967.00,0.0076
966.00,0.0073
965.00,0.0071
964.00,0.0068
963.00,0.0066
962.00,0.0064
961.00,0.0062
960.00,0.0060
959.00,0.0058
958.00,0.0056
957.00,0.0055
956.00,0.0054
955.00,0.0053
954.00,0.0052
953.00,0.0051
952.00,0.0050
951.00,0.0050
950.00,0.0049
949.00,0.0049
948.00,0.0048
947.00,0.0048
946.00,0.0047
945.00,0.0047
944.00,0.0047
943.00,0.0047
942.00,0.0047
941.00,0.0047
940.00,0.0047
939.00,0.0047
938.00,0.0047
937.00,0.0048
936.00,0.0048
935.00,0.0049
934.00,0.0050
933.00,0.0051
932.00,0.0051
931.00,0.0052
930.00,0.0052
929.00,0.0052
928.00,0.0052
927.00,0.0052
926.00,0.0052
925.00,0.0051
924.00,0.0050
923.00,0.0049
922.00,0.0048
921.00,0.0047
920.00,0.0045
919.00,0.0044
918.00,0.0043
917.00,0.0042
916.00,0.0041
915.00,0.0040
914.00,0.0039
913.00,0.0038
912.00,0.0038
911.00,0.0037
910.00,0.0037
909.00,0.0036
908.00,0.0036
907.00,0.0036
906.00,0.0036
905.00,0.0036
904.00,0.0036
903.00,0.0036
902.00,0.0036
901.00,0.0036
900.00,0.0036
899.00,0.0036
898.00,0.0036
897.00,0.0036
896.00,0.0036
895.00,0.0036
894.00,0.0036
893.00,0.0035
892.00,0.0035
891.00,0.0036
890.00,0.0036
889.00,0.0036
888.00,0.0036
887.00,0.0036
886.00,0.0037
885.00,0.0037
884.00,0.0039
883.00,0.0040
882.00,0.0042
881.00,0.0044
880.00,0.0046
879.00,0.0048
878.00,0.0050
877.00,0.0052
876.00,0.0053
875.00,0.0055
874.00,0.0056
873.00,0.0057
872.00,0.0057
871.00,0.0056
870.00,0.0054
869.00,0.0051
868.00,0.0049
867.00,0.0048
866.00,0.0047
865.00,0.0046
864.00,0.0046
863.00,0.0047
862.00,0.0048
861.00,0.0049
860.00,0.0051
859.00,0.0053
858.00,0.0054
857.00,0.0056
856.00,0.0058
855.00,0.0060
854.00,0.0062
853.00,0.0064
852.00,0.0065
851.00,0.0067
850.00,0.0067
849.00,0.0067
848.00,0.0067
847.00,0.0066
846.00,0.0065
845.00,0.0065
844.00,0.0065
843.00,0.0065
842.00,0.0065
841.00,0.0065
840.00,0.0066
839.00,0.0067
838.00,0.0068
837.00,0.0069
836.00,0.0070
835.00,0.0071
834.00,0.0072
833.00,0.0073
832.00,0.0074
831.00,0.0075
830.00,0.0075
829.00,0.0076
828.00,0.0076
827.00,0.0076
826.00,0.0076
825.00,0.0076
824.00,0.0076
823.00,0.0075
822.00,0.0075
821.00,0.0075
820.00,0.0075
819.00,0.0075
818.00,0.0075
817.00,0.0076
816.00,0.0077
815.00,0.0077
814.00,0.0078
813.00,0.0080
812.00,0.0081
811.00,0.0082
810.00,0.0083
809.00,0.0084
808.00,0.0085
807.00,0.0087
806.00,0.0088
805.00,0.0088
804.00,0.0089
803.00,0.0089
802.00,0.0090
801.00,0.0091
800.00,0.0092
799.00,0.0092
798.00,0.0093
797.00,0.0095
796.00,0.0096
795.00,0.0098
794.00,0.0099
793.00,0.0100
792.00,0.0100
791.00,0.0100
790.00,0.0101
789.00,0.0101
788.00,0.0102
787.00,0.0103
786.00,0.0104
785.00,0.0105
784.00,0.0106
783.00,0.0107
782.00,0.0108
781.00,0.0109
780.00,0.0110
779.00,0.0112
778.00,0.0113
777.00,0.0114
776.00,0.0116
775.00,0.0117
774.00,0.0119
773.00,0.0121
772.00,0.0122
771.00,0.0124
770.00,0.0126
769.00,0.0128
768.00,0.0130
767.00,0.0132
766.00,0.0134
765.00,0.0136
764.00,0.0137
763.00,0.0138
762.00,0.0140
761.00,0.0141
760.00,0.0142
759.00,0.0144
758.00,0.0145
757.00,0.0147
756.00,0.0148
755.00,0.0150
754.00,0.0152
753.00,0.0154
752.00,0.0156
751.00,0.0158
750.00,0.0160
749.00,0.0163
748.00,0.0165
747.00,0.0168
746.00,0.0172
745.00,0.0175
744.00,0.0179
743.00,0.0182
742.00,0.0185
741.00,0.0189
740.00,0.0194
739.00,0.0200
738.00,0.0206
737.00,0.0213
736.00,0.0220
735.00,0.0227
734.00,0.0235
733.00,0.0243
732.00,0.0251
731.00,0.0259
730.00,0.0267
729.00,0.0276
728.00,0.0284
727.00,0.0291
726.00,0.0298
725.00,0.0304
724.00,0.0310
723.00,0.0315
722.00,0.0318
721.00,0.0319
720.00,0.0319
719.00,0.0318
718.00,0.0317
717.00,0.0315
716.00,0.0313
715.00,0.0312
714.00,0.0312
713.00,0.0312
712.00,0.0312
711.00,0.0313
710.00,0.0314
709.00,0.0315
708.00,0.0316
707.00,0.0318
706.00,0.0320
705.00,0.0322
704.00,0.0325
703.00,0.0327
702.00,0.0329
701.00,0.0330
700.00,0.0331
699.00,0.0331
698.00,0.0332
697.00,0.0333
696.00,0.0334
695.00,0.0335
694.00,0.0335
693.00,0.0336
692.00,0.0337
691.00,0.0338
690.00,0.0339
689.00,0.0340
688.00,0.0340
687.00,0.0341
686.00,0.0341
685.00,0.0341
684.00,0.0342
683.00,0.0343
682.00,0.0344
681.00,0.0345
680.00,0.0345
679.00,0.0346
678.00,0.0347
677.00,0.0347
676.00,0.0348
675.00,0.0348
674.00,0.0348
673.00,0.0349
672.00,0.0350
671.00,0.0351
670.00,0.0352
669.00,0.0352
668.00,0.0351
667.00,0.0350
666.00,0.0351
665.00,0.0353
664.00,0.0355
663.00,0.0356
662.00,0.0357
661.00,0.0358
660.00,0.0359
659.00,0.0359
658.00,0.0360
657.00,0.0361
656.00,0.0361
655.00,0.0362
654.00,0.0363
653.00,0.0365
652.00,0.0366
651.00,0.0367
650.00,0.0368
649.00,0.0369
648.00,0.0370
647.00,0.0371
646.00,0.0372
645.00,0.0372
644.00,0.0373
643.00,0.0374
642.00,0.0374
641.00,0.0374
640.00,0.0375
639.00,0.0375
638.00,0.0375
637.00,0.0374
636.00,0.0374
635.00,0.0374
634.00,0.0374
633.00,0.0374
632.00,0.0374
631.00,0.0375
630.00,0.0375
629.00,0.0376
628.00,0.0376
627.00,0.0376
626.00,0.0376
625.00,0.0375
624.00,0.0376
623.00,0.0377
622.00,0.0378
621.00,0.0380
620.00,0.0381
619.00,0.0382
618.00,0.0384
617.00,0.0385
616.00,0.0387
615.00,0.0389
614.00,0.0390
613.00,0.0390
612.00,0.0390
611.00,0.0389
610.00,0.0388
609.00,0.0385
608.00,0.0383
607.00,0.0380
606.00,0.0378
605.00,0.0376
604.00,0.0375
603.00,0.0373
602.00,0.0371
601.00,0.0369
600.00,0.0367
599.00,0.0365
598.00,0.0364
597.00,0.0364
596.00,0.0363
595.00,0.0363
594.00,0.0363
593.00,0.0362
592.00,0.0362
591.00,0.0361
590.00,0.0360
589.00,0.0360
588.00,0.0360
587.00,0.0361
586.00,0.0362
585.00,0.0363
584.00,0.0364
583.00,0.0364
582.00,0.0365
581.00,0.0366
580.00,0.0367
579.00,0.0368
578.00,0.0368
577.00,0.0369
576.00,0.0370
575.00,0.0371
574.00,0.0373
573.00,0.0375
572.00,0.0376
571.00,0.0378
570.00,0.0379
569.00,0.0381
568.00,0.0384
567.00,0.0388
566.00,0.0391
565.00,0.0395
564.00,0.0399
563.00,0.0403
562.00,0.0407
561.00,0.0411
560.00,0.0415
559.00,0.0420
558.00,0.0424
557.00,0.0427
556.00,0.0431
555.00,0.0435
554.00,0.0437
553.00,0.0440
552.00,0.0442
551.00,0.0443
550.00,0.0442
549.00,0.0442
548.00,0.0441
547.00,0.0440
546.00,0.0438
545.00,0.0436
544.00,0.0434
543.00,0.0431
542.00,0.0428
541.00,0.0425
540.00,0.0424
539.00,0.0422
538.00,0.0421
537.00,0.0420
536.00,0.0418
535.00,0.0416
534.00,0.0413
533.00,0.0411
532.00,0.0409
531.00,0.0407
530.00,0.0407
529.00,0.0406
528.00,0.0407
527.00,0.0408
526.00,0.0407
525.00,0.0406
524.00,0.0405
523.00,0.0403
522.00,0.0401
521.00,0.0400
520.00,0.0399
519.00,0.0398
518.00,0.0398
517.00,0.0398
516.00,0.0398
515.00,0.0398
514.00,0.0398
513.00,0.0397
512.00,0.0395
511.00,0.0394
510.00,0.0392
509.00,0.0391
508.00,0.0390
507.00,0.0389
506.00,0.0388
505.00,0.0385
504.00,0.0383
503.00,0.0381
502.00,0.0379
501.00,0.0377
500.00,0.0377
499.00,0.0377
498.00,0.0377
497.00,0.0377
496.00,0.0378
495.00,0.0380
494.00,0.0381
493.00,0.0383
492.00,0.0383
491.00,0.0383
490.00,0.0381
489.00,0.0378
488.00,0.0375
487.00,0.0373
486.00,0.0371
485.00,0.0369
484.00,0.0368
483.00,0.0366
482.00,0.0366
481.00,0.0365
480.00,0.0365
479.00,0.0365
478.00,0.0364
477.00,0.0364
476.00,0.0365
475.00,0.0365
474.00,0.0364
473.00,0.0361
472.00,0.0357
471.00,0.0353
470.00,0.0349
469.00,0.0347
468.00,0.0347
467.00,0.0346
466.00,0.0344
465.00,0.0342
464.00,0.0343
463.00,0.0344
462.00,0.0346
461.00,0.0345
460.00,0.0343
459.00,0.0340
458.00,0.0336
457.00,0.0335
456.00,0.0336
455.00,0.0337
454.00,0.0338
453.00,0.0338
452.00,0.0338
451.00,0.0338
450.00,0.0337
449.00,0.0336
448.00,0.0337
447.00,0.0338
446.00,0.0338
445.00,0.0337
444.00,0.0335
443.00,0.0333
442.00,0.0332
441.00,0.0332
440.00,0.0332
439.00,0.0334
438.00,0.0334
437.00,0.0333
436.00,0.0328
435.00,0.0323
434.00,0.0318
433.00,0.0318
432.00,0.0320
431.00,0.0323
430.00,0.0327
429.00,0.0331
428.00,0.0335
427.00,0.0338
426.00,0.0338
425.00,0.0335
424.00,0.0331
423.00,0.0327
422.00,0.0323
421.00,0.0321
420.00,0.0319
419.00,0.0316
418.00,0.0313
417.00,0.0311
416.00,0.0309
415.00,0.0305
414.00,0.0300
413.00,0.0297
412.00,0.0296
411.00,0.0294
410.00,0.0288
409.00,0.0281
408.00,0.0276
407.00,0.0274
406.00,0.0276
405.00,0.0279
404.00,0.0279
403.00,0.0274
402.00,0.0266
401.00,0.0260
400.00,0.0258
