Created as New Dataset,Sample 264 By YargerLab Date Wednesday, July 24 2024
cm-1,A
4000.00,0.0004
3999.00,0.0004
3998.00,0.0004
3997.00,0.0004
3996.00,0.0005
3995.00,0.0005
3994.00,0.0005
3993.00,0.0004
3992.00,0.0004
3991.00,0.0004
3990.00,0.0004
3989.00,0.0004
3988.00,0.0004
3987.00,0.0004
3986.00,0.0004
3985.00,0.0004
3984.00,0.0004
3983.00,0.0004
3982.00,0.0004
3981.00,0.0004
3980.00,0.0004
3979.00,0.0004
3978.00,0.0004
3977.00,0.0004
3976.00,0.0004
3975.00,0.0004
3974.00,0.0004
3973.00,0.0004
3972.00,0.0004
3971.00,0.0004
3970.00,0.0004
3969.00,0.0004
3968.00,0.0004
3967.00,0.0004
3966.00,0.0004
3965.00,0.0004
3964.00,0.0004
3963.00,0.0004
3962.00,0.0004
3961.00,0.0004
3960.00,0.0004
3959.00,0.0004
3958.00,0.0004
3957.00,0.0004
3956.00,0.0004
3955.00,0.0004
3954.00,0.0004
3953.00,0.0004
3952.00,0.0004
3951.00,0.0004
3950.00,0.0004
3949.00,0.0004
3948.00,0.0004
3947.00,0.0003
3946.00,0.0003
3945.00,0.0003
3944.00,0.0003
3943.00,0.0003
3942.00,0.0003
3941.00,0.0003
3940.00,0.0003
3939.00,0.0003
3938.00,0.0003
3937.00,0.0003
3936.00,0.0003
3935.00,0.0003
3934.00,0.0003
3933.00,0.0003
3932.00,0.0003
3931.00,0.0003
3930.00,0.0003
3929.00,0.0003
3928.00,0.0003
3927.00,0.0003
3926.00,0.0003
3925.00,0.0003
3924.00,0.0003
3923.00,0.0003
3922.00,0.0003
3921.00,0.0003
3920.00,0.0003
3919.00,0.0003
3918.00,0.0003
3917.00,0.0003
3916.00,0.0003
3915.00,0.0003
3914.00,0.0003
3913.00,0.0003
3912.00,0.0003
3911.00,0.0003
3910.00,0.0003
3909.00,0.0003
3908.00,0.0003
3907.00,0.0002
3906.00,0.0002
3905.00,0.0002
3904.00,0.0002
3903.00,0.0002
3902.00,0.0002
3901.00,0.0002
3900.00,0.0002
3899.00,0.0002
3898.00,0.0002
3897.00,0.0002
3896.00,0.0002
3895.00,0.0002
3894.00,0.0002
3893.00,0.0002
3892.00,0.0002
3891.00,0.0002
3890.00,0.0002
3889.00,0.0002
3888.00,0.0001
3887.00,0.0001
3886.00,0.0001
3885.00,0.0001
3884.00,0.0001
3883.00,0.0001
3882.00,0.0002
3881.00,0.0002
3880.00,0.0002
3879.00,0.0002
3878.00,0.0002
3877.00,0.0002
3876.00,0.0002
3875.00,0.0002
3874.00,0.0002
3873.00,0.0002
3872.00,0.0002
3871.00,0.0002
3870.00,0.0002
3869.00,0.0002
3868.00,0.0002
3867.00,0.0002
3866.00,0.0002
3865.00,0.0002
3864.00,0.0002
3863.00,0.0002
3862.00,0.0002
3861.00,0.0002
3860.00,0.0002
3859.00,0.0002
3858.00,0.0001
3857.00,0.0001
3856.00,0.0001
3855.00,0.0001
3854.00,0.0001
3853.00,0.0001
3852.00,0.0001
3851.00,0.0001
3850.00,0.0001
3849.00,0.0001
3848.00,0.0001
3847.00,0.0001
3846.00,0.0001
3845.00,0.0001
3844.00,0.0001
3843.00,0.0001
3842.00,0.0001
3841.00,0.0001
3840.00,0.0001
3839.00,0.0001
3838.00,0.0001
3837.00,0.0001
3836.00,0.0001
3835.00,0.0001
3834.00,0.0001
3833.00,0.0001
3832.00,0.0001
3831.00,0.0001
3830.00,0.0001
3829.00,0.0001
3828.00,0.0001
3827.00,0.0001
3826.00,0.0001
3825.00,0.0001
3824.00,0.0001
3823.00,0.0001
3822.00,0.0001
3821.00,0.0001
3820.00,0.0001
3819.00,0.0001
3818.00,0.0001
3817.00,0.0001
3816.00,0.0001
3815.00,0.0001
3814.00,0.0001
3813.00,0.0001
3812.00,0.0001
3811.00,0.0001
3810.00,0.0001
3809.00,0.0001
3808.00,0.0001
3807.00,0.0001
3806.00,0.0001
3805.00,0.0001
3804.00,0.0001
3803.00,0.0001
3802.00,0.0001
3801.00,0.0001
3800.00,0.0000
3799.00,0.0000
3798.00,0.0000
3797.00,0.0001
3796.00,0.0001
3795.00,0.0001
3794.00,0.0001
3793.00,0.0001
3792.00,0.0001
3791.00,0.0001
3790.00,0.0001
3789.00,0.0001
3788.00,0.0001
3787.00,0.0001
3786.00,0.0001
3785.00,0.0001
3784.00,0.0001
3783.00,0.0001
3782.00,0.0001
3781.00,0.0001
3780.00,0.0001
3779.00,0.0001
3778.00,0.0001
3777.00,0.0001
3776.00,0.0001
3775.00,0.0001
3774.00,0.0001
3773.00,0.0001
3772.00,0.0001
3771.00,0.0001
3770.00,0.0001
3769.00,0.0001
3768.00,0.0001
3767.00,0.0001
3766.00,0.0001
3765.00,0.0001
3764.00,0.0001
3763.00,0.0001
3762.00,0.0001
3761.00,0.0001
3760.00,0.0001
3759.00,0.0001
3758.00,0.0001
3757.00,0.0001
3756.00,0.0001
3755.00,0.0001
3754.00,0.0001
3753.00,0.0001
3752.00,0.0001
3751.00,0.0001
3750.00,0.0001
3749.00,0.0001
3748.00,0.0000
3747.00,0.0000
3746.00,0.0000
3745.00,0.0000
3744.00,0.0000
3743.00,0.0000
3742.00,-0.0000
3741.00,0.0000
3740.00,0.0000
3739.00,0.0000
3738.00,0.0001
3737.00,0.0001
3736.00,0.0001
3735.00,0.0001
3734.00,0.0001
3733.00,0.0001
3732.00,0.0001
3731.00,0.0001
3730.00,0.0001
3729.00,0.0001
3728.00,0.0001
3727.00,0.0001
3726.00,0.0001
3725.00,0.0001
3724.00,0.0001
3723.00,0.0001
3722.00,0.0001
3721.00,0.0001
3720.00,0.0001
3719.00,0.0001
3718.00,0.0001
3717.00,0.0001
3716.00,0.0001
3715.00,0.0001
3714.00,0.0001
3713.00,0.0001
3712.00,0.0001
3711.00,0.0001
3710.00,0.0001
3709.00,0.0001
3708.00,0.0001
3707.00,0.0001
3706.00,0.0001
3705.00,0.0001
3704.00,0.0001
3703.00,0.0001
3702.00,0.0001
3701.00,0.0001
3700.00,0.0001
3699.00,0.0001
3698.00,0.0001
3697.00,0.0001
3696.00,0.0001
3695.00,0.0001
3694.00,0.0001
3693.00,0.0001
3692.00,0.0001
3691.00,0.0001
3690.00,0.0001
3689.00,0.0001
3688.00,0.0001
3687.00,0.0001
3686.00,0.0001
3685.00,0.0001
3684.00,0.0001
3683.00,0.0001
3682.00,0.0001
3681.00,0.0001
3680.00,0.0001
3679.00,0.0001
3678.00,0.0001
3677.00,0.0000
3676.00,0.0000
3675.00,0.0000
3674.00,-0.0000
3673.00,-0.0000
3672.00,-0.0000
3671.00,-0.0000
3670.00,0.0000
3669.00,0.0000
3668.00,0.0000
3667.00,0.0001
3666.00,0.0001
3665.00,0.0001
3664.00,0.0001
3663.00,0.0001
3662.00,0.0002
3661.00,0.0002
3660.00,0.0002
3659.00,0.0002
3658.00,0.0002
3657.00,0.0002
3656.00,0.0003
3655.00,0.0003
3654.00,0.0003
3653.00,0.0003
3652.00,0.0003
3651.00,0.0003
3650.00,0.0004
3649.00,0.0004
3648.00,0.0004
3647.00,0.0005
3646.00,0.0006
3645.00,0.0006
3644.00,0.0007
3643.00,0.0008
3642.00,0.0008
3641.00,0.0009
3640.00,0.0009
3639.00,0.0010
3638.00,0.0010
3637.00,0.0011
3636.00,0.0011
3635.00,0.0012
3634.00,0.0012
3633.00,0.0013
3632.00,0.0014
3631.00,0.0014
3630.00,0.0014
3629.00,0.0014
3628.00,0.0015
3627.00,0.0015
3626.00,0.0016
3625.00,0.0016
3624.00,0.0017
3623.00,0.0017
3622.00,0.0018
3621.00,0.0018
3620.00,0.0019
3619.00,0.0019
3618.00,0.0019
3617.00,0.0019
3616.00,0.0020
3615.00,0.0020
3614.00,0.0021
3613.00,0.0021
3612.00,0.0022
3611.00,0.0022
3610.00,0.0023
3609.00,0.0023
3608.00,0.0023
3607.00,0.0024
3606.00,0.0024
3605.00,0.0025
3604.00,0.0026
3603.00,0.0026
3602.00,0.0027
3601.00,0.0027
3600.00,0.0028
3599.00,0.0028
3598.00,0.0028
3597.00,0.0028
3596.00,0.0029
3595.00,0.0029
3594.00,0.0029
3593.00,0.0030
3592.00,0.0031
3591.00,0.0031
3590.00,0.0032
3589.00,0.0032
3588.00,0.0032
3587.00,0.0032
3586.00,0.0032
3585.00,0.0033
3584.00,0.0034
3583.00,0.0034
3582.00,0.0035
3581.00,0.0035
3580.00,0.0036
3579.00,0.0036
3578.00,0.0037
3577.00,0.0037
3576.00,0.0038
3575.00,0.0038
3574.00,0.0039
3573.00,0.0039
3572.00,0.0040
3571.00,0.0041
3570.00,0.0041
3569.00,0.0041
3568.00,0.0041
3567.00,0.0041
3566.00,0.0041
3565.00,0.0042
3564.00,0.0043
3563.00,0.0043
3562.00,0.0044
3561.00,0.0045
3560.00,0.0045
3559.00,0.0046
3558.00,0.0046
3557.00,0.0047
3556.00,0.0047
3555.00,0.0048
3554.00,0.0048
3553.00,0.0049
3552.00,0.0049
3551.00,0.0050
3550.00,0.0050
3549.00,0.0051
3548.00,0.0051
3547.00,0.0051
3546.00,0.0051
3545.00,0.0052
3544.00,0.0052
3543.00,0.0053
3542.00,0.0053
3541.00,0.0054
3540.00,0.0054
3539.00,0.0055
3538.00,0.0055
3537.00,0.0056
3536.00,0.0056
3535.00,0.0057
3534.00,0.0057
3533.00,0.0057
3532.00,0.0058
3531.00,0.0058
3530.00,0.0059
3529.00,0.0059
3528.00,0.0060
3527.00,0.0060
3526.00,0.0060
3525.00,0.0061
3524.00,0.0061
3523.00,0.0062
3522.00,0.0062
3521.00,0.0062
3520.00,0.0063
3519.00,0.0063
3518.00,0.0064
3517.00,0.0064
3516.00,0.0065
3515.00,0.0065
3514.00,0.0066
3513.00,0.0066
3512.00,0.0066
3511.00,0.0067
3510.00,0.0067
3509.00,0.0067
3508.00,0.0067
3507.00,0.0068
3506.00,0.0068
3505.00,0.0069
3504.00,0.0069
3503.00,0.0070
3502.00,0.0070
3501.00,0.0070
3500.00,0.0070
3499.00,0.0071
3498.00,0.0071
3497.00,0.0072
3496.00,0.0072
3495.00,0.0072
3494.00,0.0073
3493.00,0.0073
3492.00,0.0074
3491.00,0.0074
3490.00,0.0074
3489.00,0.0075
3488.00,0.0075
3487.00,0.0075
3486.00,0.0076
3485.00,0.0076
3484.00,0.0076
3483.00,0.0077
3482.00,0.0077
3481.00,0.0077
3480.00,0.0077
3479.00,0.0078
3478.00,0.0078
3477.00,0.0078
3476.00,0.0079
3475.00,0.0079
3474.00,0.0079
3473.00,0.0080
3472.00,0.0080
3471.00,0.0080
3470.00,0.0081
3469.00,0.0081
3468.00,0.0082
3467.00,0.0082
3466.00,0.0082
3465.00,0.0082
3464.00,0.0083
3463.00,0.0083
3462.00,0.0083
3461.00,0.0083
3460.00,0.0084
3459.00,0.0084
3458.00,0.0084
3457.00,0.0084
3456.00,0.0085
3455.00,0.0085
3454.00,0.0085
3453.00,0.0086
3452.00,0.0086
3451.00,0.0087
3450.00,0.0087
3449.00,0.0087
3448.00,0.0088
3447.00,0.0088
3446.00,0.0088
3445.00,0.0088
3444.00,0.0089
3443.00,0.0089
3442.00,0.0090
3441.00,0.0090
3440.00,0.0091
3439.00,0.0091
3438.00,0.0092
3437.00,0.0092
3436.00,0.0093
3435.00,0.0093
3434.00,0.0093
3433.00,0.0094
3432.00,0.0094
3431.00,0.0095
3430.00,0.0095
3429.00,0.0096
3428.00,0.0096
3427.00,0.0097
3426.00,0.0097
3425.00,0.0098
3424.00,0.0098
3423.00,0.0099
3422.00,0.0099
3421.00,0.0100
3420.00,0.0100
3419.00,0.0101
3418.00,0.0101
3417.00,0.0102
3416.00,0.0102
3415.00,0.0103
3414.00,0.0103
3413.00,0.0104
3412.00,0.0104
3411.00,0.0105
3410.00,0.0106
3409.00,0.0106
3408.00,0.0107
3407.00,0.0107
3406.00,0.0108
3405.00,0.0109
3404.00,0.0109
3403.00,0.0110
3402.00,0.0110
3401.00,0.0111
3400.00,0.0111
3399.00,0.0112
3398.00,0.0112
3397.00,0.0113
3396.00,0.0113
3395.00,0.0114
3394.00,0.0114
3393.00,0.0115
3392.00,0.0115
3391.00,0.0116
3390.00,0.0116
3389.00,0.0117
3388.00,0.0117
3387.00,0.0118
3386.00,0.0118
3385.00,0.0119
3384.00,0.0119
3383.00,0.0120
3382.00,0.0121
3381.00,0.0121
3380.00,0.0122
3379.00,0.0122
3378.00,0.0123
3377.00,0.0124
3376.00,0.0124
3375.00,0.0125
3374.00,0.0126
3373.00,0.0127
3372.00,0.0127
3371.00,0.0128
3370.00,0.0129
3369.00,0.0130
3368.00,0.0131
3367.00,0.0131
3366.00,0.0132
3365.00,0.0133
3364.00,0.0134
3363.00,0.0135
3362.00,0.0136
3361.00,0.0137
3360.00,0.0138
3359.00,0.0139
3358.00,0.0140
3357.00,0.0141
3356.00,0.0142
3355.00,0.0143
3354.00,0.0144
3353.00,0.0145
3352.00,0.0146
3351.00,0.0148
3350.00,0.0149
3349.00,0.0150
3348.00,0.0151
3347.00,0.0153
3346.00,0.0154
3345.00,0.0156
3344.00,0.0157
3343.00,0.0158
3342.00,0.0160
3341.00,0.0162
3340.00,0.0163
3339.00,0.0165
3338.00,0.0167
3337.00,0.0168
3336.00,0.0170
3335.00,0.0172
3334.00,0.0174
3333.00,0.0176
3332.00,0.0178
3331.00,0.0180
3330.00,0.0182
3329.00,0.0184
3328.00,0.0186
3327.00,0.0188
3326.00,0.0190
3325.00,0.0192
3324.00,0.0195
3323.00,0.0197
3322.00,0.0199
3321.00,0.0201
3320.00,0.0204
3319.00,0.0206
3318.00,0.0208
3317.00,0.0211
3316.00,0.0213
3315.00,0.0216
3314.00,0.0218
3313.00,0.0221
3312.00,0.0223
3311.00,0.0226
3310.00,0.0228
3309.00,0.0230
3308.00,0.0233
3307.00,0.0235
3306.00,0.0237
3305.00,0.0240
3304.00,0.0242
3303.00,0.0245
3302.00,0.0247
3301.00,0.0249
3300.00,0.0251
3299.00,0.0254
3298.00,0.0255
3297.00,0.0257
3296.00,0.0259
3295.00,0.0261
3294.00,0.0263
3293.00,0.0264
3292.00,0.0265
3291.00,0.0266
3290.00,0.0267
3289.00,0.0268
3288.00,0.0269
3287.00,0.0269
3286.00,0.0270
3285.00,0.0270
3284.00,0.0269
3283.00,0.0269
3282.00,0.0269
3281.00,0.0268
3280.00,0.0268
3279.00,0.0267
3278.00,0.0265
3277.00,0.0264
3276.00,0.0262
3275.00,0.0261
3274.00,0.0259
3273.00,0.0257
3272.00,0.0255
3271.00,0.0253
3270.00,0.0251
3269.00,0.0249
3268.00,0.0246
3267.00,0.0244
3266.00,0.0242
3265.00,0.0239
3264.00,0.0237
3263.00,0.0235
3262.00,0.0232
3261.00,0.0230
3260.00,0.0228
3259.00,0.0226
3258.00,0.0223
3257.00,0.0221
3256.00,0.0219
3255.00,0.0216
3254.00,0.0214
3253.00,0.0213
3252.00,0.0211
3251.00,0.0209
3250.00,0.0207
3249.00,0.0205
3248.00,0.0203
3247.00,0.0202
3246.00,0.0200
3245.00,0.0198
3244.00,0.0196
3243.00,0.0195
3242.00,0.0193
3241.00,0.0192
3240.00,0.0190
3239.00,0.0189
3238.00,0.0187
3237.00,0.0186
3236.00,0.0185
3235.00,0.0183
3234.00,0.0182
3233.00,0.0180
3232.00,0.0179
3231.00,0.0178
3230.00,0.0176
3229.00,0.0175
3228.00,0.0174
3227.00,0.0173
3226.00,0.0171
3225.00,0.0170
3224.00,0.0169
3223.00,0.0168
3222.00,0.0167
3221.00,0.0166
3220.00,0.0165
3219.00,0.0164
3218.00,0.0163
3217.00,0.0162
3216.00,0.0161
3215.00,0.0159
3214.00,0.0158
3213.00,0.0157
3212.00,0.0156
3211.00,0.0155
3210.00,0.0154
3209.00,0.0153
3208.00,0.0152
3207.00,0.0150
3206.00,0.0149
3205.00,0.0148
3204.00,0.0147
3203.00,0.0146
3202.00,0.0145
3201.00,0.0144
3200.00,0.0143
3199.00,0.0142
3198.00,0.0141
3197.00,0.0140
3196.00,0.0139
3195.00,0.0137
3194.00,0.0136
3193.00,0.0135
3192.00,0.0134
3191.00,0.0133
3190.00,0.0132
3189.00,0.0131
3188.00,0.0130
3187.00,0.0129
3186.00,0.0127
3185.00,0.0126
3184.00,0.0125
3183.00,0.0124
3182.00,0.0123
3181.00,0.0122
3180.00,0.0121
3179.00,0.0120
3178.00,0.0119
3177.00,0.0118
3176.00,0.0117
3175.00,0.0116
3174.00,0.0115
3173.00,0.0113
3172.00,0.0112
3171.00,0.0111
3170.00,0.0111
3169.00,0.0110
3168.00,0.0109
3167.00,0.0108
3166.00,0.0107
3165.00,0.0106
3164.00,0.0105
3163.00,0.0104
3162.00,0.0103
3161.00,0.0102
3160.00,0.0101
3159.00,0.0101
3158.00,0.0100
3157.00,0.0099
3156.00,0.0098
3155.00,0.0097
3154.00,0.0096
3153.00,0.0095
3152.00,0.0095
3151.00,0.0094
3150.00,0.0093
3149.00,0.0093
3148.00,0.0092
3147.00,0.0091
3146.00,0.0091
3145.00,0.0090
3144.00,0.0090
3143.00,0.0089
3142.00,0.0088
3141.00,0.0088
3140.00,0.0087
3139.00,0.0087
3138.00,0.0086
3137.00,0.0086
3136.00,0.0086
3135.00,0.0085
3134.00,0.0085
3133.00,0.0085
3132.00,0.0084
3131.00,0.0084
3130.00,0.0084
3129.00,0.0083
3128.00,0.0083
3127.00,0.0083
3126.00,0.0083
3125.00,0.0082
3124.00,0.0082
3123.00,0.0082
3122.00,0.0082
3121.00,0.0082
3120.00,0.0081
3119.00,0.0081
3118.00,0.0081
3117.00,0.0081
3116.00,0.0081
3115.00,0.0082
3114.00,0.0082
3113.00,0.0082
3112.00,0.0082
3111.00,0.0082
3110.00,0.0082
3109.00,0.0082
3108.00,0.0083
3107.00,0.0083
3106.00,0.0083
3105.00,0.0083
3104.00,0.0084
3103.00,0.0084
3102.00,0.0084
3101.00,0.0084
3100.00,0.0085
3099.00,0.0085
3098.00,0.0085
3097.00,0.0085
3096.00,0.0086
3095.00,0.0086
3094.00,0.0086
3093.00,0.0086
3092.00,0.0087
3091.00,0.0087
3090.00,0.0087
3089.00,0.0087
3088.00,0.0087
3087.00,0.0088
3086.00,0.0088
3085.00,0.0088
3084.00,0.0088
3083.00,0.0089
3082.00,0.0089
3081.00,0.0089
3080.00,0.0089
3079.00,0.0089
3078.00,0.0090
3077.00,0.0090
3076.00,0.0090
3075.00,0.0090
3074.00,0.0090
3073.00,0.0090
3072.00,0.0090
3071.00,0.0090
3070.00,0.0089
3069.00,0.0089
3068.00,0.0089
3067.00,0.0088
3066.00,0.0088
3065.00,0.0087
3064.00,0.0087
3063.00,0.0087
3062.00,0.0086
3061.00,0.0086
3060.00,0.0086
3059.00,0.0085
3058.00,0.0084
3057.00,0.0084
3056.00,0.0083
3055.00,0.0082
3054.00,0.0081
3053.00,0.0081
3052.00,0.0080
3051.00,0.0079
3050.00,0.0078
3049.00,0.0078
3048.00,0.0077
3047.00,0.0077
3046.00,0.0076
3045.00,0.0075
3044.00,0.0074
3043.00,0.0074
3042.00,0.0073
3041.00,0.0072
3040.00,0.0072
3039.00,0.0071
3038.00,0.0070
3037.00,0.0070
3036.00,0.0069
3035.00,0.0068
3034.00,0.0067
3033.00,0.0067
3032.00,0.0066
3031.00,0.0066
3030.00,0.0065
3029.00,0.0064
3028.00,0.0064
3027.00,0.0063
3026.00,0.0063
3025.00,0.0062
3024.00,0.0062
3023.00,0.0061
3022.00,0.0061
3021.00,0.0060
3020.00,0.0059
3019.00,0.0058
3018.00,0.0057
3017.00,0.0057
3016.00,0.0056
3015.00,0.0055
3014.00,0.0054
3013.00,0.0053
3012.00,0.0053
3011.00,0.0052
3010.00,0.0051
3009.00,0.0050
3008.00,0.0049
3007.00,0.0048
3006.00,0.0047
3005.00,0.0045
3004.00,0.0044
3003.00,0.0043
3002.00,0.0042
3001.00,0.0041
3000.00,0.0040
2999.00,0.0039
2998.00,0.0039
2997.00,0.0038
2996.00,0.0038
2995.00,0.0038
2994.00,0.0038
2993.00,0.0038
2992.00,0.0038
2991.00,0.0038
2990.00,0.0039
2989.00,0.0039
2988.00,0.0039
2987.00,0.0039
2986.00,0.0038
2985.00,0.0035
2984.00,0.0032
2983.00,0.0029
2982.00,0.0027
2981.00,0.0027
2980.00,0.0028
2979.00,0.0031
2978.00,0.0033
2977.00,0.0036
2976.00,0.0038
2975.00,0.0039
2974.00,0.0039
2973.00,0.0039
2972.00,0.0040
2971.00,0.0040
2970.00,0.0042
2969.00,0.0044
2968.00,0.0046
2967.00,0.0048
2966.00,0.0049
2965.00,0.0050
2964.00,0.0052
2963.00,0.0053
2962.00,0.0053
2961.00,0.0054
2960.00,0.0055
2959.00,0.0055
2958.00,0.0055
2957.00,0.0056
2956.00,0.0056
2955.00,0.0057
2954.00,0.0057
2953.00,0.0057
2952.00,0.0058
2951.00,0.0058
2950.00,0.0059
2949.00,0.0059
2948.00,0.0060
2947.00,0.0061
2946.00,0.0063
2945.00,0.0064
2944.00,0.0066
2943.00,0.0068
2942.00,0.0069
2941.00,0.0071
2940.00,0.0072
2939.00,0.0074
2938.00,0.0075
2937.00,0.0077
2936.00,0.0079
2935.00,0.0080
2934.00,0.0081
2933.00,0.0083
2932.00,0.0084
2931.00,0.0085
2930.00,0.0087
2929.00,0.0089
2928.00,0.0090
2927.00,0.0092
2926.00,0.0094
2925.00,0.0096
2924.00,0.0098
2923.00,0.0100
2922.00,0.0102
2921.00,0.0103
2920.00,0.0105
2919.00,0.0106
2918.00,0.0105
2917.00,0.0104
2916.00,0.0101
2915.00,0.0098
2914.00,0.0093
2913.00,0.0088
2912.00,0.0083
2911.00,0.0078
2910.00,0.0074
2909.00,0.0071
2908.00,0.0068
2907.00,0.0065
2906.00,0.0063
2905.00,0.0062
2904.00,0.0060
2903.00,0.0059
2902.00,0.0057
2901.00,0.0056
2900.00,0.0055
2899.00,0.0054
2898.00,0.0053
2897.00,0.0052
2896.00,0.0051
2895.00,0.0049
2894.00,0.0048
2893.00,0.0047
2892.00,0.0046
2891.00,0.0045
2890.00,0.0045
2889.00,0.0044
2888.00,0.0044
2887.00,0.0043
2886.00,0.0043
2885.00,0.0043
2884.00,0.0043
2883.00,0.0043
2882.00,0.0044
2881.00,0.0044
2880.00,0.0045
2879.00,0.0046
2878.00,0.0047
2877.00,0.0047
2876.00,0.0047
2875.00,0.0048
2874.00,0.0048
2873.00,0.0048
2872.00,0.0048
2871.00,0.0047
2870.00,0.0047
2869.00,0.0047
2868.00,0.0046
2867.00,0.0046
2866.00,0.0045
2865.00,0.0045
2864.00,0.0046
2863.00,0.0046
2862.00,0.0046
2861.00,0.0047
2860.00,0.0048
2859.00,0.0049
2858.00,0.0051
2857.00,0.0052
2856.00,0.0054
2855.00,0.0057
2854.00,0.0060
2853.00,0.0063
2852.00,0.0065
2851.00,0.0067
2850.00,0.0068
2849.00,0.0067
2848.00,0.0064
2847.00,0.0060
2846.00,0.0056
2845.00,0.0052
2844.00,0.0048
2843.00,0.0045
2842.00,0.0042
2841.00,0.0040
2840.00,0.0039
2839.00,0.0037
2838.00,0.0036
2837.00,0.0035
2836.00,0.0034
2835.00,0.0034
2834.00,0.0033
2833.00,0.0032
2832.00,0.0032
2831.00,0.0032
2830.00,0.0031
2829.00,0.0031
2828.00,0.0031
2827.00,0.0031
2826.00,0.0030
2825.00,0.0030
2824.00,0.0030
2823.00,0.0030
2822.00,0.0029
2821.00,0.0029
2820.00,0.0029
2819.00,0.0029
2818.00,0.0029
2817.00,0.0029
2816.00,0.0029
2815.00,0.0028
2814.00,0.0028
2813.00,0.0028
2812.00,0.0028
2811.00,0.0028
2810.00,0.0027
2809.00,0.0027
2808.00,0.0027
2807.00,0.0027
2806.00,0.0027
2805.00,0.0026
2804.00,0.0026
2803.00,0.0026
2802.00,0.0026
2801.00,0.0026
2800.00,0.0026
2799.00,0.0025
2798.00,0.0025
2797.00,0.0025
2796.00,0.0025
2795.00,0.0024
2794.00,0.0024
2793.00,0.0024
2792.00,0.0024
2791.00,0.0024
2790.00,0.0023
2789.00,0.0023
2788.00,0.0023
2787.00,0.0023
2786.00,0.0023
2785.00,0.0023
2784.00,0.0022
2783.00,0.0022
2782.00,0.0022
2781.00,0.0022
2780.00,0.0022
2779.00,0.0022
2778.00,0.0022
2777.00,0.0021
2776.00,0.0021
2775.00,0.0021
2774.00,0.0021
2773.00,0.0021
2772.00,0.0021
2771.00,0.0021
2770.00,0.0020
2769.00,0.0020
2768.00,0.0020
2767.00,0.0020
2766.00,0.0020
2765.00,0.0020
2764.00,0.0019
2763.00,0.0019
2762.00,0.0019
2761.00,0.0019
2760.00,0.0019
2759.00,0.0019
2758.00,0.0019
2757.00,0.0019
2756.00,0.0018
2755.00,0.0018
2754.00,0.0018
2753.00,0.0018
2752.00,0.0018
2751.00,0.0018
2750.00,0.0017
2749.00,0.0017
2748.00,0.0017
2747.00,0.0017
2746.00,0.0017
2745.00,0.0017
2744.00,0.0017
2743.00,0.0016
2742.00,0.0016
2741.00,0.0016
2740.00,0.0016
2739.00,0.0016
2738.00,0.0016
2737.00,0.0016
2736.00,0.0016
2735.00,0.0015
2734.00,0.0015
2733.00,0.0015
2732.00,0.0015
2731.00,0.0015
2730.00,0.0015
2729.00,0.0015
2728.00,0.0014
2727.00,0.0014
2726.00,0.0014
2725.00,0.0014
2724.00,0.0014
2723.00,0.0014
2722.00,0.0014
2721.00,0.0013
2720.00,0.0013
2719.00,0.0013
2718.00,0.0013
2717.00,0.0013
2716.00,0.0013
2715.00,0.0012
2714.00,0.0012
2713.00,0.0012
2712.00,0.0012
2711.00,0.0012
2710.00,0.0012
2709.00,0.0012
2708.00,0.0012
2707.00,0.0012
2706.00,0.0011
2705.00,0.0011
2704.00,0.0011
2703.00,0.0011
2702.00,0.0011
2701.00,0.0011
2700.00,0.0011
2699.00,0.0011
2698.00,0.0011
2697.00,0.0011
2696.00,0.0011
2695.00,0.0010
2694.00,0.0010
2693.00,0.0010
2692.00,0.0010
2691.00,0.0010
2690.00,0.0010
2689.00,0.0010
2688.00,0.0010
2687.00,0.0010
2686.00,0.0010
2685.00,0.0009
2684.00,0.0009
2683.00,0.0009
2682.00,0.0009
2681.00,0.0009
2680.00,0.0009
2679.00,0.0009
2678.00,0.0009
2677.00,0.0009
2676.00,0.0009
2675.00,0.0009
2674.00,0.0008
2673.00,0.0008
2672.00,0.0008
2671.00,0.0008
2670.00,0.0008
2669.00,0.0008
2668.00,0.0008
2667.00,0.0008
2666.00,0.0008
2665.00,0.0007
2664.00,0.0007
2663.00,0.0007
2662.00,0.0007
2661.00,0.0007
2660.00,0.0007
2659.00,0.0007
2658.00,0.0007
2657.00,0.0007
2656.00,0.0007
2655.00,0.0007
2654.00,0.0007
2653.00,0.0007
2652.00,0.0007
2651.00,0.0007
2650.00,0.0008
2649.00,0.0008
2648.00,0.0008
2647.00,0.0007
2646.00,0.0007
2645.00,0.0007
2644.00,0.0007
2643.00,0.0007
2642.00,0.0008
2641.00,0.0008
2640.00,0.0008
2639.00,0.0008
2638.00,0.0008
2637.00,0.0008
2636.00,0.0008
2635.00,0.0008
2634.00,0.0008
2633.00,0.0008
2632.00,0.0008
2631.00,0.0008
2630.00,0.0008
2629.00,0.0008
2628.00,0.0008
2627.00,0.0008
2626.00,0.0008
2625.00,0.0008
2624.00,0.0008
2623.00,0.0008
2622.00,0.0008
2621.00,0.0008
2620.00,0.0008
2619.00,0.0008
2618.00,0.0008
2617.00,0.0008
2616.00,0.0008
2615.00,0.0008
2614.00,0.0008
2613.00,0.0008
2612.00,0.0008
2611.00,0.0008
2610.00,0.0008
2609.00,0.0008
2608.00,0.0008
2607.00,0.0008
2606.00,0.0008
2605.00,0.0008
2604.00,0.0008
2603.00,0.0008
2602.00,0.0007
2601.00,0.0007
2600.00,0.0008
2599.00,0.0008
2598.00,0.0007
2597.00,0.0007
2596.00,0.0007
2595.00,0.0007
2594.00,0.0007
2593.00,0.0007
2592.00,0.0007
2591.00,0.0007
2590.00,0.0007
2589.00,0.0007
2588.00,0.0007
2587.00,0.0007
2586.00,0.0007
2585.00,0.0006
2584.00,0.0006
2583.00,0.0006
2582.00,0.0006
2581.00,0.0006
2580.00,0.0006
2579.00,0.0006
2578.00,0.0006
2577.00,0.0006
2576.00,0.0006
2575.00,0.0006
2574.00,0.0006
2573.00,0.0006
2572.00,0.0006
2571.00,0.0005
2570.00,0.0005
2569.00,0.0005
2568.00,0.0005
2567.00,0.0006
2566.00,0.0005
2565.00,0.0005
2564.00,0.0005
2563.00,0.0005
2562.00,0.0005
2561.00,0.0005
2560.00,0.0005
2559.00,0.0005
2558.00,0.0005
2557.00,0.0005
2556.00,0.0005
2555.00,0.0005
2554.00,0.0004
2553.00,0.0004
2552.00,0.0004
2551.00,0.0004
2550.00,0.0004
2549.00,0.0004
2548.00,0.0004
2547.00,0.0004
2546.00,0.0004
2545.00,0.0004
2544.00,0.0004
2543.00,0.0004
2542.00,0.0004
2541.00,0.0003
2540.00,0.0003
2539.00,0.0003
2538.00,0.0003
2537.00,0.0003
2536.00,0.0003
2535.00,0.0004
2534.00,0.0004
2533.00,0.0004
2532.00,0.0004
2531.00,0.0003
2530.00,0.0003
2529.00,0.0003
2528.00,0.0003
2527.00,0.0003
2526.00,0.0003
2525.00,0.0003
2524.00,0.0003
2523.00,0.0003
2522.00,0.0003
2521.00,0.0003
2520.00,0.0003
2519.00,0.0003
2518.00,0.0003
2517.00,0.0003
2516.00,0.0002
2515.00,0.0002
2514.00,0.0002
2513.00,0.0002
2512.00,0.0002
2511.00,0.0003
2510.00,0.0003
2509.00,0.0003
2508.00,0.0003
2507.00,0.0002
2506.00,0.0002
2505.00,0.0002
2504.00,0.0002
2503.00,0.0002
2502.00,0.0002
2501.00,0.0002
2500.00,0.0002
2499.00,0.0002
2498.00,0.0002
2497.00,0.0002
2496.00,0.0002
2495.00,0.0002
2494.00,0.0002
2493.00,0.0002
2492.00,0.0002
2491.00,0.0002
2490.00,0.0002
2489.00,0.0002
2488.00,0.0002
2487.00,0.0002
2486.00,0.0002
2485.00,0.0002
2484.00,0.0001
2483.00,0.0001
2482.00,0.0001
2481.00,0.0001
2480.00,0.0001
2479.00,0.0001
2478.00,0.0001
2477.00,0.0002
2476.00,0.0002
2475.00,0.0002
2474.00,0.0001
2473.00,0.0001
2472.00,0.0001
2471.00,0.0001
2470.00,0.0001
2469.00,0.0001
2468.00,0.0001
2467.00,0.0001
2466.00,0.0001
2465.00,0.0001
2464.00,0.0001
2463.00,0.0001
2462.00,0.0001
2461.00,0.0001
2460.00,0.0000
2459.00,0.0000
2458.00,0.0000
2457.00,0.0000
2456.00,0.0000
2455.00,0.0000
2454.00,0.0000
2453.00,0.0000
2452.00,0.0000
2451.00,0.0000
2450.00,0.0000
2449.00,0.0000
2448.00,0.0000
2447.00,0.0000
2446.00,0.0000
2445.00,0.0000
2444.00,0.0000
2443.00,0.0000
2442.00,-0.0000
2441.00,-0.0000
2440.00,-0.0000
2439.00,-0.0001
2438.00,-0.0001
2437.00,-0.0001
2436.00,-0.0001
2435.00,-0.0001
2434.00,-0.0001
2433.00,-0.0001
2432.00,-0.0001
2431.00,-0.0001
2430.00,-0.0001
2429.00,-0.0001
2428.00,-0.0001
2427.00,-0.0001
2426.00,-0.0001
2425.00,-0.0001
2424.00,-0.0001
2423.00,-0.0001
2422.00,-0.0001
2421.00,-0.0002
2420.00,-0.0002
2419.00,-0.0002
2418.00,-0.0002
2417.00,-0.0002
2416.00,-0.0002
2415.00,-0.0002
2414.00,-0.0002
2413.00,-0.0002
2412.00,-0.0002
2411.00,-0.0002
2410.00,-0.0002
2409.00,-0.0002
2408.00,-0.0002
2407.00,-0.0003
2406.00,-0.0003
2405.00,-0.0003
2404.00,-0.0003
2403.00,-0.0003
2402.00,-0.0003
2401.00,-0.0003
2400.00,-0.0003
2399.00,-0.0003
2398.00,-0.0003
2397.00,-0.0003
2396.00,-0.0003
2395.00,-0.0003
2394.00,-0.0003
2393.00,-0.0003
2392.00,-0.0003
2391.00,-0.0003
2390.00,-0.0003
2389.00,-0.0004
2388.00,-0.0004
2387.00,-0.0004
2386.00,-0.0004
2385.00,-0.0004
2384.00,-0.0004
2383.00,-0.0004
2382.00,-0.0004
2381.00,-0.0004
2380.00,-0.0004
2379.00,-0.0004
2378.00,-0.0004
2377.00,-0.0004
2376.00,-0.0004
2375.00,-0.0004
2374.00,-0.0004
2373.00,-0.0004
2372.00,-0.0004
2371.00,-0.0004
2370.00,-0.0004
2369.00,-0.0004
2368.00,-0.0004
2367.00,-0.0004
2366.00,-0.0004
2365.00,-0.0004
2364.00,-0.0005
2363.00,-0.0005
2362.00,-0.0005
2361.00,-0.0005
2360.00,-0.0005
2359.00,-0.0005
2358.00,-0.0005
2357.00,-0.0005
2356.00,-0.0005
2355.00,-0.0005
2354.00,-0.0005
2353.00,-0.0006
2352.00,-0.0006
2351.00,-0.0006
2350.00,-0.0006
2349.00,-0.0006
2348.00,-0.0006
2347.00,-0.0005
2346.00,-0.0006
2345.00,-0.0006
2344.00,-0.0006
2343.00,-0.0006
2342.00,-0.0006
2341.00,-0.0006
2340.00,-0.0006
2339.00,-0.0006
2338.00,-0.0006
2337.00,-0.0006
2336.00,-0.0006
2335.00,-0.0006
2334.00,-0.0006
2333.00,-0.0007
2332.00,-0.0007
2331.00,-0.0007
2330.00,-0.0007
2329.00,-0.0006
2328.00,-0.0006
2327.00,-0.0006
2326.00,-0.0006
2325.00,-0.0006
2324.00,-0.0006
2323.00,-0.0006
2322.00,-0.0006
2321.00,-0.0006
2320.00,-0.0006
2319.00,-0.0006
2318.00,-0.0006
2317.00,-0.0006
2316.00,-0.0006
2315.00,-0.0006
2314.00,-0.0006
2313.00,-0.0006
2312.00,-0.0006
2311.00,-0.0006
2310.00,-0.0006
2309.00,-0.0006
2308.00,-0.0006
2307.00,-0.0006
2306.00,-0.0006
2305.00,-0.0006
2304.00,-0.0006
2303.00,-0.0006
2302.00,-0.0006
2301.00,-0.0006
2300.00,-0.0006
2299.00,-0.0006
2298.00,-0.0006
2297.00,-0.0006
2296.00,-0.0006
2295.00,-0.0006
2294.00,-0.0006
2293.00,-0.0006
2292.00,-0.0006
2291.00,-0.0006
2290.00,-0.0006
2289.00,-0.0006
2288.00,-0.0006
2287.00,-0.0006
2286.00,-0.0006
2285.00,-0.0005
2284.00,-0.0005
2283.00,-0.0005
2282.00,-0.0005
2281.00,-0.0005
2280.00,-0.0006
2279.00,-0.0006
2278.00,-0.0006
2277.00,-0.0006
2276.00,-0.0006
2275.00,-0.0005
2274.00,-0.0005
2273.00,-0.0005
2272.00,-0.0005
2271.00,-0.0005
2270.00,-0.0005
2269.00,-0.0005
2268.00,-0.0005
2267.00,-0.0005
2266.00,-0.0006
2265.00,-0.0006
2264.00,-0.0006
2263.00,-0.0006
2262.00,-0.0006
2261.00,-0.0005
2260.00,-0.0005
2259.00,-0.0005
2258.00,-0.0005
2257.00,-0.0006
2256.00,-0.0006
2255.00,-0.0006
2254.00,-0.0006
2253.00,-0.0006
2252.00,-0.0006
2251.00,-0.0006
2250.00,-0.0006
2249.00,-0.0006
2248.00,-0.0007
2247.00,-0.0007
2246.00,-0.0007
2245.00,-0.0007
2244.00,-0.0007
2243.00,-0.0007
2242.00,-0.0007
2241.00,-0.0007
2240.00,-0.0006
2239.00,-0.0007
2238.00,-0.0007
2237.00,-0.0007
2236.00,-0.0007
2235.00,-0.0007
2234.00,-0.0007
2233.00,-0.0007
2232.00,-0.0006
2231.00,-0.0006
2230.00,-0.0007
2229.00,-0.0007
2228.00,-0.0007
2227.00,-0.0007
2226.00,-0.0007
2225.00,-0.0007
2224.00,-0.0007
2223.00,-0.0007
2222.00,-0.0007
2221.00,-0.0007
2220.00,-0.0007
2219.00,-0.0007
2218.00,-0.0007
2217.00,-0.0007
2216.00,-0.0007
2215.00,-0.0007
2214.00,-0.0007
2213.00,-0.0007
2212.00,-0.0006
2211.00,-0.0006
2210.00,-0.0006
2209.00,-0.0006
2208.00,-0.0006
2207.00,-0.0006
2206.00,-0.0007
2205.00,-0.0008
2204.00,-0.0008
2203.00,-0.0008
2202.00,-0.0008
2201.00,-0.0009
2200.00,-0.0009
2199.00,-0.0009
2198.00,-0.0009
2197.00,-0.0008
2196.00,-0.0008
2195.00,-0.0008
2194.00,-0.0008
2193.00,-0.0008
2192.00,-0.0008
2191.00,-0.0008
2190.00,-0.0008
2189.00,-0.0008
2188.00,-0.0008
2187.00,-0.0008
2186.00,-0.0008
2185.00,-0.0008
2184.00,-0.0008
2183.00,-0.0007
2182.00,-0.0007
2181.00,-0.0007
2180.00,-0.0007
2179.00,-0.0008
2178.00,-0.0008
2177.00,-0.0009
2176.00,-0.0008
2175.00,-0.0008
2174.00,-0.0008
2173.00,-0.0008
2172.00,-0.0008
2171.00,-0.0007
2170.00,-0.0007
2169.00,-0.0007
2168.00,-0.0007
2167.00,-0.0007
2166.00,-0.0008
2165.00,-0.0008
2164.00,-0.0008
2163.00,-0.0008
2162.00,-0.0009
2161.00,-0.0010
2160.00,-0.0011
2159.00,-0.0011
2158.00,-0.0011
2157.00,-0.0010
2156.00,-0.0009
2155.00,-0.0008
2154.00,-0.0008
2153.00,-0.0008
2152.00,-0.0007
2151.00,-0.0007
2150.00,-0.0007
2149.00,-0.0007
2148.00,-0.0007
2147.00,-0.0008
2146.00,-0.0008
2145.00,-0.0008
2144.00,-0.0008
2143.00,-0.0008
2142.00,-0.0008
2141.00,-0.0009
2140.00,-0.0009
2139.00,-0.0009
2138.00,-0.0009
2137.00,-0.0008
2136.00,-0.0008
2135.00,-0.0008
2134.00,-0.0008
2133.00,-0.0009
2132.00,-0.0009
2131.00,-0.0009
2130.00,-0.0009
2129.00,-0.0009
2128.00,-0.0009
2127.00,-0.0009
2126.00,-0.0009
2125.00,-0.0008
2124.00,-0.0008
2123.00,-0.0008
2122.00,-0.0008
2121.00,-0.0009
2120.00,-0.0009
2119.00,-0.0009
2118.00,-0.0009
2117.00,-0.0009
2116.00,-0.0009
2115.00,-0.0009
2114.00,-0.0009
2113.00,-0.0009
2112.00,-0.0009
2111.00,-0.0009
2110.00,-0.0009
2109.00,-0.0009
2108.00,-0.0009
2107.00,-0.0009
2106.00,-0.0009
2105.00,-0.0009
2104.00,-0.0009
2103.00,-0.0009
2102.00,-0.0009
2101.00,-0.0009
2100.00,-0.0009
2099.00,-0.0009
2098.00,-0.0009
2097.00,-0.0009
2096.00,-0.0009
2095.00,-0.0009
2094.00,-0.0009
2093.00,-0.0009
2092.00,-0.0009
2091.00,-0.0009
2090.00,-0.0009
2089.00,-0.0009
2088.00,-0.0009
2087.00,-0.0009
2086.00,-0.0009
2085.00,-0.0009
2084.00,-0.0009
2083.00,-0.0009
2082.00,-0.0010
2081.00,-0.0010
2080.00,-0.0009
2079.00,-0.0009
2078.00,-0.0009
2077.00,-0.0010
2076.00,-0.0010
2075.00,-0.0010
2074.00,-0.0011
2073.00,-0.0011
2072.00,-0.0011
2071.00,-0.0010
2070.00,-0.0011
2069.00,-0.0011
2068.00,-0.0010
2067.00,-0.0011
2066.00,-0.0011
2065.00,-0.0011
2064.00,-0.0011
2063.00,-0.0010
2062.00,-0.0010
2061.00,-0.0011
2060.00,-0.0011
2059.00,-0.0011
2058.00,-0.0012
2057.00,-0.0012
2056.00,-0.0012
2055.00,-0.0012
2054.00,-0.0012
2053.00,-0.0012
2052.00,-0.0012
2051.00,-0.0013
2050.00,-0.0013
2049.00,-0.0013
2048.00,-0.0012
2047.00,-0.0012
2046.00,-0.0012
2045.00,-0.0012
2044.00,-0.0012
2043.00,-0.0013
2042.00,-0.0014
2041.00,-0.0014
2040.00,-0.0013
2039.00,-0.0013
2038.00,-0.0013
2037.00,-0.0013
2036.00,-0.0013
2035.00,-0.0013
2034.00,-0.0014
2033.00,-0.0014
2032.00,-0.0014
2031.00,-0.0015
2030.00,-0.0016
2029.00,-0.0015
2028.00,-0.0015
2027.00,-0.0014
2026.00,-0.0014
2025.00,-0.0015
2024.00,-0.0015
2023.00,-0.0015
2022.00,-0.0015
2021.00,-0.0015
2020.00,-0.0015
2019.00,-0.0015
2018.00,-0.0015
2017.00,-0.0015
2016.00,-0.0015
2015.00,-0.0014
2014.00,-0.0014
2013.00,-0.0014
2012.00,-0.0013
2011.00,-0.0013
2010.00,-0.0013
2009.00,-0.0013
2008.00,-0.0013
2007.00,-0.0013
2006.00,-0.0014
2005.00,-0.0014
2004.00,-0.0015
2003.00,-0.0015
2002.00,-0.0015
2001.00,-0.0015
2000.00,-0.0015
1999.00,-0.0015
1998.00,-0.0014
1997.00,-0.0014
1996.00,-0.0014
1995.00,-0.0014
1994.00,-0.0015
1993.00,-0.0015
1992.00,-0.0014
1991.00,-0.0014
1990.00,-0.0015
1989.00,-0.0015
1988.00,-0.0015
1987.00,-0.0014
1986.00,-0.0015
1985.00,-0.0015
1984.00,-0.0015
1983.00,-0.0016
1982.00,-0.0016
1981.00,-0.0016
1980.00,-0.0016
1979.00,-0.0016
1978.00,-0.0017
1977.00,-0.0017
1976.00,-0.0016
1975.00,-0.0016
1974.00,-0.0016
1973.00,-0.0016
1972.00,-0.0015
1971.00,-0.0016
1970.00,-0.0016
1969.00,-0.0017
1968.00,-0.0018
1967.00,-0.0017
1966.00,-0.0017
1965.00,-0.0017
1964.00,-0.0016
1963.00,-0.0016
1962.00,-0.0016
1961.00,-0.0017
1960.00,-0.0017
1959.00,-0.0016
1958.00,-0.0016
1957.00,-0.0016
1956.00,-0.0016
1955.00,-0.0016
1954.00,-0.0016
1953.00,-0.0016
1952.00,-0.0015
1951.00,-0.0016
1950.00,-0.0016
1949.00,-0.0017
1948.00,-0.0018
1947.00,-0.0018
1946.00,-0.0018
1945.00,-0.0018
1944.00,-0.0018
1943.00,-0.0018
1942.00,-0.0017
1941.00,-0.0017
1940.00,-0.0017
1939.00,-0.0017
1938.00,-0.0017
1937.00,-0.0017
1936.00,-0.0017
1935.00,-0.0016
1934.00,-0.0016
1933.00,-0.0017
1932.00,-0.0017
1931.00,-0.0017
1930.00,-0.0017
1929.00,-0.0017
1928.00,-0.0017
1927.00,-0.0018
1926.00,-0.0018
1925.00,-0.0018
1924.00,-0.0018
1923.00,-0.0017
1922.00,-0.0018
1921.00,-0.0018
1920.00,-0.0018
1919.00,-0.0018
1918.00,-0.0018
1917.00,-0.0018
1916.00,-0.0018
1915.00,-0.0018
1914.00,-0.0018
1913.00,-0.0018
1912.00,-0.0018
1911.00,-0.0019
1910.00,-0.0019
1909.00,-0.0019
1908.00,-0.0018
1907.00,-0.0019
1906.00,-0.0019
1905.00,-0.0019
1904.00,-0.0019
1903.00,-0.0019
1902.00,-0.0019
1901.00,-0.0019
1900.00,-0.0019
1899.00,-0.0018
1898.00,-0.0019
1897.00,-0.0019
1896.00,-0.0019
1895.00,-0.0019
1894.00,-0.0019
1893.00,-0.0019
1892.00,-0.0019
1891.00,-0.0019
1890.00,-0.0019
1889.00,-0.0019
1888.00,-0.0019
1887.00,-0.0019
1886.00,-0.0019
1885.00,-0.0019
1884.00,-0.0019
1883.00,-0.0019
1882.00,-0.0019
1881.00,-0.0019
1880.00,-0.0020
1879.00,-0.0020
1878.00,-0.0020
1877.00,-0.0020
1876.00,-0.0020
1875.00,-0.0020
1874.00,-0.0020
1873.00,-0.0021
1872.00,-0.0021
1871.00,-0.0022
1870.00,-0.0022
1869.00,-0.0021
1868.00,-0.0021
1867.00,-0.0021
1866.00,-0.0021
1865.00,-0.0021
1864.00,-0.0021
1863.00,-0.0021
1862.00,-0.0021
1861.00,-0.0021
1860.00,-0.0021
1859.00,-0.0021
1858.00,-0.0021
1857.00,-0.0021
1856.00,-0.0021
1855.00,-0.0021
1854.00,-0.0021
1853.00,-0.0021
1852.00,-0.0021
1851.00,-0.0021
1850.00,-0.0022
1849.00,-0.0022
1848.00,-0.0022
1847.00,-0.0023
1846.00,-0.0023
1845.00,-0.0023
1844.00,-0.0023
1843.00,-0.0022
1842.00,-0.0022
1841.00,-0.0022
1840.00,-0.0022
1839.00,-0.0022
1838.00,-0.0022
1837.00,-0.0022
1836.00,-0.0022
1835.00,-0.0022
1834.00,-0.0022
1833.00,-0.0023
1832.00,-0.0024
1831.00,-0.0024
1830.00,-0.0023
1829.00,-0.0023
1828.00,-0.0023
1827.00,-0.0024
1826.00,-0.0024
1825.00,-0.0024
1824.00,-0.0023
1823.00,-0.0023
1822.00,-0.0023
1821.00,-0.0023
1820.00,-0.0023
1819.00,-0.0023
1818.00,-0.0023
1817.00,-0.0023
1816.00,-0.0023
1815.00,-0.0023
1814.00,-0.0023
1813.00,-0.0023
1812.00,-0.0023
1811.00,-0.0023
1810.00,-0.0023
1809.00,-0.0023
1808.00,-0.0023
1807.00,-0.0023
1806.00,-0.0023
1805.00,-0.0024
1804.00,-0.0024
1803.00,-0.0024
1802.00,-0.0024
1801.00,-0.0024
1800.00,-0.0024
1799.00,-0.0024
1798.00,-0.0024
1797.00,-0.0024
1796.00,-0.0024
1795.00,-0.0024
1794.00,-0.0024
1793.00,-0.0024
1792.00,-0.0024
1791.00,-0.0023
1790.00,-0.0024
1789.00,-0.0024
1788.00,-0.0024
1787.00,-0.0024
1786.00,-0.0024
1785.00,-0.0024
1784.00,-0.0024
1783.00,-0.0024
1782.00,-0.0024
1781.00,-0.0024
1780.00,-0.0023
1779.00,-0.0023
1778.00,-0.0023
1777.00,-0.0024
1776.00,-0.0024
1775.00,-0.0024
1774.00,-0.0024
1773.00,-0.0024
1772.00,-0.0023
1771.00,-0.0023
1770.00,-0.0024
1769.00,-0.0024
1768.00,-0.0023
1767.00,-0.0023
1766.00,-0.0023
1765.00,-0.0023
1764.00,-0.0023
1763.00,-0.0023
1762.00,-0.0023
1761.00,-0.0022
1760.00,-0.0022
1759.00,-0.0022
1758.00,-0.0022
1757.00,-0.0022
1756.00,-0.0021
1755.00,-0.0021
1754.00,-0.0021
1753.00,-0.0021
1752.00,-0.0020
1751.00,-0.0020
1750.00,-0.0020
1749.00,-0.0019
1748.00,-0.0019
1747.00,-0.0018
1746.00,-0.0018
1745.00,-0.0017
1744.00,-0.0017
1743.00,-0.0016
1742.00,-0.0017
1741.00,-0.0016
1740.00,-0.0015
1739.00,-0.0015
1738.00,-0.0014
1737.00,-0.0014
1736.00,-0.0013
1735.00,-0.0011
1734.00,-0.0010
1733.00,-0.0010
1732.00,-0.0010
1731.00,-0.0010
1730.00,-0.0010
1729.00,-0.0009
1728.00,-0.0009
1727.00,-0.0008
1726.00,-0.0007
1725.00,-0.0007
1724.00,-0.0005
1723.00,-0.0005
1722.00,-0.0004
1721.00,-0.0004
1720.00,-0.0002
1719.00,0.0001
1718.00,0.0003
1717.00,0.0005
1716.00,0.0007
1715.00,0.0009
1714.00,0.0012
1713.00,0.0016
1712.00,0.0020
1711.00,0.0025
1710.00,0.0031
1709.00,0.0037
1708.00,0.0044
1707.00,0.0053
1706.00,0.0065
1705.00,0.0079
1704.00,0.0092
1703.00,0.0105
1702.00,0.0118
1701.00,0.0133
1700.00,0.0150
1699.00,0.0164
1698.00,0.0173
1697.00,0.0178
1696.00,0.0179
1695.00,0.0179
1694.00,0.0180
1693.00,0.0183
1692.00,0.0186
1691.00,0.0190
1690.00,0.0193
1689.00,0.0198
1688.00,0.0204
1687.00,0.0211
1686.00,0.0217
1685.00,0.0221
1684.00,0.0224
1683.00,0.0228
1682.00,0.0234
1681.00,0.0242
1680.00,0.0250
1679.00,0.0258
1678.00,0.0266
1677.00,0.0273
1676.00,0.0280
1675.00,0.0287
1674.00,0.0294
1673.00,0.0303
1672.00,0.0312
1671.00,0.0320
1670.00,0.0327
1669.00,0.0334
1668.00,0.0342
1667.00,0.0352
1666.00,0.0361
1665.00,0.0371
1664.00,0.0380
1663.00,0.0388
1662.00,0.0395
1661.00,0.0404
1660.00,0.0414
1659.00,0.0425
1658.00,0.0435
1657.00,0.0446
1656.00,0.0458
1655.00,0.0470
1654.00,0.0474
1653.00,0.0472
1652.00,0.0473
1651.00,0.0482
1650.00,0.0492
1649.00,0.0502
1648.00,0.0509
1647.00,0.0511
1646.00,0.0512
1645.00,0.0516
1644.00,0.0523
1643.00,0.0531
1642.00,0.0539
1641.00,0.0546
1640.00,0.0553
1639.00,0.0562
1638.00,0.0569
1637.00,0.0573
1636.00,0.0572
1635.00,0.0569
1634.00,0.0572
1633.00,0.0580
1632.00,0.0588
1631.00,0.0596
1630.00,0.0601
1629.00,0.0602
1628.00,0.0602
1627.00,0.0601
1626.00,0.0601
1625.00,0.0600
1624.00,0.0593
1623.00,0.0581
1622.00,0.0570
1621.00,0.0563
1620.00,0.0559
1619.00,0.0554
1618.00,0.0542
1617.00,0.0520
1616.00,0.0495
1615.00,0.0475
1614.00,0.0463
1613.00,0.0452
1612.00,0.0440
1611.00,0.0425
1610.00,0.0408
1609.00,0.0390
1608.00,0.0373
1607.00,0.0356
1606.00,0.0341
1605.00,0.0328
1604.00,0.0314
1603.00,0.0302
1602.00,0.0290
1601.00,0.0280
1600.00,0.0270
1599.00,0.0262
1598.00,0.0255
1597.00,0.0248
1596.00,0.0241
1595.00,0.0233
1594.00,0.0227
1593.00,0.0221
1592.00,0.0215
1591.00,0.0211
1590.00,0.0207
1589.00,0.0203
1588.00,0.0200
1587.00,0.0198
1586.00,0.0197
1585.00,0.0197
1584.00,0.0197
1583.00,0.0197
1582.00,0.0199
1581.00,0.0201
1580.00,0.0204
1579.00,0.0208
1578.00,0.0213
1577.00,0.0217
1576.00,0.0218
1575.00,0.0219
1574.00,0.0221
1573.00,0.0226
1572.00,0.0231
1571.00,0.0235
1570.00,0.0239
1569.00,0.0244
1568.00,0.0250
1567.00,0.0256
1566.00,0.0263
1565.00,0.0271
1564.00,0.0279
1563.00,0.0287
1562.00,0.0296
1561.00,0.0305
1560.00,0.0311
1559.00,0.0313
1558.00,0.0317
1557.00,0.0325
1556.00,0.0335
1555.00,0.0343
1554.00,0.0352
1553.00,0.0360
1552.00,0.0368
1551.00,0.0375
1550.00,0.0382
1549.00,0.0390
1548.00,0.0398
1547.00,0.0406
1546.00,0.0415
1545.00,0.0423
1544.00,0.0431
1543.00,0.0439
1542.00,0.0447
1541.00,0.0453
1540.00,0.0454
1539.00,0.0455
1538.00,0.0460
1537.00,0.0468
1536.00,0.0477
1535.00,0.0484
1534.00,0.0488
1533.00,0.0490
1532.00,0.0495
1531.00,0.0502
1530.00,0.0511
1529.00,0.0518
1528.00,0.0525
1527.00,0.0530
1526.00,0.0535
1525.00,0.0542
1524.00,0.0550
1523.00,0.0557
1522.00,0.0562
1521.00,0.0565
1520.00,0.0570
1519.00,0.0578
1518.00,0.0587
1517.00,0.0592
1516.00,0.0595
1515.00,0.0599
1514.00,0.0602
1513.00,0.0603
1512.00,0.0601
1511.00,0.0599
1510.00,0.0599
1509.00,0.0598
1508.00,0.0589
1507.00,0.0566
1506.00,0.0541
1505.00,0.0528
1504.00,0.0524
1503.00,0.0523
1502.00,0.0520
1501.00,0.0513
1500.00,0.0504
1499.00,0.0493
1498.00,0.0480
1497.00,0.0464
1496.00,0.0447
1495.00,0.0434
1494.00,0.0425
1493.00,0.0417
1492.00,0.0408
1491.00,0.0395
1490.00,0.0379
1489.00,0.0363
1488.00,0.0350
1487.00,0.0340
1486.00,0.0331
1485.00,0.0323
1484.00,0.0317
1483.00,0.0310
1482.00,0.0302
1481.00,0.0295
1480.00,0.0289
1479.00,0.0284
1478.00,0.0279
1477.00,0.0275
1476.00,0.0271
1475.00,0.0268
1474.00,0.0265
1473.00,0.0261
1472.00,0.0257
1471.00,0.0255
1470.00,0.0256
1469.00,0.0257
1468.00,0.0258
1467.00,0.0258
1466.00,0.0256
1465.00,0.0253
1464.00,0.0251
1463.00,0.0251
1462.00,0.0253
1461.00,0.0256
1460.00,0.0259
1459.00,0.0263
1458.00,0.0266
1457.00,0.0269
1456.00,0.0272
1455.00,0.0278
1454.00,0.0285
1453.00,0.0292
1452.00,0.0297
1451.00,0.0302
1450.00,0.0306
1449.00,0.0308
1448.00,0.0308
1447.00,0.0307
1446.00,0.0307
1445.00,0.0306
1444.00,0.0304
1443.00,0.0302
1442.00,0.0299
1441.00,0.0296
1440.00,0.0293
1439.00,0.0290
1438.00,0.0284
1437.00,0.0275
1436.00,0.0266
1435.00,0.0259
1434.00,0.0255
1433.00,0.0251
1432.00,0.0246
1431.00,0.0241
1430.00,0.0235
1429.00,0.0230
1428.00,0.0227
1427.00,0.0225
1426.00,0.0224
1425.00,0.0223
1424.00,0.0222
1423.00,0.0222
1422.00,0.0224
1421.00,0.0225
1420.00,0.0225
1419.00,0.0224
1418.00,0.0223
1417.00,0.0224
1416.00,0.0226
1415.00,0.0228
1414.00,0.0230
1413.00,0.0231
1412.00,0.0231
1411.00,0.0231
1410.00,0.0231
1409.00,0.0231
1408.00,0.0230
1407.00,0.0229
1406.00,0.0227
1405.00,0.0225
1404.00,0.0222
1403.00,0.0220
1402.00,0.0218
1401.00,0.0216
1400.00,0.0213
1399.00,0.0209
1398.00,0.0207
1397.00,0.0205
1396.00,0.0203
1395.00,0.0200
1394.00,0.0198
1393.00,0.0197
1392.00,0.0197
1391.00,0.0196
1390.00,0.0196
1389.00,0.0196
1388.00,0.0194
1387.00,0.0193
1386.00,0.0192
1385.00,0.0191
1384.00,0.0190
1383.00,0.0190
1382.00,0.0189
1381.00,0.0189
1380.00,0.0189
1379.00,0.0189
1378.00,0.0189
1377.00,0.0189
1376.00,0.0189
1375.00,0.0189
1374.00,0.0188
1373.00,0.0188
1372.00,0.0189
1371.00,0.0190
1370.00,0.0190
1369.00,0.0190
1368.00,0.0188
1367.00,0.0186
1366.00,0.0183
1365.00,0.0180
1364.00,0.0177
1363.00,0.0172
1362.00,0.0168
1361.00,0.0165
1360.00,0.0163
1359.00,0.0161
1358.00,0.0160
1357.00,0.0159
1356.00,0.0158
1355.00,0.0157
1354.00,0.0157
1353.00,0.0156
1352.00,0.0156
1351.00,0.0156
1350.00,0.0157
1349.00,0.0157
1348.00,0.0158
1347.00,0.0158
1346.00,0.0159
1345.00,0.0160
1344.00,0.0161
1343.00,0.0162
1342.00,0.0163
1341.00,0.0163
1340.00,0.0164
1339.00,0.0164
1338.00,0.0164
1337.00,0.0164
1336.00,0.0164
1335.00,0.0164
1334.00,0.0164
1333.00,0.0163
1332.00,0.0162
1331.00,0.0161
1330.00,0.0160
1329.00,0.0158
1328.00,0.0157
1327.00,0.0156
1326.00,0.0155
1325.00,0.0154
1324.00,0.0153
1323.00,0.0153
1322.00,0.0152
1321.00,0.0152
1320.00,0.0152
1319.00,0.0152
1318.00,0.0152
1317.00,0.0153
1316.00,0.0153
1315.00,0.0154
1314.00,0.0154
1313.00,0.0155
1312.00,0.0155
1311.00,0.0155
1310.00,0.0156
1309.00,0.0156
1308.00,0.0156
1307.00,0.0156
1306.00,0.0157
1305.00,0.0157
1304.00,0.0157
1303.00,0.0157
1302.00,0.0157
1301.00,0.0157
1300.00,0.0157
1299.00,0.0157
1298.00,0.0157
1297.00,0.0158
1296.00,0.0158
1295.00,0.0158
1294.00,0.0159
1293.00,0.0159
1292.00,0.0160
1291.00,0.0161
1290.00,0.0162
1289.00,0.0163
1288.00,0.0164
1287.00,0.0166
1286.00,0.0167
1285.00,0.0168
1284.00,0.0170
1283.00,0.0171
1282.00,0.0173
1281.00,0.0175
1280.00,0.0177
1279.00,0.0179
1278.00,0.0182
1277.00,0.0185
1276.00,0.0187
1275.00,0.0190
1274.00,0.0194
1273.00,0.0197
1272.00,0.0201
1271.00,0.0205
1270.00,0.0210
1269.00,0.0215
1268.00,0.0219
1267.00,0.0224
1266.00,0.0228
1265.00,0.0231
1264.00,0.0234
1263.00,0.0237
1262.00,0.0239
1261.00,0.0240
1260.00,0.0241
1259.00,0.0242
1258.00,0.0243
1257.00,0.0243
1256.00,0.0243
1255.00,0.0244
1254.00,0.0245
1253.00,0.0246
1252.00,0.0247
1251.00,0.0249
1250.00,0.0251
1249.00,0.0254
1248.00,0.0256
1247.00,0.0259
1246.00,0.0262
1245.00,0.0265
1244.00,0.0268
1243.00,0.0271
1242.00,0.0274
1241.00,0.0278
1240.00,0.0281
1239.00,0.0285
1238.00,0.0289
1237.00,0.0293
1236.00,0.0296
1235.00,0.0300
1234.00,0.0303
1233.00,0.0306
1232.00,0.0308
1231.00,0.0309
1230.00,0.0310
1229.00,0.0310
1228.00,0.0309
1227.00,0.0308
1226.00,0.0305
1225.00,0.0302
1224.00,0.0299
1223.00,0.0295
1222.00,0.0291
1221.00,0.0286
1220.00,0.0281
1219.00,0.0276
1218.00,0.0270
1217.00,0.0264
1216.00,0.0258
1215.00,0.0252
1214.00,0.0245
1213.00,0.0238
1212.00,0.0231
1211.00,0.0224
1210.00,0.0218
1209.00,0.0211
1208.00,0.0205
1207.00,0.0198
1206.00,0.0192
1205.00,0.0186
1204.00,0.0179
1203.00,0.0173
1202.00,0.0167
1201.00,0.0162
1200.00,0.0156
1199.00,0.0151
1198.00,0.0147
1197.00,0.0143
1196.00,0.0140
1195.00,0.0137
1194.00,0.0134
1193.00,0.0132
1192.00,0.0129
1191.00,0.0128
1190.00,0.0126
1189.00,0.0125
1188.00,0.0123
1187.00,0.0122
1186.00,0.0122
1185.00,0.0121
1184.00,0.0121
1183.00,0.0122
1182.00,0.0123
1181.00,0.0125
1180.00,0.0127
1179.00,0.0129
1178.00,0.0133
1177.00,0.0136
1176.00,0.0140
1175.00,0.0144
1174.00,0.0148
1173.00,0.0152
1172.00,0.0155
1171.00,0.0157
1170.00,0.0159
1169.00,0.0160
1168.00,0.0161
1167.00,0.0161
1166.00,0.0161
1165.00,0.0161
1164.00,0.0160
1163.00,0.0159
1162.00,0.0158
1161.00,0.0156
1160.00,0.0154
1159.00,0.0151
1158.00,0.0148
1157.00,0.0145
1156.00,0.0141
1155.00,0.0137
1154.00,0.0134
1153.00,0.0130
1152.00,0.0126
1151.00,0.0122
1150.00,0.0119
1149.00,0.0115
1148.00,0.0111
1147.00,0.0108
1146.00,0.0106
1145.00,0.0103
1144.00,0.0100
1143.00,0.0098
1142.00,0.0096
1141.00,0.0095
1140.00,0.0093
1139.00,0.0091
1138.00,0.0091
1137.00,0.0090
1136.00,0.0090
1135.00,0.0090
1134.00,0.0090
1133.00,0.0090
1132.00,0.0090
1131.00,0.0090
1130.00,0.0090
1129.00,0.0090
1128.00,0.0089
1127.00,0.0089
1126.00,0.0090
1125.00,0.0090
1124.00,0.0090
1123.00,0.0090
1122.00,0.0091
1121.00,0.0092
1120.00,0.0093
1119.00,0.0093
1118.00,0.0094
1117.00,0.0095
1116.00,0.0095
1115.00,0.0096
1114.00,0.0097
1113.00,0.0098
1112.00,0.0098
1111.00,0.0099
1110.00,0.0100
1109.00,0.0101
1108.00,0.0101
1107.00,0.0102
1106.00,0.0102
1105.00,0.0103
1104.00,0.0103
1103.00,0.0102
1102.00,0.0102
1101.00,0.0101
1100.00,0.0099
1099.00,0.0098
1098.00,0.0097
1097.00,0.0096
1096.00,0.0095
1095.00,0.0094
1094.00,0.0094
1093.00,0.0094
1092.00,0.0093
1091.00,0.0094
1090.00,0.0095
1089.00,0.0096
1088.00,0.0096
1087.00,0.0097
1086.00,0.0099
1085.00,0.0101
1084.00,0.0102
1083.00,0.0104
1082.00,0.0106
1081.00,0.0108
1080.00,0.0109
1079.00,0.0110
1078.00,0.0112
1077.00,0.0113
1076.00,0.0114
1075.00,0.0115
1074.00,0.0116
1073.00,0.0117
1072.00,0.0117
1071.00,0.0118
1070.00,0.0119
1069.00,0.0120
1068.00,0.0121
1067.00,0.0122
1066.00,0.0123
1065.00,0.0124
1064.00,0.0124
1063.00,0.0125
1062.00,0.0125
1061.00,0.0126
1060.00,0.0125
1059.00,0.0125
1058.00,0.0125
1057.00,0.0124
1056.00,0.0123
1055.00,0.0123
1054.00,0.0122
1053.00,0.0121
1052.00,0.0120
1051.00,0.0119
1050.00,0.0118
1049.00,0.0116
1048.00,0.0115
1047.00,0.0113
1046.00,0.0112
1045.00,0.0111
1044.00,0.0109
1043.00,0.0108
1042.00,0.0107
1041.00,0.0105
1040.00,0.0104
1039.00,0.0103
1038.00,0.0103
1037.00,0.0103
1036.00,0.0102
1035.00,0.0101
1034.00,0.0101
1033.00,0.0101
1032.00,0.0100
1031.00,0.0100
1030.00,0.0100
1029.00,0.0099
1028.00,0.0099
1027.00,0.0098
1026.00,0.0099
1025.00,0.0099
1024.00,0.0100
1023.00,0.0100
1022.00,0.0102
1021.00,0.0104
1020.00,0.0106
1019.00,0.0108
1018.00,0.0110
1017.00,0.0112
1016.00,0.0113
1015.00,0.0113
1014.00,0.0113
1013.00,0.0113
1012.00,0.0112
1011.00,0.0111
1010.00,0.0110
1009.00,0.0109
1008.00,0.0107
1007.00,0.0106
1006.00,0.0106
1005.00,0.0107
1004.00,0.0108
1003.00,0.0109
1002.00,0.0110
1001.00,0.0111
1000.00,0.0111
999.00,0.0111
998.00,0.0110
997.00,0.0109
996.00,0.0106
995.00,0.0103
994.00,0.0100
993.00,0.0096
992.00,0.0092
991.00,0.0088
990.00,0.0084
989.00,0.0082
988.00,0.0079
987.00,0.0078
986.00,0.0077
985.00,0.0077
984.00,0.0077
983.00,0.0077
982.00,0.0078
981.00,0.0080
980.00,0.0080
979.00,0.0081
978.00,0.0082
977.00,0.0082
976.00,0.0081
975.00,0.0080
974.00,0.0078
973.00,0.0076
972.00,0.0072
971.00,0.0069
970.00,0.0066
969.00,0.0063
968.00,0.0060
967.00,0.0057
966.00,0.0055
965.00,0.0053
964.00,0.0050
963.00,0.0048
962.00,0.0047
961.00,0.0045
960.00,0.0043
959.00,0.0041
958.00,0.0041
957.00,0.0040
956.00,0.0039
955.00,0.0038
954.00,0.0038
953.00,0.0038
952.00,0.0037
951.00,0.0036
950.00,0.0036
949.00,0.0036
948.00,0.0035
947.00,0.0035
946.00,0.0035
945.00,0.0034
944.00,0.0034
943.00,0.0034
942.00,0.0034
941.00,0.0034
940.00,0.0033
939.00,0.0033
938.00,0.0034
937.00,0.0034
936.00,0.0035
935.00,0.0035
934.00,0.0036
933.00,0.0037
932.00,0.0037
931.00,0.0037
930.00,0.0037
929.00,0.0038
928.00,0.0037
927.00,0.0037
926.00,0.0037
925.00,0.0036
924.00,0.0035
923.00,0.0034
922.00,0.0033
921.00,0.0032
920.00,0.0030
919.00,0.0029
918.00,0.0028
917.00,0.0027
916.00,0.0026
915.00,0.0025
914.00,0.0024
913.00,0.0024
912.00,0.0023
911.00,0.0022
910.00,0.0022
909.00,0.0021
908.00,0.0020
907.00,0.0020
906.00,0.0020
905.00,0.0020
904.00,0.0020
903.00,0.0019
902.00,0.0020
901.00,0.0020
900.00,0.0019
899.00,0.0019
898.00,0.0019
897.00,0.0019
896.00,0.0019
895.00,0.0019
894.00,0.0020
893.00,0.0020
892.00,0.0019
891.00,0.0019
890.00,0.0019
889.00,0.0019
888.00,0.0019
887.00,0.0019
886.00,0.0019
885.00,0.0020
884.00,0.0020
883.00,0.0021
882.00,0.0022
881.00,0.0024
880.00,0.0024
879.00,0.0024
878.00,0.0025
877.00,0.0026
876.00,0.0025
875.00,0.0025
874.00,0.0024
873.00,0.0024
872.00,0.0023
871.00,0.0023
870.00,0.0023
869.00,0.0024
868.00,0.0023
867.00,0.0023
866.00,0.0024
865.00,0.0025
864.00,0.0025
863.00,0.0026
862.00,0.0027
861.00,0.0029
860.00,0.0030
859.00,0.0032
858.00,0.0034
857.00,0.0036
856.00,0.0038
855.00,0.0039
854.00,0.0041
853.00,0.0042
852.00,0.0043
851.00,0.0044
850.00,0.0044
849.00,0.0044
848.00,0.0043
847.00,0.0042
846.00,0.0042
845.00,0.0042
844.00,0.0042
843.00,0.0042
842.00,0.0043
841.00,0.0044
840.00,0.0045
839.00,0.0046
838.00,0.0048
837.00,0.0050
836.00,0.0051
835.00,0.0052
834.00,0.0054
833.00,0.0056
832.00,0.0057
831.00,0.0058
830.00,0.0059
829.00,0.0061
828.00,0.0061
827.00,0.0061
826.00,0.0061
825.00,0.0061
824.00,0.0060
823.00,0.0060
822.00,0.0060
821.00,0.0060
820.00,0.0060
819.00,0.0060
818.00,0.0061
817.00,0.0061
816.00,0.0062
815.00,0.0062
814.00,0.0064
813.00,0.0065
812.00,0.0066
811.00,0.0066
810.00,0.0068
809.00,0.0069
808.00,0.0070
807.00,0.0071
806.00,0.0072
805.00,0.0073
804.00,0.0073
803.00,0.0073
802.00,0.0074
801.00,0.0075
800.00,0.0075
799.00,0.0076
798.00,0.0077
797.00,0.0078
796.00,0.0078
795.00,0.0079
794.00,0.0080
793.00,0.0081
792.00,0.0080
791.00,0.0080
790.00,0.0082
789.00,0.0083
788.00,0.0084
787.00,0.0085
786.00,0.0087
785.00,0.0088
784.00,0.0089
783.00,0.0090
782.00,0.0092
781.00,0.0093
780.00,0.0094
779.00,0.0095
778.00,0.0096
777.00,0.0098
776.00,0.0099
775.00,0.0101
774.00,0.0103
773.00,0.0105
772.00,0.0106
771.00,0.0108
770.00,0.0110
769.00,0.0112
768.00,0.0114
767.00,0.0116
766.00,0.0119
765.00,0.0121
764.00,0.0122
763.00,0.0123
762.00,0.0124
761.00,0.0126
760.00,0.0127
759.00,0.0128
758.00,0.0131
757.00,0.0132
756.00,0.0134
755.00,0.0135
754.00,0.0137
753.00,0.0140
752.00,0.0141
751.00,0.0143
750.00,0.0146
749.00,0.0149
748.00,0.0151
747.00,0.0153
746.00,0.0157
745.00,0.0160
744.00,0.0162
743.00,0.0164
742.00,0.0166
741.00,0.0168
740.00,0.0170
739.00,0.0173
738.00,0.0176
737.00,0.0180
736.00,0.0183
735.00,0.0186
734.00,0.0190
733.00,0.0194
732.00,0.0197
731.00,0.0201
730.00,0.0205
729.00,0.0209
728.00,0.0212
727.00,0.0216
726.00,0.0220
725.00,0.0224
724.00,0.0228
723.00,0.0232
722.00,0.0237
721.00,0.0240
720.00,0.0243
719.00,0.0244
718.00,0.0247
717.00,0.0249
716.00,0.0250
715.00,0.0251
714.00,0.0254
713.00,0.0256
712.00,0.0258
711.00,0.0260
710.00,0.0263
709.00,0.0265
708.00,0.0267
707.00,0.0269
706.00,0.0272
705.00,0.0275
704.00,0.0278
703.00,0.0280
702.00,0.0283
701.00,0.0285
700.00,0.0287
699.00,0.0288
698.00,0.0290
697.00,0.0292
696.00,0.0293
695.00,0.0294
694.00,0.0295
693.00,0.0297
692.00,0.0297
691.00,0.0298
690.00,0.0300
689.00,0.0301
688.00,0.0302
687.00,0.0302
686.00,0.0303
685.00,0.0304
684.00,0.0305
683.00,0.0306
682.00,0.0307
681.00,0.0308
680.00,0.0309
679.00,0.0309
678.00,0.0310
677.00,0.0311
676.00,0.0311
675.00,0.0312
674.00,0.0313
673.00,0.0314
672.00,0.0314
671.00,0.0316
670.00,0.0318
669.00,0.0318
668.00,0.0317
667.00,0.0316
666.00,0.0317
665.00,0.0318
664.00,0.0319
663.00,0.0320
662.00,0.0322
661.00,0.0323
660.00,0.0324
659.00,0.0325
658.00,0.0326
657.00,0.0327
656.00,0.0327
655.00,0.0328
654.00,0.0329
653.00,0.0331
652.00,0.0332
651.00,0.0333
650.00,0.0335
649.00,0.0336
648.00,0.0337
647.00,0.0338
646.00,0.0339
645.00,0.0340
644.00,0.0340
643.00,0.0341
642.00,0.0343
641.00,0.0344
640.00,0.0344
639.00,0.0343
638.00,0.0344
637.00,0.0344
636.00,0.0343
635.00,0.0342
634.00,0.0343
633.00,0.0343
632.00,0.0343
631.00,0.0343
630.00,0.0344
629.00,0.0344
628.00,0.0344
627.00,0.0344
626.00,0.0344
625.00,0.0344
624.00,0.0344
623.00,0.0344
622.00,0.0345
621.00,0.0346
620.00,0.0346
619.00,0.0346
618.00,0.0348
617.00,0.0350
616.00,0.0350
615.00,0.0351
614.00,0.0353
613.00,0.0354
612.00,0.0353
611.00,0.0352
610.00,0.0351
609.00,0.0349
608.00,0.0346
607.00,0.0344
606.00,0.0344
605.00,0.0343
604.00,0.0340
603.00,0.0338
602.00,0.0337
601.00,0.0336
600.00,0.0334
599.00,0.0332
598.00,0.0332
597.00,0.0332
596.00,0.0331
595.00,0.0330
594.00,0.0330
593.00,0.0330
592.00,0.0328
591.00,0.0327
590.00,0.0327
589.00,0.0328
588.00,0.0327
587.00,0.0327
586.00,0.0329
585.00,0.0330
584.00,0.0329
583.00,0.0329
582.00,0.0331
581.00,0.0333
580.00,0.0333
579.00,0.0333
578.00,0.0334
577.00,0.0335
576.00,0.0334
575.00,0.0334
574.00,0.0337
573.00,0.0339
572.00,0.0339
571.00,0.0340
570.00,0.0342
569.00,0.0345
568.00,0.0347
567.00,0.0348
566.00,0.0352
565.00,0.0356
564.00,0.0358
563.00,0.0361
562.00,0.0366
561.00,0.0370
560.00,0.0373
559.00,0.0375
558.00,0.0379
557.00,0.0382
556.00,0.0384
555.00,0.0386
554.00,0.0390
553.00,0.0393
552.00,0.0394
551.00,0.0394
550.00,0.0396
549.00,0.0396
548.00,0.0394
547.00,0.0393
546.00,0.0393
545.00,0.0392
544.00,0.0388
543.00,0.0384
542.00,0.0383
541.00,0.0382
540.00,0.0379
539.00,0.0377
538.00,0.0377
537.00,0.0377
536.00,0.0374
535.00,0.0372
534.00,0.0371
533.00,0.0371
532.00,0.0368
531.00,0.0366
530.00,0.0367
529.00,0.0368
528.00,0.0366
527.00,0.0365
526.00,0.0367
525.00,0.0367
524.00,0.0365
523.00,0.0363
522.00,0.0363
521.00,0.0363
520.00,0.0360
519.00,0.0358
518.00,0.0359
517.00,0.0360
516.00,0.0358
515.00,0.0357
514.00,0.0358
513.00,0.0359
512.00,0.0356
511.00,0.0354
510.00,0.0354
509.00,0.0353
508.00,0.0349
507.00,0.0346
506.00,0.0346
505.00,0.0346
504.00,0.0342
503.00,0.0339
502.00,0.0339
501.00,0.0339
500.00,0.0336
499.00,0.0335
498.00,0.0337
497.00,0.0339
496.00,0.0339
495.00,0.0341
494.00,0.0345
493.00,0.0347
492.00,0.0345
491.00,0.0343
490.00,0.0343
489.00,0.0342
488.00,0.0337
487.00,0.0333
486.00,0.0334
485.00,0.0334
484.00,0.0330
483.00,0.0329
482.00,0.0331
481.00,0.0333
480.00,0.0330
479.00,0.0327
478.00,0.0328
477.00,0.0328
476.00,0.0324
475.00,0.0321
474.00,0.0322
473.00,0.0323
472.00,0.0317
471.00,0.0311
470.00,0.0311
469.00,0.0311
468.00,0.0308
467.00,0.0306
466.00,0.0308
465.00,0.0308
464.00,0.0306
463.00,0.0305
462.00,0.0310
461.00,0.0311
460.00,0.0306
459.00,0.0300
458.00,0.0301
457.00,0.0303
456.00,0.0301
455.00,0.0301
454.00,0.0304
453.00,0.0307
452.00,0.0304
451.00,0.0301
450.00,0.0304
449.00,0.0305
448.00,0.0302
447.00,0.0301
446.00,0.0304
445.00,0.0305
444.00,0.0299
443.00,0.0296
442.00,0.0299
441.00,0.0300
440.00,0.0296
439.00,0.0292
438.00,0.0295
437.00,0.0295
436.00,0.0288
435.00,0.0280
434.00,0.0282
433.00,0.0286
432.00,0.0287
431.00,0.0289
430.00,0.0298
429.00,0.0306
428.00,0.0304
427.00,0.0302
426.00,0.0305
425.00,0.0305
424.00,0.0297
423.00,0.0289
422.00,0.0292
421.00,0.0295
420.00,0.0285
419.00,0.0276
418.00,0.0281
417.00,0.0286
416.00,0.0279
415.00,0.0272
414.00,0.0274
413.00,0.0275
412.00,0.0267
411.00,0.0259
410.00,0.0262
409.00,0.0263
408.00,0.0254
407.00,0.0248
406.00,0.0257
405.00,0.0264
404.00,0.0255
403.00,0.0247
402.00,0.0256
401.00,0.0262
400.00,0.0249
