Created as New Dataset,Sample 378 By YargerLab Date Wednesday, October 23 2024
cm-1,A
4000.00,-0.0007
3999.00,-0.0007
3998.00,-0.0007
3997.00,-0.0007
3996.00,-0.0007
3995.00,-0.0007
3994.00,-0.0007
3993.00,-0.0007
3992.00,-0.0007
3991.00,-0.0007
3990.00,-0.0007
3989.00,-0.0007
3988.00,-0.0007
3987.00,-0.0007
3986.00,-0.0007
3985.00,-0.0007
3984.00,-0.0007
3983.00,-0.0007
3982.00,-0.0007
3981.00,-0.0007
3980.00,-0.0007
3979.00,-0.0007
3978.00,-0.0007
3977.00,-0.0007
3976.00,-0.0007
3975.00,-0.0007
3974.00,-0.0007
3973.00,-0.0007
3972.00,-0.0007
3971.00,-0.0007
3970.00,-0.0007
3969.00,-0.0007
3968.00,-0.0007
3967.00,-0.0007
3966.00,-0.0007
3965.00,-0.0007
3964.00,-0.0007
3963.00,-0.0007
3962.00,-0.0007
3961.00,-0.0007
3960.00,-0.0007
3959.00,-0.0007
3958.00,-0.0007
3957.00,-0.0007
3956.00,-0.0007
3955.00,-0.0007
3954.00,-0.0007
3953.00,-0.0007
3952.00,-0.0007
3951.00,-0.0007
3950.00,-0.0007
3949.00,-0.0007
3948.00,-0.0007
3947.00,-0.0007
3946.00,-0.0007
3945.00,-0.0007
3944.00,-0.0007
3943.00,-0.0007
3942.00,-0.0007
3941.00,-0.0007
3940.00,-0.0008
3939.00,-0.0008
3938.00,-0.0008
3937.00,-0.0008
3936.00,-0.0008
3935.00,-0.0008
3934.00,-0.0008
3933.00,-0.0008
3932.00,-0.0008
3931.00,-0.0008
3930.00,-0.0007
3929.00,-0.0007
3928.00,-0.0007
3927.00,-0.0007
3926.00,-0.0007
3925.00,-0.0008
3924.00,-0.0008
3923.00,-0.0008
3922.00,-0.0008
3921.00,-0.0008
3920.00,-0.0008
3919.00,-0.0008
3918.00,-0.0007
3917.00,-0.0007
3916.00,-0.0007
3915.00,-0.0008
3914.00,-0.0008
3913.00,-0.0008
3912.00,-0.0008
3911.00,-0.0008
3910.00,-0.0008
3909.00,-0.0008
3908.00,-0.0008
3907.00,-0.0008
3906.00,-0.0008
3905.00,-0.0008
3904.00,-0.0008
3903.00,-0.0008
3902.00,-0.0008
3901.00,-0.0008
3900.00,-0.0008
3899.00,-0.0008
3898.00,-0.0008
3897.00,-0.0008
3896.00,-0.0008
3895.00,-0.0008
3894.00,-0.0008
3893.00,-0.0008
3892.00,-0.0008
3891.00,-0.0008
3890.00,-0.0008
3889.00,-0.0008
3888.00,-0.0008
3887.00,-0.0008
3886.00,-0.0008
3885.00,-0.0008
3884.00,-0.0008
3883.00,-0.0008
3882.00,-0.0008
3881.00,-0.0008
3880.00,-0.0008
3879.00,-0.0008
3878.00,-0.0008
3877.00,-0.0008
3876.00,-0.0008
3875.00,-0.0008
3874.00,-0.0008
3873.00,-0.0008
3872.00,-0.0008
3871.00,-0.0008
3870.00,-0.0009
3869.00,-0.0009
3868.00,-0.0009
3867.00,-0.0009
3866.00,-0.0009
3865.00,-0.0009
3864.00,-0.0009
3863.00,-0.0009
3862.00,-0.0009
3861.00,-0.0009
3860.00,-0.0009
3859.00,-0.0009
3858.00,-0.0009
3857.00,-0.0009
3856.00,-0.0009
3855.00,-0.0009
3854.00,-0.0009
3853.00,-0.0009
3852.00,-0.0009
3851.00,-0.0009
3850.00,-0.0009
3849.00,-0.0009
3848.00,-0.0009
3847.00,-0.0009
3846.00,-0.0008
3845.00,-0.0008
3844.00,-0.0008
3843.00,-0.0008
3842.00,-0.0008
3841.00,-0.0009
3840.00,-0.0009
3839.00,-0.0009
3838.00,-0.0009
3837.00,-0.0009
3836.00,-0.0009
3835.00,-0.0009
3834.00,-0.0009
3833.00,-0.0009
3832.00,-0.0009
3831.00,-0.0009
3830.00,-0.0009
3829.00,-0.0008
3828.00,-0.0008
3827.00,-0.0008
3826.00,-0.0008
3825.00,-0.0008
3824.00,-0.0008
3823.00,-0.0009
3822.00,-0.0009
3821.00,-0.0009
3820.00,-0.0009
3819.00,-0.0009
3818.00,-0.0009
3817.00,-0.0009
3816.00,-0.0009
3815.00,-0.0009
3814.00,-0.0008
3813.00,-0.0008
3812.00,-0.0008
3811.00,-0.0008
3810.00,-0.0008
3809.00,-0.0008
3808.00,-0.0008
3807.00,-0.0008
3806.00,-0.0009
3805.00,-0.0009
3804.00,-0.0009
3803.00,-0.0009
3802.00,-0.0009
3801.00,-0.0009
3800.00,-0.0009
3799.00,-0.0009
3798.00,-0.0009
3797.00,-0.0008
3796.00,-0.0008
3795.00,-0.0008
3794.00,-0.0008
3793.00,-0.0008
3792.00,-0.0008
3791.00,-0.0008
3790.00,-0.0008
3789.00,-0.0008
3788.00,-0.0008
3787.00,-0.0008
3786.00,-0.0008
3785.00,-0.0008
3784.00,-0.0008
3783.00,-0.0008
3782.00,-0.0008
3781.00,-0.0008
3780.00,-0.0008
3779.00,-0.0008
3778.00,-0.0008
3777.00,-0.0008
3776.00,-0.0008
3775.00,-0.0008
3774.00,-0.0008
3773.00,-0.0008
3772.00,-0.0008
3771.00,-0.0008
3770.00,-0.0008
3769.00,-0.0008
3768.00,-0.0008
3767.00,-0.0008
3766.00,-0.0008
3765.00,-0.0008
3764.00,-0.0008
3763.00,-0.0008
3762.00,-0.0008
3761.00,-0.0008
3760.00,-0.0009
3759.00,-0.0009
3758.00,-0.0008
3757.00,-0.0008
3756.00,-0.0008
3755.00,-0.0008
3754.00,-0.0008
3753.00,-0.0008
3752.00,-0.0008
3751.00,-0.0008
3750.00,-0.0008
3749.00,-0.0008
3748.00,-0.0008
3747.00,-0.0008
3746.00,-0.0009
3745.00,-0.0009
3744.00,-0.0009
3743.00,-0.0009
3742.00,-0.0009
3741.00,-0.0008
3740.00,-0.0008
3739.00,-0.0008
3738.00,-0.0008
3737.00,-0.0008
3736.00,-0.0008
3735.00,-0.0008
3734.00,-0.0008
3733.00,-0.0008
3732.00,-0.0008
3731.00,-0.0008
3730.00,-0.0008
3729.00,-0.0008
3728.00,-0.0008
3727.00,-0.0008
3726.00,-0.0008
3725.00,-0.0008
3724.00,-0.0008
3723.00,-0.0008
3722.00,-0.0008
3721.00,-0.0008
3720.00,-0.0008
3719.00,-0.0008
3718.00,-0.0008
3717.00,-0.0008
3716.00,-0.0007
3715.00,-0.0007
3714.00,-0.0007
3713.00,-0.0008
3712.00,-0.0008
3711.00,-0.0008
3710.00,-0.0008
3709.00,-0.0007
3708.00,-0.0007
3707.00,-0.0007
3706.00,-0.0007
3705.00,-0.0007
3704.00,-0.0007
3703.00,-0.0007
3702.00,-0.0007
3701.00,-0.0007
3700.00,-0.0007
3699.00,-0.0007
3698.00,-0.0007
3697.00,-0.0007
3696.00,-0.0007
3695.00,-0.0007
3694.00,-0.0007
3693.00,-0.0007
3692.00,-0.0007
3691.00,-0.0007
3690.00,-0.0007
3689.00,-0.0007
3688.00,-0.0007
3687.00,-0.0007
3686.00,-0.0006
3685.00,-0.0006
3684.00,-0.0006
3683.00,-0.0006
3682.00,-0.0006
3681.00,-0.0006
3680.00,-0.0007
3679.00,-0.0007
3678.00,-0.0007
3677.00,-0.0007
3676.00,-0.0006
3675.00,-0.0006
3674.00,-0.0006
3673.00,-0.0006
3672.00,-0.0006
3671.00,-0.0006
3670.00,-0.0006
3669.00,-0.0006
3668.00,-0.0005
3667.00,-0.0005
3666.00,-0.0005
3665.00,-0.0005
3664.00,-0.0004
3663.00,-0.0004
3662.00,-0.0004
3661.00,-0.0004
3660.00,-0.0004
3659.00,-0.0004
3658.00,-0.0004
3657.00,-0.0004
3656.00,-0.0004
3655.00,-0.0004
3654.00,-0.0003
3653.00,-0.0003
3652.00,-0.0003
3651.00,-0.0003
3650.00,-0.0003
3649.00,-0.0003
3648.00,-0.0003
3647.00,-0.0003
3646.00,-0.0002
3645.00,-0.0002
3644.00,-0.0002
3643.00,-0.0001
3642.00,-0.0001
3641.00,-0.0000
3640.00,-0.0000
3639.00,0.0000
3638.00,0.0000
3637.00,0.0000
3636.00,0.0001
3635.00,0.0001
3634.00,0.0001
3633.00,0.0001
3632.00,0.0002
3631.00,0.0002
3630.00,0.0002
3629.00,0.0002
3628.00,0.0002
3627.00,0.0003
3626.00,0.0003
3625.00,0.0003
3624.00,0.0004
3623.00,0.0004
3622.00,0.0004
3621.00,0.0004
3620.00,0.0004
3619.00,0.0005
3618.00,0.0005
3617.00,0.0005
3616.00,0.0005
3615.00,0.0006
3614.00,0.0006
3613.00,0.0006
3612.00,0.0006
3611.00,0.0007
3610.00,0.0007
3609.00,0.0007
3608.00,0.0008
3607.00,0.0008
3606.00,0.0008
3605.00,0.0009
3604.00,0.0009
3603.00,0.0009
3602.00,0.0010
3601.00,0.0010
3600.00,0.0010
3599.00,0.0011
3598.00,0.0011
3597.00,0.0011
3596.00,0.0011
3595.00,0.0012
3594.00,0.0012
3593.00,0.0012
3592.00,0.0013
3591.00,0.0013
3590.00,0.0013
3589.00,0.0014
3588.00,0.0014
3587.00,0.0014
3586.00,0.0014
3585.00,0.0015
3584.00,0.0015
3583.00,0.0016
3582.00,0.0016
3581.00,0.0017
3580.00,0.0017
3579.00,0.0017
3578.00,0.0018
3577.00,0.0018
3576.00,0.0018
3575.00,0.0019
3574.00,0.0019
3573.00,0.0019
3572.00,0.0020
3571.00,0.0020
3570.00,0.0021
3569.00,0.0021
3568.00,0.0021
3567.00,0.0021
3566.00,0.0022
3565.00,0.0022
3564.00,0.0022
3563.00,0.0023
3562.00,0.0023
3561.00,0.0024
3560.00,0.0024
3559.00,0.0024
3558.00,0.0024
3557.00,0.0025
3556.00,0.0025
3555.00,0.0026
3554.00,0.0026
3553.00,0.0026
3552.00,0.0027
3551.00,0.0027
3550.00,0.0028
3549.00,0.0028
3548.00,0.0028
3547.00,0.0029
3546.00,0.0029
3545.00,0.0030
3544.00,0.0030
3543.00,0.0030
3542.00,0.0030
3541.00,0.0031
3540.00,0.0031
3539.00,0.0032
3538.00,0.0032
3537.00,0.0032
3536.00,0.0033
3535.00,0.0033
3534.00,0.0033
3533.00,0.0034
3532.00,0.0034
3531.00,0.0035
3530.00,0.0035
3529.00,0.0036
3528.00,0.0036
3527.00,0.0036
3526.00,0.0037
3525.00,0.0037
3524.00,0.0037
3523.00,0.0038
3522.00,0.0038
3521.00,0.0038
3520.00,0.0039
3519.00,0.0039
3518.00,0.0040
3517.00,0.0040
3516.00,0.0041
3515.00,0.0041
3514.00,0.0041
3513.00,0.0042
3512.00,0.0042
3511.00,0.0043
3510.00,0.0043
3509.00,0.0043
3508.00,0.0044
3507.00,0.0044
3506.00,0.0045
3505.00,0.0045
3504.00,0.0046
3503.00,0.0046
3502.00,0.0046
3501.00,0.0047
3500.00,0.0047
3499.00,0.0048
3498.00,0.0048
3497.00,0.0049
3496.00,0.0049
3495.00,0.0049
3494.00,0.0050
3493.00,0.0050
3492.00,0.0051
3491.00,0.0051
3490.00,0.0052
3489.00,0.0052
3488.00,0.0053
3487.00,0.0053
3486.00,0.0054
3485.00,0.0054
3484.00,0.0055
3483.00,0.0055
3482.00,0.0056
3481.00,0.0056
3480.00,0.0056
3479.00,0.0057
3478.00,0.0057
3477.00,0.0058
3476.00,0.0058
3475.00,0.0059
3474.00,0.0059
3473.00,0.0060
3472.00,0.0060
3471.00,0.0061
3470.00,0.0061
3469.00,0.0061
3468.00,0.0062
3467.00,0.0062
3466.00,0.0063
3465.00,0.0063
3464.00,0.0064
3463.00,0.0064
3462.00,0.0065
3461.00,0.0065
3460.00,0.0066
3459.00,0.0066
3458.00,0.0067
3457.00,0.0067
3456.00,0.0067
3455.00,0.0068
3454.00,0.0068
3453.00,0.0068
3452.00,0.0069
3451.00,0.0070
3450.00,0.0070
3449.00,0.0071
3448.00,0.0071
3447.00,0.0072
3446.00,0.0072
3445.00,0.0073
3444.00,0.0073
3443.00,0.0074
3442.00,0.0074
3441.00,0.0075
3440.00,0.0075
3439.00,0.0076
3438.00,0.0076
3437.00,0.0077
3436.00,0.0078
3435.00,0.0078
3434.00,0.0079
3433.00,0.0080
3432.00,0.0080
3431.00,0.0081
3430.00,0.0081
3429.00,0.0082
3428.00,0.0082
3427.00,0.0083
3426.00,0.0084
3425.00,0.0084
3424.00,0.0085
3423.00,0.0086
3422.00,0.0086
3421.00,0.0087
3420.00,0.0087
3419.00,0.0088
3418.00,0.0089
3417.00,0.0089
3416.00,0.0090
3415.00,0.0091
3414.00,0.0091
3413.00,0.0092
3412.00,0.0092
3411.00,0.0093
3410.00,0.0093
3409.00,0.0094
3408.00,0.0094
3407.00,0.0095
3406.00,0.0096
3405.00,0.0096
3404.00,0.0096
3403.00,0.0097
3402.00,0.0097
3401.00,0.0098
3400.00,0.0098
3399.00,0.0099
3398.00,0.0099
3397.00,0.0100
3396.00,0.0100
3395.00,0.0101
3394.00,0.0102
3393.00,0.0102
3392.00,0.0103
3391.00,0.0103
3390.00,0.0104
3389.00,0.0105
3388.00,0.0105
3387.00,0.0106
3386.00,0.0107
3385.00,0.0107
3384.00,0.0108
3383.00,0.0108
3382.00,0.0109
3381.00,0.0109
3380.00,0.0110
3379.00,0.0110
3378.00,0.0111
3377.00,0.0112
3376.00,0.0112
3375.00,0.0113
3374.00,0.0114
3373.00,0.0115
3372.00,0.0115
3371.00,0.0116
3370.00,0.0116
3369.00,0.0117
3368.00,0.0118
3367.00,0.0119
3366.00,0.0120
3365.00,0.0121
3364.00,0.0122
3363.00,0.0122
3362.00,0.0123
3361.00,0.0124
3360.00,0.0125
3359.00,0.0125
3358.00,0.0126
3357.00,0.0127
3356.00,0.0128
3355.00,0.0128
3354.00,0.0129
3353.00,0.0130
3352.00,0.0131
3351.00,0.0132
3350.00,0.0132
3349.00,0.0133
3348.00,0.0134
3347.00,0.0135
3346.00,0.0136
3345.00,0.0137
3344.00,0.0138
3343.00,0.0139
3342.00,0.0140
3341.00,0.0141
3340.00,0.0141
3339.00,0.0142
3338.00,0.0143
3337.00,0.0144
3336.00,0.0145
3335.00,0.0146
3334.00,0.0147
3333.00,0.0148
3332.00,0.0149
3331.00,0.0150
3330.00,0.0151
3329.00,0.0152
3328.00,0.0153
3327.00,0.0154
3326.00,0.0155
3325.00,0.0156
3324.00,0.0157
3323.00,0.0158
3322.00,0.0159
3321.00,0.0160
3320.00,0.0162
3319.00,0.0163
3318.00,0.0164
3317.00,0.0165
3316.00,0.0166
3315.00,0.0167
3314.00,0.0168
3313.00,0.0169
3312.00,0.0170
3311.00,0.0171
3310.00,0.0172
3309.00,0.0172
3308.00,0.0173
3307.00,0.0174
3306.00,0.0175
3305.00,0.0176
3304.00,0.0178
3303.00,0.0179
3302.00,0.0181
3301.00,0.0182
3300.00,0.0183
3299.00,0.0184
3298.00,0.0184
3297.00,0.0185
3296.00,0.0186
3295.00,0.0187
3294.00,0.0188
3293.00,0.0188
3292.00,0.0189
3291.00,0.0190
3290.00,0.0191
3289.00,0.0192
3288.00,0.0192
3287.00,0.0193
3286.00,0.0194
3285.00,0.0194
3284.00,0.0194
3283.00,0.0195
3282.00,0.0195
3281.00,0.0195
3280.00,0.0195
3279.00,0.0195
3278.00,0.0195
3277.00,0.0195
3276.00,0.0195
3275.00,0.0194
3274.00,0.0194
3273.00,0.0193
3272.00,0.0193
3271.00,0.0192
3270.00,0.0192
3269.00,0.0192
3268.00,0.0191
3267.00,0.0191
3266.00,0.0190
3265.00,0.0189
3264.00,0.0188
3263.00,0.0187
3262.00,0.0186
3261.00,0.0185
3260.00,0.0184
3259.00,0.0184
3258.00,0.0183
3257.00,0.0181
3256.00,0.0180
3255.00,0.0179
3254.00,0.0178
3253.00,0.0177
3252.00,0.0176
3251.00,0.0175
3250.00,0.0174
3249.00,0.0173
3248.00,0.0172
3247.00,0.0171
3246.00,0.0170
3245.00,0.0169
3244.00,0.0168
3243.00,0.0167
3242.00,0.0166
3241.00,0.0166
3240.00,0.0165
3239.00,0.0164
3238.00,0.0163
3237.00,0.0162
3236.00,0.0161
3235.00,0.0160
3234.00,0.0159
3233.00,0.0159
3232.00,0.0158
3231.00,0.0158
3230.00,0.0157
3229.00,0.0157
3228.00,0.0156
3227.00,0.0156
3226.00,0.0155
3225.00,0.0154
3224.00,0.0154
3223.00,0.0153
3222.00,0.0153
3221.00,0.0152
3220.00,0.0151
3219.00,0.0151
3218.00,0.0150
3217.00,0.0150
3216.00,0.0150
3215.00,0.0149
3214.00,0.0149
3213.00,0.0148
3212.00,0.0148
3211.00,0.0147
3210.00,0.0147
3209.00,0.0146
3208.00,0.0146
3207.00,0.0145
3206.00,0.0144
3205.00,0.0144
3204.00,0.0144
3203.00,0.0143
3202.00,0.0143
3201.00,0.0142
3200.00,0.0142
3199.00,0.0141
3198.00,0.0141
3197.00,0.0140
3196.00,0.0140
3195.00,0.0139
3194.00,0.0138
3193.00,0.0138
3192.00,0.0137
3191.00,0.0137
3190.00,0.0136
3189.00,0.0135
3188.00,0.0135
3187.00,0.0134
3186.00,0.0134
3185.00,0.0133
3184.00,0.0133
3183.00,0.0132
3182.00,0.0132
3181.00,0.0131
3180.00,0.0131
3179.00,0.0130
3178.00,0.0129
3177.00,0.0129
3176.00,0.0128
3175.00,0.0128
3174.00,0.0127
3173.00,0.0126
3172.00,0.0126
3171.00,0.0125
3170.00,0.0124
3169.00,0.0123
3168.00,0.0123
3167.00,0.0122
3166.00,0.0122
3165.00,0.0121
3164.00,0.0121
3163.00,0.0120
3162.00,0.0119
3161.00,0.0119
3160.00,0.0118
3159.00,0.0118
3158.00,0.0117
3157.00,0.0116
3156.00,0.0116
3155.00,0.0115
3154.00,0.0115
3153.00,0.0114
3152.00,0.0114
3151.00,0.0113
3150.00,0.0113
3149.00,0.0112
3148.00,0.0112
3147.00,0.0111
3146.00,0.0111
3145.00,0.0110
3144.00,0.0110
3143.00,0.0109
3142.00,0.0109
3141.00,0.0108
3140.00,0.0107
3139.00,0.0107
3138.00,0.0107
3137.00,0.0106
3136.00,0.0106
3135.00,0.0106
3134.00,0.0106
3133.00,0.0105
3132.00,0.0105
3131.00,0.0105
3130.00,0.0104
3129.00,0.0104
3128.00,0.0104
3127.00,0.0104
3126.00,0.0103
3125.00,0.0103
3124.00,0.0103
3123.00,0.0102
3122.00,0.0102
3121.00,0.0101
3120.00,0.0101
3119.00,0.0101
3118.00,0.0100
3117.00,0.0100
3116.00,0.0100
3115.00,0.0101
3114.00,0.0101
3113.00,0.0101
3112.00,0.0101
3111.00,0.0101
3110.00,0.0100
3109.00,0.0100
3108.00,0.0100
3107.00,0.0101
3106.00,0.0101
3105.00,0.0101
3104.00,0.0101
3103.00,0.0101
3102.00,0.0101
3101.00,0.0101
3100.00,0.0101
3099.00,0.0101
3098.00,0.0101
3097.00,0.0102
3096.00,0.0102
3095.00,0.0102
3094.00,0.0102
3093.00,0.0102
3092.00,0.0102
3091.00,0.0102
3090.00,0.0102
3089.00,0.0102
3088.00,0.0102
3087.00,0.0102
3086.00,0.0102
3085.00,0.0102
3084.00,0.0103
3083.00,0.0103
3082.00,0.0103
3081.00,0.0102
3080.00,0.0102
3079.00,0.0102
3078.00,0.0103
3077.00,0.0103
3076.00,0.0103
3075.00,0.0104
3074.00,0.0104
3073.00,0.0104
3072.00,0.0104
3071.00,0.0104
3070.00,0.0104
3069.00,0.0103
3068.00,0.0103
3067.00,0.0103
3066.00,0.0103
3065.00,0.0103
3064.00,0.0103
3063.00,0.0103
3062.00,0.0103
3061.00,0.0102
3060.00,0.0102
3059.00,0.0102
3058.00,0.0101
3057.00,0.0101
3056.00,0.0100
3055.00,0.0100
3054.00,0.0099
3053.00,0.0099
3052.00,0.0098
3051.00,0.0098
3050.00,0.0098
3049.00,0.0098
3048.00,0.0097
3047.00,0.0097
3046.00,0.0096
3045.00,0.0095
3044.00,0.0094
3043.00,0.0094
3042.00,0.0093
3041.00,0.0093
3040.00,0.0093
3039.00,0.0093
3038.00,0.0092
3037.00,0.0092
3036.00,0.0091
3035.00,0.0091
3034.00,0.0090
3033.00,0.0090
3032.00,0.0089
3031.00,0.0089
3030.00,0.0089
3029.00,0.0088
3028.00,0.0088
3027.00,0.0088
3026.00,0.0087
3025.00,0.0087
3024.00,0.0086
3023.00,0.0086
3022.00,0.0086
3021.00,0.0085
3020.00,0.0084
3019.00,0.0084
3018.00,0.0083
3017.00,0.0082
3016.00,0.0082
3015.00,0.0081
3014.00,0.0081
3013.00,0.0080
3012.00,0.0080
3011.00,0.0080
3010.00,0.0080
3009.00,0.0080
3008.00,0.0079
3007.00,0.0079
3006.00,0.0079
3005.00,0.0079
3004.00,0.0078
3003.00,0.0078
3002.00,0.0078
3001.00,0.0078
3000.00,0.0078
2999.00,0.0078
2998.00,0.0078
2997.00,0.0078
2996.00,0.0079
2995.00,0.0079
2994.00,0.0079
2993.00,0.0080
2992.00,0.0080
2991.00,0.0081
2990.00,0.0081
2989.00,0.0082
2988.00,0.0083
2987.00,0.0084
2986.00,0.0085
2985.00,0.0086
2984.00,0.0087
2983.00,0.0088
2982.00,0.0089
2981.00,0.0090
2980.00,0.0092
2979.00,0.0094
2978.00,0.0096
2977.00,0.0098
2976.00,0.0100
2975.00,0.0102
2974.00,0.0104
2973.00,0.0106
2972.00,0.0108
2971.00,0.0110
2970.00,0.0112
2969.00,0.0113
2968.00,0.0115
2967.00,0.0117
2966.00,0.0118
2965.00,0.0119
2964.00,0.0120
2963.00,0.0121
2962.00,0.0122
2961.00,0.0122
2960.00,0.0123
2959.00,0.0123
2958.00,0.0123
2957.00,0.0122
2956.00,0.0122
2955.00,0.0121
2954.00,0.0120
2953.00,0.0120
2952.00,0.0119
2951.00,0.0118
2950.00,0.0118
2949.00,0.0117
2948.00,0.0117
2947.00,0.0117
2946.00,0.0117
2945.00,0.0118
2944.00,0.0118
2943.00,0.0119
2942.00,0.0121
2941.00,0.0122
2940.00,0.0124
2939.00,0.0125
2938.00,0.0127
2937.00,0.0128
2936.00,0.0130
2935.00,0.0131
2934.00,0.0133
2933.00,0.0134
2932.00,0.0135
2931.00,0.0136
2930.00,0.0137
2929.00,0.0138
2928.00,0.0138
2927.00,0.0139
2926.00,0.0139
2925.00,0.0139
2924.00,0.0139
2923.00,0.0139
2922.00,0.0138
2921.00,0.0137
2920.00,0.0136
2919.00,0.0134
2918.00,0.0132
2917.00,0.0130
2916.00,0.0128
2915.00,0.0126
2914.00,0.0124
2913.00,0.0122
2912.00,0.0120
2911.00,0.0118
2910.00,0.0116
2909.00,0.0114
2908.00,0.0113
2907.00,0.0111
2906.00,0.0110
2905.00,0.0108
2904.00,0.0107
2903.00,0.0106
2902.00,0.0105
2901.00,0.0104
2900.00,0.0103
2899.00,0.0102
2898.00,0.0101
2897.00,0.0100
2896.00,0.0099
2895.00,0.0098
2894.00,0.0098
2893.00,0.0097
2892.00,0.0096
2891.00,0.0096
2890.00,0.0095
2889.00,0.0095
2888.00,0.0094
2887.00,0.0094
2886.00,0.0094
2885.00,0.0094
2884.00,0.0094
2883.00,0.0095
2882.00,0.0095
2881.00,0.0095
2880.00,0.0096
2879.00,0.0096
2878.00,0.0097
2877.00,0.0097
2876.00,0.0098
2875.00,0.0098
2874.00,0.0098
2873.00,0.0098
2872.00,0.0098
2871.00,0.0097
2870.00,0.0097
2869.00,0.0096
2868.00,0.0095
2867.00,0.0095
2866.00,0.0094
2865.00,0.0093
2864.00,0.0092
2863.00,0.0092
2862.00,0.0091
2861.00,0.0091
2860.00,0.0091
2859.00,0.0091
2858.00,0.0092
2857.00,0.0092
2856.00,0.0092
2855.00,0.0093
2854.00,0.0093
2853.00,0.0092
2852.00,0.0092
2851.00,0.0091
2850.00,0.0089
2849.00,0.0087
2848.00,0.0085
2847.00,0.0083
2846.00,0.0081
2845.00,0.0079
2844.00,0.0077
2843.00,0.0075
2842.00,0.0073
2841.00,0.0072
2840.00,0.0071
2839.00,0.0069
2838.00,0.0068
2837.00,0.0067
2836.00,0.0066
2835.00,0.0066
2834.00,0.0065
2833.00,0.0065
2832.00,0.0064
2831.00,0.0064
2830.00,0.0063
2829.00,0.0063
2828.00,0.0062
2827.00,0.0062
2826.00,0.0061
2825.00,0.0061
2824.00,0.0061
2823.00,0.0060
2822.00,0.0060
2821.00,0.0060
2820.00,0.0059
2819.00,0.0059
2818.00,0.0059
2817.00,0.0058
2816.00,0.0058
2815.00,0.0058
2814.00,0.0057
2813.00,0.0057
2812.00,0.0057
2811.00,0.0056
2810.00,0.0056
2809.00,0.0056
2808.00,0.0056
2807.00,0.0055
2806.00,0.0055
2805.00,0.0055
2804.00,0.0054
2803.00,0.0054
2802.00,0.0054
2801.00,0.0054
2800.00,0.0053
2799.00,0.0053
2798.00,0.0053
2797.00,0.0053
2796.00,0.0052
2795.00,0.0052
2794.00,0.0052
2793.00,0.0052
2792.00,0.0052
2791.00,0.0051
2790.00,0.0051
2789.00,0.0051
2788.00,0.0050
2787.00,0.0050
2786.00,0.0050
2785.00,0.0050
2784.00,0.0050
2783.00,0.0050
2782.00,0.0049
2781.00,0.0049
2780.00,0.0049
2779.00,0.0049
2778.00,0.0048
2777.00,0.0048
2776.00,0.0048
2775.00,0.0047
2774.00,0.0047
2773.00,0.0047
2772.00,0.0047
2771.00,0.0047
2770.00,0.0047
2769.00,0.0046
2768.00,0.0046
2767.00,0.0046
2766.00,0.0046
2765.00,0.0046
2764.00,0.0045
2763.00,0.0045
2762.00,0.0045
2761.00,0.0045
2760.00,0.0045
2759.00,0.0044
2758.00,0.0044
2757.00,0.0044
2756.00,0.0044
2755.00,0.0044
2754.00,0.0044
2753.00,0.0043
2752.00,0.0043
2751.00,0.0043
2750.00,0.0043
2749.00,0.0042
2748.00,0.0042
2747.00,0.0042
2746.00,0.0042
2745.00,0.0042
2744.00,0.0042
2743.00,0.0041
2742.00,0.0041
2741.00,0.0041
2740.00,0.0041
2739.00,0.0041
2738.00,0.0040
2737.00,0.0040
2736.00,0.0040
2735.00,0.0040
2734.00,0.0040
2733.00,0.0040
2732.00,0.0039
2731.00,0.0039
2730.00,0.0039
2729.00,0.0038
2728.00,0.0038
2727.00,0.0038
2726.00,0.0038
2725.00,0.0038
2724.00,0.0037
2723.00,0.0037
2722.00,0.0037
2721.00,0.0037
2720.00,0.0036
2719.00,0.0036
2718.00,0.0036
2717.00,0.0036
2716.00,0.0036
2715.00,0.0036
2714.00,0.0035
2713.00,0.0035
2712.00,0.0035
2711.00,0.0035
2710.00,0.0035
2709.00,0.0034
2708.00,0.0034
2707.00,0.0034
2706.00,0.0034
2705.00,0.0034
2704.00,0.0034
2703.00,0.0034
2702.00,0.0033
2701.00,0.0033
2700.00,0.0033
2699.00,0.0033
2698.00,0.0033
2697.00,0.0033
2696.00,0.0033
2695.00,0.0033
2694.00,0.0033
2693.00,0.0032
2692.00,0.0032
2691.00,0.0032
2690.00,0.0032
2689.00,0.0032
2688.00,0.0032
2687.00,0.0032
2686.00,0.0032
2685.00,0.0031
2684.00,0.0031
2683.00,0.0031
2682.00,0.0031
2681.00,0.0031
2680.00,0.0030
2679.00,0.0030
2678.00,0.0030
2677.00,0.0030
2676.00,0.0031
2675.00,0.0030
2674.00,0.0030
2673.00,0.0030
2672.00,0.0030
2671.00,0.0030
2670.00,0.0030
2669.00,0.0030
2668.00,0.0030
2667.00,0.0030
2666.00,0.0029
2665.00,0.0029
2664.00,0.0029
2663.00,0.0029
2662.00,0.0029
2661.00,0.0028
2660.00,0.0028
2659.00,0.0028
2658.00,0.0028
2657.00,0.0028
2656.00,0.0028
2655.00,0.0028
2654.00,0.0028
2653.00,0.0028
2652.00,0.0028
2651.00,0.0028
2650.00,0.0028
2649.00,0.0028
2648.00,0.0028
2647.00,0.0028
2646.00,0.0028
2645.00,0.0028
2644.00,0.0028
2643.00,0.0028
2642.00,0.0028
2641.00,0.0028
2640.00,0.0028
2639.00,0.0028
2638.00,0.0028
2637.00,0.0027
2636.00,0.0027
2635.00,0.0027
2634.00,0.0027
2633.00,0.0027
2632.00,0.0028
2631.00,0.0028
2630.00,0.0028
2629.00,0.0028
2628.00,0.0027
2627.00,0.0027
2626.00,0.0027
2625.00,0.0027
2624.00,0.0027
2623.00,0.0027
2622.00,0.0028
2621.00,0.0028
2620.00,0.0027
2619.00,0.0027
2618.00,0.0027
2617.00,0.0027
2616.00,0.0027
2615.00,0.0027
2614.00,0.0027
2613.00,0.0027
2612.00,0.0027
2611.00,0.0027
2610.00,0.0027
2609.00,0.0026
2608.00,0.0026
2607.00,0.0026
2606.00,0.0026
2605.00,0.0026
2604.00,0.0026
2603.00,0.0026
2602.00,0.0026
2601.00,0.0026
2600.00,0.0026
2599.00,0.0026
2598.00,0.0026
2597.00,0.0026
2596.00,0.0026
2595.00,0.0026
2594.00,0.0026
2593.00,0.0026
2592.00,0.0026
2591.00,0.0026
2590.00,0.0025
2589.00,0.0025
2588.00,0.0025
2587.00,0.0025
2586.00,0.0025
2585.00,0.0025
2584.00,0.0025
2583.00,0.0025
2582.00,0.0024
2581.00,0.0024
2580.00,0.0024
2579.00,0.0024
2578.00,0.0024
2577.00,0.0024
2576.00,0.0024
2575.00,0.0024
2574.00,0.0024
2573.00,0.0024
2572.00,0.0024
2571.00,0.0024
2570.00,0.0024
2569.00,0.0024
2568.00,0.0024
2567.00,0.0024
2566.00,0.0024
2565.00,0.0024
2564.00,0.0024
2563.00,0.0024
2562.00,0.0023
2561.00,0.0023
2560.00,0.0023
2559.00,0.0023
2558.00,0.0023
2557.00,0.0023
2556.00,0.0023
2555.00,0.0023
2554.00,0.0023
2553.00,0.0023
2552.00,0.0023
2551.00,0.0023
2550.00,0.0023
2549.00,0.0023
2548.00,0.0023
2547.00,0.0022
2546.00,0.0022
2545.00,0.0022
2544.00,0.0022
2543.00,0.0022
2542.00,0.0022
2541.00,0.0022
2540.00,0.0022
2539.00,0.0022
2538.00,0.0022
2537.00,0.0022
2536.00,0.0022
2535.00,0.0022
2534.00,0.0022
2533.00,0.0022
2532.00,0.0022
2531.00,0.0022
2530.00,0.0022
2529.00,0.0021
2528.00,0.0021
2527.00,0.0021
2526.00,0.0021
2525.00,0.0021
2524.00,0.0021
2523.00,0.0021
2522.00,0.0021
2521.00,0.0021
2520.00,0.0021
2519.00,0.0021
2518.00,0.0020
2517.00,0.0020
2516.00,0.0020
2515.00,0.0020
2514.00,0.0021
2513.00,0.0021
2512.00,0.0021
2511.00,0.0020
2510.00,0.0020
2509.00,0.0020
2508.00,0.0020
2507.00,0.0020
2506.00,0.0020
2505.00,0.0020
2504.00,0.0020
2503.00,0.0020
2502.00,0.0020
2501.00,0.0020
2500.00,0.0020
2499.00,0.0019
2498.00,0.0019
2497.00,0.0019
2496.00,0.0019
2495.00,0.0019
2494.00,0.0019
2493.00,0.0019
2492.00,0.0019
2491.00,0.0019
2490.00,0.0019
2489.00,0.0019
2488.00,0.0018
2487.00,0.0018
2486.00,0.0018
2485.00,0.0018
2484.00,0.0018
2483.00,0.0018
2482.00,0.0018
2481.00,0.0017
2480.00,0.0017
2479.00,0.0017
2478.00,0.0017
2477.00,0.0017
2476.00,0.0017
2475.00,0.0018
2474.00,0.0017
2473.00,0.0017
2472.00,0.0017
2471.00,0.0017
2470.00,0.0017
2469.00,0.0017
2468.00,0.0017
2467.00,0.0017
2466.00,0.0017
2465.00,0.0017
2464.00,0.0016
2463.00,0.0016
2462.00,0.0016
2461.00,0.0016
2460.00,0.0016
2459.00,0.0016
2458.00,0.0016
2457.00,0.0016
2456.00,0.0016
2455.00,0.0015
2454.00,0.0015
2453.00,0.0015
2452.00,0.0015
2451.00,0.0015
2450.00,0.0015
2449.00,0.0015
2448.00,0.0015
2447.00,0.0015
2446.00,0.0015
2445.00,0.0015
2444.00,0.0015
2443.00,0.0015
2442.00,0.0015
2441.00,0.0015
2440.00,0.0014
2439.00,0.0014
2438.00,0.0014
2437.00,0.0014
2436.00,0.0014
2435.00,0.0014
2434.00,0.0014
2433.00,0.0014
2432.00,0.0014
2431.00,0.0014
2430.00,0.0014
2429.00,0.0014
2428.00,0.0014
2427.00,0.0013
2426.00,0.0013
2425.00,0.0013
2424.00,0.0013
2423.00,0.0013
2422.00,0.0013
2421.00,0.0013
2420.00,0.0013
2419.00,0.0013
2418.00,0.0013
2417.00,0.0013
2416.00,0.0013
2415.00,0.0013
2414.00,0.0013
2413.00,0.0013
2412.00,0.0013
2411.00,0.0013
2410.00,0.0012
2409.00,0.0012
2408.00,0.0012
2407.00,0.0012
2406.00,0.0012
2405.00,0.0012
2404.00,0.0012
2403.00,0.0012
2402.00,0.0011
2401.00,0.0011
2400.00,0.0011
2399.00,0.0011
2398.00,0.0011
2397.00,0.0011
2396.00,0.0011
2395.00,0.0011
2394.00,0.0011
2393.00,0.0011
2392.00,0.0011
2391.00,0.0011
2390.00,0.0011
2389.00,0.0011
2388.00,0.0011
2387.00,0.0011
2386.00,0.0011
2385.00,0.0011
2384.00,0.0010
2383.00,0.0010
2382.00,0.0010
2381.00,0.0010
2380.00,0.0010
2379.00,0.0010
2378.00,0.0010
2377.00,0.0010
2376.00,0.0010
2375.00,0.0010
2374.00,0.0010
2373.00,0.0009
2372.00,0.0009
2371.00,0.0009
2370.00,0.0009
2369.00,0.0010
2368.00,0.0010
2367.00,0.0010
2366.00,0.0010
2365.00,0.0009
2364.00,0.0009
2363.00,0.0009
2362.00,0.0009
2361.00,0.0009
2360.00,0.0009
2359.00,0.0009
2358.00,0.0009
2357.00,0.0008
2356.00,0.0008
2355.00,0.0008
2354.00,0.0008
2353.00,0.0008
2352.00,0.0009
2351.00,0.0009
2350.00,0.0009
2349.00,0.0008
2348.00,0.0008
2347.00,0.0008
2346.00,0.0007
2345.00,0.0007
2344.00,0.0007
2343.00,0.0007
2342.00,0.0007
2341.00,0.0007
2340.00,0.0007
2339.00,0.0007
2338.00,0.0007
2337.00,0.0007
2336.00,0.0007
2335.00,0.0007
2334.00,0.0007
2333.00,0.0007
2332.00,0.0007
2331.00,0.0007
2330.00,0.0006
2329.00,0.0006
2328.00,0.0005
2327.00,0.0005
2326.00,0.0004
2325.00,0.0004
2324.00,0.0005
2323.00,0.0005
2322.00,0.0006
2321.00,0.0006
2320.00,0.0006
2319.00,0.0006
2318.00,0.0006
2317.00,0.0006
2316.00,0.0006
2315.00,0.0007
2314.00,0.0007
2313.00,0.0007
2312.00,0.0007
2311.00,0.0007
2310.00,0.0007
2309.00,0.0007
2308.00,0.0007
2307.00,0.0007
2306.00,0.0007
2305.00,0.0006
2304.00,0.0006
2303.00,0.0006
2302.00,0.0006
2301.00,0.0006
2300.00,0.0006
2299.00,0.0006
2298.00,0.0006
2297.00,0.0006
2296.00,0.0005
2295.00,0.0006
2294.00,0.0006
2293.00,0.0006
2292.00,0.0006
2291.00,0.0005
2290.00,0.0005
2289.00,0.0005
2288.00,0.0005
2287.00,0.0005
2286.00,0.0005
2285.00,0.0005
2284.00,0.0006
2283.00,0.0006
2282.00,0.0005
2281.00,0.0005
2280.00,0.0005
2279.00,0.0005
2278.00,0.0005
2277.00,0.0005
2276.00,0.0006
2275.00,0.0006
2274.00,0.0005
2273.00,0.0005
2272.00,0.0005
2271.00,0.0005
2270.00,0.0006
2269.00,0.0006
2268.00,0.0007
2267.00,0.0007
2266.00,0.0007
2265.00,0.0006
2264.00,0.0006
2263.00,0.0006
2262.00,0.0006
2261.00,0.0006
2260.00,0.0006
2259.00,0.0005
2258.00,0.0005
2257.00,0.0005
2256.00,0.0005
2255.00,0.0006
2254.00,0.0006
2253.00,0.0006
2252.00,0.0005
2251.00,0.0005
2250.00,0.0005
2249.00,0.0005
2248.00,0.0005
2247.00,0.0005
2246.00,0.0005
2245.00,0.0005
2244.00,0.0005
2243.00,0.0005
2242.00,0.0005
2241.00,0.0005
2240.00,0.0004
2239.00,0.0004
2238.00,0.0004
2237.00,0.0004
2236.00,0.0005
2235.00,0.0005
2234.00,0.0005
2233.00,0.0005
2232.00,0.0005
2231.00,0.0004
2230.00,0.0004
2229.00,0.0004
2228.00,0.0004
2227.00,0.0005
2226.00,0.0005
2225.00,0.0005
2224.00,0.0005
2223.00,0.0005
2222.00,0.0004
2221.00,0.0004
2220.00,0.0004
2219.00,0.0004
2218.00,0.0004
2217.00,0.0004
2216.00,0.0004
2215.00,0.0004
2214.00,0.0004
2213.00,0.0005
2212.00,0.0004
2211.00,0.0004
2210.00,0.0004
2209.00,0.0004
2208.00,0.0003
2207.00,0.0003
2206.00,0.0003
2205.00,0.0003
2204.00,0.0004
2203.00,0.0004
2202.00,0.0004
2201.00,0.0004
2200.00,0.0004
2199.00,0.0004
2198.00,0.0004
2197.00,0.0004
2196.00,0.0004
2195.00,0.0003
2194.00,0.0002
2193.00,0.0002
2192.00,0.0002
2191.00,0.0002
2190.00,0.0003
2189.00,0.0004
2188.00,0.0004
2187.00,0.0005
2186.00,0.0005
2185.00,0.0005
2184.00,0.0004
2183.00,0.0004
2182.00,0.0003
2181.00,0.0003
2180.00,0.0003
2179.00,0.0002
2178.00,0.0002
2177.00,0.0001
2176.00,0.0002
2175.00,0.0002
2174.00,0.0003
2173.00,0.0003
2172.00,0.0004
2171.00,0.0004
2170.00,0.0004
2169.00,0.0003
2168.00,0.0003
2167.00,0.0002
2166.00,0.0002
2165.00,0.0002
2164.00,0.0002
2163.00,0.0002
2162.00,0.0002
2161.00,0.0004
2160.00,0.0005
2159.00,0.0006
2158.00,0.0006
2157.00,0.0005
2156.00,0.0004
2155.00,0.0004
2154.00,0.0004
2153.00,0.0004
2152.00,0.0004
2151.00,0.0004
2150.00,0.0003
2149.00,0.0003
2148.00,0.0003
2147.00,0.0003
2146.00,0.0003
2145.00,0.0004
2144.00,0.0005
2143.00,0.0005
2142.00,0.0005
2141.00,0.0005
2140.00,0.0005
2139.00,0.0005
2138.00,0.0005
2137.00,0.0006
2136.00,0.0007
2135.00,0.0007
2134.00,0.0007
2133.00,0.0006
2132.00,0.0006
2131.00,0.0006
2130.00,0.0005
2129.00,0.0005
2128.00,0.0004
2127.00,0.0004
2126.00,0.0004
2125.00,0.0004
2124.00,0.0004
2123.00,0.0004
2122.00,0.0004
2121.00,0.0004
2120.00,0.0004
2119.00,0.0004
2118.00,0.0004
2117.00,0.0004
2116.00,0.0004
2115.00,0.0004
2114.00,0.0004
2113.00,0.0004
2112.00,0.0005
2111.00,0.0005
2110.00,0.0005
2109.00,0.0005
2108.00,0.0004
2107.00,0.0004
2106.00,0.0004
2105.00,0.0004
2104.00,0.0003
2103.00,0.0003
2102.00,0.0003
2101.00,0.0003
2100.00,0.0003
2099.00,0.0003
2098.00,0.0003
2097.00,0.0003
2096.00,0.0004
2095.00,0.0004
2094.00,0.0004
2093.00,0.0004
2092.00,0.0004
2091.00,0.0004
2090.00,0.0004
2089.00,0.0004
2088.00,0.0004
2087.00,0.0004
2086.00,0.0004
2085.00,0.0003
2084.00,0.0003
2083.00,0.0003
2082.00,0.0002
2081.00,0.0002
2080.00,0.0002
2079.00,0.0002
2078.00,0.0002
2077.00,0.0002
2076.00,0.0002
2075.00,0.0002
2074.00,0.0002
2073.00,0.0002
2072.00,0.0003
2071.00,0.0003
2070.00,0.0003
2069.00,0.0003
2068.00,0.0002
2067.00,0.0002
2066.00,0.0002
2065.00,0.0002
2064.00,0.0003
2063.00,0.0003
2062.00,0.0003
2061.00,0.0002
2060.00,0.0001
2059.00,0.0001
2058.00,0.0000
2057.00,-0.0000
2056.00,-0.0001
2055.00,-0.0001
2054.00,-0.0002
2053.00,-0.0003
2052.00,-0.0004
2051.00,-0.0004
2050.00,-0.0003
2049.00,-0.0002
2048.00,-0.0001
2047.00,0.0000
2046.00,0.0000
2045.00,0.0000
2044.00,-0.0000
2043.00,-0.0001
2042.00,-0.0001
2041.00,-0.0001
2040.00,-0.0000
2039.00,0.0000
2038.00,0.0000
2037.00,0.0001
2036.00,0.0001
2035.00,0.0001
2034.00,0.0001
2033.00,0.0001
2032.00,0.0001
2031.00,0.0001
2030.00,0.0001
2029.00,-0.0000
2028.00,-0.0001
2027.00,-0.0002
2026.00,-0.0004
2025.00,-0.0004
2024.00,-0.0003
2023.00,-0.0002
2022.00,-0.0001
2021.00,-0.0001
2020.00,-0.0001
2019.00,-0.0001
2018.00,-0.0001
2017.00,-0.0001
2016.00,-0.0001
2015.00,-0.0000
2014.00,0.0000
2013.00,-0.0000
2012.00,-0.0001
2011.00,-0.0001
2010.00,-0.0002
2009.00,-0.0001
2008.00,-0.0001
2007.00,0.0000
2006.00,0.0000
2005.00,-0.0000
2004.00,-0.0001
2003.00,-0.0002
2002.00,-0.0003
2001.00,-0.0003
2000.00,-0.0003
1999.00,-0.0002
1998.00,-0.0002
1997.00,-0.0001
1996.00,-0.0001
1995.00,-0.0000
1994.00,-0.0000
1993.00,-0.0000
1992.00,-0.0001
1991.00,-0.0001
1990.00,-0.0002
1989.00,-0.0002
1988.00,-0.0002
1987.00,-0.0001
1986.00,-0.0001
1985.00,-0.0002
1984.00,-0.0002
1983.00,-0.0003
1982.00,-0.0004
1981.00,-0.0005
1980.00,-0.0004
1979.00,-0.0004
1978.00,-0.0003
1977.00,-0.0004
1976.00,-0.0004
1975.00,-0.0004
1974.00,-0.0003
1973.00,-0.0003
1972.00,-0.0003
1971.00,-0.0002
1970.00,-0.0002
1969.00,-0.0001
1968.00,0.0000
1967.00,0.0001
1966.00,0.0001
1965.00,0.0000
1964.00,-0.0000
1963.00,-0.0001
1962.00,-0.0001
1961.00,-0.0002
1960.00,-0.0001
1959.00,-0.0001
1958.00,-0.0000
1957.00,-0.0000
1956.00,-0.0001
1955.00,-0.0001
1954.00,-0.0001
1953.00,-0.0001
1952.00,-0.0001
1951.00,-0.0001
1950.00,-0.0002
1949.00,-0.0002
1948.00,-0.0002
1947.00,-0.0002
1946.00,-0.0002
1945.00,-0.0002
1944.00,-0.0002
1943.00,-0.0002
1942.00,-0.0002
1941.00,-0.0001
1940.00,-0.0001
1939.00,-0.0001
1938.00,-0.0001
1937.00,-0.0002
1936.00,-0.0002
1935.00,-0.0002
1934.00,-0.0002
1933.00,-0.0002
1932.00,-0.0003
1931.00,-0.0003
1930.00,-0.0003
1929.00,-0.0003
1928.00,-0.0003
1927.00,-0.0003
1926.00,-0.0003
1925.00,-0.0003
1924.00,-0.0004
1923.00,-0.0004
1922.00,-0.0004
1921.00,-0.0005
1920.00,-0.0004
1919.00,-0.0004
1918.00,-0.0003
1917.00,-0.0003
1916.00,-0.0003
1915.00,-0.0003
1914.00,-0.0003
1913.00,-0.0003
1912.00,-0.0003
1911.00,-0.0003
1910.00,-0.0004
1909.00,-0.0004
1908.00,-0.0004
1907.00,-0.0004
1906.00,-0.0005
1905.00,-0.0005
1904.00,-0.0005
1903.00,-0.0005
1902.00,-0.0005
1901.00,-0.0004
1900.00,-0.0004
1899.00,-0.0005
1898.00,-0.0005
1897.00,-0.0005
1896.00,-0.0005
1895.00,-0.0005
1894.00,-0.0004
1893.00,-0.0004
1892.00,-0.0005
1891.00,-0.0005
1890.00,-0.0005
1889.00,-0.0005
1888.00,-0.0005
1887.00,-0.0004
1886.00,-0.0004
1885.00,-0.0004
1884.00,-0.0004
1883.00,-0.0004
1882.00,-0.0004
1881.00,-0.0005
1880.00,-0.0005
1879.00,-0.0005
1878.00,-0.0005
1877.00,-0.0005
1876.00,-0.0005
1875.00,-0.0006
1874.00,-0.0007
1873.00,-0.0007
1872.00,-0.0007
1871.00,-0.0007
1870.00,-0.0008
1869.00,-0.0008
1868.00,-0.0008
1867.00,-0.0007
1866.00,-0.0007
1865.00,-0.0007
1864.00,-0.0006
1863.00,-0.0006
1862.00,-0.0006
1861.00,-0.0006
1860.00,-0.0006
1859.00,-0.0006
1858.00,-0.0006
1857.00,-0.0006
1856.00,-0.0006
1855.00,-0.0006
1854.00,-0.0006
1853.00,-0.0006
1852.00,-0.0007
1851.00,-0.0007
1850.00,-0.0007
1849.00,-0.0007
1848.00,-0.0008
1847.00,-0.0008
1846.00,-0.0008
1845.00,-0.0008
1844.00,-0.0007
1843.00,-0.0007
1842.00,-0.0007
1841.00,-0.0008
1840.00,-0.0008
1839.00,-0.0008
1838.00,-0.0008
1837.00,-0.0007
1836.00,-0.0007
1835.00,-0.0007
1834.00,-0.0007
1833.00,-0.0008
1832.00,-0.0009
1831.00,-0.0009
1830.00,-0.0010
1829.00,-0.0010
1828.00,-0.0009
1827.00,-0.0009
1826.00,-0.0009
1825.00,-0.0010
1824.00,-0.0010
1823.00,-0.0010
1822.00,-0.0010
1821.00,-0.0010
1820.00,-0.0010
1819.00,-0.0009
1818.00,-0.0009
1817.00,-0.0009
1816.00,-0.0009
1815.00,-0.0009
1814.00,-0.0010
1813.00,-0.0010
1812.00,-0.0010
1811.00,-0.0010
1810.00,-0.0010
1809.00,-0.0010
1808.00,-0.0010
1807.00,-0.0010
1806.00,-0.0010
1805.00,-0.0010
1804.00,-0.0010
1803.00,-0.0011
1802.00,-0.0011
1801.00,-0.0011
1800.00,-0.0011
1799.00,-0.0011
1798.00,-0.0011
1797.00,-0.0011
1796.00,-0.0011
1795.00,-0.0012
1794.00,-0.0012
1793.00,-0.0012
1792.00,-0.0012
1791.00,-0.0011
1790.00,-0.0011
1789.00,-0.0011
1788.00,-0.0011
1787.00,-0.0011
1786.00,-0.0010
1785.00,-0.0010
1784.00,-0.0011
1783.00,-0.0011
1782.00,-0.0011
1781.00,-0.0012
1780.00,-0.0012
1779.00,-0.0011
1778.00,-0.0011
1777.00,-0.0012
1776.00,-0.0012
1775.00,-0.0012
1774.00,-0.0011
1773.00,-0.0011
1772.00,-0.0011
1771.00,-0.0012
1770.00,-0.0012
1769.00,-0.0011
1768.00,-0.0010
1767.00,-0.0010
1766.00,-0.0010
1765.00,-0.0011
1764.00,-0.0011
1763.00,-0.0010
1762.00,-0.0010
1761.00,-0.0009
1760.00,-0.0009
1759.00,-0.0008
1758.00,-0.0008
1757.00,-0.0008
1756.00,-0.0007
1755.00,-0.0006
1754.00,-0.0005
1753.00,-0.0004
1752.00,-0.0002
1751.00,-0.0001
1750.00,-0.0002
1749.00,-0.0002
1748.00,-0.0002
1747.00,-0.0001
1746.00,0.0000
1745.00,0.0001
1744.00,0.0003
1743.00,0.0003
1742.00,0.0004
1741.00,0.0004
1740.00,0.0005
1739.00,0.0006
1738.00,0.0007
1737.00,0.0008
1736.00,0.0010
1735.00,0.0013
1734.00,0.0014
1733.00,0.0015
1732.00,0.0014
1731.00,0.0013
1730.00,0.0012
1729.00,0.0012
1728.00,0.0013
1727.00,0.0014
1726.00,0.0015
1725.00,0.0015
1724.00,0.0016
1723.00,0.0017
1722.00,0.0017
1721.00,0.0018
1720.00,0.0019
1719.00,0.0021
1718.00,0.0024
1717.00,0.0027
1716.00,0.0028
1715.00,0.0029
1714.00,0.0029
1713.00,0.0031
1712.00,0.0034
1711.00,0.0037
1710.00,0.0040
1709.00,0.0043
1708.00,0.0046
1707.00,0.0050
1706.00,0.0055
1705.00,0.0061
1704.00,0.0068
1703.00,0.0075
1702.00,0.0084
1701.00,0.0094
1700.00,0.0105
1699.00,0.0116
1698.00,0.0126
1697.00,0.0135
1696.00,0.0145
1695.00,0.0154
1694.00,0.0159
1693.00,0.0163
1692.00,0.0167
1691.00,0.0173
1690.00,0.0179
1689.00,0.0185
1688.00,0.0191
1687.00,0.0199
1686.00,0.0207
1685.00,0.0214
1684.00,0.0219
1683.00,0.0223
1682.00,0.0228
1681.00,0.0234
1680.00,0.0241
1679.00,0.0248
1678.00,0.0255
1677.00,0.0262
1676.00,0.0268
1675.00,0.0274
1674.00,0.0280
1673.00,0.0287
1672.00,0.0293
1671.00,0.0300
1670.00,0.0306
1669.00,0.0313
1668.00,0.0320
1667.00,0.0327
1666.00,0.0334
1665.00,0.0342
1664.00,0.0348
1663.00,0.0355
1662.00,0.0361
1661.00,0.0367
1660.00,0.0375
1659.00,0.0382
1658.00,0.0390
1657.00,0.0397
1656.00,0.0406
1655.00,0.0416
1654.00,0.0421
1653.00,0.0422
1652.00,0.0424
1651.00,0.0427
1650.00,0.0430
1649.00,0.0434
1648.00,0.0437
1647.00,0.0440
1646.00,0.0442
1645.00,0.0445
1644.00,0.0448
1643.00,0.0452
1642.00,0.0456
1641.00,0.0459
1640.00,0.0463
1639.00,0.0467
1638.00,0.0471
1637.00,0.0474
1636.00,0.0475
1635.00,0.0475
1634.00,0.0477
1633.00,0.0481
1632.00,0.0486
1631.00,0.0491
1630.00,0.0495
1629.00,0.0497
1628.00,0.0498
1627.00,0.0498
1626.00,0.0499
1625.00,0.0498
1624.00,0.0494
1623.00,0.0487
1622.00,0.0480
1621.00,0.0474
1620.00,0.0469
1619.00,0.0464
1618.00,0.0456
1617.00,0.0442
1616.00,0.0425
1615.00,0.0410
1614.00,0.0398
1613.00,0.0387
1612.00,0.0377
1611.00,0.0365
1610.00,0.0353
1609.00,0.0341
1608.00,0.0330
1607.00,0.0319
1606.00,0.0310
1605.00,0.0301
1604.00,0.0293
1603.00,0.0285
1602.00,0.0278
1601.00,0.0272
1600.00,0.0266
1599.00,0.0261
1598.00,0.0256
1597.00,0.0252
1596.00,0.0247
1595.00,0.0243
1594.00,0.0240
1593.00,0.0237
1592.00,0.0234
1591.00,0.0231
1590.00,0.0229
1589.00,0.0227
1588.00,0.0225
1587.00,0.0223
1586.00,0.0222
1585.00,0.0222
1584.00,0.0221
1583.00,0.0221
1582.00,0.0221
1581.00,0.0222
1580.00,0.0223
1579.00,0.0225
1578.00,0.0228
1577.00,0.0231
1576.00,0.0233
1575.00,0.0233
1574.00,0.0234
1573.00,0.0235
1572.00,0.0237
1571.00,0.0239
1570.00,0.0242
1569.00,0.0245
1568.00,0.0248
1567.00,0.0252
1566.00,0.0257
1565.00,0.0261
1564.00,0.0266
1563.00,0.0271
1562.00,0.0279
1561.00,0.0286
1560.00,0.0290
1559.00,0.0290
1558.00,0.0292
1557.00,0.0298
1556.00,0.0304
1555.00,0.0310
1554.00,0.0317
1553.00,0.0323
1552.00,0.0328
1551.00,0.0333
1550.00,0.0338
1549.00,0.0344
1548.00,0.0350
1547.00,0.0356
1546.00,0.0362
1545.00,0.0367
1544.00,0.0372
1543.00,0.0377
1542.00,0.0382
1541.00,0.0386
1540.00,0.0389
1539.00,0.0392
1538.00,0.0397
1537.00,0.0401
1536.00,0.0405
1535.00,0.0408
1534.00,0.0411
1533.00,0.0412
1532.00,0.0415
1531.00,0.0419
1530.00,0.0423
1529.00,0.0427
1528.00,0.0429
1527.00,0.0431
1526.00,0.0432
1525.00,0.0434
1524.00,0.0436
1523.00,0.0439
1522.00,0.0440
1521.00,0.0440
1520.00,0.0440
1519.00,0.0441
1518.00,0.0443
1517.00,0.0444
1516.00,0.0444
1515.00,0.0445
1514.00,0.0446
1513.00,0.0445
1512.00,0.0443
1511.00,0.0439
1510.00,0.0437
1509.00,0.0434
1508.00,0.0429
1507.00,0.0419
1506.00,0.0407
1505.00,0.0398
1504.00,0.0393
1503.00,0.0388
1502.00,0.0383
1501.00,0.0378
1500.00,0.0371
1499.00,0.0364
1498.00,0.0356
1497.00,0.0348
1496.00,0.0339
1495.00,0.0330
1494.00,0.0322
1493.00,0.0314
1492.00,0.0306
1491.00,0.0297
1490.00,0.0287
1489.00,0.0277
1488.00,0.0269
1487.00,0.0262
1486.00,0.0256
1485.00,0.0250
1484.00,0.0245
1483.00,0.0240
1482.00,0.0235
1481.00,0.0230
1480.00,0.0226
1479.00,0.0223
1478.00,0.0221
1477.00,0.0219
1476.00,0.0218
1475.00,0.0218
1474.00,0.0219
1473.00,0.0220
1472.00,0.0221
1471.00,0.0223
1470.00,0.0225
1469.00,0.0228
1468.00,0.0229
1467.00,0.0230
1466.00,0.0230
1465.00,0.0229
1464.00,0.0228
1463.00,0.0228
1462.00,0.0229
1461.00,0.0230
1460.00,0.0231
1459.00,0.0233
1458.00,0.0235
1457.00,0.0237
1456.00,0.0238
1455.00,0.0239
1454.00,0.0239
1453.00,0.0239
1452.00,0.0239
1451.00,0.0239
1450.00,0.0239
1449.00,0.0238
1448.00,0.0237
1447.00,0.0236
1446.00,0.0235
1445.00,0.0235
1444.00,0.0234
1443.00,0.0233
1442.00,0.0232
1441.00,0.0231
1440.00,0.0230
1439.00,0.0229
1438.00,0.0228
1437.00,0.0224
1436.00,0.0221
1435.00,0.0217
1434.00,0.0215
1433.00,0.0212
1432.00,0.0209
1431.00,0.0206
1430.00,0.0203
1429.00,0.0200
1428.00,0.0199
1427.00,0.0198
1426.00,0.0198
1425.00,0.0197
1424.00,0.0197
1423.00,0.0197
1422.00,0.0198
1421.00,0.0200
1420.00,0.0201
1419.00,0.0202
1418.00,0.0203
1417.00,0.0204
1416.00,0.0205
1415.00,0.0207
1414.00,0.0209
1413.00,0.0211
1412.00,0.0213
1411.00,0.0215
1410.00,0.0217
1409.00,0.0219
1408.00,0.0220
1407.00,0.0222
1406.00,0.0224
1405.00,0.0226
1404.00,0.0228
1403.00,0.0230
1402.00,0.0232
1401.00,0.0234
1400.00,0.0235
1399.00,0.0237
1398.00,0.0238
1397.00,0.0240
1396.00,0.0241
1395.00,0.0242
1394.00,0.0243
1393.00,0.0244
1392.00,0.0245
1391.00,0.0246
1390.00,0.0247
1389.00,0.0247
1388.00,0.0247
1387.00,0.0246
1386.00,0.0245
1385.00,0.0243
1384.00,0.0241
1383.00,0.0239
1382.00,0.0237
1381.00,0.0235
1380.00,0.0233
1379.00,0.0231
1378.00,0.0229
1377.00,0.0227
1376.00,0.0224
1375.00,0.0221
1374.00,0.0219
1373.00,0.0217
1372.00,0.0216
1371.00,0.0215
1370.00,0.0215
1369.00,0.0213
1368.00,0.0212
1367.00,0.0210
1366.00,0.0207
1365.00,0.0205
1364.00,0.0202
1363.00,0.0199
1362.00,0.0196
1361.00,0.0194
1360.00,0.0192
1359.00,0.0190
1358.00,0.0189
1357.00,0.0187
1356.00,0.0186
1355.00,0.0185
1354.00,0.0184
1353.00,0.0183
1352.00,0.0183
1351.00,0.0182
1350.00,0.0182
1349.00,0.0181
1348.00,0.0181
1347.00,0.0181
1346.00,0.0181
1345.00,0.0181
1344.00,0.0181
1343.00,0.0180
1342.00,0.0180
1341.00,0.0180
1340.00,0.0179
1339.00,0.0179
1338.00,0.0178
1337.00,0.0178
1336.00,0.0177
1335.00,0.0177
1334.00,0.0176
1333.00,0.0176
1332.00,0.0175
1331.00,0.0175
1330.00,0.0174
1329.00,0.0174
1328.00,0.0174
1327.00,0.0174
1326.00,0.0174
1325.00,0.0174
1324.00,0.0174
1323.00,0.0174
1322.00,0.0175
1321.00,0.0176
1320.00,0.0176
1319.00,0.0176
1318.00,0.0177
1317.00,0.0177
1316.00,0.0178
1315.00,0.0178
1314.00,0.0179
1313.00,0.0180
1312.00,0.0180
1311.00,0.0180
1310.00,0.0180
1309.00,0.0180
1308.00,0.0180
1307.00,0.0180
1306.00,0.0180
1305.00,0.0181
1304.00,0.0181
1303.00,0.0181
1302.00,0.0181
1301.00,0.0181
1300.00,0.0181
1299.00,0.0181
1298.00,0.0181
1297.00,0.0181
1296.00,0.0181
1295.00,0.0181
1294.00,0.0182
1293.00,0.0182
1292.00,0.0182
1291.00,0.0183
1290.00,0.0183
1289.00,0.0184
1288.00,0.0184
1287.00,0.0185
1286.00,0.0185
1285.00,0.0186
1284.00,0.0186
1283.00,0.0186
1282.00,0.0187
1281.00,0.0187
1280.00,0.0188
1279.00,0.0188
1278.00,0.0188
1277.00,0.0188
1276.00,0.0188
1275.00,0.0188
1274.00,0.0188
1273.00,0.0188
1272.00,0.0189
1271.00,0.0189
1270.00,0.0190
1269.00,0.0191
1268.00,0.0191
1267.00,0.0192
1266.00,0.0194
1265.00,0.0195
1264.00,0.0197
1263.00,0.0198
1262.00,0.0200
1261.00,0.0202
1260.00,0.0204
1259.00,0.0206
1258.00,0.0209
1257.00,0.0211
1256.00,0.0214
1255.00,0.0216
1254.00,0.0219
1253.00,0.0221
1252.00,0.0224
1251.00,0.0226
1250.00,0.0229
1249.00,0.0231
1248.00,0.0234
1247.00,0.0236
1246.00,0.0239
1245.00,0.0241
1244.00,0.0243
1243.00,0.0245
1242.00,0.0247
1241.00,0.0249
1240.00,0.0251
1239.00,0.0252
1238.00,0.0254
1237.00,0.0255
1236.00,0.0256
1235.00,0.0257
1234.00,0.0258
1233.00,0.0259
1232.00,0.0259
1231.00,0.0260
1230.00,0.0260
1229.00,0.0260
1228.00,0.0260
1227.00,0.0260
1226.00,0.0259
1225.00,0.0258
1224.00,0.0257
1223.00,0.0256
1222.00,0.0254
1221.00,0.0253
1220.00,0.0252
1219.00,0.0250
1218.00,0.0248
1217.00,0.0246
1216.00,0.0243
1215.00,0.0240
1214.00,0.0238
1213.00,0.0235
1212.00,0.0232
1211.00,0.0229
1210.00,0.0226
1209.00,0.0223
1208.00,0.0219
1207.00,0.0216
1206.00,0.0212
1205.00,0.0209
1204.00,0.0206
1203.00,0.0203
1202.00,0.0199
1201.00,0.0196
1200.00,0.0193
1199.00,0.0190
1198.00,0.0187
1197.00,0.0185
1196.00,0.0182
1195.00,0.0180
1194.00,0.0178
1193.00,0.0176
1192.00,0.0174
1191.00,0.0172
1190.00,0.0171
1189.00,0.0169
1188.00,0.0168
1187.00,0.0166
1186.00,0.0165
1185.00,0.0164
1184.00,0.0163
1183.00,0.0162
1182.00,0.0162
1181.00,0.0161
1180.00,0.0161
1179.00,0.0161
1178.00,0.0161
1177.00,0.0162
1176.00,0.0162
1175.00,0.0164
1174.00,0.0165
1173.00,0.0166
1172.00,0.0167
1171.00,0.0168
1170.00,0.0169
1169.00,0.0170
1168.00,0.0171
1167.00,0.0172
1166.00,0.0173
1165.00,0.0175
1164.00,0.0176
1163.00,0.0177
1162.00,0.0178
1161.00,0.0179
1160.00,0.0180
1159.00,0.0181
1158.00,0.0181
1157.00,0.0182
1156.00,0.0182
1155.00,0.0182
1154.00,0.0181
1153.00,0.0181
1152.00,0.0180
1151.00,0.0178
1150.00,0.0177
1149.00,0.0176
1148.00,0.0175
1147.00,0.0173
1146.00,0.0172
1145.00,0.0171
1144.00,0.0169
1143.00,0.0168
1142.00,0.0167
1141.00,0.0166
1140.00,0.0165
1139.00,0.0165
1138.00,0.0165
1137.00,0.0165
1136.00,0.0166
1135.00,0.0167
1134.00,0.0169
1133.00,0.0170
1132.00,0.0172
1131.00,0.0174
1130.00,0.0175
1129.00,0.0176
1128.00,0.0177
1127.00,0.0178
1126.00,0.0180
1125.00,0.0180
1124.00,0.0181
1123.00,0.0181
1122.00,0.0181
1121.00,0.0182
1120.00,0.0182
1119.00,0.0182
1118.00,0.0183
1117.00,0.0183
1116.00,0.0184
1115.00,0.0185
1114.00,0.0186
1113.00,0.0187
1112.00,0.0188
1111.00,0.0189
1110.00,0.0190
1109.00,0.0191
1108.00,0.0192
1107.00,0.0193
1106.00,0.0195
1105.00,0.0196
1104.00,0.0197
1103.00,0.0199
1102.00,0.0200
1101.00,0.0202
1100.00,0.0203
1099.00,0.0204
1098.00,0.0206
1097.00,0.0208
1096.00,0.0210
1095.00,0.0212
1094.00,0.0214
1093.00,0.0217
1092.00,0.0219
1091.00,0.0222
1090.00,0.0225
1089.00,0.0228
1088.00,0.0231
1087.00,0.0234
1086.00,0.0238
1085.00,0.0241
1084.00,0.0244
1083.00,0.0247
1082.00,0.0250
1081.00,0.0253
1080.00,0.0255
1079.00,0.0257
1078.00,0.0258
1077.00,0.0259
1076.00,0.0260
1075.00,0.0261
1074.00,0.0261
1073.00,0.0262
1072.00,0.0261
1071.00,0.0261
1070.00,0.0261
1069.00,0.0261
1068.00,0.0260
1067.00,0.0260
1066.00,0.0260
1065.00,0.0261
1064.00,0.0261
1063.00,0.0261
1062.00,0.0261
1061.00,0.0262
1060.00,0.0261
1059.00,0.0261
1058.00,0.0261
1057.00,0.0260
1056.00,0.0260
1055.00,0.0259
1054.00,0.0259
1053.00,0.0258
1052.00,0.0257
1051.00,0.0255
1050.00,0.0254
1049.00,0.0253
1048.00,0.0252
1047.00,0.0251
1046.00,0.0250
1045.00,0.0249
1044.00,0.0248
1043.00,0.0247
1042.00,0.0246
1041.00,0.0245
1040.00,0.0244
1039.00,0.0243
1038.00,0.0242
1037.00,0.0241
1036.00,0.0240
1035.00,0.0239
1034.00,0.0239
1033.00,0.0239
1032.00,0.0238
1031.00,0.0237
1030.00,0.0237
1029.00,0.0236
1028.00,0.0234
1027.00,0.0233
1026.00,0.0231
1025.00,0.0230
1024.00,0.0228
1023.00,0.0226
1022.00,0.0224
1021.00,0.0221
1020.00,0.0218
1019.00,0.0215
1018.00,0.0213
1017.00,0.0210
1016.00,0.0207
1015.00,0.0204
1014.00,0.0202
1013.00,0.0200
1012.00,0.0197
1011.00,0.0194
1010.00,0.0192
1009.00,0.0189
1008.00,0.0186
1007.00,0.0183
1006.00,0.0180
1005.00,0.0178
1004.00,0.0175
1003.00,0.0173
1002.00,0.0171
1001.00,0.0169
1000.00,0.0167
999.00,0.0165
998.00,0.0164
997.00,0.0162
996.00,0.0159
995.00,0.0157
994.00,0.0155
993.00,0.0153
992.00,0.0151
991.00,0.0149
990.00,0.0147
989.00,0.0145
988.00,0.0142
987.00,0.0140
986.00,0.0138
985.00,0.0136
984.00,0.0134
983.00,0.0133
982.00,0.0131
981.00,0.0130
980.00,0.0129
979.00,0.0128
978.00,0.0128
977.00,0.0127
976.00,0.0127
975.00,0.0127
974.00,0.0127
973.00,0.0127
972.00,0.0127
971.00,0.0127
970.00,0.0127
969.00,0.0128
968.00,0.0128
967.00,0.0128
966.00,0.0129
965.00,0.0129
964.00,0.0129
963.00,0.0130
962.00,0.0130
961.00,0.0131
960.00,0.0131
959.00,0.0132
958.00,0.0134
957.00,0.0136
956.00,0.0138
955.00,0.0140
954.00,0.0142
953.00,0.0144
952.00,0.0146
951.00,0.0146
950.00,0.0147
949.00,0.0146
948.00,0.0145
947.00,0.0144
946.00,0.0143
945.00,0.0141
944.00,0.0140
943.00,0.0138
942.00,0.0137
941.00,0.0136
940.00,0.0135
939.00,0.0134
938.00,0.0134
937.00,0.0134
936.00,0.0133
935.00,0.0133
934.00,0.0133
933.00,0.0133
932.00,0.0132
931.00,0.0131
930.00,0.0131
929.00,0.0130
928.00,0.0129
927.00,0.0128
926.00,0.0128
925.00,0.0127
924.00,0.0126
923.00,0.0126
922.00,0.0125
921.00,0.0125
920.00,0.0123
919.00,0.0123
918.00,0.0122
917.00,0.0121
916.00,0.0120
915.00,0.0119
914.00,0.0119
913.00,0.0118
912.00,0.0117
911.00,0.0116
910.00,0.0115
909.00,0.0115
908.00,0.0113
907.00,0.0112
906.00,0.0112
905.00,0.0111
904.00,0.0111
903.00,0.0110
902.00,0.0110
901.00,0.0110
900.00,0.0109
899.00,0.0108
898.00,0.0108
897.00,0.0108
896.00,0.0107
895.00,0.0107
894.00,0.0108
893.00,0.0108
892.00,0.0108
891.00,0.0107
890.00,0.0108
889.00,0.0108
888.00,0.0108
887.00,0.0108
886.00,0.0108
885.00,0.0109
884.00,0.0108
883.00,0.0108
882.00,0.0108
881.00,0.0108
880.00,0.0107
879.00,0.0107
878.00,0.0107
877.00,0.0107
876.00,0.0106
875.00,0.0105
874.00,0.0105
873.00,0.0105
872.00,0.0104
871.00,0.0104
870.00,0.0105
869.00,0.0105
868.00,0.0105
867.00,0.0105
866.00,0.0106
865.00,0.0106
864.00,0.0106
863.00,0.0106
862.00,0.0107
861.00,0.0108
860.00,0.0108
859.00,0.0109
858.00,0.0110
857.00,0.0110
856.00,0.0111
855.00,0.0112
854.00,0.0113
853.00,0.0114
852.00,0.0114
851.00,0.0114
850.00,0.0115
849.00,0.0116
848.00,0.0116
847.00,0.0116
846.00,0.0117
845.00,0.0117
844.00,0.0117
843.00,0.0117
842.00,0.0118
841.00,0.0119
840.00,0.0120
839.00,0.0120
838.00,0.0122
837.00,0.0123
836.00,0.0124
835.00,0.0125
834.00,0.0127
833.00,0.0128
832.00,0.0129
831.00,0.0130
830.00,0.0131
829.00,0.0132
828.00,0.0132
827.00,0.0132
826.00,0.0133
825.00,0.0133
824.00,0.0133
823.00,0.0133
822.00,0.0134
821.00,0.0135
820.00,0.0136
819.00,0.0137
818.00,0.0139
817.00,0.0140
816.00,0.0141
815.00,0.0141
814.00,0.0142
813.00,0.0142
812.00,0.0142
811.00,0.0141
810.00,0.0141
809.00,0.0141
808.00,0.0140
807.00,0.0140
806.00,0.0141
805.00,0.0141
804.00,0.0141
803.00,0.0141
802.00,0.0142
801.00,0.0143
800.00,0.0143
799.00,0.0144
798.00,0.0145
797.00,0.0146
796.00,0.0146
795.00,0.0147
794.00,0.0148
793.00,0.0149
792.00,0.0150
791.00,0.0151
790.00,0.0153
789.00,0.0155
788.00,0.0156
787.00,0.0158
786.00,0.0160
785.00,0.0161
784.00,0.0162
783.00,0.0163
782.00,0.0165
781.00,0.0166
780.00,0.0166
779.00,0.0167
778.00,0.0168
777.00,0.0169
776.00,0.0169
775.00,0.0169
774.00,0.0169
773.00,0.0169
772.00,0.0169
771.00,0.0170
770.00,0.0171
769.00,0.0172
768.00,0.0172
767.00,0.0173
766.00,0.0174
765.00,0.0175
764.00,0.0175
763.00,0.0176
762.00,0.0176
761.00,0.0177
760.00,0.0177
759.00,0.0178
758.00,0.0180
757.00,0.0181
756.00,0.0182
755.00,0.0182
754.00,0.0184
753.00,0.0185
752.00,0.0187
751.00,0.0188
750.00,0.0190
749.00,0.0192
748.00,0.0193
747.00,0.0194
746.00,0.0195
745.00,0.0196
744.00,0.0197
743.00,0.0198
742.00,0.0199
741.00,0.0200
740.00,0.0201
739.00,0.0201
738.00,0.0202
737.00,0.0203
736.00,0.0203
735.00,0.0204
734.00,0.0205
733.00,0.0206
732.00,0.0207
731.00,0.0209
730.00,0.0210
729.00,0.0212
728.00,0.0214
727.00,0.0216
726.00,0.0218
725.00,0.0221
724.00,0.0223
723.00,0.0225
722.00,0.0228
721.00,0.0230
720.00,0.0232
719.00,0.0233
718.00,0.0235
717.00,0.0237
716.00,0.0239
715.00,0.0240
714.00,0.0243
713.00,0.0245
712.00,0.0247
711.00,0.0249
710.00,0.0252
709.00,0.0255
708.00,0.0257
707.00,0.0259
706.00,0.0262
705.00,0.0266
704.00,0.0269
703.00,0.0271
702.00,0.0274
701.00,0.0277
700.00,0.0279
699.00,0.0280
698.00,0.0282
697.00,0.0283
696.00,0.0283
695.00,0.0283
694.00,0.0283
693.00,0.0283
692.00,0.0283
691.00,0.0282
690.00,0.0283
689.00,0.0283
688.00,0.0283
687.00,0.0284
686.00,0.0285
685.00,0.0286
684.00,0.0287
683.00,0.0287
682.00,0.0288
681.00,0.0289
680.00,0.0290
679.00,0.0290
678.00,0.0291
677.00,0.0292
676.00,0.0293
675.00,0.0293
674.00,0.0294
673.00,0.0295
672.00,0.0296
671.00,0.0297
670.00,0.0299
669.00,0.0301
668.00,0.0300
667.00,0.0299
666.00,0.0300
665.00,0.0301
664.00,0.0303
663.00,0.0304
662.00,0.0305
661.00,0.0306
660.00,0.0307
659.00,0.0307
658.00,0.0308
657.00,0.0309
656.00,0.0309
655.00,0.0309
654.00,0.0310
653.00,0.0311
652.00,0.0311
651.00,0.0312
650.00,0.0313
649.00,0.0314
648.00,0.0314
647.00,0.0314
646.00,0.0315
645.00,0.0316
644.00,0.0315
643.00,0.0316
642.00,0.0317
641.00,0.0318
640.00,0.0318
639.00,0.0318
638.00,0.0318
637.00,0.0319
636.00,0.0319
635.00,0.0319
634.00,0.0320
633.00,0.0321
632.00,0.0321
631.00,0.0322
630.00,0.0324
629.00,0.0326
628.00,0.0326
627.00,0.0327
626.00,0.0329
625.00,0.0330
624.00,0.0330
623.00,0.0330
622.00,0.0331
621.00,0.0332
620.00,0.0332
619.00,0.0332
618.00,0.0333
617.00,0.0334
616.00,0.0333
615.00,0.0333
614.00,0.0333
613.00,0.0334
612.00,0.0333
611.00,0.0334
610.00,0.0335
609.00,0.0336
608.00,0.0336
607.00,0.0336
606.00,0.0337
605.00,0.0338
604.00,0.0337
603.00,0.0336
602.00,0.0337
601.00,0.0338
600.00,0.0338
599.00,0.0338
598.00,0.0339
597.00,0.0340
596.00,0.0340
595.00,0.0341
594.00,0.0342
593.00,0.0343
592.00,0.0342
591.00,0.0342
590.00,0.0344
589.00,0.0345
588.00,0.0346
587.00,0.0346
586.00,0.0347
585.00,0.0348
584.00,0.0348
583.00,0.0348
582.00,0.0350
581.00,0.0352
580.00,0.0352
579.00,0.0353
578.00,0.0355
577.00,0.0356
576.00,0.0356
575.00,0.0355
574.00,0.0356
573.00,0.0357
572.00,0.0357
571.00,0.0357
570.00,0.0359
569.00,0.0361
568.00,0.0361
567.00,0.0361
566.00,0.0363
565.00,0.0363
564.00,0.0363
563.00,0.0363
562.00,0.0364
561.00,0.0366
560.00,0.0365
559.00,0.0365
558.00,0.0366
557.00,0.0368
556.00,0.0368
555.00,0.0367
554.00,0.0369
553.00,0.0371
552.00,0.0372
551.00,0.0372
550.00,0.0374
549.00,0.0375
548.00,0.0374
547.00,0.0374
546.00,0.0375
545.00,0.0377
544.00,0.0376
543.00,0.0376
542.00,0.0377
541.00,0.0378
540.00,0.0378
539.00,0.0378
538.00,0.0380
537.00,0.0381
536.00,0.0380
535.00,0.0380
534.00,0.0382
533.00,0.0383
532.00,0.0383
531.00,0.0382
530.00,0.0384
529.00,0.0385
528.00,0.0383
527.00,0.0383
526.00,0.0384
525.00,0.0385
524.00,0.0384
523.00,0.0383
522.00,0.0385
521.00,0.0386
520.00,0.0385
519.00,0.0384
518.00,0.0385
517.00,0.0386
516.00,0.0384
515.00,0.0383
514.00,0.0385
513.00,0.0386
512.00,0.0384
511.00,0.0384
510.00,0.0385
509.00,0.0385
508.00,0.0382
507.00,0.0380
506.00,0.0380
505.00,0.0380
504.00,0.0378
503.00,0.0377
502.00,0.0379
501.00,0.0380
500.00,0.0379
499.00,0.0378
498.00,0.0379
497.00,0.0380
496.00,0.0379
495.00,0.0379
494.00,0.0380
493.00,0.0380
492.00,0.0378
491.00,0.0377
490.00,0.0378
489.00,0.0379
488.00,0.0377
487.00,0.0375
486.00,0.0376
485.00,0.0376
484.00,0.0373
483.00,0.0372
482.00,0.0374
481.00,0.0375
480.00,0.0372
479.00,0.0369
478.00,0.0368
477.00,0.0369
476.00,0.0367
475.00,0.0365
474.00,0.0367
473.00,0.0368
472.00,0.0364
471.00,0.0362
470.00,0.0365
469.00,0.0367
468.00,0.0365
467.00,0.0364
466.00,0.0366
465.00,0.0367
464.00,0.0364
463.00,0.0360
462.00,0.0361
461.00,0.0362
460.00,0.0357
459.00,0.0354
458.00,0.0356
457.00,0.0358
456.00,0.0357
455.00,0.0356
454.00,0.0358
453.00,0.0359
452.00,0.0355
451.00,0.0352
450.00,0.0354
449.00,0.0354
448.00,0.0350
447.00,0.0346
446.00,0.0347
445.00,0.0348
444.00,0.0345
443.00,0.0343
442.00,0.0345
441.00,0.0346
440.00,0.0342
439.00,0.0339
438.00,0.0341
437.00,0.0343
436.00,0.0340
435.00,0.0336
434.00,0.0337
433.00,0.0340
432.00,0.0337
431.00,0.0337
430.00,0.0342
429.00,0.0346
428.00,0.0343
427.00,0.0342
426.00,0.0346
425.00,0.0348
424.00,0.0343
423.00,0.0338
422.00,0.0340
421.00,0.0341
420.00,0.0333
419.00,0.0327
418.00,0.0333
417.00,0.0338
416.00,0.0333
415.00,0.0328
414.00,0.0331
413.00,0.0332
412.00,0.0325
411.00,0.0319
410.00,0.0322
409.00,0.0326
408.00,0.0321
407.00,0.0317
406.00,0.0324
405.00,0.0325
404.00,0.0313
403.00,0.0303
402.00,0.0310
401.00,0.0320
400.00,0.0316
