Created as New Dataset,Sample 263 By YargerLab Date Wednesday, July 24 2024
cm-1,A
4000.00,0.0036
3999.00,0.0036
3998.00,0.0036
3997.00,0.0036
3996.00,0.0036
3995.00,0.0036
3994.00,0.0036
3993.00,0.0036
3992.00,0.0036
3991.00,0.0036
3990.00,0.0035
3989.00,0.0036
3988.00,0.0036
3987.00,0.0036
3986.00,0.0036
3985.00,0.0036
3984.00,0.0035
3983.00,0.0035
3982.00,0.0035
3981.00,0.0035
3980.00,0.0035
3979.00,0.0035
3978.00,0.0035
3977.00,0.0035
3976.00,0.0035
3975.00,0.0035
3974.00,0.0035
3973.00,0.0035
3972.00,0.0035
3971.00,0.0035
3970.00,0.0035
3969.00,0.0035
3968.00,0.0035
3967.00,0.0035
3966.00,0.0035
3965.00,0.0035
3964.00,0.0035
3963.00,0.0035
3962.00,0.0035
3961.00,0.0035
3960.00,0.0035
3959.00,0.0035
3958.00,0.0035
3957.00,0.0035
3956.00,0.0035
3955.00,0.0035
3954.00,0.0035
3953.00,0.0035
3952.00,0.0035
3951.00,0.0035
3950.00,0.0035
3949.00,0.0034
3948.00,0.0034
3947.00,0.0034
3946.00,0.0034
3945.00,0.0034
3944.00,0.0034
3943.00,0.0034
3942.00,0.0034
3941.00,0.0034
3940.00,0.0034
3939.00,0.0034
3938.00,0.0035
3937.00,0.0035
3936.00,0.0035
3935.00,0.0034
3934.00,0.0034
3933.00,0.0034
3932.00,0.0034
3931.00,0.0034
3930.00,0.0034
3929.00,0.0034
3928.00,0.0034
3927.00,0.0034
3926.00,0.0034
3925.00,0.0034
3924.00,0.0034
3923.00,0.0034
3922.00,0.0034
3921.00,0.0034
3920.00,0.0034
3919.00,0.0034
3918.00,0.0034
3917.00,0.0034
3916.00,0.0034
3915.00,0.0034
3914.00,0.0034
3913.00,0.0034
3912.00,0.0034
3911.00,0.0034
3910.00,0.0034
3909.00,0.0034
3908.00,0.0034
3907.00,0.0033
3906.00,0.0033
3905.00,0.0033
3904.00,0.0033
3903.00,0.0033
3902.00,0.0033
3901.00,0.0033
3900.00,0.0033
3899.00,0.0033
3898.00,0.0033
3897.00,0.0033
3896.00,0.0033
3895.00,0.0033
3894.00,0.0033
3893.00,0.0033
3892.00,0.0033
3891.00,0.0033
3890.00,0.0032
3889.00,0.0033
3888.00,0.0033
3887.00,0.0033
3886.00,0.0033
3885.00,0.0033
3884.00,0.0033
3883.00,0.0033
3882.00,0.0033
3881.00,0.0033
3880.00,0.0033
3879.00,0.0033
3878.00,0.0033
3877.00,0.0033
3876.00,0.0033
3875.00,0.0033
3874.00,0.0032
3873.00,0.0032
3872.00,0.0033
3871.00,0.0032
3870.00,0.0032
3869.00,0.0032
3868.00,0.0032
3867.00,0.0032
3866.00,0.0033
3865.00,0.0032
3864.00,0.0032
3863.00,0.0032
3862.00,0.0032
3861.00,0.0032
3860.00,0.0032
3859.00,0.0032
3858.00,0.0032
3857.00,0.0031
3856.00,0.0031
3855.00,0.0032
3854.00,0.0032
3853.00,0.0032
3852.00,0.0032
3851.00,0.0032
3850.00,0.0032
3849.00,0.0032
3848.00,0.0032
3847.00,0.0032
3846.00,0.0032
3845.00,0.0032
3844.00,0.0032
3843.00,0.0032
3842.00,0.0032
3841.00,0.0032
3840.00,0.0032
3839.00,0.0031
3838.00,0.0031
3837.00,0.0031
3836.00,0.0031
3835.00,0.0031
3834.00,0.0031
3833.00,0.0031
3832.00,0.0031
3831.00,0.0031
3830.00,0.0031
3829.00,0.0031
3828.00,0.0031
3827.00,0.0031
3826.00,0.0031
3825.00,0.0031
3824.00,0.0031
3823.00,0.0031
3822.00,0.0031
3821.00,0.0031
3820.00,0.0031
3819.00,0.0031
3818.00,0.0031
3817.00,0.0031
3816.00,0.0031
3815.00,0.0031
3814.00,0.0031
3813.00,0.0031
3812.00,0.0031
3811.00,0.0031
3810.00,0.0031
3809.00,0.0031
3808.00,0.0031
3807.00,0.0031
3806.00,0.0031
3805.00,0.0031
3804.00,0.0031
3803.00,0.0031
3802.00,0.0031
3801.00,0.0030
3800.00,0.0030
3799.00,0.0031
3798.00,0.0031
3797.00,0.0031
3796.00,0.0031
3795.00,0.0031
3794.00,0.0031
3793.00,0.0031
3792.00,0.0031
3791.00,0.0031
3790.00,0.0031
3789.00,0.0031
3788.00,0.0031
3787.00,0.0031
3786.00,0.0031
3785.00,0.0031
3784.00,0.0031
3783.00,0.0031
3782.00,0.0031
3781.00,0.0031
3780.00,0.0031
3779.00,0.0031
3778.00,0.0031
3777.00,0.0031
3776.00,0.0031
3775.00,0.0031
3774.00,0.0031
3773.00,0.0030
3772.00,0.0030
3771.00,0.0030
3770.00,0.0030
3769.00,0.0030
3768.00,0.0030
3767.00,0.0030
3766.00,0.0030
3765.00,0.0030
3764.00,0.0030
3763.00,0.0030
3762.00,0.0030
3761.00,0.0030
3760.00,0.0030
3759.00,0.0030
3758.00,0.0030
3757.00,0.0030
3756.00,0.0030
3755.00,0.0030
3754.00,0.0030
3753.00,0.0030
3752.00,0.0030
3751.00,0.0030
3750.00,0.0030
3749.00,0.0030
3748.00,0.0030
3747.00,0.0030
3746.00,0.0030
3745.00,0.0030
3744.00,0.0030
3743.00,0.0030
3742.00,0.0030
3741.00,0.0030
3740.00,0.0030
3739.00,0.0030
3738.00,0.0030
3737.00,0.0030
3736.00,0.0030
3735.00,0.0030
3734.00,0.0030
3733.00,0.0030
3732.00,0.0030
3731.00,0.0030
3730.00,0.0030
3729.00,0.0030
3728.00,0.0030
3727.00,0.0030
3726.00,0.0030
3725.00,0.0029
3724.00,0.0029
3723.00,0.0029
3722.00,0.0029
3721.00,0.0029
3720.00,0.0029
3719.00,0.0029
3718.00,0.0029
3717.00,0.0029
3716.00,0.0029
3715.00,0.0029
3714.00,0.0030
3713.00,0.0030
3712.00,0.0030
3711.00,0.0030
3710.00,0.0030
3709.00,0.0030
3708.00,0.0030
3707.00,0.0030
3706.00,0.0030
3705.00,0.0030
3704.00,0.0030
3703.00,0.0030
3702.00,0.0030
3701.00,0.0030
3700.00,0.0030
3699.00,0.0030
3698.00,0.0030
3697.00,0.0030
3696.00,0.0030
3695.00,0.0030
3694.00,0.0030
3693.00,0.0030
3692.00,0.0030
3691.00,0.0030
3690.00,0.0030
3689.00,0.0029
3688.00,0.0029
3687.00,0.0029
3686.00,0.0029
3685.00,0.0029
3684.00,0.0029
3683.00,0.0029
3682.00,0.0030
3681.00,0.0029
3680.00,0.0029
3679.00,0.0029
3678.00,0.0029
3677.00,0.0029
3676.00,0.0028
3675.00,0.0028
3674.00,0.0028
3673.00,0.0028
3672.00,0.0028
3671.00,0.0028
3670.00,0.0028
3669.00,0.0028
3668.00,0.0029
3667.00,0.0029
3666.00,0.0029
3665.00,0.0029
3664.00,0.0029
3663.00,0.0029
3662.00,0.0029
3661.00,0.0029
3660.00,0.0029
3659.00,0.0030
3658.00,0.0030
3657.00,0.0030
3656.00,0.0030
3655.00,0.0030
3654.00,0.0030
3653.00,0.0031
3652.00,0.0031
3651.00,0.0031
3650.00,0.0031
3649.00,0.0032
3648.00,0.0032
3647.00,0.0033
3646.00,0.0033
3645.00,0.0033
3644.00,0.0034
3643.00,0.0034
3642.00,0.0035
3641.00,0.0035
3640.00,0.0035
3639.00,0.0036
3638.00,0.0036
3637.00,0.0036
3636.00,0.0037
3635.00,0.0037
3634.00,0.0038
3633.00,0.0038
3632.00,0.0039
3631.00,0.0039
3630.00,0.0040
3629.00,0.0040
3628.00,0.0041
3627.00,0.0041
3626.00,0.0041
3625.00,0.0042
3624.00,0.0042
3623.00,0.0042
3622.00,0.0043
3621.00,0.0043
3620.00,0.0044
3619.00,0.0044
3618.00,0.0044
3617.00,0.0045
3616.00,0.0045
3615.00,0.0045
3614.00,0.0046
3613.00,0.0046
3612.00,0.0046
3611.00,0.0047
3610.00,0.0047
3609.00,0.0048
3608.00,0.0048
3607.00,0.0049
3606.00,0.0049
3605.00,0.0049
3604.00,0.0049
3603.00,0.0050
3602.00,0.0050
3601.00,0.0050
3600.00,0.0051
3599.00,0.0051
3598.00,0.0052
3597.00,0.0052
3596.00,0.0052
3595.00,0.0053
3594.00,0.0053
3593.00,0.0053
3592.00,0.0054
3591.00,0.0054
3590.00,0.0054
3589.00,0.0055
3588.00,0.0055
3587.00,0.0056
3586.00,0.0056
3585.00,0.0057
3584.00,0.0057
3583.00,0.0057
3582.00,0.0058
3581.00,0.0058
3580.00,0.0059
3579.00,0.0059
3578.00,0.0059
3577.00,0.0060
3576.00,0.0060
3575.00,0.0061
3574.00,0.0061
3573.00,0.0062
3572.00,0.0062
3571.00,0.0062
3570.00,0.0063
3569.00,0.0063
3568.00,0.0064
3567.00,0.0064
3566.00,0.0065
3565.00,0.0065
3564.00,0.0066
3563.00,0.0066
3562.00,0.0067
3561.00,0.0067
3560.00,0.0068
3559.00,0.0068
3558.00,0.0068
3557.00,0.0069
3556.00,0.0069
3555.00,0.0069
3554.00,0.0070
3553.00,0.0070
3552.00,0.0071
3551.00,0.0072
3550.00,0.0072
3549.00,0.0072
3548.00,0.0073
3547.00,0.0073
3546.00,0.0073
3545.00,0.0074
3544.00,0.0074
3543.00,0.0075
3542.00,0.0075
3541.00,0.0076
3540.00,0.0076
3539.00,0.0077
3538.00,0.0077
3537.00,0.0077
3536.00,0.0078
3535.00,0.0078
3534.00,0.0079
3533.00,0.0079
3532.00,0.0079
3531.00,0.0080
3530.00,0.0080
3529.00,0.0081
3528.00,0.0081
3527.00,0.0082
3526.00,0.0082
3525.00,0.0082
3524.00,0.0083
3523.00,0.0083
3522.00,0.0084
3521.00,0.0084
3520.00,0.0084
3519.00,0.0085
3518.00,0.0085
3517.00,0.0085
3516.00,0.0086
3515.00,0.0086
3514.00,0.0087
3513.00,0.0087
3512.00,0.0087
3511.00,0.0088
3510.00,0.0088
3509.00,0.0089
3508.00,0.0089
3507.00,0.0089
3506.00,0.0090
3505.00,0.0090
3504.00,0.0091
3503.00,0.0091
3502.00,0.0091
3501.00,0.0092
3500.00,0.0092
3499.00,0.0092
3498.00,0.0093
3497.00,0.0093
3496.00,0.0094
3495.00,0.0094
3494.00,0.0094
3493.00,0.0095
3492.00,0.0095
3491.00,0.0096
3490.00,0.0096
3489.00,0.0096
3488.00,0.0097
3487.00,0.0097
3486.00,0.0097
3485.00,0.0098
3484.00,0.0098
3483.00,0.0098
3482.00,0.0098
3481.00,0.0099
3480.00,0.0099
3479.00,0.0099
3478.00,0.0099
3477.00,0.0100
3476.00,0.0100
3475.00,0.0101
3474.00,0.0101
3473.00,0.0101
3472.00,0.0102
3471.00,0.0102
3470.00,0.0103
3469.00,0.0103
3468.00,0.0103
3467.00,0.0104
3466.00,0.0104
3465.00,0.0104
3464.00,0.0104
3463.00,0.0105
3462.00,0.0105
3461.00,0.0105
3460.00,0.0106
3459.00,0.0106
3458.00,0.0106
3457.00,0.0106
3456.00,0.0107
3455.00,0.0107
3454.00,0.0108
3453.00,0.0108
3452.00,0.0108
3451.00,0.0108
3450.00,0.0108
3449.00,0.0109
3448.00,0.0109
3447.00,0.0110
3446.00,0.0110
3445.00,0.0110
3444.00,0.0111
3443.00,0.0111
3442.00,0.0112
3441.00,0.0112
3440.00,0.0113
3439.00,0.0113
3438.00,0.0113
3437.00,0.0114
3436.00,0.0114
3435.00,0.0114
3434.00,0.0115
3433.00,0.0115
3432.00,0.0116
3431.00,0.0116
3430.00,0.0117
3429.00,0.0117
3428.00,0.0118
3427.00,0.0118
3426.00,0.0118
3425.00,0.0119
3424.00,0.0119
3423.00,0.0120
3422.00,0.0120
3421.00,0.0121
3420.00,0.0121
3419.00,0.0122
3418.00,0.0122
3417.00,0.0123
3416.00,0.0123
3415.00,0.0124
3414.00,0.0124
3413.00,0.0125
3412.00,0.0126
3411.00,0.0126
3410.00,0.0127
3409.00,0.0127
3408.00,0.0128
3407.00,0.0128
3406.00,0.0129
3405.00,0.0129
3404.00,0.0130
3403.00,0.0130
3402.00,0.0131
3401.00,0.0131
3400.00,0.0132
3399.00,0.0132
3398.00,0.0133
3397.00,0.0133
3396.00,0.0134
3395.00,0.0134
3394.00,0.0135
3393.00,0.0135
3392.00,0.0136
3391.00,0.0136
3390.00,0.0137
3389.00,0.0137
3388.00,0.0138
3387.00,0.0138
3386.00,0.0139
3385.00,0.0139
3384.00,0.0140
3383.00,0.0140
3382.00,0.0141
3381.00,0.0141
3380.00,0.0142
3379.00,0.0142
3378.00,0.0143
3377.00,0.0144
3376.00,0.0145
3375.00,0.0145
3374.00,0.0146
3373.00,0.0146
3372.00,0.0147
3371.00,0.0148
3370.00,0.0148
3369.00,0.0149
3368.00,0.0150
3367.00,0.0151
3366.00,0.0151
3365.00,0.0152
3364.00,0.0153
3363.00,0.0154
3362.00,0.0155
3361.00,0.0156
3360.00,0.0157
3359.00,0.0158
3358.00,0.0159
3357.00,0.0161
3356.00,0.0162
3355.00,0.0163
3354.00,0.0164
3353.00,0.0165
3352.00,0.0166
3351.00,0.0167
3350.00,0.0168
3349.00,0.0170
3348.00,0.0171
3347.00,0.0173
3346.00,0.0174
3345.00,0.0175
3344.00,0.0177
3343.00,0.0178
3342.00,0.0179
3341.00,0.0181
3340.00,0.0182
3339.00,0.0184
3338.00,0.0186
3337.00,0.0188
3336.00,0.0190
3335.00,0.0192
3334.00,0.0194
3333.00,0.0196
3332.00,0.0198
3331.00,0.0200
3330.00,0.0202
3329.00,0.0205
3328.00,0.0207
3327.00,0.0209
3326.00,0.0211
3325.00,0.0214
3324.00,0.0216
3323.00,0.0219
3322.00,0.0222
3321.00,0.0224
3320.00,0.0227
3319.00,0.0229
3318.00,0.0232
3317.00,0.0235
3316.00,0.0238
3315.00,0.0240
3314.00,0.0243
3313.00,0.0246
3312.00,0.0249
3311.00,0.0251
3310.00,0.0254
3309.00,0.0257
3308.00,0.0260
3307.00,0.0262
3306.00,0.0265
3305.00,0.0269
3304.00,0.0272
3303.00,0.0276
3302.00,0.0279
3301.00,0.0282
3300.00,0.0285
3299.00,0.0287
3298.00,0.0290
3297.00,0.0292
3296.00,0.0294
3295.00,0.0296
3294.00,0.0299
3293.00,0.0301
3292.00,0.0303
3291.00,0.0305
3290.00,0.0307
3289.00,0.0309
3288.00,0.0310
3287.00,0.0311
3286.00,0.0312
3285.00,0.0312
3284.00,0.0313
3283.00,0.0313
3282.00,0.0313
3281.00,0.0312
3280.00,0.0312
3279.00,0.0311
3278.00,0.0310
3277.00,0.0308
3276.00,0.0307
3275.00,0.0305
3274.00,0.0303
3273.00,0.0301
3272.00,0.0299
3271.00,0.0297
3270.00,0.0295
3269.00,0.0293
3268.00,0.0291
3267.00,0.0289
3266.00,0.0286
3265.00,0.0283
3264.00,0.0281
3263.00,0.0278
3262.00,0.0276
3261.00,0.0273
3260.00,0.0271
3259.00,0.0268
3258.00,0.0265
3257.00,0.0263
3256.00,0.0260
3255.00,0.0258
3254.00,0.0256
3253.00,0.0254
3252.00,0.0252
3251.00,0.0250
3250.00,0.0248
3249.00,0.0245
3248.00,0.0243
3247.00,0.0241
3246.00,0.0240
3245.00,0.0238
3244.00,0.0237
3243.00,0.0235
3242.00,0.0234
3241.00,0.0232
3240.00,0.0230
3239.00,0.0228
3238.00,0.0227
3237.00,0.0225
3236.00,0.0223
3235.00,0.0221
3234.00,0.0220
3233.00,0.0218
3232.00,0.0217
3231.00,0.0217
3230.00,0.0216
3229.00,0.0215
3228.00,0.0213
3227.00,0.0212
3226.00,0.0211
3225.00,0.0209
3224.00,0.0208
3223.00,0.0207
3222.00,0.0206
3221.00,0.0204
3220.00,0.0203
3219.00,0.0202
3218.00,0.0201
3217.00,0.0200
3216.00,0.0199
3215.00,0.0198
3214.00,0.0196
3213.00,0.0195
3212.00,0.0194
3211.00,0.0193
3210.00,0.0192
3209.00,0.0191
3208.00,0.0190
3207.00,0.0189
3206.00,0.0188
3205.00,0.0186
3204.00,0.0185
3203.00,0.0184
3202.00,0.0183
3201.00,0.0182
3200.00,0.0181
3199.00,0.0180
3198.00,0.0179
3197.00,0.0178
3196.00,0.0177
3195.00,0.0176
3194.00,0.0175
3193.00,0.0174
3192.00,0.0172
3191.00,0.0171
3190.00,0.0170
3189.00,0.0169
3188.00,0.0168
3187.00,0.0167
3186.00,0.0166
3185.00,0.0165
3184.00,0.0164
3183.00,0.0163
3182.00,0.0162
3181.00,0.0161
3180.00,0.0160
3179.00,0.0159
3178.00,0.0158
3177.00,0.0157
3176.00,0.0156
3175.00,0.0155
3174.00,0.0153
3173.00,0.0152
3172.00,0.0151
3171.00,0.0151
3170.00,0.0150
3169.00,0.0149
3168.00,0.0148
3167.00,0.0147
3166.00,0.0146
3165.00,0.0145
3164.00,0.0144
3163.00,0.0143
3162.00,0.0142
3161.00,0.0141
3160.00,0.0140
3159.00,0.0139
3158.00,0.0138
3157.00,0.0137
3156.00,0.0136
3155.00,0.0135
3154.00,0.0134
3153.00,0.0134
3152.00,0.0133
3151.00,0.0133
3150.00,0.0132
3149.00,0.0131
3148.00,0.0131
3147.00,0.0130
3146.00,0.0130
3145.00,0.0129
3144.00,0.0128
3143.00,0.0128
3142.00,0.0127
3141.00,0.0126
3140.00,0.0126
3139.00,0.0125
3138.00,0.0124
3137.00,0.0124
3136.00,0.0124
3135.00,0.0123
3134.00,0.0123
3133.00,0.0123
3132.00,0.0122
3131.00,0.0122
3130.00,0.0122
3129.00,0.0121
3128.00,0.0121
3127.00,0.0121
3126.00,0.0121
3125.00,0.0120
3124.00,0.0120
3123.00,0.0119
3122.00,0.0119
3121.00,0.0119
3120.00,0.0118
3119.00,0.0118
3118.00,0.0118
3117.00,0.0118
3116.00,0.0118
3115.00,0.0119
3114.00,0.0119
3113.00,0.0119
3112.00,0.0119
3111.00,0.0119
3110.00,0.0119
3109.00,0.0119
3108.00,0.0119
3107.00,0.0120
3106.00,0.0120
3105.00,0.0120
3104.00,0.0120
3103.00,0.0121
3102.00,0.0121
3101.00,0.0121
3100.00,0.0121
3099.00,0.0121
3098.00,0.0122
3097.00,0.0122
3096.00,0.0122
3095.00,0.0123
3094.00,0.0123
3093.00,0.0123
3092.00,0.0123
3091.00,0.0123
3090.00,0.0123
3089.00,0.0123
3088.00,0.0123
3087.00,0.0124
3086.00,0.0124
3085.00,0.0124
3084.00,0.0124
3083.00,0.0124
3082.00,0.0124
3081.00,0.0124
3080.00,0.0125
3079.00,0.0125
3078.00,0.0125
3077.00,0.0126
3076.00,0.0126
3075.00,0.0127
3074.00,0.0127
3073.00,0.0127
3072.00,0.0127
3071.00,0.0127
3070.00,0.0126
3069.00,0.0125
3068.00,0.0125
3067.00,0.0125
3066.00,0.0125
3065.00,0.0124
3064.00,0.0124
3063.00,0.0124
3062.00,0.0124
3061.00,0.0123
3060.00,0.0123
3059.00,0.0122
3058.00,0.0122
3057.00,0.0121
3056.00,0.0120
3055.00,0.0120
3054.00,0.0119
3053.00,0.0118
3052.00,0.0117
3051.00,0.0116
3050.00,0.0116
3049.00,0.0115
3048.00,0.0115
3047.00,0.0114
3046.00,0.0113
3045.00,0.0112
3044.00,0.0111
3043.00,0.0111
3042.00,0.0110
3041.00,0.0110
3040.00,0.0110
3039.00,0.0109
3038.00,0.0109
3037.00,0.0108
3036.00,0.0107
3035.00,0.0106
3034.00,0.0105
3033.00,0.0105
3032.00,0.0104
3031.00,0.0104
3030.00,0.0103
3029.00,0.0103
3028.00,0.0102
3027.00,0.0102
3026.00,0.0101
3025.00,0.0100
3024.00,0.0100
3023.00,0.0099
3022.00,0.0098
3021.00,0.0098
3020.00,0.0097
3019.00,0.0096
3018.00,0.0095
3017.00,0.0094
3016.00,0.0093
3015.00,0.0092
3014.00,0.0091
3013.00,0.0090
3012.00,0.0090
3011.00,0.0089
3010.00,0.0089
3009.00,0.0088
3008.00,0.0088
3007.00,0.0087
3006.00,0.0086
3005.00,0.0084
3004.00,0.0083
3003.00,0.0082
3002.00,0.0081
3001.00,0.0080
3000.00,0.0079
2999.00,0.0078
2998.00,0.0078
2997.00,0.0078
2996.00,0.0078
2995.00,0.0078
2994.00,0.0077
2993.00,0.0077
2992.00,0.0078
2991.00,0.0078
2990.00,0.0078
2989.00,0.0079
2988.00,0.0079
2987.00,0.0079
2986.00,0.0078
2985.00,0.0076
2984.00,0.0073
2983.00,0.0071
2982.00,0.0069
2981.00,0.0069
2980.00,0.0071
2979.00,0.0073
2978.00,0.0075
2977.00,0.0077
2976.00,0.0079
2975.00,0.0080
2974.00,0.0081
2973.00,0.0081
2972.00,0.0082
2971.00,0.0083
2970.00,0.0084
2969.00,0.0086
2968.00,0.0088
2967.00,0.0090
2966.00,0.0091
2965.00,0.0092
2964.00,0.0093
2963.00,0.0093
2962.00,0.0094
2961.00,0.0095
2960.00,0.0095
2959.00,0.0096
2958.00,0.0096
2957.00,0.0097
2956.00,0.0097
2955.00,0.0097
2954.00,0.0097
2953.00,0.0097
2952.00,0.0097
2951.00,0.0097
2950.00,0.0098
2949.00,0.0098
2948.00,0.0099
2947.00,0.0100
2946.00,0.0101
2945.00,0.0102
2944.00,0.0104
2943.00,0.0106
2942.00,0.0107
2941.00,0.0109
2940.00,0.0111
2939.00,0.0112
2938.00,0.0114
2937.00,0.0116
2936.00,0.0118
2935.00,0.0119
2934.00,0.0120
2933.00,0.0122
2932.00,0.0123
2931.00,0.0124
2930.00,0.0126
2929.00,0.0127
2928.00,0.0129
2927.00,0.0130
2926.00,0.0132
2925.00,0.0134
2924.00,0.0136
2923.00,0.0137
2922.00,0.0139
2921.00,0.0140
2920.00,0.0141
2919.00,0.0142
2918.00,0.0142
2917.00,0.0140
2916.00,0.0138
2915.00,0.0134
2914.00,0.0130
2913.00,0.0125
2912.00,0.0121
2911.00,0.0117
2910.00,0.0113
2909.00,0.0110
2908.00,0.0108
2907.00,0.0106
2906.00,0.0104
2905.00,0.0102
2904.00,0.0101
2903.00,0.0100
2902.00,0.0099
2901.00,0.0097
2900.00,0.0096
2899.00,0.0095
2898.00,0.0094
2897.00,0.0093
2896.00,0.0092
2895.00,0.0091
2894.00,0.0090
2893.00,0.0089
2892.00,0.0088
2891.00,0.0087
2890.00,0.0086
2889.00,0.0086
2888.00,0.0085
2887.00,0.0085
2886.00,0.0085
2885.00,0.0085
2884.00,0.0084
2883.00,0.0085
2882.00,0.0085
2881.00,0.0086
2880.00,0.0086
2879.00,0.0087
2878.00,0.0088
2877.00,0.0088
2876.00,0.0088
2875.00,0.0088
2874.00,0.0088
2873.00,0.0088
2872.00,0.0088
2871.00,0.0088
2870.00,0.0088
2869.00,0.0088
2868.00,0.0087
2867.00,0.0087
2866.00,0.0087
2865.00,0.0087
2864.00,0.0087
2863.00,0.0087
2862.00,0.0087
2861.00,0.0088
2860.00,0.0089
2859.00,0.0090
2858.00,0.0091
2857.00,0.0093
2856.00,0.0094
2855.00,0.0097
2854.00,0.0099
2853.00,0.0101
2852.00,0.0104
2851.00,0.0105
2850.00,0.0105
2849.00,0.0104
2848.00,0.0101
2847.00,0.0098
2846.00,0.0094
2845.00,0.0090
2844.00,0.0087
2843.00,0.0084
2842.00,0.0082
2841.00,0.0080
2840.00,0.0078
2839.00,0.0077
2838.00,0.0076
2837.00,0.0075
2836.00,0.0074
2835.00,0.0073
2834.00,0.0073
2833.00,0.0072
2832.00,0.0072
2831.00,0.0071
2830.00,0.0071
2829.00,0.0071
2828.00,0.0070
2827.00,0.0070
2826.00,0.0070
2825.00,0.0070
2824.00,0.0069
2823.00,0.0069
2822.00,0.0069
2821.00,0.0069
2820.00,0.0069
2819.00,0.0068
2818.00,0.0068
2817.00,0.0068
2816.00,0.0068
2815.00,0.0068
2814.00,0.0067
2813.00,0.0067
2812.00,0.0067
2811.00,0.0067
2810.00,0.0066
2809.00,0.0066
2808.00,0.0066
2807.00,0.0066
2806.00,0.0066
2805.00,0.0066
2804.00,0.0065
2803.00,0.0065
2802.00,0.0065
2801.00,0.0065
2800.00,0.0065
2799.00,0.0064
2798.00,0.0064
2797.00,0.0064
2796.00,0.0064
2795.00,0.0063
2794.00,0.0063
2793.00,0.0063
2792.00,0.0063
2791.00,0.0063
2790.00,0.0062
2789.00,0.0062
2788.00,0.0062
2787.00,0.0062
2786.00,0.0062
2785.00,0.0062
2784.00,0.0062
2783.00,0.0061
2782.00,0.0061
2781.00,0.0061
2780.00,0.0061
2779.00,0.0061
2778.00,0.0060
2777.00,0.0060
2776.00,0.0060
2775.00,0.0060
2774.00,0.0060
2773.00,0.0059
2772.00,0.0059
2771.00,0.0059
2770.00,0.0059
2769.00,0.0059
2768.00,0.0059
2767.00,0.0059
2766.00,0.0059
2765.00,0.0058
2764.00,0.0058
2763.00,0.0058
2762.00,0.0058
2761.00,0.0058
2760.00,0.0058
2759.00,0.0058
2758.00,0.0057
2757.00,0.0057
2756.00,0.0057
2755.00,0.0057
2754.00,0.0057
2753.00,0.0056
2752.00,0.0056
2751.00,0.0056
2750.00,0.0056
2749.00,0.0056
2748.00,0.0055
2747.00,0.0055
2746.00,0.0055
2745.00,0.0055
2744.00,0.0055
2743.00,0.0055
2742.00,0.0055
2741.00,0.0055
2740.00,0.0055
2739.00,0.0054
2738.00,0.0054
2737.00,0.0054
2736.00,0.0054
2735.00,0.0054
2734.00,0.0054
2733.00,0.0053
2732.00,0.0053
2731.00,0.0053
2730.00,0.0053
2729.00,0.0053
2728.00,0.0053
2727.00,0.0052
2726.00,0.0052
2725.00,0.0052
2724.00,0.0052
2723.00,0.0052
2722.00,0.0052
2721.00,0.0051
2720.00,0.0051
2719.00,0.0051
2718.00,0.0051
2717.00,0.0051
2716.00,0.0051
2715.00,0.0050
2714.00,0.0050
2713.00,0.0050
2712.00,0.0050
2711.00,0.0050
2710.00,0.0050
2709.00,0.0050
2708.00,0.0050
2707.00,0.0050
2706.00,0.0049
2705.00,0.0049
2704.00,0.0049
2703.00,0.0049
2702.00,0.0049
2701.00,0.0048
2700.00,0.0048
2699.00,0.0048
2698.00,0.0048
2697.00,0.0048
2696.00,0.0048
2695.00,0.0048
2694.00,0.0048
2693.00,0.0048
2692.00,0.0048
2691.00,0.0048
2690.00,0.0048
2689.00,0.0047
2688.00,0.0047
2687.00,0.0047
2686.00,0.0047
2685.00,0.0047
2684.00,0.0047
2683.00,0.0047
2682.00,0.0047
2681.00,0.0046
2680.00,0.0046
2679.00,0.0046
2678.00,0.0046
2677.00,0.0046
2676.00,0.0046
2675.00,0.0046
2674.00,0.0046
2673.00,0.0046
2672.00,0.0045
2671.00,0.0045
2670.00,0.0045
2669.00,0.0045
2668.00,0.0045
2667.00,0.0045
2666.00,0.0045
2665.00,0.0044
2664.00,0.0044
2663.00,0.0044
2662.00,0.0044
2661.00,0.0044
2660.00,0.0044
2659.00,0.0044
2658.00,0.0044
2657.00,0.0044
2656.00,0.0044
2655.00,0.0044
2654.00,0.0044
2653.00,0.0044
2652.00,0.0044
2651.00,0.0044
2650.00,0.0044
2649.00,0.0044
2648.00,0.0044
2647.00,0.0044
2646.00,0.0044
2645.00,0.0044
2644.00,0.0044
2643.00,0.0044
2642.00,0.0044
2641.00,0.0044
2640.00,0.0044
2639.00,0.0044
2638.00,0.0044
2637.00,0.0044
2636.00,0.0044
2635.00,0.0044
2634.00,0.0044
2633.00,0.0044
2632.00,0.0044
2631.00,0.0044
2630.00,0.0044
2629.00,0.0044
2628.00,0.0044
2627.00,0.0044
2626.00,0.0044
2625.00,0.0044
2624.00,0.0044
2623.00,0.0044
2622.00,0.0044
2621.00,0.0044
2620.00,0.0044
2619.00,0.0044
2618.00,0.0045
2617.00,0.0045
2616.00,0.0045
2615.00,0.0044
2614.00,0.0044
2613.00,0.0044
2612.00,0.0044
2611.00,0.0044
2610.00,0.0044
2609.00,0.0044
2608.00,0.0044
2607.00,0.0044
2606.00,0.0044
2605.00,0.0044
2604.00,0.0044
2603.00,0.0044
2602.00,0.0044
2601.00,0.0044
2600.00,0.0044
2599.00,0.0044
2598.00,0.0044
2597.00,0.0043
2596.00,0.0043
2595.00,0.0043
2594.00,0.0043
2593.00,0.0043
2592.00,0.0043
2591.00,0.0043
2590.00,0.0043
2589.00,0.0043
2588.00,0.0043
2587.00,0.0043
2586.00,0.0043
2585.00,0.0043
2584.00,0.0043
2583.00,0.0043
2582.00,0.0043
2581.00,0.0043
2580.00,0.0043
2579.00,0.0042
2578.00,0.0042
2577.00,0.0042
2576.00,0.0042
2575.00,0.0042
2574.00,0.0042
2573.00,0.0042
2572.00,0.0042
2571.00,0.0041
2570.00,0.0041
2569.00,0.0041
2568.00,0.0042
2567.00,0.0042
2566.00,0.0042
2565.00,0.0041
2564.00,0.0041
2563.00,0.0041
2562.00,0.0041
2561.00,0.0041
2560.00,0.0041
2559.00,0.0041
2558.00,0.0040
2557.00,0.0040
2556.00,0.0040
2555.00,0.0041
2554.00,0.0040
2553.00,0.0040
2552.00,0.0040
2551.00,0.0040
2550.00,0.0040
2549.00,0.0040
2548.00,0.0040
2547.00,0.0040
2546.00,0.0040
2545.00,0.0040
2544.00,0.0040
2543.00,0.0040
2542.00,0.0039
2541.00,0.0039
2540.00,0.0039
2539.00,0.0039
2538.00,0.0039
2537.00,0.0039
2536.00,0.0039
2535.00,0.0039
2534.00,0.0039
2533.00,0.0039
2532.00,0.0039
2531.00,0.0039
2530.00,0.0039
2529.00,0.0039
2528.00,0.0039
2527.00,0.0039
2526.00,0.0039
2525.00,0.0039
2524.00,0.0039
2523.00,0.0039
2522.00,0.0039
2521.00,0.0039
2520.00,0.0038
2519.00,0.0038
2518.00,0.0038
2517.00,0.0038
2516.00,0.0038
2515.00,0.0038
2514.00,0.0038
2513.00,0.0038
2512.00,0.0038
2511.00,0.0038
2510.00,0.0038
2509.00,0.0038
2508.00,0.0038
2507.00,0.0038
2506.00,0.0038
2505.00,0.0037
2504.00,0.0037
2503.00,0.0037
2502.00,0.0037
2501.00,0.0037
2500.00,0.0038
2499.00,0.0038
2498.00,0.0038
2497.00,0.0038
2496.00,0.0038
2495.00,0.0038
2494.00,0.0038
2493.00,0.0037
2492.00,0.0037
2491.00,0.0037
2490.00,0.0037
2489.00,0.0037
2488.00,0.0038
2487.00,0.0037
2486.00,0.0037
2485.00,0.0037
2484.00,0.0037
2483.00,0.0036
2482.00,0.0036
2481.00,0.0036
2480.00,0.0036
2479.00,0.0036
2478.00,0.0036
2477.00,0.0036
2476.00,0.0036
2475.00,0.0036
2474.00,0.0036
2473.00,0.0036
2472.00,0.0036
2471.00,0.0035
2470.00,0.0035
2469.00,0.0035
2468.00,0.0036
2467.00,0.0036
2466.00,0.0036
2465.00,0.0035
2464.00,0.0035
2463.00,0.0035
2462.00,0.0035
2461.00,0.0035
2460.00,0.0035
2459.00,0.0035
2458.00,0.0035
2457.00,0.0035
2456.00,0.0035
2455.00,0.0035
2454.00,0.0035
2453.00,0.0035
2452.00,0.0035
2451.00,0.0034
2450.00,0.0034
2449.00,0.0034
2448.00,0.0034
2447.00,0.0034
2446.00,0.0034
2445.00,0.0034
2444.00,0.0034
2443.00,0.0034
2442.00,0.0034
2441.00,0.0034
2440.00,0.0034
2439.00,0.0034
2438.00,0.0034
2437.00,0.0034
2436.00,0.0034
2435.00,0.0034
2434.00,0.0034
2433.00,0.0034
2432.00,0.0034
2431.00,0.0033
2430.00,0.0034
2429.00,0.0034
2428.00,0.0034
2427.00,0.0034
2426.00,0.0033
2425.00,0.0033
2424.00,0.0033
2423.00,0.0033
2422.00,0.0033
2421.00,0.0033
2420.00,0.0033
2419.00,0.0033
2418.00,0.0033
2417.00,0.0033
2416.00,0.0033
2415.00,0.0032
2414.00,0.0032
2413.00,0.0032
2412.00,0.0032
2411.00,0.0032
2410.00,0.0032
2409.00,0.0032
2408.00,0.0032
2407.00,0.0032
2406.00,0.0031
2405.00,0.0031
2404.00,0.0031
2403.00,0.0032
2402.00,0.0032
2401.00,0.0032
2400.00,0.0031
2399.00,0.0031
2398.00,0.0031
2397.00,0.0031
2396.00,0.0031
2395.00,0.0031
2394.00,0.0030
2393.00,0.0030
2392.00,0.0030
2391.00,0.0030
2390.00,0.0031
2389.00,0.0031
2388.00,0.0031
2387.00,0.0031
2386.00,0.0031
2385.00,0.0030
2384.00,0.0030
2383.00,0.0030
2382.00,0.0030
2381.00,0.0030
2380.00,0.0030
2379.00,0.0030
2378.00,0.0030
2377.00,0.0030
2376.00,0.0030
2375.00,0.0030
2374.00,0.0030
2373.00,0.0030
2372.00,0.0030
2371.00,0.0030
2370.00,0.0030
2369.00,0.0030
2368.00,0.0030
2367.00,0.0030
2366.00,0.0029
2365.00,0.0029
2364.00,0.0029
2363.00,0.0029
2362.00,0.0029
2361.00,0.0029
2360.00,0.0029
2359.00,0.0029
2358.00,0.0029
2357.00,0.0029
2356.00,0.0029
2355.00,0.0029
2354.00,0.0028
2353.00,0.0028
2352.00,0.0028
2351.00,0.0028
2350.00,0.0028
2349.00,0.0028
2348.00,0.0028
2347.00,0.0028
2346.00,0.0028
2345.00,0.0027
2344.00,0.0027
2343.00,0.0027
2342.00,0.0027
2341.00,0.0027
2340.00,0.0027
2339.00,0.0027
2338.00,0.0027
2337.00,0.0027
2336.00,0.0027
2335.00,0.0027
2334.00,0.0027
2333.00,0.0027
2332.00,0.0027
2331.00,0.0027
2330.00,0.0027
2329.00,0.0027
2328.00,0.0026
2327.00,0.0026
2326.00,0.0025
2325.00,0.0025
2324.00,0.0025
2323.00,0.0026
2322.00,0.0026
2321.00,0.0026
2320.00,0.0026
2319.00,0.0026
2318.00,0.0026
2317.00,0.0026
2316.00,0.0027
2315.00,0.0027
2314.00,0.0027
2313.00,0.0027
2312.00,0.0027
2311.00,0.0027
2310.00,0.0027
2309.00,0.0027
2308.00,0.0027
2307.00,0.0026
2306.00,0.0026
2305.00,0.0026
2304.00,0.0026
2303.00,0.0026
2302.00,0.0026
2301.00,0.0026
2300.00,0.0026
2299.00,0.0026
2298.00,0.0026
2297.00,0.0026
2296.00,0.0026
2295.00,0.0026
2294.00,0.0026
2293.00,0.0026
2292.00,0.0026
2291.00,0.0026
2290.00,0.0025
2289.00,0.0025
2288.00,0.0025
2287.00,0.0025
2286.00,0.0025
2285.00,0.0025
2284.00,0.0026
2283.00,0.0026
2282.00,0.0026
2281.00,0.0026
2280.00,0.0026
2279.00,0.0025
2278.00,0.0025
2277.00,0.0025
2276.00,0.0025
2275.00,0.0025
2274.00,0.0025
2273.00,0.0025
2272.00,0.0026
2271.00,0.0026
2270.00,0.0025
2269.00,0.0025
2268.00,0.0025
2267.00,0.0025
2266.00,0.0025
2265.00,0.0025
2264.00,0.0026
2263.00,0.0026
2262.00,0.0026
2261.00,0.0026
2260.00,0.0026
2259.00,0.0025
2258.00,0.0025
2257.00,0.0025
2256.00,0.0025
2255.00,0.0025
2254.00,0.0025
2253.00,0.0025
2252.00,0.0026
2251.00,0.0026
2250.00,0.0026
2249.00,0.0025
2248.00,0.0025
2247.00,0.0025
2246.00,0.0025
2245.00,0.0025
2244.00,0.0025
2243.00,0.0025
2242.00,0.0024
2241.00,0.0024
2240.00,0.0025
2239.00,0.0025
2238.00,0.0025
2237.00,0.0024
2236.00,0.0024
2235.00,0.0024
2234.00,0.0023
2233.00,0.0023
2232.00,0.0023
2231.00,0.0024
2230.00,0.0024
2229.00,0.0024
2228.00,0.0025
2227.00,0.0025
2226.00,0.0024
2225.00,0.0024
2224.00,0.0024
2223.00,0.0023
2222.00,0.0023
2221.00,0.0023
2220.00,0.0024
2219.00,0.0024
2218.00,0.0024
2217.00,0.0024
2216.00,0.0024
2215.00,0.0024
2214.00,0.0023
2213.00,0.0023
2212.00,0.0024
2211.00,0.0024
2210.00,0.0024
2209.00,0.0025
2208.00,0.0025
2207.00,0.0025
2206.00,0.0024
2205.00,0.0024
2204.00,0.0024
2203.00,0.0024
2202.00,0.0023
2201.00,0.0023
2200.00,0.0023
2199.00,0.0022
2198.00,0.0022
2197.00,0.0022
2196.00,0.0022
2195.00,0.0022
2194.00,0.0022
2193.00,0.0022
2192.00,0.0022
2191.00,0.0022
2190.00,0.0022
2189.00,0.0022
2188.00,0.0023
2187.00,0.0022
2186.00,0.0022
2185.00,0.0022
2184.00,0.0022
2183.00,0.0022
2182.00,0.0022
2181.00,0.0022
2180.00,0.0022
2179.00,0.0021
2178.00,0.0021
2177.00,0.0022
2176.00,0.0023
2175.00,0.0024
2174.00,0.0024
2173.00,0.0023
2172.00,0.0022
2171.00,0.0022
2170.00,0.0021
2169.00,0.0021
2168.00,0.0021
2167.00,0.0021
2166.00,0.0020
2165.00,0.0019
2164.00,0.0019
2163.00,0.0019
2162.00,0.0019
2161.00,0.0019
2160.00,0.0020
2159.00,0.0021
2158.00,0.0022
2157.00,0.0023
2156.00,0.0023
2155.00,0.0023
2154.00,0.0023
2153.00,0.0023
2152.00,0.0023
2151.00,0.0022
2150.00,0.0022
2149.00,0.0022
2148.00,0.0023
2147.00,0.0024
2146.00,0.0024
2145.00,0.0024
2144.00,0.0024
2143.00,0.0023
2142.00,0.0022
2141.00,0.0022
2140.00,0.0022
2139.00,0.0022
2138.00,0.0022
2137.00,0.0022
2136.00,0.0022
2135.00,0.0022
2134.00,0.0022
2133.00,0.0021
2132.00,0.0021
2131.00,0.0021
2130.00,0.0021
2129.00,0.0022
2128.00,0.0022
2127.00,0.0022
2126.00,0.0022
2125.00,0.0022
2124.00,0.0022
2123.00,0.0022
2122.00,0.0022
2121.00,0.0021
2120.00,0.0021
2119.00,0.0020
2118.00,0.0020
2117.00,0.0020
2116.00,0.0020
2115.00,0.0021
2114.00,0.0021
2113.00,0.0021
2112.00,0.0021
2111.00,0.0021
2110.00,0.0021
2109.00,0.0021
2108.00,0.0021
2107.00,0.0021
2106.00,0.0021
2105.00,0.0020
2104.00,0.0021
2103.00,0.0020
2102.00,0.0020
2101.00,0.0020
2100.00,0.0020
2099.00,0.0020
2098.00,0.0020
2097.00,0.0020
2096.00,0.0020
2095.00,0.0020
2094.00,0.0020
2093.00,0.0020
2092.00,0.0020
2091.00,0.0019
2090.00,0.0019
2089.00,0.0019
2088.00,0.0019
2087.00,0.0019
2086.00,0.0018
2085.00,0.0018
2084.00,0.0018
2083.00,0.0018
2082.00,0.0018
2081.00,0.0018
2080.00,0.0018
2079.00,0.0019
2078.00,0.0019
2077.00,0.0019
2076.00,0.0019
2075.00,0.0018
2074.00,0.0018
2073.00,0.0017
2072.00,0.0017
2071.00,0.0017
2070.00,0.0017
2069.00,0.0017
2068.00,0.0017
2067.00,0.0017
2066.00,0.0017
2065.00,0.0017
2064.00,0.0018
2063.00,0.0018
2062.00,0.0018
2061.00,0.0018
2060.00,0.0017
2059.00,0.0017
2058.00,0.0016
2057.00,0.0016
2056.00,0.0015
2055.00,0.0014
2054.00,0.0013
2053.00,0.0013
2052.00,0.0013
2051.00,0.0013
2050.00,0.0013
2049.00,0.0014
2048.00,0.0015
2047.00,0.0016
2046.00,0.0016
2045.00,0.0015
2044.00,0.0015
2043.00,0.0014
2042.00,0.0013
2041.00,0.0014
2040.00,0.0014
2039.00,0.0014
2038.00,0.0014
2037.00,0.0013
2036.00,0.0013
2035.00,0.0013
2034.00,0.0013
2033.00,0.0013
2032.00,0.0013
2031.00,0.0012
2030.00,0.0012
2029.00,0.0012
2028.00,0.0012
2027.00,0.0012
2026.00,0.0012
2025.00,0.0012
2024.00,0.0012
2023.00,0.0011
2022.00,0.0011
2021.00,0.0012
2020.00,0.0012
2019.00,0.0011
2018.00,0.0010
2017.00,0.0009
2016.00,0.0010
2015.00,0.0010
2014.00,0.0010
2013.00,0.0011
2012.00,0.0012
2011.00,0.0013
2010.00,0.0012
2009.00,0.0013
2008.00,0.0014
2007.00,0.0014
2006.00,0.0014
2005.00,0.0013
2004.00,0.0013
2003.00,0.0012
2002.00,0.0012
2001.00,0.0012
2000.00,0.0012
1999.00,0.0012
1998.00,0.0011
1997.00,0.0010
1996.00,0.0010
1995.00,0.0009
1994.00,0.0009
1993.00,0.0009
1992.00,0.0010
1991.00,0.0010
1990.00,0.0010
1989.00,0.0010
1988.00,0.0010
1987.00,0.0010
1986.00,0.0010
1985.00,0.0009
1984.00,0.0009
1983.00,0.0009
1982.00,0.0008
1981.00,0.0008
1980.00,0.0008
1979.00,0.0009
1978.00,0.0009
1977.00,0.0009
1976.00,0.0010
1975.00,0.0010
1974.00,0.0010
1973.00,0.0010
1972.00,0.0010
1971.00,0.0010
1970.00,0.0009
1969.00,0.0009
1968.00,0.0009
1967.00,0.0010
1966.00,0.0010
1965.00,0.0010
1964.00,0.0011
1963.00,0.0011
1962.00,0.0011
1961.00,0.0010
1960.00,0.0010
1959.00,0.0009
1958.00,0.0009
1957.00,0.0009
1956.00,0.0009
1955.00,0.0009
1954.00,0.0009
1953.00,0.0010
1952.00,0.0010
1951.00,0.0009
1950.00,0.0008
1949.00,0.0008
1948.00,0.0008
1947.00,0.0008
1946.00,0.0008
1945.00,0.0008
1944.00,0.0008
1943.00,0.0008
1942.00,0.0008
1941.00,0.0008
1940.00,0.0008
1939.00,0.0009
1938.00,0.0008
1937.00,0.0008
1936.00,0.0009
1935.00,0.0009
1934.00,0.0009
1933.00,0.0009
1932.00,0.0009
1931.00,0.0009
1930.00,0.0009
1929.00,0.0008
1928.00,0.0008
1927.00,0.0008
1926.00,0.0007
1925.00,0.0007
1924.00,0.0007
1923.00,0.0007
1922.00,0.0007
1921.00,0.0006
1920.00,0.0006
1919.00,0.0006
1918.00,0.0006
1917.00,0.0006
1916.00,0.0006
1915.00,0.0007
1914.00,0.0006
1913.00,0.0006
1912.00,0.0005
1911.00,0.0005
1910.00,0.0005
1909.00,0.0006
1908.00,0.0006
1907.00,0.0006
1906.00,0.0006
1905.00,0.0005
1904.00,0.0005
1903.00,0.0005
1902.00,0.0005
1901.00,0.0005
1900.00,0.0005
1899.00,0.0005
1898.00,0.0005
1897.00,0.0005
1896.00,0.0005
1895.00,0.0005
1894.00,0.0005
1893.00,0.0005
1892.00,0.0004
1891.00,0.0004
1890.00,0.0004
1889.00,0.0004
1888.00,0.0004
1887.00,0.0004
1886.00,0.0004
1885.00,0.0004
1884.00,0.0004
1883.00,0.0004
1882.00,0.0003
1881.00,0.0003
1880.00,0.0003
1879.00,0.0003
1878.00,0.0003
1877.00,0.0003
1876.00,0.0003
1875.00,0.0003
1874.00,0.0003
1873.00,0.0002
1872.00,0.0002
1871.00,0.0002
1870.00,0.0001
1869.00,0.0001
1868.00,0.0001
1867.00,0.0001
1866.00,0.0001
1865.00,0.0001
1864.00,0.0001
1863.00,0.0001
1862.00,0.0001
1861.00,0.0001
1860.00,0.0001
1859.00,0.0001
1858.00,0.0000
1857.00,0.0000
1856.00,0.0000
1855.00,0.0000
1854.00,0.0000
1853.00,0.0000
1852.00,0.0000
1851.00,0.0000
1850.00,-0.0000
1849.00,-0.0000
1848.00,-0.0001
1847.00,-0.0001
1846.00,-0.0002
1845.00,-0.0002
1844.00,-0.0002
1843.00,-0.0002
1842.00,-0.0001
1841.00,-0.0001
1840.00,-0.0001
1839.00,-0.0001
1838.00,-0.0001
1837.00,-0.0001
1836.00,-0.0001
1835.00,-0.0001
1834.00,-0.0002
1833.00,-0.0002
1832.00,-0.0003
1831.00,-0.0003
1830.00,-0.0003
1829.00,-0.0003
1828.00,-0.0003
1827.00,-0.0004
1826.00,-0.0004
1825.00,-0.0004
1824.00,-0.0004
1823.00,-0.0004
1822.00,-0.0003
1821.00,-0.0003
1820.00,-0.0004
1819.00,-0.0004
1818.00,-0.0004
1817.00,-0.0004
1816.00,-0.0004
1815.00,-0.0004
1814.00,-0.0004
1813.00,-0.0004
1812.00,-0.0004
1811.00,-0.0004
1810.00,-0.0005
1809.00,-0.0005
1808.00,-0.0005
1807.00,-0.0005
1806.00,-0.0005
1805.00,-0.0005
1804.00,-0.0005
1803.00,-0.0006
1802.00,-0.0006
1801.00,-0.0006
1800.00,-0.0007
1799.00,-0.0007
1798.00,-0.0006
1797.00,-0.0006
1796.00,-0.0006
1795.00,-0.0007
1794.00,-0.0007
1793.00,-0.0007
1792.00,-0.0007
1791.00,-0.0008
1790.00,-0.0008
1789.00,-0.0008
1788.00,-0.0007
1787.00,-0.0007
1786.00,-0.0008
1785.00,-0.0008
1784.00,-0.0008
1783.00,-0.0008
1782.00,-0.0008
1781.00,-0.0008
1780.00,-0.0008
1779.00,-0.0007
1778.00,-0.0008
1777.00,-0.0008
1776.00,-0.0008
1775.00,-0.0008
1774.00,-0.0009
1773.00,-0.0009
1772.00,-0.0008
1771.00,-0.0008
1770.00,-0.0009
1769.00,-0.0009
1768.00,-0.0009
1767.00,-0.0009
1766.00,-0.0009
1765.00,-0.0009
1764.00,-0.0009
1763.00,-0.0009
1762.00,-0.0009
1761.00,-0.0009
1760.00,-0.0009
1759.00,-0.0009
1758.00,-0.0009
1757.00,-0.0009
1756.00,-0.0008
1755.00,-0.0008
1754.00,-0.0008
1753.00,-0.0008
1752.00,-0.0008
1751.00,-0.0007
1750.00,-0.0007
1749.00,-0.0007
1748.00,-0.0006
1747.00,-0.0005
1746.00,-0.0005
1745.00,-0.0004
1744.00,-0.0004
1743.00,-0.0004
1742.00,-0.0004
1741.00,-0.0004
1740.00,-0.0003
1739.00,-0.0003
1738.00,-0.0002
1737.00,-0.0003
1736.00,-0.0003
1735.00,-0.0002
1734.00,-0.0001
1733.00,0.0001
1732.00,0.0002
1731.00,0.0002
1730.00,0.0002
1729.00,0.0003
1728.00,0.0004
1727.00,0.0005
1726.00,0.0005
1725.00,0.0006
1724.00,0.0007
1723.00,0.0008
1722.00,0.0008
1721.00,0.0009
1720.00,0.0009
1719.00,0.0011
1718.00,0.0013
1717.00,0.0016
1716.00,0.0020
1715.00,0.0023
1714.00,0.0025
1713.00,0.0029
1712.00,0.0033
1711.00,0.0038
1710.00,0.0043
1709.00,0.0049
1708.00,0.0057
1707.00,0.0067
1706.00,0.0079
1705.00,0.0095
1704.00,0.0109
1703.00,0.0120
1702.00,0.0132
1701.00,0.0149
1700.00,0.0170
1699.00,0.0184
1698.00,0.0191
1697.00,0.0195
1696.00,0.0199
1695.00,0.0203
1694.00,0.0205
1693.00,0.0206
1692.00,0.0207
1691.00,0.0210
1690.00,0.0215
1689.00,0.0219
1688.00,0.0223
1687.00,0.0227
1686.00,0.0232
1685.00,0.0241
1684.00,0.0254
1683.00,0.0265
1682.00,0.0272
1681.00,0.0278
1680.00,0.0285
1679.00,0.0292
1678.00,0.0298
1677.00,0.0305
1676.00,0.0315
1675.00,0.0327
1674.00,0.0337
1673.00,0.0345
1672.00,0.0352
1671.00,0.0361
1670.00,0.0373
1669.00,0.0387
1668.00,0.0399
1667.00,0.0408
1666.00,0.0416
1665.00,0.0423
1664.00,0.0433
1663.00,0.0446
1662.00,0.0459
1661.00,0.0471
1660.00,0.0481
1659.00,0.0490
1658.00,0.0498
1657.00,0.0504
1656.00,0.0508
1655.00,0.0513
1654.00,0.0527
1653.00,0.0549
1652.00,0.0568
1651.00,0.0574
1650.00,0.0574
1649.00,0.0574
1648.00,0.0580
1647.00,0.0591
1646.00,0.0604
1645.00,0.0613
1644.00,0.0619
1643.00,0.0625
1642.00,0.0630
1641.00,0.0636
1640.00,0.0642
1639.00,0.0648
1638.00,0.0653
1637.00,0.0661
1636.00,0.0676
1635.00,0.0694
1634.00,0.0706
1633.00,0.0713
1632.00,0.0718
1631.00,0.0724
1630.00,0.0729
1629.00,0.0736
1628.00,0.0743
1627.00,0.0748
1626.00,0.0751
1625.00,0.0750
1624.00,0.0748
1623.00,0.0746
1622.00,0.0740
1621.00,0.0730
1620.00,0.0718
1619.00,0.0703
1618.00,0.0686
1617.00,0.0667
1616.00,0.0648
1615.00,0.0628
1614.00,0.0608
1613.00,0.0588
1612.00,0.0566
1611.00,0.0545
1610.00,0.0523
1609.00,0.0501
1608.00,0.0479
1607.00,0.0458
1606.00,0.0438
1605.00,0.0420
1604.00,0.0402
1603.00,0.0386
1602.00,0.0372
1601.00,0.0359
1600.00,0.0347
1599.00,0.0336
1598.00,0.0327
1597.00,0.0318
1596.00,0.0309
1595.00,0.0300
1594.00,0.0292
1593.00,0.0285
1592.00,0.0278
1591.00,0.0272
1590.00,0.0267
1589.00,0.0262
1588.00,0.0258
1587.00,0.0255
1586.00,0.0253
1585.00,0.0252
1584.00,0.0251
1583.00,0.0251
1582.00,0.0252
1581.00,0.0253
1580.00,0.0254
1579.00,0.0255
1578.00,0.0257
1577.00,0.0262
1576.00,0.0269
1575.00,0.0275
1574.00,0.0278
1573.00,0.0279
1572.00,0.0280
1571.00,0.0284
1570.00,0.0291
1569.00,0.0300
1568.00,0.0307
1567.00,0.0313
1566.00,0.0320
1565.00,0.0328
1564.00,0.0335
1563.00,0.0340
1562.00,0.0343
1561.00,0.0346
1560.00,0.0355
1559.00,0.0375
1558.00,0.0395
1557.00,0.0406
1556.00,0.0411
1555.00,0.0418
1554.00,0.0426
1553.00,0.0435
1552.00,0.0442
1551.00,0.0449
1550.00,0.0458
1549.00,0.0467
1548.00,0.0475
1547.00,0.0480
1546.00,0.0487
1545.00,0.0495
1544.00,0.0502
1543.00,0.0509
1542.00,0.0516
1541.00,0.0528
1540.00,0.0543
1539.00,0.0557
1538.00,0.0564
1537.00,0.0566
1536.00,0.0566
1535.00,0.0567
1534.00,0.0574
1533.00,0.0584
1532.00,0.0592
1531.00,0.0597
1530.00,0.0601
1529.00,0.0605
1528.00,0.0611
1527.00,0.0617
1526.00,0.0625
1525.00,0.0631
1524.00,0.0635
1523.00,0.0641
1522.00,0.0651
1521.00,0.0665
1520.00,0.0675
1519.00,0.0682
1518.00,0.0689
1517.00,0.0697
1516.00,0.0704
1515.00,0.0707
1514.00,0.0705
1513.00,0.0700
1512.00,0.0693
1511.00,0.0684
1510.00,0.0674
1509.00,0.0663
1508.00,0.0651
1507.00,0.0639
1506.00,0.0627
1505.00,0.0616
1504.00,0.0604
1503.00,0.0591
1502.00,0.0577
1501.00,0.0563
1500.00,0.0548
1499.00,0.0533
1498.00,0.0518
1497.00,0.0503
1496.00,0.0488
1495.00,0.0474
1494.00,0.0460
1493.00,0.0446
1492.00,0.0432
1491.00,0.0417
1490.00,0.0403
1489.00,0.0390
1488.00,0.0378
1487.00,0.0367
1486.00,0.0357
1485.00,0.0348
1484.00,0.0339
1483.00,0.0331
1482.00,0.0324
1481.00,0.0317
1480.00,0.0311
1479.00,0.0305
1478.00,0.0300
1477.00,0.0295
1476.00,0.0291
1475.00,0.0288
1474.00,0.0286
1473.00,0.0286
1472.00,0.0288
1471.00,0.0289
1470.00,0.0289
1469.00,0.0287
1468.00,0.0286
1467.00,0.0284
1466.00,0.0284
1465.00,0.0284
1464.00,0.0285
1463.00,0.0285
1462.00,0.0286
1461.00,0.0286
1460.00,0.0286
1459.00,0.0288
1458.00,0.0294
1457.00,0.0306
1456.00,0.0317
1455.00,0.0326
1454.00,0.0332
1453.00,0.0337
1452.00,0.0342
1451.00,0.0347
1450.00,0.0350
1449.00,0.0353
1448.00,0.0356
1447.00,0.0357
1446.00,0.0357
1445.00,0.0356
1444.00,0.0353
1443.00,0.0351
1442.00,0.0348
1441.00,0.0344
1440.00,0.0339
1439.00,0.0333
1438.00,0.0327
1437.00,0.0320
1436.00,0.0313
1435.00,0.0307
1434.00,0.0301
1433.00,0.0295
1432.00,0.0288
1431.00,0.0282
1430.00,0.0277
1429.00,0.0274
1428.00,0.0270
1427.00,0.0268
1426.00,0.0266
1425.00,0.0265
1424.00,0.0265
1423.00,0.0265
1422.00,0.0264
1421.00,0.0264
1420.00,0.0264
1419.00,0.0266
1418.00,0.0269
1417.00,0.0271
1416.00,0.0272
1415.00,0.0273
1414.00,0.0275
1413.00,0.0275
1412.00,0.0276
1411.00,0.0276
1410.00,0.0277
1409.00,0.0276
1408.00,0.0275
1407.00,0.0274
1406.00,0.0272
1405.00,0.0270
1404.00,0.0268
1403.00,0.0266
1402.00,0.0263
1401.00,0.0260
1400.00,0.0256
1399.00,0.0254
1398.00,0.0251
1397.00,0.0249
1396.00,0.0247
1395.00,0.0245
1394.00,0.0244
1393.00,0.0243
1392.00,0.0242
1391.00,0.0240
1390.00,0.0239
1389.00,0.0237
1388.00,0.0237
1387.00,0.0236
1386.00,0.0236
1385.00,0.0235
1384.00,0.0234
1383.00,0.0233
1382.00,0.0232
1381.00,0.0232
1380.00,0.0231
1379.00,0.0231
1378.00,0.0231
1377.00,0.0230
1376.00,0.0230
1375.00,0.0230
1374.00,0.0231
1373.00,0.0231
1372.00,0.0232
1371.00,0.0232
1370.00,0.0232
1369.00,0.0231
1368.00,0.0230
1367.00,0.0227
1366.00,0.0224
1365.00,0.0220
1364.00,0.0216
1363.00,0.0212
1362.00,0.0208
1361.00,0.0205
1360.00,0.0203
1359.00,0.0201
1358.00,0.0199
1357.00,0.0198
1356.00,0.0197
1355.00,0.0196
1354.00,0.0195
1353.00,0.0195
1352.00,0.0195
1351.00,0.0195
1350.00,0.0195
1349.00,0.0196
1348.00,0.0196
1347.00,0.0197
1346.00,0.0198
1345.00,0.0199
1344.00,0.0199
1343.00,0.0200
1342.00,0.0201
1341.00,0.0202
1340.00,0.0202
1339.00,0.0203
1338.00,0.0203
1337.00,0.0204
1336.00,0.0203
1335.00,0.0203
1334.00,0.0202
1333.00,0.0201
1332.00,0.0199
1331.00,0.0198
1330.00,0.0196
1329.00,0.0194
1328.00,0.0193
1327.00,0.0192
1326.00,0.0191
1325.00,0.0190
1324.00,0.0189
1323.00,0.0188
1322.00,0.0188
1321.00,0.0188
1320.00,0.0188
1319.00,0.0188
1318.00,0.0189
1317.00,0.0189
1316.00,0.0190
1315.00,0.0190
1314.00,0.0191
1313.00,0.0191
1312.00,0.0191
1311.00,0.0191
1310.00,0.0191
1309.00,0.0192
1308.00,0.0191
1307.00,0.0191
1306.00,0.0191
1305.00,0.0191
1304.00,0.0191
1303.00,0.0191
1302.00,0.0191
1301.00,0.0190
1300.00,0.0190
1299.00,0.0190
1298.00,0.0190
1297.00,0.0190
1296.00,0.0190
1295.00,0.0191
1294.00,0.0191
1293.00,0.0192
1292.00,0.0192
1291.00,0.0193
1290.00,0.0194
1289.00,0.0195
1288.00,0.0196
1287.00,0.0198
1286.00,0.0199
1285.00,0.0201
1284.00,0.0202
1283.00,0.0204
1282.00,0.0205
1281.00,0.0207
1280.00,0.0210
1279.00,0.0212
1278.00,0.0215
1277.00,0.0218
1276.00,0.0221
1275.00,0.0224
1274.00,0.0228
1273.00,0.0231
1272.00,0.0236
1271.00,0.0241
1270.00,0.0246
1269.00,0.0251
1268.00,0.0256
1267.00,0.0261
1266.00,0.0265
1265.00,0.0269
1264.00,0.0272
1263.00,0.0274
1262.00,0.0277
1261.00,0.0279
1260.00,0.0280
1259.00,0.0281
1258.00,0.0281
1257.00,0.0282
1256.00,0.0282
1255.00,0.0282
1254.00,0.0283
1253.00,0.0285
1252.00,0.0286
1251.00,0.0288
1250.00,0.0290
1249.00,0.0292
1248.00,0.0295
1247.00,0.0298
1246.00,0.0301
1245.00,0.0304
1244.00,0.0307
1243.00,0.0310
1242.00,0.0313
1241.00,0.0317
1240.00,0.0320
1239.00,0.0324
1238.00,0.0328
1237.00,0.0331
1236.00,0.0335
1235.00,0.0338
1234.00,0.0341
1233.00,0.0343
1232.00,0.0345
1231.00,0.0346
1230.00,0.0346
1229.00,0.0346
1228.00,0.0344
1227.00,0.0341
1226.00,0.0338
1225.00,0.0334
1224.00,0.0330
1223.00,0.0325
1222.00,0.0320
1221.00,0.0314
1220.00,0.0309
1219.00,0.0303
1218.00,0.0297
1217.00,0.0290
1216.00,0.0284
1215.00,0.0277
1214.00,0.0270
1213.00,0.0263
1212.00,0.0255
1211.00,0.0248
1210.00,0.0242
1209.00,0.0235
1208.00,0.0228
1207.00,0.0222
1206.00,0.0216
1205.00,0.0209
1204.00,0.0203
1203.00,0.0197
1202.00,0.0192
1201.00,0.0186
1200.00,0.0181
1199.00,0.0177
1198.00,0.0173
1197.00,0.0169
1196.00,0.0166
1195.00,0.0163
1194.00,0.0160
1193.00,0.0158
1192.00,0.0156
1191.00,0.0154
1190.00,0.0153
1189.00,0.0151
1188.00,0.0150
1187.00,0.0149
1186.00,0.0148
1185.00,0.0148
1184.00,0.0148
1183.00,0.0148
1182.00,0.0149
1181.00,0.0151
1180.00,0.0153
1179.00,0.0156
1178.00,0.0159
1177.00,0.0163
1176.00,0.0167
1175.00,0.0171
1174.00,0.0175
1173.00,0.0179
1172.00,0.0183
1171.00,0.0186
1170.00,0.0188
1169.00,0.0190
1168.00,0.0191
1167.00,0.0192
1166.00,0.0193
1165.00,0.0193
1164.00,0.0192
1163.00,0.0192
1162.00,0.0191
1161.00,0.0189
1160.00,0.0187
1159.00,0.0185
1158.00,0.0182
1157.00,0.0179
1156.00,0.0175
1155.00,0.0171
1154.00,0.0168
1153.00,0.0164
1152.00,0.0160
1151.00,0.0157
1150.00,0.0154
1149.00,0.0151
1148.00,0.0147
1147.00,0.0145
1146.00,0.0142
1145.00,0.0140
1144.00,0.0137
1143.00,0.0135
1142.00,0.0134
1141.00,0.0133
1140.00,0.0131
1139.00,0.0131
1138.00,0.0130
1137.00,0.0130
1136.00,0.0130
1135.00,0.0130
1134.00,0.0131
1133.00,0.0131
1132.00,0.0132
1131.00,0.0132
1130.00,0.0133
1129.00,0.0134
1128.00,0.0134
1127.00,0.0135
1126.00,0.0136
1125.00,0.0137
1124.00,0.0138
1123.00,0.0139
1122.00,0.0140
1121.00,0.0141
1120.00,0.0142
1119.00,0.0144
1118.00,0.0145
1117.00,0.0146
1116.00,0.0147
1115.00,0.0148
1114.00,0.0150
1113.00,0.0151
1112.00,0.0152
1111.00,0.0153
1110.00,0.0154
1109.00,0.0155
1108.00,0.0155
1107.00,0.0156
1106.00,0.0157
1105.00,0.0158
1104.00,0.0158
1103.00,0.0158
1102.00,0.0157
1101.00,0.0157
1100.00,0.0155
1099.00,0.0154
1098.00,0.0153
1097.00,0.0152
1096.00,0.0151
1095.00,0.0150
1094.00,0.0150
1093.00,0.0149
1092.00,0.0149
1091.00,0.0149
1090.00,0.0150
1089.00,0.0151
1088.00,0.0152
1087.00,0.0154
1086.00,0.0155
1085.00,0.0157
1084.00,0.0158
1083.00,0.0160
1082.00,0.0162
1081.00,0.0164
1080.00,0.0165
1079.00,0.0167
1078.00,0.0169
1077.00,0.0171
1076.00,0.0172
1075.00,0.0173
1074.00,0.0174
1073.00,0.0175
1072.00,0.0176
1071.00,0.0177
1070.00,0.0178
1069.00,0.0179
1068.00,0.0180
1067.00,0.0181
1066.00,0.0183
1065.00,0.0184
1064.00,0.0185
1063.00,0.0187
1062.00,0.0188
1061.00,0.0189
1060.00,0.0189
1059.00,0.0189
1058.00,0.0189
1057.00,0.0188
1056.00,0.0187
1055.00,0.0187
1054.00,0.0186
1053.00,0.0185
1052.00,0.0183
1051.00,0.0181
1050.00,0.0180
1049.00,0.0178
1048.00,0.0176
1047.00,0.0174
1046.00,0.0173
1045.00,0.0172
1044.00,0.0170
1043.00,0.0169
1042.00,0.0168
1041.00,0.0167
1040.00,0.0165
1039.00,0.0165
1038.00,0.0164
1037.00,0.0164
1036.00,0.0163
1035.00,0.0163
1034.00,0.0163
1033.00,0.0163
1032.00,0.0162
1031.00,0.0162
1030.00,0.0162
1029.00,0.0162
1028.00,0.0161
1027.00,0.0160
1026.00,0.0160
1025.00,0.0160
1024.00,0.0160
1023.00,0.0161
1022.00,0.0162
1021.00,0.0164
1020.00,0.0165
1019.00,0.0167
1018.00,0.0169
1017.00,0.0170
1016.00,0.0170
1015.00,0.0170
1014.00,0.0170
1013.00,0.0170
1012.00,0.0168
1011.00,0.0167
1010.00,0.0165
1009.00,0.0163
1008.00,0.0161
1007.00,0.0160
1006.00,0.0161
1005.00,0.0161
1004.00,0.0162
1003.00,0.0163
1002.00,0.0164
1001.00,0.0165
1000.00,0.0165
999.00,0.0164
998.00,0.0163
997.00,0.0161
996.00,0.0158
995.00,0.0154
994.00,0.0151
993.00,0.0147
992.00,0.0142
991.00,0.0138
990.00,0.0135
989.00,0.0132
988.00,0.0129
987.00,0.0127
986.00,0.0126
985.00,0.0126
984.00,0.0126
983.00,0.0126
982.00,0.0127
981.00,0.0127
980.00,0.0128
979.00,0.0128
978.00,0.0128
977.00,0.0128
976.00,0.0127
975.00,0.0125
974.00,0.0124
973.00,0.0121
972.00,0.0117
971.00,0.0114
970.00,0.0111
969.00,0.0107
968.00,0.0104
967.00,0.0100
966.00,0.0098
965.00,0.0096
964.00,0.0093
963.00,0.0091
962.00,0.0090
961.00,0.0088
960.00,0.0086
959.00,0.0084
958.00,0.0083
957.00,0.0082
956.00,0.0081
955.00,0.0080
954.00,0.0080
953.00,0.0079
952.00,0.0078
951.00,0.0077
950.00,0.0077
949.00,0.0076
948.00,0.0076
947.00,0.0075
946.00,0.0075
945.00,0.0075
944.00,0.0074
943.00,0.0074
942.00,0.0074
941.00,0.0074
940.00,0.0073
939.00,0.0073
938.00,0.0073
937.00,0.0074
936.00,0.0074
935.00,0.0074
934.00,0.0075
933.00,0.0075
932.00,0.0075
931.00,0.0075
930.00,0.0076
929.00,0.0076
928.00,0.0076
927.00,0.0076
926.00,0.0075
925.00,0.0074
924.00,0.0073
923.00,0.0071
922.00,0.0070
921.00,0.0069
920.00,0.0068
919.00,0.0066
918.00,0.0065
917.00,0.0064
916.00,0.0063
915.00,0.0062
914.00,0.0061
913.00,0.0060
912.00,0.0059
911.00,0.0058
910.00,0.0058
909.00,0.0058
908.00,0.0057
907.00,0.0056
906.00,0.0056
905.00,0.0056
904.00,0.0056
903.00,0.0056
902.00,0.0056
901.00,0.0056
900.00,0.0055
899.00,0.0055
898.00,0.0055
897.00,0.0055
896.00,0.0055
895.00,0.0055
894.00,0.0055
893.00,0.0055
892.00,0.0054
891.00,0.0054
890.00,0.0054
889.00,0.0054
888.00,0.0053
887.00,0.0053
886.00,0.0053
885.00,0.0054
884.00,0.0054
883.00,0.0055
882.00,0.0056
881.00,0.0057
880.00,0.0058
879.00,0.0059
878.00,0.0060
877.00,0.0060
876.00,0.0060
875.00,0.0060
874.00,0.0060
873.00,0.0060
872.00,0.0059
871.00,0.0058
870.00,0.0058
869.00,0.0057
868.00,0.0057
867.00,0.0057
866.00,0.0057
865.00,0.0058
864.00,0.0058
863.00,0.0058
862.00,0.0060
861.00,0.0061
860.00,0.0062
859.00,0.0064
858.00,0.0066
857.00,0.0068
856.00,0.0070
855.00,0.0071
854.00,0.0073
853.00,0.0074
852.00,0.0075
851.00,0.0076
850.00,0.0077
849.00,0.0076
848.00,0.0075
847.00,0.0074
846.00,0.0074
845.00,0.0073
844.00,0.0073
843.00,0.0074
842.00,0.0075
841.00,0.0076
840.00,0.0077
839.00,0.0078
838.00,0.0080
837.00,0.0082
836.00,0.0083
835.00,0.0084
834.00,0.0086
833.00,0.0088
832.00,0.0089
831.00,0.0090
830.00,0.0092
829.00,0.0092
828.00,0.0092
827.00,0.0092
826.00,0.0092
825.00,0.0093
824.00,0.0092
823.00,0.0092
822.00,0.0092
821.00,0.0093
820.00,0.0093
819.00,0.0093
818.00,0.0093
817.00,0.0094
816.00,0.0094
815.00,0.0095
814.00,0.0096
813.00,0.0098
812.00,0.0098
811.00,0.0099
810.00,0.0101
809.00,0.0102
808.00,0.0102
807.00,0.0103
806.00,0.0104
805.00,0.0106
804.00,0.0106
803.00,0.0107
802.00,0.0108
801.00,0.0109
800.00,0.0109
799.00,0.0109
798.00,0.0111
797.00,0.0112
796.00,0.0112
795.00,0.0113
794.00,0.0114
793.00,0.0115
792.00,0.0115
791.00,0.0115
790.00,0.0116
789.00,0.0117
788.00,0.0118
787.00,0.0120
786.00,0.0122
785.00,0.0124
784.00,0.0125
783.00,0.0126
782.00,0.0128
781.00,0.0130
780.00,0.0131
779.00,0.0132
778.00,0.0134
777.00,0.0136
776.00,0.0138
775.00,0.0139
774.00,0.0141
773.00,0.0144
772.00,0.0146
771.00,0.0148
770.00,0.0150
769.00,0.0153
768.00,0.0155
767.00,0.0157
766.00,0.0160
765.00,0.0162
764.00,0.0163
763.00,0.0165
762.00,0.0167
761.00,0.0169
760.00,0.0170
759.00,0.0171
758.00,0.0174
757.00,0.0176
756.00,0.0177
755.00,0.0179
754.00,0.0182
753.00,0.0184
752.00,0.0186
751.00,0.0188
750.00,0.0191
749.00,0.0194
748.00,0.0196
747.00,0.0199
746.00,0.0203
745.00,0.0206
744.00,0.0209
743.00,0.0212
742.00,0.0215
741.00,0.0218
740.00,0.0221
739.00,0.0225
738.00,0.0230
737.00,0.0234
736.00,0.0238
735.00,0.0243
734.00,0.0247
733.00,0.0252
732.00,0.0257
731.00,0.0262
730.00,0.0268
729.00,0.0273
728.00,0.0278
727.00,0.0282
726.00,0.0287
725.00,0.0292
724.00,0.0297
723.00,0.0301
722.00,0.0306
721.00,0.0310
720.00,0.0312
719.00,0.0315
718.00,0.0317
717.00,0.0320
716.00,0.0322
715.00,0.0325
714.00,0.0328
713.00,0.0331
712.00,0.0333
711.00,0.0336
710.00,0.0339
709.00,0.0342
708.00,0.0344
707.00,0.0347
706.00,0.0351
705.00,0.0355
704.00,0.0358
703.00,0.0362
702.00,0.0365
701.00,0.0368
700.00,0.0370
699.00,0.0372
698.00,0.0374
697.00,0.0377
696.00,0.0378
695.00,0.0380
694.00,0.0382
693.00,0.0384
692.00,0.0385
691.00,0.0386
690.00,0.0388
689.00,0.0389
688.00,0.0389
687.00,0.0389
686.00,0.0390
685.00,0.0391
684.00,0.0392
683.00,0.0393
682.00,0.0394
681.00,0.0396
680.00,0.0396
679.00,0.0397
678.00,0.0399
677.00,0.0400
676.00,0.0401
675.00,0.0401
674.00,0.0402
673.00,0.0403
672.00,0.0404
671.00,0.0404
670.00,0.0405
669.00,0.0407
668.00,0.0409
667.00,0.0412
666.00,0.0414
665.00,0.0414
664.00,0.0414
663.00,0.0414
662.00,0.0416
661.00,0.0417
660.00,0.0418
659.00,0.0419
658.00,0.0421
657.00,0.0422
656.00,0.0422
655.00,0.0423
654.00,0.0425
653.00,0.0427
652.00,0.0428
651.00,0.0429
650.00,0.0432
649.00,0.0434
648.00,0.0435
647.00,0.0436
646.00,0.0438
645.00,0.0439
644.00,0.0440
643.00,0.0441
642.00,0.0443
641.00,0.0444
640.00,0.0444
639.00,0.0444
638.00,0.0445
637.00,0.0445
636.00,0.0444
635.00,0.0444
634.00,0.0444
633.00,0.0445
632.00,0.0445
631.00,0.0445
630.00,0.0447
629.00,0.0448
628.00,0.0448
627.00,0.0448
626.00,0.0449
625.00,0.0450
624.00,0.0450
623.00,0.0450
622.00,0.0452
621.00,0.0455
620.00,0.0456
619.00,0.0458
618.00,0.0461
617.00,0.0464
616.00,0.0466
615.00,0.0467
614.00,0.0469
613.00,0.0470
612.00,0.0469
611.00,0.0468
610.00,0.0467
609.00,0.0465
608.00,0.0462
607.00,0.0459
606.00,0.0457
605.00,0.0455
604.00,0.0451
603.00,0.0448
602.00,0.0447
601.00,0.0445
600.00,0.0442
599.00,0.0440
598.00,0.0440
597.00,0.0439
596.00,0.0438
595.00,0.0437
594.00,0.0438
593.00,0.0438
592.00,0.0437
591.00,0.0435
590.00,0.0436
589.00,0.0436
588.00,0.0435
587.00,0.0436
586.00,0.0438
585.00,0.0439
584.00,0.0439
583.00,0.0439
582.00,0.0440
581.00,0.0441
580.00,0.0441
579.00,0.0442
578.00,0.0444
577.00,0.0446
576.00,0.0445
575.00,0.0446
574.00,0.0449
573.00,0.0451
572.00,0.0453
571.00,0.0454
570.00,0.0458
569.00,0.0462
568.00,0.0464
567.00,0.0467
566.00,0.0472
565.00,0.0477
564.00,0.0481
563.00,0.0486
562.00,0.0493
561.00,0.0500
560.00,0.0505
559.00,0.0510
558.00,0.0516
557.00,0.0521
556.00,0.0523
555.00,0.0526
554.00,0.0531
553.00,0.0534
552.00,0.0535
551.00,0.0535
550.00,0.0536
549.00,0.0536
548.00,0.0533
547.00,0.0531
546.00,0.0530
545.00,0.0528
544.00,0.0524
543.00,0.0520
542.00,0.0517
541.00,0.0515
540.00,0.0511
539.00,0.0508
538.00,0.0507
537.00,0.0507
536.00,0.0503
535.00,0.0500
534.00,0.0498
533.00,0.0496
532.00,0.0493
531.00,0.0490
530.00,0.0490
529.00,0.0490
528.00,0.0489
527.00,0.0487
526.00,0.0488
525.00,0.0487
524.00,0.0484
523.00,0.0481
522.00,0.0481
521.00,0.0479
520.00,0.0475
519.00,0.0473
518.00,0.0474
517.00,0.0475
516.00,0.0473
515.00,0.0471
514.00,0.0472
513.00,0.0471
512.00,0.0467
511.00,0.0463
510.00,0.0461
509.00,0.0459
508.00,0.0456
507.00,0.0453
506.00,0.0453
505.00,0.0452
504.00,0.0448
503.00,0.0445
502.00,0.0446
501.00,0.0446
500.00,0.0444
499.00,0.0442
498.00,0.0443
497.00,0.0444
496.00,0.0443
495.00,0.0444
494.00,0.0448
493.00,0.0450
492.00,0.0449
491.00,0.0448
490.00,0.0448
489.00,0.0446
488.00,0.0440
487.00,0.0435
486.00,0.0435
485.00,0.0435
484.00,0.0432
483.00,0.0430
482.00,0.0432
481.00,0.0433
480.00,0.0430
479.00,0.0427
478.00,0.0428
477.00,0.0429
476.00,0.0426
475.00,0.0423
474.00,0.0423
473.00,0.0423
472.00,0.0417
471.00,0.0412
470.00,0.0413
469.00,0.0414
468.00,0.0412
467.00,0.0410
466.00,0.0411
465.00,0.0412
464.00,0.0408
463.00,0.0406
462.00,0.0409
461.00,0.0410
460.00,0.0405
459.00,0.0399
458.00,0.0400
457.00,0.0402
456.00,0.0399
455.00,0.0397
454.00,0.0400
453.00,0.0401
452.00,0.0398
451.00,0.0397
450.00,0.0401
449.00,0.0403
448.00,0.0400
447.00,0.0399
446.00,0.0404
445.00,0.0406
444.00,0.0402
443.00,0.0398
442.00,0.0401
441.00,0.0404
440.00,0.0401
439.00,0.0400
438.00,0.0404
437.00,0.0403
436.00,0.0394
435.00,0.0387
434.00,0.0390
433.00,0.0397
432.00,0.0398
431.00,0.0401
430.00,0.0410
429.00,0.0418
428.00,0.0417
427.00,0.0416
426.00,0.0421
425.00,0.0424
424.00,0.0417
423.00,0.0409
422.00,0.0411
421.00,0.0412
420.00,0.0400
419.00,0.0388
418.00,0.0392
417.00,0.0396
416.00,0.0387
415.00,0.0379
414.00,0.0380
413.00,0.0381
412.00,0.0372
411.00,0.0366
410.00,0.0370
409.00,0.0371
408.00,0.0361
407.00,0.0355
406.00,0.0365
405.00,0.0371
404.00,0.0358
403.00,0.0344
402.00,0.0345
401.00,0.0347
400.00,0.0332
