Created as New Dataset,Sample 283 By YargerLab Date Friday, July 26 2024
cm-1,A
4000.00,0.0125
3999.00,0.0125
3998.00,0.0125
3997.00,0.0125
3996.00,0.0125
3995.00,0.0125
3994.00,0.0125
3993.00,0.0125
3992.00,0.0125
3991.00,0.0125
3990.00,0.0125
3989.00,0.0125
3988.00,0.0125
3987.00,0.0125
3986.00,0.0125
3985.00,0.0125
3984.00,0.0125
3983.00,0.0125
3982.00,0.0124
3981.00,0.0124
3980.00,0.0124
3979.00,0.0124
3978.00,0.0124
3977.00,0.0124
3976.00,0.0124
3975.00,0.0124
3974.00,0.0124
3973.00,0.0124
3972.00,0.0124
3971.00,0.0124
3970.00,0.0124
3969.00,0.0124
3968.00,0.0123
3967.00,0.0123
3966.00,0.0123
3965.00,0.0123
3964.00,0.0123
3963.00,0.0123
3962.00,0.0123
3961.00,0.0123
3960.00,0.0123
3959.00,0.0123
3958.00,0.0123
3957.00,0.0123
3956.00,0.0123
3955.00,0.0123
3954.00,0.0123
3953.00,0.0123
3952.00,0.0123
3951.00,0.0123
3950.00,0.0123
3949.00,0.0123
3948.00,0.0123
3947.00,0.0123
3946.00,0.0123
3945.00,0.0123
3944.00,0.0123
3943.00,0.0123
3942.00,0.0122
3941.00,0.0122
3940.00,0.0122
3939.00,0.0122
3938.00,0.0122
3937.00,0.0122
3936.00,0.0122
3935.00,0.0122
3934.00,0.0122
3933.00,0.0122
3932.00,0.0122
3931.00,0.0122
3930.00,0.0122
3929.00,0.0122
3928.00,0.0122
3927.00,0.0121
3926.00,0.0121
3925.00,0.0121
3924.00,0.0121
3923.00,0.0121
3922.00,0.0122
3921.00,0.0122
3920.00,0.0122
3919.00,0.0122
3918.00,0.0121
3917.00,0.0121
3916.00,0.0121
3915.00,0.0121
3914.00,0.0121
3913.00,0.0121
3912.00,0.0121
3911.00,0.0121
3910.00,0.0121
3909.00,0.0120
3908.00,0.0120
3907.00,0.0121
3906.00,0.0121
3905.00,0.0121
3904.00,0.0121
3903.00,0.0121
3902.00,0.0121
3901.00,0.0121
3900.00,0.0121
3899.00,0.0121
3898.00,0.0121
3897.00,0.0121
3896.00,0.0120
3895.00,0.0120
3894.00,0.0120
3893.00,0.0120
3892.00,0.0120
3891.00,0.0120
3890.00,0.0120
3889.00,0.0120
3888.00,0.0120
3887.00,0.0120
3886.00,0.0120
3885.00,0.0120
3884.00,0.0120
3883.00,0.0120
3882.00,0.0120
3881.00,0.0119
3880.00,0.0119
3879.00,0.0119
3878.00,0.0119
3877.00,0.0119
3876.00,0.0119
3875.00,0.0119
3874.00,0.0119
3873.00,0.0119
3872.00,0.0119
3871.00,0.0119
3870.00,0.0119
3869.00,0.0119
3868.00,0.0119
3867.00,0.0119
3866.00,0.0119
3865.00,0.0119
3864.00,0.0119
3863.00,0.0119
3862.00,0.0119
3861.00,0.0118
3860.00,0.0118
3859.00,0.0118
3858.00,0.0118
3857.00,0.0118
3856.00,0.0118
3855.00,0.0118
3854.00,0.0118
3853.00,0.0118
3852.00,0.0119
3851.00,0.0119
3850.00,0.0119
3849.00,0.0118
3848.00,0.0118
3847.00,0.0118
3846.00,0.0117
3845.00,0.0117
3844.00,0.0117
3843.00,0.0117
3842.00,0.0117
3841.00,0.0118
3840.00,0.0118
3839.00,0.0118
3838.00,0.0118
3837.00,0.0118
3836.00,0.0118
3835.00,0.0117
3834.00,0.0117
3833.00,0.0117
3832.00,0.0117
3831.00,0.0116
3830.00,0.0116
3829.00,0.0117
3828.00,0.0117
3827.00,0.0116
3826.00,0.0116
3825.00,0.0116
3824.00,0.0116
3823.00,0.0116
3822.00,0.0117
3821.00,0.0117
3820.00,0.0117
3819.00,0.0117
3818.00,0.0117
3817.00,0.0117
3816.00,0.0116
3815.00,0.0116
3814.00,0.0116
3813.00,0.0116
3812.00,0.0116
3811.00,0.0115
3810.00,0.0115
3809.00,0.0115
3808.00,0.0115
3807.00,0.0115
3806.00,0.0115
3805.00,0.0116
3804.00,0.0116
3803.00,0.0116
3802.00,0.0115
3801.00,0.0115
3800.00,0.0115
3799.00,0.0115
3798.00,0.0115
3797.00,0.0115
3796.00,0.0115
3795.00,0.0115
3794.00,0.0115
3793.00,0.0115
3792.00,0.0114
3791.00,0.0114
3790.00,0.0114
3789.00,0.0114
3788.00,0.0114
3787.00,0.0114
3786.00,0.0114
3785.00,0.0114
3784.00,0.0114
3783.00,0.0114
3782.00,0.0114
3781.00,0.0114
3780.00,0.0114
3779.00,0.0114
3778.00,0.0114
3777.00,0.0114
3776.00,0.0113
3775.00,0.0113
3774.00,0.0113
3773.00,0.0113
3772.00,0.0113
3771.00,0.0113
3770.00,0.0113
3769.00,0.0114
3768.00,0.0114
3767.00,0.0114
3766.00,0.0114
3765.00,0.0114
3764.00,0.0114
3763.00,0.0114
3762.00,0.0114
3761.00,0.0113
3760.00,0.0113
3759.00,0.0113
3758.00,0.0113
3757.00,0.0113
3756.00,0.0113
3755.00,0.0113
3754.00,0.0113
3753.00,0.0113
3752.00,0.0114
3751.00,0.0114
3750.00,0.0114
3749.00,0.0114
3748.00,0.0114
3747.00,0.0114
3746.00,0.0114
3745.00,0.0114
3744.00,0.0114
3743.00,0.0114
3742.00,0.0113
3741.00,0.0113
3740.00,0.0113
3739.00,0.0113
3738.00,0.0113
3737.00,0.0113
3736.00,0.0113
3735.00,0.0113
3734.00,0.0113
3733.00,0.0113
3732.00,0.0113
3731.00,0.0113
3730.00,0.0113
3729.00,0.0112
3728.00,0.0112
3727.00,0.0112
3726.00,0.0112
3725.00,0.0112
3724.00,0.0112
3723.00,0.0112
3722.00,0.0112
3721.00,0.0112
3720.00,0.0111
3719.00,0.0111
3718.00,0.0111
3717.00,0.0111
3716.00,0.0111
3715.00,0.0111
3714.00,0.0111
3713.00,0.0111
3712.00,0.0111
3711.00,0.0111
3710.00,0.0111
3709.00,0.0111
3708.00,0.0111
3707.00,0.0111
3706.00,0.0111
3705.00,0.0111
3704.00,0.0110
3703.00,0.0110
3702.00,0.0110
3701.00,0.0110
3700.00,0.0110
3699.00,0.0110
3698.00,0.0110
3697.00,0.0110
3696.00,0.0110
3695.00,0.0110
3694.00,0.0110
3693.00,0.0110
3692.00,0.0110
3691.00,0.0110
3690.00,0.0110
3689.00,0.0110
3688.00,0.0111
3687.00,0.0111
3686.00,0.0111
3685.00,0.0111
3684.00,0.0110
3683.00,0.0110
3682.00,0.0110
3681.00,0.0110
3680.00,0.0110
3679.00,0.0110
3678.00,0.0110
3677.00,0.0111
3676.00,0.0111
3675.00,0.0112
3674.00,0.0112
3673.00,0.0112
3672.00,0.0112
3671.00,0.0112
3670.00,0.0112
3669.00,0.0112
3668.00,0.0112
3667.00,0.0112
3666.00,0.0112
3665.00,0.0112
3664.00,0.0112
3663.00,0.0112
3662.00,0.0112
3661.00,0.0113
3660.00,0.0113
3659.00,0.0113
3658.00,0.0113
3657.00,0.0114
3656.00,0.0114
3655.00,0.0114
3654.00,0.0115
3653.00,0.0115
3652.00,0.0116
3651.00,0.0117
3650.00,0.0117
3649.00,0.0118
3648.00,0.0118
3647.00,0.0118
3646.00,0.0118
3645.00,0.0119
3644.00,0.0119
3643.00,0.0119
3642.00,0.0120
3641.00,0.0120
3640.00,0.0120
3639.00,0.0120
3638.00,0.0121
3637.00,0.0121
3636.00,0.0122
3635.00,0.0123
3634.00,0.0123
3633.00,0.0124
3632.00,0.0125
3631.00,0.0126
3630.00,0.0126
3629.00,0.0127
3628.00,0.0127
3627.00,0.0127
3626.00,0.0128
3625.00,0.0129
3624.00,0.0129
3623.00,0.0130
3622.00,0.0130
3621.00,0.0131
3620.00,0.0131
3619.00,0.0132
3618.00,0.0132
3617.00,0.0133
3616.00,0.0133
3615.00,0.0134
3614.00,0.0134
3613.00,0.0135
3612.00,0.0135
3611.00,0.0136
3610.00,0.0136
3609.00,0.0137
3608.00,0.0138
3607.00,0.0138
3606.00,0.0139
3605.00,0.0139
3604.00,0.0140
3603.00,0.0140
3602.00,0.0140
3601.00,0.0141
3600.00,0.0141
3599.00,0.0142
3598.00,0.0143
3597.00,0.0143
3596.00,0.0144
3595.00,0.0144
3594.00,0.0145
3593.00,0.0145
3592.00,0.0146
3591.00,0.0147
3590.00,0.0148
3589.00,0.0149
3588.00,0.0149
3587.00,0.0150
3586.00,0.0150
3585.00,0.0151
3584.00,0.0151
3583.00,0.0152
3582.00,0.0153
3581.00,0.0153
3580.00,0.0154
3579.00,0.0154
3578.00,0.0155
3577.00,0.0155
3576.00,0.0156
3575.00,0.0157
3574.00,0.0157
3573.00,0.0158
3572.00,0.0159
3571.00,0.0160
3570.00,0.0161
3569.00,0.0162
3568.00,0.0163
3567.00,0.0163
3566.00,0.0163
3565.00,0.0164
3564.00,0.0165
3563.00,0.0165
3562.00,0.0166
3561.00,0.0167
3560.00,0.0167
3559.00,0.0168
3558.00,0.0169
3557.00,0.0169
3556.00,0.0170
3555.00,0.0171
3554.00,0.0172
3553.00,0.0173
3552.00,0.0173
3551.00,0.0174
3550.00,0.0175
3549.00,0.0176
3548.00,0.0177
3547.00,0.0178
3546.00,0.0179
3545.00,0.0179
3544.00,0.0180
3543.00,0.0180
3542.00,0.0181
3541.00,0.0181
3540.00,0.0182
3539.00,0.0183
3538.00,0.0184
3537.00,0.0184
3536.00,0.0185
3535.00,0.0186
3534.00,0.0186
3533.00,0.0187
3532.00,0.0188
3531.00,0.0189
3530.00,0.0189
3529.00,0.0190
3528.00,0.0191
3527.00,0.0192
3526.00,0.0192
3525.00,0.0193
3524.00,0.0194
3523.00,0.0194
3522.00,0.0195
3521.00,0.0196
3520.00,0.0196
3519.00,0.0197
3518.00,0.0198
3517.00,0.0199
3516.00,0.0199
3515.00,0.0200
3514.00,0.0201
3513.00,0.0201
3512.00,0.0202
3511.00,0.0203
3510.00,0.0204
3509.00,0.0204
3508.00,0.0205
3507.00,0.0206
3506.00,0.0207
3505.00,0.0208
3504.00,0.0208
3503.00,0.0209
3502.00,0.0210
3501.00,0.0210
3500.00,0.0211
3499.00,0.0212
3498.00,0.0213
3497.00,0.0214
3496.00,0.0215
3495.00,0.0215
3494.00,0.0216
3493.00,0.0216
3492.00,0.0217
3491.00,0.0218
3490.00,0.0219
3489.00,0.0220
3488.00,0.0221
3487.00,0.0221
3486.00,0.0222
3485.00,0.0223
3484.00,0.0224
3483.00,0.0225
3482.00,0.0225
3481.00,0.0226
3480.00,0.0227
3479.00,0.0228
3478.00,0.0229
3477.00,0.0229
3476.00,0.0230
3475.00,0.0231
3474.00,0.0232
3473.00,0.0233
3472.00,0.0234
3471.00,0.0235
3470.00,0.0235
3469.00,0.0236
3468.00,0.0237
3467.00,0.0238
3466.00,0.0239
3465.00,0.0239
3464.00,0.0240
3463.00,0.0240
3462.00,0.0241
3461.00,0.0242
3460.00,0.0243
3459.00,0.0244
3458.00,0.0244
3457.00,0.0245
3456.00,0.0246
3455.00,0.0247
3454.00,0.0247
3453.00,0.0248
3452.00,0.0249
3451.00,0.0250
3450.00,0.0251
3449.00,0.0251
3448.00,0.0252
3447.00,0.0253
3446.00,0.0253
3445.00,0.0254
3444.00,0.0255
3443.00,0.0255
3442.00,0.0256
3441.00,0.0257
3440.00,0.0258
3439.00,0.0259
3438.00,0.0260
3437.00,0.0261
3436.00,0.0262
3435.00,0.0263
3434.00,0.0263
3433.00,0.0264
3432.00,0.0265
3431.00,0.0265
3430.00,0.0266
3429.00,0.0267
3428.00,0.0268
3427.00,0.0269
3426.00,0.0270
3425.00,0.0271
3424.00,0.0271
3423.00,0.0272
3422.00,0.0273
3421.00,0.0274
3420.00,0.0274
3419.00,0.0275
3418.00,0.0276
3417.00,0.0277
3416.00,0.0277
3415.00,0.0278
3414.00,0.0279
3413.00,0.0280
3412.00,0.0281
3411.00,0.0281
3410.00,0.0282
3409.00,0.0283
3408.00,0.0284
3407.00,0.0284
3406.00,0.0285
3405.00,0.0286
3404.00,0.0286
3403.00,0.0287
3402.00,0.0288
3401.00,0.0289
3400.00,0.0290
3399.00,0.0290
3398.00,0.0291
3397.00,0.0292
3396.00,0.0292
3395.00,0.0293
3394.00,0.0294
3393.00,0.0294
3392.00,0.0295
3391.00,0.0296
3390.00,0.0296
3389.00,0.0297
3388.00,0.0298
3387.00,0.0299
3386.00,0.0299
3385.00,0.0300
3384.00,0.0300
3383.00,0.0301
3382.00,0.0302
3381.00,0.0303
3380.00,0.0304
3379.00,0.0305
3378.00,0.0306
3377.00,0.0307
3376.00,0.0308
3375.00,0.0309
3374.00,0.0310
3373.00,0.0311
3372.00,0.0312
3371.00,0.0313
3370.00,0.0314
3369.00,0.0315
3368.00,0.0316
3367.00,0.0317
3366.00,0.0318
3365.00,0.0319
3364.00,0.0320
3363.00,0.0321
3362.00,0.0322
3361.00,0.0324
3360.00,0.0325
3359.00,0.0326
3358.00,0.0328
3357.00,0.0329
3356.00,0.0330
3355.00,0.0332
3354.00,0.0333
3353.00,0.0334
3352.00,0.0335
3351.00,0.0337
3350.00,0.0339
3349.00,0.0340
3348.00,0.0342
3347.00,0.0344
3346.00,0.0345
3345.00,0.0347
3344.00,0.0348
3343.00,0.0350
3342.00,0.0351
3341.00,0.0353
3340.00,0.0355
3339.00,0.0357
3338.00,0.0358
3337.00,0.0360
3336.00,0.0362
3335.00,0.0364
3334.00,0.0366
3333.00,0.0368
3332.00,0.0370
3331.00,0.0372
3330.00,0.0374
3329.00,0.0376
3328.00,0.0378
3327.00,0.0380
3326.00,0.0382
3325.00,0.0384
3324.00,0.0386
3323.00,0.0388
3322.00,0.0391
3321.00,0.0393
3320.00,0.0395
3319.00,0.0398
3318.00,0.0400
3317.00,0.0403
3316.00,0.0405
3315.00,0.0408
3314.00,0.0410
3313.00,0.0413
3312.00,0.0415
3311.00,0.0417
3310.00,0.0420
3309.00,0.0422
3308.00,0.0425
3307.00,0.0427
3306.00,0.0430
3305.00,0.0433
3304.00,0.0436
3303.00,0.0439
3302.00,0.0442
3301.00,0.0445
3300.00,0.0448
3299.00,0.0450
3298.00,0.0453
3297.00,0.0455
3296.00,0.0458
3295.00,0.0460
3294.00,0.0463
3293.00,0.0466
3292.00,0.0468
3291.00,0.0471
3290.00,0.0473
3289.00,0.0476
3288.00,0.0478
3287.00,0.0480
3286.00,0.0482
3285.00,0.0484
3284.00,0.0485
3283.00,0.0487
3282.00,0.0488
3281.00,0.0489
3280.00,0.0490
3279.00,0.0491
3278.00,0.0492
3277.00,0.0492
3276.00,0.0492
3275.00,0.0492
3274.00,0.0491
3273.00,0.0491
3272.00,0.0490
3271.00,0.0489
3270.00,0.0488
3269.00,0.0487
3268.00,0.0486
3267.00,0.0485
3266.00,0.0484
3265.00,0.0482
3264.00,0.0480
3263.00,0.0478
3262.00,0.0476
3261.00,0.0473
3260.00,0.0471
3259.00,0.0468
3258.00,0.0466
3257.00,0.0463
3256.00,0.0460
3255.00,0.0458
3254.00,0.0455
3253.00,0.0453
3252.00,0.0450
3251.00,0.0447
3250.00,0.0445
3249.00,0.0442
3248.00,0.0440
3247.00,0.0437
3246.00,0.0435
3245.00,0.0433
3244.00,0.0430
3243.00,0.0428
3242.00,0.0426
3241.00,0.0424
3240.00,0.0422
3239.00,0.0420
3238.00,0.0418
3237.00,0.0415
3236.00,0.0413
3235.00,0.0411
3234.00,0.0408
3233.00,0.0407
3232.00,0.0405
3231.00,0.0404
3230.00,0.0402
3229.00,0.0401
3228.00,0.0399
3227.00,0.0398
3226.00,0.0396
3225.00,0.0394
3224.00,0.0393
3223.00,0.0391
3222.00,0.0390
3221.00,0.0388
3220.00,0.0387
3219.00,0.0385
3218.00,0.0384
3217.00,0.0382
3216.00,0.0381
3215.00,0.0380
3214.00,0.0378
3213.00,0.0377
3212.00,0.0375
3211.00,0.0374
3210.00,0.0373
3209.00,0.0371
3208.00,0.0370
3207.00,0.0369
3206.00,0.0367
3205.00,0.0366
3204.00,0.0365
3203.00,0.0364
3202.00,0.0362
3201.00,0.0361
3200.00,0.0360
3199.00,0.0358
3198.00,0.0357
3197.00,0.0355
3196.00,0.0353
3195.00,0.0352
3194.00,0.0351
3193.00,0.0349
3192.00,0.0348
3191.00,0.0346
3190.00,0.0345
3189.00,0.0343
3188.00,0.0341
3187.00,0.0340
3186.00,0.0338
3185.00,0.0337
3184.00,0.0335
3183.00,0.0333
3182.00,0.0332
3181.00,0.0330
3180.00,0.0329
3179.00,0.0327
3178.00,0.0325
3177.00,0.0324
3176.00,0.0322
3175.00,0.0320
3174.00,0.0319
3173.00,0.0317
3172.00,0.0315
3171.00,0.0314
3170.00,0.0312
3169.00,0.0311
3168.00,0.0309
3167.00,0.0308
3166.00,0.0306
3165.00,0.0304
3164.00,0.0303
3163.00,0.0301
3162.00,0.0300
3161.00,0.0298
3160.00,0.0296
3159.00,0.0295
3158.00,0.0293
3157.00,0.0292
3156.00,0.0291
3155.00,0.0289
3154.00,0.0288
3153.00,0.0286
3152.00,0.0285
3151.00,0.0284
3150.00,0.0282
3149.00,0.0281
3148.00,0.0280
3147.00,0.0279
3146.00,0.0278
3145.00,0.0277
3144.00,0.0275
3143.00,0.0274
3142.00,0.0273
3141.00,0.0271
3140.00,0.0270
3139.00,0.0269
3138.00,0.0269
3137.00,0.0268
3136.00,0.0267
3135.00,0.0266
3134.00,0.0265
3133.00,0.0264
3132.00,0.0263
3131.00,0.0262
3130.00,0.0261
3129.00,0.0261
3128.00,0.0260
3127.00,0.0259
3126.00,0.0259
3125.00,0.0258
3124.00,0.0257
3123.00,0.0256
3122.00,0.0255
3121.00,0.0254
3120.00,0.0254
3119.00,0.0254
3118.00,0.0253
3117.00,0.0253
3116.00,0.0253
3115.00,0.0253
3114.00,0.0253
3113.00,0.0253
3112.00,0.0252
3111.00,0.0252
3110.00,0.0252
3109.00,0.0252
3108.00,0.0252
3107.00,0.0252
3106.00,0.0252
3105.00,0.0252
3104.00,0.0252
3103.00,0.0252
3102.00,0.0252
3101.00,0.0252
3100.00,0.0252
3099.00,0.0252
3098.00,0.0252
3097.00,0.0253
3096.00,0.0253
3095.00,0.0253
3094.00,0.0253
3093.00,0.0253
3092.00,0.0253
3091.00,0.0254
3090.00,0.0254
3089.00,0.0254
3088.00,0.0254
3087.00,0.0254
3086.00,0.0254
3085.00,0.0254
3084.00,0.0254
3083.00,0.0255
3082.00,0.0255
3081.00,0.0255
3080.00,0.0255
3079.00,0.0255
3078.00,0.0255
3077.00,0.0256
3076.00,0.0256
3075.00,0.0257
3074.00,0.0257
3073.00,0.0257
3072.00,0.0256
3071.00,0.0256
3070.00,0.0256
3069.00,0.0256
3068.00,0.0255
3067.00,0.0255
3066.00,0.0255
3065.00,0.0255
3064.00,0.0255
3063.00,0.0254
3062.00,0.0254
3061.00,0.0254
3060.00,0.0253
3059.00,0.0252
3058.00,0.0251
3057.00,0.0250
3056.00,0.0249
3055.00,0.0249
3054.00,0.0248
3053.00,0.0247
3052.00,0.0246
3051.00,0.0245
3050.00,0.0244
3049.00,0.0243
3048.00,0.0242
3047.00,0.0241
3046.00,0.0240
3045.00,0.0239
3044.00,0.0237
3043.00,0.0236
3042.00,0.0236
3041.00,0.0235
3040.00,0.0234
3039.00,0.0234
3038.00,0.0233
3037.00,0.0232
3036.00,0.0231
3035.00,0.0230
3034.00,0.0229
3033.00,0.0228
3032.00,0.0227
3031.00,0.0226
3030.00,0.0226
3029.00,0.0225
3028.00,0.0224
3027.00,0.0223
3026.00,0.0222
3025.00,0.0221
3024.00,0.0220
3023.00,0.0218
3022.00,0.0217
3021.00,0.0216
3020.00,0.0215
3019.00,0.0213
3018.00,0.0212
3017.00,0.0211
3016.00,0.0210
3015.00,0.0209
3014.00,0.0208
3013.00,0.0207
3012.00,0.0206
3011.00,0.0205
3010.00,0.0205
3009.00,0.0204
3008.00,0.0204
3007.00,0.0203
3006.00,0.0202
3005.00,0.0201
3004.00,0.0200
3003.00,0.0199
3002.00,0.0199
3001.00,0.0198
3000.00,0.0198
2999.00,0.0197
2998.00,0.0197
2997.00,0.0197
2996.00,0.0197
2995.00,0.0197
2994.00,0.0197
2993.00,0.0197
2992.00,0.0198
2991.00,0.0199
2990.00,0.0200
2989.00,0.0201
2988.00,0.0202
2987.00,0.0203
2986.00,0.0203
2985.00,0.0203
2984.00,0.0202
2983.00,0.0201
2982.00,0.0201
2981.00,0.0201
2980.00,0.0203
2979.00,0.0205
2978.00,0.0208
2977.00,0.0210
2976.00,0.0212
2975.00,0.0214
2974.00,0.0215
2973.00,0.0216
2972.00,0.0217
2971.00,0.0218
2970.00,0.0219
2969.00,0.0221
2968.00,0.0222
2967.00,0.0223
2966.00,0.0224
2965.00,0.0225
2964.00,0.0225
2963.00,0.0226
2962.00,0.0226
2961.00,0.0226
2960.00,0.0226
2959.00,0.0226
2958.00,0.0226
2957.00,0.0225
2956.00,0.0225
2955.00,0.0224
2954.00,0.0224
2953.00,0.0223
2952.00,0.0223
2951.00,0.0223
2950.00,0.0223
2949.00,0.0223
2948.00,0.0223
2947.00,0.0224
2946.00,0.0224
2945.00,0.0225
2944.00,0.0226
2943.00,0.0226
2942.00,0.0227
2941.00,0.0228
2940.00,0.0229
2939.00,0.0230
2938.00,0.0230
2937.00,0.0231
2936.00,0.0231
2935.00,0.0231
2934.00,0.0231
2933.00,0.0231
2932.00,0.0230
2931.00,0.0229
2930.00,0.0228
2929.00,0.0227
2928.00,0.0226
2927.00,0.0225
2926.00,0.0224
2925.00,0.0223
2924.00,0.0222
2923.00,0.0222
2922.00,0.0221
2921.00,0.0220
2920.00,0.0220
2919.00,0.0219
2918.00,0.0218
2917.00,0.0218
2916.00,0.0217
2915.00,0.0215
2914.00,0.0214
2913.00,0.0213
2912.00,0.0212
2911.00,0.0211
2910.00,0.0209
2909.00,0.0208
2908.00,0.0207
2907.00,0.0206
2906.00,0.0205
2905.00,0.0204
2904.00,0.0204
2903.00,0.0203
2902.00,0.0202
2901.00,0.0202
2900.00,0.0201
2899.00,0.0201
2898.00,0.0200
2897.00,0.0200
2896.00,0.0199
2895.00,0.0199
2894.00,0.0199
2893.00,0.0198
2892.00,0.0198
2891.00,0.0198
2890.00,0.0198
2889.00,0.0198
2888.00,0.0198
2887.00,0.0198
2886.00,0.0199
2885.00,0.0199
2884.00,0.0200
2883.00,0.0200
2882.00,0.0201
2881.00,0.0202
2880.00,0.0203
2879.00,0.0204
2878.00,0.0204
2877.00,0.0205
2876.00,0.0205
2875.00,0.0204
2874.00,0.0204
2873.00,0.0203
2872.00,0.0203
2871.00,0.0202
2870.00,0.0201
2869.00,0.0199
2868.00,0.0198
2867.00,0.0196
2866.00,0.0195
2865.00,0.0193
2864.00,0.0192
2863.00,0.0190
2862.00,0.0188
2861.00,0.0187
2860.00,0.0186
2859.00,0.0185
2858.00,0.0184
2857.00,0.0183
2856.00,0.0183
2855.00,0.0182
2854.00,0.0182
2853.00,0.0182
2852.00,0.0182
2851.00,0.0182
2850.00,0.0182
2849.00,0.0182
2848.00,0.0181
2847.00,0.0180
2846.00,0.0179
2845.00,0.0178
2844.00,0.0177
2843.00,0.0177
2842.00,0.0176
2841.00,0.0175
2840.00,0.0174
2839.00,0.0174
2838.00,0.0173
2837.00,0.0173
2836.00,0.0172
2835.00,0.0172
2834.00,0.0171
2833.00,0.0171
2832.00,0.0171
2831.00,0.0170
2830.00,0.0170
2829.00,0.0170
2828.00,0.0170
2827.00,0.0169
2826.00,0.0169
2825.00,0.0169
2824.00,0.0168
2823.00,0.0168
2822.00,0.0168
2821.00,0.0168
2820.00,0.0167
2819.00,0.0167
2818.00,0.0166
2817.00,0.0166
2816.00,0.0166
2815.00,0.0166
2814.00,0.0165
2813.00,0.0165
2812.00,0.0165
2811.00,0.0164
2810.00,0.0164
2809.00,0.0164
2808.00,0.0163
2807.00,0.0163
2806.00,0.0163
2805.00,0.0163
2804.00,0.0162
2803.00,0.0162
2802.00,0.0162
2801.00,0.0161
2800.00,0.0161
2799.00,0.0161
2798.00,0.0160
2797.00,0.0160
2796.00,0.0160
2795.00,0.0160
2794.00,0.0159
2793.00,0.0159
2792.00,0.0159
2791.00,0.0158
2790.00,0.0158
2789.00,0.0158
2788.00,0.0158
2787.00,0.0157
2786.00,0.0157
2785.00,0.0157
2784.00,0.0157
2783.00,0.0156
2782.00,0.0156
2781.00,0.0156
2780.00,0.0156
2779.00,0.0155
2778.00,0.0155
2777.00,0.0155
2776.00,0.0155
2775.00,0.0154
2774.00,0.0154
2773.00,0.0154
2772.00,0.0154
2771.00,0.0153
2770.00,0.0153
2769.00,0.0153
2768.00,0.0152
2767.00,0.0152
2766.00,0.0152
2765.00,0.0151
2764.00,0.0151
2763.00,0.0151
2762.00,0.0151
2761.00,0.0150
2760.00,0.0150
2759.00,0.0150
2758.00,0.0150
2757.00,0.0149
2756.00,0.0149
2755.00,0.0149
2754.00,0.0149
2753.00,0.0148
2752.00,0.0148
2751.00,0.0148
2750.00,0.0148
2749.00,0.0147
2748.00,0.0147
2747.00,0.0147
2746.00,0.0147
2745.00,0.0146
2744.00,0.0146
2743.00,0.0146
2742.00,0.0146
2741.00,0.0146
2740.00,0.0145
2739.00,0.0145
2738.00,0.0145
2737.00,0.0144
2736.00,0.0144
2735.00,0.0144
2734.00,0.0143
2733.00,0.0143
2732.00,0.0143
2731.00,0.0143
2730.00,0.0143
2729.00,0.0142
2728.00,0.0142
2727.00,0.0142
2726.00,0.0141
2725.00,0.0141
2724.00,0.0141
2723.00,0.0141
2722.00,0.0140
2721.00,0.0140
2720.00,0.0140
2719.00,0.0140
2718.00,0.0140
2717.00,0.0139
2716.00,0.0139
2715.00,0.0139
2714.00,0.0138
2713.00,0.0138
2712.00,0.0138
2711.00,0.0138
2710.00,0.0137
2709.00,0.0137
2708.00,0.0137
2707.00,0.0137
2706.00,0.0136
2705.00,0.0136
2704.00,0.0136
2703.00,0.0136
2702.00,0.0136
2701.00,0.0135
2700.00,0.0135
2699.00,0.0135
2698.00,0.0135
2697.00,0.0134
2696.00,0.0134
2695.00,0.0134
2694.00,0.0134
2693.00,0.0134
2692.00,0.0133
2691.00,0.0133
2690.00,0.0133
2689.00,0.0133
2688.00,0.0133
2687.00,0.0133
2686.00,0.0133
2685.00,0.0133
2684.00,0.0132
2683.00,0.0132
2682.00,0.0132
2681.00,0.0132
2680.00,0.0131
2679.00,0.0131
2678.00,0.0131
2677.00,0.0130
2676.00,0.0130
2675.00,0.0130
2674.00,0.0130
2673.00,0.0130
2672.00,0.0130
2671.00,0.0130
2670.00,0.0130
2669.00,0.0130
2668.00,0.0129
2667.00,0.0129
2666.00,0.0129
2665.00,0.0129
2664.00,0.0129
2663.00,0.0129
2662.00,0.0129
2661.00,0.0129
2660.00,0.0129
2659.00,0.0128
2658.00,0.0128
2657.00,0.0128
2656.00,0.0128
2655.00,0.0128
2654.00,0.0128
2653.00,0.0128
2652.00,0.0128
2651.00,0.0128
2650.00,0.0128
2649.00,0.0128
2648.00,0.0128
2647.00,0.0128
2646.00,0.0128
2645.00,0.0127
2644.00,0.0127
2643.00,0.0127
2642.00,0.0127
2641.00,0.0127
2640.00,0.0127
2639.00,0.0127
2638.00,0.0127
2637.00,0.0127
2636.00,0.0127
2635.00,0.0127
2634.00,0.0126
2633.00,0.0126
2632.00,0.0127
2631.00,0.0127
2630.00,0.0127
2629.00,0.0126
2628.00,0.0126
2627.00,0.0126
2626.00,0.0126
2625.00,0.0126
2624.00,0.0126
2623.00,0.0126
2622.00,0.0126
2621.00,0.0126
2620.00,0.0126
2619.00,0.0126
2618.00,0.0126
2617.00,0.0126
2616.00,0.0125
2615.00,0.0125
2614.00,0.0125
2613.00,0.0125
2612.00,0.0125
2611.00,0.0125
2610.00,0.0125
2609.00,0.0125
2608.00,0.0124
2607.00,0.0124
2606.00,0.0124
2605.00,0.0124
2604.00,0.0124
2603.00,0.0124
2602.00,0.0124
2601.00,0.0124
2600.00,0.0124
2599.00,0.0124
2598.00,0.0124
2597.00,0.0123
2596.00,0.0123
2595.00,0.0123
2594.00,0.0123
2593.00,0.0123
2592.00,0.0122
2591.00,0.0122
2590.00,0.0122
2589.00,0.0122
2588.00,0.0122
2587.00,0.0122
2586.00,0.0122
2585.00,0.0122
2584.00,0.0122
2583.00,0.0121
2582.00,0.0121
2581.00,0.0121
2580.00,0.0121
2579.00,0.0121
2578.00,0.0121
2577.00,0.0121
2576.00,0.0121
2575.00,0.0121
2574.00,0.0120
2573.00,0.0120
2572.00,0.0120
2571.00,0.0120
2570.00,0.0120
2569.00,0.0120
2568.00,0.0120
2567.00,0.0119
2566.00,0.0119
2565.00,0.0119
2564.00,0.0119
2563.00,0.0119
2562.00,0.0119
2561.00,0.0119
2560.00,0.0119
2559.00,0.0119
2558.00,0.0118
2557.00,0.0118
2556.00,0.0118
2555.00,0.0118
2554.00,0.0118
2553.00,0.0118
2552.00,0.0118
2551.00,0.0118
2550.00,0.0118
2549.00,0.0118
2548.00,0.0118
2547.00,0.0118
2546.00,0.0118
2545.00,0.0117
2544.00,0.0117
2543.00,0.0117
2542.00,0.0117
2541.00,0.0116
2540.00,0.0116
2539.00,0.0116
2538.00,0.0116
2537.00,0.0116
2536.00,0.0116
2535.00,0.0115
2534.00,0.0115
2533.00,0.0115
2532.00,0.0115
2531.00,0.0115
2530.00,0.0115
2529.00,0.0115
2528.00,0.0115
2527.00,0.0115
2526.00,0.0115
2525.00,0.0115
2524.00,0.0115
2523.00,0.0114
2522.00,0.0114
2521.00,0.0114
2520.00,0.0114
2519.00,0.0114
2518.00,0.0114
2517.00,0.0114
2516.00,0.0114
2515.00,0.0114
2514.00,0.0114
2513.00,0.0114
2512.00,0.0114
2511.00,0.0114
2510.00,0.0114
2509.00,0.0113
2508.00,0.0113
2507.00,0.0113
2506.00,0.0113
2505.00,0.0113
2504.00,0.0113
2503.00,0.0113
2502.00,0.0113
2501.00,0.0113
2500.00,0.0113
2499.00,0.0113
2498.00,0.0113
2497.00,0.0113
2496.00,0.0112
2495.00,0.0112
2494.00,0.0112
2493.00,0.0112
2492.00,0.0112
2491.00,0.0112
2490.00,0.0112
2489.00,0.0112
2488.00,0.0112
2487.00,0.0112
2486.00,0.0112
2485.00,0.0111
2484.00,0.0111
2483.00,0.0111
2482.00,0.0111
2481.00,0.0111
2480.00,0.0111
2479.00,0.0111
2478.00,0.0110
2477.00,0.0110
2476.00,0.0110
2475.00,0.0110
2474.00,0.0110
2473.00,0.0110
2472.00,0.0110
2471.00,0.0110
2470.00,0.0110
2469.00,0.0110
2468.00,0.0110
2467.00,0.0109
2466.00,0.0109
2465.00,0.0109
2464.00,0.0109
2463.00,0.0109
2462.00,0.0109
2461.00,0.0109
2460.00,0.0109
2459.00,0.0109
2458.00,0.0109
2457.00,0.0109
2456.00,0.0109
2455.00,0.0108
2454.00,0.0108
2453.00,0.0108
2452.00,0.0108
2451.00,0.0108
2450.00,0.0108
2449.00,0.0108
2448.00,0.0108
2447.00,0.0107
2446.00,0.0107
2445.00,0.0107
2444.00,0.0107
2443.00,0.0107
2442.00,0.0107
2441.00,0.0107
2440.00,0.0107
2439.00,0.0107
2438.00,0.0107
2437.00,0.0107
2436.00,0.0106
2435.00,0.0106
2434.00,0.0106
2433.00,0.0106
2432.00,0.0106
2431.00,0.0106
2430.00,0.0106
2429.00,0.0106
2428.00,0.0105
2427.00,0.0105
2426.00,0.0105
2425.00,0.0105
2424.00,0.0105
2423.00,0.0105
2422.00,0.0104
2421.00,0.0104
2420.00,0.0104
2419.00,0.0104
2418.00,0.0104
2417.00,0.0104
2416.00,0.0104
2415.00,0.0104
2414.00,0.0104
2413.00,0.0104
2412.00,0.0104
2411.00,0.0103
2410.00,0.0103
2409.00,0.0103
2408.00,0.0103
2407.00,0.0103
2406.00,0.0103
2405.00,0.0103
2404.00,0.0102
2403.00,0.0102
2402.00,0.0102
2401.00,0.0102
2400.00,0.0102
2399.00,0.0102
2398.00,0.0102
2397.00,0.0102
2396.00,0.0102
2395.00,0.0102
2394.00,0.0101
2393.00,0.0101
2392.00,0.0101
2391.00,0.0101
2390.00,0.0101
2389.00,0.0101
2388.00,0.0101
2387.00,0.0101
2386.00,0.0100
2385.00,0.0100
2384.00,0.0100
2383.00,0.0100
2382.00,0.0100
2381.00,0.0100
2380.00,0.0100
2379.00,0.0100
2378.00,0.0100
2377.00,0.0100
2376.00,0.0099
2375.00,0.0099
2374.00,0.0099
2373.00,0.0099
2372.00,0.0099
2371.00,0.0099
2370.00,0.0098
2369.00,0.0098
2368.00,0.0098
2367.00,0.0098
2366.00,0.0098
2365.00,0.0098
2364.00,0.0098
2363.00,0.0098
2362.00,0.0098
2361.00,0.0098
2360.00,0.0098
2359.00,0.0098
2358.00,0.0098
2357.00,0.0098
2356.00,0.0098
2355.00,0.0098
2354.00,0.0098
2353.00,0.0098
2352.00,0.0098
2351.00,0.0097
2350.00,0.0097
2349.00,0.0097
2348.00,0.0097
2347.00,0.0097
2346.00,0.0097
2345.00,0.0097
2344.00,0.0097
2343.00,0.0097
2342.00,0.0097
2341.00,0.0097
2340.00,0.0097
2339.00,0.0097
2338.00,0.0097
2337.00,0.0096
2336.00,0.0096
2335.00,0.0096
2334.00,0.0096
2333.00,0.0096
2332.00,0.0096
2331.00,0.0096
2330.00,0.0096
2329.00,0.0096
2328.00,0.0097
2327.00,0.0097
2326.00,0.0097
2325.00,0.0096
2324.00,0.0096
2323.00,0.0095
2322.00,0.0095
2321.00,0.0095
2320.00,0.0095
2319.00,0.0095
2318.00,0.0095
2317.00,0.0095
2316.00,0.0095
2315.00,0.0095
2314.00,0.0095
2313.00,0.0095
2312.00,0.0095
2311.00,0.0095
2310.00,0.0095
2309.00,0.0095
2308.00,0.0095
2307.00,0.0094
2306.00,0.0094
2305.00,0.0094
2304.00,0.0094
2303.00,0.0095
2302.00,0.0095
2301.00,0.0095
2300.00,0.0095
2299.00,0.0095
2298.00,0.0095
2297.00,0.0095
2296.00,0.0095
2295.00,0.0094
2294.00,0.0094
2293.00,0.0095
2292.00,0.0095
2291.00,0.0095
2290.00,0.0095
2289.00,0.0095
2288.00,0.0095
2287.00,0.0095
2286.00,0.0095
2285.00,0.0095
2284.00,0.0095
2283.00,0.0094
2282.00,0.0094
2281.00,0.0094
2280.00,0.0095
2279.00,0.0095
2278.00,0.0095
2277.00,0.0094
2276.00,0.0094
2275.00,0.0094
2274.00,0.0094
2273.00,0.0094
2272.00,0.0094
2271.00,0.0094
2270.00,0.0094
2269.00,0.0094
2268.00,0.0093
2267.00,0.0093
2266.00,0.0093
2265.00,0.0093
2264.00,0.0093
2263.00,0.0093
2262.00,0.0093
2261.00,0.0093
2260.00,0.0093
2259.00,0.0093
2258.00,0.0093
2257.00,0.0093
2256.00,0.0093
2255.00,0.0093
2254.00,0.0093
2253.00,0.0092
2252.00,0.0092
2251.00,0.0092
2250.00,0.0092
2249.00,0.0092
2248.00,0.0093
2247.00,0.0093
2246.00,0.0092
2245.00,0.0092
2244.00,0.0092
2243.00,0.0092
2242.00,0.0092
2241.00,0.0091
2240.00,0.0091
2239.00,0.0091
2238.00,0.0091
2237.00,0.0091
2236.00,0.0091
2235.00,0.0091
2234.00,0.0091
2233.00,0.0090
2232.00,0.0090
2231.00,0.0090
2230.00,0.0090
2229.00,0.0090
2228.00,0.0091
2227.00,0.0091
2226.00,0.0091
2225.00,0.0091
2224.00,0.0092
2223.00,0.0092
2222.00,0.0092
2221.00,0.0092
2220.00,0.0091
2219.00,0.0091
2218.00,0.0090
2217.00,0.0090
2216.00,0.0090
2215.00,0.0090
2214.00,0.0090
2213.00,0.0090
2212.00,0.0091
2211.00,0.0091
2210.00,0.0091
2209.00,0.0091
2208.00,0.0091
2207.00,0.0090
2206.00,0.0090
2205.00,0.0090
2204.00,0.0090
2203.00,0.0090
2202.00,0.0089
2201.00,0.0089
2200.00,0.0089
2199.00,0.0089
2198.00,0.0089
2197.00,0.0089
2196.00,0.0089
2195.00,0.0089
2194.00,0.0089
2193.00,0.0088
2192.00,0.0089
2191.00,0.0089
2190.00,0.0089
2189.00,0.0089
2188.00,0.0089
2187.00,0.0089
2186.00,0.0089
2185.00,0.0089
2184.00,0.0088
2183.00,0.0088
2182.00,0.0087
2181.00,0.0087
2180.00,0.0087
2179.00,0.0086
2178.00,0.0085
2177.00,0.0085
2176.00,0.0086
2175.00,0.0086
2174.00,0.0086
2173.00,0.0087
2172.00,0.0087
2171.00,0.0087
2170.00,0.0087
2169.00,0.0087
2168.00,0.0087
2167.00,0.0087
2166.00,0.0087
2165.00,0.0087
2164.00,0.0086
2163.00,0.0086
2162.00,0.0085
2161.00,0.0084
2160.00,0.0083
2159.00,0.0082
2158.00,0.0082
2157.00,0.0082
2156.00,0.0083
2155.00,0.0083
2154.00,0.0084
2153.00,0.0085
2152.00,0.0085
2151.00,0.0085
2150.00,0.0085
2149.00,0.0085
2148.00,0.0084
2147.00,0.0084
2146.00,0.0085
2145.00,0.0085
2144.00,0.0086
2143.00,0.0085
2142.00,0.0084
2141.00,0.0084
2140.00,0.0084
2139.00,0.0083
2138.00,0.0083
2137.00,0.0083
2136.00,0.0083
2135.00,0.0083
2134.00,0.0084
2133.00,0.0084
2132.00,0.0085
2131.00,0.0085
2130.00,0.0085
2129.00,0.0085
2128.00,0.0085
2127.00,0.0085
2126.00,0.0085
2125.00,0.0085
2124.00,0.0085
2123.00,0.0085
2122.00,0.0085
2121.00,0.0086
2120.00,0.0086
2119.00,0.0086
2118.00,0.0086
2117.00,0.0086
2116.00,0.0086
2115.00,0.0086
2114.00,0.0086
2113.00,0.0086
2112.00,0.0085
2111.00,0.0085
2110.00,0.0085
2109.00,0.0085
2108.00,0.0085
2107.00,0.0085
2106.00,0.0085
2105.00,0.0085
2104.00,0.0085
2103.00,0.0085
2102.00,0.0085
2101.00,0.0085
2100.00,0.0085
2099.00,0.0085
2098.00,0.0084
2097.00,0.0084
2096.00,0.0084
2095.00,0.0084
2094.00,0.0083
2093.00,0.0083
2092.00,0.0083
2091.00,0.0084
2090.00,0.0084
2089.00,0.0084
2088.00,0.0084
2087.00,0.0084
2086.00,0.0083
2085.00,0.0083
2084.00,0.0083
2083.00,0.0083
2082.00,0.0083
2081.00,0.0082
2080.00,0.0082
2079.00,0.0081
2078.00,0.0081
2077.00,0.0081
2076.00,0.0081
2075.00,0.0081
2074.00,0.0081
2073.00,0.0081
2072.00,0.0081
2071.00,0.0080
2070.00,0.0080
2069.00,0.0081
2068.00,0.0081
2067.00,0.0081
2066.00,0.0080
2065.00,0.0080
2064.00,0.0079
2063.00,0.0079
2062.00,0.0078
2061.00,0.0078
2060.00,0.0079
2059.00,0.0079
2058.00,0.0079
2057.00,0.0079
2056.00,0.0078
2055.00,0.0078
2054.00,0.0078
2053.00,0.0078
2052.00,0.0078
2051.00,0.0077
2050.00,0.0076
2049.00,0.0076
2048.00,0.0077
2047.00,0.0078
2046.00,0.0079
2045.00,0.0079
2044.00,0.0078
2043.00,0.0077
2042.00,0.0075
2041.00,0.0075
2040.00,0.0076
2039.00,0.0077
2038.00,0.0077
2037.00,0.0077
2036.00,0.0076
2035.00,0.0076
2034.00,0.0075
2033.00,0.0075
2032.00,0.0075
2031.00,0.0074
2030.00,0.0073
2029.00,0.0073
2028.00,0.0074
2027.00,0.0074
2026.00,0.0074
2025.00,0.0074
2024.00,0.0074
2023.00,0.0074
2022.00,0.0074
2021.00,0.0074
2020.00,0.0074
2019.00,0.0074
2018.00,0.0073
2017.00,0.0073
2016.00,0.0073
2015.00,0.0073
2014.00,0.0073
2013.00,0.0073
2012.00,0.0074
2011.00,0.0073
2010.00,0.0073
2009.00,0.0072
2008.00,0.0072
2007.00,0.0072
2006.00,0.0071
2005.00,0.0071
2004.00,0.0072
2003.00,0.0072
2002.00,0.0072
2001.00,0.0073
2000.00,0.0073
1999.00,0.0074
1998.00,0.0074
1997.00,0.0074
1996.00,0.0074
1995.00,0.0073
1994.00,0.0073
1993.00,0.0072
1992.00,0.0072
1991.00,0.0072
1990.00,0.0072
1989.00,0.0072
1988.00,0.0072
1987.00,0.0072
1986.00,0.0071
1985.00,0.0071
1984.00,0.0071
1983.00,0.0071
1982.00,0.0070
1981.00,0.0070
1980.00,0.0069
1979.00,0.0068
1978.00,0.0067
1977.00,0.0066
1976.00,0.0067
1975.00,0.0068
1974.00,0.0068
1973.00,0.0069
1972.00,0.0070
1971.00,0.0070
1970.00,0.0069
1969.00,0.0069
1968.00,0.0069
1967.00,0.0069
1966.00,0.0069
1965.00,0.0069
1964.00,0.0068
1963.00,0.0068
1962.00,0.0067
1961.00,0.0067
1960.00,0.0068
1959.00,0.0069
1958.00,0.0069
1957.00,0.0069
1956.00,0.0069
1955.00,0.0069
1954.00,0.0069
1953.00,0.0069
1952.00,0.0069
1951.00,0.0069
1950.00,0.0069
1949.00,0.0069
1948.00,0.0069
1947.00,0.0068
1946.00,0.0067
1945.00,0.0066
1944.00,0.0066
1943.00,0.0066
1942.00,0.0066
1941.00,0.0067
1940.00,0.0067
1939.00,0.0067
1938.00,0.0066
1937.00,0.0066
1936.00,0.0066
1935.00,0.0066
1934.00,0.0066
1933.00,0.0066
1932.00,0.0066
1931.00,0.0065
1930.00,0.0065
1929.00,0.0065
1928.00,0.0065
1927.00,0.0065
1926.00,0.0064
1925.00,0.0064
1924.00,0.0064
1923.00,0.0064
1922.00,0.0064
1921.00,0.0064
1920.00,0.0064
1919.00,0.0064
1918.00,0.0064
1917.00,0.0064
1916.00,0.0064
1915.00,0.0064
1914.00,0.0064
1913.00,0.0064
1912.00,0.0064
1911.00,0.0063
1910.00,0.0063
1909.00,0.0063
1908.00,0.0063
1907.00,0.0062
1906.00,0.0062
1905.00,0.0062
1904.00,0.0061
1903.00,0.0061
1902.00,0.0061
1901.00,0.0062
1900.00,0.0062
1899.00,0.0062
1898.00,0.0062
1897.00,0.0062
1896.00,0.0062
1895.00,0.0062
1894.00,0.0061
1893.00,0.0061
1892.00,0.0061
1891.00,0.0061
1890.00,0.0060
1889.00,0.0060
1888.00,0.0060
1887.00,0.0060
1886.00,0.0060
1885.00,0.0060
1884.00,0.0060
1883.00,0.0060
1882.00,0.0059
1881.00,0.0059
1880.00,0.0059
1879.00,0.0059
1878.00,0.0059
1877.00,0.0059
1876.00,0.0059
1875.00,0.0059
1874.00,0.0058
1873.00,0.0058
1872.00,0.0057
1871.00,0.0057
1870.00,0.0057
1869.00,0.0057
1868.00,0.0057
1867.00,0.0057
1866.00,0.0057
1865.00,0.0056
1864.00,0.0056
1863.00,0.0056
1862.00,0.0056
1861.00,0.0056
1860.00,0.0056
1859.00,0.0056
1858.00,0.0055
1857.00,0.0055
1856.00,0.0055
1855.00,0.0055
1854.00,0.0055
1853.00,0.0055
1852.00,0.0055
1851.00,0.0055
1850.00,0.0054
1849.00,0.0054
1848.00,0.0054
1847.00,0.0054
1846.00,0.0053
1845.00,0.0053
1844.00,0.0054
1843.00,0.0054
1842.00,0.0053
1841.00,0.0053
1840.00,0.0053
1839.00,0.0053
1838.00,0.0053
1837.00,0.0052
1836.00,0.0052
1835.00,0.0052
1834.00,0.0052
1833.00,0.0052
1832.00,0.0051
1831.00,0.0051
1830.00,0.0051
1829.00,0.0051
1828.00,0.0051
1827.00,0.0050
1826.00,0.0050
1825.00,0.0050
1824.00,0.0050
1823.00,0.0050
1822.00,0.0050
1821.00,0.0050
1820.00,0.0050
1819.00,0.0049
1818.00,0.0049
1817.00,0.0049
1816.00,0.0049
1815.00,0.0048
1814.00,0.0048
1813.00,0.0048
1812.00,0.0048
1811.00,0.0048
1810.00,0.0047
1809.00,0.0047
1808.00,0.0047
1807.00,0.0047
1806.00,0.0047
1805.00,0.0047
1804.00,0.0047
1803.00,0.0046
1802.00,0.0046
1801.00,0.0046
1800.00,0.0046
1799.00,0.0046
1798.00,0.0046
1797.00,0.0045
1796.00,0.0045
1795.00,0.0045
1794.00,0.0044
1793.00,0.0044
1792.00,0.0044
1791.00,0.0044
1790.00,0.0044
1789.00,0.0044
1788.00,0.0044
1787.00,0.0043
1786.00,0.0043
1785.00,0.0043
1784.00,0.0043
1783.00,0.0043
1782.00,0.0042
1781.00,0.0042
1780.00,0.0042
1779.00,0.0042
1778.00,0.0042
1777.00,0.0041
1776.00,0.0041
1775.00,0.0041
1774.00,0.0041
1773.00,0.0042
1772.00,0.0042
1771.00,0.0041
1770.00,0.0040
1769.00,0.0039
1768.00,0.0039
1767.00,0.0039
1766.00,0.0039
1765.00,0.0039
1764.00,0.0039
1763.00,0.0039
1762.00,0.0039
1761.00,0.0039
1760.00,0.0039
1759.00,0.0039
1758.00,0.0038
1757.00,0.0038
1756.00,0.0038
1755.00,0.0038
1754.00,0.0038
1753.00,0.0039
1752.00,0.0040
1751.00,0.0040
1750.00,0.0040
1749.00,0.0040
1748.00,0.0041
1747.00,0.0042
1746.00,0.0042
1745.00,0.0043
1744.00,0.0044
1743.00,0.0044
1742.00,0.0045
1741.00,0.0045
1740.00,0.0047
1739.00,0.0048
1738.00,0.0048
1737.00,0.0048
1736.00,0.0049
1735.00,0.0050
1734.00,0.0051
1733.00,0.0051
1732.00,0.0051
1731.00,0.0050
1730.00,0.0048
1729.00,0.0048
1728.00,0.0048
1727.00,0.0048
1726.00,0.0048
1725.00,0.0048
1724.00,0.0050
1723.00,0.0051
1722.00,0.0052
1721.00,0.0053
1720.00,0.0055
1719.00,0.0058
1718.00,0.0062
1717.00,0.0066
1716.00,0.0070
1715.00,0.0072
1714.00,0.0074
1713.00,0.0077
1712.00,0.0080
1711.00,0.0084
1710.00,0.0088
1709.00,0.0092
1708.00,0.0098
1707.00,0.0105
1706.00,0.0113
1705.00,0.0124
1704.00,0.0134
1703.00,0.0144
1702.00,0.0156
1701.00,0.0176
1700.00,0.0203
1699.00,0.0225
1698.00,0.0239
1697.00,0.0250
1696.00,0.0260
1695.00,0.0269
1694.00,0.0275
1693.00,0.0279
1692.00,0.0285
1691.00,0.0292
1690.00,0.0300
1689.00,0.0309
1688.00,0.0318
1687.00,0.0326
1686.00,0.0336
1685.00,0.0349
1684.00,0.0364
1683.00,0.0376
1682.00,0.0386
1681.00,0.0395
1680.00,0.0406
1679.00,0.0417
1678.00,0.0427
1677.00,0.0438
1676.00,0.0450
1675.00,0.0464
1674.00,0.0477
1673.00,0.0489
1672.00,0.0500
1671.00,0.0513
1670.00,0.0526
1669.00,0.0541
1668.00,0.0556
1667.00,0.0568
1666.00,0.0580
1665.00,0.0591
1664.00,0.0605
1663.00,0.0619
1662.00,0.0633
1661.00,0.0647
1660.00,0.0660
1659.00,0.0672
1658.00,0.0683
1657.00,0.0694
1656.00,0.0704
1655.00,0.0715
1654.00,0.0726
1653.00,0.0739
1652.00,0.0750
1651.00,0.0758
1650.00,0.0763
1649.00,0.0768
1648.00,0.0774
1647.00,0.0780
1646.00,0.0785
1645.00,0.0789
1644.00,0.0794
1643.00,0.0798
1642.00,0.0801
1641.00,0.0805
1640.00,0.0808
1639.00,0.0812
1638.00,0.0815
1637.00,0.0818
1636.00,0.0821
1635.00,0.0824
1634.00,0.0827
1633.00,0.0831
1632.00,0.0836
1631.00,0.0842
1630.00,0.0848
1629.00,0.0854
1628.00,0.0862
1627.00,0.0870
1626.00,0.0879
1625.00,0.0887
1624.00,0.0897
1623.00,0.0908
1622.00,0.0917
1621.00,0.0926
1620.00,0.0933
1619.00,0.0939
1618.00,0.0942
1617.00,0.0942
1616.00,0.0938
1615.00,0.0932
1614.00,0.0924
1613.00,0.0913
1612.00,0.0900
1611.00,0.0883
1610.00,0.0864
1609.00,0.0843
1608.00,0.0821
1607.00,0.0798
1606.00,0.0776
1605.00,0.0753
1604.00,0.0731
1603.00,0.0709
1602.00,0.0687
1601.00,0.0666
1600.00,0.0645
1599.00,0.0626
1598.00,0.0608
1597.00,0.0591
1596.00,0.0574
1595.00,0.0558
1594.00,0.0543
1593.00,0.0528
1592.00,0.0515
1591.00,0.0503
1590.00,0.0491
1589.00,0.0481
1588.00,0.0472
1587.00,0.0463
1586.00,0.0456
1585.00,0.0449
1584.00,0.0443
1583.00,0.0438
1582.00,0.0433
1581.00,0.0430
1580.00,0.0427
1579.00,0.0425
1578.00,0.0425
1577.00,0.0425
1576.00,0.0424
1575.00,0.0424
1574.00,0.0424
1573.00,0.0425
1572.00,0.0427
1571.00,0.0431
1570.00,0.0435
1569.00,0.0441
1568.00,0.0447
1567.00,0.0452
1566.00,0.0459
1565.00,0.0467
1564.00,0.0475
1563.00,0.0483
1562.00,0.0491
1561.00,0.0499
1560.00,0.0510
1559.00,0.0525
1558.00,0.0541
1557.00,0.0552
1556.00,0.0563
1555.00,0.0573
1554.00,0.0586
1553.00,0.0598
1552.00,0.0609
1551.00,0.0620
1550.00,0.0632
1549.00,0.0644
1548.00,0.0655
1547.00,0.0664
1546.00,0.0674
1545.00,0.0684
1544.00,0.0694
1543.00,0.0702
1542.00,0.0711
1541.00,0.0721
1540.00,0.0731
1539.00,0.0738
1538.00,0.0745
1537.00,0.0751
1536.00,0.0755
1535.00,0.0760
1534.00,0.0766
1533.00,0.0772
1532.00,0.0778
1531.00,0.0784
1530.00,0.0790
1529.00,0.0796
1528.00,0.0801
1527.00,0.0807
1526.00,0.0812
1525.00,0.0818
1524.00,0.0823
1523.00,0.0829
1522.00,0.0835
1521.00,0.0841
1520.00,0.0847
1519.00,0.0851
1518.00,0.0855
1517.00,0.0858
1516.00,0.0860
1515.00,0.0861
1514.00,0.0861
1513.00,0.0860
1512.00,0.0856
1511.00,0.0852
1510.00,0.0848
1509.00,0.0843
1508.00,0.0834
1507.00,0.0820
1506.00,0.0804
1505.00,0.0792
1504.00,0.0783
1503.00,0.0773
1502.00,0.0762
1501.00,0.0750
1500.00,0.0736
1499.00,0.0723
1498.00,0.0709
1497.00,0.0693
1496.00,0.0676
1495.00,0.0660
1494.00,0.0646
1493.00,0.0633
1492.00,0.0618
1491.00,0.0601
1490.00,0.0583
1489.00,0.0566
1488.00,0.0551
1487.00,0.0537
1486.00,0.0525
1485.00,0.0513
1484.00,0.0502
1483.00,0.0492
1482.00,0.0482
1481.00,0.0473
1480.00,0.0465
1479.00,0.0459
1478.00,0.0453
1477.00,0.0449
1476.00,0.0445
1475.00,0.0443
1474.00,0.0443
1473.00,0.0443
1472.00,0.0443
1471.00,0.0444
1470.00,0.0445
1469.00,0.0445
1468.00,0.0445
1467.00,0.0445
1466.00,0.0445
1465.00,0.0446
1464.00,0.0447
1463.00,0.0450
1462.00,0.0452
1461.00,0.0455
1460.00,0.0458
1459.00,0.0463
1458.00,0.0470
1457.00,0.0479
1456.00,0.0488
1455.00,0.0494
1454.00,0.0498
1453.00,0.0500
1452.00,0.0502
1451.00,0.0502
1450.00,0.0502
1449.00,0.0500
1448.00,0.0498
1447.00,0.0495
1446.00,0.0492
1445.00,0.0488
1444.00,0.0483
1443.00,0.0478
1442.00,0.0473
1441.00,0.0467
1440.00,0.0462
1439.00,0.0457
1438.00,0.0451
1437.00,0.0444
1436.00,0.0438
1435.00,0.0434
1434.00,0.0430
1433.00,0.0426
1432.00,0.0423
1431.00,0.0419
1430.00,0.0416
1429.00,0.0414
1428.00,0.0413
1427.00,0.0412
1426.00,0.0412
1425.00,0.0413
1424.00,0.0414
1423.00,0.0416
1422.00,0.0418
1421.00,0.0420
1420.00,0.0423
1419.00,0.0426
1418.00,0.0430
1417.00,0.0434
1416.00,0.0437
1415.00,0.0440
1414.00,0.0443
1413.00,0.0446
1412.00,0.0448
1411.00,0.0451
1410.00,0.0452
1409.00,0.0453
1408.00,0.0454
1407.00,0.0454
1406.00,0.0453
1405.00,0.0452
1404.00,0.0451
1403.00,0.0450
1402.00,0.0448
1401.00,0.0447
1400.00,0.0445
1399.00,0.0444
1398.00,0.0442
1397.00,0.0441
1396.00,0.0440
1395.00,0.0439
1394.00,0.0438
1393.00,0.0437
1392.00,0.0437
1391.00,0.0438
1390.00,0.0437
1389.00,0.0437
1388.00,0.0436
1387.00,0.0435
1386.00,0.0434
1385.00,0.0433
1384.00,0.0431
1383.00,0.0430
1382.00,0.0428
1381.00,0.0426
1380.00,0.0425
1379.00,0.0423
1378.00,0.0422
1377.00,0.0421
1376.00,0.0420
1375.00,0.0419
1374.00,0.0419
1373.00,0.0418
1372.00,0.0418
1371.00,0.0417
1370.00,0.0416
1369.00,0.0414
1368.00,0.0412
1367.00,0.0409
1366.00,0.0406
1365.00,0.0402
1364.00,0.0398
1363.00,0.0394
1362.00,0.0391
1361.00,0.0388
1360.00,0.0386
1359.00,0.0384
1358.00,0.0383
1357.00,0.0381
1356.00,0.0380
1355.00,0.0379
1354.00,0.0378
1353.00,0.0378
1352.00,0.0378
1351.00,0.0378
1350.00,0.0378
1349.00,0.0379
1348.00,0.0380
1347.00,0.0381
1346.00,0.0382
1345.00,0.0383
1344.00,0.0384
1343.00,0.0385
1342.00,0.0386
1341.00,0.0387
1340.00,0.0387
1339.00,0.0387
1338.00,0.0387
1337.00,0.0387
1336.00,0.0386
1335.00,0.0384
1334.00,0.0383
1333.00,0.0381
1332.00,0.0380
1331.00,0.0378
1330.00,0.0377
1329.00,0.0376
1328.00,0.0375
1327.00,0.0374
1326.00,0.0374
1325.00,0.0373
1324.00,0.0373
1323.00,0.0373
1322.00,0.0373
1321.00,0.0374
1320.00,0.0374
1319.00,0.0375
1318.00,0.0375
1317.00,0.0376
1316.00,0.0376
1315.00,0.0377
1314.00,0.0377
1313.00,0.0378
1312.00,0.0378
1311.00,0.0379
1310.00,0.0379
1309.00,0.0380
1308.00,0.0380
1307.00,0.0380
1306.00,0.0380
1305.00,0.0380
1304.00,0.0380
1303.00,0.0380
1302.00,0.0380
1301.00,0.0380
1300.00,0.0380
1299.00,0.0380
1298.00,0.0379
1297.00,0.0379
1296.00,0.0378
1295.00,0.0378
1294.00,0.0378
1293.00,0.0377
1292.00,0.0377
1291.00,0.0377
1290.00,0.0377
1289.00,0.0376
1288.00,0.0376
1287.00,0.0376
1286.00,0.0375
1285.00,0.0375
1284.00,0.0374
1283.00,0.0374
1282.00,0.0373
1281.00,0.0372
1280.00,0.0372
1279.00,0.0371
1278.00,0.0370
1277.00,0.0369
1276.00,0.0368
1275.00,0.0368
1274.00,0.0367
1273.00,0.0367
1272.00,0.0367
1271.00,0.0367
1270.00,0.0368
1269.00,0.0370
1268.00,0.0372
1267.00,0.0374
1266.00,0.0377
1265.00,0.0381
1264.00,0.0384
1263.00,0.0388
1262.00,0.0392
1261.00,0.0395
1260.00,0.0398
1259.00,0.0402
1258.00,0.0405
1257.00,0.0407
1256.00,0.0410
1255.00,0.0413
1254.00,0.0416
1253.00,0.0419
1252.00,0.0422
1251.00,0.0425
1250.00,0.0428
1249.00,0.0431
1248.00,0.0434
1247.00,0.0438
1246.00,0.0441
1245.00,0.0444
1244.00,0.0447
1243.00,0.0450
1242.00,0.0452
1241.00,0.0454
1240.00,0.0456
1239.00,0.0457
1238.00,0.0458
1237.00,0.0458
1236.00,0.0458
1235.00,0.0458
1234.00,0.0458
1233.00,0.0457
1232.00,0.0456
1231.00,0.0455
1230.00,0.0453
1229.00,0.0451
1228.00,0.0449
1227.00,0.0447
1226.00,0.0445
1225.00,0.0443
1224.00,0.0440
1223.00,0.0438
1222.00,0.0435
1221.00,0.0432
1220.00,0.0429
1219.00,0.0425
1218.00,0.0422
1217.00,0.0419
1216.00,0.0415
1215.00,0.0411
1214.00,0.0408
1213.00,0.0404
1212.00,0.0400
1211.00,0.0396
1210.00,0.0392
1209.00,0.0387
1208.00,0.0383
1207.00,0.0379
1206.00,0.0374
1205.00,0.0370
1204.00,0.0365
1203.00,0.0360
1202.00,0.0356
1201.00,0.0351
1200.00,0.0347
1199.00,0.0343
1198.00,0.0339
1197.00,0.0335
1196.00,0.0332
1195.00,0.0329
1194.00,0.0325
1193.00,0.0322
1192.00,0.0319
1191.00,0.0317
1190.00,0.0314
1189.00,0.0312
1188.00,0.0310
1187.00,0.0308
1186.00,0.0307
1185.00,0.0305
1184.00,0.0304
1183.00,0.0303
1182.00,0.0302
1181.00,0.0302
1180.00,0.0303
1179.00,0.0304
1178.00,0.0305
1177.00,0.0307
1176.00,0.0310
1175.00,0.0313
1174.00,0.0316
1173.00,0.0319
1172.00,0.0322
1171.00,0.0325
1170.00,0.0328
1169.00,0.0330
1168.00,0.0333
1167.00,0.0335
1166.00,0.0337
1165.00,0.0338
1164.00,0.0339
1163.00,0.0339
1162.00,0.0339
1161.00,0.0338
1160.00,0.0337
1159.00,0.0336
1158.00,0.0334
1157.00,0.0331
1156.00,0.0329
1155.00,0.0326
1154.00,0.0323
1153.00,0.0320
1152.00,0.0318
1151.00,0.0315
1150.00,0.0312
1149.00,0.0310
1148.00,0.0307
1147.00,0.0305
1146.00,0.0303
1145.00,0.0301
1144.00,0.0299
1143.00,0.0298
1142.00,0.0297
1141.00,0.0296
1140.00,0.0295
1139.00,0.0295
1138.00,0.0294
1137.00,0.0294
1136.00,0.0294
1135.00,0.0294
1134.00,0.0295
1133.00,0.0295
1132.00,0.0295
1131.00,0.0296
1130.00,0.0296
1129.00,0.0296
1128.00,0.0297
1127.00,0.0297
1126.00,0.0297
1125.00,0.0298
1124.00,0.0298
1123.00,0.0297
1122.00,0.0297
1121.00,0.0297
1120.00,0.0296
1119.00,0.0296
1118.00,0.0296
1117.00,0.0296
1116.00,0.0296
1115.00,0.0297
1114.00,0.0297
1113.00,0.0298
1112.00,0.0298
1111.00,0.0299
1110.00,0.0300
1109.00,0.0301
1108.00,0.0302
1107.00,0.0303
1106.00,0.0304
1105.00,0.0305
1104.00,0.0307
1103.00,0.0308
1102.00,0.0309
1101.00,0.0310
1100.00,0.0312
1099.00,0.0314
1098.00,0.0316
1097.00,0.0318
1096.00,0.0320
1095.00,0.0323
1094.00,0.0325
1093.00,0.0328
1092.00,0.0331
1091.00,0.0335
1090.00,0.0339
1089.00,0.0343
1088.00,0.0348
1087.00,0.0353
1086.00,0.0358
1085.00,0.0363
1084.00,0.0369
1083.00,0.0375
1082.00,0.0380
1081.00,0.0385
1080.00,0.0391
1079.00,0.0396
1078.00,0.0401
1077.00,0.0405
1076.00,0.0410
1075.00,0.0414
1074.00,0.0417
1073.00,0.0420
1072.00,0.0424
1071.00,0.0426
1070.00,0.0429
1069.00,0.0432
1068.00,0.0434
1067.00,0.0437
1066.00,0.0439
1065.00,0.0440
1064.00,0.0441
1063.00,0.0441
1062.00,0.0441
1061.00,0.0441
1060.00,0.0440
1059.00,0.0440
1058.00,0.0439
1057.00,0.0438
1056.00,0.0437
1055.00,0.0436
1054.00,0.0435
1053.00,0.0434
1052.00,0.0434
1051.00,0.0433
1050.00,0.0432
1049.00,0.0431
1048.00,0.0429
1047.00,0.0427
1046.00,0.0424
1045.00,0.0421
1044.00,0.0417
1043.00,0.0413
1042.00,0.0408
1041.00,0.0403
1040.00,0.0397
1039.00,0.0392
1038.00,0.0387
1037.00,0.0382
1036.00,0.0377
1035.00,0.0372
1034.00,0.0368
1033.00,0.0364
1032.00,0.0360
1031.00,0.0357
1030.00,0.0352
1029.00,0.0348
1028.00,0.0344
1027.00,0.0339
1026.00,0.0335
1025.00,0.0330
1024.00,0.0326
1023.00,0.0322
1022.00,0.0318
1021.00,0.0314
1020.00,0.0310
1019.00,0.0307
1018.00,0.0304
1017.00,0.0301
1016.00,0.0297
1015.00,0.0294
1014.00,0.0290
1013.00,0.0285
1012.00,0.0281
1011.00,0.0278
1010.00,0.0274
1009.00,0.0270
1008.00,0.0267
1007.00,0.0264
1006.00,0.0261
1005.00,0.0258
1004.00,0.0256
1003.00,0.0254
1002.00,0.0252
1001.00,0.0249
1000.00,0.0247
999.00,0.0245
998.00,0.0243
997.00,0.0241
996.00,0.0240
995.00,0.0238
994.00,0.0236
993.00,0.0235
992.00,0.0233
991.00,0.0231
990.00,0.0230
989.00,0.0228
988.00,0.0226
987.00,0.0225
986.00,0.0223
985.00,0.0222
984.00,0.0220
983.00,0.0219
982.00,0.0218
981.00,0.0217
980.00,0.0216
979.00,0.0216
978.00,0.0215
977.00,0.0214
976.00,0.0214
975.00,0.0214
974.00,0.0214
973.00,0.0214
972.00,0.0215
971.00,0.0215
970.00,0.0215
969.00,0.0215
968.00,0.0216
967.00,0.0217
966.00,0.0218
965.00,0.0219
964.00,0.0219
963.00,0.0220
962.00,0.0220
961.00,0.0219
960.00,0.0218
959.00,0.0216
958.00,0.0215
957.00,0.0213
956.00,0.0211
955.00,0.0210
954.00,0.0208
953.00,0.0207
952.00,0.0206
951.00,0.0205
950.00,0.0204
949.00,0.0203
948.00,0.0202
947.00,0.0201
946.00,0.0201
945.00,0.0201
944.00,0.0200
943.00,0.0200
942.00,0.0200
941.00,0.0200
940.00,0.0200
939.00,0.0201
938.00,0.0202
937.00,0.0202
936.00,0.0203
935.00,0.0203
934.00,0.0203
933.00,0.0204
932.00,0.0204
931.00,0.0204
930.00,0.0204
929.00,0.0204
928.00,0.0203
927.00,0.0202
926.00,0.0201
925.00,0.0200
924.00,0.0199
923.00,0.0197
922.00,0.0196
921.00,0.0194
920.00,0.0193
919.00,0.0192
918.00,0.0190
917.00,0.0189
916.00,0.0188
915.00,0.0187
914.00,0.0187
913.00,0.0186
912.00,0.0186
911.00,0.0185
910.00,0.0185
909.00,0.0186
908.00,0.0186
907.00,0.0187
906.00,0.0187
905.00,0.0188
904.00,0.0189
903.00,0.0189
902.00,0.0190
901.00,0.0190
900.00,0.0190
899.00,0.0190
898.00,0.0190
897.00,0.0190
896.00,0.0189
895.00,0.0189
894.00,0.0188
893.00,0.0187
892.00,0.0187
891.00,0.0186
890.00,0.0185
889.00,0.0184
888.00,0.0183
887.00,0.0182
886.00,0.0181
885.00,0.0180
884.00,0.0180
883.00,0.0180
882.00,0.0180
881.00,0.0180
880.00,0.0181
879.00,0.0181
878.00,0.0181
877.00,0.0181
876.00,0.0181
875.00,0.0182
874.00,0.0182
873.00,0.0182
872.00,0.0182
871.00,0.0181
870.00,0.0180
869.00,0.0179
868.00,0.0177
867.00,0.0175
866.00,0.0174
865.00,0.0172
864.00,0.0171
863.00,0.0170
862.00,0.0169
861.00,0.0169
860.00,0.0168
859.00,0.0168
858.00,0.0168
857.00,0.0168
856.00,0.0168
855.00,0.0169
854.00,0.0169
853.00,0.0170
852.00,0.0170
851.00,0.0171
850.00,0.0172
849.00,0.0172
848.00,0.0172
847.00,0.0172
846.00,0.0173
845.00,0.0173
844.00,0.0173
843.00,0.0173
842.00,0.0173
841.00,0.0174
840.00,0.0175
839.00,0.0175
838.00,0.0176
837.00,0.0177
836.00,0.0178
835.00,0.0180
834.00,0.0182
833.00,0.0184
832.00,0.0186
831.00,0.0188
830.00,0.0189
829.00,0.0191
828.00,0.0192
827.00,0.0193
826.00,0.0194
825.00,0.0195
824.00,0.0197
823.00,0.0198
822.00,0.0199
821.00,0.0200
820.00,0.0201
819.00,0.0203
818.00,0.0204
817.00,0.0206
816.00,0.0207
815.00,0.0209
814.00,0.0211
813.00,0.0213
812.00,0.0214
811.00,0.0216
810.00,0.0217
809.00,0.0219
808.00,0.0221
807.00,0.0222
806.00,0.0224
805.00,0.0225
804.00,0.0227
803.00,0.0228
802.00,0.0228
801.00,0.0229
800.00,0.0229
799.00,0.0230
798.00,0.0231
797.00,0.0232
796.00,0.0233
795.00,0.0234
794.00,0.0236
793.00,0.0237
792.00,0.0239
791.00,0.0241
790.00,0.0242
789.00,0.0244
788.00,0.0245
787.00,0.0247
786.00,0.0249
785.00,0.0251
784.00,0.0254
783.00,0.0256
782.00,0.0258
781.00,0.0260
780.00,0.0262
779.00,0.0265
778.00,0.0267
777.00,0.0269
776.00,0.0272
775.00,0.0274
774.00,0.0277
773.00,0.0279
772.00,0.0281
771.00,0.0283
770.00,0.0286
769.00,0.0288
768.00,0.0290
767.00,0.0291
766.00,0.0293
765.00,0.0295
764.00,0.0297
763.00,0.0299
762.00,0.0300
761.00,0.0302
760.00,0.0304
759.00,0.0306
758.00,0.0308
757.00,0.0310
756.00,0.0312
755.00,0.0314
754.00,0.0316
753.00,0.0318
752.00,0.0321
751.00,0.0323
750.00,0.0325
749.00,0.0327
748.00,0.0328
747.00,0.0330
746.00,0.0330
745.00,0.0331
744.00,0.0331
743.00,0.0332
742.00,0.0332
741.00,0.0333
740.00,0.0335
739.00,0.0336
738.00,0.0338
737.00,0.0340
736.00,0.0342
735.00,0.0344
734.00,0.0347
733.00,0.0350
732.00,0.0354
731.00,0.0358
730.00,0.0363
729.00,0.0369
728.00,0.0376
727.00,0.0382
726.00,0.0389
725.00,0.0394
724.00,0.0400
723.00,0.0406
722.00,0.0411
721.00,0.0415
720.00,0.0420
719.00,0.0424
718.00,0.0428
717.00,0.0432
716.00,0.0437
715.00,0.0442
714.00,0.0447
713.00,0.0452
712.00,0.0457
711.00,0.0463
710.00,0.0469
709.00,0.0475
708.00,0.0482
707.00,0.0489
706.00,0.0496
705.00,0.0503
704.00,0.0511
703.00,0.0517
702.00,0.0523
701.00,0.0528
700.00,0.0532
699.00,0.0535
698.00,0.0537
697.00,0.0538
696.00,0.0538
695.00,0.0537
694.00,0.0537
693.00,0.0536
692.00,0.0536
691.00,0.0536
690.00,0.0537
689.00,0.0537
688.00,0.0538
687.00,0.0539
686.00,0.0540
685.00,0.0542
684.00,0.0543
683.00,0.0545
682.00,0.0546
681.00,0.0547
680.00,0.0548
679.00,0.0550
678.00,0.0551
677.00,0.0553
676.00,0.0554
675.00,0.0556
674.00,0.0556
673.00,0.0558
672.00,0.0559
671.00,0.0561
670.00,0.0562
669.00,0.0563
668.00,0.0564
667.00,0.0566
666.00,0.0567
665.00,0.0569
664.00,0.0570
663.00,0.0571
662.00,0.0573
661.00,0.0574
660.00,0.0575
659.00,0.0577
658.00,0.0578
657.00,0.0579
656.00,0.0581
655.00,0.0582
654.00,0.0583
653.00,0.0584
652.00,0.0586
651.00,0.0587
650.00,0.0589
649.00,0.0591
648.00,0.0593
647.00,0.0595
646.00,0.0597
645.00,0.0599
644.00,0.0602
643.00,0.0604
642.00,0.0606
641.00,0.0609
640.00,0.0611
639.00,0.0614
638.00,0.0617
637.00,0.0619
636.00,0.0622
635.00,0.0624
634.00,0.0626
633.00,0.0628
632.00,0.0630
631.00,0.0632
630.00,0.0634
629.00,0.0635
628.00,0.0637
627.00,0.0638
626.00,0.0639
625.00,0.0640
624.00,0.0641
623.00,0.0642
622.00,0.0643
621.00,0.0643
620.00,0.0644
619.00,0.0644
618.00,0.0644
617.00,0.0644
616.00,0.0643
615.00,0.0642
614.00,0.0642
613.00,0.0641
612.00,0.0641
611.00,0.0641
610.00,0.0640
609.00,0.0640
608.00,0.0639
607.00,0.0638
606.00,0.0638
605.00,0.0637
604.00,0.0638
603.00,0.0639
602.00,0.0640
601.00,0.0641
600.00,0.0642
599.00,0.0642
598.00,0.0642
597.00,0.0642
596.00,0.0642
595.00,0.0643
594.00,0.0644
593.00,0.0645
592.00,0.0646
591.00,0.0647
590.00,0.0648
589.00,0.0649
588.00,0.0650
587.00,0.0651
586.00,0.0651
585.00,0.0652
584.00,0.0653
583.00,0.0655
582.00,0.0656
581.00,0.0657
580.00,0.0658
579.00,0.0660
578.00,0.0661
577.00,0.0663
576.00,0.0664
575.00,0.0665
574.00,0.0665
573.00,0.0666
572.00,0.0667
571.00,0.0669
570.00,0.0669
569.00,0.0670
568.00,0.0671
567.00,0.0672
566.00,0.0672
565.00,0.0672
564.00,0.0673
563.00,0.0674
562.00,0.0675
561.00,0.0676
560.00,0.0677
559.00,0.0679
558.00,0.0679
557.00,0.0680
556.00,0.0681
555.00,0.0682
554.00,0.0683
553.00,0.0684
552.00,0.0685
551.00,0.0686
550.00,0.0686
549.00,0.0686
548.00,0.0688
547.00,0.0689
546.00,0.0689
545.00,0.0689
544.00,0.0689
543.00,0.0689
542.00,0.0691
541.00,0.0692
540.00,0.0693
539.00,0.0694
538.00,0.0694
537.00,0.0695
536.00,0.0696
535.00,0.0697
534.00,0.0697
533.00,0.0698
532.00,0.0699
531.00,0.0701
530.00,0.0701
529.00,0.0701
528.00,0.0702
527.00,0.0704
526.00,0.0705
525.00,0.0706
524.00,0.0708
523.00,0.0709
522.00,0.0710
521.00,0.0710
520.00,0.0711
519.00,0.0711
518.00,0.0710
517.00,0.0709
516.00,0.0709
515.00,0.0708
514.00,0.0707
513.00,0.0705
512.00,0.0704
511.00,0.0703
510.00,0.0703
509.00,0.0703
508.00,0.0703
507.00,0.0702
506.00,0.0700
505.00,0.0698
504.00,0.0697
503.00,0.0696
502.00,0.0695
501.00,0.0694
500.00,0.0695
499.00,0.0695
498.00,0.0694
497.00,0.0692
496.00,0.0691
495.00,0.0689
494.00,0.0687
493.00,0.0686
492.00,0.0687
491.00,0.0688
490.00,0.0688
489.00,0.0688
488.00,0.0688
487.00,0.0688
486.00,0.0687
485.00,0.0686
484.00,0.0685
483.00,0.0685
482.00,0.0684
481.00,0.0684
480.00,0.0685
479.00,0.0685
478.00,0.0683
477.00,0.0682
476.00,0.0683
475.00,0.0684
474.00,0.0684
473.00,0.0683
472.00,0.0683
471.00,0.0684
470.00,0.0685
469.00,0.0686
468.00,0.0688
467.00,0.0688
466.00,0.0686
465.00,0.0684
464.00,0.0684
463.00,0.0683
462.00,0.0682
461.00,0.0681
460.00,0.0681
459.00,0.0682
458.00,0.0681
457.00,0.0682
456.00,0.0682
455.00,0.0681
454.00,0.0679
453.00,0.0677
452.00,0.0676
451.00,0.0674
450.00,0.0671
449.00,0.0667
448.00,0.0664
447.00,0.0660
446.00,0.0657
445.00,0.0654
444.00,0.0651
443.00,0.0648
442.00,0.0643
441.00,0.0640
440.00,0.0639
439.00,0.0638
438.00,0.0635
437.00,0.0632
436.00,0.0629
435.00,0.0625
434.00,0.0620
433.00,0.0617
432.00,0.0615
431.00,0.0612
430.00,0.0607
429.00,0.0602
428.00,0.0599
427.00,0.0597
426.00,0.0596
425.00,0.0595
424.00,0.0594
423.00,0.0592
422.00,0.0589
421.00,0.0587
420.00,0.0586
419.00,0.0586
418.00,0.0585
417.00,0.0585
416.00,0.0586
415.00,0.0585
414.00,0.0582
413.00,0.0580
412.00,0.0580
411.00,0.0580
410.00,0.0577
409.00,0.0573
408.00,0.0568
407.00,0.0564
406.00,0.0559
405.00,0.0555
404.00,0.0555
403.00,0.0554
402.00,0.0549
401.00,0.0544
400.00,0.0541
