Created as New Dataset,Sample 282 By YargerLab Date Friday, July 26 2024
cm-1,A
4000.00,0.0107
3999.00,0.0107
3998.00,0.0107
3997.00,0.0107
3996.00,0.0107
3995.00,0.0107
3994.00,0.0107
3993.00,0.0107
3992.00,0.0107
3991.00,0.0107
3990.00,0.0107
3989.00,0.0107
3988.00,0.0107
3987.00,0.0107
3986.00,0.0107
3985.00,0.0107
3984.00,0.0107
3983.00,0.0107
3982.00,0.0107
3981.00,0.0107
3980.00,0.0106
3979.00,0.0106
3978.00,0.0106
3977.00,0.0106
3976.00,0.0106
3975.00,0.0107
3974.00,0.0107
3973.00,0.0107
3972.00,0.0107
3971.00,0.0106
3970.00,0.0106
3969.00,0.0106
3968.00,0.0106
3967.00,0.0106
3966.00,0.0106
3965.00,0.0106
3964.00,0.0106
3963.00,0.0106
3962.00,0.0106
3961.00,0.0105
3960.00,0.0105
3959.00,0.0105
3958.00,0.0105
3957.00,0.0105
3956.00,0.0105
3955.00,0.0105
3954.00,0.0105
3953.00,0.0105
3952.00,0.0105
3951.00,0.0105
3950.00,0.0105
3949.00,0.0105
3948.00,0.0106
3947.00,0.0106
3946.00,0.0105
3945.00,0.0105
3944.00,0.0105
3943.00,0.0105
3942.00,0.0105
3941.00,0.0105
3940.00,0.0105
3939.00,0.0104
3938.00,0.0104
3937.00,0.0104
3936.00,0.0105
3935.00,0.0105
3934.00,0.0105
3933.00,0.0105
3932.00,0.0105
3931.00,0.0105
3930.00,0.0105
3929.00,0.0104
3928.00,0.0104
3927.00,0.0104
3926.00,0.0104
3925.00,0.0104
3924.00,0.0104
3923.00,0.0104
3922.00,0.0104
3921.00,0.0104
3920.00,0.0104
3919.00,0.0104
3918.00,0.0104
3917.00,0.0104
3916.00,0.0104
3915.00,0.0104
3914.00,0.0104
3913.00,0.0104
3912.00,0.0103
3911.00,0.0103
3910.00,0.0103
3909.00,0.0103
3908.00,0.0103
3907.00,0.0103
3906.00,0.0103
3905.00,0.0103
3904.00,0.0103
3903.00,0.0103
3902.00,0.0104
3901.00,0.0104
3900.00,0.0104
3899.00,0.0104
3898.00,0.0103
3897.00,0.0103
3896.00,0.0103
3895.00,0.0103
3894.00,0.0103
3893.00,0.0103
3892.00,0.0103
3891.00,0.0103
3890.00,0.0103
3889.00,0.0103
3888.00,0.0103
3887.00,0.0103
3886.00,0.0103
3885.00,0.0103
3884.00,0.0103
3883.00,0.0102
3882.00,0.0102
3881.00,0.0102
3880.00,0.0102
3879.00,0.0102
3878.00,0.0102
3877.00,0.0102
3876.00,0.0102
3875.00,0.0102
3874.00,0.0102
3873.00,0.0102
3872.00,0.0102
3871.00,0.0102
3870.00,0.0103
3869.00,0.0103
3868.00,0.0102
3867.00,0.0102
3866.00,0.0102
3865.00,0.0102
3864.00,0.0102
3863.00,0.0102
3862.00,0.0102
3861.00,0.0102
3860.00,0.0101
3859.00,0.0101
3858.00,0.0101
3857.00,0.0101
3856.00,0.0101
3855.00,0.0101
3854.00,0.0101
3853.00,0.0101
3852.00,0.0101
3851.00,0.0101
3850.00,0.0101
3849.00,0.0101
3848.00,0.0101
3847.00,0.0101
3846.00,0.0101
3845.00,0.0100
3844.00,0.0100
3843.00,0.0101
3842.00,0.0101
3841.00,0.0101
3840.00,0.0101
3839.00,0.0102
3838.00,0.0102
3837.00,0.0101
3836.00,0.0101
3835.00,0.0101
3834.00,0.0100
3833.00,0.0100
3832.00,0.0100
3831.00,0.0100
3830.00,0.0100
3829.00,0.0100
3828.00,0.0100
3827.00,0.0100
3826.00,0.0100
3825.00,0.0100
3824.00,0.0100
3823.00,0.0100
3822.00,0.0100
3821.00,0.0100
3820.00,0.0100
3819.00,0.0100
3818.00,0.0100
3817.00,0.0100
3816.00,0.0100
3815.00,0.0100
3814.00,0.0099
3813.00,0.0099
3812.00,0.0099
3811.00,0.0099
3810.00,0.0099
3809.00,0.0099
3808.00,0.0099
3807.00,0.0099
3806.00,0.0099
3805.00,0.0099
3804.00,0.0099
3803.00,0.0099
3802.00,0.0099
3801.00,0.0099
3800.00,0.0099
3799.00,0.0099
3798.00,0.0098
3797.00,0.0098
3796.00,0.0098
3795.00,0.0098
3794.00,0.0098
3793.00,0.0098
3792.00,0.0098
3791.00,0.0098
3790.00,0.0098
3789.00,0.0098
3788.00,0.0098
3787.00,0.0097
3786.00,0.0097
3785.00,0.0098
3784.00,0.0098
3783.00,0.0098
3782.00,0.0097
3781.00,0.0097
3780.00,0.0097
3779.00,0.0097
3778.00,0.0097
3777.00,0.0097
3776.00,0.0097
3775.00,0.0097
3774.00,0.0097
3773.00,0.0097
3772.00,0.0097
3771.00,0.0097
3770.00,0.0097
3769.00,0.0097
3768.00,0.0097
3767.00,0.0097
3766.00,0.0097
3765.00,0.0097
3764.00,0.0097
3763.00,0.0097
3762.00,0.0097
3761.00,0.0097
3760.00,0.0097
3759.00,0.0097
3758.00,0.0097
3757.00,0.0097
3756.00,0.0097
3755.00,0.0097
3754.00,0.0098
3753.00,0.0098
3752.00,0.0098
3751.00,0.0098
3750.00,0.0098
3749.00,0.0098
3748.00,0.0098
3747.00,0.0098
3746.00,0.0098
3745.00,0.0098
3744.00,0.0097
3743.00,0.0097
3742.00,0.0097
3741.00,0.0097
3740.00,0.0097
3739.00,0.0097
3738.00,0.0097
3737.00,0.0097
3736.00,0.0097
3735.00,0.0097
3734.00,0.0097
3733.00,0.0097
3732.00,0.0097
3731.00,0.0096
3730.00,0.0096
3729.00,0.0096
3728.00,0.0096
3727.00,0.0096
3726.00,0.0096
3725.00,0.0096
3724.00,0.0096
3723.00,0.0096
3722.00,0.0096
3721.00,0.0096
3720.00,0.0096
3719.00,0.0095
3718.00,0.0095
3717.00,0.0095
3716.00,0.0095
3715.00,0.0095
3714.00,0.0095
3713.00,0.0095
3712.00,0.0095
3711.00,0.0095
3710.00,0.0095
3709.00,0.0095
3708.00,0.0095
3707.00,0.0095
3706.00,0.0094
3705.00,0.0094
3704.00,0.0094
3703.00,0.0094
3702.00,0.0094
3701.00,0.0094
3700.00,0.0094
3699.00,0.0094
3698.00,0.0094
3697.00,0.0094
3696.00,0.0094
3695.00,0.0094
3694.00,0.0094
3693.00,0.0094
3692.00,0.0094
3691.00,0.0094
3690.00,0.0094
3689.00,0.0094
3688.00,0.0094
3687.00,0.0094
3686.00,0.0094
3685.00,0.0094
3684.00,0.0094
3683.00,0.0094
3682.00,0.0094
3681.00,0.0094
3680.00,0.0094
3679.00,0.0094
3678.00,0.0094
3677.00,0.0095
3676.00,0.0095
3675.00,0.0095
3674.00,0.0096
3673.00,0.0095
3672.00,0.0095
3671.00,0.0095
3670.00,0.0095
3669.00,0.0095
3668.00,0.0095
3667.00,0.0095
3666.00,0.0095
3665.00,0.0095
3664.00,0.0095
3663.00,0.0095
3662.00,0.0095
3661.00,0.0095
3660.00,0.0096
3659.00,0.0096
3658.00,0.0096
3657.00,0.0096
3656.00,0.0097
3655.00,0.0097
3654.00,0.0097
3653.00,0.0098
3652.00,0.0098
3651.00,0.0099
3650.00,0.0099
3649.00,0.0100
3648.00,0.0100
3647.00,0.0100
3646.00,0.0100
3645.00,0.0100
3644.00,0.0100
3643.00,0.0100
3642.00,0.0101
3641.00,0.0101
3640.00,0.0101
3639.00,0.0101
3638.00,0.0102
3637.00,0.0102
3636.00,0.0103
3635.00,0.0103
3634.00,0.0104
3633.00,0.0105
3632.00,0.0105
3631.00,0.0106
3630.00,0.0106
3629.00,0.0107
3628.00,0.0107
3627.00,0.0107
3626.00,0.0107
3625.00,0.0108
3624.00,0.0108
3623.00,0.0109
3622.00,0.0109
3621.00,0.0110
3620.00,0.0110
3619.00,0.0110
3618.00,0.0110
3617.00,0.0111
3616.00,0.0111
3615.00,0.0112
3614.00,0.0112
3613.00,0.0113
3612.00,0.0113
3611.00,0.0113
3610.00,0.0114
3609.00,0.0114
3608.00,0.0114
3607.00,0.0115
3606.00,0.0115
3605.00,0.0116
3604.00,0.0116
3603.00,0.0117
3602.00,0.0117
3601.00,0.0117
3600.00,0.0118
3599.00,0.0118
3598.00,0.0119
3597.00,0.0119
3596.00,0.0119
3595.00,0.0120
3594.00,0.0120
3593.00,0.0121
3592.00,0.0122
3591.00,0.0122
3590.00,0.0123
3589.00,0.0123
3588.00,0.0123
3587.00,0.0124
3586.00,0.0124
3585.00,0.0125
3584.00,0.0125
3583.00,0.0126
3582.00,0.0126
3581.00,0.0126
3580.00,0.0127
3579.00,0.0127
3578.00,0.0128
3577.00,0.0128
3576.00,0.0129
3575.00,0.0129
3574.00,0.0130
3573.00,0.0131
3572.00,0.0131
3571.00,0.0132
3570.00,0.0133
3569.00,0.0134
3568.00,0.0134
3567.00,0.0134
3566.00,0.0134
3565.00,0.0135
3564.00,0.0135
3563.00,0.0136
3562.00,0.0137
3561.00,0.0137
3560.00,0.0138
3559.00,0.0138
3558.00,0.0138
3557.00,0.0139
3556.00,0.0140
3555.00,0.0140
3554.00,0.0141
3553.00,0.0142
3552.00,0.0142
3551.00,0.0143
3550.00,0.0144
3549.00,0.0144
3548.00,0.0145
3547.00,0.0146
3546.00,0.0146
3545.00,0.0146
3544.00,0.0147
3543.00,0.0147
3542.00,0.0148
3541.00,0.0148
3540.00,0.0149
3539.00,0.0150
3538.00,0.0150
3537.00,0.0151
3536.00,0.0151
3535.00,0.0152
3534.00,0.0152
3533.00,0.0153
3532.00,0.0154
3531.00,0.0154
3530.00,0.0155
3529.00,0.0155
3528.00,0.0156
3527.00,0.0156
3526.00,0.0157
3525.00,0.0158
3524.00,0.0158
3523.00,0.0158
3522.00,0.0159
3521.00,0.0159
3520.00,0.0160
3519.00,0.0160
3518.00,0.0161
3517.00,0.0161
3516.00,0.0162
3515.00,0.0163
3514.00,0.0163
3513.00,0.0164
3512.00,0.0165
3511.00,0.0165
3510.00,0.0166
3509.00,0.0166
3508.00,0.0167
3507.00,0.0167
3506.00,0.0168
3505.00,0.0169
3504.00,0.0169
3503.00,0.0170
3502.00,0.0170
3501.00,0.0171
3500.00,0.0171
3499.00,0.0172
3498.00,0.0173
3497.00,0.0173
3496.00,0.0174
3495.00,0.0174
3494.00,0.0175
3493.00,0.0175
3492.00,0.0176
3491.00,0.0177
3490.00,0.0177
3489.00,0.0178
3488.00,0.0179
3487.00,0.0179
3486.00,0.0180
3485.00,0.0181
3484.00,0.0181
3483.00,0.0182
3482.00,0.0182
3481.00,0.0183
3480.00,0.0184
3479.00,0.0184
3478.00,0.0185
3477.00,0.0185
3476.00,0.0186
3475.00,0.0186
3474.00,0.0187
3473.00,0.0188
3472.00,0.0189
3471.00,0.0189
3470.00,0.0190
3469.00,0.0191
3468.00,0.0191
3467.00,0.0192
3466.00,0.0192
3465.00,0.0193
3464.00,0.0193
3463.00,0.0194
3462.00,0.0195
3461.00,0.0195
3460.00,0.0196
3459.00,0.0197
3458.00,0.0197
3457.00,0.0198
3456.00,0.0198
3455.00,0.0199
3454.00,0.0199
3453.00,0.0200
3452.00,0.0200
3451.00,0.0201
3450.00,0.0202
3449.00,0.0203
3448.00,0.0203
3447.00,0.0203
3446.00,0.0204
3445.00,0.0204
3444.00,0.0205
3443.00,0.0205
3442.00,0.0206
3441.00,0.0207
3440.00,0.0208
3439.00,0.0208
3438.00,0.0209
3437.00,0.0210
3436.00,0.0210
3435.00,0.0211
3434.00,0.0212
3433.00,0.0212
3432.00,0.0213
3431.00,0.0213
3430.00,0.0214
3429.00,0.0215
3428.00,0.0215
3427.00,0.0216
3426.00,0.0216
3425.00,0.0217
3424.00,0.0218
3423.00,0.0218
3422.00,0.0219
3421.00,0.0219
3420.00,0.0219
3419.00,0.0220
3418.00,0.0221
3417.00,0.0221
3416.00,0.0222
3415.00,0.0223
3414.00,0.0224
3413.00,0.0224
3412.00,0.0225
3411.00,0.0226
3410.00,0.0226
3409.00,0.0227
3408.00,0.0227
3407.00,0.0228
3406.00,0.0228
3405.00,0.0229
3404.00,0.0229
3403.00,0.0230
3402.00,0.0230
3401.00,0.0231
3400.00,0.0231
3399.00,0.0232
3398.00,0.0233
3397.00,0.0233
3396.00,0.0234
3395.00,0.0234
3394.00,0.0235
3393.00,0.0235
3392.00,0.0236
3391.00,0.0236
3390.00,0.0237
3389.00,0.0237
3388.00,0.0238
3387.00,0.0238
3386.00,0.0239
3385.00,0.0239
3384.00,0.0240
3383.00,0.0240
3382.00,0.0241
3381.00,0.0242
3380.00,0.0242
3379.00,0.0243
3378.00,0.0244
3377.00,0.0245
3376.00,0.0245
3375.00,0.0246
3374.00,0.0247
3373.00,0.0248
3372.00,0.0248
3371.00,0.0249
3370.00,0.0250
3369.00,0.0251
3368.00,0.0251
3367.00,0.0252
3366.00,0.0253
3365.00,0.0254
3364.00,0.0254
3363.00,0.0255
3362.00,0.0256
3361.00,0.0257
3360.00,0.0258
3359.00,0.0259
3358.00,0.0261
3357.00,0.0262
3356.00,0.0263
3355.00,0.0264
3354.00,0.0265
3353.00,0.0266
3352.00,0.0267
3351.00,0.0268
3350.00,0.0269
3349.00,0.0270
3348.00,0.0271
3347.00,0.0273
3346.00,0.0274
3345.00,0.0275
3344.00,0.0276
3343.00,0.0277
3342.00,0.0278
3341.00,0.0280
3340.00,0.0281
3339.00,0.0282
3338.00,0.0284
3337.00,0.0285
3336.00,0.0287
3335.00,0.0288
3334.00,0.0290
3333.00,0.0291
3332.00,0.0293
3331.00,0.0294
3330.00,0.0296
3329.00,0.0297
3328.00,0.0299
3327.00,0.0300
3326.00,0.0302
3325.00,0.0303
3324.00,0.0305
3323.00,0.0307
3322.00,0.0308
3321.00,0.0310
3320.00,0.0312
3319.00,0.0314
3318.00,0.0316
3317.00,0.0318
3316.00,0.0320
3315.00,0.0322
3314.00,0.0324
3313.00,0.0325
3312.00,0.0327
3311.00,0.0329
3310.00,0.0331
3309.00,0.0333
3308.00,0.0335
3307.00,0.0337
3306.00,0.0339
3305.00,0.0341
3304.00,0.0343
3303.00,0.0346
3302.00,0.0348
3301.00,0.0350
3300.00,0.0352
3299.00,0.0355
3298.00,0.0357
3297.00,0.0359
3296.00,0.0361
3295.00,0.0363
3294.00,0.0365
3293.00,0.0367
3292.00,0.0369
3291.00,0.0371
3290.00,0.0373
3289.00,0.0375
3288.00,0.0377
3287.00,0.0378
3286.00,0.0380
3285.00,0.0381
3284.00,0.0383
3283.00,0.0384
3282.00,0.0385
3281.00,0.0386
3280.00,0.0387
3279.00,0.0388
3278.00,0.0389
3277.00,0.0389
3276.00,0.0389
3275.00,0.0389
3274.00,0.0389
3273.00,0.0388
3272.00,0.0388
3271.00,0.0387
3270.00,0.0387
3269.00,0.0386
3268.00,0.0385
3267.00,0.0384
3266.00,0.0383
3265.00,0.0382
3264.00,0.0380
3263.00,0.0379
3262.00,0.0377
3261.00,0.0376
3260.00,0.0374
3259.00,0.0372
3258.00,0.0370
3257.00,0.0368
3256.00,0.0366
3255.00,0.0364
3254.00,0.0362
3253.00,0.0360
3252.00,0.0358
3251.00,0.0356
3250.00,0.0354
3249.00,0.0352
3248.00,0.0350
3247.00,0.0349
3246.00,0.0347
3245.00,0.0345
3244.00,0.0343
3243.00,0.0342
3242.00,0.0340
3241.00,0.0338
3240.00,0.0337
3239.00,0.0335
3238.00,0.0333
3237.00,0.0332
3236.00,0.0330
3235.00,0.0328
3234.00,0.0326
3233.00,0.0325
3232.00,0.0324
3231.00,0.0323
3230.00,0.0321
3229.00,0.0320
3228.00,0.0319
3227.00,0.0318
3226.00,0.0316
3225.00,0.0315
3224.00,0.0314
3223.00,0.0313
3222.00,0.0311
3221.00,0.0310
3220.00,0.0309
3219.00,0.0308
3218.00,0.0307
3217.00,0.0306
3216.00,0.0304
3215.00,0.0303
3214.00,0.0302
3213.00,0.0301
3212.00,0.0300
3211.00,0.0299
3210.00,0.0298
3209.00,0.0297
3208.00,0.0296
3207.00,0.0295
3206.00,0.0294
3205.00,0.0293
3204.00,0.0292
3203.00,0.0291
3202.00,0.0290
3201.00,0.0289
3200.00,0.0288
3199.00,0.0286
3198.00,0.0285
3197.00,0.0284
3196.00,0.0283
3195.00,0.0282
3194.00,0.0281
3193.00,0.0280
3192.00,0.0279
3191.00,0.0278
3190.00,0.0277
3189.00,0.0275
3188.00,0.0274
3187.00,0.0273
3186.00,0.0272
3185.00,0.0270
3184.00,0.0269
3183.00,0.0268
3182.00,0.0267
3181.00,0.0266
3180.00,0.0264
3179.00,0.0263
3178.00,0.0262
3177.00,0.0261
3176.00,0.0259
3175.00,0.0258
3174.00,0.0257
3173.00,0.0255
3172.00,0.0254
3171.00,0.0253
3170.00,0.0252
3169.00,0.0250
3168.00,0.0249
3167.00,0.0248
3166.00,0.0247
3165.00,0.0246
3164.00,0.0244
3163.00,0.0243
3162.00,0.0242
3161.00,0.0241
3160.00,0.0240
3159.00,0.0238
3158.00,0.0237
3157.00,0.0236
3156.00,0.0235
3155.00,0.0234
3154.00,0.0233
3153.00,0.0232
3152.00,0.0231
3151.00,0.0230
3150.00,0.0229
3149.00,0.0228
3148.00,0.0227
3147.00,0.0226
3146.00,0.0225
3145.00,0.0224
3144.00,0.0223
3143.00,0.0222
3142.00,0.0221
3141.00,0.0220
3140.00,0.0219
3139.00,0.0219
3138.00,0.0218
3137.00,0.0217
3136.00,0.0216
3135.00,0.0216
3134.00,0.0215
3133.00,0.0214
3132.00,0.0214
3131.00,0.0213
3130.00,0.0212
3129.00,0.0211
3128.00,0.0211
3127.00,0.0210
3126.00,0.0210
3125.00,0.0209
3124.00,0.0209
3123.00,0.0208
3122.00,0.0207
3121.00,0.0207
3120.00,0.0206
3119.00,0.0206
3118.00,0.0206
3117.00,0.0205
3116.00,0.0205
3115.00,0.0205
3114.00,0.0205
3113.00,0.0204
3112.00,0.0204
3111.00,0.0204
3110.00,0.0204
3109.00,0.0204
3108.00,0.0204
3107.00,0.0204
3106.00,0.0204
3105.00,0.0204
3104.00,0.0204
3103.00,0.0204
3102.00,0.0204
3101.00,0.0204
3100.00,0.0204
3099.00,0.0204
3098.00,0.0204
3097.00,0.0205
3096.00,0.0205
3095.00,0.0205
3094.00,0.0205
3093.00,0.0205
3092.00,0.0205
3091.00,0.0205
3090.00,0.0205
3089.00,0.0205
3088.00,0.0206
3087.00,0.0206
3086.00,0.0206
3085.00,0.0206
3084.00,0.0206
3083.00,0.0206
3082.00,0.0206
3081.00,0.0206
3080.00,0.0206
3079.00,0.0206
3078.00,0.0206
3077.00,0.0207
3076.00,0.0207
3075.00,0.0207
3074.00,0.0207
3073.00,0.0207
3072.00,0.0207
3071.00,0.0207
3070.00,0.0207
3069.00,0.0207
3068.00,0.0206
3067.00,0.0206
3066.00,0.0206
3065.00,0.0206
3064.00,0.0206
3063.00,0.0206
3062.00,0.0205
3061.00,0.0205
3060.00,0.0204
3059.00,0.0204
3058.00,0.0203
3057.00,0.0202
3056.00,0.0202
3055.00,0.0201
3054.00,0.0200
3053.00,0.0200
3052.00,0.0199
3051.00,0.0198
3050.00,0.0197
3049.00,0.0197
3048.00,0.0196
3047.00,0.0195
3046.00,0.0194
3045.00,0.0193
3044.00,0.0193
3043.00,0.0192
3042.00,0.0191
3041.00,0.0191
3040.00,0.0190
3039.00,0.0190
3038.00,0.0189
3037.00,0.0188
3036.00,0.0187
3035.00,0.0186
3034.00,0.0185
3033.00,0.0185
3032.00,0.0184
3031.00,0.0184
3030.00,0.0183
3029.00,0.0182
3028.00,0.0182
3027.00,0.0181
3026.00,0.0180
3025.00,0.0179
3024.00,0.0178
3023.00,0.0177
3022.00,0.0177
3021.00,0.0176
3020.00,0.0174
3019.00,0.0173
3018.00,0.0172
3017.00,0.0171
3016.00,0.0170
3015.00,0.0169
3014.00,0.0169
3013.00,0.0168
3012.00,0.0167
3011.00,0.0167
3010.00,0.0166
3009.00,0.0166
3008.00,0.0165
3007.00,0.0164
3006.00,0.0163
3005.00,0.0163
3004.00,0.0162
3003.00,0.0161
3002.00,0.0161
3001.00,0.0160
3000.00,0.0160
2999.00,0.0159
2998.00,0.0159
2997.00,0.0159
2996.00,0.0159
2995.00,0.0159
2994.00,0.0159
2993.00,0.0159
2992.00,0.0159
2991.00,0.0160
2990.00,0.0160
2989.00,0.0161
2988.00,0.0162
2987.00,0.0162
2986.00,0.0162
2985.00,0.0162
2984.00,0.0161
2983.00,0.0160
2982.00,0.0160
2981.00,0.0160
2980.00,0.0162
2979.00,0.0163
2978.00,0.0166
2977.00,0.0167
2976.00,0.0169
2975.00,0.0170
2974.00,0.0171
2973.00,0.0171
2972.00,0.0172
2971.00,0.0173
2970.00,0.0174
2969.00,0.0175
2968.00,0.0177
2967.00,0.0178
2966.00,0.0178
2965.00,0.0179
2964.00,0.0179
2963.00,0.0179
2962.00,0.0180
2961.00,0.0180
2960.00,0.0180
2959.00,0.0179
2958.00,0.0179
2957.00,0.0179
2956.00,0.0179
2955.00,0.0178
2954.00,0.0178
2953.00,0.0178
2952.00,0.0177
2951.00,0.0177
2950.00,0.0178
2949.00,0.0178
2948.00,0.0178
2947.00,0.0178
2946.00,0.0178
2945.00,0.0179
2944.00,0.0179
2943.00,0.0180
2942.00,0.0181
2941.00,0.0181
2940.00,0.0182
2939.00,0.0182
2938.00,0.0183
2937.00,0.0183
2936.00,0.0184
2935.00,0.0184
2934.00,0.0183
2933.00,0.0183
2932.00,0.0182
2931.00,0.0181
2930.00,0.0181
2929.00,0.0180
2928.00,0.0179
2927.00,0.0178
2926.00,0.0178
2925.00,0.0177
2924.00,0.0177
2923.00,0.0177
2922.00,0.0176
2921.00,0.0176
2920.00,0.0176
2919.00,0.0175
2918.00,0.0175
2917.00,0.0175
2916.00,0.0174
2915.00,0.0173
2914.00,0.0172
2913.00,0.0171
2912.00,0.0170
2911.00,0.0169
2910.00,0.0168
2909.00,0.0167
2908.00,0.0167
2907.00,0.0166
2906.00,0.0165
2905.00,0.0164
2904.00,0.0164
2903.00,0.0163
2902.00,0.0163
2901.00,0.0163
2900.00,0.0162
2899.00,0.0162
2898.00,0.0162
2897.00,0.0161
2896.00,0.0161
2895.00,0.0161
2894.00,0.0160
2893.00,0.0160
2892.00,0.0160
2891.00,0.0160
2890.00,0.0160
2889.00,0.0160
2888.00,0.0160
2887.00,0.0160
2886.00,0.0160
2885.00,0.0161
2884.00,0.0161
2883.00,0.0162
2882.00,0.0162
2881.00,0.0163
2880.00,0.0163
2879.00,0.0164
2878.00,0.0165
2877.00,0.0165
2876.00,0.0165
2875.00,0.0165
2874.00,0.0165
2873.00,0.0164
2872.00,0.0164
2871.00,0.0163
2870.00,0.0162
2869.00,0.0161
2868.00,0.0160
2867.00,0.0159
2866.00,0.0158
2865.00,0.0156
2864.00,0.0155
2863.00,0.0154
2862.00,0.0153
2861.00,0.0151
2860.00,0.0150
2859.00,0.0149
2858.00,0.0149
2857.00,0.0148
2856.00,0.0148
2855.00,0.0148
2854.00,0.0148
2853.00,0.0148
2852.00,0.0148
2851.00,0.0148
2850.00,0.0148
2849.00,0.0148
2848.00,0.0147
2847.00,0.0147
2846.00,0.0146
2845.00,0.0145
2844.00,0.0145
2843.00,0.0144
2842.00,0.0144
2841.00,0.0143
2840.00,0.0143
2839.00,0.0142
2838.00,0.0142
2837.00,0.0141
2836.00,0.0141
2835.00,0.0141
2834.00,0.0140
2833.00,0.0140
2832.00,0.0140
2831.00,0.0140
2830.00,0.0139
2829.00,0.0139
2828.00,0.0139
2827.00,0.0138
2826.00,0.0138
2825.00,0.0138
2824.00,0.0138
2823.00,0.0138
2822.00,0.0137
2821.00,0.0137
2820.00,0.0137
2819.00,0.0137
2818.00,0.0137
2817.00,0.0136
2816.00,0.0136
2815.00,0.0136
2814.00,0.0135
2813.00,0.0135
2812.00,0.0135
2811.00,0.0134
2810.00,0.0134
2809.00,0.0134
2808.00,0.0134
2807.00,0.0134
2806.00,0.0134
2805.00,0.0133
2804.00,0.0133
2803.00,0.0133
2802.00,0.0133
2801.00,0.0132
2800.00,0.0132
2799.00,0.0132
2798.00,0.0132
2797.00,0.0131
2796.00,0.0131
2795.00,0.0131
2794.00,0.0131
2793.00,0.0131
2792.00,0.0130
2791.00,0.0130
2790.00,0.0130
2789.00,0.0130
2788.00,0.0129
2787.00,0.0129
2786.00,0.0129
2785.00,0.0129
2784.00,0.0129
2783.00,0.0129
2782.00,0.0128
2781.00,0.0128
2780.00,0.0128
2779.00,0.0128
2778.00,0.0128
2777.00,0.0127
2776.00,0.0127
2775.00,0.0127
2774.00,0.0127
2773.00,0.0126
2772.00,0.0126
2771.00,0.0126
2770.00,0.0126
2769.00,0.0126
2768.00,0.0125
2767.00,0.0125
2766.00,0.0125
2765.00,0.0124
2764.00,0.0124
2763.00,0.0124
2762.00,0.0124
2761.00,0.0124
2760.00,0.0123
2759.00,0.0123
2758.00,0.0123
2757.00,0.0123
2756.00,0.0123
2755.00,0.0122
2754.00,0.0122
2753.00,0.0122
2752.00,0.0122
2751.00,0.0122
2750.00,0.0121
2749.00,0.0121
2748.00,0.0121
2747.00,0.0121
2746.00,0.0121
2745.00,0.0121
2744.00,0.0120
2743.00,0.0120
2742.00,0.0120
2741.00,0.0120
2740.00,0.0120
2739.00,0.0119
2738.00,0.0119
2737.00,0.0119
2736.00,0.0119
2735.00,0.0118
2734.00,0.0118
2733.00,0.0118
2732.00,0.0118
2731.00,0.0118
2730.00,0.0117
2729.00,0.0117
2728.00,0.0117
2727.00,0.0117
2726.00,0.0117
2725.00,0.0116
2724.00,0.0116
2723.00,0.0116
2722.00,0.0116
2721.00,0.0116
2720.00,0.0115
2719.00,0.0115
2718.00,0.0115
2717.00,0.0115
2716.00,0.0115
2715.00,0.0114
2714.00,0.0114
2713.00,0.0114
2712.00,0.0114
2711.00,0.0114
2710.00,0.0113
2709.00,0.0113
2708.00,0.0113
2707.00,0.0113
2706.00,0.0113
2705.00,0.0112
2704.00,0.0112
2703.00,0.0112
2702.00,0.0112
2701.00,0.0112
2700.00,0.0112
2699.00,0.0111
2698.00,0.0111
2697.00,0.0111
2696.00,0.0111
2695.00,0.0111
2694.00,0.0110
2693.00,0.0110
2692.00,0.0110
2691.00,0.0110
2690.00,0.0110
2689.00,0.0110
2688.00,0.0110
2687.00,0.0110
2686.00,0.0109
2685.00,0.0109
2684.00,0.0109
2683.00,0.0109
2682.00,0.0109
2681.00,0.0108
2680.00,0.0108
2679.00,0.0108
2678.00,0.0108
2677.00,0.0108
2676.00,0.0108
2675.00,0.0107
2674.00,0.0107
2673.00,0.0107
2672.00,0.0107
2671.00,0.0107
2670.00,0.0107
2669.00,0.0107
2668.00,0.0107
2667.00,0.0107
2666.00,0.0106
2665.00,0.0106
2664.00,0.0106
2663.00,0.0106
2662.00,0.0106
2661.00,0.0106
2660.00,0.0106
2659.00,0.0106
2658.00,0.0106
2657.00,0.0106
2656.00,0.0106
2655.00,0.0106
2654.00,0.0106
2653.00,0.0106
2652.00,0.0106
2651.00,0.0106
2650.00,0.0105
2649.00,0.0105
2648.00,0.0105
2647.00,0.0105
2646.00,0.0105
2645.00,0.0105
2644.00,0.0105
2643.00,0.0105
2642.00,0.0105
2641.00,0.0105
2640.00,0.0105
2639.00,0.0105
2638.00,0.0105
2637.00,0.0105
2636.00,0.0105
2635.00,0.0105
2634.00,0.0105
2633.00,0.0105
2632.00,0.0105
2631.00,0.0105
2630.00,0.0105
2629.00,0.0105
2628.00,0.0105
2627.00,0.0105
2626.00,0.0105
2625.00,0.0105
2624.00,0.0104
2623.00,0.0104
2622.00,0.0104
2621.00,0.0104
2620.00,0.0104
2619.00,0.0104
2618.00,0.0104
2617.00,0.0104
2616.00,0.0104
2615.00,0.0104
2614.00,0.0104
2613.00,0.0104
2612.00,0.0104
2611.00,0.0103
2610.00,0.0103
2609.00,0.0103
2608.00,0.0103
2607.00,0.0103
2606.00,0.0103
2605.00,0.0103
2604.00,0.0103
2603.00,0.0103
2602.00,0.0103
2601.00,0.0103
2600.00,0.0103
2599.00,0.0103
2598.00,0.0103
2597.00,0.0103
2596.00,0.0102
2595.00,0.0102
2594.00,0.0102
2593.00,0.0102
2592.00,0.0102
2591.00,0.0102
2590.00,0.0102
2589.00,0.0102
2588.00,0.0101
2587.00,0.0101
2586.00,0.0101
2585.00,0.0101
2584.00,0.0101
2583.00,0.0101
2582.00,0.0101
2581.00,0.0100
2580.00,0.0100
2579.00,0.0101
2578.00,0.0101
2577.00,0.0101
2576.00,0.0101
2575.00,0.0101
2574.00,0.0100
2573.00,0.0100
2572.00,0.0100
2571.00,0.0100
2570.00,0.0100
2569.00,0.0100
2568.00,0.0100
2567.00,0.0100
2566.00,0.0100
2565.00,0.0100
2564.00,0.0100
2563.00,0.0099
2562.00,0.0099
2561.00,0.0099
2560.00,0.0099
2559.00,0.0099
2558.00,0.0099
2557.00,0.0099
2556.00,0.0099
2555.00,0.0099
2554.00,0.0099
2553.00,0.0099
2552.00,0.0098
2551.00,0.0098
2550.00,0.0098
2549.00,0.0098
2548.00,0.0098
2547.00,0.0098
2546.00,0.0097
2545.00,0.0097
2544.00,0.0097
2543.00,0.0097
2542.00,0.0097
2541.00,0.0097
2540.00,0.0097
2539.00,0.0097
2538.00,0.0097
2537.00,0.0097
2536.00,0.0097
2535.00,0.0096
2534.00,0.0096
2533.00,0.0096
2532.00,0.0096
2531.00,0.0096
2530.00,0.0096
2529.00,0.0096
2528.00,0.0096
2527.00,0.0096
2526.00,0.0096
2525.00,0.0096
2524.00,0.0096
2523.00,0.0096
2522.00,0.0096
2521.00,0.0096
2520.00,0.0096
2519.00,0.0095
2518.00,0.0095
2517.00,0.0095
2516.00,0.0095
2515.00,0.0095
2514.00,0.0095
2513.00,0.0095
2512.00,0.0095
2511.00,0.0095
2510.00,0.0094
2509.00,0.0094
2508.00,0.0094
2507.00,0.0094
2506.00,0.0094
2505.00,0.0094
2504.00,0.0094
2503.00,0.0094
2502.00,0.0094
2501.00,0.0094
2500.00,0.0094
2499.00,0.0094
2498.00,0.0094
2497.00,0.0094
2496.00,0.0094
2495.00,0.0094
2494.00,0.0094
2493.00,0.0094
2492.00,0.0093
2491.00,0.0093
2490.00,0.0093
2489.00,0.0093
2488.00,0.0093
2487.00,0.0093
2486.00,0.0092
2485.00,0.0092
2484.00,0.0092
2483.00,0.0092
2482.00,0.0092
2481.00,0.0092
2480.00,0.0092
2479.00,0.0092
2478.00,0.0092
2477.00,0.0092
2476.00,0.0092
2475.00,0.0092
2474.00,0.0092
2473.00,0.0091
2472.00,0.0091
2471.00,0.0091
2470.00,0.0091
2469.00,0.0091
2468.00,0.0091
2467.00,0.0091
2466.00,0.0091
2465.00,0.0091
2464.00,0.0091
2463.00,0.0091
2462.00,0.0091
2461.00,0.0091
2460.00,0.0091
2459.00,0.0091
2458.00,0.0091
2457.00,0.0090
2456.00,0.0090
2455.00,0.0090
2454.00,0.0090
2453.00,0.0090
2452.00,0.0090
2451.00,0.0090
2450.00,0.0090
2449.00,0.0089
2448.00,0.0089
2447.00,0.0089
2446.00,0.0089
2445.00,0.0089
2444.00,0.0089
2443.00,0.0089
2442.00,0.0089
2441.00,0.0089
2440.00,0.0089
2439.00,0.0089
2438.00,0.0089
2437.00,0.0089
2436.00,0.0089
2435.00,0.0089
2434.00,0.0089
2433.00,0.0088
2432.00,0.0088
2431.00,0.0088
2430.00,0.0088
2429.00,0.0088
2428.00,0.0088
2427.00,0.0088
2426.00,0.0087
2425.00,0.0087
2424.00,0.0087
2423.00,0.0087
2422.00,0.0087
2421.00,0.0087
2420.00,0.0087
2419.00,0.0087
2418.00,0.0087
2417.00,0.0087
2416.00,0.0087
2415.00,0.0087
2414.00,0.0087
2413.00,0.0087
2412.00,0.0086
2411.00,0.0086
2410.00,0.0086
2409.00,0.0086
2408.00,0.0086
2407.00,0.0086
2406.00,0.0086
2405.00,0.0086
2404.00,0.0085
2403.00,0.0085
2402.00,0.0085
2401.00,0.0085
2400.00,0.0085
2399.00,0.0085
2398.00,0.0085
2397.00,0.0085
2396.00,0.0085
2395.00,0.0084
2394.00,0.0084
2393.00,0.0084
2392.00,0.0084
2391.00,0.0084
2390.00,0.0084
2389.00,0.0084
2388.00,0.0084
2387.00,0.0084
2386.00,0.0084
2385.00,0.0083
2384.00,0.0083
2383.00,0.0083
2382.00,0.0083
2381.00,0.0083
2380.00,0.0083
2379.00,0.0083
2378.00,0.0083
2377.00,0.0083
2376.00,0.0083
2375.00,0.0083
2374.00,0.0083
2373.00,0.0083
2372.00,0.0082
2371.00,0.0082
2370.00,0.0082
2369.00,0.0082
2368.00,0.0082
2367.00,0.0082
2366.00,0.0082
2365.00,0.0082
2364.00,0.0082
2363.00,0.0082
2362.00,0.0082
2361.00,0.0081
2360.00,0.0081
2359.00,0.0081
2358.00,0.0081
2357.00,0.0081
2356.00,0.0081
2355.00,0.0081
2354.00,0.0081
2353.00,0.0081
2352.00,0.0081
2351.00,0.0080
2350.00,0.0080
2349.00,0.0080
2348.00,0.0080
2347.00,0.0080
2346.00,0.0080
2345.00,0.0080
2344.00,0.0080
2343.00,0.0080
2342.00,0.0080
2341.00,0.0080
2340.00,0.0080
2339.00,0.0080
2338.00,0.0080
2337.00,0.0079
2336.00,0.0079
2335.00,0.0079
2334.00,0.0079
2333.00,0.0079
2332.00,0.0079
2331.00,0.0079
2330.00,0.0079
2329.00,0.0079
2328.00,0.0079
2327.00,0.0079
2326.00,0.0079
2325.00,0.0079
2324.00,0.0078
2323.00,0.0078
2322.00,0.0079
2321.00,0.0079
2320.00,0.0079
2319.00,0.0079
2318.00,0.0079
2317.00,0.0079
2316.00,0.0079
2315.00,0.0079
2314.00,0.0079
2313.00,0.0079
2312.00,0.0079
2311.00,0.0079
2310.00,0.0078
2309.00,0.0079
2308.00,0.0079
2307.00,0.0079
2306.00,0.0079
2305.00,0.0078
2304.00,0.0078
2303.00,0.0078
2302.00,0.0078
2301.00,0.0079
2300.00,0.0079
2299.00,0.0079
2298.00,0.0078
2297.00,0.0078
2296.00,0.0078
2295.00,0.0078
2294.00,0.0078
2293.00,0.0078
2292.00,0.0078
2291.00,0.0078
2290.00,0.0078
2289.00,0.0078
2288.00,0.0078
2287.00,0.0078
2286.00,0.0078
2285.00,0.0078
2284.00,0.0078
2283.00,0.0078
2282.00,0.0078
2281.00,0.0078
2280.00,0.0078
2279.00,0.0078
2278.00,0.0078
2277.00,0.0078
2276.00,0.0078
2275.00,0.0078
2274.00,0.0078
2273.00,0.0078
2272.00,0.0078
2271.00,0.0078
2270.00,0.0078
2269.00,0.0078
2268.00,0.0078
2267.00,0.0078
2266.00,0.0078
2265.00,0.0078
2264.00,0.0078
2263.00,0.0078
2262.00,0.0078
2261.00,0.0078
2260.00,0.0078
2259.00,0.0078
2258.00,0.0078
2257.00,0.0078
2256.00,0.0078
2255.00,0.0078
2254.00,0.0078
2253.00,0.0077
2252.00,0.0077
2251.00,0.0077
2250.00,0.0077
2249.00,0.0077
2248.00,0.0077
2247.00,0.0077
2246.00,0.0077
2245.00,0.0077
2244.00,0.0077
2243.00,0.0076
2242.00,0.0076
2241.00,0.0076
2240.00,0.0076
2239.00,0.0076
2238.00,0.0076
2237.00,0.0076
2236.00,0.0076
2235.00,0.0076
2234.00,0.0075
2233.00,0.0075
2232.00,0.0074
2231.00,0.0074
2230.00,0.0075
2229.00,0.0076
2228.00,0.0076
2227.00,0.0077
2226.00,0.0076
2225.00,0.0076
2224.00,0.0077
2223.00,0.0077
2222.00,0.0077
2221.00,0.0077
2220.00,0.0076
2219.00,0.0075
2218.00,0.0075
2217.00,0.0075
2216.00,0.0075
2215.00,0.0075
2214.00,0.0075
2213.00,0.0075
2212.00,0.0074
2211.00,0.0074
2210.00,0.0073
2209.00,0.0073
2208.00,0.0074
2207.00,0.0074
2206.00,0.0074
2205.00,0.0075
2204.00,0.0075
2203.00,0.0076
2202.00,0.0076
2201.00,0.0076
2200.00,0.0076
2199.00,0.0075
2198.00,0.0075
2197.00,0.0075
2196.00,0.0074
2195.00,0.0074
2194.00,0.0073
2193.00,0.0073
2192.00,0.0073
2191.00,0.0073
2190.00,0.0073
2189.00,0.0073
2188.00,0.0074
2187.00,0.0074
2186.00,0.0073
2185.00,0.0072
2184.00,0.0072
2183.00,0.0072
2182.00,0.0072
2181.00,0.0072
2180.00,0.0072
2179.00,0.0072
2178.00,0.0071
2177.00,0.0071
2176.00,0.0071
2175.00,0.0072
2174.00,0.0072
2173.00,0.0072
2172.00,0.0072
2171.00,0.0073
2170.00,0.0073
2169.00,0.0073
2168.00,0.0073
2167.00,0.0073
2166.00,0.0072
2165.00,0.0071
2164.00,0.0070
2163.00,0.0070
2162.00,0.0069
2161.00,0.0069
2160.00,0.0069
2159.00,0.0069
2158.00,0.0069
2157.00,0.0069
2156.00,0.0070
2155.00,0.0070
2154.00,0.0070
2153.00,0.0070
2152.00,0.0070
2151.00,0.0070
2150.00,0.0070
2149.00,0.0070
2148.00,0.0070
2147.00,0.0071
2146.00,0.0071
2145.00,0.0072
2144.00,0.0072
2143.00,0.0072
2142.00,0.0071
2141.00,0.0071
2140.00,0.0070
2139.00,0.0070
2138.00,0.0070
2137.00,0.0070
2136.00,0.0071
2135.00,0.0070
2134.00,0.0070
2133.00,0.0070
2132.00,0.0071
2131.00,0.0071
2130.00,0.0071
2129.00,0.0071
2128.00,0.0072
2127.00,0.0072
2126.00,0.0071
2125.00,0.0071
2124.00,0.0071
2123.00,0.0072
2122.00,0.0072
2121.00,0.0072
2120.00,0.0072
2119.00,0.0072
2118.00,0.0071
2117.00,0.0071
2116.00,0.0071
2115.00,0.0071
2114.00,0.0071
2113.00,0.0070
2112.00,0.0070
2111.00,0.0070
2110.00,0.0070
2109.00,0.0070
2108.00,0.0070
2107.00,0.0070
2106.00,0.0070
2105.00,0.0070
2104.00,0.0070
2103.00,0.0070
2102.00,0.0071
2101.00,0.0071
2100.00,0.0071
2099.00,0.0070
2098.00,0.0070
2097.00,0.0069
2096.00,0.0069
2095.00,0.0069
2094.00,0.0069
2093.00,0.0069
2092.00,0.0069
2091.00,0.0069
2090.00,0.0069
2089.00,0.0069
2088.00,0.0069
2087.00,0.0069
2086.00,0.0068
2085.00,0.0068
2084.00,0.0068
2083.00,0.0068
2082.00,0.0068
2081.00,0.0068
2080.00,0.0067
2079.00,0.0067
2078.00,0.0067
2077.00,0.0067
2076.00,0.0067
2075.00,0.0067
2074.00,0.0067
2073.00,0.0066
2072.00,0.0066
2071.00,0.0066
2070.00,0.0065
2069.00,0.0065
2068.00,0.0065
2067.00,0.0065
2066.00,0.0065
2065.00,0.0065
2064.00,0.0065
2063.00,0.0065
2062.00,0.0065
2061.00,0.0065
2060.00,0.0065
2059.00,0.0065
2058.00,0.0065
2057.00,0.0065
2056.00,0.0065
2055.00,0.0065
2054.00,0.0064
2053.00,0.0064
2052.00,0.0064
2051.00,0.0063
2050.00,0.0062
2049.00,0.0062
2048.00,0.0062
2047.00,0.0063
2046.00,0.0064
2045.00,0.0064
2044.00,0.0063
2043.00,0.0062
2042.00,0.0062
2041.00,0.0063
2040.00,0.0064
2039.00,0.0064
2038.00,0.0063
2037.00,0.0062
2036.00,0.0062
2035.00,0.0062
2034.00,0.0061
2033.00,0.0062
2032.00,0.0062
2031.00,0.0061
2030.00,0.0061
2029.00,0.0061
2028.00,0.0062
2027.00,0.0062
2026.00,0.0062
2025.00,0.0061
2024.00,0.0061
2023.00,0.0061
2022.00,0.0061
2021.00,0.0061
2020.00,0.0061
2019.00,0.0061
2018.00,0.0061
2017.00,0.0061
2016.00,0.0061
2015.00,0.0061
2014.00,0.0060
2013.00,0.0060
2012.00,0.0060
2011.00,0.0060
2010.00,0.0060
2009.00,0.0059
2008.00,0.0059
2007.00,0.0059
2006.00,0.0058
2005.00,0.0058
2004.00,0.0058
2003.00,0.0059
2002.00,0.0059
2001.00,0.0059
2000.00,0.0059
1999.00,0.0059
1998.00,0.0059
1997.00,0.0059
1996.00,0.0059
1995.00,0.0059
1994.00,0.0058
1993.00,0.0058
1992.00,0.0057
1991.00,0.0058
1990.00,0.0057
1989.00,0.0058
1988.00,0.0058
1987.00,0.0058
1986.00,0.0057
1985.00,0.0058
1984.00,0.0058
1983.00,0.0058
1982.00,0.0057
1981.00,0.0056
1980.00,0.0056
1979.00,0.0055
1978.00,0.0054
1977.00,0.0054
1976.00,0.0054
1975.00,0.0054
1974.00,0.0055
1973.00,0.0056
1972.00,0.0056
1971.00,0.0056
1970.00,0.0056
1969.00,0.0056
1968.00,0.0056
1967.00,0.0057
1966.00,0.0056
1965.00,0.0056
1964.00,0.0056
1963.00,0.0056
1962.00,0.0055
1961.00,0.0055
1960.00,0.0055
1959.00,0.0055
1958.00,0.0055
1957.00,0.0055
1956.00,0.0055
1955.00,0.0055
1954.00,0.0055
1953.00,0.0055
1952.00,0.0055
1951.00,0.0055
1950.00,0.0055
1949.00,0.0055
1948.00,0.0055
1947.00,0.0055
1946.00,0.0055
1945.00,0.0054
1944.00,0.0054
1943.00,0.0054
1942.00,0.0054
1941.00,0.0055
1940.00,0.0056
1939.00,0.0055
1938.00,0.0055
1937.00,0.0055
1936.00,0.0054
1935.00,0.0054
1934.00,0.0054
1933.00,0.0054
1932.00,0.0053
1931.00,0.0053
1930.00,0.0053
1929.00,0.0053
1928.00,0.0053
1927.00,0.0053
1926.00,0.0052
1925.00,0.0052
1924.00,0.0052
1923.00,0.0052
1922.00,0.0052
1921.00,0.0052
1920.00,0.0052
1919.00,0.0052
1918.00,0.0052
1917.00,0.0053
1916.00,0.0053
1915.00,0.0053
1914.00,0.0052
1913.00,0.0052
1912.00,0.0052
1911.00,0.0051
1910.00,0.0051
1909.00,0.0050
1908.00,0.0050
1907.00,0.0050
1906.00,0.0050
1905.00,0.0050
1904.00,0.0050
1903.00,0.0050
1902.00,0.0050
1901.00,0.0051
1900.00,0.0051
1899.00,0.0050
1898.00,0.0050
1897.00,0.0049
1896.00,0.0049
1895.00,0.0049
1894.00,0.0049
1893.00,0.0049
1892.00,0.0048
1891.00,0.0048
1890.00,0.0048
1889.00,0.0048
1888.00,0.0048
1887.00,0.0049
1886.00,0.0049
1885.00,0.0048
1884.00,0.0048
1883.00,0.0048
1882.00,0.0047
1881.00,0.0047
1880.00,0.0047
1879.00,0.0047
1878.00,0.0047
1877.00,0.0047
1876.00,0.0047
1875.00,0.0047
1874.00,0.0046
1873.00,0.0046
1872.00,0.0046
1871.00,0.0045
1870.00,0.0044
1869.00,0.0044
1868.00,0.0045
1867.00,0.0045
1866.00,0.0045
1865.00,0.0045
1864.00,0.0045
1863.00,0.0045
1862.00,0.0045
1861.00,0.0044
1860.00,0.0044
1859.00,0.0044
1858.00,0.0044
1857.00,0.0044
1856.00,0.0044
1855.00,0.0044
1854.00,0.0043
1853.00,0.0043
1852.00,0.0043
1851.00,0.0043
1850.00,0.0043
1849.00,0.0042
1848.00,0.0042
1847.00,0.0042
1846.00,0.0042
1845.00,0.0043
1844.00,0.0044
1843.00,0.0044
1842.00,0.0043
1841.00,0.0042
1840.00,0.0041
1839.00,0.0041
1838.00,0.0041
1837.00,0.0041
1836.00,0.0041
1835.00,0.0041
1834.00,0.0040
1833.00,0.0039
1832.00,0.0039
1831.00,0.0039
1830.00,0.0039
1829.00,0.0039
1828.00,0.0039
1827.00,0.0038
1826.00,0.0038
1825.00,0.0038
1824.00,0.0039
1823.00,0.0039
1822.00,0.0039
1821.00,0.0039
1820.00,0.0039
1819.00,0.0038
1818.00,0.0038
1817.00,0.0038
1816.00,0.0038
1815.00,0.0037
1814.00,0.0037
1813.00,0.0036
1812.00,0.0036
1811.00,0.0036
1810.00,0.0036
1809.00,0.0036
1808.00,0.0036
1807.00,0.0036
1806.00,0.0035
1805.00,0.0035
1804.00,0.0034
1803.00,0.0034
1802.00,0.0034
1801.00,0.0034
1800.00,0.0034
1799.00,0.0034
1798.00,0.0034
1797.00,0.0033
1796.00,0.0033
1795.00,0.0033
1794.00,0.0033
1793.00,0.0033
1792.00,0.0033
1791.00,0.0034
1790.00,0.0033
1789.00,0.0033
1788.00,0.0033
1787.00,0.0032
1786.00,0.0032
1785.00,0.0032
1784.00,0.0031
1783.00,0.0031
1782.00,0.0030
1781.00,0.0030
1780.00,0.0030
1779.00,0.0030
1778.00,0.0030
1777.00,0.0029
1776.00,0.0029
1775.00,0.0029
1774.00,0.0030
1773.00,0.0030
1772.00,0.0030
1771.00,0.0030
1770.00,0.0029
1769.00,0.0029
1768.00,0.0029
1767.00,0.0029
1766.00,0.0028
1765.00,0.0027
1764.00,0.0027
1763.00,0.0027
1762.00,0.0027
1761.00,0.0027
1760.00,0.0027
1759.00,0.0027
1758.00,0.0026
1757.00,0.0027
1756.00,0.0027
1755.00,0.0027
1754.00,0.0027
1753.00,0.0027
1752.00,0.0027
1751.00,0.0027
1750.00,0.0026
1749.00,0.0026
1748.00,0.0026
1747.00,0.0027
1746.00,0.0027
1745.00,0.0027
1744.00,0.0028
1743.00,0.0029
1742.00,0.0029
1741.00,0.0030
1740.00,0.0031
1739.00,0.0032
1738.00,0.0032
1737.00,0.0032
1736.00,0.0034
1735.00,0.0037
1734.00,0.0038
1733.00,0.0036
1732.00,0.0034
1731.00,0.0031
1730.00,0.0030
1729.00,0.0029
1728.00,0.0029
1727.00,0.0029
1726.00,0.0028
1725.00,0.0028
1724.00,0.0029
1723.00,0.0030
1722.00,0.0030
1721.00,0.0031
1720.00,0.0034
1719.00,0.0037
1718.00,0.0041
1717.00,0.0044
1716.00,0.0046
1715.00,0.0047
1714.00,0.0048
1713.00,0.0050
1712.00,0.0052
1711.00,0.0055
1710.00,0.0057
1709.00,0.0060
1708.00,0.0064
1707.00,0.0070
1706.00,0.0077
1705.00,0.0085
1704.00,0.0094
1703.00,0.0104
1702.00,0.0116
1701.00,0.0134
1700.00,0.0155
1699.00,0.0172
1698.00,0.0182
1697.00,0.0192
1696.00,0.0201
1695.00,0.0207
1694.00,0.0209
1693.00,0.0212
1692.00,0.0215
1691.00,0.0221
1690.00,0.0227
1689.00,0.0234
1688.00,0.0242
1687.00,0.0252
1686.00,0.0261
1685.00,0.0270
1684.00,0.0281
1683.00,0.0289
1682.00,0.0296
1681.00,0.0304
1680.00,0.0313
1679.00,0.0322
1678.00,0.0332
1677.00,0.0341
1676.00,0.0352
1675.00,0.0362
1674.00,0.0372
1673.00,0.0380
1672.00,0.0389
1671.00,0.0400
1670.00,0.0410
1669.00,0.0422
1668.00,0.0433
1667.00,0.0444
1666.00,0.0454
1665.00,0.0464
1664.00,0.0475
1663.00,0.0487
1662.00,0.0497
1661.00,0.0508
1660.00,0.0518
1659.00,0.0529
1658.00,0.0539
1657.00,0.0549
1656.00,0.0562
1655.00,0.0574
1654.00,0.0584
1653.00,0.0590
1652.00,0.0594
1651.00,0.0596
1650.00,0.0600
1649.00,0.0605
1648.00,0.0611
1647.00,0.0615
1646.00,0.0617
1645.00,0.0620
1644.00,0.0623
1643.00,0.0627
1642.00,0.0630
1641.00,0.0633
1640.00,0.0636
1639.00,0.0640
1638.00,0.0644
1637.00,0.0647
1636.00,0.0647
1635.00,0.0647
1634.00,0.0648
1633.00,0.0651
1632.00,0.0656
1631.00,0.0662
1630.00,0.0667
1629.00,0.0672
1628.00,0.0678
1627.00,0.0684
1626.00,0.0691
1625.00,0.0699
1624.00,0.0706
1623.00,0.0714
1622.00,0.0720
1621.00,0.0727
1620.00,0.0736
1619.00,0.0744
1618.00,0.0748
1617.00,0.0746
1616.00,0.0740
1615.00,0.0733
1614.00,0.0726
1613.00,0.0719
1612.00,0.0709
1611.00,0.0697
1610.00,0.0681
1609.00,0.0664
1608.00,0.0647
1607.00,0.0629
1606.00,0.0612
1605.00,0.0594
1604.00,0.0577
1603.00,0.0559
1602.00,0.0542
1601.00,0.0525
1600.00,0.0510
1599.00,0.0495
1598.00,0.0481
1597.00,0.0467
1596.00,0.0453
1595.00,0.0440
1594.00,0.0428
1593.00,0.0417
1592.00,0.0407
1591.00,0.0397
1590.00,0.0388
1589.00,0.0380
1588.00,0.0372
1587.00,0.0365
1586.00,0.0359
1585.00,0.0354
1584.00,0.0349
1583.00,0.0344
1582.00,0.0341
1581.00,0.0338
1580.00,0.0336
1579.00,0.0335
1578.00,0.0337
1577.00,0.0337
1576.00,0.0335
1575.00,0.0333
1574.00,0.0332
1573.00,0.0333
1572.00,0.0335
1571.00,0.0338
1570.00,0.0341
1569.00,0.0345
1568.00,0.0349
1567.00,0.0354
1566.00,0.0359
1565.00,0.0366
1564.00,0.0372
1563.00,0.0380
1562.00,0.0390
1561.00,0.0399
1560.00,0.0408
1559.00,0.0416
1558.00,0.0425
1557.00,0.0434
1556.00,0.0442
1555.00,0.0451
1554.00,0.0461
1553.00,0.0471
1552.00,0.0479
1551.00,0.0488
1550.00,0.0498
1549.00,0.0508
1548.00,0.0517
1547.00,0.0526
1546.00,0.0534
1545.00,0.0542
1544.00,0.0550
1543.00,0.0558
1542.00,0.0566
1541.00,0.0574
1540.00,0.0580
1539.00,0.0584
1538.00,0.0588
1537.00,0.0592
1536.00,0.0597
1535.00,0.0602
1534.00,0.0606
1533.00,0.0610
1532.00,0.0615
1531.00,0.0620
1530.00,0.0626
1529.00,0.0631
1528.00,0.0636
1527.00,0.0641
1526.00,0.0645
1525.00,0.0650
1524.00,0.0656
1523.00,0.0661
1522.00,0.0666
1521.00,0.0669
1520.00,0.0672
1519.00,0.0675
1518.00,0.0678
1517.00,0.0680
1516.00,0.0681
1515.00,0.0682
1514.00,0.0683
1513.00,0.0682
1512.00,0.0680
1511.00,0.0676
1510.00,0.0674
1509.00,0.0671
1508.00,0.0664
1507.00,0.0651
1506.00,0.0636
1505.00,0.0625
1504.00,0.0616
1503.00,0.0608
1502.00,0.0600
1501.00,0.0592
1500.00,0.0581
1499.00,0.0571
1498.00,0.0560
1497.00,0.0547
1496.00,0.0533
1495.00,0.0519
1494.00,0.0508
1493.00,0.0497
1492.00,0.0486
1491.00,0.0472
1490.00,0.0457
1489.00,0.0443
1488.00,0.0431
1487.00,0.0421
1486.00,0.0411
1485.00,0.0402
1484.00,0.0394
1483.00,0.0386
1482.00,0.0379
1481.00,0.0371
1480.00,0.0365
1479.00,0.0361
1478.00,0.0356
1477.00,0.0353
1476.00,0.0350
1475.00,0.0350
1474.00,0.0349
1473.00,0.0349
1472.00,0.0349
1471.00,0.0349
1470.00,0.0349
1469.00,0.0349
1468.00,0.0350
1467.00,0.0350
1466.00,0.0350
1465.00,0.0350
1464.00,0.0351
1463.00,0.0353
1462.00,0.0354
1461.00,0.0357
1460.00,0.0361
1459.00,0.0366
1458.00,0.0372
1457.00,0.0380
1456.00,0.0386
1455.00,0.0389
1454.00,0.0391
1453.00,0.0393
1452.00,0.0394
1451.00,0.0395
1450.00,0.0395
1449.00,0.0394
1448.00,0.0392
1447.00,0.0390
1446.00,0.0387
1445.00,0.0384
1444.00,0.0381
1443.00,0.0377
1442.00,0.0373
1441.00,0.0369
1440.00,0.0365
1439.00,0.0362
1438.00,0.0359
1437.00,0.0354
1436.00,0.0348
1435.00,0.0343
1434.00,0.0340
1433.00,0.0337
1432.00,0.0334
1431.00,0.0331
1430.00,0.0329
1429.00,0.0327
1428.00,0.0326
1427.00,0.0326
1426.00,0.0326
1425.00,0.0326
1424.00,0.0327
1423.00,0.0329
1422.00,0.0331
1421.00,0.0334
1420.00,0.0336
1419.00,0.0339
1418.00,0.0340
1417.00,0.0342
1416.00,0.0345
1415.00,0.0347
1414.00,0.0350
1413.00,0.0352
1412.00,0.0354
1411.00,0.0356
1410.00,0.0357
1409.00,0.0358
1408.00,0.0358
1407.00,0.0358
1406.00,0.0358
1405.00,0.0357
1404.00,0.0356
1403.00,0.0355
1402.00,0.0354
1401.00,0.0353
1400.00,0.0352
1399.00,0.0350
1398.00,0.0349
1397.00,0.0348
1396.00,0.0347
1395.00,0.0347
1394.00,0.0346
1393.00,0.0345
1392.00,0.0345
1391.00,0.0345
1390.00,0.0346
1389.00,0.0345
1388.00,0.0345
1387.00,0.0344
1386.00,0.0342
1385.00,0.0341
1384.00,0.0340
1383.00,0.0339
1382.00,0.0338
1381.00,0.0336
1380.00,0.0335
1379.00,0.0334
1378.00,0.0333
1377.00,0.0332
1376.00,0.0331
1375.00,0.0330
1374.00,0.0329
1373.00,0.0329
1372.00,0.0329
1371.00,0.0329
1370.00,0.0328
1369.00,0.0327
1368.00,0.0325
1367.00,0.0323
1366.00,0.0321
1365.00,0.0318
1364.00,0.0315
1363.00,0.0312
1362.00,0.0309
1361.00,0.0307
1360.00,0.0306
1359.00,0.0304
1358.00,0.0303
1357.00,0.0302
1356.00,0.0301
1355.00,0.0300
1354.00,0.0299
1353.00,0.0299
1352.00,0.0299
1351.00,0.0299
1350.00,0.0299
1349.00,0.0299
1348.00,0.0300
1347.00,0.0301
1346.00,0.0302
1345.00,0.0302
1344.00,0.0303
1343.00,0.0304
1342.00,0.0305
1341.00,0.0305
1340.00,0.0305
1339.00,0.0306
1338.00,0.0306
1337.00,0.0306
1336.00,0.0305
1335.00,0.0304
1334.00,0.0303
1333.00,0.0302
1332.00,0.0301
1331.00,0.0299
1330.00,0.0299
1329.00,0.0298
1328.00,0.0297
1327.00,0.0297
1326.00,0.0296
1325.00,0.0296
1324.00,0.0296
1323.00,0.0296
1322.00,0.0296
1321.00,0.0296
1320.00,0.0296
1319.00,0.0296
1318.00,0.0297
1317.00,0.0297
1316.00,0.0298
1315.00,0.0298
1314.00,0.0299
1313.00,0.0299
1312.00,0.0300
1311.00,0.0300
1310.00,0.0300
1309.00,0.0301
1308.00,0.0301
1307.00,0.0301
1306.00,0.0301
1305.00,0.0301
1304.00,0.0301
1303.00,0.0301
1302.00,0.0301
1301.00,0.0301
1300.00,0.0301
1299.00,0.0300
1298.00,0.0300
1297.00,0.0300
1296.00,0.0299
1295.00,0.0299
1294.00,0.0299
1293.00,0.0298
1292.00,0.0298
1291.00,0.0298
1290.00,0.0297
1289.00,0.0297
1288.00,0.0297
1287.00,0.0296
1286.00,0.0296
1285.00,0.0295
1284.00,0.0295
1283.00,0.0294
1282.00,0.0294
1281.00,0.0293
1280.00,0.0292
1279.00,0.0291
1278.00,0.0290
1277.00,0.0290
1276.00,0.0289
1275.00,0.0288
1274.00,0.0287
1273.00,0.0287
1272.00,0.0287
1271.00,0.0287
1270.00,0.0288
1269.00,0.0289
1268.00,0.0291
1267.00,0.0293
1266.00,0.0295
1265.00,0.0298
1264.00,0.0301
1263.00,0.0304
1262.00,0.0307
1261.00,0.0310
1260.00,0.0313
1259.00,0.0315
1258.00,0.0317
1257.00,0.0319
1256.00,0.0322
1255.00,0.0324
1254.00,0.0326
1253.00,0.0328
1252.00,0.0330
1251.00,0.0333
1250.00,0.0335
1249.00,0.0338
1248.00,0.0340
1247.00,0.0343
1246.00,0.0346
1245.00,0.0348
1244.00,0.0351
1243.00,0.0353
1242.00,0.0355
1241.00,0.0356
1240.00,0.0358
1239.00,0.0359
1238.00,0.0360
1237.00,0.0360
1236.00,0.0361
1235.00,0.0361
1234.00,0.0361
1233.00,0.0360
1232.00,0.0360
1231.00,0.0359
1230.00,0.0358
1229.00,0.0357
1228.00,0.0355
1227.00,0.0354
1226.00,0.0352
1225.00,0.0350
1224.00,0.0348
1223.00,0.0347
1222.00,0.0344
1221.00,0.0342
1220.00,0.0340
1219.00,0.0337
1218.00,0.0335
1217.00,0.0332
1216.00,0.0329
1215.00,0.0327
1214.00,0.0324
1213.00,0.0321
1212.00,0.0318
1211.00,0.0314
1210.00,0.0311
1209.00,0.0308
1208.00,0.0304
1207.00,0.0301
1206.00,0.0297
1205.00,0.0294
1204.00,0.0290
1203.00,0.0287
1202.00,0.0283
1201.00,0.0279
1200.00,0.0276
1199.00,0.0273
1198.00,0.0270
1197.00,0.0267
1196.00,0.0264
1195.00,0.0261
1194.00,0.0259
1193.00,0.0256
1192.00,0.0254
1191.00,0.0252
1190.00,0.0250
1189.00,0.0248
1188.00,0.0247
1187.00,0.0245
1186.00,0.0244
1185.00,0.0243
1184.00,0.0242
1183.00,0.0241
1182.00,0.0240
1181.00,0.0240
1180.00,0.0240
1179.00,0.0241
1178.00,0.0242
1177.00,0.0244
1176.00,0.0246
1175.00,0.0248
1174.00,0.0251
1173.00,0.0253
1172.00,0.0256
1171.00,0.0259
1170.00,0.0261
1169.00,0.0263
1168.00,0.0265
1167.00,0.0266
1166.00,0.0268
1165.00,0.0269
1164.00,0.0270
1163.00,0.0270
1162.00,0.0270
1161.00,0.0269
1160.00,0.0268
1159.00,0.0267
1158.00,0.0265
1157.00,0.0263
1156.00,0.0261
1155.00,0.0259
1154.00,0.0257
1153.00,0.0254
1152.00,0.0252
1151.00,0.0250
1150.00,0.0248
1149.00,0.0246
1148.00,0.0244
1147.00,0.0242
1146.00,0.0241
1145.00,0.0239
1144.00,0.0238
1143.00,0.0237
1142.00,0.0236
1141.00,0.0235
1140.00,0.0234
1139.00,0.0234
1138.00,0.0233
1137.00,0.0233
1136.00,0.0233
1135.00,0.0233
1134.00,0.0233
1133.00,0.0234
1132.00,0.0234
1131.00,0.0234
1130.00,0.0234
1129.00,0.0234
1128.00,0.0235
1127.00,0.0235
1126.00,0.0235
1125.00,0.0235
1124.00,0.0235
1123.00,0.0235
1122.00,0.0235
1121.00,0.0235
1120.00,0.0234
1119.00,0.0234
1118.00,0.0234
1117.00,0.0234
1116.00,0.0234
1115.00,0.0235
1114.00,0.0235
1113.00,0.0235
1112.00,0.0236
1111.00,0.0237
1110.00,0.0237
1109.00,0.0238
1108.00,0.0239
1107.00,0.0240
1106.00,0.0241
1105.00,0.0242
1104.00,0.0242
1103.00,0.0243
1102.00,0.0244
1101.00,0.0245
1100.00,0.0246
1099.00,0.0247
1098.00,0.0249
1097.00,0.0250
1096.00,0.0252
1095.00,0.0254
1094.00,0.0256
1093.00,0.0259
1092.00,0.0261
1091.00,0.0264
1090.00,0.0267
1089.00,0.0271
1088.00,0.0275
1087.00,0.0279
1086.00,0.0283
1085.00,0.0287
1084.00,0.0291
1083.00,0.0296
1082.00,0.0300
1081.00,0.0305
1080.00,0.0309
1079.00,0.0314
1078.00,0.0318
1077.00,0.0321
1076.00,0.0325
1075.00,0.0328
1074.00,0.0331
1073.00,0.0334
1072.00,0.0337
1071.00,0.0339
1070.00,0.0341
1069.00,0.0343
1068.00,0.0345
1067.00,0.0347
1066.00,0.0349
1065.00,0.0350
1064.00,0.0351
1063.00,0.0352
1062.00,0.0352
1061.00,0.0352
1060.00,0.0352
1059.00,0.0351
1058.00,0.0351
1057.00,0.0351
1056.00,0.0350
1055.00,0.0350
1054.00,0.0349
1053.00,0.0348
1052.00,0.0348
1051.00,0.0347
1050.00,0.0347
1049.00,0.0346
1048.00,0.0344
1047.00,0.0343
1046.00,0.0340
1045.00,0.0338
1044.00,0.0335
1043.00,0.0332
1042.00,0.0328
1041.00,0.0324
1040.00,0.0320
1039.00,0.0316
1038.00,0.0312
1037.00,0.0307
1036.00,0.0303
1035.00,0.0300
1034.00,0.0296
1033.00,0.0293
1032.00,0.0290
1031.00,0.0287
1030.00,0.0284
1029.00,0.0280
1028.00,0.0277
1027.00,0.0273
1026.00,0.0269
1025.00,0.0266
1024.00,0.0263
1023.00,0.0260
1022.00,0.0256
1021.00,0.0253
1020.00,0.0250
1019.00,0.0247
1018.00,0.0244
1017.00,0.0242
1016.00,0.0239
1015.00,0.0236
1014.00,0.0233
1013.00,0.0230
1012.00,0.0227
1011.00,0.0224
1010.00,0.0221
1009.00,0.0218
1008.00,0.0216
1007.00,0.0213
1006.00,0.0211
1005.00,0.0209
1004.00,0.0207
1003.00,0.0205
1002.00,0.0203
1001.00,0.0202
1000.00,0.0200
999.00,0.0198
998.00,0.0197
997.00,0.0195
996.00,0.0194
995.00,0.0192
994.00,0.0191
993.00,0.0189
992.00,0.0188
991.00,0.0187
990.00,0.0185
989.00,0.0184
988.00,0.0182
987.00,0.0181
986.00,0.0180
985.00,0.0178
984.00,0.0177
983.00,0.0176
982.00,0.0175
981.00,0.0174
980.00,0.0173
979.00,0.0173
978.00,0.0172
977.00,0.0171
976.00,0.0171
975.00,0.0171
974.00,0.0171
973.00,0.0171
972.00,0.0171
971.00,0.0171
970.00,0.0171
969.00,0.0171
968.00,0.0172
967.00,0.0172
966.00,0.0173
965.00,0.0174
964.00,0.0175
963.00,0.0175
962.00,0.0175
961.00,0.0174
960.00,0.0173
959.00,0.0172
958.00,0.0171
957.00,0.0169
956.00,0.0168
955.00,0.0166
954.00,0.0165
953.00,0.0163
952.00,0.0162
951.00,0.0161
950.00,0.0161
949.00,0.0160
948.00,0.0160
947.00,0.0159
946.00,0.0159
945.00,0.0158
944.00,0.0158
943.00,0.0158
942.00,0.0158
941.00,0.0158
940.00,0.0158
939.00,0.0158
938.00,0.0159
937.00,0.0159
936.00,0.0160
935.00,0.0160
934.00,0.0161
933.00,0.0161
932.00,0.0161
931.00,0.0161
930.00,0.0161
929.00,0.0161
928.00,0.0161
927.00,0.0160
926.00,0.0159
925.00,0.0158
924.00,0.0157
923.00,0.0156
922.00,0.0155
921.00,0.0153
920.00,0.0152
919.00,0.0151
918.00,0.0150
917.00,0.0149
916.00,0.0148
915.00,0.0147
914.00,0.0147
913.00,0.0146
912.00,0.0146
911.00,0.0146
910.00,0.0146
909.00,0.0146
908.00,0.0146
907.00,0.0147
906.00,0.0147
905.00,0.0148
904.00,0.0149
903.00,0.0149
902.00,0.0149
901.00,0.0150
900.00,0.0150
899.00,0.0150
898.00,0.0149
897.00,0.0149
896.00,0.0149
895.00,0.0148
894.00,0.0148
893.00,0.0147
892.00,0.0146
891.00,0.0146
890.00,0.0145
889.00,0.0144
888.00,0.0143
887.00,0.0142
886.00,0.0142
885.00,0.0141
884.00,0.0141
883.00,0.0141
882.00,0.0141
881.00,0.0141
880.00,0.0141
879.00,0.0141
878.00,0.0141
877.00,0.0140
876.00,0.0140
875.00,0.0140
874.00,0.0141
873.00,0.0141
872.00,0.0141
871.00,0.0140
870.00,0.0140
869.00,0.0139
868.00,0.0138
867.00,0.0137
866.00,0.0135
865.00,0.0134
864.00,0.0132
863.00,0.0131
862.00,0.0131
861.00,0.0131
860.00,0.0130
859.00,0.0130
858.00,0.0130
857.00,0.0130
856.00,0.0130
855.00,0.0131
854.00,0.0131
853.00,0.0132
852.00,0.0132
851.00,0.0132
850.00,0.0133
849.00,0.0133
848.00,0.0133
847.00,0.0133
846.00,0.0133
845.00,0.0133
844.00,0.0133
843.00,0.0134
842.00,0.0134
841.00,0.0134
840.00,0.0135
839.00,0.0136
838.00,0.0137
837.00,0.0137
836.00,0.0138
835.00,0.0140
834.00,0.0141
833.00,0.0142
832.00,0.0144
831.00,0.0146
830.00,0.0147
829.00,0.0148
828.00,0.0149
827.00,0.0150
826.00,0.0152
825.00,0.0153
824.00,0.0153
823.00,0.0154
822.00,0.0155
821.00,0.0156
820.00,0.0157
819.00,0.0158
818.00,0.0159
817.00,0.0161
816.00,0.0162
815.00,0.0164
814.00,0.0165
813.00,0.0166
812.00,0.0168
811.00,0.0169
810.00,0.0170
809.00,0.0172
808.00,0.0173
807.00,0.0174
806.00,0.0175
805.00,0.0177
804.00,0.0178
803.00,0.0179
802.00,0.0179
801.00,0.0180
800.00,0.0181
799.00,0.0181
798.00,0.0182
797.00,0.0183
796.00,0.0183
795.00,0.0184
794.00,0.0185
793.00,0.0186
792.00,0.0188
791.00,0.0189
790.00,0.0190
789.00,0.0191
788.00,0.0193
787.00,0.0194
786.00,0.0196
785.00,0.0197
784.00,0.0199
783.00,0.0201
782.00,0.0203
781.00,0.0205
780.00,0.0206
779.00,0.0208
778.00,0.0210
777.00,0.0212
776.00,0.0214
775.00,0.0216
774.00,0.0217
773.00,0.0219
772.00,0.0221
771.00,0.0223
770.00,0.0225
769.00,0.0227
768.00,0.0228
767.00,0.0230
766.00,0.0231
765.00,0.0233
764.00,0.0234
763.00,0.0236
762.00,0.0237
761.00,0.0239
760.00,0.0240
759.00,0.0242
758.00,0.0243
757.00,0.0245
756.00,0.0246
755.00,0.0248
754.00,0.0249
753.00,0.0251
752.00,0.0253
751.00,0.0255
750.00,0.0257
749.00,0.0259
748.00,0.0260
747.00,0.0261
746.00,0.0261
745.00,0.0261
744.00,0.0262
743.00,0.0262
742.00,0.0262
741.00,0.0263
740.00,0.0264
739.00,0.0265
738.00,0.0266
737.00,0.0268
736.00,0.0269
735.00,0.0271
734.00,0.0273
733.00,0.0275
732.00,0.0278
731.00,0.0282
730.00,0.0286
729.00,0.0291
728.00,0.0296
727.00,0.0301
726.00,0.0306
725.00,0.0311
724.00,0.0316
723.00,0.0320
722.00,0.0324
721.00,0.0328
720.00,0.0332
719.00,0.0336
718.00,0.0340
717.00,0.0344
716.00,0.0348
715.00,0.0352
714.00,0.0356
713.00,0.0360
712.00,0.0364
711.00,0.0369
710.00,0.0374
709.00,0.0380
708.00,0.0385
707.00,0.0391
706.00,0.0397
705.00,0.0403
704.00,0.0409
703.00,0.0415
702.00,0.0420
701.00,0.0424
700.00,0.0427
699.00,0.0429
698.00,0.0430
697.00,0.0431
696.00,0.0431
695.00,0.0431
694.00,0.0431
693.00,0.0430
692.00,0.0430
691.00,0.0430
690.00,0.0430
689.00,0.0430
688.00,0.0431
687.00,0.0432
686.00,0.0433
685.00,0.0434
684.00,0.0435
683.00,0.0436
682.00,0.0437
681.00,0.0438
680.00,0.0439
679.00,0.0441
678.00,0.0442
677.00,0.0443
676.00,0.0444
675.00,0.0445
674.00,0.0446
673.00,0.0448
672.00,0.0449
671.00,0.0451
670.00,0.0452
669.00,0.0452
668.00,0.0453
667.00,0.0454
666.00,0.0455
665.00,0.0456
664.00,0.0458
663.00,0.0459
662.00,0.0460
661.00,0.0461
660.00,0.0462
659.00,0.0463
658.00,0.0464
657.00,0.0465
656.00,0.0467
655.00,0.0468
654.00,0.0469
653.00,0.0470
652.00,0.0471
651.00,0.0472
650.00,0.0473
649.00,0.0474
648.00,0.0476
647.00,0.0478
646.00,0.0480
645.00,0.0482
644.00,0.0484
643.00,0.0486
642.00,0.0487
641.00,0.0489
640.00,0.0491
639.00,0.0493
638.00,0.0496
637.00,0.0498
636.00,0.0500
635.00,0.0502
634.00,0.0504
633.00,0.0505
632.00,0.0507
631.00,0.0509
630.00,0.0510
629.00,0.0511
628.00,0.0512
627.00,0.0513
626.00,0.0514
625.00,0.0515
624.00,0.0516
623.00,0.0517
622.00,0.0518
621.00,0.0518
620.00,0.0518
619.00,0.0518
618.00,0.0517
617.00,0.0517
616.00,0.0517
615.00,0.0517
614.00,0.0516
613.00,0.0516
612.00,0.0515
611.00,0.0515
610.00,0.0515
609.00,0.0514
608.00,0.0514
607.00,0.0514
606.00,0.0513
605.00,0.0513
604.00,0.0513
603.00,0.0514
602.00,0.0514
601.00,0.0514
600.00,0.0515
599.00,0.0515
598.00,0.0515
597.00,0.0515
596.00,0.0516
595.00,0.0517
594.00,0.0517
593.00,0.0518
592.00,0.0518
591.00,0.0519
590.00,0.0519
589.00,0.0520
588.00,0.0521
587.00,0.0522
586.00,0.0523
585.00,0.0524
584.00,0.0525
583.00,0.0526
582.00,0.0527
581.00,0.0528
580.00,0.0529
579.00,0.0531
578.00,0.0531
577.00,0.0532
576.00,0.0533
575.00,0.0534
574.00,0.0535
573.00,0.0536
572.00,0.0537
571.00,0.0537
570.00,0.0537
569.00,0.0537
568.00,0.0538
567.00,0.0539
566.00,0.0539
565.00,0.0539
564.00,0.0539
563.00,0.0540
562.00,0.0541
561.00,0.0542
560.00,0.0543
559.00,0.0544
558.00,0.0544
557.00,0.0545
556.00,0.0546
555.00,0.0546
554.00,0.0547
553.00,0.0548
552.00,0.0549
551.00,0.0550
550.00,0.0551
549.00,0.0551
548.00,0.0551
547.00,0.0552
546.00,0.0552
545.00,0.0552
544.00,0.0552
543.00,0.0552
542.00,0.0553
541.00,0.0554
540.00,0.0555
539.00,0.0556
538.00,0.0557
537.00,0.0557
536.00,0.0558
535.00,0.0559
534.00,0.0559
533.00,0.0560
532.00,0.0561
531.00,0.0562
530.00,0.0563
529.00,0.0564
528.00,0.0565
527.00,0.0566
526.00,0.0567
525.00,0.0568
524.00,0.0569
523.00,0.0571
522.00,0.0572
521.00,0.0572
520.00,0.0572
519.00,0.0571
518.00,0.0571
517.00,0.0570
516.00,0.0570
515.00,0.0570
514.00,0.0569
513.00,0.0568
512.00,0.0567
511.00,0.0566
510.00,0.0565
509.00,0.0565
508.00,0.0565
507.00,0.0563
506.00,0.0562
505.00,0.0560
504.00,0.0559
503.00,0.0558
502.00,0.0556
501.00,0.0555
500.00,0.0554
499.00,0.0554
498.00,0.0554
497.00,0.0553
496.00,0.0553
495.00,0.0553
494.00,0.0553
493.00,0.0552
492.00,0.0553
491.00,0.0554
490.00,0.0554
489.00,0.0553
488.00,0.0552
487.00,0.0551
486.00,0.0551
485.00,0.0551
484.00,0.0551
483.00,0.0550
482.00,0.0549
481.00,0.0548
480.00,0.0549
479.00,0.0550
478.00,0.0549
477.00,0.0548
476.00,0.0548
475.00,0.0548
474.00,0.0547
473.00,0.0547
472.00,0.0547
471.00,0.0549
470.00,0.0550
469.00,0.0552
468.00,0.0553
467.00,0.0553
466.00,0.0552
465.00,0.0551
464.00,0.0551
463.00,0.0550
462.00,0.0547
461.00,0.0545
460.00,0.0544
459.00,0.0544
458.00,0.0544
457.00,0.0544
456.00,0.0544
455.00,0.0543
454.00,0.0541
453.00,0.0539
452.00,0.0539
451.00,0.0538
450.00,0.0535
449.00,0.0532
448.00,0.0530
447.00,0.0529
446.00,0.0526
445.00,0.0523
444.00,0.0519
443.00,0.0514
442.00,0.0510
441.00,0.0507
440.00,0.0506
439.00,0.0505
438.00,0.0503
437.00,0.0501
436.00,0.0499
435.00,0.0497
434.00,0.0493
433.00,0.0490
432.00,0.0489
431.00,0.0487
430.00,0.0485
429.00,0.0482
428.00,0.0479
427.00,0.0476
426.00,0.0474
425.00,0.0473
424.00,0.0472
423.00,0.0472
422.00,0.0471
421.00,0.0471
420.00,0.0473
419.00,0.0475
418.00,0.0473
417.00,0.0471
416.00,0.0472
415.00,0.0472
414.00,0.0471
413.00,0.0469
412.00,0.0467
411.00,0.0463
410.00,0.0459
409.00,0.0455
408.00,0.0453
407.00,0.0451
406.00,0.0447
405.00,0.0444
404.00,0.0442
403.00,0.0440
402.00,0.0436
401.00,0.0433
400.00,0.0434
