Created as New Dataset,Sample 361 By YargerLab Date Wednesday, September 25 2024
cm-1,A
4000.00,0.0047
3999.00,0.0047
3998.00,0.0047
3997.00,0.0047
3996.00,0.0047
3995.00,0.0047
3994.00,0.0047
3993.00,0.0047
3992.00,0.0046
3991.00,0.0046
3990.00,0.0046
3989.00,0.0046
3988.00,0.0046
3987.00,0.0046
3986.00,0.0046
3985.00,0.0047
3984.00,0.0047
3983.00,0.0047
3982.00,0.0047
3981.00,0.0047
3980.00,0.0046
3979.00,0.0046
3978.00,0.0046
3977.00,0.0045
3976.00,0.0046
3975.00,0.0046
3974.00,0.0046
3973.00,0.0046
3972.00,0.0046
3971.00,0.0046
3970.00,0.0046
3969.00,0.0046
3968.00,0.0046
3967.00,0.0046
3966.00,0.0045
3965.00,0.0045
3964.00,0.0045
3963.00,0.0045
3962.00,0.0045
3961.00,0.0045
3960.00,0.0045
3959.00,0.0045
3958.00,0.0046
3957.00,0.0046
3956.00,0.0046
3955.00,0.0046
3954.00,0.0046
3953.00,0.0046
3952.00,0.0045
3951.00,0.0044
3950.00,0.0043
3949.00,0.0041
3948.00,0.0039
3947.00,0.0038
3946.00,0.0038
3945.00,0.0040
3944.00,0.0041
3943.00,0.0043
3942.00,0.0044
3941.00,0.0044
3940.00,0.0043
3939.00,0.0042
3938.00,0.0042
3937.00,0.0042
3936.00,0.0041
3935.00,0.0039
3934.00,0.0037
3933.00,0.0036
3932.00,0.0037
3931.00,0.0039
3930.00,0.0040
3929.00,0.0040
3928.00,0.0041
3927.00,0.0043
3926.00,0.0044
3925.00,0.0045
3924.00,0.0044
3923.00,0.0042
3922.00,0.0038
3921.00,0.0035
3920.00,0.0033
3919.00,0.0032
3918.00,0.0031
3917.00,0.0033
3916.00,0.0035
3915.00,0.0038
3914.00,0.0040
3913.00,0.0042
3912.00,0.0043
3911.00,0.0044
3910.00,0.0044
3909.00,0.0044
3908.00,0.0044
3907.00,0.0043
3906.00,0.0040
3905.00,0.0035
3904.00,0.0027
3903.00,0.0020
3902.00,0.0016
3901.00,0.0016
3900.00,0.0020
3899.00,0.0026
3898.00,0.0030
3897.00,0.0031
3896.00,0.0032
3895.00,0.0033
3894.00,0.0035
3893.00,0.0037
3892.00,0.0038
3891.00,0.0037
3890.00,0.0035
3889.00,0.0032
3888.00,0.0027
3887.00,0.0024
3886.00,0.0025
3885.00,0.0028
3884.00,0.0030
3883.00,0.0029
3882.00,0.0028
3881.00,0.0029
3880.00,0.0030
3879.00,0.0031
3878.00,0.0030
3877.00,0.0028
3876.00,0.0028
3875.00,0.0030
3874.00,0.0033
3873.00,0.0033
3872.00,0.0028
3871.00,0.0022
3870.00,0.0020
3869.00,0.0022
3868.00,0.0022
3867.00,0.0020
3866.00,0.0018
3865.00,0.0020
3864.00,0.0024
3863.00,0.0024
3862.00,0.0022
3861.00,0.0021
3860.00,0.0021
3859.00,0.0026
3858.00,0.0033
3857.00,0.0040
3856.00,0.0044
3855.00,0.0042
3854.00,0.0038
3853.00,0.0032
3852.00,0.0027
3851.00,0.0024
3850.00,0.0022
3849.00,0.0021
3848.00,0.0022
3847.00,0.0024
3846.00,0.0025
3845.00,0.0026
3844.00,0.0026
3843.00,0.0025
3842.00,0.0023
3841.00,0.0022
3840.00,0.0021
3839.00,0.0021
3838.00,0.0021
3837.00,0.0022
3836.00,0.0023
3835.00,0.0024
3834.00,0.0023
3833.00,0.0023
3832.00,0.0023
3831.00,0.0024
3830.00,0.0025
3829.00,0.0026
3828.00,0.0026
3827.00,0.0027
3826.00,0.0028
3825.00,0.0027
3824.00,0.0023
3823.00,0.0019
3822.00,0.0018
3821.00,0.0021
3820.00,0.0023
3819.00,0.0022
3818.00,0.0019
3817.00,0.0017
3816.00,0.0021
3815.00,0.0028
3814.00,0.0032
3813.00,0.0033
3812.00,0.0033
3811.00,0.0034
3810.00,0.0035
3809.00,0.0034
3808.00,0.0031
3807.00,0.0029
3806.00,0.0027
3805.00,0.0025
3804.00,0.0021
3803.00,0.0019
3802.00,0.0021
3801.00,0.0024
3800.00,0.0026
3799.00,0.0025
3798.00,0.0022
3797.00,0.0023
3796.00,0.0026
3795.00,0.0030
3794.00,0.0033
3793.00,0.0036
3792.00,0.0038
3791.00,0.0041
3790.00,0.0042
3789.00,0.0043
3788.00,0.0042
3787.00,0.0042
3786.00,0.0042
3785.00,0.0041
3784.00,0.0040
3783.00,0.0039
3782.00,0.0036
3781.00,0.0035
3780.00,0.0036
3779.00,0.0037
3778.00,0.0038
3777.00,0.0037
3776.00,0.0037
3775.00,0.0037
3774.00,0.0038
3773.00,0.0037
3772.00,0.0035
3771.00,0.0032
3770.00,0.0030
3769.00,0.0029
3768.00,0.0027
3767.00,0.0026
3766.00,0.0025
3765.00,0.0027
3764.00,0.0028
3763.00,0.0027
3762.00,0.0025
3761.00,0.0024
3760.00,0.0024
3759.00,0.0024
3758.00,0.0023
3757.00,0.0021
3756.00,0.0019
3755.00,0.0016
3754.00,0.0012
3753.00,0.0008
3752.00,0.0005
3751.00,-0.0000
3750.00,-0.0005
3749.00,-0.0006
3748.00,-0.0004
3747.00,-0.0003
3746.00,-0.0004
3745.00,-0.0003
3744.00,0.0001
3743.00,0.0005
3742.00,0.0004
3741.00,-0.0000
3740.00,-0.0005
3739.00,-0.0009
3738.00,-0.0012
3737.00,-0.0013
3736.00,-0.0010
3735.00,-0.0006
3734.00,-0.0004
3733.00,-0.0003
3732.00,0.0000
3731.00,0.0006
3730.00,0.0011
3729.00,0.0012
3728.00,0.0012
3727.00,0.0013
3726.00,0.0015
3725.00,0.0017
3724.00,0.0018
3723.00,0.0019
3722.00,0.0021
3721.00,0.0023
3720.00,0.0025
3719.00,0.0026
3718.00,0.0026
3717.00,0.0027
3716.00,0.0026
3715.00,0.0024
3714.00,0.0021
3713.00,0.0019
3712.00,0.0019
3711.00,0.0019
3710.00,0.0019
3709.00,0.0018
3708.00,0.0020
3707.00,0.0022
3706.00,0.0025
3705.00,0.0028
3704.00,0.0030
3703.00,0.0033
3702.00,0.0035
3701.00,0.0036
3700.00,0.0036
3699.00,0.0035
3698.00,0.0034
3697.00,0.0034
3696.00,0.0035
3695.00,0.0034
3694.00,0.0033
3693.00,0.0031
3692.00,0.0031
3691.00,0.0032
3690.00,0.0029
3689.00,0.0024
3688.00,0.0021
3687.00,0.0022
3686.00,0.0024
3685.00,0.0026
3684.00,0.0027
3683.00,0.0028
3682.00,0.0029
3681.00,0.0029
3680.00,0.0030
3679.00,0.0030
3678.00,0.0026
3677.00,0.0020
3676.00,0.0018
3675.00,0.0019
3674.00,0.0019
3673.00,0.0017
3672.00,0.0014
3671.00,0.0015
3670.00,0.0022
3669.00,0.0028
3668.00,0.0031
3667.00,0.0033
3666.00,0.0035
3665.00,0.0038
3664.00,0.0041
3663.00,0.0044
3662.00,0.0046
3661.00,0.0047
3660.00,0.0047
3659.00,0.0045
3658.00,0.0042
3657.00,0.0040
3656.00,0.0038
3655.00,0.0036
3654.00,0.0032
3653.00,0.0026
3652.00,0.0020
3651.00,0.0016
3650.00,0.0014
3649.00,0.0011
3648.00,0.0011
3647.00,0.0014
3646.00,0.0019
3645.00,0.0025
3644.00,0.0029
3643.00,0.0034
3642.00,0.0039
3641.00,0.0042
3640.00,0.0044
3639.00,0.0045
3638.00,0.0045
3637.00,0.0044
3636.00,0.0042
3635.00,0.0039
3634.00,0.0038
3633.00,0.0036
3632.00,0.0033
3631.00,0.0027
3630.00,0.0022
3629.00,0.0022
3628.00,0.0022
3627.00,0.0022
3626.00,0.0023
3625.00,0.0024
3624.00,0.0026
3623.00,0.0029
3622.00,0.0031
3621.00,0.0033
3620.00,0.0034
3619.00,0.0034
3618.00,0.0031
3617.00,0.0027
3616.00,0.0023
3615.00,0.0021
3614.00,0.0021
3613.00,0.0022
3612.00,0.0021
3611.00,0.0019
3610.00,0.0018
3609.00,0.0020
3608.00,0.0026
3607.00,0.0031
3606.00,0.0035
3605.00,0.0037
3604.00,0.0038
3603.00,0.0040
3602.00,0.0042
3601.00,0.0043
3600.00,0.0043
3599.00,0.0043
3598.00,0.0041
3597.00,0.0041
3596.00,0.0041
3595.00,0.0042
3594.00,0.0043
3593.00,0.0042
3592.00,0.0040
3591.00,0.0037
3590.00,0.0034
3589.00,0.0034
3588.00,0.0037
3587.00,0.0040
3586.00,0.0042
3585.00,0.0042
3584.00,0.0044
3583.00,0.0046
3582.00,0.0050
3581.00,0.0053
3580.00,0.0056
3579.00,0.0058
3578.00,0.0059
3577.00,0.0060
3576.00,0.0060
3575.00,0.0060
3574.00,0.0059
3573.00,0.0058
3572.00,0.0056
3571.00,0.0053
3570.00,0.0049
3569.00,0.0046
3568.00,0.0045
3567.00,0.0046
3566.00,0.0047
3565.00,0.0049
3564.00,0.0050
3563.00,0.0052
3562.00,0.0055
3561.00,0.0059
3560.00,0.0062
3559.00,0.0064
3558.00,0.0066
3557.00,0.0066
3556.00,0.0067
3555.00,0.0067
3554.00,0.0068
3553.00,0.0068
3552.00,0.0068
3551.00,0.0066
3550.00,0.0064
3549.00,0.0062
3548.00,0.0060
3547.00,0.0060
3546.00,0.0062
3545.00,0.0064
3544.00,0.0066
3543.00,0.0068
3542.00,0.0070
3541.00,0.0072
3540.00,0.0074
3539.00,0.0075
3538.00,0.0077
3537.00,0.0078
3536.00,0.0079
3535.00,0.0079
3534.00,0.0079
3533.00,0.0078
3532.00,0.0078
3531.00,0.0079
3530.00,0.0079
3529.00,0.0078
3528.00,0.0077
3527.00,0.0076
3526.00,0.0074
3525.00,0.0074
3524.00,0.0076
3523.00,0.0078
3522.00,0.0080
3521.00,0.0082
3520.00,0.0083
3519.00,0.0085
3518.00,0.0086
3517.00,0.0087
3516.00,0.0088
3515.00,0.0088
3514.00,0.0089
3513.00,0.0089
3512.00,0.0089
3511.00,0.0089
3510.00,0.0090
3509.00,0.0090
3508.00,0.0090
3507.00,0.0089
3506.00,0.0088
3505.00,0.0088
3504.00,0.0089
3503.00,0.0090
3502.00,0.0090
3501.00,0.0091
3500.00,0.0091
3499.00,0.0092
3498.00,0.0094
3497.00,0.0095
3496.00,0.0097
3495.00,0.0098
3494.00,0.0099
3493.00,0.0099
3492.00,0.0100
3491.00,0.0100
3490.00,0.0101
3489.00,0.0101
3488.00,0.0101
3487.00,0.0102
3486.00,0.0102
3485.00,0.0103
3484.00,0.0103
3483.00,0.0104
3482.00,0.0105
3481.00,0.0105
3480.00,0.0105
3479.00,0.0106
3478.00,0.0107
3477.00,0.0109
3476.00,0.0110
3475.00,0.0111
3474.00,0.0112
3473.00,0.0112
3472.00,0.0113
3471.00,0.0113
3470.00,0.0113
3469.00,0.0113
3468.00,0.0114
3467.00,0.0115
3466.00,0.0115
3465.00,0.0116
3464.00,0.0117
3463.00,0.0118
3462.00,0.0119
3461.00,0.0120
3460.00,0.0120
3459.00,0.0121
3458.00,0.0122
3457.00,0.0123
3456.00,0.0124
3455.00,0.0125
3454.00,0.0125
3453.00,0.0126
3452.00,0.0126
3451.00,0.0126
3450.00,0.0126
3449.00,0.0126
3448.00,0.0127
3447.00,0.0127
3446.00,0.0128
3445.00,0.0128
3444.00,0.0128
3443.00,0.0129
3442.00,0.0130
3441.00,0.0131
3440.00,0.0132
3439.00,0.0132
3438.00,0.0133
3437.00,0.0133
3436.00,0.0134
3435.00,0.0135
3434.00,0.0136
3433.00,0.0136
3432.00,0.0137
3431.00,0.0138
3430.00,0.0139
3429.00,0.0139
3428.00,0.0140
3427.00,0.0141
3426.00,0.0141
3425.00,0.0142
3424.00,0.0142
3423.00,0.0143
3422.00,0.0143
3421.00,0.0144
3420.00,0.0145
3419.00,0.0145
3418.00,0.0146
3417.00,0.0147
3416.00,0.0147
3415.00,0.0148
3414.00,0.0149
3413.00,0.0149
3412.00,0.0150
3411.00,0.0150
3410.00,0.0151
3409.00,0.0152
3408.00,0.0153
3407.00,0.0154
3406.00,0.0154
3405.00,0.0155
3404.00,0.0155
3403.00,0.0156
3402.00,0.0156
3401.00,0.0157
3400.00,0.0157
3399.00,0.0158
3398.00,0.0158
3397.00,0.0159
3396.00,0.0159
3395.00,0.0160
3394.00,0.0160
3393.00,0.0161
3392.00,0.0162
3391.00,0.0163
3390.00,0.0163
3389.00,0.0165
3388.00,0.0166
3387.00,0.0167
3386.00,0.0168
3385.00,0.0169
3384.00,0.0170
3383.00,0.0170
3382.00,0.0170
3381.00,0.0171
3380.00,0.0172
3379.00,0.0172
3378.00,0.0173
3377.00,0.0174
3376.00,0.0175
3375.00,0.0176
3374.00,0.0177
3373.00,0.0177
3372.00,0.0178
3371.00,0.0178
3370.00,0.0179
3369.00,0.0180
3368.00,0.0181
3367.00,0.0182
3366.00,0.0183
3365.00,0.0185
3364.00,0.0186
3363.00,0.0187
3362.00,0.0188
3361.00,0.0189
3360.00,0.0190
3359.00,0.0192
3358.00,0.0194
3357.00,0.0195
3356.00,0.0196
3355.00,0.0197
3354.00,0.0198
3353.00,0.0199
3352.00,0.0200
3351.00,0.0201
3350.00,0.0203
3349.00,0.0204
3348.00,0.0206
3347.00,0.0207
3346.00,0.0208
3345.00,0.0209
3344.00,0.0210
3343.00,0.0212
3342.00,0.0213
3341.00,0.0214
3340.00,0.0215
3339.00,0.0216
3338.00,0.0218
3337.00,0.0220
3336.00,0.0222
3335.00,0.0224
3334.00,0.0226
3333.00,0.0227
3332.00,0.0229
3331.00,0.0231
3330.00,0.0232
3329.00,0.0233
3328.00,0.0234
3327.00,0.0235
3326.00,0.0237
3325.00,0.0239
3324.00,0.0241
3323.00,0.0243
3322.00,0.0245
3321.00,0.0247
3320.00,0.0249
3319.00,0.0251
3318.00,0.0253
3317.00,0.0255
3316.00,0.0256
3315.00,0.0258
3314.00,0.0259
3313.00,0.0261
3312.00,0.0262
3311.00,0.0263
3310.00,0.0264
3309.00,0.0266
3308.00,0.0268
3307.00,0.0270
3306.00,0.0272
3305.00,0.0275
3304.00,0.0277
3303.00,0.0280
3302.00,0.0282
3301.00,0.0285
3300.00,0.0287
3299.00,0.0288
3298.00,0.0289
3297.00,0.0290
3296.00,0.0292
3295.00,0.0293
3294.00,0.0295
3293.00,0.0297
3292.00,0.0300
3291.00,0.0302
3290.00,0.0305
3289.00,0.0307
3288.00,0.0309
3287.00,0.0311
3286.00,0.0313
3285.00,0.0314
3284.00,0.0315
3283.00,0.0316
3282.00,0.0317
3281.00,0.0318
3280.00,0.0318
3279.00,0.0319
3278.00,0.0319
3277.00,0.0318
3276.00,0.0318
3275.00,0.0318
3274.00,0.0318
3273.00,0.0317
3272.00,0.0317
3271.00,0.0317
3270.00,0.0317
3269.00,0.0318
3268.00,0.0318
3267.00,0.0317
3266.00,0.0317
3265.00,0.0316
3264.00,0.0315
3263.00,0.0314
3262.00,0.0312
3261.00,0.0311
3260.00,0.0309
3259.00,0.0307
3258.00,0.0305
3257.00,0.0302
3256.00,0.0300
3255.00,0.0299
3254.00,0.0298
3253.00,0.0297
3252.00,0.0296
3251.00,0.0294
3250.00,0.0292
3249.00,0.0290
3248.00,0.0287
3247.00,0.0285
3246.00,0.0284
3245.00,0.0283
3244.00,0.0282
3243.00,0.0281
3242.00,0.0280
3241.00,0.0279
3240.00,0.0278
3239.00,0.0277
3238.00,0.0275
3237.00,0.0273
3236.00,0.0271
3235.00,0.0269
3234.00,0.0268
3233.00,0.0267
3232.00,0.0266
3231.00,0.0266
3230.00,0.0266
3229.00,0.0265
3228.00,0.0265
3227.00,0.0264
3226.00,0.0263
3225.00,0.0262
3224.00,0.0261
3223.00,0.0260
3222.00,0.0259
3221.00,0.0257
3220.00,0.0256
3219.00,0.0255
3218.00,0.0255
3217.00,0.0254
3216.00,0.0253
3215.00,0.0252
3214.00,0.0252
3213.00,0.0251
3212.00,0.0251
3211.00,0.0250
3210.00,0.0249
3209.00,0.0249
3208.00,0.0248
3207.00,0.0247
3206.00,0.0247
3205.00,0.0246
3204.00,0.0246
3203.00,0.0245
3202.00,0.0244
3201.00,0.0243
3200.00,0.0242
3199.00,0.0241
3198.00,0.0240
3197.00,0.0240
3196.00,0.0239
3195.00,0.0238
3194.00,0.0237
3193.00,0.0236
3192.00,0.0235
3191.00,0.0235
3190.00,0.0234
3189.00,0.0233
3188.00,0.0232
3187.00,0.0231
3186.00,0.0230
3185.00,0.0229
3184.00,0.0228
3183.00,0.0227
3182.00,0.0226
3181.00,0.0225
3180.00,0.0224
3179.00,0.0223
3178.00,0.0222
3177.00,0.0221
3176.00,0.0220
3175.00,0.0219
3174.00,0.0218
3173.00,0.0217
3172.00,0.0216
3171.00,0.0215
3170.00,0.0214
3169.00,0.0213
3168.00,0.0212
3167.00,0.0211
3166.00,0.0210
3165.00,0.0209
3164.00,0.0208
3163.00,0.0207
3162.00,0.0206
3161.00,0.0205
3160.00,0.0204
3159.00,0.0203
3158.00,0.0202
3157.00,0.0200
3156.00,0.0199
3155.00,0.0197
3154.00,0.0196
3153.00,0.0195
3152.00,0.0194
3151.00,0.0194
3150.00,0.0193
3149.00,0.0193
3148.00,0.0193
3147.00,0.0192
3146.00,0.0191
3145.00,0.0191
3144.00,0.0190
3143.00,0.0189
3142.00,0.0188
3141.00,0.0186
3140.00,0.0185
3139.00,0.0185
3138.00,0.0184
3137.00,0.0184
3136.00,0.0184
3135.00,0.0183
3134.00,0.0183
3133.00,0.0182
3132.00,0.0181
3131.00,0.0180
3130.00,0.0180
3129.00,0.0180
3128.00,0.0180
3127.00,0.0179
3126.00,0.0179
3125.00,0.0178
3124.00,0.0177
3123.00,0.0176
3122.00,0.0175
3121.00,0.0174
3120.00,0.0174
3119.00,0.0173
3118.00,0.0173
3117.00,0.0173
3116.00,0.0173
3115.00,0.0173
3114.00,0.0174
3113.00,0.0174
3112.00,0.0174
3111.00,0.0174
3110.00,0.0174
3109.00,0.0174
3108.00,0.0175
3107.00,0.0175
3106.00,0.0176
3105.00,0.0176
3104.00,0.0176
3103.00,0.0175
3102.00,0.0175
3101.00,0.0174
3100.00,0.0175
3099.00,0.0175
3098.00,0.0176
3097.00,0.0177
3096.00,0.0177
3095.00,0.0178
3094.00,0.0178
3093.00,0.0178
3092.00,0.0177
3091.00,0.0177
3090.00,0.0178
3089.00,0.0178
3088.00,0.0178
3087.00,0.0178
3086.00,0.0178
3085.00,0.0179
3084.00,0.0179
3083.00,0.0179
3082.00,0.0179
3081.00,0.0179
3080.00,0.0179
3079.00,0.0179
3078.00,0.0180
3077.00,0.0181
3076.00,0.0182
3075.00,0.0183
3074.00,0.0183
3073.00,0.0184
3072.00,0.0184
3071.00,0.0183
3070.00,0.0183
3069.00,0.0182
3068.00,0.0182
3067.00,0.0182
3066.00,0.0182
3065.00,0.0182
3064.00,0.0182
3063.00,0.0183
3062.00,0.0183
3061.00,0.0183
3060.00,0.0183
3059.00,0.0182
3058.00,0.0181
3057.00,0.0180
3056.00,0.0180
3055.00,0.0179
3054.00,0.0179
3053.00,0.0178
3052.00,0.0177
3051.00,0.0177
3050.00,0.0177
3049.00,0.0176
3048.00,0.0176
3047.00,0.0175
3046.00,0.0174
3045.00,0.0173
3044.00,0.0172
3043.00,0.0171
3042.00,0.0171
3041.00,0.0171
3040.00,0.0171
3039.00,0.0171
3038.00,0.0170
3037.00,0.0169
3036.00,0.0167
3035.00,0.0166
3034.00,0.0165
3033.00,0.0165
3032.00,0.0165
3031.00,0.0165
3030.00,0.0165
3029.00,0.0165
3028.00,0.0165
3027.00,0.0164
3026.00,0.0163
3025.00,0.0163
3024.00,0.0162
3023.00,0.0162
3022.00,0.0161
3021.00,0.0160
3020.00,0.0159
3019.00,0.0159
3018.00,0.0158
3017.00,0.0158
3016.00,0.0158
3015.00,0.0158
3014.00,0.0158
3013.00,0.0159
3012.00,0.0160
3011.00,0.0162
3010.00,0.0164
3009.00,0.0166
3008.00,0.0169
3007.00,0.0171
3006.00,0.0173
3005.00,0.0175
3004.00,0.0177
3003.00,0.0180
3002.00,0.0182
3001.00,0.0184
3000.00,0.0186
2999.00,0.0188
2998.00,0.0190
2997.00,0.0192
2996.00,0.0194
2995.00,0.0195
2994.00,0.0197
2993.00,0.0199
2992.00,0.0201
2991.00,0.0203
2990.00,0.0206
2989.00,0.0208
2988.00,0.0211
2987.00,0.0214
2986.00,0.0218
2985.00,0.0225
2984.00,0.0232
2983.00,0.0240
2982.00,0.0246
2981.00,0.0248
2980.00,0.0248
2979.00,0.0245
2978.00,0.0243
2977.00,0.0240
2976.00,0.0238
2975.00,0.0238
2974.00,0.0239
2973.00,0.0241
2972.00,0.0243
2971.00,0.0244
2970.00,0.0242
2969.00,0.0240
2968.00,0.0237
2967.00,0.0234
2966.00,0.0232
2965.00,0.0230
2964.00,0.0227
2963.00,0.0225
2962.00,0.0223
2961.00,0.0220
2960.00,0.0218
2959.00,0.0216
2958.00,0.0214
2957.00,0.0213
2956.00,0.0211
2955.00,0.0209
2954.00,0.0207
2953.00,0.0206
2952.00,0.0206
2951.00,0.0205
2950.00,0.0205
2949.00,0.0204
2948.00,0.0203
2947.00,0.0202
2946.00,0.0201
2945.00,0.0201
2944.00,0.0200
2943.00,0.0201
2942.00,0.0201
2941.00,0.0202
2940.00,0.0202
2939.00,0.0202
2938.00,0.0202
2937.00,0.0201
2936.00,0.0200
2935.00,0.0199
2934.00,0.0197
2933.00,0.0195
2932.00,0.0192
2931.00,0.0189
2930.00,0.0185
2929.00,0.0181
2928.00,0.0176
2927.00,0.0170
2926.00,0.0164
2925.00,0.0156
2924.00,0.0147
2923.00,0.0136
2922.00,0.0125
2921.00,0.0113
2920.00,0.0100
2919.00,0.0087
2918.00,0.0077
2917.00,0.0071
2916.00,0.0071
2915.00,0.0077
2914.00,0.0088
2913.00,0.0102
2912.00,0.0116
2911.00,0.0128
2910.00,0.0137
2909.00,0.0144
2908.00,0.0150
2907.00,0.0153
2906.00,0.0156
2905.00,0.0158
2904.00,0.0159
2903.00,0.0160
2902.00,0.0161
2901.00,0.0161
2900.00,0.0162
2899.00,0.0162
2898.00,0.0162
2897.00,0.0163
2896.00,0.0163
2895.00,0.0164
2894.00,0.0166
2893.00,0.0167
2892.00,0.0168
2891.00,0.0170
2890.00,0.0171
2889.00,0.0172
2888.00,0.0172
2887.00,0.0173
2886.00,0.0174
2885.00,0.0175
2884.00,0.0176
2883.00,0.0176
2882.00,0.0176
2881.00,0.0176
2880.00,0.0175
2879.00,0.0175
2878.00,0.0174
2877.00,0.0174
2876.00,0.0173
2875.00,0.0172
2874.00,0.0172
2873.00,0.0171
2872.00,0.0171
2871.00,0.0171
2870.00,0.0170
2869.00,0.0169
2868.00,0.0168
2867.00,0.0166
2866.00,0.0164
2865.00,0.0162
2864.00,0.0160
2863.00,0.0157
2862.00,0.0155
2861.00,0.0152
2860.00,0.0149
2859.00,0.0146
2858.00,0.0143
2857.00,0.0139
2856.00,0.0134
2855.00,0.0128
2854.00,0.0119
2853.00,0.0108
2852.00,0.0094
2851.00,0.0081
2850.00,0.0070
2849.00,0.0065
2848.00,0.0067
2847.00,0.0077
2846.00,0.0089
2845.00,0.0102
2844.00,0.0112
2843.00,0.0120
2842.00,0.0125
2841.00,0.0128
2840.00,0.0130
2839.00,0.0131
2838.00,0.0132
2837.00,0.0133
2836.00,0.0133
2835.00,0.0134
2834.00,0.0134
2833.00,0.0135
2832.00,0.0135
2831.00,0.0135
2830.00,0.0135
2829.00,0.0135
2828.00,0.0135
2827.00,0.0135
2826.00,0.0135
2825.00,0.0134
2824.00,0.0134
2823.00,0.0134
2822.00,0.0134
2821.00,0.0134
2820.00,0.0134
2819.00,0.0134
2818.00,0.0134
2817.00,0.0133
2816.00,0.0133
2815.00,0.0133
2814.00,0.0132
2813.00,0.0132
2812.00,0.0132
2811.00,0.0131
2810.00,0.0131
2809.00,0.0131
2808.00,0.0131
2807.00,0.0131
2806.00,0.0131
2805.00,0.0131
2804.00,0.0130
2803.00,0.0130
2802.00,0.0129
2801.00,0.0129
2800.00,0.0129
2799.00,0.0128
2798.00,0.0128
2797.00,0.0128
2796.00,0.0128
2795.00,0.0128
2794.00,0.0128
2793.00,0.0128
2792.00,0.0127
2791.00,0.0127
2790.00,0.0126
2789.00,0.0126
2788.00,0.0126
2787.00,0.0127
2786.00,0.0127
2785.00,0.0127
2784.00,0.0127
2783.00,0.0126
2782.00,0.0126
2781.00,0.0126
2780.00,0.0126
2779.00,0.0126
2778.00,0.0125
2777.00,0.0124
2776.00,0.0124
2775.00,0.0124
2774.00,0.0123
2773.00,0.0124
2772.00,0.0124
2771.00,0.0124
2770.00,0.0124
2769.00,0.0123
2768.00,0.0123
2767.00,0.0123
2766.00,0.0123
2765.00,0.0123
2764.00,0.0122
2763.00,0.0122
2762.00,0.0122
2761.00,0.0122
2760.00,0.0122
2759.00,0.0121
2758.00,0.0121
2757.00,0.0121
2756.00,0.0121
2755.00,0.0120
2754.00,0.0120
2753.00,0.0120
2752.00,0.0119
2751.00,0.0119
2750.00,0.0119
2749.00,0.0118
2748.00,0.0118
2747.00,0.0118
2746.00,0.0118
2745.00,0.0119
2744.00,0.0119
2743.00,0.0118
2742.00,0.0118
2741.00,0.0118
2740.00,0.0118
2739.00,0.0118
2738.00,0.0117
2737.00,0.0117
2736.00,0.0117
2735.00,0.0117
2734.00,0.0117
2733.00,0.0117
2732.00,0.0116
2731.00,0.0116
2730.00,0.0116
2729.00,0.0115
2728.00,0.0115
2727.00,0.0115
2726.00,0.0114
2725.00,0.0114
2724.00,0.0114
2723.00,0.0114
2722.00,0.0114
2721.00,0.0114
2720.00,0.0114
2719.00,0.0114
2718.00,0.0113
2717.00,0.0113
2716.00,0.0113
2715.00,0.0113
2714.00,0.0113
2713.00,0.0112
2712.00,0.0112
2711.00,0.0112
2710.00,0.0112
2709.00,0.0112
2708.00,0.0112
2707.00,0.0111
2706.00,0.0111
2705.00,0.0111
2704.00,0.0111
2703.00,0.0111
2702.00,0.0111
2701.00,0.0111
2700.00,0.0111
2699.00,0.0110
2698.00,0.0110
2697.00,0.0110
2696.00,0.0110
2695.00,0.0110
2694.00,0.0110
2693.00,0.0110
2692.00,0.0110
2691.00,0.0110
2690.00,0.0110
2689.00,0.0109
2688.00,0.0109
2687.00,0.0109
2686.00,0.0109
2685.00,0.0109
2684.00,0.0109
2683.00,0.0108
2682.00,0.0108
2681.00,0.0108
2680.00,0.0108
2679.00,0.0108
2678.00,0.0108
2677.00,0.0108
2676.00,0.0108
2675.00,0.0108
2674.00,0.0108
2673.00,0.0108
2672.00,0.0108
2671.00,0.0108
2670.00,0.0108
2669.00,0.0107
2668.00,0.0107
2667.00,0.0107
2666.00,0.0107
2665.00,0.0107
2664.00,0.0107
2663.00,0.0107
2662.00,0.0107
2661.00,0.0107
2660.00,0.0106
2659.00,0.0106
2658.00,0.0106
2657.00,0.0106
2656.00,0.0106
2655.00,0.0106
2654.00,0.0105
2653.00,0.0105
2652.00,0.0106
2651.00,0.0106
2650.00,0.0106
2649.00,0.0106
2648.00,0.0106
2647.00,0.0106
2646.00,0.0106
2645.00,0.0106
2644.00,0.0106
2643.00,0.0106
2642.00,0.0106
2641.00,0.0106
2640.00,0.0105
2639.00,0.0105
2638.00,0.0105
2637.00,0.0105
2636.00,0.0105
2635.00,0.0105
2634.00,0.0105
2633.00,0.0105
2632.00,0.0105
2631.00,0.0105
2630.00,0.0105
2629.00,0.0105
2628.00,0.0105
2627.00,0.0105
2626.00,0.0105
2625.00,0.0105
2624.00,0.0105
2623.00,0.0105
2622.00,0.0105
2621.00,0.0105
2620.00,0.0105
2619.00,0.0105
2618.00,0.0105
2617.00,0.0105
2616.00,0.0105
2615.00,0.0105
2614.00,0.0105
2613.00,0.0105
2612.00,0.0105
2611.00,0.0105
2610.00,0.0105
2609.00,0.0105
2608.00,0.0105
2607.00,0.0105
2606.00,0.0104
2605.00,0.0104
2604.00,0.0104
2603.00,0.0104
2602.00,0.0104
2601.00,0.0104
2600.00,0.0104
2599.00,0.0104
2598.00,0.0104
2597.00,0.0104
2596.00,0.0104
2595.00,0.0104
2594.00,0.0104
2593.00,0.0104
2592.00,0.0104
2591.00,0.0103
2590.00,0.0103
2589.00,0.0103
2588.00,0.0103
2587.00,0.0103
2586.00,0.0103
2585.00,0.0103
2584.00,0.0103
2583.00,0.0103
2582.00,0.0103
2581.00,0.0103
2580.00,0.0103
2579.00,0.0103
2578.00,0.0102
2577.00,0.0102
2576.00,0.0102
2575.00,0.0102
2574.00,0.0102
2573.00,0.0102
2572.00,0.0102
2571.00,0.0102
2570.00,0.0102
2569.00,0.0102
2568.00,0.0102
2567.00,0.0102
2566.00,0.0102
2565.00,0.0102
2564.00,0.0102
2563.00,0.0102
2562.00,0.0102
2561.00,0.0102
2560.00,0.0102
2559.00,0.0102
2558.00,0.0101
2557.00,0.0101
2556.00,0.0101
2555.00,0.0101
2554.00,0.0101
2553.00,0.0101
2552.00,0.0101
2551.00,0.0101
2550.00,0.0101
2549.00,0.0101
2548.00,0.0101
2547.00,0.0101
2546.00,0.0101
2545.00,0.0101
2544.00,0.0101
2543.00,0.0101
2542.00,0.0101
2541.00,0.0101
2540.00,0.0100
2539.00,0.0100
2538.00,0.0100
2537.00,0.0100
2536.00,0.0100
2535.00,0.0100
2534.00,0.0100
2533.00,0.0100
2532.00,0.0100
2531.00,0.0100
2530.00,0.0100
2529.00,0.0100
2528.00,0.0100
2527.00,0.0100
2526.00,0.0100
2525.00,0.0100
2524.00,0.0100
2523.00,0.0100
2522.00,0.0100
2521.00,0.0099
2520.00,0.0099
2519.00,0.0099
2518.00,0.0099
2517.00,0.0099
2516.00,0.0099
2515.00,0.0099
2514.00,0.0099
2513.00,0.0099
2512.00,0.0099
2511.00,0.0099
2510.00,0.0099
2509.00,0.0099
2508.00,0.0099
2507.00,0.0099
2506.00,0.0099
2505.00,0.0099
2504.00,0.0099
2503.00,0.0099
2502.00,0.0098
2501.00,0.0099
2500.00,0.0099
2499.00,0.0099
2498.00,0.0098
2497.00,0.0098
2496.00,0.0098
2495.00,0.0098
2494.00,0.0098
2493.00,0.0098
2492.00,0.0098
2491.00,0.0098
2490.00,0.0098
2489.00,0.0098
2488.00,0.0098
2487.00,0.0098
2486.00,0.0098
2485.00,0.0098
2484.00,0.0098
2483.00,0.0098
2482.00,0.0098
2481.00,0.0097
2480.00,0.0098
2479.00,0.0097
2478.00,0.0097
2477.00,0.0097
2476.00,0.0097
2475.00,0.0097
2474.00,0.0097
2473.00,0.0097
2472.00,0.0097
2471.00,0.0097
2470.00,0.0097
2469.00,0.0097
2468.00,0.0097
2467.00,0.0096
2466.00,0.0096
2465.00,0.0096
2464.00,0.0096
2463.00,0.0096
2462.00,0.0096
2461.00,0.0096
2460.00,0.0096
2459.00,0.0096
2458.00,0.0095
2457.00,0.0095
2456.00,0.0095
2455.00,0.0095
2454.00,0.0095
2453.00,0.0095
2452.00,0.0095
2451.00,0.0095
2450.00,0.0095
2449.00,0.0095
2448.00,0.0095
2447.00,0.0095
2446.00,0.0095
2445.00,0.0095
2444.00,0.0095
2443.00,0.0095
2442.00,0.0095
2441.00,0.0095
2440.00,0.0094
2439.00,0.0094
2438.00,0.0094
2437.00,0.0094
2436.00,0.0094
2435.00,0.0094
2434.00,0.0094
2433.00,0.0094
2432.00,0.0094
2431.00,0.0094
2430.00,0.0093
2429.00,0.0093
2428.00,0.0093
2427.00,0.0093
2426.00,0.0093
2425.00,0.0093
2424.00,0.0093
2423.00,0.0093
2422.00,0.0093
2421.00,0.0093
2420.00,0.0093
2419.00,0.0093
2418.00,0.0093
2417.00,0.0092
2416.00,0.0092
2415.00,0.0092
2414.00,0.0092
2413.00,0.0092
2412.00,0.0092
2411.00,0.0092
2410.00,0.0092
2409.00,0.0092
2408.00,0.0092
2407.00,0.0092
2406.00,0.0092
2405.00,0.0092
2404.00,0.0092
2403.00,0.0092
2402.00,0.0092
2401.00,0.0092
2400.00,0.0092
2399.00,0.0091
2398.00,0.0091
2397.00,0.0091
2396.00,0.0091
2395.00,0.0091
2394.00,0.0091
2393.00,0.0091
2392.00,0.0091
2391.00,0.0091
2390.00,0.0091
2389.00,0.0091
2388.00,0.0091
2387.00,0.0090
2386.00,0.0090
2385.00,0.0090
2384.00,0.0090
2383.00,0.0090
2382.00,0.0090
2381.00,0.0090
2380.00,0.0090
2379.00,0.0090
2378.00,0.0090
2377.00,0.0090
2376.00,0.0090
2375.00,0.0090
2374.00,0.0090
2373.00,0.0090
2372.00,0.0090
2371.00,0.0090
2370.00,0.0090
2369.00,0.0090
2368.00,0.0090
2367.00,0.0090
2366.00,0.0090
2365.00,0.0090
2364.00,0.0089
2363.00,0.0089
2362.00,0.0089
2361.00,0.0089
2360.00,0.0089
2359.00,0.0089
2358.00,0.0089
2357.00,0.0089
2356.00,0.0089
2355.00,0.0089
2354.00,0.0089
2353.00,0.0089
2352.00,0.0089
2351.00,0.0089
2350.00,0.0089
2349.00,0.0089
2348.00,0.0088
2347.00,0.0087
2346.00,0.0086
2345.00,0.0087
2344.00,0.0088
2343.00,0.0088
2342.00,0.0088
2341.00,0.0088
2340.00,0.0088
2339.00,0.0087
2338.00,0.0087
2337.00,0.0087
2336.00,0.0087
2335.00,0.0087
2334.00,0.0087
2333.00,0.0087
2332.00,0.0087
2331.00,0.0087
2330.00,0.0087
2329.00,0.0087
2328.00,0.0087
2327.00,0.0086
2326.00,0.0085
2325.00,0.0084
2324.00,0.0084
2323.00,0.0084
2322.00,0.0084
2321.00,0.0084
2320.00,0.0085
2319.00,0.0085
2318.00,0.0085
2317.00,0.0086
2316.00,0.0086
2315.00,0.0086
2314.00,0.0086
2313.00,0.0086
2312.00,0.0086
2311.00,0.0086
2310.00,0.0085
2309.00,0.0085
2308.00,0.0085
2307.00,0.0085
2306.00,0.0085
2305.00,0.0085
2304.00,0.0086
2303.00,0.0086
2302.00,0.0086
2301.00,0.0086
2300.00,0.0086
2299.00,0.0085
2298.00,0.0085
2297.00,0.0085
2296.00,0.0085
2295.00,0.0085
2294.00,0.0085
2293.00,0.0085
2292.00,0.0085
2291.00,0.0084
2290.00,0.0084
2289.00,0.0084
2288.00,0.0084
2287.00,0.0084
2286.00,0.0084
2285.00,0.0084
2284.00,0.0084
2283.00,0.0084
2282.00,0.0084
2281.00,0.0083
2280.00,0.0084
2279.00,0.0084
2278.00,0.0084
2277.00,0.0084
2276.00,0.0084
2275.00,0.0084
2274.00,0.0084
2273.00,0.0084
2272.00,0.0084
2271.00,0.0084
2270.00,0.0084
2269.00,0.0084
2268.00,0.0084
2267.00,0.0084
2266.00,0.0084
2265.00,0.0084
2264.00,0.0085
2263.00,0.0085
2262.00,0.0084
2261.00,0.0083
2260.00,0.0083
2259.00,0.0082
2258.00,0.0082
2257.00,0.0082
2256.00,0.0083
2255.00,0.0084
2254.00,0.0084
2253.00,0.0084
2252.00,0.0084
2251.00,0.0084
2250.00,0.0083
2249.00,0.0084
2248.00,0.0084
2247.00,0.0084
2246.00,0.0084
2245.00,0.0084
2244.00,0.0083
2243.00,0.0083
2242.00,0.0083
2241.00,0.0084
2240.00,0.0084
2239.00,0.0084
2238.00,0.0083
2237.00,0.0083
2236.00,0.0083
2235.00,0.0083
2234.00,0.0082
2233.00,0.0082
2232.00,0.0083
2231.00,0.0083
2230.00,0.0083
2229.00,0.0083
2228.00,0.0083
2227.00,0.0082
2226.00,0.0082
2225.00,0.0082
2224.00,0.0083
2223.00,0.0083
2222.00,0.0083
2221.00,0.0083
2220.00,0.0083
2219.00,0.0083
2218.00,0.0082
2217.00,0.0082
2216.00,0.0083
2215.00,0.0083
2214.00,0.0083
2213.00,0.0083
2212.00,0.0082
2211.00,0.0081
2210.00,0.0081
2209.00,0.0082
2208.00,0.0082
2207.00,0.0082
2206.00,0.0082
2205.00,0.0082
2204.00,0.0082
2203.00,0.0081
2202.00,0.0081
2201.00,0.0082
2200.00,0.0083
2199.00,0.0083
2198.00,0.0083
2197.00,0.0083
2196.00,0.0083
2195.00,0.0082
2194.00,0.0082
2193.00,0.0081
2192.00,0.0082
2191.00,0.0082
2190.00,0.0081
2189.00,0.0081
2188.00,0.0081
2187.00,0.0081
2186.00,0.0080
2185.00,0.0080
2184.00,0.0081
2183.00,0.0082
2182.00,0.0081
2181.00,0.0081
2180.00,0.0080
2179.00,0.0080
2178.00,0.0079
2177.00,0.0079
2176.00,0.0080
2175.00,0.0080
2174.00,0.0080
2173.00,0.0080
2172.00,0.0081
2171.00,0.0081
2170.00,0.0080
2169.00,0.0080
2168.00,0.0079
2167.00,0.0079
2166.00,0.0078
2165.00,0.0078
2164.00,0.0078
2163.00,0.0077
2162.00,0.0077
2161.00,0.0077
2160.00,0.0078
2159.00,0.0079
2158.00,0.0080
2157.00,0.0080
2156.00,0.0081
2155.00,0.0081
2154.00,0.0081
2153.00,0.0081
2152.00,0.0082
2151.00,0.0081
2150.00,0.0081
2149.00,0.0081
2148.00,0.0082
2147.00,0.0082
2146.00,0.0082
2145.00,0.0082
2144.00,0.0082
2143.00,0.0082
2142.00,0.0081
2141.00,0.0082
2140.00,0.0082
2139.00,0.0082
2138.00,0.0082
2137.00,0.0082
2136.00,0.0082
2135.00,0.0083
2134.00,0.0083
2133.00,0.0083
2132.00,0.0083
2131.00,0.0083
2130.00,0.0082
2129.00,0.0082
2128.00,0.0082
2127.00,0.0082
2126.00,0.0081
2125.00,0.0081
2124.00,0.0082
2123.00,0.0082
2122.00,0.0082
2121.00,0.0081
2120.00,0.0081
2119.00,0.0081
2118.00,0.0080
2117.00,0.0080
2116.00,0.0080
2115.00,0.0080
2114.00,0.0080
2113.00,0.0080
2112.00,0.0081
2111.00,0.0081
2110.00,0.0081
2109.00,0.0081
2108.00,0.0080
2107.00,0.0080
2106.00,0.0079
2105.00,0.0079
2104.00,0.0079
2103.00,0.0079
2102.00,0.0079
2101.00,0.0079
2100.00,0.0079
2099.00,0.0080
2098.00,0.0080
2097.00,0.0080
2096.00,0.0080
2095.00,0.0080
2094.00,0.0080
2093.00,0.0080
2092.00,0.0080
2091.00,0.0080
2090.00,0.0080
2089.00,0.0080
2088.00,0.0080
2087.00,0.0080
2086.00,0.0079
2085.00,0.0078
2084.00,0.0078
2083.00,0.0078
2082.00,0.0078
2081.00,0.0078
2080.00,0.0078
2079.00,0.0077
2078.00,0.0077
2077.00,0.0077
2076.00,0.0077
2075.00,0.0077
2074.00,0.0077
2073.00,0.0077
2072.00,0.0077
2071.00,0.0076
2070.00,0.0076
2069.00,0.0076
2068.00,0.0076
2067.00,0.0077
2066.00,0.0076
2065.00,0.0076
2064.00,0.0076
2063.00,0.0076
2062.00,0.0076
2061.00,0.0076
2060.00,0.0077
2059.00,0.0076
2058.00,0.0075
2057.00,0.0075
2056.00,0.0075
2055.00,0.0075
2054.00,0.0075
2053.00,0.0074
2052.00,0.0073
2051.00,0.0073
2050.00,0.0072
2049.00,0.0073
2048.00,0.0074
2047.00,0.0074
2046.00,0.0074
2045.00,0.0073
2044.00,0.0073
2043.00,0.0073
2042.00,0.0072
2041.00,0.0072
2040.00,0.0073
2039.00,0.0072
2038.00,0.0072
2037.00,0.0072
2036.00,0.0073
2035.00,0.0073
2034.00,0.0074
2033.00,0.0074
2032.00,0.0075
2031.00,0.0075
2030.00,0.0075
2029.00,0.0075
2028.00,0.0075
2027.00,0.0075
2026.00,0.0073
2025.00,0.0073
2024.00,0.0074
2023.00,0.0074
2022.00,0.0073
2021.00,0.0074
2020.00,0.0075
2019.00,0.0075
2018.00,0.0074
2017.00,0.0074
2016.00,0.0074
2015.00,0.0073
2014.00,0.0073
2013.00,0.0073
2012.00,0.0073
2011.00,0.0074
2010.00,0.0074
2009.00,0.0074
2008.00,0.0076
2007.00,0.0076
2006.00,0.0075
2005.00,0.0075
2004.00,0.0075
2003.00,0.0074
2002.00,0.0074
2001.00,0.0073
2000.00,0.0074
1999.00,0.0074
1998.00,0.0073
1997.00,0.0073
1996.00,0.0073
1995.00,0.0074
1994.00,0.0074
1993.00,0.0073
1992.00,0.0072
1991.00,0.0071
1990.00,0.0070
1989.00,0.0070
1988.00,0.0070
1987.00,0.0071
1986.00,0.0071
1985.00,0.0070
1984.00,0.0071
1983.00,0.0071
1982.00,0.0069
1981.00,0.0068
1980.00,0.0068
1979.00,0.0068
1978.00,0.0068
1977.00,0.0069
1976.00,0.0071
1975.00,0.0071
1974.00,0.0071
1973.00,0.0070
1972.00,0.0070
1971.00,0.0070
1970.00,0.0070
1969.00,0.0071
1968.00,0.0072
1967.00,0.0072
1966.00,0.0072
1965.00,0.0071
1964.00,0.0070
1963.00,0.0070
1962.00,0.0071
1961.00,0.0071
1960.00,0.0072
1959.00,0.0072
1958.00,0.0073
1957.00,0.0073
1956.00,0.0073
1955.00,0.0072
1954.00,0.0071
1953.00,0.0071
1952.00,0.0070
1951.00,0.0070
1950.00,0.0070
1949.00,0.0070
1948.00,0.0070
1947.00,0.0070
1946.00,0.0069
1945.00,0.0069
1944.00,0.0070
1943.00,0.0070
1942.00,0.0070
1941.00,0.0069
1940.00,0.0069
1939.00,0.0068
1938.00,0.0068
1937.00,0.0069
1936.00,0.0070
1935.00,0.0070
1934.00,0.0070
1933.00,0.0070
1932.00,0.0071
1931.00,0.0070
1930.00,0.0069
1929.00,0.0069
1928.00,0.0069
1927.00,0.0069
1926.00,0.0068
1925.00,0.0068
1924.00,0.0069
1923.00,0.0070
1922.00,0.0068
1921.00,0.0067
1920.00,0.0065
1919.00,0.0063
1918.00,0.0063
1917.00,0.0064
1916.00,0.0065
1915.00,0.0065
1914.00,0.0065
1913.00,0.0065
1912.00,0.0067
1911.00,0.0067
1910.00,0.0068
1909.00,0.0068
1908.00,0.0068
1907.00,0.0066
1906.00,0.0065
1905.00,0.0065
1904.00,0.0066
1903.00,0.0066
1902.00,0.0066
1901.00,0.0066
1900.00,0.0067
1899.00,0.0066
1898.00,0.0066
1897.00,0.0066
1896.00,0.0067
1895.00,0.0066
1894.00,0.0065
1893.00,0.0064
1892.00,0.0065
1891.00,0.0065
1890.00,0.0066
1889.00,0.0066
1888.00,0.0066
1887.00,0.0064
1886.00,0.0062
1885.00,0.0062
1884.00,0.0063
1883.00,0.0063
1882.00,0.0063
1881.00,0.0063
1880.00,0.0063
1879.00,0.0063
1878.00,0.0062
1877.00,0.0062
1876.00,0.0062
1875.00,0.0062
1874.00,0.0060
1873.00,0.0060
1872.00,0.0061
1871.00,0.0061
1870.00,0.0060
1869.00,0.0061
1868.00,0.0061
1867.00,0.0060
1866.00,0.0058
1865.00,0.0057
1864.00,0.0058
1863.00,0.0058
1862.00,0.0058
1861.00,0.0059
1860.00,0.0060
1859.00,0.0060
1858.00,0.0060
1857.00,0.0059
1856.00,0.0060
1855.00,0.0060
1854.00,0.0059
1853.00,0.0059
1852.00,0.0059
1851.00,0.0058
1850.00,0.0057
1849.00,0.0058
1848.00,0.0059
1847.00,0.0059
1846.00,0.0057
1845.00,0.0056
1844.00,0.0055
1843.00,0.0053
1842.00,0.0052
1841.00,0.0051
1840.00,0.0052
1839.00,0.0053
1838.00,0.0054
1837.00,0.0055
1836.00,0.0055
1835.00,0.0054
1834.00,0.0054
1833.00,0.0055
1832.00,0.0057
1831.00,0.0059
1830.00,0.0060
1829.00,0.0059
1828.00,0.0057
1827.00,0.0055
1826.00,0.0054
1825.00,0.0054
1824.00,0.0055
1823.00,0.0054
1822.00,0.0052
1821.00,0.0051
1820.00,0.0052
1819.00,0.0053
1818.00,0.0053
1817.00,0.0053
1816.00,0.0053
1815.00,0.0054
1814.00,0.0052
1813.00,0.0051
1812.00,0.0052
1811.00,0.0053
1810.00,0.0052
1809.00,0.0050
1808.00,0.0051
1807.00,0.0051
1806.00,0.0050
1805.00,0.0050
1804.00,0.0052
1803.00,0.0053
1802.00,0.0051
1801.00,0.0049
1800.00,0.0047
1799.00,0.0046
1798.00,0.0044
1797.00,0.0044
1796.00,0.0046
1795.00,0.0047
1794.00,0.0046
1793.00,0.0044
1792.00,0.0044
1791.00,0.0044
1790.00,0.0043
1789.00,0.0042
1788.00,0.0043
1787.00,0.0044
1786.00,0.0044
1785.00,0.0045
1784.00,0.0046
1783.00,0.0047
1782.00,0.0046
1781.00,0.0046
1780.00,0.0045
1779.00,0.0044
1778.00,0.0043
1777.00,0.0043
1776.00,0.0045
1775.00,0.0047
1774.00,0.0047
1773.00,0.0046
1772.00,0.0046
1771.00,0.0045
1770.00,0.0043
1769.00,0.0041
1768.00,0.0039
1767.00,0.0040
1766.00,0.0042
1765.00,0.0044
1764.00,0.0046
1763.00,0.0049
1762.00,0.0051
1761.00,0.0049
1760.00,0.0047
1759.00,0.0046
1758.00,0.0046
1757.00,0.0044
1756.00,0.0042
1755.00,0.0041
1754.00,0.0040
1753.00,0.0037
1752.00,0.0033
1751.00,0.0033
1750.00,0.0035
1749.00,0.0037
1748.00,0.0038
1747.00,0.0040
1746.00,0.0043
1745.00,0.0046
1744.00,0.0049
1743.00,0.0053
1742.00,0.0056
1741.00,0.0056
1740.00,0.0055
1739.00,0.0056
1738.00,0.0058
1737.00,0.0059
1736.00,0.0056
1735.00,0.0053
1734.00,0.0051
1733.00,0.0051
1732.00,0.0051
1731.00,0.0052
1730.00,0.0055
1729.00,0.0057
1728.00,0.0058
1727.00,0.0059
1726.00,0.0059
1725.00,0.0060
1724.00,0.0059
1723.00,0.0059
1722.00,0.0060
1721.00,0.0063
1720.00,0.0065
1719.00,0.0065
1718.00,0.0062
1717.00,0.0059
1716.00,0.0059
1715.00,0.0059
1714.00,0.0059
1713.00,0.0062
1712.00,0.0067
1711.00,0.0071
1710.00,0.0075
1709.00,0.0080
1708.00,0.0087
1707.00,0.0096
1706.00,0.0106
1705.00,0.0118
1704.00,0.0131
1703.00,0.0142
1702.00,0.0149
1701.00,0.0160
1700.00,0.0180
1699.00,0.0194
1698.00,0.0200
1697.00,0.0207
1696.00,0.0220
1695.00,0.0231
1694.00,0.0236
1693.00,0.0240
1692.00,0.0246
1691.00,0.0254
1690.00,0.0262
1689.00,0.0272
1688.00,0.0283
1687.00,0.0293
1686.00,0.0301
1685.00,0.0313
1684.00,0.0331
1683.00,0.0344
1682.00,0.0352
1681.00,0.0360
1680.00,0.0369
1679.00,0.0380
1678.00,0.0391
1677.00,0.0402
1676.00,0.0414
1675.00,0.0427
1674.00,0.0439
1673.00,0.0448
1672.00,0.0457
1671.00,0.0469
1670.00,0.0485
1669.00,0.0503
1668.00,0.0517
1667.00,0.0528
1666.00,0.0538
1665.00,0.0549
1664.00,0.0562
1663.00,0.0577
1662.00,0.0591
1661.00,0.0603
1660.00,0.0613
1659.00,0.0624
1658.00,0.0637
1657.00,0.0652
1656.00,0.0666
1655.00,0.0679
1654.00,0.0694
1653.00,0.0712
1652.00,0.0720
1651.00,0.0719
1650.00,0.0715
1649.00,0.0713
1648.00,0.0714
1647.00,0.0718
1646.00,0.0723
1645.00,0.0727
1644.00,0.0729
1643.00,0.0730
1642.00,0.0730
1641.00,0.0731
1640.00,0.0733
1639.00,0.0734
1638.00,0.0735
1637.00,0.0735
1636.00,0.0739
1635.00,0.0745
1634.00,0.0749
1633.00,0.0751
1632.00,0.0751
1631.00,0.0750
1630.00,0.0752
1629.00,0.0757
1628.00,0.0764
1627.00,0.0770
1626.00,0.0775
1625.00,0.0780
1624.00,0.0786
1623.00,0.0792
1622.00,0.0799
1621.00,0.0804
1620.00,0.0806
1619.00,0.0806
1618.00,0.0806
1617.00,0.0805
1616.00,0.0800
1615.00,0.0791
1614.00,0.0780
1613.00,0.0767
1612.00,0.0751
1611.00,0.0733
1610.00,0.0715
1609.00,0.0699
1608.00,0.0680
1607.00,0.0661
1606.00,0.0644
1605.00,0.0627
1604.00,0.0609
1603.00,0.0592
1602.00,0.0576
1601.00,0.0562
1600.00,0.0547
1599.00,0.0532
1598.00,0.0519
1597.00,0.0508
1596.00,0.0496
1595.00,0.0484
1594.00,0.0473
1593.00,0.0464
1592.00,0.0453
1591.00,0.0443
1590.00,0.0435
1589.00,0.0428
1588.00,0.0420
1587.00,0.0413
1586.00,0.0407
1585.00,0.0402
1584.00,0.0395
1583.00,0.0389
1582.00,0.0385
1581.00,0.0383
1580.00,0.0381
1579.00,0.0379
1578.00,0.0378
1577.00,0.0377
1576.00,0.0373
1575.00,0.0370
1574.00,0.0371
1573.00,0.0374
1572.00,0.0377
1571.00,0.0379
1570.00,0.0385
1569.00,0.0390
1568.00,0.0392
1567.00,0.0394
1566.00,0.0400
1565.00,0.0409
1564.00,0.0419
1563.00,0.0431
1562.00,0.0444
1561.00,0.0456
1560.00,0.0462
1559.00,0.0471
1558.00,0.0487
1557.00,0.0499
1556.00,0.0506
1555.00,0.0512
1554.00,0.0521
1553.00,0.0532
1552.00,0.0543
1551.00,0.0553
1550.00,0.0565
1549.00,0.0576
1548.00,0.0583
1547.00,0.0589
1546.00,0.0597
1545.00,0.0608
1544.00,0.0619
1543.00,0.0627
1542.00,0.0630
1541.00,0.0634
1540.00,0.0643
1539.00,0.0652
1538.00,0.0660
1537.00,0.0666
1536.00,0.0670
1535.00,0.0675
1534.00,0.0683
1533.00,0.0693
1532.00,0.0701
1531.00,0.0705
1530.00,0.0706
1529.00,0.0710
1528.00,0.0717
1527.00,0.0723
1526.00,0.0728
1525.00,0.0732
1524.00,0.0737
1523.00,0.0741
1522.00,0.0747
1521.00,0.0756
1520.00,0.0763
1519.00,0.0767
1518.00,0.0769
1517.00,0.0770
1516.00,0.0772
1515.00,0.0771
1514.00,0.0768
1513.00,0.0763
1512.00,0.0761
1511.00,0.0760
1510.00,0.0756
1509.00,0.0747
1508.00,0.0738
1507.00,0.0730
1506.00,0.0720
1505.00,0.0707
1504.00,0.0696
1503.00,0.0685
1502.00,0.0673
1501.00,0.0661
1500.00,0.0651
1499.00,0.0641
1498.00,0.0628
1497.00,0.0612
1496.00,0.0598
1495.00,0.0586
1494.00,0.0573
1493.00,0.0559
1492.00,0.0545
1491.00,0.0532
1490.00,0.0520
1489.00,0.0510
1488.00,0.0500
1487.00,0.0490
1486.00,0.0477
1485.00,0.0466
1484.00,0.0456
1483.00,0.0447
1482.00,0.0438
1481.00,0.0429
1480.00,0.0422
1479.00,0.0416
1478.00,0.0410
1477.00,0.0406
1476.00,0.0403
1475.00,0.0399
1474.00,0.0392
1473.00,0.0387
1472.00,0.0389
1471.00,0.0394
1470.00,0.0397
1469.00,0.0398
1468.00,0.0401
1467.00,0.0403
1466.00,0.0404
1465.00,0.0402
1464.00,0.0402
1463.00,0.0403
1462.00,0.0405
1461.00,0.0410
1460.00,0.0418
1459.00,0.0428
1458.00,0.0436
1457.00,0.0441
1456.00,0.0444
1455.00,0.0449
1454.00,0.0452
1453.00,0.0454
1452.00,0.0457
1451.00,0.0460
1450.00,0.0461
1449.00,0.0461
1448.00,0.0461
1447.00,0.0460
1446.00,0.0458
1445.00,0.0453
1444.00,0.0448
1443.00,0.0444
1442.00,0.0439
1441.00,0.0434
1440.00,0.0430
1439.00,0.0427
1438.00,0.0424
1437.00,0.0417
1436.00,0.0409
1435.00,0.0404
1434.00,0.0398
1433.00,0.0393
1432.00,0.0389
1431.00,0.0388
1430.00,0.0387
1429.00,0.0385
1428.00,0.0382
1427.00,0.0382
1426.00,0.0382
1425.00,0.0381
1424.00,0.0381
1423.00,0.0383
1422.00,0.0388
1421.00,0.0392
1420.00,0.0395
1419.00,0.0401
1418.00,0.0405
1417.00,0.0405
1416.00,0.0406
1415.00,0.0410
1414.00,0.0415
1413.00,0.0419
1412.00,0.0422
1411.00,0.0426
1410.00,0.0429
1409.00,0.0431
1408.00,0.0433
1407.00,0.0435
1406.00,0.0437
1405.00,0.0438
1404.00,0.0438
1403.00,0.0439
1402.00,0.0441
1401.00,0.0442
1400.00,0.0442
1399.00,0.0443
1398.00,0.0445
1397.00,0.0447
1396.00,0.0450
1395.00,0.0454
1394.00,0.0457
1393.00,0.0457
1392.00,0.0455
1391.00,0.0455
1390.00,0.0458
1389.00,0.0460
1388.00,0.0462
1387.00,0.0463
1386.00,0.0463
1385.00,0.0463
1384.00,0.0462
1383.00,0.0462
1382.00,0.0461
1381.00,0.0460
1380.00,0.0458
1379.00,0.0455
1378.00,0.0452
1377.00,0.0450
1376.00,0.0449
1375.00,0.0448
1374.00,0.0448
1373.00,0.0446
1372.00,0.0443
1371.00,0.0440
1370.00,0.0437
1369.00,0.0435
1368.00,0.0432
1367.00,0.0428
1366.00,0.0425
1365.00,0.0423
1364.00,0.0421
1363.00,0.0418
1362.00,0.0415
1361.00,0.0412
1360.00,0.0407
1359.00,0.0404
1358.00,0.0401
1357.00,0.0400
1356.00,0.0399
1355.00,0.0398
1354.00,0.0397
1353.00,0.0396
1352.00,0.0396
1351.00,0.0395
1350.00,0.0395
1349.00,0.0396
1348.00,0.0396
1347.00,0.0396
1346.00,0.0396
1345.00,0.0397
1344.00,0.0397
1343.00,0.0397
1342.00,0.0398
1341.00,0.0399
1340.00,0.0400
1339.00,0.0400
1338.00,0.0399
1337.00,0.0398
1336.00,0.0396
1335.00,0.0395
1334.00,0.0394
1333.00,0.0393
1332.00,0.0392
1331.00,0.0391
1330.00,0.0390
1329.00,0.0389
1328.00,0.0388
1327.00,0.0386
1326.00,0.0386
1325.00,0.0385
1324.00,0.0385
1323.00,0.0384
1322.00,0.0384
1321.00,0.0384
1320.00,0.0384
1319.00,0.0384
1318.00,0.0384
1317.00,0.0385
1316.00,0.0385
1315.00,0.0385
1314.00,0.0386
1313.00,0.0387
1312.00,0.0387
1311.00,0.0386
1310.00,0.0386
1309.00,0.0387
1308.00,0.0386
1307.00,0.0386
1306.00,0.0386
1305.00,0.0386
1304.00,0.0385
1303.00,0.0383
1302.00,0.0382
1301.00,0.0382
1300.00,0.0381
1299.00,0.0381
1298.00,0.0380
1297.00,0.0379
1296.00,0.0378
1295.00,0.0377
1294.00,0.0377
1293.00,0.0376
1292.00,0.0375
1291.00,0.0375
1290.00,0.0375
1289.00,0.0375
1288.00,0.0375
1287.00,0.0375
1286.00,0.0375
1285.00,0.0375
1284.00,0.0375
1283.00,0.0376
1282.00,0.0376
1281.00,0.0377
1280.00,0.0377
1279.00,0.0377
1278.00,0.0378
1277.00,0.0379
1276.00,0.0379
1275.00,0.0380
1274.00,0.0381
1273.00,0.0383
1272.00,0.0384
1271.00,0.0386
1270.00,0.0388
1269.00,0.0390
1268.00,0.0392
1267.00,0.0395
1266.00,0.0398
1265.00,0.0400
1264.00,0.0403
1263.00,0.0405
1262.00,0.0407
1261.00,0.0410
1260.00,0.0412
1259.00,0.0414
1258.00,0.0417
1257.00,0.0420
1256.00,0.0423
1255.00,0.0426
1254.00,0.0430
1253.00,0.0433
1252.00,0.0436
1251.00,0.0439
1250.00,0.0442
1249.00,0.0444
1248.00,0.0445
1247.00,0.0447
1246.00,0.0449
1245.00,0.0451
1244.00,0.0453
1243.00,0.0454
1242.00,0.0456
1241.00,0.0457
1240.00,0.0458
1239.00,0.0459
1238.00,0.0459
1237.00,0.0459
1236.00,0.0459
1235.00,0.0458
1234.00,0.0458
1233.00,0.0457
1232.00,0.0455
1231.00,0.0454
1230.00,0.0452
1229.00,0.0450
1228.00,0.0447
1227.00,0.0445
1226.00,0.0443
1225.00,0.0440
1224.00,0.0437
1223.00,0.0434
1222.00,0.0431
1221.00,0.0429
1220.00,0.0426
1219.00,0.0423
1218.00,0.0420
1217.00,0.0417
1216.00,0.0414
1215.00,0.0411
1214.00,0.0408
1213.00,0.0405
1212.00,0.0401
1211.00,0.0398
1210.00,0.0395
1209.00,0.0392
1208.00,0.0388
1207.00,0.0385
1206.00,0.0382
1205.00,0.0378
1204.00,0.0374
1203.00,0.0370
1202.00,0.0367
1201.00,0.0363
1200.00,0.0359
1199.00,0.0355
1198.00,0.0351
1197.00,0.0347
1196.00,0.0343
1195.00,0.0339
1194.00,0.0336
1193.00,0.0333
1192.00,0.0330
1191.00,0.0328
1190.00,0.0327
1189.00,0.0326
1188.00,0.0325
1187.00,0.0324
1186.00,0.0324
1185.00,0.0323
1184.00,0.0323
1183.00,0.0324
1182.00,0.0325
1181.00,0.0327
1180.00,0.0329
1179.00,0.0332
1178.00,0.0335
1177.00,0.0339
1176.00,0.0343
1175.00,0.0347
1174.00,0.0352
1173.00,0.0357
1172.00,0.0362
1171.00,0.0366
1170.00,0.0371
1169.00,0.0375
1168.00,0.0378
1167.00,0.0381
1166.00,0.0384
1165.00,0.0386
1164.00,0.0388
1163.00,0.0389
1162.00,0.0390
1161.00,0.0390
1160.00,0.0389
1159.00,0.0387
1158.00,0.0386
1157.00,0.0384
1156.00,0.0381
1155.00,0.0379
1154.00,0.0376
1153.00,0.0374
1152.00,0.0370
1151.00,0.0367
1150.00,0.0364
1149.00,0.0360
1148.00,0.0357
1147.00,0.0353
1146.00,0.0351
1145.00,0.0348
1144.00,0.0345
1143.00,0.0343
1142.00,0.0341
1141.00,0.0339
1140.00,0.0337
1139.00,0.0335
1138.00,0.0334
1137.00,0.0332
1136.00,0.0330
1135.00,0.0329
1134.00,0.0328
1133.00,0.0327
1132.00,0.0326
1131.00,0.0324
1130.00,0.0324
1129.00,0.0323
1128.00,0.0322
1127.00,0.0320
1126.00,0.0320
1125.00,0.0319
1124.00,0.0317
1123.00,0.0316
1122.00,0.0315
1121.00,0.0314
1120.00,0.0313
1119.00,0.0311
1118.00,0.0311
1117.00,0.0310
1116.00,0.0309
1115.00,0.0308
1114.00,0.0307
1113.00,0.0307
1112.00,0.0306
1111.00,0.0306
1110.00,0.0306
1109.00,0.0306
1108.00,0.0306
1107.00,0.0306
1106.00,0.0307
1105.00,0.0308
1104.00,0.0309
1103.00,0.0310
1102.00,0.0312
1101.00,0.0313
1100.00,0.0314
1099.00,0.0315
1098.00,0.0317
1097.00,0.0319
1096.00,0.0321
1095.00,0.0323
1094.00,0.0326
1093.00,0.0329
1092.00,0.0333
1091.00,0.0337
1090.00,0.0341
1089.00,0.0346
1088.00,0.0350
1087.00,0.0355
1086.00,0.0361
1085.00,0.0366
1084.00,0.0371
1083.00,0.0376
1082.00,0.0381
1081.00,0.0386
1080.00,0.0390
1079.00,0.0395
1078.00,0.0400
1077.00,0.0404
1076.00,0.0408
1075.00,0.0411
1074.00,0.0415
1073.00,0.0418
1072.00,0.0420
1071.00,0.0422
1070.00,0.0424
1069.00,0.0425
1068.00,0.0425
1067.00,0.0426
1066.00,0.0427
1065.00,0.0427
1064.00,0.0427
1063.00,0.0426
1062.00,0.0425
1061.00,0.0424
1060.00,0.0422
1059.00,0.0420
1058.00,0.0418
1057.00,0.0415
1056.00,0.0412
1055.00,0.0409
1054.00,0.0407
1053.00,0.0404
1052.00,0.0401
1051.00,0.0398
1050.00,0.0396
1049.00,0.0394
1048.00,0.0391
1047.00,0.0387
1046.00,0.0385
1045.00,0.0381
1044.00,0.0377
1043.00,0.0373
1042.00,0.0370
1041.00,0.0367
1040.00,0.0363
1039.00,0.0360
1038.00,0.0357
1037.00,0.0354
1036.00,0.0351
1035.00,0.0348
1034.00,0.0346
1033.00,0.0344
1032.00,0.0341
1031.00,0.0339
1030.00,0.0336
1029.00,0.0333
1028.00,0.0329
1027.00,0.0326
1026.00,0.0322
1025.00,0.0318
1024.00,0.0314
1023.00,0.0310
1022.00,0.0307
1021.00,0.0303
1020.00,0.0299
1019.00,0.0296
1018.00,0.0293
1017.00,0.0290
1016.00,0.0286
1015.00,0.0283
1014.00,0.0280
1013.00,0.0277
1012.00,0.0274
1011.00,0.0271
1010.00,0.0268
1009.00,0.0266
1008.00,0.0263
1007.00,0.0261
1006.00,0.0259
1005.00,0.0257
1004.00,0.0254
1003.00,0.0252
1002.00,0.0251
1001.00,0.0249
1000.00,0.0246
999.00,0.0244
998.00,0.0243
997.00,0.0242
996.00,0.0241
995.00,0.0240
994.00,0.0239
993.00,0.0238
992.00,0.0237
991.00,0.0236
990.00,0.0235
989.00,0.0235
988.00,0.0234
987.00,0.0233
986.00,0.0233
985.00,0.0233
984.00,0.0232
983.00,0.0232
982.00,0.0233
981.00,0.0233
980.00,0.0234
979.00,0.0234
978.00,0.0236
977.00,0.0237
976.00,0.0239
975.00,0.0241
974.00,0.0243
973.00,0.0246
972.00,0.0248
971.00,0.0250
970.00,0.0253
969.00,0.0256
968.00,0.0258
967.00,0.0259
966.00,0.0261
965.00,0.0262
964.00,0.0263
963.00,0.0263
962.00,0.0263
961.00,0.0263
960.00,0.0263
959.00,0.0263
958.00,0.0263
957.00,0.0263
956.00,0.0262
955.00,0.0260
954.00,0.0259
953.00,0.0258
952.00,0.0256
951.00,0.0254
950.00,0.0253
949.00,0.0251
948.00,0.0249
947.00,0.0247
946.00,0.0247
945.00,0.0246
944.00,0.0245
943.00,0.0244
942.00,0.0243
941.00,0.0243
940.00,0.0242
939.00,0.0240
938.00,0.0240
937.00,0.0239
936.00,0.0237
935.00,0.0236
934.00,0.0235
933.00,0.0233
932.00,0.0232
931.00,0.0230
930.00,0.0229
929.00,0.0228
928.00,0.0226
927.00,0.0224
926.00,0.0223
925.00,0.0222
924.00,0.0221
923.00,0.0219
922.00,0.0218
921.00,0.0217
920.00,0.0215
919.00,0.0214
918.00,0.0213
917.00,0.0212
916.00,0.0211
915.00,0.0210
914.00,0.0209
913.00,0.0209
912.00,0.0208
911.00,0.0207
910.00,0.0207
909.00,0.0207
908.00,0.0207
907.00,0.0207
906.00,0.0207
905.00,0.0208
904.00,0.0208
903.00,0.0208
902.00,0.0208
901.00,0.0208
900.00,0.0208
899.00,0.0208
898.00,0.0208
897.00,0.0208
896.00,0.0207
895.00,0.0207
894.00,0.0207
893.00,0.0206
892.00,0.0205
891.00,0.0204
890.00,0.0204
889.00,0.0203
888.00,0.0202
887.00,0.0201
886.00,0.0201
885.00,0.0200
884.00,0.0199
883.00,0.0198
882.00,0.0198
881.00,0.0199
880.00,0.0198
879.00,0.0198
878.00,0.0199
877.00,0.0200
876.00,0.0200
875.00,0.0199
874.00,0.0200
873.00,0.0199
872.00,0.0198
871.00,0.0197
870.00,0.0197
869.00,0.0196
868.00,0.0194
867.00,0.0193
866.00,0.0193
865.00,0.0192
864.00,0.0190
863.00,0.0189
862.00,0.0189
861.00,0.0188
860.00,0.0187
859.00,0.0187
858.00,0.0187
857.00,0.0187
856.00,0.0187
855.00,0.0186
854.00,0.0187
853.00,0.0187
852.00,0.0187
851.00,0.0188
850.00,0.0188
849.00,0.0188
848.00,0.0188
847.00,0.0187
846.00,0.0188
845.00,0.0188
844.00,0.0187
843.00,0.0188
842.00,0.0189
841.00,0.0190
840.00,0.0190
839.00,0.0191
838.00,0.0193
837.00,0.0195
836.00,0.0196
835.00,0.0198
834.00,0.0200
833.00,0.0202
832.00,0.0204
831.00,0.0206
830.00,0.0208
829.00,0.0211
828.00,0.0212
827.00,0.0213
826.00,0.0215
825.00,0.0215
824.00,0.0215
823.00,0.0215
822.00,0.0216
821.00,0.0217
820.00,0.0218
819.00,0.0218
818.00,0.0220
817.00,0.0221
816.00,0.0221
815.00,0.0223
814.00,0.0225
813.00,0.0226
812.00,0.0227
811.00,0.0229
810.00,0.0231
809.00,0.0232
808.00,0.0233
807.00,0.0234
806.00,0.0236
805.00,0.0238
804.00,0.0239
803.00,0.0239
802.00,0.0241
801.00,0.0241
800.00,0.0240
799.00,0.0240
798.00,0.0240
797.00,0.0241
796.00,0.0241
795.00,0.0242
794.00,0.0243
793.00,0.0244
792.00,0.0245
791.00,0.0246
790.00,0.0249
789.00,0.0251
788.00,0.0252
787.00,0.0254
786.00,0.0256
785.00,0.0258
784.00,0.0259
783.00,0.0261
782.00,0.0263
781.00,0.0266
780.00,0.0267
779.00,0.0269
778.00,0.0272
777.00,0.0275
776.00,0.0277
775.00,0.0279
774.00,0.0282
773.00,0.0285
772.00,0.0287
771.00,0.0289
770.00,0.0292
769.00,0.0295
768.00,0.0297
767.00,0.0299
766.00,0.0302
765.00,0.0304
764.00,0.0306
763.00,0.0308
762.00,0.0310
761.00,0.0313
760.00,0.0315
759.00,0.0317
758.00,0.0319
757.00,0.0322
756.00,0.0323
755.00,0.0324
754.00,0.0327
753.00,0.0329
752.00,0.0330
751.00,0.0332
750.00,0.0334
749.00,0.0335
748.00,0.0335
747.00,0.0334
746.00,0.0335
745.00,0.0334
744.00,0.0333
743.00,0.0333
742.00,0.0332
741.00,0.0332
740.00,0.0331
739.00,0.0331
738.00,0.0331
737.00,0.0332
736.00,0.0332
735.00,0.0333
734.00,0.0334
733.00,0.0335
732.00,0.0335
731.00,0.0336
730.00,0.0338
729.00,0.0341
728.00,0.0344
727.00,0.0348
726.00,0.0353
725.00,0.0357
724.00,0.0361
723.00,0.0365
722.00,0.0369
721.00,0.0373
720.00,0.0377
719.00,0.0382
718.00,0.0389
717.00,0.0396
716.00,0.0402
715.00,0.0408
714.00,0.0415
713.00,0.0421
712.00,0.0427
711.00,0.0433
710.00,0.0440
709.00,0.0447
708.00,0.0454
707.00,0.0461
706.00,0.0468
705.00,0.0476
704.00,0.0482
703.00,0.0489
702.00,0.0495
701.00,0.0500
700.00,0.0503
699.00,0.0506
698.00,0.0508
697.00,0.0508
696.00,0.0508
695.00,0.0507
694.00,0.0507
693.00,0.0507
692.00,0.0506
691.00,0.0506
690.00,0.0506
689.00,0.0507
688.00,0.0508
687.00,0.0509
686.00,0.0511
685.00,0.0512
684.00,0.0513
683.00,0.0514
682.00,0.0516
681.00,0.0518
680.00,0.0519
679.00,0.0520
678.00,0.0522
677.00,0.0523
676.00,0.0525
675.00,0.0526
674.00,0.0528
673.00,0.0530
672.00,0.0530
671.00,0.0531
670.00,0.0533
669.00,0.0536
668.00,0.0540
667.00,0.0544
666.00,0.0545
665.00,0.0543
664.00,0.0542
663.00,0.0543
662.00,0.0544
661.00,0.0546
660.00,0.0546
659.00,0.0547
658.00,0.0550
657.00,0.0551
656.00,0.0552
655.00,0.0553
654.00,0.0554
653.00,0.0556
652.00,0.0557
651.00,0.0559
650.00,0.0561
649.00,0.0564
648.00,0.0565
647.00,0.0567
646.00,0.0570
645.00,0.0572
644.00,0.0574
643.00,0.0576
642.00,0.0579
641.00,0.0582
640.00,0.0584
639.00,0.0586
638.00,0.0588
637.00,0.0591
636.00,0.0592
635.00,0.0594
634.00,0.0597
633.00,0.0600
632.00,0.0601
631.00,0.0603
630.00,0.0605
629.00,0.0607
628.00,0.0608
627.00,0.0608
626.00,0.0610
625.00,0.0611
624.00,0.0611
623.00,0.0612
622.00,0.0613
621.00,0.0614
620.00,0.0614
619.00,0.0614
618.00,0.0614
617.00,0.0614
616.00,0.0613
615.00,0.0611
614.00,0.0611
613.00,0.0611
612.00,0.0610
611.00,0.0609
610.00,0.0609
609.00,0.0609
608.00,0.0607
607.00,0.0606
606.00,0.0608
605.00,0.0609
604.00,0.0609
603.00,0.0609
602.00,0.0609
601.00,0.0609
600.00,0.0608
599.00,0.0607
598.00,0.0608
597.00,0.0609
596.00,0.0609
595.00,0.0609
594.00,0.0610
593.00,0.0611
592.00,0.0610
591.00,0.0611
590.00,0.0613
589.00,0.0615
588.00,0.0615
587.00,0.0615
586.00,0.0616
585.00,0.0617
584.00,0.0617
583.00,0.0617
582.00,0.0620
581.00,0.0621
580.00,0.0621
579.00,0.0621
578.00,0.0623
577.00,0.0624
576.00,0.0623
575.00,0.0624
574.00,0.0627
573.00,0.0631
572.00,0.0631
571.00,0.0631
570.00,0.0633
569.00,0.0634
568.00,0.0633
567.00,0.0633
566.00,0.0636
565.00,0.0637
564.00,0.0636
563.00,0.0636
562.00,0.0639
561.00,0.0641
560.00,0.0641
559.00,0.0642
558.00,0.0645
557.00,0.0646
556.00,0.0644
555.00,0.0643
554.00,0.0645
553.00,0.0647
552.00,0.0647
551.00,0.0647
550.00,0.0649
549.00,0.0650
548.00,0.0648
547.00,0.0647
546.00,0.0649
545.00,0.0651
544.00,0.0651
543.00,0.0651
542.00,0.0653
541.00,0.0655
540.00,0.0655
539.00,0.0655
538.00,0.0658
537.00,0.0660
536.00,0.0660
535.00,0.0661
534.00,0.0664
533.00,0.0666
532.00,0.0666
531.00,0.0666
530.00,0.0668
529.00,0.0669
528.00,0.0666
527.00,0.0663
526.00,0.0664
525.00,0.0667
524.00,0.0670
523.00,0.0673
522.00,0.0677
521.00,0.0679
520.00,0.0677
519.00,0.0675
518.00,0.0676
517.00,0.0676
516.00,0.0675
515.00,0.0674
514.00,0.0675
513.00,0.0675
512.00,0.0671
511.00,0.0667
510.00,0.0665
509.00,0.0664
508.00,0.0660
507.00,0.0656
506.00,0.0654
505.00,0.0652
504.00,0.0647
503.00,0.0643
502.00,0.0643
501.00,0.0645
500.00,0.0645
499.00,0.0645
498.00,0.0647
497.00,0.0647
496.00,0.0645
495.00,0.0644
494.00,0.0645
493.00,0.0646
492.00,0.0643
491.00,0.0640
490.00,0.0641
489.00,0.0641
488.00,0.0639
487.00,0.0636
486.00,0.0637
485.00,0.0638
484.00,0.0636
483.00,0.0634
482.00,0.0635
481.00,0.0637
480.00,0.0635
479.00,0.0633
478.00,0.0635
477.00,0.0637
476.00,0.0634
475.00,0.0631
474.00,0.0632
473.00,0.0631
472.00,0.0626
471.00,0.0625
470.00,0.0631
469.00,0.0636
468.00,0.0634
467.00,0.0630
466.00,0.0632
465.00,0.0635
464.00,0.0633
463.00,0.0631
462.00,0.0633
461.00,0.0632
460.00,0.0625
459.00,0.0620
458.00,0.0620
457.00,0.0621
456.00,0.0616
455.00,0.0614
454.00,0.0618
453.00,0.0620
452.00,0.0615
451.00,0.0612
450.00,0.0614
449.00,0.0614
448.00,0.0607
447.00,0.0602
446.00,0.0603
445.00,0.0603
444.00,0.0598
443.00,0.0595
442.00,0.0595
441.00,0.0591
440.00,0.0583
439.00,0.0579
438.00,0.0583
437.00,0.0585
436.00,0.0578
435.00,0.0571
434.00,0.0570
433.00,0.0569
432.00,0.0562
431.00,0.0556
430.00,0.0557
429.00,0.0556
428.00,0.0549
427.00,0.0544
426.00,0.0548
425.00,0.0549
424.00,0.0540
423.00,0.0529
422.00,0.0528
421.00,0.0527
420.00,0.0515
419.00,0.0504
418.00,0.0514
417.00,0.0525
416.00,0.0524
415.00,0.0523
414.00,0.0533
413.00,0.0540
412.00,0.0536
411.00,0.0530
410.00,0.0536
409.00,0.0541
408.00,0.0534
407.00,0.0525
406.00,0.0527
405.00,0.0525
404.00,0.0508
403.00,0.0495
402.00,0.0504
401.00,0.0517
400.00,0.0509
