Created as New Dataset,Sample 376 By YargerLab Date Wednesday, October 23 2024
cm-1,A
4000.00,0.0015
3999.00,0.0015
3998.00,0.0015
3997.00,0.0015
3996.00,0.0015
3995.00,0.0015
3994.00,0.0015
3993.00,0.0015
3992.00,0.0015
3991.00,0.0015
3990.00,0.0015
3989.00,0.0015
3988.00,0.0015
3987.00,0.0015
3986.00,0.0015
3985.00,0.0015
3984.00,0.0015
3983.00,0.0015
3982.00,0.0015
3981.00,0.0015
3980.00,0.0015
3979.00,0.0015
3978.00,0.0015
3977.00,0.0015
3976.00,0.0015
3975.00,0.0015
3974.00,0.0015
3973.00,0.0015
3972.00,0.0015
3971.00,0.0015
3970.00,0.0015
3969.00,0.0015
3968.00,0.0015
3967.00,0.0015
3966.00,0.0015
3965.00,0.0015
3964.00,0.0015
3963.00,0.0015
3962.00,0.0015
3961.00,0.0015
3960.00,0.0015
3959.00,0.0015
3958.00,0.0015
3957.00,0.0015
3956.00,0.0015
3955.00,0.0015
3954.00,0.0015
3953.00,0.0015
3952.00,0.0015
3951.00,0.0015
3950.00,0.0015
3949.00,0.0015
3948.00,0.0015
3947.00,0.0015
3946.00,0.0015
3945.00,0.0015
3944.00,0.0015
3943.00,0.0015
3942.00,0.0015
3941.00,0.0015
3940.00,0.0015
3939.00,0.0015
3938.00,0.0014
3937.00,0.0014
3936.00,0.0015
3935.00,0.0015
3934.00,0.0015
3933.00,0.0015
3932.00,0.0015
3931.00,0.0015
3930.00,0.0015
3929.00,0.0015
3928.00,0.0015
3927.00,0.0015
3926.00,0.0014
3925.00,0.0014
3924.00,0.0014
3923.00,0.0014
3922.00,0.0014
3921.00,0.0014
3920.00,0.0014
3919.00,0.0014
3918.00,0.0014
3917.00,0.0014
3916.00,0.0014
3915.00,0.0014
3914.00,0.0014
3913.00,0.0014
3912.00,0.0014
3911.00,0.0014
3910.00,0.0014
3909.00,0.0014
3908.00,0.0014
3907.00,0.0014
3906.00,0.0014
3905.00,0.0014
3904.00,0.0014
3903.00,0.0014
3902.00,0.0014
3901.00,0.0014
3900.00,0.0014
3899.00,0.0014
3898.00,0.0014
3897.00,0.0013
3896.00,0.0014
3895.00,0.0014
3894.00,0.0014
3893.00,0.0014
3892.00,0.0014
3891.00,0.0013
3890.00,0.0013
3889.00,0.0013
3888.00,0.0014
3887.00,0.0014
3886.00,0.0014
3885.00,0.0014
3884.00,0.0014
3883.00,0.0014
3882.00,0.0014
3881.00,0.0014
3880.00,0.0014
3879.00,0.0014
3878.00,0.0014
3877.00,0.0014
3876.00,0.0014
3875.00,0.0014
3874.00,0.0013
3873.00,0.0014
3872.00,0.0014
3871.00,0.0014
3870.00,0.0013
3869.00,0.0013
3868.00,0.0013
3867.00,0.0014
3866.00,0.0014
3865.00,0.0013
3864.00,0.0013
3863.00,0.0013
3862.00,0.0013
3861.00,0.0013
3860.00,0.0013
3859.00,0.0013
3858.00,0.0013
3857.00,0.0013
3856.00,0.0013
3855.00,0.0013
3854.00,0.0013
3853.00,0.0013
3852.00,0.0013
3851.00,0.0013
3850.00,0.0013
3849.00,0.0013
3848.00,0.0013
3847.00,0.0013
3846.00,0.0013
3845.00,0.0014
3844.00,0.0013
3843.00,0.0013
3842.00,0.0013
3841.00,0.0013
3840.00,0.0013
3839.00,0.0013
3838.00,0.0013
3837.00,0.0013
3836.00,0.0013
3835.00,0.0013
3834.00,0.0013
3833.00,0.0013
3832.00,0.0013
3831.00,0.0013
3830.00,0.0013
3829.00,0.0013
3828.00,0.0013
3827.00,0.0013
3826.00,0.0013
3825.00,0.0013
3824.00,0.0013
3823.00,0.0013
3822.00,0.0013
3821.00,0.0012
3820.00,0.0012
3819.00,0.0012
3818.00,0.0012
3817.00,0.0012
3816.00,0.0012
3815.00,0.0012
3814.00,0.0013
3813.00,0.0013
3812.00,0.0013
3811.00,0.0013
3810.00,0.0013
3809.00,0.0013
3808.00,0.0013
3807.00,0.0012
3806.00,0.0012
3805.00,0.0012
3804.00,0.0013
3803.00,0.0012
3802.00,0.0012
3801.00,0.0012
3800.00,0.0012
3799.00,0.0013
3798.00,0.0013
3797.00,0.0013
3796.00,0.0013
3795.00,0.0012
3794.00,0.0012
3793.00,0.0012
3792.00,0.0012
3791.00,0.0012
3790.00,0.0012
3789.00,0.0013
3788.00,0.0013
3787.00,0.0013
3786.00,0.0013
3785.00,0.0012
3784.00,0.0012
3783.00,0.0012
3782.00,0.0012
3781.00,0.0012
3780.00,0.0012
3779.00,0.0012
3778.00,0.0012
3777.00,0.0013
3776.00,0.0013
3775.00,0.0013
3774.00,0.0013
3773.00,0.0013
3772.00,0.0013
3771.00,0.0013
3770.00,0.0013
3769.00,0.0013
3768.00,0.0013
3767.00,0.0013
3766.00,0.0013
3765.00,0.0013
3764.00,0.0013
3763.00,0.0013
3762.00,0.0013
3761.00,0.0013
3760.00,0.0012
3759.00,0.0012
3758.00,0.0013
3757.00,0.0013
3756.00,0.0013
3755.00,0.0013
3754.00,0.0013
3753.00,0.0013
3752.00,0.0013
3751.00,0.0013
3750.00,0.0013
3749.00,0.0013
3748.00,0.0013
3747.00,0.0013
3746.00,0.0013
3745.00,0.0013
3744.00,0.0013
3743.00,0.0013
3742.00,0.0013
3741.00,0.0013
3740.00,0.0013
3739.00,0.0013
3738.00,0.0013
3737.00,0.0013
3736.00,0.0013
3735.00,0.0013
3734.00,0.0013
3733.00,0.0013
3732.00,0.0013
3731.00,0.0013
3730.00,0.0013
3729.00,0.0013
3728.00,0.0013
3727.00,0.0013
3726.00,0.0013
3725.00,0.0013
3724.00,0.0013
3723.00,0.0013
3722.00,0.0013
3721.00,0.0013
3720.00,0.0013
3719.00,0.0013
3718.00,0.0013
3717.00,0.0013
3716.00,0.0013
3715.00,0.0013
3714.00,0.0013
3713.00,0.0013
3712.00,0.0013
3711.00,0.0013
3710.00,0.0013
3709.00,0.0013
3708.00,0.0013
3707.00,0.0013
3706.00,0.0013
3705.00,0.0013
3704.00,0.0013
3703.00,0.0013
3702.00,0.0013
3701.00,0.0013
3700.00,0.0014
3699.00,0.0014
3698.00,0.0014
3697.00,0.0014
3696.00,0.0014
3695.00,0.0014
3694.00,0.0014
3693.00,0.0014
3692.00,0.0014
3691.00,0.0014
3690.00,0.0014
3689.00,0.0014
3688.00,0.0014
3687.00,0.0014
3686.00,0.0015
3685.00,0.0015
3684.00,0.0015
3683.00,0.0015
3682.00,0.0016
3681.00,0.0016
3680.00,0.0016
3679.00,0.0016
3678.00,0.0016
3677.00,0.0017
3676.00,0.0017
3675.00,0.0017
3674.00,0.0017
3673.00,0.0018
3672.00,0.0018
3671.00,0.0018
3670.00,0.0018
3669.00,0.0018
3668.00,0.0019
3667.00,0.0019
3666.00,0.0019
3665.00,0.0019
3664.00,0.0019
3663.00,0.0020
3662.00,0.0020
3661.00,0.0020
3660.00,0.0020
3659.00,0.0021
3658.00,0.0021
3657.00,0.0021
3656.00,0.0022
3655.00,0.0022
3654.00,0.0022
3653.00,0.0023
3652.00,0.0023
3651.00,0.0023
3650.00,0.0024
3649.00,0.0024
3648.00,0.0025
3647.00,0.0025
3646.00,0.0026
3645.00,0.0026
3644.00,0.0026
3643.00,0.0026
3642.00,0.0027
3641.00,0.0027
3640.00,0.0028
3639.00,0.0028
3638.00,0.0028
3637.00,0.0029
3636.00,0.0029
3635.00,0.0030
3634.00,0.0030
3633.00,0.0031
3632.00,0.0031
3631.00,0.0032
3630.00,0.0032
3629.00,0.0033
3628.00,0.0034
3627.00,0.0034
3626.00,0.0035
3625.00,0.0035
3624.00,0.0035
3623.00,0.0036
3622.00,0.0036
3621.00,0.0037
3620.00,0.0037
3619.00,0.0038
3618.00,0.0039
3617.00,0.0039
3616.00,0.0040
3615.00,0.0040
3614.00,0.0041
3613.00,0.0041
3612.00,0.0042
3611.00,0.0042
3610.00,0.0043
3609.00,0.0044
3608.00,0.0044
3607.00,0.0045
3606.00,0.0046
3605.00,0.0046
3604.00,0.0047
3603.00,0.0047
3602.00,0.0048
3601.00,0.0048
3600.00,0.0049
3599.00,0.0049
3598.00,0.0050
3597.00,0.0051
3596.00,0.0051
3595.00,0.0052
3594.00,0.0052
3593.00,0.0053
3592.00,0.0054
3591.00,0.0054
3590.00,0.0055
3589.00,0.0056
3588.00,0.0057
3587.00,0.0057
3586.00,0.0058
3585.00,0.0059
3584.00,0.0059
3583.00,0.0060
3582.00,0.0061
3581.00,0.0061
3580.00,0.0062
3579.00,0.0063
3578.00,0.0063
3577.00,0.0064
3576.00,0.0065
3575.00,0.0065
3574.00,0.0066
3573.00,0.0067
3572.00,0.0067
3571.00,0.0068
3570.00,0.0069
3569.00,0.0070
3568.00,0.0071
3567.00,0.0072
3566.00,0.0073
3565.00,0.0074
3564.00,0.0074
3563.00,0.0075
3562.00,0.0075
3561.00,0.0076
3560.00,0.0077
3559.00,0.0077
3558.00,0.0078
3557.00,0.0079
3556.00,0.0080
3555.00,0.0080
3554.00,0.0081
3553.00,0.0082
3552.00,0.0083
3551.00,0.0084
3550.00,0.0084
3549.00,0.0085
3548.00,0.0086
3547.00,0.0087
3546.00,0.0088
3545.00,0.0089
3544.00,0.0090
3543.00,0.0090
3542.00,0.0091
3541.00,0.0092
3540.00,0.0092
3539.00,0.0093
3538.00,0.0094
3537.00,0.0094
3536.00,0.0095
3535.00,0.0096
3534.00,0.0097
3533.00,0.0097
3532.00,0.0098
3531.00,0.0099
3530.00,0.0100
3529.00,0.0101
3528.00,0.0102
3527.00,0.0102
3526.00,0.0103
3525.00,0.0104
3524.00,0.0105
3523.00,0.0106
3522.00,0.0106
3521.00,0.0107
3520.00,0.0108
3519.00,0.0109
3518.00,0.0110
3517.00,0.0111
3516.00,0.0111
3515.00,0.0112
3514.00,0.0113
3513.00,0.0114
3512.00,0.0115
3511.00,0.0116
3510.00,0.0116
3509.00,0.0117
3508.00,0.0118
3507.00,0.0119
3506.00,0.0120
3505.00,0.0121
3504.00,0.0122
3503.00,0.0123
3502.00,0.0124
3501.00,0.0125
3500.00,0.0126
3499.00,0.0127
3498.00,0.0128
3497.00,0.0129
3496.00,0.0129
3495.00,0.0130
3494.00,0.0131
3493.00,0.0132
3492.00,0.0133
3491.00,0.0134
3490.00,0.0135
3489.00,0.0136
3488.00,0.0137
3487.00,0.0138
3486.00,0.0139
3485.00,0.0140
3484.00,0.0141
3483.00,0.0142
3482.00,0.0143
3481.00,0.0144
3480.00,0.0145
3479.00,0.0146
3478.00,0.0147
3477.00,0.0148
3476.00,0.0149
3475.00,0.0150
3474.00,0.0151
3473.00,0.0152
3472.00,0.0153
3471.00,0.0154
3470.00,0.0154
3469.00,0.0155
3468.00,0.0156
3467.00,0.0157
3466.00,0.0158
3465.00,0.0159
3464.00,0.0160
3463.00,0.0161
3462.00,0.0162
3461.00,0.0163
3460.00,0.0164
3459.00,0.0165
3458.00,0.0166
3457.00,0.0167
3456.00,0.0168
3455.00,0.0169
3454.00,0.0170
3453.00,0.0171
3452.00,0.0172
3451.00,0.0173
3450.00,0.0174
3449.00,0.0175
3448.00,0.0176
3447.00,0.0178
3446.00,0.0179
3445.00,0.0180
3444.00,0.0181
3443.00,0.0182
3442.00,0.0183
3441.00,0.0185
3440.00,0.0186
3439.00,0.0187
3438.00,0.0188
3437.00,0.0190
3436.00,0.0191
3435.00,0.0192
3434.00,0.0194
3433.00,0.0195
3432.00,0.0196
3431.00,0.0198
3430.00,0.0199
3429.00,0.0200
3428.00,0.0201
3427.00,0.0203
3426.00,0.0204
3425.00,0.0205
3424.00,0.0207
3423.00,0.0208
3422.00,0.0209
3421.00,0.0211
3420.00,0.0212
3419.00,0.0213
3418.00,0.0215
3417.00,0.0216
3416.00,0.0217
3415.00,0.0218
3414.00,0.0219
3413.00,0.0221
3412.00,0.0222
3411.00,0.0223
3410.00,0.0224
3409.00,0.0226
3408.00,0.0227
3407.00,0.0228
3406.00,0.0230
3405.00,0.0231
3404.00,0.0232
3403.00,0.0233
3402.00,0.0234
3401.00,0.0235
3400.00,0.0236
3399.00,0.0237
3398.00,0.0239
3397.00,0.0240
3396.00,0.0241
3395.00,0.0242
3394.00,0.0243
3393.00,0.0244
3392.00,0.0246
3391.00,0.0247
3390.00,0.0249
3389.00,0.0250
3388.00,0.0251
3387.00,0.0253
3386.00,0.0254
3385.00,0.0255
3384.00,0.0257
3383.00,0.0258
3382.00,0.0259
3381.00,0.0261
3380.00,0.0262
3379.00,0.0263
3378.00,0.0265
3377.00,0.0266
3376.00,0.0268
3375.00,0.0269
3374.00,0.0271
3373.00,0.0272
3372.00,0.0273
3371.00,0.0274
3370.00,0.0276
3369.00,0.0277
3368.00,0.0279
3367.00,0.0281
3366.00,0.0283
3365.00,0.0285
3364.00,0.0287
3363.00,0.0289
3362.00,0.0291
3361.00,0.0292
3360.00,0.0294
3359.00,0.0296
3358.00,0.0298
3357.00,0.0300
3356.00,0.0302
3355.00,0.0304
3354.00,0.0305
3353.00,0.0307
3352.00,0.0308
3351.00,0.0310
3350.00,0.0312
3349.00,0.0314
3348.00,0.0317
3347.00,0.0319
3346.00,0.0321
3345.00,0.0323
3344.00,0.0324
3343.00,0.0326
3342.00,0.0328
3341.00,0.0330
3340.00,0.0332
3339.00,0.0334
3338.00,0.0336
3337.00,0.0339
3336.00,0.0342
3335.00,0.0344
3334.00,0.0347
3333.00,0.0349
3332.00,0.0351
3331.00,0.0353
3330.00,0.0355
3329.00,0.0357
3328.00,0.0359
3327.00,0.0361
3326.00,0.0364
3325.00,0.0366
3324.00,0.0369
3323.00,0.0372
3322.00,0.0375
3321.00,0.0377
3320.00,0.0380
3319.00,0.0382
3318.00,0.0385
3317.00,0.0387
3316.00,0.0390
3315.00,0.0392
3314.00,0.0395
3313.00,0.0397
3312.00,0.0399
3311.00,0.0401
3310.00,0.0403
3309.00,0.0404
3308.00,0.0406
3307.00,0.0409
3306.00,0.0411
3305.00,0.0414
3304.00,0.0418
3303.00,0.0421
3302.00,0.0424
3301.00,0.0427
3300.00,0.0429
3299.00,0.0431
3298.00,0.0432
3297.00,0.0434
3296.00,0.0435
3295.00,0.0437
3294.00,0.0439
3293.00,0.0441
3292.00,0.0443
3291.00,0.0445
3290.00,0.0448
3289.00,0.0449
3288.00,0.0451
3287.00,0.0452
3286.00,0.0454
3285.00,0.0455
3284.00,0.0456
3283.00,0.0456
3282.00,0.0457
3281.00,0.0457
3280.00,0.0457
3279.00,0.0457
3278.00,0.0457
3277.00,0.0456
3276.00,0.0456
3275.00,0.0455
3274.00,0.0454
3273.00,0.0452
3272.00,0.0451
3271.00,0.0450
3270.00,0.0449
3269.00,0.0448
3268.00,0.0447
3267.00,0.0446
3266.00,0.0444
3265.00,0.0442
3264.00,0.0440
3263.00,0.0438
3262.00,0.0436
3261.00,0.0434
3260.00,0.0432
3259.00,0.0429
3258.00,0.0426
3257.00,0.0423
3256.00,0.0421
3255.00,0.0419
3254.00,0.0416
3253.00,0.0414
3252.00,0.0412
3251.00,0.0409
3250.00,0.0406
3249.00,0.0403
3248.00,0.0401
3247.00,0.0399
3246.00,0.0397
3245.00,0.0395
3244.00,0.0394
3243.00,0.0392
3242.00,0.0390
3241.00,0.0388
3240.00,0.0386
3239.00,0.0384
3238.00,0.0382
3237.00,0.0379
3236.00,0.0377
3235.00,0.0374
3234.00,0.0372
3233.00,0.0371
3232.00,0.0370
3231.00,0.0369
3230.00,0.0368
3229.00,0.0367
3228.00,0.0366
3227.00,0.0364
3226.00,0.0363
3225.00,0.0361
3224.00,0.0360
3223.00,0.0359
3222.00,0.0357
3221.00,0.0356
3220.00,0.0355
3219.00,0.0354
3218.00,0.0353
3217.00,0.0352
3216.00,0.0351
3215.00,0.0349
3214.00,0.0348
3213.00,0.0347
3212.00,0.0346
3211.00,0.0345
3210.00,0.0344
3209.00,0.0343
3208.00,0.0342
3207.00,0.0340
3206.00,0.0339
3205.00,0.0338
3204.00,0.0337
3203.00,0.0336
3202.00,0.0335
3201.00,0.0334
3200.00,0.0332
3199.00,0.0331
3198.00,0.0330
3197.00,0.0329
3196.00,0.0328
3195.00,0.0327
3194.00,0.0325
3193.00,0.0324
3192.00,0.0323
3191.00,0.0321
3190.00,0.0320
3189.00,0.0319
3188.00,0.0318
3187.00,0.0316
3186.00,0.0315
3185.00,0.0314
3184.00,0.0313
3183.00,0.0311
3182.00,0.0310
3181.00,0.0308
3180.00,0.0307
3179.00,0.0306
3178.00,0.0304
3177.00,0.0303
3176.00,0.0302
3175.00,0.0300
3174.00,0.0299
3173.00,0.0297
3172.00,0.0296
3171.00,0.0295
3170.00,0.0293
3169.00,0.0292
3168.00,0.0291
3167.00,0.0289
3166.00,0.0288
3165.00,0.0287
3164.00,0.0286
3163.00,0.0284
3162.00,0.0283
3161.00,0.0282
3160.00,0.0281
3159.00,0.0279
3158.00,0.0278
3157.00,0.0276
3156.00,0.0275
3155.00,0.0273
3154.00,0.0272
3153.00,0.0271
3152.00,0.0270
3151.00,0.0269
3150.00,0.0269
3149.00,0.0268
3148.00,0.0267
3147.00,0.0266
3146.00,0.0265
3145.00,0.0264
3144.00,0.0263
3143.00,0.0261
3142.00,0.0260
3141.00,0.0259
3140.00,0.0258
3139.00,0.0257
3138.00,0.0257
3137.00,0.0256
3136.00,0.0256
3135.00,0.0255
3134.00,0.0254
3133.00,0.0254
3132.00,0.0253
3131.00,0.0252
3130.00,0.0251
3129.00,0.0251
3128.00,0.0251
3127.00,0.0250
3126.00,0.0249
3125.00,0.0249
3124.00,0.0248
3123.00,0.0247
3122.00,0.0246
3121.00,0.0245
3120.00,0.0245
3119.00,0.0244
3118.00,0.0244
3117.00,0.0244
3116.00,0.0244
3115.00,0.0245
3114.00,0.0245
3113.00,0.0245
3112.00,0.0245
3111.00,0.0245
3110.00,0.0245
3109.00,0.0245
3108.00,0.0245
3107.00,0.0246
3106.00,0.0246
3105.00,0.0247
3104.00,0.0247
3103.00,0.0247
3102.00,0.0247
3101.00,0.0247
3100.00,0.0247
3099.00,0.0247
3098.00,0.0248
3097.00,0.0249
3096.00,0.0249
3095.00,0.0250
3094.00,0.0250
3093.00,0.0250
3092.00,0.0250
3091.00,0.0250
3090.00,0.0250
3089.00,0.0250
3088.00,0.0251
3087.00,0.0251
3086.00,0.0251
3085.00,0.0251
3084.00,0.0251
3083.00,0.0251
3082.00,0.0251
3081.00,0.0251
3080.00,0.0251
3079.00,0.0251
3078.00,0.0252
3077.00,0.0253
3076.00,0.0254
3075.00,0.0255
3074.00,0.0255
3073.00,0.0255
3072.00,0.0255
3071.00,0.0254
3070.00,0.0253
3069.00,0.0253
3068.00,0.0252
3067.00,0.0252
3066.00,0.0252
3065.00,0.0253
3064.00,0.0253
3063.00,0.0253
3062.00,0.0252
3061.00,0.0252
3060.00,0.0251
3059.00,0.0250
3058.00,0.0249
3057.00,0.0248
3056.00,0.0247
3055.00,0.0246
3054.00,0.0244
3053.00,0.0243
3052.00,0.0242
3051.00,0.0241
3050.00,0.0240
3049.00,0.0240
3048.00,0.0239
3047.00,0.0237
3046.00,0.0236
3045.00,0.0234
3044.00,0.0233
3043.00,0.0232
3042.00,0.0231
3041.00,0.0231
3040.00,0.0231
3039.00,0.0230
3038.00,0.0229
3037.00,0.0228
3036.00,0.0227
3035.00,0.0225
3034.00,0.0224
3033.00,0.0224
3032.00,0.0223
3031.00,0.0223
3030.00,0.0222
3029.00,0.0222
3028.00,0.0221
3027.00,0.0220
3026.00,0.0218
3025.00,0.0217
3024.00,0.0216
3023.00,0.0215
3022.00,0.0214
3021.00,0.0213
3020.00,0.0211
3019.00,0.0210
3018.00,0.0209
3017.00,0.0208
3016.00,0.0206
3015.00,0.0205
3014.00,0.0205
3013.00,0.0204
3012.00,0.0204
3011.00,0.0204
3010.00,0.0204
3009.00,0.0205
3008.00,0.0205
3007.00,0.0204
3006.00,0.0204
3005.00,0.0204
3004.00,0.0203
3003.00,0.0203
3002.00,0.0203
3001.00,0.0203
3000.00,0.0203
2999.00,0.0203
2998.00,0.0203
2997.00,0.0204
2996.00,0.0204
2995.00,0.0205
2994.00,0.0206
2993.00,0.0207
2992.00,0.0209
2991.00,0.0211
2990.00,0.0213
2989.00,0.0215
2988.00,0.0218
2987.00,0.0221
2986.00,0.0223
2985.00,0.0226
2984.00,0.0228
2983.00,0.0231
2982.00,0.0234
2981.00,0.0238
2980.00,0.0242
2979.00,0.0246
2978.00,0.0250
2977.00,0.0255
2976.00,0.0259
2975.00,0.0263
2974.00,0.0267
2973.00,0.0272
2972.00,0.0276
2971.00,0.0280
2970.00,0.0284
2969.00,0.0288
2968.00,0.0291
2967.00,0.0294
2966.00,0.0297
2965.00,0.0300
2964.00,0.0302
2963.00,0.0304
2962.00,0.0305
2961.00,0.0306
2960.00,0.0306
2959.00,0.0306
2958.00,0.0305
2957.00,0.0304
2956.00,0.0302
2955.00,0.0300
2954.00,0.0298
2953.00,0.0296
2952.00,0.0294
2951.00,0.0293
2950.00,0.0291
2949.00,0.0290
2948.00,0.0289
2947.00,0.0289
2946.00,0.0290
2945.00,0.0291
2944.00,0.0293
2943.00,0.0295
2942.00,0.0298
2941.00,0.0301
2940.00,0.0305
2939.00,0.0308
2938.00,0.0312
2937.00,0.0315
2936.00,0.0319
2935.00,0.0322
2934.00,0.0325
2933.00,0.0327
2932.00,0.0329
2931.00,0.0331
2930.00,0.0333
2929.00,0.0334
2928.00,0.0335
2927.00,0.0335
2926.00,0.0335
2925.00,0.0335
2924.00,0.0334
2923.00,0.0333
2922.00,0.0331
2921.00,0.0328
2920.00,0.0324
2919.00,0.0321
2918.00,0.0316
2917.00,0.0312
2916.00,0.0307
2915.00,0.0302
2914.00,0.0298
2913.00,0.0293
2912.00,0.0289
2911.00,0.0285
2910.00,0.0281
2909.00,0.0278
2908.00,0.0274
2907.00,0.0271
2906.00,0.0268
2905.00,0.0265
2904.00,0.0263
2903.00,0.0260
2902.00,0.0258
2901.00,0.0256
2900.00,0.0254
2899.00,0.0251
2898.00,0.0249
2897.00,0.0247
2896.00,0.0246
2895.00,0.0244
2894.00,0.0243
2893.00,0.0241
2892.00,0.0240
2891.00,0.0239
2890.00,0.0238
2889.00,0.0237
2888.00,0.0237
2887.00,0.0237
2886.00,0.0236
2885.00,0.0237
2884.00,0.0237
2883.00,0.0238
2882.00,0.0238
2881.00,0.0240
2880.00,0.0241
2879.00,0.0242
2878.00,0.0243
2877.00,0.0244
2876.00,0.0244
2875.00,0.0244
2874.00,0.0244
2873.00,0.0244
2872.00,0.0244
2871.00,0.0243
2870.00,0.0241
2869.00,0.0240
2868.00,0.0238
2867.00,0.0236
2866.00,0.0234
2865.00,0.0232
2864.00,0.0231
2863.00,0.0230
2862.00,0.0229
2861.00,0.0229
2860.00,0.0229
2859.00,0.0229
2858.00,0.0230
2857.00,0.0230
2856.00,0.0230
2855.00,0.0230
2854.00,0.0229
2853.00,0.0228
2852.00,0.0226
2851.00,0.0223
2850.00,0.0219
2849.00,0.0215
2848.00,0.0211
2847.00,0.0206
2846.00,0.0202
2845.00,0.0198
2844.00,0.0194
2843.00,0.0190
2842.00,0.0186
2841.00,0.0183
2840.00,0.0181
2839.00,0.0178
2838.00,0.0176
2837.00,0.0175
2836.00,0.0173
2835.00,0.0172
2834.00,0.0171
2833.00,0.0169
2832.00,0.0168
2831.00,0.0167
2830.00,0.0166
2829.00,0.0165
2828.00,0.0164
2827.00,0.0163
2826.00,0.0162
2825.00,0.0162
2824.00,0.0161
2823.00,0.0160
2822.00,0.0159
2821.00,0.0159
2820.00,0.0158
2819.00,0.0157
2818.00,0.0157
2817.00,0.0156
2816.00,0.0155
2815.00,0.0155
2814.00,0.0154
2813.00,0.0153
2812.00,0.0153
2811.00,0.0152
2810.00,0.0151
2809.00,0.0151
2808.00,0.0150
2807.00,0.0150
2806.00,0.0149
2805.00,0.0149
2804.00,0.0148
2803.00,0.0148
2802.00,0.0147
2801.00,0.0146
2800.00,0.0146
2799.00,0.0145
2798.00,0.0145
2797.00,0.0144
2796.00,0.0144
2795.00,0.0143
2794.00,0.0143
2793.00,0.0142
2792.00,0.0142
2791.00,0.0141
2790.00,0.0140
2789.00,0.0140
2788.00,0.0140
2787.00,0.0139
2786.00,0.0139
2785.00,0.0138
2784.00,0.0138
2783.00,0.0138
2782.00,0.0137
2781.00,0.0137
2780.00,0.0136
2779.00,0.0136
2778.00,0.0135
2777.00,0.0134
2776.00,0.0134
2775.00,0.0133
2774.00,0.0133
2773.00,0.0133
2772.00,0.0132
2771.00,0.0132
2770.00,0.0132
2769.00,0.0131
2768.00,0.0131
2767.00,0.0130
2766.00,0.0130
2765.00,0.0129
2764.00,0.0129
2763.00,0.0128
2762.00,0.0128
2761.00,0.0127
2760.00,0.0127
2759.00,0.0126
2758.00,0.0126
2757.00,0.0126
2756.00,0.0125
2755.00,0.0125
2754.00,0.0124
2753.00,0.0124
2752.00,0.0124
2751.00,0.0123
2750.00,0.0123
2749.00,0.0122
2748.00,0.0122
2747.00,0.0121
2746.00,0.0121
2745.00,0.0121
2744.00,0.0120
2743.00,0.0120
2742.00,0.0120
2741.00,0.0119
2740.00,0.0119
2739.00,0.0119
2738.00,0.0118
2737.00,0.0118
2736.00,0.0117
2735.00,0.0117
2734.00,0.0116
2733.00,0.0116
2732.00,0.0116
2731.00,0.0115
2730.00,0.0115
2729.00,0.0114
2728.00,0.0114
2727.00,0.0113
2726.00,0.0113
2725.00,0.0112
2724.00,0.0112
2723.00,0.0111
2722.00,0.0111
2721.00,0.0110
2720.00,0.0110
2719.00,0.0109
2718.00,0.0109
2717.00,0.0109
2716.00,0.0108
2715.00,0.0108
2714.00,0.0107
2713.00,0.0107
2712.00,0.0107
2711.00,0.0106
2710.00,0.0106
2709.00,0.0105
2708.00,0.0105
2707.00,0.0105
2706.00,0.0104
2705.00,0.0104
2704.00,0.0104
2703.00,0.0104
2702.00,0.0103
2701.00,0.0103
2700.00,0.0103
2699.00,0.0102
2698.00,0.0102
2697.00,0.0102
2696.00,0.0101
2695.00,0.0101
2694.00,0.0101
2693.00,0.0101
2692.00,0.0101
2691.00,0.0100
2690.00,0.0100
2689.00,0.0100
2688.00,0.0100
2687.00,0.0100
2686.00,0.0099
2685.00,0.0099
2684.00,0.0099
2683.00,0.0098
2682.00,0.0098
2681.00,0.0098
2680.00,0.0098
2679.00,0.0097
2678.00,0.0097
2677.00,0.0097
2676.00,0.0097
2675.00,0.0097
2674.00,0.0096
2673.00,0.0096
2672.00,0.0096
2671.00,0.0096
2670.00,0.0096
2669.00,0.0095
2668.00,0.0095
2667.00,0.0095
2666.00,0.0095
2665.00,0.0095
2664.00,0.0095
2663.00,0.0094
2662.00,0.0094
2661.00,0.0094
2660.00,0.0094
2659.00,0.0093
2658.00,0.0093
2657.00,0.0093
2656.00,0.0093
2655.00,0.0093
2654.00,0.0093
2653.00,0.0092
2652.00,0.0092
2651.00,0.0092
2650.00,0.0092
2649.00,0.0092
2648.00,0.0092
2647.00,0.0092
2646.00,0.0091
2645.00,0.0091
2644.00,0.0091
2643.00,0.0091
2642.00,0.0091
2641.00,0.0091
2640.00,0.0090
2639.00,0.0090
2638.00,0.0090
2637.00,0.0090
2636.00,0.0090
2635.00,0.0090
2634.00,0.0090
2633.00,0.0090
2632.00,0.0089
2631.00,0.0089
2630.00,0.0089
2629.00,0.0089
2628.00,0.0089
2627.00,0.0089
2626.00,0.0088
2625.00,0.0088
2624.00,0.0088
2623.00,0.0088
2622.00,0.0088
2621.00,0.0088
2620.00,0.0088
2619.00,0.0088
2618.00,0.0087
2617.00,0.0087
2616.00,0.0087
2615.00,0.0087
2614.00,0.0087
2613.00,0.0086
2612.00,0.0086
2611.00,0.0086
2610.00,0.0086
2609.00,0.0086
2608.00,0.0085
2607.00,0.0085
2606.00,0.0085
2605.00,0.0085
2604.00,0.0085
2603.00,0.0085
2602.00,0.0085
2601.00,0.0085
2600.00,0.0085
2599.00,0.0085
2598.00,0.0084
2597.00,0.0084
2596.00,0.0084
2595.00,0.0083
2594.00,0.0083
2593.00,0.0083
2592.00,0.0083
2591.00,0.0083
2590.00,0.0082
2589.00,0.0082
2588.00,0.0082
2587.00,0.0082
2586.00,0.0082
2585.00,0.0081
2584.00,0.0081
2583.00,0.0081
2582.00,0.0081
2581.00,0.0081
2580.00,0.0081
2579.00,0.0081
2578.00,0.0081
2577.00,0.0080
2576.00,0.0080
2575.00,0.0080
2574.00,0.0080
2573.00,0.0080
2572.00,0.0079
2571.00,0.0079
2570.00,0.0079
2569.00,0.0079
2568.00,0.0079
2567.00,0.0078
2566.00,0.0078
2565.00,0.0078
2564.00,0.0078
2563.00,0.0078
2562.00,0.0078
2561.00,0.0077
2560.00,0.0077
2559.00,0.0077
2558.00,0.0077
2557.00,0.0077
2556.00,0.0077
2555.00,0.0077
2554.00,0.0076
2553.00,0.0076
2552.00,0.0076
2551.00,0.0076
2550.00,0.0075
2549.00,0.0075
2548.00,0.0075
2547.00,0.0075
2546.00,0.0075
2545.00,0.0075
2544.00,0.0075
2543.00,0.0075
2542.00,0.0075
2541.00,0.0074
2540.00,0.0074
2539.00,0.0074
2538.00,0.0074
2537.00,0.0074
2536.00,0.0073
2535.00,0.0073
2534.00,0.0073
2533.00,0.0073
2532.00,0.0073
2531.00,0.0073
2530.00,0.0073
2529.00,0.0073
2528.00,0.0073
2527.00,0.0073
2526.00,0.0072
2525.00,0.0072
2524.00,0.0072
2523.00,0.0072
2522.00,0.0072
2521.00,0.0071
2520.00,0.0071
2519.00,0.0071
2518.00,0.0071
2517.00,0.0071
2516.00,0.0071
2515.00,0.0071
2514.00,0.0070
2513.00,0.0070
2512.00,0.0070
2511.00,0.0070
2510.00,0.0070
2509.00,0.0070
2508.00,0.0070
2507.00,0.0070
2506.00,0.0070
2505.00,0.0070
2504.00,0.0069
2503.00,0.0069
2502.00,0.0069
2501.00,0.0068
2500.00,0.0068
2499.00,0.0068
2498.00,0.0067
2497.00,0.0067
2496.00,0.0067
2495.00,0.0067
2494.00,0.0067
2493.00,0.0067
2492.00,0.0067
2491.00,0.0067
2490.00,0.0066
2489.00,0.0066
2488.00,0.0066
2487.00,0.0066
2486.00,0.0065
2485.00,0.0065
2484.00,0.0065
2483.00,0.0065
2482.00,0.0065
2481.00,0.0064
2480.00,0.0064
2479.00,0.0064
2478.00,0.0064
2477.00,0.0064
2476.00,0.0064
2475.00,0.0063
2474.00,0.0063
2473.00,0.0063
2472.00,0.0063
2471.00,0.0063
2470.00,0.0063
2469.00,0.0062
2468.00,0.0062
2467.00,0.0062
2466.00,0.0062
2465.00,0.0062
2464.00,0.0062
2463.00,0.0062
2462.00,0.0061
2461.00,0.0061
2460.00,0.0061
2459.00,0.0061
2458.00,0.0060
2457.00,0.0060
2456.00,0.0060
2455.00,0.0060
2454.00,0.0059
2453.00,0.0059
2452.00,0.0059
2451.00,0.0059
2450.00,0.0059
2449.00,0.0059
2448.00,0.0059
2447.00,0.0059
2446.00,0.0059
2445.00,0.0059
2444.00,0.0058
2443.00,0.0058
2442.00,0.0058
2441.00,0.0057
2440.00,0.0057
2439.00,0.0057
2438.00,0.0057
2437.00,0.0057
2436.00,0.0057
2435.00,0.0056
2434.00,0.0056
2433.00,0.0056
2432.00,0.0056
2431.00,0.0056
2430.00,0.0056
2429.00,0.0056
2428.00,0.0055
2427.00,0.0055
2426.00,0.0055
2425.00,0.0055
2424.00,0.0055
2423.00,0.0055
2422.00,0.0054
2421.00,0.0054
2420.00,0.0054
2419.00,0.0054
2418.00,0.0054
2417.00,0.0054
2416.00,0.0054
2415.00,0.0053
2414.00,0.0053
2413.00,0.0053
2412.00,0.0053
2411.00,0.0053
2410.00,0.0052
2409.00,0.0052
2408.00,0.0052
2407.00,0.0052
2406.00,0.0052
2405.00,0.0052
2404.00,0.0052
2403.00,0.0051
2402.00,0.0051
2401.00,0.0051
2400.00,0.0051
2399.00,0.0051
2398.00,0.0051
2397.00,0.0051
2396.00,0.0051
2395.00,0.0051
2394.00,0.0050
2393.00,0.0050
2392.00,0.0050
2391.00,0.0050
2390.00,0.0049
2389.00,0.0049
2388.00,0.0049
2387.00,0.0049
2386.00,0.0049
2385.00,0.0049
2384.00,0.0048
2383.00,0.0048
2382.00,0.0048
2381.00,0.0048
2380.00,0.0048
2379.00,0.0048
2378.00,0.0048
2377.00,0.0048
2376.00,0.0048
2375.00,0.0047
2374.00,0.0047
2373.00,0.0047
2372.00,0.0047
2371.00,0.0047
2370.00,0.0047
2369.00,0.0047
2368.00,0.0047
2367.00,0.0047
2366.00,0.0046
2365.00,0.0046
2364.00,0.0046
2363.00,0.0046
2362.00,0.0046
2361.00,0.0046
2360.00,0.0046
2359.00,0.0046
2358.00,0.0046
2357.00,0.0046
2356.00,0.0046
2355.00,0.0046
2354.00,0.0046
2353.00,0.0046
2352.00,0.0046
2351.00,0.0045
2350.00,0.0045
2349.00,0.0045
2348.00,0.0045
2347.00,0.0044
2346.00,0.0043
2345.00,0.0043
2344.00,0.0043
2343.00,0.0044
2342.00,0.0044
2341.00,0.0044
2340.00,0.0044
2339.00,0.0044
2338.00,0.0045
2337.00,0.0045
2336.00,0.0045
2335.00,0.0045
2334.00,0.0044
2333.00,0.0044
2332.00,0.0044
2331.00,0.0044
2330.00,0.0044
2329.00,0.0045
2328.00,0.0045
2327.00,0.0045
2326.00,0.0045
2325.00,0.0044
2324.00,0.0044
2323.00,0.0043
2322.00,0.0043
2321.00,0.0043
2320.00,0.0043
2319.00,0.0044
2318.00,0.0044
2317.00,0.0043
2316.00,0.0043
2315.00,0.0043
2314.00,0.0043
2313.00,0.0043
2312.00,0.0043
2311.00,0.0043
2310.00,0.0043
2309.00,0.0043
2308.00,0.0043
2307.00,0.0042
2306.00,0.0042
2305.00,0.0042
2304.00,0.0042
2303.00,0.0042
2302.00,0.0042
2301.00,0.0042
2300.00,0.0042
2299.00,0.0042
2298.00,0.0042
2297.00,0.0042
2296.00,0.0042
2295.00,0.0042
2294.00,0.0042
2293.00,0.0042
2292.00,0.0042
2291.00,0.0042
2290.00,0.0041
2289.00,0.0041
2288.00,0.0041
2287.00,0.0041
2286.00,0.0041
2285.00,0.0040
2284.00,0.0040
2283.00,0.0040
2282.00,0.0040
2281.00,0.0040
2280.00,0.0040
2279.00,0.0040
2278.00,0.0040
2277.00,0.0040
2276.00,0.0040
2275.00,0.0040
2274.00,0.0040
2273.00,0.0040
2272.00,0.0040
2271.00,0.0040
2270.00,0.0040
2269.00,0.0040
2268.00,0.0040
2267.00,0.0040
2266.00,0.0040
2265.00,0.0039
2264.00,0.0039
2263.00,0.0038
2262.00,0.0038
2261.00,0.0038
2260.00,0.0038
2259.00,0.0039
2258.00,0.0039
2257.00,0.0038
2256.00,0.0038
2255.00,0.0038
2254.00,0.0038
2253.00,0.0039
2252.00,0.0038
2251.00,0.0038
2250.00,0.0038
2249.00,0.0037
2248.00,0.0038
2247.00,0.0038
2246.00,0.0038
2245.00,0.0038
2244.00,0.0038
2243.00,0.0038
2242.00,0.0037
2241.00,0.0037
2240.00,0.0038
2239.00,0.0038
2238.00,0.0038
2237.00,0.0038
2236.00,0.0038
2235.00,0.0038
2234.00,0.0038
2233.00,0.0038
2232.00,0.0038
2231.00,0.0038
2230.00,0.0037
2229.00,0.0036
2228.00,0.0036
2227.00,0.0036
2226.00,0.0037
2225.00,0.0037
2224.00,0.0037
2223.00,0.0037
2222.00,0.0037
2221.00,0.0037
2220.00,0.0038
2219.00,0.0038
2218.00,0.0037
2217.00,0.0036
2216.00,0.0036
2215.00,0.0036
2214.00,0.0036
2213.00,0.0036
2212.00,0.0036
2211.00,0.0036
2210.00,0.0035
2209.00,0.0035
2208.00,0.0035
2207.00,0.0035
2206.00,0.0035
2205.00,0.0036
2204.00,0.0036
2203.00,0.0036
2202.00,0.0036
2201.00,0.0037
2200.00,0.0037
2199.00,0.0038
2198.00,0.0037
2197.00,0.0037
2196.00,0.0037
2195.00,0.0036
2194.00,0.0036
2193.00,0.0035
2192.00,0.0035
2191.00,0.0035
2190.00,0.0035
2189.00,0.0035
2188.00,0.0035
2187.00,0.0035
2186.00,0.0035
2185.00,0.0036
2184.00,0.0036
2183.00,0.0035
2182.00,0.0035
2181.00,0.0034
2180.00,0.0034
2179.00,0.0033
2178.00,0.0032
2177.00,0.0031
2176.00,0.0031
2175.00,0.0032
2174.00,0.0034
2173.00,0.0035
2172.00,0.0035
2171.00,0.0035
2170.00,0.0035
2169.00,0.0036
2168.00,0.0036
2167.00,0.0036
2166.00,0.0035
2165.00,0.0035
2164.00,0.0035
2163.00,0.0034
2162.00,0.0032
2161.00,0.0029
2160.00,0.0027
2159.00,0.0027
2158.00,0.0027
2157.00,0.0029
2156.00,0.0031
2155.00,0.0032
2154.00,0.0032
2153.00,0.0032
2152.00,0.0032
2151.00,0.0031
2150.00,0.0031
2149.00,0.0031
2148.00,0.0032
2147.00,0.0032
2146.00,0.0032
2145.00,0.0032
2144.00,0.0032
2143.00,0.0033
2142.00,0.0033
2141.00,0.0033
2140.00,0.0033
2139.00,0.0032
2138.00,0.0032
2137.00,0.0032
2136.00,0.0032
2135.00,0.0032
2134.00,0.0032
2133.00,0.0033
2132.00,0.0033
2131.00,0.0033
2130.00,0.0033
2129.00,0.0034
2128.00,0.0034
2127.00,0.0034
2126.00,0.0034
2125.00,0.0034
2124.00,0.0034
2123.00,0.0034
2122.00,0.0034
2121.00,0.0034
2120.00,0.0034
2119.00,0.0035
2118.00,0.0035
2117.00,0.0035
2116.00,0.0035
2115.00,0.0035
2114.00,0.0034
2113.00,0.0034
2112.00,0.0035
2111.00,0.0035
2110.00,0.0035
2109.00,0.0035
2108.00,0.0035
2107.00,0.0035
2106.00,0.0034
2105.00,0.0034
2104.00,0.0035
2103.00,0.0035
2102.00,0.0035
2101.00,0.0035
2100.00,0.0035
2099.00,0.0034
2098.00,0.0034
2097.00,0.0034
2096.00,0.0034
2095.00,0.0035
2094.00,0.0035
2093.00,0.0035
2092.00,0.0035
2091.00,0.0035
2090.00,0.0034
2089.00,0.0034
2088.00,0.0034
2087.00,0.0034
2086.00,0.0034
2085.00,0.0034
2084.00,0.0034
2083.00,0.0034
2082.00,0.0033
2081.00,0.0032
2080.00,0.0032
2079.00,0.0032
2078.00,0.0032
2077.00,0.0032
2076.00,0.0033
2075.00,0.0033
2074.00,0.0033
2073.00,0.0033
2072.00,0.0033
2071.00,0.0032
2070.00,0.0031
2069.00,0.0031
2068.00,0.0031
2067.00,0.0031
2066.00,0.0031
2065.00,0.0031
2064.00,0.0031
2063.00,0.0031
2062.00,0.0030
2061.00,0.0029
2060.00,0.0029
2059.00,0.0028
2058.00,0.0028
2057.00,0.0029
2056.00,0.0029
2055.00,0.0029
2054.00,0.0029
2053.00,0.0029
2052.00,0.0028
2051.00,0.0027
2050.00,0.0026
2049.00,0.0026
2048.00,0.0026
2047.00,0.0026
2046.00,0.0026
2045.00,0.0026
2044.00,0.0027
2043.00,0.0026
2042.00,0.0025
2041.00,0.0025
2040.00,0.0025
2039.00,0.0026
2038.00,0.0026
2037.00,0.0027
2036.00,0.0028
2035.00,0.0028
2034.00,0.0027
2033.00,0.0026
2032.00,0.0026
2031.00,0.0026
2030.00,0.0025
2029.00,0.0024
2028.00,0.0024
2027.00,0.0024
2026.00,0.0024
2025.00,0.0025
2024.00,0.0026
2023.00,0.0026
2022.00,0.0026
2021.00,0.0026
2020.00,0.0026
2019.00,0.0026
2018.00,0.0025
2017.00,0.0024
2016.00,0.0025
2015.00,0.0025
2014.00,0.0025
2013.00,0.0025
2012.00,0.0025
2011.00,0.0025
2010.00,0.0024
2009.00,0.0024
2008.00,0.0024
2007.00,0.0023
2006.00,0.0023
2005.00,0.0024
2004.00,0.0025
2003.00,0.0025
2002.00,0.0026
2001.00,0.0026
2000.00,0.0026
1999.00,0.0027
1998.00,0.0027
1997.00,0.0027
1996.00,0.0026
1995.00,0.0026
1994.00,0.0025
1993.00,0.0025
1992.00,0.0025
1991.00,0.0025
1990.00,0.0025
1989.00,0.0025
1988.00,0.0025
1987.00,0.0025
1986.00,0.0025
1985.00,0.0026
1984.00,0.0026
1983.00,0.0025
1982.00,0.0023
1981.00,0.0022
1980.00,0.0022
1979.00,0.0021
1978.00,0.0021
1977.00,0.0021
1976.00,0.0022
1975.00,0.0022
1974.00,0.0021
1973.00,0.0022
1972.00,0.0023
1971.00,0.0024
1970.00,0.0024
1969.00,0.0025
1968.00,0.0025
1967.00,0.0025
1966.00,0.0024
1965.00,0.0024
1964.00,0.0023
1963.00,0.0023
1962.00,0.0022
1961.00,0.0022
1960.00,0.0022
1959.00,0.0022
1958.00,0.0023
1957.00,0.0023
1956.00,0.0024
1955.00,0.0024
1954.00,0.0024
1953.00,0.0024
1952.00,0.0025
1951.00,0.0025
1950.00,0.0025
1949.00,0.0025
1948.00,0.0026
1947.00,0.0026
1946.00,0.0025
1945.00,0.0025
1944.00,0.0025
1943.00,0.0024
1942.00,0.0024
1941.00,0.0023
1940.00,0.0023
1939.00,0.0023
1938.00,0.0023
1937.00,0.0024
1936.00,0.0024
1935.00,0.0023
1934.00,0.0023
1933.00,0.0023
1932.00,0.0024
1931.00,0.0024
1930.00,0.0023
1929.00,0.0023
1928.00,0.0023
1927.00,0.0023
1926.00,0.0023
1925.00,0.0024
1924.00,0.0024
1923.00,0.0024
1922.00,0.0024
1921.00,0.0024
1920.00,0.0025
1919.00,0.0024
1918.00,0.0024
1917.00,0.0023
1916.00,0.0022
1915.00,0.0022
1914.00,0.0022
1913.00,0.0023
1912.00,0.0023
1911.00,0.0023
1910.00,0.0023
1909.00,0.0022
1908.00,0.0022
1907.00,0.0022
1906.00,0.0022
1905.00,0.0023
1904.00,0.0023
1903.00,0.0022
1902.00,0.0022
1901.00,0.0022
1900.00,0.0022
1899.00,0.0023
1898.00,0.0023
1897.00,0.0023
1896.00,0.0023
1895.00,0.0023
1894.00,0.0023
1893.00,0.0023
1892.00,0.0024
1891.00,0.0024
1890.00,0.0023
1889.00,0.0023
1888.00,0.0022
1887.00,0.0022
1886.00,0.0023
1885.00,0.0023
1884.00,0.0023
1883.00,0.0023
1882.00,0.0022
1881.00,0.0022
1880.00,0.0022
1879.00,0.0022
1878.00,0.0022
1877.00,0.0022
1876.00,0.0022
1875.00,0.0021
1874.00,0.0021
1873.00,0.0022
1872.00,0.0023
1871.00,0.0024
1870.00,0.0025
1869.00,0.0024
1868.00,0.0023
1867.00,0.0023
1866.00,0.0022
1865.00,0.0021
1864.00,0.0021
1863.00,0.0021
1862.00,0.0020
1861.00,0.0020
1860.00,0.0021
1859.00,0.0021
1858.00,0.0020
1857.00,0.0020
1856.00,0.0020
1855.00,0.0020
1854.00,0.0020
1853.00,0.0020
1852.00,0.0020
1851.00,0.0020
1850.00,0.0021
1849.00,0.0021
1848.00,0.0022
1847.00,0.0022
1846.00,0.0022
1845.00,0.0021
1844.00,0.0020
1843.00,0.0019
1842.00,0.0018
1841.00,0.0019
1840.00,0.0020
1839.00,0.0020
1838.00,0.0020
1837.00,0.0020
1836.00,0.0020
1835.00,0.0020
1834.00,0.0020
1833.00,0.0021
1832.00,0.0023
1831.00,0.0023
1830.00,0.0023
1829.00,0.0022
1828.00,0.0022
1827.00,0.0022
1826.00,0.0021
1825.00,0.0020
1824.00,0.0020
1823.00,0.0019
1822.00,0.0019
1821.00,0.0019
1820.00,0.0019
1819.00,0.0019
1818.00,0.0019
1817.00,0.0019
1816.00,0.0019
1815.00,0.0019
1814.00,0.0020
1813.00,0.0020
1812.00,0.0021
1811.00,0.0021
1810.00,0.0020
1809.00,0.0019
1808.00,0.0019
1807.00,0.0019
1806.00,0.0019
1805.00,0.0020
1804.00,0.0020
1803.00,0.0021
1802.00,0.0021
1801.00,0.0021
1800.00,0.0021
1799.00,0.0021
1798.00,0.0021
1797.00,0.0021
1796.00,0.0022
1795.00,0.0023
1794.00,0.0023
1793.00,0.0022
1792.00,0.0021
1791.00,0.0020
1790.00,0.0019
1789.00,0.0019
1788.00,0.0020
1787.00,0.0020
1786.00,0.0020
1785.00,0.0020
1784.00,0.0021
1783.00,0.0021
1782.00,0.0022
1781.00,0.0022
1780.00,0.0022
1779.00,0.0021
1778.00,0.0021
1777.00,0.0022
1776.00,0.0024
1775.00,0.0025
1774.00,0.0026
1773.00,0.0026
1772.00,0.0025
1771.00,0.0024
1770.00,0.0023
1769.00,0.0023
1768.00,0.0023
1767.00,0.0023
1766.00,0.0023
1765.00,0.0025
1764.00,0.0027
1763.00,0.0028
1762.00,0.0028
1761.00,0.0028
1760.00,0.0029
1759.00,0.0030
1758.00,0.0031
1757.00,0.0032
1756.00,0.0033
1755.00,0.0035
1754.00,0.0036
1753.00,0.0038
1752.00,0.0041
1751.00,0.0044
1750.00,0.0047
1749.00,0.0050
1748.00,0.0052
1747.00,0.0053
1746.00,0.0055
1745.00,0.0056
1744.00,0.0059
1743.00,0.0061
1742.00,0.0062
1741.00,0.0064
1740.00,0.0065
1739.00,0.0066
1738.00,0.0067
1737.00,0.0069
1736.00,0.0070
1735.00,0.0070
1734.00,0.0070
1733.00,0.0070
1732.00,0.0073
1731.00,0.0075
1730.00,0.0077
1729.00,0.0077
1728.00,0.0078
1727.00,0.0080
1726.00,0.0081
1725.00,0.0083
1724.00,0.0086
1723.00,0.0088
1722.00,0.0091
1721.00,0.0094
1720.00,0.0098
1719.00,0.0101
1718.00,0.0103
1717.00,0.0106
1716.00,0.0111
1715.00,0.0115
1714.00,0.0119
1713.00,0.0124
1712.00,0.0130
1711.00,0.0136
1710.00,0.0143
1709.00,0.0152
1708.00,0.0163
1707.00,0.0175
1706.00,0.0188
1705.00,0.0202
1704.00,0.0216
1703.00,0.0228
1702.00,0.0243
1701.00,0.0266
1700.00,0.0294
1699.00,0.0318
1698.00,0.0335
1697.00,0.0350
1696.00,0.0368
1695.00,0.0386
1694.00,0.0402
1693.00,0.0414
1692.00,0.0425
1691.00,0.0437
1690.00,0.0450
1689.00,0.0463
1688.00,0.0474
1687.00,0.0483
1686.00,0.0494
1685.00,0.0513
1684.00,0.0537
1683.00,0.0557
1682.00,0.0571
1681.00,0.0582
1680.00,0.0593
1679.00,0.0605
1678.00,0.0616
1677.00,0.0628
1676.00,0.0644
1675.00,0.0664
1674.00,0.0682
1673.00,0.0696
1672.00,0.0708
1671.00,0.0722
1670.00,0.0739
1669.00,0.0759
1668.00,0.0776
1667.00,0.0789
1666.00,0.0800
1665.00,0.0811
1664.00,0.0825
1663.00,0.0844
1662.00,0.0863
1661.00,0.0880
1660.00,0.0894
1659.00,0.0907
1658.00,0.0918
1657.00,0.0926
1656.00,0.0931
1655.00,0.0938
1654.00,0.0955
1653.00,0.0987
1652.00,0.1015
1651.00,0.1027
1650.00,0.1028
1649.00,0.1027
1648.00,0.1032
1647.00,0.1043
1646.00,0.1057
1645.00,0.1067
1644.00,0.1073
1643.00,0.1076
1642.00,0.1078
1641.00,0.1082
1640.00,0.1088
1639.00,0.1092
1638.00,0.1096
1637.00,0.1105
1636.00,0.1123
1635.00,0.1144
1634.00,0.1159
1633.00,0.1167
1632.00,0.1170
1631.00,0.1173
1630.00,0.1179
1629.00,0.1187
1628.00,0.1195
1627.00,0.1200
1626.00,0.1201
1625.00,0.1197
1624.00,0.1192
1623.00,0.1186
1622.00,0.1175
1621.00,0.1157
1620.00,0.1134
1619.00,0.1108
1618.00,0.1081
1617.00,0.1055
1616.00,0.1029
1615.00,0.1004
1614.00,0.0976
1613.00,0.0946
1612.00,0.0915
1611.00,0.0885
1610.00,0.0857
1609.00,0.0830
1608.00,0.0803
1607.00,0.0779
1606.00,0.0756
1605.00,0.0735
1604.00,0.0715
1603.00,0.0696
1602.00,0.0680
1601.00,0.0665
1600.00,0.0651
1599.00,0.0638
1598.00,0.0627
1597.00,0.0617
1596.00,0.0607
1595.00,0.0598
1594.00,0.0590
1593.00,0.0583
1592.00,0.0575
1591.00,0.0568
1590.00,0.0563
1589.00,0.0558
1588.00,0.0554
1587.00,0.0550
1586.00,0.0548
1585.00,0.0547
1584.00,0.0546
1583.00,0.0545
1582.00,0.0547
1581.00,0.0548
1580.00,0.0549
1579.00,0.0549
1578.00,0.0551
1577.00,0.0556
1576.00,0.0564
1575.00,0.0573
1574.00,0.0580
1573.00,0.0584
1572.00,0.0587
1571.00,0.0594
1570.00,0.0604
1569.00,0.0616
1568.00,0.0625
1567.00,0.0632
1566.00,0.0640
1565.00,0.0649
1564.00,0.0657
1563.00,0.0663
1562.00,0.0667
1561.00,0.0673
1560.00,0.0689
1559.00,0.0717
1558.00,0.0743
1557.00,0.0757
1556.00,0.0763
1555.00,0.0770
1554.00,0.0781
1553.00,0.0794
1552.00,0.0806
1551.00,0.0818
1550.00,0.0831
1549.00,0.0845
1548.00,0.0855
1547.00,0.0865
1546.00,0.0875
1545.00,0.0887
1544.00,0.0900
1543.00,0.0910
1542.00,0.0921
1541.00,0.0936
1540.00,0.0954
1539.00,0.0972
1538.00,0.0984
1537.00,0.0988
1536.00,0.0988
1535.00,0.0990
1534.00,0.1000
1533.00,0.1013
1532.00,0.1022
1531.00,0.1027
1530.00,0.1029
1529.00,0.1032
1528.00,0.1036
1527.00,0.1042
1526.00,0.1048
1525.00,0.1053
1524.00,0.1054
1523.00,0.1055
1522.00,0.1062
1521.00,0.1074
1520.00,0.1085
1519.00,0.1090
1518.00,0.1093
1517.00,0.1098
1516.00,0.1102
1515.00,0.1101
1514.00,0.1096
1513.00,0.1087
1512.00,0.1078
1511.00,0.1068
1510.00,0.1055
1509.00,0.1040
1508.00,0.1027
1507.00,0.1017
1506.00,0.1007
1505.00,0.0994
1504.00,0.0977
1503.00,0.0957
1502.00,0.0936
1501.00,0.0917
1500.00,0.0898
1499.00,0.0881
1498.00,0.0863
1497.00,0.0844
1496.00,0.0826
1495.00,0.0808
1494.00,0.0789
1493.00,0.0769
1492.00,0.0749
1491.00,0.0729
1490.00,0.0711
1489.00,0.0693
1488.00,0.0674
1487.00,0.0655
1486.00,0.0637
1485.00,0.0620
1484.00,0.0605
1483.00,0.0591
1482.00,0.0579
1481.00,0.0568
1480.00,0.0559
1479.00,0.0552
1478.00,0.0547
1477.00,0.0544
1476.00,0.0542
1475.00,0.0543
1474.00,0.0545
1473.00,0.0551
1472.00,0.0558
1471.00,0.0565
1470.00,0.0568
1469.00,0.0570
1468.00,0.0570
1467.00,0.0570
1466.00,0.0570
1465.00,0.0572
1464.00,0.0573
1463.00,0.0573
1462.00,0.0572
1461.00,0.0571
1460.00,0.0571
1459.00,0.0573
1458.00,0.0577
1457.00,0.0586
1456.00,0.0594
1455.00,0.0599
1454.00,0.0599
1453.00,0.0597
1452.00,0.0595
1451.00,0.0594
1450.00,0.0593
1449.00,0.0592
1448.00,0.0591
1447.00,0.0591
1446.00,0.0588
1445.00,0.0585
1444.00,0.0582
1443.00,0.0579
1442.00,0.0576
1441.00,0.0572
1440.00,0.0568
1439.00,0.0563
1438.00,0.0558
1437.00,0.0553
1436.00,0.0549
1435.00,0.0544
1434.00,0.0538
1433.00,0.0530
1432.00,0.0522
1431.00,0.0516
1430.00,0.0510
1429.00,0.0505
1428.00,0.0501
1427.00,0.0498
1426.00,0.0496
1425.00,0.0495
1424.00,0.0495
1423.00,0.0496
1422.00,0.0496
1421.00,0.0496
1420.00,0.0499
1419.00,0.0506
1418.00,0.0512
1417.00,0.0516
1416.00,0.0519
1415.00,0.0522
1414.00,0.0525
1413.00,0.0528
1412.00,0.0532
1411.00,0.0537
1410.00,0.0542
1409.00,0.0546
1408.00,0.0551
1407.00,0.0556
1406.00,0.0561
1405.00,0.0567
1404.00,0.0573
1403.00,0.0577
1402.00,0.0581
1401.00,0.0584
1400.00,0.0589
1399.00,0.0594
1398.00,0.0599
1397.00,0.0602
1396.00,0.0604
1395.00,0.0607
1394.00,0.0610
1393.00,0.0612
1392.00,0.0613
1391.00,0.0613
1390.00,0.0612
1389.00,0.0611
1388.00,0.0611
1387.00,0.0611
1386.00,0.0610
1385.00,0.0606
1384.00,0.0601
1383.00,0.0596
1382.00,0.0591
1381.00,0.0585
1380.00,0.0580
1379.00,0.0575
1378.00,0.0570
1377.00,0.0565
1376.00,0.0559
1375.00,0.0555
1374.00,0.0550
1373.00,0.0546
1372.00,0.0542
1371.00,0.0539
1370.00,0.0536
1369.00,0.0532
1368.00,0.0528
1367.00,0.0523
1366.00,0.0517
1365.00,0.0510
1364.00,0.0504
1363.00,0.0498
1362.00,0.0492
1361.00,0.0486
1360.00,0.0481
1359.00,0.0476
1358.00,0.0472
1357.00,0.0469
1356.00,0.0466
1355.00,0.0463
1354.00,0.0461
1353.00,0.0460
1352.00,0.0458
1351.00,0.0457
1350.00,0.0456
1349.00,0.0455
1348.00,0.0455
1347.00,0.0454
1346.00,0.0454
1345.00,0.0454
1344.00,0.0453
1343.00,0.0453
1342.00,0.0453
1341.00,0.0453
1340.00,0.0452
1339.00,0.0452
1338.00,0.0451
1337.00,0.0449
1336.00,0.0447
1335.00,0.0446
1334.00,0.0444
1333.00,0.0442
1332.00,0.0441
1331.00,0.0440
1330.00,0.0439
1329.00,0.0439
1328.00,0.0439
1327.00,0.0439
1326.00,0.0439
1325.00,0.0439
1324.00,0.0439
1323.00,0.0440
1322.00,0.0442
1321.00,0.0443
1320.00,0.0444
1319.00,0.0446
1318.00,0.0448
1317.00,0.0449
1316.00,0.0450
1315.00,0.0452
1314.00,0.0453
1313.00,0.0454
1312.00,0.0455
1311.00,0.0455
1310.00,0.0456
1309.00,0.0456
1308.00,0.0456
1307.00,0.0456
1306.00,0.0456
1305.00,0.0455
1304.00,0.0455
1303.00,0.0455
1302.00,0.0455
1301.00,0.0455
1300.00,0.0455
1299.00,0.0455
1298.00,0.0455
1297.00,0.0455
1296.00,0.0456
1295.00,0.0456
1294.00,0.0457
1293.00,0.0458
1292.00,0.0459
1291.00,0.0460
1290.00,0.0461
1289.00,0.0463
1288.00,0.0464
1287.00,0.0466
1286.00,0.0467
1285.00,0.0468
1284.00,0.0468
1283.00,0.0469
1282.00,0.0470
1281.00,0.0471
1280.00,0.0471
1279.00,0.0472
1278.00,0.0472
1277.00,0.0472
1276.00,0.0472
1275.00,0.0473
1274.00,0.0473
1273.00,0.0474
1272.00,0.0475
1271.00,0.0476
1270.00,0.0478
1269.00,0.0480
1268.00,0.0481
1267.00,0.0484
1266.00,0.0487
1265.00,0.0490
1264.00,0.0494
1263.00,0.0498
1262.00,0.0503
1261.00,0.0507
1260.00,0.0512
1259.00,0.0518
1258.00,0.0523
1257.00,0.0528
1256.00,0.0534
1255.00,0.0539
1254.00,0.0545
1253.00,0.0550
1252.00,0.0556
1251.00,0.0562
1250.00,0.0567
1249.00,0.0573
1248.00,0.0578
1247.00,0.0584
1246.00,0.0589
1245.00,0.0594
1244.00,0.0599
1243.00,0.0603
1242.00,0.0607
1241.00,0.0611
1240.00,0.0615
1239.00,0.0618
1238.00,0.0622
1237.00,0.0624
1236.00,0.0627
1235.00,0.0629
1234.00,0.0631
1233.00,0.0633
1232.00,0.0634
1231.00,0.0634
1230.00,0.0635
1229.00,0.0634
1228.00,0.0634
1227.00,0.0632
1226.00,0.0631
1225.00,0.0629
1224.00,0.0626
1223.00,0.0624
1222.00,0.0620
1221.00,0.0617
1220.00,0.0613
1219.00,0.0608
1218.00,0.0603
1217.00,0.0598
1216.00,0.0592
1215.00,0.0586
1214.00,0.0580
1213.00,0.0573
1212.00,0.0566
1211.00,0.0558
1210.00,0.0551
1209.00,0.0543
1208.00,0.0535
1207.00,0.0528
1206.00,0.0520
1205.00,0.0512
1204.00,0.0505
1203.00,0.0497
1202.00,0.0490
1201.00,0.0483
1200.00,0.0476
1199.00,0.0470
1198.00,0.0464
1197.00,0.0459
1196.00,0.0453
1195.00,0.0448
1194.00,0.0444
1193.00,0.0440
1192.00,0.0436
1191.00,0.0432
1190.00,0.0429
1189.00,0.0426
1188.00,0.0423
1187.00,0.0420
1186.00,0.0418
1185.00,0.0416
1184.00,0.0414
1183.00,0.0412
1182.00,0.0411
1181.00,0.0410
1180.00,0.0409
1179.00,0.0410
1178.00,0.0411
1177.00,0.0412
1176.00,0.0415
1175.00,0.0417
1174.00,0.0420
1173.00,0.0423
1172.00,0.0426
1171.00,0.0428
1170.00,0.0430
1169.00,0.0432
1168.00,0.0433
1167.00,0.0435
1166.00,0.0438
1165.00,0.0440
1164.00,0.0443
1163.00,0.0445
1162.00,0.0448
1161.00,0.0450
1160.00,0.0451
1159.00,0.0452
1158.00,0.0453
1157.00,0.0453
1156.00,0.0452
1155.00,0.0451
1154.00,0.0450
1153.00,0.0448
1152.00,0.0445
1151.00,0.0443
1150.00,0.0440
1149.00,0.0437
1148.00,0.0434
1147.00,0.0431
1146.00,0.0428
1145.00,0.0425
1144.00,0.0422
1143.00,0.0419
1142.00,0.0417
1141.00,0.0416
1140.00,0.0415
1139.00,0.0414
1138.00,0.0415
1137.00,0.0416
1136.00,0.0418
1135.00,0.0421
1134.00,0.0424
1133.00,0.0428
1132.00,0.0432
1131.00,0.0436
1130.00,0.0439
1129.00,0.0442
1128.00,0.0445
1127.00,0.0447
1126.00,0.0448
1125.00,0.0449
1124.00,0.0450
1123.00,0.0450
1122.00,0.0451
1121.00,0.0452
1120.00,0.0452
1119.00,0.0453
1118.00,0.0454
1117.00,0.0456
1116.00,0.0457
1115.00,0.0459
1114.00,0.0461
1113.00,0.0463
1112.00,0.0465
1111.00,0.0467
1110.00,0.0470
1109.00,0.0472
1108.00,0.0475
1107.00,0.0477
1106.00,0.0480
1105.00,0.0484
1104.00,0.0486
1103.00,0.0489
1102.00,0.0493
1101.00,0.0496
1100.00,0.0499
1099.00,0.0502
1098.00,0.0506
1097.00,0.0510
1096.00,0.0513
1095.00,0.0518
1094.00,0.0523
1093.00,0.0528
1092.00,0.0533
1091.00,0.0539
1090.00,0.0546
1089.00,0.0552
1088.00,0.0558
1087.00,0.0565
1086.00,0.0572
1085.00,0.0578
1084.00,0.0584
1083.00,0.0591
1082.00,0.0597
1081.00,0.0603
1080.00,0.0607
1079.00,0.0611
1078.00,0.0615
1077.00,0.0617
1076.00,0.0619
1075.00,0.0620
1074.00,0.0621
1073.00,0.0622
1072.00,0.0622
1071.00,0.0622
1070.00,0.0622
1069.00,0.0622
1068.00,0.0621
1067.00,0.0621
1066.00,0.0622
1065.00,0.0622
1064.00,0.0621
1063.00,0.0620
1062.00,0.0620
1061.00,0.0619
1060.00,0.0618
1059.00,0.0617
1058.00,0.0616
1057.00,0.0614
1056.00,0.0612
1055.00,0.0609
1054.00,0.0607
1053.00,0.0604
1052.00,0.0601
1051.00,0.0598
1050.00,0.0595
1049.00,0.0592
1048.00,0.0589
1047.00,0.0586
1046.00,0.0583
1045.00,0.0580
1044.00,0.0577
1043.00,0.0574
1042.00,0.0571
1041.00,0.0568
1040.00,0.0565
1039.00,0.0562
1038.00,0.0560
1037.00,0.0558
1036.00,0.0555
1035.00,0.0553
1034.00,0.0552
1033.00,0.0550
1032.00,0.0548
1031.00,0.0546
1030.00,0.0544
1029.00,0.0541
1028.00,0.0538
1027.00,0.0534
1026.00,0.0531
1025.00,0.0526
1024.00,0.0521
1023.00,0.0516
1022.00,0.0512
1021.00,0.0506
1020.00,0.0500
1019.00,0.0494
1018.00,0.0489
1017.00,0.0483
1016.00,0.0477
1015.00,0.0471
1014.00,0.0466
1013.00,0.0460
1012.00,0.0454
1011.00,0.0448
1010.00,0.0442
1009.00,0.0436
1008.00,0.0430
1007.00,0.0424
1006.00,0.0419
1005.00,0.0414
1004.00,0.0409
1003.00,0.0404
1002.00,0.0399
1001.00,0.0395
1000.00,0.0391
999.00,0.0387
998.00,0.0383
997.00,0.0379
996.00,0.0375
995.00,0.0371
994.00,0.0367
993.00,0.0363
992.00,0.0359
991.00,0.0355
990.00,0.0351
989.00,0.0347
988.00,0.0343
987.00,0.0339
986.00,0.0335
985.00,0.0332
984.00,0.0329
983.00,0.0326
982.00,0.0324
981.00,0.0322
980.00,0.0320
979.00,0.0319
978.00,0.0318
977.00,0.0318
976.00,0.0318
975.00,0.0318
974.00,0.0319
973.00,0.0320
972.00,0.0320
971.00,0.0321
970.00,0.0322
969.00,0.0323
968.00,0.0324
967.00,0.0324
966.00,0.0325
965.00,0.0326
964.00,0.0327
963.00,0.0328
962.00,0.0330
961.00,0.0332
960.00,0.0334
959.00,0.0337
958.00,0.0342
957.00,0.0346
956.00,0.0350
955.00,0.0355
954.00,0.0360
953.00,0.0365
952.00,0.0367
951.00,0.0369
950.00,0.0370
949.00,0.0369
948.00,0.0366
947.00,0.0363
946.00,0.0360
945.00,0.0356
944.00,0.0352
943.00,0.0348
942.00,0.0345
941.00,0.0343
940.00,0.0341
939.00,0.0340
938.00,0.0339
937.00,0.0338
936.00,0.0338
935.00,0.0337
934.00,0.0337
933.00,0.0336
932.00,0.0334
931.00,0.0333
930.00,0.0331
929.00,0.0330
928.00,0.0328
927.00,0.0327
926.00,0.0325
925.00,0.0324
924.00,0.0322
923.00,0.0320
922.00,0.0319
921.00,0.0317
920.00,0.0315
919.00,0.0313
918.00,0.0312
917.00,0.0310
916.00,0.0308
915.00,0.0307
914.00,0.0305
913.00,0.0304
912.00,0.0302
911.00,0.0300
910.00,0.0298
909.00,0.0297
908.00,0.0295
907.00,0.0293
906.00,0.0293
905.00,0.0292
904.00,0.0291
903.00,0.0290
902.00,0.0289
901.00,0.0289
900.00,0.0288
899.00,0.0287
898.00,0.0287
897.00,0.0287
896.00,0.0286
895.00,0.0286
894.00,0.0287
893.00,0.0287
892.00,0.0287
891.00,0.0287
890.00,0.0287
889.00,0.0288
888.00,0.0287
887.00,0.0287
886.00,0.0288
885.00,0.0288
884.00,0.0287
883.00,0.0287
882.00,0.0288
881.00,0.0288
880.00,0.0287
879.00,0.0287
878.00,0.0286
877.00,0.0286
876.00,0.0285
875.00,0.0284
874.00,0.0284
873.00,0.0283
872.00,0.0283
871.00,0.0283
870.00,0.0283
869.00,0.0283
868.00,0.0283
867.00,0.0283
866.00,0.0284
865.00,0.0285
864.00,0.0285
863.00,0.0286
862.00,0.0287
861.00,0.0289
860.00,0.0290
859.00,0.0292
858.00,0.0294
857.00,0.0296
856.00,0.0298
855.00,0.0300
854.00,0.0302
853.00,0.0304
852.00,0.0306
851.00,0.0307
850.00,0.0309
849.00,0.0310
848.00,0.0310
847.00,0.0311
846.00,0.0312
845.00,0.0313
844.00,0.0313
843.00,0.0315
842.00,0.0317
841.00,0.0319
840.00,0.0320
839.00,0.0323
838.00,0.0325
837.00,0.0328
836.00,0.0330
835.00,0.0333
834.00,0.0337
833.00,0.0340
832.00,0.0342
831.00,0.0344
830.00,0.0347
829.00,0.0348
828.00,0.0350
827.00,0.0351
826.00,0.0352
825.00,0.0353
824.00,0.0354
823.00,0.0355
822.00,0.0357
821.00,0.0360
820.00,0.0363
819.00,0.0366
818.00,0.0369
817.00,0.0372
816.00,0.0373
815.00,0.0374
814.00,0.0375
813.00,0.0375
812.00,0.0374
811.00,0.0373
810.00,0.0372
809.00,0.0372
808.00,0.0372
807.00,0.0372
806.00,0.0373
805.00,0.0374
804.00,0.0374
803.00,0.0375
802.00,0.0377
801.00,0.0379
800.00,0.0381
799.00,0.0382
798.00,0.0384
797.00,0.0386
796.00,0.0388
795.00,0.0389
794.00,0.0391
793.00,0.0394
792.00,0.0396
791.00,0.0399
790.00,0.0403
789.00,0.0406
788.00,0.0409
787.00,0.0412
786.00,0.0416
785.00,0.0420
784.00,0.0423
783.00,0.0425
782.00,0.0428
781.00,0.0430
780.00,0.0432
779.00,0.0433
778.00,0.0435
777.00,0.0436
776.00,0.0437
775.00,0.0438
774.00,0.0439
773.00,0.0440
772.00,0.0441
771.00,0.0442
770.00,0.0444
769.00,0.0446
768.00,0.0448
767.00,0.0449
766.00,0.0451
765.00,0.0453
764.00,0.0454
763.00,0.0455
762.00,0.0457
761.00,0.0459
760.00,0.0460
759.00,0.0462
758.00,0.0465
757.00,0.0468
756.00,0.0470
755.00,0.0473
754.00,0.0476
753.00,0.0479
752.00,0.0482
751.00,0.0485
750.00,0.0489
749.00,0.0492
748.00,0.0495
747.00,0.0498
746.00,0.0502
745.00,0.0504
744.00,0.0506
743.00,0.0509
742.00,0.0511
741.00,0.0513
740.00,0.0515
739.00,0.0516
738.00,0.0518
737.00,0.0520
736.00,0.0521
735.00,0.0523
734.00,0.0526
733.00,0.0529
732.00,0.0531
731.00,0.0534
730.00,0.0538
729.00,0.0543
728.00,0.0547
727.00,0.0552
726.00,0.0558
725.00,0.0563
724.00,0.0568
723.00,0.0573
722.00,0.0579
721.00,0.0585
720.00,0.0589
719.00,0.0594
718.00,0.0598
717.00,0.0603
716.00,0.0607
715.00,0.0611
714.00,0.0615
713.00,0.0620
712.00,0.0625
711.00,0.0631
710.00,0.0637
709.00,0.0644
708.00,0.0650
707.00,0.0656
706.00,0.0663
705.00,0.0671
704.00,0.0677
703.00,0.0684
702.00,0.0691
701.00,0.0697
700.00,0.0702
699.00,0.0705
698.00,0.0708
697.00,0.0710
696.00,0.0710
695.00,0.0710
694.00,0.0710
693.00,0.0710
692.00,0.0710
691.00,0.0709
690.00,0.0710
689.00,0.0711
688.00,0.0712
687.00,0.0713
686.00,0.0715
685.00,0.0717
684.00,0.0718
683.00,0.0720
682.00,0.0722
681.00,0.0724
680.00,0.0725
679.00,0.0727
678.00,0.0729
677.00,0.0731
676.00,0.0732
675.00,0.0734
674.00,0.0736
673.00,0.0738
672.00,0.0739
671.00,0.0739
670.00,0.0741
669.00,0.0746
668.00,0.0754
667.00,0.0760
666.00,0.0762
665.00,0.0762
664.00,0.0761
663.00,0.0762
662.00,0.0764
661.00,0.0766
660.00,0.0767
659.00,0.0769
658.00,0.0772
657.00,0.0774
656.00,0.0775
655.00,0.0776
654.00,0.0777
653.00,0.0779
652.00,0.0779
651.00,0.0781
650.00,0.0783
649.00,0.0785
648.00,0.0786
647.00,0.0787
646.00,0.0789
645.00,0.0790
644.00,0.0791
643.00,0.0792
642.00,0.0794
641.00,0.0796
640.00,0.0796
639.00,0.0798
638.00,0.0800
637.00,0.0801
636.00,0.0802
635.00,0.0803
634.00,0.0804
633.00,0.0806
632.00,0.0808
631.00,0.0810
630.00,0.0813
629.00,0.0816
628.00,0.0818
627.00,0.0820
626.00,0.0822
625.00,0.0825
624.00,0.0826
623.00,0.0828
622.00,0.0830
621.00,0.0832
620.00,0.0833
619.00,0.0833
618.00,0.0835
617.00,0.0836
616.00,0.0836
615.00,0.0836
614.00,0.0837
613.00,0.0838
612.00,0.0838
611.00,0.0839
610.00,0.0840
609.00,0.0841
608.00,0.0840
607.00,0.0840
606.00,0.0841
605.00,0.0843
604.00,0.0843
603.00,0.0843
602.00,0.0845
601.00,0.0846
600.00,0.0847
599.00,0.0848
598.00,0.0850
597.00,0.0852
596.00,0.0853
595.00,0.0854
594.00,0.0856
593.00,0.0857
592.00,0.0858
591.00,0.0859
590.00,0.0862
589.00,0.0864
588.00,0.0865
587.00,0.0866
586.00,0.0868
585.00,0.0870
584.00,0.0870
583.00,0.0872
582.00,0.0875
581.00,0.0877
580.00,0.0878
579.00,0.0880
578.00,0.0883
577.00,0.0885
576.00,0.0886
575.00,0.0887
574.00,0.0889
573.00,0.0891
572.00,0.0891
571.00,0.0893
570.00,0.0897
569.00,0.0900
568.00,0.0901
567.00,0.0902
566.00,0.0903
565.00,0.0904
564.00,0.0905
563.00,0.0907
562.00,0.0910
561.00,0.0912
560.00,0.0913
559.00,0.0914
558.00,0.0918
557.00,0.0920
556.00,0.0921
555.00,0.0922
554.00,0.0924
553.00,0.0927
552.00,0.0928
551.00,0.0929
550.00,0.0931
549.00,0.0933
548.00,0.0933
547.00,0.0934
546.00,0.0936
545.00,0.0938
544.00,0.0937
543.00,0.0938
542.00,0.0941
541.00,0.0944
540.00,0.0945
539.00,0.0945
538.00,0.0947
537.00,0.0948
536.00,0.0947
535.00,0.0947
534.00,0.0949
533.00,0.0950
532.00,0.0950
531.00,0.0950
530.00,0.0951
529.00,0.0952
528.00,0.0951
527.00,0.0952
526.00,0.0955
525.00,0.0957
524.00,0.0957
523.00,0.0956
522.00,0.0956
521.00,0.0957
520.00,0.0956
519.00,0.0957
518.00,0.0959
517.00,0.0960
516.00,0.0959
515.00,0.0956
514.00,0.0956
513.00,0.0955
512.00,0.0953
511.00,0.0952
510.00,0.0954
509.00,0.0954
508.00,0.0951
507.00,0.0949
506.00,0.0948
505.00,0.0948
504.00,0.0945
503.00,0.0943
502.00,0.0945
501.00,0.0945
500.00,0.0943
499.00,0.0940
498.00,0.0940
497.00,0.0940
496.00,0.0939
495.00,0.0939
494.00,0.0941
493.00,0.0944
492.00,0.0943
491.00,0.0942
490.00,0.0942
489.00,0.0940
488.00,0.0936
487.00,0.0933
486.00,0.0933
485.00,0.0933
484.00,0.0930
483.00,0.0928
482.00,0.0929
481.00,0.0929
480.00,0.0926
479.00,0.0923
478.00,0.0922
477.00,0.0921
476.00,0.0917
475.00,0.0914
474.00,0.0916
473.00,0.0917
472.00,0.0914
471.00,0.0912
470.00,0.0913
469.00,0.0914
468.00,0.0912
467.00,0.0911
466.00,0.0913
465.00,0.0912
464.00,0.0907
463.00,0.0903
462.00,0.0904
461.00,0.0904
460.00,0.0901
459.00,0.0900
458.00,0.0904
457.00,0.0905
456.00,0.0900
455.00,0.0894
454.00,0.0893
453.00,0.0894
452.00,0.0891
451.00,0.0889
450.00,0.0888
449.00,0.0886
448.00,0.0878
447.00,0.0872
446.00,0.0872
445.00,0.0872
444.00,0.0868
443.00,0.0866
442.00,0.0868
441.00,0.0869
440.00,0.0864
439.00,0.0860
438.00,0.0860
437.00,0.0860
436.00,0.0854
435.00,0.0851
434.00,0.0854
433.00,0.0857
432.00,0.0855
431.00,0.0853
430.00,0.0857
429.00,0.0859
428.00,0.0856
427.00,0.0856
426.00,0.0863
425.00,0.0866
424.00,0.0860
423.00,0.0853
422.00,0.0854
421.00,0.0855
420.00,0.0849
419.00,0.0846
418.00,0.0852
417.00,0.0855
416.00,0.0847
415.00,0.0840
414.00,0.0842
413.00,0.0843
412.00,0.0834
411.00,0.0826
410.00,0.0825
409.00,0.0823
408.00,0.0813
407.00,0.0807
406.00,0.0814
405.00,0.0817
404.00,0.0807
403.00,0.0798
402.00,0.0804
401.00,0.0808
400.00,0.0800
