Created as New Dataset,Sample 281 By YargerLab Date Friday, July 26 2024
cm-1,A
4000.00,0.0068
3999.00,0.0068
3998.00,0.0068
3997.00,0.0068
3996.00,0.0068
3995.00,0.0068
3994.00,0.0068
3993.00,0.0068
3992.00,0.0068
3991.00,0.0068
3990.00,0.0068
3989.00,0.0068
3988.00,0.0068
3987.00,0.0068
3986.00,0.0068
3985.00,0.0068
3984.00,0.0068
3983.00,0.0068
3982.00,0.0068
3981.00,0.0068
3980.00,0.0067
3979.00,0.0067
3978.00,0.0067
3977.00,0.0067
3976.00,0.0067
3975.00,0.0067
3974.00,0.0067
3973.00,0.0068
3972.00,0.0067
3971.00,0.0067
3970.00,0.0067
3969.00,0.0067
3968.00,0.0067
3967.00,0.0067
3966.00,0.0067
3965.00,0.0067
3964.00,0.0067
3963.00,0.0067
3962.00,0.0067
3961.00,0.0067
3960.00,0.0067
3959.00,0.0066
3958.00,0.0066
3957.00,0.0066
3956.00,0.0066
3955.00,0.0066
3954.00,0.0066
3953.00,0.0066
3952.00,0.0066
3951.00,0.0066
3950.00,0.0066
3949.00,0.0067
3948.00,0.0067
3947.00,0.0067
3946.00,0.0067
3945.00,0.0066
3944.00,0.0066
3943.00,0.0066
3942.00,0.0066
3941.00,0.0066
3940.00,0.0066
3939.00,0.0066
3938.00,0.0066
3937.00,0.0066
3936.00,0.0066
3935.00,0.0066
3934.00,0.0066
3933.00,0.0066
3932.00,0.0066
3931.00,0.0066
3930.00,0.0066
3929.00,0.0066
3928.00,0.0066
3927.00,0.0066
3926.00,0.0066
3925.00,0.0066
3924.00,0.0066
3923.00,0.0066
3922.00,0.0066
3921.00,0.0066
3920.00,0.0066
3919.00,0.0066
3918.00,0.0065
3917.00,0.0065
3916.00,0.0065
3915.00,0.0065
3914.00,0.0065
3913.00,0.0065
3912.00,0.0065
3911.00,0.0065
3910.00,0.0065
3909.00,0.0065
3908.00,0.0065
3907.00,0.0064
3906.00,0.0064
3905.00,0.0064
3904.00,0.0064
3903.00,0.0065
3902.00,0.0065
3901.00,0.0065
3900.00,0.0065
3899.00,0.0065
3898.00,0.0065
3897.00,0.0064
3896.00,0.0064
3895.00,0.0064
3894.00,0.0064
3893.00,0.0064
3892.00,0.0064
3891.00,0.0064
3890.00,0.0064
3889.00,0.0064
3888.00,0.0064
3887.00,0.0064
3886.00,0.0064
3885.00,0.0064
3884.00,0.0064
3883.00,0.0064
3882.00,0.0064
3881.00,0.0064
3880.00,0.0064
3879.00,0.0064
3878.00,0.0064
3877.00,0.0064
3876.00,0.0064
3875.00,0.0064
3874.00,0.0064
3873.00,0.0064
3872.00,0.0064
3871.00,0.0064
3870.00,0.0064
3869.00,0.0064
3868.00,0.0064
3867.00,0.0063
3866.00,0.0063
3865.00,0.0063
3864.00,0.0063
3863.00,0.0063
3862.00,0.0063
3861.00,0.0063
3860.00,0.0063
3859.00,0.0063
3858.00,0.0063
3857.00,0.0063
3856.00,0.0063
3855.00,0.0063
3854.00,0.0063
3853.00,0.0063
3852.00,0.0063
3851.00,0.0063
3850.00,0.0063
3849.00,0.0063
3848.00,0.0062
3847.00,0.0062
3846.00,0.0062
3845.00,0.0062
3844.00,0.0062
3843.00,0.0063
3842.00,0.0063
3841.00,0.0063
3840.00,0.0063
3839.00,0.0063
3838.00,0.0063
3837.00,0.0063
3836.00,0.0063
3835.00,0.0063
3834.00,0.0062
3833.00,0.0062
3832.00,0.0062
3831.00,0.0062
3830.00,0.0062
3829.00,0.0062
3828.00,0.0062
3827.00,0.0062
3826.00,0.0062
3825.00,0.0062
3824.00,0.0062
3823.00,0.0062
3822.00,0.0062
3821.00,0.0062
3820.00,0.0062
3819.00,0.0062
3818.00,0.0062
3817.00,0.0062
3816.00,0.0062
3815.00,0.0062
3814.00,0.0062
3813.00,0.0061
3812.00,0.0061
3811.00,0.0061
3810.00,0.0061
3809.00,0.0061
3808.00,0.0061
3807.00,0.0061
3806.00,0.0062
3805.00,0.0062
3804.00,0.0061
3803.00,0.0061
3802.00,0.0062
3801.00,0.0061
3800.00,0.0061
3799.00,0.0061
3798.00,0.0061
3797.00,0.0061
3796.00,0.0061
3795.00,0.0061
3794.00,0.0061
3793.00,0.0061
3792.00,0.0061
3791.00,0.0061
3790.00,0.0061
3789.00,0.0061
3788.00,0.0061
3787.00,0.0061
3786.00,0.0061
3785.00,0.0061
3784.00,0.0061
3783.00,0.0061
3782.00,0.0060
3781.00,0.0060
3780.00,0.0060
3779.00,0.0060
3778.00,0.0060
3777.00,0.0060
3776.00,0.0060
3775.00,0.0060
3774.00,0.0060
3773.00,0.0060
3772.00,0.0060
3771.00,0.0060
3770.00,0.0060
3769.00,0.0061
3768.00,0.0060
3767.00,0.0060
3766.00,0.0060
3765.00,0.0060
3764.00,0.0060
3763.00,0.0060
3762.00,0.0060
3761.00,0.0060
3760.00,0.0060
3759.00,0.0060
3758.00,0.0060
3757.00,0.0060
3756.00,0.0060
3755.00,0.0060
3754.00,0.0060
3753.00,0.0060
3752.00,0.0060
3751.00,0.0060
3750.00,0.0060
3749.00,0.0060
3748.00,0.0060
3747.00,0.0060
3746.00,0.0060
3745.00,0.0060
3744.00,0.0060
3743.00,0.0060
3742.00,0.0060
3741.00,0.0060
3740.00,0.0060
3739.00,0.0060
3738.00,0.0060
3737.00,0.0060
3736.00,0.0060
3735.00,0.0060
3734.00,0.0060
3733.00,0.0060
3732.00,0.0060
3731.00,0.0059
3730.00,0.0059
3729.00,0.0059
3728.00,0.0059
3727.00,0.0059
3726.00,0.0059
3725.00,0.0059
3724.00,0.0059
3723.00,0.0059
3722.00,0.0059
3721.00,0.0059
3720.00,0.0059
3719.00,0.0059
3718.00,0.0059
3717.00,0.0059
3716.00,0.0059
3715.00,0.0059
3714.00,0.0059
3713.00,0.0059
3712.00,0.0059
3711.00,0.0059
3710.00,0.0059
3709.00,0.0059
3708.00,0.0058
3707.00,0.0058
3706.00,0.0058
3705.00,0.0058
3704.00,0.0058
3703.00,0.0058
3702.00,0.0058
3701.00,0.0058
3700.00,0.0058
3699.00,0.0058
3698.00,0.0058
3697.00,0.0058
3696.00,0.0058
3695.00,0.0058
3694.00,0.0058
3693.00,0.0058
3692.00,0.0058
3691.00,0.0058
3690.00,0.0058
3689.00,0.0058
3688.00,0.0058
3687.00,0.0058
3686.00,0.0058
3685.00,0.0058
3684.00,0.0058
3683.00,0.0058
3682.00,0.0058
3681.00,0.0057
3680.00,0.0057
3679.00,0.0057
3678.00,0.0057
3677.00,0.0057
3676.00,0.0057
3675.00,0.0057
3674.00,0.0057
3673.00,0.0057
3672.00,0.0057
3671.00,0.0057
3670.00,0.0057
3669.00,0.0057
3668.00,0.0057
3667.00,0.0057
3666.00,0.0057
3665.00,0.0057
3664.00,0.0057
3663.00,0.0057
3662.00,0.0057
3661.00,0.0057
3660.00,0.0057
3659.00,0.0057
3658.00,0.0057
3657.00,0.0057
3656.00,0.0057
3655.00,0.0058
3654.00,0.0058
3653.00,0.0058
3652.00,0.0058
3651.00,0.0059
3650.00,0.0059
3649.00,0.0059
3648.00,0.0059
3647.00,0.0059
3646.00,0.0059
3645.00,0.0059
3644.00,0.0059
3643.00,0.0059
3642.00,0.0059
3641.00,0.0059
3640.00,0.0060
3639.00,0.0060
3638.00,0.0060
3637.00,0.0060
3636.00,0.0061
3635.00,0.0061
3634.00,0.0061
3633.00,0.0062
3632.00,0.0062
3631.00,0.0062
3630.00,0.0062
3629.00,0.0062
3628.00,0.0062
3627.00,0.0062
3626.00,0.0062
3625.00,0.0063
3624.00,0.0063
3623.00,0.0064
3622.00,0.0064
3621.00,0.0064
3620.00,0.0064
3619.00,0.0064
3618.00,0.0064
3617.00,0.0064
3616.00,0.0064
3615.00,0.0065
3614.00,0.0065
3613.00,0.0065
3612.00,0.0065
3611.00,0.0065
3610.00,0.0065
3609.00,0.0065
3608.00,0.0066
3607.00,0.0066
3606.00,0.0066
3605.00,0.0067
3604.00,0.0067
3603.00,0.0067
3602.00,0.0067
3601.00,0.0067
3600.00,0.0067
3599.00,0.0068
3598.00,0.0068
3597.00,0.0068
3596.00,0.0068
3595.00,0.0068
3594.00,0.0068
3593.00,0.0069
3592.00,0.0069
3591.00,0.0069
3590.00,0.0070
3589.00,0.0070
3588.00,0.0070
3587.00,0.0070
3586.00,0.0070
3585.00,0.0070
3584.00,0.0070
3583.00,0.0071
3582.00,0.0071
3581.00,0.0071
3580.00,0.0071
3579.00,0.0072
3578.00,0.0072
3577.00,0.0072
3576.00,0.0072
3575.00,0.0072
3574.00,0.0073
3573.00,0.0073
3572.00,0.0073
3571.00,0.0073
3570.00,0.0074
3569.00,0.0074
3568.00,0.0074
3567.00,0.0075
3566.00,0.0074
3565.00,0.0074
3564.00,0.0075
3563.00,0.0075
3562.00,0.0075
3561.00,0.0075
3560.00,0.0076
3559.00,0.0076
3558.00,0.0076
3557.00,0.0076
3556.00,0.0077
3555.00,0.0077
3554.00,0.0077
3553.00,0.0078
3552.00,0.0078
3551.00,0.0078
3550.00,0.0079
3549.00,0.0079
3548.00,0.0079
3547.00,0.0080
3546.00,0.0080
3545.00,0.0080
3544.00,0.0080
3543.00,0.0080
3542.00,0.0080
3541.00,0.0080
3540.00,0.0081
3539.00,0.0081
3538.00,0.0081
3537.00,0.0082
3536.00,0.0082
3535.00,0.0082
3534.00,0.0082
3533.00,0.0082
3532.00,0.0083
3531.00,0.0083
3530.00,0.0083
3529.00,0.0084
3528.00,0.0084
3527.00,0.0084
3526.00,0.0084
3525.00,0.0085
3524.00,0.0085
3523.00,0.0085
3522.00,0.0085
3521.00,0.0085
3520.00,0.0085
3519.00,0.0086
3518.00,0.0086
3517.00,0.0086
3516.00,0.0087
3515.00,0.0087
3514.00,0.0087
3513.00,0.0087
3512.00,0.0088
3511.00,0.0088
3510.00,0.0088
3509.00,0.0088
3508.00,0.0088
3507.00,0.0088
3506.00,0.0089
3505.00,0.0089
3504.00,0.0089
3503.00,0.0090
3502.00,0.0090
3501.00,0.0090
3500.00,0.0090
3499.00,0.0091
3498.00,0.0091
3497.00,0.0091
3496.00,0.0091
3495.00,0.0092
3494.00,0.0092
3493.00,0.0092
3492.00,0.0092
3491.00,0.0092
3490.00,0.0093
3489.00,0.0093
3488.00,0.0094
3487.00,0.0094
3486.00,0.0094
3485.00,0.0094
3484.00,0.0095
3483.00,0.0095
3482.00,0.0095
3481.00,0.0095
3480.00,0.0096
3479.00,0.0096
3478.00,0.0096
3477.00,0.0096
3476.00,0.0097
3475.00,0.0097
3474.00,0.0097
3473.00,0.0097
3472.00,0.0098
3471.00,0.0098
3470.00,0.0099
3469.00,0.0099
3468.00,0.0099
3467.00,0.0099
3466.00,0.0099
3465.00,0.0100
3464.00,0.0100
3463.00,0.0100
3462.00,0.0100
3461.00,0.0101
3460.00,0.0101
3459.00,0.0101
3458.00,0.0102
3457.00,0.0102
3456.00,0.0102
3455.00,0.0103
3454.00,0.0103
3453.00,0.0103
3452.00,0.0103
3451.00,0.0104
3450.00,0.0104
3449.00,0.0104
3448.00,0.0104
3447.00,0.0104
3446.00,0.0104
3445.00,0.0105
3444.00,0.0105
3443.00,0.0105
3442.00,0.0105
3441.00,0.0106
3440.00,0.0106
3439.00,0.0107
3438.00,0.0107
3437.00,0.0107
3436.00,0.0108
3435.00,0.0108
3434.00,0.0108
3433.00,0.0108
3432.00,0.0109
3431.00,0.0109
3430.00,0.0109
3429.00,0.0109
3428.00,0.0110
3427.00,0.0110
3426.00,0.0110
3425.00,0.0111
3424.00,0.0111
3423.00,0.0111
3422.00,0.0111
3421.00,0.0112
3420.00,0.0112
3419.00,0.0112
3418.00,0.0112
3417.00,0.0112
3416.00,0.0113
3415.00,0.0113
3414.00,0.0114
3413.00,0.0114
3412.00,0.0114
3411.00,0.0114
3410.00,0.0115
3409.00,0.0115
3408.00,0.0115
3407.00,0.0115
3406.00,0.0115
3405.00,0.0116
3404.00,0.0116
3403.00,0.0116
3402.00,0.0117
3401.00,0.0117
3400.00,0.0117
3399.00,0.0117
3398.00,0.0117
3397.00,0.0117
3396.00,0.0118
3395.00,0.0118
3394.00,0.0118
3393.00,0.0118
3392.00,0.0119
3391.00,0.0119
3390.00,0.0119
3389.00,0.0119
3388.00,0.0120
3387.00,0.0120
3386.00,0.0120
3385.00,0.0120
3384.00,0.0120
3383.00,0.0121
3382.00,0.0121
3381.00,0.0121
3380.00,0.0122
3379.00,0.0122
3378.00,0.0122
3377.00,0.0123
3376.00,0.0123
3375.00,0.0123
3374.00,0.0124
3373.00,0.0124
3372.00,0.0125
3371.00,0.0125
3370.00,0.0126
3369.00,0.0126
3368.00,0.0126
3367.00,0.0126
3366.00,0.0127
3365.00,0.0127
3364.00,0.0127
3363.00,0.0128
3362.00,0.0128
3361.00,0.0129
3360.00,0.0129
3359.00,0.0130
3358.00,0.0130
3357.00,0.0131
3356.00,0.0131
3355.00,0.0132
3354.00,0.0132
3353.00,0.0133
3352.00,0.0134
3351.00,0.0134
3350.00,0.0135
3349.00,0.0135
3348.00,0.0136
3347.00,0.0136
3346.00,0.0137
3345.00,0.0137
3344.00,0.0138
3343.00,0.0139
3342.00,0.0139
3341.00,0.0140
3340.00,0.0141
3339.00,0.0141
3338.00,0.0142
3337.00,0.0143
3336.00,0.0144
3335.00,0.0144
3334.00,0.0145
3333.00,0.0146
3332.00,0.0146
3331.00,0.0147
3330.00,0.0148
3329.00,0.0149
3328.00,0.0150
3327.00,0.0150
3326.00,0.0151
3325.00,0.0152
3324.00,0.0153
3323.00,0.0154
3322.00,0.0155
3321.00,0.0156
3320.00,0.0157
3319.00,0.0158
3318.00,0.0159
3317.00,0.0160
3316.00,0.0161
3315.00,0.0162
3314.00,0.0163
3313.00,0.0164
3312.00,0.0165
3311.00,0.0166
3310.00,0.0167
3309.00,0.0168
3308.00,0.0169
3307.00,0.0170
3306.00,0.0172
3305.00,0.0173
3304.00,0.0174
3303.00,0.0175
3302.00,0.0176
3301.00,0.0178
3300.00,0.0179
3299.00,0.0180
3298.00,0.0181
3297.00,0.0183
3296.00,0.0184
3295.00,0.0185
3294.00,0.0186
3293.00,0.0187
3292.00,0.0188
3291.00,0.0189
3290.00,0.0191
3289.00,0.0192
3288.00,0.0192
3287.00,0.0193
3286.00,0.0194
3285.00,0.0195
3284.00,0.0196
3283.00,0.0197
3282.00,0.0197
3281.00,0.0198
3280.00,0.0199
3279.00,0.0199
3278.00,0.0199
3277.00,0.0200
3276.00,0.0200
3275.00,0.0200
3274.00,0.0200
3273.00,0.0200
3272.00,0.0200
3271.00,0.0200
3270.00,0.0199
3269.00,0.0199
3268.00,0.0199
3267.00,0.0198
3266.00,0.0198
3265.00,0.0197
3264.00,0.0196
3263.00,0.0195
3262.00,0.0195
3261.00,0.0194
3260.00,0.0193
3259.00,0.0192
3258.00,0.0191
3257.00,0.0190
3256.00,0.0189
3255.00,0.0188
3254.00,0.0186
3253.00,0.0185
3252.00,0.0184
3251.00,0.0183
3250.00,0.0182
3249.00,0.0181
3248.00,0.0180
3247.00,0.0179
3246.00,0.0178
3245.00,0.0177
3244.00,0.0176
3243.00,0.0175
3242.00,0.0174
3241.00,0.0173
3240.00,0.0172
3239.00,0.0172
3238.00,0.0171
3237.00,0.0170
3236.00,0.0169
3235.00,0.0168
3234.00,0.0167
3233.00,0.0166
3232.00,0.0166
3231.00,0.0165
3230.00,0.0164
3229.00,0.0164
3228.00,0.0163
3227.00,0.0162
3226.00,0.0161
3225.00,0.0161
3224.00,0.0160
3223.00,0.0159
3222.00,0.0159
3221.00,0.0158
3220.00,0.0158
3219.00,0.0157
3218.00,0.0157
3217.00,0.0156
3216.00,0.0155
3215.00,0.0155
3214.00,0.0154
3213.00,0.0154
3212.00,0.0153
3211.00,0.0152
3210.00,0.0152
3209.00,0.0151
3208.00,0.0151
3207.00,0.0150
3206.00,0.0150
3205.00,0.0149
3204.00,0.0149
3203.00,0.0148
3202.00,0.0148
3201.00,0.0147
3200.00,0.0147
3199.00,0.0146
3198.00,0.0145
3197.00,0.0145
3196.00,0.0144
3195.00,0.0144
3194.00,0.0143
3193.00,0.0142
3192.00,0.0142
3191.00,0.0141
3190.00,0.0141
3189.00,0.0140
3188.00,0.0139
3187.00,0.0139
3186.00,0.0138
3185.00,0.0137
3184.00,0.0137
3183.00,0.0136
3182.00,0.0136
3181.00,0.0135
3180.00,0.0135
3179.00,0.0134
3178.00,0.0133
3177.00,0.0132
3176.00,0.0131
3175.00,0.0131
3174.00,0.0130
3173.00,0.0130
3172.00,0.0129
3171.00,0.0128
3170.00,0.0128
3169.00,0.0127
3168.00,0.0126
3167.00,0.0126
3166.00,0.0125
3165.00,0.0124
3164.00,0.0124
3163.00,0.0123
3162.00,0.0123
3161.00,0.0122
3160.00,0.0121
3159.00,0.0121
3158.00,0.0120
3157.00,0.0119
3156.00,0.0119
3155.00,0.0118
3154.00,0.0118
3153.00,0.0117
3152.00,0.0117
3151.00,0.0116
3150.00,0.0116
3149.00,0.0115
3148.00,0.0114
3147.00,0.0114
3146.00,0.0114
3145.00,0.0113
3144.00,0.0113
3143.00,0.0112
3142.00,0.0112
3141.00,0.0111
3140.00,0.0111
3139.00,0.0111
3138.00,0.0110
3137.00,0.0110
3136.00,0.0109
3135.00,0.0109
3134.00,0.0109
3133.00,0.0108
3132.00,0.0108
3131.00,0.0107
3130.00,0.0107
3129.00,0.0107
3128.00,0.0106
3127.00,0.0106
3126.00,0.0106
3125.00,0.0105
3124.00,0.0105
3123.00,0.0105
3122.00,0.0105
3121.00,0.0104
3120.00,0.0104
3119.00,0.0104
3118.00,0.0104
3117.00,0.0104
3116.00,0.0104
3115.00,0.0103
3114.00,0.0103
3113.00,0.0103
3112.00,0.0103
3111.00,0.0103
3110.00,0.0102
3109.00,0.0102
3108.00,0.0102
3107.00,0.0102
3106.00,0.0102
3105.00,0.0102
3104.00,0.0102
3103.00,0.0102
3102.00,0.0102
3101.00,0.0102
3100.00,0.0102
3099.00,0.0102
3098.00,0.0103
3097.00,0.0103
3096.00,0.0103
3095.00,0.0103
3094.00,0.0103
3093.00,0.0103
3092.00,0.0103
3091.00,0.0103
3090.00,0.0103
3089.00,0.0103
3088.00,0.0103
3087.00,0.0103
3086.00,0.0103
3085.00,0.0103
3084.00,0.0104
3083.00,0.0104
3082.00,0.0104
3081.00,0.0104
3080.00,0.0104
3079.00,0.0104
3078.00,0.0104
3077.00,0.0104
3076.00,0.0104
3075.00,0.0104
3074.00,0.0104
3073.00,0.0104
3072.00,0.0104
3071.00,0.0104
3070.00,0.0104
3069.00,0.0104
3068.00,0.0104
3067.00,0.0104
3066.00,0.0104
3065.00,0.0103
3064.00,0.0103
3063.00,0.0103
3062.00,0.0103
3061.00,0.0103
3060.00,0.0102
3059.00,0.0102
3058.00,0.0102
3057.00,0.0102
3056.00,0.0102
3055.00,0.0101
3054.00,0.0101
3053.00,0.0100
3052.00,0.0100
3051.00,0.0100
3050.00,0.0099
3049.00,0.0099
3048.00,0.0098
3047.00,0.0098
3046.00,0.0098
3045.00,0.0097
3044.00,0.0097
3043.00,0.0096
3042.00,0.0096
3041.00,0.0096
3040.00,0.0095
3039.00,0.0095
3038.00,0.0095
3037.00,0.0094
3036.00,0.0094
3035.00,0.0093
3034.00,0.0093
3033.00,0.0093
3032.00,0.0092
3031.00,0.0092
3030.00,0.0091
3029.00,0.0091
3028.00,0.0090
3027.00,0.0090
3026.00,0.0090
3025.00,0.0089
3024.00,0.0089
3023.00,0.0089
3022.00,0.0088
3021.00,0.0087
3020.00,0.0087
3019.00,0.0086
3018.00,0.0085
3017.00,0.0085
3016.00,0.0085
3015.00,0.0084
3014.00,0.0084
3013.00,0.0083
3012.00,0.0082
3011.00,0.0082
3010.00,0.0081
3009.00,0.0081
3008.00,0.0080
3007.00,0.0080
3006.00,0.0079
3005.00,0.0078
3004.00,0.0078
3003.00,0.0077
3002.00,0.0077
3001.00,0.0076
3000.00,0.0076
2999.00,0.0076
2998.00,0.0075
2997.00,0.0075
2996.00,0.0075
2995.00,0.0075
2994.00,0.0075
2993.00,0.0075
2992.00,0.0075
2991.00,0.0075
2990.00,0.0075
2989.00,0.0075
2988.00,0.0075
2987.00,0.0075
2986.00,0.0075
2985.00,0.0074
2984.00,0.0073
2983.00,0.0072
2982.00,0.0072
2981.00,0.0072
2980.00,0.0073
2979.00,0.0074
2978.00,0.0075
2977.00,0.0076
2976.00,0.0077
2975.00,0.0078
2974.00,0.0078
2973.00,0.0078
2972.00,0.0079
2971.00,0.0079
2970.00,0.0080
2969.00,0.0081
2968.00,0.0081
2967.00,0.0082
2966.00,0.0083
2965.00,0.0083
2964.00,0.0083
2963.00,0.0083
2962.00,0.0083
2961.00,0.0083
2960.00,0.0083
2959.00,0.0084
2958.00,0.0084
2957.00,0.0084
2956.00,0.0084
2955.00,0.0083
2954.00,0.0083
2953.00,0.0083
2952.00,0.0084
2951.00,0.0084
2950.00,0.0084
2949.00,0.0084
2948.00,0.0084
2947.00,0.0084
2946.00,0.0084
2945.00,0.0085
2944.00,0.0085
2943.00,0.0085
2942.00,0.0085
2941.00,0.0085
2940.00,0.0086
2939.00,0.0086
2938.00,0.0086
2937.00,0.0086
2936.00,0.0086
2935.00,0.0086
2934.00,0.0085
2933.00,0.0085
2932.00,0.0084
2931.00,0.0084
2930.00,0.0083
2929.00,0.0083
2928.00,0.0082
2927.00,0.0082
2926.00,0.0082
2925.00,0.0081
2924.00,0.0081
2923.00,0.0081
2922.00,0.0081
2921.00,0.0081
2920.00,0.0081
2919.00,0.0081
2918.00,0.0081
2917.00,0.0081
2916.00,0.0081
2915.00,0.0081
2914.00,0.0080
2913.00,0.0080
2912.00,0.0079
2911.00,0.0079
2910.00,0.0078
2909.00,0.0078
2908.00,0.0078
2907.00,0.0077
2906.00,0.0077
2905.00,0.0076
2904.00,0.0076
2903.00,0.0076
2902.00,0.0076
2901.00,0.0075
2900.00,0.0075
2899.00,0.0075
2898.00,0.0075
2897.00,0.0075
2896.00,0.0075
2895.00,0.0074
2894.00,0.0074
2893.00,0.0074
2892.00,0.0074
2891.00,0.0074
2890.00,0.0074
2889.00,0.0074
2888.00,0.0074
2887.00,0.0074
2886.00,0.0074
2885.00,0.0074
2884.00,0.0075
2883.00,0.0075
2882.00,0.0075
2881.00,0.0076
2880.00,0.0076
2879.00,0.0077
2878.00,0.0077
2877.00,0.0077
2876.00,0.0077
2875.00,0.0077
2874.00,0.0077
2873.00,0.0077
2872.00,0.0077
2871.00,0.0077
2870.00,0.0076
2869.00,0.0076
2868.00,0.0075
2867.00,0.0075
2866.00,0.0074
2865.00,0.0073
2864.00,0.0073
2863.00,0.0072
2862.00,0.0071
2861.00,0.0070
2860.00,0.0070
2859.00,0.0069
2858.00,0.0069
2857.00,0.0068
2856.00,0.0068
2855.00,0.0068
2854.00,0.0068
2853.00,0.0068
2852.00,0.0069
2851.00,0.0069
2850.00,0.0069
2849.00,0.0069
2848.00,0.0069
2847.00,0.0069
2846.00,0.0069
2845.00,0.0069
2844.00,0.0068
2843.00,0.0068
2842.00,0.0068
2841.00,0.0068
2840.00,0.0068
2839.00,0.0067
2838.00,0.0067
2837.00,0.0067
2836.00,0.0067
2835.00,0.0067
2834.00,0.0067
2833.00,0.0067
2832.00,0.0066
2831.00,0.0066
2830.00,0.0066
2829.00,0.0066
2828.00,0.0066
2827.00,0.0066
2826.00,0.0066
2825.00,0.0065
2824.00,0.0065
2823.00,0.0065
2822.00,0.0065
2821.00,0.0065
2820.00,0.0065
2819.00,0.0065
2818.00,0.0065
2817.00,0.0065
2816.00,0.0065
2815.00,0.0064
2814.00,0.0064
2813.00,0.0064
2812.00,0.0064
2811.00,0.0064
2810.00,0.0064
2809.00,0.0064
2808.00,0.0064
2807.00,0.0063
2806.00,0.0063
2805.00,0.0063
2804.00,0.0063
2803.00,0.0063
2802.00,0.0063
2801.00,0.0063
2800.00,0.0063
2799.00,0.0062
2798.00,0.0062
2797.00,0.0062
2796.00,0.0062
2795.00,0.0062
2794.00,0.0062
2793.00,0.0062
2792.00,0.0062
2791.00,0.0062
2790.00,0.0061
2789.00,0.0061
2788.00,0.0061
2787.00,0.0061
2786.00,0.0061
2785.00,0.0061
2784.00,0.0061
2783.00,0.0061
2782.00,0.0061
2781.00,0.0060
2780.00,0.0060
2779.00,0.0060
2778.00,0.0060
2777.00,0.0060
2776.00,0.0060
2775.00,0.0060
2774.00,0.0060
2773.00,0.0059
2772.00,0.0059
2771.00,0.0059
2770.00,0.0059
2769.00,0.0059
2768.00,0.0059
2767.00,0.0059
2766.00,0.0059
2765.00,0.0058
2764.00,0.0058
2763.00,0.0058
2762.00,0.0058
2761.00,0.0058
2760.00,0.0058
2759.00,0.0058
2758.00,0.0058
2757.00,0.0057
2756.00,0.0057
2755.00,0.0057
2754.00,0.0057
2753.00,0.0057
2752.00,0.0057
2751.00,0.0057
2750.00,0.0057
2749.00,0.0056
2748.00,0.0056
2747.00,0.0056
2746.00,0.0056
2745.00,0.0056
2744.00,0.0056
2743.00,0.0056
2742.00,0.0056
2741.00,0.0056
2740.00,0.0055
2739.00,0.0055
2738.00,0.0055
2737.00,0.0055
2736.00,0.0055
2735.00,0.0055
2734.00,0.0055
2733.00,0.0055
2732.00,0.0054
2731.00,0.0054
2730.00,0.0054
2729.00,0.0054
2728.00,0.0054
2727.00,0.0054
2726.00,0.0054
2725.00,0.0054
2724.00,0.0054
2723.00,0.0053
2722.00,0.0053
2721.00,0.0053
2720.00,0.0053
2719.00,0.0053
2718.00,0.0053
2717.00,0.0053
2716.00,0.0053
2715.00,0.0053
2714.00,0.0052
2713.00,0.0052
2712.00,0.0052
2711.00,0.0052
2710.00,0.0052
2709.00,0.0052
2708.00,0.0052
2707.00,0.0052
2706.00,0.0052
2705.00,0.0051
2704.00,0.0051
2703.00,0.0051
2702.00,0.0051
2701.00,0.0051
2700.00,0.0051
2699.00,0.0051
2698.00,0.0051
2697.00,0.0051
2696.00,0.0050
2695.00,0.0050
2694.00,0.0050
2693.00,0.0050
2692.00,0.0050
2691.00,0.0050
2690.00,0.0050
2689.00,0.0050
2688.00,0.0050
2687.00,0.0050
2686.00,0.0050
2685.00,0.0050
2684.00,0.0050
2683.00,0.0050
2682.00,0.0049
2681.00,0.0049
2680.00,0.0049
2679.00,0.0049
2678.00,0.0049
2677.00,0.0049
2676.00,0.0049
2675.00,0.0049
2674.00,0.0048
2673.00,0.0048
2672.00,0.0048
2671.00,0.0048
2670.00,0.0048
2669.00,0.0048
2668.00,0.0048
2667.00,0.0048
2666.00,0.0048
2665.00,0.0048
2664.00,0.0048
2663.00,0.0048
2662.00,0.0048
2661.00,0.0048
2660.00,0.0048
2659.00,0.0048
2658.00,0.0048
2657.00,0.0048
2656.00,0.0048
2655.00,0.0048
2654.00,0.0048
2653.00,0.0048
2652.00,0.0048
2651.00,0.0048
2650.00,0.0048
2649.00,0.0048
2648.00,0.0048
2647.00,0.0048
2646.00,0.0048
2645.00,0.0048
2644.00,0.0048
2643.00,0.0048
2642.00,0.0048
2641.00,0.0048
2640.00,0.0048
2639.00,0.0048
2638.00,0.0048
2637.00,0.0048
2636.00,0.0048
2635.00,0.0048
2634.00,0.0048
2633.00,0.0048
2632.00,0.0048
2631.00,0.0048
2630.00,0.0048
2629.00,0.0048
2628.00,0.0048
2627.00,0.0048
2626.00,0.0048
2625.00,0.0048
2624.00,0.0048
2623.00,0.0048
2622.00,0.0048
2621.00,0.0048
2620.00,0.0048
2619.00,0.0048
2618.00,0.0048
2617.00,0.0048
2616.00,0.0048
2615.00,0.0048
2614.00,0.0048
2613.00,0.0048
2612.00,0.0048
2611.00,0.0048
2610.00,0.0048
2609.00,0.0048
2608.00,0.0048
2607.00,0.0048
2606.00,0.0048
2605.00,0.0047
2604.00,0.0047
2603.00,0.0047
2602.00,0.0047
2601.00,0.0047
2600.00,0.0047
2599.00,0.0047
2598.00,0.0047
2597.00,0.0047
2596.00,0.0047
2595.00,0.0047
2594.00,0.0047
2593.00,0.0047
2592.00,0.0047
2591.00,0.0046
2590.00,0.0047
2589.00,0.0047
2588.00,0.0047
2587.00,0.0047
2586.00,0.0047
2585.00,0.0047
2584.00,0.0047
2583.00,0.0046
2582.00,0.0046
2581.00,0.0046
2580.00,0.0046
2579.00,0.0046
2578.00,0.0046
2577.00,0.0046
2576.00,0.0046
2575.00,0.0046
2574.00,0.0046
2573.00,0.0046
2572.00,0.0046
2571.00,0.0046
2570.00,0.0046
2569.00,0.0046
2568.00,0.0046
2567.00,0.0046
2566.00,0.0045
2565.00,0.0045
2564.00,0.0045
2563.00,0.0045
2562.00,0.0046
2561.00,0.0046
2560.00,0.0046
2559.00,0.0046
2558.00,0.0045
2557.00,0.0045
2556.00,0.0045
2555.00,0.0045
2554.00,0.0045
2553.00,0.0045
2552.00,0.0045
2551.00,0.0045
2550.00,0.0045
2549.00,0.0045
2548.00,0.0045
2547.00,0.0045
2546.00,0.0045
2545.00,0.0044
2544.00,0.0044
2543.00,0.0044
2542.00,0.0044
2541.00,0.0044
2540.00,0.0044
2539.00,0.0044
2538.00,0.0044
2537.00,0.0044
2536.00,0.0044
2535.00,0.0044
2534.00,0.0044
2533.00,0.0044
2532.00,0.0043
2531.00,0.0043
2530.00,0.0044
2529.00,0.0044
2528.00,0.0044
2527.00,0.0043
2526.00,0.0043
2525.00,0.0043
2524.00,0.0043
2523.00,0.0043
2522.00,0.0044
2521.00,0.0044
2520.00,0.0044
2519.00,0.0043
2518.00,0.0043
2517.00,0.0043
2516.00,0.0043
2515.00,0.0043
2514.00,0.0043
2513.00,0.0043
2512.00,0.0043
2511.00,0.0043
2510.00,0.0043
2509.00,0.0043
2508.00,0.0043
2507.00,0.0042
2506.00,0.0042
2505.00,0.0043
2504.00,0.0043
2503.00,0.0043
2502.00,0.0043
2501.00,0.0043
2500.00,0.0042
2499.00,0.0042
2498.00,0.0042
2497.00,0.0042
2496.00,0.0042
2495.00,0.0042
2494.00,0.0042
2493.00,0.0042
2492.00,0.0042
2491.00,0.0042
2490.00,0.0042
2489.00,0.0042
2488.00,0.0042
2487.00,0.0042
2486.00,0.0042
2485.00,0.0042
2484.00,0.0042
2483.00,0.0042
2482.00,0.0042
2481.00,0.0041
2480.00,0.0041
2479.00,0.0041
2478.00,0.0041
2477.00,0.0041
2476.00,0.0041
2475.00,0.0041
2474.00,0.0040
2473.00,0.0040
2472.00,0.0041
2471.00,0.0041
2470.00,0.0041
2469.00,0.0041
2468.00,0.0041
2467.00,0.0041
2466.00,0.0040
2465.00,0.0040
2464.00,0.0040
2463.00,0.0040
2462.00,0.0040
2461.00,0.0040
2460.00,0.0040
2459.00,0.0040
2458.00,0.0040
2457.00,0.0040
2456.00,0.0040
2455.00,0.0040
2454.00,0.0040
2453.00,0.0040
2452.00,0.0040
2451.00,0.0040
2450.00,0.0039
2449.00,0.0039
2448.00,0.0039
2447.00,0.0039
2446.00,0.0039
2445.00,0.0039
2444.00,0.0039
2443.00,0.0039
2442.00,0.0039
2441.00,0.0039
2440.00,0.0039
2439.00,0.0039
2438.00,0.0039
2437.00,0.0039
2436.00,0.0039
2435.00,0.0039
2434.00,0.0039
2433.00,0.0039
2432.00,0.0039
2431.00,0.0039
2430.00,0.0038
2429.00,0.0038
2428.00,0.0038
2427.00,0.0038
2426.00,0.0038
2425.00,0.0038
2424.00,0.0038
2423.00,0.0038
2422.00,0.0038
2421.00,0.0038
2420.00,0.0038
2419.00,0.0038
2418.00,0.0038
2417.00,0.0038
2416.00,0.0038
2415.00,0.0038
2414.00,0.0038
2413.00,0.0038
2412.00,0.0038
2411.00,0.0038
2410.00,0.0038
2409.00,0.0038
2408.00,0.0038
2407.00,0.0038
2406.00,0.0037
2405.00,0.0037
2404.00,0.0037
2403.00,0.0037
2402.00,0.0037
2401.00,0.0037
2400.00,0.0037
2399.00,0.0037
2398.00,0.0037
2397.00,0.0037
2396.00,0.0037
2395.00,0.0037
2394.00,0.0036
2393.00,0.0036
2392.00,0.0036
2391.00,0.0036
2390.00,0.0036
2389.00,0.0036
2388.00,0.0036
2387.00,0.0036
2386.00,0.0036
2385.00,0.0036
2384.00,0.0035
2383.00,0.0035
2382.00,0.0035
2381.00,0.0035
2380.00,0.0035
2379.00,0.0035
2378.00,0.0035
2377.00,0.0035
2376.00,0.0035
2375.00,0.0035
2374.00,0.0035
2373.00,0.0035
2372.00,0.0035
2371.00,0.0035
2370.00,0.0035
2369.00,0.0034
2368.00,0.0034
2367.00,0.0034
2366.00,0.0034
2365.00,0.0034
2364.00,0.0034
2363.00,0.0034
2362.00,0.0034
2361.00,0.0034
2360.00,0.0034
2359.00,0.0034
2358.00,0.0034
2357.00,0.0033
2356.00,0.0033
2355.00,0.0033
2354.00,0.0033
2353.00,0.0033
2352.00,0.0033
2351.00,0.0033
2350.00,0.0033
2349.00,0.0033
2348.00,0.0033
2347.00,0.0033
2346.00,0.0033
2345.00,0.0033
2344.00,0.0033
2343.00,0.0033
2342.00,0.0033
2341.00,0.0033
2340.00,0.0033
2339.00,0.0033
2338.00,0.0033
2337.00,0.0032
2336.00,0.0032
2335.00,0.0032
2334.00,0.0032
2333.00,0.0032
2332.00,0.0032
2331.00,0.0032
2330.00,0.0032
2329.00,0.0032
2328.00,0.0032
2327.00,0.0031
2326.00,0.0031
2325.00,0.0031
2324.00,0.0031
2323.00,0.0031
2322.00,0.0032
2321.00,0.0032
2320.00,0.0032
2319.00,0.0032
2318.00,0.0032
2317.00,0.0032
2316.00,0.0032
2315.00,0.0032
2314.00,0.0032
2313.00,0.0032
2312.00,0.0032
2311.00,0.0032
2310.00,0.0032
2309.00,0.0032
2308.00,0.0032
2307.00,0.0032
2306.00,0.0032
2305.00,0.0032
2304.00,0.0032
2303.00,0.0032
2302.00,0.0032
2301.00,0.0032
2300.00,0.0032
2299.00,0.0032
2298.00,0.0032
2297.00,0.0032
2296.00,0.0032
2295.00,0.0032
2294.00,0.0032
2293.00,0.0032
2292.00,0.0032
2291.00,0.0032
2290.00,0.0032
2289.00,0.0032
2288.00,0.0032
2287.00,0.0032
2286.00,0.0032
2285.00,0.0032
2284.00,0.0032
2283.00,0.0032
2282.00,0.0032
2281.00,0.0033
2280.00,0.0032
2279.00,0.0032
2278.00,0.0032
2277.00,0.0032
2276.00,0.0032
2275.00,0.0032
2274.00,0.0032
2273.00,0.0032
2272.00,0.0032
2271.00,0.0032
2270.00,0.0032
2269.00,0.0032
2268.00,0.0032
2267.00,0.0032
2266.00,0.0032
2265.00,0.0032
2264.00,0.0032
2263.00,0.0031
2262.00,0.0031
2261.00,0.0031
2260.00,0.0032
2259.00,0.0032
2258.00,0.0032
2257.00,0.0032
2256.00,0.0032
2255.00,0.0032
2254.00,0.0032
2253.00,0.0031
2252.00,0.0031
2251.00,0.0031
2250.00,0.0031
2249.00,0.0031
2248.00,0.0031
2247.00,0.0032
2246.00,0.0031
2245.00,0.0031
2244.00,0.0031
2243.00,0.0031
2242.00,0.0030
2241.00,0.0030
2240.00,0.0030
2239.00,0.0030
2238.00,0.0030
2237.00,0.0031
2236.00,0.0031
2235.00,0.0031
2234.00,0.0030
2233.00,0.0030
2232.00,0.0030
2231.00,0.0030
2230.00,0.0030
2229.00,0.0031
2228.00,0.0031
2227.00,0.0031
2226.00,0.0031
2225.00,0.0031
2224.00,0.0031
2223.00,0.0031
2222.00,0.0031
2221.00,0.0030
2220.00,0.0030
2219.00,0.0029
2218.00,0.0029
2217.00,0.0029
2216.00,0.0029
2215.00,0.0029
2214.00,0.0029
2213.00,0.0030
2212.00,0.0030
2211.00,0.0030
2210.00,0.0030
2209.00,0.0030
2208.00,0.0030
2207.00,0.0031
2206.00,0.0031
2205.00,0.0031
2204.00,0.0031
2203.00,0.0031
2202.00,0.0030
2201.00,0.0030
2200.00,0.0030
2199.00,0.0030
2198.00,0.0030
2197.00,0.0030
2196.00,0.0030
2195.00,0.0029
2194.00,0.0029
2193.00,0.0028
2192.00,0.0028
2191.00,0.0028
2190.00,0.0028
2189.00,0.0029
2188.00,0.0029
2187.00,0.0029
2186.00,0.0029
2185.00,0.0029
2184.00,0.0029
2183.00,0.0029
2182.00,0.0029
2181.00,0.0029
2180.00,0.0028
2179.00,0.0028
2178.00,0.0027
2177.00,0.0027
2176.00,0.0027
2175.00,0.0027
2174.00,0.0027
2173.00,0.0027
2172.00,0.0028
2171.00,0.0028
2170.00,0.0029
2169.00,0.0029
2168.00,0.0029
2167.00,0.0029
2166.00,0.0029
2165.00,0.0028
2164.00,0.0027
2163.00,0.0027
2162.00,0.0027
2161.00,0.0027
2160.00,0.0028
2159.00,0.0028
2158.00,0.0029
2157.00,0.0029
2156.00,0.0029
2155.00,0.0029
2154.00,0.0029
2153.00,0.0029
2152.00,0.0028
2151.00,0.0028
2150.00,0.0028
2149.00,0.0028
2148.00,0.0028
2147.00,0.0028
2146.00,0.0028
2145.00,0.0028
2144.00,0.0028
2143.00,0.0028
2142.00,0.0027
2141.00,0.0027
2140.00,0.0027
2139.00,0.0028
2138.00,0.0028
2137.00,0.0028
2136.00,0.0028
2135.00,0.0027
2134.00,0.0027
2133.00,0.0027
2132.00,0.0027
2131.00,0.0028
2130.00,0.0028
2129.00,0.0028
2128.00,0.0028
2127.00,0.0028
2126.00,0.0028
2125.00,0.0027
2124.00,0.0027
2123.00,0.0027
2122.00,0.0027
2121.00,0.0027
2120.00,0.0027
2119.00,0.0027
2118.00,0.0027
2117.00,0.0027
2116.00,0.0027
2115.00,0.0026
2114.00,0.0026
2113.00,0.0026
2112.00,0.0026
2111.00,0.0025
2110.00,0.0025
2109.00,0.0026
2108.00,0.0026
2107.00,0.0027
2106.00,0.0027
2105.00,0.0027
2104.00,0.0026
2103.00,0.0026
2102.00,0.0026
2101.00,0.0026
2100.00,0.0026
2099.00,0.0026
2098.00,0.0026
2097.00,0.0026
2096.00,0.0026
2095.00,0.0026
2094.00,0.0025
2093.00,0.0025
2092.00,0.0025
2091.00,0.0025
2090.00,0.0025
2089.00,0.0025
2088.00,0.0025
2087.00,0.0025
2086.00,0.0025
2085.00,0.0025
2084.00,0.0025
2083.00,0.0025
2082.00,0.0024
2081.00,0.0024
2080.00,0.0024
2079.00,0.0024
2078.00,0.0023
2077.00,0.0023
2076.00,0.0024
2075.00,0.0024
2074.00,0.0024
2073.00,0.0024
2072.00,0.0024
2071.00,0.0023
2070.00,0.0023
2069.00,0.0023
2068.00,0.0023
2067.00,0.0023
2066.00,0.0024
2065.00,0.0024
2064.00,0.0024
2063.00,0.0024
2062.00,0.0023
2061.00,0.0023
2060.00,0.0023
2059.00,0.0023
2058.00,0.0023
2057.00,0.0023
2056.00,0.0023
2055.00,0.0023
2054.00,0.0022
2053.00,0.0022
2052.00,0.0022
2051.00,0.0021
2050.00,0.0021
2049.00,0.0022
2048.00,0.0022
2047.00,0.0023
2046.00,0.0023
2045.00,0.0023
2044.00,0.0022
2043.00,0.0021
2042.00,0.0021
2041.00,0.0022
2040.00,0.0022
2039.00,0.0023
2038.00,0.0022
2037.00,0.0022
2036.00,0.0021
2035.00,0.0021
2034.00,0.0022
2033.00,0.0022
2032.00,0.0022
2031.00,0.0021
2030.00,0.0021
2029.00,0.0022
2028.00,0.0023
2027.00,0.0023
2026.00,0.0023
2025.00,0.0023
2024.00,0.0023
2023.00,0.0023
2022.00,0.0022
2021.00,0.0022
2020.00,0.0021
2019.00,0.0020
2018.00,0.0020
2017.00,0.0020
2016.00,0.0021
2015.00,0.0021
2014.00,0.0021
2013.00,0.0021
2012.00,0.0020
2011.00,0.0020
2010.00,0.0019
2009.00,0.0019
2008.00,0.0020
2007.00,0.0020
2006.00,0.0020
2005.00,0.0019
2004.00,0.0019
2003.00,0.0019
2002.00,0.0019
2001.00,0.0019
2000.00,0.0020
1999.00,0.0020
1998.00,0.0021
1997.00,0.0021
1996.00,0.0021
1995.00,0.0021
1994.00,0.0020
1993.00,0.0020
1992.00,0.0019
1991.00,0.0019
1990.00,0.0019
1989.00,0.0019
1988.00,0.0020
1987.00,0.0020
1986.00,0.0019
1985.00,0.0019
1984.00,0.0018
1983.00,0.0017
1982.00,0.0017
1981.00,0.0017
1980.00,0.0017
1979.00,0.0017
1978.00,0.0016
1977.00,0.0016
1976.00,0.0017
1975.00,0.0017
1974.00,0.0018
1973.00,0.0018
1972.00,0.0018
1971.00,0.0018
1970.00,0.0018
1969.00,0.0017
1968.00,0.0017
1967.00,0.0017
1966.00,0.0017
1965.00,0.0018
1964.00,0.0018
1963.00,0.0018
1962.00,0.0018
1961.00,0.0018
1960.00,0.0018
1959.00,0.0018
1958.00,0.0018
1957.00,0.0018
1956.00,0.0017
1955.00,0.0017
1954.00,0.0017
1953.00,0.0017
1952.00,0.0018
1951.00,0.0018
1950.00,0.0017
1949.00,0.0017
1948.00,0.0017
1947.00,0.0017
1946.00,0.0017
1945.00,0.0016
1944.00,0.0016
1943.00,0.0016
1942.00,0.0016
1941.00,0.0017
1940.00,0.0017
1939.00,0.0017
1938.00,0.0017
1937.00,0.0017
1936.00,0.0016
1935.00,0.0016
1934.00,0.0016
1933.00,0.0016
1932.00,0.0016
1931.00,0.0016
1930.00,0.0015
1929.00,0.0015
1928.00,0.0015
1927.00,0.0015
1926.00,0.0014
1925.00,0.0014
1924.00,0.0013
1923.00,0.0013
1922.00,0.0013
1921.00,0.0013
1920.00,0.0014
1919.00,0.0014
1918.00,0.0015
1917.00,0.0016
1916.00,0.0016
1915.00,0.0015
1914.00,0.0015
1913.00,0.0014
1912.00,0.0014
1911.00,0.0013
1910.00,0.0013
1909.00,0.0012
1908.00,0.0012
1907.00,0.0012
1906.00,0.0012
1905.00,0.0012
1904.00,0.0012
1903.00,0.0012
1902.00,0.0013
1901.00,0.0013
1900.00,0.0013
1899.00,0.0013
1898.00,0.0012
1897.00,0.0012
1896.00,0.0012
1895.00,0.0012
1894.00,0.0012
1893.00,0.0012
1892.00,0.0011
1891.00,0.0011
1890.00,0.0011
1889.00,0.0011
1888.00,0.0011
1887.00,0.0012
1886.00,0.0012
1885.00,0.0012
1884.00,0.0012
1883.00,0.0011
1882.00,0.0011
1881.00,0.0011
1880.00,0.0010
1879.00,0.0010
1878.00,0.0010
1877.00,0.0011
1876.00,0.0011
1875.00,0.0011
1874.00,0.0010
1873.00,0.0010
1872.00,0.0009
1871.00,0.0008
1870.00,0.0008
1869.00,0.0008
1868.00,0.0009
1867.00,0.0009
1866.00,0.0009
1865.00,0.0009
1864.00,0.0009
1863.00,0.0009
1862.00,0.0009
1861.00,0.0009
1860.00,0.0008
1859.00,0.0008
1858.00,0.0008
1857.00,0.0008
1856.00,0.0008
1855.00,0.0008
1854.00,0.0008
1853.00,0.0008
1852.00,0.0007
1851.00,0.0007
1850.00,0.0007
1849.00,0.0006
1848.00,0.0006
1847.00,0.0005
1846.00,0.0006
1845.00,0.0007
1844.00,0.0009
1843.00,0.0009
1842.00,0.0008
1841.00,0.0007
1840.00,0.0006
1839.00,0.0006
1838.00,0.0006
1837.00,0.0006
1836.00,0.0006
1835.00,0.0006
1834.00,0.0005
1833.00,0.0005
1832.00,0.0004
1831.00,0.0004
1830.00,0.0004
1829.00,0.0004
1828.00,0.0004
1827.00,0.0004
1826.00,0.0004
1825.00,0.0004
1824.00,0.0005
1823.00,0.0004
1822.00,0.0004
1821.00,0.0004
1820.00,0.0004
1819.00,0.0004
1818.00,0.0004
1817.00,0.0004
1816.00,0.0003
1815.00,0.0003
1814.00,0.0002
1813.00,0.0001
1812.00,0.0001
1811.00,0.0001
1810.00,0.0001
1809.00,0.0001
1808.00,0.0001
1807.00,0.0001
1806.00,0.0001
1805.00,0.0001
1804.00,0.0000
1803.00,0.0000
1802.00,-0.0000
1801.00,0.0000
1800.00,0.0000
1799.00,0.0000
1798.00,-0.0000
1797.00,-0.0001
1796.00,-0.0002
1795.00,-0.0002
1794.00,-0.0002
1793.00,-0.0001
1792.00,-0.0000
1791.00,0.0001
1790.00,0.0000
1789.00,-0.0000
1788.00,-0.0001
1787.00,-0.0001
1786.00,-0.0001
1785.00,-0.0001
1784.00,-0.0001
1783.00,-0.0002
1782.00,-0.0003
1781.00,-0.0003
1780.00,-0.0003
1779.00,-0.0003
1778.00,-0.0004
1777.00,-0.0004
1776.00,-0.0005
1775.00,-0.0006
1774.00,-0.0006
1773.00,-0.0005
1772.00,-0.0004
1771.00,-0.0003
1770.00,-0.0003
1769.00,-0.0003
1768.00,-0.0003
1767.00,-0.0003
1766.00,-0.0004
1765.00,-0.0005
1764.00,-0.0006
1763.00,-0.0005
1762.00,-0.0005
1761.00,-0.0004
1760.00,-0.0005
1759.00,-0.0006
1758.00,-0.0006
1757.00,-0.0006
1756.00,-0.0005
1755.00,-0.0006
1754.00,-0.0007
1753.00,-0.0007
1752.00,-0.0007
1751.00,-0.0007
1750.00,-0.0007
1749.00,-0.0008
1748.00,-0.0008
1747.00,-0.0008
1746.00,-0.0008
1745.00,-0.0008
1744.00,-0.0008
1743.00,-0.0007
1742.00,-0.0007
1741.00,-0.0006
1740.00,-0.0005
1739.00,-0.0004
1738.00,-0.0005
1737.00,-0.0006
1736.00,-0.0006
1735.00,-0.0004
1734.00,-0.0003
1733.00,-0.0004
1732.00,-0.0006
1731.00,-0.0008
1730.00,-0.0010
1729.00,-0.0010
1728.00,-0.0010
1727.00,-0.0010
1726.00,-0.0011
1725.00,-0.0011
1724.00,-0.0011
1723.00,-0.0011
1722.00,-0.0011
1721.00,-0.0011
1720.00,-0.0010
1719.00,-0.0008
1718.00,-0.0007
1717.00,-0.0005
1716.00,-0.0004
1715.00,-0.0002
1714.00,-0.0001
1713.00,0.0000
1712.00,0.0002
1711.00,0.0003
1710.00,0.0005
1709.00,0.0006
1708.00,0.0009
1707.00,0.0011
1706.00,0.0015
1705.00,0.0019
1704.00,0.0024
1703.00,0.0029
1702.00,0.0037
1701.00,0.0049
1700.00,0.0061
1699.00,0.0067
1698.00,0.0069
1697.00,0.0072
1696.00,0.0077
1695.00,0.0082
1694.00,0.0085
1693.00,0.0086
1692.00,0.0088
1691.00,0.0090
1690.00,0.0093
1689.00,0.0096
1688.00,0.0099
1687.00,0.0102
1686.00,0.0107
1685.00,0.0113
1684.00,0.0119
1683.00,0.0124
1682.00,0.0128
1681.00,0.0131
1680.00,0.0136
1679.00,0.0141
1678.00,0.0147
1677.00,0.0153
1676.00,0.0160
1675.00,0.0166
1674.00,0.0169
1673.00,0.0173
1672.00,0.0177
1671.00,0.0183
1670.00,0.0189
1669.00,0.0194
1668.00,0.0200
1667.00,0.0205
1666.00,0.0210
1665.00,0.0216
1664.00,0.0223
1663.00,0.0229
1662.00,0.0234
1661.00,0.0239
1660.00,0.0244
1659.00,0.0250
1658.00,0.0255
1657.00,0.0260
1656.00,0.0267
1655.00,0.0274
1654.00,0.0279
1653.00,0.0279
1652.00,0.0279
1651.00,0.0280
1650.00,0.0283
1649.00,0.0287
1648.00,0.0290
1647.00,0.0291
1646.00,0.0291
1645.00,0.0292
1644.00,0.0294
1643.00,0.0296
1642.00,0.0298
1641.00,0.0300
1640.00,0.0302
1639.00,0.0304
1638.00,0.0307
1637.00,0.0308
1636.00,0.0308
1635.00,0.0307
1634.00,0.0307
1633.00,0.0308
1632.00,0.0311
1631.00,0.0315
1630.00,0.0319
1629.00,0.0322
1628.00,0.0325
1627.00,0.0328
1626.00,0.0332
1625.00,0.0337
1624.00,0.0342
1623.00,0.0345
1622.00,0.0348
1621.00,0.0352
1620.00,0.0357
1619.00,0.0362
1618.00,0.0365
1617.00,0.0365
1616.00,0.0361
1615.00,0.0358
1614.00,0.0356
1613.00,0.0354
1612.00,0.0350
1611.00,0.0344
1610.00,0.0337
1609.00,0.0328
1608.00,0.0318
1607.00,0.0309
1606.00,0.0300
1605.00,0.0291
1604.00,0.0282
1603.00,0.0273
1602.00,0.0263
1601.00,0.0254
1600.00,0.0246
1599.00,0.0238
1598.00,0.0230
1597.00,0.0223
1596.00,0.0215
1595.00,0.0208
1594.00,0.0201
1593.00,0.0195
1592.00,0.0189
1591.00,0.0184
1590.00,0.0179
1589.00,0.0174
1588.00,0.0170
1587.00,0.0167
1586.00,0.0163
1585.00,0.0160
1584.00,0.0157
1583.00,0.0155
1582.00,0.0152
1581.00,0.0150
1580.00,0.0148
1579.00,0.0147
1578.00,0.0146
1577.00,0.0145
1576.00,0.0145
1575.00,0.0144
1574.00,0.0144
1573.00,0.0145
1572.00,0.0146
1571.00,0.0148
1570.00,0.0150
1569.00,0.0152
1568.00,0.0154
1567.00,0.0156
1566.00,0.0158
1565.00,0.0161
1564.00,0.0164
1563.00,0.0168
1562.00,0.0172
1561.00,0.0179
1560.00,0.0186
1559.00,0.0190
1558.00,0.0194
1557.00,0.0199
1556.00,0.0202
1555.00,0.0207
1554.00,0.0213
1553.00,0.0218
1552.00,0.0223
1551.00,0.0228
1550.00,0.0233
1549.00,0.0238
1548.00,0.0243
1547.00,0.0249
1546.00,0.0253
1545.00,0.0257
1544.00,0.0261
1543.00,0.0264
1542.00,0.0268
1541.00,0.0271
1540.00,0.0272
1539.00,0.0274
1538.00,0.0277
1537.00,0.0280
1536.00,0.0284
1535.00,0.0288
1534.00,0.0291
1533.00,0.0292
1532.00,0.0294
1531.00,0.0296
1530.00,0.0299
1529.00,0.0303
1528.00,0.0305
1527.00,0.0307
1526.00,0.0309
1525.00,0.0311
1524.00,0.0314
1523.00,0.0316
1522.00,0.0318
1521.00,0.0319
1520.00,0.0320
1519.00,0.0322
1518.00,0.0324
1517.00,0.0325
1516.00,0.0325
1515.00,0.0325
1514.00,0.0326
1513.00,0.0327
1512.00,0.0326
1511.00,0.0324
1510.00,0.0322
1509.00,0.0320
1508.00,0.0316
1507.00,0.0306
1506.00,0.0297
1505.00,0.0292
1504.00,0.0288
1503.00,0.0285
1502.00,0.0283
1501.00,0.0279
1500.00,0.0275
1499.00,0.0270
1498.00,0.0264
1497.00,0.0256
1496.00,0.0248
1495.00,0.0241
1494.00,0.0236
1493.00,0.0231
1492.00,0.0227
1491.00,0.0220
1490.00,0.0212
1489.00,0.0203
1488.00,0.0197
1487.00,0.0192
1486.00,0.0187
1485.00,0.0183
1484.00,0.0179
1483.00,0.0175
1482.00,0.0171
1481.00,0.0168
1480.00,0.0164
1479.00,0.0162
1478.00,0.0161
1477.00,0.0159
1476.00,0.0157
1475.00,0.0156
1474.00,0.0155
1473.00,0.0155
1472.00,0.0155
1471.00,0.0155
1470.00,0.0155
1469.00,0.0155
1468.00,0.0155
1467.00,0.0156
1466.00,0.0156
1465.00,0.0157
1464.00,0.0157
1463.00,0.0157
1462.00,0.0157
1461.00,0.0158
1460.00,0.0160
1459.00,0.0163
1458.00,0.0166
1457.00,0.0169
1456.00,0.0173
1455.00,0.0174
1454.00,0.0175
1453.00,0.0176
1452.00,0.0178
1451.00,0.0178
1450.00,0.0179
1449.00,0.0178
1448.00,0.0177
1447.00,0.0176
1446.00,0.0174
1445.00,0.0173
1444.00,0.0172
1443.00,0.0170
1442.00,0.0168
1441.00,0.0166
1440.00,0.0164
1439.00,0.0163
1438.00,0.0162
1437.00,0.0160
1436.00,0.0157
1435.00,0.0153
1434.00,0.0150
1433.00,0.0148
1432.00,0.0146
1431.00,0.0145
1430.00,0.0143
1429.00,0.0143
1428.00,0.0142
1427.00,0.0142
1426.00,0.0141
1425.00,0.0141
1424.00,0.0141
1423.00,0.0142
1422.00,0.0143
1421.00,0.0145
1420.00,0.0147
1419.00,0.0148
1418.00,0.0148
1417.00,0.0149
1416.00,0.0150
1415.00,0.0151
1414.00,0.0152
1413.00,0.0154
1412.00,0.0154
1411.00,0.0155
1410.00,0.0155
1409.00,0.0155
1408.00,0.0156
1407.00,0.0156
1406.00,0.0155
1405.00,0.0155
1404.00,0.0154
1403.00,0.0153
1402.00,0.0153
1401.00,0.0152
1400.00,0.0152
1399.00,0.0150
1398.00,0.0149
1397.00,0.0148
1396.00,0.0148
1395.00,0.0148
1394.00,0.0147
1393.00,0.0147
1392.00,0.0147
1391.00,0.0147
1390.00,0.0147
1389.00,0.0147
1388.00,0.0147
1387.00,0.0146
1386.00,0.0146
1385.00,0.0145
1384.00,0.0144
1383.00,0.0144
1382.00,0.0143
1381.00,0.0142
1380.00,0.0141
1379.00,0.0141
1378.00,0.0140
1377.00,0.0140
1376.00,0.0139
1375.00,0.0139
1374.00,0.0139
1373.00,0.0139
1372.00,0.0139
1371.00,0.0139
1370.00,0.0139
1369.00,0.0139
1368.00,0.0138
1367.00,0.0137
1366.00,0.0136
1365.00,0.0135
1364.00,0.0133
1363.00,0.0131
1362.00,0.0130
1361.00,0.0129
1360.00,0.0128
1359.00,0.0128
1358.00,0.0127
1357.00,0.0127
1356.00,0.0126
1355.00,0.0126
1354.00,0.0125
1353.00,0.0125
1352.00,0.0125
1351.00,0.0125
1350.00,0.0125
1349.00,0.0125
1348.00,0.0126
1347.00,0.0126
1346.00,0.0127
1345.00,0.0127
1344.00,0.0128
1343.00,0.0128
1342.00,0.0128
1341.00,0.0127
1340.00,0.0127
1339.00,0.0127
1338.00,0.0127
1337.00,0.0128
1336.00,0.0128
1335.00,0.0128
1334.00,0.0128
1333.00,0.0128
1332.00,0.0127
1331.00,0.0126
1330.00,0.0126
1329.00,0.0125
1328.00,0.0125
1327.00,0.0125
1326.00,0.0125
1325.00,0.0125
1324.00,0.0125
1323.00,0.0125
1322.00,0.0125
1321.00,0.0124
1320.00,0.0124
1319.00,0.0124
1318.00,0.0124
1317.00,0.0125
1316.00,0.0125
1315.00,0.0125
1314.00,0.0126
1313.00,0.0126
1312.00,0.0126
1311.00,0.0127
1310.00,0.0127
1309.00,0.0127
1308.00,0.0128
1307.00,0.0128
1306.00,0.0128
1305.00,0.0128
1304.00,0.0128
1303.00,0.0128
1302.00,0.0129
1301.00,0.0129
1300.00,0.0129
1299.00,0.0128
1298.00,0.0128
1297.00,0.0128
1296.00,0.0128
1295.00,0.0127
1294.00,0.0127
1293.00,0.0127
1292.00,0.0127
1291.00,0.0126
1290.00,0.0126
1289.00,0.0126
1288.00,0.0125
1287.00,0.0125
1286.00,0.0125
1285.00,0.0124
1284.00,0.0124
1283.00,0.0124
1282.00,0.0123
1281.00,0.0123
1280.00,0.0122
1279.00,0.0122
1278.00,0.0121
1277.00,0.0120
1276.00,0.0120
1275.00,0.0119
1274.00,0.0118
1273.00,0.0118
1272.00,0.0118
1271.00,0.0118
1270.00,0.0118
1269.00,0.0119
1268.00,0.0120
1267.00,0.0121
1266.00,0.0123
1265.00,0.0124
1264.00,0.0126
1263.00,0.0128
1262.00,0.0130
1261.00,0.0132
1260.00,0.0133
1259.00,0.0134
1258.00,0.0135
1257.00,0.0136
1256.00,0.0137
1255.00,0.0138
1254.00,0.0139
1253.00,0.0140
1252.00,0.0141
1251.00,0.0142
1250.00,0.0143
1249.00,0.0144
1248.00,0.0146
1247.00,0.0147
1246.00,0.0149
1245.00,0.0150
1244.00,0.0152
1243.00,0.0153
1242.00,0.0154
1241.00,0.0155
1240.00,0.0156
1239.00,0.0156
1238.00,0.0157
1237.00,0.0157
1236.00,0.0158
1235.00,0.0158
1234.00,0.0158
1233.00,0.0158
1232.00,0.0158
1231.00,0.0157
1230.00,0.0157
1229.00,0.0156
1228.00,0.0156
1227.00,0.0155
1226.00,0.0154
1225.00,0.0153
1224.00,0.0152
1223.00,0.0151
1222.00,0.0150
1221.00,0.0149
1220.00,0.0148
1219.00,0.0147
1218.00,0.0145
1217.00,0.0144
1216.00,0.0143
1215.00,0.0141
1214.00,0.0140
1213.00,0.0138
1212.00,0.0136
1211.00,0.0135
1210.00,0.0133
1209.00,0.0131
1208.00,0.0130
1207.00,0.0128
1206.00,0.0126
1205.00,0.0124
1204.00,0.0122
1203.00,0.0120
1202.00,0.0118
1201.00,0.0116
1200.00,0.0115
1199.00,0.0113
1198.00,0.0111
1197.00,0.0110
1196.00,0.0108
1195.00,0.0107
1194.00,0.0105
1193.00,0.0104
1192.00,0.0103
1191.00,0.0101
1190.00,0.0100
1189.00,0.0099
1188.00,0.0098
1187.00,0.0097
1186.00,0.0097
1185.00,0.0096
1184.00,0.0095
1183.00,0.0095
1182.00,0.0095
1181.00,0.0094
1180.00,0.0095
1179.00,0.0095
1178.00,0.0095
1177.00,0.0096
1176.00,0.0097
1175.00,0.0098
1174.00,0.0100
1173.00,0.0101
1172.00,0.0102
1171.00,0.0103
1170.00,0.0105
1169.00,0.0105
1168.00,0.0106
1167.00,0.0107
1166.00,0.0107
1165.00,0.0108
1164.00,0.0108
1163.00,0.0108
1162.00,0.0108
1161.00,0.0108
1160.00,0.0107
1159.00,0.0106
1158.00,0.0105
1157.00,0.0104
1156.00,0.0103
1155.00,0.0101
1154.00,0.0100
1153.00,0.0099
1152.00,0.0097
1151.00,0.0096
1150.00,0.0095
1149.00,0.0094
1148.00,0.0092
1147.00,0.0091
1146.00,0.0091
1145.00,0.0090
1144.00,0.0089
1143.00,0.0089
1142.00,0.0088
1141.00,0.0088
1140.00,0.0088
1139.00,0.0088
1138.00,0.0087
1137.00,0.0087
1136.00,0.0087
1135.00,0.0087
1134.00,0.0087
1133.00,0.0087
1132.00,0.0087
1131.00,0.0087
1130.00,0.0087
1129.00,0.0087
1128.00,0.0087
1127.00,0.0087
1126.00,0.0087
1125.00,0.0087
1124.00,0.0087
1123.00,0.0087
1122.00,0.0086
1121.00,0.0086
1120.00,0.0085
1119.00,0.0085
1118.00,0.0085
1117.00,0.0085
1116.00,0.0085
1115.00,0.0085
1114.00,0.0086
1113.00,0.0086
1112.00,0.0086
1111.00,0.0087
1110.00,0.0088
1109.00,0.0088
1108.00,0.0088
1107.00,0.0089
1106.00,0.0089
1105.00,0.0089
1104.00,0.0090
1103.00,0.0090
1102.00,0.0091
1101.00,0.0092
1100.00,0.0092
1099.00,0.0093
1098.00,0.0094
1097.00,0.0094
1096.00,0.0095
1095.00,0.0096
1094.00,0.0098
1093.00,0.0099
1092.00,0.0100
1091.00,0.0102
1090.00,0.0104
1089.00,0.0105
1088.00,0.0108
1087.00,0.0110
1086.00,0.0112
1085.00,0.0114
1084.00,0.0117
1083.00,0.0119
1082.00,0.0122
1081.00,0.0124
1080.00,0.0127
1079.00,0.0129
1078.00,0.0131
1077.00,0.0133
1076.00,0.0135
1075.00,0.0137
1074.00,0.0138
1073.00,0.0140
1072.00,0.0141
1071.00,0.0142
1070.00,0.0144
1069.00,0.0145
1068.00,0.0146
1067.00,0.0147
1066.00,0.0147
1065.00,0.0148
1064.00,0.0148
1063.00,0.0148
1062.00,0.0148
1061.00,0.0148
1060.00,0.0147
1059.00,0.0147
1058.00,0.0146
1057.00,0.0145
1056.00,0.0145
1055.00,0.0144
1054.00,0.0143
1053.00,0.0142
1052.00,0.0141
1051.00,0.0141
1050.00,0.0140
1049.00,0.0139
1048.00,0.0139
1047.00,0.0138
1046.00,0.0136
1045.00,0.0135
1044.00,0.0133
1043.00,0.0132
1042.00,0.0130
1041.00,0.0128
1040.00,0.0126
1039.00,0.0124
1038.00,0.0122
1037.00,0.0120
1036.00,0.0118
1035.00,0.0116
1034.00,0.0115
1033.00,0.0113
1032.00,0.0112
1031.00,0.0111
1030.00,0.0109
1029.00,0.0108
1028.00,0.0106
1027.00,0.0105
1026.00,0.0103
1025.00,0.0102
1024.00,0.0100
1023.00,0.0099
1022.00,0.0097
1021.00,0.0095
1020.00,0.0093
1019.00,0.0091
1018.00,0.0090
1017.00,0.0089
1016.00,0.0088
1015.00,0.0086
1014.00,0.0085
1013.00,0.0083
1012.00,0.0081
1011.00,0.0079
1010.00,0.0077
1009.00,0.0076
1008.00,0.0074
1007.00,0.0072
1006.00,0.0071
1005.00,0.0070
1004.00,0.0068
1003.00,0.0067
1002.00,0.0066
1001.00,0.0065
1000.00,0.0064
999.00,0.0063
998.00,0.0062
997.00,0.0061
996.00,0.0060
995.00,0.0059
994.00,0.0059
993.00,0.0058
992.00,0.0058
991.00,0.0057
990.00,0.0056
989.00,0.0055
988.00,0.0055
987.00,0.0054
986.00,0.0054
985.00,0.0053
984.00,0.0052
983.00,0.0052
982.00,0.0052
981.00,0.0051
980.00,0.0051
979.00,0.0051
978.00,0.0050
977.00,0.0050
976.00,0.0050
975.00,0.0050
974.00,0.0050
973.00,0.0050
972.00,0.0050
971.00,0.0050
970.00,0.0050
969.00,0.0050
968.00,0.0050
967.00,0.0051
966.00,0.0051
965.00,0.0052
964.00,0.0052
963.00,0.0052
962.00,0.0053
961.00,0.0052
960.00,0.0052
959.00,0.0051
958.00,0.0051
957.00,0.0050
956.00,0.0049
955.00,0.0048
954.00,0.0047
953.00,0.0047
952.00,0.0046
951.00,0.0046
950.00,0.0045
949.00,0.0045
948.00,0.0045
947.00,0.0044
946.00,0.0044
945.00,0.0044
944.00,0.0043
943.00,0.0043
942.00,0.0043
941.00,0.0043
940.00,0.0043
939.00,0.0043
938.00,0.0044
937.00,0.0044
936.00,0.0044
935.00,0.0044
934.00,0.0045
933.00,0.0045
932.00,0.0045
931.00,0.0045
930.00,0.0045
929.00,0.0045
928.00,0.0045
927.00,0.0044
926.00,0.0044
925.00,0.0044
924.00,0.0043
923.00,0.0043
922.00,0.0042
921.00,0.0041
920.00,0.0041
919.00,0.0040
918.00,0.0039
917.00,0.0039
916.00,0.0038
915.00,0.0038
914.00,0.0038
913.00,0.0037
912.00,0.0037
911.00,0.0037
910.00,0.0037
909.00,0.0037
908.00,0.0037
907.00,0.0038
906.00,0.0038
905.00,0.0038
904.00,0.0038
903.00,0.0039
902.00,0.0039
901.00,0.0039
900.00,0.0039
899.00,0.0039
898.00,0.0038
897.00,0.0038
896.00,0.0038
895.00,0.0037
894.00,0.0037
893.00,0.0036
892.00,0.0036
891.00,0.0036
890.00,0.0035
889.00,0.0035
888.00,0.0034
887.00,0.0034
886.00,0.0033
885.00,0.0033
884.00,0.0033
883.00,0.0033
882.00,0.0033
881.00,0.0033
880.00,0.0032
879.00,0.0032
878.00,0.0032
877.00,0.0032
876.00,0.0032
875.00,0.0032
874.00,0.0032
873.00,0.0032
872.00,0.0032
871.00,0.0032
870.00,0.0032
869.00,0.0031
868.00,0.0031
867.00,0.0030
866.00,0.0029
865.00,0.0028
864.00,0.0028
863.00,0.0028
862.00,0.0027
861.00,0.0027
860.00,0.0027
859.00,0.0027
858.00,0.0027
857.00,0.0027
856.00,0.0027
855.00,0.0027
854.00,0.0027
853.00,0.0027
852.00,0.0027
851.00,0.0027
850.00,0.0027
849.00,0.0027
848.00,0.0027
847.00,0.0027
846.00,0.0027
845.00,0.0027
844.00,0.0028
843.00,0.0028
842.00,0.0028
841.00,0.0028
840.00,0.0028
839.00,0.0028
838.00,0.0028
837.00,0.0028
836.00,0.0029
835.00,0.0030
834.00,0.0031
833.00,0.0032
832.00,0.0033
831.00,0.0034
830.00,0.0034
829.00,0.0034
828.00,0.0035
827.00,0.0035
826.00,0.0036
825.00,0.0036
824.00,0.0037
823.00,0.0038
822.00,0.0038
821.00,0.0039
820.00,0.0039
819.00,0.0040
818.00,0.0040
817.00,0.0041
816.00,0.0042
815.00,0.0043
814.00,0.0043
813.00,0.0044
812.00,0.0045
811.00,0.0045
810.00,0.0046
809.00,0.0047
808.00,0.0048
807.00,0.0048
806.00,0.0049
805.00,0.0050
804.00,0.0051
803.00,0.0051
802.00,0.0051
801.00,0.0051
800.00,0.0052
799.00,0.0052
798.00,0.0052
797.00,0.0052
796.00,0.0053
795.00,0.0053
794.00,0.0053
793.00,0.0054
792.00,0.0054
791.00,0.0055
790.00,0.0055
789.00,0.0056
788.00,0.0056
787.00,0.0057
786.00,0.0057
785.00,0.0058
784.00,0.0059
783.00,0.0060
782.00,0.0061
781.00,0.0062
780.00,0.0063
779.00,0.0063
778.00,0.0064
777.00,0.0065
776.00,0.0066
775.00,0.0067
774.00,0.0068
773.00,0.0069
772.00,0.0070
771.00,0.0071
770.00,0.0072
769.00,0.0073
768.00,0.0074
767.00,0.0074
766.00,0.0075
765.00,0.0076
764.00,0.0076
763.00,0.0077
762.00,0.0078
761.00,0.0079
760.00,0.0080
759.00,0.0080
758.00,0.0081
757.00,0.0082
756.00,0.0082
755.00,0.0083
754.00,0.0084
753.00,0.0085
752.00,0.0086
751.00,0.0087
750.00,0.0088
749.00,0.0089
748.00,0.0090
747.00,0.0090
746.00,0.0090
745.00,0.0090
744.00,0.0090
743.00,0.0090
742.00,0.0090
741.00,0.0090
740.00,0.0091
739.00,0.0091
738.00,0.0091
737.00,0.0091
736.00,0.0091
735.00,0.0092
734.00,0.0092
733.00,0.0093
732.00,0.0094
731.00,0.0096
730.00,0.0098
729.00,0.0100
728.00,0.0103
727.00,0.0105
726.00,0.0108
725.00,0.0110
724.00,0.0113
723.00,0.0115
722.00,0.0118
721.00,0.0120
720.00,0.0122
719.00,0.0124
718.00,0.0126
717.00,0.0128
716.00,0.0131
715.00,0.0133
714.00,0.0135
713.00,0.0138
712.00,0.0140
711.00,0.0143
710.00,0.0146
709.00,0.0148
708.00,0.0151
707.00,0.0154
706.00,0.0157
705.00,0.0161
704.00,0.0164
703.00,0.0167
702.00,0.0169
701.00,0.0171
700.00,0.0173
699.00,0.0174
698.00,0.0175
697.00,0.0176
696.00,0.0176
695.00,0.0175
694.00,0.0175
693.00,0.0174
692.00,0.0174
691.00,0.0174
690.00,0.0174
689.00,0.0174
688.00,0.0174
687.00,0.0175
686.00,0.0175
685.00,0.0176
684.00,0.0177
683.00,0.0177
682.00,0.0178
681.00,0.0178
680.00,0.0179
679.00,0.0179
678.00,0.0180
677.00,0.0180
676.00,0.0180
675.00,0.0181
674.00,0.0181
673.00,0.0182
672.00,0.0183
671.00,0.0184
670.00,0.0184
669.00,0.0184
668.00,0.0184
667.00,0.0183
666.00,0.0184
665.00,0.0185
664.00,0.0186
663.00,0.0187
662.00,0.0187
661.00,0.0188
660.00,0.0188
659.00,0.0189
658.00,0.0189
657.00,0.0190
656.00,0.0191
655.00,0.0191
654.00,0.0192
653.00,0.0192
652.00,0.0192
651.00,0.0192
650.00,0.0193
649.00,0.0193
648.00,0.0194
647.00,0.0196
646.00,0.0196
645.00,0.0197
644.00,0.0198
643.00,0.0199
642.00,0.0200
641.00,0.0201
640.00,0.0202
639.00,0.0203
638.00,0.0204
637.00,0.0205
636.00,0.0206
635.00,0.0207
634.00,0.0208
633.00,0.0209
632.00,0.0209
631.00,0.0210
630.00,0.0210
629.00,0.0211
628.00,0.0212
627.00,0.0212
626.00,0.0212
625.00,0.0212
624.00,0.0213
623.00,0.0213
622.00,0.0214
621.00,0.0214
620.00,0.0214
619.00,0.0213
618.00,0.0213
617.00,0.0212
616.00,0.0212
615.00,0.0212
614.00,0.0212
613.00,0.0212
612.00,0.0211
611.00,0.0211
610.00,0.0210
609.00,0.0210
608.00,0.0210
607.00,0.0210
606.00,0.0210
605.00,0.0209
604.00,0.0210
603.00,0.0210
602.00,0.0211
601.00,0.0211
600.00,0.0211
599.00,0.0210
598.00,0.0210
597.00,0.0210
596.00,0.0210
595.00,0.0210
594.00,0.0210
593.00,0.0210
592.00,0.0210
591.00,0.0210
590.00,0.0211
589.00,0.0211
588.00,0.0213
587.00,0.0213
586.00,0.0214
585.00,0.0214
584.00,0.0214
583.00,0.0214
582.00,0.0214
581.00,0.0215
580.00,0.0215
579.00,0.0216
578.00,0.0217
577.00,0.0217
576.00,0.0217
575.00,0.0217
574.00,0.0217
573.00,0.0218
572.00,0.0218
571.00,0.0219
570.00,0.0219
569.00,0.0219
568.00,0.0219
567.00,0.0219
566.00,0.0219
565.00,0.0219
564.00,0.0219
563.00,0.0220
562.00,0.0220
561.00,0.0220
560.00,0.0220
559.00,0.0220
558.00,0.0221
557.00,0.0221
556.00,0.0222
555.00,0.0222
554.00,0.0223
553.00,0.0223
552.00,0.0224
551.00,0.0225
550.00,0.0225
549.00,0.0224
548.00,0.0224
547.00,0.0224
546.00,0.0224
545.00,0.0223
544.00,0.0223
543.00,0.0223
542.00,0.0224
541.00,0.0225
540.00,0.0226
539.00,0.0226
538.00,0.0226
537.00,0.0226
536.00,0.0226
535.00,0.0227
534.00,0.0227
533.00,0.0228
532.00,0.0229
531.00,0.0230
530.00,0.0230
529.00,0.0231
528.00,0.0231
527.00,0.0231
526.00,0.0231
525.00,0.0231
524.00,0.0231
523.00,0.0232
522.00,0.0232
521.00,0.0232
520.00,0.0232
519.00,0.0232
518.00,0.0232
517.00,0.0232
516.00,0.0231
515.00,0.0231
514.00,0.0230
513.00,0.0230
512.00,0.0230
511.00,0.0230
510.00,0.0230
509.00,0.0230
508.00,0.0229
507.00,0.0228
506.00,0.0226
505.00,0.0226
504.00,0.0226
503.00,0.0226
502.00,0.0225
501.00,0.0224
500.00,0.0223
499.00,0.0223
498.00,0.0223
497.00,0.0224
496.00,0.0225
495.00,0.0225
494.00,0.0224
493.00,0.0222
492.00,0.0221
491.00,0.0221
490.00,0.0221
489.00,0.0222
488.00,0.0222
487.00,0.0222
486.00,0.0222
485.00,0.0221
484.00,0.0221
483.00,0.0221
482.00,0.0221
481.00,0.0221
480.00,0.0221
479.00,0.0222
478.00,0.0222
477.00,0.0223
476.00,0.0223
475.00,0.0223
474.00,0.0223
473.00,0.0222
472.00,0.0222
471.00,0.0222
470.00,0.0222
469.00,0.0223
468.00,0.0224
467.00,0.0225
466.00,0.0224
465.00,0.0224
464.00,0.0224
463.00,0.0223
462.00,0.0221
461.00,0.0219
460.00,0.0219
459.00,0.0220
458.00,0.0221
457.00,0.0221
456.00,0.0219
455.00,0.0217
454.00,0.0215
453.00,0.0214
452.00,0.0215
451.00,0.0215
450.00,0.0214
449.00,0.0212
448.00,0.0211
447.00,0.0209
446.00,0.0206
445.00,0.0204
444.00,0.0202
443.00,0.0200
442.00,0.0199
441.00,0.0200
440.00,0.0200
439.00,0.0200
438.00,0.0198
437.00,0.0195
436.00,0.0192
435.00,0.0189
434.00,0.0186
433.00,0.0184
432.00,0.0182
431.00,0.0180
430.00,0.0177
429.00,0.0175
428.00,0.0174
427.00,0.0173
426.00,0.0174
425.00,0.0174
424.00,0.0174
423.00,0.0172
422.00,0.0171
421.00,0.0173
420.00,0.0175
419.00,0.0176
418.00,0.0173
417.00,0.0169
416.00,0.0167
415.00,0.0165
414.00,0.0163
413.00,0.0163
412.00,0.0166
411.00,0.0169
410.00,0.0170
409.00,0.0169
408.00,0.0167
407.00,0.0163
406.00,0.0158
405.00,0.0155
404.00,0.0152
403.00,0.0148
402.00,0.0143
401.00,0.0140
400.00,0.0142
