Created as New Dataset,Sample 030 By YargerLab Date Friday, November 01 2024
cm-1,A
4000.00,0.0012
3999.00,0.0011
3998.00,0.0011
3997.00,0.0011
3996.00,0.0011
3995.00,0.0011
3994.00,0.0011
3993.00,0.0011
3992.00,0.0011
3991.00,0.0011
3990.00,0.0010
3989.00,0.0010
3988.00,0.0010
3987.00,0.0010
3986.00,0.0010
3985.00,0.0010
3984.00,0.0010
3983.00,0.0009
3982.00,0.0009
3981.00,0.0009
3980.00,0.0009
3979.00,0.0009
3978.00,0.0009
3977.00,0.0009
3976.00,0.0009
3975.00,0.0009
3974.00,0.0009
3973.00,0.0009
3972.00,0.0009
3971.00,0.0009
3970.00,0.0009
3969.00,0.0009
3968.00,0.0009
3967.00,0.0009
3966.00,0.0009
3965.00,0.0010
3964.00,0.0010
3963.00,0.0010
3962.00,0.0010
3961.00,0.0010
3960.00,0.0010
3959.00,0.0010
3958.00,0.0010
3957.00,0.0010
3956.00,0.0010
3955.00,0.0010
3954.00,0.0010
3953.00,0.0010
3952.00,0.0010
3951.00,0.0010
3950.00,0.0010
3949.00,0.0010
3948.00,0.0010
3947.00,0.0011
3946.00,0.0011
3945.00,0.0011
3944.00,0.0011
3943.00,0.0010
3942.00,0.0010
3941.00,0.0010
3940.00,0.0010
3939.00,0.0010
3938.00,0.0011
3937.00,0.0011
3936.00,0.0011
3935.00,0.0011
3934.00,0.0011
3933.00,0.0011
3932.00,0.0011
3931.00,0.0011
3930.00,0.0011
3929.00,0.0012
3928.00,0.0012
3927.00,0.0012
3926.00,0.0012
3925.00,0.0012
3924.00,0.0012
3923.00,0.0012
3922.00,0.0012
3921.00,0.0012
3920.00,0.0012
3919.00,0.0012
3918.00,0.0012
3917.00,0.0012
3916.00,0.0012
3915.00,0.0013
3914.00,0.0013
3913.00,0.0013
3912.00,0.0013
3911.00,0.0013
3910.00,0.0013
3909.00,0.0013
3908.00,0.0013
3907.00,0.0014
3906.00,0.0014
3905.00,0.0014
3904.00,0.0014
3903.00,0.0015
3902.00,0.0015
3901.00,0.0015
3900.00,0.0016
3899.00,0.0016
3898.00,0.0016
3897.00,0.0016
3896.00,0.0016
3895.00,0.0016
3894.00,0.0016
3893.00,0.0015
3892.00,0.0015
3891.00,0.0015
3890.00,0.0015
3889.00,0.0015
3888.00,0.0015
3887.00,0.0015
3886.00,0.0015
3885.00,0.0015
3884.00,0.0015
3883.00,0.0015
3882.00,0.0015
3881.00,0.0015
3880.00,0.0015
3879.00,0.0015
3878.00,0.0015
3877.00,0.0015
3876.00,0.0015
3875.00,0.0015
3874.00,0.0015
3873.00,0.0015
3872.00,0.0015
3871.00,0.0016
3870.00,0.0016
3869.00,0.0016
3868.00,0.0016
3867.00,0.0016
3866.00,0.0016
3865.00,0.0015
3864.00,0.0015
3863.00,0.0015
3862.00,0.0015
3861.00,0.0015
3860.00,0.0015
3859.00,0.0015
3858.00,0.0015
3857.00,0.0015
3856.00,0.0015
3855.00,0.0015
3854.00,0.0015
3853.00,0.0015
3852.00,0.0015
3851.00,0.0016
3850.00,0.0016
3849.00,0.0016
3848.00,0.0016
3847.00,0.0016
3846.00,0.0016
3845.00,0.0016
3844.00,0.0016
3843.00,0.0016
3842.00,0.0016
3841.00,0.0016
3840.00,0.0016
3839.00,0.0016
3838.00,0.0016
3837.00,0.0016
3836.00,0.0017
3835.00,0.0017
3834.00,0.0017
3833.00,0.0017
3832.00,0.0017
3831.00,0.0017
3830.00,0.0017
3829.00,0.0017
3828.00,0.0017
3827.00,0.0017
3826.00,0.0017
3825.00,0.0017
3824.00,0.0017
3823.00,0.0017
3822.00,0.0017
3821.00,0.0017
3820.00,0.0017
3819.00,0.0017
3818.00,0.0016
3817.00,0.0016
3816.00,0.0016
3815.00,0.0016
3814.00,0.0016
3813.00,0.0016
3812.00,0.0016
3811.00,0.0016
3810.00,0.0016
3809.00,0.0016
3808.00,0.0016
3807.00,0.0016
3806.00,0.0016
3805.00,0.0016
3804.00,0.0017
3803.00,0.0017
3802.00,0.0016
3801.00,0.0016
3800.00,0.0016
3799.00,0.0016
3798.00,0.0015
3797.00,0.0015
3796.00,0.0015
3795.00,0.0015
3794.00,0.0015
3793.00,0.0015
3792.00,0.0015
3791.00,0.0015
3790.00,0.0015
3789.00,0.0014
3788.00,0.0014
3787.00,0.0014
3786.00,0.0014
3785.00,0.0014
3784.00,0.0013
3783.00,0.0013
3782.00,0.0013
3781.00,0.0013
3780.00,0.0012
3779.00,0.0012
3778.00,0.0012
3777.00,0.0011
3776.00,0.0011
3775.00,0.0011
3774.00,0.0011
3773.00,0.0011
3772.00,0.0010
3771.00,0.0010
3770.00,0.0010
3769.00,0.0010
3768.00,0.0010
3767.00,0.0010
3766.00,0.0009
3765.00,0.0009
3764.00,0.0009
3763.00,0.0009
3762.00,0.0009
3761.00,0.0009
3760.00,0.0009
3759.00,0.0009
3758.00,0.0009
3757.00,0.0009
3756.00,0.0009
3755.00,0.0009
3754.00,0.0009
3753.00,0.0010
3752.00,0.0010
3751.00,0.0010
3750.00,0.0010
3749.00,0.0010
3748.00,0.0010
3747.00,0.0010
3746.00,0.0010
3745.00,0.0010
3744.00,0.0010
3743.00,0.0010
3742.00,0.0010
3741.00,0.0010
3740.00,0.0011
3739.00,0.0011
3738.00,0.0011
3737.00,0.0011
3736.00,0.0011
3735.00,0.0011
3734.00,0.0011
3733.00,0.0011
3732.00,0.0011
3731.00,0.0011
3730.00,0.0011
3729.00,0.0011
3728.00,0.0011
3727.00,0.0011
3726.00,0.0012
3725.00,0.0012
3724.00,0.0012
3723.00,0.0012
3722.00,0.0012
3721.00,0.0012
3720.00,0.0012
3719.00,0.0012
3718.00,0.0012
3717.00,0.0012
3716.00,0.0012
3715.00,0.0013
3714.00,0.0013
3713.00,0.0013
3712.00,0.0013
3711.00,0.0013
3710.00,0.0013
3709.00,0.0013
3708.00,0.0013
3707.00,0.0013
3706.00,0.0014
3705.00,0.0014
3704.00,0.0014
3703.00,0.0015
3702.00,0.0015
3701.00,0.0016
3700.00,0.0016
3699.00,0.0017
3698.00,0.0018
3697.00,0.0019
3696.00,0.0020
3695.00,0.0021
3694.00,0.0023
3693.00,0.0025
3692.00,0.0027
3691.00,0.0030
3690.00,0.0034
3689.00,0.0038
3688.00,0.0044
3687.00,0.0049
3686.00,0.0055
3685.00,0.0062
3684.00,0.0069
3683.00,0.0077
3682.00,0.0086
3681.00,0.0096
3680.00,0.0106
3679.00,0.0116
3678.00,0.0126
3677.00,0.0137
3676.00,0.0149
3675.00,0.0161
3674.00,0.0170
3673.00,0.0177
3672.00,0.0182
3671.00,0.0187
3670.00,0.0192
3669.00,0.0195
3668.00,0.0198
3667.00,0.0201
3666.00,0.0204
3665.00,0.0208
3664.00,0.0213
3663.00,0.0217
3662.00,0.0222
3661.00,0.0225
3660.00,0.0226
3659.00,0.0227
3658.00,0.0228
3657.00,0.0227
3656.00,0.0226
3655.00,0.0223
3654.00,0.0220
3653.00,0.0217
3652.00,0.0215
3651.00,0.0212
3650.00,0.0211
3649.00,0.0208
3648.00,0.0205
3647.00,0.0201
3646.00,0.0196
3645.00,0.0190
3644.00,0.0183
3643.00,0.0176
3642.00,0.0169
3641.00,0.0164
3640.00,0.0161
3639.00,0.0160
3638.00,0.0160
3637.00,0.0156
3636.00,0.0145
3635.00,0.0127
3634.00,0.0109
3633.00,0.0094
3632.00,0.0083
3631.00,0.0076
3630.00,0.0070
3629.00,0.0066
3628.00,0.0062
3627.00,0.0058
3626.00,0.0056
3625.00,0.0054
3624.00,0.0051
3623.00,0.0049
3622.00,0.0047
3621.00,0.0045
3620.00,0.0043
3619.00,0.0041
3618.00,0.0039
3617.00,0.0037
3616.00,0.0036
3615.00,0.0034
3614.00,0.0033
3613.00,0.0032
3612.00,0.0030
3611.00,0.0029
3610.00,0.0028
3609.00,0.0027
3608.00,0.0025
3607.00,0.0024
3606.00,0.0023
3605.00,0.0022
3604.00,0.0021
3603.00,0.0021
3602.00,0.0020
3601.00,0.0020
3600.00,0.0020
3599.00,0.0020
3598.00,0.0020
3597.00,0.0020
3596.00,0.0020
3595.00,0.0020
3594.00,0.0020
3593.00,0.0020
3592.00,0.0020
3591.00,0.0020
3590.00,0.0020
3589.00,0.0020
3588.00,0.0020
3587.00,0.0020
3586.00,0.0020
3585.00,0.0020
3584.00,0.0020
3583.00,0.0021
3582.00,0.0021
3581.00,0.0021
3580.00,0.0021
3579.00,0.0021
3578.00,0.0021
3577.00,0.0021
3576.00,0.0022
3575.00,0.0022
3574.00,0.0022
3573.00,0.0023
3572.00,0.0023
3571.00,0.0024
3570.00,0.0024
3569.00,0.0025
3568.00,0.0025
3567.00,0.0025
3566.00,0.0025
3565.00,0.0025
3564.00,0.0025
3563.00,0.0025
3562.00,0.0025
3561.00,0.0026
3560.00,0.0026
3559.00,0.0026
3558.00,0.0026
3557.00,0.0026
3556.00,0.0026
3555.00,0.0026
3554.00,0.0026
3553.00,0.0026
3552.00,0.0026
3551.00,0.0026
3550.00,0.0026
3549.00,0.0026
3548.00,0.0026
3547.00,0.0026
3546.00,0.0025
3545.00,0.0025
3544.00,0.0025
3543.00,0.0024
3542.00,0.0024
3541.00,0.0023
3540.00,0.0023
3539.00,0.0022
3538.00,0.0021
3537.00,0.0020
3536.00,0.0019
3535.00,0.0018
3534.00,0.0016
3533.00,0.0014
3532.00,0.0012
3531.00,0.0010
3530.00,0.0006
3529.00,0.0003
3528.00,-0.0001
3527.00,-0.0006
3526.00,-0.0010
3525.00,-0.0015
3524.00,-0.0019
3523.00,-0.0023
3522.00,-0.0025
3521.00,-0.0027
3520.00,-0.0028
3519.00,-0.0028
3518.00,-0.0026
3517.00,-0.0024
3516.00,-0.0021
3515.00,-0.0018
3514.00,-0.0013
3513.00,-0.0009
3512.00,-0.0004
3511.00,-0.0000
3510.00,0.0004
3509.00,0.0008
3508.00,0.0012
3507.00,0.0015
3506.00,0.0018
3505.00,0.0021
3504.00,0.0023
3503.00,0.0025
3502.00,0.0027
3501.00,0.0029
3500.00,0.0031
3499.00,0.0033
3498.00,0.0035
3497.00,0.0036
3496.00,0.0038
3495.00,0.0039
3494.00,0.0041
3493.00,0.0042
3492.00,0.0044
3491.00,0.0046
3490.00,0.0048
3489.00,0.0049
3488.00,0.0051
3487.00,0.0053
3486.00,0.0055
3485.00,0.0056
3484.00,0.0058
3483.00,0.0060
3482.00,0.0062
3481.00,0.0063
3480.00,0.0064
3479.00,0.0066
3478.00,0.0068
3477.00,0.0069
3476.00,0.0071
3475.00,0.0073
3474.00,0.0075
3473.00,0.0077
3472.00,0.0080
3471.00,0.0084
3470.00,0.0088
3469.00,0.0092
3468.00,0.0098
3467.00,0.0104
3466.00,0.0112
3465.00,0.0120
3464.00,0.0130
3463.00,0.0142
3462.00,0.0156
3461.00,0.0172
3460.00,0.0190
3459.00,0.0211
3458.00,0.0234
3457.00,0.0258
3456.00,0.0284
3455.00,0.0310
3454.00,0.0335
3453.00,0.0358
3452.00,0.0378
3451.00,0.0392
3450.00,0.0400
3449.00,0.0400
3448.00,0.0394
3447.00,0.0382
3446.00,0.0365
3445.00,0.0345
3444.00,0.0322
3443.00,0.0298
3442.00,0.0274
3441.00,0.0250
3440.00,0.0227
3439.00,0.0206
3438.00,0.0186
3437.00,0.0169
3436.00,0.0152
3435.00,0.0138
3434.00,0.0124
3433.00,0.0112
3432.00,0.0102
3431.00,0.0092
3430.00,0.0084
3429.00,0.0076
3428.00,0.0069
3427.00,0.0063
3426.00,0.0058
3425.00,0.0053
3424.00,0.0049
3423.00,0.0045
3422.00,0.0041
3421.00,0.0037
3420.00,0.0034
3419.00,0.0030
3418.00,0.0027
3417.00,0.0025
3416.00,0.0022
3415.00,0.0020
3414.00,0.0018
3413.00,0.0016
3412.00,0.0014
3411.00,0.0013
3410.00,0.0012
3409.00,0.0011
3408.00,0.0011
3407.00,0.0012
3406.00,0.0013
3405.00,0.0014
3404.00,0.0016
3403.00,0.0018
3402.00,0.0021
3401.00,0.0024
3400.00,0.0027
3399.00,0.0031
3398.00,0.0035
3397.00,0.0039
3396.00,0.0043
3395.00,0.0047
3394.00,0.0051
3393.00,0.0055
3392.00,0.0058
3391.00,0.0062
3390.00,0.0065
3389.00,0.0068
3388.00,0.0071
3387.00,0.0074
3386.00,0.0077
3385.00,0.0080
3384.00,0.0082
3383.00,0.0085
3382.00,0.0087
3381.00,0.0089
3380.00,0.0091
3379.00,0.0094
3378.00,0.0096
3377.00,0.0098
3376.00,0.0100
3375.00,0.0102
3374.00,0.0104
3373.00,0.0105
3372.00,0.0107
3371.00,0.0109
3370.00,0.0111
3369.00,0.0113
3368.00,0.0114
3367.00,0.0116
3366.00,0.0118
3365.00,0.0119
3364.00,0.0121
3363.00,0.0123
3362.00,0.0125
3361.00,0.0126
3360.00,0.0128
3359.00,0.0129
3358.00,0.0131
3357.00,0.0132
3356.00,0.0134
3355.00,0.0135
3354.00,0.0137
3353.00,0.0138
3352.00,0.0140
3351.00,0.0141
3350.00,0.0142
3349.00,0.0144
3348.00,0.0145
3347.00,0.0146
3346.00,0.0147
3345.00,0.0148
3344.00,0.0149
3343.00,0.0150
3342.00,0.0152
3341.00,0.0153
3340.00,0.0154
3339.00,0.0155
3338.00,0.0156
3337.00,0.0157
3336.00,0.0157
3335.00,0.0158
3334.00,0.0159
3333.00,0.0160
3332.00,0.0160
3331.00,0.0161
3330.00,0.0162
3329.00,0.0163
3328.00,0.0163
3327.00,0.0164
3326.00,0.0165
3325.00,0.0165
3324.00,0.0166
3323.00,0.0166
3322.00,0.0167
3321.00,0.0168
3320.00,0.0169
3319.00,0.0169
3318.00,0.0170
3317.00,0.0171
3316.00,0.0171
3315.00,0.0172
3314.00,0.0173
3313.00,0.0174
3312.00,0.0174
3311.00,0.0175
3310.00,0.0175
3309.00,0.0176
3308.00,0.0176
3307.00,0.0177
3306.00,0.0178
3305.00,0.0179
3304.00,0.0179
3303.00,0.0180
3302.00,0.0181
3301.00,0.0181
3300.00,0.0182
3299.00,0.0183
3298.00,0.0184
3297.00,0.0184
3296.00,0.0185
3295.00,0.0186
3294.00,0.0186
3293.00,0.0187
3292.00,0.0188
3291.00,0.0189
3290.00,0.0189
3289.00,0.0190
3288.00,0.0191
3287.00,0.0192
3286.00,0.0193
3285.00,0.0193
3284.00,0.0194
3283.00,0.0195
3282.00,0.0195
3281.00,0.0196
3280.00,0.0197
3279.00,0.0198
3278.00,0.0198
3277.00,0.0199
3276.00,0.0200
3275.00,0.0200
3274.00,0.0201
3273.00,0.0201
3272.00,0.0202
3271.00,0.0202
3270.00,0.0203
3269.00,0.0204
3268.00,0.0205
3267.00,0.0206
3266.00,0.0207
3265.00,0.0208
3264.00,0.0208
3263.00,0.0209
3262.00,0.0210
3261.00,0.0210
3260.00,0.0211
3259.00,0.0211
3258.00,0.0212
3257.00,0.0212
3256.00,0.0213
3255.00,0.0213
3254.00,0.0214
3253.00,0.0215
3252.00,0.0216
3251.00,0.0217
3250.00,0.0217
3249.00,0.0218
3248.00,0.0218
3247.00,0.0219
3246.00,0.0220
3245.00,0.0220
3244.00,0.0221
3243.00,0.0222
3242.00,0.0223
3241.00,0.0224
3240.00,0.0224
3239.00,0.0225
3238.00,0.0226
3237.00,0.0226
3236.00,0.0227
3235.00,0.0228
3234.00,0.0228
3233.00,0.0229
3232.00,0.0229
3231.00,0.0229
3230.00,0.0230
3229.00,0.0231
3228.00,0.0231
3227.00,0.0232
3226.00,0.0232
3225.00,0.0233
3224.00,0.0233
3223.00,0.0233
3222.00,0.0233
3221.00,0.0234
3220.00,0.0234
3219.00,0.0234
3218.00,0.0235
3217.00,0.0235
3216.00,0.0236
3215.00,0.0236
3214.00,0.0237
3213.00,0.0237
3212.00,0.0237
3211.00,0.0238
3210.00,0.0239
3209.00,0.0239
3208.00,0.0240
3207.00,0.0240
3206.00,0.0241
3205.00,0.0242
3204.00,0.0242
3203.00,0.0243
3202.00,0.0243
3201.00,0.0244
3200.00,0.0244
3199.00,0.0244
3198.00,0.0244
3197.00,0.0244
3196.00,0.0244
3195.00,0.0244
3194.00,0.0243
3193.00,0.0243
3192.00,0.0243
3191.00,0.0244
3190.00,0.0244
3189.00,0.0243
3188.00,0.0243
3187.00,0.0243
3186.00,0.0243
3185.00,0.0242
3184.00,0.0242
3183.00,0.0241
3182.00,0.0241
3181.00,0.0240
3180.00,0.0239
3179.00,0.0239
3178.00,0.0238
3177.00,0.0237
3176.00,0.0237
3175.00,0.0236
3174.00,0.0235
3173.00,0.0234
3172.00,0.0234
3171.00,0.0233
3170.00,0.0232
3169.00,0.0231
3168.00,0.0230
3167.00,0.0229
3166.00,0.0229
3165.00,0.0228
3164.00,0.0227
3163.00,0.0226
3162.00,0.0225
3161.00,0.0224
3160.00,0.0224
3159.00,0.0223
3158.00,0.0222
3157.00,0.0221
3156.00,0.0221
3155.00,0.0220
3154.00,0.0219
3153.00,0.0219
3152.00,0.0218
3151.00,0.0219
3150.00,0.0219
3149.00,0.0219
3148.00,0.0220
3147.00,0.0220
3146.00,0.0220
3145.00,0.0221
3144.00,0.0221
3143.00,0.0221
3142.00,0.0221
3141.00,0.0221
3140.00,0.0221
3139.00,0.0221
3138.00,0.0221
3137.00,0.0221
3136.00,0.0222
3135.00,0.0222
3134.00,0.0222
3133.00,0.0222
3132.00,0.0222
3131.00,0.0222
3130.00,0.0222
3129.00,0.0222
3128.00,0.0222
3127.00,0.0222
3126.00,0.0222
3125.00,0.0222
3124.00,0.0222
3123.00,0.0221
3122.00,0.0221
3121.00,0.0221
3120.00,0.0220
3119.00,0.0220
3118.00,0.0220
3117.00,0.0220
3116.00,0.0221
3115.00,0.0221
3114.00,0.0222
3113.00,0.0222
3112.00,0.0223
3111.00,0.0223
3110.00,0.0223
3109.00,0.0223
3108.00,0.0224
3107.00,0.0224
3106.00,0.0225
3105.00,0.0225
3104.00,0.0225
3103.00,0.0225
3102.00,0.0225
3101.00,0.0225
3100.00,0.0225
3099.00,0.0225
3098.00,0.0224
3097.00,0.0224
3096.00,0.0223
3095.00,0.0223
3094.00,0.0222
3093.00,0.0221
3092.00,0.0221
3091.00,0.0220
3090.00,0.0219
3089.00,0.0219
3088.00,0.0218
3087.00,0.0217
3086.00,0.0217
3085.00,0.0216
3084.00,0.0216
3083.00,0.0215
3082.00,0.0214
3081.00,0.0213
3080.00,0.0212
3079.00,0.0211
3078.00,0.0210
3077.00,0.0210
3076.00,0.0211
3075.00,0.0212
3074.00,0.0213
3073.00,0.0216
3072.00,0.0218
3071.00,0.0221
3070.00,0.0222
3069.00,0.0223
3068.00,0.0223
3067.00,0.0222
3066.00,0.0221
3065.00,0.0219
3064.00,0.0216
3063.00,0.0214
3062.00,0.0211
3061.00,0.0208
3060.00,0.0206
3059.00,0.0203
3058.00,0.0200
3057.00,0.0198
3056.00,0.0196
3055.00,0.0194
3054.00,0.0193
3053.00,0.0191
3052.00,0.0190
3051.00,0.0189
3050.00,0.0188
3049.00,0.0187
3048.00,0.0186
3047.00,0.0185
3046.00,0.0184
3045.00,0.0183
3044.00,0.0182
3043.00,0.0182
3042.00,0.0181
3041.00,0.0181
3040.00,0.0181
3039.00,0.0181
3038.00,0.0181
3037.00,0.0180
3036.00,0.0180
3035.00,0.0180
3034.00,0.0180
3033.00,0.0180
3032.00,0.0181
3031.00,0.0182
3030.00,0.0183
3029.00,0.0184
3028.00,0.0186
3027.00,0.0188
3026.00,0.0190
3025.00,0.0193
3024.00,0.0197
3023.00,0.0201
3022.00,0.0207
3021.00,0.0213
3020.00,0.0222
3019.00,0.0232
3018.00,0.0244
3017.00,0.0258
3016.00,0.0276
3015.00,0.0297
3014.00,0.0321
3013.00,0.0349
3012.00,0.0381
3011.00,0.0418
3010.00,0.0459
3009.00,0.0504
3008.00,0.0553
3007.00,0.0605
3006.00,0.0661
3005.00,0.0719
3004.00,0.0779
3003.00,0.0838
3002.00,0.0897
3001.00,0.0954
3000.00,0.1008
2999.00,0.1058
2998.00,0.1103
2997.00,0.1144
2996.00,0.1182
2995.00,0.1217
2994.00,0.1250
2993.00,0.1283
2992.00,0.1315
2991.00,0.1346
2990.00,0.1376
2989.00,0.1408
2988.00,0.1446
2987.00,0.1499
2986.00,0.1579
2985.00,0.1700
2984.00,0.1857
2983.00,0.2022
2982.00,0.2152
2981.00,0.2212
2980.00,0.2201
2979.00,0.2143
2978.00,0.2071
2977.00,0.2006
2976.00,0.1961
2975.00,0.1942
2974.00,0.1948
2973.00,0.1969
2972.00,0.1981
2971.00,0.1964
2970.00,0.1911
2969.00,0.1834
2968.00,0.1755
2967.00,0.1684
2966.00,0.1623
2965.00,0.1567
2964.00,0.1516
2963.00,0.1470
2962.00,0.1429
2961.00,0.1394
2960.00,0.1363
2959.00,0.1335
2958.00,0.1307
2957.00,0.1280
2956.00,0.1251
2955.00,0.1222
2954.00,0.1190
2953.00,0.1156
2952.00,0.1121
2951.00,0.1084
2950.00,0.1047
2949.00,0.1009
2948.00,0.0971
2947.00,0.0932
2946.00,0.0893
2945.00,0.0858
2944.00,0.0828
2943.00,0.0807
2942.00,0.0794
2941.00,0.0789
2940.00,0.0788
2939.00,0.0789
2938.00,0.0790
2937.00,0.0792
2936.00,0.0797
2935.00,0.0807
2934.00,0.0821
2933.00,0.0839
2932.00,0.0858
2931.00,0.0875
2930.00,0.0887
2929.00,0.0895
2928.00,0.0899
2927.00,0.0899
2926.00,0.0896
2925.00,0.0890
2924.00,0.0883
2923.00,0.0875
2922.00,0.0868
2921.00,0.0860
2920.00,0.0853
2919.00,0.0846
2918.00,0.0839
2917.00,0.0832
2916.00,0.0824
2915.00,0.0816
2914.00,0.0807
2913.00,0.0798
2912.00,0.0791
2911.00,0.0785
2910.00,0.0780
2909.00,0.0776
2908.00,0.0772
2907.00,0.0770
2906.00,0.0769
2905.00,0.0769
2904.00,0.0769
2903.00,0.0769
2902.00,0.0770
2901.00,0.0772
2900.00,0.0774
2899.00,0.0776
2898.00,0.0781
2897.00,0.0788
2896.00,0.0797
2895.00,0.0809
2894.00,0.0824
2893.00,0.0839
2892.00,0.0854
2891.00,0.0867
2890.00,0.0876
2889.00,0.0879
2888.00,0.0878
2887.00,0.0876
2886.00,0.0875
2885.00,0.0874
2884.00,0.0869
2883.00,0.0855
2882.00,0.0832
2881.00,0.0800
2880.00,0.0767
2879.00,0.0736
2878.00,0.0711
2877.00,0.0691
2876.00,0.0676
2875.00,0.0666
2874.00,0.0658
2873.00,0.0652
2872.00,0.0644
2871.00,0.0635
2870.00,0.0622
2869.00,0.0605
2868.00,0.0587
2867.00,0.0568
2866.00,0.0549
2865.00,0.0533
2864.00,0.0518
2863.00,0.0505
2862.00,0.0493
2861.00,0.0480
2860.00,0.0468
2859.00,0.0454
2858.00,0.0439
2857.00,0.0423
2856.00,0.0408
2855.00,0.0393
2854.00,0.0380
2853.00,0.0368
2852.00,0.0357
2851.00,0.0346
2850.00,0.0335
2849.00,0.0324
2848.00,0.0314
2847.00,0.0305
2846.00,0.0298
2845.00,0.0293
2844.00,0.0289
2843.00,0.0286
2842.00,0.0282
2841.00,0.0279
2840.00,0.0276
2839.00,0.0273
2838.00,0.0272
2837.00,0.0272
2836.00,0.0272
2835.00,0.0271
2834.00,0.0267
2833.00,0.0261
2832.00,0.0253
2831.00,0.0243
2830.00,0.0232
2829.00,0.0221
2828.00,0.0212
2827.00,0.0206
2826.00,0.0203
2825.00,0.0201
2824.00,0.0200
2823.00,0.0199
2822.00,0.0199
2821.00,0.0197
2820.00,0.0196
2819.00,0.0194
2818.00,0.0192
2817.00,0.0191
2816.00,0.0190
2815.00,0.0188
2814.00,0.0186
2813.00,0.0184
2812.00,0.0182
2811.00,0.0180
2810.00,0.0178
2809.00,0.0177
2808.00,0.0175
2807.00,0.0174
2806.00,0.0173
2805.00,0.0172
2804.00,0.0171
2803.00,0.0170
2802.00,0.0170
2801.00,0.0169
2800.00,0.0168
2799.00,0.0167
2798.00,0.0167
2797.00,0.0166
2796.00,0.0165
2795.00,0.0165
2794.00,0.0164
2793.00,0.0163
2792.00,0.0162
2791.00,0.0161
2790.00,0.0160
2789.00,0.0160
2788.00,0.0160
2787.00,0.0159
2786.00,0.0159
2785.00,0.0158
2784.00,0.0158
2783.00,0.0157
2782.00,0.0157
2781.00,0.0157
2780.00,0.0157
2779.00,0.0157
2778.00,0.0156
2777.00,0.0156
2776.00,0.0156
2775.00,0.0156
2774.00,0.0157
2773.00,0.0157
2772.00,0.0158
2771.00,0.0159
2770.00,0.0159
2769.00,0.0159
2768.00,0.0159
2767.00,0.0159
2766.00,0.0159
2765.00,0.0159
2764.00,0.0158
2763.00,0.0158
2762.00,0.0158
2761.00,0.0158
2760.00,0.0157
2759.00,0.0157
2758.00,0.0157
2757.00,0.0156
2756.00,0.0156
2755.00,0.0156
2754.00,0.0156
2753.00,0.0156
2752.00,0.0155
2751.00,0.0155
2750.00,0.0155
2749.00,0.0155
2748.00,0.0155
2747.00,0.0155
2746.00,0.0155
2745.00,0.0155
2744.00,0.0155
2743.00,0.0155
2742.00,0.0155
2741.00,0.0155
2740.00,0.0155
2739.00,0.0156
2738.00,0.0156
2737.00,0.0156
2736.00,0.0156
2735.00,0.0156
2734.00,0.0156
2733.00,0.0156
2732.00,0.0156
2731.00,0.0155
2730.00,0.0155
2729.00,0.0154
2728.00,0.0154
2727.00,0.0154
2726.00,0.0154
2725.00,0.0154
2724.00,0.0154
2723.00,0.0154
2722.00,0.0155
2721.00,0.0155
2720.00,0.0155
2719.00,0.0155
2718.00,0.0154
2717.00,0.0154
2716.00,0.0154
2715.00,0.0154
2714.00,0.0153
2713.00,0.0153
2712.00,0.0153
2711.00,0.0152
2710.00,0.0152
2709.00,0.0152
2708.00,0.0152
2707.00,0.0152
2706.00,0.0151
2705.00,0.0152
2704.00,0.0152
2703.00,0.0152
2702.00,0.0152
2701.00,0.0152
2700.00,0.0152
2699.00,0.0152
2698.00,0.0152
2697.00,0.0153
2696.00,0.0153
2695.00,0.0153
2694.00,0.0154
2693.00,0.0154
2692.00,0.0154
2691.00,0.0154
2690.00,0.0155
2689.00,0.0155
2688.00,0.0155
2687.00,0.0156
2686.00,0.0156
2685.00,0.0156
2684.00,0.0156
2683.00,0.0157
2682.00,0.0157
2681.00,0.0157
2680.00,0.0157
2679.00,0.0157
2678.00,0.0157
2677.00,0.0157
2676.00,0.0158
2675.00,0.0159
2674.00,0.0160
2673.00,0.0161
2672.00,0.0163
2671.00,0.0164
2670.00,0.0166
2669.00,0.0168
2668.00,0.0169
2667.00,0.0171
2666.00,0.0171
2665.00,0.0172
2664.00,0.0172
2663.00,0.0171
2662.00,0.0171
2661.00,0.0171
2660.00,0.0171
2659.00,0.0170
2658.00,0.0169
2657.00,0.0168
2656.00,0.0168
2655.00,0.0167
2654.00,0.0166
2653.00,0.0165
2652.00,0.0165
2651.00,0.0164
2650.00,0.0163
2649.00,0.0163
2648.00,0.0162
2647.00,0.0162
2646.00,0.0161
2645.00,0.0160
2644.00,0.0160
2643.00,0.0160
2642.00,0.0159
2641.00,0.0159
2640.00,0.0158
2639.00,0.0157
2638.00,0.0155
2637.00,0.0153
2636.00,0.0151
2635.00,0.0150
2634.00,0.0148
2633.00,0.0148
2632.00,0.0147
2631.00,0.0147
2630.00,0.0147
2629.00,0.0146
2628.00,0.0145
2627.00,0.0144
2626.00,0.0143
2625.00,0.0141
2624.00,0.0140
2623.00,0.0139
2622.00,0.0138
2621.00,0.0138
2620.00,0.0137
2619.00,0.0136
2618.00,0.0136
2617.00,0.0135
2616.00,0.0134
2615.00,0.0134
2614.00,0.0133
2613.00,0.0133
2612.00,0.0132
2611.00,0.0132
2610.00,0.0132
2609.00,0.0132
2608.00,0.0132
2607.00,0.0131
2606.00,0.0131
2605.00,0.0129
2604.00,0.0128
2603.00,0.0127
2602.00,0.0126
2601.00,0.0125
2600.00,0.0125
2599.00,0.0124
2598.00,0.0123
2597.00,0.0122
2596.00,0.0121
2595.00,0.0121
2594.00,0.0120
2593.00,0.0119
2592.00,0.0118
2591.00,0.0118
2590.00,0.0117
2589.00,0.0116
2588.00,0.0116
2587.00,0.0115
2586.00,0.0115
2585.00,0.0114
2584.00,0.0114
2583.00,0.0113
2582.00,0.0113
2581.00,0.0112
2580.00,0.0112
2579.00,0.0112
2578.00,0.0111
2577.00,0.0111
2576.00,0.0110
2575.00,0.0110
2574.00,0.0110
2573.00,0.0110
2572.00,0.0110
2571.00,0.0110
2570.00,0.0109
2569.00,0.0109
2568.00,0.0110
2567.00,0.0110
2566.00,0.0110
2565.00,0.0110
2564.00,0.0110
2563.00,0.0110
2562.00,0.0110
2561.00,0.0111
2560.00,0.0111
2559.00,0.0111
2558.00,0.0112
2557.00,0.0112
2556.00,0.0112
2555.00,0.0112
2554.00,0.0112
2553.00,0.0112
2552.00,0.0112
2551.00,0.0111
2550.00,0.0111
2549.00,0.0111
2548.00,0.0111
2547.00,0.0110
2546.00,0.0110
2545.00,0.0109
2544.00,0.0109
2543.00,0.0108
2542.00,0.0108
2541.00,0.0107
2540.00,0.0107
2539.00,0.0107
2538.00,0.0106
2537.00,0.0106
2536.00,0.0106
2535.00,0.0105
2534.00,0.0105
2533.00,0.0104
2532.00,0.0104
2531.00,0.0104
2530.00,0.0104
2529.00,0.0104
2528.00,0.0104
2527.00,0.0104
2526.00,0.0104
2525.00,0.0104
2524.00,0.0103
2523.00,0.0103
2522.00,0.0103
2521.00,0.0102
2520.00,0.0102
2519.00,0.0101
2518.00,0.0101
2517.00,0.0101
2516.00,0.0100
2515.00,0.0100
2514.00,0.0100
2513.00,0.0099
2512.00,0.0099
2511.00,0.0098
2510.00,0.0097
2509.00,0.0097
2508.00,0.0096
2507.00,0.0096
2506.00,0.0095
2505.00,0.0095
2504.00,0.0094
2503.00,0.0094
2502.00,0.0094
2501.00,0.0093
2500.00,0.0093
2499.00,0.0092
2498.00,0.0092
2497.00,0.0091
2496.00,0.0091
2495.00,0.0091
2494.00,0.0090
2493.00,0.0090
2492.00,0.0090
2491.00,0.0090
2490.00,0.0090
2489.00,0.0090
2488.00,0.0090
2487.00,0.0090
2486.00,0.0090
2485.00,0.0090
2484.00,0.0089
2483.00,0.0089
2482.00,0.0088
2481.00,0.0088
2480.00,0.0088
2479.00,0.0088
2478.00,0.0087
2477.00,0.0087
2476.00,0.0086
2475.00,0.0086
2474.00,0.0086
2473.00,0.0086
2472.00,0.0086
2471.00,0.0085
2470.00,0.0085
2469.00,0.0085
2468.00,0.0085
2467.00,0.0084
2466.00,0.0084
2465.00,0.0084
2464.00,0.0084
2463.00,0.0084
2462.00,0.0084
2461.00,0.0085
2460.00,0.0085
2459.00,0.0085
2458.00,0.0085
2457.00,0.0085
2456.00,0.0086
2455.00,0.0086
2454.00,0.0086
2453.00,0.0086
2452.00,0.0087
2451.00,0.0087
2450.00,0.0087
2449.00,0.0087
2448.00,0.0087
2447.00,0.0086
2446.00,0.0086
2445.00,0.0086
2444.00,0.0086
2443.00,0.0086
2442.00,0.0086
2441.00,0.0087
2440.00,0.0087
2439.00,0.0087
2438.00,0.0087
2437.00,0.0087
2436.00,0.0087
2435.00,0.0087
2434.00,0.0086
2433.00,0.0086
2432.00,0.0086
2431.00,0.0086
2430.00,0.0086
2429.00,0.0086
2428.00,0.0086
2427.00,0.0086
2426.00,0.0086
2425.00,0.0086
2424.00,0.0086
2423.00,0.0086
2422.00,0.0085
2421.00,0.0085
2420.00,0.0085
2419.00,0.0085
2418.00,0.0085
2417.00,0.0084
2416.00,0.0084
2415.00,0.0084
2414.00,0.0083
2413.00,0.0083
2412.00,0.0082
2411.00,0.0082
2410.00,0.0081
2409.00,0.0081
2408.00,0.0080
2407.00,0.0079
2406.00,0.0079
2405.00,0.0078
2404.00,0.0078
2403.00,0.0077
2402.00,0.0076
2401.00,0.0076
2400.00,0.0075
2399.00,0.0075
2398.00,0.0074
2397.00,0.0074
2396.00,0.0073
2395.00,0.0072
2394.00,0.0072
2393.00,0.0071
2392.00,0.0071
2391.00,0.0070
2390.00,0.0070
2389.00,0.0069
2388.00,0.0069
2387.00,0.0068
2386.00,0.0068
2385.00,0.0067
2384.00,0.0067
2383.00,0.0067
2382.00,0.0066
2381.00,0.0066
2380.00,0.0066
2379.00,0.0066
2378.00,0.0066
2377.00,0.0065
2376.00,0.0065
2375.00,0.0064
2374.00,0.0063
2373.00,0.0063
2372.00,0.0062
2371.00,0.0062
2370.00,0.0061
2369.00,0.0061
2368.00,0.0061
2367.00,0.0061
2366.00,0.0061
2365.00,0.0061
2364.00,0.0061
2363.00,0.0061
2362.00,0.0061
2361.00,0.0061
2360.00,0.0060
2359.00,0.0060
2358.00,0.0060
2357.00,0.0060
2356.00,0.0060
2355.00,0.0060
2354.00,0.0059
2353.00,0.0059
2352.00,0.0059
2351.00,0.0059
2350.00,0.0058
2349.00,0.0058
2348.00,0.0057
2347.00,0.0056
2346.00,0.0056
2345.00,0.0056
2344.00,0.0056
2343.00,0.0057
2342.00,0.0057
2341.00,0.0057
2340.00,0.0057
2339.00,0.0057
2338.00,0.0057
2337.00,0.0056
2336.00,0.0056
2335.00,0.0056
2334.00,0.0056
2333.00,0.0055
2332.00,0.0055
2331.00,0.0055
2330.00,0.0055
2329.00,0.0055
2328.00,0.0056
2327.00,0.0056
2326.00,0.0056
2325.00,0.0055
2324.00,0.0055
2323.00,0.0054
2322.00,0.0054
2321.00,0.0054
2320.00,0.0053
2319.00,0.0053
2318.00,0.0052
2317.00,0.0051
2316.00,0.0051
2315.00,0.0051
2314.00,0.0051
2313.00,0.0051
2312.00,0.0050
2311.00,0.0050
2310.00,0.0049
2309.00,0.0049
2308.00,0.0048
2307.00,0.0048
2306.00,0.0047
2305.00,0.0047
2304.00,0.0046
2303.00,0.0045
2302.00,0.0045
2301.00,0.0044
2300.00,0.0043
2299.00,0.0043
2298.00,0.0042
2297.00,0.0042
2296.00,0.0041
2295.00,0.0040
2294.00,0.0040
2293.00,0.0039
2292.00,0.0039
2291.00,0.0039
2290.00,0.0038
2289.00,0.0038
2288.00,0.0037
2287.00,0.0037
2286.00,0.0036
2285.00,0.0035
2284.00,0.0035
2283.00,0.0035
2282.00,0.0034
2281.00,0.0033
2280.00,0.0033
2279.00,0.0033
2278.00,0.0032
2277.00,0.0032
2276.00,0.0031
2275.00,0.0030
2274.00,0.0030
2273.00,0.0029
2272.00,0.0029
2271.00,0.0029
2270.00,0.0028
2269.00,0.0028
2268.00,0.0027
2267.00,0.0027
2266.00,0.0027
2265.00,0.0026
2264.00,0.0026
2263.00,0.0026
2262.00,0.0025
2261.00,0.0025
2260.00,0.0025
2259.00,0.0025
2258.00,0.0024
2257.00,0.0024
2256.00,0.0023
2255.00,0.0023
2254.00,0.0023
2253.00,0.0023
2252.00,0.0022
2251.00,0.0022
2250.00,0.0022
2249.00,0.0022
2248.00,0.0022
2247.00,0.0022
2246.00,0.0022
2245.00,0.0022
2244.00,0.0022
2243.00,0.0022
2242.00,0.0022
2241.00,0.0022
2240.00,0.0022
2239.00,0.0022
2238.00,0.0022
2237.00,0.0021
2236.00,0.0021
2235.00,0.0021
2234.00,0.0021
2233.00,0.0021
2232.00,0.0021
2231.00,0.0020
2230.00,0.0020
2229.00,0.0020
2228.00,0.0020
2227.00,0.0020
2226.00,0.0020
2225.00,0.0020
2224.00,0.0020
2223.00,0.0020
2222.00,0.0020
2221.00,0.0020
2220.00,0.0020
2219.00,0.0020
2218.00,0.0020
2217.00,0.0020
2216.00,0.0021
2215.00,0.0021
2214.00,0.0021
2213.00,0.0021
2212.00,0.0021
2211.00,0.0022
2210.00,0.0022
2209.00,0.0022
2208.00,0.0022
2207.00,0.0021
2206.00,0.0021
2205.00,0.0021
2204.00,0.0020
2203.00,0.0020
2202.00,0.0021
2201.00,0.0022
2200.00,0.0023
2199.00,0.0023
2198.00,0.0023
2197.00,0.0022
2196.00,0.0022
2195.00,0.0021
2194.00,0.0021
2193.00,0.0021
2192.00,0.0022
2191.00,0.0022
2190.00,0.0022
2189.00,0.0022
2188.00,0.0022
2187.00,0.0021
2186.00,0.0020
2185.00,0.0019
2184.00,0.0018
2183.00,0.0018
2182.00,0.0017
2181.00,0.0017
2180.00,0.0017
2179.00,0.0016
2178.00,0.0016
2177.00,0.0015
2176.00,0.0015
2175.00,0.0016
2174.00,0.0016
2173.00,0.0016
2172.00,0.0016
2171.00,0.0016
2170.00,0.0016
2169.00,0.0017
2168.00,0.0017
2167.00,0.0017
2166.00,0.0017
2165.00,0.0017
2164.00,0.0017
2163.00,0.0015
2162.00,0.0013
2161.00,0.0010
2160.00,0.0008
2159.00,0.0008
2158.00,0.0008
2157.00,0.0008
2156.00,0.0009
2155.00,0.0009
2154.00,0.0010
2153.00,0.0010
2152.00,0.0010
2151.00,0.0010
2150.00,0.0010
2149.00,0.0010
2148.00,0.0010
2147.00,0.0010
2146.00,0.0010
2145.00,0.0009
2144.00,0.0009
2143.00,0.0008
2142.00,0.0009
2141.00,0.0010
2140.00,0.0011
2139.00,0.0011
2138.00,0.0011
2137.00,0.0011
2136.00,0.0010
2135.00,0.0009
2134.00,0.0009
2133.00,0.0009
2132.00,0.0010
2131.00,0.0010
2130.00,0.0010
2129.00,0.0010
2128.00,0.0011
2127.00,0.0011
2126.00,0.0011
2125.00,0.0011
2124.00,0.0011
2123.00,0.0011
2122.00,0.0011
2121.00,0.0012
2120.00,0.0012
2119.00,0.0012
2118.00,0.0012
2117.00,0.0012
2116.00,0.0012
2115.00,0.0012
2114.00,0.0012
2113.00,0.0012
2112.00,0.0011
2111.00,0.0011
2110.00,0.0012
2109.00,0.0012
2108.00,0.0012
2107.00,0.0011
2106.00,0.0011
2105.00,0.0012
2104.00,0.0012
2103.00,0.0013
2102.00,0.0013
2101.00,0.0014
2100.00,0.0014
2099.00,0.0013
2098.00,0.0013
2097.00,0.0013
2096.00,0.0013
2095.00,0.0013
2094.00,0.0012
2093.00,0.0013
2092.00,0.0013
2091.00,0.0013
2090.00,0.0013
2089.00,0.0013
2088.00,0.0014
2087.00,0.0014
2086.00,0.0014
2085.00,0.0014
2084.00,0.0014
2083.00,0.0014
2082.00,0.0014
2081.00,0.0014
2080.00,0.0014
2079.00,0.0014
2078.00,0.0014
2077.00,0.0013
2076.00,0.0013
2075.00,0.0012
2074.00,0.0012
2073.00,0.0011
2072.00,0.0011
2071.00,0.0011
2070.00,0.0010
2069.00,0.0010
2068.00,0.0010
2067.00,0.0010
2066.00,0.0009
2065.00,0.0009
2064.00,0.0009
2063.00,0.0009
2062.00,0.0009
2061.00,0.0009
2060.00,0.0009
2059.00,0.0009
2058.00,0.0009
2057.00,0.0010
2056.00,0.0010
2055.00,0.0010
2054.00,0.0011
2053.00,0.0011
2052.00,0.0011
2051.00,0.0011
2050.00,0.0010
2049.00,0.0010
2048.00,0.0010
2047.00,0.0010
2046.00,0.0010
2045.00,0.0009
2044.00,0.0010
2043.00,0.0010
2042.00,0.0011
2041.00,0.0012
2040.00,0.0012
2039.00,0.0012
2038.00,0.0012
2037.00,0.0011
2036.00,0.0011
2035.00,0.0010
2034.00,0.0010
2033.00,0.0010
2032.00,0.0011
2031.00,0.0011
2030.00,0.0010
2029.00,0.0010
2028.00,0.0010
2027.00,0.0009
2026.00,0.0008
2025.00,0.0007
2024.00,0.0007
2023.00,0.0007
2022.00,0.0008
2021.00,0.0009
2020.00,0.0009
2019.00,0.0010
2018.00,0.0010
2017.00,0.0009
2016.00,0.0009
2015.00,0.0009
2014.00,0.0008
2013.00,0.0008
2012.00,0.0008
2011.00,0.0008
2010.00,0.0008
2009.00,0.0007
2008.00,0.0007
2007.00,0.0006
2006.00,0.0006
2005.00,0.0006
2004.00,0.0006
2003.00,0.0006
2002.00,0.0005
2001.00,0.0006
2000.00,0.0006
1999.00,0.0006
1998.00,0.0007
1997.00,0.0007
1996.00,0.0008
1995.00,0.0008
1994.00,0.0009
1993.00,0.0009
1992.00,0.0010
1991.00,0.0009
1990.00,0.0009
1989.00,0.0009
1988.00,0.0010
1987.00,0.0010
1986.00,0.0011
1985.00,0.0011
1984.00,0.0011
1983.00,0.0011
1982.00,0.0011
1981.00,0.0011
1980.00,0.0010
1979.00,0.0009
1978.00,0.0008
1977.00,0.0008
1976.00,0.0008
1975.00,0.0007
1974.00,0.0007
1973.00,0.0007
1972.00,0.0007
1971.00,0.0006
1970.00,0.0005
1969.00,0.0005
1968.00,0.0005
1967.00,0.0006
1966.00,0.0005
1965.00,0.0005
1964.00,0.0005
1963.00,0.0004
1962.00,0.0004
1961.00,0.0004
1960.00,0.0004
1959.00,0.0004
1958.00,0.0004
1957.00,0.0004
1956.00,0.0004
1955.00,0.0004
1954.00,0.0004
1953.00,0.0003
1952.00,0.0003
1951.00,0.0003
1950.00,0.0003
1949.00,0.0004
1948.00,0.0004
1947.00,0.0004
1946.00,0.0005
1945.00,0.0004
1944.00,0.0004
1943.00,0.0003
1942.00,0.0003
1941.00,0.0002
1940.00,0.0003
1939.00,0.0003
1938.00,0.0003
1937.00,0.0003
1936.00,0.0003
1935.00,0.0003
1934.00,0.0003
1933.00,0.0004
1932.00,0.0005
1931.00,0.0005
1930.00,0.0005
1929.00,0.0005
1928.00,0.0005
1927.00,0.0005
1926.00,0.0006
1925.00,0.0006
1924.00,0.0007
1923.00,0.0008
1922.00,0.0009
1921.00,0.0009
1920.00,0.0009
1919.00,0.0009
1918.00,0.0009
1917.00,0.0009
1916.00,0.0009
1915.00,0.0009
1914.00,0.0009
1913.00,0.0009
1912.00,0.0010
1911.00,0.0010
1910.00,0.0010
1909.00,0.0011
1908.00,0.0011
1907.00,0.0012
1906.00,0.0012
1905.00,0.0012
1904.00,0.0012
1903.00,0.0012
1902.00,0.0012
1901.00,0.0012
1900.00,0.0012
1899.00,0.0012
1898.00,0.0012
1897.00,0.0012
1896.00,0.0011
1895.00,0.0011
1894.00,0.0011
1893.00,0.0011
1892.00,0.0012
1891.00,0.0012
1890.00,0.0012
1889.00,0.0011
1888.00,0.0011
1887.00,0.0012
1886.00,0.0012
1885.00,0.0012
1884.00,0.0012
1883.00,0.0012
1882.00,0.0012
1881.00,0.0012
1880.00,0.0011
1879.00,0.0011
1878.00,0.0011
1877.00,0.0011
1876.00,0.0011
1875.00,0.0011
1874.00,0.0011
1873.00,0.0011
1872.00,0.0011
1871.00,0.0011
1870.00,0.0010
1869.00,0.0010
1868.00,0.0010
1867.00,0.0010
1866.00,0.0011
1865.00,0.0011
1864.00,0.0011
1863.00,0.0011
1862.00,0.0011
1861.00,0.0010
1860.00,0.0010
1859.00,0.0010
1858.00,0.0010
1857.00,0.0010
1856.00,0.0010
1855.00,0.0010
1854.00,0.0010
1853.00,0.0010
1852.00,0.0010
1851.00,0.0010
1850.00,0.0011
1849.00,0.0011
1848.00,0.0011
1847.00,0.0011
1846.00,0.0011
1845.00,0.0011
1844.00,0.0011
1843.00,0.0011
1842.00,0.0011
1841.00,0.0011
1840.00,0.0012
1839.00,0.0012
1838.00,0.0012
1837.00,0.0012
1836.00,0.0011
1835.00,0.0011
1834.00,0.0011
1833.00,0.0011
1832.00,0.0011
1831.00,0.0011
1830.00,0.0011
1829.00,0.0011
1828.00,0.0011
1827.00,0.0011
1826.00,0.0012
1825.00,0.0012
1824.00,0.0011
1823.00,0.0011
1822.00,0.0011
1821.00,0.0010
1820.00,0.0010
1819.00,0.0010
1818.00,0.0010
1817.00,0.0010
1816.00,0.0010
1815.00,0.0010
1814.00,0.0011
1813.00,0.0011
1812.00,0.0011
1811.00,0.0010
1810.00,0.0010
1809.00,0.0010
1808.00,0.0010
1807.00,0.0010
1806.00,0.0010
1805.00,0.0010
1804.00,0.0011
1803.00,0.0011
1802.00,0.0011
1801.00,0.0012
1800.00,0.0012
1799.00,0.0012
1798.00,0.0012
1797.00,0.0013
1796.00,0.0013
1795.00,0.0014
1794.00,0.0015
1793.00,0.0017
1792.00,0.0019
1791.00,0.0020
1790.00,0.0021
1789.00,0.0023
1788.00,0.0025
1787.00,0.0027
1786.00,0.0029
1785.00,0.0031
1784.00,0.0032
1783.00,0.0032
1782.00,0.0032
1781.00,0.0032
1780.00,0.0032
1779.00,0.0032
1778.00,0.0032
1777.00,0.0033
1776.00,0.0034
1775.00,0.0035
1774.00,0.0035
1773.00,0.0036
1772.00,0.0036
1771.00,0.0036
1770.00,0.0036
1769.00,0.0036
1768.00,0.0036
1767.00,0.0036
1766.00,0.0035
1765.00,0.0035
1764.00,0.0036
1763.00,0.0036
1762.00,0.0036
1761.00,0.0035
1760.00,0.0035
1759.00,0.0035
1758.00,0.0035
1757.00,0.0035
1756.00,0.0035
1755.00,0.0034
1754.00,0.0034
1753.00,0.0034
1752.00,0.0033
1751.00,0.0033
1750.00,0.0032
1749.00,0.0031
1748.00,0.0030
1747.00,0.0029
1746.00,0.0028
1745.00,0.0028
1744.00,0.0027
1743.00,0.0027
1742.00,0.0026
1741.00,0.0025
1740.00,0.0025
1739.00,0.0024
1738.00,0.0024
1737.00,0.0025
1736.00,0.0025
1735.00,0.0026
1734.00,0.0026
1733.00,0.0026
1732.00,0.0026
1731.00,0.0026
1730.00,0.0026
1729.00,0.0026
1728.00,0.0026
1727.00,0.0027
1726.00,0.0027
1725.00,0.0027
1724.00,0.0027
1723.00,0.0028
1722.00,0.0028
1721.00,0.0028
1720.00,0.0029
1719.00,0.0029
1718.00,0.0029
1717.00,0.0029
1716.00,0.0029
1715.00,0.0029
1714.00,0.0029
1713.00,0.0029
1712.00,0.0029
1711.00,0.0029
1710.00,0.0029
1709.00,0.0029
1708.00,0.0030
1707.00,0.0030
1706.00,0.0030
1705.00,0.0031
1704.00,0.0031
1703.00,0.0031
1702.00,0.0031
1701.00,0.0031
1700.00,0.0032
1699.00,0.0032
1698.00,0.0033
1697.00,0.0033
1696.00,0.0033
1695.00,0.0033
1694.00,0.0034
1693.00,0.0034
1692.00,0.0035
1691.00,0.0035
1690.00,0.0036
1689.00,0.0037
1688.00,0.0037
1687.00,0.0038
1686.00,0.0039
1685.00,0.0040
1684.00,0.0041
1683.00,0.0042
1682.00,0.0043
1681.00,0.0044
1680.00,0.0045
1679.00,0.0046
1678.00,0.0047
1677.00,0.0048
1676.00,0.0049
1675.00,0.0051
1674.00,0.0053
1673.00,0.0055
1672.00,0.0056
1671.00,0.0058
1670.00,0.0060
1669.00,0.0063
1668.00,0.0065
1667.00,0.0067
1666.00,0.0069
1665.00,0.0071
1664.00,0.0073
1663.00,0.0076
1662.00,0.0080
1661.00,0.0083
1660.00,0.0088
1659.00,0.0092
1658.00,0.0097
1657.00,0.0102
1656.00,0.0107
1655.00,0.0112
1654.00,0.0121
1653.00,0.0134
1652.00,0.0147
1651.00,0.0157
1650.00,0.0165
1649.00,0.0175
1648.00,0.0190
1647.00,0.0212
1646.00,0.0241
1645.00,0.0274
1644.00,0.0308
1643.00,0.0344
1642.00,0.0381
1641.00,0.0418
1640.00,0.0452
1639.00,0.0482
1638.00,0.0509
1637.00,0.0539
1636.00,0.0577
1635.00,0.0616
1634.00,0.0642
1633.00,0.0652
1632.00,0.0649
1631.00,0.0637
1630.00,0.0616
1629.00,0.0586
1628.00,0.0546
1627.00,0.0502
1626.00,0.0454
1625.00,0.0405
1624.00,0.0356
1623.00,0.0311
1622.00,0.0276
1621.00,0.0251
1620.00,0.0232
1619.00,0.0217
1618.00,0.0205
1617.00,0.0197
1616.00,0.0190
1615.00,0.0184
1614.00,0.0179
1613.00,0.0174
1612.00,0.0170
1611.00,0.0168
1610.00,0.0168
1609.00,0.0169
1608.00,0.0172
1607.00,0.0175
1606.00,0.0178
1605.00,0.0183
1604.00,0.0187
1603.00,0.0192
1602.00,0.0197
1601.00,0.0203
1600.00,0.0210
1599.00,0.0218
1598.00,0.0228
1597.00,0.0240
1596.00,0.0255
1595.00,0.0273
1594.00,0.0295
1593.00,0.0322
1592.00,0.0350
1591.00,0.0380
1590.00,0.0409
1589.00,0.0436
1588.00,0.0460
1587.00,0.0481
1586.00,0.0499
1585.00,0.0518
1584.00,0.0536
1583.00,0.0555
1582.00,0.0574
1581.00,0.0596
1580.00,0.0616
1579.00,0.0635
1578.00,0.0656
1577.00,0.0682
1576.00,0.0714
1575.00,0.0740
1574.00,0.0750
1573.00,0.0749
1572.00,0.0743
1571.00,0.0737
1570.00,0.0732
1569.00,0.0727
1568.00,0.0718
1567.00,0.0704
1566.00,0.0684
1565.00,0.0662
1564.00,0.0640
1563.00,0.0617
1562.00,0.0591
1561.00,0.0563
1560.00,0.0536
1559.00,0.0515
1558.00,0.0498
1557.00,0.0479
1556.00,0.0458
1555.00,0.0437
1554.00,0.0418
1553.00,0.0400
1552.00,0.0385
1551.00,0.0371
1550.00,0.0358
1549.00,0.0346
1548.00,0.0335
1547.00,0.0325
1546.00,0.0316
1545.00,0.0308
1544.00,0.0301
1543.00,0.0294
1542.00,0.0288
1541.00,0.0284
1540.00,0.0283
1539.00,0.0282
1538.00,0.0280
1537.00,0.0276
1536.00,0.0271
1535.00,0.0268
1534.00,0.0268
1533.00,0.0271
1532.00,0.0276
1531.00,0.0280
1530.00,0.0284
1529.00,0.0290
1528.00,0.0298
1527.00,0.0307
1526.00,0.0314
1525.00,0.0318
1524.00,0.0317
1523.00,0.0312
1522.00,0.0301
1521.00,0.0287
1520.00,0.0270
1519.00,0.0251
1518.00,0.0229
1517.00,0.0208
1516.00,0.0189
1515.00,0.0175
1514.00,0.0165
1513.00,0.0158
1512.00,0.0156
1511.00,0.0155
1510.00,0.0156
1509.00,0.0157
1508.00,0.0161
1507.00,0.0166
1506.00,0.0170
1505.00,0.0174
1504.00,0.0175
1503.00,0.0176
1502.00,0.0177
1501.00,0.0179
1500.00,0.0181
1499.00,0.0184
1498.00,0.0189
1497.00,0.0194
1496.00,0.0201
1495.00,0.0207
1494.00,0.0213
1493.00,0.0217
1492.00,0.0223
1491.00,0.0229
1490.00,0.0235
1489.00,0.0241
1488.00,0.0246
1487.00,0.0250
1486.00,0.0254
1485.00,0.0259
1484.00,0.0264
1483.00,0.0269
1482.00,0.0276
1481.00,0.0285
1480.00,0.0295
1479.00,0.0308
1478.00,0.0325
1477.00,0.0350
1476.00,0.0384
1475.00,0.0422
1474.00,0.0459
1473.00,0.0486
1472.00,0.0498
1471.00,0.0496
1470.00,0.0488
1469.00,0.0480
1468.00,0.0474
1467.00,0.0473
1466.00,0.0480
1465.00,0.0499
1464.00,0.0521
1463.00,0.0538
1462.00,0.0545
1461.00,0.0548
1460.00,0.0550
1459.00,0.0558
1458.00,0.0574
1457.00,0.0599
1456.00,0.0625
1455.00,0.0647
1454.00,0.0667
1453.00,0.0691
1452.00,0.0721
1451.00,0.0754
1450.00,0.0788
1449.00,0.0819
1448.00,0.0845
1447.00,0.0864
1446.00,0.0874
1445.00,0.0877
1444.00,0.0873
1443.00,0.0859
1442.00,0.0835
1441.00,0.0801
1440.00,0.0759
1439.00,0.0715
1438.00,0.0671
1437.00,0.0632
1436.00,0.0602
1435.00,0.0580
1434.00,0.0560
1433.00,0.0540
1432.00,0.0518
1431.00,0.0495
1430.00,0.0473
1429.00,0.0455
1428.00,0.0442
1427.00,0.0435
1426.00,0.0432
1425.00,0.0432
1424.00,0.0434
1423.00,0.0439
1422.00,0.0444
1421.00,0.0451
1420.00,0.0462
1419.00,0.0477
1418.00,0.0493
1417.00,0.0508
1416.00,0.0523
1415.00,0.0539
1414.00,0.0556
1413.00,0.0575
1412.00,0.0596
1411.00,0.0619
1410.00,0.0644
1409.00,0.0669
1408.00,0.0695
1407.00,0.0723
1406.00,0.0755
1405.00,0.0790
1404.00,0.0829
1403.00,0.0869
1402.00,0.0906
1401.00,0.0945
1400.00,0.0985
1399.00,0.1025
1398.00,0.1061
1397.00,0.1092
1396.00,0.1119
1395.00,0.1142
1394.00,0.1159
1393.00,0.1166
1392.00,0.1164
1391.00,0.1157
1390.00,0.1152
1389.00,0.1151
1388.00,0.1158
1387.00,0.1169
1386.00,0.1184
1385.00,0.1203
1384.00,0.1229
1383.00,0.1260
1382.00,0.1291
1381.00,0.1316
1380.00,0.1331
1379.00,0.1329
1378.00,0.1310
1377.00,0.1276
1376.00,0.1230
1375.00,0.1178
1374.00,0.1127
1373.00,0.1084
1372.00,0.1050
1371.00,0.1026
1370.00,0.1009
1369.00,0.0997
1368.00,0.0986
1367.00,0.0971
1366.00,0.0948
1365.00,0.0919
1364.00,0.0885
1363.00,0.0851
1362.00,0.0820
1361.00,0.0793
1360.00,0.0773
1359.00,0.0757
1358.00,0.0748
1357.00,0.0745
1356.00,0.0747
1355.00,0.0754
1354.00,0.0764
1353.00,0.0775
1352.00,0.0786
1351.00,0.0794
1350.00,0.0798
1349.00,0.0796
1348.00,0.0786
1347.00,0.0769
1346.00,0.0747
1345.00,0.0725
1344.00,0.0707
1343.00,0.0693
1342.00,0.0683
1341.00,0.0678
1340.00,0.0678
1339.00,0.0682
1338.00,0.0688
1337.00,0.0693
1336.00,0.0693
1335.00,0.0683
1334.00,0.0664
1333.00,0.0637
1332.00,0.0606
1331.00,0.0578
1330.00,0.0556
1329.00,0.0544
1328.00,0.0542
1327.00,0.0549
1326.00,0.0566
1325.00,0.0591
1324.00,0.0625
1323.00,0.0667
1322.00,0.0715
1321.00,0.0763
1320.00,0.0803
1319.00,0.0826
1318.00,0.0824
1317.00,0.0798
1316.00,0.0753
1315.00,0.0696
1314.00,0.0637
1313.00,0.0583
1312.00,0.0538
1311.00,0.0505
1310.00,0.0485
1309.00,0.0478
1308.00,0.0480
1307.00,0.0488
1306.00,0.0494
1305.00,0.0495
1304.00,0.0487
1303.00,0.0472
1302.00,0.0454
1301.00,0.0438
1300.00,0.0428
1299.00,0.0424
1298.00,0.0425
1297.00,0.0430
1296.00,0.0437
1295.00,0.0445
1294.00,0.0455
1293.00,0.0469
1292.00,0.0489
1291.00,0.0513
1290.00,0.0540
1289.00,0.0569
1288.00,0.0595
1287.00,0.0619
1286.00,0.0642
1285.00,0.0665
1284.00,0.0689
1283.00,0.0714
1282.00,0.0736
1281.00,0.0751
1280.00,0.0755
1279.00,0.0745
1278.00,0.0723
1277.00,0.0692
1276.00,0.0660
1275.00,0.0629
1274.00,0.0604
1273.00,0.0587
1272.00,0.0579
1271.00,0.0576
1270.00,0.0579
1269.00,0.0584
1268.00,0.0591
1267.00,0.0598
1266.00,0.0604
1265.00,0.0609
1264.00,0.0614
1263.00,0.0616
1262.00,0.0618
1261.00,0.0622
1260.00,0.0628
1259.00,0.0639
1258.00,0.0658
1257.00,0.0685
1256.00,0.0719
1255.00,0.0757
1254.00,0.0794
1253.00,0.0826
1252.00,0.0846
1251.00,0.0853
1250.00,0.0852
1249.00,0.0852
1248.00,0.0858
1247.00,0.0872
1246.00,0.0890
1245.00,0.0906
1244.00,0.0909
1243.00,0.0894
1242.00,0.0857
1241.00,0.0802
1240.00,0.0735
1239.00,0.0666
1238.00,0.0600
1237.00,0.0543
1236.00,0.0495
1235.00,0.0459
1234.00,0.0433
1233.00,0.0420
1232.00,0.0417
1231.00,0.0421
1230.00,0.0426
1229.00,0.0422
1228.00,0.0404
1227.00,0.0371
1226.00,0.0327
1225.00,0.0280
1224.00,0.0236
1223.00,0.0199
1222.00,0.0169
1221.00,0.0145
1220.00,0.0120
1219.00,0.0089
1218.00,0.0049
1217.00,0.0004
1216.00,-0.0041
1215.00,-0.0076
1214.00,-0.0094
1213.00,-0.0092
1212.00,-0.0071
1211.00,-0.0029
1210.00,0.0031
1209.00,0.0106
1208.00,0.0189
1207.00,0.0266
1206.00,0.0324
1205.00,0.0353
1204.00,0.0350
1203.00,0.0326
1202.00,0.0291
1201.00,0.0257
1200.00,0.0227
1199.00,0.0206
1198.00,0.0194
1197.00,0.0188
1196.00,0.0188
1195.00,0.0192
1194.00,0.0202
1193.00,0.0214
1192.00,0.0229
1191.00,0.0246
1190.00,0.0262
1189.00,0.0277
1188.00,0.0291
1187.00,0.0303
1186.00,0.0316
1185.00,0.0328
1184.00,0.0342
1183.00,0.0358
1182.00,0.0377
1181.00,0.0402
1180.00,0.0434
1179.00,0.0473
1178.00,0.0519
1177.00,0.0572
1176.00,0.0629
1175.00,0.0689
1174.00,0.0751
1173.00,0.0813
1172.00,0.0868
1171.00,0.0913
1170.00,0.0944
1169.00,0.0964
1168.00,0.0976
1167.00,0.0985
1166.00,0.0997
1165.00,0.1010
1164.00,0.1023
1163.00,0.1034
1162.00,0.1041
1161.00,0.1046
1160.00,0.1049
1159.00,0.1051
1158.00,0.1050
1157.00,0.1046
1156.00,0.1039
1155.00,0.1029
1154.00,0.1019
1153.00,0.1014
1152.00,0.1021
1151.00,0.1043
1150.00,0.1074
1149.00,0.1100
1148.00,0.1104
1147.00,0.1078
1146.00,0.1029
1145.00,0.0973
1144.00,0.0923
1143.00,0.0884
1142.00,0.0857
1141.00,0.0840
1140.00,0.0831
1139.00,0.0826
1138.00,0.0824
1137.00,0.0822
1136.00,0.0820
1135.00,0.0818
1134.00,0.0819
1133.00,0.0824
1132.00,0.0831
1131.00,0.0837
1130.00,0.0839
1129.00,0.0836
1128.00,0.0828
1127.00,0.0813
1126.00,0.0792
1125.00,0.0767
1124.00,0.0739
1123.00,0.0709
1122.00,0.0679
1121.00,0.0651
1120.00,0.0626
1119.00,0.0605
1118.00,0.0586
1117.00,0.0572
1116.00,0.0560
1115.00,0.0551
1114.00,0.0544
1113.00,0.0538
1112.00,0.0535
1111.00,0.0533
1110.00,0.0533
1109.00,0.0534
1108.00,0.0536
1107.00,0.0538
1106.00,0.0541
1105.00,0.0545
1104.00,0.0551
1103.00,0.0559
1102.00,0.0567
1101.00,0.0575
1100.00,0.0581
1099.00,0.0586
1098.00,0.0589
1097.00,0.0592
1096.00,0.0596
1095.00,0.0603
1094.00,0.0611
1093.00,0.0621
1092.00,0.0631
1091.00,0.0640
1090.00,0.0648
1089.00,0.0653
1088.00,0.0656
1087.00,0.0657
1086.00,0.0657
1085.00,0.0657
1084.00,0.0657
1083.00,0.0654
1082.00,0.0650
1081.00,0.0644
1080.00,0.0637
1079.00,0.0631
1078.00,0.0625
1077.00,0.0621
1076.00,0.0621
1075.00,0.0625
1074.00,0.0630
1073.00,0.0632
1072.00,0.0629
1071.00,0.0621
1070.00,0.0609
1069.00,0.0594
1068.00,0.0579
1067.00,0.0563
1066.00,0.0549
1065.00,0.0539
1064.00,0.0535
1063.00,0.0536
1062.00,0.0542
1061.00,0.0551
1060.00,0.0563
1059.00,0.0578
1058.00,0.0595
1057.00,0.0614
1056.00,0.0632
1055.00,0.0639
1054.00,0.0625
1053.00,0.0584
1052.00,0.0521
1051.00,0.0450
1050.00,0.0384
1049.00,0.0336
1048.00,0.0307
1047.00,0.0296
1046.00,0.0295
1045.00,0.0300
1044.00,0.0307
1043.00,0.0315
1042.00,0.0326
1041.00,0.0341
1040.00,0.0363
1039.00,0.0392
1038.00,0.0427
1037.00,0.0468
1036.00,0.0508
1035.00,0.0542
1034.00,0.0562
1033.00,0.0567
1032.00,0.0554
1031.00,0.0526
1030.00,0.0483
1029.00,0.0428
1028.00,0.0363
1027.00,0.0293
1026.00,0.0225
1025.00,0.0164
1024.00,0.0110
1023.00,0.0063
1022.00,0.0020
1021.00,-0.0018
1020.00,-0.0051
1019.00,-0.0075
1018.00,-0.0088
1017.00,-0.0089
1016.00,-0.0080
1015.00,-0.0066
1014.00,-0.0048
1013.00,-0.0031
1012.00,-0.0017
1011.00,-0.0006
1010.00,-0.0002
1009.00,-0.0002
1008.00,-0.0006
1007.00,-0.0014
1006.00,-0.0022
1005.00,-0.0029
1004.00,-0.0031
1003.00,-0.0025
1002.00,-0.0008
1001.00,0.0016
1000.00,0.0044
999.00,0.0068
998.00,0.0082
997.00,0.0085
996.00,0.0082
995.00,0.0077
994.00,0.0075
993.00,0.0075
992.00,0.0077
991.00,0.0080
990.00,0.0084
989.00,0.0088
988.00,0.0094
987.00,0.0101
986.00,0.0110
985.00,0.0120
984.00,0.0131
983.00,0.0144
982.00,0.0159
981.00,0.0177
980.00,0.0199
979.00,0.0224
978.00,0.0252
977.00,0.0285
976.00,0.0322
975.00,0.0364
974.00,0.0410
973.00,0.0457
972.00,0.0504
971.00,0.0547
970.00,0.0586
969.00,0.0618
968.00,0.0642
967.00,0.0660
966.00,0.0672
965.00,0.0679
964.00,0.0686
963.00,0.0697
962.00,0.0716
961.00,0.0749
960.00,0.0802
959.00,0.0871
958.00,0.0947
957.00,0.1019
956.00,0.1083
955.00,0.1140
954.00,0.1192
953.00,0.1236
952.00,0.1264
951.00,0.1274
950.00,0.1265
949.00,0.1242
948.00,0.1208
947.00,0.1169
946.00,0.1126
945.00,0.1082
944.00,0.1038
943.00,0.0993
942.00,0.0947
941.00,0.0900
940.00,0.0852
939.00,0.0802
938.00,0.0753
937.00,0.0703
936.00,0.0655
935.00,0.0608
934.00,0.0563
933.00,0.0521
932.00,0.0483
931.00,0.0448
930.00,0.0418
929.00,0.0392
928.00,0.0370
927.00,0.0352
926.00,0.0336
925.00,0.0322
924.00,0.0310
923.00,0.0301
922.00,0.0296
921.00,0.0294
920.00,0.0295
919.00,0.0296
918.00,0.0296
917.00,0.0297
916.00,0.0298
915.00,0.0299
914.00,0.0296
913.00,0.0286
912.00,0.0267
911.00,0.0243
910.00,0.0219
909.00,0.0199
908.00,0.0185
907.00,0.0177
906.00,0.0175
905.00,0.0178
904.00,0.0182
903.00,0.0183
902.00,0.0175
901.00,0.0156
900.00,0.0124
899.00,0.0084
898.00,0.0044
897.00,0.0014
896.00,0.0004
895.00,0.0022
894.00,0.0069
893.00,0.0147
892.00,0.0252
891.00,0.0366
890.00,0.0455
889.00,0.0492
888.00,0.0479
887.00,0.0445
886.00,0.0417
885.00,0.0393
884.00,0.0358
883.00,0.0304
882.00,0.0244
881.00,0.0198
880.00,0.0175
879.00,0.0171
878.00,0.0174
877.00,0.0179
876.00,0.0181
875.00,0.0180
874.00,0.0177
873.00,0.0173
872.00,0.0168
871.00,0.0165
870.00,0.0166
869.00,0.0173
868.00,0.0188
867.00,0.0211
866.00,0.0241
865.00,0.0278
864.00,0.0319
863.00,0.0361
862.00,0.0397
861.00,0.0420
860.00,0.0431
859.00,0.0434
858.00,0.0433
857.00,0.0431
856.00,0.0425
855.00,0.0412
854.00,0.0390
853.00,0.0364
852.00,0.0337
851.00,0.0316
850.00,0.0304
849.00,0.0302
848.00,0.0308
847.00,0.0321
846.00,0.0335
845.00,0.0350
844.00,0.0362
843.00,0.0371
842.00,0.0381
841.00,0.0394
840.00,0.0411
839.00,0.0425
838.00,0.0429
837.00,0.0418
836.00,0.0393
835.00,0.0364
834.00,0.0337
833.00,0.0316
832.00,0.0305
831.00,0.0302
830.00,0.0306
829.00,0.0311
828.00,0.0312
827.00,0.0305
826.00,0.0293
825.00,0.0281
824.00,0.0277
823.00,0.0285
822.00,0.0308
821.00,0.0340
820.00,0.0379
819.00,0.0418
818.00,0.0451
817.00,0.0474
816.00,0.0483
815.00,0.0477
814.00,0.0459
813.00,0.0435
812.00,0.0409
811.00,0.0385
810.00,0.0365
809.00,0.0352
808.00,0.0345
807.00,0.0346
806.00,0.0354
805.00,0.0364
804.00,0.0372
803.00,0.0375
802.00,0.0375
801.00,0.0374
800.00,0.0378
799.00,0.0389
798.00,0.0405
797.00,0.0424
796.00,0.0440
795.00,0.0448
794.00,0.0442
793.00,0.0424
792.00,0.0398
791.00,0.0370
790.00,0.0344
789.00,0.0323
788.00,0.0307
787.00,0.0295
786.00,0.0284
785.00,0.0276
784.00,0.0269
783.00,0.0262
782.00,0.0256
781.00,0.0251
780.00,0.0247
779.00,0.0244
778.00,0.0243
777.00,0.0244
776.00,0.0248
775.00,0.0253
774.00,0.0258
773.00,0.0265
772.00,0.0270
771.00,0.0274
770.00,0.0276
769.00,0.0277
768.00,0.0276
767.00,0.0275
766.00,0.0273
765.00,0.0270
764.00,0.0267
763.00,0.0264
762.00,0.0260
761.00,0.0257
760.00,0.0255
759.00,0.0253
758.00,0.0252
757.00,0.0251
756.00,0.0249
755.00,0.0244
754.00,0.0234
753.00,0.0219
752.00,0.0202
751.00,0.0184
750.00,0.0169
749.00,0.0160
748.00,0.0158
747.00,0.0161
746.00,0.0170
745.00,0.0181
744.00,0.0192
743.00,0.0203
742.00,0.0214
741.00,0.0224
740.00,0.0235
739.00,0.0247
738.00,0.0260
737.00,0.0275
736.00,0.0292
735.00,0.0309
734.00,0.0322
733.00,0.0326
732.00,0.0319
731.00,0.0302
730.00,0.0283
729.00,0.0266
728.00,0.0254
727.00,0.0247
726.00,0.0242
725.00,0.0239
724.00,0.0238
723.00,0.0237
722.00,0.0237
721.00,0.0237
720.00,0.0238
719.00,0.0239
718.00,0.0241
717.00,0.0243
716.00,0.0246
715.00,0.0250
714.00,0.0253
713.00,0.0255
712.00,0.0257
711.00,0.0258
710.00,0.0258
709.00,0.0259
708.00,0.0260
707.00,0.0262
706.00,0.0264
705.00,0.0267
704.00,0.0269
703.00,0.0272
702.00,0.0274
701.00,0.0277
700.00,0.0279
699.00,0.0281
698.00,0.0283
697.00,0.0285
696.00,0.0288
695.00,0.0291
694.00,0.0294
693.00,0.0297
692.00,0.0300
691.00,0.0303
690.00,0.0307
689.00,0.0310
688.00,0.0315
687.00,0.0321
686.00,0.0327
685.00,0.0335
684.00,0.0342
683.00,0.0349
682.00,0.0356
681.00,0.0362
680.00,0.0367
679.00,0.0371
678.00,0.0372
677.00,0.0370
676.00,0.0368
675.00,0.0364
674.00,0.0360
673.00,0.0356
672.00,0.0354
671.00,0.0351
670.00,0.0347
669.00,0.0340
668.00,0.0327
667.00,0.0310
666.00,0.0295
665.00,0.0283
664.00,0.0272
663.00,0.0263
662.00,0.0257
661.00,0.0255
660.00,0.0254
659.00,0.0254
658.00,0.0254
657.00,0.0255
656.00,0.0256
655.00,0.0259
654.00,0.0263
653.00,0.0268
652.00,0.0274
651.00,0.0280
650.00,0.0285
649.00,0.0290
648.00,0.0295
647.00,0.0299
646.00,0.0304
645.00,0.0309
644.00,0.0314
643.00,0.0321
642.00,0.0327
641.00,0.0332
640.00,0.0337
639.00,0.0341
638.00,0.0344
637.00,0.0346
636.00,0.0347
635.00,0.0346
634.00,0.0343
633.00,0.0338
632.00,0.0332
631.00,0.0324
630.00,0.0315
629.00,0.0305
628.00,0.0294
627.00,0.0284
626.00,0.0273
625.00,0.0264
624.00,0.0257
623.00,0.0251
622.00,0.0248
621.00,0.0248
620.00,0.0251
619.00,0.0258
618.00,0.0269
617.00,0.0280
616.00,0.0290
615.00,0.0293
614.00,0.0288
613.00,0.0278
612.00,0.0265
611.00,0.0255
610.00,0.0249
609.00,0.0247
608.00,0.0245
607.00,0.0242
606.00,0.0237
605.00,0.0231
604.00,0.0224
603.00,0.0217
602.00,0.0210
601.00,0.0203
600.00,0.0196
599.00,0.0191
598.00,0.0189
597.00,0.0191
596.00,0.0194
595.00,0.0197
594.00,0.0196
593.00,0.0192
592.00,0.0185
591.00,0.0176
590.00,0.0166
589.00,0.0156
588.00,0.0147
587.00,0.0142
586.00,0.0141
585.00,0.0147
584.00,0.0161
583.00,0.0186
582.00,0.0223
581.00,0.0272
580.00,0.0325
579.00,0.0366
578.00,0.0381
577.00,0.0364
576.00,0.0324
575.00,0.0274
574.00,0.0230
573.00,0.0195
572.00,0.0170
571.00,0.0152
570.00,0.0139
569.00,0.0130
568.00,0.0123
567.00,0.0118
566.00,0.0114
565.00,0.0112
564.00,0.0112
563.00,0.0114
562.00,0.0118
561.00,0.0123
560.00,0.0129
559.00,0.0139
558.00,0.0153
557.00,0.0175
556.00,0.0207
555.00,0.0249
554.00,0.0295
553.00,0.0331
552.00,0.0344
551.00,0.0328
550.00,0.0290
549.00,0.0244
548.00,0.0205
547.00,0.0176
546.00,0.0160
545.00,0.0151
544.00,0.0148
543.00,0.0147
542.00,0.0147
541.00,0.0149
540.00,0.0153
539.00,0.0164
538.00,0.0182
537.00,0.0206
536.00,0.0228
535.00,0.0238
534.00,0.0230
533.00,0.0204
532.00,0.0170
531.00,0.0140
530.00,0.0124
529.00,0.0127
528.00,0.0143
527.00,0.0161
526.00,0.0167
525.00,0.0157
524.00,0.0138
523.00,0.0120
522.00,0.0107
521.00,0.0099
520.00,0.0092
519.00,0.0087
518.00,0.0085
517.00,0.0085
516.00,0.0087
515.00,0.0090
514.00,0.0094
513.00,0.0097
512.00,0.0099
511.00,0.0101
510.00,0.0104
509.00,0.0107
508.00,0.0110
507.00,0.0114
506.00,0.0120
505.00,0.0126
504.00,0.0133
503.00,0.0142
502.00,0.0155
501.00,0.0172
500.00,0.0191
499.00,0.0212
498.00,0.0237
497.00,0.0264
496.00,0.0294
495.00,0.0325
494.00,0.0356
493.00,0.0387
492.00,0.0417
491.00,0.0445
490.00,0.0469
489.00,0.0485
488.00,0.0494
487.00,0.0496
486.00,0.0494
485.00,0.0489
484.00,0.0483
483.00,0.0479
482.00,0.0478
481.00,0.0480
480.00,0.0484
479.00,0.0489
478.00,0.0493
477.00,0.0495
476.00,0.0495
475.00,0.0492
474.00,0.0483
473.00,0.0469
472.00,0.0455
471.00,0.0443
470.00,0.0435
469.00,0.0429
468.00,0.0425
467.00,0.0421
466.00,0.0419
465.00,0.0416
464.00,0.0410
463.00,0.0397
462.00,0.0377
461.00,0.0355
460.00,0.0337
459.00,0.0327
458.00,0.0326
457.00,0.0332
456.00,0.0342
455.00,0.0353
454.00,0.0364
453.00,0.0375
452.00,0.0383
451.00,0.0389
450.00,0.0393
449.00,0.0395
448.00,0.0394
447.00,0.0387
446.00,0.0378
445.00,0.0368
444.00,0.0360
443.00,0.0354
442.00,0.0351
441.00,0.0347
440.00,0.0345
439.00,0.0345
438.00,0.0348
437.00,0.0354
436.00,0.0359
435.00,0.0359
434.00,0.0355
433.00,0.0349
432.00,0.0340
431.00,0.0331
430.00,0.0319
429.00,0.0306
428.00,0.0291
427.00,0.0276
426.00,0.0262
425.00,0.0252
424.00,0.0244
423.00,0.0240
422.00,0.0237
421.00,0.0235
420.00,0.0232
419.00,0.0228
418.00,0.0225
417.00,0.0220
416.00,0.0215
415.00,0.0207
414.00,0.0198
413.00,0.0186
412.00,0.0173
411.00,0.0164
410.00,0.0158
409.00,0.0152
408.00,0.0142
407.00,0.0131
406.00,0.0120
405.00,0.0112
404.00,0.0107
403.00,0.0105
402.00,0.0105
401.00,0.0104
400.00,0.0101
