Created as New Dataset,Sample 193 By YargerLab Date Saturday, June 08 2024
cm-1,A
4000.00,0.0172
3999.00,0.0172
3998.00,0.0172
3997.00,0.0172
3996.00,0.0172
3995.00,0.0172
3994.00,0.0172
3993.00,0.0172
3992.00,0.0172
3991.00,0.0172
3990.00,0.0172
3989.00,0.0172
3988.00,0.0172
3987.00,0.0172
3986.00,0.0171
3985.00,0.0171
3984.00,0.0171
3983.00,0.0171
3982.00,0.0171
3981.00,0.0171
3980.00,0.0171
3979.00,0.0171
3978.00,0.0171
3977.00,0.0171
3976.00,0.0171
3975.00,0.0171
3974.00,0.0171
3973.00,0.0171
3972.00,0.0171
3971.00,0.0171
3970.00,0.0171
3969.00,0.0171
3968.00,0.0171
3967.00,0.0171
3966.00,0.0171
3965.00,0.0170
3964.00,0.0170
3963.00,0.0170
3962.00,0.0170
3961.00,0.0170
3960.00,0.0170
3959.00,0.0170
3958.00,0.0170
3957.00,0.0170
3956.00,0.0170
3955.00,0.0170
3954.00,0.0170
3953.00,0.0170
3952.00,0.0170
3951.00,0.0170
3950.00,0.0170
3949.00,0.0169
3948.00,0.0169
3947.00,0.0169
3946.00,0.0169
3945.00,0.0169
3944.00,0.0169
3943.00,0.0169
3942.00,0.0169
3941.00,0.0169
3940.00,0.0169
3939.00,0.0169
3938.00,0.0169
3937.00,0.0168
3936.00,0.0168
3935.00,0.0168
3934.00,0.0167
3933.00,0.0167
3932.00,0.0168
3931.00,0.0168
3930.00,0.0168
3929.00,0.0168
3928.00,0.0168
3927.00,0.0168
3926.00,0.0168
3925.00,0.0169
3924.00,0.0169
3923.00,0.0168
3922.00,0.0167
3921.00,0.0166
3920.00,0.0166
3919.00,0.0166
3918.00,0.0166
3917.00,0.0166
3916.00,0.0167
3915.00,0.0167
3914.00,0.0167
3913.00,0.0167
3912.00,0.0167
3911.00,0.0168
3910.00,0.0167
3909.00,0.0167
3908.00,0.0167
3907.00,0.0167
3906.00,0.0166
3905.00,0.0165
3904.00,0.0164
3903.00,0.0163
3902.00,0.0162
3901.00,0.0162
3900.00,0.0163
3899.00,0.0164
3898.00,0.0165
3897.00,0.0165
3896.00,0.0165
3895.00,0.0165
3894.00,0.0165
3893.00,0.0165
3892.00,0.0165
3891.00,0.0165
3890.00,0.0165
3889.00,0.0164
3888.00,0.0163
3887.00,0.0162
3886.00,0.0162
3885.00,0.0163
3884.00,0.0163
3883.00,0.0163
3882.00,0.0163
3881.00,0.0163
3880.00,0.0163
3879.00,0.0163
3878.00,0.0163
3877.00,0.0162
3876.00,0.0162
3875.00,0.0162
3874.00,0.0163
3873.00,0.0163
3872.00,0.0162
3871.00,0.0161
3870.00,0.0161
3869.00,0.0161
3868.00,0.0161
3867.00,0.0160
3866.00,0.0160
3865.00,0.0160
3864.00,0.0161
3863.00,0.0161
3862.00,0.0161
3861.00,0.0160
3860.00,0.0160
3859.00,0.0161
3858.00,0.0163
3857.00,0.0164
3856.00,0.0164
3855.00,0.0164
3854.00,0.0163
3853.00,0.0162
3852.00,0.0162
3851.00,0.0161
3850.00,0.0160
3849.00,0.0160
3848.00,0.0160
3847.00,0.0160
3846.00,0.0159
3845.00,0.0159
3844.00,0.0159
3843.00,0.0159
3842.00,0.0159
3841.00,0.0158
3840.00,0.0158
3839.00,0.0158
3838.00,0.0158
3837.00,0.0159
3836.00,0.0159
3835.00,0.0159
3834.00,0.0159
3833.00,0.0158
3832.00,0.0158
3831.00,0.0158
3830.00,0.0159
3829.00,0.0158
3828.00,0.0158
3827.00,0.0159
3826.00,0.0159
3825.00,0.0158
3824.00,0.0157
3823.00,0.0156
3822.00,0.0156
3821.00,0.0157
3820.00,0.0157
3819.00,0.0157
3818.00,0.0156
3817.00,0.0156
3816.00,0.0157
3815.00,0.0159
3814.00,0.0159
3813.00,0.0160
3812.00,0.0160
3811.00,0.0160
3810.00,0.0160
3809.00,0.0159
3808.00,0.0158
3807.00,0.0158
3806.00,0.0158
3805.00,0.0157
3804.00,0.0156
3803.00,0.0155
3802.00,0.0156
3801.00,0.0157
3800.00,0.0157
3799.00,0.0157
3798.00,0.0156
3797.00,0.0156
3796.00,0.0157
3795.00,0.0158
3794.00,0.0158
3793.00,0.0159
3792.00,0.0159
3791.00,0.0160
3790.00,0.0160
3789.00,0.0160
3788.00,0.0160
3787.00,0.0160
3786.00,0.0159
3785.00,0.0159
3784.00,0.0159
3783.00,0.0158
3782.00,0.0157
3781.00,0.0157
3780.00,0.0157
3779.00,0.0157
3778.00,0.0158
3777.00,0.0158
3776.00,0.0158
3775.00,0.0158
3774.00,0.0158
3773.00,0.0158
3772.00,0.0157
3771.00,0.0157
3770.00,0.0156
3769.00,0.0156
3768.00,0.0155
3767.00,0.0155
3766.00,0.0155
3765.00,0.0155
3764.00,0.0155
3763.00,0.0155
3762.00,0.0154
3761.00,0.0153
3760.00,0.0154
3759.00,0.0154
3758.00,0.0153
3757.00,0.0153
3756.00,0.0152
3755.00,0.0152
3754.00,0.0151
3753.00,0.0150
3752.00,0.0149
3751.00,0.0148
3750.00,0.0147
3749.00,0.0147
3748.00,0.0147
3747.00,0.0147
3746.00,0.0147
3745.00,0.0147
3744.00,0.0148
3743.00,0.0149
3742.00,0.0148
3741.00,0.0148
3740.00,0.0147
3739.00,0.0146
3738.00,0.0145
3737.00,0.0144
3736.00,0.0145
3735.00,0.0146
3734.00,0.0147
3733.00,0.0147
3732.00,0.0148
3731.00,0.0149
3730.00,0.0150
3729.00,0.0151
3728.00,0.0151
3727.00,0.0151
3726.00,0.0151
3725.00,0.0152
3724.00,0.0151
3723.00,0.0151
3722.00,0.0152
3721.00,0.0152
3720.00,0.0152
3719.00,0.0152
3718.00,0.0152
3717.00,0.0152
3716.00,0.0152
3715.00,0.0151
3714.00,0.0150
3713.00,0.0150
3712.00,0.0150
3711.00,0.0150
3710.00,0.0150
3709.00,0.0150
3708.00,0.0150
3707.00,0.0151
3706.00,0.0151
3705.00,0.0152
3704.00,0.0152
3703.00,0.0152
3702.00,0.0153
3701.00,0.0153
3700.00,0.0153
3699.00,0.0153
3698.00,0.0153
3697.00,0.0153
3696.00,0.0153
3695.00,0.0152
3694.00,0.0152
3693.00,0.0151
3692.00,0.0151
3691.00,0.0151
3690.00,0.0150
3689.00,0.0149
3688.00,0.0149
3687.00,0.0149
3686.00,0.0149
3685.00,0.0150
3684.00,0.0150
3683.00,0.0150
3682.00,0.0149
3681.00,0.0149
3680.00,0.0149
3679.00,0.0149
3678.00,0.0148
3677.00,0.0146
3676.00,0.0146
3675.00,0.0146
3674.00,0.0146
3673.00,0.0146
3672.00,0.0145
3671.00,0.0145
3670.00,0.0147
3669.00,0.0148
3668.00,0.0149
3667.00,0.0149
3666.00,0.0150
3665.00,0.0150
3664.00,0.0151
3663.00,0.0151
3662.00,0.0151
3661.00,0.0152
3660.00,0.0152
3659.00,0.0151
3658.00,0.0151
3657.00,0.0150
3656.00,0.0150
3655.00,0.0149
3654.00,0.0148
3653.00,0.0147
3652.00,0.0145
3651.00,0.0145
3650.00,0.0144
3649.00,0.0143
3648.00,0.0143
3647.00,0.0144
3646.00,0.0145
3645.00,0.0147
3644.00,0.0148
3643.00,0.0149
3642.00,0.0150
3641.00,0.0151
3640.00,0.0151
3639.00,0.0151
3638.00,0.0151
3637.00,0.0151
3636.00,0.0150
3635.00,0.0150
3634.00,0.0150
3633.00,0.0150
3632.00,0.0149
3631.00,0.0148
3630.00,0.0148
3629.00,0.0147
3628.00,0.0147
3627.00,0.0147
3626.00,0.0147
3625.00,0.0147
3624.00,0.0148
3623.00,0.0149
3622.00,0.0149
3621.00,0.0150
3620.00,0.0150
3619.00,0.0150
3618.00,0.0149
3617.00,0.0148
3616.00,0.0147
3615.00,0.0147
3614.00,0.0147
3613.00,0.0147
3612.00,0.0147
3611.00,0.0147
3610.00,0.0147
3609.00,0.0147
3608.00,0.0148
3607.00,0.0149
3606.00,0.0150
3605.00,0.0150
3604.00,0.0151
3603.00,0.0151
3602.00,0.0151
3601.00,0.0151
3600.00,0.0151
3599.00,0.0151
3598.00,0.0151
3597.00,0.0151
3596.00,0.0151
3595.00,0.0152
3594.00,0.0152
3593.00,0.0152
3592.00,0.0151
3591.00,0.0151
3590.00,0.0151
3589.00,0.0151
3588.00,0.0152
3587.00,0.0152
3586.00,0.0152
3585.00,0.0152
3584.00,0.0152
3583.00,0.0153
3582.00,0.0153
3581.00,0.0154
3580.00,0.0155
3579.00,0.0155
3578.00,0.0155
3577.00,0.0155
3576.00,0.0155
3575.00,0.0155
3574.00,0.0155
3573.00,0.0155
3572.00,0.0155
3571.00,0.0155
3570.00,0.0154
3569.00,0.0154
3568.00,0.0154
3567.00,0.0154
3566.00,0.0154
3565.00,0.0154
3564.00,0.0154
3563.00,0.0155
3562.00,0.0155
3561.00,0.0156
3560.00,0.0157
3559.00,0.0157
3558.00,0.0157
3557.00,0.0158
3556.00,0.0158
3555.00,0.0158
3554.00,0.0158
3553.00,0.0158
3552.00,0.0158
3551.00,0.0158
3550.00,0.0157
3549.00,0.0157
3548.00,0.0157
3547.00,0.0157
3546.00,0.0158
3545.00,0.0159
3544.00,0.0159
3543.00,0.0159
3542.00,0.0159
3541.00,0.0159
3540.00,0.0160
3539.00,0.0160
3538.00,0.0161
3537.00,0.0161
3536.00,0.0161
3535.00,0.0161
3534.00,0.0161
3533.00,0.0161
3532.00,0.0161
3531.00,0.0161
3530.00,0.0161
3529.00,0.0161
3528.00,0.0161
3527.00,0.0161
3526.00,0.0161
3525.00,0.0161
3524.00,0.0161
3523.00,0.0161
3522.00,0.0162
3521.00,0.0162
3520.00,0.0162
3519.00,0.0163
3518.00,0.0163
3517.00,0.0163
3516.00,0.0163
3515.00,0.0163
3514.00,0.0164
3513.00,0.0164
3512.00,0.0164
3511.00,0.0164
3510.00,0.0164
3509.00,0.0164
3508.00,0.0164
3507.00,0.0164
3506.00,0.0164
3505.00,0.0164
3504.00,0.0165
3503.00,0.0165
3502.00,0.0165
3501.00,0.0165
3500.00,0.0165
3499.00,0.0166
3498.00,0.0166
3497.00,0.0166
3496.00,0.0166
3495.00,0.0166
3494.00,0.0166
3493.00,0.0167
3492.00,0.0167
3491.00,0.0167
3490.00,0.0167
3489.00,0.0167
3488.00,0.0167
3487.00,0.0167
3486.00,0.0167
3485.00,0.0168
3484.00,0.0168
3483.00,0.0168
3482.00,0.0169
3481.00,0.0169
3480.00,0.0169
3479.00,0.0169
3478.00,0.0169
3477.00,0.0169
3476.00,0.0170
3475.00,0.0170
3474.00,0.0170
3473.00,0.0170
3472.00,0.0171
3471.00,0.0171
3470.00,0.0171
3469.00,0.0171
3468.00,0.0171
3467.00,0.0172
3466.00,0.0172
3465.00,0.0172
3464.00,0.0173
3463.00,0.0173
3462.00,0.0173
3461.00,0.0173
3460.00,0.0173
3459.00,0.0173
3458.00,0.0173
3457.00,0.0174
3456.00,0.0174
3455.00,0.0174
3454.00,0.0174
3453.00,0.0174
3452.00,0.0174
3451.00,0.0174
3450.00,0.0174
3449.00,0.0175
3448.00,0.0175
3447.00,0.0175
3446.00,0.0175
3445.00,0.0175
3444.00,0.0175
3443.00,0.0176
3442.00,0.0176
3441.00,0.0176
3440.00,0.0176
3439.00,0.0177
3438.00,0.0177
3437.00,0.0177
3436.00,0.0177
3435.00,0.0177
3434.00,0.0178
3433.00,0.0178
3432.00,0.0178
3431.00,0.0178
3430.00,0.0178
3429.00,0.0178
3428.00,0.0178
3427.00,0.0179
3426.00,0.0179
3425.00,0.0179
3424.00,0.0179
3423.00,0.0179
3422.00,0.0180
3421.00,0.0180
3420.00,0.0180
3419.00,0.0180
3418.00,0.0180
3417.00,0.0180
3416.00,0.0181
3415.00,0.0181
3414.00,0.0181
3413.00,0.0182
3412.00,0.0182
3411.00,0.0182
3410.00,0.0182
3409.00,0.0182
3408.00,0.0182
3407.00,0.0182
3406.00,0.0182
3405.00,0.0183
3404.00,0.0183
3403.00,0.0183
3402.00,0.0183
3401.00,0.0184
3400.00,0.0184
3399.00,0.0184
3398.00,0.0184
3397.00,0.0184
3396.00,0.0184
3395.00,0.0184
3394.00,0.0185
3393.00,0.0185
3392.00,0.0185
3391.00,0.0185
3390.00,0.0185
3389.00,0.0185
3388.00,0.0185
3387.00,0.0186
3386.00,0.0186
3385.00,0.0186
3384.00,0.0186
3383.00,0.0187
3382.00,0.0187
3381.00,0.0187
3380.00,0.0187
3379.00,0.0188
3378.00,0.0188
3377.00,0.0188
3376.00,0.0188
3375.00,0.0188
3374.00,0.0189
3373.00,0.0189
3372.00,0.0189
3371.00,0.0190
3370.00,0.0190
3369.00,0.0190
3368.00,0.0191
3367.00,0.0191
3366.00,0.0191
3365.00,0.0192
3364.00,0.0192
3363.00,0.0192
3362.00,0.0193
3361.00,0.0193
3360.00,0.0193
3359.00,0.0194
3358.00,0.0194
3357.00,0.0194
3356.00,0.0195
3355.00,0.0195
3354.00,0.0196
3353.00,0.0196
3352.00,0.0196
3351.00,0.0197
3350.00,0.0197
3349.00,0.0198
3348.00,0.0198
3347.00,0.0199
3346.00,0.0199
3345.00,0.0200
3344.00,0.0200
3343.00,0.0201
3342.00,0.0201
3341.00,0.0202
3340.00,0.0202
3339.00,0.0203
3338.00,0.0203
3337.00,0.0204
3336.00,0.0204
3335.00,0.0205
3334.00,0.0205
3333.00,0.0206
3332.00,0.0207
3331.00,0.0207
3330.00,0.0208
3329.00,0.0208
3328.00,0.0209
3327.00,0.0209
3326.00,0.0210
3325.00,0.0211
3324.00,0.0212
3323.00,0.0213
3322.00,0.0213
3321.00,0.0214
3320.00,0.0215
3319.00,0.0215
3318.00,0.0216
3317.00,0.0217
3316.00,0.0218
3315.00,0.0219
3314.00,0.0219
3313.00,0.0220
3312.00,0.0221
3311.00,0.0221
3310.00,0.0222
3309.00,0.0223
3308.00,0.0224
3307.00,0.0225
3306.00,0.0226
3305.00,0.0227
3304.00,0.0228
3303.00,0.0229
3302.00,0.0230
3301.00,0.0231
3300.00,0.0232
3299.00,0.0233
3298.00,0.0233
3297.00,0.0234
3296.00,0.0235
3295.00,0.0236
3294.00,0.0237
3293.00,0.0238
3292.00,0.0239
3291.00,0.0240
3290.00,0.0241
3289.00,0.0242
3288.00,0.0243
3287.00,0.0244
3286.00,0.0245
3285.00,0.0246
3284.00,0.0246
3283.00,0.0247
3282.00,0.0247
3281.00,0.0248
3280.00,0.0248
3279.00,0.0249
3278.00,0.0249
3277.00,0.0249
3276.00,0.0250
3275.00,0.0250
3274.00,0.0250
3273.00,0.0250
3272.00,0.0250
3271.00,0.0250
3270.00,0.0250
3269.00,0.0250
3268.00,0.0250
3267.00,0.0250
3266.00,0.0249
3265.00,0.0249
3264.00,0.0249
3263.00,0.0248
3262.00,0.0248
3261.00,0.0247
3260.00,0.0246
3259.00,0.0245
3258.00,0.0245
3257.00,0.0244
3256.00,0.0243
3255.00,0.0242
3254.00,0.0242
3253.00,0.0241
3252.00,0.0241
3251.00,0.0240
3250.00,0.0239
3249.00,0.0238
3248.00,0.0237
3247.00,0.0236
3246.00,0.0235
3245.00,0.0235
3244.00,0.0234
3243.00,0.0233
3242.00,0.0233
3241.00,0.0232
3240.00,0.0231
3239.00,0.0231
3238.00,0.0230
3237.00,0.0229
3236.00,0.0228
3235.00,0.0227
3234.00,0.0227
3233.00,0.0226
3232.00,0.0226
3231.00,0.0226
3230.00,0.0225
3229.00,0.0225
3228.00,0.0224
3227.00,0.0224
3226.00,0.0223
3225.00,0.0222
3224.00,0.0222
3223.00,0.0221
3222.00,0.0221
3221.00,0.0220
3220.00,0.0220
3219.00,0.0219
3218.00,0.0219
3217.00,0.0218
3216.00,0.0218
3215.00,0.0217
3214.00,0.0217
3213.00,0.0217
3212.00,0.0216
3211.00,0.0216
3210.00,0.0215
3209.00,0.0215
3208.00,0.0215
3207.00,0.0214
3206.00,0.0214
3205.00,0.0214
3204.00,0.0213
3203.00,0.0213
3202.00,0.0212
3201.00,0.0212
3200.00,0.0211
3199.00,0.0211
3198.00,0.0211
3197.00,0.0210
3196.00,0.0210
3195.00,0.0209
3194.00,0.0209
3193.00,0.0209
3192.00,0.0208
3191.00,0.0208
3190.00,0.0207
3189.00,0.0207
3188.00,0.0206
3187.00,0.0206
3186.00,0.0206
3185.00,0.0205
3184.00,0.0205
3183.00,0.0204
3182.00,0.0204
3181.00,0.0204
3180.00,0.0203
3179.00,0.0203
3178.00,0.0202
3177.00,0.0201
3176.00,0.0201
3175.00,0.0200
3174.00,0.0200
3173.00,0.0200
3172.00,0.0199
3171.00,0.0199
3170.00,0.0198
3169.00,0.0198
3168.00,0.0197
3167.00,0.0197
3166.00,0.0197
3165.00,0.0196
3164.00,0.0196
3163.00,0.0195
3162.00,0.0195
3161.00,0.0195
3160.00,0.0194
3159.00,0.0194
3158.00,0.0193
3157.00,0.0193
3156.00,0.0192
3155.00,0.0192
3154.00,0.0192
3153.00,0.0191
3152.00,0.0191
3151.00,0.0190
3150.00,0.0190
3149.00,0.0190
3148.00,0.0189
3147.00,0.0189
3146.00,0.0189
3145.00,0.0188
3144.00,0.0188
3143.00,0.0187
3142.00,0.0187
3141.00,0.0187
3140.00,0.0186
3139.00,0.0186
3138.00,0.0186
3137.00,0.0186
3136.00,0.0185
3135.00,0.0185
3134.00,0.0185
3133.00,0.0184
3132.00,0.0184
3131.00,0.0184
3130.00,0.0184
3129.00,0.0183
3128.00,0.0183
3127.00,0.0183
3126.00,0.0183
3125.00,0.0182
3124.00,0.0182
3123.00,0.0182
3122.00,0.0182
3121.00,0.0182
3120.00,0.0182
3119.00,0.0182
3118.00,0.0181
3117.00,0.0181
3116.00,0.0181
3115.00,0.0181
3114.00,0.0181
3113.00,0.0181
3112.00,0.0181
3111.00,0.0181
3110.00,0.0181
3109.00,0.0181
3108.00,0.0181
3107.00,0.0181
3106.00,0.0181
3105.00,0.0181
3104.00,0.0181
3103.00,0.0181
3102.00,0.0181
3101.00,0.0181
3100.00,0.0181
3099.00,0.0181
3098.00,0.0181
3097.00,0.0181
3096.00,0.0181
3095.00,0.0181
3094.00,0.0181
3093.00,0.0181
3092.00,0.0181
3091.00,0.0181
3090.00,0.0181
3089.00,0.0181
3088.00,0.0181
3087.00,0.0181
3086.00,0.0182
3085.00,0.0182
3084.00,0.0182
3083.00,0.0182
3082.00,0.0182
3081.00,0.0182
3080.00,0.0182
3079.00,0.0182
3078.00,0.0182
3077.00,0.0182
3076.00,0.0182
3075.00,0.0182
3074.00,0.0183
3073.00,0.0183
3072.00,0.0183
3071.00,0.0183
3070.00,0.0182
3069.00,0.0182
3068.00,0.0182
3067.00,0.0182
3066.00,0.0182
3065.00,0.0182
3064.00,0.0182
3063.00,0.0182
3062.00,0.0182
3061.00,0.0182
3060.00,0.0182
3059.00,0.0182
3058.00,0.0181
3057.00,0.0181
3056.00,0.0181
3055.00,0.0181
3054.00,0.0180
3053.00,0.0180
3052.00,0.0180
3051.00,0.0180
3050.00,0.0179
3049.00,0.0179
3048.00,0.0179
3047.00,0.0178
3046.00,0.0178
3045.00,0.0178
3044.00,0.0177
3043.00,0.0177
3042.00,0.0177
3041.00,0.0177
3040.00,0.0177
3039.00,0.0176
3038.00,0.0176
3037.00,0.0176
3036.00,0.0176
3035.00,0.0175
3034.00,0.0175
3033.00,0.0175
3032.00,0.0174
3031.00,0.0174
3030.00,0.0174
3029.00,0.0174
3028.00,0.0174
3027.00,0.0174
3026.00,0.0173
3025.00,0.0173
3024.00,0.0173
3023.00,0.0172
3022.00,0.0172
3021.00,0.0172
3020.00,0.0171
3019.00,0.0171
3018.00,0.0171
3017.00,0.0171
3016.00,0.0171
3015.00,0.0170
3014.00,0.0170
3013.00,0.0170
3012.00,0.0170
3011.00,0.0169
3010.00,0.0169
3009.00,0.0169
3008.00,0.0169
3007.00,0.0169
3006.00,0.0169
3005.00,0.0169
3004.00,0.0169
3003.00,0.0169
3002.00,0.0169
3001.00,0.0169
3000.00,0.0169
2999.00,0.0169
2998.00,0.0169
2997.00,0.0169
2996.00,0.0169
2995.00,0.0169
2994.00,0.0169
2993.00,0.0169
2992.00,0.0170
2991.00,0.0170
2990.00,0.0170
2989.00,0.0171
2988.00,0.0171
2987.00,0.0172
2986.00,0.0172
2985.00,0.0173
2984.00,0.0173
2983.00,0.0174
2982.00,0.0174
2981.00,0.0175
2980.00,0.0175
2979.00,0.0176
2978.00,0.0176
2977.00,0.0177
2976.00,0.0178
2975.00,0.0179
2974.00,0.0180
2973.00,0.0180
2972.00,0.0181
2971.00,0.0182
2970.00,0.0183
2969.00,0.0184
2968.00,0.0185
2967.00,0.0186
2966.00,0.0187
2965.00,0.0188
2964.00,0.0189
2963.00,0.0189
2962.00,0.0190
2961.00,0.0191
2960.00,0.0191
2959.00,0.0192
2958.00,0.0192
2957.00,0.0193
2956.00,0.0193
2955.00,0.0193
2954.00,0.0193
2953.00,0.0193
2952.00,0.0193
2951.00,0.0193
2950.00,0.0193
2949.00,0.0193
2948.00,0.0193
2947.00,0.0194
2946.00,0.0194
2945.00,0.0195
2944.00,0.0196
2943.00,0.0197
2942.00,0.0198
2941.00,0.0200
2940.00,0.0201
2939.00,0.0204
2938.00,0.0206
2937.00,0.0208
2936.00,0.0210
2935.00,0.0213
2934.00,0.0216
2933.00,0.0218
2932.00,0.0221
2931.00,0.0224
2930.00,0.0226
2929.00,0.0228
2928.00,0.0230
2927.00,0.0232
2926.00,0.0234
2925.00,0.0235
2924.00,0.0235
2923.00,0.0235
2922.00,0.0234
2921.00,0.0232
2920.00,0.0230
2919.00,0.0226
2918.00,0.0223
2917.00,0.0219
2916.00,0.0215
2915.00,0.0212
2914.00,0.0210
2913.00,0.0208
2912.00,0.0207
2911.00,0.0206
2910.00,0.0204
2909.00,0.0203
2908.00,0.0202
2907.00,0.0201
2906.00,0.0200
2905.00,0.0198
2904.00,0.0198
2903.00,0.0197
2902.00,0.0196
2901.00,0.0195
2900.00,0.0194
2899.00,0.0193
2898.00,0.0192
2897.00,0.0192
2896.00,0.0191
2895.00,0.0190
2894.00,0.0189
2893.00,0.0188
2892.00,0.0187
2891.00,0.0187
2890.00,0.0186
2889.00,0.0185
2888.00,0.0185
2887.00,0.0184
2886.00,0.0184
2885.00,0.0184
2884.00,0.0183
2883.00,0.0183
2882.00,0.0183
2881.00,0.0183
2880.00,0.0183
2879.00,0.0183
2878.00,0.0183
2877.00,0.0184
2876.00,0.0184
2875.00,0.0184
2874.00,0.0185
2873.00,0.0185
2872.00,0.0185
2871.00,0.0185
2870.00,0.0185
2869.00,0.0185
2868.00,0.0185
2867.00,0.0184
2866.00,0.0184
2865.00,0.0185
2864.00,0.0185
2863.00,0.0186
2862.00,0.0187
2861.00,0.0189
2860.00,0.0191
2859.00,0.0193
2858.00,0.0195
2857.00,0.0197
2856.00,0.0199
2855.00,0.0201
2854.00,0.0201
2853.00,0.0201
2852.00,0.0200
2851.00,0.0197
2850.00,0.0194
2849.00,0.0190
2848.00,0.0187
2847.00,0.0184
2846.00,0.0182
2845.00,0.0181
2844.00,0.0179
2843.00,0.0178
2842.00,0.0176
2841.00,0.0175
2840.00,0.0174
2839.00,0.0173
2838.00,0.0171
2837.00,0.0170
2836.00,0.0169
2835.00,0.0169
2834.00,0.0168
2833.00,0.0167
2832.00,0.0167
2831.00,0.0166
2830.00,0.0166
2829.00,0.0165
2828.00,0.0165
2827.00,0.0165
2826.00,0.0164
2825.00,0.0164
2824.00,0.0164
2823.00,0.0163
2822.00,0.0163
2821.00,0.0163
2820.00,0.0162
2819.00,0.0162
2818.00,0.0162
2817.00,0.0162
2816.00,0.0162
2815.00,0.0161
2814.00,0.0161
2813.00,0.0161
2812.00,0.0161
2811.00,0.0160
2810.00,0.0160
2809.00,0.0160
2808.00,0.0160
2807.00,0.0160
2806.00,0.0159
2805.00,0.0159
2804.00,0.0159
2803.00,0.0159
2802.00,0.0159
2801.00,0.0158
2800.00,0.0158
2799.00,0.0158
2798.00,0.0158
2797.00,0.0158
2796.00,0.0158
2795.00,0.0158
2794.00,0.0158
2793.00,0.0157
2792.00,0.0157
2791.00,0.0157
2790.00,0.0157
2789.00,0.0157
2788.00,0.0157
2787.00,0.0157
2786.00,0.0156
2785.00,0.0156
2784.00,0.0156
2783.00,0.0156
2782.00,0.0156
2781.00,0.0156
2780.00,0.0156
2779.00,0.0155
2778.00,0.0155
2777.00,0.0155
2776.00,0.0155
2775.00,0.0155
2774.00,0.0155
2773.00,0.0155
2772.00,0.0154
2771.00,0.0154
2770.00,0.0154
2769.00,0.0154
2768.00,0.0154
2767.00,0.0154
2766.00,0.0154
2765.00,0.0154
2764.00,0.0153
2763.00,0.0153
2762.00,0.0153
2761.00,0.0153
2760.00,0.0153
2759.00,0.0153
2758.00,0.0153
2757.00,0.0153
2756.00,0.0153
2755.00,0.0152
2754.00,0.0152
2753.00,0.0152
2752.00,0.0152
2751.00,0.0152
2750.00,0.0152
2749.00,0.0152
2748.00,0.0152
2747.00,0.0151
2746.00,0.0151
2745.00,0.0151
2744.00,0.0151
2743.00,0.0151
2742.00,0.0151
2741.00,0.0151
2740.00,0.0151
2739.00,0.0150
2738.00,0.0150
2737.00,0.0150
2736.00,0.0150
2735.00,0.0150
2734.00,0.0150
2733.00,0.0150
2732.00,0.0150
2731.00,0.0150
2730.00,0.0150
2729.00,0.0149
2728.00,0.0149
2727.00,0.0149
2726.00,0.0149
2725.00,0.0149
2724.00,0.0149
2723.00,0.0149
2722.00,0.0149
2721.00,0.0148
2720.00,0.0148
2719.00,0.0148
2718.00,0.0148
2717.00,0.0148
2716.00,0.0148
2715.00,0.0148
2714.00,0.0148
2713.00,0.0147
2712.00,0.0147
2711.00,0.0147
2710.00,0.0147
2709.00,0.0147
2708.00,0.0147
2707.00,0.0147
2706.00,0.0147
2705.00,0.0146
2704.00,0.0146
2703.00,0.0146
2702.00,0.0146
2701.00,0.0146
2700.00,0.0146
2699.00,0.0146
2698.00,0.0146
2697.00,0.0146
2696.00,0.0146
2695.00,0.0146
2694.00,0.0145
2693.00,0.0145
2692.00,0.0145
2691.00,0.0145
2690.00,0.0145
2689.00,0.0145
2688.00,0.0145
2687.00,0.0145
2686.00,0.0145
2685.00,0.0145
2684.00,0.0145
2683.00,0.0145
2682.00,0.0145
2681.00,0.0144
2680.00,0.0144
2679.00,0.0144
2678.00,0.0144
2677.00,0.0144
2676.00,0.0144
2675.00,0.0144
2674.00,0.0144
2673.00,0.0144
2672.00,0.0143
2671.00,0.0143
2670.00,0.0143
2669.00,0.0143
2668.00,0.0143
2667.00,0.0143
2666.00,0.0143
2665.00,0.0143
2664.00,0.0142
2663.00,0.0142
2662.00,0.0142
2661.00,0.0142
2660.00,0.0142
2659.00,0.0141
2658.00,0.0141
2657.00,0.0141
2656.00,0.0141
2655.00,0.0141
2654.00,0.0140
2653.00,0.0140
2652.00,0.0140
2651.00,0.0140
2650.00,0.0140
2649.00,0.0140
2648.00,0.0140
2647.00,0.0139
2646.00,0.0139
2645.00,0.0139
2644.00,0.0139
2643.00,0.0139
2642.00,0.0139
2641.00,0.0139
2640.00,0.0139
2639.00,0.0138
2638.00,0.0138
2637.00,0.0138
2636.00,0.0138
2635.00,0.0138
2634.00,0.0138
2633.00,0.0138
2632.00,0.0138
2631.00,0.0138
2630.00,0.0138
2629.00,0.0138
2628.00,0.0137
2627.00,0.0137
2626.00,0.0137
2625.00,0.0137
2624.00,0.0137
2623.00,0.0137
2622.00,0.0137
2621.00,0.0137
2620.00,0.0136
2619.00,0.0136
2618.00,0.0136
2617.00,0.0136
2616.00,0.0136
2615.00,0.0136
2614.00,0.0136
2613.00,0.0136
2612.00,0.0136
2611.00,0.0136
2610.00,0.0135
2609.00,0.0135
2608.00,0.0135
2607.00,0.0135
2606.00,0.0135
2605.00,0.0135
2604.00,0.0135
2603.00,0.0135
2602.00,0.0135
2601.00,0.0135
2600.00,0.0135
2599.00,0.0135
2598.00,0.0135
2597.00,0.0135
2596.00,0.0134
2595.00,0.0134
2594.00,0.0134
2593.00,0.0134
2592.00,0.0134
2591.00,0.0134
2590.00,0.0134
2589.00,0.0134
2588.00,0.0134
2587.00,0.0133
2586.00,0.0133
2585.00,0.0133
2584.00,0.0133
2583.00,0.0133
2582.00,0.0133
2581.00,0.0133
2580.00,0.0133
2579.00,0.0133
2578.00,0.0133
2577.00,0.0133
2576.00,0.0133
2575.00,0.0133
2574.00,0.0133
2573.00,0.0132
2572.00,0.0132
2571.00,0.0132
2570.00,0.0132
2569.00,0.0132
2568.00,0.0132
2567.00,0.0132
2566.00,0.0132
2565.00,0.0132
2564.00,0.0132
2563.00,0.0131
2562.00,0.0131
2561.00,0.0131
2560.00,0.0131
2559.00,0.0132
2558.00,0.0132
2557.00,0.0132
2556.00,0.0131
2555.00,0.0131
2554.00,0.0131
2553.00,0.0131
2552.00,0.0131
2551.00,0.0131
2550.00,0.0131
2549.00,0.0131
2548.00,0.0131
2547.00,0.0131
2546.00,0.0131
2545.00,0.0130
2544.00,0.0130
2543.00,0.0130
2542.00,0.0130
2541.00,0.0130
2540.00,0.0130
2539.00,0.0130
2538.00,0.0130
2537.00,0.0130
2536.00,0.0130
2535.00,0.0130
2534.00,0.0130
2533.00,0.0130
2532.00,0.0130
2531.00,0.0130
2530.00,0.0129
2529.00,0.0129
2528.00,0.0129
2527.00,0.0129
2526.00,0.0129
2525.00,0.0129
2524.00,0.0129
2523.00,0.0129
2522.00,0.0129
2521.00,0.0129
2520.00,0.0129
2519.00,0.0129
2518.00,0.0129
2517.00,0.0129
2516.00,0.0129
2515.00,0.0129
2514.00,0.0129
2513.00,0.0129
2512.00,0.0129
2511.00,0.0129
2510.00,0.0129
2509.00,0.0129
2508.00,0.0128
2507.00,0.0128
2506.00,0.0128
2505.00,0.0128
2504.00,0.0128
2503.00,0.0128
2502.00,0.0128
2501.00,0.0128
2500.00,0.0128
2499.00,0.0127
2498.00,0.0127
2497.00,0.0127
2496.00,0.0127
2495.00,0.0127
2494.00,0.0127
2493.00,0.0128
2492.00,0.0128
2491.00,0.0128
2490.00,0.0128
2489.00,0.0127
2488.00,0.0127
2487.00,0.0127
2486.00,0.0127
2485.00,0.0127
2484.00,0.0127
2483.00,0.0127
2482.00,0.0127
2481.00,0.0127
2480.00,0.0127
2479.00,0.0127
2478.00,0.0126
2477.00,0.0126
2476.00,0.0126
2475.00,0.0126
2474.00,0.0126
2473.00,0.0126
2472.00,0.0126
2471.00,0.0126
2470.00,0.0126
2469.00,0.0126
2468.00,0.0126
2467.00,0.0125
2466.00,0.0125
2465.00,0.0125
2464.00,0.0125
2463.00,0.0125
2462.00,0.0125
2461.00,0.0125
2460.00,0.0125
2459.00,0.0125
2458.00,0.0125
2457.00,0.0125
2456.00,0.0125
2455.00,0.0124
2454.00,0.0124
2453.00,0.0124
2452.00,0.0124
2451.00,0.0124
2450.00,0.0124
2449.00,0.0124
2448.00,0.0124
2447.00,0.0124
2446.00,0.0124
2445.00,0.0124
2444.00,0.0124
2443.00,0.0124
2442.00,0.0124
2441.00,0.0124
2440.00,0.0124
2439.00,0.0124
2438.00,0.0124
2437.00,0.0124
2436.00,0.0123
2435.00,0.0123
2434.00,0.0123
2433.00,0.0123
2432.00,0.0123
2431.00,0.0123
2430.00,0.0123
2429.00,0.0123
2428.00,0.0123
2427.00,0.0123
2426.00,0.0123
2425.00,0.0123
2424.00,0.0123
2423.00,0.0123
2422.00,0.0123
2421.00,0.0123
2420.00,0.0122
2419.00,0.0122
2418.00,0.0123
2417.00,0.0123
2416.00,0.0123
2415.00,0.0123
2414.00,0.0122
2413.00,0.0122
2412.00,0.0122
2411.00,0.0122
2410.00,0.0122
2409.00,0.0122
2408.00,0.0122
2407.00,0.0122
2406.00,0.0122
2405.00,0.0122
2404.00,0.0122
2403.00,0.0122
2402.00,0.0122
2401.00,0.0122
2400.00,0.0122
2399.00,0.0122
2398.00,0.0122
2397.00,0.0122
2396.00,0.0122
2395.00,0.0122
2394.00,0.0122
2393.00,0.0121
2392.00,0.0121
2391.00,0.0121
2390.00,0.0121
2389.00,0.0121
2388.00,0.0121
2387.00,0.0121
2386.00,0.0121
2385.00,0.0121
2384.00,0.0121
2383.00,0.0121
2382.00,0.0121
2381.00,0.0121
2380.00,0.0121
2379.00,0.0121
2378.00,0.0121
2377.00,0.0121
2376.00,0.0121
2375.00,0.0121
2374.00,0.0120
2373.00,0.0120
2372.00,0.0120
2371.00,0.0120
2370.00,0.0120
2369.00,0.0120
2368.00,0.0120
2367.00,0.0120
2366.00,0.0120
2365.00,0.0120
2364.00,0.0120
2363.00,0.0119
2362.00,0.0119
2361.00,0.0119
2360.00,0.0119
2359.00,0.0118
2358.00,0.0118
2357.00,0.0118
2356.00,0.0118
2355.00,0.0118
2354.00,0.0118
2353.00,0.0119
2352.00,0.0119
2351.00,0.0119
2350.00,0.0118
2349.00,0.0118
2348.00,0.0117
2347.00,0.0116
2346.00,0.0116
2345.00,0.0116
2344.00,0.0116
2343.00,0.0116
2342.00,0.0117
2341.00,0.0117
2340.00,0.0117
2339.00,0.0117
2338.00,0.0116
2337.00,0.0116
2336.00,0.0116
2335.00,0.0116
2334.00,0.0116
2333.00,0.0116
2332.00,0.0116
2331.00,0.0116
2330.00,0.0116
2329.00,0.0116
2328.00,0.0116
2327.00,0.0115
2326.00,0.0114
2325.00,0.0114
2324.00,0.0113
2323.00,0.0113
2322.00,0.0114
2321.00,0.0114
2320.00,0.0114
2319.00,0.0114
2318.00,0.0114
2317.00,0.0114
2316.00,0.0115
2315.00,0.0115
2314.00,0.0115
2313.00,0.0115
2312.00,0.0115
2311.00,0.0115
2310.00,0.0115
2309.00,0.0115
2308.00,0.0115
2307.00,0.0114
2306.00,0.0114
2305.00,0.0114
2304.00,0.0114
2303.00,0.0113
2302.00,0.0113
2301.00,0.0113
2300.00,0.0113
2299.00,0.0113
2298.00,0.0113
2297.00,0.0113
2296.00,0.0113
2295.00,0.0113
2294.00,0.0113
2293.00,0.0113
2292.00,0.0113
2291.00,0.0112
2290.00,0.0112
2289.00,0.0112
2288.00,0.0112
2287.00,0.0112
2286.00,0.0112
2285.00,0.0112
2284.00,0.0112
2283.00,0.0112
2282.00,0.0112
2281.00,0.0112
2280.00,0.0112
2279.00,0.0112
2278.00,0.0112
2277.00,0.0112
2276.00,0.0112
2275.00,0.0112
2274.00,0.0112
2273.00,0.0112
2272.00,0.0112
2271.00,0.0112
2270.00,0.0112
2269.00,0.0112
2268.00,0.0112
2267.00,0.0112
2266.00,0.0112
2265.00,0.0112
2264.00,0.0112
2263.00,0.0112
2262.00,0.0111
2261.00,0.0111
2260.00,0.0111
2259.00,0.0111
2258.00,0.0112
2257.00,0.0112
2256.00,0.0112
2255.00,0.0112
2254.00,0.0112
2253.00,0.0112
2252.00,0.0111
2251.00,0.0111
2250.00,0.0111
2249.00,0.0111
2248.00,0.0111
2247.00,0.0111
2246.00,0.0111
2245.00,0.0111
2244.00,0.0111
2243.00,0.0111
2242.00,0.0111
2241.00,0.0111
2240.00,0.0111
2239.00,0.0111
2238.00,0.0111
2237.00,0.0111
2236.00,0.0111
2235.00,0.0111
2234.00,0.0110
2233.00,0.0110
2232.00,0.0110
2231.00,0.0110
2230.00,0.0110
2229.00,0.0110
2228.00,0.0110
2227.00,0.0110
2226.00,0.0109
2225.00,0.0110
2224.00,0.0110
2223.00,0.0110
2222.00,0.0110
2221.00,0.0111
2220.00,0.0110
2219.00,0.0110
2218.00,0.0110
2217.00,0.0109
2216.00,0.0109
2215.00,0.0109
2214.00,0.0109
2213.00,0.0109
2212.00,0.0110
2211.00,0.0110
2210.00,0.0110
2209.00,0.0110
2208.00,0.0110
2207.00,0.0110
2206.00,0.0109
2205.00,0.0109
2204.00,0.0109
2203.00,0.0109
2202.00,0.0108
2201.00,0.0108
2200.00,0.0108
2199.00,0.0108
2198.00,0.0108
2197.00,0.0108
2196.00,0.0108
2195.00,0.0108
2194.00,0.0108
2193.00,0.0108
2192.00,0.0108
2191.00,0.0108
2190.00,0.0108
2189.00,0.0108
2188.00,0.0108
2187.00,0.0108
2186.00,0.0107
2185.00,0.0107
2184.00,0.0107
2183.00,0.0107
2182.00,0.0107
2181.00,0.0107
2180.00,0.0108
2179.00,0.0108
2178.00,0.0108
2177.00,0.0108
2176.00,0.0108
2175.00,0.0109
2174.00,0.0109
2173.00,0.0109
2172.00,0.0109
2171.00,0.0108
2170.00,0.0107
2169.00,0.0106
2168.00,0.0105
2167.00,0.0105
2166.00,0.0104
2165.00,0.0104
2164.00,0.0103
2163.00,0.0102
2162.00,0.0102
2161.00,0.0103
2160.00,0.0105
2159.00,0.0108
2158.00,0.0110
2157.00,0.0112
2156.00,0.0111
2155.00,0.0111
2154.00,0.0110
2153.00,0.0109
2152.00,0.0109
2151.00,0.0109
2150.00,0.0109
2149.00,0.0109
2148.00,0.0109
2147.00,0.0109
2146.00,0.0109
2145.00,0.0110
2144.00,0.0110
2143.00,0.0111
2142.00,0.0111
2141.00,0.0111
2140.00,0.0110
2139.00,0.0110
2138.00,0.0110
2137.00,0.0110
2136.00,0.0111
2135.00,0.0111
2134.00,0.0111
2133.00,0.0111
2132.00,0.0111
2131.00,0.0111
2130.00,0.0111
2129.00,0.0111
2128.00,0.0111
2127.00,0.0111
2126.00,0.0111
2125.00,0.0111
2124.00,0.0110
2123.00,0.0110
2122.00,0.0109
2121.00,0.0109
2120.00,0.0109
2119.00,0.0108
2118.00,0.0108
2117.00,0.0108
2116.00,0.0108
2115.00,0.0108
2114.00,0.0108
2113.00,0.0108
2112.00,0.0108
2111.00,0.0108
2110.00,0.0108
2109.00,0.0108
2108.00,0.0108
2107.00,0.0108
2106.00,0.0108
2105.00,0.0107
2104.00,0.0107
2103.00,0.0107
2102.00,0.0107
2101.00,0.0107
2100.00,0.0107
2099.00,0.0107
2098.00,0.0107
2097.00,0.0107
2096.00,0.0107
2095.00,0.0108
2094.00,0.0108
2093.00,0.0108
2092.00,0.0108
2091.00,0.0108
2090.00,0.0107
2089.00,0.0107
2088.00,0.0106
2087.00,0.0106
2086.00,0.0106
2085.00,0.0106
2084.00,0.0106
2083.00,0.0106
2082.00,0.0106
2081.00,0.0106
2080.00,0.0106
2079.00,0.0106
2078.00,0.0106
2077.00,0.0106
2076.00,0.0105
2075.00,0.0105
2074.00,0.0105
2073.00,0.0105
2072.00,0.0105
2071.00,0.0105
2070.00,0.0105
2069.00,0.0105
2068.00,0.0105
2067.00,0.0105
2066.00,0.0105
2065.00,0.0105
2064.00,0.0105
2063.00,0.0105
2062.00,0.0104
2061.00,0.0105
2060.00,0.0105
2059.00,0.0105
2058.00,0.0104
2057.00,0.0104
2056.00,0.0104
2055.00,0.0104
2054.00,0.0103
2053.00,0.0102
2052.00,0.0102
2051.00,0.0101
2050.00,0.0101
2049.00,0.0102
2048.00,0.0103
2047.00,0.0103
2046.00,0.0103
2045.00,0.0102
2044.00,0.0102
2043.00,0.0102
2042.00,0.0102
2041.00,0.0102
2040.00,0.0102
2039.00,0.0102
2038.00,0.0102
2037.00,0.0101
2036.00,0.0101
2035.00,0.0101
2034.00,0.0102
2033.00,0.0103
2032.00,0.0104
2031.00,0.0103
2030.00,0.0103
2029.00,0.0102
2028.00,0.0102
2027.00,0.0103
2026.00,0.0103
2025.00,0.0104
2024.00,0.0104
2023.00,0.0105
2022.00,0.0105
2021.00,0.0105
2020.00,0.0105
2019.00,0.0103
2018.00,0.0102
2017.00,0.0102
2016.00,0.0102
2015.00,0.0102
2014.00,0.0102
2013.00,0.0103
2012.00,0.0103
2011.00,0.0103
2010.00,0.0103
2009.00,0.0103
2008.00,0.0103
2007.00,0.0104
2006.00,0.0104
2005.00,0.0104
2004.00,0.0104
2003.00,0.0104
2002.00,0.0104
2001.00,0.0103
2000.00,0.0102
1999.00,0.0102
1998.00,0.0103
1997.00,0.0103
1996.00,0.0103
1995.00,0.0103
1994.00,0.0102
1993.00,0.0102
1992.00,0.0102
1991.00,0.0102
1990.00,0.0102
1989.00,0.0102
1988.00,0.0102
1987.00,0.0102
1986.00,0.0102
1985.00,0.0102
1984.00,0.0101
1983.00,0.0101
1982.00,0.0100
1981.00,0.0099
1980.00,0.0099
1979.00,0.0100
1978.00,0.0102
1977.00,0.0103
1976.00,0.0104
1975.00,0.0103
1974.00,0.0103
1973.00,0.0103
1972.00,0.0103
1971.00,0.0104
1970.00,0.0104
1969.00,0.0104
1968.00,0.0104
1967.00,0.0104
1966.00,0.0103
1965.00,0.0103
1964.00,0.0103
1963.00,0.0103
1962.00,0.0104
1961.00,0.0105
1960.00,0.0106
1959.00,0.0106
1958.00,0.0106
1957.00,0.0105
1956.00,0.0105
1955.00,0.0104
1954.00,0.0104
1953.00,0.0103
1952.00,0.0103
1951.00,0.0104
1950.00,0.0104
1949.00,0.0104
1948.00,0.0104
1947.00,0.0104
1946.00,0.0104
1945.00,0.0103
1944.00,0.0103
1943.00,0.0103
1942.00,0.0103
1941.00,0.0103
1940.00,0.0103
1939.00,0.0102
1938.00,0.0103
1937.00,0.0103
1936.00,0.0103
1935.00,0.0103
1934.00,0.0103
1933.00,0.0103
1932.00,0.0103
1931.00,0.0103
1930.00,0.0103
1929.00,0.0103
1928.00,0.0103
1927.00,0.0103
1926.00,0.0103
1925.00,0.0102
1924.00,0.0103
1923.00,0.0103
1922.00,0.0103
1921.00,0.0102
1920.00,0.0102
1919.00,0.0102
1918.00,0.0102
1917.00,0.0102
1916.00,0.0102
1915.00,0.0102
1914.00,0.0102
1913.00,0.0102
1912.00,0.0102
1911.00,0.0102
1910.00,0.0102
1909.00,0.0102
1908.00,0.0102
1907.00,0.0102
1906.00,0.0102
1905.00,0.0101
1904.00,0.0101
1903.00,0.0101
1902.00,0.0101
1901.00,0.0101
1900.00,0.0101
1899.00,0.0101
1898.00,0.0101
1897.00,0.0101
1896.00,0.0101
1895.00,0.0101
1894.00,0.0101
1893.00,0.0101
1892.00,0.0101
1891.00,0.0101
1890.00,0.0101
1889.00,0.0101
1888.00,0.0101
1887.00,0.0101
1886.00,0.0100
1885.00,0.0100
1884.00,0.0100
1883.00,0.0100
1882.00,0.0100
1881.00,0.0100
1880.00,0.0101
1879.00,0.0101
1878.00,0.0101
1877.00,0.0100
1876.00,0.0100
1875.00,0.0100
1874.00,0.0099
1873.00,0.0099
1872.00,0.0099
1871.00,0.0099
1870.00,0.0099
1869.00,0.0099
1868.00,0.0099
1867.00,0.0099
1866.00,0.0098
1865.00,0.0098
1864.00,0.0098
1863.00,0.0099
1862.00,0.0099
1861.00,0.0099
1860.00,0.0099
1859.00,0.0099
1858.00,0.0099
1857.00,0.0099
1856.00,0.0098
1855.00,0.0098
1854.00,0.0098
1853.00,0.0098
1852.00,0.0098
1851.00,0.0098
1850.00,0.0098
1849.00,0.0098
1848.00,0.0098
1847.00,0.0098
1846.00,0.0098
1845.00,0.0098
1844.00,0.0097
1843.00,0.0097
1842.00,0.0097
1841.00,0.0097
1840.00,0.0097
1839.00,0.0097
1838.00,0.0097
1837.00,0.0097
1836.00,0.0096
1835.00,0.0096
1834.00,0.0096
1833.00,0.0096
1832.00,0.0097
1831.00,0.0097
1830.00,0.0097
1829.00,0.0096
1828.00,0.0096
1827.00,0.0095
1826.00,0.0095
1825.00,0.0095
1824.00,0.0096
1823.00,0.0096
1822.00,0.0095
1821.00,0.0095
1820.00,0.0095
1819.00,0.0096
1818.00,0.0096
1817.00,0.0096
1816.00,0.0096
1815.00,0.0096
1814.00,0.0095
1813.00,0.0094
1812.00,0.0094
1811.00,0.0094
1810.00,0.0094
1809.00,0.0094
1808.00,0.0094
1807.00,0.0094
1806.00,0.0094
1805.00,0.0094
1804.00,0.0094
1803.00,0.0094
1802.00,0.0094
1801.00,0.0093
1800.00,0.0092
1799.00,0.0092
1798.00,0.0091
1797.00,0.0091
1796.00,0.0092
1795.00,0.0092
1794.00,0.0091
1793.00,0.0091
1792.00,0.0091
1791.00,0.0092
1790.00,0.0091
1789.00,0.0091
1788.00,0.0091
1787.00,0.0091
1786.00,0.0091
1785.00,0.0091
1784.00,0.0091
1783.00,0.0091
1782.00,0.0090
1781.00,0.0090
1780.00,0.0090
1779.00,0.0090
1778.00,0.0090
1777.00,0.0090
1776.00,0.0090
1775.00,0.0090
1774.00,0.0090
1773.00,0.0089
1772.00,0.0089
1771.00,0.0089
1770.00,0.0089
1769.00,0.0089
1768.00,0.0089
1767.00,0.0089
1766.00,0.0089
1765.00,0.0089
1764.00,0.0090
1763.00,0.0090
1762.00,0.0091
1761.00,0.0091
1760.00,0.0090
1759.00,0.0090
1758.00,0.0090
1757.00,0.0090
1756.00,0.0090
1755.00,0.0090
1754.00,0.0090
1753.00,0.0090
1752.00,0.0090
1751.00,0.0090
1750.00,0.0090
1749.00,0.0091
1748.00,0.0092
1747.00,0.0093
1746.00,0.0095
1745.00,0.0097
1744.00,0.0099
1743.00,0.0100
1742.00,0.0101
1741.00,0.0101
1740.00,0.0101
1739.00,0.0101
1738.00,0.0101
1737.00,0.0100
1736.00,0.0099
1735.00,0.0097
1734.00,0.0096
1733.00,0.0095
1732.00,0.0094
1731.00,0.0092
1730.00,0.0092
1729.00,0.0092
1728.00,0.0091
1727.00,0.0091
1726.00,0.0090
1725.00,0.0090
1724.00,0.0089
1723.00,0.0089
1722.00,0.0089
1721.00,0.0089
1720.00,0.0090
1719.00,0.0089
1718.00,0.0089
1717.00,0.0088
1716.00,0.0088
1715.00,0.0088
1714.00,0.0088
1713.00,0.0089
1712.00,0.0090
1711.00,0.0091
1710.00,0.0092
1709.00,0.0094
1708.00,0.0096
1707.00,0.0098
1706.00,0.0102
1705.00,0.0106
1704.00,0.0112
1703.00,0.0116
1702.00,0.0120
1701.00,0.0126
1700.00,0.0134
1699.00,0.0140
1698.00,0.0143
1697.00,0.0145
1696.00,0.0149
1695.00,0.0152
1694.00,0.0154
1693.00,0.0155
1692.00,0.0156
1691.00,0.0159
1690.00,0.0162
1689.00,0.0165
1688.00,0.0168
1687.00,0.0172
1686.00,0.0175
1685.00,0.0179
1684.00,0.0184
1683.00,0.0189
1682.00,0.0192
1681.00,0.0196
1680.00,0.0199
1679.00,0.0203
1678.00,0.0207
1677.00,0.0212
1676.00,0.0216
1675.00,0.0220
1674.00,0.0224
1673.00,0.0228
1672.00,0.0231
1671.00,0.0236
1670.00,0.0241
1669.00,0.0247
1668.00,0.0252
1667.00,0.0257
1666.00,0.0261
1665.00,0.0266
1664.00,0.0270
1663.00,0.0276
1662.00,0.0281
1661.00,0.0286
1660.00,0.0290
1659.00,0.0294
1658.00,0.0299
1657.00,0.0304
1656.00,0.0309
1655.00,0.0314
1654.00,0.0318
1653.00,0.0322
1652.00,0.0323
1651.00,0.0322
1650.00,0.0322
1649.00,0.0322
1648.00,0.0322
1647.00,0.0323
1646.00,0.0324
1645.00,0.0325
1644.00,0.0326
1643.00,0.0327
1642.00,0.0327
1641.00,0.0327
1640.00,0.0328
1639.00,0.0329
1638.00,0.0330
1637.00,0.0331
1636.00,0.0332
1635.00,0.0334
1634.00,0.0335
1633.00,0.0337
1632.00,0.0339
1631.00,0.0341
1630.00,0.0343
1629.00,0.0346
1628.00,0.0349
1627.00,0.0353
1626.00,0.0357
1625.00,0.0361
1624.00,0.0365
1623.00,0.0370
1622.00,0.0374
1621.00,0.0378
1620.00,0.0381
1619.00,0.0384
1618.00,0.0385
1617.00,0.0386
1616.00,0.0385
1615.00,0.0383
1614.00,0.0380
1613.00,0.0377
1612.00,0.0372
1611.00,0.0366
1610.00,0.0359
1609.00,0.0353
1608.00,0.0346
1607.00,0.0338
1606.00,0.0331
1605.00,0.0324
1604.00,0.0317
1603.00,0.0310
1602.00,0.0303
1601.00,0.0296
1600.00,0.0290
1599.00,0.0283
1598.00,0.0278
1597.00,0.0272
1596.00,0.0267
1595.00,0.0261
1594.00,0.0257
1593.00,0.0253
1592.00,0.0248
1591.00,0.0244
1590.00,0.0240
1589.00,0.0237
1588.00,0.0234
1587.00,0.0230
1586.00,0.0228
1585.00,0.0226
1584.00,0.0223
1583.00,0.0221
1582.00,0.0220
1581.00,0.0219
1580.00,0.0218
1579.00,0.0216
1578.00,0.0216
1577.00,0.0215
1576.00,0.0213
1575.00,0.0212
1574.00,0.0212
1573.00,0.0212
1572.00,0.0213
1571.00,0.0213
1570.00,0.0213
1569.00,0.0214
1568.00,0.0215
1567.00,0.0216
1566.00,0.0217
1565.00,0.0220
1564.00,0.0223
1563.00,0.0227
1562.00,0.0231
1561.00,0.0235
1560.00,0.0237
1559.00,0.0240
1558.00,0.0246
1557.00,0.0251
1556.00,0.0254
1555.00,0.0257
1554.00,0.0262
1553.00,0.0266
1552.00,0.0270
1551.00,0.0275
1550.00,0.0279
1549.00,0.0284
1548.00,0.0288
1547.00,0.0291
1546.00,0.0295
1545.00,0.0300
1544.00,0.0305
1543.00,0.0308
1542.00,0.0310
1541.00,0.0312
1540.00,0.0314
1539.00,0.0317
1538.00,0.0320
1537.00,0.0322
1536.00,0.0324
1535.00,0.0326
1534.00,0.0329
1533.00,0.0331
1532.00,0.0334
1531.00,0.0335
1530.00,0.0336
1529.00,0.0338
1528.00,0.0341
1527.00,0.0343
1526.00,0.0345
1525.00,0.0347
1524.00,0.0348
1523.00,0.0350
1522.00,0.0352
1521.00,0.0354
1520.00,0.0356
1519.00,0.0357
1518.00,0.0358
1517.00,0.0359
1516.00,0.0359
1515.00,0.0359
1514.00,0.0359
1513.00,0.0358
1512.00,0.0357
1511.00,0.0356
1510.00,0.0355
1509.00,0.0353
1508.00,0.0349
1507.00,0.0343
1506.00,0.0337
1505.00,0.0332
1504.00,0.0328
1503.00,0.0324
1502.00,0.0321
1501.00,0.0317
1500.00,0.0312
1499.00,0.0308
1498.00,0.0303
1497.00,0.0298
1496.00,0.0293
1495.00,0.0289
1494.00,0.0285
1493.00,0.0281
1492.00,0.0277
1491.00,0.0273
1490.00,0.0268
1489.00,0.0264
1488.00,0.0260
1487.00,0.0256
1486.00,0.0252
1485.00,0.0248
1484.00,0.0245
1483.00,0.0242
1482.00,0.0239
1481.00,0.0236
1480.00,0.0234
1479.00,0.0232
1478.00,0.0230
1477.00,0.0229
1476.00,0.0228
1475.00,0.0228
1474.00,0.0227
1473.00,0.0226
1472.00,0.0228
1471.00,0.0230
1470.00,0.0232
1469.00,0.0234
1468.00,0.0235
1467.00,0.0236
1466.00,0.0236
1465.00,0.0235
1464.00,0.0234
1463.00,0.0234
1462.00,0.0234
1461.00,0.0235
1460.00,0.0237
1459.00,0.0239
1458.00,0.0242
1457.00,0.0244
1456.00,0.0245
1455.00,0.0246
1454.00,0.0246
1453.00,0.0247
1452.00,0.0247
1451.00,0.0247
1450.00,0.0248
1449.00,0.0248
1448.00,0.0247
1447.00,0.0247
1446.00,0.0246
1445.00,0.0245
1444.00,0.0243
1443.00,0.0241
1442.00,0.0240
1441.00,0.0238
1440.00,0.0237
1439.00,0.0236
1438.00,0.0235
1437.00,0.0233
1436.00,0.0230
1435.00,0.0228
1434.00,0.0227
1433.00,0.0225
1432.00,0.0223
1431.00,0.0222
1430.00,0.0221
1429.00,0.0220
1428.00,0.0219
1427.00,0.0219
1426.00,0.0219
1425.00,0.0219
1424.00,0.0218
1423.00,0.0219
1422.00,0.0221
1421.00,0.0222
1420.00,0.0223
1419.00,0.0224
1418.00,0.0225
1417.00,0.0225
1416.00,0.0225
1415.00,0.0226
1414.00,0.0227
1413.00,0.0228
1412.00,0.0229
1411.00,0.0229
1410.00,0.0230
1409.00,0.0230
1408.00,0.0230
1407.00,0.0230
1406.00,0.0230
1405.00,0.0230
1404.00,0.0230
1403.00,0.0230
1402.00,0.0230
1401.00,0.0229
1400.00,0.0229
1399.00,0.0228
1398.00,0.0229
1397.00,0.0229
1396.00,0.0229
1395.00,0.0229
1394.00,0.0230
1393.00,0.0229
1392.00,0.0229
1391.00,0.0229
1390.00,0.0229
1389.00,0.0230
1388.00,0.0230
1387.00,0.0230
1386.00,0.0230
1385.00,0.0230
1384.00,0.0229
1383.00,0.0229
1382.00,0.0229
1381.00,0.0229
1380.00,0.0229
1379.00,0.0228
1378.00,0.0228
1377.00,0.0227
1376.00,0.0227
1375.00,0.0227
1374.00,0.0226
1373.00,0.0226
1372.00,0.0226
1371.00,0.0225
1370.00,0.0225
1369.00,0.0224
1368.00,0.0224
1367.00,0.0223
1366.00,0.0223
1365.00,0.0222
1364.00,0.0221
1363.00,0.0220
1362.00,0.0219
1361.00,0.0218
1360.00,0.0216
1359.00,0.0215
1358.00,0.0214
1357.00,0.0214
1356.00,0.0213
1355.00,0.0213
1354.00,0.0213
1353.00,0.0213
1352.00,0.0212
1351.00,0.0212
1350.00,0.0212
1349.00,0.0212
1348.00,0.0212
1347.00,0.0212
1346.00,0.0212
1345.00,0.0212
1344.00,0.0212
1343.00,0.0212
1342.00,0.0212
1341.00,0.0213
1340.00,0.0213
1339.00,0.0213
1338.00,0.0213
1337.00,0.0212
1336.00,0.0212
1335.00,0.0211
1334.00,0.0211
1333.00,0.0210
1332.00,0.0210
1331.00,0.0209
1330.00,0.0209
1329.00,0.0209
1328.00,0.0209
1327.00,0.0208
1326.00,0.0208
1325.00,0.0208
1324.00,0.0208
1323.00,0.0208
1322.00,0.0208
1321.00,0.0208
1320.00,0.0208
1319.00,0.0209
1318.00,0.0209
1317.00,0.0209
1316.00,0.0209
1315.00,0.0210
1314.00,0.0210
1313.00,0.0210
1312.00,0.0210
1311.00,0.0210
1310.00,0.0210
1309.00,0.0211
1308.00,0.0211
1307.00,0.0211
1306.00,0.0211
1305.00,0.0211
1304.00,0.0211
1303.00,0.0211
1302.00,0.0211
1301.00,0.0211
1300.00,0.0211
1299.00,0.0210
1298.00,0.0210
1297.00,0.0210
1296.00,0.0210
1295.00,0.0209
1294.00,0.0209
1293.00,0.0209
1292.00,0.0208
1291.00,0.0208
1290.00,0.0208
1289.00,0.0208
1288.00,0.0207
1287.00,0.0207
1286.00,0.0207
1285.00,0.0207
1284.00,0.0206
1283.00,0.0206
1282.00,0.0206
1281.00,0.0206
1280.00,0.0205
1279.00,0.0205
1278.00,0.0205
1277.00,0.0204
1276.00,0.0204
1275.00,0.0204
1274.00,0.0204
1273.00,0.0204
1272.00,0.0204
1271.00,0.0203
1270.00,0.0204
1269.00,0.0204
1268.00,0.0204
1267.00,0.0204
1266.00,0.0204
1265.00,0.0205
1264.00,0.0205
1263.00,0.0205
1262.00,0.0206
1261.00,0.0206
1260.00,0.0207
1259.00,0.0208
1258.00,0.0209
1257.00,0.0210
1256.00,0.0211
1255.00,0.0212
1254.00,0.0213
1253.00,0.0214
1252.00,0.0215
1251.00,0.0216
1250.00,0.0217
1249.00,0.0218
1248.00,0.0219
1247.00,0.0220
1246.00,0.0221
1245.00,0.0222
1244.00,0.0222
1243.00,0.0223
1242.00,0.0223
1241.00,0.0224
1240.00,0.0224
1239.00,0.0224
1238.00,0.0225
1237.00,0.0225
1236.00,0.0225
1235.00,0.0225
1234.00,0.0225
1233.00,0.0225
1232.00,0.0225
1231.00,0.0225
1230.00,0.0225
1229.00,0.0224
1228.00,0.0224
1227.00,0.0223
1226.00,0.0223
1225.00,0.0222
1224.00,0.0222
1223.00,0.0221
1222.00,0.0221
1221.00,0.0220
1220.00,0.0219
1219.00,0.0218
1218.00,0.0217
1217.00,0.0216
1216.00,0.0215
1215.00,0.0214
1214.00,0.0214
1213.00,0.0213
1212.00,0.0212
1211.00,0.0211
1210.00,0.0210
1209.00,0.0208
1208.00,0.0207
1207.00,0.0206
1206.00,0.0205
1205.00,0.0204
1204.00,0.0203
1203.00,0.0201
1202.00,0.0200
1201.00,0.0199
1200.00,0.0198
1199.00,0.0196
1198.00,0.0195
1197.00,0.0194
1196.00,0.0193
1195.00,0.0192
1194.00,0.0192
1193.00,0.0191
1192.00,0.0190
1191.00,0.0189
1190.00,0.0189
1189.00,0.0189
1188.00,0.0188
1187.00,0.0188
1186.00,0.0187
1185.00,0.0187
1184.00,0.0186
1183.00,0.0185
1182.00,0.0185
1181.00,0.0186
1180.00,0.0186
1179.00,0.0186
1178.00,0.0187
1177.00,0.0188
1176.00,0.0189
1175.00,0.0190
1174.00,0.0191
1173.00,0.0193
1172.00,0.0194
1171.00,0.0195
1170.00,0.0196
1169.00,0.0197
1168.00,0.0198
1167.00,0.0199
1166.00,0.0200
1165.00,0.0200
1164.00,0.0200
1163.00,0.0200
1162.00,0.0200
1161.00,0.0200
1160.00,0.0200
1159.00,0.0199
1158.00,0.0198
1157.00,0.0197
1156.00,0.0196
1155.00,0.0195
1154.00,0.0194
1153.00,0.0193
1152.00,0.0192
1151.00,0.0190
1150.00,0.0190
1149.00,0.0189
1148.00,0.0187
1147.00,0.0186
1146.00,0.0185
1145.00,0.0185
1144.00,0.0184
1143.00,0.0183
1142.00,0.0183
1141.00,0.0182
1140.00,0.0182
1139.00,0.0181
1138.00,0.0181
1137.00,0.0181
1136.00,0.0180
1135.00,0.0180
1134.00,0.0180
1133.00,0.0180
1132.00,0.0180
1131.00,0.0180
1130.00,0.0180
1129.00,0.0180
1128.00,0.0179
1127.00,0.0179
1126.00,0.0179
1125.00,0.0179
1124.00,0.0179
1123.00,0.0179
1122.00,0.0179
1121.00,0.0179
1120.00,0.0179
1119.00,0.0179
1118.00,0.0179
1117.00,0.0179
1116.00,0.0179
1115.00,0.0179
1114.00,0.0179
1113.00,0.0179
1112.00,0.0179
1111.00,0.0179
1110.00,0.0179
1109.00,0.0179
1108.00,0.0179
1107.00,0.0179
1106.00,0.0179
1105.00,0.0179
1104.00,0.0179
1103.00,0.0179
1102.00,0.0179
1101.00,0.0179
1100.00,0.0179
1099.00,0.0179
1098.00,0.0179
1097.00,0.0180
1096.00,0.0180
1095.00,0.0181
1094.00,0.0182
1093.00,0.0182
1092.00,0.0183
1091.00,0.0184
1090.00,0.0185
1089.00,0.0186
1088.00,0.0188
1087.00,0.0189
1086.00,0.0191
1085.00,0.0193
1084.00,0.0195
1083.00,0.0196
1082.00,0.0199
1081.00,0.0201
1080.00,0.0202
1079.00,0.0204
1078.00,0.0206
1077.00,0.0207
1076.00,0.0209
1075.00,0.0210
1074.00,0.0212
1073.00,0.0214
1072.00,0.0215
1071.00,0.0216
1070.00,0.0217
1069.00,0.0218
1068.00,0.0219
1067.00,0.0220
1066.00,0.0221
1065.00,0.0221
1064.00,0.0221
1063.00,0.0221
1062.00,0.0222
1061.00,0.0221
1060.00,0.0221
1059.00,0.0220
1058.00,0.0220
1057.00,0.0220
1056.00,0.0219
1055.00,0.0218
1054.00,0.0218
1053.00,0.0217
1052.00,0.0217
1051.00,0.0216
1050.00,0.0216
1049.00,0.0215
1048.00,0.0215
1047.00,0.0215
1046.00,0.0214
1045.00,0.0214
1044.00,0.0213
1043.00,0.0212
1042.00,0.0211
1041.00,0.0210
1040.00,0.0208
1039.00,0.0207
1038.00,0.0206
1037.00,0.0205
1036.00,0.0204
1035.00,0.0203
1034.00,0.0202
1033.00,0.0201
1032.00,0.0200
1031.00,0.0199
1030.00,0.0198
1029.00,0.0196
1028.00,0.0195
1027.00,0.0193
1026.00,0.0192
1025.00,0.0190
1024.00,0.0189
1023.00,0.0187
1022.00,0.0186
1021.00,0.0185
1020.00,0.0183
1019.00,0.0182
1018.00,0.0181
1017.00,0.0180
1016.00,0.0178
1015.00,0.0177
1014.00,0.0176
1013.00,0.0175
1012.00,0.0174
1011.00,0.0173
1010.00,0.0173
1009.00,0.0172
1008.00,0.0171
1007.00,0.0170
1006.00,0.0170
1005.00,0.0169
1004.00,0.0168
1003.00,0.0168
1002.00,0.0167
1001.00,0.0167
1000.00,0.0166
999.00,0.0165
998.00,0.0165
997.00,0.0164
996.00,0.0164
995.00,0.0163
994.00,0.0163
993.00,0.0163
992.00,0.0163
991.00,0.0163
990.00,0.0162
989.00,0.0162
988.00,0.0161
987.00,0.0161
986.00,0.0160
985.00,0.0160
984.00,0.0160
983.00,0.0160
982.00,0.0160
981.00,0.0160
980.00,0.0160
979.00,0.0159
978.00,0.0159
977.00,0.0159
976.00,0.0159
975.00,0.0159
974.00,0.0159
973.00,0.0159
972.00,0.0159
971.00,0.0159
970.00,0.0160
969.00,0.0160
968.00,0.0160
967.00,0.0160
966.00,0.0161
965.00,0.0161
964.00,0.0161
963.00,0.0162
962.00,0.0162
961.00,0.0162
960.00,0.0161
959.00,0.0161
958.00,0.0161
957.00,0.0160
956.00,0.0159
955.00,0.0159
954.00,0.0158
953.00,0.0158
952.00,0.0158
951.00,0.0157
950.00,0.0157
949.00,0.0156
948.00,0.0156
947.00,0.0156
946.00,0.0156
945.00,0.0156
944.00,0.0155
943.00,0.0155
942.00,0.0155
941.00,0.0155
940.00,0.0155
939.00,0.0155
938.00,0.0155
937.00,0.0155
936.00,0.0155
935.00,0.0155
934.00,0.0156
933.00,0.0156
932.00,0.0156
931.00,0.0156
930.00,0.0156
929.00,0.0156
928.00,0.0155
927.00,0.0155
926.00,0.0155
925.00,0.0155
924.00,0.0154
923.00,0.0154
922.00,0.0154
921.00,0.0153
920.00,0.0153
919.00,0.0152
918.00,0.0152
917.00,0.0152
916.00,0.0151
915.00,0.0151
914.00,0.0151
913.00,0.0150
912.00,0.0150
911.00,0.0150
910.00,0.0150
909.00,0.0150
908.00,0.0150
907.00,0.0150
906.00,0.0151
905.00,0.0151
904.00,0.0151
903.00,0.0151
902.00,0.0151
901.00,0.0151
900.00,0.0151
899.00,0.0151
898.00,0.0151
897.00,0.0151
896.00,0.0151
895.00,0.0150
894.00,0.0151
893.00,0.0151
892.00,0.0150
891.00,0.0150
890.00,0.0150
889.00,0.0149
888.00,0.0149
887.00,0.0148
886.00,0.0148
885.00,0.0147
884.00,0.0147
883.00,0.0147
882.00,0.0147
881.00,0.0148
880.00,0.0148
879.00,0.0148
878.00,0.0148
877.00,0.0148
876.00,0.0147
875.00,0.0147
874.00,0.0147
873.00,0.0147
872.00,0.0147
871.00,0.0146
870.00,0.0146
869.00,0.0146
868.00,0.0146
867.00,0.0146
866.00,0.0145
865.00,0.0145
864.00,0.0145
863.00,0.0144
862.00,0.0144
861.00,0.0144
860.00,0.0143
859.00,0.0143
858.00,0.0143
857.00,0.0144
856.00,0.0144
855.00,0.0144
854.00,0.0144
853.00,0.0144
852.00,0.0144
851.00,0.0143
850.00,0.0144
849.00,0.0143
848.00,0.0143
847.00,0.0143
846.00,0.0143
845.00,0.0143
844.00,0.0143
843.00,0.0143
842.00,0.0143
841.00,0.0144
840.00,0.0144
839.00,0.0144
838.00,0.0145
837.00,0.0145
836.00,0.0145
835.00,0.0145
834.00,0.0146
833.00,0.0147
832.00,0.0147
831.00,0.0147
830.00,0.0148
829.00,0.0148
828.00,0.0149
827.00,0.0149
826.00,0.0149
825.00,0.0150
824.00,0.0150
823.00,0.0150
822.00,0.0151
821.00,0.0151
820.00,0.0151
819.00,0.0151
818.00,0.0152
817.00,0.0152
816.00,0.0152
815.00,0.0152
814.00,0.0153
813.00,0.0154
812.00,0.0154
811.00,0.0154
810.00,0.0155
809.00,0.0156
808.00,0.0156
807.00,0.0156
806.00,0.0157
805.00,0.0157
804.00,0.0157
803.00,0.0157
802.00,0.0158
801.00,0.0158
800.00,0.0158
799.00,0.0158
798.00,0.0158
797.00,0.0159
796.00,0.0159
795.00,0.0159
794.00,0.0160
793.00,0.0161
792.00,0.0161
791.00,0.0162
790.00,0.0163
789.00,0.0164
788.00,0.0164
787.00,0.0165
786.00,0.0166
785.00,0.0167
784.00,0.0167
783.00,0.0168
782.00,0.0169
781.00,0.0170
780.00,0.0171
779.00,0.0172
778.00,0.0173
777.00,0.0174
776.00,0.0175
775.00,0.0175
774.00,0.0176
773.00,0.0177
772.00,0.0178
771.00,0.0178
770.00,0.0179
769.00,0.0180
768.00,0.0180
767.00,0.0181
766.00,0.0182
765.00,0.0183
764.00,0.0183
763.00,0.0184
762.00,0.0184
761.00,0.0185
760.00,0.0185
759.00,0.0185
758.00,0.0186
757.00,0.0187
756.00,0.0188
755.00,0.0189
754.00,0.0190
753.00,0.0191
752.00,0.0191
751.00,0.0192
750.00,0.0193
749.00,0.0194
748.00,0.0194
747.00,0.0194
746.00,0.0194
745.00,0.0195
744.00,0.0194
743.00,0.0194
742.00,0.0194
741.00,0.0194
740.00,0.0194
739.00,0.0194
738.00,0.0195
737.00,0.0195
736.00,0.0195
735.00,0.0196
734.00,0.0197
733.00,0.0198
732.00,0.0198
731.00,0.0199
730.00,0.0200
729.00,0.0201
728.00,0.0202
727.00,0.0204
726.00,0.0206
725.00,0.0208
724.00,0.0210
723.00,0.0212
722.00,0.0214
721.00,0.0216
720.00,0.0218
719.00,0.0220
718.00,0.0222
717.00,0.0224
716.00,0.0226
715.00,0.0227
714.00,0.0230
713.00,0.0232
712.00,0.0233
711.00,0.0235
710.00,0.0237
709.00,0.0240
708.00,0.0243
707.00,0.0245
706.00,0.0248
705.00,0.0251
704.00,0.0252
703.00,0.0254
702.00,0.0257
701.00,0.0259
700.00,0.0261
699.00,0.0262
698.00,0.0263
697.00,0.0263
696.00,0.0263
695.00,0.0263
694.00,0.0263
693.00,0.0264
692.00,0.0263
691.00,0.0263
690.00,0.0263
689.00,0.0263
688.00,0.0263
687.00,0.0263
686.00,0.0264
685.00,0.0264
684.00,0.0265
683.00,0.0265
682.00,0.0266
681.00,0.0267
680.00,0.0267
679.00,0.0268
678.00,0.0268
677.00,0.0269
676.00,0.0269
675.00,0.0269
674.00,0.0270
673.00,0.0270
672.00,0.0270
671.00,0.0270
670.00,0.0269
669.00,0.0268
668.00,0.0268
667.00,0.0269
666.00,0.0272
665.00,0.0274
664.00,0.0275
663.00,0.0275
662.00,0.0276
661.00,0.0277
660.00,0.0277
659.00,0.0277
658.00,0.0278
657.00,0.0279
656.00,0.0279
655.00,0.0279
654.00,0.0279
653.00,0.0280
652.00,0.0280
651.00,0.0281
650.00,0.0281
649.00,0.0282
648.00,0.0282
647.00,0.0283
646.00,0.0285
645.00,0.0286
644.00,0.0287
643.00,0.0288
642.00,0.0289
641.00,0.0290
640.00,0.0290
639.00,0.0290
638.00,0.0292
637.00,0.0293
636.00,0.0294
635.00,0.0295
634.00,0.0296
633.00,0.0297
632.00,0.0297
631.00,0.0298
630.00,0.0298
629.00,0.0299
628.00,0.0299
627.00,0.0299
626.00,0.0300
625.00,0.0300
624.00,0.0301
623.00,0.0301
622.00,0.0302
621.00,0.0302
620.00,0.0301
619.00,0.0301
618.00,0.0301
617.00,0.0301
616.00,0.0301
615.00,0.0300
614.00,0.0301
613.00,0.0301
612.00,0.0300
611.00,0.0300
610.00,0.0300
609.00,0.0300
608.00,0.0300
607.00,0.0299
606.00,0.0299
605.00,0.0299
604.00,0.0299
603.00,0.0299
602.00,0.0299
601.00,0.0299
600.00,0.0299
599.00,0.0298
598.00,0.0299
597.00,0.0300
596.00,0.0300
595.00,0.0300
594.00,0.0300
593.00,0.0301
592.00,0.0300
591.00,0.0300
590.00,0.0301
589.00,0.0302
588.00,0.0302
587.00,0.0301
586.00,0.0302
585.00,0.0302
584.00,0.0302
583.00,0.0302
582.00,0.0302
581.00,0.0303
580.00,0.0302
579.00,0.0303
578.00,0.0304
577.00,0.0305
576.00,0.0304
575.00,0.0304
574.00,0.0304
573.00,0.0305
572.00,0.0305
571.00,0.0305
570.00,0.0306
569.00,0.0307
568.00,0.0307
567.00,0.0307
566.00,0.0308
565.00,0.0309
564.00,0.0308
563.00,0.0308
562.00,0.0308
561.00,0.0309
560.00,0.0308
559.00,0.0308
558.00,0.0309
557.00,0.0310
556.00,0.0310
555.00,0.0310
554.00,0.0310
553.00,0.0311
552.00,0.0309
551.00,0.0309
550.00,0.0310
549.00,0.0311
548.00,0.0311
547.00,0.0311
546.00,0.0313
545.00,0.0313
544.00,0.0312
543.00,0.0311
542.00,0.0312
541.00,0.0313
540.00,0.0313
539.00,0.0313
538.00,0.0314
537.00,0.0314
536.00,0.0313
535.00,0.0313
534.00,0.0315
533.00,0.0316
532.00,0.0317
531.00,0.0317
530.00,0.0318
529.00,0.0319
528.00,0.0317
527.00,0.0315
526.00,0.0316
525.00,0.0318
524.00,0.0319
523.00,0.0320
522.00,0.0322
521.00,0.0323
520.00,0.0322
519.00,0.0321
518.00,0.0322
517.00,0.0322
516.00,0.0320
515.00,0.0319
514.00,0.0319
513.00,0.0319
512.00,0.0317
511.00,0.0315
510.00,0.0315
509.00,0.0314
508.00,0.0312
507.00,0.0310
506.00,0.0310
505.00,0.0310
504.00,0.0309
503.00,0.0308
502.00,0.0308
501.00,0.0308
500.00,0.0307
499.00,0.0306
498.00,0.0307
497.00,0.0307
496.00,0.0306
495.00,0.0305
494.00,0.0306
493.00,0.0306
492.00,0.0305
491.00,0.0304
490.00,0.0305
489.00,0.0305
488.00,0.0304
487.00,0.0304
486.00,0.0306
485.00,0.0307
484.00,0.0306
483.00,0.0304
482.00,0.0305
481.00,0.0305
480.00,0.0302
479.00,0.0301
478.00,0.0302
477.00,0.0304
476.00,0.0302
475.00,0.0300
474.00,0.0301
473.00,0.0301
472.00,0.0300
471.00,0.0300
470.00,0.0303
469.00,0.0305
468.00,0.0304
467.00,0.0303
466.00,0.0304
465.00,0.0305
464.00,0.0303
463.00,0.0302
462.00,0.0302
461.00,0.0302
460.00,0.0299
459.00,0.0297
458.00,0.0300
457.00,0.0301
456.00,0.0300
455.00,0.0299
454.00,0.0300
453.00,0.0300
452.00,0.0296
451.00,0.0293
450.00,0.0295
449.00,0.0297
448.00,0.0297
447.00,0.0297
446.00,0.0297
445.00,0.0296
444.00,0.0291
443.00,0.0287
442.00,0.0287
441.00,0.0286
440.00,0.0282
439.00,0.0279
438.00,0.0281
437.00,0.0282
436.00,0.0281
435.00,0.0279
434.00,0.0279
433.00,0.0278
432.00,0.0274
431.00,0.0271
430.00,0.0273
429.00,0.0273
428.00,0.0269
427.00,0.0267
426.00,0.0270
425.00,0.0274
424.00,0.0271
423.00,0.0267
422.00,0.0266
421.00,0.0263
420.00,0.0253
419.00,0.0244
418.00,0.0247
417.00,0.0253
416.00,0.0255
415.00,0.0256
414.00,0.0262
413.00,0.0266
412.00,0.0264
411.00,0.0262
410.00,0.0266
409.00,0.0267
408.00,0.0259
407.00,0.0252
406.00,0.0254
405.00,0.0257
404.00,0.0252
403.00,0.0247
402.00,0.0249
401.00,0.0251
400.00,0.0244
