Created as New Dataset,Sample 357 By YargerLab Date Wednesday, September 25 2024
cm-1,A
4000.00,0.0040
3999.00,0.0040
3998.00,0.0040
3997.00,0.0040
3996.00,0.0041
3995.00,0.0040
3994.00,0.0040
3993.00,0.0040
3992.00,0.0040
3991.00,0.0040
3990.00,0.0040
3989.00,0.0040
3988.00,0.0040
3987.00,0.0040
3986.00,0.0040
3985.00,0.0040
3984.00,0.0040
3983.00,0.0041
3982.00,0.0041
3981.00,0.0040
3980.00,0.0040
3979.00,0.0039
3978.00,0.0039
3977.00,0.0039
3976.00,0.0039
3975.00,0.0040
3974.00,0.0040
3973.00,0.0040
3972.00,0.0040
3971.00,0.0039
3970.00,0.0039
3969.00,0.0039
3968.00,0.0039
3967.00,0.0039
3966.00,0.0039
3965.00,0.0039
3964.00,0.0038
3963.00,0.0038
3962.00,0.0038
3961.00,0.0038
3960.00,0.0039
3959.00,0.0039
3958.00,0.0039
3957.00,0.0039
3956.00,0.0039
3955.00,0.0039
3954.00,0.0039
3953.00,0.0039
3952.00,0.0039
3951.00,0.0038
3950.00,0.0036
3949.00,0.0034
3948.00,0.0032
3947.00,0.0031
3946.00,0.0032
3945.00,0.0033
3944.00,0.0035
3943.00,0.0037
3942.00,0.0038
3941.00,0.0037
3940.00,0.0036
3939.00,0.0036
3938.00,0.0036
3937.00,0.0036
3936.00,0.0035
3935.00,0.0032
3934.00,0.0030
3933.00,0.0030
3932.00,0.0031
3931.00,0.0032
3930.00,0.0033
3929.00,0.0034
3928.00,0.0035
3927.00,0.0036
3926.00,0.0038
3925.00,0.0039
3924.00,0.0039
3923.00,0.0036
3922.00,0.0032
3921.00,0.0028
3920.00,0.0026
3919.00,0.0025
3918.00,0.0025
3917.00,0.0026
3916.00,0.0029
3915.00,0.0031
3914.00,0.0034
3913.00,0.0035
3912.00,0.0036
3911.00,0.0038
3910.00,0.0038
3909.00,0.0038
3908.00,0.0038
3907.00,0.0037
3906.00,0.0034
3905.00,0.0029
3904.00,0.0021
3903.00,0.0014
3902.00,0.0009
3901.00,0.0009
3900.00,0.0013
3899.00,0.0019
3898.00,0.0023
3897.00,0.0025
3896.00,0.0026
3895.00,0.0027
3894.00,0.0029
3893.00,0.0032
3892.00,0.0033
3891.00,0.0032
3890.00,0.0030
3889.00,0.0026
3888.00,0.0021
3887.00,0.0017
3886.00,0.0018
3885.00,0.0021
3884.00,0.0023
3883.00,0.0022
3882.00,0.0021
3881.00,0.0022
3880.00,0.0024
3879.00,0.0024
3878.00,0.0023
3877.00,0.0022
3876.00,0.0022
3875.00,0.0024
3874.00,0.0028
3873.00,0.0027
3872.00,0.0022
3871.00,0.0016
3870.00,0.0014
3869.00,0.0016
3868.00,0.0016
3867.00,0.0014
3866.00,0.0012
3865.00,0.0014
3864.00,0.0018
3863.00,0.0019
3862.00,0.0016
3861.00,0.0014
3860.00,0.0015
3859.00,0.0020
3858.00,0.0027
3857.00,0.0035
3856.00,0.0038
3855.00,0.0037
3854.00,0.0033
3853.00,0.0027
3852.00,0.0021
3851.00,0.0018
3850.00,0.0016
3849.00,0.0015
3848.00,0.0016
3847.00,0.0017
3846.00,0.0019
3845.00,0.0020
3844.00,0.0020
3843.00,0.0019
3842.00,0.0018
3841.00,0.0017
3840.00,0.0016
3839.00,0.0016
3838.00,0.0016
3837.00,0.0016
3836.00,0.0017
3835.00,0.0018
3834.00,0.0017
3833.00,0.0017
3832.00,0.0017
3831.00,0.0018
3830.00,0.0019
3829.00,0.0020
3828.00,0.0020
3827.00,0.0022
3826.00,0.0023
3825.00,0.0022
3824.00,0.0018
3823.00,0.0013
3822.00,0.0013
3821.00,0.0016
3820.00,0.0018
3819.00,0.0016
3818.00,0.0013
3817.00,0.0011
3816.00,0.0015
3815.00,0.0021
3814.00,0.0025
3813.00,0.0026
3812.00,0.0026
3811.00,0.0028
3810.00,0.0029
3809.00,0.0028
3808.00,0.0025
3807.00,0.0023
3806.00,0.0022
3805.00,0.0020
3804.00,0.0016
3803.00,0.0013
3802.00,0.0015
3801.00,0.0019
3800.00,0.0021
3799.00,0.0019
3798.00,0.0017
3797.00,0.0017
3796.00,0.0020
3795.00,0.0024
3794.00,0.0027
3793.00,0.0029
3792.00,0.0032
3791.00,0.0034
3790.00,0.0036
3789.00,0.0036
3788.00,0.0036
3787.00,0.0036
3786.00,0.0036
3785.00,0.0035
3784.00,0.0034
3783.00,0.0032
3782.00,0.0030
3781.00,0.0029
3780.00,0.0029
3779.00,0.0030
3778.00,0.0031
3777.00,0.0031
3776.00,0.0030
3775.00,0.0030
3774.00,0.0031
3773.00,0.0031
3772.00,0.0029
3771.00,0.0026
3770.00,0.0024
3769.00,0.0023
3768.00,0.0021
3767.00,0.0020
3766.00,0.0019
3765.00,0.0020
3764.00,0.0022
3763.00,0.0021
3762.00,0.0019
3761.00,0.0018
3760.00,0.0019
3759.00,0.0019
3758.00,0.0017
3757.00,0.0015
3756.00,0.0013
3755.00,0.0011
3754.00,0.0007
3753.00,0.0003
3752.00,-0.0000
3751.00,-0.0005
3750.00,-0.0011
3749.00,-0.0012
3748.00,-0.0010
3747.00,-0.0009
3746.00,-0.0010
3745.00,-0.0010
3744.00,-0.0006
3743.00,-0.0003
3742.00,-0.0003
3741.00,-0.0007
3740.00,-0.0011
3739.00,-0.0015
3738.00,-0.0018
3737.00,-0.0019
3736.00,-0.0016
3735.00,-0.0012
3734.00,-0.0010
3733.00,-0.0010
3732.00,-0.0007
3731.00,-0.0001
3730.00,0.0004
3729.00,0.0006
3728.00,0.0005
3727.00,0.0006
3726.00,0.0009
3725.00,0.0011
3724.00,0.0012
3723.00,0.0013
3722.00,0.0015
3721.00,0.0017
3720.00,0.0018
3719.00,0.0019
3718.00,0.0020
3717.00,0.0021
3716.00,0.0020
3715.00,0.0018
3714.00,0.0015
3713.00,0.0014
3712.00,0.0014
3711.00,0.0013
3710.00,0.0012
3709.00,0.0012
3708.00,0.0013
3707.00,0.0016
3706.00,0.0019
3705.00,0.0022
3704.00,0.0024
3703.00,0.0027
3702.00,0.0029
3701.00,0.0030
3700.00,0.0030
3699.00,0.0029
3698.00,0.0028
3697.00,0.0028
3696.00,0.0029
3695.00,0.0029
3694.00,0.0027
3693.00,0.0026
3692.00,0.0027
3691.00,0.0028
3690.00,0.0025
3689.00,0.0020
3688.00,0.0017
3687.00,0.0017
3686.00,0.0020
3685.00,0.0022
3684.00,0.0023
3683.00,0.0024
3682.00,0.0025
3681.00,0.0027
3680.00,0.0028
3679.00,0.0028
3678.00,0.0025
3677.00,0.0020
3676.00,0.0018
3675.00,0.0019
3674.00,0.0020
3673.00,0.0017
3672.00,0.0014
3671.00,0.0016
3670.00,0.0022
3669.00,0.0029
3668.00,0.0032
3667.00,0.0033
3666.00,0.0035
3665.00,0.0038
3664.00,0.0042
3663.00,0.0045
3662.00,0.0047
3661.00,0.0048
3660.00,0.0048
3659.00,0.0046
3658.00,0.0044
3657.00,0.0041
3656.00,0.0039
3655.00,0.0037
3654.00,0.0034
3653.00,0.0027
3652.00,0.0021
3651.00,0.0017
3650.00,0.0015
3649.00,0.0012
3648.00,0.0011
3647.00,0.0013
3646.00,0.0018
3645.00,0.0023
3644.00,0.0028
3643.00,0.0032
3642.00,0.0037
3641.00,0.0041
3640.00,0.0043
3639.00,0.0044
3638.00,0.0044
3637.00,0.0043
3636.00,0.0040
3635.00,0.0037
3634.00,0.0035
3633.00,0.0032
3632.00,0.0028
3631.00,0.0022
3630.00,0.0017
3629.00,0.0016
3628.00,0.0016
3627.00,0.0016
3626.00,0.0016
3625.00,0.0017
3624.00,0.0019
3623.00,0.0022
3622.00,0.0024
3621.00,0.0026
3620.00,0.0028
3619.00,0.0028
3618.00,0.0024
3617.00,0.0020
3616.00,0.0016
3615.00,0.0014
3614.00,0.0014
3613.00,0.0014
3612.00,0.0013
3611.00,0.0011
3610.00,0.0010
3609.00,0.0012
3608.00,0.0017
3607.00,0.0023
3606.00,0.0026
3605.00,0.0028
3604.00,0.0030
3603.00,0.0032
3602.00,0.0034
3601.00,0.0035
3600.00,0.0035
3599.00,0.0034
3598.00,0.0033
3597.00,0.0033
3596.00,0.0033
3595.00,0.0034
3594.00,0.0034
3593.00,0.0033
3592.00,0.0031
3591.00,0.0028
3590.00,0.0025
3589.00,0.0025
3588.00,0.0028
3587.00,0.0031
3586.00,0.0032
3585.00,0.0033
3584.00,0.0034
3583.00,0.0037
3582.00,0.0040
3581.00,0.0044
3580.00,0.0047
3579.00,0.0049
3578.00,0.0050
3577.00,0.0050
3576.00,0.0050
3575.00,0.0050
3574.00,0.0050
3573.00,0.0049
3572.00,0.0047
3571.00,0.0044
3570.00,0.0039
3569.00,0.0036
3568.00,0.0035
3567.00,0.0036
3566.00,0.0037
3565.00,0.0039
3564.00,0.0040
3563.00,0.0042
3562.00,0.0045
3561.00,0.0049
3560.00,0.0052
3559.00,0.0054
3558.00,0.0055
3557.00,0.0056
3556.00,0.0056
3555.00,0.0057
3554.00,0.0057
3553.00,0.0058
3552.00,0.0057
3551.00,0.0056
3550.00,0.0053
3549.00,0.0051
3548.00,0.0049
3547.00,0.0049
3546.00,0.0050
3545.00,0.0052
3544.00,0.0055
3543.00,0.0057
3542.00,0.0059
3541.00,0.0061
3540.00,0.0062
3539.00,0.0064
3538.00,0.0065
3537.00,0.0066
3536.00,0.0067
3535.00,0.0067
3534.00,0.0067
3533.00,0.0067
3532.00,0.0067
3531.00,0.0067
3530.00,0.0067
3529.00,0.0067
3528.00,0.0065
3527.00,0.0063
3526.00,0.0062
3525.00,0.0062
3524.00,0.0063
3523.00,0.0066
3522.00,0.0068
3521.00,0.0070
3520.00,0.0071
3519.00,0.0072
3518.00,0.0074
3517.00,0.0075
3516.00,0.0075
3515.00,0.0076
3514.00,0.0076
3513.00,0.0076
3512.00,0.0076
3511.00,0.0077
3510.00,0.0077
3509.00,0.0077
3508.00,0.0077
3507.00,0.0076
3506.00,0.0075
3505.00,0.0075
3504.00,0.0076
3503.00,0.0077
3502.00,0.0077
3501.00,0.0077
3500.00,0.0078
3499.00,0.0079
3498.00,0.0081
3497.00,0.0082
3496.00,0.0083
3495.00,0.0084
3494.00,0.0085
3493.00,0.0086
3492.00,0.0086
3491.00,0.0087
3490.00,0.0087
3489.00,0.0088
3488.00,0.0088
3487.00,0.0088
3486.00,0.0089
3485.00,0.0089
3484.00,0.0090
3483.00,0.0091
3482.00,0.0091
3481.00,0.0092
3480.00,0.0092
3479.00,0.0092
3478.00,0.0093
3477.00,0.0095
3476.00,0.0096
3475.00,0.0097
3474.00,0.0098
3473.00,0.0098
3472.00,0.0099
3471.00,0.0099
3470.00,0.0099
3469.00,0.0100
3468.00,0.0100
3467.00,0.0101
3466.00,0.0102
3465.00,0.0103
3464.00,0.0104
3463.00,0.0104
3462.00,0.0105
3461.00,0.0106
3460.00,0.0106
3459.00,0.0107
3458.00,0.0108
3457.00,0.0109
3456.00,0.0110
3455.00,0.0111
3454.00,0.0111
3453.00,0.0112
3452.00,0.0112
3451.00,0.0112
3450.00,0.0112
3449.00,0.0113
3448.00,0.0113
3447.00,0.0114
3446.00,0.0114
3445.00,0.0114
3444.00,0.0114
3443.00,0.0115
3442.00,0.0116
3441.00,0.0117
3440.00,0.0118
3439.00,0.0118
3438.00,0.0118
3437.00,0.0119
3436.00,0.0120
3435.00,0.0120
3434.00,0.0121
3433.00,0.0122
3432.00,0.0123
3431.00,0.0123
3430.00,0.0124
3429.00,0.0125
3428.00,0.0125
3427.00,0.0126
3426.00,0.0127
3425.00,0.0127
3424.00,0.0128
3423.00,0.0128
3422.00,0.0129
3421.00,0.0130
3420.00,0.0130
3419.00,0.0131
3418.00,0.0131
3417.00,0.0132
3416.00,0.0132
3415.00,0.0133
3414.00,0.0133
3413.00,0.0134
3412.00,0.0135
3411.00,0.0135
3410.00,0.0136
3409.00,0.0137
3408.00,0.0138
3407.00,0.0138
3406.00,0.0139
3405.00,0.0139
3404.00,0.0140
3403.00,0.0140
3402.00,0.0141
3401.00,0.0141
3400.00,0.0142
3399.00,0.0142
3398.00,0.0143
3397.00,0.0143
3396.00,0.0143
3395.00,0.0143
3394.00,0.0144
3393.00,0.0145
3392.00,0.0146
3391.00,0.0147
3390.00,0.0148
3389.00,0.0149
3388.00,0.0150
3387.00,0.0151
3386.00,0.0152
3385.00,0.0153
3384.00,0.0153
3383.00,0.0154
3382.00,0.0154
3381.00,0.0155
3380.00,0.0156
3379.00,0.0156
3378.00,0.0157
3377.00,0.0158
3376.00,0.0159
3375.00,0.0160
3374.00,0.0161
3373.00,0.0162
3372.00,0.0162
3371.00,0.0163
3370.00,0.0163
3369.00,0.0164
3368.00,0.0165
3367.00,0.0166
3366.00,0.0167
3365.00,0.0169
3364.00,0.0170
3363.00,0.0171
3362.00,0.0172
3361.00,0.0173
3360.00,0.0175
3359.00,0.0176
3358.00,0.0178
3357.00,0.0179
3356.00,0.0180
3355.00,0.0181
3354.00,0.0182
3353.00,0.0183
3352.00,0.0184
3351.00,0.0185
3350.00,0.0186
3349.00,0.0188
3348.00,0.0190
3347.00,0.0191
3346.00,0.0192
3345.00,0.0193
3344.00,0.0194
3343.00,0.0195
3342.00,0.0197
3341.00,0.0198
3340.00,0.0199
3339.00,0.0200
3338.00,0.0202
3337.00,0.0204
3336.00,0.0206
3335.00,0.0208
3334.00,0.0210
3333.00,0.0212
3332.00,0.0213
3331.00,0.0215
3330.00,0.0217
3329.00,0.0218
3328.00,0.0219
3327.00,0.0220
3326.00,0.0221
3325.00,0.0223
3324.00,0.0226
3323.00,0.0228
3322.00,0.0230
3321.00,0.0232
3320.00,0.0235
3319.00,0.0237
3318.00,0.0238
3317.00,0.0240
3316.00,0.0242
3315.00,0.0244
3314.00,0.0245
3313.00,0.0247
3312.00,0.0248
3311.00,0.0249
3310.00,0.0251
3309.00,0.0252
3308.00,0.0255
3307.00,0.0257
3306.00,0.0260
3305.00,0.0262
3304.00,0.0265
3303.00,0.0268
3302.00,0.0271
3301.00,0.0273
3300.00,0.0275
3299.00,0.0277
3298.00,0.0279
3297.00,0.0280
3296.00,0.0282
3295.00,0.0284
3294.00,0.0286
3293.00,0.0288
3292.00,0.0291
3291.00,0.0293
3290.00,0.0296
3289.00,0.0299
3288.00,0.0301
3287.00,0.0303
3286.00,0.0305
3285.00,0.0307
3284.00,0.0308
3283.00,0.0310
3282.00,0.0311
3281.00,0.0312
3280.00,0.0312
3279.00,0.0313
3278.00,0.0313
3277.00,0.0313
3276.00,0.0313
3275.00,0.0313
3274.00,0.0312
3273.00,0.0312
3272.00,0.0312
3271.00,0.0312
3270.00,0.0312
3269.00,0.0313
3268.00,0.0313
3267.00,0.0312
3266.00,0.0312
3265.00,0.0311
3264.00,0.0310
3263.00,0.0308
3262.00,0.0306
3261.00,0.0305
3260.00,0.0303
3259.00,0.0300
3258.00,0.0298
3257.00,0.0295
3256.00,0.0293
3255.00,0.0292
3254.00,0.0291
3253.00,0.0289
3252.00,0.0288
3251.00,0.0286
3250.00,0.0283
3249.00,0.0281
3248.00,0.0278
3247.00,0.0276
3246.00,0.0275
3245.00,0.0274
3244.00,0.0273
3243.00,0.0272
3242.00,0.0271
3241.00,0.0270
3240.00,0.0269
3239.00,0.0267
3238.00,0.0265
3237.00,0.0263
3236.00,0.0261
3235.00,0.0259
3234.00,0.0258
3233.00,0.0257
3232.00,0.0256
3231.00,0.0256
3230.00,0.0256
3229.00,0.0255
3228.00,0.0255
3227.00,0.0254
3226.00,0.0253
3225.00,0.0252
3224.00,0.0251
3223.00,0.0250
3222.00,0.0249
3221.00,0.0248
3220.00,0.0246
3219.00,0.0246
3218.00,0.0245
3217.00,0.0244
3216.00,0.0243
3215.00,0.0242
3214.00,0.0242
3213.00,0.0241
3212.00,0.0241
3211.00,0.0240
3210.00,0.0239
3209.00,0.0239
3208.00,0.0238
3207.00,0.0237
3206.00,0.0237
3205.00,0.0237
3204.00,0.0236
3203.00,0.0235
3202.00,0.0235
3201.00,0.0234
3200.00,0.0233
3199.00,0.0232
3198.00,0.0232
3197.00,0.0231
3196.00,0.0230
3195.00,0.0229
3194.00,0.0228
3193.00,0.0228
3192.00,0.0227
3191.00,0.0226
3190.00,0.0226
3189.00,0.0225
3188.00,0.0224
3187.00,0.0223
3186.00,0.0222
3185.00,0.0222
3184.00,0.0221
3183.00,0.0220
3182.00,0.0219
3181.00,0.0218
3180.00,0.0217
3179.00,0.0216
3178.00,0.0215
3177.00,0.0214
3176.00,0.0213
3175.00,0.0213
3174.00,0.0212
3173.00,0.0211
3172.00,0.0210
3171.00,0.0209
3170.00,0.0209
3169.00,0.0208
3168.00,0.0207
3167.00,0.0206
3166.00,0.0205
3165.00,0.0204
3164.00,0.0203
3163.00,0.0202
3162.00,0.0201
3161.00,0.0200
3160.00,0.0199
3159.00,0.0198
3158.00,0.0197
3157.00,0.0196
3156.00,0.0194
3155.00,0.0193
3154.00,0.0191
3153.00,0.0191
3152.00,0.0190
3151.00,0.0190
3150.00,0.0189
3149.00,0.0189
3148.00,0.0189
3147.00,0.0189
3146.00,0.0188
3145.00,0.0187
3144.00,0.0187
3143.00,0.0186
3142.00,0.0184
3141.00,0.0183
3140.00,0.0182
3139.00,0.0182
3138.00,0.0181
3137.00,0.0181
3136.00,0.0181
3135.00,0.0181
3134.00,0.0180
3133.00,0.0180
3132.00,0.0179
3131.00,0.0178
3130.00,0.0178
3129.00,0.0178
3128.00,0.0178
3127.00,0.0178
3126.00,0.0177
3125.00,0.0176
3124.00,0.0175
3123.00,0.0174
3122.00,0.0173
3121.00,0.0173
3120.00,0.0172
3119.00,0.0172
3118.00,0.0171
3117.00,0.0171
3116.00,0.0172
3115.00,0.0172
3114.00,0.0173
3113.00,0.0173
3112.00,0.0173
3111.00,0.0173
3110.00,0.0173
3109.00,0.0173
3108.00,0.0174
3107.00,0.0174
3106.00,0.0175
3105.00,0.0175
3104.00,0.0175
3103.00,0.0175
3102.00,0.0175
3101.00,0.0174
3100.00,0.0174
3099.00,0.0175
3098.00,0.0176
3097.00,0.0177
3096.00,0.0178
3095.00,0.0178
3094.00,0.0178
3093.00,0.0178
3092.00,0.0178
3091.00,0.0178
3090.00,0.0178
3089.00,0.0178
3088.00,0.0179
3087.00,0.0179
3086.00,0.0179
3085.00,0.0179
3084.00,0.0179
3083.00,0.0179
3082.00,0.0179
3081.00,0.0179
3080.00,0.0179
3079.00,0.0180
3078.00,0.0181
3077.00,0.0181
3076.00,0.0183
3075.00,0.0184
3074.00,0.0184
3073.00,0.0184
3072.00,0.0184
3071.00,0.0184
3070.00,0.0184
3069.00,0.0183
3068.00,0.0182
3067.00,0.0182
3066.00,0.0182
3065.00,0.0183
3064.00,0.0183
3063.00,0.0184
3062.00,0.0184
3061.00,0.0184
3060.00,0.0184
3059.00,0.0183
3058.00,0.0182
3057.00,0.0181
3056.00,0.0180
3055.00,0.0180
3054.00,0.0180
3053.00,0.0179
3052.00,0.0178
3051.00,0.0178
3050.00,0.0177
3049.00,0.0177
3048.00,0.0177
3047.00,0.0176
3046.00,0.0174
3045.00,0.0173
3044.00,0.0173
3043.00,0.0172
3042.00,0.0172
3041.00,0.0172
3040.00,0.0172
3039.00,0.0172
3038.00,0.0171
3037.00,0.0170
3036.00,0.0168
3035.00,0.0167
3034.00,0.0166
3033.00,0.0166
3032.00,0.0166
3031.00,0.0166
3030.00,0.0167
3029.00,0.0167
3028.00,0.0166
3027.00,0.0166
3026.00,0.0165
3025.00,0.0165
3024.00,0.0164
3023.00,0.0164
3022.00,0.0164
3021.00,0.0163
3020.00,0.0163
3019.00,0.0163
3018.00,0.0163
3017.00,0.0163
3016.00,0.0164
3015.00,0.0164
3014.00,0.0166
3013.00,0.0167
3012.00,0.0170
3011.00,0.0173
3010.00,0.0177
3009.00,0.0181
3008.00,0.0185
3007.00,0.0190
3006.00,0.0194
3005.00,0.0199
3004.00,0.0203
3003.00,0.0208
3002.00,0.0213
3001.00,0.0217
3000.00,0.0221
2999.00,0.0225
2998.00,0.0229
2997.00,0.0232
2996.00,0.0235
2995.00,0.0238
2994.00,0.0241
2993.00,0.0244
2992.00,0.0247
2991.00,0.0251
2990.00,0.0254
2989.00,0.0258
2988.00,0.0262
2987.00,0.0267
2986.00,0.0275
2985.00,0.0287
2984.00,0.0301
2983.00,0.0316
2982.00,0.0327
2981.00,0.0331
2980.00,0.0329
2979.00,0.0323
2978.00,0.0316
2977.00,0.0310
2976.00,0.0306
2975.00,0.0304
2974.00,0.0305
2973.00,0.0308
2972.00,0.0310
2971.00,0.0310
2970.00,0.0306
2969.00,0.0301
2968.00,0.0295
2967.00,0.0289
2966.00,0.0285
2965.00,0.0280
2964.00,0.0276
2963.00,0.0272
2962.00,0.0268
2961.00,0.0265
2960.00,0.0262
2959.00,0.0259
2958.00,0.0256
2957.00,0.0253
2956.00,0.0250
2955.00,0.0247
2954.00,0.0244
2953.00,0.0241
2952.00,0.0239
2951.00,0.0238
2950.00,0.0236
2949.00,0.0235
2948.00,0.0233
2947.00,0.0231
2946.00,0.0228
2945.00,0.0227
2944.00,0.0225
2943.00,0.0225
2942.00,0.0224
2941.00,0.0225
2940.00,0.0225
2939.00,0.0225
2938.00,0.0224
2937.00,0.0224
2936.00,0.0223
2935.00,0.0222
2934.00,0.0221
2933.00,0.0219
2932.00,0.0217
2931.00,0.0214
2930.00,0.0211
2929.00,0.0207
2928.00,0.0203
2927.00,0.0197
2926.00,0.0191
2925.00,0.0183
2924.00,0.0175
2923.00,0.0165
2922.00,0.0155
2921.00,0.0143
2920.00,0.0131
2919.00,0.0119
2918.00,0.0110
2917.00,0.0104
2916.00,0.0104
2915.00,0.0109
2914.00,0.0120
2913.00,0.0132
2912.00,0.0145
2911.00,0.0156
2910.00,0.0165
2909.00,0.0172
2908.00,0.0177
2907.00,0.0181
2906.00,0.0183
2905.00,0.0185
2904.00,0.0186
2903.00,0.0187
2902.00,0.0188
2901.00,0.0189
2900.00,0.0189
2899.00,0.0189
2898.00,0.0189
2897.00,0.0190
2896.00,0.0191
2895.00,0.0192
2894.00,0.0193
2893.00,0.0195
2892.00,0.0197
2891.00,0.0199
2890.00,0.0200
2889.00,0.0201
2888.00,0.0201
2887.00,0.0202
2886.00,0.0202
2885.00,0.0203
2884.00,0.0203
2883.00,0.0203
2882.00,0.0202
2881.00,0.0200
2880.00,0.0198
2879.00,0.0196
2878.00,0.0195
2877.00,0.0193
2876.00,0.0192
2875.00,0.0191
2874.00,0.0190
2873.00,0.0189
2872.00,0.0188
2871.00,0.0188
2870.00,0.0187
2869.00,0.0185
2868.00,0.0183
2867.00,0.0181
2866.00,0.0179
2865.00,0.0177
2864.00,0.0174
2863.00,0.0171
2862.00,0.0168
2861.00,0.0165
2860.00,0.0162
2859.00,0.0159
2858.00,0.0156
2857.00,0.0152
2856.00,0.0147
2855.00,0.0141
2854.00,0.0133
2853.00,0.0123
2852.00,0.0110
2851.00,0.0097
2850.00,0.0086
2849.00,0.0081
2848.00,0.0082
2847.00,0.0090
2846.00,0.0101
2845.00,0.0112
2844.00,0.0121
2843.00,0.0128
2842.00,0.0132
2841.00,0.0134
2840.00,0.0136
2839.00,0.0137
2838.00,0.0138
2837.00,0.0138
2836.00,0.0139
2835.00,0.0139
2834.00,0.0139
2833.00,0.0140
2832.00,0.0140
2831.00,0.0140
2830.00,0.0140
2829.00,0.0140
2828.00,0.0139
2827.00,0.0139
2826.00,0.0139
2825.00,0.0139
2824.00,0.0138
2823.00,0.0138
2822.00,0.0138
2821.00,0.0137
2820.00,0.0137
2819.00,0.0137
2818.00,0.0137
2817.00,0.0136
2816.00,0.0136
2815.00,0.0136
2814.00,0.0135
2813.00,0.0135
2812.00,0.0134
2811.00,0.0134
2810.00,0.0134
2809.00,0.0133
2808.00,0.0133
2807.00,0.0133
2806.00,0.0133
2805.00,0.0133
2804.00,0.0133
2803.00,0.0132
2802.00,0.0132
2801.00,0.0131
2800.00,0.0131
2799.00,0.0130
2798.00,0.0130
2797.00,0.0130
2796.00,0.0130
2795.00,0.0130
2794.00,0.0130
2793.00,0.0129
2792.00,0.0129
2791.00,0.0128
2790.00,0.0128
2789.00,0.0128
2788.00,0.0128
2787.00,0.0128
2786.00,0.0128
2785.00,0.0128
2784.00,0.0128
2783.00,0.0128
2782.00,0.0128
2781.00,0.0128
2780.00,0.0127
2779.00,0.0127
2778.00,0.0126
2777.00,0.0126
2776.00,0.0125
2775.00,0.0125
2774.00,0.0125
2773.00,0.0125
2772.00,0.0125
2771.00,0.0125
2770.00,0.0125
2769.00,0.0125
2768.00,0.0124
2767.00,0.0124
2766.00,0.0124
2765.00,0.0124
2764.00,0.0124
2763.00,0.0123
2762.00,0.0123
2761.00,0.0123
2760.00,0.0123
2759.00,0.0122
2758.00,0.0122
2757.00,0.0122
2756.00,0.0121
2755.00,0.0121
2754.00,0.0121
2753.00,0.0121
2752.00,0.0120
2751.00,0.0120
2750.00,0.0119
2749.00,0.0119
2748.00,0.0119
2747.00,0.0119
2746.00,0.0119
2745.00,0.0119
2744.00,0.0119
2743.00,0.0119
2742.00,0.0119
2741.00,0.0118
2740.00,0.0118
2739.00,0.0118
2738.00,0.0117
2737.00,0.0117
2736.00,0.0117
2735.00,0.0117
2734.00,0.0117
2733.00,0.0117
2732.00,0.0117
2731.00,0.0116
2730.00,0.0116
2729.00,0.0116
2728.00,0.0115
2727.00,0.0114
2726.00,0.0114
2725.00,0.0114
2724.00,0.0114
2723.00,0.0114
2722.00,0.0114
2721.00,0.0114
2720.00,0.0113
2719.00,0.0113
2718.00,0.0113
2717.00,0.0113
2716.00,0.0113
2715.00,0.0112
2714.00,0.0112
2713.00,0.0112
2712.00,0.0111
2711.00,0.0111
2710.00,0.0111
2709.00,0.0111
2708.00,0.0111
2707.00,0.0111
2706.00,0.0110
2705.00,0.0110
2704.00,0.0110
2703.00,0.0110
2702.00,0.0110
2701.00,0.0110
2700.00,0.0109
2699.00,0.0109
2698.00,0.0109
2697.00,0.0109
2696.00,0.0109
2695.00,0.0109
2694.00,0.0109
2693.00,0.0109
2692.00,0.0108
2691.00,0.0108
2690.00,0.0108
2689.00,0.0108
2688.00,0.0108
2687.00,0.0108
2686.00,0.0108
2685.00,0.0108
2684.00,0.0108
2683.00,0.0107
2682.00,0.0107
2681.00,0.0107
2680.00,0.0107
2679.00,0.0107
2678.00,0.0107
2677.00,0.0107
2676.00,0.0107
2675.00,0.0107
2674.00,0.0107
2673.00,0.0107
2672.00,0.0107
2671.00,0.0107
2670.00,0.0107
2669.00,0.0107
2668.00,0.0107
2667.00,0.0107
2666.00,0.0107
2665.00,0.0107
2664.00,0.0107
2663.00,0.0106
2662.00,0.0106
2661.00,0.0106
2660.00,0.0106
2659.00,0.0106
2658.00,0.0106
2657.00,0.0106
2656.00,0.0105
2655.00,0.0105
2654.00,0.0105
2653.00,0.0105
2652.00,0.0105
2651.00,0.0105
2650.00,0.0105
2649.00,0.0105
2648.00,0.0105
2647.00,0.0105
2646.00,0.0105
2645.00,0.0106
2644.00,0.0106
2643.00,0.0105
2642.00,0.0105
2641.00,0.0105
2640.00,0.0105
2639.00,0.0105
2638.00,0.0105
2637.00,0.0104
2636.00,0.0104
2635.00,0.0104
2634.00,0.0104
2633.00,0.0104
2632.00,0.0104
2631.00,0.0104
2630.00,0.0104
2629.00,0.0104
2628.00,0.0104
2627.00,0.0104
2626.00,0.0104
2625.00,0.0104
2624.00,0.0104
2623.00,0.0104
2622.00,0.0104
2621.00,0.0104
2620.00,0.0104
2619.00,0.0104
2618.00,0.0104
2617.00,0.0104
2616.00,0.0104
2615.00,0.0104
2614.00,0.0103
2613.00,0.0103
2612.00,0.0103
2611.00,0.0103
2610.00,0.0103
2609.00,0.0103
2608.00,0.0103
2607.00,0.0103
2606.00,0.0103
2605.00,0.0103
2604.00,0.0103
2603.00,0.0103
2602.00,0.0103
2601.00,0.0102
2600.00,0.0102
2599.00,0.0102
2598.00,0.0102
2597.00,0.0102
2596.00,0.0102
2595.00,0.0102
2594.00,0.0102
2593.00,0.0102
2592.00,0.0102
2591.00,0.0101
2590.00,0.0101
2589.00,0.0101
2588.00,0.0101
2587.00,0.0101
2586.00,0.0100
2585.00,0.0100
2584.00,0.0100
2583.00,0.0100
2582.00,0.0100
2581.00,0.0100
2580.00,0.0100
2579.00,0.0100
2578.00,0.0100
2577.00,0.0100
2576.00,0.0100
2575.00,0.0099
2574.00,0.0099
2573.00,0.0099
2572.00,0.0099
2571.00,0.0099
2570.00,0.0099
2569.00,0.0099
2568.00,0.0099
2567.00,0.0099
2566.00,0.0099
2565.00,0.0099
2564.00,0.0099
2563.00,0.0099
2562.00,0.0099
2561.00,0.0099
2560.00,0.0099
2559.00,0.0099
2558.00,0.0099
2557.00,0.0098
2556.00,0.0098
2555.00,0.0098
2554.00,0.0098
2553.00,0.0098
2552.00,0.0098
2551.00,0.0098
2550.00,0.0098
2549.00,0.0098
2548.00,0.0098
2547.00,0.0098
2546.00,0.0098
2545.00,0.0098
2544.00,0.0098
2543.00,0.0098
2542.00,0.0098
2541.00,0.0098
2540.00,0.0098
2539.00,0.0098
2538.00,0.0098
2537.00,0.0097
2536.00,0.0097
2535.00,0.0097
2534.00,0.0097
2533.00,0.0097
2532.00,0.0097
2531.00,0.0097
2530.00,0.0097
2529.00,0.0097
2528.00,0.0097
2527.00,0.0097
2526.00,0.0097
2525.00,0.0097
2524.00,0.0097
2523.00,0.0097
2522.00,0.0097
2521.00,0.0096
2520.00,0.0096
2519.00,0.0096
2518.00,0.0096
2517.00,0.0096
2516.00,0.0096
2515.00,0.0096
2514.00,0.0096
2513.00,0.0096
2512.00,0.0096
2511.00,0.0096
2510.00,0.0096
2509.00,0.0096
2508.00,0.0096
2507.00,0.0096
2506.00,0.0096
2505.00,0.0096
2504.00,0.0095
2503.00,0.0095
2502.00,0.0095
2501.00,0.0095
2500.00,0.0095
2499.00,0.0095
2498.00,0.0095
2497.00,0.0095
2496.00,0.0095
2495.00,0.0095
2494.00,0.0094
2493.00,0.0094
2492.00,0.0095
2491.00,0.0095
2490.00,0.0094
2489.00,0.0094
2488.00,0.0094
2487.00,0.0094
2486.00,0.0094
2485.00,0.0094
2484.00,0.0094
2483.00,0.0094
2482.00,0.0094
2481.00,0.0094
2480.00,0.0094
2479.00,0.0093
2478.00,0.0093
2477.00,0.0093
2476.00,0.0093
2475.00,0.0093
2474.00,0.0093
2473.00,0.0093
2472.00,0.0093
2471.00,0.0093
2470.00,0.0093
2469.00,0.0093
2468.00,0.0092
2467.00,0.0092
2466.00,0.0092
2465.00,0.0092
2464.00,0.0092
2463.00,0.0092
2462.00,0.0092
2461.00,0.0092
2460.00,0.0092
2459.00,0.0091
2458.00,0.0091
2457.00,0.0091
2456.00,0.0091
2455.00,0.0091
2454.00,0.0091
2453.00,0.0091
2452.00,0.0091
2451.00,0.0091
2450.00,0.0090
2449.00,0.0090
2448.00,0.0091
2447.00,0.0090
2446.00,0.0090
2445.00,0.0090
2444.00,0.0090
2443.00,0.0090
2442.00,0.0090
2441.00,0.0090
2440.00,0.0090
2439.00,0.0090
2438.00,0.0090
2437.00,0.0089
2436.00,0.0089
2435.00,0.0089
2434.00,0.0089
2433.00,0.0089
2432.00,0.0089
2431.00,0.0089
2430.00,0.0088
2429.00,0.0088
2428.00,0.0088
2427.00,0.0088
2426.00,0.0088
2425.00,0.0088
2424.00,0.0088
2423.00,0.0088
2422.00,0.0088
2421.00,0.0088
2420.00,0.0088
2419.00,0.0087
2418.00,0.0087
2417.00,0.0087
2416.00,0.0087
2415.00,0.0087
2414.00,0.0087
2413.00,0.0087
2412.00,0.0087
2411.00,0.0087
2410.00,0.0087
2409.00,0.0087
2408.00,0.0087
2407.00,0.0086
2406.00,0.0086
2405.00,0.0086
2404.00,0.0086
2403.00,0.0086
2402.00,0.0086
2401.00,0.0086
2400.00,0.0086
2399.00,0.0086
2398.00,0.0085
2397.00,0.0085
2396.00,0.0085
2395.00,0.0085
2394.00,0.0085
2393.00,0.0085
2392.00,0.0085
2391.00,0.0085
2390.00,0.0085
2389.00,0.0084
2388.00,0.0084
2387.00,0.0084
2386.00,0.0084
2385.00,0.0084
2384.00,0.0084
2383.00,0.0084
2382.00,0.0084
2381.00,0.0084
2380.00,0.0084
2379.00,0.0084
2378.00,0.0084
2377.00,0.0084
2376.00,0.0084
2375.00,0.0084
2374.00,0.0084
2373.00,0.0083
2372.00,0.0083
2371.00,0.0083
2370.00,0.0083
2369.00,0.0083
2368.00,0.0083
2367.00,0.0083
2366.00,0.0083
2365.00,0.0082
2364.00,0.0082
2363.00,0.0082
2362.00,0.0082
2361.00,0.0082
2360.00,0.0082
2359.00,0.0082
2358.00,0.0082
2357.00,0.0082
2356.00,0.0082
2355.00,0.0082
2354.00,0.0082
2353.00,0.0082
2352.00,0.0082
2351.00,0.0082
2350.00,0.0081
2349.00,0.0081
2348.00,0.0081
2347.00,0.0080
2346.00,0.0080
2345.00,0.0080
2344.00,0.0081
2343.00,0.0081
2342.00,0.0081
2341.00,0.0080
2340.00,0.0080
2339.00,0.0080
2338.00,0.0080
2337.00,0.0080
2336.00,0.0080
2335.00,0.0080
2334.00,0.0079
2333.00,0.0079
2332.00,0.0079
2331.00,0.0079
2330.00,0.0079
2329.00,0.0079
2328.00,0.0079
2327.00,0.0079
2326.00,0.0078
2325.00,0.0077
2324.00,0.0077
2323.00,0.0076
2322.00,0.0076
2321.00,0.0077
2320.00,0.0077
2319.00,0.0078
2318.00,0.0078
2317.00,0.0078
2316.00,0.0078
2315.00,0.0078
2314.00,0.0078
2313.00,0.0078
2312.00,0.0078
2311.00,0.0078
2310.00,0.0078
2309.00,0.0078
2308.00,0.0078
2307.00,0.0078
2306.00,0.0078
2305.00,0.0078
2304.00,0.0078
2303.00,0.0078
2302.00,0.0078
2301.00,0.0078
2300.00,0.0078
2299.00,0.0078
2298.00,0.0077
2297.00,0.0077
2296.00,0.0077
2295.00,0.0077
2294.00,0.0077
2293.00,0.0077
2292.00,0.0077
2291.00,0.0077
2290.00,0.0077
2289.00,0.0077
2288.00,0.0077
2287.00,0.0077
2286.00,0.0076
2285.00,0.0076
2284.00,0.0077
2283.00,0.0076
2282.00,0.0076
2281.00,0.0076
2280.00,0.0076
2279.00,0.0076
2278.00,0.0076
2277.00,0.0076
2276.00,0.0076
2275.00,0.0076
2274.00,0.0076
2273.00,0.0076
2272.00,0.0076
2271.00,0.0076
2270.00,0.0076
2269.00,0.0076
2268.00,0.0076
2267.00,0.0076
2266.00,0.0076
2265.00,0.0076
2264.00,0.0076
2263.00,0.0076
2262.00,0.0076
2261.00,0.0075
2260.00,0.0075
2259.00,0.0074
2258.00,0.0074
2257.00,0.0074
2256.00,0.0075
2255.00,0.0076
2254.00,0.0076
2253.00,0.0076
2252.00,0.0076
2251.00,0.0076
2250.00,0.0075
2249.00,0.0075
2248.00,0.0076
2247.00,0.0076
2246.00,0.0075
2245.00,0.0074
2244.00,0.0074
2243.00,0.0075
2242.00,0.0075
2241.00,0.0075
2240.00,0.0076
2239.00,0.0076
2238.00,0.0075
2237.00,0.0075
2236.00,0.0075
2235.00,0.0075
2234.00,0.0075
2233.00,0.0075
2232.00,0.0075
2231.00,0.0075
2230.00,0.0074
2229.00,0.0074
2228.00,0.0075
2227.00,0.0075
2226.00,0.0074
2225.00,0.0074
2224.00,0.0075
2223.00,0.0075
2222.00,0.0074
2221.00,0.0074
2220.00,0.0075
2219.00,0.0074
2218.00,0.0074
2217.00,0.0074
2216.00,0.0075
2215.00,0.0075
2214.00,0.0075
2213.00,0.0075
2212.00,0.0075
2211.00,0.0074
2210.00,0.0074
2209.00,0.0074
2208.00,0.0074
2207.00,0.0074
2206.00,0.0074
2205.00,0.0073
2204.00,0.0073
2203.00,0.0073
2202.00,0.0073
2201.00,0.0074
2200.00,0.0074
2199.00,0.0074
2198.00,0.0074
2197.00,0.0074
2196.00,0.0074
2195.00,0.0074
2194.00,0.0073
2193.00,0.0073
2192.00,0.0073
2191.00,0.0073
2190.00,0.0073
2189.00,0.0073
2188.00,0.0073
2187.00,0.0073
2186.00,0.0073
2185.00,0.0072
2184.00,0.0072
2183.00,0.0072
2182.00,0.0072
2181.00,0.0072
2180.00,0.0073
2179.00,0.0073
2178.00,0.0072
2177.00,0.0072
2176.00,0.0072
2175.00,0.0072
2174.00,0.0072
2173.00,0.0073
2172.00,0.0073
2171.00,0.0073
2170.00,0.0072
2169.00,0.0071
2168.00,0.0071
2167.00,0.0071
2166.00,0.0071
2165.00,0.0071
2164.00,0.0071
2163.00,0.0069
2162.00,0.0067
2161.00,0.0067
2160.00,0.0068
2159.00,0.0069
2158.00,0.0069
2157.00,0.0070
2156.00,0.0071
2155.00,0.0071
2154.00,0.0071
2153.00,0.0071
2152.00,0.0071
2151.00,0.0071
2150.00,0.0071
2149.00,0.0071
2148.00,0.0072
2147.00,0.0073
2146.00,0.0073
2145.00,0.0073
2144.00,0.0073
2143.00,0.0073
2142.00,0.0072
2141.00,0.0072
2140.00,0.0073
2139.00,0.0073
2138.00,0.0073
2137.00,0.0073
2136.00,0.0074
2135.00,0.0074
2134.00,0.0074
2133.00,0.0073
2132.00,0.0073
2131.00,0.0073
2130.00,0.0073
2129.00,0.0073
2128.00,0.0073
2127.00,0.0073
2126.00,0.0073
2125.00,0.0073
2124.00,0.0073
2123.00,0.0073
2122.00,0.0072
2121.00,0.0072
2120.00,0.0072
2119.00,0.0072
2118.00,0.0071
2117.00,0.0071
2116.00,0.0072
2115.00,0.0072
2114.00,0.0072
2113.00,0.0072
2112.00,0.0073
2111.00,0.0073
2110.00,0.0073
2109.00,0.0072
2108.00,0.0072
2107.00,0.0072
2106.00,0.0071
2105.00,0.0071
2104.00,0.0072
2103.00,0.0071
2102.00,0.0071
2101.00,0.0071
2100.00,0.0071
2099.00,0.0071
2098.00,0.0071
2097.00,0.0071
2096.00,0.0071
2095.00,0.0071
2094.00,0.0071
2093.00,0.0071
2092.00,0.0072
2091.00,0.0072
2090.00,0.0072
2089.00,0.0072
2088.00,0.0072
2087.00,0.0072
2086.00,0.0071
2085.00,0.0070
2084.00,0.0070
2083.00,0.0070
2082.00,0.0070
2081.00,0.0070
2080.00,0.0071
2079.00,0.0070
2078.00,0.0070
2077.00,0.0069
2076.00,0.0069
2075.00,0.0069
2074.00,0.0070
2073.00,0.0070
2072.00,0.0070
2071.00,0.0070
2070.00,0.0069
2069.00,0.0069
2068.00,0.0070
2067.00,0.0070
2066.00,0.0070
2065.00,0.0069
2064.00,0.0069
2063.00,0.0068
2062.00,0.0068
2061.00,0.0068
2060.00,0.0068
2059.00,0.0068
2058.00,0.0067
2057.00,0.0067
2056.00,0.0067
2055.00,0.0067
2054.00,0.0067
2053.00,0.0067
2052.00,0.0067
2051.00,0.0066
2050.00,0.0065
2049.00,0.0066
2048.00,0.0067
2047.00,0.0067
2046.00,0.0066
2045.00,0.0066
2044.00,0.0067
2043.00,0.0066
2042.00,0.0065
2041.00,0.0065
2040.00,0.0065
2039.00,0.0065
2038.00,0.0063
2037.00,0.0063
2036.00,0.0064
2035.00,0.0065
2034.00,0.0065
2033.00,0.0066
2032.00,0.0067
2031.00,0.0067
2030.00,0.0067
2029.00,0.0067
2028.00,0.0068
2027.00,0.0068
2026.00,0.0066
2025.00,0.0066
2024.00,0.0066
2023.00,0.0067
2022.00,0.0066
2021.00,0.0066
2020.00,0.0068
2019.00,0.0068
2018.00,0.0068
2017.00,0.0068
2016.00,0.0069
2015.00,0.0068
2014.00,0.0067
2013.00,0.0066
2012.00,0.0067
2011.00,0.0066
2010.00,0.0065
2009.00,0.0065
2008.00,0.0067
2007.00,0.0068
2006.00,0.0067
2005.00,0.0067
2004.00,0.0067
2003.00,0.0067
2002.00,0.0065
2001.00,0.0065
2000.00,0.0066
1999.00,0.0065
1998.00,0.0064
1997.00,0.0064
1996.00,0.0065
1995.00,0.0065
1994.00,0.0065
1993.00,0.0065
1992.00,0.0065
1991.00,0.0064
1990.00,0.0062
1989.00,0.0062
1988.00,0.0062
1987.00,0.0062
1986.00,0.0062
1985.00,0.0062
1984.00,0.0063
1983.00,0.0063
1982.00,0.0062
1981.00,0.0061
1980.00,0.0061
1979.00,0.0061
1978.00,0.0062
1977.00,0.0063
1976.00,0.0064
1975.00,0.0064
1974.00,0.0063
1973.00,0.0063
1972.00,0.0063
1971.00,0.0063
1970.00,0.0063
1969.00,0.0063
1968.00,0.0065
1967.00,0.0065
1966.00,0.0064
1965.00,0.0063
1964.00,0.0063
1963.00,0.0063
1962.00,0.0063
1961.00,0.0064
1960.00,0.0064
1959.00,0.0064
1958.00,0.0064
1957.00,0.0064
1956.00,0.0065
1955.00,0.0065
1954.00,0.0064
1953.00,0.0064
1952.00,0.0064
1951.00,0.0063
1950.00,0.0062
1949.00,0.0062
1948.00,0.0062
1947.00,0.0062
1946.00,0.0062
1945.00,0.0061
1944.00,0.0062
1943.00,0.0063
1942.00,0.0063
1941.00,0.0062
1940.00,0.0061
1939.00,0.0060
1938.00,0.0060
1937.00,0.0061
1936.00,0.0062
1935.00,0.0062
1934.00,0.0062
1933.00,0.0062
1932.00,0.0062
1931.00,0.0062
1930.00,0.0061
1929.00,0.0061
1928.00,0.0061
1927.00,0.0061
1926.00,0.0060
1925.00,0.0060
1924.00,0.0062
1923.00,0.0063
1922.00,0.0061
1921.00,0.0059
1920.00,0.0057
1919.00,0.0055
1918.00,0.0055
1917.00,0.0056
1916.00,0.0057
1915.00,0.0057
1914.00,0.0057
1913.00,0.0058
1912.00,0.0060
1911.00,0.0061
1910.00,0.0061
1909.00,0.0061
1908.00,0.0061
1907.00,0.0060
1906.00,0.0058
1905.00,0.0058
1904.00,0.0059
1903.00,0.0059
1902.00,0.0059
1901.00,0.0059
1900.00,0.0059
1899.00,0.0059
1898.00,0.0058
1897.00,0.0059
1896.00,0.0060
1895.00,0.0060
1894.00,0.0059
1893.00,0.0057
1892.00,0.0058
1891.00,0.0058
1890.00,0.0059
1889.00,0.0060
1888.00,0.0059
1887.00,0.0057
1886.00,0.0056
1885.00,0.0056
1884.00,0.0057
1883.00,0.0056
1882.00,0.0056
1881.00,0.0056
1880.00,0.0056
1879.00,0.0056
1878.00,0.0055
1877.00,0.0055
1876.00,0.0055
1875.00,0.0055
1874.00,0.0053
1873.00,0.0053
1872.00,0.0053
1871.00,0.0053
1870.00,0.0053
1869.00,0.0055
1868.00,0.0056
1867.00,0.0055
1866.00,0.0052
1865.00,0.0051
1864.00,0.0052
1863.00,0.0052
1862.00,0.0052
1861.00,0.0053
1860.00,0.0054
1859.00,0.0054
1858.00,0.0053
1857.00,0.0052
1856.00,0.0053
1855.00,0.0052
1854.00,0.0052
1853.00,0.0052
1852.00,0.0052
1851.00,0.0051
1850.00,0.0050
1849.00,0.0051
1848.00,0.0052
1847.00,0.0052
1846.00,0.0050
1845.00,0.0049
1844.00,0.0049
1843.00,0.0048
1842.00,0.0046
1841.00,0.0046
1840.00,0.0046
1839.00,0.0047
1838.00,0.0049
1837.00,0.0050
1836.00,0.0049
1835.00,0.0048
1834.00,0.0048
1833.00,0.0048
1832.00,0.0050
1831.00,0.0053
1830.00,0.0055
1829.00,0.0054
1828.00,0.0051
1827.00,0.0049
1826.00,0.0048
1825.00,0.0048
1824.00,0.0049
1823.00,0.0048
1822.00,0.0046
1821.00,0.0045
1820.00,0.0046
1819.00,0.0047
1818.00,0.0047
1817.00,0.0047
1816.00,0.0047
1815.00,0.0048
1814.00,0.0046
1813.00,0.0045
1812.00,0.0046
1811.00,0.0048
1810.00,0.0047
1809.00,0.0045
1808.00,0.0045
1807.00,0.0045
1806.00,0.0044
1805.00,0.0044
1804.00,0.0046
1803.00,0.0047
1802.00,0.0046
1801.00,0.0044
1800.00,0.0043
1799.00,0.0041
1798.00,0.0039
1797.00,0.0039
1796.00,0.0041
1795.00,0.0042
1794.00,0.0040
1793.00,0.0039
1792.00,0.0040
1791.00,0.0041
1790.00,0.0039
1789.00,0.0037
1788.00,0.0038
1787.00,0.0039
1786.00,0.0039
1785.00,0.0040
1784.00,0.0041
1783.00,0.0042
1782.00,0.0042
1781.00,0.0042
1780.00,0.0042
1779.00,0.0041
1778.00,0.0039
1777.00,0.0039
1776.00,0.0041
1775.00,0.0043
1774.00,0.0044
1773.00,0.0044
1772.00,0.0045
1771.00,0.0044
1770.00,0.0041
1769.00,0.0038
1768.00,0.0037
1767.00,0.0038
1766.00,0.0039
1765.00,0.0040
1764.00,0.0042
1763.00,0.0046
1762.00,0.0049
1761.00,0.0048
1760.00,0.0046
1759.00,0.0045
1758.00,0.0044
1757.00,0.0043
1756.00,0.0042
1755.00,0.0041
1754.00,0.0039
1753.00,0.0036
1752.00,0.0034
1751.00,0.0034
1750.00,0.0038
1749.00,0.0041
1748.00,0.0042
1747.00,0.0045
1746.00,0.0048
1745.00,0.0051
1744.00,0.0054
1743.00,0.0058
1742.00,0.0061
1741.00,0.0061
1740.00,0.0062
1739.00,0.0063
1738.00,0.0065
1737.00,0.0065
1736.00,0.0063
1735.00,0.0062
1734.00,0.0063
1733.00,0.0064
1732.00,0.0064
1731.00,0.0065
1730.00,0.0068
1729.00,0.0070
1728.00,0.0071
1727.00,0.0071
1726.00,0.0072
1725.00,0.0073
1724.00,0.0073
1723.00,0.0073
1722.00,0.0074
1721.00,0.0075
1720.00,0.0078
1719.00,0.0080
1718.00,0.0079
1717.00,0.0078
1716.00,0.0078
1715.00,0.0077
1714.00,0.0076
1713.00,0.0078
1712.00,0.0082
1711.00,0.0085
1710.00,0.0088
1709.00,0.0093
1708.00,0.0099
1707.00,0.0107
1706.00,0.0117
1705.00,0.0129
1704.00,0.0141
1703.00,0.0150
1702.00,0.0155
1701.00,0.0165
1700.00,0.0185
1699.00,0.0200
1698.00,0.0207
1697.00,0.0214
1696.00,0.0227
1695.00,0.0237
1694.00,0.0239
1693.00,0.0241
1692.00,0.0245
1691.00,0.0253
1690.00,0.0261
1689.00,0.0271
1688.00,0.0281
1687.00,0.0290
1686.00,0.0299
1685.00,0.0312
1684.00,0.0329
1683.00,0.0342
1682.00,0.0348
1681.00,0.0355
1680.00,0.0363
1679.00,0.0373
1678.00,0.0383
1677.00,0.0392
1676.00,0.0404
1675.00,0.0417
1674.00,0.0429
1673.00,0.0438
1672.00,0.0446
1671.00,0.0458
1670.00,0.0475
1669.00,0.0492
1668.00,0.0506
1667.00,0.0517
1666.00,0.0527
1665.00,0.0537
1664.00,0.0550
1663.00,0.0564
1662.00,0.0579
1661.00,0.0591
1660.00,0.0601
1659.00,0.0611
1658.00,0.0624
1657.00,0.0639
1656.00,0.0653
1655.00,0.0665
1654.00,0.0682
1653.00,0.0702
1652.00,0.0709
1651.00,0.0706
1650.00,0.0700
1649.00,0.0697
1648.00,0.0697
1647.00,0.0702
1646.00,0.0706
1645.00,0.0708
1644.00,0.0710
1643.00,0.0710
1642.00,0.0710
1641.00,0.0711
1640.00,0.0714
1639.00,0.0716
1638.00,0.0717
1637.00,0.0720
1636.00,0.0726
1635.00,0.0734
1634.00,0.0739
1633.00,0.0743
1632.00,0.0745
1631.00,0.0746
1630.00,0.0750
1629.00,0.0757
1628.00,0.0766
1627.00,0.0774
1626.00,0.0780
1625.00,0.0786
1624.00,0.0793
1623.00,0.0800
1622.00,0.0807
1621.00,0.0812
1620.00,0.0814
1619.00,0.0813
1618.00,0.0813
1617.00,0.0812
1616.00,0.0807
1615.00,0.0796
1614.00,0.0784
1613.00,0.0770
1612.00,0.0753
1611.00,0.0735
1610.00,0.0717
1609.00,0.0701
1608.00,0.0682
1607.00,0.0662
1606.00,0.0644
1605.00,0.0627
1604.00,0.0608
1603.00,0.0590
1602.00,0.0574
1601.00,0.0559
1600.00,0.0543
1599.00,0.0528
1598.00,0.0515
1597.00,0.0504
1596.00,0.0492
1595.00,0.0480
1594.00,0.0469
1593.00,0.0460
1592.00,0.0450
1591.00,0.0439
1590.00,0.0431
1589.00,0.0424
1588.00,0.0417
1587.00,0.0409
1586.00,0.0403
1585.00,0.0398
1584.00,0.0392
1583.00,0.0386
1582.00,0.0383
1581.00,0.0381
1580.00,0.0380
1579.00,0.0378
1578.00,0.0379
1577.00,0.0381
1576.00,0.0379
1575.00,0.0376
1574.00,0.0375
1573.00,0.0377
1572.00,0.0378
1571.00,0.0381
1570.00,0.0387
1569.00,0.0393
1568.00,0.0395
1567.00,0.0397
1566.00,0.0403
1565.00,0.0413
1564.00,0.0424
1563.00,0.0435
1562.00,0.0448
1561.00,0.0459
1560.00,0.0467
1559.00,0.0480
1558.00,0.0496
1557.00,0.0508
1556.00,0.0514
1555.00,0.0521
1554.00,0.0530
1553.00,0.0541
1552.00,0.0551
1551.00,0.0562
1550.00,0.0574
1549.00,0.0584
1548.00,0.0591
1547.00,0.0596
1546.00,0.0604
1545.00,0.0615
1544.00,0.0627
1543.00,0.0635
1542.00,0.0639
1541.00,0.0644
1540.00,0.0654
1539.00,0.0662
1538.00,0.0667
1537.00,0.0671
1536.00,0.0673
1535.00,0.0676
1534.00,0.0682
1533.00,0.0692
1532.00,0.0700
1531.00,0.0702
1530.00,0.0703
1529.00,0.0706
1528.00,0.0712
1527.00,0.0718
1526.00,0.0722
1525.00,0.0725
1524.00,0.0729
1523.00,0.0734
1522.00,0.0740
1521.00,0.0748
1520.00,0.0754
1519.00,0.0756
1518.00,0.0757
1517.00,0.0757
1516.00,0.0759
1515.00,0.0757
1514.00,0.0752
1513.00,0.0747
1512.00,0.0743
1511.00,0.0741
1510.00,0.0737
1509.00,0.0729
1508.00,0.0721
1507.00,0.0714
1506.00,0.0702
1505.00,0.0687
1504.00,0.0675
1503.00,0.0664
1502.00,0.0651
1501.00,0.0638
1500.00,0.0627
1499.00,0.0618
1498.00,0.0606
1497.00,0.0590
1496.00,0.0577
1495.00,0.0565
1494.00,0.0552
1493.00,0.0537
1492.00,0.0523
1491.00,0.0512
1490.00,0.0502
1489.00,0.0492
1488.00,0.0484
1487.00,0.0473
1486.00,0.0462
1485.00,0.0451
1484.00,0.0441
1483.00,0.0433
1482.00,0.0425
1481.00,0.0417
1480.00,0.0411
1479.00,0.0405
1478.00,0.0400
1477.00,0.0397
1476.00,0.0397
1475.00,0.0395
1474.00,0.0390
1473.00,0.0387
1472.00,0.0390
1471.00,0.0393
1470.00,0.0395
1469.00,0.0395
1468.00,0.0397
1467.00,0.0400
1466.00,0.0401
1465.00,0.0401
1464.00,0.0402
1463.00,0.0404
1462.00,0.0406
1461.00,0.0410
1460.00,0.0417
1459.00,0.0428
1458.00,0.0437
1457.00,0.0442
1456.00,0.0445
1455.00,0.0448
1454.00,0.0450
1453.00,0.0451
1452.00,0.0453
1451.00,0.0456
1450.00,0.0458
1449.00,0.0458
1448.00,0.0459
1447.00,0.0460
1446.00,0.0458
1445.00,0.0453
1444.00,0.0448
1443.00,0.0445
1442.00,0.0440
1441.00,0.0436
1440.00,0.0431
1439.00,0.0428
1438.00,0.0424
1437.00,0.0418
1436.00,0.0412
1435.00,0.0408
1434.00,0.0403
1433.00,0.0397
1432.00,0.0394
1431.00,0.0393
1430.00,0.0393
1429.00,0.0392
1428.00,0.0390
1427.00,0.0390
1426.00,0.0391
1425.00,0.0391
1424.00,0.0392
1423.00,0.0395
1422.00,0.0400
1421.00,0.0404
1420.00,0.0409
1419.00,0.0417
1418.00,0.0422
1417.00,0.0423
1416.00,0.0424
1415.00,0.0429
1414.00,0.0435
1413.00,0.0440
1412.00,0.0444
1411.00,0.0449
1410.00,0.0454
1409.00,0.0458
1408.00,0.0460
1407.00,0.0464
1406.00,0.0468
1405.00,0.0471
1404.00,0.0473
1403.00,0.0476
1402.00,0.0479
1401.00,0.0481
1400.00,0.0483
1399.00,0.0486
1398.00,0.0491
1397.00,0.0494
1396.00,0.0498
1395.00,0.0503
1394.00,0.0507
1393.00,0.0507
1392.00,0.0506
1391.00,0.0506
1390.00,0.0508
1389.00,0.0511
1388.00,0.0513
1387.00,0.0515
1386.00,0.0515
1385.00,0.0515
1384.00,0.0514
1383.00,0.0514
1382.00,0.0514
1381.00,0.0512
1380.00,0.0509
1379.00,0.0505
1378.00,0.0501
1377.00,0.0498
1376.00,0.0496
1375.00,0.0494
1374.00,0.0493
1373.00,0.0491
1372.00,0.0487
1371.00,0.0482
1370.00,0.0478
1369.00,0.0475
1368.00,0.0471
1367.00,0.0467
1366.00,0.0462
1365.00,0.0460
1364.00,0.0458
1363.00,0.0455
1362.00,0.0452
1361.00,0.0448
1360.00,0.0444
1359.00,0.0440
1358.00,0.0437
1357.00,0.0436
1356.00,0.0435
1355.00,0.0434
1354.00,0.0433
1353.00,0.0432
1352.00,0.0432
1351.00,0.0431
1350.00,0.0431
1349.00,0.0432
1348.00,0.0432
1347.00,0.0432
1346.00,0.0433
1345.00,0.0434
1344.00,0.0434
1343.00,0.0435
1342.00,0.0436
1341.00,0.0437
1340.00,0.0439
1339.00,0.0439
1338.00,0.0439
1337.00,0.0438
1336.00,0.0436
1335.00,0.0434
1334.00,0.0433
1333.00,0.0432
1332.00,0.0431
1331.00,0.0430
1330.00,0.0429
1329.00,0.0427
1328.00,0.0426
1327.00,0.0424
1326.00,0.0423
1325.00,0.0423
1324.00,0.0422
1323.00,0.0421
1322.00,0.0421
1321.00,0.0420
1320.00,0.0420
1319.00,0.0420
1318.00,0.0420
1317.00,0.0420
1316.00,0.0420
1315.00,0.0420
1314.00,0.0420
1313.00,0.0420
1312.00,0.0419
1311.00,0.0419
1310.00,0.0418
1309.00,0.0418
1308.00,0.0417
1307.00,0.0416
1306.00,0.0415
1305.00,0.0414
1304.00,0.0412
1303.00,0.0410
1302.00,0.0409
1301.00,0.0407
1300.00,0.0406
1299.00,0.0405
1298.00,0.0405
1297.00,0.0403
1296.00,0.0402
1295.00,0.0400
1294.00,0.0399
1293.00,0.0398
1292.00,0.0397
1291.00,0.0397
1290.00,0.0397
1289.00,0.0397
1288.00,0.0396
1287.00,0.0396
1286.00,0.0396
1285.00,0.0397
1284.00,0.0397
1283.00,0.0397
1282.00,0.0397
1281.00,0.0398
1280.00,0.0398
1279.00,0.0399
1278.00,0.0400
1277.00,0.0401
1276.00,0.0402
1275.00,0.0403
1274.00,0.0405
1273.00,0.0407
1272.00,0.0409
1271.00,0.0411
1270.00,0.0414
1269.00,0.0416
1268.00,0.0419
1267.00,0.0422
1266.00,0.0425
1265.00,0.0428
1264.00,0.0430
1263.00,0.0433
1262.00,0.0435
1261.00,0.0437
1260.00,0.0439
1259.00,0.0442
1258.00,0.0445
1257.00,0.0448
1256.00,0.0452
1255.00,0.0456
1254.00,0.0460
1253.00,0.0464
1252.00,0.0467
1251.00,0.0470
1250.00,0.0473
1249.00,0.0474
1248.00,0.0476
1247.00,0.0477
1246.00,0.0479
1245.00,0.0481
1244.00,0.0483
1243.00,0.0485
1242.00,0.0486
1241.00,0.0488
1240.00,0.0489
1239.00,0.0489
1238.00,0.0490
1237.00,0.0490
1236.00,0.0489
1235.00,0.0488
1234.00,0.0487
1233.00,0.0486
1232.00,0.0484
1231.00,0.0482
1230.00,0.0480
1229.00,0.0477
1228.00,0.0475
1227.00,0.0472
1226.00,0.0469
1225.00,0.0467
1224.00,0.0464
1223.00,0.0461
1222.00,0.0458
1221.00,0.0455
1220.00,0.0452
1219.00,0.0449
1218.00,0.0446
1217.00,0.0443
1216.00,0.0440
1215.00,0.0437
1214.00,0.0433
1213.00,0.0430
1212.00,0.0427
1211.00,0.0424
1210.00,0.0420
1209.00,0.0417
1208.00,0.0414
1207.00,0.0410
1206.00,0.0407
1205.00,0.0403
1204.00,0.0399
1203.00,0.0395
1202.00,0.0392
1201.00,0.0388
1200.00,0.0384
1199.00,0.0380
1198.00,0.0376
1197.00,0.0372
1196.00,0.0368
1195.00,0.0365
1194.00,0.0362
1193.00,0.0359
1192.00,0.0357
1191.00,0.0355
1190.00,0.0354
1189.00,0.0354
1188.00,0.0353
1187.00,0.0353
1186.00,0.0353
1185.00,0.0353
1184.00,0.0354
1183.00,0.0356
1182.00,0.0358
1181.00,0.0360
1180.00,0.0363
1179.00,0.0366
1178.00,0.0370
1177.00,0.0374
1176.00,0.0379
1175.00,0.0384
1174.00,0.0389
1173.00,0.0394
1172.00,0.0399
1171.00,0.0404
1170.00,0.0409
1169.00,0.0413
1168.00,0.0417
1167.00,0.0421
1166.00,0.0424
1165.00,0.0427
1164.00,0.0429
1163.00,0.0430
1162.00,0.0431
1161.00,0.0431
1160.00,0.0431
1159.00,0.0430
1158.00,0.0429
1157.00,0.0427
1156.00,0.0425
1155.00,0.0423
1154.00,0.0421
1153.00,0.0418
1152.00,0.0415
1151.00,0.0411
1150.00,0.0408
1149.00,0.0404
1148.00,0.0400
1147.00,0.0396
1146.00,0.0393
1145.00,0.0389
1144.00,0.0386
1143.00,0.0383
1142.00,0.0380
1141.00,0.0378
1140.00,0.0376
1139.00,0.0374
1138.00,0.0372
1137.00,0.0370
1136.00,0.0367
1135.00,0.0365
1134.00,0.0364
1133.00,0.0362
1132.00,0.0360
1131.00,0.0359
1130.00,0.0358
1129.00,0.0356
1128.00,0.0355
1127.00,0.0353
1126.00,0.0352
1125.00,0.0350
1124.00,0.0348
1123.00,0.0346
1122.00,0.0345
1121.00,0.0343
1120.00,0.0342
1119.00,0.0340
1118.00,0.0339
1117.00,0.0337
1116.00,0.0335
1115.00,0.0334
1114.00,0.0333
1113.00,0.0332
1112.00,0.0331
1111.00,0.0330
1110.00,0.0330
1109.00,0.0330
1108.00,0.0330
1107.00,0.0330
1106.00,0.0331
1105.00,0.0331
1104.00,0.0332
1103.00,0.0333
1102.00,0.0334
1101.00,0.0335
1100.00,0.0336
1099.00,0.0337
1098.00,0.0339
1097.00,0.0342
1096.00,0.0344
1095.00,0.0347
1094.00,0.0350
1093.00,0.0354
1092.00,0.0358
1091.00,0.0363
1090.00,0.0367
1089.00,0.0372
1088.00,0.0377
1087.00,0.0382
1086.00,0.0387
1085.00,0.0392
1084.00,0.0397
1083.00,0.0402
1082.00,0.0407
1081.00,0.0412
1080.00,0.0416
1079.00,0.0421
1078.00,0.0425
1077.00,0.0429
1076.00,0.0433
1075.00,0.0436
1074.00,0.0440
1073.00,0.0443
1072.00,0.0446
1071.00,0.0447
1070.00,0.0448
1069.00,0.0449
1068.00,0.0449
1067.00,0.0449
1066.00,0.0449
1065.00,0.0448
1064.00,0.0447
1063.00,0.0446
1062.00,0.0445
1061.00,0.0443
1060.00,0.0441
1059.00,0.0438
1058.00,0.0436
1057.00,0.0432
1056.00,0.0429
1055.00,0.0426
1054.00,0.0422
1053.00,0.0419
1052.00,0.0415
1051.00,0.0412
1050.00,0.0409
1049.00,0.0407
1048.00,0.0404
1047.00,0.0400
1046.00,0.0397
1045.00,0.0394
1044.00,0.0391
1043.00,0.0387
1042.00,0.0384
1041.00,0.0381
1040.00,0.0378
1039.00,0.0375
1038.00,0.0372
1037.00,0.0369
1036.00,0.0366
1035.00,0.0363
1034.00,0.0361
1033.00,0.0359
1032.00,0.0356
1031.00,0.0353
1030.00,0.0350
1029.00,0.0347
1028.00,0.0343
1027.00,0.0338
1026.00,0.0334
1025.00,0.0330
1024.00,0.0325
1023.00,0.0321
1022.00,0.0317
1021.00,0.0313
1020.00,0.0309
1019.00,0.0305
1018.00,0.0302
1017.00,0.0299
1016.00,0.0295
1015.00,0.0292
1014.00,0.0289
1013.00,0.0286
1012.00,0.0283
1011.00,0.0281
1010.00,0.0278
1009.00,0.0276
1008.00,0.0274
1007.00,0.0271
1006.00,0.0269
1005.00,0.0267
1004.00,0.0264
1003.00,0.0262
1002.00,0.0260
1001.00,0.0258
1000.00,0.0256
999.00,0.0254
998.00,0.0253
997.00,0.0251
996.00,0.0250
995.00,0.0249
994.00,0.0248
993.00,0.0247
992.00,0.0246
991.00,0.0245
990.00,0.0244
989.00,0.0244
988.00,0.0243
987.00,0.0243
986.00,0.0242
985.00,0.0242
984.00,0.0242
983.00,0.0243
982.00,0.0244
981.00,0.0245
980.00,0.0247
979.00,0.0249
978.00,0.0251
977.00,0.0254
976.00,0.0257
975.00,0.0261
974.00,0.0265
973.00,0.0269
972.00,0.0273
971.00,0.0278
970.00,0.0282
969.00,0.0285
968.00,0.0289
967.00,0.0291
966.00,0.0293
965.00,0.0294
964.00,0.0294
963.00,0.0294
962.00,0.0294
961.00,0.0294
960.00,0.0294
959.00,0.0295
958.00,0.0296
957.00,0.0296
956.00,0.0295
955.00,0.0293
954.00,0.0292
953.00,0.0290
952.00,0.0288
951.00,0.0285
950.00,0.0283
949.00,0.0280
948.00,0.0278
947.00,0.0276
946.00,0.0274
945.00,0.0273
944.00,0.0271
943.00,0.0270
942.00,0.0269
941.00,0.0268
940.00,0.0266
939.00,0.0264
938.00,0.0262
937.00,0.0260
936.00,0.0258
935.00,0.0255
934.00,0.0253
933.00,0.0250
932.00,0.0248
931.00,0.0245
930.00,0.0243
929.00,0.0240
928.00,0.0238
927.00,0.0236
926.00,0.0234
925.00,0.0232
924.00,0.0230
923.00,0.0228
922.00,0.0226
921.00,0.0224
920.00,0.0222
919.00,0.0221
918.00,0.0219
917.00,0.0218
916.00,0.0216
915.00,0.0215
914.00,0.0214
913.00,0.0213
912.00,0.0212
911.00,0.0212
910.00,0.0211
909.00,0.0211
908.00,0.0211
907.00,0.0211
906.00,0.0211
905.00,0.0211
904.00,0.0211
903.00,0.0211
902.00,0.0211
901.00,0.0211
900.00,0.0211
899.00,0.0211
898.00,0.0211
897.00,0.0210
896.00,0.0210
895.00,0.0209
894.00,0.0209
893.00,0.0208
892.00,0.0208
891.00,0.0207
890.00,0.0206
889.00,0.0205
888.00,0.0204
887.00,0.0203
886.00,0.0202
885.00,0.0201
884.00,0.0201
883.00,0.0200
882.00,0.0200
881.00,0.0200
880.00,0.0200
879.00,0.0200
878.00,0.0201
877.00,0.0201
876.00,0.0201
875.00,0.0201
874.00,0.0201
873.00,0.0201
872.00,0.0200
871.00,0.0199
870.00,0.0199
869.00,0.0198
868.00,0.0196
867.00,0.0195
866.00,0.0194
865.00,0.0193
864.00,0.0192
863.00,0.0191
862.00,0.0190
861.00,0.0190
860.00,0.0190
859.00,0.0189
858.00,0.0189
857.00,0.0189
856.00,0.0189
855.00,0.0189
854.00,0.0190
853.00,0.0190
852.00,0.0191
851.00,0.0191
850.00,0.0191
849.00,0.0191
848.00,0.0191
847.00,0.0190
846.00,0.0190
845.00,0.0190
844.00,0.0190
843.00,0.0191
842.00,0.0191
841.00,0.0192
840.00,0.0193
839.00,0.0195
838.00,0.0197
837.00,0.0199
836.00,0.0201
835.00,0.0203
834.00,0.0206
833.00,0.0208
832.00,0.0211
831.00,0.0214
830.00,0.0218
829.00,0.0221
828.00,0.0223
827.00,0.0225
826.00,0.0225
825.00,0.0225
824.00,0.0224
823.00,0.0223
822.00,0.0223
821.00,0.0223
820.00,0.0223
819.00,0.0224
818.00,0.0225
817.00,0.0226
816.00,0.0226
815.00,0.0228
814.00,0.0229
813.00,0.0230
812.00,0.0231
811.00,0.0232
810.00,0.0234
809.00,0.0235
808.00,0.0236
807.00,0.0237
806.00,0.0239
805.00,0.0240
804.00,0.0241
803.00,0.0242
802.00,0.0243
801.00,0.0243
800.00,0.0242
799.00,0.0242
798.00,0.0241
797.00,0.0242
796.00,0.0242
795.00,0.0242
794.00,0.0243
793.00,0.0244
792.00,0.0245
791.00,0.0247
790.00,0.0249
789.00,0.0251
788.00,0.0253
787.00,0.0255
786.00,0.0257
785.00,0.0259
784.00,0.0261
783.00,0.0263
782.00,0.0266
781.00,0.0269
780.00,0.0271
779.00,0.0274
778.00,0.0276
777.00,0.0278
776.00,0.0281
775.00,0.0283
774.00,0.0286
773.00,0.0289
772.00,0.0291
771.00,0.0294
770.00,0.0296
769.00,0.0298
768.00,0.0300
767.00,0.0302
766.00,0.0304
765.00,0.0306
764.00,0.0308
763.00,0.0309
762.00,0.0311
761.00,0.0313
760.00,0.0316
759.00,0.0318
758.00,0.0320
757.00,0.0322
756.00,0.0324
755.00,0.0325
754.00,0.0327
753.00,0.0329
752.00,0.0331
751.00,0.0332
750.00,0.0334
749.00,0.0335
748.00,0.0336
747.00,0.0336
746.00,0.0336
745.00,0.0336
744.00,0.0336
743.00,0.0335
742.00,0.0335
741.00,0.0334
740.00,0.0334
739.00,0.0334
738.00,0.0335
737.00,0.0335
736.00,0.0336
735.00,0.0336
734.00,0.0337
733.00,0.0338
732.00,0.0339
731.00,0.0340
730.00,0.0342
729.00,0.0344
728.00,0.0348
727.00,0.0353
726.00,0.0357
725.00,0.0362
724.00,0.0367
723.00,0.0371
722.00,0.0376
721.00,0.0380
720.00,0.0385
719.00,0.0391
718.00,0.0397
717.00,0.0405
716.00,0.0412
715.00,0.0418
714.00,0.0425
713.00,0.0431
712.00,0.0438
711.00,0.0444
710.00,0.0450
709.00,0.0457
708.00,0.0465
707.00,0.0472
706.00,0.0479
705.00,0.0487
704.00,0.0494
703.00,0.0500
702.00,0.0506
701.00,0.0511
700.00,0.0515
699.00,0.0517
698.00,0.0519
697.00,0.0519
696.00,0.0519
695.00,0.0519
694.00,0.0518
693.00,0.0517
692.00,0.0517
691.00,0.0517
690.00,0.0517
689.00,0.0517
688.00,0.0518
687.00,0.0519
686.00,0.0520
685.00,0.0522
684.00,0.0523
683.00,0.0525
682.00,0.0526
681.00,0.0527
680.00,0.0529
679.00,0.0530
678.00,0.0532
677.00,0.0533
676.00,0.0535
675.00,0.0536
674.00,0.0538
673.00,0.0539
672.00,0.0540
671.00,0.0542
670.00,0.0543
669.00,0.0546
668.00,0.0550
667.00,0.0553
666.00,0.0554
665.00,0.0553
664.00,0.0553
663.00,0.0554
662.00,0.0555
661.00,0.0556
660.00,0.0558
659.00,0.0559
658.00,0.0560
657.00,0.0562
656.00,0.0563
655.00,0.0564
654.00,0.0565
653.00,0.0566
652.00,0.0567
651.00,0.0569
650.00,0.0571
649.00,0.0573
648.00,0.0575
647.00,0.0577
646.00,0.0579
645.00,0.0582
644.00,0.0584
643.00,0.0586
642.00,0.0589
641.00,0.0591
640.00,0.0593
639.00,0.0595
638.00,0.0597
637.00,0.0599
636.00,0.0602
635.00,0.0604
634.00,0.0607
633.00,0.0610
632.00,0.0612
631.00,0.0615
630.00,0.0617
629.00,0.0619
628.00,0.0620
627.00,0.0622
626.00,0.0622
625.00,0.0623
624.00,0.0624
623.00,0.0624
622.00,0.0625
621.00,0.0626
620.00,0.0626
619.00,0.0627
618.00,0.0626
617.00,0.0626
616.00,0.0625
615.00,0.0624
614.00,0.0623
613.00,0.0622
612.00,0.0622
611.00,0.0622
610.00,0.0621
609.00,0.0620
608.00,0.0620
607.00,0.0619
606.00,0.0620
605.00,0.0620
604.00,0.0620
603.00,0.0621
602.00,0.0621
601.00,0.0620
600.00,0.0620
599.00,0.0620
598.00,0.0620
597.00,0.0620
596.00,0.0620
595.00,0.0620
594.00,0.0621
593.00,0.0621
592.00,0.0622
591.00,0.0622
590.00,0.0624
589.00,0.0625
588.00,0.0626
587.00,0.0626
586.00,0.0627
585.00,0.0627
584.00,0.0628
583.00,0.0629
582.00,0.0630
581.00,0.0631
580.00,0.0631
579.00,0.0631
578.00,0.0632
577.00,0.0632
576.00,0.0633
575.00,0.0634
574.00,0.0637
573.00,0.0639
572.00,0.0640
571.00,0.0641
570.00,0.0642
569.00,0.0642
568.00,0.0643
567.00,0.0644
566.00,0.0645
565.00,0.0647
564.00,0.0647
563.00,0.0647
562.00,0.0648
561.00,0.0650
560.00,0.0651
559.00,0.0652
558.00,0.0653
557.00,0.0654
556.00,0.0654
555.00,0.0655
554.00,0.0655
553.00,0.0656
552.00,0.0657
551.00,0.0657
550.00,0.0658
549.00,0.0659
548.00,0.0659
547.00,0.0660
546.00,0.0662
545.00,0.0664
544.00,0.0665
543.00,0.0665
542.00,0.0667
541.00,0.0668
540.00,0.0668
539.00,0.0668
538.00,0.0669
537.00,0.0671
536.00,0.0673
535.00,0.0675
534.00,0.0677
533.00,0.0678
532.00,0.0679
531.00,0.0680
530.00,0.0681
529.00,0.0680
528.00,0.0679
527.00,0.0677
526.00,0.0677
525.00,0.0680
524.00,0.0684
523.00,0.0687
522.00,0.0690
521.00,0.0690
520.00,0.0689
519.00,0.0688
518.00,0.0687
517.00,0.0686
516.00,0.0686
515.00,0.0686
514.00,0.0685
513.00,0.0683
512.00,0.0681
511.00,0.0680
510.00,0.0678
509.00,0.0675
508.00,0.0672
507.00,0.0669
506.00,0.0665
505.00,0.0661
504.00,0.0657
503.00,0.0654
502.00,0.0652
501.00,0.0654
500.00,0.0657
499.00,0.0660
498.00,0.0660
497.00,0.0659
496.00,0.0659
495.00,0.0659
494.00,0.0658
493.00,0.0658
492.00,0.0656
491.00,0.0654
490.00,0.0652
489.00,0.0651
488.00,0.0650
487.00,0.0649
486.00,0.0647
485.00,0.0647
484.00,0.0647
483.00,0.0646
482.00,0.0645
481.00,0.0645
480.00,0.0645
479.00,0.0645
478.00,0.0646
477.00,0.0647
476.00,0.0647
475.00,0.0646
474.00,0.0644
473.00,0.0642
472.00,0.0639
471.00,0.0639
470.00,0.0643
469.00,0.0646
468.00,0.0647
467.00,0.0645
466.00,0.0645
465.00,0.0644
464.00,0.0642
463.00,0.0641
462.00,0.0640
461.00,0.0638
460.00,0.0636
459.00,0.0634
458.00,0.0633
457.00,0.0633
456.00,0.0631
455.00,0.0631
454.00,0.0633
453.00,0.0632
452.00,0.0630
451.00,0.0629
450.00,0.0627
449.00,0.0624
448.00,0.0619
447.00,0.0615
446.00,0.0613
445.00,0.0611
444.00,0.0612
443.00,0.0612
442.00,0.0610
441.00,0.0603
440.00,0.0597
439.00,0.0595
438.00,0.0595
437.00,0.0593
436.00,0.0588
435.00,0.0583
434.00,0.0577
433.00,0.0572
432.00,0.0568
431.00,0.0566
430.00,0.0565
429.00,0.0563
428.00,0.0561
427.00,0.0560
426.00,0.0559
425.00,0.0557
424.00,0.0551
423.00,0.0541
422.00,0.0531
421.00,0.0523
420.00,0.0516
419.00,0.0513
418.00,0.0519
417.00,0.0529
416.00,0.0534
415.00,0.0538
414.00,0.0541
413.00,0.0542
412.00,0.0542
411.00,0.0541
410.00,0.0540
409.00,0.0540
408.00,0.0539
407.00,0.0535
406.00,0.0530
405.00,0.0523
404.00,0.0513
403.00,0.0504
402.00,0.0500
401.00,0.0503
400.00,0.0505
