Created as New Dataset,Sample 265 By YargerLab Date Wednesday, July 24 2024
cm-1,A
4000.00,0.0019
3999.00,0.0019
3998.00,0.0019
3997.00,0.0019
3996.00,0.0019
3995.00,0.0019
3994.00,0.0019
3993.00,0.0019
3992.00,0.0019
3991.00,0.0019
3990.00,0.0019
3989.00,0.0019
3988.00,0.0019
3987.00,0.0019
3986.00,0.0018
3985.00,0.0018
3984.00,0.0018
3983.00,0.0018
3982.00,0.0018
3981.00,0.0018
3980.00,0.0018
3979.00,0.0018
3978.00,0.0018
3977.00,0.0018
3976.00,0.0018
3975.00,0.0018
3974.00,0.0018
3973.00,0.0018
3972.00,0.0018
3971.00,0.0018
3970.00,0.0018
3969.00,0.0018
3968.00,0.0018
3967.00,0.0018
3966.00,0.0018
3965.00,0.0018
3964.00,0.0018
3963.00,0.0018
3962.00,0.0018
3961.00,0.0018
3960.00,0.0018
3959.00,0.0018
3958.00,0.0018
3957.00,0.0018
3956.00,0.0018
3955.00,0.0018
3954.00,0.0018
3953.00,0.0018
3952.00,0.0018
3951.00,0.0018
3950.00,0.0018
3949.00,0.0018
3948.00,0.0018
3947.00,0.0017
3946.00,0.0017
3945.00,0.0017
3944.00,0.0017
3943.00,0.0017
3942.00,0.0017
3941.00,0.0017
3940.00,0.0017
3939.00,0.0017
3938.00,0.0017
3937.00,0.0017
3936.00,0.0017
3935.00,0.0017
3934.00,0.0017
3933.00,0.0017
3932.00,0.0017
3931.00,0.0017
3930.00,0.0017
3929.00,0.0017
3928.00,0.0017
3927.00,0.0017
3926.00,0.0017
3925.00,0.0017
3924.00,0.0017
3923.00,0.0017
3922.00,0.0017
3921.00,0.0016
3920.00,0.0016
3919.00,0.0016
3918.00,0.0017
3917.00,0.0017
3916.00,0.0017
3915.00,0.0017
3914.00,0.0017
3913.00,0.0017
3912.00,0.0017
3911.00,0.0017
3910.00,0.0017
3909.00,0.0016
3908.00,0.0016
3907.00,0.0016
3906.00,0.0016
3905.00,0.0016
3904.00,0.0016
3903.00,0.0016
3902.00,0.0015
3901.00,0.0015
3900.00,0.0015
3899.00,0.0015
3898.00,0.0015
3897.00,0.0016
3896.00,0.0016
3895.00,0.0015
3894.00,0.0015
3893.00,0.0015
3892.00,0.0015
3891.00,0.0015
3890.00,0.0015
3889.00,0.0015
3888.00,0.0015
3887.00,0.0015
3886.00,0.0015
3885.00,0.0015
3884.00,0.0015
3883.00,0.0015
3882.00,0.0015
3881.00,0.0015
3880.00,0.0015
3879.00,0.0015
3878.00,0.0015
3877.00,0.0015
3876.00,0.0015
3875.00,0.0015
3874.00,0.0015
3873.00,0.0015
3872.00,0.0015
3871.00,0.0015
3870.00,0.0015
3869.00,0.0015
3868.00,0.0015
3867.00,0.0015
3866.00,0.0015
3865.00,0.0015
3864.00,0.0015
3863.00,0.0015
3862.00,0.0015
3861.00,0.0015
3860.00,0.0015
3859.00,0.0014
3858.00,0.0014
3857.00,0.0014
3856.00,0.0013
3855.00,0.0013
3854.00,0.0013
3853.00,0.0014
3852.00,0.0014
3851.00,0.0014
3850.00,0.0014
3849.00,0.0014
3848.00,0.0014
3847.00,0.0014
3846.00,0.0014
3845.00,0.0014
3844.00,0.0014
3843.00,0.0014
3842.00,0.0014
3841.00,0.0014
3840.00,0.0013
3839.00,0.0013
3838.00,0.0013
3837.00,0.0013
3836.00,0.0013
3835.00,0.0013
3834.00,0.0014
3833.00,0.0014
3832.00,0.0014
3831.00,0.0014
3830.00,0.0014
3829.00,0.0014
3828.00,0.0014
3827.00,0.0014
3826.00,0.0014
3825.00,0.0014
3824.00,0.0014
3823.00,0.0014
3822.00,0.0014
3821.00,0.0014
3820.00,0.0014
3819.00,0.0013
3818.00,0.0013
3817.00,0.0013
3816.00,0.0013
3815.00,0.0013
3814.00,0.0013
3813.00,0.0013
3812.00,0.0014
3811.00,0.0014
3810.00,0.0014
3809.00,0.0014
3808.00,0.0014
3807.00,0.0014
3806.00,0.0013
3805.00,0.0013
3804.00,0.0013
3803.00,0.0013
3802.00,0.0013
3801.00,0.0013
3800.00,0.0013
3799.00,0.0013
3798.00,0.0013
3797.00,0.0013
3796.00,0.0014
3795.00,0.0014
3794.00,0.0014
3793.00,0.0014
3792.00,0.0014
3791.00,0.0014
3790.00,0.0014
3789.00,0.0013
3788.00,0.0013
3787.00,0.0013
3786.00,0.0014
3785.00,0.0014
3784.00,0.0014
3783.00,0.0014
3782.00,0.0014
3781.00,0.0014
3780.00,0.0014
3779.00,0.0014
3778.00,0.0014
3777.00,0.0014
3776.00,0.0014
3775.00,0.0014
3774.00,0.0014
3773.00,0.0014
3772.00,0.0014
3771.00,0.0014
3770.00,0.0014
3769.00,0.0013
3768.00,0.0013
3767.00,0.0013
3766.00,0.0014
3765.00,0.0014
3764.00,0.0014
3763.00,0.0014
3762.00,0.0014
3761.00,0.0014
3760.00,0.0014
3759.00,0.0014
3758.00,0.0014
3757.00,0.0014
3756.00,0.0013
3755.00,0.0013
3754.00,0.0013
3753.00,0.0013
3752.00,0.0013
3751.00,0.0013
3750.00,0.0013
3749.00,0.0013
3748.00,0.0013
3747.00,0.0013
3746.00,0.0013
3745.00,0.0013
3744.00,0.0013
3743.00,0.0012
3742.00,0.0012
3741.00,0.0013
3740.00,0.0013
3739.00,0.0013
3738.00,0.0013
3737.00,0.0013
3736.00,0.0013
3735.00,0.0013
3734.00,0.0013
3733.00,0.0013
3732.00,0.0013
3731.00,0.0013
3730.00,0.0013
3729.00,0.0013
3728.00,0.0013
3727.00,0.0013
3726.00,0.0013
3725.00,0.0014
3724.00,0.0014
3723.00,0.0014
3722.00,0.0014
3721.00,0.0014
3720.00,0.0014
3719.00,0.0014
3718.00,0.0014
3717.00,0.0014
3716.00,0.0014
3715.00,0.0013
3714.00,0.0013
3713.00,0.0013
3712.00,0.0013
3711.00,0.0014
3710.00,0.0014
3709.00,0.0014
3708.00,0.0014
3707.00,0.0014
3706.00,0.0014
3705.00,0.0014
3704.00,0.0014
3703.00,0.0014
3702.00,0.0014
3701.00,0.0014
3700.00,0.0014
3699.00,0.0014
3698.00,0.0014
3697.00,0.0015
3696.00,0.0015
3695.00,0.0015
3694.00,0.0015
3693.00,0.0015
3692.00,0.0014
3691.00,0.0014
3690.00,0.0014
3689.00,0.0014
3688.00,0.0014
3687.00,0.0014
3686.00,0.0014
3685.00,0.0014
3684.00,0.0014
3683.00,0.0015
3682.00,0.0015
3681.00,0.0015
3680.00,0.0015
3679.00,0.0015
3678.00,0.0014
3677.00,0.0014
3676.00,0.0014
3675.00,0.0014
3674.00,0.0013
3673.00,0.0013
3672.00,0.0014
3671.00,0.0014
3670.00,0.0015
3669.00,0.0015
3668.00,0.0016
3667.00,0.0016
3666.00,0.0016
3665.00,0.0016
3664.00,0.0017
3663.00,0.0017
3662.00,0.0018
3661.00,0.0018
3660.00,0.0019
3659.00,0.0019
3658.00,0.0019
3657.00,0.0019
3656.00,0.0020
3655.00,0.0020
3654.00,0.0021
3653.00,0.0021
3652.00,0.0021
3651.00,0.0022
3650.00,0.0022
3649.00,0.0023
3648.00,0.0024
3647.00,0.0024
3646.00,0.0025
3645.00,0.0026
3644.00,0.0027
3643.00,0.0028
3642.00,0.0029
3641.00,0.0029
3640.00,0.0030
3639.00,0.0031
3638.00,0.0031
3637.00,0.0032
3636.00,0.0033
3635.00,0.0034
3634.00,0.0035
3633.00,0.0036
3632.00,0.0037
3631.00,0.0037
3630.00,0.0038
3629.00,0.0038
3628.00,0.0039
3627.00,0.0040
3626.00,0.0041
3625.00,0.0042
3624.00,0.0043
3623.00,0.0044
3622.00,0.0045
3621.00,0.0045
3620.00,0.0046
3619.00,0.0046
3618.00,0.0047
3617.00,0.0047
3616.00,0.0048
3615.00,0.0049
3614.00,0.0050
3613.00,0.0051
3612.00,0.0051
3611.00,0.0052
3610.00,0.0053
3609.00,0.0053
3608.00,0.0054
3607.00,0.0055
3606.00,0.0056
3605.00,0.0057
3604.00,0.0057
3603.00,0.0058
3602.00,0.0059
3601.00,0.0060
3600.00,0.0060
3599.00,0.0061
3598.00,0.0062
3597.00,0.0062
3596.00,0.0063
3595.00,0.0064
3594.00,0.0065
3593.00,0.0066
3592.00,0.0067
3591.00,0.0067
3590.00,0.0068
3589.00,0.0068
3588.00,0.0069
3587.00,0.0069
3586.00,0.0070
3585.00,0.0071
3584.00,0.0072
3583.00,0.0073
3582.00,0.0074
3581.00,0.0075
3580.00,0.0075
3579.00,0.0076
3578.00,0.0077
3577.00,0.0078
3576.00,0.0079
3575.00,0.0080
3574.00,0.0081
3573.00,0.0082
3572.00,0.0082
3571.00,0.0083
3570.00,0.0084
3569.00,0.0085
3568.00,0.0085
3567.00,0.0085
3566.00,0.0086
3565.00,0.0087
3564.00,0.0088
3563.00,0.0089
3562.00,0.0090
3561.00,0.0091
3560.00,0.0092
3559.00,0.0093
3558.00,0.0094
3557.00,0.0094
3556.00,0.0095
3555.00,0.0096
3554.00,0.0097
3553.00,0.0098
3552.00,0.0099
3551.00,0.0100
3550.00,0.0101
3549.00,0.0101
3548.00,0.0102
3547.00,0.0103
3546.00,0.0104
3545.00,0.0104
3544.00,0.0105
3543.00,0.0106
3542.00,0.0107
3541.00,0.0108
3540.00,0.0108
3539.00,0.0109
3538.00,0.0110
3537.00,0.0111
3536.00,0.0112
3535.00,0.0112
3534.00,0.0113
3533.00,0.0114
3532.00,0.0114
3531.00,0.0115
3530.00,0.0116
3529.00,0.0116
3528.00,0.0117
3527.00,0.0118
3526.00,0.0119
3525.00,0.0119
3524.00,0.0120
3523.00,0.0121
3522.00,0.0122
3521.00,0.0122
3520.00,0.0123
3519.00,0.0124
3518.00,0.0124
3517.00,0.0125
3516.00,0.0126
3515.00,0.0127
3514.00,0.0128
3513.00,0.0128
3512.00,0.0129
3511.00,0.0130
3510.00,0.0130
3509.00,0.0131
3508.00,0.0131
3507.00,0.0132
3506.00,0.0133
3505.00,0.0133
3504.00,0.0134
3503.00,0.0135
3502.00,0.0135
3501.00,0.0136
3500.00,0.0136
3499.00,0.0137
3498.00,0.0138
3497.00,0.0138
3496.00,0.0139
3495.00,0.0140
3494.00,0.0140
3493.00,0.0141
3492.00,0.0141
3491.00,0.0142
3490.00,0.0143
3489.00,0.0143
3488.00,0.0144
3487.00,0.0144
3486.00,0.0145
3485.00,0.0146
3484.00,0.0146
3483.00,0.0147
3482.00,0.0147
3481.00,0.0148
3480.00,0.0148
3479.00,0.0149
3478.00,0.0149
3477.00,0.0150
3476.00,0.0150
3475.00,0.0151
3474.00,0.0151
3473.00,0.0152
3472.00,0.0153
3471.00,0.0154
3470.00,0.0154
3469.00,0.0155
3468.00,0.0155
3467.00,0.0156
3466.00,0.0156
3465.00,0.0157
3464.00,0.0158
3463.00,0.0158
3462.00,0.0159
3461.00,0.0159
3460.00,0.0159
3459.00,0.0160
3458.00,0.0160
3457.00,0.0161
3456.00,0.0161
3455.00,0.0162
3454.00,0.0163
3453.00,0.0163
3452.00,0.0164
3451.00,0.0165
3450.00,0.0165
3449.00,0.0166
3448.00,0.0166
3447.00,0.0167
3446.00,0.0167
3445.00,0.0168
3444.00,0.0169
3443.00,0.0169
3442.00,0.0170
3441.00,0.0171
3440.00,0.0172
3439.00,0.0172
3438.00,0.0173
3437.00,0.0174
3436.00,0.0175
3435.00,0.0176
3434.00,0.0176
3433.00,0.0177
3432.00,0.0178
3431.00,0.0179
3430.00,0.0179
3429.00,0.0180
3428.00,0.0181
3427.00,0.0182
3426.00,0.0183
3425.00,0.0184
3424.00,0.0185
3423.00,0.0185
3422.00,0.0186
3421.00,0.0187
3420.00,0.0188
3419.00,0.0189
3418.00,0.0190
3417.00,0.0191
3416.00,0.0192
3415.00,0.0193
3414.00,0.0194
3413.00,0.0196
3412.00,0.0196
3411.00,0.0197
3410.00,0.0198
3409.00,0.0199
3408.00,0.0200
3407.00,0.0201
3406.00,0.0202
3405.00,0.0203
3404.00,0.0204
3403.00,0.0205
3402.00,0.0206
3401.00,0.0207
3400.00,0.0208
3399.00,0.0209
3398.00,0.0209
3397.00,0.0210
3396.00,0.0211
3395.00,0.0212
3394.00,0.0213
3393.00,0.0214
3392.00,0.0215
3391.00,0.0216
3390.00,0.0217
3389.00,0.0217
3388.00,0.0218
3387.00,0.0219
3386.00,0.0220
3385.00,0.0221
3384.00,0.0222
3383.00,0.0223
3382.00,0.0224
3381.00,0.0226
3380.00,0.0227
3379.00,0.0228
3378.00,0.0229
3377.00,0.0230
3376.00,0.0231
3375.00,0.0232
3374.00,0.0233
3373.00,0.0235
3372.00,0.0236
3371.00,0.0237
3370.00,0.0239
3369.00,0.0240
3368.00,0.0241
3367.00,0.0243
3366.00,0.0244
3365.00,0.0246
3364.00,0.0247
3363.00,0.0249
3362.00,0.0251
3361.00,0.0252
3360.00,0.0254
3359.00,0.0256
3358.00,0.0258
3357.00,0.0259
3356.00,0.0261
3355.00,0.0263
3354.00,0.0265
3353.00,0.0267
3352.00,0.0269
3351.00,0.0272
3350.00,0.0274
3349.00,0.0276
3348.00,0.0279
3347.00,0.0281
3346.00,0.0283
3345.00,0.0286
3344.00,0.0288
3343.00,0.0291
3342.00,0.0293
3341.00,0.0296
3340.00,0.0299
3339.00,0.0302
3338.00,0.0305
3337.00,0.0308
3336.00,0.0311
3335.00,0.0314
3334.00,0.0317
3333.00,0.0321
3332.00,0.0324
3331.00,0.0327
3330.00,0.0331
3329.00,0.0334
3328.00,0.0338
3327.00,0.0342
3326.00,0.0345
3325.00,0.0349
3324.00,0.0353
3323.00,0.0357
3322.00,0.0360
3321.00,0.0364
3320.00,0.0368
3319.00,0.0372
3318.00,0.0376
3317.00,0.0381
3316.00,0.0385
3315.00,0.0389
3314.00,0.0393
3313.00,0.0398
3312.00,0.0402
3311.00,0.0406
3310.00,0.0410
3309.00,0.0414
3308.00,0.0419
3307.00,0.0423
3306.00,0.0427
3305.00,0.0431
3304.00,0.0435
3303.00,0.0439
3302.00,0.0443
3301.00,0.0447
3300.00,0.0450
3299.00,0.0454
3298.00,0.0457
3297.00,0.0460
3296.00,0.0463
3295.00,0.0466
3294.00,0.0469
3293.00,0.0471
3292.00,0.0473
3291.00,0.0475
3290.00,0.0476
3289.00,0.0477
3288.00,0.0478
3287.00,0.0479
3286.00,0.0479
3285.00,0.0479
3284.00,0.0478
3283.00,0.0478
3282.00,0.0477
3281.00,0.0475
3280.00,0.0474
3279.00,0.0472
3278.00,0.0470
3277.00,0.0467
3276.00,0.0464
3275.00,0.0461
3274.00,0.0458
3273.00,0.0454
3272.00,0.0451
3271.00,0.0447
3270.00,0.0443
3269.00,0.0439
3268.00,0.0435
3267.00,0.0431
3266.00,0.0427
3265.00,0.0423
3264.00,0.0419
3263.00,0.0415
3262.00,0.0410
3261.00,0.0406
3260.00,0.0402
3259.00,0.0399
3258.00,0.0395
3257.00,0.0391
3256.00,0.0387
3255.00,0.0383
3254.00,0.0380
3253.00,0.0376
3252.00,0.0373
3251.00,0.0370
3250.00,0.0366
3249.00,0.0363
3248.00,0.0360
3247.00,0.0357
3246.00,0.0354
3245.00,0.0351
3244.00,0.0348
3243.00,0.0345
3242.00,0.0342
3241.00,0.0340
3240.00,0.0337
3239.00,0.0334
3238.00,0.0332
3237.00,0.0330
3236.00,0.0327
3235.00,0.0325
3234.00,0.0322
3233.00,0.0320
3232.00,0.0318
3231.00,0.0316
3230.00,0.0314
3229.00,0.0312
3228.00,0.0309
3227.00,0.0307
3226.00,0.0305
3225.00,0.0303
3224.00,0.0301
3223.00,0.0299
3222.00,0.0297
3221.00,0.0295
3220.00,0.0293
3219.00,0.0291
3218.00,0.0289
3217.00,0.0287
3216.00,0.0285
3215.00,0.0284
3214.00,0.0282
3213.00,0.0280
3212.00,0.0278
3211.00,0.0276
3210.00,0.0274
3209.00,0.0272
3208.00,0.0270
3207.00,0.0268
3206.00,0.0266
3205.00,0.0264
3204.00,0.0263
3203.00,0.0261
3202.00,0.0259
3201.00,0.0257
3200.00,0.0255
3199.00,0.0253
3198.00,0.0251
3197.00,0.0249
3196.00,0.0247
3195.00,0.0245
3194.00,0.0243
3193.00,0.0241
3192.00,0.0239
3191.00,0.0238
3190.00,0.0235
3189.00,0.0234
3188.00,0.0232
3187.00,0.0230
3186.00,0.0228
3185.00,0.0226
3184.00,0.0224
3183.00,0.0222
3182.00,0.0220
3181.00,0.0218
3180.00,0.0216
3179.00,0.0214
3178.00,0.0212
3177.00,0.0211
3176.00,0.0209
3175.00,0.0207
3174.00,0.0205
3173.00,0.0204
3172.00,0.0202
3171.00,0.0200
3170.00,0.0198
3169.00,0.0197
3168.00,0.0195
3167.00,0.0193
3166.00,0.0192
3165.00,0.0190
3164.00,0.0189
3163.00,0.0187
3162.00,0.0186
3161.00,0.0184
3160.00,0.0183
3159.00,0.0181
3158.00,0.0179
3157.00,0.0178
3156.00,0.0177
3155.00,0.0175
3154.00,0.0174
3153.00,0.0173
3152.00,0.0171
3151.00,0.0170
3150.00,0.0169
3149.00,0.0168
3148.00,0.0167
3147.00,0.0166
3146.00,0.0165
3145.00,0.0164
3144.00,0.0163
3143.00,0.0162
3142.00,0.0161
3141.00,0.0160
3140.00,0.0159
3139.00,0.0158
3138.00,0.0157
3137.00,0.0157
3136.00,0.0156
3135.00,0.0155
3134.00,0.0155
3133.00,0.0154
3132.00,0.0154
3131.00,0.0153
3130.00,0.0153
3129.00,0.0152
3128.00,0.0152
3127.00,0.0151
3126.00,0.0151
3125.00,0.0151
3124.00,0.0151
3123.00,0.0150
3122.00,0.0150
3121.00,0.0150
3120.00,0.0150
3119.00,0.0150
3118.00,0.0150
3117.00,0.0150
3116.00,0.0150
3115.00,0.0150
3114.00,0.0150
3113.00,0.0151
3112.00,0.0151
3111.00,0.0151
3110.00,0.0151
3109.00,0.0151
3108.00,0.0152
3107.00,0.0152
3106.00,0.0153
3105.00,0.0153
3104.00,0.0154
3103.00,0.0154
3102.00,0.0155
3101.00,0.0155
3100.00,0.0155
3099.00,0.0156
3098.00,0.0156
3097.00,0.0157
3096.00,0.0157
3095.00,0.0158
3094.00,0.0158
3093.00,0.0159
3092.00,0.0159
3091.00,0.0160
3090.00,0.0160
3089.00,0.0161
3088.00,0.0161
3087.00,0.0161
3086.00,0.0162
3085.00,0.0162
3084.00,0.0163
3083.00,0.0163
3082.00,0.0163
3081.00,0.0163
3080.00,0.0164
3079.00,0.0164
3078.00,0.0164
3077.00,0.0164
3076.00,0.0165
3075.00,0.0165
3074.00,0.0165
3073.00,0.0164
3072.00,0.0164
3071.00,0.0164
3070.00,0.0164
3069.00,0.0163
3068.00,0.0163
3067.00,0.0162
3066.00,0.0161
3065.00,0.0161
3064.00,0.0160
3063.00,0.0159
3062.00,0.0159
3061.00,0.0158
3060.00,0.0157
3059.00,0.0156
3058.00,0.0155
3057.00,0.0154
3056.00,0.0152
3055.00,0.0151
3054.00,0.0150
3053.00,0.0148
3052.00,0.0147
3051.00,0.0146
3050.00,0.0145
3049.00,0.0144
3048.00,0.0143
3047.00,0.0141
3046.00,0.0140
3045.00,0.0139
3044.00,0.0137
3043.00,0.0136
3042.00,0.0135
3041.00,0.0133
3040.00,0.0132
3039.00,0.0132
3038.00,0.0131
3037.00,0.0129
3036.00,0.0128
3035.00,0.0127
3034.00,0.0126
3033.00,0.0125
3032.00,0.0124
3031.00,0.0123
3030.00,0.0122
3029.00,0.0121
3028.00,0.0120
3027.00,0.0119
3026.00,0.0118
3025.00,0.0117
3024.00,0.0116
3023.00,0.0115
3022.00,0.0114
3021.00,0.0113
3020.00,0.0112
3019.00,0.0111
3018.00,0.0110
3017.00,0.0108
3016.00,0.0107
3015.00,0.0106
3014.00,0.0105
3013.00,0.0103
3012.00,0.0102
3011.00,0.0102
3010.00,0.0101
3009.00,0.0099
3008.00,0.0098
3007.00,0.0097
3006.00,0.0096
3005.00,0.0094
3004.00,0.0093
3003.00,0.0092
3002.00,0.0090
3001.00,0.0090
3000.00,0.0089
2999.00,0.0088
2998.00,0.0088
2997.00,0.0088
2996.00,0.0088
2995.00,0.0088
2994.00,0.0088
2993.00,0.0088
2992.00,0.0089
2991.00,0.0089
2990.00,0.0090
2989.00,0.0090
2988.00,0.0091
2987.00,0.0091
2986.00,0.0090
2985.00,0.0087
2984.00,0.0084
2983.00,0.0081
2982.00,0.0079
2981.00,0.0078
2980.00,0.0080
2979.00,0.0083
2978.00,0.0086
2977.00,0.0089
2976.00,0.0092
2975.00,0.0093
2974.00,0.0094
2973.00,0.0094
2972.00,0.0094
2971.00,0.0095
2970.00,0.0098
2969.00,0.0100
2968.00,0.0103
2967.00,0.0105
2966.00,0.0106
2965.00,0.0108
2964.00,0.0109
2963.00,0.0110
2962.00,0.0111
2961.00,0.0112
2960.00,0.0112
2959.00,0.0113
2958.00,0.0114
2957.00,0.0114
2956.00,0.0115
2955.00,0.0115
2954.00,0.0115
2953.00,0.0116
2952.00,0.0116
2951.00,0.0117
2950.00,0.0117
2949.00,0.0118
2948.00,0.0120
2947.00,0.0122
2946.00,0.0124
2945.00,0.0126
2944.00,0.0129
2943.00,0.0132
2942.00,0.0134
2941.00,0.0137
2940.00,0.0139
2939.00,0.0142
2938.00,0.0145
2937.00,0.0148
2936.00,0.0150
2935.00,0.0153
2934.00,0.0156
2933.00,0.0158
2932.00,0.0160
2931.00,0.0163
2930.00,0.0166
2929.00,0.0168
2928.00,0.0171
2927.00,0.0174
2926.00,0.0177
2925.00,0.0180
2924.00,0.0183
2923.00,0.0187
2922.00,0.0190
2921.00,0.0193
2920.00,0.0195
2919.00,0.0196
2918.00,0.0196
2917.00,0.0193
2916.00,0.0188
2915.00,0.0182
2914.00,0.0174
2913.00,0.0165
2912.00,0.0157
2911.00,0.0149
2910.00,0.0143
2909.00,0.0137
2908.00,0.0132
2907.00,0.0128
2906.00,0.0125
2905.00,0.0122
2904.00,0.0120
2903.00,0.0117
2902.00,0.0115
2901.00,0.0113
2900.00,0.0111
2899.00,0.0109
2898.00,0.0107
2897.00,0.0106
2896.00,0.0104
2895.00,0.0102
2894.00,0.0100
2893.00,0.0099
2892.00,0.0097
2891.00,0.0096
2890.00,0.0094
2889.00,0.0093
2888.00,0.0093
2887.00,0.0092
2886.00,0.0091
2885.00,0.0091
2884.00,0.0091
2883.00,0.0091
2882.00,0.0092
2881.00,0.0092
2880.00,0.0094
2879.00,0.0094
2878.00,0.0095
2877.00,0.0096
2876.00,0.0096
2875.00,0.0096
2874.00,0.0096
2873.00,0.0096
2872.00,0.0096
2871.00,0.0095
2870.00,0.0094
2869.00,0.0094
2868.00,0.0093
2867.00,0.0092
2866.00,0.0092
2865.00,0.0092
2864.00,0.0092
2863.00,0.0093
2862.00,0.0093
2861.00,0.0095
2860.00,0.0096
2859.00,0.0098
2858.00,0.0101
2857.00,0.0104
2856.00,0.0107
2855.00,0.0112
2854.00,0.0116
2853.00,0.0121
2852.00,0.0126
2851.00,0.0129
2850.00,0.0129
2849.00,0.0127
2848.00,0.0122
2847.00,0.0115
2846.00,0.0108
2845.00,0.0100
2844.00,0.0094
2843.00,0.0089
2842.00,0.0085
2841.00,0.0081
2840.00,0.0078
2839.00,0.0076
2838.00,0.0073
2837.00,0.0072
2836.00,0.0071
2835.00,0.0069
2834.00,0.0068
2833.00,0.0067
2832.00,0.0067
2831.00,0.0066
2830.00,0.0066
2829.00,0.0065
2828.00,0.0065
2827.00,0.0064
2826.00,0.0064
2825.00,0.0063
2824.00,0.0063
2823.00,0.0063
2822.00,0.0062
2821.00,0.0062
2820.00,0.0062
2819.00,0.0062
2818.00,0.0061
2817.00,0.0061
2816.00,0.0061
2815.00,0.0060
2814.00,0.0060
2813.00,0.0060
2812.00,0.0059
2811.00,0.0059
2810.00,0.0059
2809.00,0.0058
2808.00,0.0058
2807.00,0.0058
2806.00,0.0057
2805.00,0.0057
2804.00,0.0057
2803.00,0.0057
2802.00,0.0056
2801.00,0.0056
2800.00,0.0055
2799.00,0.0055
2798.00,0.0055
2797.00,0.0054
2796.00,0.0054
2795.00,0.0054
2794.00,0.0053
2793.00,0.0053
2792.00,0.0053
2791.00,0.0052
2790.00,0.0052
2789.00,0.0052
2788.00,0.0051
2787.00,0.0051
2786.00,0.0051
2785.00,0.0051
2784.00,0.0050
2783.00,0.0050
2782.00,0.0050
2781.00,0.0050
2780.00,0.0049
2779.00,0.0049
2778.00,0.0049
2777.00,0.0049
2776.00,0.0048
2775.00,0.0048
2774.00,0.0048
2773.00,0.0048
2772.00,0.0047
2771.00,0.0047
2770.00,0.0047
2769.00,0.0047
2768.00,0.0046
2767.00,0.0046
2766.00,0.0046
2765.00,0.0046
2764.00,0.0045
2763.00,0.0045
2762.00,0.0045
2761.00,0.0045
2760.00,0.0044
2759.00,0.0044
2758.00,0.0044
2757.00,0.0044
2756.00,0.0043
2755.00,0.0043
2754.00,0.0043
2753.00,0.0043
2752.00,0.0042
2751.00,0.0042
2750.00,0.0042
2749.00,0.0042
2748.00,0.0041
2747.00,0.0041
2746.00,0.0041
2745.00,0.0041
2744.00,0.0040
2743.00,0.0040
2742.00,0.0040
2741.00,0.0040
2740.00,0.0040
2739.00,0.0039
2738.00,0.0039
2737.00,0.0039
2736.00,0.0039
2735.00,0.0038
2734.00,0.0038
2733.00,0.0038
2732.00,0.0038
2731.00,0.0038
2730.00,0.0038
2729.00,0.0037
2728.00,0.0037
2727.00,0.0037
2726.00,0.0037
2725.00,0.0036
2724.00,0.0036
2723.00,0.0036
2722.00,0.0036
2721.00,0.0036
2720.00,0.0035
2719.00,0.0035
2718.00,0.0035
2717.00,0.0035
2716.00,0.0034
2715.00,0.0034
2714.00,0.0034
2713.00,0.0034
2712.00,0.0033
2711.00,0.0033
2710.00,0.0033
2709.00,0.0033
2708.00,0.0033
2707.00,0.0033
2706.00,0.0032
2705.00,0.0032
2704.00,0.0032
2703.00,0.0032
2702.00,0.0032
2701.00,0.0031
2700.00,0.0031
2699.00,0.0031
2698.00,0.0031
2697.00,0.0031
2696.00,0.0031
2695.00,0.0031
2694.00,0.0031
2693.00,0.0031
2692.00,0.0030
2691.00,0.0030
2690.00,0.0030
2689.00,0.0030
2688.00,0.0030
2687.00,0.0029
2686.00,0.0029
2685.00,0.0029
2684.00,0.0029
2683.00,0.0029
2682.00,0.0029
2681.00,0.0028
2680.00,0.0028
2679.00,0.0028
2678.00,0.0028
2677.00,0.0028
2676.00,0.0028
2675.00,0.0028
2674.00,0.0028
2673.00,0.0027
2672.00,0.0027
2671.00,0.0027
2670.00,0.0027
2669.00,0.0027
2668.00,0.0027
2667.00,0.0027
2666.00,0.0027
2665.00,0.0026
2664.00,0.0026
2663.00,0.0026
2662.00,0.0027
2661.00,0.0027
2660.00,0.0027
2659.00,0.0026
2658.00,0.0026
2657.00,0.0026
2656.00,0.0026
2655.00,0.0026
2654.00,0.0026
2653.00,0.0026
2652.00,0.0026
2651.00,0.0026
2650.00,0.0026
2649.00,0.0026
2648.00,0.0026
2647.00,0.0026
2646.00,0.0026
2645.00,0.0026
2644.00,0.0026
2643.00,0.0026
2642.00,0.0026
2641.00,0.0026
2640.00,0.0027
2639.00,0.0027
2638.00,0.0027
2637.00,0.0027
2636.00,0.0026
2635.00,0.0026
2634.00,0.0026
2633.00,0.0026
2632.00,0.0026
2631.00,0.0027
2630.00,0.0027
2629.00,0.0027
2628.00,0.0027
2627.00,0.0026
2626.00,0.0026
2625.00,0.0026
2624.00,0.0026
2623.00,0.0026
2622.00,0.0026
2621.00,0.0026
2620.00,0.0026
2619.00,0.0026
2618.00,0.0026
2617.00,0.0026
2616.00,0.0026
2615.00,0.0026
2614.00,0.0026
2613.00,0.0026
2612.00,0.0026
2611.00,0.0026
2610.00,0.0026
2609.00,0.0026
2608.00,0.0026
2607.00,0.0026
2606.00,0.0026
2605.00,0.0026
2604.00,0.0026
2603.00,0.0025
2602.00,0.0025
2601.00,0.0025
2600.00,0.0025
2599.00,0.0025
2598.00,0.0025
2597.00,0.0024
2596.00,0.0024
2595.00,0.0024
2594.00,0.0024
2593.00,0.0024
2592.00,0.0024
2591.00,0.0024
2590.00,0.0023
2589.00,0.0023
2588.00,0.0023
2587.00,0.0023
2586.00,0.0023
2585.00,0.0023
2584.00,0.0023
2583.00,0.0023
2582.00,0.0022
2581.00,0.0022
2580.00,0.0022
2579.00,0.0022
2578.00,0.0022
2577.00,0.0022
2576.00,0.0022
2575.00,0.0022
2574.00,0.0022
2573.00,0.0021
2572.00,0.0021
2571.00,0.0021
2570.00,0.0021
2569.00,0.0021
2568.00,0.0021
2567.00,0.0021
2566.00,0.0021
2565.00,0.0020
2564.00,0.0020
2563.00,0.0020
2562.00,0.0020
2561.00,0.0020
2560.00,0.0020
2559.00,0.0020
2558.00,0.0020
2557.00,0.0020
2556.00,0.0019
2555.00,0.0019
2554.00,0.0019
2553.00,0.0019
2552.00,0.0019
2551.00,0.0019
2550.00,0.0019
2549.00,0.0019
2548.00,0.0019
2547.00,0.0018
2546.00,0.0018
2545.00,0.0018
2544.00,0.0018
2543.00,0.0018
2542.00,0.0018
2541.00,0.0018
2540.00,0.0018
2539.00,0.0018
2538.00,0.0018
2537.00,0.0018
2536.00,0.0018
2535.00,0.0018
2534.00,0.0018
2533.00,0.0018
2532.00,0.0018
2531.00,0.0018
2530.00,0.0018
2529.00,0.0018
2528.00,0.0018
2527.00,0.0018
2526.00,0.0018
2525.00,0.0018
2524.00,0.0018
2523.00,0.0017
2522.00,0.0017
2521.00,0.0017
2520.00,0.0017
2519.00,0.0017
2518.00,0.0017
2517.00,0.0017
2516.00,0.0017
2515.00,0.0017
2514.00,0.0017
2513.00,0.0017
2512.00,0.0017
2511.00,0.0017
2510.00,0.0017
2509.00,0.0017
2508.00,0.0017
2507.00,0.0016
2506.00,0.0016
2505.00,0.0016
2504.00,0.0016
2503.00,0.0016
2502.00,0.0016
2501.00,0.0016
2500.00,0.0016
2499.00,0.0016
2498.00,0.0016
2497.00,0.0016
2496.00,0.0016
2495.00,0.0016
2494.00,0.0016
2493.00,0.0016
2492.00,0.0016
2491.00,0.0016
2490.00,0.0016
2489.00,0.0016
2488.00,0.0016
2487.00,0.0016
2486.00,0.0015
2485.00,0.0015
2484.00,0.0015
2483.00,0.0015
2482.00,0.0015
2481.00,0.0015
2480.00,0.0015
2479.00,0.0015
2478.00,0.0015
2477.00,0.0015
2476.00,0.0015
2475.00,0.0015
2474.00,0.0015
2473.00,0.0014
2472.00,0.0014
2471.00,0.0014
2470.00,0.0014
2469.00,0.0014
2468.00,0.0014
2467.00,0.0014
2466.00,0.0014
2465.00,0.0014
2464.00,0.0014
2463.00,0.0014
2462.00,0.0014
2461.00,0.0014
2460.00,0.0014
2459.00,0.0014
2458.00,0.0014
2457.00,0.0014
2456.00,0.0014
2455.00,0.0014
2454.00,0.0013
2453.00,0.0013
2452.00,0.0013
2451.00,0.0013
2450.00,0.0013
2449.00,0.0013
2448.00,0.0013
2447.00,0.0013
2446.00,0.0013
2445.00,0.0013
2444.00,0.0013
2443.00,0.0012
2442.00,0.0012
2441.00,0.0012
2440.00,0.0012
2439.00,0.0012
2438.00,0.0012
2437.00,0.0012
2436.00,0.0012
2435.00,0.0012
2434.00,0.0012
2433.00,0.0012
2432.00,0.0012
2431.00,0.0012
2430.00,0.0012
2429.00,0.0012
2428.00,0.0012
2427.00,0.0011
2426.00,0.0011
2425.00,0.0011
2424.00,0.0011
2423.00,0.0011
2422.00,0.0011
2421.00,0.0011
2420.00,0.0011
2419.00,0.0010
2418.00,0.0010
2417.00,0.0010
2416.00,0.0010
2415.00,0.0010
2414.00,0.0010
2413.00,0.0010
2412.00,0.0010
2411.00,0.0009
2410.00,0.0009
2409.00,0.0009
2408.00,0.0009
2407.00,0.0008
2406.00,0.0008
2405.00,0.0008
2404.00,0.0009
2403.00,0.0009
2402.00,0.0009
2401.00,0.0009
2400.00,0.0009
2399.00,0.0008
2398.00,0.0008
2397.00,0.0008
2396.00,0.0008
2395.00,0.0008
2394.00,0.0008
2393.00,0.0008
2392.00,0.0008
2391.00,0.0007
2390.00,0.0007
2389.00,0.0007
2388.00,0.0007
2387.00,0.0007
2386.00,0.0007
2385.00,0.0007
2384.00,0.0006
2383.00,0.0006
2382.00,0.0006
2381.00,0.0006
2380.00,0.0006
2379.00,0.0007
2378.00,0.0007
2377.00,0.0006
2376.00,0.0006
2375.00,0.0006
2374.00,0.0006
2373.00,0.0006
2372.00,0.0006
2371.00,0.0006
2370.00,0.0006
2369.00,0.0006
2368.00,0.0006
2367.00,0.0006
2366.00,0.0006
2365.00,0.0006
2364.00,0.0006
2363.00,0.0006
2362.00,0.0005
2361.00,0.0005
2360.00,0.0005
2359.00,0.0005
2358.00,0.0005
2357.00,0.0005
2356.00,0.0005
2355.00,0.0005
2354.00,0.0005
2353.00,0.0005
2352.00,0.0005
2351.00,0.0005
2350.00,0.0005
2349.00,0.0005
2348.00,0.0005
2347.00,0.0005
2346.00,0.0005
2345.00,0.0005
2344.00,0.0005
2343.00,0.0005
2342.00,0.0005
2341.00,0.0005
2340.00,0.0005
2339.00,0.0005
2338.00,0.0004
2337.00,0.0004
2336.00,0.0004
2335.00,0.0004
2334.00,0.0004
2333.00,0.0004
2332.00,0.0004
2331.00,0.0004
2330.00,0.0004
2329.00,0.0005
2328.00,0.0005
2327.00,0.0006
2326.00,0.0006
2325.00,0.0005
2324.00,0.0005
2323.00,0.0004
2322.00,0.0004
2321.00,0.0004
2320.00,0.0004
2319.00,0.0005
2318.00,0.0005
2317.00,0.0005
2316.00,0.0005
2315.00,0.0005
2314.00,0.0005
2313.00,0.0005
2312.00,0.0005
2311.00,0.0004
2310.00,0.0004
2309.00,0.0005
2308.00,0.0005
2307.00,0.0005
2306.00,0.0005
2305.00,0.0005
2304.00,0.0005
2303.00,0.0005
2302.00,0.0005
2301.00,0.0005
2300.00,0.0005
2299.00,0.0005
2298.00,0.0005
2297.00,0.0005
2296.00,0.0005
2295.00,0.0005
2294.00,0.0005
2293.00,0.0006
2292.00,0.0006
2291.00,0.0006
2290.00,0.0006
2289.00,0.0006
2288.00,0.0006
2287.00,0.0006
2286.00,0.0006
2285.00,0.0006
2284.00,0.0006
2283.00,0.0006
2282.00,0.0006
2281.00,0.0006
2280.00,0.0006
2279.00,0.0006
2278.00,0.0006
2277.00,0.0006
2276.00,0.0006
2275.00,0.0006
2274.00,0.0006
2273.00,0.0006
2272.00,0.0006
2271.00,0.0005
2270.00,0.0005
2269.00,0.0004
2268.00,0.0004
2267.00,0.0004
2266.00,0.0004
2265.00,0.0004
2264.00,0.0005
2263.00,0.0005
2262.00,0.0005
2261.00,0.0005
2260.00,0.0006
2259.00,0.0005
2258.00,0.0005
2257.00,0.0004
2256.00,0.0004
2255.00,0.0004
2254.00,0.0004
2253.00,0.0004
2252.00,0.0005
2251.00,0.0005
2250.00,0.0004
2249.00,0.0004
2248.00,0.0004
2247.00,0.0004
2246.00,0.0004
2245.00,0.0004
2244.00,0.0004
2243.00,0.0004
2242.00,0.0005
2241.00,0.0005
2240.00,0.0005
2239.00,0.0005
2238.00,0.0004
2237.00,0.0004
2236.00,0.0004
2235.00,0.0004
2234.00,0.0004
2233.00,0.0004
2232.00,0.0004
2231.00,0.0004
2230.00,0.0003
2229.00,0.0003
2228.00,0.0003
2227.00,0.0003
2226.00,0.0003
2225.00,0.0003
2224.00,0.0003
2223.00,0.0003
2222.00,0.0003
2221.00,0.0003
2220.00,0.0003
2219.00,0.0003
2218.00,0.0003
2217.00,0.0003
2216.00,0.0003
2215.00,0.0004
2214.00,0.0004
2213.00,0.0004
2212.00,0.0004
2211.00,0.0004
2210.00,0.0004
2209.00,0.0005
2208.00,0.0005
2207.00,0.0005
2206.00,0.0004
2205.00,0.0004
2204.00,0.0004
2203.00,0.0004
2202.00,0.0003
2201.00,0.0003
2200.00,0.0003
2199.00,0.0003
2198.00,0.0002
2197.00,0.0002
2196.00,0.0002
2195.00,0.0003
2194.00,0.0003
2193.00,0.0003
2192.00,0.0004
2191.00,0.0004
2190.00,0.0004
2189.00,0.0004
2188.00,0.0005
2187.00,0.0004
2186.00,0.0004
2185.00,0.0003
2184.00,0.0003
2183.00,0.0002
2182.00,0.0002
2181.00,0.0002
2180.00,0.0002
2179.00,0.0002
2178.00,0.0002
2177.00,0.0002
2176.00,0.0003
2175.00,0.0003
2174.00,0.0003
2173.00,0.0003
2172.00,0.0004
2171.00,0.0004
2170.00,0.0004
2169.00,0.0005
2168.00,0.0006
2167.00,0.0006
2166.00,0.0006
2165.00,0.0006
2164.00,0.0006
2163.00,0.0004
2162.00,0.0002
2161.00,-0.0001
2160.00,-0.0003
2159.00,-0.0004
2158.00,-0.0003
2157.00,-0.0002
2156.00,-0.0001
2155.00,-0.0000
2154.00,-0.0000
2153.00,-0.0000
2152.00,0.0000
2151.00,0.0001
2150.00,0.0001
2149.00,0.0001
2148.00,0.0001
2147.00,0.0001
2146.00,0.0001
2145.00,0.0000
2144.00,0.0000
2143.00,0.0000
2142.00,0.0000
2141.00,0.0000
2140.00,0.0000
2139.00,0.0000
2138.00,0.0000
2137.00,0.0000
2136.00,-0.0000
2135.00,-0.0001
2134.00,-0.0001
2133.00,-0.0001
2132.00,-0.0000
2131.00,0.0000
2130.00,0.0000
2129.00,0.0001
2128.00,0.0001
2127.00,0.0001
2126.00,0.0002
2125.00,0.0002
2124.00,0.0002
2123.00,0.0002
2122.00,0.0001
2121.00,0.0001
2120.00,0.0001
2119.00,0.0001
2118.00,0.0001
2117.00,0.0002
2116.00,0.0003
2115.00,0.0003
2114.00,0.0003
2113.00,0.0002
2112.00,0.0002
2111.00,0.0002
2110.00,0.0002
2109.00,0.0002
2108.00,0.0002
2107.00,0.0002
2106.00,0.0002
2105.00,0.0002
2104.00,0.0001
2103.00,0.0001
2102.00,0.0001
2101.00,0.0001
2100.00,0.0001
2099.00,0.0001
2098.00,0.0001
2097.00,0.0000
2096.00,0.0000
2095.00,0.0000
2094.00,0.0000
2093.00,0.0001
2092.00,0.0001
2091.00,0.0001
2090.00,0.0001
2089.00,0.0001
2088.00,0.0001
2087.00,0.0001
2086.00,0.0001
2085.00,0.0001
2084.00,0.0001
2083.00,0.0001
2082.00,0.0000
2081.00,0.0000
2080.00,0.0001
2079.00,0.0001
2078.00,0.0001
2077.00,0.0001
2076.00,0.0001
2075.00,0.0000
2074.00,-0.0000
2073.00,-0.0001
2072.00,-0.0000
2071.00,-0.0000
2070.00,-0.0001
2069.00,-0.0001
2068.00,-0.0001
2067.00,-0.0001
2066.00,-0.0001
2065.00,-0.0001
2064.00,-0.0001
2063.00,-0.0001
2062.00,-0.0001
2061.00,-0.0002
2060.00,-0.0002
2059.00,-0.0002
2058.00,-0.0003
2057.00,-0.0003
2056.00,-0.0003
2055.00,-0.0003
2054.00,-0.0002
2053.00,-0.0002
2052.00,-0.0001
2051.00,-0.0002
2050.00,-0.0003
2049.00,-0.0004
2048.00,-0.0003
2047.00,-0.0003
2046.00,-0.0003
2045.00,-0.0003
2044.00,-0.0002
2043.00,-0.0002
2042.00,-0.0003
2041.00,-0.0003
2040.00,-0.0002
2039.00,-0.0002
2038.00,-0.0003
2037.00,-0.0004
2036.00,-0.0004
2035.00,-0.0005
2034.00,-0.0005
2033.00,-0.0005
2032.00,-0.0005
2031.00,-0.0006
2030.00,-0.0006
2029.00,-0.0006
2028.00,-0.0006
2027.00,-0.0005
2026.00,-0.0006
2025.00,-0.0006
2024.00,-0.0006
2023.00,-0.0006
2022.00,-0.0007
2021.00,-0.0007
2020.00,-0.0006
2019.00,-0.0006
2018.00,-0.0007
2017.00,-0.0007
2016.00,-0.0007
2015.00,-0.0007
2014.00,-0.0007
2013.00,-0.0006
2012.00,-0.0005
2011.00,-0.0005
2010.00,-0.0005
2009.00,-0.0005
2008.00,-0.0005
2007.00,-0.0006
2006.00,-0.0007
2005.00,-0.0007
2004.00,-0.0007
2003.00,-0.0007
2002.00,-0.0007
2001.00,-0.0007
2000.00,-0.0007
1999.00,-0.0006
1998.00,-0.0006
1997.00,-0.0006
1996.00,-0.0006
1995.00,-0.0006
1994.00,-0.0007
1993.00,-0.0008
1992.00,-0.0007
1991.00,-0.0007
1990.00,-0.0006
1989.00,-0.0005
1988.00,-0.0005
1987.00,-0.0004
1986.00,-0.0005
1985.00,-0.0004
1984.00,-0.0004
1983.00,-0.0004
1982.00,-0.0004
1981.00,-0.0005
1980.00,-0.0006
1979.00,-0.0007
1978.00,-0.0009
1977.00,-0.0009
1976.00,-0.0008
1975.00,-0.0008
1974.00,-0.0008
1973.00,-0.0007
1972.00,-0.0007
1971.00,-0.0007
1970.00,-0.0007
1969.00,-0.0008
1968.00,-0.0008
1967.00,-0.0008
1966.00,-0.0009
1965.00,-0.0009
1964.00,-0.0008
1963.00,-0.0009
1962.00,-0.0009
1961.00,-0.0010
1960.00,-0.0010
1959.00,-0.0009
1958.00,-0.0010
1957.00,-0.0009
1956.00,-0.0009
1955.00,-0.0009
1954.00,-0.0009
1953.00,-0.0009
1952.00,-0.0008
1951.00,-0.0008
1950.00,-0.0009
1949.00,-0.0009
1948.00,-0.0009
1947.00,-0.0009
1946.00,-0.0010
1945.00,-0.0009
1944.00,-0.0009
1943.00,-0.0008
1942.00,-0.0009
1941.00,-0.0009
1940.00,-0.0008
1939.00,-0.0008
1938.00,-0.0009
1937.00,-0.0009
1936.00,-0.0009
1935.00,-0.0008
1934.00,-0.0009
1933.00,-0.0009
1932.00,-0.0009
1931.00,-0.0009
1930.00,-0.0009
1929.00,-0.0009
1928.00,-0.0009
1927.00,-0.0009
1926.00,-0.0009
1925.00,-0.0009
1924.00,-0.0009
1923.00,-0.0009
1922.00,-0.0009
1921.00,-0.0009
1920.00,-0.0009
1919.00,-0.0009
1918.00,-0.0010
1917.00,-0.0010
1916.00,-0.0009
1915.00,-0.0009
1914.00,-0.0009
1913.00,-0.0010
1912.00,-0.0010
1911.00,-0.0010
1910.00,-0.0010
1909.00,-0.0010
1908.00,-0.0010
1907.00,-0.0010
1906.00,-0.0010
1905.00,-0.0010
1904.00,-0.0010
1903.00,-0.0010
1902.00,-0.0010
1901.00,-0.0010
1900.00,-0.0010
1899.00,-0.0010
1898.00,-0.0010
1897.00,-0.0010
1896.00,-0.0010
1895.00,-0.0010
1894.00,-0.0010
1893.00,-0.0010
1892.00,-0.0010
1891.00,-0.0010
1890.00,-0.0011
1889.00,-0.0011
1888.00,-0.0010
1887.00,-0.0010
1886.00,-0.0010
1885.00,-0.0010
1884.00,-0.0010
1883.00,-0.0010
1882.00,-0.0010
1881.00,-0.0010
1880.00,-0.0011
1879.00,-0.0011
1878.00,-0.0011
1877.00,-0.0011
1876.00,-0.0011
1875.00,-0.0011
1874.00,-0.0011
1873.00,-0.0011
1872.00,-0.0011
1871.00,-0.0011
1870.00,-0.0011
1869.00,-0.0011
1868.00,-0.0011
1867.00,-0.0011
1866.00,-0.0011
1865.00,-0.0011
1864.00,-0.0012
1863.00,-0.0012
1862.00,-0.0012
1861.00,-0.0012
1860.00,-0.0012
1859.00,-0.0012
1858.00,-0.0012
1857.00,-0.0012
1856.00,-0.0012
1855.00,-0.0012
1854.00,-0.0013
1853.00,-0.0013
1852.00,-0.0012
1851.00,-0.0012
1850.00,-0.0012
1849.00,-0.0012
1848.00,-0.0012
1847.00,-0.0012
1846.00,-0.0013
1845.00,-0.0013
1844.00,-0.0013
1843.00,-0.0013
1842.00,-0.0013
1841.00,-0.0013
1840.00,-0.0012
1839.00,-0.0012
1838.00,-0.0012
1837.00,-0.0012
1836.00,-0.0012
1835.00,-0.0012
1834.00,-0.0013
1833.00,-0.0013
1832.00,-0.0013
1831.00,-0.0012
1830.00,-0.0012
1829.00,-0.0013
1828.00,-0.0013
1827.00,-0.0013
1826.00,-0.0014
1825.00,-0.0014
1824.00,-0.0013
1823.00,-0.0013
1822.00,-0.0013
1821.00,-0.0013
1820.00,-0.0013
1819.00,-0.0013
1818.00,-0.0014
1817.00,-0.0014
1816.00,-0.0013
1815.00,-0.0013
1814.00,-0.0013
1813.00,-0.0013
1812.00,-0.0012
1811.00,-0.0012
1810.00,-0.0012
1809.00,-0.0013
1808.00,-0.0012
1807.00,-0.0012
1806.00,-0.0012
1805.00,-0.0012
1804.00,-0.0012
1803.00,-0.0013
1802.00,-0.0013
1801.00,-0.0012
1800.00,-0.0012
1799.00,-0.0012
1798.00,-0.0012
1797.00,-0.0011
1796.00,-0.0011
1795.00,-0.0011
1794.00,-0.0011
1793.00,-0.0011
1792.00,-0.0011
1791.00,-0.0011
1790.00,-0.0012
1789.00,-0.0012
1788.00,-0.0011
1787.00,-0.0012
1786.00,-0.0012
1785.00,-0.0012
1784.00,-0.0012
1783.00,-0.0011
1782.00,-0.0011
1781.00,-0.0010
1780.00,-0.0010
1779.00,-0.0010
1778.00,-0.0010
1777.00,-0.0009
1776.00,-0.0009
1775.00,-0.0008
1774.00,-0.0008
1773.00,-0.0008
1772.00,-0.0007
1771.00,-0.0008
1770.00,-0.0009
1769.00,-0.0010
1768.00,-0.0010
1767.00,-0.0009
1766.00,-0.0009
1765.00,-0.0008
1764.00,-0.0008
1763.00,-0.0008
1762.00,-0.0008
1761.00,-0.0007
1760.00,-0.0007
1759.00,-0.0006
1758.00,-0.0006
1757.00,-0.0006
1756.00,-0.0005
1755.00,-0.0004
1754.00,-0.0004
1753.00,-0.0003
1752.00,-0.0002
1751.00,-0.0001
1750.00,-0.0000
1749.00,0.0001
1748.00,0.0002
1747.00,0.0003
1746.00,0.0003
1745.00,0.0004
1744.00,0.0005
1743.00,0.0006
1742.00,0.0006
1741.00,0.0006
1740.00,0.0008
1739.00,0.0009
1738.00,0.0009
1737.00,0.0010
1736.00,0.0011
1735.00,0.0012
1734.00,0.0012
1733.00,0.0013
1732.00,0.0014
1731.00,0.0015
1730.00,0.0015
1729.00,0.0016
1728.00,0.0017
1727.00,0.0019
1726.00,0.0020
1725.00,0.0021
1724.00,0.0023
1723.00,0.0025
1722.00,0.0026
1721.00,0.0028
1720.00,0.0031
1719.00,0.0035
1718.00,0.0038
1717.00,0.0042
1716.00,0.0046
1715.00,0.0050
1714.00,0.0054
1713.00,0.0060
1712.00,0.0067
1711.00,0.0076
1710.00,0.0085
1709.00,0.0095
1708.00,0.0108
1707.00,0.0124
1706.00,0.0142
1705.00,0.0164
1704.00,0.0185
1703.00,0.0206
1702.00,0.0225
1701.00,0.0248
1700.00,0.0273
1699.00,0.0294
1698.00,0.0307
1697.00,0.0314
1696.00,0.0317
1695.00,0.0318
1694.00,0.0321
1693.00,0.0326
1692.00,0.0331
1691.00,0.0337
1690.00,0.0344
1689.00,0.0351
1688.00,0.0359
1687.00,0.0369
1686.00,0.0379
1685.00,0.0386
1684.00,0.0393
1683.00,0.0401
1682.00,0.0411
1681.00,0.0422
1680.00,0.0434
1679.00,0.0447
1678.00,0.0459
1677.00,0.0470
1676.00,0.0482
1675.00,0.0493
1674.00,0.0506
1673.00,0.0519
1672.00,0.0534
1671.00,0.0547
1670.00,0.0558
1669.00,0.0568
1668.00,0.0581
1667.00,0.0596
1666.00,0.0610
1665.00,0.0625
1664.00,0.0639
1663.00,0.0652
1662.00,0.0664
1661.00,0.0678
1660.00,0.0693
1659.00,0.0709
1658.00,0.0725
1657.00,0.0742
1656.00,0.0760
1655.00,0.0777
1654.00,0.0785
1653.00,0.0784
1652.00,0.0790
1651.00,0.0806
1650.00,0.0823
1649.00,0.0839
1648.00,0.0850
1647.00,0.0855
1646.00,0.0857
1645.00,0.0863
1644.00,0.0875
1643.00,0.0888
1642.00,0.0901
1641.00,0.0912
1640.00,0.0926
1639.00,0.0940
1638.00,0.0954
1637.00,0.0962
1636.00,0.0964
1635.00,0.0964
1634.00,0.0971
1633.00,0.0984
1632.00,0.0999
1631.00,0.1013
1630.00,0.1024
1629.00,0.1030
1628.00,0.1033
1627.00,0.1036
1626.00,0.1039
1625.00,0.1039
1624.00,0.1031
1623.00,0.1015
1622.00,0.0999
1621.00,0.0988
1620.00,0.0980
1619.00,0.0971
1618.00,0.0949
1617.00,0.0913
1616.00,0.0872
1615.00,0.0840
1614.00,0.0818
1613.00,0.0798
1612.00,0.0775
1611.00,0.0747
1610.00,0.0718
1609.00,0.0687
1608.00,0.0657
1607.00,0.0627
1606.00,0.0601
1605.00,0.0576
1604.00,0.0553
1603.00,0.0531
1602.00,0.0511
1601.00,0.0493
1600.00,0.0477
1599.00,0.0463
1598.00,0.0450
1597.00,0.0439
1596.00,0.0427
1595.00,0.0414
1594.00,0.0403
1593.00,0.0393
1592.00,0.0384
1591.00,0.0376
1590.00,0.0369
1589.00,0.0364
1588.00,0.0359
1587.00,0.0355
1586.00,0.0353
1585.00,0.0353
1584.00,0.0353
1583.00,0.0354
1582.00,0.0357
1581.00,0.0362
1580.00,0.0367
1579.00,0.0373
1578.00,0.0380
1577.00,0.0385
1576.00,0.0389
1575.00,0.0392
1574.00,0.0397
1573.00,0.0405
1572.00,0.0413
1571.00,0.0421
1570.00,0.0428
1569.00,0.0437
1568.00,0.0446
1567.00,0.0456
1566.00,0.0467
1565.00,0.0479
1564.00,0.0492
1563.00,0.0504
1562.00,0.0518
1561.00,0.0531
1560.00,0.0543
1559.00,0.0550
1558.00,0.0558
1557.00,0.0570
1556.00,0.0583
1555.00,0.0595
1554.00,0.0607
1553.00,0.0620
1552.00,0.0633
1551.00,0.0644
1550.00,0.0655
1549.00,0.0667
1548.00,0.0680
1547.00,0.0693
1546.00,0.0706
1545.00,0.0720
1544.00,0.0733
1543.00,0.0746
1542.00,0.0759
1541.00,0.0768
1540.00,0.0770
1539.00,0.0772
1538.00,0.0780
1537.00,0.0793
1536.00,0.0805
1535.00,0.0815
1534.00,0.0821
1533.00,0.0825
1532.00,0.0832
1531.00,0.0843
1530.00,0.0855
1529.00,0.0867
1528.00,0.0876
1527.00,0.0885
1526.00,0.0894
1525.00,0.0905
1524.00,0.0917
1523.00,0.0928
1522.00,0.0936
1521.00,0.0942
1520.00,0.0952
1519.00,0.0966
1518.00,0.0980
1517.00,0.0989
1516.00,0.0994
1515.00,0.0999
1514.00,0.1004
1513.00,0.1005
1512.00,0.1002
1511.00,0.0999
1510.00,0.0998
1509.00,0.0996
1508.00,0.0982
1507.00,0.0947
1506.00,0.0909
1505.00,0.0888
1504.00,0.0881
1503.00,0.0876
1502.00,0.0869
1501.00,0.0858
1500.00,0.0842
1499.00,0.0823
1498.00,0.0802
1497.00,0.0775
1496.00,0.0748
1495.00,0.0726
1494.00,0.0711
1493.00,0.0698
1492.00,0.0682
1491.00,0.0660
1490.00,0.0634
1489.00,0.0608
1488.00,0.0586
1487.00,0.0568
1486.00,0.0553
1485.00,0.0539
1484.00,0.0528
1483.00,0.0516
1482.00,0.0504
1481.00,0.0492
1480.00,0.0482
1479.00,0.0474
1478.00,0.0468
1477.00,0.0461
1476.00,0.0455
1475.00,0.0451
1474.00,0.0447
1473.00,0.0442
1472.00,0.0437
1471.00,0.0435
1470.00,0.0435
1469.00,0.0436
1468.00,0.0437
1467.00,0.0437
1466.00,0.0436
1465.00,0.0433
1464.00,0.0431
1463.00,0.0432
1462.00,0.0435
1461.00,0.0440
1460.00,0.0446
1459.00,0.0451
1458.00,0.0457
1457.00,0.0462
1456.00,0.0470
1455.00,0.0481
1454.00,0.0492
1453.00,0.0503
1452.00,0.0512
1451.00,0.0520
1450.00,0.0526
1449.00,0.0530
1448.00,0.0531
1447.00,0.0530
1446.00,0.0529
1445.00,0.0527
1444.00,0.0525
1443.00,0.0520
1442.00,0.0516
1441.00,0.0511
1440.00,0.0506
1439.00,0.0500
1438.00,0.0491
1437.00,0.0477
1436.00,0.0462
1435.00,0.0452
1434.00,0.0445
1433.00,0.0438
1432.00,0.0431
1431.00,0.0422
1430.00,0.0413
1429.00,0.0405
1428.00,0.0400
1427.00,0.0397
1426.00,0.0395
1425.00,0.0394
1424.00,0.0393
1423.00,0.0393
1422.00,0.0394
1421.00,0.0395
1420.00,0.0395
1419.00,0.0394
1418.00,0.0395
1417.00,0.0396
1416.00,0.0399
1415.00,0.0401
1414.00,0.0403
1413.00,0.0405
1412.00,0.0405
1411.00,0.0405
1410.00,0.0404
1409.00,0.0403
1408.00,0.0402
1407.00,0.0401
1406.00,0.0398
1405.00,0.0393
1404.00,0.0389
1403.00,0.0386
1402.00,0.0383
1401.00,0.0380
1400.00,0.0375
1399.00,0.0370
1398.00,0.0366
1397.00,0.0363
1396.00,0.0360
1395.00,0.0357
1394.00,0.0354
1393.00,0.0352
1392.00,0.0352
1391.00,0.0352
1390.00,0.0352
1389.00,0.0350
1388.00,0.0349
1387.00,0.0346
1386.00,0.0345
1385.00,0.0344
1384.00,0.0344
1383.00,0.0343
1382.00,0.0343
1381.00,0.0342
1380.00,0.0342
1379.00,0.0342
1378.00,0.0343
1377.00,0.0343
1376.00,0.0343
1375.00,0.0343
1374.00,0.0343
1373.00,0.0343
1372.00,0.0343
1371.00,0.0344
1370.00,0.0344
1369.00,0.0343
1368.00,0.0340
1367.00,0.0337
1366.00,0.0333
1365.00,0.0327
1364.00,0.0321
1363.00,0.0314
1362.00,0.0307
1361.00,0.0301
1360.00,0.0297
1359.00,0.0295
1358.00,0.0292
1357.00,0.0290
1356.00,0.0288
1355.00,0.0287
1354.00,0.0286
1353.00,0.0285
1352.00,0.0285
1351.00,0.0285
1350.00,0.0285
1349.00,0.0286
1348.00,0.0287
1347.00,0.0288
1346.00,0.0289
1345.00,0.0290
1344.00,0.0292
1343.00,0.0293
1342.00,0.0294
1341.00,0.0295
1340.00,0.0296
1339.00,0.0296
1338.00,0.0297
1337.00,0.0297
1336.00,0.0297
1335.00,0.0297
1334.00,0.0296
1333.00,0.0294
1332.00,0.0293
1331.00,0.0291
1330.00,0.0289
1329.00,0.0286
1328.00,0.0284
1327.00,0.0282
1326.00,0.0280
1325.00,0.0278
1324.00,0.0277
1323.00,0.0276
1322.00,0.0276
1321.00,0.0276
1320.00,0.0276
1319.00,0.0276
1318.00,0.0277
1317.00,0.0277
1316.00,0.0278
1315.00,0.0278
1314.00,0.0279
1313.00,0.0280
1312.00,0.0280
1311.00,0.0281
1310.00,0.0281
1309.00,0.0282
1308.00,0.0282
1307.00,0.0282
1306.00,0.0282
1305.00,0.0282
1304.00,0.0282
1303.00,0.0282
1302.00,0.0282
1301.00,0.0282
1300.00,0.0282
1299.00,0.0282
1298.00,0.0282
1297.00,0.0282
1296.00,0.0283
1295.00,0.0283
1294.00,0.0284
1293.00,0.0285
1292.00,0.0286
1291.00,0.0288
1290.00,0.0290
1289.00,0.0291
1288.00,0.0293
1287.00,0.0295
1286.00,0.0297
1285.00,0.0300
1284.00,0.0302
1283.00,0.0305
1282.00,0.0308
1281.00,0.0311
1280.00,0.0315
1279.00,0.0318
1278.00,0.0323
1277.00,0.0327
1276.00,0.0332
1275.00,0.0337
1274.00,0.0343
1273.00,0.0349
1272.00,0.0355
1271.00,0.0362
1270.00,0.0369
1269.00,0.0377
1268.00,0.0384
1267.00,0.0390
1266.00,0.0397
1265.00,0.0402
1264.00,0.0407
1263.00,0.0412
1262.00,0.0415
1261.00,0.0418
1260.00,0.0420
1259.00,0.0422
1258.00,0.0423
1257.00,0.0424
1256.00,0.0426
1255.00,0.0427
1254.00,0.0429
1253.00,0.0431
1252.00,0.0433
1251.00,0.0436
1250.00,0.0440
1249.00,0.0444
1248.00,0.0448
1247.00,0.0453
1246.00,0.0458
1245.00,0.0462
1244.00,0.0467
1243.00,0.0472
1242.00,0.0477
1241.00,0.0482
1240.00,0.0488
1239.00,0.0493
1238.00,0.0499
1237.00,0.0505
1236.00,0.0510
1235.00,0.0516
1234.00,0.0521
1233.00,0.0525
1232.00,0.0528
1231.00,0.0530
1230.00,0.0531
1229.00,0.0530
1228.00,0.0529
1227.00,0.0526
1226.00,0.0522
1225.00,0.0517
1224.00,0.0511
1223.00,0.0504
1222.00,0.0497
1221.00,0.0489
1220.00,0.0481
1219.00,0.0472
1218.00,0.0463
1217.00,0.0454
1216.00,0.0444
1215.00,0.0433
1214.00,0.0423
1213.00,0.0412
1212.00,0.0401
1211.00,0.0390
1210.00,0.0379
1209.00,0.0368
1208.00,0.0357
1207.00,0.0347
1206.00,0.0336
1205.00,0.0326
1204.00,0.0316
1203.00,0.0306
1202.00,0.0296
1201.00,0.0287
1200.00,0.0279
1199.00,0.0272
1198.00,0.0265
1197.00,0.0258
1196.00,0.0253
1195.00,0.0248
1194.00,0.0244
1193.00,0.0240
1192.00,0.0237
1191.00,0.0234
1190.00,0.0232
1189.00,0.0230
1188.00,0.0229
1187.00,0.0228
1186.00,0.0227
1185.00,0.0227
1184.00,0.0228
1183.00,0.0229
1182.00,0.0231
1181.00,0.0234
1180.00,0.0238
1179.00,0.0243
1178.00,0.0249
1177.00,0.0255
1176.00,0.0262
1175.00,0.0269
1174.00,0.0275
1173.00,0.0281
1172.00,0.0286
1171.00,0.0290
1170.00,0.0294
1169.00,0.0296
1168.00,0.0298
1167.00,0.0299
1166.00,0.0299
1165.00,0.0299
1164.00,0.0299
1163.00,0.0297
1162.00,0.0296
1161.00,0.0293
1160.00,0.0289
1159.00,0.0286
1158.00,0.0281
1157.00,0.0276
1156.00,0.0270
1155.00,0.0264
1154.00,0.0259
1153.00,0.0253
1152.00,0.0247
1151.00,0.0241
1150.00,0.0235
1149.00,0.0229
1148.00,0.0224
1147.00,0.0218
1146.00,0.0214
1145.00,0.0209
1144.00,0.0205
1143.00,0.0201
1142.00,0.0198
1141.00,0.0195
1140.00,0.0192
1139.00,0.0191
1138.00,0.0189
1137.00,0.0189
1136.00,0.0188
1135.00,0.0188
1134.00,0.0188
1133.00,0.0188
1132.00,0.0188
1131.00,0.0189
1130.00,0.0189
1129.00,0.0189
1128.00,0.0190
1127.00,0.0191
1126.00,0.0192
1125.00,0.0193
1124.00,0.0193
1123.00,0.0194
1122.00,0.0195
1121.00,0.0196
1120.00,0.0198
1119.00,0.0199
1118.00,0.0201
1117.00,0.0203
1116.00,0.0204
1115.00,0.0206
1114.00,0.0208
1113.00,0.0210
1112.00,0.0211
1111.00,0.0212
1110.00,0.0213
1109.00,0.0213
1108.00,0.0214
1107.00,0.0215
1106.00,0.0216
1105.00,0.0217
1104.00,0.0217
1103.00,0.0216
1102.00,0.0215
1101.00,0.0214
1100.00,0.0212
1099.00,0.0209
1098.00,0.0207
1097.00,0.0205
1096.00,0.0204
1095.00,0.0202
1094.00,0.0202
1093.00,0.0201
1092.00,0.0201
1091.00,0.0202
1090.00,0.0203
1089.00,0.0204
1088.00,0.0206
1087.00,0.0208
1086.00,0.0210
1085.00,0.0213
1084.00,0.0215
1083.00,0.0218
1082.00,0.0221
1081.00,0.0224
1080.00,0.0226
1079.00,0.0229
1078.00,0.0232
1077.00,0.0235
1076.00,0.0237
1075.00,0.0239
1074.00,0.0241
1073.00,0.0243
1072.00,0.0244
1071.00,0.0246
1070.00,0.0248
1069.00,0.0249
1068.00,0.0251
1067.00,0.0253
1066.00,0.0255
1065.00,0.0257
1064.00,0.0259
1063.00,0.0261
1062.00,0.0263
1061.00,0.0264
1060.00,0.0264
1059.00,0.0264
1058.00,0.0263
1057.00,0.0263
1056.00,0.0261
1055.00,0.0260
1054.00,0.0258
1053.00,0.0257
1052.00,0.0255
1051.00,0.0252
1050.00,0.0250
1049.00,0.0248
1048.00,0.0245
1047.00,0.0242
1046.00,0.0239
1045.00,0.0236
1044.00,0.0234
1043.00,0.0231
1042.00,0.0229
1041.00,0.0228
1040.00,0.0226
1039.00,0.0225
1038.00,0.0225
1037.00,0.0224
1036.00,0.0224
1035.00,0.0224
1034.00,0.0224
1033.00,0.0224
1032.00,0.0223
1031.00,0.0223
1030.00,0.0223
1029.00,0.0222
1028.00,0.0222
1027.00,0.0221
1026.00,0.0221
1025.00,0.0221
1024.00,0.0222
1023.00,0.0224
1022.00,0.0226
1021.00,0.0229
1020.00,0.0232
1019.00,0.0236
1018.00,0.0239
1017.00,0.0242
1016.00,0.0244
1015.00,0.0245
1014.00,0.0246
1013.00,0.0246
1012.00,0.0245
1011.00,0.0243
1010.00,0.0241
1009.00,0.0239
1008.00,0.0237
1007.00,0.0236
1006.00,0.0235
1005.00,0.0236
1004.00,0.0237
1003.00,0.0238
1002.00,0.0239
1001.00,0.0240
1000.00,0.0241
999.00,0.0240
998.00,0.0238
997.00,0.0235
996.00,0.0231
995.00,0.0226
994.00,0.0220
993.00,0.0214
992.00,0.0208
991.00,0.0202
990.00,0.0196
989.00,0.0192
988.00,0.0188
987.00,0.0185
986.00,0.0184
985.00,0.0183
984.00,0.0184
983.00,0.0185
982.00,0.0186
981.00,0.0187
980.00,0.0189
979.00,0.0189
978.00,0.0190
977.00,0.0190
976.00,0.0188
975.00,0.0186
974.00,0.0183
973.00,0.0179
972.00,0.0174
971.00,0.0169
970.00,0.0164
969.00,0.0159
968.00,0.0154
967.00,0.0150
966.00,0.0146
965.00,0.0143
964.00,0.0139
963.00,0.0136
962.00,0.0134
961.00,0.0131
960.00,0.0129
959.00,0.0126
958.00,0.0125
957.00,0.0123
956.00,0.0122
955.00,0.0121
954.00,0.0119
953.00,0.0118
952.00,0.0117
951.00,0.0115
950.00,0.0115
949.00,0.0114
948.00,0.0113
947.00,0.0112
946.00,0.0111
945.00,0.0111
944.00,0.0110
943.00,0.0109
942.00,0.0109
941.00,0.0108
940.00,0.0108
939.00,0.0108
938.00,0.0108
937.00,0.0108
936.00,0.0108
935.00,0.0109
934.00,0.0109
933.00,0.0110
932.00,0.0110
931.00,0.0110
930.00,0.0111
929.00,0.0110
928.00,0.0110
927.00,0.0110
926.00,0.0109
925.00,0.0107
924.00,0.0105
923.00,0.0104
922.00,0.0101
921.00,0.0099
920.00,0.0097
919.00,0.0095
918.00,0.0093
917.00,0.0092
916.00,0.0090
915.00,0.0088
914.00,0.0087
913.00,0.0086
912.00,0.0085
911.00,0.0084
910.00,0.0083
909.00,0.0082
908.00,0.0081
907.00,0.0080
906.00,0.0079
905.00,0.0079
904.00,0.0079
903.00,0.0079
902.00,0.0078
901.00,0.0078
900.00,0.0078
899.00,0.0078
898.00,0.0078
897.00,0.0078
896.00,0.0078
895.00,0.0078
894.00,0.0078
893.00,0.0078
892.00,0.0078
891.00,0.0078
890.00,0.0078
889.00,0.0077
888.00,0.0077
887.00,0.0078
886.00,0.0078
885.00,0.0079
884.00,0.0080
883.00,0.0081
882.00,0.0083
881.00,0.0084
880.00,0.0086
879.00,0.0087
878.00,0.0089
877.00,0.0090
876.00,0.0090
875.00,0.0090
874.00,0.0089
873.00,0.0087
872.00,0.0086
871.00,0.0085
870.00,0.0085
869.00,0.0085
868.00,0.0085
867.00,0.0086
866.00,0.0086
865.00,0.0087
864.00,0.0088
863.00,0.0090
862.00,0.0092
861.00,0.0094
860.00,0.0097
859.00,0.0100
858.00,0.0103
857.00,0.0106
856.00,0.0109
855.00,0.0111
854.00,0.0114
853.00,0.0116
852.00,0.0117
851.00,0.0118
850.00,0.0119
849.00,0.0118
848.00,0.0117
847.00,0.0116
846.00,0.0115
845.00,0.0115
844.00,0.0115
843.00,0.0116
842.00,0.0117
841.00,0.0119
840.00,0.0120
839.00,0.0122
838.00,0.0124
837.00,0.0127
836.00,0.0129
835.00,0.0132
834.00,0.0134
833.00,0.0137
832.00,0.0139
831.00,0.0141
830.00,0.0143
829.00,0.0144
828.00,0.0145
827.00,0.0145
826.00,0.0145
825.00,0.0144
824.00,0.0144
823.00,0.0143
822.00,0.0143
821.00,0.0143
820.00,0.0143
819.00,0.0143
818.00,0.0144
817.00,0.0145
816.00,0.0146
815.00,0.0147
814.00,0.0149
813.00,0.0150
812.00,0.0152
811.00,0.0153
810.00,0.0155
809.00,0.0157
808.00,0.0158
807.00,0.0160
806.00,0.0161
805.00,0.0162
804.00,0.0163
803.00,0.0164
802.00,0.0165
801.00,0.0166
800.00,0.0167
799.00,0.0168
798.00,0.0169
797.00,0.0171
796.00,0.0172
795.00,0.0174
794.00,0.0175
793.00,0.0176
792.00,0.0177
791.00,0.0178
790.00,0.0179
789.00,0.0181
788.00,0.0183
787.00,0.0185
786.00,0.0188
785.00,0.0190
784.00,0.0192
783.00,0.0194
782.00,0.0196
781.00,0.0198
780.00,0.0200
779.00,0.0203
778.00,0.0205
777.00,0.0207
776.00,0.0210
775.00,0.0213
774.00,0.0216
773.00,0.0219
772.00,0.0222
771.00,0.0225
770.00,0.0228
769.00,0.0231
768.00,0.0235
767.00,0.0238
766.00,0.0241
765.00,0.0244
764.00,0.0247
763.00,0.0249
762.00,0.0252
761.00,0.0254
760.00,0.0256
759.00,0.0259
758.00,0.0261
757.00,0.0264
756.00,0.0267
755.00,0.0270
754.00,0.0273
753.00,0.0276
752.00,0.0279
751.00,0.0282
750.00,0.0285
749.00,0.0289
748.00,0.0292
747.00,0.0296
746.00,0.0301
745.00,0.0305
744.00,0.0309
743.00,0.0313
742.00,0.0317
741.00,0.0320
740.00,0.0324
739.00,0.0328
738.00,0.0333
737.00,0.0338
736.00,0.0343
735.00,0.0349
734.00,0.0354
733.00,0.0359
732.00,0.0365
731.00,0.0371
730.00,0.0377
729.00,0.0382
728.00,0.0388
727.00,0.0394
726.00,0.0399
725.00,0.0405
724.00,0.0411
723.00,0.0418
722.00,0.0423
721.00,0.0429
720.00,0.0434
719.00,0.0438
718.00,0.0441
717.00,0.0444
716.00,0.0447
715.00,0.0451
714.00,0.0455
713.00,0.0458
712.00,0.0462
711.00,0.0466
710.00,0.0470
709.00,0.0474
708.00,0.0478
707.00,0.0482
706.00,0.0487
705.00,0.0493
704.00,0.0498
703.00,0.0503
702.00,0.0508
701.00,0.0511
700.00,0.0515
699.00,0.0519
698.00,0.0523
697.00,0.0526
696.00,0.0529
695.00,0.0532
694.00,0.0534
693.00,0.0535
692.00,0.0537
691.00,0.0538
690.00,0.0539
689.00,0.0539
688.00,0.0540
687.00,0.0541
686.00,0.0542
685.00,0.0543
684.00,0.0545
683.00,0.0547
682.00,0.0548
681.00,0.0549
680.00,0.0551
679.00,0.0552
678.00,0.0553
677.00,0.0555
676.00,0.0557
675.00,0.0558
674.00,0.0559
673.00,0.0560
672.00,0.0562
671.00,0.0564
670.00,0.0566
669.00,0.0567
668.00,0.0567
667.00,0.0566
666.00,0.0567
665.00,0.0569
664.00,0.0571
663.00,0.0572
662.00,0.0574
661.00,0.0576
660.00,0.0578
659.00,0.0579
658.00,0.0579
657.00,0.0580
656.00,0.0582
655.00,0.0583
654.00,0.0585
653.00,0.0587
652.00,0.0589
651.00,0.0591
650.00,0.0592
649.00,0.0594
648.00,0.0596
647.00,0.0598
646.00,0.0600
645.00,0.0601
644.00,0.0603
643.00,0.0605
642.00,0.0606
641.00,0.0607
640.00,0.0609
639.00,0.0609
638.00,0.0610
637.00,0.0610
636.00,0.0610
635.00,0.0610
634.00,0.0610
633.00,0.0611
632.00,0.0612
631.00,0.0613
630.00,0.0614
629.00,0.0614
628.00,0.0614
627.00,0.0614
626.00,0.0614
625.00,0.0614
624.00,0.0614
623.00,0.0615
622.00,0.0616
621.00,0.0618
620.00,0.0620
619.00,0.0622
618.00,0.0625
617.00,0.0628
616.00,0.0631
615.00,0.0633
614.00,0.0635
613.00,0.0636
612.00,0.0637
611.00,0.0637
610.00,0.0635
609.00,0.0633
608.00,0.0630
607.00,0.0628
606.00,0.0626
605.00,0.0623
604.00,0.0621
603.00,0.0618
602.00,0.0615
601.00,0.0612
600.00,0.0610
599.00,0.0608
598.00,0.0606
597.00,0.0605
596.00,0.0605
595.00,0.0605
594.00,0.0604
593.00,0.0603
592.00,0.0603
591.00,0.0601
590.00,0.0600
589.00,0.0600
588.00,0.0600
587.00,0.0601
586.00,0.0602
585.00,0.0603
584.00,0.0604
583.00,0.0606
582.00,0.0607
581.00,0.0608
580.00,0.0609
579.00,0.0610
578.00,0.0610
577.00,0.0611
576.00,0.0613
575.00,0.0614
574.00,0.0616
573.00,0.0618
572.00,0.0620
571.00,0.0623
570.00,0.0626
569.00,0.0629
568.00,0.0634
567.00,0.0639
566.00,0.0644
565.00,0.0649
564.00,0.0655
563.00,0.0662
562.00,0.0669
561.00,0.0676
560.00,0.0684
559.00,0.0691
558.00,0.0696
557.00,0.0702
556.00,0.0706
555.00,0.0711
554.00,0.0715
553.00,0.0718
552.00,0.0721
551.00,0.0723
550.00,0.0724
549.00,0.0724
548.00,0.0725
547.00,0.0725
546.00,0.0724
545.00,0.0722
544.00,0.0720
543.00,0.0717
542.00,0.0713
541.00,0.0709
540.00,0.0707
539.00,0.0705
538.00,0.0703
537.00,0.0701
536.00,0.0699
535.00,0.0697
534.00,0.0694
533.00,0.0691
532.00,0.0690
531.00,0.0688
530.00,0.0687
529.00,0.0686
528.00,0.0685
527.00,0.0685
526.00,0.0683
525.00,0.0682
524.00,0.0680
523.00,0.0680
522.00,0.0679
521.00,0.0678
520.00,0.0678
519.00,0.0677
518.00,0.0676
517.00,0.0675
516.00,0.0675
515.00,0.0674
514.00,0.0673
513.00,0.0672
512.00,0.0670
511.00,0.0668
510.00,0.0665
509.00,0.0662
508.00,0.0660
507.00,0.0658
506.00,0.0655
505.00,0.0652
504.00,0.0649
503.00,0.0647
502.00,0.0644
501.00,0.0642
500.00,0.0642
499.00,0.0642
498.00,0.0642
497.00,0.0643
496.00,0.0645
495.00,0.0647
494.00,0.0649
493.00,0.0650
492.00,0.0651
491.00,0.0650
490.00,0.0649
489.00,0.0647
488.00,0.0644
487.00,0.0642
486.00,0.0640
485.00,0.0637
484.00,0.0636
483.00,0.0635
482.00,0.0634
481.00,0.0633
480.00,0.0632
479.00,0.0630
478.00,0.0627
477.00,0.0626
476.00,0.0626
475.00,0.0626
474.00,0.0625
473.00,0.0622
472.00,0.0618
471.00,0.0613
470.00,0.0609
469.00,0.0606
468.00,0.0605
467.00,0.0605
466.00,0.0603
465.00,0.0602
464.00,0.0602
463.00,0.0602
462.00,0.0602
461.00,0.0600
460.00,0.0598
459.00,0.0594
458.00,0.0591
457.00,0.0589
456.00,0.0589
455.00,0.0589
454.00,0.0588
453.00,0.0587
452.00,0.0587
451.00,0.0587
450.00,0.0586
449.00,0.0585
448.00,0.0584
447.00,0.0584
446.00,0.0583
445.00,0.0580
444.00,0.0576
443.00,0.0574
442.00,0.0573
441.00,0.0573
440.00,0.0573
439.00,0.0571
438.00,0.0568
437.00,0.0564
436.00,0.0559
435.00,0.0555
434.00,0.0553
433.00,0.0554
432.00,0.0557
431.00,0.0560
430.00,0.0563
429.00,0.0567
428.00,0.0572
427.00,0.0577
426.00,0.0579
425.00,0.0578
424.00,0.0575
423.00,0.0570
422.00,0.0564
421.00,0.0559
420.00,0.0553
419.00,0.0548
418.00,0.0546
417.00,0.0548
416.00,0.0549
415.00,0.0546
414.00,0.0539
413.00,0.0534
412.00,0.0531
411.00,0.0529
410.00,0.0523
409.00,0.0516
408.00,0.0511
407.00,0.0508
406.00,0.0506
405.00,0.0503
404.00,0.0499
403.00,0.0492
402.00,0.0486
401.00,0.0484
400.00,0.0483
