Created as New Dataset,Sample 280 By YargerLab Date Friday, July 26 2024
cm-1,A
4000.00,0.0072
3999.00,0.0072
3998.00,0.0072
3997.00,0.0072
3996.00,0.0072
3995.00,0.0072
3994.00,0.0072
3993.00,0.0072
3992.00,0.0072
3991.00,0.0072
3990.00,0.0072
3989.00,0.0072
3988.00,0.0072
3987.00,0.0072
3986.00,0.0072
3985.00,0.0072
3984.00,0.0072
3983.00,0.0072
3982.00,0.0072
3981.00,0.0071
3980.00,0.0071
3979.00,0.0071
3978.00,0.0071
3977.00,0.0071
3976.00,0.0071
3975.00,0.0071
3974.00,0.0072
3973.00,0.0071
3972.00,0.0071
3971.00,0.0071
3970.00,0.0071
3969.00,0.0071
3968.00,0.0071
3967.00,0.0071
3966.00,0.0071
3965.00,0.0071
3964.00,0.0071
3963.00,0.0071
3962.00,0.0071
3961.00,0.0071
3960.00,0.0071
3959.00,0.0071
3958.00,0.0071
3957.00,0.0071
3956.00,0.0071
3955.00,0.0071
3954.00,0.0071
3953.00,0.0071
3952.00,0.0071
3951.00,0.0071
3950.00,0.0071
3949.00,0.0071
3948.00,0.0071
3947.00,0.0071
3946.00,0.0071
3945.00,0.0071
3944.00,0.0071
3943.00,0.0070
3942.00,0.0070
3941.00,0.0070
3940.00,0.0070
3939.00,0.0070
3938.00,0.0070
3937.00,0.0070
3936.00,0.0070
3935.00,0.0070
3934.00,0.0070
3933.00,0.0070
3932.00,0.0070
3931.00,0.0070
3930.00,0.0070
3929.00,0.0070
3928.00,0.0070
3927.00,0.0070
3926.00,0.0070
3925.00,0.0070
3924.00,0.0070
3923.00,0.0070
3922.00,0.0070
3921.00,0.0070
3920.00,0.0070
3919.00,0.0070
3918.00,0.0070
3917.00,0.0070
3916.00,0.0070
3915.00,0.0070
3914.00,0.0070
3913.00,0.0070
3912.00,0.0069
3911.00,0.0069
3910.00,0.0069
3909.00,0.0069
3908.00,0.0069
3907.00,0.0069
3906.00,0.0069
3905.00,0.0069
3904.00,0.0069
3903.00,0.0069
3902.00,0.0069
3901.00,0.0070
3900.00,0.0070
3899.00,0.0070
3898.00,0.0070
3897.00,0.0070
3896.00,0.0069
3895.00,0.0069
3894.00,0.0069
3893.00,0.0069
3892.00,0.0069
3891.00,0.0069
3890.00,0.0069
3889.00,0.0069
3888.00,0.0069
3887.00,0.0069
3886.00,0.0069
3885.00,0.0069
3884.00,0.0069
3883.00,0.0069
3882.00,0.0069
3881.00,0.0069
3880.00,0.0069
3879.00,0.0069
3878.00,0.0069
3877.00,0.0069
3876.00,0.0069
3875.00,0.0068
3874.00,0.0069
3873.00,0.0069
3872.00,0.0069
3871.00,0.0069
3870.00,0.0069
3869.00,0.0069
3868.00,0.0069
3867.00,0.0068
3866.00,0.0068
3865.00,0.0068
3864.00,0.0068
3863.00,0.0068
3862.00,0.0068
3861.00,0.0068
3860.00,0.0068
3859.00,0.0068
3858.00,0.0068
3857.00,0.0068
3856.00,0.0068
3855.00,0.0068
3854.00,0.0068
3853.00,0.0068
3852.00,0.0068
3851.00,0.0068
3850.00,0.0068
3849.00,0.0068
3848.00,0.0068
3847.00,0.0067
3846.00,0.0067
3845.00,0.0067
3844.00,0.0068
3843.00,0.0068
3842.00,0.0068
3841.00,0.0068
3840.00,0.0068
3839.00,0.0068
3838.00,0.0068
3837.00,0.0068
3836.00,0.0068
3835.00,0.0068
3834.00,0.0067
3833.00,0.0067
3832.00,0.0067
3831.00,0.0067
3830.00,0.0067
3829.00,0.0067
3828.00,0.0067
3827.00,0.0067
3826.00,0.0067
3825.00,0.0067
3824.00,0.0067
3823.00,0.0067
3822.00,0.0067
3821.00,0.0067
3820.00,0.0067
3819.00,0.0067
3818.00,0.0067
3817.00,0.0067
3816.00,0.0067
3815.00,0.0066
3814.00,0.0066
3813.00,0.0066
3812.00,0.0066
3811.00,0.0066
3810.00,0.0066
3809.00,0.0066
3808.00,0.0066
3807.00,0.0066
3806.00,0.0066
3805.00,0.0067
3804.00,0.0067
3803.00,0.0067
3802.00,0.0067
3801.00,0.0066
3800.00,0.0066
3799.00,0.0066
3798.00,0.0066
3797.00,0.0066
3796.00,0.0066
3795.00,0.0066
3794.00,0.0066
3793.00,0.0066
3792.00,0.0065
3791.00,0.0065
3790.00,0.0065
3789.00,0.0065
3788.00,0.0065
3787.00,0.0065
3786.00,0.0065
3785.00,0.0065
3784.00,0.0065
3783.00,0.0065
3782.00,0.0065
3781.00,0.0065
3780.00,0.0065
3779.00,0.0065
3778.00,0.0065
3777.00,0.0065
3776.00,0.0065
3775.00,0.0065
3774.00,0.0065
3773.00,0.0065
3772.00,0.0065
3771.00,0.0065
3770.00,0.0065
3769.00,0.0065
3768.00,0.0065
3767.00,0.0065
3766.00,0.0065
3765.00,0.0065
3764.00,0.0065
3763.00,0.0065
3762.00,0.0065
3761.00,0.0065
3760.00,0.0065
3759.00,0.0065
3758.00,0.0065
3757.00,0.0065
3756.00,0.0065
3755.00,0.0066
3754.00,0.0066
3753.00,0.0066
3752.00,0.0066
3751.00,0.0066
3750.00,0.0066
3749.00,0.0066
3748.00,0.0066
3747.00,0.0065
3746.00,0.0065
3745.00,0.0065
3744.00,0.0065
3743.00,0.0065
3742.00,0.0065
3741.00,0.0065
3740.00,0.0065
3739.00,0.0065
3738.00,0.0065
3737.00,0.0065
3736.00,0.0065
3735.00,0.0065
3734.00,0.0065
3733.00,0.0065
3732.00,0.0065
3731.00,0.0065
3730.00,0.0065
3729.00,0.0064
3728.00,0.0064
3727.00,0.0064
3726.00,0.0064
3725.00,0.0064
3724.00,0.0064
3723.00,0.0064
3722.00,0.0064
3721.00,0.0064
3720.00,0.0064
3719.00,0.0064
3718.00,0.0064
3717.00,0.0064
3716.00,0.0064
3715.00,0.0064
3714.00,0.0064
3713.00,0.0064
3712.00,0.0064
3711.00,0.0064
3710.00,0.0064
3709.00,0.0064
3708.00,0.0064
3707.00,0.0064
3706.00,0.0063
3705.00,0.0063
3704.00,0.0063
3703.00,0.0063
3702.00,0.0063
3701.00,0.0063
3700.00,0.0063
3699.00,0.0063
3698.00,0.0063
3697.00,0.0063
3696.00,0.0063
3695.00,0.0063
3694.00,0.0063
3693.00,0.0063
3692.00,0.0063
3691.00,0.0063
3690.00,0.0063
3689.00,0.0063
3688.00,0.0063
3687.00,0.0063
3686.00,0.0063
3685.00,0.0063
3684.00,0.0063
3683.00,0.0063
3682.00,0.0063
3681.00,0.0063
3680.00,0.0063
3679.00,0.0063
3678.00,0.0063
3677.00,0.0064
3676.00,0.0064
3675.00,0.0064
3674.00,0.0064
3673.00,0.0064
3672.00,0.0064
3671.00,0.0064
3670.00,0.0064
3669.00,0.0063
3668.00,0.0063
3667.00,0.0064
3666.00,0.0064
3665.00,0.0064
3664.00,0.0064
3663.00,0.0064
3662.00,0.0064
3661.00,0.0064
3660.00,0.0064
3659.00,0.0064
3658.00,0.0064
3657.00,0.0064
3656.00,0.0065
3655.00,0.0065
3654.00,0.0065
3653.00,0.0066
3652.00,0.0066
3651.00,0.0067
3650.00,0.0067
3649.00,0.0067
3648.00,0.0067
3647.00,0.0067
3646.00,0.0067
3645.00,0.0067
3644.00,0.0068
3643.00,0.0068
3642.00,0.0068
3641.00,0.0068
3640.00,0.0068
3639.00,0.0068
3638.00,0.0069
3637.00,0.0069
3636.00,0.0069
3635.00,0.0070
3634.00,0.0071
3633.00,0.0071
3632.00,0.0072
3631.00,0.0072
3630.00,0.0073
3629.00,0.0073
3628.00,0.0073
3627.00,0.0073
3626.00,0.0073
3625.00,0.0073
3624.00,0.0074
3623.00,0.0074
3622.00,0.0074
3621.00,0.0075
3620.00,0.0075
3619.00,0.0075
3618.00,0.0075
3617.00,0.0075
3616.00,0.0076
3615.00,0.0076
3614.00,0.0077
3613.00,0.0077
3612.00,0.0077
3611.00,0.0078
3610.00,0.0078
3609.00,0.0078
3608.00,0.0078
3607.00,0.0079
3606.00,0.0079
3605.00,0.0080
3604.00,0.0080
3603.00,0.0080
3602.00,0.0080
3601.00,0.0080
3600.00,0.0081
3599.00,0.0081
3598.00,0.0082
3597.00,0.0082
3596.00,0.0082
3595.00,0.0083
3594.00,0.0083
3593.00,0.0083
3592.00,0.0084
3591.00,0.0084
3590.00,0.0085
3589.00,0.0085
3588.00,0.0085
3587.00,0.0085
3586.00,0.0085
3585.00,0.0086
3584.00,0.0086
3583.00,0.0087
3582.00,0.0087
3581.00,0.0088
3580.00,0.0088
3579.00,0.0088
3578.00,0.0088
3577.00,0.0089
3576.00,0.0089
3575.00,0.0090
3574.00,0.0090
3573.00,0.0091
3572.00,0.0091
3571.00,0.0092
3570.00,0.0092
3569.00,0.0093
3568.00,0.0093
3567.00,0.0093
3566.00,0.0093
3565.00,0.0094
3564.00,0.0094
3563.00,0.0095
3562.00,0.0095
3561.00,0.0096
3560.00,0.0096
3559.00,0.0096
3558.00,0.0096
3557.00,0.0097
3556.00,0.0097
3555.00,0.0098
3554.00,0.0098
3553.00,0.0099
3552.00,0.0099
3551.00,0.0100
3550.00,0.0100
3549.00,0.0101
3548.00,0.0101
3547.00,0.0102
3546.00,0.0102
3545.00,0.0102
3544.00,0.0103
3543.00,0.0103
3542.00,0.0103
3541.00,0.0104
3540.00,0.0104
3539.00,0.0105
3538.00,0.0105
3537.00,0.0106
3536.00,0.0106
3535.00,0.0106
3534.00,0.0107
3533.00,0.0107
3532.00,0.0108
3531.00,0.0108
3530.00,0.0109
3529.00,0.0109
3528.00,0.0110
3527.00,0.0110
3526.00,0.0110
3525.00,0.0111
3524.00,0.0111
3523.00,0.0111
3522.00,0.0112
3521.00,0.0112
3520.00,0.0112
3519.00,0.0113
3518.00,0.0113
3517.00,0.0114
3516.00,0.0114
3515.00,0.0115
3514.00,0.0115
3513.00,0.0116
3512.00,0.0116
3511.00,0.0117
3510.00,0.0117
3509.00,0.0117
3508.00,0.0117
3507.00,0.0118
3506.00,0.0118
3505.00,0.0119
3504.00,0.0120
3503.00,0.0120
3502.00,0.0120
3501.00,0.0121
3500.00,0.0121
3499.00,0.0122
3498.00,0.0122
3497.00,0.0123
3496.00,0.0123
3495.00,0.0124
3494.00,0.0124
3493.00,0.0124
3492.00,0.0125
3491.00,0.0125
3490.00,0.0126
3489.00,0.0126
3488.00,0.0127
3487.00,0.0127
3486.00,0.0128
3485.00,0.0128
3484.00,0.0129
3483.00,0.0129
3482.00,0.0129
3481.00,0.0130
3480.00,0.0130
3479.00,0.0131
3478.00,0.0131
3477.00,0.0132
3476.00,0.0132
3475.00,0.0133
3474.00,0.0133
3473.00,0.0134
3472.00,0.0134
3471.00,0.0135
3470.00,0.0136
3469.00,0.0136
3468.00,0.0136
3467.00,0.0137
3466.00,0.0137
3465.00,0.0137
3464.00,0.0138
3463.00,0.0138
3462.00,0.0139
3461.00,0.0139
3460.00,0.0140
3459.00,0.0140
3458.00,0.0141
3457.00,0.0141
3456.00,0.0141
3455.00,0.0142
3454.00,0.0142
3453.00,0.0143
3452.00,0.0143
3451.00,0.0144
3450.00,0.0144
3449.00,0.0144
3448.00,0.0145
3447.00,0.0145
3446.00,0.0146
3445.00,0.0146
3444.00,0.0146
3443.00,0.0147
3442.00,0.0147
3441.00,0.0148
3440.00,0.0149
3439.00,0.0149
3438.00,0.0150
3437.00,0.0150
3436.00,0.0151
3435.00,0.0151
3434.00,0.0152
3433.00,0.0152
3432.00,0.0152
3431.00,0.0153
3430.00,0.0153
3429.00,0.0154
3428.00,0.0154
3427.00,0.0155
3426.00,0.0155
3425.00,0.0156
3424.00,0.0156
3423.00,0.0157
3422.00,0.0157
3421.00,0.0157
3420.00,0.0158
3419.00,0.0158
3418.00,0.0159
3417.00,0.0159
3416.00,0.0160
3415.00,0.0160
3414.00,0.0161
3413.00,0.0161
3412.00,0.0162
3411.00,0.0162
3410.00,0.0163
3409.00,0.0163
3408.00,0.0163
3407.00,0.0164
3406.00,0.0164
3405.00,0.0165
3404.00,0.0165
3403.00,0.0166
3402.00,0.0166
3401.00,0.0167
3400.00,0.0167
3399.00,0.0167
3398.00,0.0168
3397.00,0.0168
3396.00,0.0169
3395.00,0.0169
3394.00,0.0169
3393.00,0.0170
3392.00,0.0170
3391.00,0.0171
3390.00,0.0171
3389.00,0.0171
3388.00,0.0172
3387.00,0.0172
3386.00,0.0173
3385.00,0.0173
3384.00,0.0173
3383.00,0.0174
3382.00,0.0174
3381.00,0.0175
3380.00,0.0175
3379.00,0.0176
3378.00,0.0177
3377.00,0.0177
3376.00,0.0178
3375.00,0.0179
3374.00,0.0179
3373.00,0.0180
3372.00,0.0180
3371.00,0.0181
3370.00,0.0182
3369.00,0.0182
3368.00,0.0183
3367.00,0.0184
3366.00,0.0184
3365.00,0.0185
3364.00,0.0185
3363.00,0.0186
3362.00,0.0187
3361.00,0.0188
3360.00,0.0189
3359.00,0.0190
3358.00,0.0190
3357.00,0.0191
3356.00,0.0192
3355.00,0.0193
3354.00,0.0194
3353.00,0.0194
3352.00,0.0195
3351.00,0.0196
3350.00,0.0197
3349.00,0.0198
3348.00,0.0199
3347.00,0.0200
3346.00,0.0201
3345.00,0.0202
3344.00,0.0203
3343.00,0.0204
3342.00,0.0205
3341.00,0.0206
3340.00,0.0207
3339.00,0.0208
3338.00,0.0209
3337.00,0.0211
3336.00,0.0212
3335.00,0.0213
3334.00,0.0214
3333.00,0.0216
3332.00,0.0217
3331.00,0.0218
3330.00,0.0219
3329.00,0.0221
3328.00,0.0222
3327.00,0.0223
3326.00,0.0225
3325.00,0.0226
3324.00,0.0227
3323.00,0.0229
3322.00,0.0230
3321.00,0.0231
3320.00,0.0233
3319.00,0.0234
3318.00,0.0236
3317.00,0.0238
3316.00,0.0239
3315.00,0.0241
3314.00,0.0243
3313.00,0.0244
3312.00,0.0246
3311.00,0.0248
3310.00,0.0249
3309.00,0.0251
3308.00,0.0253
3307.00,0.0254
3306.00,0.0256
3305.00,0.0258
3304.00,0.0259
3303.00,0.0261
3302.00,0.0263
3301.00,0.0265
3300.00,0.0267
3299.00,0.0269
3298.00,0.0270
3297.00,0.0272
3296.00,0.0274
3295.00,0.0276
3294.00,0.0277
3293.00,0.0279
3292.00,0.0280
3291.00,0.0282
3290.00,0.0284
3289.00,0.0285
3288.00,0.0287
3287.00,0.0288
3286.00,0.0289
3285.00,0.0291
3284.00,0.0292
3283.00,0.0293
3282.00,0.0294
3281.00,0.0295
3280.00,0.0295
3279.00,0.0296
3278.00,0.0297
3277.00,0.0297
3276.00,0.0297
3275.00,0.0297
3274.00,0.0297
3273.00,0.0297
3272.00,0.0297
3271.00,0.0296
3270.00,0.0296
3269.00,0.0295
3268.00,0.0294
3267.00,0.0294
3266.00,0.0293
3265.00,0.0292
3264.00,0.0290
3263.00,0.0289
3262.00,0.0288
3261.00,0.0286
3260.00,0.0285
3259.00,0.0284
3258.00,0.0282
3257.00,0.0280
3256.00,0.0279
3255.00,0.0277
3254.00,0.0276
3253.00,0.0274
3252.00,0.0273
3251.00,0.0271
3250.00,0.0269
3249.00,0.0268
3248.00,0.0266
3247.00,0.0265
3246.00,0.0263
3245.00,0.0262
3244.00,0.0260
3243.00,0.0259
3242.00,0.0258
3241.00,0.0256
3240.00,0.0255
3239.00,0.0254
3238.00,0.0253
3237.00,0.0251
3236.00,0.0250
3235.00,0.0249
3234.00,0.0247
3233.00,0.0246
3232.00,0.0245
3231.00,0.0244
3230.00,0.0243
3229.00,0.0242
3228.00,0.0241
3227.00,0.0240
3226.00,0.0239
3225.00,0.0237
3224.00,0.0236
3223.00,0.0236
3222.00,0.0235
3221.00,0.0234
3220.00,0.0233
3219.00,0.0232
3218.00,0.0231
3217.00,0.0230
3216.00,0.0230
3215.00,0.0229
3214.00,0.0228
3213.00,0.0227
3212.00,0.0226
3211.00,0.0225
3210.00,0.0225
3209.00,0.0224
3208.00,0.0223
3207.00,0.0222
3206.00,0.0221
3205.00,0.0220
3204.00,0.0220
3203.00,0.0219
3202.00,0.0218
3201.00,0.0217
3200.00,0.0217
3199.00,0.0216
3198.00,0.0215
3197.00,0.0214
3196.00,0.0213
3195.00,0.0212
3194.00,0.0211
3193.00,0.0210
3192.00,0.0210
3191.00,0.0209
3190.00,0.0208
3189.00,0.0207
3188.00,0.0206
3187.00,0.0205
3186.00,0.0204
3185.00,0.0203
3184.00,0.0202
3183.00,0.0201
3182.00,0.0200
3181.00,0.0199
3180.00,0.0198
3179.00,0.0197
3178.00,0.0196
3177.00,0.0195
3176.00,0.0194
3175.00,0.0193
3174.00,0.0192
3173.00,0.0191
3172.00,0.0190
3171.00,0.0189
3170.00,0.0188
3169.00,0.0187
3168.00,0.0186
3167.00,0.0185
3166.00,0.0184
3165.00,0.0183
3164.00,0.0182
3163.00,0.0181
3162.00,0.0180
3161.00,0.0179
3160.00,0.0178
3159.00,0.0177
3158.00,0.0177
3157.00,0.0176
3156.00,0.0175
3155.00,0.0174
3154.00,0.0173
3153.00,0.0172
3152.00,0.0171
3151.00,0.0171
3150.00,0.0170
3149.00,0.0169
3148.00,0.0168
3147.00,0.0167
3146.00,0.0166
3145.00,0.0166
3144.00,0.0165
3143.00,0.0164
3142.00,0.0163
3141.00,0.0163
3140.00,0.0162
3139.00,0.0162
3138.00,0.0161
3137.00,0.0161
3136.00,0.0160
3135.00,0.0159
3134.00,0.0159
3133.00,0.0158
3132.00,0.0157
3131.00,0.0157
3130.00,0.0156
3129.00,0.0156
3128.00,0.0155
3127.00,0.0155
3126.00,0.0154
3125.00,0.0154
3124.00,0.0153
3123.00,0.0153
3122.00,0.0153
3121.00,0.0152
3120.00,0.0152
3119.00,0.0152
3118.00,0.0151
3117.00,0.0151
3116.00,0.0151
3115.00,0.0151
3114.00,0.0151
3113.00,0.0151
3112.00,0.0150
3111.00,0.0150
3110.00,0.0150
3109.00,0.0150
3108.00,0.0150
3107.00,0.0150
3106.00,0.0150
3105.00,0.0150
3104.00,0.0150
3103.00,0.0150
3102.00,0.0150
3101.00,0.0150
3100.00,0.0150
3099.00,0.0150
3098.00,0.0150
3097.00,0.0150
3096.00,0.0150
3095.00,0.0151
3094.00,0.0151
3093.00,0.0151
3092.00,0.0151
3091.00,0.0151
3090.00,0.0151
3089.00,0.0152
3088.00,0.0152
3087.00,0.0152
3086.00,0.0152
3085.00,0.0152
3084.00,0.0152
3083.00,0.0152
3082.00,0.0152
3081.00,0.0152
3080.00,0.0153
3079.00,0.0153
3078.00,0.0153
3077.00,0.0153
3076.00,0.0153
3075.00,0.0153
3074.00,0.0153
3073.00,0.0153
3072.00,0.0153
3071.00,0.0153
3070.00,0.0153
3069.00,0.0153
3068.00,0.0153
3067.00,0.0153
3066.00,0.0153
3065.00,0.0152
3064.00,0.0152
3063.00,0.0152
3062.00,0.0152
3061.00,0.0152
3060.00,0.0151
3059.00,0.0151
3058.00,0.0150
3057.00,0.0150
3056.00,0.0149
3055.00,0.0149
3054.00,0.0148
3053.00,0.0148
3052.00,0.0147
3051.00,0.0147
3050.00,0.0146
3049.00,0.0145
3048.00,0.0145
3047.00,0.0144
3046.00,0.0144
3045.00,0.0143
3044.00,0.0142
3043.00,0.0142
3042.00,0.0141
3041.00,0.0141
3040.00,0.0140
3039.00,0.0140
3038.00,0.0139
3037.00,0.0139
3036.00,0.0138
3035.00,0.0137
3034.00,0.0137
3033.00,0.0136
3032.00,0.0136
3031.00,0.0135
3030.00,0.0135
3029.00,0.0134
3028.00,0.0133
3027.00,0.0133
3026.00,0.0132
3025.00,0.0131
3024.00,0.0131
3023.00,0.0130
3022.00,0.0129
3021.00,0.0128
3020.00,0.0128
3019.00,0.0127
3018.00,0.0126
3017.00,0.0126
3016.00,0.0125
3015.00,0.0124
3014.00,0.0124
3013.00,0.0123
3012.00,0.0123
3011.00,0.0122
3010.00,0.0122
3009.00,0.0121
3008.00,0.0121
3007.00,0.0120
3006.00,0.0119
3005.00,0.0119
3004.00,0.0118
3003.00,0.0118
3002.00,0.0118
3001.00,0.0117
3000.00,0.0117
2999.00,0.0117
2998.00,0.0116
2997.00,0.0116
2996.00,0.0116
2995.00,0.0116
2994.00,0.0117
2993.00,0.0117
2992.00,0.0117
2991.00,0.0118
2990.00,0.0118
2989.00,0.0119
2988.00,0.0119
2987.00,0.0120
2986.00,0.0120
2985.00,0.0120
2984.00,0.0119
2983.00,0.0119
2982.00,0.0119
2981.00,0.0119
2980.00,0.0120
2979.00,0.0122
2978.00,0.0123
2977.00,0.0125
2976.00,0.0126
2975.00,0.0127
2974.00,0.0127
2973.00,0.0128
2972.00,0.0129
2971.00,0.0129
2970.00,0.0130
2969.00,0.0131
2968.00,0.0132
2967.00,0.0133
2966.00,0.0133
2965.00,0.0134
2964.00,0.0134
2963.00,0.0134
2962.00,0.0135
2961.00,0.0135
2960.00,0.0135
2959.00,0.0135
2958.00,0.0135
2957.00,0.0135
2956.00,0.0134
2955.00,0.0134
2954.00,0.0134
2953.00,0.0134
2952.00,0.0134
2951.00,0.0133
2950.00,0.0133
2949.00,0.0133
2948.00,0.0133
2947.00,0.0134
2946.00,0.0134
2945.00,0.0134
2944.00,0.0135
2943.00,0.0136
2942.00,0.0136
2941.00,0.0137
2940.00,0.0137
2939.00,0.0138
2938.00,0.0138
2937.00,0.0139
2936.00,0.0139
2935.00,0.0139
2934.00,0.0139
2933.00,0.0139
2932.00,0.0139
2931.00,0.0139
2930.00,0.0139
2929.00,0.0138
2928.00,0.0138
2927.00,0.0137
2926.00,0.0137
2925.00,0.0136
2924.00,0.0136
2923.00,0.0135
2922.00,0.0135
2921.00,0.0135
2920.00,0.0134
2919.00,0.0134
2918.00,0.0133
2917.00,0.0133
2916.00,0.0132
2915.00,0.0131
2914.00,0.0130
2913.00,0.0129
2912.00,0.0128
2911.00,0.0127
2910.00,0.0126
2909.00,0.0125
2908.00,0.0125
2907.00,0.0124
2906.00,0.0123
2905.00,0.0122
2904.00,0.0122
2903.00,0.0121
2902.00,0.0121
2901.00,0.0121
2900.00,0.0121
2899.00,0.0120
2898.00,0.0120
2897.00,0.0120
2896.00,0.0119
2895.00,0.0119
2894.00,0.0119
2893.00,0.0118
2892.00,0.0118
2891.00,0.0118
2890.00,0.0118
2889.00,0.0118
2888.00,0.0118
2887.00,0.0118
2886.00,0.0119
2885.00,0.0119
2884.00,0.0119
2883.00,0.0119
2882.00,0.0120
2881.00,0.0121
2880.00,0.0121
2879.00,0.0122
2878.00,0.0122
2877.00,0.0123
2876.00,0.0123
2875.00,0.0123
2874.00,0.0122
2873.00,0.0122
2872.00,0.0122
2871.00,0.0121
2870.00,0.0121
2869.00,0.0120
2868.00,0.0119
2867.00,0.0118
2866.00,0.0117
2865.00,0.0116
2864.00,0.0115
2863.00,0.0114
2862.00,0.0113
2861.00,0.0112
2860.00,0.0112
2859.00,0.0111
2858.00,0.0111
2857.00,0.0111
2856.00,0.0111
2855.00,0.0110
2854.00,0.0110
2853.00,0.0110
2852.00,0.0110
2851.00,0.0110
2850.00,0.0110
2849.00,0.0110
2848.00,0.0109
2847.00,0.0109
2846.00,0.0108
2845.00,0.0108
2844.00,0.0107
2843.00,0.0106
2842.00,0.0106
2841.00,0.0105
2840.00,0.0104
2839.00,0.0104
2838.00,0.0104
2837.00,0.0103
2836.00,0.0103
2835.00,0.0103
2834.00,0.0103
2833.00,0.0102
2832.00,0.0102
2831.00,0.0102
2830.00,0.0102
2829.00,0.0101
2828.00,0.0101
2827.00,0.0101
2826.00,0.0101
2825.00,0.0101
2824.00,0.0100
2823.00,0.0100
2822.00,0.0100
2821.00,0.0100
2820.00,0.0100
2819.00,0.0099
2818.00,0.0099
2817.00,0.0099
2816.00,0.0099
2815.00,0.0099
2814.00,0.0098
2813.00,0.0098
2812.00,0.0098
2811.00,0.0098
2810.00,0.0098
2809.00,0.0097
2808.00,0.0097
2807.00,0.0097
2806.00,0.0097
2805.00,0.0097
2804.00,0.0097
2803.00,0.0096
2802.00,0.0096
2801.00,0.0096
2800.00,0.0096
2799.00,0.0096
2798.00,0.0095
2797.00,0.0095
2796.00,0.0095
2795.00,0.0095
2794.00,0.0095
2793.00,0.0095
2792.00,0.0095
2791.00,0.0094
2790.00,0.0094
2789.00,0.0094
2788.00,0.0094
2787.00,0.0094
2786.00,0.0093
2785.00,0.0093
2784.00,0.0093
2783.00,0.0093
2782.00,0.0093
2781.00,0.0093
2780.00,0.0092
2779.00,0.0092
2778.00,0.0092
2777.00,0.0092
2776.00,0.0092
2775.00,0.0092
2774.00,0.0092
2773.00,0.0091
2772.00,0.0091
2771.00,0.0091
2770.00,0.0091
2769.00,0.0090
2768.00,0.0090
2767.00,0.0090
2766.00,0.0090
2765.00,0.0090
2764.00,0.0090
2763.00,0.0089
2762.00,0.0089
2761.00,0.0089
2760.00,0.0089
2759.00,0.0089
2758.00,0.0089
2757.00,0.0089
2756.00,0.0088
2755.00,0.0088
2754.00,0.0088
2753.00,0.0088
2752.00,0.0088
2751.00,0.0087
2750.00,0.0087
2749.00,0.0087
2748.00,0.0087
2747.00,0.0087
2746.00,0.0087
2745.00,0.0086
2744.00,0.0086
2743.00,0.0086
2742.00,0.0086
2741.00,0.0086
2740.00,0.0086
2739.00,0.0086
2738.00,0.0085
2737.00,0.0085
2736.00,0.0085
2735.00,0.0085
2734.00,0.0085
2733.00,0.0085
2732.00,0.0084
2731.00,0.0084
2730.00,0.0084
2729.00,0.0084
2728.00,0.0084
2727.00,0.0083
2726.00,0.0083
2725.00,0.0083
2724.00,0.0083
2723.00,0.0083
2722.00,0.0083
2721.00,0.0083
2720.00,0.0083
2719.00,0.0082
2718.00,0.0082
2717.00,0.0082
2716.00,0.0082
2715.00,0.0082
2714.00,0.0082
2713.00,0.0081
2712.00,0.0081
2711.00,0.0081
2710.00,0.0081
2709.00,0.0081
2708.00,0.0080
2707.00,0.0080
2706.00,0.0080
2705.00,0.0080
2704.00,0.0080
2703.00,0.0080
2702.00,0.0080
2701.00,0.0079
2700.00,0.0079
2699.00,0.0079
2698.00,0.0079
2697.00,0.0079
2696.00,0.0079
2695.00,0.0079
2694.00,0.0078
2693.00,0.0078
2692.00,0.0078
2691.00,0.0078
2690.00,0.0078
2689.00,0.0078
2688.00,0.0078
2687.00,0.0078
2686.00,0.0078
2685.00,0.0078
2684.00,0.0077
2683.00,0.0077
2682.00,0.0077
2681.00,0.0077
2680.00,0.0077
2679.00,0.0077
2678.00,0.0076
2677.00,0.0076
2676.00,0.0076
2675.00,0.0076
2674.00,0.0076
2673.00,0.0076
2672.00,0.0076
2671.00,0.0076
2670.00,0.0076
2669.00,0.0076
2668.00,0.0076
2667.00,0.0076
2666.00,0.0076
2665.00,0.0075
2664.00,0.0075
2663.00,0.0075
2662.00,0.0075
2661.00,0.0075
2660.00,0.0075
2659.00,0.0075
2658.00,0.0075
2657.00,0.0075
2656.00,0.0075
2655.00,0.0075
2654.00,0.0075
2653.00,0.0075
2652.00,0.0075
2651.00,0.0075
2650.00,0.0075
2649.00,0.0075
2648.00,0.0075
2647.00,0.0075
2646.00,0.0075
2645.00,0.0075
2644.00,0.0075
2643.00,0.0075
2642.00,0.0075
2641.00,0.0075
2640.00,0.0075
2639.00,0.0075
2638.00,0.0075
2637.00,0.0075
2636.00,0.0075
2635.00,0.0075
2634.00,0.0075
2633.00,0.0075
2632.00,0.0075
2631.00,0.0075
2630.00,0.0075
2629.00,0.0075
2628.00,0.0075
2627.00,0.0075
2626.00,0.0075
2625.00,0.0075
2624.00,0.0075
2623.00,0.0075
2622.00,0.0074
2621.00,0.0074
2620.00,0.0074
2619.00,0.0074
2618.00,0.0074
2617.00,0.0074
2616.00,0.0075
2615.00,0.0075
2614.00,0.0075
2613.00,0.0074
2612.00,0.0074
2611.00,0.0074
2610.00,0.0074
2609.00,0.0074
2608.00,0.0074
2607.00,0.0074
2606.00,0.0074
2605.00,0.0074
2604.00,0.0074
2603.00,0.0074
2602.00,0.0074
2601.00,0.0073
2600.00,0.0073
2599.00,0.0073
2598.00,0.0073
2597.00,0.0073
2596.00,0.0073
2595.00,0.0073
2594.00,0.0073
2593.00,0.0073
2592.00,0.0073
2591.00,0.0073
2590.00,0.0073
2589.00,0.0073
2588.00,0.0073
2587.00,0.0073
2586.00,0.0073
2585.00,0.0073
2584.00,0.0072
2583.00,0.0072
2582.00,0.0072
2581.00,0.0072
2580.00,0.0072
2579.00,0.0072
2578.00,0.0072
2577.00,0.0072
2576.00,0.0072
2575.00,0.0072
2574.00,0.0072
2573.00,0.0072
2572.00,0.0072
2571.00,0.0072
2570.00,0.0072
2569.00,0.0072
2568.00,0.0072
2567.00,0.0071
2566.00,0.0071
2565.00,0.0071
2564.00,0.0071
2563.00,0.0071
2562.00,0.0071
2561.00,0.0071
2560.00,0.0071
2559.00,0.0071
2558.00,0.0071
2557.00,0.0071
2556.00,0.0071
2555.00,0.0071
2554.00,0.0070
2553.00,0.0070
2552.00,0.0070
2551.00,0.0070
2550.00,0.0070
2549.00,0.0070
2548.00,0.0070
2547.00,0.0070
2546.00,0.0070
2545.00,0.0070
2544.00,0.0070
2543.00,0.0070
2542.00,0.0070
2541.00,0.0070
2540.00,0.0069
2539.00,0.0069
2538.00,0.0069
2537.00,0.0069
2536.00,0.0069
2535.00,0.0069
2534.00,0.0069
2533.00,0.0068
2532.00,0.0068
2531.00,0.0068
2530.00,0.0068
2529.00,0.0068
2528.00,0.0068
2527.00,0.0068
2526.00,0.0068
2525.00,0.0068
2524.00,0.0068
2523.00,0.0068
2522.00,0.0068
2521.00,0.0068
2520.00,0.0068
2519.00,0.0068
2518.00,0.0068
2517.00,0.0067
2516.00,0.0067
2515.00,0.0067
2514.00,0.0067
2513.00,0.0067
2512.00,0.0067
2511.00,0.0067
2510.00,0.0067
2509.00,0.0067
2508.00,0.0067
2507.00,0.0067
2506.00,0.0067
2505.00,0.0067
2504.00,0.0067
2503.00,0.0067
2502.00,0.0067
2501.00,0.0067
2500.00,0.0067
2499.00,0.0067
2498.00,0.0067
2497.00,0.0067
2496.00,0.0067
2495.00,0.0067
2494.00,0.0066
2493.00,0.0066
2492.00,0.0066
2491.00,0.0066
2490.00,0.0066
2489.00,0.0066
2488.00,0.0066
2487.00,0.0066
2486.00,0.0066
2485.00,0.0066
2484.00,0.0066
2483.00,0.0066
2482.00,0.0066
2481.00,0.0066
2480.00,0.0066
2479.00,0.0066
2478.00,0.0066
2477.00,0.0065
2476.00,0.0065
2475.00,0.0065
2474.00,0.0065
2473.00,0.0065
2472.00,0.0065
2471.00,0.0064
2470.00,0.0064
2469.00,0.0065
2468.00,0.0065
2467.00,0.0065
2466.00,0.0064
2465.00,0.0064
2464.00,0.0064
2463.00,0.0064
2462.00,0.0065
2461.00,0.0065
2460.00,0.0065
2459.00,0.0065
2458.00,0.0065
2457.00,0.0064
2456.00,0.0064
2455.00,0.0064
2454.00,0.0064
2453.00,0.0064
2452.00,0.0064
2451.00,0.0064
2450.00,0.0064
2449.00,0.0064
2448.00,0.0064
2447.00,0.0064
2446.00,0.0063
2445.00,0.0063
2444.00,0.0064
2443.00,0.0064
2442.00,0.0063
2441.00,0.0063
2440.00,0.0063
2439.00,0.0063
2438.00,0.0063
2437.00,0.0063
2436.00,0.0063
2435.00,0.0063
2434.00,0.0063
2433.00,0.0063
2432.00,0.0063
2431.00,0.0062
2430.00,0.0062
2429.00,0.0062
2428.00,0.0062
2427.00,0.0062
2426.00,0.0062
2425.00,0.0062
2424.00,0.0062
2423.00,0.0062
2422.00,0.0062
2421.00,0.0062
2420.00,0.0061
2419.00,0.0061
2418.00,0.0061
2417.00,0.0061
2416.00,0.0061
2415.00,0.0061
2414.00,0.0061
2413.00,0.0061
2412.00,0.0061
2411.00,0.0061
2410.00,0.0061
2409.00,0.0061
2408.00,0.0060
2407.00,0.0061
2406.00,0.0061
2405.00,0.0061
2404.00,0.0061
2403.00,0.0060
2402.00,0.0060
2401.00,0.0060
2400.00,0.0060
2399.00,0.0060
2398.00,0.0060
2397.00,0.0060
2396.00,0.0060
2395.00,0.0060
2394.00,0.0059
2393.00,0.0059
2392.00,0.0059
2391.00,0.0059
2390.00,0.0059
2389.00,0.0059
2388.00,0.0059
2387.00,0.0059
2386.00,0.0059
2385.00,0.0059
2384.00,0.0059
2383.00,0.0058
2382.00,0.0058
2381.00,0.0058
2380.00,0.0058
2379.00,0.0058
2378.00,0.0058
2377.00,0.0059
2376.00,0.0059
2375.00,0.0059
2374.00,0.0059
2373.00,0.0058
2372.00,0.0058
2371.00,0.0058
2370.00,0.0058
2369.00,0.0058
2368.00,0.0058
2367.00,0.0058
2366.00,0.0058
2365.00,0.0058
2364.00,0.0058
2363.00,0.0058
2362.00,0.0058
2361.00,0.0058
2360.00,0.0058
2359.00,0.0057
2358.00,0.0057
2357.00,0.0057
2356.00,0.0057
2355.00,0.0057
2354.00,0.0057
2353.00,0.0057
2352.00,0.0057
2351.00,0.0057
2350.00,0.0057
2349.00,0.0057
2348.00,0.0057
2347.00,0.0057
2346.00,0.0056
2345.00,0.0056
2344.00,0.0056
2343.00,0.0056
2342.00,0.0056
2341.00,0.0056
2340.00,0.0057
2339.00,0.0057
2338.00,0.0056
2337.00,0.0056
2336.00,0.0056
2335.00,0.0056
2334.00,0.0056
2333.00,0.0056
2332.00,0.0056
2331.00,0.0056
2330.00,0.0056
2329.00,0.0056
2328.00,0.0056
2327.00,0.0056
2326.00,0.0055
2325.00,0.0055
2324.00,0.0055
2323.00,0.0055
2322.00,0.0055
2321.00,0.0055
2320.00,0.0055
2319.00,0.0055
2318.00,0.0055
2317.00,0.0056
2316.00,0.0056
2315.00,0.0056
2314.00,0.0055
2313.00,0.0055
2312.00,0.0055
2311.00,0.0055
2310.00,0.0055
2309.00,0.0055
2308.00,0.0055
2307.00,0.0055
2306.00,0.0055
2305.00,0.0055
2304.00,0.0055
2303.00,0.0055
2302.00,0.0055
2301.00,0.0055
2300.00,0.0055
2299.00,0.0055
2298.00,0.0055
2297.00,0.0055
2296.00,0.0055
2295.00,0.0055
2294.00,0.0055
2293.00,0.0055
2292.00,0.0055
2291.00,0.0055
2290.00,0.0055
2289.00,0.0055
2288.00,0.0055
2287.00,0.0055
2286.00,0.0055
2285.00,0.0055
2284.00,0.0055
2283.00,0.0055
2282.00,0.0055
2281.00,0.0055
2280.00,0.0055
2279.00,0.0055
2278.00,0.0055
2277.00,0.0055
2276.00,0.0055
2275.00,0.0055
2274.00,0.0055
2273.00,0.0055
2272.00,0.0055
2271.00,0.0055
2270.00,0.0055
2269.00,0.0055
2268.00,0.0055
2267.00,0.0054
2266.00,0.0054
2265.00,0.0054
2264.00,0.0054
2263.00,0.0054
2262.00,0.0054
2261.00,0.0054
2260.00,0.0054
2259.00,0.0055
2258.00,0.0055
2257.00,0.0056
2256.00,0.0056
2255.00,0.0055
2254.00,0.0055
2253.00,0.0054
2252.00,0.0054
2251.00,0.0054
2250.00,0.0054
2249.00,0.0054
2248.00,0.0054
2247.00,0.0054
2246.00,0.0053
2245.00,0.0053
2244.00,0.0053
2243.00,0.0053
2242.00,0.0053
2241.00,0.0053
2240.00,0.0053
2239.00,0.0053
2238.00,0.0053
2237.00,0.0053
2236.00,0.0054
2235.00,0.0054
2234.00,0.0053
2233.00,0.0053
2232.00,0.0053
2231.00,0.0053
2230.00,0.0053
2229.00,0.0053
2228.00,0.0054
2227.00,0.0054
2226.00,0.0053
2225.00,0.0053
2224.00,0.0054
2223.00,0.0054
2222.00,0.0054
2221.00,0.0054
2220.00,0.0053
2219.00,0.0053
2218.00,0.0052
2217.00,0.0052
2216.00,0.0052
2215.00,0.0052
2214.00,0.0052
2213.00,0.0053
2212.00,0.0053
2211.00,0.0053
2210.00,0.0053
2209.00,0.0052
2208.00,0.0052
2207.00,0.0052
2206.00,0.0052
2205.00,0.0052
2204.00,0.0052
2203.00,0.0053
2202.00,0.0052
2201.00,0.0052
2200.00,0.0052
2199.00,0.0052
2198.00,0.0053
2197.00,0.0053
2196.00,0.0053
2195.00,0.0053
2194.00,0.0052
2193.00,0.0052
2192.00,0.0051
2191.00,0.0051
2190.00,0.0051
2189.00,0.0051
2188.00,0.0052
2187.00,0.0052
2186.00,0.0051
2185.00,0.0051
2184.00,0.0051
2183.00,0.0051
2182.00,0.0051
2181.00,0.0051
2180.00,0.0051
2179.00,0.0050
2178.00,0.0050
2177.00,0.0050
2176.00,0.0050
2175.00,0.0050
2174.00,0.0050
2173.00,0.0050
2172.00,0.0050
2171.00,0.0051
2170.00,0.0051
2169.00,0.0051
2168.00,0.0051
2167.00,0.0051
2166.00,0.0050
2165.00,0.0049
2164.00,0.0049
2163.00,0.0049
2162.00,0.0049
2161.00,0.0049
2160.00,0.0049
2159.00,0.0049
2158.00,0.0048
2157.00,0.0048
2156.00,0.0049
2155.00,0.0049
2154.00,0.0050
2153.00,0.0050
2152.00,0.0050
2151.00,0.0050
2150.00,0.0050
2149.00,0.0049
2148.00,0.0049
2147.00,0.0049
2146.00,0.0050
2145.00,0.0050
2144.00,0.0050
2143.00,0.0050
2142.00,0.0050
2141.00,0.0050
2140.00,0.0049
2139.00,0.0049
2138.00,0.0049
2137.00,0.0049
2136.00,0.0049
2135.00,0.0049
2134.00,0.0049
2133.00,0.0049
2132.00,0.0049
2131.00,0.0049
2130.00,0.0050
2129.00,0.0050
2128.00,0.0050
2127.00,0.0049
2126.00,0.0049
2125.00,0.0048
2124.00,0.0048
2123.00,0.0048
2122.00,0.0048
2121.00,0.0048
2120.00,0.0049
2119.00,0.0049
2118.00,0.0049
2117.00,0.0049
2116.00,0.0049
2115.00,0.0049
2114.00,0.0049
2113.00,0.0049
2112.00,0.0049
2111.00,0.0049
2110.00,0.0048
2109.00,0.0048
2108.00,0.0049
2107.00,0.0049
2106.00,0.0049
2105.00,0.0049
2104.00,0.0049
2103.00,0.0049
2102.00,0.0049
2101.00,0.0049
2100.00,0.0049
2099.00,0.0048
2098.00,0.0048
2097.00,0.0047
2096.00,0.0047
2095.00,0.0047
2094.00,0.0047
2093.00,0.0048
2092.00,0.0048
2091.00,0.0048
2090.00,0.0048
2089.00,0.0048
2088.00,0.0048
2087.00,0.0048
2086.00,0.0047
2085.00,0.0047
2084.00,0.0047
2083.00,0.0047
2082.00,0.0046
2081.00,0.0046
2080.00,0.0046
2079.00,0.0045
2078.00,0.0045
2077.00,0.0045
2076.00,0.0046
2075.00,0.0046
2074.00,0.0046
2073.00,0.0046
2072.00,0.0045
2071.00,0.0045
2070.00,0.0045
2069.00,0.0045
2068.00,0.0045
2067.00,0.0045
2066.00,0.0045
2065.00,0.0044
2064.00,0.0044
2063.00,0.0044
2062.00,0.0044
2061.00,0.0044
2060.00,0.0045
2059.00,0.0045
2058.00,0.0045
2057.00,0.0045
2056.00,0.0045
2055.00,0.0045
2054.00,0.0045
2053.00,0.0044
2052.00,0.0044
2051.00,0.0043
2050.00,0.0043
2049.00,0.0042
2048.00,0.0043
2047.00,0.0043
2046.00,0.0044
2045.00,0.0044
2044.00,0.0044
2043.00,0.0044
2042.00,0.0043
2041.00,0.0044
2040.00,0.0044
2039.00,0.0044
2038.00,0.0044
2037.00,0.0043
2036.00,0.0043
2035.00,0.0043
2034.00,0.0042
2033.00,0.0042
2032.00,0.0042
2031.00,0.0042
2030.00,0.0043
2029.00,0.0043
2028.00,0.0043
2027.00,0.0042
2026.00,0.0041
2025.00,0.0041
2024.00,0.0041
2023.00,0.0042
2022.00,0.0042
2021.00,0.0042
2020.00,0.0042
2019.00,0.0041
2018.00,0.0041
2017.00,0.0041
2016.00,0.0042
2015.00,0.0042
2014.00,0.0043
2013.00,0.0042
2012.00,0.0042
2011.00,0.0042
2010.00,0.0041
2009.00,0.0041
2008.00,0.0041
2007.00,0.0040
2006.00,0.0039
2005.00,0.0038
2004.00,0.0039
2003.00,0.0040
2002.00,0.0040
2001.00,0.0041
2000.00,0.0041
1999.00,0.0041
1998.00,0.0041
1997.00,0.0040
1996.00,0.0040
1995.00,0.0040
1994.00,0.0040
1993.00,0.0039
1992.00,0.0039
1991.00,0.0039
1990.00,0.0040
1989.00,0.0040
1988.00,0.0041
1987.00,0.0041
1986.00,0.0040
1985.00,0.0039
1984.00,0.0039
1983.00,0.0039
1982.00,0.0038
1981.00,0.0038
1980.00,0.0037
1979.00,0.0037
1978.00,0.0036
1977.00,0.0036
1976.00,0.0036
1975.00,0.0036
1974.00,0.0036
1973.00,0.0036
1972.00,0.0037
1971.00,0.0037
1970.00,0.0037
1969.00,0.0037
1968.00,0.0038
1967.00,0.0038
1966.00,0.0038
1965.00,0.0037
1964.00,0.0037
1963.00,0.0037
1962.00,0.0037
1961.00,0.0037
1960.00,0.0037
1959.00,0.0037
1958.00,0.0036
1957.00,0.0035
1956.00,0.0035
1955.00,0.0035
1954.00,0.0035
1953.00,0.0036
1952.00,0.0036
1951.00,0.0036
1950.00,0.0036
1949.00,0.0037
1948.00,0.0037
1947.00,0.0037
1946.00,0.0036
1945.00,0.0036
1944.00,0.0035
1943.00,0.0035
1942.00,0.0036
1941.00,0.0036
1940.00,0.0036
1939.00,0.0036
1938.00,0.0036
1937.00,0.0035
1936.00,0.0035
1935.00,0.0034
1934.00,0.0034
1933.00,0.0034
1932.00,0.0034
1931.00,0.0034
1930.00,0.0034
1929.00,0.0034
1928.00,0.0034
1927.00,0.0034
1926.00,0.0034
1925.00,0.0034
1924.00,0.0034
1923.00,0.0034
1922.00,0.0034
1921.00,0.0033
1920.00,0.0033
1919.00,0.0033
1918.00,0.0034
1917.00,0.0034
1916.00,0.0034
1915.00,0.0034
1914.00,0.0034
1913.00,0.0033
1912.00,0.0033
1911.00,0.0033
1910.00,0.0032
1909.00,0.0032
1908.00,0.0032
1907.00,0.0031
1906.00,0.0031
1905.00,0.0031
1904.00,0.0031
1903.00,0.0031
1902.00,0.0031
1901.00,0.0031
1900.00,0.0031
1899.00,0.0031
1898.00,0.0031
1897.00,0.0031
1896.00,0.0031
1895.00,0.0030
1894.00,0.0030
1893.00,0.0030
1892.00,0.0030
1891.00,0.0030
1890.00,0.0030
1889.00,0.0030
1888.00,0.0030
1887.00,0.0030
1886.00,0.0030
1885.00,0.0030
1884.00,0.0029
1883.00,0.0029
1882.00,0.0029
1881.00,0.0029
1880.00,0.0029
1879.00,0.0029
1878.00,0.0029
1877.00,0.0029
1876.00,0.0029
1875.00,0.0028
1874.00,0.0028
1873.00,0.0028
1872.00,0.0028
1871.00,0.0027
1870.00,0.0027
1869.00,0.0027
1868.00,0.0028
1867.00,0.0028
1866.00,0.0028
1865.00,0.0028
1864.00,0.0027
1863.00,0.0027
1862.00,0.0027
1861.00,0.0027
1860.00,0.0027
1859.00,0.0026
1858.00,0.0026
1857.00,0.0026
1856.00,0.0026
1855.00,0.0026
1854.00,0.0025
1853.00,0.0025
1852.00,0.0025
1851.00,0.0025
1850.00,0.0025
1849.00,0.0025
1848.00,0.0025
1847.00,0.0025
1846.00,0.0024
1845.00,0.0024
1844.00,0.0025
1843.00,0.0025
1842.00,0.0025
1841.00,0.0024
1840.00,0.0024
1839.00,0.0023
1838.00,0.0023
1837.00,0.0023
1836.00,0.0023
1835.00,0.0023
1834.00,0.0022
1833.00,0.0022
1832.00,0.0022
1831.00,0.0021
1830.00,0.0021
1829.00,0.0022
1828.00,0.0022
1827.00,0.0022
1826.00,0.0021
1825.00,0.0021
1824.00,0.0021
1823.00,0.0021
1822.00,0.0021
1821.00,0.0021
1820.00,0.0021
1819.00,0.0021
1818.00,0.0020
1817.00,0.0020
1816.00,0.0020
1815.00,0.0020
1814.00,0.0019
1813.00,0.0019
1812.00,0.0019
1811.00,0.0019
1810.00,0.0018
1809.00,0.0018
1808.00,0.0018
1807.00,0.0018
1806.00,0.0018
1805.00,0.0017
1804.00,0.0017
1803.00,0.0017
1802.00,0.0017
1801.00,0.0017
1800.00,0.0017
1799.00,0.0017
1798.00,0.0017
1797.00,0.0016
1796.00,0.0016
1795.00,0.0016
1794.00,0.0016
1793.00,0.0016
1792.00,0.0016
1791.00,0.0016
1790.00,0.0016
1789.00,0.0016
1788.00,0.0015
1787.00,0.0015
1786.00,0.0015
1785.00,0.0014
1784.00,0.0014
1783.00,0.0014
1782.00,0.0014
1781.00,0.0014
1780.00,0.0014
1779.00,0.0014
1778.00,0.0013
1777.00,0.0013
1776.00,0.0013
1775.00,0.0013
1774.00,0.0013
1773.00,0.0013
1772.00,0.0013
1771.00,0.0013
1770.00,0.0013
1769.00,0.0012
1768.00,0.0012
1767.00,0.0012
1766.00,0.0011
1765.00,0.0011
1764.00,0.0011
1763.00,0.0010
1762.00,0.0010
1761.00,0.0010
1760.00,0.0010
1759.00,0.0010
1758.00,0.0010
1757.00,0.0009
1756.00,0.0010
1755.00,0.0010
1754.00,0.0010
1753.00,0.0010
1752.00,0.0010
1751.00,0.0011
1750.00,0.0011
1749.00,0.0011
1748.00,0.0011
1747.00,0.0011
1746.00,0.0011
1745.00,0.0011
1744.00,0.0011
1743.00,0.0011
1742.00,0.0011
1741.00,0.0010
1740.00,0.0011
1739.00,0.0011
1738.00,0.0011
1737.00,0.0010
1736.00,0.0011
1735.00,0.0011
1734.00,0.0011
1733.00,0.0011
1732.00,0.0010
1731.00,0.0008
1730.00,0.0006
1729.00,0.0004
1728.00,0.0004
1727.00,0.0003
1726.00,0.0003
1725.00,0.0002
1724.00,0.0002
1723.00,0.0003
1722.00,0.0003
1721.00,0.0003
1720.00,0.0005
1719.00,0.0006
1718.00,0.0009
1717.00,0.0011
1716.00,0.0013
1715.00,0.0014
1714.00,0.0014
1713.00,0.0015
1712.00,0.0017
1711.00,0.0020
1710.00,0.0022
1709.00,0.0025
1708.00,0.0029
1707.00,0.0034
1706.00,0.0039
1705.00,0.0047
1704.00,0.0054
1703.00,0.0062
1702.00,0.0071
1701.00,0.0084
1700.00,0.0102
1699.00,0.0118
1698.00,0.0128
1697.00,0.0135
1696.00,0.0140
1695.00,0.0145
1694.00,0.0149
1693.00,0.0151
1692.00,0.0154
1691.00,0.0158
1690.00,0.0163
1689.00,0.0169
1688.00,0.0176
1687.00,0.0183
1686.00,0.0190
1685.00,0.0197
1684.00,0.0205
1683.00,0.0212
1682.00,0.0219
1681.00,0.0225
1680.00,0.0232
1679.00,0.0239
1678.00,0.0246
1677.00,0.0253
1676.00,0.0260
1675.00,0.0269
1674.00,0.0277
1673.00,0.0285
1672.00,0.0293
1671.00,0.0301
1670.00,0.0308
1669.00,0.0317
1668.00,0.0326
1667.00,0.0336
1666.00,0.0344
1665.00,0.0352
1664.00,0.0361
1663.00,0.0369
1662.00,0.0378
1661.00,0.0387
1660.00,0.0396
1659.00,0.0405
1658.00,0.0413
1657.00,0.0422
1656.00,0.0431
1655.00,0.0439
1654.00,0.0444
1653.00,0.0446
1652.00,0.0452
1651.00,0.0460
1650.00,0.0465
1649.00,0.0468
1648.00,0.0469
1647.00,0.0470
1646.00,0.0470
1645.00,0.0472
1644.00,0.0476
1643.00,0.0479
1642.00,0.0481
1641.00,0.0483
1640.00,0.0486
1639.00,0.0489
1638.00,0.0492
1637.00,0.0492
1636.00,0.0490
1635.00,0.0489
1634.00,0.0491
1633.00,0.0495
1632.00,0.0499
1631.00,0.0503
1630.00,0.0506
1629.00,0.0509
1628.00,0.0513
1627.00,0.0518
1626.00,0.0524
1625.00,0.0530
1624.00,0.0535
1623.00,0.0540
1622.00,0.0546
1621.00,0.0552
1620.00,0.0559
1619.00,0.0564
1618.00,0.0566
1617.00,0.0563
1616.00,0.0559
1615.00,0.0555
1614.00,0.0551
1613.00,0.0545
1612.00,0.0537
1611.00,0.0527
1610.00,0.0515
1609.00,0.0502
1608.00,0.0488
1607.00,0.0474
1606.00,0.0461
1605.00,0.0448
1604.00,0.0434
1603.00,0.0420
1602.00,0.0407
1601.00,0.0394
1600.00,0.0381
1599.00,0.0370
1598.00,0.0359
1597.00,0.0348
1596.00,0.0337
1595.00,0.0327
1594.00,0.0318
1593.00,0.0309
1592.00,0.0301
1591.00,0.0293
1590.00,0.0286
1589.00,0.0280
1588.00,0.0274
1587.00,0.0268
1586.00,0.0264
1585.00,0.0259
1584.00,0.0255
1583.00,0.0252
1582.00,0.0249
1581.00,0.0247
1580.00,0.0245
1579.00,0.0244
1578.00,0.0244
1577.00,0.0244
1576.00,0.0243
1575.00,0.0243
1574.00,0.0243
1573.00,0.0244
1572.00,0.0245
1571.00,0.0246
1570.00,0.0248
1569.00,0.0252
1568.00,0.0256
1567.00,0.0260
1566.00,0.0264
1565.00,0.0269
1564.00,0.0274
1563.00,0.0280
1562.00,0.0287
1561.00,0.0294
1560.00,0.0300
1559.00,0.0307
1558.00,0.0316
1557.00,0.0325
1556.00,0.0332
1555.00,0.0339
1554.00,0.0346
1553.00,0.0354
1552.00,0.0362
1551.00,0.0369
1550.00,0.0376
1549.00,0.0384
1548.00,0.0392
1547.00,0.0399
1546.00,0.0406
1545.00,0.0413
1544.00,0.0419
1543.00,0.0426
1542.00,0.0433
1541.00,0.0438
1540.00,0.0441
1539.00,0.0445
1538.00,0.0450
1537.00,0.0455
1536.00,0.0458
1535.00,0.0461
1534.00,0.0463
1533.00,0.0466
1532.00,0.0470
1531.00,0.0475
1530.00,0.0480
1529.00,0.0484
1528.00,0.0488
1527.00,0.0491
1526.00,0.0495
1525.00,0.0499
1524.00,0.0504
1523.00,0.0508
1522.00,0.0510
1521.00,0.0512
1520.00,0.0516
1519.00,0.0520
1518.00,0.0522
1517.00,0.0523
1516.00,0.0523
1515.00,0.0524
1514.00,0.0525
1513.00,0.0525
1512.00,0.0523
1511.00,0.0521
1510.00,0.0520
1509.00,0.0518
1508.00,0.0512
1507.00,0.0498
1506.00,0.0485
1505.00,0.0478
1504.00,0.0474
1503.00,0.0469
1502.00,0.0463
1501.00,0.0456
1500.00,0.0448
1499.00,0.0440
1498.00,0.0431
1497.00,0.0421
1496.00,0.0410
1495.00,0.0401
1494.00,0.0393
1493.00,0.0386
1492.00,0.0377
1491.00,0.0366
1490.00,0.0355
1489.00,0.0343
1488.00,0.0334
1487.00,0.0325
1486.00,0.0318
1485.00,0.0311
1484.00,0.0304
1483.00,0.0298
1482.00,0.0291
1481.00,0.0285
1480.00,0.0281
1479.00,0.0277
1478.00,0.0273
1477.00,0.0270
1476.00,0.0268
1475.00,0.0267
1474.00,0.0267
1473.00,0.0266
1472.00,0.0265
1471.00,0.0266
1470.00,0.0266
1469.00,0.0267
1468.00,0.0267
1467.00,0.0266
1466.00,0.0266
1465.00,0.0266
1464.00,0.0267
1463.00,0.0268
1462.00,0.0270
1461.00,0.0273
1460.00,0.0275
1459.00,0.0278
1458.00,0.0282
1457.00,0.0287
1456.00,0.0292
1455.00,0.0296
1454.00,0.0298
1453.00,0.0299
1452.00,0.0300
1451.00,0.0300
1450.00,0.0300
1449.00,0.0299
1448.00,0.0297
1447.00,0.0295
1446.00,0.0293
1445.00,0.0291
1444.00,0.0288
1443.00,0.0285
1442.00,0.0282
1441.00,0.0279
1440.00,0.0276
1439.00,0.0273
1438.00,0.0270
1437.00,0.0265
1436.00,0.0261
1435.00,0.0258
1434.00,0.0256
1433.00,0.0254
1432.00,0.0251
1431.00,0.0248
1430.00,0.0246
1429.00,0.0245
1428.00,0.0244
1427.00,0.0244
1426.00,0.0243
1425.00,0.0243
1424.00,0.0244
1423.00,0.0245
1422.00,0.0247
1421.00,0.0248
1420.00,0.0250
1419.00,0.0251
1418.00,0.0253
1417.00,0.0255
1416.00,0.0256
1415.00,0.0257
1414.00,0.0259
1413.00,0.0260
1412.00,0.0261
1411.00,0.0261
1410.00,0.0262
1409.00,0.0262
1408.00,0.0263
1407.00,0.0263
1406.00,0.0262
1405.00,0.0262
1404.00,0.0261
1403.00,0.0261
1402.00,0.0261
1401.00,0.0260
1400.00,0.0259
1399.00,0.0258
1398.00,0.0258
1397.00,0.0257
1396.00,0.0256
1395.00,0.0255
1394.00,0.0255
1393.00,0.0255
1392.00,0.0255
1391.00,0.0255
1390.00,0.0255
1389.00,0.0255
1388.00,0.0255
1387.00,0.0254
1386.00,0.0254
1385.00,0.0253
1384.00,0.0252
1383.00,0.0251
1382.00,0.0250
1381.00,0.0249
1380.00,0.0248
1379.00,0.0247
1378.00,0.0246
1377.00,0.0246
1376.00,0.0245
1375.00,0.0244
1374.00,0.0244
1373.00,0.0243
1372.00,0.0243
1371.00,0.0243
1370.00,0.0243
1369.00,0.0241
1368.00,0.0240
1367.00,0.0238
1366.00,0.0237
1365.00,0.0235
1364.00,0.0232
1363.00,0.0230
1362.00,0.0228
1361.00,0.0226
1360.00,0.0225
1359.00,0.0224
1358.00,0.0222
1357.00,0.0221
1356.00,0.0220
1355.00,0.0220
1354.00,0.0219
1353.00,0.0219
1352.00,0.0219
1351.00,0.0218
1350.00,0.0218
1349.00,0.0218
1348.00,0.0218
1347.00,0.0219
1346.00,0.0219
1345.00,0.0219
1344.00,0.0219
1343.00,0.0220
1342.00,0.0220
1341.00,0.0220
1340.00,0.0220
1339.00,0.0220
1338.00,0.0220
1337.00,0.0220
1336.00,0.0220
1335.00,0.0220
1334.00,0.0219
1333.00,0.0219
1332.00,0.0218
1331.00,0.0218
1330.00,0.0218
1329.00,0.0217
1328.00,0.0217
1327.00,0.0217
1326.00,0.0217
1325.00,0.0217
1324.00,0.0216
1323.00,0.0217
1322.00,0.0217
1321.00,0.0217
1320.00,0.0217
1319.00,0.0217
1318.00,0.0218
1317.00,0.0218
1316.00,0.0218
1315.00,0.0219
1314.00,0.0219
1313.00,0.0220
1312.00,0.0220
1311.00,0.0220
1310.00,0.0221
1309.00,0.0221
1308.00,0.0221
1307.00,0.0221
1306.00,0.0222
1305.00,0.0222
1304.00,0.0222
1303.00,0.0222
1302.00,0.0222
1301.00,0.0222
1300.00,0.0221
1299.00,0.0221
1298.00,0.0220
1297.00,0.0220
1296.00,0.0219
1295.00,0.0219
1294.00,0.0219
1293.00,0.0218
1292.00,0.0218
1291.00,0.0218
1290.00,0.0217
1289.00,0.0217
1288.00,0.0217
1287.00,0.0216
1286.00,0.0216
1285.00,0.0215
1284.00,0.0215
1283.00,0.0214
1282.00,0.0213
1281.00,0.0213
1280.00,0.0212
1279.00,0.0212
1278.00,0.0211
1277.00,0.0210
1276.00,0.0209
1275.00,0.0209
1274.00,0.0208
1273.00,0.0208
1272.00,0.0208
1271.00,0.0208
1270.00,0.0208
1269.00,0.0209
1268.00,0.0210
1267.00,0.0211
1266.00,0.0213
1265.00,0.0214
1264.00,0.0216
1263.00,0.0218
1262.00,0.0220
1261.00,0.0222
1260.00,0.0224
1259.00,0.0226
1258.00,0.0227
1257.00,0.0229
1256.00,0.0231
1255.00,0.0232
1254.00,0.0234
1253.00,0.0236
1252.00,0.0237
1251.00,0.0239
1250.00,0.0241
1249.00,0.0243
1248.00,0.0245
1247.00,0.0247
1246.00,0.0249
1245.00,0.0251
1244.00,0.0253
1243.00,0.0254
1242.00,0.0255
1241.00,0.0256
1240.00,0.0257
1239.00,0.0258
1238.00,0.0259
1237.00,0.0260
1236.00,0.0260
1235.00,0.0260
1234.00,0.0260
1233.00,0.0260
1232.00,0.0260
1231.00,0.0260
1230.00,0.0259
1229.00,0.0258
1228.00,0.0257
1227.00,0.0257
1226.00,0.0256
1225.00,0.0254
1224.00,0.0253
1223.00,0.0252
1222.00,0.0250
1221.00,0.0248
1220.00,0.0247
1219.00,0.0245
1218.00,0.0243
1217.00,0.0241
1216.00,0.0239
1215.00,0.0237
1214.00,0.0235
1213.00,0.0233
1212.00,0.0231
1211.00,0.0228
1210.00,0.0226
1209.00,0.0224
1208.00,0.0221
1207.00,0.0218
1206.00,0.0216
1205.00,0.0213
1204.00,0.0210
1203.00,0.0207
1202.00,0.0205
1201.00,0.0202
1200.00,0.0200
1199.00,0.0197
1198.00,0.0195
1197.00,0.0193
1196.00,0.0191
1195.00,0.0189
1194.00,0.0187
1193.00,0.0186
1192.00,0.0184
1191.00,0.0183
1190.00,0.0181
1189.00,0.0180
1188.00,0.0179
1187.00,0.0177
1186.00,0.0176
1185.00,0.0175
1184.00,0.0175
1183.00,0.0174
1182.00,0.0174
1181.00,0.0174
1180.00,0.0174
1179.00,0.0175
1178.00,0.0176
1177.00,0.0177
1176.00,0.0179
1175.00,0.0181
1174.00,0.0183
1173.00,0.0185
1172.00,0.0188
1171.00,0.0190
1170.00,0.0192
1169.00,0.0194
1168.00,0.0195
1167.00,0.0197
1166.00,0.0198
1165.00,0.0199
1164.00,0.0199
1163.00,0.0199
1162.00,0.0199
1161.00,0.0198
1160.00,0.0198
1159.00,0.0196
1158.00,0.0195
1157.00,0.0193
1156.00,0.0192
1155.00,0.0190
1154.00,0.0188
1153.00,0.0186
1152.00,0.0184
1151.00,0.0182
1150.00,0.0180
1149.00,0.0178
1148.00,0.0176
1147.00,0.0175
1146.00,0.0173
1145.00,0.0172
1144.00,0.0170
1143.00,0.0169
1142.00,0.0168
1141.00,0.0167
1140.00,0.0166
1139.00,0.0166
1138.00,0.0165
1137.00,0.0165
1136.00,0.0165
1135.00,0.0164
1134.00,0.0164
1133.00,0.0164
1132.00,0.0164
1131.00,0.0163
1130.00,0.0163
1129.00,0.0163
1128.00,0.0162
1127.00,0.0162
1126.00,0.0161
1125.00,0.0161
1124.00,0.0160
1123.00,0.0160
1122.00,0.0159
1121.00,0.0159
1120.00,0.0158
1119.00,0.0157
1118.00,0.0157
1117.00,0.0157
1116.00,0.0157
1115.00,0.0157
1114.00,0.0157
1113.00,0.0157
1112.00,0.0158
1111.00,0.0158
1110.00,0.0159
1109.00,0.0159
1108.00,0.0159
1107.00,0.0160
1106.00,0.0160
1105.00,0.0160
1104.00,0.0161
1103.00,0.0161
1102.00,0.0162
1101.00,0.0163
1100.00,0.0164
1099.00,0.0164
1098.00,0.0165
1097.00,0.0166
1096.00,0.0168
1095.00,0.0169
1094.00,0.0171
1093.00,0.0173
1092.00,0.0175
1091.00,0.0177
1090.00,0.0180
1089.00,0.0183
1088.00,0.0186
1087.00,0.0189
1086.00,0.0193
1085.00,0.0196
1084.00,0.0200
1083.00,0.0204
1082.00,0.0208
1081.00,0.0212
1080.00,0.0215
1079.00,0.0219
1078.00,0.0222
1077.00,0.0225
1076.00,0.0228
1075.00,0.0230
1074.00,0.0233
1073.00,0.0235
1072.00,0.0237
1071.00,0.0239
1070.00,0.0241
1069.00,0.0243
1068.00,0.0245
1067.00,0.0246
1066.00,0.0247
1065.00,0.0248
1064.00,0.0249
1063.00,0.0249
1062.00,0.0249
1061.00,0.0248
1060.00,0.0248
1059.00,0.0247
1058.00,0.0246
1057.00,0.0245
1056.00,0.0244
1055.00,0.0243
1054.00,0.0242
1053.00,0.0241
1052.00,0.0240
1051.00,0.0239
1050.00,0.0238
1049.00,0.0237
1048.00,0.0235
1047.00,0.0234
1046.00,0.0232
1045.00,0.0230
1044.00,0.0228
1043.00,0.0225
1042.00,0.0222
1041.00,0.0219
1040.00,0.0216
1039.00,0.0214
1038.00,0.0211
1037.00,0.0208
1036.00,0.0205
1035.00,0.0203
1034.00,0.0201
1033.00,0.0199
1032.00,0.0197
1031.00,0.0195
1030.00,0.0193
1029.00,0.0190
1028.00,0.0188
1027.00,0.0185
1026.00,0.0183
1025.00,0.0180
1024.00,0.0177
1023.00,0.0174
1022.00,0.0170
1021.00,0.0167
1020.00,0.0165
1019.00,0.0162
1018.00,0.0160
1017.00,0.0158
1016.00,0.0156
1015.00,0.0154
1014.00,0.0152
1013.00,0.0150
1012.00,0.0148
1011.00,0.0145
1010.00,0.0143
1009.00,0.0141
1008.00,0.0139
1007.00,0.0137
1006.00,0.0136
1005.00,0.0134
1004.00,0.0133
1003.00,0.0132
1002.00,0.0130
1001.00,0.0129
1000.00,0.0128
999.00,0.0127
998.00,0.0126
997.00,0.0125
996.00,0.0124
995.00,0.0123
994.00,0.0122
993.00,0.0121
992.00,0.0120
991.00,0.0119
990.00,0.0119
989.00,0.0118
988.00,0.0117
987.00,0.0116
986.00,0.0116
985.00,0.0115
984.00,0.0114
983.00,0.0114
982.00,0.0113
981.00,0.0113
980.00,0.0112
979.00,0.0112
978.00,0.0112
977.00,0.0112
976.00,0.0112
975.00,0.0112
974.00,0.0112
973.00,0.0112
972.00,0.0112
971.00,0.0112
970.00,0.0113
969.00,0.0113
968.00,0.0114
967.00,0.0114
966.00,0.0115
965.00,0.0116
964.00,0.0117
963.00,0.0117
962.00,0.0117
961.00,0.0117
960.00,0.0116
959.00,0.0116
958.00,0.0115
957.00,0.0114
956.00,0.0113
955.00,0.0112
954.00,0.0110
953.00,0.0110
952.00,0.0109
951.00,0.0108
950.00,0.0107
949.00,0.0107
948.00,0.0107
947.00,0.0106
946.00,0.0106
945.00,0.0106
944.00,0.0105
943.00,0.0105
942.00,0.0105
941.00,0.0105
940.00,0.0105
939.00,0.0105
938.00,0.0105
937.00,0.0105
936.00,0.0106
935.00,0.0106
934.00,0.0106
933.00,0.0106
932.00,0.0106
931.00,0.0106
930.00,0.0106
929.00,0.0106
928.00,0.0106
927.00,0.0105
926.00,0.0104
925.00,0.0104
924.00,0.0103
923.00,0.0102
922.00,0.0101
921.00,0.0100
920.00,0.0099
919.00,0.0099
918.00,0.0098
917.00,0.0097
916.00,0.0096
915.00,0.0096
914.00,0.0095
913.00,0.0095
912.00,0.0094
911.00,0.0094
910.00,0.0094
909.00,0.0095
908.00,0.0095
907.00,0.0095
906.00,0.0095
905.00,0.0095
904.00,0.0095
903.00,0.0096
902.00,0.0096
901.00,0.0096
900.00,0.0096
899.00,0.0096
898.00,0.0095
897.00,0.0095
896.00,0.0094
895.00,0.0094
894.00,0.0093
893.00,0.0093
892.00,0.0092
891.00,0.0091
890.00,0.0091
889.00,0.0090
888.00,0.0089
887.00,0.0088
886.00,0.0087
885.00,0.0087
884.00,0.0086
883.00,0.0086
882.00,0.0086
881.00,0.0086
880.00,0.0085
879.00,0.0085
878.00,0.0085
877.00,0.0085
876.00,0.0084
875.00,0.0084
874.00,0.0084
873.00,0.0084
872.00,0.0084
871.00,0.0084
870.00,0.0083
869.00,0.0083
868.00,0.0082
867.00,0.0081
866.00,0.0080
865.00,0.0079
864.00,0.0078
863.00,0.0078
862.00,0.0078
861.00,0.0077
860.00,0.0077
859.00,0.0077
858.00,0.0077
857.00,0.0077
856.00,0.0077
855.00,0.0077
854.00,0.0077
853.00,0.0077
852.00,0.0077
851.00,0.0077
850.00,0.0077
849.00,0.0077
848.00,0.0077
847.00,0.0077
846.00,0.0078
845.00,0.0078
844.00,0.0078
843.00,0.0078
842.00,0.0078
841.00,0.0079
840.00,0.0079
839.00,0.0080
838.00,0.0080
837.00,0.0081
836.00,0.0082
835.00,0.0083
834.00,0.0084
833.00,0.0085
832.00,0.0086
831.00,0.0087
830.00,0.0088
829.00,0.0089
828.00,0.0090
827.00,0.0091
826.00,0.0091
825.00,0.0092
824.00,0.0092
823.00,0.0093
822.00,0.0094
821.00,0.0095
820.00,0.0095
819.00,0.0096
818.00,0.0097
817.00,0.0098
816.00,0.0098
815.00,0.0099
814.00,0.0100
813.00,0.0102
812.00,0.0103
811.00,0.0104
810.00,0.0105
809.00,0.0106
808.00,0.0107
807.00,0.0108
806.00,0.0109
805.00,0.0109
804.00,0.0110
803.00,0.0110
802.00,0.0111
801.00,0.0111
800.00,0.0111
799.00,0.0111
798.00,0.0112
797.00,0.0112
796.00,0.0113
795.00,0.0114
794.00,0.0114
793.00,0.0115
792.00,0.0116
791.00,0.0117
790.00,0.0118
789.00,0.0119
788.00,0.0120
787.00,0.0121
786.00,0.0123
785.00,0.0124
784.00,0.0125
783.00,0.0127
782.00,0.0128
781.00,0.0130
780.00,0.0131
779.00,0.0132
778.00,0.0134
777.00,0.0135
776.00,0.0136
775.00,0.0138
774.00,0.0139
773.00,0.0141
772.00,0.0142
771.00,0.0144
770.00,0.0145
769.00,0.0147
768.00,0.0148
767.00,0.0149
766.00,0.0150
765.00,0.0151
764.00,0.0152
763.00,0.0153
762.00,0.0154
761.00,0.0155
760.00,0.0156
759.00,0.0157
758.00,0.0158
757.00,0.0159
756.00,0.0161
755.00,0.0162
754.00,0.0163
753.00,0.0164
752.00,0.0166
751.00,0.0167
750.00,0.0168
749.00,0.0169
748.00,0.0170
747.00,0.0171
746.00,0.0171
745.00,0.0171
744.00,0.0171
743.00,0.0171
742.00,0.0171
741.00,0.0172
740.00,0.0172
739.00,0.0172
738.00,0.0172
737.00,0.0172
736.00,0.0172
735.00,0.0172
734.00,0.0173
733.00,0.0174
732.00,0.0175
731.00,0.0177
730.00,0.0179
729.00,0.0181
728.00,0.0184
727.00,0.0187
726.00,0.0189
725.00,0.0192
724.00,0.0195
723.00,0.0199
722.00,0.0202
721.00,0.0206
720.00,0.0209
719.00,0.0212
718.00,0.0216
717.00,0.0219
716.00,0.0223
715.00,0.0226
714.00,0.0230
713.00,0.0233
712.00,0.0237
711.00,0.0241
710.00,0.0245
709.00,0.0249
708.00,0.0253
707.00,0.0258
706.00,0.0263
705.00,0.0267
704.00,0.0272
703.00,0.0276
702.00,0.0280
701.00,0.0283
700.00,0.0286
699.00,0.0288
698.00,0.0289
697.00,0.0289
696.00,0.0289
695.00,0.0289
694.00,0.0289
693.00,0.0289
692.00,0.0289
691.00,0.0289
690.00,0.0289
689.00,0.0289
688.00,0.0290
687.00,0.0291
686.00,0.0291
685.00,0.0292
684.00,0.0293
683.00,0.0294
682.00,0.0295
681.00,0.0295
680.00,0.0296
679.00,0.0297
678.00,0.0298
677.00,0.0299
676.00,0.0300
675.00,0.0301
674.00,0.0301
673.00,0.0302
672.00,0.0303
671.00,0.0304
670.00,0.0305
669.00,0.0306
668.00,0.0306
667.00,0.0307
666.00,0.0307
665.00,0.0308
664.00,0.0309
663.00,0.0310
662.00,0.0311
661.00,0.0311
660.00,0.0312
659.00,0.0313
658.00,0.0314
657.00,0.0315
656.00,0.0316
655.00,0.0317
654.00,0.0317
653.00,0.0318
652.00,0.0318
651.00,0.0319
650.00,0.0320
649.00,0.0321
648.00,0.0322
647.00,0.0323
646.00,0.0325
645.00,0.0326
644.00,0.0327
643.00,0.0328
642.00,0.0329
641.00,0.0331
640.00,0.0332
639.00,0.0334
638.00,0.0336
637.00,0.0338
636.00,0.0339
635.00,0.0341
634.00,0.0342
633.00,0.0343
632.00,0.0344
631.00,0.0345
630.00,0.0345
629.00,0.0346
628.00,0.0347
627.00,0.0348
626.00,0.0348
625.00,0.0349
624.00,0.0349
623.00,0.0350
622.00,0.0350
621.00,0.0350
620.00,0.0350
619.00,0.0350
618.00,0.0350
617.00,0.0350
616.00,0.0349
615.00,0.0349
614.00,0.0349
613.00,0.0348
612.00,0.0347
611.00,0.0347
610.00,0.0346
609.00,0.0346
608.00,0.0346
607.00,0.0346
606.00,0.0346
605.00,0.0346
604.00,0.0346
603.00,0.0346
602.00,0.0346
601.00,0.0347
600.00,0.0347
599.00,0.0347
598.00,0.0347
597.00,0.0346
596.00,0.0346
595.00,0.0346
594.00,0.0347
593.00,0.0347
592.00,0.0347
591.00,0.0347
590.00,0.0347
589.00,0.0348
588.00,0.0349
587.00,0.0350
586.00,0.0350
585.00,0.0351
584.00,0.0351
583.00,0.0353
582.00,0.0354
581.00,0.0354
580.00,0.0355
579.00,0.0356
578.00,0.0356
577.00,0.0357
576.00,0.0358
575.00,0.0358
574.00,0.0358
573.00,0.0359
572.00,0.0359
571.00,0.0360
570.00,0.0361
569.00,0.0362
568.00,0.0362
567.00,0.0362
566.00,0.0362
565.00,0.0362
564.00,0.0361
563.00,0.0361
562.00,0.0362
561.00,0.0363
560.00,0.0364
559.00,0.0365
558.00,0.0365
557.00,0.0366
556.00,0.0366
555.00,0.0366
554.00,0.0367
553.00,0.0369
552.00,0.0370
551.00,0.0371
550.00,0.0371
549.00,0.0371
548.00,0.0371
547.00,0.0371
546.00,0.0371
545.00,0.0370
544.00,0.0370
543.00,0.0370
542.00,0.0371
541.00,0.0371
540.00,0.0372
539.00,0.0372
538.00,0.0373
537.00,0.0373
536.00,0.0374
535.00,0.0375
534.00,0.0375
533.00,0.0375
532.00,0.0376
531.00,0.0376
530.00,0.0377
529.00,0.0378
528.00,0.0379
527.00,0.0380
526.00,0.0380
525.00,0.0380
524.00,0.0380
523.00,0.0381
522.00,0.0382
521.00,0.0383
520.00,0.0384
519.00,0.0384
518.00,0.0384
517.00,0.0384
516.00,0.0384
515.00,0.0383
514.00,0.0383
513.00,0.0382
512.00,0.0381
511.00,0.0380
510.00,0.0380
509.00,0.0379
508.00,0.0379
507.00,0.0378
506.00,0.0377
505.00,0.0377
504.00,0.0377
503.00,0.0377
502.00,0.0376
501.00,0.0374
500.00,0.0373
499.00,0.0372
498.00,0.0371
497.00,0.0371
496.00,0.0371
495.00,0.0371
494.00,0.0371
493.00,0.0371
492.00,0.0371
491.00,0.0371
490.00,0.0370
489.00,0.0369
488.00,0.0368
487.00,0.0368
486.00,0.0368
485.00,0.0369
484.00,0.0370
483.00,0.0371
482.00,0.0370
481.00,0.0370
480.00,0.0371
479.00,0.0371
478.00,0.0370
477.00,0.0370
476.00,0.0370
475.00,0.0370
474.00,0.0369
473.00,0.0367
472.00,0.0367
471.00,0.0367
470.00,0.0368
469.00,0.0370
468.00,0.0371
467.00,0.0372
466.00,0.0370
465.00,0.0368
464.00,0.0367
463.00,0.0367
462.00,0.0366
461.00,0.0366
460.00,0.0366
459.00,0.0366
458.00,0.0366
457.00,0.0366
456.00,0.0366
455.00,0.0365
454.00,0.0364
453.00,0.0363
452.00,0.0362
451.00,0.0361
450.00,0.0358
449.00,0.0356
448.00,0.0354
447.00,0.0351
446.00,0.0349
445.00,0.0347
444.00,0.0345
443.00,0.0342
442.00,0.0338
441.00,0.0334
440.00,0.0332
439.00,0.0331
438.00,0.0330
437.00,0.0328
436.00,0.0325
435.00,0.0321
434.00,0.0319
433.00,0.0317
432.00,0.0315
431.00,0.0313
430.00,0.0310
429.00,0.0306
428.00,0.0303
427.00,0.0301
426.00,0.0300
425.00,0.0300
424.00,0.0300
423.00,0.0301
422.00,0.0301
421.00,0.0302
420.00,0.0303
419.00,0.0301
418.00,0.0299
417.00,0.0297
416.00,0.0297
415.00,0.0297
414.00,0.0295
413.00,0.0294
412.00,0.0294
411.00,0.0294
410.00,0.0293
409.00,0.0291
408.00,0.0289
407.00,0.0288
406.00,0.0285
405.00,0.0282
404.00,0.0277
403.00,0.0269
402.00,0.0261
401.00,0.0257
400.00,0.0259
