Created as New Dataset,Sample 284 By YargerLab Date Friday, July 26 2024
cm-1,A
4000.00,-0.0003
3999.00,-0.0003
3998.00,-0.0003
3997.00,-0.0003
3996.00,-0.0003
3995.00,-0.0003
3994.00,-0.0003
3993.00,-0.0003
3992.00,-0.0003
3991.00,-0.0003
3990.00,-0.0003
3989.00,-0.0003
3988.00,-0.0003
3987.00,-0.0003
3986.00,-0.0003
3985.00,-0.0003
3984.00,-0.0003
3983.00,-0.0003
3982.00,-0.0003
3981.00,-0.0003
3980.00,-0.0003
3979.00,-0.0003
3978.00,-0.0003
3977.00,-0.0003
3976.00,-0.0003
3975.00,-0.0003
3974.00,-0.0003
3973.00,-0.0003
3972.00,-0.0003
3971.00,-0.0003
3970.00,-0.0003
3969.00,-0.0003
3968.00,-0.0003
3967.00,-0.0003
3966.00,-0.0003
3965.00,-0.0003
3964.00,-0.0003
3963.00,-0.0003
3962.00,-0.0003
3961.00,-0.0003
3960.00,-0.0003
3959.00,-0.0003
3958.00,-0.0003
3957.00,-0.0003
3956.00,-0.0003
3955.00,-0.0003
3954.00,-0.0003
3953.00,-0.0003
3952.00,-0.0003
3951.00,-0.0003
3950.00,-0.0003
3949.00,-0.0003
3948.00,-0.0003
3947.00,-0.0003
3946.00,-0.0003
3945.00,-0.0003
3944.00,-0.0003
3943.00,-0.0003
3942.00,-0.0003
3941.00,-0.0003
3940.00,-0.0003
3939.00,-0.0003
3938.00,-0.0003
3937.00,-0.0003
3936.00,-0.0003
3935.00,-0.0003
3934.00,-0.0003
3933.00,-0.0003
3932.00,-0.0003
3931.00,-0.0003
3930.00,-0.0003
3929.00,-0.0003
3928.00,-0.0003
3927.00,-0.0003
3926.00,-0.0003
3925.00,-0.0003
3924.00,-0.0003
3923.00,-0.0003
3922.00,-0.0003
3921.00,-0.0003
3920.00,-0.0003
3919.00,-0.0003
3918.00,-0.0003
3917.00,-0.0003
3916.00,-0.0003
3915.00,-0.0003
3914.00,-0.0003
3913.00,-0.0003
3912.00,-0.0003
3911.00,-0.0003
3910.00,-0.0003
3909.00,-0.0003
3908.00,-0.0003
3907.00,-0.0003
3906.00,-0.0002
3905.00,-0.0002
3904.00,-0.0002
3903.00,-0.0002
3902.00,-0.0002
3901.00,-0.0002
3900.00,-0.0003
3899.00,-0.0003
3898.00,-0.0003
3897.00,-0.0003
3896.00,-0.0003
3895.00,-0.0003
3894.00,-0.0003
3893.00,-0.0003
3892.00,-0.0003
3891.00,-0.0003
3890.00,-0.0003
3889.00,-0.0003
3888.00,-0.0003
3887.00,-0.0003
3886.00,-0.0003
3885.00,-0.0003
3884.00,-0.0003
3883.00,-0.0003
3882.00,-0.0003
3881.00,-0.0003
3880.00,-0.0003
3879.00,-0.0003
3878.00,-0.0003
3877.00,-0.0003
3876.00,-0.0003
3875.00,-0.0003
3874.00,-0.0003
3873.00,-0.0003
3872.00,-0.0003
3871.00,-0.0003
3870.00,-0.0003
3869.00,-0.0003
3868.00,-0.0002
3867.00,-0.0002
3866.00,-0.0003
3865.00,-0.0003
3864.00,-0.0003
3863.00,-0.0003
3862.00,-0.0003
3861.00,-0.0003
3860.00,-0.0003
3859.00,-0.0003
3858.00,-0.0002
3857.00,-0.0002
3856.00,-0.0001
3855.00,-0.0001
3854.00,-0.0002
3853.00,-0.0002
3852.00,-0.0002
3851.00,-0.0002
3850.00,-0.0003
3849.00,-0.0003
3848.00,-0.0004
3847.00,-0.0004
3846.00,-0.0004
3845.00,-0.0004
3844.00,-0.0003
3843.00,-0.0003
3842.00,-0.0003
3841.00,-0.0002
3840.00,-0.0002
3839.00,-0.0002
3838.00,-0.0002
3837.00,-0.0002
3836.00,-0.0002
3835.00,-0.0002
3834.00,-0.0003
3833.00,-0.0003
3832.00,-0.0003
3831.00,-0.0004
3830.00,-0.0004
3829.00,-0.0004
3828.00,-0.0004
3827.00,-0.0004
3826.00,-0.0004
3825.00,-0.0003
3824.00,-0.0003
3823.00,-0.0003
3822.00,-0.0003
3821.00,-0.0003
3820.00,-0.0003
3819.00,-0.0002
3818.00,-0.0003
3817.00,-0.0003
3816.00,-0.0004
3815.00,-0.0004
3814.00,-0.0003
3813.00,-0.0003
3812.00,-0.0004
3811.00,-0.0004
3810.00,-0.0003
3809.00,-0.0003
3808.00,-0.0003
3807.00,-0.0003
3806.00,-0.0003
3805.00,-0.0002
3804.00,-0.0003
3803.00,-0.0003
3802.00,-0.0003
3801.00,-0.0003
3800.00,-0.0003
3799.00,-0.0003
3798.00,-0.0003
3797.00,-0.0003
3796.00,-0.0003
3795.00,-0.0003
3794.00,-0.0003
3793.00,-0.0004
3792.00,-0.0004
3791.00,-0.0004
3790.00,-0.0004
3789.00,-0.0003
3788.00,-0.0003
3787.00,-0.0003
3786.00,-0.0003
3785.00,-0.0003
3784.00,-0.0003
3783.00,-0.0003
3782.00,-0.0003
3781.00,-0.0003
3780.00,-0.0003
3779.00,-0.0003
3778.00,-0.0003
3777.00,-0.0003
3776.00,-0.0003
3775.00,-0.0003
3774.00,-0.0003
3773.00,-0.0003
3772.00,-0.0003
3771.00,-0.0003
3770.00,-0.0003
3769.00,-0.0003
3768.00,-0.0003
3767.00,-0.0003
3766.00,-0.0003
3765.00,-0.0003
3764.00,-0.0003
3763.00,-0.0003
3762.00,-0.0003
3761.00,-0.0003
3760.00,-0.0003
3759.00,-0.0003
3758.00,-0.0003
3757.00,-0.0003
3756.00,-0.0003
3755.00,-0.0003
3754.00,-0.0002
3753.00,-0.0002
3752.00,-0.0002
3751.00,-0.0002
3750.00,-0.0002
3749.00,-0.0002
3748.00,-0.0002
3747.00,-0.0002
3746.00,-0.0002
3745.00,-0.0002
3744.00,-0.0002
3743.00,-0.0002
3742.00,-0.0002
3741.00,-0.0002
3740.00,-0.0002
3739.00,-0.0002
3738.00,-0.0002
3737.00,-0.0002
3736.00,-0.0002
3735.00,-0.0002
3734.00,-0.0002
3733.00,-0.0002
3732.00,-0.0003
3731.00,-0.0003
3730.00,-0.0003
3729.00,-0.0003
3728.00,-0.0003
3727.00,-0.0003
3726.00,-0.0003
3725.00,-0.0003
3724.00,-0.0003
3723.00,-0.0003
3722.00,-0.0003
3721.00,-0.0003
3720.00,-0.0003
3719.00,-0.0003
3718.00,-0.0003
3717.00,-0.0003
3716.00,-0.0002
3715.00,-0.0002
3714.00,-0.0002
3713.00,-0.0002
3712.00,-0.0002
3711.00,-0.0002
3710.00,-0.0002
3709.00,-0.0002
3708.00,-0.0002
3707.00,-0.0002
3706.00,-0.0002
3705.00,-0.0002
3704.00,-0.0002
3703.00,-0.0002
3702.00,-0.0002
3701.00,-0.0002
3700.00,-0.0002
3699.00,-0.0002
3698.00,-0.0002
3697.00,-0.0002
3696.00,-0.0002
3695.00,-0.0002
3694.00,-0.0002
3693.00,-0.0002
3692.00,-0.0001
3691.00,-0.0001
3690.00,-0.0001
3689.00,-0.0001
3688.00,-0.0001
3687.00,-0.0001
3686.00,-0.0001
3685.00,-0.0001
3684.00,-0.0001
3683.00,-0.0001
3682.00,-0.0001
3681.00,-0.0001
3680.00,-0.0000
3679.00,-0.0000
3678.00,0.0000
3677.00,0.0000
3676.00,0.0000
3675.00,0.0000
3674.00,0.0001
3673.00,0.0001
3672.00,0.0001
3671.00,0.0000
3670.00,0.0000
3669.00,0.0001
3668.00,0.0001
3667.00,0.0001
3666.00,0.0001
3665.00,0.0001
3664.00,0.0001
3663.00,0.0001
3662.00,0.0001
3661.00,0.0001
3660.00,0.0002
3659.00,0.0002
3658.00,0.0002
3657.00,0.0002
3656.00,0.0002
3655.00,0.0003
3654.00,0.0003
3653.00,0.0004
3652.00,0.0004
3651.00,0.0004
3650.00,0.0004
3649.00,0.0004
3648.00,0.0005
3647.00,0.0005
3646.00,0.0005
3645.00,0.0004
3644.00,0.0004
3643.00,0.0004
3642.00,0.0005
3641.00,0.0005
3640.00,0.0005
3639.00,0.0005
3638.00,0.0005
3637.00,0.0006
3636.00,0.0006
3635.00,0.0006
3634.00,0.0007
3633.00,0.0007
3632.00,0.0008
3631.00,0.0008
3630.00,0.0008
3629.00,0.0008
3628.00,0.0008
3627.00,0.0008
3626.00,0.0008
3625.00,0.0008
3624.00,0.0009
3623.00,0.0009
3622.00,0.0009
3621.00,0.0010
3620.00,0.0010
3619.00,0.0010
3618.00,0.0011
3617.00,0.0011
3616.00,0.0011
3615.00,0.0011
3614.00,0.0011
3613.00,0.0011
3612.00,0.0012
3611.00,0.0012
3610.00,0.0012
3609.00,0.0012
3608.00,0.0012
3607.00,0.0012
3606.00,0.0013
3605.00,0.0013
3604.00,0.0013
3603.00,0.0014
3602.00,0.0014
3601.00,0.0014
3600.00,0.0014
3599.00,0.0015
3598.00,0.0015
3597.00,0.0015
3596.00,0.0015
3595.00,0.0016
3594.00,0.0016
3593.00,0.0016
3592.00,0.0017
3591.00,0.0017
3590.00,0.0017
3589.00,0.0017
3588.00,0.0017
3587.00,0.0017
3586.00,0.0018
3585.00,0.0018
3584.00,0.0018
3583.00,0.0019
3582.00,0.0019
3581.00,0.0019
3580.00,0.0019
3579.00,0.0019
3578.00,0.0020
3577.00,0.0020
3576.00,0.0020
3575.00,0.0021
3574.00,0.0021
3573.00,0.0021
3572.00,0.0022
3571.00,0.0023
3570.00,0.0023
3569.00,0.0023
3568.00,0.0023
3567.00,0.0023
3566.00,0.0023
3565.00,0.0023
3564.00,0.0024
3563.00,0.0024
3562.00,0.0024
3561.00,0.0024
3560.00,0.0025
3559.00,0.0025
3558.00,0.0025
3557.00,0.0026
3556.00,0.0026
3555.00,0.0026
3554.00,0.0026
3553.00,0.0027
3552.00,0.0027
3551.00,0.0027
3550.00,0.0028
3549.00,0.0028
3548.00,0.0028
3547.00,0.0028
3546.00,0.0028
3545.00,0.0029
3544.00,0.0029
3543.00,0.0029
3542.00,0.0030
3541.00,0.0030
3540.00,0.0030
3539.00,0.0030
3538.00,0.0031
3537.00,0.0031
3536.00,0.0031
3535.00,0.0031
3534.00,0.0032
3533.00,0.0032
3532.00,0.0032
3531.00,0.0033
3530.00,0.0033
3529.00,0.0033
3528.00,0.0033
3527.00,0.0034
3526.00,0.0034
3525.00,0.0034
3524.00,0.0034
3523.00,0.0034
3522.00,0.0034
3521.00,0.0035
3520.00,0.0035
3519.00,0.0035
3518.00,0.0035
3517.00,0.0035
3516.00,0.0036
3515.00,0.0036
3514.00,0.0036
3513.00,0.0037
3512.00,0.0037
3511.00,0.0037
3510.00,0.0038
3509.00,0.0038
3508.00,0.0038
3507.00,0.0039
3506.00,0.0039
3505.00,0.0039
3504.00,0.0039
3503.00,0.0039
3502.00,0.0039
3501.00,0.0040
3500.00,0.0040
3499.00,0.0040
3498.00,0.0040
3497.00,0.0041
3496.00,0.0041
3495.00,0.0041
3494.00,0.0041
3493.00,0.0042
3492.00,0.0042
3491.00,0.0042
3490.00,0.0043
3489.00,0.0043
3488.00,0.0043
3487.00,0.0044
3486.00,0.0044
3485.00,0.0044
3484.00,0.0044
3483.00,0.0044
3482.00,0.0044
3481.00,0.0044
3480.00,0.0045
3479.00,0.0045
3478.00,0.0046
3477.00,0.0046
3476.00,0.0046
3475.00,0.0046
3474.00,0.0047
3473.00,0.0047
3472.00,0.0047
3471.00,0.0047
3470.00,0.0048
3469.00,0.0048
3468.00,0.0048
3467.00,0.0048
3466.00,0.0049
3465.00,0.0049
3464.00,0.0049
3463.00,0.0049
3462.00,0.0049
3461.00,0.0050
3460.00,0.0050
3459.00,0.0050
3458.00,0.0050
3457.00,0.0050
3456.00,0.0051
3455.00,0.0051
3454.00,0.0051
3453.00,0.0051
3452.00,0.0052
3451.00,0.0052
3450.00,0.0053
3449.00,0.0053
3448.00,0.0053
3447.00,0.0053
3446.00,0.0053
3445.00,0.0053
3444.00,0.0054
3443.00,0.0054
3442.00,0.0054
3441.00,0.0054
3440.00,0.0055
3439.00,0.0055
3438.00,0.0055
3437.00,0.0055
3436.00,0.0056
3435.00,0.0056
3434.00,0.0056
3433.00,0.0056
3432.00,0.0057
3431.00,0.0057
3430.00,0.0057
3429.00,0.0057
3428.00,0.0058
3427.00,0.0058
3426.00,0.0058
3425.00,0.0058
3424.00,0.0058
3423.00,0.0059
3422.00,0.0059
3421.00,0.0059
3420.00,0.0059
3419.00,0.0060
3418.00,0.0060
3417.00,0.0060
3416.00,0.0061
3415.00,0.0061
3414.00,0.0061
3413.00,0.0061
3412.00,0.0061
3411.00,0.0061
3410.00,0.0062
3409.00,0.0062
3408.00,0.0062
3407.00,0.0062
3406.00,0.0063
3405.00,0.0063
3404.00,0.0063
3403.00,0.0063
3402.00,0.0064
3401.00,0.0064
3400.00,0.0064
3399.00,0.0064
3398.00,0.0064
3397.00,0.0064
3396.00,0.0065
3395.00,0.0065
3394.00,0.0065
3393.00,0.0065
3392.00,0.0066
3391.00,0.0066
3390.00,0.0066
3389.00,0.0066
3388.00,0.0067
3387.00,0.0067
3386.00,0.0067
3385.00,0.0067
3384.00,0.0067
3383.00,0.0067
3382.00,0.0068
3381.00,0.0068
3380.00,0.0068
3379.00,0.0069
3378.00,0.0069
3377.00,0.0069
3376.00,0.0069
3375.00,0.0070
3374.00,0.0070
3373.00,0.0070
3372.00,0.0071
3371.00,0.0071
3370.00,0.0072
3369.00,0.0072
3368.00,0.0072
3367.00,0.0072
3366.00,0.0073
3365.00,0.0073
3364.00,0.0073
3363.00,0.0074
3362.00,0.0074
3361.00,0.0074
3360.00,0.0074
3359.00,0.0075
3358.00,0.0075
3357.00,0.0075
3356.00,0.0076
3355.00,0.0076
3354.00,0.0076
3353.00,0.0077
3352.00,0.0077
3351.00,0.0078
3350.00,0.0078
3349.00,0.0078
3348.00,0.0079
3347.00,0.0079
3346.00,0.0079
3345.00,0.0080
3344.00,0.0080
3343.00,0.0081
3342.00,0.0081
3341.00,0.0082
3340.00,0.0082
3339.00,0.0083
3338.00,0.0083
3337.00,0.0083
3336.00,0.0084
3335.00,0.0084
3334.00,0.0085
3333.00,0.0085
3332.00,0.0086
3331.00,0.0086
3330.00,0.0087
3329.00,0.0088
3328.00,0.0088
3327.00,0.0089
3326.00,0.0089
3325.00,0.0090
3324.00,0.0091
3323.00,0.0091
3322.00,0.0092
3321.00,0.0092
3320.00,0.0093
3319.00,0.0094
3318.00,0.0094
3317.00,0.0095
3316.00,0.0096
3315.00,0.0097
3314.00,0.0097
3313.00,0.0098
3312.00,0.0099
3311.00,0.0100
3310.00,0.0100
3309.00,0.0101
3308.00,0.0102
3307.00,0.0103
3306.00,0.0104
3305.00,0.0105
3304.00,0.0105
3303.00,0.0106
3302.00,0.0107
3301.00,0.0107
3300.00,0.0108
3299.00,0.0109
3298.00,0.0110
3297.00,0.0111
3296.00,0.0112
3295.00,0.0112
3294.00,0.0113
3293.00,0.0114
3292.00,0.0115
3291.00,0.0116
3290.00,0.0116
3289.00,0.0117
3288.00,0.0117
3287.00,0.0118
3286.00,0.0119
3285.00,0.0119
3284.00,0.0120
3283.00,0.0121
3282.00,0.0121
3281.00,0.0122
3280.00,0.0122
3279.00,0.0123
3278.00,0.0123
3277.00,0.0123
3276.00,0.0124
3275.00,0.0124
3274.00,0.0124
3273.00,0.0124
3272.00,0.0124
3271.00,0.0124
3270.00,0.0124
3269.00,0.0123
3268.00,0.0123
3267.00,0.0123
3266.00,0.0122
3265.00,0.0121
3264.00,0.0121
3263.00,0.0120
3262.00,0.0120
3261.00,0.0119
3260.00,0.0119
3259.00,0.0118
3258.00,0.0117
3257.00,0.0117
3256.00,0.0116
3255.00,0.0115
3254.00,0.0114
3253.00,0.0113
3252.00,0.0113
3251.00,0.0112
3250.00,0.0111
3249.00,0.0111
3248.00,0.0110
3247.00,0.0109
3246.00,0.0108
3245.00,0.0107
3244.00,0.0107
3243.00,0.0106
3242.00,0.0105
3241.00,0.0105
3240.00,0.0104
3239.00,0.0103
3238.00,0.0103
3237.00,0.0102
3236.00,0.0102
3235.00,0.0101
3234.00,0.0101
3233.00,0.0100
3232.00,0.0100
3231.00,0.0099
3230.00,0.0098
3229.00,0.0098
3228.00,0.0097
3227.00,0.0097
3226.00,0.0096
3225.00,0.0096
3224.00,0.0095
3223.00,0.0095
3222.00,0.0094
3221.00,0.0094
3220.00,0.0093
3219.00,0.0093
3218.00,0.0092
3217.00,0.0092
3216.00,0.0092
3215.00,0.0091
3214.00,0.0091
3213.00,0.0091
3212.00,0.0090
3211.00,0.0090
3210.00,0.0089
3209.00,0.0089
3208.00,0.0089
3207.00,0.0088
3206.00,0.0088
3205.00,0.0087
3204.00,0.0087
3203.00,0.0087
3202.00,0.0086
3201.00,0.0086
3200.00,0.0085
3199.00,0.0085
3198.00,0.0084
3197.00,0.0084
3196.00,0.0084
3195.00,0.0083
3194.00,0.0083
3193.00,0.0082
3192.00,0.0082
3191.00,0.0081
3190.00,0.0081
3189.00,0.0081
3188.00,0.0080
3187.00,0.0080
3186.00,0.0080
3185.00,0.0079
3184.00,0.0079
3183.00,0.0078
3182.00,0.0078
3181.00,0.0078
3180.00,0.0077
3179.00,0.0077
3178.00,0.0076
3177.00,0.0076
3176.00,0.0075
3175.00,0.0075
3174.00,0.0075
3173.00,0.0074
3172.00,0.0074
3171.00,0.0073
3170.00,0.0073
3169.00,0.0072
3168.00,0.0072
3167.00,0.0071
3166.00,0.0071
3165.00,0.0071
3164.00,0.0070
3163.00,0.0070
3162.00,0.0070
3161.00,0.0069
3160.00,0.0069
3159.00,0.0068
3158.00,0.0068
3157.00,0.0068
3156.00,0.0068
3155.00,0.0067
3154.00,0.0067
3153.00,0.0067
3152.00,0.0066
3151.00,0.0066
3150.00,0.0066
3149.00,0.0065
3148.00,0.0065
3147.00,0.0065
3146.00,0.0064
3145.00,0.0064
3144.00,0.0064
3143.00,0.0064
3142.00,0.0063
3141.00,0.0063
3140.00,0.0063
3139.00,0.0063
3138.00,0.0062
3137.00,0.0062
3136.00,0.0062
3135.00,0.0062
3134.00,0.0061
3133.00,0.0061
3132.00,0.0061
3131.00,0.0061
3130.00,0.0060
3129.00,0.0060
3128.00,0.0060
3127.00,0.0060
3126.00,0.0060
3125.00,0.0060
3124.00,0.0060
3123.00,0.0060
3122.00,0.0059
3121.00,0.0059
3120.00,0.0059
3119.00,0.0059
3118.00,0.0059
3117.00,0.0059
3116.00,0.0059
3115.00,0.0059
3114.00,0.0059
3113.00,0.0059
3112.00,0.0059
3111.00,0.0059
3110.00,0.0059
3109.00,0.0059
3108.00,0.0059
3107.00,0.0059
3106.00,0.0059
3105.00,0.0059
3104.00,0.0059
3103.00,0.0059
3102.00,0.0059
3101.00,0.0059
3100.00,0.0059
3099.00,0.0059
3098.00,0.0060
3097.00,0.0060
3096.00,0.0060
3095.00,0.0060
3094.00,0.0060
3093.00,0.0060
3092.00,0.0060
3091.00,0.0060
3090.00,0.0060
3089.00,0.0060
3088.00,0.0060
3087.00,0.0060
3086.00,0.0060
3085.00,0.0060
3084.00,0.0061
3083.00,0.0061
3082.00,0.0061
3081.00,0.0061
3080.00,0.0061
3079.00,0.0061
3078.00,0.0060
3077.00,0.0060
3076.00,0.0060
3075.00,0.0060
3074.00,0.0060
3073.00,0.0060
3072.00,0.0060
3071.00,0.0060
3070.00,0.0060
3069.00,0.0060
3068.00,0.0059
3067.00,0.0059
3066.00,0.0059
3065.00,0.0059
3064.00,0.0059
3063.00,0.0058
3062.00,0.0058
3061.00,0.0058
3060.00,0.0058
3059.00,0.0057
3058.00,0.0057
3057.00,0.0057
3056.00,0.0056
3055.00,0.0056
3054.00,0.0056
3053.00,0.0055
3052.00,0.0055
3051.00,0.0055
3050.00,0.0054
3049.00,0.0054
3048.00,0.0053
3047.00,0.0053
3046.00,0.0053
3045.00,0.0053
3044.00,0.0052
3043.00,0.0052
3042.00,0.0051
3041.00,0.0051
3040.00,0.0051
3039.00,0.0050
3038.00,0.0050
3037.00,0.0050
3036.00,0.0049
3035.00,0.0049
3034.00,0.0049
3033.00,0.0048
3032.00,0.0048
3031.00,0.0048
3030.00,0.0047
3029.00,0.0047
3028.00,0.0047
3027.00,0.0047
3026.00,0.0046
3025.00,0.0046
3024.00,0.0046
3023.00,0.0046
3022.00,0.0045
3021.00,0.0045
3020.00,0.0045
3019.00,0.0044
3018.00,0.0044
3017.00,0.0044
3016.00,0.0043
3015.00,0.0043
3014.00,0.0043
3013.00,0.0043
3012.00,0.0043
3011.00,0.0042
3010.00,0.0042
3009.00,0.0042
3008.00,0.0042
3007.00,0.0042
3006.00,0.0042
3005.00,0.0042
3004.00,0.0042
3003.00,0.0042
3002.00,0.0042
3001.00,0.0042
3000.00,0.0042
2999.00,0.0042
2998.00,0.0042
2997.00,0.0042
2996.00,0.0043
2995.00,0.0043
2994.00,0.0043
2993.00,0.0043
2992.00,0.0044
2991.00,0.0044
2990.00,0.0044
2989.00,0.0045
2988.00,0.0045
2987.00,0.0046
2986.00,0.0046
2985.00,0.0047
2984.00,0.0048
2983.00,0.0048
2982.00,0.0049
2981.00,0.0049
2980.00,0.0050
2979.00,0.0051
2978.00,0.0051
2977.00,0.0052
2976.00,0.0052
2975.00,0.0053
2974.00,0.0054
2973.00,0.0054
2972.00,0.0055
2971.00,0.0055
2970.00,0.0056
2969.00,0.0056
2968.00,0.0057
2967.00,0.0057
2966.00,0.0058
2965.00,0.0058
2964.00,0.0058
2963.00,0.0058
2962.00,0.0058
2961.00,0.0058
2960.00,0.0058
2959.00,0.0058
2958.00,0.0058
2957.00,0.0057
2956.00,0.0057
2955.00,0.0057
2954.00,0.0056
2953.00,0.0056
2952.00,0.0055
2951.00,0.0055
2950.00,0.0054
2949.00,0.0054
2948.00,0.0054
2947.00,0.0054
2946.00,0.0054
2945.00,0.0054
2944.00,0.0055
2943.00,0.0055
2942.00,0.0055
2941.00,0.0056
2940.00,0.0056
2939.00,0.0057
2938.00,0.0057
2937.00,0.0058
2936.00,0.0058
2935.00,0.0058
2934.00,0.0059
2933.00,0.0059
2932.00,0.0059
2931.00,0.0059
2930.00,0.0059
2929.00,0.0059
2928.00,0.0059
2927.00,0.0059
2926.00,0.0058
2925.00,0.0058
2924.00,0.0058
2923.00,0.0058
2922.00,0.0058
2921.00,0.0057
2920.00,0.0057
2919.00,0.0056
2918.00,0.0056
2917.00,0.0055
2916.00,0.0054
2915.00,0.0053
2914.00,0.0052
2913.00,0.0052
2912.00,0.0051
2911.00,0.0050
2910.00,0.0049
2909.00,0.0049
2908.00,0.0048
2907.00,0.0048
2906.00,0.0047
2905.00,0.0047
2904.00,0.0046
2903.00,0.0046
2902.00,0.0045
2901.00,0.0045
2900.00,0.0045
2899.00,0.0044
2898.00,0.0044
2897.00,0.0044
2896.00,0.0043
2895.00,0.0043
2894.00,0.0043
2893.00,0.0042
2892.00,0.0042
2891.00,0.0042
2890.00,0.0042
2889.00,0.0042
2888.00,0.0042
2887.00,0.0042
2886.00,0.0042
2885.00,0.0042
2884.00,0.0042
2883.00,0.0043
2882.00,0.0043
2881.00,0.0043
2880.00,0.0043
2879.00,0.0044
2878.00,0.0044
2877.00,0.0044
2876.00,0.0044
2875.00,0.0044
2874.00,0.0043
2873.00,0.0043
2872.00,0.0043
2871.00,0.0043
2870.00,0.0042
2869.00,0.0042
2868.00,0.0041
2867.00,0.0041
2866.00,0.0040
2865.00,0.0040
2864.00,0.0039
2863.00,0.0039
2862.00,0.0039
2861.00,0.0039
2860.00,0.0038
2859.00,0.0038
2858.00,0.0038
2857.00,0.0038
2856.00,0.0038
2855.00,0.0038
2854.00,0.0037
2853.00,0.0037
2852.00,0.0037
2851.00,0.0037
2850.00,0.0036
2849.00,0.0036
2848.00,0.0035
2847.00,0.0035
2846.00,0.0034
2845.00,0.0033
2844.00,0.0032
2843.00,0.0032
2842.00,0.0031
2841.00,0.0031
2840.00,0.0030
2839.00,0.0030
2838.00,0.0029
2837.00,0.0029
2836.00,0.0029
2835.00,0.0029
2834.00,0.0029
2833.00,0.0029
2832.00,0.0028
2831.00,0.0028
2830.00,0.0028
2829.00,0.0028
2828.00,0.0028
2827.00,0.0028
2826.00,0.0027
2825.00,0.0027
2824.00,0.0027
2823.00,0.0027
2822.00,0.0027
2821.00,0.0027
2820.00,0.0027
2819.00,0.0027
2818.00,0.0027
2817.00,0.0027
2816.00,0.0026
2815.00,0.0026
2814.00,0.0026
2813.00,0.0026
2812.00,0.0026
2811.00,0.0026
2810.00,0.0026
2809.00,0.0026
2808.00,0.0026
2807.00,0.0026
2806.00,0.0026
2805.00,0.0026
2804.00,0.0026
2803.00,0.0026
2802.00,0.0025
2801.00,0.0025
2800.00,0.0025
2799.00,0.0025
2798.00,0.0025
2797.00,0.0025
2796.00,0.0025
2795.00,0.0024
2794.00,0.0024
2793.00,0.0024
2792.00,0.0024
2791.00,0.0024
2790.00,0.0024
2789.00,0.0024
2788.00,0.0024
2787.00,0.0024
2786.00,0.0023
2785.00,0.0023
2784.00,0.0023
2783.00,0.0023
2782.00,0.0023
2781.00,0.0023
2780.00,0.0023
2779.00,0.0022
2778.00,0.0022
2777.00,0.0022
2776.00,0.0022
2775.00,0.0022
2774.00,0.0022
2773.00,0.0021
2772.00,0.0021
2771.00,0.0021
2770.00,0.0021
2769.00,0.0021
2768.00,0.0021
2767.00,0.0020
2766.00,0.0020
2765.00,0.0020
2764.00,0.0020
2763.00,0.0020
2762.00,0.0019
2761.00,0.0019
2760.00,0.0019
2759.00,0.0019
2758.00,0.0019
2757.00,0.0019
2756.00,0.0019
2755.00,0.0019
2754.00,0.0019
2753.00,0.0018
2752.00,0.0018
2751.00,0.0018
2750.00,0.0018
2749.00,0.0018
2748.00,0.0018
2747.00,0.0018
2746.00,0.0018
2745.00,0.0018
2744.00,0.0018
2743.00,0.0017
2742.00,0.0017
2741.00,0.0017
2740.00,0.0017
2739.00,0.0017
2738.00,0.0017
2737.00,0.0017
2736.00,0.0017
2735.00,0.0017
2734.00,0.0016
2733.00,0.0016
2732.00,0.0016
2731.00,0.0016
2730.00,0.0016
2729.00,0.0016
2728.00,0.0016
2727.00,0.0016
2726.00,0.0016
2725.00,0.0016
2724.00,0.0015
2723.00,0.0015
2722.00,0.0015
2721.00,0.0015
2720.00,0.0015
2719.00,0.0015
2718.00,0.0015
2717.00,0.0015
2716.00,0.0015
2715.00,0.0015
2714.00,0.0015
2713.00,0.0014
2712.00,0.0014
2711.00,0.0014
2710.00,0.0014
2709.00,0.0014
2708.00,0.0014
2707.00,0.0014
2706.00,0.0014
2705.00,0.0014
2704.00,0.0014
2703.00,0.0014
2702.00,0.0014
2701.00,0.0014
2700.00,0.0014
2699.00,0.0013
2698.00,0.0013
2697.00,0.0013
2696.00,0.0013
2695.00,0.0013
2694.00,0.0013
2693.00,0.0013
2692.00,0.0013
2691.00,0.0013
2690.00,0.0013
2689.00,0.0013
2688.00,0.0013
2687.00,0.0013
2686.00,0.0013
2685.00,0.0013
2684.00,0.0012
2683.00,0.0012
2682.00,0.0012
2681.00,0.0012
2680.00,0.0012
2679.00,0.0012
2678.00,0.0012
2677.00,0.0012
2676.00,0.0012
2675.00,0.0012
2674.00,0.0012
2673.00,0.0012
2672.00,0.0012
2671.00,0.0011
2670.00,0.0011
2669.00,0.0011
2668.00,0.0011
2667.00,0.0011
2666.00,0.0011
2665.00,0.0011
2664.00,0.0011
2663.00,0.0011
2662.00,0.0010
2661.00,0.0010
2660.00,0.0010
2659.00,0.0010
2658.00,0.0010
2657.00,0.0010
2656.00,0.0010
2655.00,0.0010
2654.00,0.0010
2653.00,0.0010
2652.00,0.0010
2651.00,0.0010
2650.00,0.0009
2649.00,0.0009
2648.00,0.0009
2647.00,0.0009
2646.00,0.0009
2645.00,0.0009
2644.00,0.0009
2643.00,0.0009
2642.00,0.0009
2641.00,0.0009
2640.00,0.0009
2639.00,0.0009
2638.00,0.0009
2637.00,0.0009
2636.00,0.0009
2635.00,0.0009
2634.00,0.0009
2633.00,0.0009
2632.00,0.0009
2631.00,0.0009
2630.00,0.0009
2629.00,0.0009
2628.00,0.0009
2627.00,0.0009
2626.00,0.0009
2625.00,0.0009
2624.00,0.0009
2623.00,0.0009
2622.00,0.0008
2621.00,0.0008
2620.00,0.0008
2619.00,0.0008
2618.00,0.0008
2617.00,0.0008
2616.00,0.0008
2615.00,0.0008
2614.00,0.0008
2613.00,0.0008
2612.00,0.0008
2611.00,0.0008
2610.00,0.0008
2609.00,0.0008
2608.00,0.0008
2607.00,0.0008
2606.00,0.0008
2605.00,0.0008
2604.00,0.0008
2603.00,0.0008
2602.00,0.0008
2601.00,0.0008
2600.00,0.0008
2599.00,0.0008
2598.00,0.0008
2597.00,0.0008
2596.00,0.0008
2595.00,0.0007
2594.00,0.0007
2593.00,0.0007
2592.00,0.0007
2591.00,0.0007
2590.00,0.0007
2589.00,0.0007
2588.00,0.0007
2587.00,0.0007
2586.00,0.0007
2585.00,0.0007
2584.00,0.0007
2583.00,0.0007
2582.00,0.0007
2581.00,0.0007
2580.00,0.0007
2579.00,0.0007
2578.00,0.0007
2577.00,0.0007
2576.00,0.0007
2575.00,0.0007
2574.00,0.0007
2573.00,0.0007
2572.00,0.0007
2571.00,0.0007
2570.00,0.0007
2569.00,0.0007
2568.00,0.0006
2567.00,0.0006
2566.00,0.0006
2565.00,0.0006
2564.00,0.0006
2563.00,0.0006
2562.00,0.0006
2561.00,0.0006
2560.00,0.0006
2559.00,0.0006
2558.00,0.0006
2557.00,0.0006
2556.00,0.0006
2555.00,0.0006
2554.00,0.0006
2553.00,0.0006
2552.00,0.0006
2551.00,0.0006
2550.00,0.0006
2549.00,0.0006
2548.00,0.0006
2547.00,0.0005
2546.00,0.0005
2545.00,0.0005
2544.00,0.0005
2543.00,0.0005
2542.00,0.0005
2541.00,0.0005
2540.00,0.0005
2539.00,0.0005
2538.00,0.0005
2537.00,0.0005
2536.00,0.0005
2535.00,0.0005
2534.00,0.0005
2533.00,0.0005
2532.00,0.0005
2531.00,0.0005
2530.00,0.0005
2529.00,0.0005
2528.00,0.0005
2527.00,0.0005
2526.00,0.0005
2525.00,0.0005
2524.00,0.0005
2523.00,0.0005
2522.00,0.0005
2521.00,0.0005
2520.00,0.0005
2519.00,0.0005
2518.00,0.0005
2517.00,0.0005
2516.00,0.0005
2515.00,0.0005
2514.00,0.0005
2513.00,0.0004
2512.00,0.0004
2511.00,0.0004
2510.00,0.0004
2509.00,0.0004
2508.00,0.0004
2507.00,0.0004
2506.00,0.0004
2505.00,0.0004
2504.00,0.0004
2503.00,0.0004
2502.00,0.0004
2501.00,0.0004
2500.00,0.0004
2499.00,0.0004
2498.00,0.0004
2497.00,0.0004
2496.00,0.0004
2495.00,0.0004
2494.00,0.0004
2493.00,0.0003
2492.00,0.0003
2491.00,0.0003
2490.00,0.0003
2489.00,0.0003
2488.00,0.0003
2487.00,0.0003
2486.00,0.0003
2485.00,0.0003
2484.00,0.0003
2483.00,0.0003
2482.00,0.0003
2481.00,0.0003
2480.00,0.0003
2479.00,0.0003
2478.00,0.0003
2477.00,0.0003
2476.00,0.0003
2475.00,0.0003
2474.00,0.0003
2473.00,0.0003
2472.00,0.0003
2471.00,0.0003
2470.00,0.0003
2469.00,0.0003
2468.00,0.0003
2467.00,0.0002
2466.00,0.0002
2465.00,0.0002
2464.00,0.0003
2463.00,0.0003
2462.00,0.0003
2461.00,0.0002
2460.00,0.0002
2459.00,0.0002
2458.00,0.0002
2457.00,0.0002
2456.00,0.0002
2455.00,0.0002
2454.00,0.0002
2453.00,0.0002
2452.00,0.0002
2451.00,0.0002
2450.00,0.0002
2449.00,0.0002
2448.00,0.0002
2447.00,0.0002
2446.00,0.0002
2445.00,0.0002
2444.00,0.0002
2443.00,0.0002
2442.00,0.0002
2441.00,0.0002
2440.00,0.0002
2439.00,0.0002
2438.00,0.0001
2437.00,0.0002
2436.00,0.0002
2435.00,0.0002
2434.00,0.0002
2433.00,0.0002
2432.00,0.0002
2431.00,0.0002
2430.00,0.0002
2429.00,0.0001
2428.00,0.0001
2427.00,0.0001
2426.00,0.0001
2425.00,0.0001
2424.00,0.0001
2423.00,0.0001
2422.00,0.0001
2421.00,0.0001
2420.00,0.0001
2419.00,0.0001
2418.00,0.0001
2417.00,0.0001
2416.00,0.0001
2415.00,0.0001
2414.00,0.0001
2413.00,0.0001
2412.00,0.0001
2411.00,0.0001
2410.00,0.0001
2409.00,0.0001
2408.00,0.0001
2407.00,0.0001
2406.00,0.0001
2405.00,0.0001
2404.00,0.0001
2403.00,0.0001
2402.00,0.0001
2401.00,0.0001
2400.00,0.0001
2399.00,0.0001
2398.00,0.0001
2397.00,0.0001
2396.00,0.0001
2395.00,0.0001
2394.00,0.0001
2393.00,0.0001
2392.00,0.0000
2391.00,0.0000
2390.00,0.0000
2389.00,0.0000
2388.00,0.0000
2387.00,0.0001
2386.00,0.0001
2385.00,0.0000
2384.00,0.0000
2383.00,0.0000
2382.00,0.0000
2381.00,0.0000
2380.00,0.0001
2379.00,0.0001
2378.00,0.0000
2377.00,0.0000
2376.00,0.0000
2375.00,0.0000
2374.00,-0.0000
2373.00,-0.0000
2372.00,0.0000
2371.00,0.0000
2370.00,0.0000
2369.00,0.0000
2368.00,0.0000
2367.00,0.0000
2366.00,0.0000
2365.00,0.0000
2364.00,0.0000
2363.00,0.0000
2362.00,-0.0000
2361.00,-0.0000
2360.00,-0.0000
2359.00,-0.0000
2358.00,-0.0001
2357.00,-0.0001
2356.00,-0.0001
2355.00,-0.0001
2354.00,-0.0001
2353.00,-0.0001
2352.00,-0.0001
2351.00,-0.0001
2350.00,-0.0001
2349.00,-0.0001
2348.00,-0.0001
2347.00,-0.0000
2346.00,0.0000
2345.00,0.0000
2344.00,0.0000
2343.00,-0.0000
2342.00,-0.0001
2341.00,-0.0001
2340.00,-0.0001
2339.00,-0.0001
2338.00,-0.0001
2337.00,-0.0001
2336.00,-0.0001
2335.00,-0.0001
2334.00,-0.0001
2333.00,-0.0001
2332.00,-0.0001
2331.00,-0.0001
2330.00,-0.0001
2329.00,-0.0001
2328.00,-0.0002
2327.00,-0.0002
2326.00,-0.0002
2325.00,-0.0002
2324.00,-0.0002
2323.00,-0.0002
2322.00,-0.0002
2321.00,-0.0002
2320.00,-0.0002
2319.00,-0.0002
2318.00,-0.0002
2317.00,-0.0001
2316.00,-0.0001
2315.00,-0.0001
2314.00,-0.0001
2313.00,-0.0001
2312.00,-0.0001
2311.00,-0.0001
2310.00,-0.0001
2309.00,-0.0001
2308.00,-0.0002
2307.00,-0.0002
2306.00,-0.0002
2305.00,-0.0002
2304.00,-0.0001
2303.00,-0.0001
2302.00,-0.0001
2301.00,-0.0001
2300.00,-0.0001
2299.00,-0.0001
2298.00,-0.0001
2297.00,-0.0001
2296.00,-0.0001
2295.00,-0.0001
2294.00,-0.0001
2293.00,-0.0001
2292.00,-0.0002
2291.00,-0.0002
2290.00,-0.0002
2289.00,-0.0002
2288.00,-0.0001
2287.00,-0.0001
2286.00,-0.0001
2285.00,-0.0001
2284.00,-0.0001
2283.00,-0.0001
2282.00,-0.0001
2281.00,-0.0001
2280.00,-0.0001
2279.00,-0.0001
2278.00,-0.0001
2277.00,-0.0001
2276.00,-0.0001
2275.00,-0.0001
2274.00,-0.0001
2273.00,-0.0001
2272.00,-0.0001
2271.00,-0.0000
2270.00,-0.0001
2269.00,-0.0001
2268.00,-0.0001
2267.00,-0.0001
2266.00,-0.0001
2265.00,-0.0001
2264.00,-0.0000
2263.00,-0.0000
2262.00,-0.0000
2261.00,-0.0000
2260.00,-0.0000
2259.00,-0.0000
2258.00,-0.0000
2257.00,-0.0000
2256.00,-0.0001
2255.00,-0.0001
2254.00,-0.0001
2253.00,-0.0001
2252.00,-0.0001
2251.00,-0.0001
2250.00,-0.0002
2249.00,-0.0002
2248.00,-0.0002
2247.00,-0.0002
2246.00,-0.0002
2245.00,-0.0002
2244.00,-0.0001
2243.00,-0.0001
2242.00,-0.0001
2241.00,-0.0001
2240.00,-0.0000
2239.00,-0.0000
2238.00,0.0000
2237.00,0.0000
2236.00,0.0000
2235.00,0.0000
2234.00,0.0000
2233.00,0.0000
2232.00,-0.0000
2231.00,-0.0000
2230.00,-0.0000
2229.00,-0.0000
2228.00,-0.0000
2227.00,0.0000
2226.00,0.0001
2225.00,0.0001
2224.00,0.0000
2223.00,-0.0000
2222.00,-0.0000
2221.00,-0.0000
2220.00,-0.0000
2219.00,0.0000
2218.00,0.0000
2217.00,0.0000
2216.00,0.0000
2215.00,0.0000
2214.00,-0.0000
2213.00,-0.0001
2212.00,-0.0001
2211.00,-0.0001
2210.00,-0.0001
2209.00,-0.0001
2208.00,-0.0000
2207.00,-0.0000
2206.00,-0.0000
2205.00,-0.0001
2204.00,-0.0001
2203.00,-0.0001
2202.00,-0.0001
2201.00,-0.0001
2200.00,-0.0001
2199.00,-0.0000
2198.00,-0.0000
2197.00,-0.0001
2196.00,-0.0001
2195.00,-0.0000
2194.00,-0.0000
2193.00,0.0000
2192.00,0.0000
2191.00,-0.0000
2190.00,-0.0000
2189.00,-0.0000
2188.00,0.0000
2187.00,0.0001
2186.00,0.0001
2185.00,0.0002
2184.00,0.0002
2183.00,0.0001
2182.00,0.0001
2181.00,0.0001
2180.00,0.0000
2179.00,0.0000
2178.00,0.0000
2177.00,0.0000
2176.00,0.0000
2175.00,-0.0000
2174.00,-0.0001
2173.00,-0.0001
2172.00,-0.0001
2171.00,-0.0001
2170.00,-0.0001
2169.00,-0.0001
2168.00,-0.0000
2167.00,0.0000
2166.00,0.0001
2165.00,0.0001
2164.00,0.0001
2163.00,0.0001
2162.00,0.0001
2161.00,0.0000
2160.00,0.0000
2159.00,0.0001
2158.00,0.0002
2157.00,0.0003
2156.00,0.0003
2155.00,0.0003
2154.00,0.0003
2153.00,0.0002
2152.00,0.0002
2151.00,0.0001
2150.00,0.0001
2149.00,0.0001
2148.00,0.0001
2147.00,0.0001
2146.00,0.0001
2145.00,0.0001
2144.00,0.0001
2143.00,0.0000
2142.00,0.0000
2141.00,-0.0000
2140.00,-0.0000
2139.00,-0.0000
2138.00,-0.0000
2137.00,-0.0000
2136.00,-0.0000
2135.00,0.0000
2134.00,0.0001
2133.00,0.0001
2132.00,0.0001
2131.00,0.0001
2130.00,0.0001
2129.00,0.0000
2128.00,-0.0000
2127.00,-0.0000
2126.00,0.0000
2125.00,0.0001
2124.00,0.0001
2123.00,0.0000
2122.00,0.0000
2121.00,-0.0000
2120.00,-0.0000
2119.00,0.0000
2118.00,0.0000
2117.00,-0.0000
2116.00,-0.0000
2115.00,-0.0001
2114.00,-0.0001
2113.00,-0.0001
2112.00,-0.0000
2111.00,-0.0000
2110.00,-0.0001
2109.00,-0.0001
2108.00,-0.0001
2107.00,-0.0000
2106.00,-0.0000
2105.00,-0.0000
2104.00,-0.0000
2103.00,-0.0001
2102.00,-0.0001
2101.00,-0.0001
2100.00,-0.0001
2099.00,-0.0001
2098.00,-0.0001
2097.00,-0.0000
2096.00,0.0000
2095.00,0.0001
2094.00,0.0001
2093.00,0.0000
2092.00,-0.0000
2091.00,-0.0001
2090.00,-0.0000
2089.00,-0.0000
2088.00,0.0000
2087.00,0.0000
2086.00,0.0000
2085.00,0.0000
2084.00,0.0000
2083.00,-0.0000
2082.00,-0.0001
2081.00,-0.0001
2080.00,-0.0001
2079.00,-0.0001
2078.00,-0.0001
2077.00,-0.0001
2076.00,-0.0001
2075.00,-0.0001
2074.00,-0.0001
2073.00,-0.0001
2072.00,-0.0001
2071.00,-0.0002
2070.00,-0.0002
2069.00,-0.0002
2068.00,-0.0001
2067.00,-0.0001
2066.00,-0.0001
2065.00,-0.0001
2064.00,-0.0001
2063.00,-0.0001
2062.00,-0.0000
2061.00,-0.0000
2060.00,-0.0001
2059.00,-0.0001
2058.00,-0.0001
2057.00,-0.0001
2056.00,-0.0001
2055.00,-0.0001
2054.00,-0.0001
2053.00,-0.0002
2052.00,-0.0003
2051.00,-0.0003
2050.00,-0.0003
2049.00,-0.0003
2048.00,-0.0003
2047.00,-0.0003
2046.00,-0.0003
2045.00,-0.0003
2044.00,-0.0003
2043.00,-0.0003
2042.00,-0.0003
2041.00,-0.0002
2040.00,-0.0001
2039.00,0.0000
2038.00,0.0001
2037.00,0.0000
2036.00,-0.0001
2035.00,-0.0001
2034.00,-0.0002
2033.00,-0.0003
2032.00,-0.0003
2031.00,-0.0002
2030.00,-0.0002
2029.00,-0.0001
2028.00,-0.0001
2027.00,-0.0002
2026.00,-0.0002
2025.00,-0.0002
2024.00,-0.0001
2023.00,-0.0001
2022.00,-0.0000
2021.00,-0.0001
2020.00,-0.0001
2019.00,-0.0001
2018.00,-0.0002
2017.00,-0.0002
2016.00,-0.0002
2015.00,-0.0002
2014.00,-0.0001
2013.00,-0.0001
2012.00,-0.0002
2011.00,-0.0002
2010.00,-0.0002
2009.00,-0.0002
2008.00,-0.0001
2007.00,-0.0001
2006.00,-0.0001
2005.00,-0.0001
2004.00,-0.0002
2003.00,-0.0002
2002.00,-0.0002
2001.00,-0.0002
2000.00,-0.0002
1999.00,-0.0001
1998.00,-0.0001
1997.00,-0.0002
1996.00,-0.0003
1995.00,-0.0003
1994.00,-0.0003
1993.00,-0.0003
1992.00,-0.0003
1991.00,-0.0002
1990.00,-0.0002
1989.00,-0.0001
1988.00,-0.0001
1987.00,-0.0001
1986.00,-0.0002
1985.00,-0.0003
1984.00,-0.0004
1983.00,-0.0004
1982.00,-0.0004
1981.00,-0.0003
1980.00,-0.0002
1979.00,-0.0001
1978.00,-0.0001
1977.00,-0.0000
1976.00,-0.0000
1975.00,0.0000
1974.00,-0.0000
1973.00,-0.0001
1972.00,-0.0001
1971.00,-0.0002
1970.00,-0.0002
1969.00,-0.0003
1968.00,-0.0003
1967.00,-0.0003
1966.00,-0.0003
1965.00,-0.0003
1964.00,-0.0003
1963.00,-0.0002
1962.00,-0.0001
1961.00,-0.0001
1960.00,-0.0001
1959.00,-0.0001
1958.00,-0.0001
1957.00,-0.0002
1956.00,-0.0002
1955.00,-0.0002
1954.00,-0.0001
1953.00,-0.0001
1952.00,-0.0001
1951.00,-0.0002
1950.00,-0.0002
1949.00,-0.0002
1948.00,-0.0002
1947.00,-0.0002
1946.00,-0.0002
1945.00,-0.0003
1944.00,-0.0003
1943.00,-0.0002
1942.00,-0.0002
1941.00,-0.0001
1940.00,-0.0001
1939.00,-0.0002
1938.00,-0.0002
1937.00,-0.0002
1936.00,-0.0002
1935.00,-0.0002
1934.00,-0.0002
1933.00,-0.0003
1932.00,-0.0003
1931.00,-0.0003
1930.00,-0.0003
1929.00,-0.0003
1928.00,-0.0003
1927.00,-0.0003
1926.00,-0.0003
1925.00,-0.0003
1924.00,-0.0003
1923.00,-0.0003
1922.00,-0.0003
1921.00,-0.0003
1920.00,-0.0004
1919.00,-0.0003
1918.00,-0.0003
1917.00,-0.0003
1916.00,-0.0003
1915.00,-0.0003
1914.00,-0.0003
1913.00,-0.0003
1912.00,-0.0003
1911.00,-0.0002
1910.00,-0.0002
1909.00,-0.0002
1908.00,-0.0002
1907.00,-0.0002
1906.00,-0.0002
1905.00,-0.0002
1904.00,-0.0002
1903.00,-0.0002
1902.00,-0.0002
1901.00,-0.0002
1900.00,-0.0002
1899.00,-0.0002
1898.00,-0.0002
1897.00,-0.0003
1896.00,-0.0003
1895.00,-0.0003
1894.00,-0.0003
1893.00,-0.0003
1892.00,-0.0003
1891.00,-0.0003
1890.00,-0.0003
1889.00,-0.0003
1888.00,-0.0003
1887.00,-0.0003
1886.00,-0.0003
1885.00,-0.0003
1884.00,-0.0002
1883.00,-0.0002
1882.00,-0.0002
1881.00,-0.0003
1880.00,-0.0003
1879.00,-0.0003
1878.00,-0.0003
1877.00,-0.0003
1876.00,-0.0003
1875.00,-0.0003
1874.00,-0.0003
1873.00,-0.0003
1872.00,-0.0003
1871.00,-0.0003
1870.00,-0.0003
1869.00,-0.0003
1868.00,-0.0003
1867.00,-0.0003
1866.00,-0.0003
1865.00,-0.0003
1864.00,-0.0003
1863.00,-0.0003
1862.00,-0.0003
1861.00,-0.0003
1860.00,-0.0003
1859.00,-0.0003
1858.00,-0.0003
1857.00,-0.0003
1856.00,-0.0003
1855.00,-0.0003
1854.00,-0.0003
1853.00,-0.0003
1852.00,-0.0003
1851.00,-0.0003
1850.00,-0.0003
1849.00,-0.0003
1848.00,-0.0003
1847.00,-0.0003
1846.00,-0.0004
1845.00,-0.0003
1844.00,-0.0003
1843.00,-0.0003
1842.00,-0.0003
1841.00,-0.0004
1840.00,-0.0004
1839.00,-0.0004
1838.00,-0.0004
1837.00,-0.0003
1836.00,-0.0003
1835.00,-0.0003
1834.00,-0.0003
1833.00,-0.0003
1832.00,-0.0003
1831.00,-0.0003
1830.00,-0.0003
1829.00,-0.0002
1828.00,-0.0002
1827.00,-0.0003
1826.00,-0.0004
1825.00,-0.0004
1824.00,-0.0003
1823.00,-0.0003
1822.00,-0.0004
1821.00,-0.0004
1820.00,-0.0003
1819.00,-0.0003
1818.00,-0.0003
1817.00,-0.0003
1816.00,-0.0003
1815.00,-0.0003
1814.00,-0.0003
1813.00,-0.0003
1812.00,-0.0003
1811.00,-0.0003
1810.00,-0.0002
1809.00,-0.0002
1808.00,-0.0003
1807.00,-0.0003
1806.00,-0.0003
1805.00,-0.0003
1804.00,-0.0003
1803.00,-0.0003
1802.00,-0.0003
1801.00,-0.0003
1800.00,-0.0003
1799.00,-0.0003
1798.00,-0.0002
1797.00,-0.0002
1796.00,-0.0002
1795.00,-0.0002
1794.00,-0.0002
1793.00,-0.0002
1792.00,-0.0002
1791.00,-0.0002
1790.00,-0.0002
1789.00,-0.0003
1788.00,-0.0003
1787.00,-0.0003
1786.00,-0.0002
1785.00,-0.0002
1784.00,-0.0002
1783.00,-0.0002
1782.00,-0.0002
1781.00,-0.0002
1780.00,-0.0001
1779.00,-0.0001
1778.00,-0.0001
1777.00,-0.0001
1776.00,-0.0001
1775.00,-0.0001
1774.00,-0.0000
1773.00,0.0001
1772.00,0.0002
1771.00,0.0002
1770.00,0.0001
1769.00,-0.0000
1768.00,-0.0001
1767.00,-0.0001
1766.00,-0.0001
1765.00,-0.0001
1764.00,-0.0000
1763.00,-0.0000
1762.00,0.0000
1761.00,0.0001
1760.00,0.0001
1759.00,0.0000
1758.00,0.0000
1757.00,0.0001
1756.00,0.0001
1755.00,0.0002
1754.00,0.0002
1753.00,0.0002
1752.00,0.0002
1751.00,0.0003
1750.00,0.0004
1749.00,0.0004
1748.00,0.0004
1747.00,0.0005
1746.00,0.0005
1745.00,0.0005
1744.00,0.0006
1743.00,0.0006
1742.00,0.0007
1741.00,0.0007
1740.00,0.0008
1739.00,0.0009
1738.00,0.0010
1737.00,0.0009
1736.00,0.0009
1735.00,0.0010
1734.00,0.0011
1733.00,0.0012
1732.00,0.0012
1731.00,0.0011
1730.00,0.0010
1729.00,0.0010
1728.00,0.0011
1727.00,0.0012
1726.00,0.0012
1725.00,0.0012
1724.00,0.0013
1723.00,0.0014
1722.00,0.0014
1721.00,0.0015
1720.00,0.0015
1719.00,0.0016
1718.00,0.0018
1717.00,0.0019
1716.00,0.0020
1715.00,0.0020
1714.00,0.0020
1713.00,0.0020
1712.00,0.0021
1711.00,0.0022
1710.00,0.0024
1709.00,0.0026
1708.00,0.0028
1707.00,0.0030
1706.00,0.0033
1705.00,0.0037
1704.00,0.0040
1703.00,0.0042
1702.00,0.0046
1701.00,0.0051
1700.00,0.0059
1699.00,0.0066
1698.00,0.0070
1697.00,0.0072
1696.00,0.0076
1695.00,0.0080
1694.00,0.0083
1693.00,0.0084
1692.00,0.0084
1691.00,0.0085
1690.00,0.0087
1689.00,0.0090
1688.00,0.0092
1687.00,0.0095
1686.00,0.0098
1685.00,0.0100
1684.00,0.0104
1683.00,0.0107
1682.00,0.0108
1681.00,0.0108
1680.00,0.0110
1679.00,0.0113
1678.00,0.0116
1677.00,0.0119
1676.00,0.0121
1675.00,0.0124
1674.00,0.0128
1673.00,0.0131
1672.00,0.0133
1671.00,0.0136
1670.00,0.0138
1669.00,0.0141
1668.00,0.0144
1667.00,0.0147
1666.00,0.0149
1665.00,0.0152
1664.00,0.0155
1663.00,0.0158
1662.00,0.0161
1661.00,0.0164
1660.00,0.0167
1659.00,0.0170
1658.00,0.0173
1657.00,0.0177
1656.00,0.0181
1655.00,0.0185
1654.00,0.0186
1653.00,0.0186
1652.00,0.0190
1651.00,0.0193
1650.00,0.0194
1649.00,0.0195
1648.00,0.0195
1647.00,0.0195
1646.00,0.0195
1645.00,0.0196
1644.00,0.0197
1643.00,0.0198
1642.00,0.0199
1641.00,0.0200
1640.00,0.0202
1639.00,0.0205
1638.00,0.0207
1637.00,0.0208
1636.00,0.0208
1635.00,0.0208
1634.00,0.0210
1633.00,0.0212
1632.00,0.0214
1631.00,0.0217
1630.00,0.0219
1629.00,0.0222
1628.00,0.0226
1627.00,0.0230
1626.00,0.0234
1625.00,0.0237
1624.00,0.0240
1623.00,0.0242
1622.00,0.0246
1621.00,0.0249
1620.00,0.0253
1619.00,0.0256
1618.00,0.0258
1617.00,0.0257
1616.00,0.0255
1615.00,0.0253
1614.00,0.0251
1613.00,0.0248
1612.00,0.0245
1611.00,0.0241
1610.00,0.0235
1609.00,0.0229
1608.00,0.0223
1607.00,0.0217
1606.00,0.0212
1605.00,0.0206
1604.00,0.0200
1603.00,0.0194
1602.00,0.0189
1601.00,0.0184
1600.00,0.0179
1599.00,0.0175
1598.00,0.0172
1597.00,0.0168
1596.00,0.0165
1595.00,0.0162
1594.00,0.0159
1593.00,0.0157
1592.00,0.0154
1591.00,0.0152
1590.00,0.0150
1589.00,0.0148
1588.00,0.0146
1587.00,0.0145
1586.00,0.0144
1585.00,0.0143
1584.00,0.0142
1583.00,0.0142
1582.00,0.0141
1581.00,0.0141
1580.00,0.0142
1579.00,0.0143
1578.00,0.0144
1577.00,0.0144
1576.00,0.0145
1575.00,0.0146
1574.00,0.0146
1573.00,0.0147
1572.00,0.0147
1571.00,0.0149
1570.00,0.0150
1569.00,0.0152
1568.00,0.0154
1567.00,0.0155
1566.00,0.0157
1565.00,0.0159
1564.00,0.0162
1563.00,0.0165
1562.00,0.0169
1561.00,0.0173
1560.00,0.0175
1559.00,0.0175
1558.00,0.0177
1557.00,0.0180
1556.00,0.0180
1555.00,0.0182
1554.00,0.0184
1553.00,0.0187
1552.00,0.0190
1551.00,0.0192
1550.00,0.0193
1549.00,0.0196
1548.00,0.0199
1547.00,0.0202
1546.00,0.0204
1545.00,0.0207
1544.00,0.0209
1543.00,0.0212
1542.00,0.0214
1541.00,0.0216
1540.00,0.0216
1539.00,0.0217
1538.00,0.0219
1537.00,0.0221
1536.00,0.0222
1535.00,0.0223
1534.00,0.0223
1533.00,0.0223
1532.00,0.0224
1531.00,0.0226
1530.00,0.0228
1529.00,0.0229
1528.00,0.0230
1527.00,0.0230
1526.00,0.0231
1525.00,0.0232
1524.00,0.0233
1523.00,0.0234
1522.00,0.0233
1521.00,0.0232
1520.00,0.0232
1519.00,0.0232
1518.00,0.0232
1517.00,0.0230
1516.00,0.0229
1515.00,0.0228
1514.00,0.0227
1513.00,0.0226
1512.00,0.0224
1511.00,0.0221
1510.00,0.0220
1509.00,0.0217
1508.00,0.0212
1507.00,0.0205
1506.00,0.0199
1505.00,0.0195
1504.00,0.0192
1503.00,0.0189
1502.00,0.0186
1501.00,0.0183
1500.00,0.0179
1499.00,0.0175
1498.00,0.0171
1497.00,0.0166
1496.00,0.0161
1495.00,0.0157
1494.00,0.0153
1493.00,0.0150
1492.00,0.0146
1491.00,0.0141
1490.00,0.0136
1489.00,0.0131
1488.00,0.0127
1487.00,0.0124
1486.00,0.0122
1485.00,0.0119
1484.00,0.0117
1483.00,0.0115
1482.00,0.0114
1481.00,0.0112
1480.00,0.0111
1479.00,0.0110
1478.00,0.0110
1477.00,0.0109
1476.00,0.0109
1475.00,0.0110
1474.00,0.0110
1473.00,0.0111
1472.00,0.0112
1471.00,0.0114
1470.00,0.0115
1469.00,0.0116
1468.00,0.0117
1467.00,0.0118
1466.00,0.0118
1465.00,0.0118
1464.00,0.0119
1463.00,0.0119
1462.00,0.0120
1461.00,0.0121
1460.00,0.0122
1459.00,0.0123
1458.00,0.0124
1457.00,0.0125
1456.00,0.0126
1455.00,0.0126
1454.00,0.0126
1453.00,0.0127
1452.00,0.0127
1451.00,0.0128
1450.00,0.0128
1449.00,0.0127
1448.00,0.0126
1447.00,0.0126
1446.00,0.0125
1445.00,0.0125
1444.00,0.0124
1443.00,0.0123
1442.00,0.0123
1441.00,0.0122
1440.00,0.0122
1439.00,0.0121
1438.00,0.0120
1437.00,0.0117
1436.00,0.0114
1435.00,0.0112
1434.00,0.0111
1433.00,0.0110
1432.00,0.0109
1431.00,0.0108
1430.00,0.0107
1429.00,0.0106
1428.00,0.0105
1427.00,0.0105
1426.00,0.0105
1425.00,0.0105
1424.00,0.0105
1423.00,0.0106
1422.00,0.0107
1421.00,0.0108
1420.00,0.0109
1419.00,0.0109
1418.00,0.0110
1417.00,0.0111
1416.00,0.0112
1415.00,0.0114
1414.00,0.0116
1413.00,0.0117
1412.00,0.0119
1411.00,0.0120
1410.00,0.0121
1409.00,0.0122
1408.00,0.0124
1407.00,0.0125
1406.00,0.0125
1405.00,0.0126
1404.00,0.0127
1403.00,0.0127
1402.00,0.0128
1401.00,0.0129
1400.00,0.0129
1399.00,0.0130
1398.00,0.0130
1397.00,0.0130
1396.00,0.0130
1395.00,0.0130
1394.00,0.0130
1393.00,0.0130
1392.00,0.0131
1391.00,0.0131
1390.00,0.0132
1389.00,0.0132
1388.00,0.0131
1387.00,0.0130
1386.00,0.0129
1385.00,0.0129
1384.00,0.0128
1383.00,0.0127
1382.00,0.0126
1381.00,0.0125
1380.00,0.0124
1379.00,0.0123
1378.00,0.0121
1377.00,0.0120
1376.00,0.0119
1375.00,0.0118
1374.00,0.0117
1373.00,0.0115
1372.00,0.0115
1371.00,0.0114
1370.00,0.0113
1369.00,0.0112
1368.00,0.0111
1367.00,0.0110
1366.00,0.0108
1365.00,0.0106
1364.00,0.0104
1363.00,0.0102
1362.00,0.0100
1361.00,0.0099
1360.00,0.0099
1359.00,0.0099
1358.00,0.0100
1357.00,0.0100
1356.00,0.0101
1355.00,0.0101
1354.00,0.0102
1353.00,0.0103
1352.00,0.0104
1351.00,0.0105
1350.00,0.0105
1349.00,0.0106
1348.00,0.0106
1347.00,0.0106
1346.00,0.0106
1345.00,0.0106
1344.00,0.0105
1343.00,0.0105
1342.00,0.0104
1341.00,0.0103
1340.00,0.0102
1339.00,0.0101
1338.00,0.0100
1337.00,0.0100
1336.00,0.0099
1335.00,0.0099
1334.00,0.0099
1333.00,0.0098
1332.00,0.0098
1331.00,0.0098
1330.00,0.0097
1329.00,0.0097
1328.00,0.0096
1327.00,0.0096
1326.00,0.0096
1325.00,0.0096
1324.00,0.0096
1323.00,0.0096
1322.00,0.0096
1321.00,0.0096
1320.00,0.0095
1319.00,0.0095
1318.00,0.0095
1317.00,0.0095
1316.00,0.0095
1315.00,0.0095
1314.00,0.0095
1313.00,0.0094
1312.00,0.0094
1311.00,0.0094
1310.00,0.0094
1309.00,0.0094
1308.00,0.0094
1307.00,0.0093
1306.00,0.0093
1305.00,0.0093
1304.00,0.0092
1303.00,0.0092
1302.00,0.0092
1301.00,0.0092
1300.00,0.0091
1299.00,0.0091
1298.00,0.0091
1297.00,0.0091
1296.00,0.0091
1295.00,0.0091
1294.00,0.0092
1293.00,0.0092
1292.00,0.0092
1291.00,0.0092
1290.00,0.0093
1289.00,0.0093
1288.00,0.0093
1287.00,0.0093
1286.00,0.0094
1285.00,0.0094
1284.00,0.0094
1283.00,0.0094
1282.00,0.0094
1281.00,0.0094
1280.00,0.0094
1279.00,0.0094
1278.00,0.0094
1277.00,0.0094
1276.00,0.0094
1275.00,0.0094
1274.00,0.0094
1273.00,0.0095
1272.00,0.0095
1271.00,0.0095
1270.00,0.0095
1269.00,0.0096
1268.00,0.0096
1267.00,0.0097
1266.00,0.0098
1265.00,0.0099
1264.00,0.0100
1263.00,0.0101
1262.00,0.0102
1261.00,0.0103
1260.00,0.0104
1259.00,0.0105
1258.00,0.0106
1257.00,0.0107
1256.00,0.0108
1255.00,0.0110
1254.00,0.0111
1253.00,0.0112
1252.00,0.0113
1251.00,0.0114
1250.00,0.0116
1249.00,0.0117
1248.00,0.0117
1247.00,0.0118
1246.00,0.0119
1245.00,0.0120
1244.00,0.0121
1243.00,0.0121
1242.00,0.0122
1241.00,0.0123
1240.00,0.0123
1239.00,0.0124
1238.00,0.0124
1237.00,0.0124
1236.00,0.0124
1235.00,0.0124
1234.00,0.0125
1233.00,0.0124
1232.00,0.0124
1231.00,0.0124
1230.00,0.0123
1229.00,0.0123
1228.00,0.0122
1227.00,0.0122
1226.00,0.0121
1225.00,0.0120
1224.00,0.0119
1223.00,0.0118
1222.00,0.0117
1221.00,0.0116
1220.00,0.0114
1219.00,0.0113
1218.00,0.0112
1217.00,0.0110
1216.00,0.0109
1215.00,0.0107
1214.00,0.0105
1213.00,0.0104
1212.00,0.0102
1211.00,0.0100
1210.00,0.0098
1209.00,0.0096
1208.00,0.0094
1207.00,0.0093
1206.00,0.0091
1205.00,0.0089
1204.00,0.0088
1203.00,0.0086
1202.00,0.0085
1201.00,0.0084
1200.00,0.0083
1199.00,0.0082
1198.00,0.0081
1197.00,0.0080
1196.00,0.0079
1195.00,0.0079
1194.00,0.0078
1193.00,0.0078
1192.00,0.0077
1191.00,0.0076
1190.00,0.0076
1189.00,0.0076
1188.00,0.0075
1187.00,0.0075
1186.00,0.0075
1185.00,0.0075
1184.00,0.0075
1183.00,0.0074
1182.00,0.0074
1181.00,0.0074
1180.00,0.0074
1179.00,0.0075
1178.00,0.0076
1177.00,0.0077
1176.00,0.0078
1175.00,0.0079
1174.00,0.0080
1173.00,0.0081
1172.00,0.0082
1171.00,0.0082
1170.00,0.0083
1169.00,0.0084
1168.00,0.0084
1167.00,0.0084
1166.00,0.0084
1165.00,0.0084
1164.00,0.0084
1163.00,0.0084
1162.00,0.0085
1161.00,0.0085
1160.00,0.0085
1159.00,0.0085
1158.00,0.0086
1157.00,0.0086
1156.00,0.0085
1155.00,0.0085
1154.00,0.0085
1153.00,0.0084
1152.00,0.0084
1151.00,0.0083
1150.00,0.0083
1149.00,0.0083
1148.00,0.0082
1147.00,0.0082
1146.00,0.0081
1145.00,0.0081
1144.00,0.0080
1143.00,0.0079
1142.00,0.0079
1141.00,0.0079
1140.00,0.0079
1139.00,0.0079
1138.00,0.0079
1137.00,0.0080
1136.00,0.0080
1135.00,0.0080
1134.00,0.0080
1133.00,0.0081
1132.00,0.0081
1131.00,0.0082
1130.00,0.0083
1129.00,0.0084
1128.00,0.0084
1127.00,0.0085
1126.00,0.0086
1125.00,0.0087
1124.00,0.0087
1123.00,0.0087
1122.00,0.0088
1121.00,0.0089
1120.00,0.0089
1119.00,0.0089
1118.00,0.0090
1117.00,0.0090
1116.00,0.0091
1115.00,0.0091
1114.00,0.0092
1113.00,0.0093
1112.00,0.0093
1111.00,0.0093
1110.00,0.0094
1109.00,0.0094
1108.00,0.0094
1107.00,0.0094
1106.00,0.0095
1105.00,0.0096
1104.00,0.0096
1103.00,0.0096
1102.00,0.0097
1101.00,0.0097
1100.00,0.0098
1099.00,0.0098
1098.00,0.0099
1097.00,0.0100
1096.00,0.0100
1095.00,0.0101
1094.00,0.0102
1093.00,0.0104
1092.00,0.0105
1091.00,0.0106
1090.00,0.0108
1089.00,0.0110
1088.00,0.0111
1087.00,0.0113
1086.00,0.0115
1085.00,0.0116
1084.00,0.0118
1083.00,0.0119
1082.00,0.0121
1081.00,0.0122
1080.00,0.0123
1079.00,0.0124
1078.00,0.0126
1077.00,0.0127
1076.00,0.0127
1075.00,0.0128
1074.00,0.0129
1073.00,0.0129
1072.00,0.0129
1071.00,0.0129
1070.00,0.0129
1069.00,0.0129
1068.00,0.0129
1067.00,0.0129
1066.00,0.0129
1065.00,0.0129
1064.00,0.0128
1063.00,0.0128
1062.00,0.0128
1061.00,0.0127
1060.00,0.0126
1059.00,0.0126
1058.00,0.0125
1057.00,0.0124
1056.00,0.0123
1055.00,0.0122
1054.00,0.0122
1053.00,0.0121
1052.00,0.0120
1051.00,0.0119
1050.00,0.0119
1049.00,0.0118
1048.00,0.0117
1047.00,0.0115
1046.00,0.0115
1045.00,0.0114
1044.00,0.0112
1043.00,0.0111
1042.00,0.0110
1041.00,0.0109
1040.00,0.0107
1039.00,0.0106
1038.00,0.0105
1037.00,0.0104
1036.00,0.0103
1035.00,0.0102
1034.00,0.0101
1033.00,0.0101
1032.00,0.0100
1031.00,0.0099
1030.00,0.0098
1029.00,0.0097
1028.00,0.0096
1027.00,0.0095
1026.00,0.0094
1025.00,0.0093
1024.00,0.0091
1023.00,0.0089
1022.00,0.0088
1021.00,0.0087
1020.00,0.0085
1019.00,0.0083
1018.00,0.0082
1017.00,0.0081
1016.00,0.0079
1015.00,0.0077
1014.00,0.0076
1013.00,0.0075
1012.00,0.0073
1011.00,0.0071
1010.00,0.0070
1009.00,0.0069
1008.00,0.0067
1007.00,0.0066
1006.00,0.0065
1005.00,0.0064
1004.00,0.0063
1003.00,0.0061
1002.00,0.0061
1001.00,0.0060
1000.00,0.0059
999.00,0.0058
998.00,0.0058
997.00,0.0058
996.00,0.0057
995.00,0.0056
994.00,0.0056
993.00,0.0055
992.00,0.0055
991.00,0.0054
990.00,0.0054
989.00,0.0054
988.00,0.0054
987.00,0.0054
986.00,0.0054
985.00,0.0055
984.00,0.0055
983.00,0.0055
982.00,0.0055
981.00,0.0056
980.00,0.0056
979.00,0.0057
978.00,0.0058
977.00,0.0059
976.00,0.0059
975.00,0.0059
974.00,0.0060
973.00,0.0060
972.00,0.0060
971.00,0.0060
970.00,0.0060
969.00,0.0060
968.00,0.0059
967.00,0.0058
966.00,0.0058
965.00,0.0057
964.00,0.0057
963.00,0.0056
962.00,0.0056
961.00,0.0056
960.00,0.0055
959.00,0.0054
958.00,0.0054
957.00,0.0054
956.00,0.0054
955.00,0.0053
954.00,0.0053
953.00,0.0053
952.00,0.0053
951.00,0.0053
950.00,0.0053
949.00,0.0053
948.00,0.0052
947.00,0.0052
946.00,0.0053
945.00,0.0053
944.00,0.0053
943.00,0.0053
942.00,0.0053
941.00,0.0053
940.00,0.0053
939.00,0.0053
938.00,0.0053
937.00,0.0054
936.00,0.0053
935.00,0.0053
934.00,0.0053
933.00,0.0053
932.00,0.0053
931.00,0.0053
930.00,0.0053
929.00,0.0052
928.00,0.0052
927.00,0.0051
926.00,0.0051
925.00,0.0050
924.00,0.0049
923.00,0.0048
922.00,0.0048
921.00,0.0048
920.00,0.0047
919.00,0.0047
918.00,0.0047
917.00,0.0046
916.00,0.0045
915.00,0.0045
914.00,0.0045
913.00,0.0045
912.00,0.0044
911.00,0.0044
910.00,0.0044
909.00,0.0044
908.00,0.0044
907.00,0.0044
906.00,0.0044
905.00,0.0044
904.00,0.0044
903.00,0.0044
902.00,0.0045
901.00,0.0045
900.00,0.0044
899.00,0.0044
898.00,0.0045
897.00,0.0045
896.00,0.0044
895.00,0.0044
894.00,0.0044
893.00,0.0045
892.00,0.0044
891.00,0.0044
890.00,0.0045
889.00,0.0045
888.00,0.0044
887.00,0.0044
886.00,0.0045
885.00,0.0045
884.00,0.0045
883.00,0.0045
882.00,0.0045
881.00,0.0045
880.00,0.0045
879.00,0.0044
878.00,0.0045
877.00,0.0045
876.00,0.0045
875.00,0.0045
874.00,0.0045
873.00,0.0045
872.00,0.0044
871.00,0.0044
870.00,0.0044
869.00,0.0044
868.00,0.0044
867.00,0.0044
866.00,0.0044
865.00,0.0045
864.00,0.0044
863.00,0.0045
862.00,0.0045
861.00,0.0046
860.00,0.0046
859.00,0.0046
858.00,0.0047
857.00,0.0048
856.00,0.0049
855.00,0.0049
854.00,0.0050
853.00,0.0051
852.00,0.0051
851.00,0.0051
850.00,0.0052
849.00,0.0052
848.00,0.0052
847.00,0.0052
846.00,0.0052
845.00,0.0053
844.00,0.0053
843.00,0.0054
842.00,0.0055
841.00,0.0056
840.00,0.0056
839.00,0.0057
838.00,0.0058
837.00,0.0059
836.00,0.0059
835.00,0.0060
834.00,0.0061
833.00,0.0063
832.00,0.0063
831.00,0.0064
830.00,0.0065
829.00,0.0066
828.00,0.0066
827.00,0.0066
826.00,0.0067
825.00,0.0067
824.00,0.0067
823.00,0.0067
822.00,0.0068
821.00,0.0068
820.00,0.0069
819.00,0.0069
818.00,0.0069
817.00,0.0070
816.00,0.0070
815.00,0.0070
814.00,0.0071
813.00,0.0072
812.00,0.0072
811.00,0.0072
810.00,0.0074
809.00,0.0074
808.00,0.0074
807.00,0.0075
806.00,0.0076
805.00,0.0077
804.00,0.0077
803.00,0.0077
802.00,0.0078
801.00,0.0079
800.00,0.0079
799.00,0.0079
798.00,0.0081
797.00,0.0082
796.00,0.0082
795.00,0.0083
794.00,0.0084
793.00,0.0085
792.00,0.0086
791.00,0.0087
790.00,0.0089
789.00,0.0090
788.00,0.0091
787.00,0.0091
786.00,0.0093
785.00,0.0094
784.00,0.0095
783.00,0.0096
782.00,0.0097
781.00,0.0098
780.00,0.0099
779.00,0.0099
778.00,0.0101
777.00,0.0101
776.00,0.0102
775.00,0.0102
774.00,0.0103
773.00,0.0104
772.00,0.0105
771.00,0.0105
770.00,0.0106
769.00,0.0107
768.00,0.0107
767.00,0.0107
766.00,0.0108
765.00,0.0109
764.00,0.0109
763.00,0.0110
762.00,0.0110
761.00,0.0111
760.00,0.0111
759.00,0.0111
758.00,0.0112
757.00,0.0113
756.00,0.0113
755.00,0.0113
754.00,0.0115
753.00,0.0116
752.00,0.0116
751.00,0.0116
750.00,0.0117
749.00,0.0118
748.00,0.0119
747.00,0.0119
746.00,0.0120
745.00,0.0120
744.00,0.0120
743.00,0.0121
742.00,0.0122
741.00,0.0123
740.00,0.0123
739.00,0.0123
738.00,0.0124
737.00,0.0125
736.00,0.0125
735.00,0.0125
734.00,0.0127
733.00,0.0128
732.00,0.0129
731.00,0.0130
730.00,0.0132
729.00,0.0133
728.00,0.0135
727.00,0.0136
726.00,0.0138
725.00,0.0140
724.00,0.0142
723.00,0.0144
722.00,0.0146
721.00,0.0149
720.00,0.0150
719.00,0.0151
718.00,0.0154
717.00,0.0156
716.00,0.0157
715.00,0.0158
714.00,0.0160
713.00,0.0161
712.00,0.0162
711.00,0.0163
710.00,0.0165
709.00,0.0167
708.00,0.0168
707.00,0.0170
706.00,0.0173
705.00,0.0175
704.00,0.0177
703.00,0.0178
702.00,0.0180
701.00,0.0181
700.00,0.0182
699.00,0.0183
698.00,0.0184
697.00,0.0185
696.00,0.0185
695.00,0.0185
694.00,0.0186
693.00,0.0186
692.00,0.0185
691.00,0.0185
690.00,0.0185
689.00,0.0185
688.00,0.0185
687.00,0.0185
686.00,0.0187
685.00,0.0188
684.00,0.0188
683.00,0.0187
682.00,0.0188
681.00,0.0188
680.00,0.0188
679.00,0.0188
678.00,0.0190
677.00,0.0190
676.00,0.0190
675.00,0.0190
674.00,0.0191
673.00,0.0192
672.00,0.0191
671.00,0.0192
670.00,0.0193
669.00,0.0193
668.00,0.0192
667.00,0.0191
666.00,0.0192
665.00,0.0194
664.00,0.0194
663.00,0.0194
662.00,0.0195
661.00,0.0195
660.00,0.0195
659.00,0.0196
658.00,0.0197
657.00,0.0198
656.00,0.0198
655.00,0.0198
654.00,0.0199
653.00,0.0200
652.00,0.0200
651.00,0.0200
650.00,0.0201
649.00,0.0202
648.00,0.0202
647.00,0.0202
646.00,0.0203
645.00,0.0203
644.00,0.0203
643.00,0.0204
642.00,0.0205
641.00,0.0206
640.00,0.0205
639.00,0.0205
638.00,0.0206
637.00,0.0207
636.00,0.0207
635.00,0.0207
634.00,0.0208
633.00,0.0209
632.00,0.0209
631.00,0.0209
630.00,0.0210
629.00,0.0211
628.00,0.0211
627.00,0.0211
626.00,0.0213
625.00,0.0214
624.00,0.0214
623.00,0.0215
622.00,0.0216
621.00,0.0218
620.00,0.0217
619.00,0.0217
618.00,0.0217
617.00,0.0217
616.00,0.0216
615.00,0.0216
614.00,0.0217
613.00,0.0218
612.00,0.0217
611.00,0.0217
610.00,0.0218
609.00,0.0219
608.00,0.0218
607.00,0.0217
606.00,0.0218
605.00,0.0219
604.00,0.0218
603.00,0.0218
602.00,0.0219
601.00,0.0220
600.00,0.0219
599.00,0.0219
598.00,0.0220
597.00,0.0221
596.00,0.0220
595.00,0.0220
594.00,0.0221
593.00,0.0222
592.00,0.0221
591.00,0.0221
590.00,0.0222
589.00,0.0223
588.00,0.0223
587.00,0.0223
586.00,0.0224
585.00,0.0225
584.00,0.0224
583.00,0.0223
582.00,0.0225
581.00,0.0226
580.00,0.0225
579.00,0.0225
578.00,0.0226
577.00,0.0228
576.00,0.0227
575.00,0.0227
574.00,0.0229
573.00,0.0230
572.00,0.0230
571.00,0.0231
570.00,0.0232
569.00,0.0234
568.00,0.0234
567.00,0.0234
566.00,0.0235
565.00,0.0236
564.00,0.0235
563.00,0.0234
562.00,0.0236
561.00,0.0238
560.00,0.0238
559.00,0.0238
558.00,0.0240
557.00,0.0241
556.00,0.0240
555.00,0.0241
554.00,0.0243
553.00,0.0245
552.00,0.0244
551.00,0.0244
550.00,0.0246
549.00,0.0248
548.00,0.0247
547.00,0.0246
546.00,0.0248
545.00,0.0250
544.00,0.0250
543.00,0.0249
542.00,0.0251
541.00,0.0253
540.00,0.0252
539.00,0.0253
538.00,0.0255
537.00,0.0257
536.00,0.0255
535.00,0.0255
534.00,0.0256
533.00,0.0257
532.00,0.0257
531.00,0.0257
530.00,0.0260
529.00,0.0262
528.00,0.0261
527.00,0.0261
526.00,0.0263
525.00,0.0265
524.00,0.0264
523.00,0.0264
522.00,0.0266
521.00,0.0267
520.00,0.0265
519.00,0.0263
518.00,0.0265
517.00,0.0267
516.00,0.0266
515.00,0.0266
514.00,0.0270
513.00,0.0272
512.00,0.0270
511.00,0.0269
510.00,0.0270
509.00,0.0272
508.00,0.0270
507.00,0.0270
506.00,0.0272
505.00,0.0274
504.00,0.0272
503.00,0.0271
502.00,0.0273
501.00,0.0275
500.00,0.0274
499.00,0.0274
498.00,0.0277
497.00,0.0279
496.00,0.0278
495.00,0.0279
494.00,0.0282
493.00,0.0284
492.00,0.0282
491.00,0.0280
490.00,0.0281
489.00,0.0283
488.00,0.0281
487.00,0.0281
486.00,0.0284
485.00,0.0287
484.00,0.0285
483.00,0.0284
482.00,0.0286
481.00,0.0289
480.00,0.0287
479.00,0.0285
478.00,0.0288
477.00,0.0291
476.00,0.0289
475.00,0.0287
474.00,0.0289
473.00,0.0290
472.00,0.0286
471.00,0.0285
470.00,0.0288
469.00,0.0290
468.00,0.0287
467.00,0.0285
466.00,0.0289
465.00,0.0292
464.00,0.0290
463.00,0.0288
462.00,0.0291
461.00,0.0295
460.00,0.0293
459.00,0.0291
458.00,0.0294
457.00,0.0296
456.00,0.0292
455.00,0.0290
454.00,0.0293
453.00,0.0294
452.00,0.0289
451.00,0.0287
450.00,0.0289
449.00,0.0291
448.00,0.0287
447.00,0.0284
446.00,0.0286
445.00,0.0287
444.00,0.0283
443.00,0.0280
442.00,0.0283
441.00,0.0283
440.00,0.0277
439.00,0.0273
438.00,0.0275
437.00,0.0276
436.00,0.0270
435.00,0.0264
434.00,0.0266
433.00,0.0270
432.00,0.0267
431.00,0.0266
430.00,0.0271
429.00,0.0273
428.00,0.0267
427.00,0.0260
426.00,0.0262
425.00,0.0264
424.00,0.0259
423.00,0.0256
422.00,0.0262
421.00,0.0267
420.00,0.0260
419.00,0.0255
418.00,0.0263
417.00,0.0267
416.00,0.0260
415.00,0.0258
414.00,0.0268
413.00,0.0276
412.00,0.0272
411.00,0.0268
410.00,0.0276
409.00,0.0281
408.00,0.0271
407.00,0.0263
406.00,0.0269
405.00,0.0274
404.00,0.0265
403.00,0.0257
402.00,0.0265
401.00,0.0272
400.00,0.0261
