Created as New Dataset,Sample 360 By YargerLab Date Wednesday, September 25 2024
cm-1,A
4000.00,0.0013
3999.00,0.0013
3998.00,0.0013
3997.00,0.0013
3996.00,0.0013
3995.00,0.0013
3994.00,0.0013
3993.00,0.0012
3992.00,0.0012
3991.00,0.0012
3990.00,0.0012
3989.00,0.0012
3988.00,0.0012
3987.00,0.0012
3986.00,0.0012
3985.00,0.0013
3984.00,0.0013
3983.00,0.0013
3982.00,0.0013
3981.00,0.0013
3980.00,0.0012
3979.00,0.0012
3978.00,0.0012
3977.00,0.0011
3976.00,0.0012
3975.00,0.0012
3974.00,0.0012
3973.00,0.0012
3972.00,0.0012
3971.00,0.0012
3970.00,0.0012
3969.00,0.0012
3968.00,0.0012
3967.00,0.0012
3966.00,0.0012
3965.00,0.0011
3964.00,0.0011
3963.00,0.0011
3962.00,0.0011
3961.00,0.0011
3960.00,0.0011
3959.00,0.0011
3958.00,0.0012
3957.00,0.0012
3956.00,0.0012
3955.00,0.0012
3954.00,0.0012
3953.00,0.0012
3952.00,0.0011
3951.00,0.0010
3950.00,0.0008
3949.00,0.0006
3948.00,0.0005
3947.00,0.0004
3946.00,0.0004
3945.00,0.0005
3944.00,0.0007
3943.00,0.0009
3942.00,0.0010
3941.00,0.0010
3940.00,0.0009
3939.00,0.0009
3938.00,0.0009
3937.00,0.0009
3936.00,0.0007
3935.00,0.0005
3934.00,0.0003
3933.00,0.0002
3932.00,0.0003
3931.00,0.0005
3930.00,0.0006
3929.00,0.0007
3928.00,0.0008
3927.00,0.0009
3926.00,0.0010
3925.00,0.0011
3924.00,0.0011
3923.00,0.0008
3922.00,0.0005
3921.00,0.0001
3920.00,-0.0001
3919.00,-0.0002
3918.00,-0.0002
3917.00,-0.0001
3916.00,0.0001
3915.00,0.0004
3914.00,0.0006
3913.00,0.0008
3912.00,0.0009
3911.00,0.0010
3910.00,0.0011
3909.00,0.0011
3908.00,0.0010
3907.00,0.0009
3906.00,0.0007
3905.00,0.0001
3904.00,-0.0006
3903.00,-0.0014
3902.00,-0.0019
3901.00,-0.0018
3900.00,-0.0014
3899.00,-0.0008
3898.00,-0.0004
3897.00,-0.0002
3896.00,-0.0002
3895.00,-0.0000
3894.00,0.0002
3893.00,0.0004
3892.00,0.0005
3891.00,0.0004
3890.00,0.0002
3889.00,-0.0002
3888.00,-0.0007
3887.00,-0.0010
3886.00,-0.0009
3885.00,-0.0006
3884.00,-0.0004
3883.00,-0.0005
3882.00,-0.0006
3881.00,-0.0005
3880.00,-0.0003
3879.00,-0.0003
3878.00,-0.0004
3877.00,-0.0006
3876.00,-0.0006
3875.00,-0.0003
3874.00,0.0000
3873.00,-0.0000
3872.00,-0.0006
3871.00,-0.0012
3870.00,-0.0014
3869.00,-0.0012
3868.00,-0.0011
3867.00,-0.0014
3866.00,-0.0015
3865.00,-0.0013
3864.00,-0.0009
3863.00,-0.0009
3862.00,-0.0011
3861.00,-0.0013
3860.00,-0.0012
3859.00,-0.0007
3858.00,-0.0000
3857.00,0.0007
3856.00,0.0010
3855.00,0.0009
3854.00,0.0005
3853.00,-0.0001
3852.00,-0.0007
3851.00,-0.0010
3850.00,-0.0012
3849.00,-0.0012
3848.00,-0.0011
3847.00,-0.0010
3846.00,-0.0008
3845.00,-0.0007
3844.00,-0.0007
3843.00,-0.0008
3842.00,-0.0009
3841.00,-0.0011
3840.00,-0.0012
3839.00,-0.0013
3838.00,-0.0012
3837.00,-0.0012
3836.00,-0.0011
3835.00,-0.0010
3834.00,-0.0010
3833.00,-0.0011
3832.00,-0.0010
3831.00,-0.0009
3830.00,-0.0008
3829.00,-0.0007
3828.00,-0.0006
3827.00,-0.0005
3826.00,-0.0004
3825.00,-0.0005
3824.00,-0.0009
3823.00,-0.0014
3822.00,-0.0015
3821.00,-0.0012
3820.00,-0.0010
3819.00,-0.0011
3818.00,-0.0015
3817.00,-0.0016
3816.00,-0.0013
3815.00,-0.0006
3814.00,-0.0002
3813.00,-0.0001
3812.00,-0.0000
3811.00,0.0001
3810.00,0.0002
3809.00,0.0001
3808.00,-0.0002
3807.00,-0.0004
3806.00,-0.0005
3805.00,-0.0008
3804.00,-0.0011
3803.00,-0.0014
3802.00,-0.0012
3801.00,-0.0008
3800.00,-0.0006
3799.00,-0.0008
3798.00,-0.0010
3797.00,-0.0009
3796.00,-0.0006
3795.00,-0.0002
3794.00,0.0001
3793.00,0.0003
3792.00,0.0005
3791.00,0.0008
3790.00,0.0010
3789.00,0.0010
3788.00,0.0010
3787.00,0.0010
3786.00,0.0010
3785.00,0.0009
3784.00,0.0008
3783.00,0.0006
3782.00,0.0004
3781.00,0.0002
3780.00,0.0003
3779.00,0.0004
3778.00,0.0005
3777.00,0.0005
3776.00,0.0004
3775.00,0.0004
3774.00,0.0005
3773.00,0.0005
3772.00,0.0002
3771.00,-0.0000
3770.00,-0.0002
3769.00,-0.0003
3768.00,-0.0005
3767.00,-0.0007
3766.00,-0.0007
3765.00,-0.0006
3764.00,-0.0004
3763.00,-0.0005
3762.00,-0.0007
3761.00,-0.0008
3760.00,-0.0007
3759.00,-0.0007
3758.00,-0.0009
3757.00,-0.0011
3756.00,-0.0013
3755.00,-0.0016
3754.00,-0.0020
3753.00,-0.0024
3752.00,-0.0027
3751.00,-0.0032
3750.00,-0.0038
3749.00,-0.0039
3748.00,-0.0037
3747.00,-0.0036
3746.00,-0.0037
3745.00,-0.0037
3744.00,-0.0033
3743.00,-0.0029
3742.00,-0.0029
3741.00,-0.0033
3740.00,-0.0038
3739.00,-0.0041
3738.00,-0.0044
3737.00,-0.0045
3736.00,-0.0042
3735.00,-0.0038
3734.00,-0.0036
3733.00,-0.0035
3732.00,-0.0032
3731.00,-0.0027
3730.00,-0.0022
3729.00,-0.0020
3728.00,-0.0020
3727.00,-0.0019
3726.00,-0.0017
3725.00,-0.0014
3724.00,-0.0014
3723.00,-0.0013
3722.00,-0.0011
3721.00,-0.0009
3720.00,-0.0007
3719.00,-0.0006
3718.00,-0.0005
3717.00,-0.0005
3716.00,-0.0006
3715.00,-0.0008
3714.00,-0.0011
3713.00,-0.0013
3712.00,-0.0012
3711.00,-0.0012
3710.00,-0.0013
3709.00,-0.0013
3708.00,-0.0012
3707.00,-0.0010
3706.00,-0.0007
3705.00,-0.0004
3704.00,-0.0001
3703.00,0.0001
3702.00,0.0004
3701.00,0.0005
3700.00,0.0005
3699.00,0.0004
3698.00,0.0003
3697.00,0.0003
3696.00,0.0004
3695.00,0.0003
3694.00,0.0002
3693.00,0.0000
3692.00,0.0001
3691.00,0.0001
3690.00,-0.0002
3689.00,-0.0007
3688.00,-0.0011
3687.00,-0.0010
3686.00,-0.0007
3685.00,-0.0005
3684.00,-0.0004
3683.00,-0.0003
3682.00,-0.0002
3681.00,-0.0001
3680.00,-0.0000
3679.00,-0.0001
3678.00,-0.0005
3677.00,-0.0010
3676.00,-0.0013
3675.00,-0.0012
3674.00,-0.0012
3673.00,-0.0014
3672.00,-0.0017
3671.00,-0.0016
3670.00,-0.0009
3669.00,-0.0003
3668.00,0.0000
3667.00,0.0002
3666.00,0.0004
3665.00,0.0007
3664.00,0.0011
3663.00,0.0014
3662.00,0.0015
3661.00,0.0016
3660.00,0.0016
3659.00,0.0014
3658.00,0.0011
3657.00,0.0008
3656.00,0.0007
3655.00,0.0005
3654.00,0.0001
3653.00,-0.0005
3652.00,-0.0011
3651.00,-0.0015
3650.00,-0.0017
3649.00,-0.0020
3648.00,-0.0021
3647.00,-0.0019
3646.00,-0.0013
3645.00,-0.0008
3644.00,-0.0003
3643.00,0.0001
3642.00,0.0006
3641.00,0.0010
3640.00,0.0012
3639.00,0.0013
3638.00,0.0013
3637.00,0.0012
3636.00,0.0010
3635.00,0.0007
3634.00,0.0005
3633.00,0.0003
3632.00,-0.0001
3631.00,-0.0007
3630.00,-0.0012
3629.00,-0.0013
3628.00,-0.0013
3627.00,-0.0012
3626.00,-0.0012
3625.00,-0.0011
3624.00,-0.0009
3623.00,-0.0006
3622.00,-0.0004
3621.00,-0.0001
3620.00,0.0000
3619.00,-0.0000
3618.00,-0.0003
3617.00,-0.0008
3616.00,-0.0012
3615.00,-0.0014
3614.00,-0.0014
3613.00,-0.0014
3612.00,-0.0015
3611.00,-0.0017
3610.00,-0.0019
3609.00,-0.0016
3608.00,-0.0011
3607.00,-0.0006
3606.00,-0.0002
3605.00,-0.0000
3604.00,0.0002
3603.00,0.0004
3602.00,0.0006
3601.00,0.0007
3600.00,0.0007
3599.00,0.0006
3598.00,0.0004
3597.00,0.0004
3596.00,0.0004
3595.00,0.0005
3594.00,0.0005
3593.00,0.0004
3592.00,0.0002
3591.00,-0.0001
3590.00,-0.0004
3589.00,-0.0004
3588.00,-0.0001
3587.00,0.0001
3586.00,0.0002
3585.00,0.0003
3584.00,0.0005
3583.00,0.0008
3582.00,0.0011
3581.00,0.0015
3580.00,0.0017
3579.00,0.0019
3578.00,0.0020
3577.00,0.0021
3576.00,0.0021
3575.00,0.0021
3574.00,0.0020
3573.00,0.0019
3572.00,0.0017
3571.00,0.0014
3570.00,0.0009
3569.00,0.0005
3568.00,0.0004
3567.00,0.0005
3566.00,0.0007
3565.00,0.0008
3564.00,0.0009
3563.00,0.0011
3562.00,0.0014
3561.00,0.0018
3560.00,0.0021
3559.00,0.0023
3558.00,0.0024
3557.00,0.0025
3556.00,0.0025
3555.00,0.0025
3554.00,0.0026
3553.00,0.0026
3552.00,0.0026
3551.00,0.0024
3550.00,0.0022
3549.00,0.0019
3548.00,0.0017
3547.00,0.0017
3546.00,0.0018
3545.00,0.0020
3544.00,0.0022
3543.00,0.0024
3542.00,0.0026
3541.00,0.0028
3540.00,0.0030
3539.00,0.0031
3538.00,0.0033
3537.00,0.0034
3536.00,0.0034
3535.00,0.0034
3534.00,0.0034
3533.00,0.0034
3532.00,0.0034
3531.00,0.0034
3530.00,0.0034
3529.00,0.0033
3528.00,0.0032
3527.00,0.0030
3526.00,0.0028
3525.00,0.0028
3524.00,0.0029
3523.00,0.0032
3522.00,0.0034
3521.00,0.0036
3520.00,0.0037
3519.00,0.0038
3518.00,0.0040
3517.00,0.0041
3516.00,0.0041
3515.00,0.0041
3514.00,0.0041
3513.00,0.0042
3512.00,0.0042
3511.00,0.0042
3510.00,0.0042
3509.00,0.0042
3508.00,0.0042
3507.00,0.0041
3506.00,0.0040
3505.00,0.0040
3504.00,0.0041
3503.00,0.0041
3502.00,0.0041
3501.00,0.0042
3500.00,0.0042
3499.00,0.0043
3498.00,0.0044
3497.00,0.0046
3496.00,0.0047
3495.00,0.0048
3494.00,0.0048
3493.00,0.0049
3492.00,0.0049
3491.00,0.0050
3490.00,0.0050
3489.00,0.0051
3488.00,0.0051
3487.00,0.0051
3486.00,0.0051
3485.00,0.0052
3484.00,0.0052
3483.00,0.0053
3482.00,0.0053
3481.00,0.0054
3480.00,0.0054
3479.00,0.0054
3478.00,0.0055
3477.00,0.0056
3476.00,0.0058
3475.00,0.0059
3474.00,0.0059
3473.00,0.0059
3472.00,0.0059
3471.00,0.0060
3470.00,0.0060
3469.00,0.0060
3468.00,0.0060
3467.00,0.0061
3466.00,0.0061
3465.00,0.0062
3464.00,0.0063
3463.00,0.0064
3462.00,0.0064
3461.00,0.0065
3460.00,0.0065
3459.00,0.0066
3458.00,0.0067
3457.00,0.0068
3456.00,0.0069
3455.00,0.0069
3454.00,0.0070
3453.00,0.0070
3452.00,0.0070
3451.00,0.0070
3450.00,0.0070
3449.00,0.0070
3448.00,0.0071
3447.00,0.0071
3446.00,0.0071
3445.00,0.0071
3444.00,0.0071
3443.00,0.0072
3442.00,0.0073
3441.00,0.0074
3440.00,0.0074
3439.00,0.0074
3438.00,0.0075
3437.00,0.0075
3436.00,0.0076
3435.00,0.0077
3434.00,0.0077
3433.00,0.0078
3432.00,0.0078
3431.00,0.0079
3430.00,0.0080
3429.00,0.0080
3428.00,0.0081
3427.00,0.0082
3426.00,0.0082
3425.00,0.0083
3424.00,0.0083
3423.00,0.0083
3422.00,0.0084
3421.00,0.0084
3420.00,0.0085
3419.00,0.0085
3418.00,0.0085
3417.00,0.0086
3416.00,0.0087
3415.00,0.0087
3414.00,0.0088
3413.00,0.0088
3412.00,0.0089
3411.00,0.0089
3410.00,0.0090
3409.00,0.0091
3408.00,0.0091
3407.00,0.0092
3406.00,0.0092
3405.00,0.0093
3404.00,0.0093
3403.00,0.0094
3402.00,0.0094
3401.00,0.0094
3400.00,0.0095
3399.00,0.0095
3398.00,0.0095
3397.00,0.0095
3396.00,0.0096
3395.00,0.0096
3394.00,0.0096
3393.00,0.0097
3392.00,0.0098
3391.00,0.0099
3390.00,0.0099
3389.00,0.0100
3388.00,0.0101
3387.00,0.0102
3386.00,0.0103
3385.00,0.0104
3384.00,0.0104
3383.00,0.0104
3382.00,0.0105
3381.00,0.0105
3380.00,0.0106
3379.00,0.0106
3378.00,0.0107
3377.00,0.0108
3376.00,0.0108
3375.00,0.0109
3374.00,0.0110
3373.00,0.0110
3372.00,0.0110
3371.00,0.0111
3370.00,0.0111
3369.00,0.0112
3368.00,0.0113
3367.00,0.0113
3366.00,0.0114
3365.00,0.0115
3364.00,0.0116
3363.00,0.0117
3362.00,0.0118
3361.00,0.0119
3360.00,0.0120
3359.00,0.0121
3358.00,0.0122
3357.00,0.0124
3356.00,0.0125
3355.00,0.0125
3354.00,0.0126
3353.00,0.0126
3352.00,0.0127
3351.00,0.0128
3350.00,0.0129
3349.00,0.0131
3348.00,0.0132
3347.00,0.0133
3346.00,0.0134
3345.00,0.0135
3344.00,0.0135
3343.00,0.0136
3342.00,0.0137
3341.00,0.0138
3340.00,0.0138
3339.00,0.0139
3338.00,0.0140
3337.00,0.0142
3336.00,0.0143
3335.00,0.0145
3334.00,0.0146
3333.00,0.0147
3332.00,0.0149
3331.00,0.0150
3330.00,0.0151
3329.00,0.0152
3328.00,0.0152
3327.00,0.0153
3326.00,0.0154
3325.00,0.0155
3324.00,0.0156
3323.00,0.0158
3322.00,0.0159
3321.00,0.0161
3320.00,0.0162
3319.00,0.0163
3318.00,0.0165
3317.00,0.0166
3316.00,0.0167
3315.00,0.0168
3314.00,0.0169
3313.00,0.0170
3312.00,0.0170
3311.00,0.0171
3310.00,0.0172
3309.00,0.0173
3308.00,0.0174
3307.00,0.0176
3306.00,0.0177
3305.00,0.0179
3304.00,0.0181
3303.00,0.0183
3302.00,0.0185
3301.00,0.0186
3300.00,0.0188
3299.00,0.0189
3298.00,0.0190
3297.00,0.0190
3296.00,0.0191
3295.00,0.0192
3294.00,0.0193
3293.00,0.0194
3292.00,0.0196
3291.00,0.0198
3290.00,0.0200
3289.00,0.0201
3288.00,0.0203
3287.00,0.0205
3286.00,0.0206
3285.00,0.0207
3284.00,0.0208
3283.00,0.0209
3282.00,0.0209
3281.00,0.0209
3280.00,0.0210
3279.00,0.0210
3278.00,0.0209
3277.00,0.0209
3276.00,0.0209
3275.00,0.0208
3274.00,0.0208
3273.00,0.0208
3272.00,0.0208
3271.00,0.0208
3270.00,0.0208
3269.00,0.0208
3268.00,0.0209
3267.00,0.0209
3266.00,0.0208
3265.00,0.0208
3264.00,0.0207
3263.00,0.0206
3262.00,0.0205
3261.00,0.0204
3260.00,0.0202
3259.00,0.0201
3258.00,0.0199
3257.00,0.0197
3256.00,0.0196
3255.00,0.0195
3254.00,0.0194
3253.00,0.0193
3252.00,0.0192
3251.00,0.0191
3250.00,0.0189
3249.00,0.0188
3248.00,0.0186
3247.00,0.0184
3246.00,0.0183
3245.00,0.0183
3244.00,0.0182
3243.00,0.0182
3242.00,0.0181
3241.00,0.0180
3240.00,0.0179
3239.00,0.0178
3238.00,0.0177
3237.00,0.0175
3236.00,0.0174
3235.00,0.0172
3234.00,0.0171
3233.00,0.0170
3232.00,0.0170
3231.00,0.0170
3230.00,0.0170
3229.00,0.0170
3228.00,0.0170
3227.00,0.0169
3226.00,0.0168
3225.00,0.0168
3224.00,0.0167
3223.00,0.0166
3222.00,0.0165
3221.00,0.0164
3220.00,0.0163
3219.00,0.0162
3218.00,0.0162
3217.00,0.0161
3216.00,0.0160
3215.00,0.0160
3214.00,0.0160
3213.00,0.0159
3212.00,0.0159
3211.00,0.0159
3210.00,0.0158
3209.00,0.0157
3208.00,0.0157
3207.00,0.0156
3206.00,0.0156
3205.00,0.0156
3204.00,0.0155
3203.00,0.0155
3202.00,0.0154
3201.00,0.0154
3200.00,0.0153
3199.00,0.0152
3198.00,0.0151
3197.00,0.0151
3196.00,0.0150
3195.00,0.0150
3194.00,0.0149
3193.00,0.0149
3192.00,0.0148
3191.00,0.0147
3190.00,0.0147
3189.00,0.0146
3188.00,0.0145
3187.00,0.0145
3186.00,0.0144
3185.00,0.0144
3184.00,0.0143
3183.00,0.0142
3182.00,0.0141
3181.00,0.0140
3180.00,0.0139
3179.00,0.0138
3178.00,0.0138
3177.00,0.0137
3176.00,0.0137
3175.00,0.0136
3174.00,0.0135
3173.00,0.0135
3172.00,0.0134
3171.00,0.0134
3170.00,0.0133
3169.00,0.0132
3168.00,0.0131
3167.00,0.0130
3166.00,0.0130
3165.00,0.0129
3164.00,0.0128
3163.00,0.0127
3162.00,0.0127
3161.00,0.0126
3160.00,0.0125
3159.00,0.0124
3158.00,0.0123
3157.00,0.0122
3156.00,0.0121
3155.00,0.0120
3154.00,0.0119
3153.00,0.0118
3152.00,0.0117
3151.00,0.0117
3150.00,0.0117
3149.00,0.0117
3148.00,0.0117
3147.00,0.0116
3146.00,0.0116
3145.00,0.0115
3144.00,0.0115
3143.00,0.0114
3142.00,0.0113
3141.00,0.0112
3140.00,0.0111
3139.00,0.0110
3138.00,0.0110
3137.00,0.0110
3136.00,0.0110
3135.00,0.0110
3134.00,0.0110
3133.00,0.0109
3132.00,0.0108
3131.00,0.0108
3130.00,0.0107
3129.00,0.0107
3128.00,0.0107
3127.00,0.0107
3126.00,0.0107
3125.00,0.0106
3124.00,0.0105
3123.00,0.0104
3122.00,0.0104
3121.00,0.0103
3120.00,0.0102
3119.00,0.0102
3118.00,0.0102
3117.00,0.0102
3116.00,0.0102
3115.00,0.0102
3114.00,0.0102
3113.00,0.0103
3112.00,0.0103
3111.00,0.0103
3110.00,0.0103
3109.00,0.0103
3108.00,0.0104
3107.00,0.0104
3106.00,0.0105
3105.00,0.0105
3104.00,0.0105
3103.00,0.0104
3102.00,0.0104
3101.00,0.0103
3100.00,0.0103
3099.00,0.0104
3098.00,0.0104
3097.00,0.0105
3096.00,0.0106
3095.00,0.0106
3094.00,0.0106
3093.00,0.0106
3092.00,0.0106
3091.00,0.0106
3090.00,0.0106
3089.00,0.0106
3088.00,0.0106
3087.00,0.0107
3086.00,0.0107
3085.00,0.0107
3084.00,0.0107
3083.00,0.0106
3082.00,0.0106
3081.00,0.0106
3080.00,0.0106
3079.00,0.0107
3078.00,0.0107
3077.00,0.0108
3076.00,0.0109
3075.00,0.0110
3074.00,0.0110
3073.00,0.0110
3072.00,0.0110
3071.00,0.0110
3070.00,0.0110
3069.00,0.0109
3068.00,0.0108
3067.00,0.0108
3066.00,0.0108
3065.00,0.0108
3064.00,0.0109
3063.00,0.0109
3062.00,0.0110
3061.00,0.0110
3060.00,0.0110
3059.00,0.0109
3058.00,0.0108
3057.00,0.0107
3056.00,0.0107
3055.00,0.0107
3054.00,0.0106
3053.00,0.0106
3052.00,0.0105
3051.00,0.0105
3050.00,0.0105
3049.00,0.0105
3048.00,0.0104
3047.00,0.0103
3046.00,0.0103
3045.00,0.0102
3044.00,0.0101
3043.00,0.0101
3042.00,0.0100
3041.00,0.0100
3040.00,0.0100
3039.00,0.0100
3038.00,0.0100
3037.00,0.0099
3036.00,0.0098
3035.00,0.0097
3034.00,0.0096
3033.00,0.0096
3032.00,0.0096
3031.00,0.0096
3030.00,0.0096
3029.00,0.0096
3028.00,0.0096
3027.00,0.0096
3026.00,0.0096
3025.00,0.0095
3024.00,0.0095
3023.00,0.0095
3022.00,0.0094
3021.00,0.0094
3020.00,0.0094
3019.00,0.0093
3018.00,0.0093
3017.00,0.0093
3016.00,0.0093
3015.00,0.0094
3014.00,0.0094
3013.00,0.0095
3012.00,0.0097
3011.00,0.0099
3010.00,0.0101
3009.00,0.0104
3008.00,0.0106
3007.00,0.0109
3006.00,0.0112
3005.00,0.0115
3004.00,0.0117
3003.00,0.0120
3002.00,0.0123
3001.00,0.0125
3000.00,0.0128
2999.00,0.0130
2998.00,0.0132
2997.00,0.0135
2996.00,0.0137
2995.00,0.0138
2994.00,0.0140
2993.00,0.0142
2992.00,0.0144
2991.00,0.0146
2990.00,0.0148
2989.00,0.0151
2988.00,0.0153
2987.00,0.0157
2986.00,0.0162
2985.00,0.0168
2984.00,0.0177
2983.00,0.0186
2982.00,0.0193
2981.00,0.0195
2980.00,0.0194
2979.00,0.0191
2978.00,0.0187
2977.00,0.0183
2976.00,0.0181
2975.00,0.0180
2974.00,0.0181
2973.00,0.0183
2972.00,0.0184
2971.00,0.0184
2970.00,0.0182
2969.00,0.0179
2968.00,0.0175
2967.00,0.0171
2966.00,0.0168
2965.00,0.0165
2964.00,0.0162
2963.00,0.0159
2962.00,0.0157
2961.00,0.0154
2960.00,0.0152
2959.00,0.0150
2958.00,0.0147
2957.00,0.0145
2956.00,0.0143
2955.00,0.0141
2954.00,0.0140
2953.00,0.0138
2952.00,0.0137
2951.00,0.0137
2950.00,0.0136
2949.00,0.0136
2948.00,0.0135
2947.00,0.0133
2946.00,0.0132
2945.00,0.0131
2944.00,0.0130
2943.00,0.0130
2942.00,0.0130
2941.00,0.0130
2940.00,0.0130
2939.00,0.0129
2938.00,0.0128
2937.00,0.0127
2936.00,0.0126
2935.00,0.0124
2934.00,0.0123
2933.00,0.0120
2932.00,0.0118
2931.00,0.0114
2930.00,0.0110
2929.00,0.0106
2928.00,0.0101
2927.00,0.0096
2926.00,0.0089
2925.00,0.0081
2924.00,0.0073
2923.00,0.0063
2922.00,0.0052
2921.00,0.0040
2920.00,0.0027
2919.00,0.0015
2918.00,0.0005
2917.00,-0.0000
2916.00,0.0000
2915.00,0.0007
2914.00,0.0019
2913.00,0.0033
2912.00,0.0047
2911.00,0.0060
2910.00,0.0070
2909.00,0.0078
2908.00,0.0084
2907.00,0.0088
2906.00,0.0091
2905.00,0.0093
2904.00,0.0095
2903.00,0.0096
2902.00,0.0097
2901.00,0.0098
2900.00,0.0099
2899.00,0.0100
2898.00,0.0100
2897.00,0.0100
2896.00,0.0101
2895.00,0.0102
2894.00,0.0104
2893.00,0.0105
2892.00,0.0107
2891.00,0.0108
2890.00,0.0109
2889.00,0.0110
2888.00,0.0111
2887.00,0.0112
2886.00,0.0113
2885.00,0.0113
2884.00,0.0114
2883.00,0.0114
2882.00,0.0114
2881.00,0.0113
2880.00,0.0112
2879.00,0.0111
2878.00,0.0110
2877.00,0.0109
2876.00,0.0109
2875.00,0.0108
2874.00,0.0107
2873.00,0.0107
2872.00,0.0106
2871.00,0.0106
2870.00,0.0106
2869.00,0.0105
2868.00,0.0104
2867.00,0.0102
2866.00,0.0100
2865.00,0.0098
2864.00,0.0096
2863.00,0.0094
2862.00,0.0091
2861.00,0.0088
2860.00,0.0085
2859.00,0.0082
2858.00,0.0079
2857.00,0.0075
2856.00,0.0070
2855.00,0.0064
2854.00,0.0055
2853.00,0.0044
2852.00,0.0030
2851.00,0.0017
2850.00,0.0006
2849.00,0.0001
2848.00,0.0004
2847.00,0.0014
2846.00,0.0027
2845.00,0.0040
2844.00,0.0050
2843.00,0.0058
2842.00,0.0063
2841.00,0.0067
2840.00,0.0069
2839.00,0.0070
2838.00,0.0072
2837.00,0.0073
2836.00,0.0074
2835.00,0.0074
2834.00,0.0075
2833.00,0.0075
2832.00,0.0076
2831.00,0.0076
2830.00,0.0076
2829.00,0.0076
2828.00,0.0076
2827.00,0.0076
2826.00,0.0076
2825.00,0.0076
2824.00,0.0076
2823.00,0.0076
2822.00,0.0076
2821.00,0.0076
2820.00,0.0076
2819.00,0.0075
2818.00,0.0075
2817.00,0.0075
2816.00,0.0075
2815.00,0.0075
2814.00,0.0074
2813.00,0.0074
2812.00,0.0074
2811.00,0.0073
2810.00,0.0073
2809.00,0.0073
2808.00,0.0073
2807.00,0.0073
2806.00,0.0073
2805.00,0.0073
2804.00,0.0073
2803.00,0.0073
2802.00,0.0072
2801.00,0.0072
2800.00,0.0072
2799.00,0.0071
2798.00,0.0071
2797.00,0.0071
2796.00,0.0071
2795.00,0.0071
2794.00,0.0071
2793.00,0.0071
2792.00,0.0070
2791.00,0.0070
2790.00,0.0070
2789.00,0.0070
2788.00,0.0070
2787.00,0.0070
2786.00,0.0070
2785.00,0.0070
2784.00,0.0070
2783.00,0.0070
2782.00,0.0070
2781.00,0.0070
2780.00,0.0070
2779.00,0.0069
2778.00,0.0069
2777.00,0.0068
2776.00,0.0068
2775.00,0.0068
2774.00,0.0068
2773.00,0.0068
2772.00,0.0068
2771.00,0.0068
2770.00,0.0068
2769.00,0.0068
2768.00,0.0068
2767.00,0.0068
2766.00,0.0067
2765.00,0.0067
2764.00,0.0067
2763.00,0.0067
2762.00,0.0067
2761.00,0.0067
2760.00,0.0067
2759.00,0.0066
2758.00,0.0066
2757.00,0.0066
2756.00,0.0066
2755.00,0.0066
2754.00,0.0066
2753.00,0.0065
2752.00,0.0065
2751.00,0.0065
2750.00,0.0064
2749.00,0.0064
2748.00,0.0064
2747.00,0.0064
2746.00,0.0064
2745.00,0.0064
2744.00,0.0064
2743.00,0.0064
2742.00,0.0064
2741.00,0.0064
2740.00,0.0064
2739.00,0.0064
2738.00,0.0063
2737.00,0.0063
2736.00,0.0063
2735.00,0.0063
2734.00,0.0063
2733.00,0.0063
2732.00,0.0063
2731.00,0.0063
2730.00,0.0063
2729.00,0.0062
2728.00,0.0062
2727.00,0.0061
2726.00,0.0061
2725.00,0.0061
2724.00,0.0061
2723.00,0.0061
2722.00,0.0061
2721.00,0.0061
2720.00,0.0061
2719.00,0.0061
2718.00,0.0061
2717.00,0.0061
2716.00,0.0060
2715.00,0.0060
2714.00,0.0060
2713.00,0.0060
2712.00,0.0060
2711.00,0.0060
2710.00,0.0059
2709.00,0.0059
2708.00,0.0059
2707.00,0.0059
2706.00,0.0059
2705.00,0.0059
2704.00,0.0059
2703.00,0.0059
2702.00,0.0059
2701.00,0.0058
2700.00,0.0058
2699.00,0.0058
2698.00,0.0058
2697.00,0.0058
2696.00,0.0058
2695.00,0.0058
2694.00,0.0058
2693.00,0.0058
2692.00,0.0058
2691.00,0.0058
2690.00,0.0058
2689.00,0.0058
2688.00,0.0058
2687.00,0.0058
2686.00,0.0058
2685.00,0.0058
2684.00,0.0057
2683.00,0.0057
2682.00,0.0057
2681.00,0.0056
2680.00,0.0056
2679.00,0.0056
2678.00,0.0057
2677.00,0.0057
2676.00,0.0057
2675.00,0.0057
2674.00,0.0056
2673.00,0.0056
2672.00,0.0057
2671.00,0.0057
2670.00,0.0057
2669.00,0.0057
2668.00,0.0057
2667.00,0.0057
2666.00,0.0057
2665.00,0.0057
2664.00,0.0057
2663.00,0.0056
2662.00,0.0056
2661.00,0.0056
2660.00,0.0056
2659.00,0.0056
2658.00,0.0056
2657.00,0.0056
2656.00,0.0055
2655.00,0.0055
2654.00,0.0055
2653.00,0.0055
2652.00,0.0056
2651.00,0.0056
2650.00,0.0056
2649.00,0.0056
2648.00,0.0056
2647.00,0.0056
2646.00,0.0056
2645.00,0.0056
2644.00,0.0056
2643.00,0.0056
2642.00,0.0056
2641.00,0.0056
2640.00,0.0056
2639.00,0.0055
2638.00,0.0055
2637.00,0.0055
2636.00,0.0055
2635.00,0.0055
2634.00,0.0055
2633.00,0.0055
2632.00,0.0055
2631.00,0.0055
2630.00,0.0056
2629.00,0.0056
2628.00,0.0056
2627.00,0.0055
2626.00,0.0055
2625.00,0.0055
2624.00,0.0055
2623.00,0.0055
2622.00,0.0055
2621.00,0.0055
2620.00,0.0056
2619.00,0.0056
2618.00,0.0056
2617.00,0.0056
2616.00,0.0056
2615.00,0.0056
2614.00,0.0055
2613.00,0.0055
2612.00,0.0055
2611.00,0.0055
2610.00,0.0055
2609.00,0.0055
2608.00,0.0055
2607.00,0.0055
2606.00,0.0055
2605.00,0.0055
2604.00,0.0055
2603.00,0.0055
2602.00,0.0055
2601.00,0.0055
2600.00,0.0055
2599.00,0.0055
2598.00,0.0055
2597.00,0.0055
2596.00,0.0055
2595.00,0.0055
2594.00,0.0055
2593.00,0.0055
2592.00,0.0054
2591.00,0.0054
2590.00,0.0054
2589.00,0.0054
2588.00,0.0054
2587.00,0.0054
2586.00,0.0054
2585.00,0.0054
2584.00,0.0054
2583.00,0.0054
2582.00,0.0054
2581.00,0.0054
2580.00,0.0054
2579.00,0.0054
2578.00,0.0054
2577.00,0.0054
2576.00,0.0054
2575.00,0.0054
2574.00,0.0054
2573.00,0.0053
2572.00,0.0053
2571.00,0.0054
2570.00,0.0053
2569.00,0.0054
2568.00,0.0054
2567.00,0.0054
2566.00,0.0053
2565.00,0.0053
2564.00,0.0053
2563.00,0.0053
2562.00,0.0053
2561.00,0.0053
2560.00,0.0053
2559.00,0.0053
2558.00,0.0053
2557.00,0.0053
2556.00,0.0053
2555.00,0.0053
2554.00,0.0053
2553.00,0.0053
2552.00,0.0053
2551.00,0.0053
2550.00,0.0053
2549.00,0.0053
2548.00,0.0053
2547.00,0.0053
2546.00,0.0053
2545.00,0.0053
2544.00,0.0053
2543.00,0.0053
2542.00,0.0053
2541.00,0.0053
2540.00,0.0053
2539.00,0.0053
2538.00,0.0053
2537.00,0.0053
2536.00,0.0053
2535.00,0.0053
2534.00,0.0053
2533.00,0.0053
2532.00,0.0053
2531.00,0.0053
2530.00,0.0053
2529.00,0.0053
2528.00,0.0052
2527.00,0.0052
2526.00,0.0052
2525.00,0.0052
2524.00,0.0052
2523.00,0.0052
2522.00,0.0052
2521.00,0.0052
2520.00,0.0052
2519.00,0.0052
2518.00,0.0052
2517.00,0.0052
2516.00,0.0052
2515.00,0.0052
2514.00,0.0052
2513.00,0.0052
2512.00,0.0052
2511.00,0.0052
2510.00,0.0052
2509.00,0.0052
2508.00,0.0052
2507.00,0.0052
2506.00,0.0052
2505.00,0.0052
2504.00,0.0052
2503.00,0.0052
2502.00,0.0052
2501.00,0.0052
2500.00,0.0052
2499.00,0.0052
2498.00,0.0052
2497.00,0.0052
2496.00,0.0051
2495.00,0.0051
2494.00,0.0051
2493.00,0.0051
2492.00,0.0051
2491.00,0.0051
2490.00,0.0051
2489.00,0.0051
2488.00,0.0051
2487.00,0.0051
2486.00,0.0051
2485.00,0.0051
2484.00,0.0051
2483.00,0.0051
2482.00,0.0051
2481.00,0.0051
2480.00,0.0051
2479.00,0.0051
2478.00,0.0051
2477.00,0.0051
2476.00,0.0051
2475.00,0.0051
2474.00,0.0051
2473.00,0.0051
2472.00,0.0051
2471.00,0.0050
2470.00,0.0050
2469.00,0.0050
2468.00,0.0050
2467.00,0.0050
2466.00,0.0050
2465.00,0.0050
2464.00,0.0050
2463.00,0.0050
2462.00,0.0050
2461.00,0.0050
2460.00,0.0050
2459.00,0.0049
2458.00,0.0049
2457.00,0.0049
2456.00,0.0049
2455.00,0.0049
2454.00,0.0049
2453.00,0.0049
2452.00,0.0049
2451.00,0.0049
2450.00,0.0049
2449.00,0.0049
2448.00,0.0049
2447.00,0.0049
2446.00,0.0049
2445.00,0.0049
2444.00,0.0049
2443.00,0.0049
2442.00,0.0049
2441.00,0.0049
2440.00,0.0049
2439.00,0.0049
2438.00,0.0048
2437.00,0.0048
2436.00,0.0049
2435.00,0.0049
2434.00,0.0049
2433.00,0.0048
2432.00,0.0048
2431.00,0.0048
2430.00,0.0048
2429.00,0.0048
2428.00,0.0048
2427.00,0.0048
2426.00,0.0048
2425.00,0.0048
2424.00,0.0048
2423.00,0.0048
2422.00,0.0048
2421.00,0.0048
2420.00,0.0048
2419.00,0.0048
2418.00,0.0048
2417.00,0.0047
2416.00,0.0047
2415.00,0.0047
2414.00,0.0047
2413.00,0.0047
2412.00,0.0047
2411.00,0.0047
2410.00,0.0047
2409.00,0.0047
2408.00,0.0047
2407.00,0.0047
2406.00,0.0047
2405.00,0.0047
2404.00,0.0047
2403.00,0.0047
2402.00,0.0047
2401.00,0.0047
2400.00,0.0047
2399.00,0.0047
2398.00,0.0046
2397.00,0.0046
2396.00,0.0046
2395.00,0.0046
2394.00,0.0046
2393.00,0.0046
2392.00,0.0046
2391.00,0.0046
2390.00,0.0046
2389.00,0.0046
2388.00,0.0046
2387.00,0.0046
2386.00,0.0046
2385.00,0.0045
2384.00,0.0045
2383.00,0.0045
2382.00,0.0045
2381.00,0.0045
2380.00,0.0045
2379.00,0.0045
2378.00,0.0045
2377.00,0.0045
2376.00,0.0045
2375.00,0.0045
2374.00,0.0045
2373.00,0.0045
2372.00,0.0045
2371.00,0.0045
2370.00,0.0045
2369.00,0.0045
2368.00,0.0045
2367.00,0.0045
2366.00,0.0044
2365.00,0.0044
2364.00,0.0044
2363.00,0.0044
2362.00,0.0044
2361.00,0.0044
2360.00,0.0044
2359.00,0.0044
2358.00,0.0044
2357.00,0.0044
2356.00,0.0044
2355.00,0.0044
2354.00,0.0044
2353.00,0.0044
2352.00,0.0044
2351.00,0.0044
2350.00,0.0044
2349.00,0.0043
2348.00,0.0043
2347.00,0.0043
2346.00,0.0043
2345.00,0.0043
2344.00,0.0043
2343.00,0.0043
2342.00,0.0043
2341.00,0.0043
2340.00,0.0043
2339.00,0.0043
2338.00,0.0043
2337.00,0.0043
2336.00,0.0043
2335.00,0.0043
2334.00,0.0043
2333.00,0.0043
2332.00,0.0043
2331.00,0.0043
2330.00,0.0043
2329.00,0.0043
2328.00,0.0042
2327.00,0.0042
2326.00,0.0041
2325.00,0.0041
2324.00,0.0041
2323.00,0.0040
2322.00,0.0041
2321.00,0.0041
2320.00,0.0041
2319.00,0.0042
2318.00,0.0042
2317.00,0.0042
2316.00,0.0043
2315.00,0.0043
2314.00,0.0042
2313.00,0.0042
2312.00,0.0042
2311.00,0.0042
2310.00,0.0042
2309.00,0.0042
2308.00,0.0042
2307.00,0.0042
2306.00,0.0042
2305.00,0.0042
2304.00,0.0042
2303.00,0.0043
2302.00,0.0043
2301.00,0.0043
2300.00,0.0043
2299.00,0.0043
2298.00,0.0043
2297.00,0.0042
2296.00,0.0042
2295.00,0.0042
2294.00,0.0042
2293.00,0.0042
2292.00,0.0042
2291.00,0.0042
2290.00,0.0042
2289.00,0.0042
2288.00,0.0042
2287.00,0.0042
2286.00,0.0042
2285.00,0.0042
2284.00,0.0042
2283.00,0.0042
2282.00,0.0042
2281.00,0.0041
2280.00,0.0042
2279.00,0.0042
2278.00,0.0042
2277.00,0.0042
2276.00,0.0042
2275.00,0.0042
2274.00,0.0042
2273.00,0.0042
2272.00,0.0042
2271.00,0.0042
2270.00,0.0042
2269.00,0.0042
2268.00,0.0042
2267.00,0.0042
2266.00,0.0042
2265.00,0.0042
2264.00,0.0042
2263.00,0.0042
2262.00,0.0042
2261.00,0.0041
2260.00,0.0041
2259.00,0.0041
2258.00,0.0041
2257.00,0.0041
2256.00,0.0042
2255.00,0.0042
2254.00,0.0042
2253.00,0.0042
2252.00,0.0043
2251.00,0.0043
2250.00,0.0042
2249.00,0.0043
2248.00,0.0043
2247.00,0.0043
2246.00,0.0042
2245.00,0.0042
2244.00,0.0042
2243.00,0.0042
2242.00,0.0042
2241.00,0.0043
2240.00,0.0043
2239.00,0.0043
2238.00,0.0042
2237.00,0.0042
2236.00,0.0042
2235.00,0.0042
2234.00,0.0042
2233.00,0.0042
2232.00,0.0042
2231.00,0.0041
2230.00,0.0041
2229.00,0.0041
2228.00,0.0042
2227.00,0.0042
2226.00,0.0042
2225.00,0.0042
2224.00,0.0042
2223.00,0.0042
2222.00,0.0042
2221.00,0.0041
2220.00,0.0042
2219.00,0.0041
2218.00,0.0041
2217.00,0.0041
2216.00,0.0042
2215.00,0.0042
2214.00,0.0042
2213.00,0.0042
2212.00,0.0042
2211.00,0.0042
2210.00,0.0041
2209.00,0.0041
2208.00,0.0042
2207.00,0.0042
2206.00,0.0041
2205.00,0.0041
2204.00,0.0041
2203.00,0.0041
2202.00,0.0041
2201.00,0.0041
2200.00,0.0042
2199.00,0.0042
2198.00,0.0042
2197.00,0.0042
2196.00,0.0043
2195.00,0.0043
2194.00,0.0043
2193.00,0.0043
2192.00,0.0042
2191.00,0.0042
2190.00,0.0041
2189.00,0.0041
2188.00,0.0042
2187.00,0.0041
2186.00,0.0041
2185.00,0.0041
2184.00,0.0041
2183.00,0.0041
2182.00,0.0041
2181.00,0.0041
2180.00,0.0041
2179.00,0.0040
2178.00,0.0040
2177.00,0.0040
2176.00,0.0041
2175.00,0.0041
2174.00,0.0041
2173.00,0.0042
2172.00,0.0042
2171.00,0.0042
2170.00,0.0041
2169.00,0.0040
2168.00,0.0040
2167.00,0.0040
2166.00,0.0040
2165.00,0.0040
2164.00,0.0040
2163.00,0.0039
2162.00,0.0038
2161.00,0.0038
2160.00,0.0039
2159.00,0.0040
2158.00,0.0040
2157.00,0.0041
2156.00,0.0041
2155.00,0.0041
2154.00,0.0041
2153.00,0.0042
2152.00,0.0042
2151.00,0.0041
2150.00,0.0040
2149.00,0.0040
2148.00,0.0041
2147.00,0.0042
2146.00,0.0042
2145.00,0.0042
2144.00,0.0043
2143.00,0.0042
2142.00,0.0042
2141.00,0.0041
2140.00,0.0041
2139.00,0.0041
2138.00,0.0041
2137.00,0.0041
2136.00,0.0042
2135.00,0.0043
2134.00,0.0043
2133.00,0.0043
2132.00,0.0043
2131.00,0.0042
2130.00,0.0042
2129.00,0.0041
2128.00,0.0041
2127.00,0.0041
2126.00,0.0041
2125.00,0.0042
2124.00,0.0042
2123.00,0.0042
2122.00,0.0042
2121.00,0.0041
2120.00,0.0041
2119.00,0.0041
2118.00,0.0040
2117.00,0.0040
2116.00,0.0041
2115.00,0.0041
2114.00,0.0041
2113.00,0.0041
2112.00,0.0042
2111.00,0.0042
2110.00,0.0042
2109.00,0.0041
2108.00,0.0041
2107.00,0.0040
2106.00,0.0040
2105.00,0.0040
2104.00,0.0040
2103.00,0.0040
2102.00,0.0040
2101.00,0.0041
2100.00,0.0041
2099.00,0.0041
2098.00,0.0041
2097.00,0.0040
2096.00,0.0041
2095.00,0.0041
2094.00,0.0041
2093.00,0.0040
2092.00,0.0041
2091.00,0.0041
2090.00,0.0041
2089.00,0.0041
2088.00,0.0041
2087.00,0.0041
2086.00,0.0040
2085.00,0.0040
2084.00,0.0040
2083.00,0.0040
2082.00,0.0040
2081.00,0.0039
2080.00,0.0039
2079.00,0.0039
2078.00,0.0039
2077.00,0.0039
2076.00,0.0039
2075.00,0.0039
2074.00,0.0039
2073.00,0.0039
2072.00,0.0039
2071.00,0.0039
2070.00,0.0038
2069.00,0.0038
2068.00,0.0038
2067.00,0.0038
2066.00,0.0038
2065.00,0.0038
2064.00,0.0038
2063.00,0.0038
2062.00,0.0038
2061.00,0.0038
2060.00,0.0038
2059.00,0.0038
2058.00,0.0037
2057.00,0.0036
2056.00,0.0037
2055.00,0.0037
2054.00,0.0037
2053.00,0.0037
2052.00,0.0037
2051.00,0.0036
2050.00,0.0036
2049.00,0.0036
2048.00,0.0036
2047.00,0.0036
2046.00,0.0035
2045.00,0.0035
2044.00,0.0036
2043.00,0.0036
2042.00,0.0036
2041.00,0.0035
2040.00,0.0035
2039.00,0.0035
2038.00,0.0034
2037.00,0.0034
2036.00,0.0035
2035.00,0.0036
2034.00,0.0036
2033.00,0.0036
2032.00,0.0036
2031.00,0.0037
2030.00,0.0037
2029.00,0.0037
2028.00,0.0038
2027.00,0.0037
2026.00,0.0036
2025.00,0.0035
2024.00,0.0035
2023.00,0.0035
2022.00,0.0035
2021.00,0.0036
2020.00,0.0037
2019.00,0.0038
2018.00,0.0038
2017.00,0.0038
2016.00,0.0038
2015.00,0.0037
2014.00,0.0035
2013.00,0.0035
2012.00,0.0036
2011.00,0.0036
2010.00,0.0036
2009.00,0.0036
2008.00,0.0037
2007.00,0.0038
2006.00,0.0037
2005.00,0.0037
2004.00,0.0037
2003.00,0.0036
2002.00,0.0035
2001.00,0.0035
2000.00,0.0035
1999.00,0.0035
1998.00,0.0035
1997.00,0.0035
1996.00,0.0036
1995.00,0.0036
1994.00,0.0036
1993.00,0.0035
1992.00,0.0035
1991.00,0.0034
1990.00,0.0033
1989.00,0.0033
1988.00,0.0033
1987.00,0.0034
1986.00,0.0033
1985.00,0.0033
1984.00,0.0033
1983.00,0.0033
1982.00,0.0033
1981.00,0.0033
1980.00,0.0032
1979.00,0.0032
1978.00,0.0033
1977.00,0.0034
1976.00,0.0035
1975.00,0.0035
1974.00,0.0035
1973.00,0.0034
1972.00,0.0034
1971.00,0.0033
1970.00,0.0033
1969.00,0.0034
1968.00,0.0035
1967.00,0.0036
1966.00,0.0036
1965.00,0.0036
1964.00,0.0036
1963.00,0.0036
1962.00,0.0036
1961.00,0.0036
1960.00,0.0036
1959.00,0.0036
1958.00,0.0036
1957.00,0.0036
1956.00,0.0037
1955.00,0.0037
1954.00,0.0036
1953.00,0.0035
1952.00,0.0035
1951.00,0.0035
1950.00,0.0035
1949.00,0.0035
1948.00,0.0035
1947.00,0.0034
1946.00,0.0034
1945.00,0.0034
1944.00,0.0034
1943.00,0.0035
1942.00,0.0036
1941.00,0.0035
1940.00,0.0034
1939.00,0.0033
1938.00,0.0033
1937.00,0.0034
1936.00,0.0035
1935.00,0.0035
1934.00,0.0035
1933.00,0.0035
1932.00,0.0035
1931.00,0.0035
1930.00,0.0034
1929.00,0.0035
1928.00,0.0035
1927.00,0.0034
1926.00,0.0034
1925.00,0.0034
1924.00,0.0035
1923.00,0.0036
1922.00,0.0035
1921.00,0.0033
1920.00,0.0030
1919.00,0.0029
1918.00,0.0029
1917.00,0.0030
1916.00,0.0031
1915.00,0.0031
1914.00,0.0031
1913.00,0.0032
1912.00,0.0033
1911.00,0.0033
1910.00,0.0033
1909.00,0.0034
1908.00,0.0035
1907.00,0.0034
1906.00,0.0032
1905.00,0.0032
1904.00,0.0033
1903.00,0.0033
1902.00,0.0033
1901.00,0.0033
1900.00,0.0034
1899.00,0.0033
1898.00,0.0033
1897.00,0.0033
1896.00,0.0034
1895.00,0.0034
1894.00,0.0032
1893.00,0.0031
1892.00,0.0031
1891.00,0.0032
1890.00,0.0033
1889.00,0.0034
1888.00,0.0034
1887.00,0.0032
1886.00,0.0030
1885.00,0.0030
1884.00,0.0031
1883.00,0.0032
1882.00,0.0031
1881.00,0.0031
1880.00,0.0032
1879.00,0.0032
1878.00,0.0031
1877.00,0.0030
1876.00,0.0031
1875.00,0.0030
1874.00,0.0029
1873.00,0.0029
1872.00,0.0029
1871.00,0.0028
1870.00,0.0028
1869.00,0.0029
1868.00,0.0031
1867.00,0.0030
1866.00,0.0028
1865.00,0.0027
1864.00,0.0027
1863.00,0.0028
1862.00,0.0028
1861.00,0.0028
1860.00,0.0030
1859.00,0.0030
1858.00,0.0029
1857.00,0.0029
1856.00,0.0030
1855.00,0.0029
1854.00,0.0029
1853.00,0.0029
1852.00,0.0029
1851.00,0.0028
1850.00,0.0027
1849.00,0.0027
1848.00,0.0028
1847.00,0.0027
1846.00,0.0026
1845.00,0.0025
1844.00,0.0026
1843.00,0.0026
1842.00,0.0025
1841.00,0.0023
1840.00,0.0023
1839.00,0.0024
1838.00,0.0025
1837.00,0.0026
1836.00,0.0026
1835.00,0.0025
1834.00,0.0025
1833.00,0.0025
1832.00,0.0026
1831.00,0.0029
1830.00,0.0031
1829.00,0.0031
1828.00,0.0029
1827.00,0.0027
1826.00,0.0025
1825.00,0.0026
1824.00,0.0027
1823.00,0.0026
1822.00,0.0024
1821.00,0.0023
1820.00,0.0024
1819.00,0.0025
1818.00,0.0025
1817.00,0.0024
1816.00,0.0025
1815.00,0.0026
1814.00,0.0024
1813.00,0.0023
1812.00,0.0024
1811.00,0.0025
1810.00,0.0024
1809.00,0.0023
1808.00,0.0023
1807.00,0.0023
1806.00,0.0022
1805.00,0.0022
1804.00,0.0024
1803.00,0.0025
1802.00,0.0023
1801.00,0.0022
1800.00,0.0021
1799.00,0.0020
1798.00,0.0018
1797.00,0.0017
1796.00,0.0019
1795.00,0.0019
1794.00,0.0018
1793.00,0.0017
1792.00,0.0019
1791.00,0.0020
1790.00,0.0019
1789.00,0.0017
1788.00,0.0017
1787.00,0.0017
1786.00,0.0018
1785.00,0.0019
1784.00,0.0020
1783.00,0.0021
1782.00,0.0021
1781.00,0.0021
1780.00,0.0020
1779.00,0.0019
1778.00,0.0018
1777.00,0.0017
1776.00,0.0018
1775.00,0.0019
1774.00,0.0020
1773.00,0.0020
1772.00,0.0022
1771.00,0.0022
1770.00,0.0020
1769.00,0.0017
1768.00,0.0016
1767.00,0.0017
1766.00,0.0018
1765.00,0.0019
1764.00,0.0020
1763.00,0.0024
1762.00,0.0026
1761.00,0.0026
1760.00,0.0024
1759.00,0.0022
1758.00,0.0021
1757.00,0.0020
1756.00,0.0019
1755.00,0.0018
1754.00,0.0015
1753.00,0.0011
1752.00,0.0007
1751.00,0.0008
1750.00,0.0012
1749.00,0.0014
1748.00,0.0016
1747.00,0.0017
1746.00,0.0019
1745.00,0.0022
1744.00,0.0024
1743.00,0.0028
1742.00,0.0030
1741.00,0.0030
1740.00,0.0030
1739.00,0.0032
1738.00,0.0033
1737.00,0.0032
1736.00,0.0028
1735.00,0.0025
1734.00,0.0027
1733.00,0.0029
1732.00,0.0029
1731.00,0.0029
1730.00,0.0031
1729.00,0.0033
1728.00,0.0034
1727.00,0.0034
1726.00,0.0035
1725.00,0.0035
1724.00,0.0035
1723.00,0.0035
1722.00,0.0035
1721.00,0.0036
1720.00,0.0037
1719.00,0.0037
1718.00,0.0036
1717.00,0.0035
1716.00,0.0036
1715.00,0.0036
1714.00,0.0036
1713.00,0.0037
1712.00,0.0041
1711.00,0.0044
1710.00,0.0046
1709.00,0.0049
1708.00,0.0055
1707.00,0.0062
1706.00,0.0071
1705.00,0.0081
1704.00,0.0092
1703.00,0.0098
1702.00,0.0102
1701.00,0.0110
1700.00,0.0126
1699.00,0.0138
1698.00,0.0141
1697.00,0.0145
1696.00,0.0156
1695.00,0.0166
1694.00,0.0169
1693.00,0.0171
1692.00,0.0174
1691.00,0.0179
1690.00,0.0186
1689.00,0.0194
1688.00,0.0202
1687.00,0.0209
1686.00,0.0216
1685.00,0.0226
1684.00,0.0240
1683.00,0.0251
1682.00,0.0256
1681.00,0.0261
1680.00,0.0267
1679.00,0.0275
1678.00,0.0284
1677.00,0.0292
1676.00,0.0301
1675.00,0.0310
1674.00,0.0319
1673.00,0.0326
1672.00,0.0332
1671.00,0.0341
1670.00,0.0353
1669.00,0.0366
1668.00,0.0377
1667.00,0.0385
1666.00,0.0393
1665.00,0.0401
1664.00,0.0410
1663.00,0.0421
1662.00,0.0430
1661.00,0.0438
1660.00,0.0445
1659.00,0.0453
1658.00,0.0464
1657.00,0.0477
1656.00,0.0491
1655.00,0.0503
1654.00,0.0514
1653.00,0.0525
1652.00,0.0525
1651.00,0.0523
1650.00,0.0520
1649.00,0.0519
1648.00,0.0519
1647.00,0.0521
1646.00,0.0522
1645.00,0.0524
1644.00,0.0526
1643.00,0.0527
1642.00,0.0528
1641.00,0.0529
1640.00,0.0532
1639.00,0.0535
1638.00,0.0537
1637.00,0.0538
1636.00,0.0539
1635.00,0.0541
1634.00,0.0543
1633.00,0.0545
1632.00,0.0546
1631.00,0.0547
1630.00,0.0549
1629.00,0.0553
1628.00,0.0558
1627.00,0.0562
1626.00,0.0566
1625.00,0.0570
1624.00,0.0573
1623.00,0.0575
1622.00,0.0578
1621.00,0.0582
1620.00,0.0584
1619.00,0.0585
1618.00,0.0585
1617.00,0.0582
1616.00,0.0575
1615.00,0.0565
1614.00,0.0556
1613.00,0.0547
1612.00,0.0535
1611.00,0.0521
1610.00,0.0508
1609.00,0.0496
1608.00,0.0483
1607.00,0.0469
1606.00,0.0456
1605.00,0.0444
1604.00,0.0431
1603.00,0.0418
1602.00,0.0407
1601.00,0.0397
1600.00,0.0385
1599.00,0.0374
1598.00,0.0365
1597.00,0.0358
1596.00,0.0349
1595.00,0.0340
1594.00,0.0333
1593.00,0.0327
1592.00,0.0319
1591.00,0.0312
1590.00,0.0306
1589.00,0.0302
1588.00,0.0296
1587.00,0.0290
1586.00,0.0286
1585.00,0.0283
1584.00,0.0278
1583.00,0.0273
1582.00,0.0270
1581.00,0.0270
1580.00,0.0269
1579.00,0.0267
1578.00,0.0267
1577.00,0.0268
1576.00,0.0265
1575.00,0.0262
1574.00,0.0263
1573.00,0.0265
1572.00,0.0268
1571.00,0.0270
1570.00,0.0275
1569.00,0.0280
1568.00,0.0280
1567.00,0.0281
1566.00,0.0285
1565.00,0.0293
1564.00,0.0302
1563.00,0.0313
1562.00,0.0325
1561.00,0.0336
1560.00,0.0340
1559.00,0.0344
1558.00,0.0354
1557.00,0.0362
1556.00,0.0366
1555.00,0.0370
1554.00,0.0376
1553.00,0.0384
1552.00,0.0391
1551.00,0.0399
1550.00,0.0407
1549.00,0.0414
1548.00,0.0420
1547.00,0.0424
1546.00,0.0430
1545.00,0.0438
1544.00,0.0448
1543.00,0.0454
1542.00,0.0456
1541.00,0.0457
1540.00,0.0462
1539.00,0.0466
1538.00,0.0471
1537.00,0.0477
1536.00,0.0482
1535.00,0.0487
1534.00,0.0494
1533.00,0.0501
1532.00,0.0507
1531.00,0.0510
1530.00,0.0511
1529.00,0.0515
1528.00,0.0521
1527.00,0.0526
1526.00,0.0529
1525.00,0.0533
1524.00,0.0538
1523.00,0.0542
1522.00,0.0546
1521.00,0.0550
1520.00,0.0554
1519.00,0.0557
1518.00,0.0558
1517.00,0.0558
1516.00,0.0557
1515.00,0.0556
1514.00,0.0554
1513.00,0.0550
1512.00,0.0549
1511.00,0.0550
1510.00,0.0549
1509.00,0.0543
1508.00,0.0536
1507.00,0.0528
1506.00,0.0517
1505.00,0.0505
1504.00,0.0498
1503.00,0.0491
1502.00,0.0483
1501.00,0.0476
1500.00,0.0469
1499.00,0.0463
1498.00,0.0453
1497.00,0.0440
1496.00,0.0428
1495.00,0.0419
1494.00,0.0410
1493.00,0.0399
1492.00,0.0389
1491.00,0.0379
1490.00,0.0370
1489.00,0.0363
1488.00,0.0356
1487.00,0.0349
1486.00,0.0340
1485.00,0.0332
1484.00,0.0324
1483.00,0.0318
1482.00,0.0311
1481.00,0.0304
1480.00,0.0299
1479.00,0.0294
1478.00,0.0290
1477.00,0.0287
1476.00,0.0285
1475.00,0.0281
1474.00,0.0275
1473.00,0.0270
1472.00,0.0272
1471.00,0.0276
1470.00,0.0278
1469.00,0.0280
1468.00,0.0282
1467.00,0.0285
1466.00,0.0286
1465.00,0.0285
1464.00,0.0284
1463.00,0.0285
1462.00,0.0287
1461.00,0.0292
1460.00,0.0299
1459.00,0.0309
1458.00,0.0316
1457.00,0.0318
1456.00,0.0319
1455.00,0.0322
1454.00,0.0325
1453.00,0.0326
1452.00,0.0328
1451.00,0.0332
1450.00,0.0333
1449.00,0.0333
1448.00,0.0333
1447.00,0.0334
1446.00,0.0332
1445.00,0.0329
1444.00,0.0325
1443.00,0.0322
1442.00,0.0319
1441.00,0.0315
1440.00,0.0312
1439.00,0.0311
1438.00,0.0308
1437.00,0.0303
1436.00,0.0297
1435.00,0.0292
1434.00,0.0288
1433.00,0.0284
1432.00,0.0281
1431.00,0.0281
1430.00,0.0281
1429.00,0.0279
1428.00,0.0277
1427.00,0.0276
1426.00,0.0276
1425.00,0.0276
1424.00,0.0275
1423.00,0.0278
1422.00,0.0282
1421.00,0.0285
1420.00,0.0288
1419.00,0.0293
1418.00,0.0296
1417.00,0.0295
1416.00,0.0295
1415.00,0.0299
1414.00,0.0304
1413.00,0.0307
1412.00,0.0310
1411.00,0.0313
1410.00,0.0317
1409.00,0.0319
1408.00,0.0320
1407.00,0.0323
1406.00,0.0325
1405.00,0.0326
1404.00,0.0326
1403.00,0.0328
1402.00,0.0330
1401.00,0.0331
1400.00,0.0331
1399.00,0.0332
1398.00,0.0335
1397.00,0.0337
1396.00,0.0340
1395.00,0.0344
1394.00,0.0347
1393.00,0.0347
1392.00,0.0345
1391.00,0.0346
1390.00,0.0348
1389.00,0.0350
1388.00,0.0352
1387.00,0.0353
1386.00,0.0353
1385.00,0.0353
1384.00,0.0352
1383.00,0.0352
1382.00,0.0352
1381.00,0.0350
1380.00,0.0348
1379.00,0.0345
1378.00,0.0343
1377.00,0.0341
1376.00,0.0340
1375.00,0.0339
1374.00,0.0339
1373.00,0.0338
1372.00,0.0335
1371.00,0.0332
1370.00,0.0329
1369.00,0.0327
1368.00,0.0325
1367.00,0.0321
1366.00,0.0319
1365.00,0.0317
1364.00,0.0316
1363.00,0.0314
1362.00,0.0311
1361.00,0.0308
1360.00,0.0305
1359.00,0.0302
1358.00,0.0300
1357.00,0.0298
1356.00,0.0298
1355.00,0.0297
1354.00,0.0296
1353.00,0.0295
1352.00,0.0295
1351.00,0.0294
1350.00,0.0294
1349.00,0.0295
1348.00,0.0295
1347.00,0.0295
1346.00,0.0295
1345.00,0.0295
1344.00,0.0296
1343.00,0.0296
1342.00,0.0297
1341.00,0.0298
1340.00,0.0299
1339.00,0.0299
1338.00,0.0299
1337.00,0.0298
1336.00,0.0297
1335.00,0.0296
1334.00,0.0295
1333.00,0.0294
1332.00,0.0293
1331.00,0.0292
1330.00,0.0291
1329.00,0.0290
1328.00,0.0289
1327.00,0.0287
1326.00,0.0287
1325.00,0.0287
1324.00,0.0286
1323.00,0.0286
1322.00,0.0286
1321.00,0.0286
1320.00,0.0286
1319.00,0.0286
1318.00,0.0287
1317.00,0.0288
1316.00,0.0288
1315.00,0.0288
1314.00,0.0288
1313.00,0.0289
1312.00,0.0288
1311.00,0.0288
1310.00,0.0288
1309.00,0.0288
1308.00,0.0287
1307.00,0.0287
1306.00,0.0286
1305.00,0.0285
1304.00,0.0284
1303.00,0.0282
1302.00,0.0281
1301.00,0.0280
1300.00,0.0279
1299.00,0.0279
1298.00,0.0279
1297.00,0.0278
1296.00,0.0277
1295.00,0.0276
1294.00,0.0276
1293.00,0.0276
1292.00,0.0275
1291.00,0.0275
1290.00,0.0275
1289.00,0.0276
1288.00,0.0276
1287.00,0.0276
1286.00,0.0277
1285.00,0.0278
1284.00,0.0278
1283.00,0.0279
1282.00,0.0279
1281.00,0.0280
1280.00,0.0280
1279.00,0.0281
1278.00,0.0282
1277.00,0.0283
1276.00,0.0283
1275.00,0.0284
1274.00,0.0286
1273.00,0.0287
1272.00,0.0288
1271.00,0.0290
1270.00,0.0292
1269.00,0.0294
1268.00,0.0296
1267.00,0.0299
1266.00,0.0301
1265.00,0.0304
1264.00,0.0306
1263.00,0.0308
1262.00,0.0310
1261.00,0.0312
1260.00,0.0314
1259.00,0.0315
1258.00,0.0318
1257.00,0.0320
1256.00,0.0322
1255.00,0.0325
1254.00,0.0328
1253.00,0.0331
1252.00,0.0334
1251.00,0.0336
1250.00,0.0338
1249.00,0.0340
1248.00,0.0341
1247.00,0.0342
1246.00,0.0343
1245.00,0.0345
1244.00,0.0346
1243.00,0.0347
1242.00,0.0348
1241.00,0.0349
1240.00,0.0350
1239.00,0.0350
1238.00,0.0351
1237.00,0.0351
1236.00,0.0350
1235.00,0.0350
1234.00,0.0349
1233.00,0.0348
1232.00,0.0347
1231.00,0.0345
1230.00,0.0343
1229.00,0.0342
1228.00,0.0339
1227.00,0.0337
1226.00,0.0335
1225.00,0.0333
1224.00,0.0330
1223.00,0.0327
1222.00,0.0325
1221.00,0.0323
1220.00,0.0320
1219.00,0.0318
1218.00,0.0315
1217.00,0.0313
1216.00,0.0310
1215.00,0.0307
1214.00,0.0305
1213.00,0.0303
1212.00,0.0300
1211.00,0.0297
1210.00,0.0295
1209.00,0.0293
1208.00,0.0290
1207.00,0.0288
1206.00,0.0285
1205.00,0.0283
1204.00,0.0279
1203.00,0.0276
1202.00,0.0273
1201.00,0.0270
1200.00,0.0266
1199.00,0.0263
1198.00,0.0260
1197.00,0.0257
1196.00,0.0253
1195.00,0.0250
1194.00,0.0247
1193.00,0.0245
1192.00,0.0243
1191.00,0.0241
1190.00,0.0241
1189.00,0.0240
1188.00,0.0239
1187.00,0.0239
1186.00,0.0239
1185.00,0.0240
1184.00,0.0240
1183.00,0.0241
1182.00,0.0243
1181.00,0.0245
1180.00,0.0247
1179.00,0.0249
1178.00,0.0253
1177.00,0.0257
1176.00,0.0260
1175.00,0.0265
1174.00,0.0270
1173.00,0.0275
1172.00,0.0279
1171.00,0.0283
1170.00,0.0288
1169.00,0.0292
1168.00,0.0296
1167.00,0.0299
1166.00,0.0303
1165.00,0.0306
1164.00,0.0308
1163.00,0.0309
1162.00,0.0310
1161.00,0.0310
1160.00,0.0309
1159.00,0.0308
1158.00,0.0307
1157.00,0.0306
1156.00,0.0304
1155.00,0.0302
1154.00,0.0300
1153.00,0.0297
1152.00,0.0294
1151.00,0.0291
1150.00,0.0289
1149.00,0.0286
1148.00,0.0283
1147.00,0.0279
1146.00,0.0277
1145.00,0.0274
1144.00,0.0271
1143.00,0.0269
1142.00,0.0267
1141.00,0.0265
1140.00,0.0263
1139.00,0.0262
1138.00,0.0260
1137.00,0.0259
1136.00,0.0258
1135.00,0.0256
1134.00,0.0256
1133.00,0.0255
1132.00,0.0254
1131.00,0.0254
1130.00,0.0253
1129.00,0.0253
1128.00,0.0252
1127.00,0.0252
1126.00,0.0251
1125.00,0.0251
1124.00,0.0250
1123.00,0.0249
1122.00,0.0249
1121.00,0.0248
1120.00,0.0247
1119.00,0.0246
1118.00,0.0246
1117.00,0.0246
1116.00,0.0246
1115.00,0.0246
1114.00,0.0246
1113.00,0.0247
1112.00,0.0246
1111.00,0.0246
1110.00,0.0247
1109.00,0.0247
1108.00,0.0247
1107.00,0.0247
1106.00,0.0248
1105.00,0.0249
1104.00,0.0250
1103.00,0.0251
1102.00,0.0252
1101.00,0.0253
1100.00,0.0253
1099.00,0.0253
1098.00,0.0255
1097.00,0.0256
1096.00,0.0258
1095.00,0.0259
1094.00,0.0262
1093.00,0.0265
1092.00,0.0268
1091.00,0.0271
1090.00,0.0275
1089.00,0.0279
1088.00,0.0283
1087.00,0.0287
1086.00,0.0291
1085.00,0.0295
1084.00,0.0299
1083.00,0.0303
1082.00,0.0308
1081.00,0.0312
1080.00,0.0316
1079.00,0.0320
1078.00,0.0324
1077.00,0.0328
1076.00,0.0331
1075.00,0.0334
1074.00,0.0338
1073.00,0.0340
1072.00,0.0342
1071.00,0.0344
1070.00,0.0345
1069.00,0.0347
1068.00,0.0347
1067.00,0.0348
1066.00,0.0349
1065.00,0.0351
1064.00,0.0351
1063.00,0.0351
1062.00,0.0352
1061.00,0.0352
1060.00,0.0351
1059.00,0.0349
1058.00,0.0348
1057.00,0.0346
1056.00,0.0344
1055.00,0.0341
1054.00,0.0339
1053.00,0.0337
1052.00,0.0334
1051.00,0.0331
1050.00,0.0328
1049.00,0.0326
1048.00,0.0322
1047.00,0.0319
1046.00,0.0316
1045.00,0.0313
1044.00,0.0309
1043.00,0.0306
1042.00,0.0303
1041.00,0.0301
1040.00,0.0298
1039.00,0.0295
1038.00,0.0294
1037.00,0.0292
1036.00,0.0290
1035.00,0.0288
1034.00,0.0287
1033.00,0.0286
1032.00,0.0284
1031.00,0.0282
1030.00,0.0280
1029.00,0.0278
1028.00,0.0274
1027.00,0.0271
1026.00,0.0268
1025.00,0.0264
1024.00,0.0260
1023.00,0.0257
1022.00,0.0254
1021.00,0.0251
1020.00,0.0247
1019.00,0.0244
1018.00,0.0241
1017.00,0.0239
1016.00,0.0236
1015.00,0.0233
1014.00,0.0231
1013.00,0.0228
1012.00,0.0225
1011.00,0.0223
1010.00,0.0221
1009.00,0.0219
1008.00,0.0217
1007.00,0.0215
1006.00,0.0214
1005.00,0.0212
1004.00,0.0211
1003.00,0.0209
1002.00,0.0208
1001.00,0.0206
1000.00,0.0205
999.00,0.0203
998.00,0.0202
997.00,0.0201
996.00,0.0199
995.00,0.0198
994.00,0.0197
993.00,0.0196
992.00,0.0195
991.00,0.0194
990.00,0.0193
989.00,0.0193
988.00,0.0193
987.00,0.0192
986.00,0.0193
985.00,0.0193
984.00,0.0192
983.00,0.0192
982.00,0.0193
981.00,0.0193
980.00,0.0193
979.00,0.0193
978.00,0.0194
977.00,0.0195
976.00,0.0196
975.00,0.0197
974.00,0.0199
973.00,0.0202
972.00,0.0204
971.00,0.0206
970.00,0.0209
969.00,0.0211
968.00,0.0213
967.00,0.0214
966.00,0.0216
965.00,0.0216
964.00,0.0216
963.00,0.0216
962.00,0.0216
961.00,0.0216
960.00,0.0216
959.00,0.0216
958.00,0.0216
957.00,0.0216
956.00,0.0215
955.00,0.0213
954.00,0.0212
953.00,0.0211
952.00,0.0209
951.00,0.0207
950.00,0.0206
949.00,0.0204
948.00,0.0202
947.00,0.0201
946.00,0.0200
945.00,0.0199
944.00,0.0198
943.00,0.0197
942.00,0.0196
941.00,0.0195
940.00,0.0194
939.00,0.0193
938.00,0.0192
937.00,0.0191
936.00,0.0189
935.00,0.0187
934.00,0.0186
933.00,0.0184
932.00,0.0182
931.00,0.0181
930.00,0.0179
929.00,0.0178
928.00,0.0176
927.00,0.0174
926.00,0.0173
925.00,0.0172
924.00,0.0170
923.00,0.0168
922.00,0.0168
921.00,0.0166
920.00,0.0165
919.00,0.0163
918.00,0.0163
917.00,0.0162
916.00,0.0161
915.00,0.0160
914.00,0.0159
913.00,0.0159
912.00,0.0158
911.00,0.0158
910.00,0.0158
909.00,0.0158
908.00,0.0158
907.00,0.0157
906.00,0.0158
905.00,0.0158
904.00,0.0158
903.00,0.0158
902.00,0.0159
901.00,0.0159
900.00,0.0158
899.00,0.0158
898.00,0.0158
897.00,0.0158
896.00,0.0157
895.00,0.0157
894.00,0.0156
893.00,0.0156
892.00,0.0155
891.00,0.0155
890.00,0.0154
889.00,0.0154
888.00,0.0153
887.00,0.0151
886.00,0.0151
885.00,0.0150
884.00,0.0149
883.00,0.0149
882.00,0.0149
881.00,0.0149
880.00,0.0149
879.00,0.0149
878.00,0.0149
877.00,0.0150
876.00,0.0150
875.00,0.0149
874.00,0.0150
873.00,0.0150
872.00,0.0149
871.00,0.0148
870.00,0.0147
869.00,0.0147
868.00,0.0145
867.00,0.0144
866.00,0.0144
865.00,0.0143
864.00,0.0142
863.00,0.0141
862.00,0.0140
861.00,0.0140
860.00,0.0140
859.00,0.0139
858.00,0.0140
857.00,0.0140
856.00,0.0140
855.00,0.0140
854.00,0.0140
853.00,0.0141
852.00,0.0141
851.00,0.0141
850.00,0.0142
849.00,0.0142
848.00,0.0142
847.00,0.0141
846.00,0.0142
845.00,0.0142
844.00,0.0142
843.00,0.0142
842.00,0.0142
841.00,0.0143
840.00,0.0144
839.00,0.0145
838.00,0.0146
837.00,0.0148
836.00,0.0149
835.00,0.0150
834.00,0.0152
833.00,0.0154
832.00,0.0156
831.00,0.0158
830.00,0.0160
829.00,0.0162
828.00,0.0164
827.00,0.0165
826.00,0.0166
825.00,0.0167
824.00,0.0167
823.00,0.0167
822.00,0.0168
821.00,0.0169
820.00,0.0169
819.00,0.0170
818.00,0.0171
817.00,0.0173
816.00,0.0173
815.00,0.0174
814.00,0.0176
813.00,0.0177
812.00,0.0178
811.00,0.0179
810.00,0.0181
809.00,0.0183
808.00,0.0183
807.00,0.0184
806.00,0.0186
805.00,0.0187
804.00,0.0188
803.00,0.0189
802.00,0.0190
801.00,0.0190
800.00,0.0189
799.00,0.0189
798.00,0.0189
797.00,0.0190
796.00,0.0190
795.00,0.0190
794.00,0.0191
793.00,0.0193
792.00,0.0193
791.00,0.0194
790.00,0.0196
789.00,0.0197
788.00,0.0198
787.00,0.0200
786.00,0.0201
785.00,0.0203
784.00,0.0204
783.00,0.0206
782.00,0.0208
781.00,0.0210
780.00,0.0212
779.00,0.0213
778.00,0.0216
777.00,0.0218
776.00,0.0220
775.00,0.0222
774.00,0.0225
773.00,0.0227
772.00,0.0229
771.00,0.0230
770.00,0.0233
769.00,0.0235
768.00,0.0237
767.00,0.0239
766.00,0.0241
765.00,0.0243
764.00,0.0245
763.00,0.0246
762.00,0.0248
761.00,0.0250
760.00,0.0252
759.00,0.0254
758.00,0.0257
757.00,0.0259
756.00,0.0260
755.00,0.0261
754.00,0.0262
753.00,0.0264
752.00,0.0265
751.00,0.0267
750.00,0.0268
749.00,0.0269
748.00,0.0269
747.00,0.0269
746.00,0.0270
745.00,0.0270
744.00,0.0269
743.00,0.0269
742.00,0.0269
741.00,0.0269
740.00,0.0268
739.00,0.0268
738.00,0.0269
737.00,0.0270
736.00,0.0270
735.00,0.0271
734.00,0.0272
733.00,0.0273
732.00,0.0273
731.00,0.0273
730.00,0.0275
729.00,0.0278
728.00,0.0281
727.00,0.0285
726.00,0.0289
725.00,0.0294
724.00,0.0297
723.00,0.0301
722.00,0.0305
721.00,0.0309
720.00,0.0312
719.00,0.0316
718.00,0.0322
717.00,0.0329
716.00,0.0334
715.00,0.0340
714.00,0.0346
713.00,0.0352
712.00,0.0357
711.00,0.0362
710.00,0.0369
709.00,0.0375
708.00,0.0381
707.00,0.0387
706.00,0.0394
705.00,0.0400
704.00,0.0406
703.00,0.0411
702.00,0.0417
701.00,0.0421
700.00,0.0424
699.00,0.0426
698.00,0.0428
697.00,0.0429
696.00,0.0428
695.00,0.0427
694.00,0.0427
693.00,0.0426
692.00,0.0424
691.00,0.0423
690.00,0.0424
689.00,0.0424
688.00,0.0424
687.00,0.0425
686.00,0.0426
685.00,0.0428
684.00,0.0428
683.00,0.0429
682.00,0.0431
681.00,0.0433
680.00,0.0434
679.00,0.0435
678.00,0.0437
677.00,0.0439
676.00,0.0440
675.00,0.0441
674.00,0.0444
673.00,0.0445
672.00,0.0446
671.00,0.0448
670.00,0.0451
669.00,0.0454
668.00,0.0457
667.00,0.0458
666.00,0.0459
665.00,0.0459
664.00,0.0458
663.00,0.0459
662.00,0.0460
661.00,0.0462
660.00,0.0462
659.00,0.0462
658.00,0.0464
657.00,0.0465
656.00,0.0466
655.00,0.0466
654.00,0.0467
653.00,0.0468
652.00,0.0469
651.00,0.0470
650.00,0.0473
649.00,0.0475
648.00,0.0476
647.00,0.0477
646.00,0.0479
645.00,0.0481
644.00,0.0483
643.00,0.0485
642.00,0.0487
641.00,0.0490
640.00,0.0491
639.00,0.0493
638.00,0.0495
637.00,0.0498
636.00,0.0499
635.00,0.0501
634.00,0.0504
633.00,0.0507
632.00,0.0508
631.00,0.0510
630.00,0.0513
629.00,0.0514
628.00,0.0515
627.00,0.0515
626.00,0.0516
625.00,0.0517
624.00,0.0518
623.00,0.0518
622.00,0.0520
621.00,0.0521
620.00,0.0521
619.00,0.0521
618.00,0.0521
617.00,0.0521
616.00,0.0520
615.00,0.0519
614.00,0.0520
613.00,0.0520
612.00,0.0519
611.00,0.0518
610.00,0.0518
609.00,0.0519
608.00,0.0518
607.00,0.0517
606.00,0.0519
605.00,0.0519
604.00,0.0519
603.00,0.0518
602.00,0.0519
601.00,0.0520
600.00,0.0519
599.00,0.0518
598.00,0.0519
597.00,0.0519
596.00,0.0519
595.00,0.0519
594.00,0.0520
593.00,0.0521
592.00,0.0521
591.00,0.0521
590.00,0.0523
589.00,0.0525
588.00,0.0525
587.00,0.0525
586.00,0.0527
585.00,0.0528
584.00,0.0527
583.00,0.0526
582.00,0.0527
581.00,0.0528
580.00,0.0528
579.00,0.0528
578.00,0.0530
577.00,0.0531
576.00,0.0531
575.00,0.0532
574.00,0.0536
573.00,0.0539
572.00,0.0538
571.00,0.0538
570.00,0.0540
569.00,0.0541
568.00,0.0540
567.00,0.0541
566.00,0.0545
565.00,0.0547
564.00,0.0547
563.00,0.0547
562.00,0.0549
561.00,0.0552
560.00,0.0552
559.00,0.0552
558.00,0.0555
557.00,0.0557
556.00,0.0556
555.00,0.0555
554.00,0.0556
553.00,0.0558
552.00,0.0557
551.00,0.0556
550.00,0.0558
549.00,0.0559
548.00,0.0557
547.00,0.0556
546.00,0.0558
545.00,0.0559
544.00,0.0559
543.00,0.0558
542.00,0.0561
541.00,0.0563
540.00,0.0562
539.00,0.0562
538.00,0.0564
537.00,0.0566
536.00,0.0566
535.00,0.0566
534.00,0.0569
533.00,0.0571
532.00,0.0570
531.00,0.0570
530.00,0.0572
529.00,0.0573
528.00,0.0571
527.00,0.0568
526.00,0.0570
525.00,0.0573
524.00,0.0575
523.00,0.0577
522.00,0.0581
521.00,0.0583
520.00,0.0581
519.00,0.0580
518.00,0.0581
517.00,0.0582
516.00,0.0580
515.00,0.0578
514.00,0.0580
513.00,0.0580
512.00,0.0576
511.00,0.0573
510.00,0.0572
509.00,0.0572
508.00,0.0568
507.00,0.0564
506.00,0.0562
505.00,0.0559
504.00,0.0554
503.00,0.0550
502.00,0.0550
501.00,0.0553
500.00,0.0554
499.00,0.0555
498.00,0.0556
497.00,0.0557
496.00,0.0555
495.00,0.0554
494.00,0.0556
493.00,0.0557
492.00,0.0554
491.00,0.0552
490.00,0.0552
489.00,0.0554
488.00,0.0552
487.00,0.0549
486.00,0.0549
485.00,0.0549
484.00,0.0547
483.00,0.0545
482.00,0.0545
481.00,0.0546
480.00,0.0543
479.00,0.0542
478.00,0.0545
477.00,0.0547
476.00,0.0545
475.00,0.0542
474.00,0.0542
473.00,0.0541
472.00,0.0535
471.00,0.0534
470.00,0.0540
469.00,0.0545
468.00,0.0542
467.00,0.0539
466.00,0.0541
465.00,0.0543
464.00,0.0540
463.00,0.0539
462.00,0.0541
461.00,0.0542
460.00,0.0536
459.00,0.0530
458.00,0.0532
457.00,0.0532
456.00,0.0529
455.00,0.0527
454.00,0.0532
453.00,0.0533
452.00,0.0528
451.00,0.0525
450.00,0.0529
449.00,0.0531
448.00,0.0526
447.00,0.0520
446.00,0.0520
445.00,0.0520
444.00,0.0515
443.00,0.0512
442.00,0.0513
441.00,0.0511
440.00,0.0503
439.00,0.0500
438.00,0.0504
437.00,0.0506
436.00,0.0499
435.00,0.0493
434.00,0.0493
433.00,0.0492
432.00,0.0485
431.00,0.0480
430.00,0.0480
429.00,0.0479
428.00,0.0473
427.00,0.0469
426.00,0.0474
425.00,0.0477
424.00,0.0468
423.00,0.0457
422.00,0.0454
421.00,0.0451
420.00,0.0436
419.00,0.0423
418.00,0.0432
417.00,0.0444
416.00,0.0447
415.00,0.0450
414.00,0.0462
413.00,0.0469
412.00,0.0462
411.00,0.0455
410.00,0.0462
409.00,0.0468
408.00,0.0462
407.00,0.0455
406.00,0.0456
405.00,0.0453
404.00,0.0432
403.00,0.0415
402.00,0.0421
401.00,0.0434
400.00,0.0430
