Created as New Dataset,Sample 021 By YargerLab Date Friday, November 01 2024
cm-1,A
4000.00,0.0088
3999.00,0.0088
3998.00,0.0088
3997.00,0.0088
3996.00,0.0088
3995.00,0.0088
3994.00,0.0088
3993.00,0.0088
3992.00,0.0088
3991.00,0.0088
3990.00,0.0088
3989.00,0.0088
3988.00,0.0088
3987.00,0.0088
3986.00,0.0088
3985.00,0.0088
3984.00,0.0088
3983.00,0.0088
3982.00,0.0088
3981.00,0.0088
3980.00,0.0088
3979.00,0.0088
3978.00,0.0088
3977.00,0.0088
3976.00,0.0088
3975.00,0.0088
3974.00,0.0088
3973.00,0.0089
3972.00,0.0089
3971.00,0.0089
3970.00,0.0089
3969.00,0.0089
3968.00,0.0089
3967.00,0.0089
3966.00,0.0089
3965.00,0.0089
3964.00,0.0089
3963.00,0.0089
3962.00,0.0089
3961.00,0.0089
3960.00,0.0089
3959.00,0.0089
3958.00,0.0089
3957.00,0.0089
3956.00,0.0089
3955.00,0.0089
3954.00,0.0089
3953.00,0.0089
3952.00,0.0089
3951.00,0.0089
3950.00,0.0089
3949.00,0.0089
3948.00,0.0089
3947.00,0.0089
3946.00,0.0089
3945.00,0.0089
3944.00,0.0089
3943.00,0.0089
3942.00,0.0088
3941.00,0.0088
3940.00,0.0088
3939.00,0.0088
3938.00,0.0089
3937.00,0.0089
3936.00,0.0089
3935.00,0.0089
3934.00,0.0089
3933.00,0.0089
3932.00,0.0089
3931.00,0.0089
3930.00,0.0089
3929.00,0.0089
3928.00,0.0089
3927.00,0.0089
3926.00,0.0089
3925.00,0.0089
3924.00,0.0089
3923.00,0.0089
3922.00,0.0089
3921.00,0.0089
3920.00,0.0089
3919.00,0.0089
3918.00,0.0089
3917.00,0.0089
3916.00,0.0089
3915.00,0.0089
3914.00,0.0089
3913.00,0.0088
3912.00,0.0088
3911.00,0.0088
3910.00,0.0088
3909.00,0.0088
3908.00,0.0088
3907.00,0.0088
3906.00,0.0087
3905.00,0.0087
3904.00,0.0087
3903.00,0.0087
3902.00,0.0087
3901.00,0.0087
3900.00,0.0087
3899.00,0.0087
3898.00,0.0087
3897.00,0.0087
3896.00,0.0087
3895.00,0.0087
3894.00,0.0087
3893.00,0.0087
3892.00,0.0087
3891.00,0.0086
3890.00,0.0086
3889.00,0.0086
3888.00,0.0086
3887.00,0.0086
3886.00,0.0086
3885.00,0.0086
3884.00,0.0086
3883.00,0.0086
3882.00,0.0086
3881.00,0.0086
3880.00,0.0086
3879.00,0.0086
3878.00,0.0086
3877.00,0.0086
3876.00,0.0086
3875.00,0.0086
3874.00,0.0086
3873.00,0.0086
3872.00,0.0086
3871.00,0.0085
3870.00,0.0085
3869.00,0.0086
3868.00,0.0086
3867.00,0.0086
3866.00,0.0086
3865.00,0.0086
3864.00,0.0086
3863.00,0.0086
3862.00,0.0086
3861.00,0.0086
3860.00,0.0086
3859.00,0.0086
3858.00,0.0086
3857.00,0.0086
3856.00,0.0086
3855.00,0.0086
3854.00,0.0085
3853.00,0.0085
3852.00,0.0085
3851.00,0.0085
3850.00,0.0085
3849.00,0.0085
3848.00,0.0085
3847.00,0.0085
3846.00,0.0085
3845.00,0.0085
3844.00,0.0085
3843.00,0.0085
3842.00,0.0085
3841.00,0.0084
3840.00,0.0084
3839.00,0.0084
3838.00,0.0084
3837.00,0.0084
3836.00,0.0084
3835.00,0.0084
3834.00,0.0084
3833.00,0.0084
3832.00,0.0084
3831.00,0.0084
3830.00,0.0084
3829.00,0.0084
3828.00,0.0084
3827.00,0.0084
3826.00,0.0084
3825.00,0.0084
3824.00,0.0084
3823.00,0.0084
3822.00,0.0084
3821.00,0.0084
3820.00,0.0084
3819.00,0.0084
3818.00,0.0084
3817.00,0.0084
3816.00,0.0084
3815.00,0.0084
3814.00,0.0084
3813.00,0.0084
3812.00,0.0084
3811.00,0.0084
3810.00,0.0083
3809.00,0.0083
3808.00,0.0083
3807.00,0.0083
3806.00,0.0083
3805.00,0.0083
3804.00,0.0083
3803.00,0.0083
3802.00,0.0083
3801.00,0.0083
3800.00,0.0083
3799.00,0.0083
3798.00,0.0083
3797.00,0.0083
3796.00,0.0083
3795.00,0.0083
3794.00,0.0083
3793.00,0.0083
3792.00,0.0083
3791.00,0.0083
3790.00,0.0083
3789.00,0.0083
3788.00,0.0083
3787.00,0.0083
3786.00,0.0083
3785.00,0.0083
3784.00,0.0083
3783.00,0.0083
3782.00,0.0083
3781.00,0.0083
3780.00,0.0083
3779.00,0.0083
3778.00,0.0083
3777.00,0.0083
3776.00,0.0083
3775.00,0.0083
3774.00,0.0083
3773.00,0.0083
3772.00,0.0083
3771.00,0.0083
3770.00,0.0083
3769.00,0.0083
3768.00,0.0083
3767.00,0.0083
3766.00,0.0083
3765.00,0.0083
3764.00,0.0083
3763.00,0.0083
3762.00,0.0083
3761.00,0.0083
3760.00,0.0083
3759.00,0.0083
3758.00,0.0082
3757.00,0.0082
3756.00,0.0082
3755.00,0.0082
3754.00,0.0082
3753.00,0.0082
3752.00,0.0082
3751.00,0.0082
3750.00,0.0082
3749.00,0.0082
3748.00,0.0082
3747.00,0.0082
3746.00,0.0081
3745.00,0.0082
3744.00,0.0082
3743.00,0.0082
3742.00,0.0082
3741.00,0.0082
3740.00,0.0082
3739.00,0.0082
3738.00,0.0082
3737.00,0.0081
3736.00,0.0081
3735.00,0.0081
3734.00,0.0081
3733.00,0.0081
3732.00,0.0081
3731.00,0.0081
3730.00,0.0081
3729.00,0.0081
3728.00,0.0081
3727.00,0.0081
3726.00,0.0081
3725.00,0.0081
3724.00,0.0081
3723.00,0.0081
3722.00,0.0081
3721.00,0.0081
3720.00,0.0081
3719.00,0.0081
3718.00,0.0081
3717.00,0.0081
3716.00,0.0081
3715.00,0.0081
3714.00,0.0081
3713.00,0.0081
3712.00,0.0080
3711.00,0.0080
3710.00,0.0080
3709.00,0.0080
3708.00,0.0080
3707.00,0.0080
3706.00,0.0080
3705.00,0.0080
3704.00,0.0080
3703.00,0.0080
3702.00,0.0080
3701.00,0.0080
3700.00,0.0080
3699.00,0.0080
3698.00,0.0080
3697.00,0.0080
3696.00,0.0080
3695.00,0.0080
3694.00,0.0079
3693.00,0.0079
3692.00,0.0079
3691.00,0.0078
3690.00,0.0078
3689.00,0.0077
3688.00,0.0077
3687.00,0.0076
3686.00,0.0076
3685.00,0.0075
3684.00,0.0075
3683.00,0.0074
3682.00,0.0073
3681.00,0.0072
3680.00,0.0071
3679.00,0.0070
3678.00,0.0068
3677.00,0.0067
3676.00,0.0066
3675.00,0.0065
3674.00,0.0064
3673.00,0.0063
3672.00,0.0063
3671.00,0.0063
3670.00,0.0062
3669.00,0.0062
3668.00,0.0062
3667.00,0.0061
3666.00,0.0061
3665.00,0.0060
3664.00,0.0060
3663.00,0.0060
3662.00,0.0059
3661.00,0.0059
3660.00,0.0059
3659.00,0.0058
3658.00,0.0058
3657.00,0.0058
3656.00,0.0058
3655.00,0.0059
3654.00,0.0059
3653.00,0.0059
3652.00,0.0059
3651.00,0.0059
3650.00,0.0059
3649.00,0.0060
3648.00,0.0060
3647.00,0.0060
3646.00,0.0061
3645.00,0.0061
3644.00,0.0062
3643.00,0.0063
3642.00,0.0063
3641.00,0.0064
3640.00,0.0064
3639.00,0.0064
3638.00,0.0064
3637.00,0.0065
3636.00,0.0066
3635.00,0.0068
3634.00,0.0069
3633.00,0.0071
3632.00,0.0072
3631.00,0.0072
3630.00,0.0073
3629.00,0.0073
3628.00,0.0074
3627.00,0.0074
3626.00,0.0074
3625.00,0.0074
3624.00,0.0074
3623.00,0.0075
3622.00,0.0075
3621.00,0.0075
3620.00,0.0075
3619.00,0.0076
3618.00,0.0076
3617.00,0.0076
3616.00,0.0076
3615.00,0.0076
3614.00,0.0076
3613.00,0.0077
3612.00,0.0077
3611.00,0.0077
3610.00,0.0077
3609.00,0.0077
3608.00,0.0077
3607.00,0.0078
3606.00,0.0078
3605.00,0.0078
3604.00,0.0078
3603.00,0.0078
3602.00,0.0078
3601.00,0.0078
3600.00,0.0078
3599.00,0.0078
3598.00,0.0078
3597.00,0.0078
3596.00,0.0079
3595.00,0.0079
3594.00,0.0079
3593.00,0.0079
3592.00,0.0079
3591.00,0.0079
3590.00,0.0079
3589.00,0.0079
3588.00,0.0080
3587.00,0.0080
3586.00,0.0080
3585.00,0.0080
3584.00,0.0080
3583.00,0.0080
3582.00,0.0080
3581.00,0.0081
3580.00,0.0081
3579.00,0.0081
3578.00,0.0081
3577.00,0.0082
3576.00,0.0082
3575.00,0.0082
3574.00,0.0082
3573.00,0.0082
3572.00,0.0083
3571.00,0.0083
3570.00,0.0083
3569.00,0.0083
3568.00,0.0084
3567.00,0.0084
3566.00,0.0085
3565.00,0.0085
3564.00,0.0085
3563.00,0.0086
3562.00,0.0086
3561.00,0.0087
3560.00,0.0088
3559.00,0.0089
3558.00,0.0089
3557.00,0.0090
3556.00,0.0091
3555.00,0.0092
3554.00,0.0093
3553.00,0.0094
3552.00,0.0095
3551.00,0.0096
3550.00,0.0098
3549.00,0.0099
3548.00,0.0101
3547.00,0.0103
3546.00,0.0106
3545.00,0.0108
3544.00,0.0111
3543.00,0.0115
3542.00,0.0118
3541.00,0.0122
3540.00,0.0127
3539.00,0.0132
3538.00,0.0138
3537.00,0.0144
3536.00,0.0152
3535.00,0.0161
3534.00,0.0171
3533.00,0.0184
3532.00,0.0198
3531.00,0.0216
3530.00,0.0236
3529.00,0.0259
3528.00,0.0285
3527.00,0.0312
3526.00,0.0340
3525.00,0.0367
3524.00,0.0391
3523.00,0.0410
3522.00,0.0425
3521.00,0.0433
3520.00,0.0435
3519.00,0.0432
3518.00,0.0423
3517.00,0.0409
3516.00,0.0392
3515.00,0.0374
3514.00,0.0354
3513.00,0.0333
3512.00,0.0314
3511.00,0.0296
3510.00,0.0279
3509.00,0.0264
3508.00,0.0251
3507.00,0.0241
3506.00,0.0232
3505.00,0.0224
3504.00,0.0219
3503.00,0.0214
3502.00,0.0210
3501.00,0.0207
3500.00,0.0205
3499.00,0.0204
3498.00,0.0203
3497.00,0.0202
3496.00,0.0202
3495.00,0.0202
3494.00,0.0202
3493.00,0.0203
3492.00,0.0204
3491.00,0.0205
3490.00,0.0206
3489.00,0.0207
3488.00,0.0209
3487.00,0.0211
3486.00,0.0213
3485.00,0.0215
3484.00,0.0217
3483.00,0.0220
3482.00,0.0222
3481.00,0.0225
3480.00,0.0228
3479.00,0.0231
3478.00,0.0234
3477.00,0.0237
3476.00,0.0241
3475.00,0.0245
3474.00,0.0249
3473.00,0.0253
3472.00,0.0257
3471.00,0.0262
3470.00,0.0267
3469.00,0.0271
3468.00,0.0276
3467.00,0.0281
3466.00,0.0286
3465.00,0.0292
3464.00,0.0297
3463.00,0.0302
3462.00,0.0308
3461.00,0.0314
3460.00,0.0319
3459.00,0.0325
3458.00,0.0331
3457.00,0.0336
3456.00,0.0342
3455.00,0.0347
3454.00,0.0353
3453.00,0.0358
3452.00,0.0364
3451.00,0.0369
3450.00,0.0375
3449.00,0.0380
3448.00,0.0386
3447.00,0.0391
3446.00,0.0396
3445.00,0.0401
3444.00,0.0406
3443.00,0.0411
3442.00,0.0416
3441.00,0.0421
3440.00,0.0426
3439.00,0.0431
3438.00,0.0436
3437.00,0.0441
3436.00,0.0446
3435.00,0.0451
3434.00,0.0455
3433.00,0.0460
3432.00,0.0464
3431.00,0.0469
3430.00,0.0473
3429.00,0.0478
3428.00,0.0482
3427.00,0.0487
3426.00,0.0492
3425.00,0.0498
3424.00,0.0504
3423.00,0.0510
3422.00,0.0518
3421.00,0.0525
3420.00,0.0533
3419.00,0.0542
3418.00,0.0551
3417.00,0.0560
3416.00,0.0570
3415.00,0.0579
3414.00,0.0589
3413.00,0.0597
3412.00,0.0605
3411.00,0.0611
3410.00,0.0615
3409.00,0.0618
3408.00,0.0618
3407.00,0.0616
3406.00,0.0612
3405.00,0.0606
3404.00,0.0597
3403.00,0.0586
3402.00,0.0573
3401.00,0.0558
3400.00,0.0541
3399.00,0.0522
3398.00,0.0503
3397.00,0.0484
3396.00,0.0466
3395.00,0.0448
3394.00,0.0430
3393.00,0.0414
3392.00,0.0398
3391.00,0.0382
3390.00,0.0368
3389.00,0.0355
3388.00,0.0343
3387.00,0.0332
3386.00,0.0322
3385.00,0.0312
3384.00,0.0304
3383.00,0.0295
3382.00,0.0287
3381.00,0.0280
3380.00,0.0273
3379.00,0.0267
3378.00,0.0261
3377.00,0.0255
3376.00,0.0250
3375.00,0.0244
3374.00,0.0239
3373.00,0.0234
3372.00,0.0230
3371.00,0.0225
3370.00,0.0221
3369.00,0.0217
3368.00,0.0213
3367.00,0.0209
3366.00,0.0205
3365.00,0.0201
3364.00,0.0198
3363.00,0.0195
3362.00,0.0191
3361.00,0.0188
3360.00,0.0185
3359.00,0.0182
3358.00,0.0179
3357.00,0.0177
3356.00,0.0174
3355.00,0.0171
3354.00,0.0169
3353.00,0.0167
3352.00,0.0164
3351.00,0.0162
3350.00,0.0160
3349.00,0.0159
3348.00,0.0157
3347.00,0.0155
3346.00,0.0153
3345.00,0.0151
3344.00,0.0150
3343.00,0.0148
3342.00,0.0147
3341.00,0.0145
3340.00,0.0144
3339.00,0.0142
3338.00,0.0141
3337.00,0.0140
3336.00,0.0138
3335.00,0.0137
3334.00,0.0136
3333.00,0.0135
3332.00,0.0134
3331.00,0.0133
3330.00,0.0132
3329.00,0.0131
3328.00,0.0130
3327.00,0.0129
3326.00,0.0128
3325.00,0.0128
3324.00,0.0127
3323.00,0.0126
3322.00,0.0125
3321.00,0.0124
3320.00,0.0124
3319.00,0.0123
3318.00,0.0122
3317.00,0.0121
3316.00,0.0121
3315.00,0.0120
3314.00,0.0120
3313.00,0.0119
3312.00,0.0118
3311.00,0.0118
3310.00,0.0117
3309.00,0.0117
3308.00,0.0116
3307.00,0.0115
3306.00,0.0115
3305.00,0.0114
3304.00,0.0114
3303.00,0.0113
3302.00,0.0113
3301.00,0.0112
3300.00,0.0112
3299.00,0.0111
3298.00,0.0110
3297.00,0.0110
3296.00,0.0109
3295.00,0.0109
3294.00,0.0108
3293.00,0.0108
3292.00,0.0108
3291.00,0.0107
3290.00,0.0107
3289.00,0.0107
3288.00,0.0107
3287.00,0.0106
3286.00,0.0106
3285.00,0.0105
3284.00,0.0105
3283.00,0.0105
3282.00,0.0104
3281.00,0.0104
3280.00,0.0103
3279.00,0.0103
3278.00,0.0103
3277.00,0.0102
3276.00,0.0102
3275.00,0.0101
3274.00,0.0101
3273.00,0.0101
3272.00,0.0100
3271.00,0.0100
3270.00,0.0100
3269.00,0.0101
3268.00,0.0101
3267.00,0.0101
3266.00,0.0101
3265.00,0.0101
3264.00,0.0101
3263.00,0.0101
3262.00,0.0101
3261.00,0.0101
3260.00,0.0101
3259.00,0.0100
3258.00,0.0100
3257.00,0.0100
3256.00,0.0100
3255.00,0.0100
3254.00,0.0100
3253.00,0.0100
3252.00,0.0100
3251.00,0.0099
3250.00,0.0099
3249.00,0.0099
3248.00,0.0099
3247.00,0.0099
3246.00,0.0099
3245.00,0.0099
3244.00,0.0099
3243.00,0.0099
3242.00,0.0099
3241.00,0.0099
3240.00,0.0098
3239.00,0.0098
3238.00,0.0097
3237.00,0.0097
3236.00,0.0096
3235.00,0.0095
3234.00,0.0095
3233.00,0.0095
3232.00,0.0095
3231.00,0.0095
3230.00,0.0095
3229.00,0.0095
3228.00,0.0095
3227.00,0.0095
3226.00,0.0095
3225.00,0.0095
3224.00,0.0095
3223.00,0.0095
3222.00,0.0095
3221.00,0.0094
3220.00,0.0094
3219.00,0.0094
3218.00,0.0094
3217.00,0.0094
3216.00,0.0094
3215.00,0.0094
3214.00,0.0094
3213.00,0.0094
3212.00,0.0094
3211.00,0.0094
3210.00,0.0094
3209.00,0.0094
3208.00,0.0094
3207.00,0.0094
3206.00,0.0094
3205.00,0.0094
3204.00,0.0094
3203.00,0.0094
3202.00,0.0094
3201.00,0.0093
3200.00,0.0093
3199.00,0.0093
3198.00,0.0093
3197.00,0.0093
3196.00,0.0093
3195.00,0.0093
3194.00,0.0093
3193.00,0.0093
3192.00,0.0093
3191.00,0.0093
3190.00,0.0093
3189.00,0.0093
3188.00,0.0093
3187.00,0.0093
3186.00,0.0093
3185.00,0.0093
3184.00,0.0093
3183.00,0.0093
3182.00,0.0093
3181.00,0.0093
3180.00,0.0094
3179.00,0.0094
3178.00,0.0094
3177.00,0.0094
3176.00,0.0095
3175.00,0.0095
3174.00,0.0095
3173.00,0.0095
3172.00,0.0096
3171.00,0.0096
3170.00,0.0096
3169.00,0.0096
3168.00,0.0096
3167.00,0.0097
3166.00,0.0097
3165.00,0.0097
3164.00,0.0097
3163.00,0.0097
3162.00,0.0097
3161.00,0.0097
3160.00,0.0097
3159.00,0.0097
3158.00,0.0096
3157.00,0.0096
3156.00,0.0095
3155.00,0.0095
3154.00,0.0094
3153.00,0.0094
3152.00,0.0094
3151.00,0.0094
3150.00,0.0095
3149.00,0.0095
3148.00,0.0095
3147.00,0.0095
3146.00,0.0095
3145.00,0.0095
3144.00,0.0095
3143.00,0.0095
3142.00,0.0094
3141.00,0.0094
3140.00,0.0094
3139.00,0.0094
3138.00,0.0094
3137.00,0.0094
3136.00,0.0094
3135.00,0.0095
3134.00,0.0095
3133.00,0.0094
3132.00,0.0094
3131.00,0.0094
3130.00,0.0094
3129.00,0.0094
3128.00,0.0094
3127.00,0.0094
3126.00,0.0094
3125.00,0.0094
3124.00,0.0094
3123.00,0.0093
3122.00,0.0093
3121.00,0.0093
3120.00,0.0093
3119.00,0.0093
3118.00,0.0093
3117.00,0.0093
3116.00,0.0093
3115.00,0.0093
3114.00,0.0093
3113.00,0.0093
3112.00,0.0093
3111.00,0.0093
3110.00,0.0093
3109.00,0.0093
3108.00,0.0093
3107.00,0.0093
3106.00,0.0093
3105.00,0.0094
3104.00,0.0094
3103.00,0.0094
3102.00,0.0094
3101.00,0.0094
3100.00,0.0094
3099.00,0.0094
3098.00,0.0094
3097.00,0.0095
3096.00,0.0095
3095.00,0.0095
3094.00,0.0095
3093.00,0.0095
3092.00,0.0095
3091.00,0.0095
3090.00,0.0096
3089.00,0.0096
3088.00,0.0097
3087.00,0.0097
3086.00,0.0098
3085.00,0.0099
3084.00,0.0101
3083.00,0.0103
3082.00,0.0106
3081.00,0.0111
3080.00,0.0118
3079.00,0.0127
3078.00,0.0138
3077.00,0.0150
3076.00,0.0160
3075.00,0.0167
3074.00,0.0170
3073.00,0.0166
3072.00,0.0159
3071.00,0.0150
3070.00,0.0140
3069.00,0.0130
3068.00,0.0123
3067.00,0.0118
3066.00,0.0113
3065.00,0.0110
3064.00,0.0108
3063.00,0.0107
3062.00,0.0105
3061.00,0.0104
3060.00,0.0104
3059.00,0.0103
3058.00,0.0102
3057.00,0.0101
3056.00,0.0101
3055.00,0.0100
3054.00,0.0100
3053.00,0.0100
3052.00,0.0100
3051.00,0.0100
3050.00,0.0100
3049.00,0.0101
3048.00,0.0101
3047.00,0.0102
3046.00,0.0103
3045.00,0.0104
3044.00,0.0105
3043.00,0.0105
3042.00,0.0106
3041.00,0.0107
3040.00,0.0108
3039.00,0.0109
3038.00,0.0110
3037.00,0.0112
3036.00,0.0113
3035.00,0.0115
3034.00,0.0116
3033.00,0.0117
3032.00,0.0118
3031.00,0.0118
3030.00,0.0117
3029.00,0.0116
3028.00,0.0114
3027.00,0.0112
3026.00,0.0110
3025.00,0.0108
3024.00,0.0107
3023.00,0.0105
3022.00,0.0104
3021.00,0.0102
3020.00,0.0101
3019.00,0.0099
3018.00,0.0098
3017.00,0.0096
3016.00,0.0095
3015.00,0.0093
3014.00,0.0091
3013.00,0.0088
3012.00,0.0086
3011.00,0.0083
3010.00,0.0080
3009.00,0.0076
3008.00,0.0072
3007.00,0.0068
3006.00,0.0063
3005.00,0.0058
3004.00,0.0052
3003.00,0.0047
3002.00,0.0042
3001.00,0.0038
3000.00,0.0034
2999.00,0.0030
2998.00,0.0026
2997.00,0.0023
2996.00,0.0021
2995.00,0.0019
2994.00,0.0018
2993.00,0.0017
2992.00,0.0016
2991.00,0.0016
2990.00,0.0017
2989.00,0.0016
2988.00,0.0014
2987.00,0.0011
2986.00,0.0003
2985.00,-0.0009
2984.00,-0.0024
2983.00,-0.0039
2982.00,-0.0048
2981.00,-0.0048
2980.00,-0.0039
2979.00,-0.0024
2978.00,-0.0006
2977.00,0.0013
2976.00,0.0032
2975.00,0.0050
2974.00,0.0067
2973.00,0.0084
2972.00,0.0103
2971.00,0.0126
2970.00,0.0152
2969.00,0.0179
2968.00,0.0203
2967.00,0.0223
2966.00,0.0238
2965.00,0.0248
2964.00,0.0254
2963.00,0.0258
2962.00,0.0260
2961.00,0.0261
2960.00,0.0259
2959.00,0.0256
2958.00,0.0250
2957.00,0.0242
2956.00,0.0233
2955.00,0.0225
2954.00,0.0216
2953.00,0.0210
2952.00,0.0205
2951.00,0.0202
2950.00,0.0203
2949.00,0.0207
2948.00,0.0216
2947.00,0.0229
2946.00,0.0247
2945.00,0.0267
2944.00,0.0289
2943.00,0.0310
2942.00,0.0328
2941.00,0.0344
2940.00,0.0357
2939.00,0.0370
2938.00,0.0383
2937.00,0.0398
2936.00,0.0414
2935.00,0.0432
2934.00,0.0452
2933.00,0.0473
2932.00,0.0495
2931.00,0.0518
2930.00,0.0542
2929.00,0.0567
2928.00,0.0590
2927.00,0.0609
2926.00,0.0624
2925.00,0.0633
2924.00,0.0636
2923.00,0.0633
2922.00,0.0628
2921.00,0.0622
2920.00,0.0616
2919.00,0.0610
2918.00,0.0605
2917.00,0.0600
2916.00,0.0594
2915.00,0.0586
2914.00,0.0575
2913.00,0.0560
2912.00,0.0543
2911.00,0.0524
2910.00,0.0503
2909.00,0.0482
2908.00,0.0461
2907.00,0.0442
2906.00,0.0424
2905.00,0.0408
2904.00,0.0394
2903.00,0.0383
2902.00,0.0373
2901.00,0.0364
2900.00,0.0355
2899.00,0.0345
2898.00,0.0334
2897.00,0.0321
2896.00,0.0308
2895.00,0.0295
2894.00,0.0283
2893.00,0.0271
2892.00,0.0262
2891.00,0.0254
2890.00,0.0247
2889.00,0.0243
2888.00,0.0240
2887.00,0.0238
2886.00,0.0237
2885.00,0.0235
2884.00,0.0235
2883.00,0.0236
2882.00,0.0239
2881.00,0.0242
2880.00,0.0247
2879.00,0.0253
2878.00,0.0259
2877.00,0.0266
2876.00,0.0272
2875.00,0.0279
2874.00,0.0285
2873.00,0.0291
2872.00,0.0295
2871.00,0.0296
2870.00,0.0296
2869.00,0.0293
2868.00,0.0290
2867.00,0.0287
2866.00,0.0287
2865.00,0.0291
2864.00,0.0300
2863.00,0.0313
2862.00,0.0333
2861.00,0.0359
2860.00,0.0390
2859.00,0.0423
2858.00,0.0456
2857.00,0.0483
2856.00,0.0500
2855.00,0.0503
2854.00,0.0492
2853.00,0.0471
2852.00,0.0442
2851.00,0.0411
2850.00,0.0379
2849.00,0.0349
2848.00,0.0322
2847.00,0.0298
2846.00,0.0277
2845.00,0.0259
2844.00,0.0243
2843.00,0.0231
2842.00,0.0221
2841.00,0.0213
2840.00,0.0207
2839.00,0.0203
2838.00,0.0202
2837.00,0.0204
2836.00,0.0209
2835.00,0.0217
2834.00,0.0230
2833.00,0.0246
2832.00,0.0264
2831.00,0.0281
2830.00,0.0292
2829.00,0.0296
2828.00,0.0290
2827.00,0.0276
2826.00,0.0257
2825.00,0.0237
2824.00,0.0217
2823.00,0.0201
2822.00,0.0187
2821.00,0.0176
2820.00,0.0168
2819.00,0.0161
2818.00,0.0156
2817.00,0.0151
2816.00,0.0148
2815.00,0.0145
2814.00,0.0142
2813.00,0.0140
2812.00,0.0138
2811.00,0.0136
2810.00,0.0135
2809.00,0.0134
2808.00,0.0132
2807.00,0.0131
2806.00,0.0130
2805.00,0.0129
2804.00,0.0127
2803.00,0.0126
2802.00,0.0125
2801.00,0.0124
2800.00,0.0123
2799.00,0.0122
2798.00,0.0121
2797.00,0.0120
2796.00,0.0120
2795.00,0.0119
2794.00,0.0118
2793.00,0.0118
2792.00,0.0117
2791.00,0.0116
2790.00,0.0116
2789.00,0.0115
2788.00,0.0115
2787.00,0.0114
2786.00,0.0114
2785.00,0.0113
2784.00,0.0113
2783.00,0.0112
2782.00,0.0112
2781.00,0.0111
2780.00,0.0111
2779.00,0.0110
2778.00,0.0110
2777.00,0.0110
2776.00,0.0109
2775.00,0.0109
2774.00,0.0109
2773.00,0.0109
2772.00,0.0108
2771.00,0.0108
2770.00,0.0107
2769.00,0.0107
2768.00,0.0107
2767.00,0.0106
2766.00,0.0106
2765.00,0.0106
2764.00,0.0106
2763.00,0.0106
2762.00,0.0105
2761.00,0.0105
2760.00,0.0105
2759.00,0.0105
2758.00,0.0105
2757.00,0.0104
2756.00,0.0104
2755.00,0.0104
2754.00,0.0104
2753.00,0.0104
2752.00,0.0104
2751.00,0.0104
2750.00,0.0104
2749.00,0.0104
2748.00,0.0104
2747.00,0.0104
2746.00,0.0104
2745.00,0.0105
2744.00,0.0105
2743.00,0.0105
2742.00,0.0105
2741.00,0.0106
2740.00,0.0106
2739.00,0.0107
2738.00,0.0107
2737.00,0.0108
2736.00,0.0109
2735.00,0.0110
2734.00,0.0111
2733.00,0.0112
2732.00,0.0114
2731.00,0.0115
2730.00,0.0116
2729.00,0.0117
2728.00,0.0117
2727.00,0.0116
2726.00,0.0115
2725.00,0.0114
2724.00,0.0113
2723.00,0.0111
2722.00,0.0110
2721.00,0.0109
2720.00,0.0108
2719.00,0.0108
2718.00,0.0107
2717.00,0.0106
2716.00,0.0106
2715.00,0.0105
2714.00,0.0105
2713.00,0.0104
2712.00,0.0104
2711.00,0.0104
2710.00,0.0103
2709.00,0.0103
2708.00,0.0103
2707.00,0.0103
2706.00,0.0102
2705.00,0.0102
2704.00,0.0102
2703.00,0.0102
2702.00,0.0101
2701.00,0.0101
2700.00,0.0101
2699.00,0.0101
2698.00,0.0100
2697.00,0.0100
2696.00,0.0100
2695.00,0.0100
2694.00,0.0100
2693.00,0.0100
2692.00,0.0100
2691.00,0.0100
2690.00,0.0100
2689.00,0.0100
2688.00,0.0100
2687.00,0.0100
2686.00,0.0101
2685.00,0.0101
2684.00,0.0101
2683.00,0.0101
2682.00,0.0101
2681.00,0.0101
2680.00,0.0102
2679.00,0.0102
2678.00,0.0102
2677.00,0.0102
2676.00,0.0103
2675.00,0.0103
2674.00,0.0103
2673.00,0.0103
2672.00,0.0103
2671.00,0.0103
2670.00,0.0103
2669.00,0.0103
2668.00,0.0103
2667.00,0.0103
2666.00,0.0103
2665.00,0.0103
2664.00,0.0103
2663.00,0.0102
2662.00,0.0102
2661.00,0.0102
2660.00,0.0102
2659.00,0.0102
2658.00,0.0101
2657.00,0.0101
2656.00,0.0101
2655.00,0.0100
2654.00,0.0100
2653.00,0.0100
2652.00,0.0099
2651.00,0.0099
2650.00,0.0099
2649.00,0.0099
2648.00,0.0098
2647.00,0.0098
2646.00,0.0098
2645.00,0.0097
2644.00,0.0097
2643.00,0.0097
2642.00,0.0097
2641.00,0.0096
2640.00,0.0096
2639.00,0.0096
2638.00,0.0096
2637.00,0.0096
2636.00,0.0097
2635.00,0.0097
2634.00,0.0097
2633.00,0.0097
2632.00,0.0097
2631.00,0.0097
2630.00,0.0097
2629.00,0.0097
2628.00,0.0097
2627.00,0.0097
2626.00,0.0097
2625.00,0.0097
2624.00,0.0097
2623.00,0.0097
2622.00,0.0097
2621.00,0.0097
2620.00,0.0097
2619.00,0.0097
2618.00,0.0097
2617.00,0.0097
2616.00,0.0097
2615.00,0.0097
2614.00,0.0097
2613.00,0.0097
2612.00,0.0097
2611.00,0.0097
2610.00,0.0097
2609.00,0.0097
2608.00,0.0097
2607.00,0.0097
2606.00,0.0097
2605.00,0.0097
2604.00,0.0097
2603.00,0.0097
2602.00,0.0097
2601.00,0.0097
2600.00,0.0097
2599.00,0.0097
2598.00,0.0097
2597.00,0.0097
2596.00,0.0097
2595.00,0.0097
2594.00,0.0097
2593.00,0.0097
2592.00,0.0097
2591.00,0.0097
2590.00,0.0097
2589.00,0.0097
2588.00,0.0097
2587.00,0.0097
2586.00,0.0097
2585.00,0.0097
2584.00,0.0097
2583.00,0.0097
2582.00,0.0097
2581.00,0.0097
2580.00,0.0097
2579.00,0.0097
2578.00,0.0097
2577.00,0.0097
2576.00,0.0097
2575.00,0.0097
2574.00,0.0098
2573.00,0.0098
2572.00,0.0098
2571.00,0.0098
2570.00,0.0098
2569.00,0.0098
2568.00,0.0098
2567.00,0.0098
2566.00,0.0098
2565.00,0.0098
2564.00,0.0097
2563.00,0.0097
2562.00,0.0097
2561.00,0.0097
2560.00,0.0097
2559.00,0.0097
2558.00,0.0097
2557.00,0.0097
2556.00,0.0097
2555.00,0.0097
2554.00,0.0097
2553.00,0.0097
2552.00,0.0097
2551.00,0.0097
2550.00,0.0097
2549.00,0.0097
2548.00,0.0097
2547.00,0.0097
2546.00,0.0096
2545.00,0.0096
2544.00,0.0096
2543.00,0.0096
2542.00,0.0096
2541.00,0.0096
2540.00,0.0096
2539.00,0.0096
2538.00,0.0096
2537.00,0.0096
2536.00,0.0096
2535.00,0.0096
2534.00,0.0096
2533.00,0.0096
2532.00,0.0096
2531.00,0.0096
2530.00,0.0096
2529.00,0.0096
2528.00,0.0096
2527.00,0.0096
2526.00,0.0096
2525.00,0.0096
2524.00,0.0095
2523.00,0.0095
2522.00,0.0095
2521.00,0.0095
2520.00,0.0096
2519.00,0.0096
2518.00,0.0096
2517.00,0.0095
2516.00,0.0095
2515.00,0.0096
2514.00,0.0096
2513.00,0.0096
2512.00,0.0096
2511.00,0.0096
2510.00,0.0096
2509.00,0.0096
2508.00,0.0096
2507.00,0.0095
2506.00,0.0095
2505.00,0.0095
2504.00,0.0095
2503.00,0.0095
2502.00,0.0095
2501.00,0.0096
2500.00,0.0096
2499.00,0.0096
2498.00,0.0096
2497.00,0.0096
2496.00,0.0096
2495.00,0.0096
2494.00,0.0096
2493.00,0.0096
2492.00,0.0096
2491.00,0.0096
2490.00,0.0096
2489.00,0.0096
2488.00,0.0096
2487.00,0.0096
2486.00,0.0096
2485.00,0.0096
2484.00,0.0097
2483.00,0.0097
2482.00,0.0097
2481.00,0.0097
2480.00,0.0097
2479.00,0.0097
2478.00,0.0097
2477.00,0.0097
2476.00,0.0097
2475.00,0.0097
2474.00,0.0097
2473.00,0.0097
2472.00,0.0097
2471.00,0.0097
2470.00,0.0097
2469.00,0.0097
2468.00,0.0097
2467.00,0.0096
2466.00,0.0096
2465.00,0.0097
2464.00,0.0097
2463.00,0.0097
2462.00,0.0097
2461.00,0.0097
2460.00,0.0097
2459.00,0.0097
2458.00,0.0097
2457.00,0.0097
2456.00,0.0097
2455.00,0.0097
2454.00,0.0097
2453.00,0.0098
2452.00,0.0098
2451.00,0.0098
2450.00,0.0098
2449.00,0.0097
2448.00,0.0097
2447.00,0.0097
2446.00,0.0097
2445.00,0.0097
2444.00,0.0096
2443.00,0.0096
2442.00,0.0096
2441.00,0.0095
2440.00,0.0095
2439.00,0.0094
2438.00,0.0094
2437.00,0.0093
2436.00,0.0093
2435.00,0.0093
2434.00,0.0093
2433.00,0.0093
2432.00,0.0093
2431.00,0.0092
2430.00,0.0092
2429.00,0.0092
2428.00,0.0092
2427.00,0.0092
2426.00,0.0092
2425.00,0.0092
2424.00,0.0092
2423.00,0.0092
2422.00,0.0091
2421.00,0.0091
2420.00,0.0091
2419.00,0.0091
2418.00,0.0091
2417.00,0.0091
2416.00,0.0091
2415.00,0.0091
2414.00,0.0091
2413.00,0.0090
2412.00,0.0090
2411.00,0.0090
2410.00,0.0090
2409.00,0.0090
2408.00,0.0090
2407.00,0.0090
2406.00,0.0090
2405.00,0.0090
2404.00,0.0090
2403.00,0.0090
2402.00,0.0090
2401.00,0.0090
2400.00,0.0090
2399.00,0.0090
2398.00,0.0090
2397.00,0.0090
2396.00,0.0090
2395.00,0.0090
2394.00,0.0090
2393.00,0.0090
2392.00,0.0091
2391.00,0.0091
2390.00,0.0091
2389.00,0.0091
2388.00,0.0091
2387.00,0.0091
2386.00,0.0091
2385.00,0.0091
2384.00,0.0091
2383.00,0.0091
2382.00,0.0091
2381.00,0.0091
2380.00,0.0091
2379.00,0.0090
2378.00,0.0090
2377.00,0.0090
2376.00,0.0090
2375.00,0.0090
2374.00,0.0090
2373.00,0.0090
2372.00,0.0090
2371.00,0.0090
2370.00,0.0090
2369.00,0.0090
2368.00,0.0090
2367.00,0.0090
2366.00,0.0090
2365.00,0.0090
2364.00,0.0090
2363.00,0.0089
2362.00,0.0089
2361.00,0.0089
2360.00,0.0089
2359.00,0.0089
2358.00,0.0089
2357.00,0.0089
2356.00,0.0089
2355.00,0.0089
2354.00,0.0090
2353.00,0.0090
2352.00,0.0090
2351.00,0.0089
2350.00,0.0089
2349.00,0.0089
2348.00,0.0088
2347.00,0.0088
2346.00,0.0088
2345.00,0.0088
2344.00,0.0087
2343.00,0.0087
2342.00,0.0087
2341.00,0.0088
2340.00,0.0088
2339.00,0.0087
2338.00,0.0087
2337.00,0.0087
2336.00,0.0087
2335.00,0.0087
2334.00,0.0087
2333.00,0.0087
2332.00,0.0087
2331.00,0.0087
2330.00,0.0087
2329.00,0.0086
2328.00,0.0086
2327.00,0.0086
2326.00,0.0086
2325.00,0.0085
2324.00,0.0086
2323.00,0.0086
2322.00,0.0086
2321.00,0.0085
2320.00,0.0085
2319.00,0.0085
2318.00,0.0085
2317.00,0.0086
2316.00,0.0086
2315.00,0.0086
2314.00,0.0086
2313.00,0.0086
2312.00,0.0086
2311.00,0.0086
2310.00,0.0086
2309.00,0.0086
2308.00,0.0086
2307.00,0.0085
2306.00,0.0085
2305.00,0.0085
2304.00,0.0085
2303.00,0.0085
2302.00,0.0085
2301.00,0.0085
2300.00,0.0085
2299.00,0.0085
2298.00,0.0085
2297.00,0.0084
2296.00,0.0084
2295.00,0.0084
2294.00,0.0084
2293.00,0.0084
2292.00,0.0084
2291.00,0.0084
2290.00,0.0084
2289.00,0.0084
2288.00,0.0084
2287.00,0.0084
2286.00,0.0084
2285.00,0.0084
2284.00,0.0084
2283.00,0.0084
2282.00,0.0084
2281.00,0.0084
2280.00,0.0084
2279.00,0.0084
2278.00,0.0084
2277.00,0.0084
2276.00,0.0084
2275.00,0.0084
2274.00,0.0084
2273.00,0.0084
2272.00,0.0084
2271.00,0.0083
2270.00,0.0083
2269.00,0.0083
2268.00,0.0083
2267.00,0.0083
2266.00,0.0083
2265.00,0.0083
2264.00,0.0083
2263.00,0.0083
2262.00,0.0083
2261.00,0.0083
2260.00,0.0083
2259.00,0.0084
2258.00,0.0084
2257.00,0.0085
2256.00,0.0085
2255.00,0.0085
2254.00,0.0085
2253.00,0.0084
2252.00,0.0084
2251.00,0.0084
2250.00,0.0084
2249.00,0.0084
2248.00,0.0084
2247.00,0.0085
2246.00,0.0084
2245.00,0.0084
2244.00,0.0084
2243.00,0.0084
2242.00,0.0083
2241.00,0.0083
2240.00,0.0084
2239.00,0.0084
2238.00,0.0084
2237.00,0.0084
2236.00,0.0084
2235.00,0.0084
2234.00,0.0084
2233.00,0.0083
2232.00,0.0083
2231.00,0.0083
2230.00,0.0083
2229.00,0.0083
2228.00,0.0083
2227.00,0.0083
2226.00,0.0083
2225.00,0.0084
2224.00,0.0084
2223.00,0.0084
2222.00,0.0084
2221.00,0.0084
2220.00,0.0083
2219.00,0.0084
2218.00,0.0083
2217.00,0.0083
2216.00,0.0083
2215.00,0.0083
2214.00,0.0082
2213.00,0.0083
2212.00,0.0083
2211.00,0.0083
2210.00,0.0084
2209.00,0.0084
2208.00,0.0084
2207.00,0.0083
2206.00,0.0083
2205.00,0.0082
2204.00,0.0082
2203.00,0.0082
2202.00,0.0082
2201.00,0.0082
2200.00,0.0082
2199.00,0.0082
2198.00,0.0081
2197.00,0.0081
2196.00,0.0081
2195.00,0.0080
2194.00,0.0080
2193.00,0.0079
2192.00,0.0079
2191.00,0.0079
2190.00,0.0079
2189.00,0.0080
2188.00,0.0080
2187.00,0.0081
2186.00,0.0081
2185.00,0.0081
2184.00,0.0081
2183.00,0.0081
2182.00,0.0081
2181.00,0.0081
2180.00,0.0081
2179.00,0.0080
2178.00,0.0080
2177.00,0.0080
2176.00,0.0081
2175.00,0.0081
2174.00,0.0081
2173.00,0.0081
2172.00,0.0081
2171.00,0.0081
2170.00,0.0081
2169.00,0.0081
2168.00,0.0082
2167.00,0.0082
2166.00,0.0081
2165.00,0.0080
2164.00,0.0079
2163.00,0.0079
2162.00,0.0079
2161.00,0.0079
2160.00,0.0080
2159.00,0.0080
2158.00,0.0080
2157.00,0.0080
2156.00,0.0080
2155.00,0.0080
2154.00,0.0080
2153.00,0.0080
2152.00,0.0081
2151.00,0.0081
2150.00,0.0081
2149.00,0.0081
2148.00,0.0080
2147.00,0.0080
2146.00,0.0079
2145.00,0.0079
2144.00,0.0080
2143.00,0.0080
2142.00,0.0080
2141.00,0.0081
2140.00,0.0082
2139.00,0.0082
2138.00,0.0082
2137.00,0.0082
2136.00,0.0081
2135.00,0.0081
2134.00,0.0081
2133.00,0.0081
2132.00,0.0081
2131.00,0.0081
2130.00,0.0081
2129.00,0.0081
2128.00,0.0081
2127.00,0.0081
2126.00,0.0081
2125.00,0.0081
2124.00,0.0080
2123.00,0.0080
2122.00,0.0080
2121.00,0.0080
2120.00,0.0079
2119.00,0.0079
2118.00,0.0080
2117.00,0.0080
2116.00,0.0080
2115.00,0.0080
2114.00,0.0080
2113.00,0.0080
2112.00,0.0079
2111.00,0.0079
2110.00,0.0079
2109.00,0.0079
2108.00,0.0079
2107.00,0.0078
2106.00,0.0078
2105.00,0.0077
2104.00,0.0077
2103.00,0.0077
2102.00,0.0076
2101.00,0.0077
2100.00,0.0077
2099.00,0.0077
2098.00,0.0077
2097.00,0.0077
2096.00,0.0077
2095.00,0.0077
2094.00,0.0077
2093.00,0.0078
2092.00,0.0078
2091.00,0.0078
2090.00,0.0077
2089.00,0.0077
2088.00,0.0077
2087.00,0.0077
2086.00,0.0077
2085.00,0.0078
2084.00,0.0078
2083.00,0.0079
2082.00,0.0078
2081.00,0.0078
2080.00,0.0078
2079.00,0.0077
2078.00,0.0077
2077.00,0.0077
2076.00,0.0076
2075.00,0.0076
2074.00,0.0076
2073.00,0.0075
2072.00,0.0075
2071.00,0.0074
2070.00,0.0074
2069.00,0.0074
2068.00,0.0074
2067.00,0.0074
2066.00,0.0073
2065.00,0.0073
2064.00,0.0073
2063.00,0.0073
2062.00,0.0073
2061.00,0.0073
2060.00,0.0073
2059.00,0.0073
2058.00,0.0073
2057.00,0.0073
2056.00,0.0073
2055.00,0.0073
2054.00,0.0072
2053.00,0.0072
2052.00,0.0072
2051.00,0.0072
2050.00,0.0072
2049.00,0.0072
2048.00,0.0073
2047.00,0.0073
2046.00,0.0072
2045.00,0.0071
2044.00,0.0070
2043.00,0.0069
2042.00,0.0068
2041.00,0.0067
2040.00,0.0067
2039.00,0.0067
2038.00,0.0066
2037.00,0.0066
2036.00,0.0065
2035.00,0.0065
2034.00,0.0066
2033.00,0.0067
2032.00,0.0068
2031.00,0.0068
2030.00,0.0067
2029.00,0.0067
2028.00,0.0068
2027.00,0.0068
2026.00,0.0069
2025.00,0.0070
2024.00,0.0070
2023.00,0.0070
2022.00,0.0069
2021.00,0.0069
2020.00,0.0069
2019.00,0.0069
2018.00,0.0069
2017.00,0.0069
2016.00,0.0070
2015.00,0.0071
2014.00,0.0071
2013.00,0.0072
2012.00,0.0072
2011.00,0.0072
2010.00,0.0071
2009.00,0.0071
2008.00,0.0071
2007.00,0.0071
2006.00,0.0070
2005.00,0.0070
2004.00,0.0069
2003.00,0.0069
2002.00,0.0069
2001.00,0.0069
2000.00,0.0070
1999.00,0.0070
1998.00,0.0070
1997.00,0.0071
1996.00,0.0071
1995.00,0.0071
1994.00,0.0071
1993.00,0.0071
1992.00,0.0071
1991.00,0.0072
1990.00,0.0072
1989.00,0.0073
1988.00,0.0073
1987.00,0.0073
1986.00,0.0073
1985.00,0.0073
1984.00,0.0072
1983.00,0.0072
1982.00,0.0072
1981.00,0.0072
1980.00,0.0073
1979.00,0.0072
1978.00,0.0071
1977.00,0.0071
1976.00,0.0071
1975.00,0.0071
1974.00,0.0071
1973.00,0.0071
1972.00,0.0072
1971.00,0.0072
1970.00,0.0072
1969.00,0.0072
1968.00,0.0072
1967.00,0.0071
1966.00,0.0071
1965.00,0.0071
1964.00,0.0071
1963.00,0.0072
1962.00,0.0073
1961.00,0.0074
1960.00,0.0075
1959.00,0.0075
1958.00,0.0075
1957.00,0.0075
1956.00,0.0075
1955.00,0.0075
1954.00,0.0074
1953.00,0.0074
1952.00,0.0075
1951.00,0.0075
1950.00,0.0075
1949.00,0.0075
1948.00,0.0075
1947.00,0.0075
1946.00,0.0075
1945.00,0.0075
1944.00,0.0076
1943.00,0.0076
1942.00,0.0076
1941.00,0.0076
1940.00,0.0076
1939.00,0.0075
1938.00,0.0075
1937.00,0.0075
1936.00,0.0076
1935.00,0.0076
1934.00,0.0076
1933.00,0.0076
1932.00,0.0076
1931.00,0.0076
1930.00,0.0076
1929.00,0.0076
1928.00,0.0076
1927.00,0.0076
1926.00,0.0076
1925.00,0.0076
1924.00,0.0076
1923.00,0.0076
1922.00,0.0075
1921.00,0.0075
1920.00,0.0075
1919.00,0.0075
1918.00,0.0075
1917.00,0.0075
1916.00,0.0075
1915.00,0.0076
1914.00,0.0076
1913.00,0.0076
1912.00,0.0077
1911.00,0.0077
1910.00,0.0077
1909.00,0.0077
1908.00,0.0077
1907.00,0.0077
1906.00,0.0077
1905.00,0.0077
1904.00,0.0078
1903.00,0.0078
1902.00,0.0078
1901.00,0.0078
1900.00,0.0078
1899.00,0.0077
1898.00,0.0077
1897.00,0.0077
1896.00,0.0077
1895.00,0.0077
1894.00,0.0077
1893.00,0.0077
1892.00,0.0077
1891.00,0.0077
1890.00,0.0077
1889.00,0.0077
1888.00,0.0078
1887.00,0.0078
1886.00,0.0078
1885.00,0.0078
1884.00,0.0078
1883.00,0.0078
1882.00,0.0078
1881.00,0.0078
1880.00,0.0078
1879.00,0.0078
1878.00,0.0078
1877.00,0.0078
1876.00,0.0078
1875.00,0.0078
1874.00,0.0078
1873.00,0.0078
1872.00,0.0077
1871.00,0.0077
1870.00,0.0077
1869.00,0.0077
1868.00,0.0077
1867.00,0.0077
1866.00,0.0077
1865.00,0.0077
1864.00,0.0078
1863.00,0.0078
1862.00,0.0078
1861.00,0.0078
1860.00,0.0078
1859.00,0.0078
1858.00,0.0078
1857.00,0.0078
1856.00,0.0078
1855.00,0.0078
1854.00,0.0077
1853.00,0.0077
1852.00,0.0077
1851.00,0.0077
1850.00,0.0077
1849.00,0.0077
1848.00,0.0077
1847.00,0.0077
1846.00,0.0077
1845.00,0.0077
1844.00,0.0077
1843.00,0.0077
1842.00,0.0077
1841.00,0.0077
1840.00,0.0078
1839.00,0.0078
1838.00,0.0078
1837.00,0.0078
1836.00,0.0078
1835.00,0.0078
1834.00,0.0078
1833.00,0.0078
1832.00,0.0078
1831.00,0.0078
1830.00,0.0078
1829.00,0.0078
1828.00,0.0078
1827.00,0.0078
1826.00,0.0078
1825.00,0.0078
1824.00,0.0078
1823.00,0.0079
1822.00,0.0079
1821.00,0.0079
1820.00,0.0080
1819.00,0.0080
1818.00,0.0079
1817.00,0.0079
1816.00,0.0080
1815.00,0.0080
1814.00,0.0080
1813.00,0.0080
1812.00,0.0081
1811.00,0.0081
1810.00,0.0081
1809.00,0.0082
1808.00,0.0083
1807.00,0.0084
1806.00,0.0084
1805.00,0.0085
1804.00,0.0085
1803.00,0.0086
1802.00,0.0086
1801.00,0.0086
1800.00,0.0086
1799.00,0.0086
1798.00,0.0086
1797.00,0.0085
1796.00,0.0085
1795.00,0.0084
1794.00,0.0083
1793.00,0.0082
1792.00,0.0081
1791.00,0.0081
1790.00,0.0080
1789.00,0.0080
1788.00,0.0081
1787.00,0.0081
1786.00,0.0080
1785.00,0.0080
1784.00,0.0081
1783.00,0.0081
1782.00,0.0081
1781.00,0.0081
1780.00,0.0081
1779.00,0.0082
1778.00,0.0082
1777.00,0.0083
1776.00,0.0084
1775.00,0.0085
1774.00,0.0086
1773.00,0.0087
1772.00,0.0087
1771.00,0.0087
1770.00,0.0087
1769.00,0.0086
1768.00,0.0085
1767.00,0.0084
1766.00,0.0083
1765.00,0.0082
1764.00,0.0082
1763.00,0.0081
1762.00,0.0080
1761.00,0.0080
1760.00,0.0080
1759.00,0.0080
1758.00,0.0080
1757.00,0.0080
1756.00,0.0080
1755.00,0.0080
1754.00,0.0079
1753.00,0.0079
1752.00,0.0079
1751.00,0.0078
1750.00,0.0078
1749.00,0.0078
1748.00,0.0078
1747.00,0.0078
1746.00,0.0079
1745.00,0.0079
1744.00,0.0079
1743.00,0.0079
1742.00,0.0079
1741.00,0.0080
1740.00,0.0080
1739.00,0.0080
1738.00,0.0080
1737.00,0.0080
1736.00,0.0080
1735.00,0.0080
1734.00,0.0080
1733.00,0.0080
1732.00,0.0080
1731.00,0.0080
1730.00,0.0080
1729.00,0.0081
1728.00,0.0081
1727.00,0.0081
1726.00,0.0081
1725.00,0.0081
1724.00,0.0082
1723.00,0.0082
1722.00,0.0081
1721.00,0.0081
1720.00,0.0081
1719.00,0.0081
1718.00,0.0081
1717.00,0.0081
1716.00,0.0081
1715.00,0.0081
1714.00,0.0082
1713.00,0.0082
1712.00,0.0083
1711.00,0.0083
1710.00,0.0084
1709.00,0.0084
1708.00,0.0084
1707.00,0.0085
1706.00,0.0085
1705.00,0.0085
1704.00,0.0086
1703.00,0.0086
1702.00,0.0086
1701.00,0.0086
1700.00,0.0087
1699.00,0.0087
1698.00,0.0088
1697.00,0.0088
1696.00,0.0089
1695.00,0.0090
1694.00,0.0089
1693.00,0.0089
1692.00,0.0089
1691.00,0.0089
1690.00,0.0088
1689.00,0.0088
1688.00,0.0088
1687.00,0.0087
1686.00,0.0087
1685.00,0.0087
1684.00,0.0087
1683.00,0.0086
1682.00,0.0086
1681.00,0.0087
1680.00,0.0088
1679.00,0.0088
1678.00,0.0088
1677.00,0.0089
1676.00,0.0089
1675.00,0.0090
1674.00,0.0090
1673.00,0.0090
1672.00,0.0091
1671.00,0.0092
1670.00,0.0093
1669.00,0.0095
1668.00,0.0098
1667.00,0.0100
1666.00,0.0103
1665.00,0.0105
1664.00,0.0108
1663.00,0.0111
1662.00,0.0112
1661.00,0.0113
1660.00,0.0113
1659.00,0.0112
1658.00,0.0112
1657.00,0.0112
1656.00,0.0113
1655.00,0.0115
1654.00,0.0120
1653.00,0.0127
1652.00,0.0136
1651.00,0.0144
1650.00,0.0152
1649.00,0.0166
1648.00,0.0191
1647.00,0.0230
1646.00,0.0276
1645.00,0.0316
1644.00,0.0342
1643.00,0.0351
1642.00,0.0345
1641.00,0.0331
1640.00,0.0316
1639.00,0.0307
1638.00,0.0308
1637.00,0.0324
1636.00,0.0357
1635.00,0.0399
1634.00,0.0439
1633.00,0.0471
1632.00,0.0497
1631.00,0.0518
1630.00,0.0534
1629.00,0.0549
1628.00,0.0567
1627.00,0.0590
1626.00,0.0620
1625.00,0.0656
1624.00,0.0691
1623.00,0.0713
1622.00,0.0709
1621.00,0.0682
1620.00,0.0640
1619.00,0.0588
1618.00,0.0527
1617.00,0.0463
1616.00,0.0404
1615.00,0.0360
1614.00,0.0328
1613.00,0.0304
1612.00,0.0283
1611.00,0.0264
1610.00,0.0247
1609.00,0.0233
1608.00,0.0222
1607.00,0.0212
1606.00,0.0204
1605.00,0.0198
1604.00,0.0193
1603.00,0.0190
1602.00,0.0188
1601.00,0.0188
1600.00,0.0190
1599.00,0.0192
1598.00,0.0197
1597.00,0.0204
1596.00,0.0214
1595.00,0.0228
1594.00,0.0247
1593.00,0.0273
1592.00,0.0308
1591.00,0.0353
1590.00,0.0408
1589.00,0.0471
1588.00,0.0538
1587.00,0.0603
1586.00,0.0664
1585.00,0.0719
1584.00,0.0769
1583.00,0.0809
1582.00,0.0835
1581.00,0.0841
1580.00,0.0827
1579.00,0.0795
1578.00,0.0745
1577.00,0.0679
1576.00,0.0605
1575.00,0.0537
1574.00,0.0486
1573.00,0.0445
1572.00,0.0410
1571.00,0.0375
1570.00,0.0339
1569.00,0.0306
1568.00,0.0279
1567.00,0.0258
1566.00,0.0239
1565.00,0.0222
1564.00,0.0208
1563.00,0.0196
1562.00,0.0188
1561.00,0.0180
1560.00,0.0172
1559.00,0.0165
1558.00,0.0159
1557.00,0.0155
1556.00,0.0153
1555.00,0.0150
1554.00,0.0148
1553.00,0.0145
1552.00,0.0142
1551.00,0.0139
1550.00,0.0137
1549.00,0.0135
1548.00,0.0133
1547.00,0.0131
1546.00,0.0129
1545.00,0.0127
1544.00,0.0125
1543.00,0.0124
1542.00,0.0123
1541.00,0.0123
1540.00,0.0122
1539.00,0.0122
1538.00,0.0122
1537.00,0.0122
1536.00,0.0122
1535.00,0.0122
1534.00,0.0122
1533.00,0.0122
1532.00,0.0122
1531.00,0.0122
1530.00,0.0122
1529.00,0.0122
1528.00,0.0123
1527.00,0.0124
1526.00,0.0125
1525.00,0.0128
1524.00,0.0131
1523.00,0.0136
1522.00,0.0145
1521.00,0.0157
1520.00,0.0170
1519.00,0.0183
1518.00,0.0198
1517.00,0.0213
1516.00,0.0227
1515.00,0.0237
1514.00,0.0241
1513.00,0.0241
1512.00,0.0234
1511.00,0.0224
1510.00,0.0212
1509.00,0.0201
1508.00,0.0190
1507.00,0.0179
1506.00,0.0171
1505.00,0.0166
1504.00,0.0163
1503.00,0.0161
1502.00,0.0159
1501.00,0.0156
1500.00,0.0152
1499.00,0.0148
1498.00,0.0144
1497.00,0.0139
1496.00,0.0134
1495.00,0.0130
1494.00,0.0125
1493.00,0.0122
1492.00,0.0119
1491.00,0.0115
1490.00,0.0111
1489.00,0.0109
1488.00,0.0108
1487.00,0.0107
1486.00,0.0106
1485.00,0.0106
1484.00,0.0106
1483.00,0.0106
1482.00,0.0106
1481.00,0.0106
1480.00,0.0107
1479.00,0.0107
1478.00,0.0108
1477.00,0.0109
1476.00,0.0109
1475.00,0.0110
1474.00,0.0114
1473.00,0.0122
1472.00,0.0138
1471.00,0.0160
1470.00,0.0186
1469.00,0.0215
1468.00,0.0243
1467.00,0.0265
1466.00,0.0279
1465.00,0.0287
1464.00,0.0292
1463.00,0.0299
1462.00,0.0308
1461.00,0.0319
1460.00,0.0329
1459.00,0.0338
1458.00,0.0348
1457.00,0.0363
1456.00,0.0382
1455.00,0.0404
1454.00,0.0432
1453.00,0.0468
1452.00,0.0514
1451.00,0.0568
1450.00,0.0629
1449.00,0.0701
1448.00,0.0778
1447.00,0.0851
1446.00,0.0913
1445.00,0.0960
1444.00,0.0991
1443.00,0.1005
1442.00,0.1005
1441.00,0.0998
1440.00,0.0985
1439.00,0.0967
1438.00,0.0945
1437.00,0.0917
1436.00,0.0884
1435.00,0.0849
1434.00,0.0816
1433.00,0.0783
1432.00,0.0745
1431.00,0.0700
1430.00,0.0646
1429.00,0.0585
1428.00,0.0520
1427.00,0.0458
1426.00,0.0402
1425.00,0.0352
1424.00,0.0310
1423.00,0.0277
1422.00,0.0253
1421.00,0.0233
1420.00,0.0216
1419.00,0.0200
1418.00,0.0188
1417.00,0.0178
1416.00,0.0171
1415.00,0.0164
1414.00,0.0158
1413.00,0.0152
1412.00,0.0146
1411.00,0.0141
1410.00,0.0137
1409.00,0.0132
1408.00,0.0128
1407.00,0.0124
1406.00,0.0121
1405.00,0.0116
1404.00,0.0112
1403.00,0.0108
1402.00,0.0103
1401.00,0.0098
1400.00,0.0093
1399.00,0.0088
1398.00,0.0083
1397.00,0.0079
1396.00,0.0075
1395.00,0.0071
1394.00,0.0067
1393.00,0.0065
1392.00,0.0063
1391.00,0.0063
1390.00,0.0063
1389.00,0.0064
1388.00,0.0064
1387.00,0.0067
1386.00,0.0071
1385.00,0.0077
1384.00,0.0086
1383.00,0.0099
1382.00,0.0118
1381.00,0.0145
1380.00,0.0181
1379.00,0.0227
1378.00,0.0278
1377.00,0.0327
1376.00,0.0365
1375.00,0.0384
1374.00,0.0383
1373.00,0.0365
1372.00,0.0341
1371.00,0.0317
1370.00,0.0295
1369.00,0.0276
1368.00,0.0260
1367.00,0.0246
1366.00,0.0234
1365.00,0.0223
1364.00,0.0211
1363.00,0.0200
1362.00,0.0191
1361.00,0.0184
1360.00,0.0179
1359.00,0.0175
1358.00,0.0173
1357.00,0.0172
1356.00,0.0172
1355.00,0.0173
1354.00,0.0174
1353.00,0.0176
1352.00,0.0179
1351.00,0.0181
1350.00,0.0184
1349.00,0.0188
1348.00,0.0194
1347.00,0.0201
1346.00,0.0208
1345.00,0.0216
1344.00,0.0223
1343.00,0.0228
1342.00,0.0231
1341.00,0.0231
1340.00,0.0227
1339.00,0.0220
1338.00,0.0211
1337.00,0.0204
1336.00,0.0199
1335.00,0.0198
1334.00,0.0201
1333.00,0.0207
1332.00,0.0216
1331.00,0.0227
1330.00,0.0238
1329.00,0.0248
1328.00,0.0258
1327.00,0.0267
1326.00,0.0276
1325.00,0.0285
1324.00,0.0290
1323.00,0.0290
1322.00,0.0284
1321.00,0.0273
1320.00,0.0263
1319.00,0.0256
1318.00,0.0258
1317.00,0.0269
1316.00,0.0291
1315.00,0.0321
1314.00,0.0357
1313.00,0.0391
1312.00,0.0416
1311.00,0.0428
1310.00,0.0427
1309.00,0.0416
1308.00,0.0403
1307.00,0.0393
1306.00,0.0391
1305.00,0.0398
1304.00,0.0409
1303.00,0.0422
1302.00,0.0433
1301.00,0.0439
1300.00,0.0440
1299.00,0.0437
1298.00,0.0430
1297.00,0.0420
1296.00,0.0409
1295.00,0.0395
1294.00,0.0381
1293.00,0.0367
1292.00,0.0354
1291.00,0.0342
1290.00,0.0331
1289.00,0.0324
1288.00,0.0321
1287.00,0.0324
1286.00,0.0334
1285.00,0.0348
1284.00,0.0365
1283.00,0.0384
1282.00,0.0402
1281.00,0.0417
1280.00,0.0427
1279.00,0.0433
1278.00,0.0434
1277.00,0.0428
1276.00,0.0418
1275.00,0.0402
1274.00,0.0383
1273.00,0.0359
1272.00,0.0333
1271.00,0.0305
1270.00,0.0276
1269.00,0.0250
1268.00,0.0225
1267.00,0.0204
1266.00,0.0186
1265.00,0.0172
1264.00,0.0160
1263.00,0.0150
1262.00,0.0142
1261.00,0.0135
1260.00,0.0130
1259.00,0.0125
1258.00,0.0120
1257.00,0.0117
1256.00,0.0114
1255.00,0.0113
1254.00,0.0113
1253.00,0.0116
1252.00,0.0122
1251.00,0.0131
1250.00,0.0142
1249.00,0.0153
1248.00,0.0162
1247.00,0.0168
1246.00,0.0174
1245.00,0.0183
1244.00,0.0198
1243.00,0.0222
1242.00,0.0256
1241.00,0.0300
1240.00,0.0350
1239.00,0.0400
1238.00,0.0444
1237.00,0.0474
1236.00,0.0490
1235.00,0.0492
1234.00,0.0486
1233.00,0.0473
1232.00,0.0456
1231.00,0.0437
1230.00,0.0423
1229.00,0.0421
1228.00,0.0435
1227.00,0.0464
1226.00,0.0506
1225.00,0.0553
1224.00,0.0605
1223.00,0.0658
1222.00,0.0715
1221.00,0.0781
1220.00,0.0859
1219.00,0.0951
1218.00,0.1050
1217.00,0.1147
1216.00,0.1227
1215.00,0.1279
1214.00,0.1293
1213.00,0.1270
1212.00,0.1217
1211.00,0.1144
1210.00,0.1061
1209.00,0.0978
1208.00,0.0902
1207.00,0.0834
1206.00,0.0775
1205.00,0.0720
1204.00,0.0667
1203.00,0.0613
1202.00,0.0559
1201.00,0.0508
1200.00,0.0459
1199.00,0.0416
1198.00,0.0380
1197.00,0.0350
1196.00,0.0327
1195.00,0.0310
1194.00,0.0298
1193.00,0.0291
1192.00,0.0289
1191.00,0.0291
1190.00,0.0296
1189.00,0.0302
1188.00,0.0308
1187.00,0.0315
1186.00,0.0323
1185.00,0.0332
1184.00,0.0341
1183.00,0.0348
1182.00,0.0353
1181.00,0.0357
1180.00,0.0359
1179.00,0.0361
1178.00,0.0363
1177.00,0.0365
1176.00,0.0368
1175.00,0.0375
1174.00,0.0389
1173.00,0.0405
1172.00,0.0414
1171.00,0.0403
1170.00,0.0372
1169.00,0.0327
1168.00,0.0280
1167.00,0.0239
1166.00,0.0206
1165.00,0.0181
1164.00,0.0161
1163.00,0.0146
1162.00,0.0136
1161.00,0.0129
1160.00,0.0125
1159.00,0.0123
1158.00,0.0126
1157.00,0.0133
1156.00,0.0149
1155.00,0.0177
1154.00,0.0222
1153.00,0.0282
1152.00,0.0348
1151.00,0.0400
1150.00,0.0417
1149.00,0.0392
1148.00,0.0337
1147.00,0.0273
1146.00,0.0218
1145.00,0.0178
1144.00,0.0153
1143.00,0.0137
1142.00,0.0127
1141.00,0.0122
1140.00,0.0121
1139.00,0.0123
1138.00,0.0127
1137.00,0.0133
1136.00,0.0139
1135.00,0.0144
1134.00,0.0145
1133.00,0.0143
1132.00,0.0137
1131.00,0.0129
1130.00,0.0121
1129.00,0.0113
1128.00,0.0107
1127.00,0.0103
1126.00,0.0100
1125.00,0.0097
1124.00,0.0096
1123.00,0.0096
1122.00,0.0096
1121.00,0.0097
1120.00,0.0098
1119.00,0.0099
1118.00,0.0101
1117.00,0.0104
1116.00,0.0107
1115.00,0.0110
1114.00,0.0113
1113.00,0.0116
1112.00,0.0118
1111.00,0.0121
1110.00,0.0124
1109.00,0.0129
1108.00,0.0135
1107.00,0.0142
1106.00,0.0150
1105.00,0.0159
1104.00,0.0168
1103.00,0.0178
1102.00,0.0190
1101.00,0.0203
1100.00,0.0215
1099.00,0.0222
1098.00,0.0221
1097.00,0.0211
1096.00,0.0195
1095.00,0.0177
1094.00,0.0161
1093.00,0.0148
1092.00,0.0138
1091.00,0.0130
1090.00,0.0124
1089.00,0.0119
1088.00,0.0116
1087.00,0.0116
1086.00,0.0119
1085.00,0.0125
1084.00,0.0136
1083.00,0.0151
1082.00,0.0169
1081.00,0.0187
1080.00,0.0200
1079.00,0.0205
1078.00,0.0200
1077.00,0.0189
1076.00,0.0174
1075.00,0.0159
1074.00,0.0146
1073.00,0.0137
1072.00,0.0130
1071.00,0.0125
1070.00,0.0121
1069.00,0.0119
1068.00,0.0119
1067.00,0.0119
1066.00,0.0121
1065.00,0.0124
1064.00,0.0127
1063.00,0.0132
1062.00,0.0139
1061.00,0.0148
1060.00,0.0161
1059.00,0.0180
1058.00,0.0208
1057.00,0.0248
1056.00,0.0302
1055.00,0.0366
1054.00,0.0431
1053.00,0.0486
1052.00,0.0522
1051.00,0.0537
1050.00,0.0532
1049.00,0.0509
1048.00,0.0469
1047.00,0.0421
1046.00,0.0374
1045.00,0.0337
1044.00,0.0314
1043.00,0.0303
1042.00,0.0302
1041.00,0.0307
1040.00,0.0318
1039.00,0.0333
1038.00,0.0354
1037.00,0.0386
1036.00,0.0431
1035.00,0.0488
1034.00,0.0549
1033.00,0.0602
1032.00,0.0632
1031.00,0.0633
1030.00,0.0606
1029.00,0.0565
1028.00,0.0522
1027.00,0.0488
1026.00,0.0472
1025.00,0.0478
1024.00,0.0506
1023.00,0.0557
1022.00,0.0624
1021.00,0.0697
1020.00,0.0759
1019.00,0.0793
1018.00,0.0792
1017.00,0.0759
1016.00,0.0707
1015.00,0.0648
1014.00,0.0591
1013.00,0.0538
1012.00,0.0494
1011.00,0.0461
1010.00,0.0441
1009.00,0.0431
1008.00,0.0431
1007.00,0.0439
1006.00,0.0457
1005.00,0.0483
1004.00,0.0512
1003.00,0.0537
1002.00,0.0551
1001.00,0.0550
1000.00,0.0531
999.00,0.0497
998.00,0.0451
997.00,0.0404
996.00,0.0360
995.00,0.0326
994.00,0.0301
993.00,0.0285
992.00,0.0276
991.00,0.0275
990.00,0.0280
989.00,0.0288
988.00,0.0298
987.00,0.0307
986.00,0.0315
985.00,0.0318
984.00,0.0314
983.00,0.0304
982.00,0.0287
981.00,0.0267
980.00,0.0249
979.00,0.0236
978.00,0.0226
977.00,0.0218
976.00,0.0209
975.00,0.0201
974.00,0.0193
973.00,0.0187
972.00,0.0184
971.00,0.0185
970.00,0.0189
969.00,0.0197
968.00,0.0207
967.00,0.0219
966.00,0.0233
965.00,0.0250
964.00,0.0271
963.00,0.0293
962.00,0.0311
961.00,0.0317
960.00,0.0309
959.00,0.0286
958.00,0.0254
957.00,0.0221
956.00,0.0191
955.00,0.0167
954.00,0.0148
953.00,0.0135
952.00,0.0125
951.00,0.0119
950.00,0.0115
949.00,0.0112
948.00,0.0110
947.00,0.0109
946.00,0.0107
945.00,0.0106
944.00,0.0105
943.00,0.0105
942.00,0.0105
941.00,0.0105
940.00,0.0105
939.00,0.0106
938.00,0.0108
937.00,0.0111
936.00,0.0114
935.00,0.0118
934.00,0.0123
933.00,0.0129
932.00,0.0136
931.00,0.0143
930.00,0.0150
929.00,0.0155
928.00,0.0159
927.00,0.0161
926.00,0.0163
925.00,0.0164
924.00,0.0164
923.00,0.0165
922.00,0.0166
921.00,0.0168
920.00,0.0171
919.00,0.0177
918.00,0.0185
917.00,0.0194
916.00,0.0201
915.00,0.0206
914.00,0.0207
913.00,0.0205
912.00,0.0202
911.00,0.0201
910.00,0.0202
909.00,0.0208
908.00,0.0218
907.00,0.0233
906.00,0.0253
905.00,0.0278
904.00,0.0306
903.00,0.0340
902.00,0.0382
901.00,0.0439
900.00,0.0515
899.00,0.0609
898.00,0.0706
897.00,0.0784
896.00,0.0820
895.00,0.0806
894.00,0.0752
893.00,0.0678
892.00,0.0605
891.00,0.0545
890.00,0.0508
889.00,0.0498
888.00,0.0522
887.00,0.0584
886.00,0.0680
885.00,0.0793
884.00,0.0890
883.00,0.0935
882.00,0.0908
881.00,0.0822
880.00,0.0709
879.00,0.0599
878.00,0.0510
877.00,0.0445
876.00,0.0403
875.00,0.0377
874.00,0.0365
873.00,0.0366
872.00,0.0379
871.00,0.0397
870.00,0.0412
869.00,0.0416
868.00,0.0408
867.00,0.0396
866.00,0.0392
865.00,0.0404
864.00,0.0433
863.00,0.0471
862.00,0.0503
861.00,0.0522
860.00,0.0524
859.00,0.0517
858.00,0.0510
857.00,0.0512
856.00,0.0522
855.00,0.0538
854.00,0.0555
853.00,0.0572
852.00,0.0586
851.00,0.0593
850.00,0.0591
849.00,0.0576
848.00,0.0551
847.00,0.0524
846.00,0.0499
845.00,0.0482
844.00,0.0470
843.00,0.0460
842.00,0.0449
841.00,0.0438
840.00,0.0427
839.00,0.0420
838.00,0.0419
837.00,0.0423
836.00,0.0432
835.00,0.0446
834.00,0.0464
833.00,0.0485
832.00,0.0507
831.00,0.0528
830.00,0.0546
829.00,0.0561
828.00,0.0568
827.00,0.0564
826.00,0.0549
825.00,0.0522
824.00,0.0487
823.00,0.0449
822.00,0.0410
821.00,0.0373
820.00,0.0338
819.00,0.0308
818.00,0.0283
817.00,0.0264
816.00,0.0251
815.00,0.0241
814.00,0.0234
813.00,0.0229
812.00,0.0225
811.00,0.0224
810.00,0.0230
809.00,0.0247
808.00,0.0281
807.00,0.0333
806.00,0.0396
805.00,0.0451
804.00,0.0476
803.00,0.0465
802.00,0.0428
801.00,0.0381
800.00,0.0338
799.00,0.0303
798.00,0.0276
797.00,0.0257
796.00,0.0243
795.00,0.0234
794.00,0.0230
793.00,0.0228
792.00,0.0227
791.00,0.0226
790.00,0.0223
789.00,0.0221
788.00,0.0220
787.00,0.0222
786.00,0.0225
785.00,0.0225
784.00,0.0221
783.00,0.0214
782.00,0.0207
781.00,0.0201
780.00,0.0198
779.00,0.0197
778.00,0.0197
777.00,0.0196
776.00,0.0195
775.00,0.0193
774.00,0.0191
773.00,0.0190
772.00,0.0191
771.00,0.0193
770.00,0.0193
769.00,0.0192
768.00,0.0187
767.00,0.0180
766.00,0.0174
765.00,0.0167
764.00,0.0162
763.00,0.0159
762.00,0.0156
761.00,0.0155
760.00,0.0155
759.00,0.0156
758.00,0.0158
757.00,0.0163
756.00,0.0170
755.00,0.0181
754.00,0.0196
753.00,0.0213
752.00,0.0226
751.00,0.0236
750.00,0.0243
749.00,0.0247
748.00,0.0246
747.00,0.0237
746.00,0.0222
745.00,0.0205
744.00,0.0190
743.00,0.0178
742.00,0.0170
741.00,0.0165
740.00,0.0161
739.00,0.0159
738.00,0.0159
737.00,0.0162
736.00,0.0167
735.00,0.0175
734.00,0.0188
733.00,0.0203
732.00,0.0219
731.00,0.0230
730.00,0.0230
729.00,0.0222
728.00,0.0209
727.00,0.0197
726.00,0.0189
725.00,0.0184
724.00,0.0181
723.00,0.0179
722.00,0.0178
721.00,0.0177
720.00,0.0176
719.00,0.0175
718.00,0.0172
717.00,0.0167
716.00,0.0160
715.00,0.0155
714.00,0.0151
713.00,0.0149
712.00,0.0148
711.00,0.0148
710.00,0.0147
709.00,0.0144
708.00,0.0141
707.00,0.0137
706.00,0.0134
705.00,0.0132
704.00,0.0131
703.00,0.0130
702.00,0.0129
701.00,0.0129
700.00,0.0128
699.00,0.0128
698.00,0.0128
697.00,0.0128
696.00,0.0128
695.00,0.0128
694.00,0.0128
693.00,0.0128
692.00,0.0128
691.00,0.0129
690.00,0.0129
689.00,0.0130
688.00,0.0130
687.00,0.0131
686.00,0.0132
685.00,0.0133
684.00,0.0133
683.00,0.0134
682.00,0.0136
681.00,0.0138
680.00,0.0140
679.00,0.0143
678.00,0.0146
677.00,0.0150
676.00,0.0154
675.00,0.0159
674.00,0.0166
673.00,0.0175
672.00,0.0186
671.00,0.0197
670.00,0.0209
669.00,0.0220
668.00,0.0228
667.00,0.0234
666.00,0.0238
665.00,0.0242
664.00,0.0245
663.00,0.0248
662.00,0.0250
661.00,0.0249
660.00,0.0249
659.00,0.0249
658.00,0.0248
657.00,0.0246
656.00,0.0243
655.00,0.0239
654.00,0.0238
653.00,0.0239
652.00,0.0245
651.00,0.0254
650.00,0.0264
649.00,0.0270
648.00,0.0271
647.00,0.0265
646.00,0.0254
645.00,0.0241
644.00,0.0228
643.00,0.0216
642.00,0.0207
641.00,0.0200
640.00,0.0196
639.00,0.0194
638.00,0.0192
637.00,0.0192
636.00,0.0193
635.00,0.0195
634.00,0.0198
633.00,0.0201
632.00,0.0205
631.00,0.0209
630.00,0.0214
629.00,0.0220
628.00,0.0225
627.00,0.0231
626.00,0.0236
625.00,0.0241
624.00,0.0245
623.00,0.0246
622.00,0.0244
621.00,0.0238
620.00,0.0228
619.00,0.0215
618.00,0.0203
617.00,0.0194
616.00,0.0192
615.00,0.0199
614.00,0.0215
613.00,0.0239
612.00,0.0264
611.00,0.0282
610.00,0.0287
609.00,0.0282
608.00,0.0274
607.00,0.0268
606.00,0.0269
605.00,0.0274
604.00,0.0281
603.00,0.0287
602.00,0.0293
601.00,0.0302
600.00,0.0313
599.00,0.0324
598.00,0.0329
597.00,0.0329
596.00,0.0326
595.00,0.0325
594.00,0.0328
593.00,0.0336
592.00,0.0350
591.00,0.0369
590.00,0.0393
589.00,0.0417
588.00,0.0438
587.00,0.0452
586.00,0.0456
585.00,0.0451
584.00,0.0438
583.00,0.0420
582.00,0.0400
581.00,0.0379
580.00,0.0359
579.00,0.0342
578.00,0.0329
577.00,0.0321
576.00,0.0318
575.00,0.0319
574.00,0.0322
573.00,0.0327
572.00,0.0332
571.00,0.0339
570.00,0.0344
569.00,0.0350
568.00,0.0354
567.00,0.0358
566.00,0.0362
565.00,0.0366
564.00,0.0369
563.00,0.0371
562.00,0.0372
561.00,0.0372
560.00,0.0371
559.00,0.0370
558.00,0.0369
557.00,0.0368
556.00,0.0368
555.00,0.0369
554.00,0.0372
553.00,0.0379
552.00,0.0390
551.00,0.0404
550.00,0.0416
549.00,0.0425
548.00,0.0433
547.00,0.0443
546.00,0.0456
545.00,0.0469
544.00,0.0478
543.00,0.0482
542.00,0.0485
541.00,0.0493
540.00,0.0509
539.00,0.0533
538.00,0.0564
537.00,0.0594
536.00,0.0616
535.00,0.0624
534.00,0.0618
533.00,0.0605
532.00,0.0592
531.00,0.0580
530.00,0.0571
529.00,0.0567
528.00,0.0576
527.00,0.0599
526.00,0.0635
525.00,0.0680
524.00,0.0725
523.00,0.0765
522.00,0.0787
521.00,0.0780
520.00,0.0739
519.00,0.0675
518.00,0.0606
517.00,0.0550
516.00,0.0509
515.00,0.0483
514.00,0.0468
513.00,0.0462
512.00,0.0461
511.00,0.0466
510.00,0.0474
509.00,0.0486
508.00,0.0503
507.00,0.0525
506.00,0.0550
505.00,0.0579
504.00,0.0610
503.00,0.0644
502.00,0.0679
501.00,0.0714
500.00,0.0746
499.00,0.0773
498.00,0.0796
497.00,0.0815
496.00,0.0830
495.00,0.0839
494.00,0.0842
493.00,0.0840
492.00,0.0834
491.00,0.0827
490.00,0.0819
489.00,0.0812
488.00,0.0808
487.00,0.0805
486.00,0.0802
485.00,0.0799
484.00,0.0795
483.00,0.0788
482.00,0.0775
481.00,0.0757
480.00,0.0735
479.00,0.0712
478.00,0.0692
477.00,0.0678
476.00,0.0670
475.00,0.0669
474.00,0.0672
473.00,0.0680
472.00,0.0692
471.00,0.0706
470.00,0.0720
469.00,0.0734
468.00,0.0747
467.00,0.0758
466.00,0.0765
465.00,0.0768
464.00,0.0769
463.00,0.0769
462.00,0.0767
461.00,0.0764
460.00,0.0761
459.00,0.0756
458.00,0.0749
457.00,0.0743
456.00,0.0740
455.00,0.0738
454.00,0.0737
453.00,0.0735
452.00,0.0731
451.00,0.0724
450.00,0.0713
449.00,0.0699
448.00,0.0685
447.00,0.0668
446.00,0.0651
445.00,0.0635
444.00,0.0623
443.00,0.0614
442.00,0.0606
441.00,0.0600
440.00,0.0595
439.00,0.0592
438.00,0.0591
437.00,0.0590
436.00,0.0587
435.00,0.0583
434.00,0.0578
433.00,0.0576
432.00,0.0579
431.00,0.0590
430.00,0.0609
429.00,0.0636
428.00,0.0671
427.00,0.0707
426.00,0.0738
425.00,0.0761
424.00,0.0774
423.00,0.0776
422.00,0.0767
421.00,0.0753
420.00,0.0739
419.00,0.0728
418.00,0.0720
417.00,0.0719
416.00,0.0722
415.00,0.0727
414.00,0.0733
413.00,0.0741
412.00,0.0752
411.00,0.0764
410.00,0.0778
409.00,0.0796
408.00,0.0818
407.00,0.0842
406.00,0.0861
405.00,0.0878
404.00,0.0894
403.00,0.0908
402.00,0.0918
401.00,0.0932
400.00,0.0952
