Created as New Dataset,Sample 374 By YargerLab Date Wednesday, October 23 2024
cm-1,A
4000.00,0.0011
3999.00,0.0011
3998.00,0.0011
3997.00,0.0011
3996.00,0.0011
3995.00,0.0011
3994.00,0.0011
3993.00,0.0011
3992.00,0.0011
3991.00,0.0011
3990.00,0.0011
3989.00,0.0011
3988.00,0.0011
3987.00,0.0011
3986.00,0.0011
3985.00,0.0011
3984.00,0.0011
3983.00,0.0011
3982.00,0.0011
3981.00,0.0011
3980.00,0.0011
3979.00,0.0011
3978.00,0.0011
3977.00,0.0011
3976.00,0.0011
3975.00,0.0011
3974.00,0.0011
3973.00,0.0010
3972.00,0.0010
3971.00,0.0010
3970.00,0.0010
3969.00,0.0010
3968.00,0.0010
3967.00,0.0010
3966.00,0.0010
3965.00,0.0010
3964.00,0.0010
3963.00,0.0010
3962.00,0.0010
3961.00,0.0010
3960.00,0.0010
3959.00,0.0010
3958.00,0.0010
3957.00,0.0010
3956.00,0.0010
3955.00,0.0010
3954.00,0.0010
3953.00,0.0010
3952.00,0.0010
3951.00,0.0011
3950.00,0.0011
3949.00,0.0011
3948.00,0.0011
3947.00,0.0011
3946.00,0.0011
3945.00,0.0011
3944.00,0.0011
3943.00,0.0011
3942.00,0.0010
3941.00,0.0010
3940.00,0.0010
3939.00,0.0010
3938.00,0.0010
3937.00,0.0010
3936.00,0.0010
3935.00,0.0010
3934.00,0.0010
3933.00,0.0010
3932.00,0.0010
3931.00,0.0010
3930.00,0.0010
3929.00,0.0010
3928.00,0.0010
3927.00,0.0010
3926.00,0.0010
3925.00,0.0010
3924.00,0.0011
3923.00,0.0011
3922.00,0.0011
3921.00,0.0011
3920.00,0.0011
3919.00,0.0010
3918.00,0.0010
3917.00,0.0010
3916.00,0.0010
3915.00,0.0010
3914.00,0.0010
3913.00,0.0010
3912.00,0.0009
3911.00,0.0009
3910.00,0.0009
3909.00,0.0009
3908.00,0.0010
3907.00,0.0010
3906.00,0.0010
3905.00,0.0011
3904.00,0.0011
3903.00,0.0011
3902.00,0.0011
3901.00,0.0011
3900.00,0.0011
3899.00,0.0010
3898.00,0.0010
3897.00,0.0010
3896.00,0.0010
3895.00,0.0010
3894.00,0.0010
3893.00,0.0009
3892.00,0.0009
3891.00,0.0009
3890.00,0.0009
3889.00,0.0010
3888.00,0.0010
3887.00,0.0010
3886.00,0.0010
3885.00,0.0010
3884.00,0.0010
3883.00,0.0010
3882.00,0.0010
3881.00,0.0010
3880.00,0.0009
3879.00,0.0009
3878.00,0.0010
3877.00,0.0010
3876.00,0.0010
3875.00,0.0009
3874.00,0.0010
3873.00,0.0010
3872.00,0.0010
3871.00,0.0010
3870.00,0.0009
3869.00,0.0009
3868.00,0.0010
3867.00,0.0010
3866.00,0.0010
3865.00,0.0009
3864.00,0.0009
3863.00,0.0009
3862.00,0.0009
3861.00,0.0009
3860.00,0.0009
3859.00,0.0009
3858.00,0.0009
3857.00,0.0009
3856.00,0.0010
3855.00,0.0010
3854.00,0.0009
3853.00,0.0010
3852.00,0.0010
3851.00,0.0010
3850.00,0.0009
3849.00,0.0009
3848.00,0.0009
3847.00,0.0009
3846.00,0.0009
3845.00,0.0009
3844.00,0.0009
3843.00,0.0009
3842.00,0.0010
3841.00,0.0010
3840.00,0.0010
3839.00,0.0009
3838.00,0.0009
3837.00,0.0009
3836.00,0.0009
3835.00,0.0009
3834.00,0.0009
3833.00,0.0009
3832.00,0.0008
3831.00,0.0008
3830.00,0.0008
3829.00,0.0009
3828.00,0.0008
3827.00,0.0008
3826.00,0.0009
3825.00,0.0009
3824.00,0.0009
3823.00,0.0009
3822.00,0.0009
3821.00,0.0009
3820.00,0.0009
3819.00,0.0009
3818.00,0.0009
3817.00,0.0008
3816.00,0.0008
3815.00,0.0008
3814.00,0.0008
3813.00,0.0008
3812.00,0.0008
3811.00,0.0008
3810.00,0.0008
3809.00,0.0008
3808.00,0.0008
3807.00,0.0008
3806.00,0.0008
3805.00,0.0009
3804.00,0.0009
3803.00,0.0009
3802.00,0.0009
3801.00,0.0009
3800.00,0.0009
3799.00,0.0009
3798.00,0.0009
3797.00,0.0008
3796.00,0.0008
3795.00,0.0008
3794.00,0.0008
3793.00,0.0008
3792.00,0.0008
3791.00,0.0008
3790.00,0.0008
3789.00,0.0008
3788.00,0.0008
3787.00,0.0008
3786.00,0.0008
3785.00,0.0008
3784.00,0.0008
3783.00,0.0008
3782.00,0.0008
3781.00,0.0009
3780.00,0.0009
3779.00,0.0009
3778.00,0.0009
3777.00,0.0009
3776.00,0.0009
3775.00,0.0008
3774.00,0.0008
3773.00,0.0008
3772.00,0.0008
3771.00,0.0008
3770.00,0.0008
3769.00,0.0009
3768.00,0.0009
3767.00,0.0009
3766.00,0.0009
3765.00,0.0008
3764.00,0.0008
3763.00,0.0008
3762.00,0.0009
3761.00,0.0009
3760.00,0.0009
3759.00,0.0009
3758.00,0.0009
3757.00,0.0009
3756.00,0.0009
3755.00,0.0009
3754.00,0.0009
3753.00,0.0009
3752.00,0.0009
3751.00,0.0010
3750.00,0.0010
3749.00,0.0010
3748.00,0.0010
3747.00,0.0011
3746.00,0.0010
3745.00,0.0010
3744.00,0.0010
3743.00,0.0010
3742.00,0.0010
3741.00,0.0010
3740.00,0.0010
3739.00,0.0010
3738.00,0.0010
3737.00,0.0010
3736.00,0.0010
3735.00,0.0011
3734.00,0.0011
3733.00,0.0010
3732.00,0.0010
3731.00,0.0010
3730.00,0.0009
3729.00,0.0009
3728.00,0.0009
3727.00,0.0009
3726.00,0.0009
3725.00,0.0010
3724.00,0.0010
3723.00,0.0010
3722.00,0.0009
3721.00,0.0009
3720.00,0.0009
3719.00,0.0009
3718.00,0.0009
3717.00,0.0009
3716.00,0.0009
3715.00,0.0009
3714.00,0.0009
3713.00,0.0009
3712.00,0.0009
3711.00,0.0009
3710.00,0.0010
3709.00,0.0009
3708.00,0.0009
3707.00,0.0009
3706.00,0.0009
3705.00,0.0009
3704.00,0.0009
3703.00,0.0009
3702.00,0.0010
3701.00,0.0010
3700.00,0.0010
3699.00,0.0010
3698.00,0.0010
3697.00,0.0009
3696.00,0.0009
3695.00,0.0009
3694.00,0.0009
3693.00,0.0010
3692.00,0.0010
3691.00,0.0010
3690.00,0.0010
3689.00,0.0011
3688.00,0.0011
3687.00,0.0011
3686.00,0.0011
3685.00,0.0011
3684.00,0.0011
3683.00,0.0011
3682.00,0.0011
3681.00,0.0012
3680.00,0.0012
3679.00,0.0012
3678.00,0.0013
3677.00,0.0013
3676.00,0.0013
3675.00,0.0014
3674.00,0.0015
3673.00,0.0015
3672.00,0.0015
3671.00,0.0015
3670.00,0.0015
3669.00,0.0015
3668.00,0.0016
3667.00,0.0016
3666.00,0.0016
3665.00,0.0016
3664.00,0.0016
3663.00,0.0016
3662.00,0.0016
3661.00,0.0016
3660.00,0.0017
3659.00,0.0017
3658.00,0.0017
3657.00,0.0017
3656.00,0.0018
3655.00,0.0019
3654.00,0.0020
3653.00,0.0020
3652.00,0.0021
3651.00,0.0021
3650.00,0.0022
3649.00,0.0023
3648.00,0.0023
3647.00,0.0024
3646.00,0.0024
3645.00,0.0023
3644.00,0.0023
3643.00,0.0023
3642.00,0.0024
3641.00,0.0024
3640.00,0.0025
3639.00,0.0025
3638.00,0.0025
3637.00,0.0026
3636.00,0.0026
3635.00,0.0027
3634.00,0.0027
3633.00,0.0028
3632.00,0.0029
3631.00,0.0030
3630.00,0.0031
3629.00,0.0032
3628.00,0.0033
3627.00,0.0033
3626.00,0.0033
3625.00,0.0033
3624.00,0.0033
3623.00,0.0034
3622.00,0.0034
3621.00,0.0035
3620.00,0.0036
3619.00,0.0036
3618.00,0.0037
3617.00,0.0038
3616.00,0.0039
3615.00,0.0039
3614.00,0.0039
3613.00,0.0040
3612.00,0.0041
3611.00,0.0041
3610.00,0.0042
3609.00,0.0042
3608.00,0.0043
3607.00,0.0044
3606.00,0.0044
3605.00,0.0045
3604.00,0.0045
3603.00,0.0046
3602.00,0.0046
3601.00,0.0047
3600.00,0.0047
3599.00,0.0048
3598.00,0.0049
3597.00,0.0049
3596.00,0.0050
3595.00,0.0050
3594.00,0.0051
3593.00,0.0052
3592.00,0.0052
3591.00,0.0053
3590.00,0.0054
3589.00,0.0055
3588.00,0.0056
3587.00,0.0057
3586.00,0.0058
3585.00,0.0058
3584.00,0.0059
3583.00,0.0059
3582.00,0.0060
3581.00,0.0060
3580.00,0.0061
3579.00,0.0062
3578.00,0.0063
3577.00,0.0063
3576.00,0.0064
3575.00,0.0065
3574.00,0.0065
3573.00,0.0066
3572.00,0.0067
3571.00,0.0068
3570.00,0.0069
3569.00,0.0070
3568.00,0.0071
3567.00,0.0072
3566.00,0.0073
3565.00,0.0074
3564.00,0.0075
3563.00,0.0075
3562.00,0.0075
3561.00,0.0076
3560.00,0.0077
3559.00,0.0077
3558.00,0.0078
3557.00,0.0079
3556.00,0.0079
3555.00,0.0080
3554.00,0.0081
3553.00,0.0082
3552.00,0.0083
3551.00,0.0084
3550.00,0.0085
3549.00,0.0086
3548.00,0.0086
3547.00,0.0087
3546.00,0.0088
3545.00,0.0089
3544.00,0.0090
3543.00,0.0091
3542.00,0.0091
3541.00,0.0092
3540.00,0.0092
3539.00,0.0093
3538.00,0.0094
3537.00,0.0095
3536.00,0.0096
3535.00,0.0096
3534.00,0.0097
3533.00,0.0098
3532.00,0.0099
3531.00,0.0100
3530.00,0.0101
3529.00,0.0102
3528.00,0.0103
3527.00,0.0104
3526.00,0.0105
3525.00,0.0106
3524.00,0.0106
3523.00,0.0107
3522.00,0.0108
3521.00,0.0108
3520.00,0.0109
3519.00,0.0110
3518.00,0.0111
3517.00,0.0111
3516.00,0.0112
3515.00,0.0113
3514.00,0.0114
3513.00,0.0115
3512.00,0.0116
3511.00,0.0117
3510.00,0.0118
3509.00,0.0119
3508.00,0.0120
3507.00,0.0121
3506.00,0.0122
3505.00,0.0122
3504.00,0.0123
3503.00,0.0124
3502.00,0.0126
3501.00,0.0127
3500.00,0.0127
3499.00,0.0128
3498.00,0.0129
3497.00,0.0130
3496.00,0.0131
3495.00,0.0132
3494.00,0.0133
3493.00,0.0133
3492.00,0.0134
3491.00,0.0135
3490.00,0.0136
3489.00,0.0137
3488.00,0.0138
3487.00,0.0139
3486.00,0.0140
3485.00,0.0141
3484.00,0.0143
3483.00,0.0144
3482.00,0.0145
3481.00,0.0146
3480.00,0.0147
3479.00,0.0148
3478.00,0.0149
3477.00,0.0149
3476.00,0.0150
3475.00,0.0151
3474.00,0.0153
3473.00,0.0154
3472.00,0.0155
3471.00,0.0155
3470.00,0.0156
3469.00,0.0157
3468.00,0.0158
3467.00,0.0159
3466.00,0.0160
3465.00,0.0161
3464.00,0.0162
3463.00,0.0163
3462.00,0.0164
3461.00,0.0165
3460.00,0.0166
3459.00,0.0167
3458.00,0.0168
3457.00,0.0169
3456.00,0.0170
3455.00,0.0171
3454.00,0.0172
3453.00,0.0173
3452.00,0.0174
3451.00,0.0175
3450.00,0.0176
3449.00,0.0177
3448.00,0.0178
3447.00,0.0180
3446.00,0.0181
3445.00,0.0182
3444.00,0.0183
3443.00,0.0184
3442.00,0.0185
3441.00,0.0186
3440.00,0.0188
3439.00,0.0189
3438.00,0.0190
3437.00,0.0191
3436.00,0.0192
3435.00,0.0194
3434.00,0.0195
3433.00,0.0197
3432.00,0.0198
3431.00,0.0199
3430.00,0.0200
3429.00,0.0202
3428.00,0.0203
3427.00,0.0205
3426.00,0.0206
3425.00,0.0207
3424.00,0.0208
3423.00,0.0209
3422.00,0.0211
3421.00,0.0212
3420.00,0.0213
3419.00,0.0215
3418.00,0.0216
3417.00,0.0217
3416.00,0.0218
3415.00,0.0219
3414.00,0.0220
3413.00,0.0222
3412.00,0.0223
3411.00,0.0224
3410.00,0.0225
3409.00,0.0227
3408.00,0.0228
3407.00,0.0229
3406.00,0.0230
3405.00,0.0231
3404.00,0.0232
3403.00,0.0233
3402.00,0.0234
3401.00,0.0235
3400.00,0.0237
3399.00,0.0238
3398.00,0.0240
3397.00,0.0241
3396.00,0.0242
3395.00,0.0243
3394.00,0.0244
3393.00,0.0245
3392.00,0.0246
3391.00,0.0248
3390.00,0.0249
3389.00,0.0251
3388.00,0.0252
3387.00,0.0254
3386.00,0.0255
3385.00,0.0256
3384.00,0.0257
3383.00,0.0259
3382.00,0.0260
3381.00,0.0261
3380.00,0.0262
3379.00,0.0264
3378.00,0.0265
3377.00,0.0267
3376.00,0.0268
3375.00,0.0270
3374.00,0.0271
3373.00,0.0273
3372.00,0.0274
3371.00,0.0275
3370.00,0.0276
3369.00,0.0278
3368.00,0.0280
3367.00,0.0282
3366.00,0.0284
3365.00,0.0286
3364.00,0.0288
3363.00,0.0289
3362.00,0.0291
3361.00,0.0292
3360.00,0.0294
3359.00,0.0296
3358.00,0.0298
3357.00,0.0300
3356.00,0.0302
3355.00,0.0304
3354.00,0.0305
3353.00,0.0307
3352.00,0.0308
3351.00,0.0310
3350.00,0.0312
3349.00,0.0314
3348.00,0.0317
3347.00,0.0319
3346.00,0.0320
3345.00,0.0322
3344.00,0.0324
3343.00,0.0326
3342.00,0.0327
3341.00,0.0329
3340.00,0.0331
3339.00,0.0333
3338.00,0.0336
3337.00,0.0338
3336.00,0.0341
3335.00,0.0344
3334.00,0.0346
3333.00,0.0348
3332.00,0.0350
3331.00,0.0352
3330.00,0.0354
3329.00,0.0356
3328.00,0.0358
3327.00,0.0360
3326.00,0.0362
3325.00,0.0365
3324.00,0.0368
3323.00,0.0371
3322.00,0.0374
3321.00,0.0376
3320.00,0.0379
3319.00,0.0381
3318.00,0.0384
3317.00,0.0386
3316.00,0.0388
3315.00,0.0391
3314.00,0.0393
3313.00,0.0395
3312.00,0.0397
3311.00,0.0399
3310.00,0.0401
3309.00,0.0402
3308.00,0.0404
3307.00,0.0407
3306.00,0.0409
3305.00,0.0413
3304.00,0.0416
3303.00,0.0419
3302.00,0.0422
3301.00,0.0424
3300.00,0.0427
3299.00,0.0429
3298.00,0.0431
3297.00,0.0432
3296.00,0.0434
3295.00,0.0435
3294.00,0.0437
3293.00,0.0439
3292.00,0.0441
3291.00,0.0444
3290.00,0.0446
3289.00,0.0448
3288.00,0.0450
3287.00,0.0451
3286.00,0.0452
3285.00,0.0453
3284.00,0.0454
3283.00,0.0455
3282.00,0.0455
3281.00,0.0456
3280.00,0.0456
3279.00,0.0456
3278.00,0.0456
3277.00,0.0455
3276.00,0.0455
3275.00,0.0454
3274.00,0.0453
3273.00,0.0451
3272.00,0.0450
3271.00,0.0449
3270.00,0.0448
3269.00,0.0448
3268.00,0.0447
3267.00,0.0445
3266.00,0.0444
3265.00,0.0442
3264.00,0.0440
3263.00,0.0438
3262.00,0.0436
3261.00,0.0434
3260.00,0.0431
3259.00,0.0429
3258.00,0.0426
3257.00,0.0423
3256.00,0.0421
3255.00,0.0418
3254.00,0.0416
3253.00,0.0414
3252.00,0.0412
3251.00,0.0409
3250.00,0.0406
3249.00,0.0403
3248.00,0.0400
3247.00,0.0398
3246.00,0.0396
3245.00,0.0395
3244.00,0.0393
3243.00,0.0391
3242.00,0.0390
3241.00,0.0388
3240.00,0.0386
3239.00,0.0384
3238.00,0.0382
3237.00,0.0379
3236.00,0.0377
3235.00,0.0374
3234.00,0.0372
3233.00,0.0371
3232.00,0.0370
3231.00,0.0369
3230.00,0.0368
3229.00,0.0367
3228.00,0.0366
3227.00,0.0364
3226.00,0.0363
3225.00,0.0362
3224.00,0.0360
3223.00,0.0359
3222.00,0.0358
3221.00,0.0356
3220.00,0.0355
3219.00,0.0354
3218.00,0.0353
3217.00,0.0352
3216.00,0.0350
3215.00,0.0349
3214.00,0.0348
3213.00,0.0347
3212.00,0.0346
3211.00,0.0345
3210.00,0.0344
3209.00,0.0342
3208.00,0.0341
3207.00,0.0340
3206.00,0.0339
3205.00,0.0338
3204.00,0.0336
3203.00,0.0335
3202.00,0.0334
3201.00,0.0333
3200.00,0.0332
3199.00,0.0331
3198.00,0.0330
3197.00,0.0329
3196.00,0.0327
3195.00,0.0326
3194.00,0.0325
3193.00,0.0324
3192.00,0.0322
3191.00,0.0321
3190.00,0.0320
3189.00,0.0318
3188.00,0.0317
3187.00,0.0315
3186.00,0.0314
3185.00,0.0313
3184.00,0.0311
3183.00,0.0310
3182.00,0.0309
3181.00,0.0308
3180.00,0.0306
3179.00,0.0305
3178.00,0.0304
3177.00,0.0302
3176.00,0.0301
3175.00,0.0300
3174.00,0.0298
3173.00,0.0297
3172.00,0.0295
3171.00,0.0294
3170.00,0.0292
3169.00,0.0291
3168.00,0.0290
3167.00,0.0289
3166.00,0.0287
3165.00,0.0286
3164.00,0.0285
3163.00,0.0283
3162.00,0.0282
3161.00,0.0281
3160.00,0.0279
3159.00,0.0278
3158.00,0.0277
3157.00,0.0275
3156.00,0.0274
3155.00,0.0272
3154.00,0.0271
3153.00,0.0270
3152.00,0.0269
3151.00,0.0268
3150.00,0.0267
3149.00,0.0267
3148.00,0.0266
3147.00,0.0265
3146.00,0.0264
3145.00,0.0263
3144.00,0.0262
3143.00,0.0261
3142.00,0.0259
3141.00,0.0258
3140.00,0.0257
3139.00,0.0256
3138.00,0.0255
3137.00,0.0255
3136.00,0.0254
3135.00,0.0253
3134.00,0.0253
3133.00,0.0252
3132.00,0.0251
3131.00,0.0251
3130.00,0.0250
3129.00,0.0249
3128.00,0.0249
3127.00,0.0248
3126.00,0.0248
3125.00,0.0247
3124.00,0.0246
3123.00,0.0245
3122.00,0.0244
3121.00,0.0244
3120.00,0.0243
3119.00,0.0242
3118.00,0.0242
3117.00,0.0242
3116.00,0.0242
3115.00,0.0243
3114.00,0.0244
3113.00,0.0244
3112.00,0.0244
3111.00,0.0243
3110.00,0.0243
3109.00,0.0243
3108.00,0.0243
3107.00,0.0244
3106.00,0.0244
3105.00,0.0245
3104.00,0.0245
3103.00,0.0245
3102.00,0.0245
3101.00,0.0245
3100.00,0.0245
3099.00,0.0246
3098.00,0.0246
3097.00,0.0247
3096.00,0.0248
3095.00,0.0248
3094.00,0.0248
3093.00,0.0248
3092.00,0.0248
3091.00,0.0248
3090.00,0.0248
3089.00,0.0248
3088.00,0.0248
3087.00,0.0248
3086.00,0.0248
3085.00,0.0248
3084.00,0.0249
3083.00,0.0249
3082.00,0.0248
3081.00,0.0248
3080.00,0.0248
3079.00,0.0249
3078.00,0.0250
3077.00,0.0250
3076.00,0.0251
3075.00,0.0252
3074.00,0.0252
3073.00,0.0252
3072.00,0.0252
3071.00,0.0251
3070.00,0.0250
3069.00,0.0250
3068.00,0.0250
3067.00,0.0250
3066.00,0.0250
3065.00,0.0250
3064.00,0.0250
3063.00,0.0250
3062.00,0.0249
3061.00,0.0249
3060.00,0.0248
3059.00,0.0247
3058.00,0.0246
3057.00,0.0245
3056.00,0.0243
3055.00,0.0242
3054.00,0.0241
3053.00,0.0240
3052.00,0.0239
3051.00,0.0238
3050.00,0.0237
3049.00,0.0236
3048.00,0.0235
3047.00,0.0234
3046.00,0.0233
3045.00,0.0231
3044.00,0.0230
3043.00,0.0229
3042.00,0.0228
3041.00,0.0228
3040.00,0.0227
3039.00,0.0227
3038.00,0.0226
3037.00,0.0225
3036.00,0.0223
3035.00,0.0222
3034.00,0.0221
3033.00,0.0220
3032.00,0.0220
3031.00,0.0219
3030.00,0.0218
3029.00,0.0218
3028.00,0.0217
3027.00,0.0216
3026.00,0.0214
3025.00,0.0213
3024.00,0.0212
3023.00,0.0211
3022.00,0.0210
3021.00,0.0209
3020.00,0.0208
3019.00,0.0206
3018.00,0.0205
3017.00,0.0203
3016.00,0.0202
3015.00,0.0201
3014.00,0.0200
3013.00,0.0200
3012.00,0.0200
3011.00,0.0200
3010.00,0.0201
3009.00,0.0201
3008.00,0.0201
3007.00,0.0201
3006.00,0.0200
3005.00,0.0200
3004.00,0.0199
3003.00,0.0199
3002.00,0.0199
3001.00,0.0199
3000.00,0.0199
2999.00,0.0199
2998.00,0.0200
2997.00,0.0201
2996.00,0.0201
2995.00,0.0202
2994.00,0.0203
2993.00,0.0205
2992.00,0.0206
2991.00,0.0208
2990.00,0.0211
2989.00,0.0213
2988.00,0.0215
2987.00,0.0218
2986.00,0.0220
2985.00,0.0223
2984.00,0.0226
2983.00,0.0229
2982.00,0.0232
2981.00,0.0236
2980.00,0.0239
2979.00,0.0244
2978.00,0.0248
2977.00,0.0252
2976.00,0.0256
2975.00,0.0261
2974.00,0.0265
2973.00,0.0270
2972.00,0.0274
2971.00,0.0278
2970.00,0.0282
2969.00,0.0285
2968.00,0.0289
2967.00,0.0292
2966.00,0.0295
2965.00,0.0297
2964.00,0.0299
2963.00,0.0300
2962.00,0.0302
2961.00,0.0302
2960.00,0.0303
2959.00,0.0302
2958.00,0.0302
2957.00,0.0300
2956.00,0.0299
2955.00,0.0297
2954.00,0.0294
2953.00,0.0292
2952.00,0.0290
2951.00,0.0288
2950.00,0.0287
2949.00,0.0286
2948.00,0.0285
2947.00,0.0285
2946.00,0.0286
2945.00,0.0287
2944.00,0.0289
2943.00,0.0292
2942.00,0.0294
2941.00,0.0297
2940.00,0.0301
2939.00,0.0304
2938.00,0.0308
2937.00,0.0311
2936.00,0.0314
2935.00,0.0317
2934.00,0.0320
2933.00,0.0322
2932.00,0.0324
2931.00,0.0326
2930.00,0.0328
2929.00,0.0329
2928.00,0.0330
2927.00,0.0331
2926.00,0.0331
2925.00,0.0330
2924.00,0.0329
2923.00,0.0328
2922.00,0.0325
2921.00,0.0323
2920.00,0.0319
2919.00,0.0316
2918.00,0.0311
2917.00,0.0307
2916.00,0.0302
2915.00,0.0297
2914.00,0.0293
2913.00,0.0288
2912.00,0.0284
2911.00,0.0280
2910.00,0.0276
2909.00,0.0272
2908.00,0.0269
2907.00,0.0266
2906.00,0.0263
2905.00,0.0261
2904.00,0.0258
2903.00,0.0256
2902.00,0.0253
2901.00,0.0251
2900.00,0.0249
2899.00,0.0247
2898.00,0.0245
2897.00,0.0243
2896.00,0.0242
2895.00,0.0240
2894.00,0.0239
2893.00,0.0237
2892.00,0.0236
2891.00,0.0235
2890.00,0.0234
2889.00,0.0233
2888.00,0.0233
2887.00,0.0232
2886.00,0.0232
2885.00,0.0232
2884.00,0.0233
2883.00,0.0233
2882.00,0.0234
2881.00,0.0236
2880.00,0.0237
2879.00,0.0238
2878.00,0.0239
2877.00,0.0240
2876.00,0.0240
2875.00,0.0240
2874.00,0.0240
2873.00,0.0240
2872.00,0.0239
2871.00,0.0238
2870.00,0.0237
2869.00,0.0235
2868.00,0.0233
2867.00,0.0231
2866.00,0.0229
2865.00,0.0227
2864.00,0.0226
2863.00,0.0225
2862.00,0.0224
2861.00,0.0224
2860.00,0.0224
2859.00,0.0224
2858.00,0.0224
2857.00,0.0225
2856.00,0.0225
2855.00,0.0225
2854.00,0.0224
2853.00,0.0223
2852.00,0.0221
2851.00,0.0218
2850.00,0.0214
2849.00,0.0210
2848.00,0.0205
2847.00,0.0201
2846.00,0.0197
2845.00,0.0193
2844.00,0.0189
2843.00,0.0185
2842.00,0.0181
2841.00,0.0178
2840.00,0.0175
2839.00,0.0173
2838.00,0.0171
2837.00,0.0169
2836.00,0.0168
2835.00,0.0166
2834.00,0.0165
2833.00,0.0164
2832.00,0.0163
2831.00,0.0162
2830.00,0.0161
2829.00,0.0160
2828.00,0.0159
2827.00,0.0158
2826.00,0.0157
2825.00,0.0156
2824.00,0.0156
2823.00,0.0155
2822.00,0.0154
2821.00,0.0153
2820.00,0.0152
2819.00,0.0152
2818.00,0.0151
2817.00,0.0151
2816.00,0.0150
2815.00,0.0149
2814.00,0.0149
2813.00,0.0148
2812.00,0.0147
2811.00,0.0146
2810.00,0.0146
2809.00,0.0145
2808.00,0.0145
2807.00,0.0144
2806.00,0.0144
2805.00,0.0143
2804.00,0.0142
2803.00,0.0142
2802.00,0.0141
2801.00,0.0141
2800.00,0.0140
2799.00,0.0140
2798.00,0.0139
2797.00,0.0139
2796.00,0.0138
2795.00,0.0138
2794.00,0.0137
2793.00,0.0136
2792.00,0.0136
2791.00,0.0135
2790.00,0.0135
2789.00,0.0135
2788.00,0.0134
2787.00,0.0134
2786.00,0.0134
2785.00,0.0133
2784.00,0.0133
2783.00,0.0132
2782.00,0.0132
2781.00,0.0131
2780.00,0.0131
2779.00,0.0130
2778.00,0.0129
2777.00,0.0129
2776.00,0.0128
2775.00,0.0127
2774.00,0.0127
2773.00,0.0127
2772.00,0.0126
2771.00,0.0126
2770.00,0.0126
2769.00,0.0125
2768.00,0.0125
2767.00,0.0124
2766.00,0.0124
2765.00,0.0124
2764.00,0.0123
2763.00,0.0123
2762.00,0.0122
2761.00,0.0122
2760.00,0.0121
2759.00,0.0121
2758.00,0.0120
2757.00,0.0120
2756.00,0.0119
2755.00,0.0119
2754.00,0.0119
2753.00,0.0118
2752.00,0.0118
2751.00,0.0117
2750.00,0.0117
2749.00,0.0116
2748.00,0.0116
2747.00,0.0115
2746.00,0.0115
2745.00,0.0115
2744.00,0.0114
2743.00,0.0114
2742.00,0.0114
2741.00,0.0114
2740.00,0.0113
2739.00,0.0113
2738.00,0.0112
2737.00,0.0112
2736.00,0.0111
2735.00,0.0111
2734.00,0.0111
2733.00,0.0110
2732.00,0.0110
2731.00,0.0109
2730.00,0.0109
2729.00,0.0108
2728.00,0.0107
2727.00,0.0107
2726.00,0.0106
2725.00,0.0106
2724.00,0.0106
2723.00,0.0106
2722.00,0.0105
2721.00,0.0104
2720.00,0.0104
2719.00,0.0103
2718.00,0.0103
2717.00,0.0102
2716.00,0.0102
2715.00,0.0102
2714.00,0.0101
2713.00,0.0101
2712.00,0.0101
2711.00,0.0100
2710.00,0.0100
2709.00,0.0100
2708.00,0.0099
2707.00,0.0099
2706.00,0.0098
2705.00,0.0098
2704.00,0.0098
2703.00,0.0098
2702.00,0.0097
2701.00,0.0097
2700.00,0.0097
2699.00,0.0096
2698.00,0.0096
2697.00,0.0096
2696.00,0.0096
2695.00,0.0096
2694.00,0.0095
2693.00,0.0095
2692.00,0.0095
2691.00,0.0094
2690.00,0.0094
2689.00,0.0094
2688.00,0.0094
2687.00,0.0093
2686.00,0.0093
2685.00,0.0093
2684.00,0.0093
2683.00,0.0092
2682.00,0.0092
2681.00,0.0092
2680.00,0.0091
2679.00,0.0091
2678.00,0.0091
2677.00,0.0091
2676.00,0.0091
2675.00,0.0091
2674.00,0.0090
2673.00,0.0090
2672.00,0.0090
2671.00,0.0090
2670.00,0.0089
2669.00,0.0089
2668.00,0.0089
2667.00,0.0089
2666.00,0.0089
2665.00,0.0089
2664.00,0.0088
2663.00,0.0088
2662.00,0.0088
2661.00,0.0088
2660.00,0.0088
2659.00,0.0088
2658.00,0.0087
2657.00,0.0087
2656.00,0.0087
2655.00,0.0087
2654.00,0.0087
2653.00,0.0086
2652.00,0.0086
2651.00,0.0086
2650.00,0.0086
2649.00,0.0086
2648.00,0.0086
2647.00,0.0086
2646.00,0.0086
2645.00,0.0086
2644.00,0.0085
2643.00,0.0085
2642.00,0.0085
2641.00,0.0085
2640.00,0.0085
2639.00,0.0085
2638.00,0.0085
2637.00,0.0084
2636.00,0.0084
2635.00,0.0084
2634.00,0.0084
2633.00,0.0083
2632.00,0.0083
2631.00,0.0083
2630.00,0.0083
2629.00,0.0083
2628.00,0.0083
2627.00,0.0083
2626.00,0.0082
2625.00,0.0082
2624.00,0.0082
2623.00,0.0082
2622.00,0.0082
2621.00,0.0082
2620.00,0.0081
2619.00,0.0081
2618.00,0.0081
2617.00,0.0081
2616.00,0.0081
2615.00,0.0081
2614.00,0.0080
2613.00,0.0080
2612.00,0.0080
2611.00,0.0080
2610.00,0.0080
2609.00,0.0079
2608.00,0.0079
2607.00,0.0079
2606.00,0.0079
2605.00,0.0079
2604.00,0.0078
2603.00,0.0078
2602.00,0.0078
2601.00,0.0078
2600.00,0.0078
2599.00,0.0078
2598.00,0.0078
2597.00,0.0077
2596.00,0.0077
2595.00,0.0077
2594.00,0.0077
2593.00,0.0077
2592.00,0.0077
2591.00,0.0076
2590.00,0.0076
2589.00,0.0076
2588.00,0.0076
2587.00,0.0076
2586.00,0.0076
2585.00,0.0075
2584.00,0.0075
2583.00,0.0075
2582.00,0.0074
2581.00,0.0074
2580.00,0.0074
2579.00,0.0074
2578.00,0.0074
2577.00,0.0073
2576.00,0.0073
2575.00,0.0073
2574.00,0.0073
2573.00,0.0073
2572.00,0.0073
2571.00,0.0073
2570.00,0.0073
2569.00,0.0073
2568.00,0.0073
2567.00,0.0073
2566.00,0.0072
2565.00,0.0072
2564.00,0.0072
2563.00,0.0072
2562.00,0.0072
2561.00,0.0071
2560.00,0.0071
2559.00,0.0071
2558.00,0.0071
2557.00,0.0070
2556.00,0.0070
2555.00,0.0070
2554.00,0.0070
2553.00,0.0070
2552.00,0.0070
2551.00,0.0070
2550.00,0.0069
2549.00,0.0069
2548.00,0.0069
2547.00,0.0069
2546.00,0.0069
2545.00,0.0069
2544.00,0.0069
2543.00,0.0069
2542.00,0.0068
2541.00,0.0068
2540.00,0.0068
2539.00,0.0068
2538.00,0.0068
2537.00,0.0068
2536.00,0.0067
2535.00,0.0067
2534.00,0.0067
2533.00,0.0067
2532.00,0.0067
2531.00,0.0066
2530.00,0.0066
2529.00,0.0066
2528.00,0.0066
2527.00,0.0066
2526.00,0.0066
2525.00,0.0066
2524.00,0.0065
2523.00,0.0065
2522.00,0.0065
2521.00,0.0064
2520.00,0.0064
2519.00,0.0064
2518.00,0.0064
2517.00,0.0064
2516.00,0.0064
2515.00,0.0064
2514.00,0.0064
2513.00,0.0064
2512.00,0.0064
2511.00,0.0064
2510.00,0.0063
2509.00,0.0063
2508.00,0.0063
2507.00,0.0063
2506.00,0.0063
2505.00,0.0062
2504.00,0.0062
2503.00,0.0062
2502.00,0.0062
2501.00,0.0062
2500.00,0.0062
2499.00,0.0061
2498.00,0.0061
2497.00,0.0060
2496.00,0.0060
2495.00,0.0060
2494.00,0.0060
2493.00,0.0060
2492.00,0.0060
2491.00,0.0060
2490.00,0.0060
2489.00,0.0060
2488.00,0.0060
2487.00,0.0059
2486.00,0.0059
2485.00,0.0059
2484.00,0.0059
2483.00,0.0058
2482.00,0.0058
2481.00,0.0058
2480.00,0.0058
2479.00,0.0058
2478.00,0.0057
2477.00,0.0057
2476.00,0.0057
2475.00,0.0057
2474.00,0.0057
2473.00,0.0057
2472.00,0.0057
2471.00,0.0056
2470.00,0.0056
2469.00,0.0056
2468.00,0.0056
2467.00,0.0056
2466.00,0.0056
2465.00,0.0056
2464.00,0.0055
2463.00,0.0055
2462.00,0.0055
2461.00,0.0055
2460.00,0.0055
2459.00,0.0055
2458.00,0.0054
2457.00,0.0054
2456.00,0.0054
2455.00,0.0054
2454.00,0.0053
2453.00,0.0053
2452.00,0.0053
2451.00,0.0053
2450.00,0.0053
2449.00,0.0052
2448.00,0.0052
2447.00,0.0052
2446.00,0.0051
2445.00,0.0051
2444.00,0.0051
2443.00,0.0051
2442.00,0.0051
2441.00,0.0051
2440.00,0.0051
2439.00,0.0050
2438.00,0.0050
2437.00,0.0050
2436.00,0.0050
2435.00,0.0050
2434.00,0.0050
2433.00,0.0050
2432.00,0.0050
2431.00,0.0050
2430.00,0.0049
2429.00,0.0049
2428.00,0.0049
2427.00,0.0049
2426.00,0.0048
2425.00,0.0048
2424.00,0.0048
2423.00,0.0048
2422.00,0.0048
2421.00,0.0048
2420.00,0.0048
2419.00,0.0048
2418.00,0.0048
2417.00,0.0048
2416.00,0.0048
2415.00,0.0047
2414.00,0.0047
2413.00,0.0047
2412.00,0.0046
2411.00,0.0046
2410.00,0.0046
2409.00,0.0046
2408.00,0.0045
2407.00,0.0045
2406.00,0.0045
2405.00,0.0045
2404.00,0.0045
2403.00,0.0045
2402.00,0.0045
2401.00,0.0044
2400.00,0.0044
2399.00,0.0044
2398.00,0.0044
2397.00,0.0044
2396.00,0.0044
2395.00,0.0044
2394.00,0.0044
2393.00,0.0043
2392.00,0.0043
2391.00,0.0043
2390.00,0.0043
2389.00,0.0042
2388.00,0.0042
2387.00,0.0042
2386.00,0.0042
2385.00,0.0042
2384.00,0.0042
2383.00,0.0042
2382.00,0.0042
2381.00,0.0041
2380.00,0.0041
2379.00,0.0041
2378.00,0.0041
2377.00,0.0041
2376.00,0.0040
2375.00,0.0040
2374.00,0.0040
2373.00,0.0040
2372.00,0.0040
2371.00,0.0041
2370.00,0.0041
2369.00,0.0041
2368.00,0.0041
2367.00,0.0040
2366.00,0.0040
2365.00,0.0040
2364.00,0.0040
2363.00,0.0040
2362.00,0.0040
2361.00,0.0040
2360.00,0.0040
2359.00,0.0040
2358.00,0.0040
2357.00,0.0040
2356.00,0.0040
2355.00,0.0040
2354.00,0.0040
2353.00,0.0040
2352.00,0.0039
2351.00,0.0039
2350.00,0.0039
2349.00,0.0039
2348.00,0.0039
2347.00,0.0038
2346.00,0.0037
2345.00,0.0037
2344.00,0.0038
2343.00,0.0038
2342.00,0.0038
2341.00,0.0038
2340.00,0.0038
2339.00,0.0038
2338.00,0.0038
2337.00,0.0038
2336.00,0.0038
2335.00,0.0038
2334.00,0.0038
2333.00,0.0038
2332.00,0.0038
2331.00,0.0038
2330.00,0.0038
2329.00,0.0038
2328.00,0.0038
2327.00,0.0038
2326.00,0.0038
2325.00,0.0038
2324.00,0.0037
2323.00,0.0037
2322.00,0.0036
2321.00,0.0037
2320.00,0.0037
2319.00,0.0037
2318.00,0.0037
2317.00,0.0037
2316.00,0.0037
2315.00,0.0037
2314.00,0.0037
2313.00,0.0037
2312.00,0.0037
2311.00,0.0037
2310.00,0.0037
2309.00,0.0036
2308.00,0.0036
2307.00,0.0036
2306.00,0.0036
2305.00,0.0036
2304.00,0.0037
2303.00,0.0037
2302.00,0.0037
2301.00,0.0037
2300.00,0.0037
2299.00,0.0037
2298.00,0.0037
2297.00,0.0037
2296.00,0.0037
2295.00,0.0036
2294.00,0.0036
2293.00,0.0036
2292.00,0.0035
2291.00,0.0035
2290.00,0.0035
2289.00,0.0035
2288.00,0.0035
2287.00,0.0036
2286.00,0.0035
2285.00,0.0035
2284.00,0.0036
2283.00,0.0036
2282.00,0.0036
2281.00,0.0036
2280.00,0.0036
2279.00,0.0035
2278.00,0.0035
2277.00,0.0035
2276.00,0.0035
2275.00,0.0035
2274.00,0.0034
2273.00,0.0034
2272.00,0.0034
2271.00,0.0034
2270.00,0.0034
2269.00,0.0034
2268.00,0.0035
2267.00,0.0035
2266.00,0.0034
2265.00,0.0034
2264.00,0.0033
2263.00,0.0033
2262.00,0.0033
2261.00,0.0034
2260.00,0.0034
2259.00,0.0033
2258.00,0.0033
2257.00,0.0033
2256.00,0.0032
2255.00,0.0032
2254.00,0.0032
2253.00,0.0032
2252.00,0.0033
2251.00,0.0032
2250.00,0.0032
2249.00,0.0032
2248.00,0.0032
2247.00,0.0032
2246.00,0.0032
2245.00,0.0032
2244.00,0.0032
2243.00,0.0032
2242.00,0.0032
2241.00,0.0032
2240.00,0.0032
2239.00,0.0031
2238.00,0.0031
2237.00,0.0031
2236.00,0.0031
2235.00,0.0031
2234.00,0.0031
2233.00,0.0031
2232.00,0.0031
2231.00,0.0031
2230.00,0.0031
2229.00,0.0030
2228.00,0.0030
2227.00,0.0030
2226.00,0.0030
2225.00,0.0030
2224.00,0.0031
2223.00,0.0030
2222.00,0.0030
2221.00,0.0029
2220.00,0.0030
2219.00,0.0030
2218.00,0.0030
2217.00,0.0030
2216.00,0.0030
2215.00,0.0030
2214.00,0.0030
2213.00,0.0030
2212.00,0.0030
2211.00,0.0029
2210.00,0.0028
2209.00,0.0027
2208.00,0.0028
2207.00,0.0028
2206.00,0.0029
2205.00,0.0030
2204.00,0.0031
2203.00,0.0031
2202.00,0.0031
2201.00,0.0032
2200.00,0.0032
2199.00,0.0032
2198.00,0.0031
2197.00,0.0031
2196.00,0.0030
2195.00,0.0029
2194.00,0.0028
2193.00,0.0028
2192.00,0.0028
2191.00,0.0029
2190.00,0.0028
2189.00,0.0028
2188.00,0.0028
2187.00,0.0028
2186.00,0.0029
2185.00,0.0030
2184.00,0.0030
2183.00,0.0030
2182.00,0.0030
2181.00,0.0030
2180.00,0.0029
2179.00,0.0027
2178.00,0.0025
2177.00,0.0025
2176.00,0.0025
2175.00,0.0026
2174.00,0.0027
2173.00,0.0029
2172.00,0.0029
2171.00,0.0029
2170.00,0.0028
2169.00,0.0028
2168.00,0.0028
2167.00,0.0028
2166.00,0.0028
2165.00,0.0028
2164.00,0.0029
2163.00,0.0029
2162.00,0.0027
2161.00,0.0024
2160.00,0.0022
2159.00,0.0021
2158.00,0.0021
2157.00,0.0022
2156.00,0.0023
2155.00,0.0023
2154.00,0.0024
2153.00,0.0026
2152.00,0.0026
2151.00,0.0026
2150.00,0.0026
2149.00,0.0026
2148.00,0.0026
2147.00,0.0027
2146.00,0.0027
2145.00,0.0027
2144.00,0.0027
2143.00,0.0026
2142.00,0.0025
2141.00,0.0025
2140.00,0.0024
2139.00,0.0024
2138.00,0.0025
2137.00,0.0026
2136.00,0.0026
2135.00,0.0027
2134.00,0.0027
2133.00,0.0028
2132.00,0.0028
2131.00,0.0028
2130.00,0.0028
2129.00,0.0028
2128.00,0.0028
2127.00,0.0028
2126.00,0.0028
2125.00,0.0029
2124.00,0.0030
2123.00,0.0030
2122.00,0.0029
2121.00,0.0029
2120.00,0.0029
2119.00,0.0029
2118.00,0.0029
2117.00,0.0030
2116.00,0.0030
2115.00,0.0030
2114.00,0.0030
2113.00,0.0030
2112.00,0.0030
2111.00,0.0030
2110.00,0.0030
2109.00,0.0030
2108.00,0.0030
2107.00,0.0029
2106.00,0.0029
2105.00,0.0030
2104.00,0.0031
2103.00,0.0031
2102.00,0.0030
2101.00,0.0030
2100.00,0.0029
2099.00,0.0029
2098.00,0.0028
2097.00,0.0028
2096.00,0.0029
2095.00,0.0029
2094.00,0.0029
2093.00,0.0029
2092.00,0.0029
2091.00,0.0029
2090.00,0.0029
2089.00,0.0029
2088.00,0.0030
2087.00,0.0030
2086.00,0.0029
2085.00,0.0029
2084.00,0.0029
2083.00,0.0028
2082.00,0.0028
2081.00,0.0027
2080.00,0.0027
2079.00,0.0027
2078.00,0.0027
2077.00,0.0027
2076.00,0.0028
2075.00,0.0028
2074.00,0.0028
2073.00,0.0028
2072.00,0.0027
2071.00,0.0026
2070.00,0.0025
2069.00,0.0025
2068.00,0.0026
2067.00,0.0026
2066.00,0.0026
2065.00,0.0026
2064.00,0.0025
2063.00,0.0025
2062.00,0.0024
2061.00,0.0024
2060.00,0.0024
2059.00,0.0023
2058.00,0.0023
2057.00,0.0023
2056.00,0.0024
2055.00,0.0023
2054.00,0.0023
2053.00,0.0023
2052.00,0.0023
2051.00,0.0022
2050.00,0.0021
2049.00,0.0021
2048.00,0.0021
2047.00,0.0021
2046.00,0.0021
2045.00,0.0020
2044.00,0.0020
2043.00,0.0020
2042.00,0.0020
2041.00,0.0020
2040.00,0.0021
2039.00,0.0021
2038.00,0.0021
2037.00,0.0020
2036.00,0.0020
2035.00,0.0020
2034.00,0.0019
2033.00,0.0019
2032.00,0.0019
2031.00,0.0019
2030.00,0.0019
2029.00,0.0020
2028.00,0.0020
2027.00,0.0019
2026.00,0.0018
2025.00,0.0017
2024.00,0.0017
2023.00,0.0017
2022.00,0.0018
2021.00,0.0019
2020.00,0.0021
2019.00,0.0022
2018.00,0.0020
2017.00,0.0018
2016.00,0.0017
2015.00,0.0016
2014.00,0.0016
2013.00,0.0017
2012.00,0.0018
2011.00,0.0018
2010.00,0.0018
2009.00,0.0019
2008.00,0.0020
2007.00,0.0019
2006.00,0.0019
2005.00,0.0019
2004.00,0.0020
2003.00,0.0020
2002.00,0.0020
2001.00,0.0019
2000.00,0.0018
1999.00,0.0017
1998.00,0.0017
1997.00,0.0017
1996.00,0.0017
1995.00,0.0018
1994.00,0.0018
1993.00,0.0019
1992.00,0.0020
1991.00,0.0020
1990.00,0.0018
1989.00,0.0017
1988.00,0.0017
1987.00,0.0016
1986.00,0.0016
1985.00,0.0016
1984.00,0.0017
1983.00,0.0017
1982.00,0.0017
1981.00,0.0017
1980.00,0.0016
1979.00,0.0015
1978.00,0.0014
1977.00,0.0014
1976.00,0.0016
1975.00,0.0017
1974.00,0.0018
1973.00,0.0018
1972.00,0.0018
1971.00,0.0018
1970.00,0.0017
1969.00,0.0018
1968.00,0.0018
1967.00,0.0018
1966.00,0.0018
1965.00,0.0019
1964.00,0.0018
1963.00,0.0017
1962.00,0.0016
1961.00,0.0015
1960.00,0.0016
1959.00,0.0016
1958.00,0.0016
1957.00,0.0017
1956.00,0.0019
1955.00,0.0020
1954.00,0.0021
1953.00,0.0021
1952.00,0.0020
1951.00,0.0019
1950.00,0.0018
1949.00,0.0019
1948.00,0.0020
1947.00,0.0020
1946.00,0.0019
1945.00,0.0019
1944.00,0.0019
1943.00,0.0018
1942.00,0.0017
1941.00,0.0017
1940.00,0.0017
1939.00,0.0018
1938.00,0.0018
1937.00,0.0018
1936.00,0.0018
1935.00,0.0018
1934.00,0.0018
1933.00,0.0018
1932.00,0.0018
1931.00,0.0018
1930.00,0.0017
1929.00,0.0017
1928.00,0.0018
1927.00,0.0019
1926.00,0.0020
1925.00,0.0021
1924.00,0.0021
1923.00,0.0019
1922.00,0.0018
1921.00,0.0017
1920.00,0.0017
1919.00,0.0017
1918.00,0.0017
1917.00,0.0017
1916.00,0.0018
1915.00,0.0019
1914.00,0.0019
1913.00,0.0019
1912.00,0.0019
1911.00,0.0019
1910.00,0.0018
1909.00,0.0018
1908.00,0.0018
1907.00,0.0017
1906.00,0.0017
1905.00,0.0017
1904.00,0.0017
1903.00,0.0017
1902.00,0.0017
1901.00,0.0018
1900.00,0.0018
1899.00,0.0018
1898.00,0.0018
1897.00,0.0018
1896.00,0.0018
1895.00,0.0018
1894.00,0.0017
1893.00,0.0017
1892.00,0.0018
1891.00,0.0018
1890.00,0.0017
1889.00,0.0017
1888.00,0.0017
1887.00,0.0018
1886.00,0.0018
1885.00,0.0018
1884.00,0.0017
1883.00,0.0017
1882.00,0.0016
1881.00,0.0016
1880.00,0.0016
1879.00,0.0016
1878.00,0.0016
1877.00,0.0016
1876.00,0.0017
1875.00,0.0017
1874.00,0.0016
1873.00,0.0017
1872.00,0.0017
1871.00,0.0019
1870.00,0.0020
1869.00,0.0020
1868.00,0.0019
1867.00,0.0018
1866.00,0.0017
1865.00,0.0016
1864.00,0.0016
1863.00,0.0016
1862.00,0.0016
1861.00,0.0016
1860.00,0.0016
1859.00,0.0016
1858.00,0.0015
1857.00,0.0015
1856.00,0.0015
1855.00,0.0016
1854.00,0.0016
1853.00,0.0016
1852.00,0.0016
1851.00,0.0016
1850.00,0.0016
1849.00,0.0016
1848.00,0.0016
1847.00,0.0016
1846.00,0.0015
1845.00,0.0014
1844.00,0.0012
1843.00,0.0012
1842.00,0.0013
1841.00,0.0014
1840.00,0.0015
1839.00,0.0015
1838.00,0.0015
1837.00,0.0016
1836.00,0.0016
1835.00,0.0015
1834.00,0.0015
1833.00,0.0016
1832.00,0.0018
1831.00,0.0019
1830.00,0.0017
1829.00,0.0016
1828.00,0.0015
1827.00,0.0015
1826.00,0.0015
1825.00,0.0014
1824.00,0.0014
1823.00,0.0014
1822.00,0.0014
1821.00,0.0014
1820.00,0.0014
1819.00,0.0014
1818.00,0.0014
1817.00,0.0014
1816.00,0.0014
1815.00,0.0015
1814.00,0.0016
1813.00,0.0017
1812.00,0.0017
1811.00,0.0016
1810.00,0.0016
1809.00,0.0015
1808.00,0.0015
1807.00,0.0015
1806.00,0.0015
1805.00,0.0015
1804.00,0.0015
1803.00,0.0015
1802.00,0.0016
1801.00,0.0016
1800.00,0.0016
1799.00,0.0017
1798.00,0.0017
1797.00,0.0017
1796.00,0.0018
1795.00,0.0017
1794.00,0.0017
1793.00,0.0016
1792.00,0.0014
1791.00,0.0013
1790.00,0.0014
1789.00,0.0014
1788.00,0.0015
1787.00,0.0014
1786.00,0.0014
1785.00,0.0014
1784.00,0.0016
1783.00,0.0017
1782.00,0.0018
1781.00,0.0018
1780.00,0.0018
1779.00,0.0018
1778.00,0.0018
1777.00,0.0019
1776.00,0.0020
1775.00,0.0022
1774.00,0.0023
1773.00,0.0022
1772.00,0.0020
1771.00,0.0018
1770.00,0.0016
1769.00,0.0016
1768.00,0.0017
1767.00,0.0017
1766.00,0.0019
1765.00,0.0020
1764.00,0.0022
1763.00,0.0022
1762.00,0.0022
1761.00,0.0022
1760.00,0.0024
1759.00,0.0025
1758.00,0.0026
1757.00,0.0027
1756.00,0.0028
1755.00,0.0029
1754.00,0.0031
1753.00,0.0034
1752.00,0.0037
1751.00,0.0041
1750.00,0.0045
1749.00,0.0047
1748.00,0.0049
1747.00,0.0051
1746.00,0.0052
1745.00,0.0054
1744.00,0.0055
1743.00,0.0056
1742.00,0.0057
1741.00,0.0058
1740.00,0.0060
1739.00,0.0060
1738.00,0.0060
1737.00,0.0062
1736.00,0.0063
1735.00,0.0064
1734.00,0.0064
1733.00,0.0066
1732.00,0.0070
1731.00,0.0072
1730.00,0.0072
1729.00,0.0073
1728.00,0.0074
1727.00,0.0076
1726.00,0.0077
1725.00,0.0080
1724.00,0.0082
1723.00,0.0083
1722.00,0.0085
1721.00,0.0087
1720.00,0.0092
1719.00,0.0097
1718.00,0.0101
1717.00,0.0103
1716.00,0.0106
1715.00,0.0110
1714.00,0.0113
1713.00,0.0119
1712.00,0.0125
1711.00,0.0131
1710.00,0.0138
1709.00,0.0146
1708.00,0.0157
1707.00,0.0168
1706.00,0.0179
1705.00,0.0191
1704.00,0.0202
1703.00,0.0211
1702.00,0.0222
1701.00,0.0244
1700.00,0.0275
1699.00,0.0304
1698.00,0.0324
1697.00,0.0339
1696.00,0.0355
1695.00,0.0372
1694.00,0.0387
1693.00,0.0400
1692.00,0.0411
1691.00,0.0422
1690.00,0.0434
1689.00,0.0446
1688.00,0.0457
1687.00,0.0467
1686.00,0.0479
1685.00,0.0495
1684.00,0.0515
1683.00,0.0535
1682.00,0.0550
1681.00,0.0561
1680.00,0.0571
1679.00,0.0580
1678.00,0.0589
1677.00,0.0599
1676.00,0.0614
1675.00,0.0634
1674.00,0.0653
1673.00,0.0668
1672.00,0.0679
1671.00,0.0692
1670.00,0.0708
1669.00,0.0727
1668.00,0.0744
1667.00,0.0758
1666.00,0.0768
1665.00,0.0779
1664.00,0.0793
1663.00,0.0811
1662.00,0.0829
1661.00,0.0846
1660.00,0.0861
1659.00,0.0873
1658.00,0.0882
1657.00,0.0888
1656.00,0.0892
1655.00,0.0900
1654.00,0.0918
1653.00,0.0949
1652.00,0.0979
1651.00,0.0992
1650.00,0.0992
1649.00,0.0991
1648.00,0.0995
1647.00,0.1004
1646.00,0.1017
1645.00,0.1028
1644.00,0.1034
1643.00,0.1036
1642.00,0.1039
1641.00,0.1042
1640.00,0.1047
1639.00,0.1051
1638.00,0.1055
1637.00,0.1063
1636.00,0.1078
1635.00,0.1098
1634.00,0.1115
1633.00,0.1124
1632.00,0.1127
1631.00,0.1131
1630.00,0.1137
1629.00,0.1145
1628.00,0.1153
1627.00,0.1159
1626.00,0.1160
1625.00,0.1158
1624.00,0.1155
1623.00,0.1150
1622.00,0.1141
1621.00,0.1126
1620.00,0.1105
1619.00,0.1082
1618.00,0.1058
1617.00,0.1033
1616.00,0.1008
1615.00,0.0983
1614.00,0.0956
1613.00,0.0927
1612.00,0.0897
1611.00,0.0868
1610.00,0.0841
1609.00,0.0815
1608.00,0.0789
1607.00,0.0765
1606.00,0.0743
1605.00,0.0722
1604.00,0.0702
1603.00,0.0684
1602.00,0.0667
1601.00,0.0652
1600.00,0.0638
1599.00,0.0625
1598.00,0.0615
1597.00,0.0605
1596.00,0.0595
1595.00,0.0586
1594.00,0.0578
1593.00,0.0570
1592.00,0.0563
1591.00,0.0556
1590.00,0.0550
1589.00,0.0545
1588.00,0.0541
1587.00,0.0537
1586.00,0.0535
1585.00,0.0534
1584.00,0.0533
1583.00,0.0533
1582.00,0.0534
1581.00,0.0535
1580.00,0.0537
1579.00,0.0539
1578.00,0.0543
1577.00,0.0549
1576.00,0.0555
1575.00,0.0563
1574.00,0.0568
1573.00,0.0571
1572.00,0.0573
1571.00,0.0579
1570.00,0.0589
1569.00,0.0600
1568.00,0.0609
1567.00,0.0618
1566.00,0.0626
1565.00,0.0634
1564.00,0.0641
1563.00,0.0644
1562.00,0.0646
1561.00,0.0652
1560.00,0.0669
1559.00,0.0693
1558.00,0.0718
1557.00,0.0734
1556.00,0.0742
1555.00,0.0750
1554.00,0.0761
1553.00,0.0773
1552.00,0.0784
1551.00,0.0796
1550.00,0.0808
1549.00,0.0820
1548.00,0.0830
1547.00,0.0838
1546.00,0.0848
1545.00,0.0861
1544.00,0.0873
1543.00,0.0884
1542.00,0.0897
1541.00,0.0913
1540.00,0.0930
1539.00,0.0946
1538.00,0.0957
1537.00,0.0959
1536.00,0.0957
1535.00,0.0958
1534.00,0.0967
1533.00,0.0979
1532.00,0.0989
1531.00,0.0994
1530.00,0.0995
1529.00,0.0997
1528.00,0.1000
1527.00,0.1005
1526.00,0.1011
1525.00,0.1016
1524.00,0.1018
1523.00,0.1020
1522.00,0.1025
1521.00,0.1036
1520.00,0.1045
1519.00,0.1050
1518.00,0.1054
1517.00,0.1057
1516.00,0.1060
1515.00,0.1059
1514.00,0.1053
1513.00,0.1045
1512.00,0.1035
1511.00,0.1025
1510.00,0.1013
1509.00,0.1002
1508.00,0.0990
1507.00,0.0977
1506.00,0.0966
1505.00,0.0955
1504.00,0.0940
1503.00,0.0920
1502.00,0.0898
1501.00,0.0878
1500.00,0.0859
1499.00,0.0842
1498.00,0.0826
1497.00,0.0809
1496.00,0.0792
1495.00,0.0774
1494.00,0.0756
1493.00,0.0735
1492.00,0.0716
1491.00,0.0697
1490.00,0.0680
1489.00,0.0663
1488.00,0.0645
1487.00,0.0628
1486.00,0.0611
1485.00,0.0595
1484.00,0.0581
1483.00,0.0569
1482.00,0.0557
1481.00,0.0547
1480.00,0.0538
1479.00,0.0530
1478.00,0.0524
1477.00,0.0520
1476.00,0.0519
1475.00,0.0520
1474.00,0.0523
1473.00,0.0529
1472.00,0.0537
1471.00,0.0545
1470.00,0.0550
1469.00,0.0551
1468.00,0.0552
1467.00,0.0551
1466.00,0.0551
1465.00,0.0552
1464.00,0.0553
1463.00,0.0555
1462.00,0.0554
1461.00,0.0552
1460.00,0.0551
1459.00,0.0552
1458.00,0.0555
1457.00,0.0563
1456.00,0.0573
1455.00,0.0580
1454.00,0.0582
1453.00,0.0580
1452.00,0.0578
1451.00,0.0576
1450.00,0.0574
1449.00,0.0573
1448.00,0.0572
1447.00,0.0572
1446.00,0.0570
1445.00,0.0567
1444.00,0.0564
1443.00,0.0561
1442.00,0.0558
1441.00,0.0554
1440.00,0.0547
1439.00,0.0540
1438.00,0.0533
1437.00,0.0528
1436.00,0.0527
1435.00,0.0526
1434.00,0.0521
1433.00,0.0513
1432.00,0.0506
1431.00,0.0499
1430.00,0.0493
1429.00,0.0489
1428.00,0.0485
1427.00,0.0483
1426.00,0.0481
1425.00,0.0481
1424.00,0.0481
1423.00,0.0480
1422.00,0.0479
1421.00,0.0478
1420.00,0.0480
1419.00,0.0487
1418.00,0.0494
1417.00,0.0500
1416.00,0.0503
1415.00,0.0507
1414.00,0.0510
1413.00,0.0513
1412.00,0.0518
1411.00,0.0522
1410.00,0.0526
1409.00,0.0530
1408.00,0.0535
1407.00,0.0539
1406.00,0.0544
1405.00,0.0550
1404.00,0.0555
1403.00,0.0560
1402.00,0.0563
1401.00,0.0565
1400.00,0.0569
1399.00,0.0574
1398.00,0.0579
1397.00,0.0581
1396.00,0.0583
1395.00,0.0586
1394.00,0.0589
1393.00,0.0592
1392.00,0.0594
1391.00,0.0593
1390.00,0.0592
1389.00,0.0591
1388.00,0.0591
1387.00,0.0591
1386.00,0.0590
1385.00,0.0587
1384.00,0.0582
1383.00,0.0577
1382.00,0.0572
1381.00,0.0567
1380.00,0.0562
1379.00,0.0557
1378.00,0.0553
1377.00,0.0548
1376.00,0.0543
1375.00,0.0538
1374.00,0.0533
1373.00,0.0529
1372.00,0.0526
1371.00,0.0523
1370.00,0.0520
1369.00,0.0516
1368.00,0.0512
1367.00,0.0507
1366.00,0.0501
1365.00,0.0494
1364.00,0.0487
1363.00,0.0481
1362.00,0.0475
1361.00,0.0470
1360.00,0.0465
1359.00,0.0461
1358.00,0.0458
1357.00,0.0454
1356.00,0.0451
1355.00,0.0449
1354.00,0.0447
1353.00,0.0446
1352.00,0.0444
1351.00,0.0443
1350.00,0.0442
1349.00,0.0442
1348.00,0.0441
1347.00,0.0441
1346.00,0.0440
1345.00,0.0440
1344.00,0.0439
1343.00,0.0439
1342.00,0.0439
1341.00,0.0439
1340.00,0.0439
1339.00,0.0438
1338.00,0.0437
1337.00,0.0435
1336.00,0.0434
1335.00,0.0432
1334.00,0.0430
1333.00,0.0429
1332.00,0.0427
1331.00,0.0426
1330.00,0.0426
1329.00,0.0425
1328.00,0.0425
1327.00,0.0425
1326.00,0.0425
1325.00,0.0425
1324.00,0.0426
1323.00,0.0427
1322.00,0.0428
1321.00,0.0430
1320.00,0.0431
1319.00,0.0433
1318.00,0.0434
1317.00,0.0436
1316.00,0.0437
1315.00,0.0438
1314.00,0.0439
1313.00,0.0440
1312.00,0.0440
1311.00,0.0441
1310.00,0.0441
1309.00,0.0441
1308.00,0.0441
1307.00,0.0441
1306.00,0.0441
1305.00,0.0441
1304.00,0.0441
1303.00,0.0441
1302.00,0.0441
1301.00,0.0441
1300.00,0.0441
1299.00,0.0441
1298.00,0.0441
1297.00,0.0441
1296.00,0.0442
1295.00,0.0443
1294.00,0.0443
1293.00,0.0444
1292.00,0.0445
1291.00,0.0446
1290.00,0.0448
1289.00,0.0449
1288.00,0.0450
1287.00,0.0451
1286.00,0.0452
1285.00,0.0453
1284.00,0.0454
1283.00,0.0455
1282.00,0.0455
1281.00,0.0456
1280.00,0.0456
1279.00,0.0457
1278.00,0.0457
1277.00,0.0457
1276.00,0.0457
1275.00,0.0458
1274.00,0.0459
1273.00,0.0459
1272.00,0.0460
1271.00,0.0461
1270.00,0.0463
1269.00,0.0465
1268.00,0.0467
1267.00,0.0469
1266.00,0.0472
1265.00,0.0476
1264.00,0.0479
1263.00,0.0483
1262.00,0.0488
1261.00,0.0492
1260.00,0.0497
1259.00,0.0502
1258.00,0.0507
1257.00,0.0512
1256.00,0.0518
1255.00,0.0523
1254.00,0.0529
1253.00,0.0534
1252.00,0.0540
1251.00,0.0545
1250.00,0.0551
1249.00,0.0557
1248.00,0.0562
1247.00,0.0567
1246.00,0.0572
1245.00,0.0577
1244.00,0.0582
1243.00,0.0586
1242.00,0.0590
1241.00,0.0593
1240.00,0.0597
1239.00,0.0600
1238.00,0.0603
1237.00,0.0606
1236.00,0.0608
1235.00,0.0610
1234.00,0.0612
1233.00,0.0613
1232.00,0.0614
1231.00,0.0614
1230.00,0.0614
1229.00,0.0614
1228.00,0.0613
1227.00,0.0612
1226.00,0.0611
1225.00,0.0609
1224.00,0.0606
1223.00,0.0603
1222.00,0.0600
1221.00,0.0597
1220.00,0.0593
1219.00,0.0588
1218.00,0.0583
1217.00,0.0578
1216.00,0.0573
1215.00,0.0567
1214.00,0.0560
1213.00,0.0553
1212.00,0.0546
1211.00,0.0539
1210.00,0.0532
1209.00,0.0525
1208.00,0.0517
1207.00,0.0510
1206.00,0.0502
1205.00,0.0495
1204.00,0.0487
1203.00,0.0480
1202.00,0.0473
1201.00,0.0466
1200.00,0.0460
1199.00,0.0454
1198.00,0.0448
1197.00,0.0442
1196.00,0.0437
1195.00,0.0432
1194.00,0.0428
1193.00,0.0424
1192.00,0.0421
1191.00,0.0417
1190.00,0.0414
1189.00,0.0411
1188.00,0.0408
1187.00,0.0406
1186.00,0.0403
1185.00,0.0401
1184.00,0.0399
1183.00,0.0397
1182.00,0.0396
1181.00,0.0395
1180.00,0.0394
1179.00,0.0395
1178.00,0.0396
1177.00,0.0397
1176.00,0.0400
1175.00,0.0402
1174.00,0.0405
1173.00,0.0408
1172.00,0.0410
1171.00,0.0412
1170.00,0.0414
1169.00,0.0416
1168.00,0.0418
1167.00,0.0420
1166.00,0.0422
1165.00,0.0425
1164.00,0.0427
1163.00,0.0430
1162.00,0.0432
1161.00,0.0434
1160.00,0.0435
1159.00,0.0436
1158.00,0.0437
1157.00,0.0437
1156.00,0.0436
1155.00,0.0436
1154.00,0.0434
1153.00,0.0433
1152.00,0.0430
1151.00,0.0428
1150.00,0.0425
1149.00,0.0422
1148.00,0.0419
1147.00,0.0416
1146.00,0.0413
1145.00,0.0410
1144.00,0.0407
1143.00,0.0405
1142.00,0.0403
1141.00,0.0402
1140.00,0.0401
1139.00,0.0401
1138.00,0.0401
1137.00,0.0403
1136.00,0.0405
1135.00,0.0408
1134.00,0.0411
1133.00,0.0415
1132.00,0.0419
1131.00,0.0422
1130.00,0.0425
1129.00,0.0428
1128.00,0.0431
1127.00,0.0433
1126.00,0.0434
1125.00,0.0435
1124.00,0.0436
1123.00,0.0436
1122.00,0.0437
1121.00,0.0438
1120.00,0.0438
1119.00,0.0439
1118.00,0.0440
1117.00,0.0441
1116.00,0.0443
1115.00,0.0445
1114.00,0.0447
1113.00,0.0449
1112.00,0.0451
1111.00,0.0453
1110.00,0.0456
1109.00,0.0458
1108.00,0.0461
1107.00,0.0464
1106.00,0.0466
1105.00,0.0469
1104.00,0.0471
1103.00,0.0474
1102.00,0.0477
1101.00,0.0480
1100.00,0.0483
1099.00,0.0486
1098.00,0.0489
1097.00,0.0493
1096.00,0.0497
1095.00,0.0501
1094.00,0.0506
1093.00,0.0511
1092.00,0.0517
1091.00,0.0522
1090.00,0.0528
1089.00,0.0534
1088.00,0.0541
1087.00,0.0547
1086.00,0.0553
1085.00,0.0560
1084.00,0.0566
1083.00,0.0571
1082.00,0.0577
1081.00,0.0582
1080.00,0.0587
1079.00,0.0591
1078.00,0.0594
1077.00,0.0596
1076.00,0.0598
1075.00,0.0600
1074.00,0.0600
1073.00,0.0601
1072.00,0.0601
1071.00,0.0601
1070.00,0.0601
1069.00,0.0600
1068.00,0.0600
1067.00,0.0600
1066.00,0.0600
1065.00,0.0600
1064.00,0.0600
1063.00,0.0600
1062.00,0.0600
1061.00,0.0599
1060.00,0.0598
1059.00,0.0597
1058.00,0.0596
1057.00,0.0595
1056.00,0.0593
1055.00,0.0591
1054.00,0.0588
1053.00,0.0586
1052.00,0.0583
1051.00,0.0580
1050.00,0.0577
1049.00,0.0574
1048.00,0.0572
1047.00,0.0569
1046.00,0.0566
1045.00,0.0563
1044.00,0.0560
1043.00,0.0558
1042.00,0.0555
1041.00,0.0553
1040.00,0.0550
1039.00,0.0548
1038.00,0.0546
1037.00,0.0544
1036.00,0.0542
1035.00,0.0540
1034.00,0.0538
1033.00,0.0536
1032.00,0.0534
1031.00,0.0532
1030.00,0.0530
1029.00,0.0527
1028.00,0.0524
1027.00,0.0521
1026.00,0.0517
1025.00,0.0513
1024.00,0.0509
1023.00,0.0504
1022.00,0.0499
1021.00,0.0494
1020.00,0.0489
1019.00,0.0483
1018.00,0.0477
1017.00,0.0471
1016.00,0.0465
1015.00,0.0460
1014.00,0.0454
1013.00,0.0449
1012.00,0.0443
1011.00,0.0437
1010.00,0.0431
1009.00,0.0425
1008.00,0.0420
1007.00,0.0414
1006.00,0.0409
1005.00,0.0404
1004.00,0.0399
1003.00,0.0394
1002.00,0.0389
1001.00,0.0385
1000.00,0.0381
999.00,0.0377
998.00,0.0373
997.00,0.0369
996.00,0.0365
995.00,0.0361
994.00,0.0357
993.00,0.0353
992.00,0.0349
991.00,0.0345
990.00,0.0341
989.00,0.0337
988.00,0.0333
987.00,0.0329
986.00,0.0326
985.00,0.0322
984.00,0.0319
983.00,0.0316
982.00,0.0314
981.00,0.0312
980.00,0.0311
979.00,0.0310
978.00,0.0309
977.00,0.0309
976.00,0.0309
975.00,0.0310
974.00,0.0310
973.00,0.0311
972.00,0.0312
971.00,0.0313
970.00,0.0314
969.00,0.0315
968.00,0.0316
967.00,0.0317
966.00,0.0318
965.00,0.0318
964.00,0.0319
963.00,0.0320
962.00,0.0322
961.00,0.0324
960.00,0.0326
959.00,0.0329
958.00,0.0333
957.00,0.0338
956.00,0.0343
955.00,0.0348
954.00,0.0352
953.00,0.0356
952.00,0.0359
951.00,0.0360
950.00,0.0361
949.00,0.0360
948.00,0.0358
947.00,0.0355
946.00,0.0351
945.00,0.0347
944.00,0.0343
943.00,0.0340
942.00,0.0337
941.00,0.0335
940.00,0.0333
939.00,0.0331
938.00,0.0330
937.00,0.0330
936.00,0.0330
935.00,0.0329
934.00,0.0329
933.00,0.0328
932.00,0.0326
931.00,0.0325
930.00,0.0323
929.00,0.0322
928.00,0.0320
927.00,0.0319
926.00,0.0317
925.00,0.0315
924.00,0.0314
923.00,0.0312
922.00,0.0311
921.00,0.0309
920.00,0.0308
919.00,0.0306
918.00,0.0305
917.00,0.0303
916.00,0.0301
915.00,0.0299
914.00,0.0297
913.00,0.0295
912.00,0.0294
911.00,0.0292
910.00,0.0290
909.00,0.0289
908.00,0.0287
907.00,0.0286
906.00,0.0285
905.00,0.0284
904.00,0.0283
903.00,0.0283
902.00,0.0282
901.00,0.0281
900.00,0.0280
899.00,0.0280
898.00,0.0279
897.00,0.0279
896.00,0.0279
895.00,0.0279
894.00,0.0280
893.00,0.0280
892.00,0.0280
891.00,0.0281
890.00,0.0281
889.00,0.0282
888.00,0.0282
887.00,0.0282
886.00,0.0282
885.00,0.0281
884.00,0.0281
883.00,0.0282
882.00,0.0282
881.00,0.0282
880.00,0.0282
879.00,0.0282
878.00,0.0281
877.00,0.0280
876.00,0.0279
875.00,0.0278
874.00,0.0277
873.00,0.0277
872.00,0.0277
871.00,0.0277
870.00,0.0277
869.00,0.0277
868.00,0.0277
867.00,0.0278
866.00,0.0278
865.00,0.0279
864.00,0.0280
863.00,0.0281
862.00,0.0282
861.00,0.0284
860.00,0.0285
859.00,0.0287
858.00,0.0289
857.00,0.0291
856.00,0.0293
855.00,0.0295
854.00,0.0297
853.00,0.0299
852.00,0.0300
851.00,0.0301
850.00,0.0303
849.00,0.0304
848.00,0.0305
847.00,0.0305
846.00,0.0306
845.00,0.0307
844.00,0.0308
843.00,0.0310
842.00,0.0312
841.00,0.0314
840.00,0.0316
839.00,0.0318
838.00,0.0320
837.00,0.0323
836.00,0.0325
835.00,0.0328
834.00,0.0331
833.00,0.0334
832.00,0.0337
831.00,0.0339
830.00,0.0341
829.00,0.0343
828.00,0.0344
827.00,0.0346
826.00,0.0347
825.00,0.0348
824.00,0.0349
823.00,0.0351
822.00,0.0352
821.00,0.0355
820.00,0.0357
819.00,0.0360
818.00,0.0363
817.00,0.0365
816.00,0.0367
815.00,0.0368
814.00,0.0368
813.00,0.0368
812.00,0.0368
811.00,0.0367
810.00,0.0366
809.00,0.0366
808.00,0.0366
807.00,0.0366
806.00,0.0367
805.00,0.0368
804.00,0.0368
803.00,0.0370
802.00,0.0371
801.00,0.0373
800.00,0.0375
799.00,0.0376
798.00,0.0378
797.00,0.0380
796.00,0.0382
795.00,0.0383
794.00,0.0386
793.00,0.0388
792.00,0.0390
791.00,0.0393
790.00,0.0396
789.00,0.0400
788.00,0.0403
787.00,0.0407
786.00,0.0411
785.00,0.0414
784.00,0.0417
783.00,0.0419
782.00,0.0421
781.00,0.0423
780.00,0.0425
779.00,0.0426
778.00,0.0428
777.00,0.0428
776.00,0.0429
775.00,0.0430
774.00,0.0431
773.00,0.0432
772.00,0.0433
771.00,0.0435
770.00,0.0436
769.00,0.0438
768.00,0.0440
767.00,0.0442
766.00,0.0443
765.00,0.0445
764.00,0.0446
763.00,0.0447
762.00,0.0449
761.00,0.0451
760.00,0.0453
759.00,0.0455
758.00,0.0457
757.00,0.0459
756.00,0.0461
755.00,0.0463
754.00,0.0466
753.00,0.0469
752.00,0.0472
751.00,0.0476
750.00,0.0479
749.00,0.0483
748.00,0.0486
747.00,0.0489
746.00,0.0491
745.00,0.0494
744.00,0.0497
743.00,0.0499
742.00,0.0501
741.00,0.0503
740.00,0.0505
739.00,0.0506
738.00,0.0507
737.00,0.0509
736.00,0.0511
735.00,0.0513
734.00,0.0515
733.00,0.0518
732.00,0.0521
731.00,0.0524
730.00,0.0527
729.00,0.0531
728.00,0.0536
727.00,0.0541
726.00,0.0546
725.00,0.0552
724.00,0.0557
723.00,0.0562
722.00,0.0567
721.00,0.0572
720.00,0.0577
719.00,0.0582
718.00,0.0586
717.00,0.0590
716.00,0.0594
715.00,0.0599
714.00,0.0603
713.00,0.0608
712.00,0.0614
711.00,0.0619
710.00,0.0625
709.00,0.0630
708.00,0.0636
707.00,0.0642
706.00,0.0649
705.00,0.0655
704.00,0.0662
703.00,0.0668
702.00,0.0674
701.00,0.0680
700.00,0.0685
699.00,0.0689
698.00,0.0692
697.00,0.0694
696.00,0.0695
695.00,0.0694
694.00,0.0694
693.00,0.0693
692.00,0.0693
691.00,0.0694
690.00,0.0694
689.00,0.0695
688.00,0.0697
687.00,0.0698
686.00,0.0699
685.00,0.0701
684.00,0.0702
683.00,0.0703
682.00,0.0705
681.00,0.0706
680.00,0.0708
679.00,0.0710
678.00,0.0712
677.00,0.0714
676.00,0.0716
675.00,0.0717
674.00,0.0719
673.00,0.0721
672.00,0.0721
671.00,0.0721
670.00,0.0720
669.00,0.0724
668.00,0.0733
667.00,0.0741
666.00,0.0744
665.00,0.0744
664.00,0.0743
663.00,0.0744
662.00,0.0746
661.00,0.0748
660.00,0.0750
659.00,0.0751
658.00,0.0753
657.00,0.0754
656.00,0.0755
655.00,0.0757
654.00,0.0759
653.00,0.0760
652.00,0.0761
651.00,0.0762
650.00,0.0763
649.00,0.0765
648.00,0.0766
647.00,0.0768
646.00,0.0769
645.00,0.0771
644.00,0.0773
643.00,0.0775
642.00,0.0776
641.00,0.0778
640.00,0.0780
639.00,0.0781
638.00,0.0782
637.00,0.0782
636.00,0.0783
635.00,0.0785
634.00,0.0786
633.00,0.0787
632.00,0.0789
631.00,0.0792
630.00,0.0794
629.00,0.0797
628.00,0.0800
627.00,0.0802
626.00,0.0804
625.00,0.0806
624.00,0.0807
623.00,0.0809
622.00,0.0810
621.00,0.0812
620.00,0.0813
619.00,0.0815
618.00,0.0816
617.00,0.0816
616.00,0.0818
615.00,0.0819
614.00,0.0819
613.00,0.0819
612.00,0.0820
611.00,0.0820
610.00,0.0820
609.00,0.0821
608.00,0.0822
607.00,0.0822
606.00,0.0823
605.00,0.0823
604.00,0.0824
603.00,0.0825
602.00,0.0826
601.00,0.0826
600.00,0.0827
599.00,0.0827
598.00,0.0828
597.00,0.0829
596.00,0.0831
595.00,0.0833
594.00,0.0834
593.00,0.0835
592.00,0.0837
591.00,0.0839
590.00,0.0840
589.00,0.0842
588.00,0.0844
587.00,0.0846
586.00,0.0847
585.00,0.0849
584.00,0.0850
583.00,0.0852
582.00,0.0854
581.00,0.0856
580.00,0.0859
579.00,0.0861
578.00,0.0862
577.00,0.0863
576.00,0.0865
575.00,0.0866
574.00,0.0867
573.00,0.0868
572.00,0.0870
571.00,0.0872
570.00,0.0874
569.00,0.0876
568.00,0.0877
567.00,0.0879
566.00,0.0880
565.00,0.0881
564.00,0.0882
563.00,0.0884
562.00,0.0886
561.00,0.0888
560.00,0.0889
559.00,0.0890
558.00,0.0891
557.00,0.0891
556.00,0.0893
555.00,0.0895
554.00,0.0898
553.00,0.0900
552.00,0.0902
551.00,0.0903
550.00,0.0904
549.00,0.0905
548.00,0.0907
547.00,0.0909
546.00,0.0910
545.00,0.0912
544.00,0.0912
543.00,0.0913
542.00,0.0913
541.00,0.0913
540.00,0.0915
539.00,0.0916
538.00,0.0917
537.00,0.0918
536.00,0.0919
535.00,0.0920
534.00,0.0921
533.00,0.0923
532.00,0.0924
531.00,0.0925
530.00,0.0925
529.00,0.0925
528.00,0.0926
527.00,0.0926
526.00,0.0927
525.00,0.0928
524.00,0.0928
523.00,0.0928
522.00,0.0927
521.00,0.0927
520.00,0.0928
519.00,0.0929
518.00,0.0929
517.00,0.0929
516.00,0.0928
515.00,0.0927
514.00,0.0926
513.00,0.0926
512.00,0.0926
511.00,0.0926
510.00,0.0925
509.00,0.0923
508.00,0.0922
507.00,0.0921
506.00,0.0919
505.00,0.0916
504.00,0.0913
503.00,0.0912
502.00,0.0913
501.00,0.0915
500.00,0.0916
499.00,0.0916
498.00,0.0915
497.00,0.0914
496.00,0.0914
495.00,0.0914
494.00,0.0913
493.00,0.0912
492.00,0.0911
491.00,0.0911
490.00,0.0909
489.00,0.0907
488.00,0.0905
487.00,0.0904
486.00,0.0902
485.00,0.0901
484.00,0.0900
483.00,0.0898
482.00,0.0895
481.00,0.0893
480.00,0.0893
479.00,0.0891
478.00,0.0888
477.00,0.0884
476.00,0.0883
475.00,0.0883
474.00,0.0883
473.00,0.0883
472.00,0.0882
471.00,0.0880
470.00,0.0880
469.00,0.0881
468.00,0.0883
467.00,0.0884
466.00,0.0884
465.00,0.0882
464.00,0.0880
463.00,0.0877
462.00,0.0873
461.00,0.0870
460.00,0.0868
459.00,0.0867
458.00,0.0866
457.00,0.0866
456.00,0.0866
455.00,0.0865
454.00,0.0864
453.00,0.0864
452.00,0.0866
451.00,0.0867
450.00,0.0864
449.00,0.0860
448.00,0.0856
447.00,0.0854
446.00,0.0852
445.00,0.0851
444.00,0.0852
443.00,0.0853
442.00,0.0853
441.00,0.0852
440.00,0.0850
439.00,0.0848
438.00,0.0846
437.00,0.0844
436.00,0.0844
435.00,0.0843
434.00,0.0843
433.00,0.0844
432.00,0.0847
431.00,0.0850
430.00,0.0850
429.00,0.0849
428.00,0.0849
427.00,0.0849
426.00,0.0848
425.00,0.0846
424.00,0.0845
423.00,0.0842
422.00,0.0836
421.00,0.0830
420.00,0.0827
419.00,0.0831
418.00,0.0839
417.00,0.0846
416.00,0.0846
415.00,0.0839
414.00,0.0829
413.00,0.0823
412.00,0.0823
411.00,0.0824
410.00,0.0820
409.00,0.0813
408.00,0.0807
407.00,0.0804
406.00,0.0802
405.00,0.0802
404.00,0.0802
403.00,0.0801
402.00,0.0797
401.00,0.0794
400.00,0.0793
