Created as New Dataset,Sample 372 By YargerLab Date Wednesday, October 23 2024
cm-1,A
4000.00,0.0017
3999.00,0.0017
3998.00,0.0017
3997.00,0.0017
3996.00,0.0017
3995.00,0.0017
3994.00,0.0017
3993.00,0.0017
3992.00,0.0017
3991.00,0.0017
3990.00,0.0017
3989.00,0.0017
3988.00,0.0017
3987.00,0.0017
3986.00,0.0017
3985.00,0.0017
3984.00,0.0017
3983.00,0.0017
3982.00,0.0017
3981.00,0.0017
3980.00,0.0018
3979.00,0.0017
3978.00,0.0017
3977.00,0.0017
3976.00,0.0017
3975.00,0.0017
3974.00,0.0017
3973.00,0.0017
3972.00,0.0017
3971.00,0.0017
3970.00,0.0017
3969.00,0.0017
3968.00,0.0017
3967.00,0.0017
3966.00,0.0017
3965.00,0.0017
3964.00,0.0017
3963.00,0.0017
3962.00,0.0017
3961.00,0.0017
3960.00,0.0017
3959.00,0.0017
3958.00,0.0017
3957.00,0.0017
3956.00,0.0017
3955.00,0.0017
3954.00,0.0017
3953.00,0.0017
3952.00,0.0017
3951.00,0.0017
3950.00,0.0017
3949.00,0.0017
3948.00,0.0017
3947.00,0.0017
3946.00,0.0017
3945.00,0.0017
3944.00,0.0017
3943.00,0.0017
3942.00,0.0017
3941.00,0.0017
3940.00,0.0017
3939.00,0.0017
3938.00,0.0017
3937.00,0.0016
3936.00,0.0016
3935.00,0.0016
3934.00,0.0016
3933.00,0.0016
3932.00,0.0016
3931.00,0.0016
3930.00,0.0017
3929.00,0.0017
3928.00,0.0016
3927.00,0.0016
3926.00,0.0016
3925.00,0.0017
3924.00,0.0017
3923.00,0.0017
3922.00,0.0016
3921.00,0.0016
3920.00,0.0016
3919.00,0.0016
3918.00,0.0016
3917.00,0.0016
3916.00,0.0016
3915.00,0.0016
3914.00,0.0016
3913.00,0.0016
3912.00,0.0016
3911.00,0.0016
3910.00,0.0016
3909.00,0.0016
3908.00,0.0016
3907.00,0.0016
3906.00,0.0016
3905.00,0.0016
3904.00,0.0015
3903.00,0.0015
3902.00,0.0015
3901.00,0.0015
3900.00,0.0015
3899.00,0.0016
3898.00,0.0016
3897.00,0.0016
3896.00,0.0016
3895.00,0.0016
3894.00,0.0016
3893.00,0.0016
3892.00,0.0016
3891.00,0.0016
3890.00,0.0016
3889.00,0.0016
3888.00,0.0015
3887.00,0.0015
3886.00,0.0016
3885.00,0.0016
3884.00,0.0015
3883.00,0.0015
3882.00,0.0015
3881.00,0.0015
3880.00,0.0015
3879.00,0.0015
3878.00,0.0015
3877.00,0.0015
3876.00,0.0015
3875.00,0.0016
3874.00,0.0016
3873.00,0.0016
3872.00,0.0015
3871.00,0.0015
3870.00,0.0015
3869.00,0.0015
3868.00,0.0015
3867.00,0.0015
3866.00,0.0015
3865.00,0.0015
3864.00,0.0015
3863.00,0.0015
3862.00,0.0015
3861.00,0.0015
3860.00,0.0015
3859.00,0.0015
3858.00,0.0015
3857.00,0.0015
3856.00,0.0015
3855.00,0.0015
3854.00,0.0015
3853.00,0.0014
3852.00,0.0014
3851.00,0.0015
3850.00,0.0015
3849.00,0.0015
3848.00,0.0015
3847.00,0.0015
3846.00,0.0015
3845.00,0.0015
3844.00,0.0015
3843.00,0.0015
3842.00,0.0015
3841.00,0.0015
3840.00,0.0015
3839.00,0.0015
3838.00,0.0015
3837.00,0.0015
3836.00,0.0015
3835.00,0.0015
3834.00,0.0015
3833.00,0.0015
3832.00,0.0015
3831.00,0.0015
3830.00,0.0015
3829.00,0.0015
3828.00,0.0015
3827.00,0.0015
3826.00,0.0015
3825.00,0.0015
3824.00,0.0015
3823.00,0.0015
3822.00,0.0015
3821.00,0.0015
3820.00,0.0015
3819.00,0.0014
3818.00,0.0014
3817.00,0.0014
3816.00,0.0014
3815.00,0.0015
3814.00,0.0015
3813.00,0.0015
3812.00,0.0015
3811.00,0.0015
3810.00,0.0015
3809.00,0.0015
3808.00,0.0015
3807.00,0.0015
3806.00,0.0015
3805.00,0.0015
3804.00,0.0014
3803.00,0.0014
3802.00,0.0015
3801.00,0.0015
3800.00,0.0015
3799.00,0.0015
3798.00,0.0015
3797.00,0.0015
3796.00,0.0015
3795.00,0.0015
3794.00,0.0015
3793.00,0.0015
3792.00,0.0015
3791.00,0.0015
3790.00,0.0015
3789.00,0.0015
3788.00,0.0015
3787.00,0.0015
3786.00,0.0015
3785.00,0.0015
3784.00,0.0016
3783.00,0.0015
3782.00,0.0015
3781.00,0.0015
3780.00,0.0015
3779.00,0.0015
3778.00,0.0015
3777.00,0.0015
3776.00,0.0016
3775.00,0.0016
3774.00,0.0016
3773.00,0.0016
3772.00,0.0015
3771.00,0.0016
3770.00,0.0016
3769.00,0.0016
3768.00,0.0016
3767.00,0.0015
3766.00,0.0015
3765.00,0.0015
3764.00,0.0015
3763.00,0.0015
3762.00,0.0015
3761.00,0.0015
3760.00,0.0015
3759.00,0.0015
3758.00,0.0015
3757.00,0.0015
3756.00,0.0015
3755.00,0.0015
3754.00,0.0015
3753.00,0.0015
3752.00,0.0015
3751.00,0.0015
3750.00,0.0015
3749.00,0.0015
3748.00,0.0015
3747.00,0.0014
3746.00,0.0014
3745.00,0.0015
3744.00,0.0015
3743.00,0.0015
3742.00,0.0015
3741.00,0.0015
3740.00,0.0015
3739.00,0.0015
3738.00,0.0015
3737.00,0.0015
3736.00,0.0015
3735.00,0.0015
3734.00,0.0015
3733.00,0.0015
3732.00,0.0015
3731.00,0.0015
3730.00,0.0015
3729.00,0.0015
3728.00,0.0015
3727.00,0.0016
3726.00,0.0016
3725.00,0.0016
3724.00,0.0016
3723.00,0.0016
3722.00,0.0016
3721.00,0.0016
3720.00,0.0016
3719.00,0.0016
3718.00,0.0016
3717.00,0.0016
3716.00,0.0016
3715.00,0.0016
3714.00,0.0016
3713.00,0.0016
3712.00,0.0016
3711.00,0.0016
3710.00,0.0016
3709.00,0.0016
3708.00,0.0016
3707.00,0.0016
3706.00,0.0016
3705.00,0.0016
3704.00,0.0016
3703.00,0.0016
3702.00,0.0016
3701.00,0.0016
3700.00,0.0016
3699.00,0.0017
3698.00,0.0017
3697.00,0.0017
3696.00,0.0017
3695.00,0.0017
3694.00,0.0017
3693.00,0.0017
3692.00,0.0017
3691.00,0.0017
3690.00,0.0017
3689.00,0.0016
3688.00,0.0016
3687.00,0.0016
3686.00,0.0016
3685.00,0.0016
3684.00,0.0016
3683.00,0.0016
3682.00,0.0016
3681.00,0.0016
3680.00,0.0016
3679.00,0.0016
3678.00,0.0016
3677.00,0.0016
3676.00,0.0016
3675.00,0.0016
3674.00,0.0016
3673.00,0.0015
3672.00,0.0015
3671.00,0.0016
3670.00,0.0016
3669.00,0.0016
3668.00,0.0016
3667.00,0.0016
3666.00,0.0016
3665.00,0.0017
3664.00,0.0017
3663.00,0.0017
3662.00,0.0017
3661.00,0.0018
3660.00,0.0018
3659.00,0.0018
3658.00,0.0018
3657.00,0.0018
3656.00,0.0019
3655.00,0.0019
3654.00,0.0019
3653.00,0.0019
3652.00,0.0019
3651.00,0.0020
3650.00,0.0020
3649.00,0.0020
3648.00,0.0020
3647.00,0.0021
3646.00,0.0021
3645.00,0.0022
3644.00,0.0023
3643.00,0.0023
3642.00,0.0024
3641.00,0.0025
3640.00,0.0025
3639.00,0.0026
3638.00,0.0026
3637.00,0.0026
3636.00,0.0027
3635.00,0.0027
3634.00,0.0028
3633.00,0.0029
3632.00,0.0029
3631.00,0.0030
3630.00,0.0030
3629.00,0.0031
3628.00,0.0031
3627.00,0.0031
3626.00,0.0032
3625.00,0.0032
3624.00,0.0033
3623.00,0.0033
3622.00,0.0034
3621.00,0.0034
3620.00,0.0035
3619.00,0.0035
3618.00,0.0036
3617.00,0.0036
3616.00,0.0037
3615.00,0.0037
3614.00,0.0037
3613.00,0.0038
3612.00,0.0038
3611.00,0.0039
3610.00,0.0039
3609.00,0.0039
3608.00,0.0040
3607.00,0.0040
3606.00,0.0041
3605.00,0.0042
3604.00,0.0042
3603.00,0.0043
3602.00,0.0044
3601.00,0.0044
3600.00,0.0045
3599.00,0.0045
3598.00,0.0046
3597.00,0.0046
3596.00,0.0046
3595.00,0.0047
3594.00,0.0047
3593.00,0.0048
3592.00,0.0048
3591.00,0.0049
3590.00,0.0049
3589.00,0.0050
3588.00,0.0050
3587.00,0.0051
3586.00,0.0051
3585.00,0.0052
3584.00,0.0053
3583.00,0.0053
3582.00,0.0054
3581.00,0.0055
3580.00,0.0055
3579.00,0.0056
3578.00,0.0056
3577.00,0.0057
3576.00,0.0057
3575.00,0.0058
3574.00,0.0058
3573.00,0.0059
3572.00,0.0060
3571.00,0.0060
3570.00,0.0061
3569.00,0.0061
3568.00,0.0062
3567.00,0.0062
3566.00,0.0063
3565.00,0.0063
3564.00,0.0064
3563.00,0.0065
3562.00,0.0065
3561.00,0.0066
3560.00,0.0067
3559.00,0.0067
3558.00,0.0068
3557.00,0.0069
3556.00,0.0070
3555.00,0.0070
3554.00,0.0071
3553.00,0.0071
3552.00,0.0072
3551.00,0.0073
3550.00,0.0073
3549.00,0.0074
3548.00,0.0075
3547.00,0.0075
3546.00,0.0076
3545.00,0.0076
3544.00,0.0077
3543.00,0.0077
3542.00,0.0078
3541.00,0.0079
3540.00,0.0079
3539.00,0.0080
3538.00,0.0081
3537.00,0.0081
3536.00,0.0082
3535.00,0.0082
3534.00,0.0083
3533.00,0.0084
3532.00,0.0085
3531.00,0.0085
3530.00,0.0086
3529.00,0.0087
3528.00,0.0087
3527.00,0.0088
3526.00,0.0088
3525.00,0.0089
3524.00,0.0089
3523.00,0.0090
3522.00,0.0091
3521.00,0.0091
3520.00,0.0092
3519.00,0.0092
3518.00,0.0093
3517.00,0.0094
3516.00,0.0095
3515.00,0.0096
3514.00,0.0096
3513.00,0.0097
3512.00,0.0098
3511.00,0.0098
3510.00,0.0099
3509.00,0.0100
3508.00,0.0100
3507.00,0.0101
3506.00,0.0102
3505.00,0.0103
3504.00,0.0103
3503.00,0.0104
3502.00,0.0105
3501.00,0.0105
3500.00,0.0106
3499.00,0.0107
3498.00,0.0108
3497.00,0.0108
3496.00,0.0109
3495.00,0.0110
3494.00,0.0111
3493.00,0.0111
3492.00,0.0112
3491.00,0.0113
3490.00,0.0114
3489.00,0.0114
3488.00,0.0115
3487.00,0.0116
3486.00,0.0117
3485.00,0.0118
3484.00,0.0119
3483.00,0.0119
3482.00,0.0120
3481.00,0.0121
3480.00,0.0121
3479.00,0.0122
3478.00,0.0123
3477.00,0.0124
3476.00,0.0125
3475.00,0.0126
3474.00,0.0127
3473.00,0.0127
3472.00,0.0128
3471.00,0.0129
3470.00,0.0130
3469.00,0.0130
3468.00,0.0131
3467.00,0.0132
3466.00,0.0133
3465.00,0.0134
3464.00,0.0134
3463.00,0.0135
3462.00,0.0136
3461.00,0.0136
3460.00,0.0137
3459.00,0.0138
3458.00,0.0139
3457.00,0.0140
3456.00,0.0140
3455.00,0.0141
3454.00,0.0142
3453.00,0.0143
3452.00,0.0144
3451.00,0.0145
3450.00,0.0146
3449.00,0.0147
3448.00,0.0147
3447.00,0.0148
3446.00,0.0149
3445.00,0.0150
3444.00,0.0151
3443.00,0.0152
3442.00,0.0153
3441.00,0.0154
3440.00,0.0155
3439.00,0.0156
3438.00,0.0157
3437.00,0.0158
3436.00,0.0160
3435.00,0.0161
3434.00,0.0162
3433.00,0.0163
3432.00,0.0164
3431.00,0.0165
3430.00,0.0166
3429.00,0.0167
3428.00,0.0168
3427.00,0.0169
3426.00,0.0170
3425.00,0.0171
3424.00,0.0172
3423.00,0.0173
3422.00,0.0174
3421.00,0.0175
3420.00,0.0176
3419.00,0.0177
3418.00,0.0179
3417.00,0.0180
3416.00,0.0181
3415.00,0.0182
3414.00,0.0183
3413.00,0.0184
3412.00,0.0185
3411.00,0.0186
3410.00,0.0187
3409.00,0.0188
3408.00,0.0189
3407.00,0.0190
3406.00,0.0191
3405.00,0.0192
3404.00,0.0193
3403.00,0.0194
3402.00,0.0195
3401.00,0.0196
3400.00,0.0197
3399.00,0.0198
3398.00,0.0199
3397.00,0.0200
3396.00,0.0201
3395.00,0.0202
3394.00,0.0203
3393.00,0.0204
3392.00,0.0205
3391.00,0.0206
3390.00,0.0207
3389.00,0.0208
3388.00,0.0209
3387.00,0.0210
3386.00,0.0211
3385.00,0.0212
3384.00,0.0213
3383.00,0.0214
3382.00,0.0215
3381.00,0.0216
3380.00,0.0217
3379.00,0.0218
3378.00,0.0219
3377.00,0.0221
3376.00,0.0222
3375.00,0.0223
3374.00,0.0224
3373.00,0.0225
3372.00,0.0226
3371.00,0.0227
3370.00,0.0228
3369.00,0.0229
3368.00,0.0231
3367.00,0.0232
3366.00,0.0234
3365.00,0.0235
3364.00,0.0237
3363.00,0.0238
3362.00,0.0240
3361.00,0.0241
3360.00,0.0243
3359.00,0.0244
3358.00,0.0246
3357.00,0.0247
3356.00,0.0248
3355.00,0.0250
3354.00,0.0251
3353.00,0.0253
3352.00,0.0254
3351.00,0.0256
3350.00,0.0257
3349.00,0.0259
3348.00,0.0261
3347.00,0.0263
3346.00,0.0264
3345.00,0.0266
3344.00,0.0267
3343.00,0.0269
3342.00,0.0270
3341.00,0.0272
3340.00,0.0274
3339.00,0.0275
3338.00,0.0277
3337.00,0.0279
3336.00,0.0281
3335.00,0.0283
3334.00,0.0285
3333.00,0.0287
3332.00,0.0289
3331.00,0.0291
3330.00,0.0293
3329.00,0.0295
3328.00,0.0296
3327.00,0.0298
3326.00,0.0300
3325.00,0.0302
3324.00,0.0304
3323.00,0.0306
3322.00,0.0308
3321.00,0.0310
3320.00,0.0312
3319.00,0.0314
3318.00,0.0317
3317.00,0.0319
3316.00,0.0321
3315.00,0.0323
3314.00,0.0325
3313.00,0.0327
3312.00,0.0329
3311.00,0.0331
3310.00,0.0332
3309.00,0.0334
3308.00,0.0336
3307.00,0.0338
3306.00,0.0340
3305.00,0.0342
3304.00,0.0345
3303.00,0.0347
3302.00,0.0349
3301.00,0.0351
3300.00,0.0353
3299.00,0.0355
3298.00,0.0357
3297.00,0.0358
3296.00,0.0360
3295.00,0.0361
3294.00,0.0363
3293.00,0.0365
3292.00,0.0366
3291.00,0.0368
3290.00,0.0370
3289.00,0.0371
3288.00,0.0372
3287.00,0.0374
3286.00,0.0375
3285.00,0.0376
3284.00,0.0376
3283.00,0.0377
3282.00,0.0377
3281.00,0.0378
3280.00,0.0378
3279.00,0.0378
3278.00,0.0378
3277.00,0.0378
3276.00,0.0377
3275.00,0.0376
3274.00,0.0376
3273.00,0.0375
3272.00,0.0373
3271.00,0.0373
3270.00,0.0372
3269.00,0.0371
3268.00,0.0370
3267.00,0.0369
3266.00,0.0368
3265.00,0.0366
3264.00,0.0365
3263.00,0.0363
3262.00,0.0361
3261.00,0.0359
3260.00,0.0357
3259.00,0.0355
3258.00,0.0353
3257.00,0.0351
3256.00,0.0348
3255.00,0.0346
3254.00,0.0345
3253.00,0.0343
3252.00,0.0341
3251.00,0.0339
3250.00,0.0337
3249.00,0.0334
3248.00,0.0332
3247.00,0.0330
3246.00,0.0329
3245.00,0.0327
3244.00,0.0326
3243.00,0.0324
3242.00,0.0322
3241.00,0.0321
3240.00,0.0319
3239.00,0.0318
3238.00,0.0316
3237.00,0.0314
3236.00,0.0312
3235.00,0.0310
3234.00,0.0309
3233.00,0.0308
3232.00,0.0307
3231.00,0.0306
3230.00,0.0305
3229.00,0.0303
3228.00,0.0302
3227.00,0.0301
3226.00,0.0300
3225.00,0.0299
3224.00,0.0298
3223.00,0.0297
3222.00,0.0296
3221.00,0.0295
3220.00,0.0294
3219.00,0.0292
3218.00,0.0291
3217.00,0.0290
3216.00,0.0289
3215.00,0.0288
3214.00,0.0287
3213.00,0.0286
3212.00,0.0285
3211.00,0.0284
3210.00,0.0284
3209.00,0.0283
3208.00,0.0282
3207.00,0.0281
3206.00,0.0280
3205.00,0.0279
3204.00,0.0278
3203.00,0.0277
3202.00,0.0276
3201.00,0.0275
3200.00,0.0274
3199.00,0.0273
3198.00,0.0272
3197.00,0.0271
3196.00,0.0270
3195.00,0.0269
3194.00,0.0268
3193.00,0.0267
3192.00,0.0266
3191.00,0.0265
3190.00,0.0264
3189.00,0.0263
3188.00,0.0261
3187.00,0.0260
3186.00,0.0259
3185.00,0.0258
3184.00,0.0257
3183.00,0.0256
3182.00,0.0255
3181.00,0.0253
3180.00,0.0252
3179.00,0.0251
3178.00,0.0250
3177.00,0.0249
3176.00,0.0248
3175.00,0.0247
3174.00,0.0246
3173.00,0.0244
3172.00,0.0243
3171.00,0.0242
3170.00,0.0241
3169.00,0.0240
3168.00,0.0239
3167.00,0.0238
3166.00,0.0237
3165.00,0.0235
3164.00,0.0234
3163.00,0.0233
3162.00,0.0232
3161.00,0.0231
3160.00,0.0230
3159.00,0.0229
3158.00,0.0228
3157.00,0.0227
3156.00,0.0226
3155.00,0.0225
3154.00,0.0224
3153.00,0.0223
3152.00,0.0222
3151.00,0.0221
3150.00,0.0220
3149.00,0.0220
3148.00,0.0219
3147.00,0.0218
3146.00,0.0217
3145.00,0.0216
3144.00,0.0215
3143.00,0.0215
3142.00,0.0214
3141.00,0.0213
3140.00,0.0212
3139.00,0.0211
3138.00,0.0211
3137.00,0.0210
3136.00,0.0210
3135.00,0.0209
3134.00,0.0209
3133.00,0.0208
3132.00,0.0207
3131.00,0.0207
3130.00,0.0206
3129.00,0.0206
3128.00,0.0205
3127.00,0.0205
3126.00,0.0205
3125.00,0.0204
3124.00,0.0204
3123.00,0.0203
3122.00,0.0202
3121.00,0.0202
3120.00,0.0201
3119.00,0.0201
3118.00,0.0200
3117.00,0.0200
3116.00,0.0200
3115.00,0.0201
3114.00,0.0201
3113.00,0.0201
3112.00,0.0201
3111.00,0.0201
3110.00,0.0201
3109.00,0.0201
3108.00,0.0201
3107.00,0.0201
3106.00,0.0202
3105.00,0.0202
3104.00,0.0202
3103.00,0.0202
3102.00,0.0202
3101.00,0.0202
3100.00,0.0203
3099.00,0.0203
3098.00,0.0204
3097.00,0.0204
3096.00,0.0204
3095.00,0.0204
3094.00,0.0205
3093.00,0.0205
3092.00,0.0205
3091.00,0.0205
3090.00,0.0205
3089.00,0.0205
3088.00,0.0206
3087.00,0.0206
3086.00,0.0206
3085.00,0.0206
3084.00,0.0206
3083.00,0.0206
3082.00,0.0206
3081.00,0.0206
3080.00,0.0206
3079.00,0.0206
3078.00,0.0207
3077.00,0.0207
3076.00,0.0208
3075.00,0.0208
3074.00,0.0209
3073.00,0.0209
3072.00,0.0209
3071.00,0.0208
3070.00,0.0208
3069.00,0.0207
3068.00,0.0207
3067.00,0.0207
3066.00,0.0207
3065.00,0.0207
3064.00,0.0207
3063.00,0.0207
3062.00,0.0206
3061.00,0.0206
3060.00,0.0205
3059.00,0.0205
3058.00,0.0204
3057.00,0.0203
3056.00,0.0202
3055.00,0.0201
3054.00,0.0200
3053.00,0.0199
3052.00,0.0198
3051.00,0.0198
3050.00,0.0197
3049.00,0.0196
3048.00,0.0196
3047.00,0.0194
3046.00,0.0193
3045.00,0.0192
3044.00,0.0191
3043.00,0.0190
3042.00,0.0189
3041.00,0.0189
3040.00,0.0189
3039.00,0.0188
3038.00,0.0187
3037.00,0.0186
3036.00,0.0185
3035.00,0.0184
3034.00,0.0184
3033.00,0.0183
3032.00,0.0182
3031.00,0.0182
3030.00,0.0181
3029.00,0.0181
3028.00,0.0180
3027.00,0.0179
3026.00,0.0178
3025.00,0.0177
3024.00,0.0176
3023.00,0.0175
3022.00,0.0174
3021.00,0.0173
3020.00,0.0172
3019.00,0.0171
3018.00,0.0170
3017.00,0.0168
3016.00,0.0167
3015.00,0.0166
3014.00,0.0165
3013.00,0.0164
3012.00,0.0163
3011.00,0.0162
3010.00,0.0161
3009.00,0.0160
3008.00,0.0159
3007.00,0.0158
3006.00,0.0156
3005.00,0.0155
3004.00,0.0154
3003.00,0.0152
3002.00,0.0151
3001.00,0.0150
3000.00,0.0149
2999.00,0.0148
2998.00,0.0147
2997.00,0.0147
2996.00,0.0147
2995.00,0.0147
2994.00,0.0147
2993.00,0.0148
2992.00,0.0148
2991.00,0.0150
2990.00,0.0151
2989.00,0.0152
2988.00,0.0154
2987.00,0.0155
2986.00,0.0155
2985.00,0.0155
2984.00,0.0154
2983.00,0.0153
2982.00,0.0153
2981.00,0.0155
2980.00,0.0159
2979.00,0.0165
2978.00,0.0170
2977.00,0.0176
2976.00,0.0181
2975.00,0.0185
2974.00,0.0189
2973.00,0.0192
2972.00,0.0195
2971.00,0.0199
2970.00,0.0203
2969.00,0.0207
2968.00,0.0211
2967.00,0.0215
2966.00,0.0218
2965.00,0.0221
2964.00,0.0223
2963.00,0.0225
2962.00,0.0226
2961.00,0.0227
2960.00,0.0227
2959.00,0.0227
2958.00,0.0226
2957.00,0.0226
2956.00,0.0224
2955.00,0.0223
2954.00,0.0222
2953.00,0.0220
2952.00,0.0219
2951.00,0.0218
2950.00,0.0218
2949.00,0.0217
2948.00,0.0217
2947.00,0.0217
2946.00,0.0218
2945.00,0.0219
2944.00,0.0221
2943.00,0.0223
2942.00,0.0226
2941.00,0.0228
2940.00,0.0231
2939.00,0.0233
2938.00,0.0236
2937.00,0.0239
2936.00,0.0241
2935.00,0.0243
2934.00,0.0245
2933.00,0.0247
2932.00,0.0248
2931.00,0.0250
2930.00,0.0251
2929.00,0.0251
2928.00,0.0252
2927.00,0.0252
2926.00,0.0253
2925.00,0.0252
2924.00,0.0252
2923.00,0.0251
2922.00,0.0249
2921.00,0.0247
2920.00,0.0244
2919.00,0.0242
2918.00,0.0238
2917.00,0.0235
2916.00,0.0232
2915.00,0.0228
2914.00,0.0225
2913.00,0.0221
2912.00,0.0218
2911.00,0.0215
2910.00,0.0212
2909.00,0.0210
2908.00,0.0207
2907.00,0.0205
2906.00,0.0202
2905.00,0.0200
2904.00,0.0198
2903.00,0.0196
2902.00,0.0194
2901.00,0.0193
2900.00,0.0191
2899.00,0.0190
2898.00,0.0188
2897.00,0.0187
2896.00,0.0185
2895.00,0.0184
2894.00,0.0182
2893.00,0.0181
2892.00,0.0180
2891.00,0.0179
2890.00,0.0178
2889.00,0.0178
2888.00,0.0177
2887.00,0.0177
2886.00,0.0177
2885.00,0.0177
2884.00,0.0178
2883.00,0.0179
2882.00,0.0180
2881.00,0.0181
2880.00,0.0183
2879.00,0.0185
2878.00,0.0186
2877.00,0.0187
2876.00,0.0188
2875.00,0.0189
2874.00,0.0189
2873.00,0.0189
2872.00,0.0188
2871.00,0.0187
2870.00,0.0186
2869.00,0.0185
2868.00,0.0184
2867.00,0.0182
2866.00,0.0181
2865.00,0.0180
2864.00,0.0179
2863.00,0.0178
2862.00,0.0177
2861.00,0.0177
2860.00,0.0177
2859.00,0.0177
2858.00,0.0177
2857.00,0.0177
2856.00,0.0177
2855.00,0.0177
2854.00,0.0176
2853.00,0.0175
2852.00,0.0174
2851.00,0.0172
2850.00,0.0170
2849.00,0.0167
2848.00,0.0164
2847.00,0.0161
2846.00,0.0158
2845.00,0.0155
2844.00,0.0152
2843.00,0.0150
2842.00,0.0147
2841.00,0.0145
2840.00,0.0143
2839.00,0.0141
2838.00,0.0140
2837.00,0.0139
2836.00,0.0138
2835.00,0.0137
2834.00,0.0136
2833.00,0.0135
2832.00,0.0134
2831.00,0.0133
2830.00,0.0133
2829.00,0.0132
2828.00,0.0131
2827.00,0.0130
2826.00,0.0130
2825.00,0.0129
2824.00,0.0129
2823.00,0.0128
2822.00,0.0128
2821.00,0.0127
2820.00,0.0127
2819.00,0.0126
2818.00,0.0126
2817.00,0.0125
2816.00,0.0125
2815.00,0.0124
2814.00,0.0124
2813.00,0.0123
2812.00,0.0123
2811.00,0.0122
2810.00,0.0122
2809.00,0.0121
2808.00,0.0121
2807.00,0.0121
2806.00,0.0120
2805.00,0.0120
2804.00,0.0120
2803.00,0.0119
2802.00,0.0118
2801.00,0.0118
2800.00,0.0117
2799.00,0.0117
2798.00,0.0117
2797.00,0.0116
2796.00,0.0116
2795.00,0.0116
2794.00,0.0115
2793.00,0.0115
2792.00,0.0114
2791.00,0.0114
2790.00,0.0114
2789.00,0.0113
2788.00,0.0113
2787.00,0.0113
2786.00,0.0112
2785.00,0.0112
2784.00,0.0112
2783.00,0.0111
2782.00,0.0111
2781.00,0.0111
2780.00,0.0110
2779.00,0.0110
2778.00,0.0109
2777.00,0.0109
2776.00,0.0109
2775.00,0.0108
2774.00,0.0108
2773.00,0.0108
2772.00,0.0107
2771.00,0.0107
2770.00,0.0107
2769.00,0.0106
2768.00,0.0106
2767.00,0.0106
2766.00,0.0105
2765.00,0.0105
2764.00,0.0105
2763.00,0.0104
2762.00,0.0104
2761.00,0.0104
2760.00,0.0103
2759.00,0.0103
2758.00,0.0103
2757.00,0.0103
2756.00,0.0102
2755.00,0.0102
2754.00,0.0101
2753.00,0.0101
2752.00,0.0101
2751.00,0.0100
2750.00,0.0100
2749.00,0.0100
2748.00,0.0099
2747.00,0.0099
2746.00,0.0099
2745.00,0.0098
2744.00,0.0098
2743.00,0.0098
2742.00,0.0098
2741.00,0.0097
2740.00,0.0097
2739.00,0.0097
2738.00,0.0096
2737.00,0.0096
2736.00,0.0096
2735.00,0.0095
2734.00,0.0095
2733.00,0.0095
2732.00,0.0095
2731.00,0.0094
2730.00,0.0094
2729.00,0.0094
2728.00,0.0093
2727.00,0.0093
2726.00,0.0092
2725.00,0.0092
2724.00,0.0092
2723.00,0.0092
2722.00,0.0091
2721.00,0.0091
2720.00,0.0090
2719.00,0.0090
2718.00,0.0090
2717.00,0.0090
2716.00,0.0089
2715.00,0.0089
2714.00,0.0089
2713.00,0.0088
2712.00,0.0088
2711.00,0.0088
2710.00,0.0087
2709.00,0.0087
2708.00,0.0087
2707.00,0.0086
2706.00,0.0086
2705.00,0.0086
2704.00,0.0086
2703.00,0.0085
2702.00,0.0085
2701.00,0.0085
2700.00,0.0085
2699.00,0.0085
2698.00,0.0084
2697.00,0.0084
2696.00,0.0084
2695.00,0.0084
2694.00,0.0083
2693.00,0.0083
2692.00,0.0083
2691.00,0.0083
2690.00,0.0083
2689.00,0.0083
2688.00,0.0082
2687.00,0.0082
2686.00,0.0082
2685.00,0.0082
2684.00,0.0082
2683.00,0.0081
2682.00,0.0081
2681.00,0.0081
2680.00,0.0081
2679.00,0.0080
2678.00,0.0080
2677.00,0.0080
2676.00,0.0080
2675.00,0.0080
2674.00,0.0079
2673.00,0.0079
2672.00,0.0079
2671.00,0.0079
2670.00,0.0079
2669.00,0.0079
2668.00,0.0078
2667.00,0.0078
2666.00,0.0078
2665.00,0.0078
2664.00,0.0078
2663.00,0.0078
2662.00,0.0078
2661.00,0.0077
2660.00,0.0077
2659.00,0.0077
2658.00,0.0077
2657.00,0.0077
2656.00,0.0077
2655.00,0.0077
2654.00,0.0077
2653.00,0.0077
2652.00,0.0077
2651.00,0.0077
2650.00,0.0077
2649.00,0.0076
2648.00,0.0076
2647.00,0.0076
2646.00,0.0076
2645.00,0.0076
2644.00,0.0076
2643.00,0.0076
2642.00,0.0076
2641.00,0.0076
2640.00,0.0076
2639.00,0.0076
2638.00,0.0075
2637.00,0.0075
2636.00,0.0075
2635.00,0.0075
2634.00,0.0075
2633.00,0.0075
2632.00,0.0075
2631.00,0.0075
2630.00,0.0075
2629.00,0.0075
2628.00,0.0075
2627.00,0.0075
2626.00,0.0075
2625.00,0.0075
2624.00,0.0075
2623.00,0.0075
2622.00,0.0075
2621.00,0.0075
2620.00,0.0074
2619.00,0.0074
2618.00,0.0074
2617.00,0.0074
2616.00,0.0074
2615.00,0.0074
2614.00,0.0074
2613.00,0.0074
2612.00,0.0074
2611.00,0.0074
2610.00,0.0074
2609.00,0.0074
2608.00,0.0073
2607.00,0.0073
2606.00,0.0073
2605.00,0.0073
2604.00,0.0073
2603.00,0.0073
2602.00,0.0073
2601.00,0.0072
2600.00,0.0072
2599.00,0.0072
2598.00,0.0072
2597.00,0.0072
2596.00,0.0072
2595.00,0.0072
2594.00,0.0072
2593.00,0.0072
2592.00,0.0072
2591.00,0.0071
2590.00,0.0071
2589.00,0.0071
2588.00,0.0071
2587.00,0.0071
2586.00,0.0070
2585.00,0.0070
2584.00,0.0070
2583.00,0.0070
2582.00,0.0070
2581.00,0.0070
2580.00,0.0070
2579.00,0.0070
2578.00,0.0069
2577.00,0.0069
2576.00,0.0069
2575.00,0.0069
2574.00,0.0069
2573.00,0.0069
2572.00,0.0068
2571.00,0.0068
2570.00,0.0068
2569.00,0.0068
2568.00,0.0068
2567.00,0.0068
2566.00,0.0068
2565.00,0.0068
2564.00,0.0068
2563.00,0.0068
2562.00,0.0067
2561.00,0.0067
2560.00,0.0067
2559.00,0.0067
2558.00,0.0067
2557.00,0.0067
2556.00,0.0067
2555.00,0.0066
2554.00,0.0066
2553.00,0.0066
2552.00,0.0066
2551.00,0.0066
2550.00,0.0066
2549.00,0.0066
2548.00,0.0066
2547.00,0.0066
2546.00,0.0065
2545.00,0.0065
2544.00,0.0065
2543.00,0.0065
2542.00,0.0065
2541.00,0.0065
2540.00,0.0065
2539.00,0.0065
2538.00,0.0064
2537.00,0.0064
2536.00,0.0064
2535.00,0.0064
2534.00,0.0064
2533.00,0.0064
2532.00,0.0064
2531.00,0.0064
2530.00,0.0064
2529.00,0.0064
2528.00,0.0064
2527.00,0.0063
2526.00,0.0063
2525.00,0.0063
2524.00,0.0063
2523.00,0.0063
2522.00,0.0063
2521.00,0.0063
2520.00,0.0062
2519.00,0.0062
2518.00,0.0062
2517.00,0.0062
2516.00,0.0062
2515.00,0.0062
2514.00,0.0061
2513.00,0.0061
2512.00,0.0061
2511.00,0.0061
2510.00,0.0061
2509.00,0.0061
2508.00,0.0061
2507.00,0.0061
2506.00,0.0061
2505.00,0.0061
2504.00,0.0061
2503.00,0.0061
2502.00,0.0061
2501.00,0.0060
2500.00,0.0060
2499.00,0.0060
2498.00,0.0060
2497.00,0.0060
2496.00,0.0060
2495.00,0.0060
2494.00,0.0060
2493.00,0.0060
2492.00,0.0060
2491.00,0.0059
2490.00,0.0059
2489.00,0.0059
2488.00,0.0059
2487.00,0.0058
2486.00,0.0058
2485.00,0.0058
2484.00,0.0058
2483.00,0.0058
2482.00,0.0058
2481.00,0.0058
2480.00,0.0057
2479.00,0.0057
2478.00,0.0057
2477.00,0.0057
2476.00,0.0057
2475.00,0.0057
2474.00,0.0057
2473.00,0.0056
2472.00,0.0056
2471.00,0.0056
2470.00,0.0056
2469.00,0.0056
2468.00,0.0055
2467.00,0.0055
2466.00,0.0055
2465.00,0.0055
2464.00,0.0055
2463.00,0.0055
2462.00,0.0055
2461.00,0.0055
2460.00,0.0055
2459.00,0.0054
2458.00,0.0054
2457.00,0.0054
2456.00,0.0054
2455.00,0.0054
2454.00,0.0054
2453.00,0.0053
2452.00,0.0053
2451.00,0.0053
2450.00,0.0053
2449.00,0.0053
2448.00,0.0053
2447.00,0.0053
2446.00,0.0053
2445.00,0.0053
2444.00,0.0052
2443.00,0.0052
2442.00,0.0052
2441.00,0.0052
2440.00,0.0052
2439.00,0.0052
2438.00,0.0052
2437.00,0.0052
2436.00,0.0052
2435.00,0.0052
2434.00,0.0051
2433.00,0.0051
2432.00,0.0051
2431.00,0.0051
2430.00,0.0051
2429.00,0.0051
2428.00,0.0051
2427.00,0.0051
2426.00,0.0051
2425.00,0.0051
2424.00,0.0050
2423.00,0.0050
2422.00,0.0050
2421.00,0.0050
2420.00,0.0050
2419.00,0.0050
2418.00,0.0049
2417.00,0.0049
2416.00,0.0049
2415.00,0.0049
2414.00,0.0049
2413.00,0.0049
2412.00,0.0049
2411.00,0.0049
2410.00,0.0049
2409.00,0.0048
2408.00,0.0048
2407.00,0.0048
2406.00,0.0048
2405.00,0.0048
2404.00,0.0048
2403.00,0.0047
2402.00,0.0047
2401.00,0.0047
2400.00,0.0047
2399.00,0.0047
2398.00,0.0046
2397.00,0.0046
2396.00,0.0046
2395.00,0.0046
2394.00,0.0046
2393.00,0.0046
2392.00,0.0046
2391.00,0.0046
2390.00,0.0046
2389.00,0.0046
2388.00,0.0045
2387.00,0.0045
2386.00,0.0045
2385.00,0.0045
2384.00,0.0045
2383.00,0.0045
2382.00,0.0045
2381.00,0.0045
2380.00,0.0045
2379.00,0.0045
2378.00,0.0045
2377.00,0.0045
2376.00,0.0045
2375.00,0.0045
2374.00,0.0045
2373.00,0.0044
2372.00,0.0044
2371.00,0.0044
2370.00,0.0044
2369.00,0.0044
2368.00,0.0044
2367.00,0.0044
2366.00,0.0044
2365.00,0.0044
2364.00,0.0044
2363.00,0.0044
2362.00,0.0044
2361.00,0.0043
2360.00,0.0043
2359.00,0.0043
2358.00,0.0043
2357.00,0.0043
2356.00,0.0043
2355.00,0.0043
2354.00,0.0043
2353.00,0.0043
2352.00,0.0043
2351.00,0.0042
2350.00,0.0042
2349.00,0.0042
2348.00,0.0042
2347.00,0.0042
2346.00,0.0042
2345.00,0.0042
2344.00,0.0042
2343.00,0.0042
2342.00,0.0041
2341.00,0.0041
2340.00,0.0042
2339.00,0.0042
2338.00,0.0042
2337.00,0.0042
2336.00,0.0042
2335.00,0.0042
2334.00,0.0042
2333.00,0.0041
2332.00,0.0041
2331.00,0.0041
2330.00,0.0041
2329.00,0.0041
2328.00,0.0041
2327.00,0.0041
2326.00,0.0041
2325.00,0.0041
2324.00,0.0041
2323.00,0.0041
2322.00,0.0041
2321.00,0.0041
2320.00,0.0040
2319.00,0.0040
2318.00,0.0040
2317.00,0.0040
2316.00,0.0041
2315.00,0.0041
2314.00,0.0041
2313.00,0.0040
2312.00,0.0040
2311.00,0.0040
2310.00,0.0040
2309.00,0.0040
2308.00,0.0040
2307.00,0.0040
2306.00,0.0040
2305.00,0.0040
2304.00,0.0040
2303.00,0.0040
2302.00,0.0040
2301.00,0.0040
2300.00,0.0040
2299.00,0.0040
2298.00,0.0040
2297.00,0.0040
2296.00,0.0040
2295.00,0.0040
2294.00,0.0040
2293.00,0.0040
2292.00,0.0040
2291.00,0.0039
2290.00,0.0039
2289.00,0.0039
2288.00,0.0039
2287.00,0.0039
2286.00,0.0039
2285.00,0.0039
2284.00,0.0039
2283.00,0.0039
2282.00,0.0039
2281.00,0.0039
2280.00,0.0039
2279.00,0.0039
2278.00,0.0039
2277.00,0.0039
2276.00,0.0039
2275.00,0.0039
2274.00,0.0040
2273.00,0.0040
2272.00,0.0040
2271.00,0.0040
2270.00,0.0040
2269.00,0.0040
2268.00,0.0040
2267.00,0.0039
2266.00,0.0039
2265.00,0.0039
2264.00,0.0039
2263.00,0.0039
2262.00,0.0039
2261.00,0.0039
2260.00,0.0039
2259.00,0.0038
2258.00,0.0038
2257.00,0.0038
2256.00,0.0038
2255.00,0.0038
2254.00,0.0038
2253.00,0.0038
2252.00,0.0038
2251.00,0.0038
2250.00,0.0038
2249.00,0.0038
2248.00,0.0038
2247.00,0.0038
2246.00,0.0038
2245.00,0.0038
2244.00,0.0038
2243.00,0.0038
2242.00,0.0038
2241.00,0.0038
2240.00,0.0038
2239.00,0.0038
2238.00,0.0038
2237.00,0.0038
2236.00,0.0038
2235.00,0.0037
2234.00,0.0037
2233.00,0.0037
2232.00,0.0037
2231.00,0.0037
2230.00,0.0037
2229.00,0.0037
2228.00,0.0037
2227.00,0.0037
2226.00,0.0037
2225.00,0.0038
2224.00,0.0038
2223.00,0.0038
2222.00,0.0038
2221.00,0.0038
2220.00,0.0038
2219.00,0.0038
2218.00,0.0038
2217.00,0.0037
2216.00,0.0038
2215.00,0.0038
2214.00,0.0037
2213.00,0.0037
2212.00,0.0037
2211.00,0.0037
2210.00,0.0037
2209.00,0.0037
2208.00,0.0036
2207.00,0.0036
2206.00,0.0036
2205.00,0.0036
2204.00,0.0036
2203.00,0.0037
2202.00,0.0037
2201.00,0.0037
2200.00,0.0037
2199.00,0.0037
2198.00,0.0037
2197.00,0.0037
2196.00,0.0037
2195.00,0.0037
2194.00,0.0036
2193.00,0.0036
2192.00,0.0036
2191.00,0.0035
2190.00,0.0035
2189.00,0.0035
2188.00,0.0035
2187.00,0.0035
2186.00,0.0035
2185.00,0.0035
2184.00,0.0035
2183.00,0.0035
2182.00,0.0035
2181.00,0.0034
2180.00,0.0034
2179.00,0.0034
2178.00,0.0035
2177.00,0.0035
2176.00,0.0036
2175.00,0.0037
2174.00,0.0037
2173.00,0.0037
2172.00,0.0037
2171.00,0.0036
2170.00,0.0035
2169.00,0.0034
2168.00,0.0034
2167.00,0.0034
2166.00,0.0034
2165.00,0.0034
2164.00,0.0034
2163.00,0.0033
2162.00,0.0032
2161.00,0.0031
2160.00,0.0031
2159.00,0.0031
2158.00,0.0032
2157.00,0.0034
2156.00,0.0035
2155.00,0.0035
2154.00,0.0035
2153.00,0.0035
2152.00,0.0035
2151.00,0.0035
2150.00,0.0035
2149.00,0.0035
2148.00,0.0035
2147.00,0.0035
2146.00,0.0035
2145.00,0.0035
2144.00,0.0035
2143.00,0.0035
2142.00,0.0035
2141.00,0.0035
2140.00,0.0035
2139.00,0.0035
2138.00,0.0035
2137.00,0.0035
2136.00,0.0035
2135.00,0.0035
2134.00,0.0035
2133.00,0.0035
2132.00,0.0036
2131.00,0.0036
2130.00,0.0036
2129.00,0.0036
2128.00,0.0036
2127.00,0.0036
2126.00,0.0036
2125.00,0.0035
2124.00,0.0035
2123.00,0.0035
2122.00,0.0036
2121.00,0.0036
2120.00,0.0036
2119.00,0.0036
2118.00,0.0036
2117.00,0.0036
2116.00,0.0036
2115.00,0.0036
2114.00,0.0036
2113.00,0.0036
2112.00,0.0036
2111.00,0.0036
2110.00,0.0036
2109.00,0.0036
2108.00,0.0036
2107.00,0.0036
2106.00,0.0036
2105.00,0.0036
2104.00,0.0036
2103.00,0.0036
2102.00,0.0036
2101.00,0.0035
2100.00,0.0035
2099.00,0.0035
2098.00,0.0035
2097.00,0.0035
2096.00,0.0035
2095.00,0.0035
2094.00,0.0035
2093.00,0.0035
2092.00,0.0035
2091.00,0.0035
2090.00,0.0034
2089.00,0.0034
2088.00,0.0034
2087.00,0.0034
2086.00,0.0034
2085.00,0.0034
2084.00,0.0034
2083.00,0.0034
2082.00,0.0034
2081.00,0.0034
2080.00,0.0034
2079.00,0.0033
2078.00,0.0033
2077.00,0.0033
2076.00,0.0033
2075.00,0.0033
2074.00,0.0034
2073.00,0.0034
2072.00,0.0034
2071.00,0.0034
2070.00,0.0033
2069.00,0.0033
2068.00,0.0033
2067.00,0.0033
2066.00,0.0033
2065.00,0.0033
2064.00,0.0033
2063.00,0.0033
2062.00,0.0033
2061.00,0.0032
2060.00,0.0032
2059.00,0.0032
2058.00,0.0031
2057.00,0.0032
2056.00,0.0032
2055.00,0.0032
2054.00,0.0031
2053.00,0.0031
2052.00,0.0031
2051.00,0.0030
2050.00,0.0030
2049.00,0.0030
2048.00,0.0031
2047.00,0.0031
2046.00,0.0031
2045.00,0.0031
2044.00,0.0031
2043.00,0.0031
2042.00,0.0030
2041.00,0.0030
2040.00,0.0030
2039.00,0.0030
2038.00,0.0029
2037.00,0.0029
2036.00,0.0030
2035.00,0.0030
2034.00,0.0030
2033.00,0.0030
2032.00,0.0031
2031.00,0.0031
2030.00,0.0030
2029.00,0.0030
2028.00,0.0030
2027.00,0.0030
2026.00,0.0029
2025.00,0.0029
2024.00,0.0029
2023.00,0.0029
2022.00,0.0028
2021.00,0.0028
2020.00,0.0029
2019.00,0.0030
2018.00,0.0030
2017.00,0.0030
2016.00,0.0030
2015.00,0.0029
2014.00,0.0028
2013.00,0.0027
2012.00,0.0027
2011.00,0.0027
2010.00,0.0027
2009.00,0.0027
2008.00,0.0027
2007.00,0.0028
2006.00,0.0028
2005.00,0.0029
2004.00,0.0030
2003.00,0.0030
2002.00,0.0030
2001.00,0.0030
2000.00,0.0030
1999.00,0.0031
1998.00,0.0030
1997.00,0.0030
1996.00,0.0029
1995.00,0.0028
1994.00,0.0026
1993.00,0.0026
1992.00,0.0026
1991.00,0.0026
1990.00,0.0026
1989.00,0.0027
1988.00,0.0028
1987.00,0.0028
1986.00,0.0028
1985.00,0.0029
1984.00,0.0029
1983.00,0.0029
1982.00,0.0029
1981.00,0.0028
1980.00,0.0028
1979.00,0.0027
1978.00,0.0026
1977.00,0.0026
1976.00,0.0026
1975.00,0.0026
1974.00,0.0025
1973.00,0.0025
1972.00,0.0024
1971.00,0.0024
1970.00,0.0024
1969.00,0.0026
1968.00,0.0027
1967.00,0.0028
1966.00,0.0028
1965.00,0.0028
1964.00,0.0028
1963.00,0.0028
1962.00,0.0028
1961.00,0.0028
1960.00,0.0028
1959.00,0.0028
1958.00,0.0028
1957.00,0.0028
1956.00,0.0028
1955.00,0.0027
1954.00,0.0026
1953.00,0.0026
1952.00,0.0027
1951.00,0.0027
1950.00,0.0027
1949.00,0.0027
1948.00,0.0027
1947.00,0.0026
1946.00,0.0026
1945.00,0.0026
1944.00,0.0027
1943.00,0.0027
1942.00,0.0027
1941.00,0.0026
1940.00,0.0027
1939.00,0.0026
1938.00,0.0026
1937.00,0.0025
1936.00,0.0025
1935.00,0.0025
1934.00,0.0025
1933.00,0.0026
1932.00,0.0026
1931.00,0.0026
1930.00,0.0026
1929.00,0.0026
1928.00,0.0026
1927.00,0.0027
1926.00,0.0026
1925.00,0.0026
1924.00,0.0026
1923.00,0.0026
1922.00,0.0025
1921.00,0.0025
1920.00,0.0025
1919.00,0.0025
1918.00,0.0025
1917.00,0.0025
1916.00,0.0025
1915.00,0.0025
1914.00,0.0025
1913.00,0.0025
1912.00,0.0025
1911.00,0.0025
1910.00,0.0025
1909.00,0.0025
1908.00,0.0025
1907.00,0.0025
1906.00,0.0025
1905.00,0.0025
1904.00,0.0025
1903.00,0.0025
1902.00,0.0025
1901.00,0.0025
1900.00,0.0024
1899.00,0.0024
1898.00,0.0024
1897.00,0.0024
1896.00,0.0024
1895.00,0.0024
1894.00,0.0024
1893.00,0.0024
1892.00,0.0024
1891.00,0.0024
1890.00,0.0024
1889.00,0.0024
1888.00,0.0024
1887.00,0.0024
1886.00,0.0024
1885.00,0.0024
1884.00,0.0024
1883.00,0.0024
1882.00,0.0024
1881.00,0.0024
1880.00,0.0024
1879.00,0.0024
1878.00,0.0024
1877.00,0.0023
1876.00,0.0023
1875.00,0.0023
1874.00,0.0023
1873.00,0.0022
1872.00,0.0022
1871.00,0.0022
1870.00,0.0022
1869.00,0.0022
1868.00,0.0022
1867.00,0.0022
1866.00,0.0022
1865.00,0.0022
1864.00,0.0022
1863.00,0.0022
1862.00,0.0022
1861.00,0.0022
1860.00,0.0022
1859.00,0.0022
1858.00,0.0022
1857.00,0.0022
1856.00,0.0022
1855.00,0.0022
1854.00,0.0021
1853.00,0.0021
1852.00,0.0021
1851.00,0.0021
1850.00,0.0021
1849.00,0.0021
1848.00,0.0021
1847.00,0.0021
1846.00,0.0021
1845.00,0.0021
1844.00,0.0021
1843.00,0.0021
1842.00,0.0021
1841.00,0.0020
1840.00,0.0020
1839.00,0.0021
1838.00,0.0021
1837.00,0.0021
1836.00,0.0021
1835.00,0.0021
1834.00,0.0020
1833.00,0.0020
1832.00,0.0020
1831.00,0.0019
1830.00,0.0019
1829.00,0.0019
1828.00,0.0019
1827.00,0.0019
1826.00,0.0019
1825.00,0.0019
1824.00,0.0020
1823.00,0.0020
1822.00,0.0020
1821.00,0.0020
1820.00,0.0020
1819.00,0.0020
1818.00,0.0020
1817.00,0.0020
1816.00,0.0020
1815.00,0.0020
1814.00,0.0019
1813.00,0.0019
1812.00,0.0019
1811.00,0.0019
1810.00,0.0019
1809.00,0.0019
1808.00,0.0019
1807.00,0.0019
1806.00,0.0019
1805.00,0.0019
1804.00,0.0019
1803.00,0.0019
1802.00,0.0018
1801.00,0.0018
1800.00,0.0018
1799.00,0.0019
1798.00,0.0018
1797.00,0.0018
1796.00,0.0018
1795.00,0.0018
1794.00,0.0018
1793.00,0.0018
1792.00,0.0019
1791.00,0.0019
1790.00,0.0018
1789.00,0.0018
1788.00,0.0019
1787.00,0.0019
1786.00,0.0019
1785.00,0.0019
1784.00,0.0019
1783.00,0.0019
1782.00,0.0019
1781.00,0.0019
1780.00,0.0019
1779.00,0.0019
1778.00,0.0019
1777.00,0.0019
1776.00,0.0019
1775.00,0.0020
1774.00,0.0020
1773.00,0.0020
1772.00,0.0020
1771.00,0.0019
1770.00,0.0019
1769.00,0.0020
1768.00,0.0021
1767.00,0.0021
1766.00,0.0021
1765.00,0.0021
1764.00,0.0021
1763.00,0.0022
1762.00,0.0022
1761.00,0.0022
1760.00,0.0023
1759.00,0.0023
1758.00,0.0024
1757.00,0.0025
1756.00,0.0026
1755.00,0.0027
1754.00,0.0029
1753.00,0.0030
1752.00,0.0031
1751.00,0.0032
1750.00,0.0032
1749.00,0.0033
1748.00,0.0034
1747.00,0.0036
1746.00,0.0037
1745.00,0.0038
1744.00,0.0040
1743.00,0.0041
1742.00,0.0041
1741.00,0.0043
1740.00,0.0044
1739.00,0.0045
1738.00,0.0046
1737.00,0.0049
1736.00,0.0052
1735.00,0.0054
1734.00,0.0055
1733.00,0.0054
1732.00,0.0052
1731.00,0.0052
1730.00,0.0053
1729.00,0.0054
1728.00,0.0055
1727.00,0.0056
1726.00,0.0057
1725.00,0.0058
1724.00,0.0060
1723.00,0.0061
1722.00,0.0063
1721.00,0.0065
1720.00,0.0068
1719.00,0.0072
1718.00,0.0075
1717.00,0.0077
1716.00,0.0079
1715.00,0.0082
1714.00,0.0085
1713.00,0.0089
1712.00,0.0095
1711.00,0.0100
1710.00,0.0106
1709.00,0.0112
1708.00,0.0120
1707.00,0.0129
1706.00,0.0139
1705.00,0.0150
1704.00,0.0163
1703.00,0.0176
1702.00,0.0190
1701.00,0.0209
1700.00,0.0231
1699.00,0.0251
1698.00,0.0268
1697.00,0.0284
1696.00,0.0300
1695.00,0.0313
1694.00,0.0323
1693.00,0.0332
1692.00,0.0342
1691.00,0.0352
1690.00,0.0363
1689.00,0.0374
1688.00,0.0386
1687.00,0.0399
1686.00,0.0410
1685.00,0.0421
1684.00,0.0430
1683.00,0.0439
1682.00,0.0449
1681.00,0.0460
1680.00,0.0472
1679.00,0.0484
1678.00,0.0496
1677.00,0.0508
1676.00,0.0520
1675.00,0.0531
1674.00,0.0542
1673.00,0.0553
1672.00,0.0565
1671.00,0.0578
1670.00,0.0589
1669.00,0.0601
1668.00,0.0612
1667.00,0.0624
1666.00,0.0637
1665.00,0.0649
1664.00,0.0662
1663.00,0.0674
1662.00,0.0684
1661.00,0.0695
1660.00,0.0707
1659.00,0.0719
1658.00,0.0732
1657.00,0.0745
1656.00,0.0761
1655.00,0.0777
1654.00,0.0787
1653.00,0.0789
1652.00,0.0789
1651.00,0.0794
1650.00,0.0803
1649.00,0.0814
1648.00,0.0824
1647.00,0.0831
1646.00,0.0834
1645.00,0.0838
1644.00,0.0845
1643.00,0.0853
1642.00,0.0861
1641.00,0.0868
1640.00,0.0876
1639.00,0.0886
1638.00,0.0895
1637.00,0.0902
1636.00,0.0907
1635.00,0.0910
1634.00,0.0915
1633.00,0.0924
1632.00,0.0935
1631.00,0.0946
1630.00,0.0955
1629.00,0.0961
1628.00,0.0966
1627.00,0.0970
1626.00,0.0973
1625.00,0.0974
1624.00,0.0969
1623.00,0.0960
1622.00,0.0948
1621.00,0.0937
1620.00,0.0929
1619.00,0.0919
1618.00,0.0902
1617.00,0.0874
1616.00,0.0842
1615.00,0.0814
1614.00,0.0791
1613.00,0.0771
1612.00,0.0750
1611.00,0.0727
1610.00,0.0703
1609.00,0.0679
1608.00,0.0657
1607.00,0.0635
1606.00,0.0616
1605.00,0.0599
1604.00,0.0582
1603.00,0.0566
1602.00,0.0552
1601.00,0.0539
1600.00,0.0528
1599.00,0.0517
1598.00,0.0508
1597.00,0.0500
1596.00,0.0492
1595.00,0.0485
1594.00,0.0478
1593.00,0.0472
1592.00,0.0466
1591.00,0.0461
1590.00,0.0456
1589.00,0.0452
1588.00,0.0449
1587.00,0.0446
1586.00,0.0444
1585.00,0.0443
1584.00,0.0442
1583.00,0.0442
1582.00,0.0442
1581.00,0.0443
1580.00,0.0446
1579.00,0.0450
1578.00,0.0455
1577.00,0.0459
1576.00,0.0460
1575.00,0.0460
1574.00,0.0462
1573.00,0.0467
1572.00,0.0473
1571.00,0.0479
1570.00,0.0485
1569.00,0.0491
1568.00,0.0498
1567.00,0.0505
1566.00,0.0512
1565.00,0.0521
1564.00,0.0530
1563.00,0.0541
1562.00,0.0552
1561.00,0.0563
1560.00,0.0571
1559.00,0.0576
1558.00,0.0581
1557.00,0.0590
1556.00,0.0600
1555.00,0.0611
1554.00,0.0621
1553.00,0.0631
1552.00,0.0641
1551.00,0.0650
1550.00,0.0660
1549.00,0.0670
1548.00,0.0680
1547.00,0.0690
1546.00,0.0700
1545.00,0.0710
1544.00,0.0720
1543.00,0.0730
1542.00,0.0740
1541.00,0.0749
1540.00,0.0754
1539.00,0.0758
1538.00,0.0763
1537.00,0.0770
1536.00,0.0779
1535.00,0.0788
1534.00,0.0794
1533.00,0.0799
1532.00,0.0804
1531.00,0.0810
1530.00,0.0818
1529.00,0.0824
1528.00,0.0830
1527.00,0.0834
1526.00,0.0837
1525.00,0.0842
1524.00,0.0847
1523.00,0.0853
1522.00,0.0857
1521.00,0.0857
1520.00,0.0859
1519.00,0.0863
1518.00,0.0869
1517.00,0.0874
1516.00,0.0876
1515.00,0.0878
1514.00,0.0878
1513.00,0.0877
1512.00,0.0872
1511.00,0.0867
1510.00,0.0863
1509.00,0.0859
1508.00,0.0849
1507.00,0.0829
1506.00,0.0806
1505.00,0.0789
1504.00,0.0777
1503.00,0.0769
1502.00,0.0761
1501.00,0.0751
1500.00,0.0739
1499.00,0.0727
1498.00,0.0713
1497.00,0.0696
1496.00,0.0677
1495.00,0.0659
1494.00,0.0643
1493.00,0.0629
1492.00,0.0615
1491.00,0.0598
1490.00,0.0579
1489.00,0.0561
1488.00,0.0545
1487.00,0.0530
1486.00,0.0518
1485.00,0.0506
1484.00,0.0495
1483.00,0.0485
1482.00,0.0475
1481.00,0.0465
1480.00,0.0457
1479.00,0.0451
1478.00,0.0446
1477.00,0.0443
1476.00,0.0441
1475.00,0.0440
1474.00,0.0441
1473.00,0.0442
1472.00,0.0445
1471.00,0.0448
1470.00,0.0452
1469.00,0.0456
1468.00,0.0459
1467.00,0.0461
1466.00,0.0461
1465.00,0.0459
1464.00,0.0458
1463.00,0.0458
1462.00,0.0459
1461.00,0.0461
1460.00,0.0465
1459.00,0.0469
1458.00,0.0473
1457.00,0.0475
1456.00,0.0476
1455.00,0.0477
1454.00,0.0478
1453.00,0.0480
1452.00,0.0480
1451.00,0.0480
1450.00,0.0480
1449.00,0.0479
1448.00,0.0477
1447.00,0.0475
1446.00,0.0474
1445.00,0.0472
1444.00,0.0471
1443.00,0.0469
1442.00,0.0466
1441.00,0.0464
1440.00,0.0462
1439.00,0.0460
1438.00,0.0457
1437.00,0.0451
1436.00,0.0444
1435.00,0.0438
1434.00,0.0433
1433.00,0.0428
1432.00,0.0423
1431.00,0.0418
1430.00,0.0413
1429.00,0.0408
1428.00,0.0405
1427.00,0.0402
1426.00,0.0401
1425.00,0.0399
1424.00,0.0398
1423.00,0.0399
1422.00,0.0401
1421.00,0.0403
1420.00,0.0405
1419.00,0.0407
1418.00,0.0408
1417.00,0.0410
1416.00,0.0413
1415.00,0.0416
1414.00,0.0420
1413.00,0.0423
1412.00,0.0427
1411.00,0.0430
1410.00,0.0433
1409.00,0.0437
1408.00,0.0440
1407.00,0.0443
1406.00,0.0447
1405.00,0.0450
1404.00,0.0453
1403.00,0.0456
1402.00,0.0459
1401.00,0.0462
1400.00,0.0464
1399.00,0.0466
1398.00,0.0468
1397.00,0.0470
1396.00,0.0472
1395.00,0.0473
1394.00,0.0475
1393.00,0.0476
1392.00,0.0477
1391.00,0.0479
1390.00,0.0481
1389.00,0.0481
1388.00,0.0481
1387.00,0.0479
1386.00,0.0476
1385.00,0.0473
1384.00,0.0470
1383.00,0.0467
1382.00,0.0464
1381.00,0.0460
1380.00,0.0457
1379.00,0.0453
1378.00,0.0449
1377.00,0.0445
1376.00,0.0441
1375.00,0.0437
1374.00,0.0433
1373.00,0.0429
1372.00,0.0427
1371.00,0.0425
1370.00,0.0423
1369.00,0.0421
1368.00,0.0418
1367.00,0.0414
1366.00,0.0410
1365.00,0.0405
1364.00,0.0400
1363.00,0.0394
1362.00,0.0388
1361.00,0.0383
1360.00,0.0380
1359.00,0.0376
1358.00,0.0373
1357.00,0.0371
1356.00,0.0369
1355.00,0.0367
1354.00,0.0366
1353.00,0.0365
1352.00,0.0364
1351.00,0.0363
1350.00,0.0363
1349.00,0.0362
1348.00,0.0362
1347.00,0.0362
1346.00,0.0362
1345.00,0.0362
1344.00,0.0362
1343.00,0.0363
1342.00,0.0363
1341.00,0.0363
1340.00,0.0362
1339.00,0.0361
1338.00,0.0360
1337.00,0.0359
1336.00,0.0358
1335.00,0.0357
1334.00,0.0356
1333.00,0.0355
1332.00,0.0354
1331.00,0.0353
1330.00,0.0352
1329.00,0.0351
1328.00,0.0351
1327.00,0.0351
1326.00,0.0351
1325.00,0.0351
1324.00,0.0352
1323.00,0.0352
1322.00,0.0353
1321.00,0.0354
1320.00,0.0355
1319.00,0.0356
1318.00,0.0357
1317.00,0.0359
1316.00,0.0360
1315.00,0.0361
1314.00,0.0362
1313.00,0.0363
1312.00,0.0364
1311.00,0.0364
1310.00,0.0365
1309.00,0.0365
1308.00,0.0365
1307.00,0.0365
1306.00,0.0365
1305.00,0.0364
1304.00,0.0364
1303.00,0.0363
1302.00,0.0363
1301.00,0.0362
1300.00,0.0362
1299.00,0.0362
1298.00,0.0362
1297.00,0.0362
1296.00,0.0362
1295.00,0.0362
1294.00,0.0363
1293.00,0.0363
1292.00,0.0364
1291.00,0.0365
1290.00,0.0366
1289.00,0.0367
1288.00,0.0368
1287.00,0.0369
1286.00,0.0370
1285.00,0.0371
1284.00,0.0372
1283.00,0.0372
1282.00,0.0373
1281.00,0.0373
1280.00,0.0373
1279.00,0.0374
1278.00,0.0374
1277.00,0.0374
1276.00,0.0374
1275.00,0.0375
1274.00,0.0375
1273.00,0.0376
1272.00,0.0376
1271.00,0.0377
1270.00,0.0378
1269.00,0.0380
1268.00,0.0381
1267.00,0.0383
1266.00,0.0385
1265.00,0.0388
1264.00,0.0390
1263.00,0.0393
1262.00,0.0397
1261.00,0.0400
1260.00,0.0404
1259.00,0.0408
1258.00,0.0412
1257.00,0.0416
1256.00,0.0420
1255.00,0.0424
1254.00,0.0428
1253.00,0.0432
1252.00,0.0436
1251.00,0.0441
1250.00,0.0445
1249.00,0.0450
1248.00,0.0455
1247.00,0.0459
1246.00,0.0463
1245.00,0.0467
1244.00,0.0471
1243.00,0.0474
1242.00,0.0478
1241.00,0.0481
1240.00,0.0484
1239.00,0.0486
1238.00,0.0489
1237.00,0.0491
1236.00,0.0493
1235.00,0.0495
1234.00,0.0497
1233.00,0.0498
1232.00,0.0499
1231.00,0.0500
1230.00,0.0501
1229.00,0.0501
1228.00,0.0500
1227.00,0.0499
1226.00,0.0498
1225.00,0.0497
1224.00,0.0495
1223.00,0.0493
1222.00,0.0490
1221.00,0.0488
1220.00,0.0485
1219.00,0.0481
1218.00,0.0477
1217.00,0.0472
1216.00,0.0468
1215.00,0.0463
1214.00,0.0457
1213.00,0.0451
1212.00,0.0446
1211.00,0.0440
1210.00,0.0434
1209.00,0.0427
1208.00,0.0421
1207.00,0.0415
1206.00,0.0409
1205.00,0.0402
1204.00,0.0396
1203.00,0.0390
1202.00,0.0385
1201.00,0.0379
1200.00,0.0374
1199.00,0.0368
1198.00,0.0363
1197.00,0.0359
1196.00,0.0354
1195.00,0.0351
1194.00,0.0347
1193.00,0.0343
1192.00,0.0340
1191.00,0.0337
1190.00,0.0334
1189.00,0.0331
1188.00,0.0329
1187.00,0.0326
1186.00,0.0324
1185.00,0.0321
1184.00,0.0319
1183.00,0.0317
1182.00,0.0316
1181.00,0.0314
1180.00,0.0314
1179.00,0.0313
1178.00,0.0314
1177.00,0.0315
1176.00,0.0317
1175.00,0.0318
1174.00,0.0321
1173.00,0.0323
1172.00,0.0324
1171.00,0.0326
1170.00,0.0328
1169.00,0.0329
1168.00,0.0331
1167.00,0.0332
1166.00,0.0334
1165.00,0.0337
1164.00,0.0339
1163.00,0.0341
1162.00,0.0343
1161.00,0.0345
1160.00,0.0346
1159.00,0.0346
1158.00,0.0346
1157.00,0.0346
1156.00,0.0345
1155.00,0.0344
1154.00,0.0342
1153.00,0.0340
1152.00,0.0338
1151.00,0.0336
1150.00,0.0334
1149.00,0.0331
1148.00,0.0329
1147.00,0.0326
1146.00,0.0324
1145.00,0.0322
1144.00,0.0320
1143.00,0.0319
1142.00,0.0318
1141.00,0.0317
1140.00,0.0317
1139.00,0.0317
1138.00,0.0318
1137.00,0.0320
1136.00,0.0322
1135.00,0.0326
1134.00,0.0329
1133.00,0.0333
1132.00,0.0337
1131.00,0.0340
1130.00,0.0344
1129.00,0.0347
1128.00,0.0349
1127.00,0.0351
1126.00,0.0352
1125.00,0.0352
1124.00,0.0352
1123.00,0.0352
1122.00,0.0352
1121.00,0.0352
1120.00,0.0352
1119.00,0.0352
1118.00,0.0353
1117.00,0.0354
1116.00,0.0356
1115.00,0.0357
1114.00,0.0359
1113.00,0.0361
1112.00,0.0363
1111.00,0.0365
1110.00,0.0367
1109.00,0.0370
1108.00,0.0372
1107.00,0.0374
1106.00,0.0377
1105.00,0.0379
1104.00,0.0381
1103.00,0.0383
1102.00,0.0384
1101.00,0.0386
1100.00,0.0387
1099.00,0.0388
1098.00,0.0390
1097.00,0.0392
1096.00,0.0394
1095.00,0.0396
1094.00,0.0398
1093.00,0.0401
1092.00,0.0404
1091.00,0.0407
1090.00,0.0411
1089.00,0.0415
1088.00,0.0419
1087.00,0.0423
1086.00,0.0427
1085.00,0.0431
1084.00,0.0435
1083.00,0.0439
1082.00,0.0442
1081.00,0.0445
1080.00,0.0448
1079.00,0.0450
1078.00,0.0452
1077.00,0.0454
1076.00,0.0455
1075.00,0.0455
1074.00,0.0455
1073.00,0.0455
1072.00,0.0455
1071.00,0.0455
1070.00,0.0454
1069.00,0.0453
1068.00,0.0453
1067.00,0.0453
1066.00,0.0452
1065.00,0.0452
1064.00,0.0451
1063.00,0.0450
1062.00,0.0449
1061.00,0.0448
1060.00,0.0446
1059.00,0.0445
1058.00,0.0444
1057.00,0.0442
1056.00,0.0440
1055.00,0.0438
1054.00,0.0437
1053.00,0.0434
1052.00,0.0432
1051.00,0.0430
1050.00,0.0427
1049.00,0.0425
1048.00,0.0423
1047.00,0.0421
1046.00,0.0418
1045.00,0.0416
1044.00,0.0413
1043.00,0.0411
1042.00,0.0409
1041.00,0.0406
1040.00,0.0404
1039.00,0.0402
1038.00,0.0400
1037.00,0.0398
1036.00,0.0396
1035.00,0.0394
1034.00,0.0393
1033.00,0.0392
1032.00,0.0390
1031.00,0.0389
1030.00,0.0387
1029.00,0.0385
1028.00,0.0383
1027.00,0.0380
1026.00,0.0377
1025.00,0.0373
1024.00,0.0370
1023.00,0.0366
1022.00,0.0362
1021.00,0.0358
1020.00,0.0354
1019.00,0.0350
1018.00,0.0346
1017.00,0.0342
1016.00,0.0338
1015.00,0.0334
1014.00,0.0330
1013.00,0.0326
1012.00,0.0322
1011.00,0.0318
1010.00,0.0314
1009.00,0.0309
1008.00,0.0305
1007.00,0.0302
1006.00,0.0298
1005.00,0.0294
1004.00,0.0291
1003.00,0.0288
1002.00,0.0285
1001.00,0.0282
1000.00,0.0280
999.00,0.0277
998.00,0.0275
997.00,0.0272
996.00,0.0270
995.00,0.0268
994.00,0.0266
993.00,0.0263
992.00,0.0261
991.00,0.0259
990.00,0.0256
989.00,0.0254
988.00,0.0251
987.00,0.0249
986.00,0.0246
985.00,0.0244
984.00,0.0242
983.00,0.0240
982.00,0.0239
981.00,0.0237
980.00,0.0236
979.00,0.0234
978.00,0.0233
977.00,0.0232
976.00,0.0231
975.00,0.0230
974.00,0.0230
973.00,0.0229
972.00,0.0228
971.00,0.0228
970.00,0.0227
969.00,0.0227
968.00,0.0227
967.00,0.0227
966.00,0.0227
965.00,0.0228
964.00,0.0229
963.00,0.0231
962.00,0.0233
961.00,0.0235
960.00,0.0237
959.00,0.0240
958.00,0.0244
957.00,0.0249
956.00,0.0254
955.00,0.0260
954.00,0.0265
953.00,0.0270
952.00,0.0274
951.00,0.0277
950.00,0.0278
949.00,0.0278
948.00,0.0276
947.00,0.0273
946.00,0.0270
945.00,0.0266
944.00,0.0262
943.00,0.0259
942.00,0.0257
941.00,0.0254
940.00,0.0253
939.00,0.0252
938.00,0.0252
937.00,0.0251
936.00,0.0251
935.00,0.0251
934.00,0.0251
933.00,0.0251
932.00,0.0251
931.00,0.0251
930.00,0.0250
929.00,0.0249
928.00,0.0247
927.00,0.0246
926.00,0.0245
925.00,0.0243
924.00,0.0242
923.00,0.0241
922.00,0.0240
921.00,0.0239
920.00,0.0237
919.00,0.0236
918.00,0.0234
917.00,0.0233
916.00,0.0231
915.00,0.0230
914.00,0.0228
913.00,0.0227
912.00,0.0226
911.00,0.0225
910.00,0.0224
909.00,0.0223
908.00,0.0222
907.00,0.0221
906.00,0.0220
905.00,0.0219
904.00,0.0219
903.00,0.0218
902.00,0.0217
901.00,0.0217
900.00,0.0216
899.00,0.0216
898.00,0.0215
897.00,0.0215
896.00,0.0215
895.00,0.0215
894.00,0.0214
893.00,0.0214
892.00,0.0214
891.00,0.0214
890.00,0.0214
889.00,0.0214
888.00,0.0215
887.00,0.0215
886.00,0.0215
885.00,0.0215
884.00,0.0215
883.00,0.0215
882.00,0.0215
881.00,0.0215
880.00,0.0215
879.00,0.0215
878.00,0.0215
877.00,0.0214
876.00,0.0214
875.00,0.0214
874.00,0.0213
873.00,0.0213
872.00,0.0212
871.00,0.0212
870.00,0.0212
869.00,0.0212
868.00,0.0212
867.00,0.0213
866.00,0.0213
865.00,0.0213
864.00,0.0214
863.00,0.0215
862.00,0.0216
861.00,0.0217
860.00,0.0218
859.00,0.0219
858.00,0.0221
857.00,0.0222
856.00,0.0224
855.00,0.0226
854.00,0.0228
853.00,0.0230
852.00,0.0231
851.00,0.0232
850.00,0.0233
849.00,0.0234
848.00,0.0235
847.00,0.0235
846.00,0.0235
845.00,0.0236
844.00,0.0236
843.00,0.0237
842.00,0.0239
841.00,0.0240
840.00,0.0242
839.00,0.0244
838.00,0.0246
837.00,0.0249
836.00,0.0251
835.00,0.0254
834.00,0.0256
833.00,0.0258
832.00,0.0260
831.00,0.0262
830.00,0.0264
829.00,0.0266
828.00,0.0267
827.00,0.0269
826.00,0.0270
825.00,0.0271
824.00,0.0272
823.00,0.0273
822.00,0.0275
821.00,0.0277
820.00,0.0280
819.00,0.0283
818.00,0.0286
817.00,0.0288
816.00,0.0290
815.00,0.0290
814.00,0.0290
813.00,0.0290
812.00,0.0289
811.00,0.0287
810.00,0.0286
809.00,0.0285
808.00,0.0285
807.00,0.0285
806.00,0.0285
805.00,0.0285
804.00,0.0286
803.00,0.0287
802.00,0.0288
801.00,0.0289
800.00,0.0290
799.00,0.0292
798.00,0.0293
797.00,0.0295
796.00,0.0296
795.00,0.0298
794.00,0.0300
793.00,0.0302
792.00,0.0304
791.00,0.0306
790.00,0.0309
789.00,0.0312
788.00,0.0314
787.00,0.0317
786.00,0.0320
785.00,0.0323
784.00,0.0326
783.00,0.0328
782.00,0.0330
781.00,0.0332
780.00,0.0333
779.00,0.0335
778.00,0.0336
777.00,0.0337
776.00,0.0338
775.00,0.0339
774.00,0.0339
773.00,0.0341
772.00,0.0342
771.00,0.0344
770.00,0.0345
769.00,0.0347
768.00,0.0348
767.00,0.0349
766.00,0.0350
765.00,0.0351
764.00,0.0353
763.00,0.0354
762.00,0.0355
761.00,0.0357
760.00,0.0359
759.00,0.0361
758.00,0.0363
757.00,0.0365
756.00,0.0367
755.00,0.0369
754.00,0.0371
753.00,0.0374
752.00,0.0376
751.00,0.0379
750.00,0.0382
749.00,0.0384
748.00,0.0387
747.00,0.0390
746.00,0.0392
745.00,0.0395
744.00,0.0397
743.00,0.0399
742.00,0.0400
741.00,0.0401
740.00,0.0402
739.00,0.0403
738.00,0.0404
737.00,0.0405
736.00,0.0406
735.00,0.0408
734.00,0.0409
733.00,0.0411
732.00,0.0414
731.00,0.0416
730.00,0.0419
729.00,0.0422
728.00,0.0426
727.00,0.0430
726.00,0.0434
725.00,0.0438
724.00,0.0443
723.00,0.0447
722.00,0.0452
721.00,0.0456
720.00,0.0460
719.00,0.0464
718.00,0.0468
717.00,0.0472
716.00,0.0475
715.00,0.0479
714.00,0.0483
713.00,0.0488
712.00,0.0492
711.00,0.0496
710.00,0.0501
709.00,0.0506
708.00,0.0511
707.00,0.0517
706.00,0.0522
705.00,0.0528
704.00,0.0534
703.00,0.0540
702.00,0.0545
701.00,0.0550
700.00,0.0553
699.00,0.0556
698.00,0.0558
697.00,0.0559
696.00,0.0560
695.00,0.0560
694.00,0.0559
693.00,0.0559
692.00,0.0559
691.00,0.0559
690.00,0.0559
689.00,0.0559
688.00,0.0560
687.00,0.0561
686.00,0.0562
685.00,0.0564
684.00,0.0565
683.00,0.0567
682.00,0.0568
681.00,0.0569
680.00,0.0571
679.00,0.0572
678.00,0.0573
677.00,0.0574
676.00,0.0575
675.00,0.0576
674.00,0.0577
673.00,0.0578
672.00,0.0580
671.00,0.0582
670.00,0.0585
669.00,0.0587
668.00,0.0589
667.00,0.0590
666.00,0.0591
665.00,0.0593
664.00,0.0595
663.00,0.0597
662.00,0.0599
661.00,0.0600
660.00,0.0601
659.00,0.0602
658.00,0.0603
657.00,0.0604
656.00,0.0605
655.00,0.0606
654.00,0.0607
653.00,0.0607
652.00,0.0608
651.00,0.0609
650.00,0.0610
649.00,0.0611
648.00,0.0612
647.00,0.0613
646.00,0.0614
645.00,0.0615
644.00,0.0616
643.00,0.0618
642.00,0.0618
641.00,0.0619
640.00,0.0620
639.00,0.0620
638.00,0.0620
637.00,0.0621
636.00,0.0622
635.00,0.0623
634.00,0.0624
633.00,0.0626
632.00,0.0627
631.00,0.0629
630.00,0.0631
629.00,0.0634
628.00,0.0636
627.00,0.0638
626.00,0.0640
625.00,0.0641
624.00,0.0642
623.00,0.0644
622.00,0.0645
621.00,0.0646
620.00,0.0647
619.00,0.0647
618.00,0.0648
617.00,0.0648
616.00,0.0648
615.00,0.0648
614.00,0.0649
613.00,0.0649
612.00,0.0649
611.00,0.0648
610.00,0.0648
609.00,0.0649
608.00,0.0650
607.00,0.0651
606.00,0.0651
605.00,0.0651
604.00,0.0651
603.00,0.0652
602.00,0.0653
601.00,0.0653
600.00,0.0654
599.00,0.0655
598.00,0.0656
597.00,0.0657
596.00,0.0659
595.00,0.0660
594.00,0.0661
593.00,0.0662
592.00,0.0663
591.00,0.0664
590.00,0.0665
589.00,0.0666
588.00,0.0667
587.00,0.0668
586.00,0.0669
585.00,0.0670
584.00,0.0671
583.00,0.0673
582.00,0.0674
581.00,0.0675
580.00,0.0677
579.00,0.0678
578.00,0.0680
577.00,0.0681
576.00,0.0682
575.00,0.0683
574.00,0.0684
573.00,0.0686
572.00,0.0688
571.00,0.0690
570.00,0.0691
569.00,0.0692
568.00,0.0693
567.00,0.0694
566.00,0.0695
565.00,0.0697
564.00,0.0698
563.00,0.0700
562.00,0.0702
561.00,0.0704
560.00,0.0706
559.00,0.0708
558.00,0.0709
557.00,0.0710
556.00,0.0712
555.00,0.0712
554.00,0.0713
553.00,0.0714
552.00,0.0716
551.00,0.0717
550.00,0.0719
549.00,0.0720
548.00,0.0722
547.00,0.0723
546.00,0.0724
545.00,0.0725
544.00,0.0726
543.00,0.0726
542.00,0.0727
541.00,0.0727
540.00,0.0729
539.00,0.0729
538.00,0.0730
537.00,0.0730
536.00,0.0730
535.00,0.0730
534.00,0.0731
533.00,0.0731
532.00,0.0732
531.00,0.0733
530.00,0.0732
529.00,0.0732
528.00,0.0732
527.00,0.0732
526.00,0.0733
525.00,0.0733
524.00,0.0734
523.00,0.0735
522.00,0.0735
521.00,0.0736
520.00,0.0737
519.00,0.0737
518.00,0.0737
517.00,0.0736
516.00,0.0736
515.00,0.0737
514.00,0.0737
513.00,0.0737
512.00,0.0738
511.00,0.0737
510.00,0.0736
509.00,0.0735
508.00,0.0734
507.00,0.0734
506.00,0.0733
505.00,0.0733
504.00,0.0733
503.00,0.0732
502.00,0.0731
501.00,0.0729
500.00,0.0729
499.00,0.0729
498.00,0.0729
497.00,0.0729
496.00,0.0731
495.00,0.0732
494.00,0.0732
493.00,0.0732
492.00,0.0733
491.00,0.0733
490.00,0.0732
489.00,0.0732
488.00,0.0731
487.00,0.0730
486.00,0.0729
485.00,0.0729
484.00,0.0729
483.00,0.0728
482.00,0.0726
481.00,0.0724
480.00,0.0722
479.00,0.0721
478.00,0.0720
477.00,0.0720
476.00,0.0720
475.00,0.0720
474.00,0.0719
473.00,0.0719
472.00,0.0719
471.00,0.0719
470.00,0.0718
469.00,0.0716
468.00,0.0714
467.00,0.0713
466.00,0.0713
465.00,0.0713
464.00,0.0713
463.00,0.0711
462.00,0.0708
461.00,0.0706
460.00,0.0704
459.00,0.0703
458.00,0.0701
457.00,0.0699
456.00,0.0698
455.00,0.0697
454.00,0.0694
453.00,0.0692
452.00,0.0690
451.00,0.0688
450.00,0.0685
449.00,0.0681
448.00,0.0678
447.00,0.0677
446.00,0.0675
445.00,0.0673
444.00,0.0671
443.00,0.0670
442.00,0.0668
441.00,0.0666
440.00,0.0663
439.00,0.0660
438.00,0.0656
437.00,0.0654
436.00,0.0654
435.00,0.0653
434.00,0.0650
433.00,0.0648
432.00,0.0647
431.00,0.0648
430.00,0.0649
429.00,0.0651
428.00,0.0651
427.00,0.0650
426.00,0.0647
425.00,0.0644
424.00,0.0643
423.00,0.0642
422.00,0.0642
421.00,0.0643
420.00,0.0643
419.00,0.0642
418.00,0.0640
417.00,0.0637
416.00,0.0636
415.00,0.0634
414.00,0.0632
413.00,0.0631
412.00,0.0631
411.00,0.0629
410.00,0.0623
409.00,0.0617
408.00,0.0611
407.00,0.0605
406.00,0.0600
405.00,0.0597
404.00,0.0598
403.00,0.0600
402.00,0.0598
401.00,0.0594
400.00,0.0590
