Created as New Dataset,Sample 196 By YargerLab Date Sunday, June 09 2024
cm-1,A
4000.00,0.0085
3999.00,0.0085
3998.00,0.0085
3997.00,0.0085
3996.00,0.0085
3995.00,0.0085
3994.00,0.0085
3993.00,0.0085
3992.00,0.0085
3991.00,0.0085
3990.00,0.0085
3989.00,0.0085
3988.00,0.0085
3987.00,0.0085
3986.00,0.0085
3985.00,0.0085
3984.00,0.0085
3983.00,0.0085
3982.00,0.0085
3981.00,0.0085
3980.00,0.0085
3979.00,0.0085
3978.00,0.0085
3977.00,0.0085
3976.00,0.0085
3975.00,0.0085
3974.00,0.0085
3973.00,0.0085
3972.00,0.0085
3971.00,0.0085
3970.00,0.0085
3969.00,0.0085
3968.00,0.0085
3967.00,0.0085
3966.00,0.0085
3965.00,0.0085
3964.00,0.0085
3963.00,0.0085
3962.00,0.0085
3961.00,0.0085
3960.00,0.0085
3959.00,0.0085
3958.00,0.0085
3957.00,0.0085
3956.00,0.0085
3955.00,0.0085
3954.00,0.0085
3953.00,0.0085
3952.00,0.0085
3951.00,0.0085
3950.00,0.0084
3949.00,0.0084
3948.00,0.0083
3947.00,0.0083
3946.00,0.0083
3945.00,0.0083
3944.00,0.0084
3943.00,0.0084
3942.00,0.0084
3941.00,0.0084
3940.00,0.0084
3939.00,0.0084
3938.00,0.0084
3937.00,0.0084
3936.00,0.0083
3935.00,0.0083
3934.00,0.0082
3933.00,0.0082
3932.00,0.0083
3931.00,0.0083
3930.00,0.0083
3929.00,0.0083
3928.00,0.0084
3927.00,0.0084
3926.00,0.0084
3925.00,0.0084
3924.00,0.0084
3923.00,0.0084
3922.00,0.0083
3921.00,0.0082
3920.00,0.0081
3919.00,0.0081
3918.00,0.0081
3917.00,0.0081
3916.00,0.0082
3915.00,0.0083
3914.00,0.0083
3913.00,0.0083
3912.00,0.0084
3911.00,0.0084
3910.00,0.0084
3909.00,0.0084
3908.00,0.0084
3907.00,0.0083
3906.00,0.0082
3905.00,0.0081
3904.00,0.0079
3903.00,0.0078
3902.00,0.0076
3901.00,0.0077
3900.00,0.0078
3899.00,0.0079
3898.00,0.0080
3897.00,0.0081
3896.00,0.0081
3895.00,0.0081
3894.00,0.0081
3893.00,0.0082
3892.00,0.0082
3891.00,0.0082
3890.00,0.0081
3889.00,0.0080
3888.00,0.0079
3887.00,0.0078
3886.00,0.0078
3885.00,0.0079
3884.00,0.0080
3883.00,0.0079
3882.00,0.0079
3881.00,0.0079
3880.00,0.0079
3879.00,0.0079
3878.00,0.0079
3877.00,0.0079
3876.00,0.0078
3875.00,0.0079
3874.00,0.0080
3873.00,0.0080
3872.00,0.0079
3871.00,0.0077
3870.00,0.0077
3869.00,0.0077
3868.00,0.0078
3867.00,0.0077
3866.00,0.0076
3865.00,0.0076
3864.00,0.0077
3863.00,0.0078
3862.00,0.0077
3861.00,0.0077
3860.00,0.0077
3859.00,0.0078
3858.00,0.0080
3857.00,0.0082
3856.00,0.0082
3855.00,0.0082
3854.00,0.0082
3853.00,0.0081
3852.00,0.0080
3851.00,0.0079
3850.00,0.0078
3849.00,0.0077
3848.00,0.0077
3847.00,0.0077
3846.00,0.0077
3845.00,0.0077
3844.00,0.0077
3843.00,0.0076
3842.00,0.0076
3841.00,0.0076
3840.00,0.0076
3839.00,0.0076
3838.00,0.0076
3837.00,0.0077
3836.00,0.0077
3835.00,0.0077
3834.00,0.0077
3833.00,0.0076
3832.00,0.0076
3831.00,0.0076
3830.00,0.0076
3829.00,0.0077
3828.00,0.0077
3827.00,0.0077
3826.00,0.0077
3825.00,0.0077
3824.00,0.0075
3823.00,0.0074
3822.00,0.0074
3821.00,0.0075
3820.00,0.0076
3819.00,0.0075
3818.00,0.0075
3817.00,0.0075
3816.00,0.0076
3815.00,0.0078
3814.00,0.0079
3813.00,0.0079
3812.00,0.0079
3811.00,0.0079
3810.00,0.0079
3809.00,0.0078
3808.00,0.0078
3807.00,0.0077
3806.00,0.0077
3805.00,0.0076
3804.00,0.0075
3803.00,0.0074
3802.00,0.0075
3801.00,0.0076
3800.00,0.0077
3799.00,0.0076
3798.00,0.0075
3797.00,0.0075
3796.00,0.0076
3795.00,0.0078
3794.00,0.0078
3793.00,0.0079
3792.00,0.0080
3791.00,0.0080
3790.00,0.0081
3789.00,0.0081
3788.00,0.0081
3787.00,0.0081
3786.00,0.0080
3785.00,0.0080
3784.00,0.0080
3783.00,0.0079
3782.00,0.0078
3781.00,0.0078
3780.00,0.0078
3779.00,0.0078
3778.00,0.0079
3777.00,0.0079
3776.00,0.0079
3775.00,0.0079
3774.00,0.0079
3773.00,0.0079
3772.00,0.0078
3771.00,0.0077
3770.00,0.0077
3769.00,0.0076
3768.00,0.0076
3767.00,0.0076
3766.00,0.0075
3765.00,0.0076
3764.00,0.0076
3763.00,0.0076
3762.00,0.0075
3761.00,0.0074
3760.00,0.0074
3759.00,0.0075
3758.00,0.0074
3757.00,0.0074
3756.00,0.0074
3755.00,0.0073
3754.00,0.0072
3753.00,0.0071
3752.00,0.0070
3751.00,0.0069
3750.00,0.0068
3749.00,0.0068
3748.00,0.0068
3747.00,0.0068
3746.00,0.0067
3745.00,0.0068
3744.00,0.0069
3743.00,0.0070
3742.00,0.0070
3741.00,0.0068
3740.00,0.0067
3739.00,0.0066
3738.00,0.0065
3737.00,0.0065
3736.00,0.0065
3735.00,0.0067
3734.00,0.0067
3733.00,0.0068
3732.00,0.0069
3731.00,0.0070
3730.00,0.0072
3729.00,0.0072
3728.00,0.0072
3727.00,0.0072
3726.00,0.0073
3725.00,0.0073
3724.00,0.0073
3723.00,0.0073
3722.00,0.0074
3721.00,0.0074
3720.00,0.0075
3719.00,0.0075
3718.00,0.0075
3717.00,0.0075
3716.00,0.0075
3715.00,0.0074
3714.00,0.0073
3713.00,0.0072
3712.00,0.0072
3711.00,0.0072
3710.00,0.0072
3709.00,0.0072
3708.00,0.0073
3707.00,0.0074
3706.00,0.0074
3705.00,0.0075
3704.00,0.0075
3703.00,0.0076
3702.00,0.0077
3701.00,0.0077
3700.00,0.0077
3699.00,0.0077
3698.00,0.0077
3697.00,0.0077
3696.00,0.0077
3695.00,0.0077
3694.00,0.0076
3693.00,0.0075
3692.00,0.0075
3691.00,0.0075
3690.00,0.0075
3689.00,0.0074
3688.00,0.0073
3687.00,0.0073
3686.00,0.0074
3685.00,0.0074
3684.00,0.0074
3683.00,0.0074
3682.00,0.0074
3681.00,0.0074
3680.00,0.0074
3679.00,0.0074
3678.00,0.0073
3677.00,0.0071
3676.00,0.0070
3675.00,0.0071
3674.00,0.0071
3673.00,0.0070
3672.00,0.0069
3671.00,0.0070
3670.00,0.0072
3669.00,0.0074
3668.00,0.0074
3667.00,0.0075
3666.00,0.0075
3665.00,0.0076
3664.00,0.0077
3663.00,0.0077
3662.00,0.0078
3661.00,0.0078
3660.00,0.0078
3659.00,0.0078
3658.00,0.0077
3657.00,0.0076
3656.00,0.0076
3655.00,0.0076
3654.00,0.0075
3653.00,0.0073
3652.00,0.0071
3651.00,0.0070
3650.00,0.0070
3649.00,0.0069
3648.00,0.0069
3647.00,0.0070
3646.00,0.0072
3645.00,0.0073
3644.00,0.0075
3643.00,0.0076
3642.00,0.0078
3641.00,0.0079
3640.00,0.0080
3639.00,0.0080
3638.00,0.0080
3637.00,0.0079
3636.00,0.0079
3635.00,0.0078
3634.00,0.0078
3633.00,0.0078
3632.00,0.0078
3631.00,0.0077
3630.00,0.0076
3629.00,0.0075
3628.00,0.0075
3627.00,0.0076
3626.00,0.0076
3625.00,0.0076
3624.00,0.0077
3623.00,0.0078
3622.00,0.0078
3621.00,0.0079
3620.00,0.0079
3619.00,0.0080
3618.00,0.0079
3617.00,0.0078
3616.00,0.0077
3615.00,0.0076
3614.00,0.0076
3613.00,0.0077
3612.00,0.0077
3611.00,0.0076
3610.00,0.0076
3609.00,0.0077
3608.00,0.0079
3607.00,0.0080
3606.00,0.0081
3605.00,0.0082
3604.00,0.0082
3603.00,0.0083
3602.00,0.0083
3601.00,0.0084
3600.00,0.0084
3599.00,0.0084
3598.00,0.0084
3597.00,0.0084
3596.00,0.0084
3595.00,0.0084
3594.00,0.0085
3593.00,0.0085
3592.00,0.0084
3591.00,0.0084
3590.00,0.0083
3589.00,0.0083
3588.00,0.0084
3587.00,0.0085
3586.00,0.0086
3585.00,0.0086
3584.00,0.0086
3583.00,0.0087
3582.00,0.0088
3581.00,0.0089
3580.00,0.0090
3579.00,0.0090
3578.00,0.0091
3577.00,0.0091
3576.00,0.0091
3575.00,0.0092
3574.00,0.0092
3573.00,0.0092
3572.00,0.0092
3571.00,0.0091
3570.00,0.0090
3569.00,0.0089
3568.00,0.0089
3567.00,0.0089
3566.00,0.0090
3565.00,0.0090
3564.00,0.0091
3563.00,0.0091
3562.00,0.0092
3561.00,0.0093
3560.00,0.0094
3559.00,0.0095
3558.00,0.0095
3557.00,0.0096
3556.00,0.0096
3555.00,0.0096
3554.00,0.0097
3553.00,0.0097
3552.00,0.0097
3551.00,0.0097
3550.00,0.0096
3549.00,0.0096
3548.00,0.0096
3547.00,0.0096
3546.00,0.0097
3545.00,0.0098
3544.00,0.0098
3543.00,0.0099
3542.00,0.0099
3541.00,0.0100
3540.00,0.0100
3539.00,0.0101
3538.00,0.0102
3537.00,0.0102
3536.00,0.0102
3535.00,0.0102
3534.00,0.0102
3533.00,0.0102
3532.00,0.0103
3531.00,0.0103
3530.00,0.0103
3529.00,0.0103
3528.00,0.0103
3527.00,0.0103
3526.00,0.0103
3525.00,0.0103
3524.00,0.0104
3523.00,0.0104
3522.00,0.0105
3521.00,0.0105
3520.00,0.0106
3519.00,0.0106
3518.00,0.0107
3517.00,0.0107
3516.00,0.0108
3515.00,0.0108
3514.00,0.0108
3513.00,0.0108
3512.00,0.0109
3511.00,0.0109
3510.00,0.0109
3509.00,0.0109
3508.00,0.0110
3507.00,0.0110
3506.00,0.0110
3505.00,0.0110
3504.00,0.0110
3503.00,0.0111
3502.00,0.0111
3501.00,0.0112
3500.00,0.0112
3499.00,0.0112
3498.00,0.0113
3497.00,0.0113
3496.00,0.0114
3495.00,0.0114
3494.00,0.0115
3493.00,0.0115
3492.00,0.0115
3491.00,0.0116
3490.00,0.0116
3489.00,0.0116
3488.00,0.0117
3487.00,0.0117
3486.00,0.0117
3485.00,0.0117
3484.00,0.0118
3483.00,0.0118
3482.00,0.0119
3481.00,0.0119
3480.00,0.0120
3479.00,0.0120
3478.00,0.0120
3477.00,0.0121
3476.00,0.0121
3475.00,0.0122
3474.00,0.0122
3473.00,0.0123
3472.00,0.0123
3471.00,0.0124
3470.00,0.0124
3469.00,0.0124
3468.00,0.0125
3467.00,0.0125
3466.00,0.0125
3465.00,0.0126
3464.00,0.0126
3463.00,0.0126
3462.00,0.0127
3461.00,0.0127
3460.00,0.0127
3459.00,0.0128
3458.00,0.0128
3457.00,0.0129
3456.00,0.0129
3455.00,0.0129
3454.00,0.0130
3453.00,0.0130
3452.00,0.0130
3451.00,0.0131
3450.00,0.0131
3449.00,0.0131
3448.00,0.0132
3447.00,0.0132
3446.00,0.0132
3445.00,0.0132
3444.00,0.0133
3443.00,0.0133
3442.00,0.0134
3441.00,0.0134
3440.00,0.0134
3439.00,0.0135
3438.00,0.0135
3437.00,0.0135
3436.00,0.0136
3435.00,0.0136
3434.00,0.0137
3433.00,0.0137
3432.00,0.0137
3431.00,0.0138
3430.00,0.0138
3429.00,0.0138
3428.00,0.0139
3427.00,0.0139
3426.00,0.0140
3425.00,0.0140
3424.00,0.0140
3423.00,0.0141
3422.00,0.0141
3421.00,0.0142
3420.00,0.0142
3419.00,0.0143
3418.00,0.0143
3417.00,0.0143
3416.00,0.0144
3415.00,0.0144
3414.00,0.0145
3413.00,0.0145
3412.00,0.0146
3411.00,0.0146
3410.00,0.0146
3409.00,0.0147
3408.00,0.0147
3407.00,0.0147
3406.00,0.0147
3405.00,0.0148
3404.00,0.0148
3403.00,0.0149
3402.00,0.0149
3401.00,0.0150
3400.00,0.0150
3399.00,0.0150
3398.00,0.0150
3397.00,0.0150
3396.00,0.0151
3395.00,0.0151
3394.00,0.0151
3393.00,0.0152
3392.00,0.0152
3391.00,0.0153
3390.00,0.0153
3389.00,0.0154
3388.00,0.0154
3387.00,0.0154
3386.00,0.0155
3385.00,0.0155
3384.00,0.0155
3383.00,0.0156
3382.00,0.0156
3381.00,0.0157
3380.00,0.0157
3379.00,0.0158
3378.00,0.0158
3377.00,0.0159
3376.00,0.0159
3375.00,0.0159
3374.00,0.0160
3373.00,0.0160
3372.00,0.0161
3371.00,0.0162
3370.00,0.0162
3369.00,0.0163
3368.00,0.0164
3367.00,0.0164
3366.00,0.0165
3365.00,0.0166
3364.00,0.0166
3363.00,0.0167
3362.00,0.0167
3361.00,0.0168
3360.00,0.0169
3359.00,0.0169
3358.00,0.0170
3357.00,0.0171
3356.00,0.0172
3355.00,0.0172
3354.00,0.0173
3353.00,0.0174
3352.00,0.0175
3351.00,0.0175
3350.00,0.0176
3349.00,0.0177
3348.00,0.0178
3347.00,0.0179
3346.00,0.0180
3345.00,0.0181
3344.00,0.0181
3343.00,0.0182
3342.00,0.0183
3341.00,0.0184
3340.00,0.0185
3339.00,0.0185
3338.00,0.0186
3337.00,0.0187
3336.00,0.0188
3335.00,0.0189
3334.00,0.0190
3333.00,0.0191
3332.00,0.0192
3331.00,0.0193
3330.00,0.0194
3329.00,0.0195
3328.00,0.0196
3327.00,0.0197
3326.00,0.0197
3325.00,0.0198
3324.00,0.0200
3323.00,0.0201
3322.00,0.0202
3321.00,0.0203
3320.00,0.0204
3319.00,0.0205
3318.00,0.0206
3317.00,0.0207
3316.00,0.0209
3315.00,0.0210
3314.00,0.0211
3313.00,0.0212
3312.00,0.0213
3311.00,0.0214
3310.00,0.0216
3309.00,0.0217
3308.00,0.0218
3307.00,0.0220
3306.00,0.0221
3305.00,0.0222
3304.00,0.0224
3303.00,0.0225
3302.00,0.0227
3301.00,0.0228
3300.00,0.0230
3299.00,0.0231
3298.00,0.0232
3297.00,0.0233
3296.00,0.0235
3295.00,0.0236
3294.00,0.0237
3293.00,0.0238
3292.00,0.0240
3291.00,0.0241
3290.00,0.0242
3289.00,0.0244
3288.00,0.0245
3287.00,0.0246
3286.00,0.0247
3285.00,0.0248
3284.00,0.0249
3283.00,0.0250
3282.00,0.0251
3281.00,0.0252
3280.00,0.0252
3279.00,0.0253
3278.00,0.0253
3277.00,0.0253
3276.00,0.0254
3275.00,0.0254
3274.00,0.0254
3273.00,0.0254
3272.00,0.0254
3271.00,0.0254
3270.00,0.0254
3269.00,0.0254
3268.00,0.0253
3267.00,0.0253
3266.00,0.0252
3265.00,0.0252
3264.00,0.0251
3263.00,0.0250
3262.00,0.0249
3261.00,0.0248
3260.00,0.0247
3259.00,0.0246
3258.00,0.0244
3257.00,0.0243
3256.00,0.0242
3255.00,0.0241
3254.00,0.0240
3253.00,0.0239
3252.00,0.0238
3251.00,0.0236
3250.00,0.0235
3249.00,0.0234
3248.00,0.0233
3247.00,0.0231
3246.00,0.0230
3245.00,0.0229
3244.00,0.0228
3243.00,0.0227
3242.00,0.0226
3241.00,0.0226
3240.00,0.0224
3239.00,0.0223
3238.00,0.0222
3237.00,0.0221
3236.00,0.0220
3235.00,0.0219
3234.00,0.0218
3233.00,0.0217
3232.00,0.0217
3231.00,0.0216
3230.00,0.0215
3229.00,0.0214
3228.00,0.0214
3227.00,0.0213
3226.00,0.0212
3225.00,0.0211
3224.00,0.0211
3223.00,0.0210
3222.00,0.0209
3221.00,0.0208
3220.00,0.0207
3219.00,0.0207
3218.00,0.0206
3217.00,0.0205
3216.00,0.0205
3215.00,0.0204
3214.00,0.0204
3213.00,0.0203
3212.00,0.0203
3211.00,0.0202
3210.00,0.0201
3209.00,0.0201
3208.00,0.0200
3207.00,0.0199
3206.00,0.0199
3205.00,0.0198
3204.00,0.0198
3203.00,0.0197
3202.00,0.0196
3201.00,0.0196
3200.00,0.0195
3199.00,0.0195
3198.00,0.0194
3197.00,0.0194
3196.00,0.0193
3195.00,0.0193
3194.00,0.0192
3193.00,0.0191
3192.00,0.0191
3191.00,0.0190
3190.00,0.0189
3189.00,0.0188
3188.00,0.0188
3187.00,0.0187
3186.00,0.0186
3185.00,0.0186
3184.00,0.0185
3183.00,0.0185
3182.00,0.0184
3181.00,0.0183
3180.00,0.0183
3179.00,0.0182
3178.00,0.0181
3177.00,0.0180
3176.00,0.0179
3175.00,0.0179
3174.00,0.0178
3173.00,0.0178
3172.00,0.0177
3171.00,0.0176
3170.00,0.0176
3169.00,0.0175
3168.00,0.0174
3167.00,0.0173
3166.00,0.0173
3165.00,0.0172
3164.00,0.0172
3163.00,0.0171
3162.00,0.0171
3161.00,0.0170
3160.00,0.0169
3159.00,0.0169
3158.00,0.0168
3157.00,0.0167
3156.00,0.0166
3155.00,0.0166
3154.00,0.0165
3153.00,0.0165
3152.00,0.0164
3151.00,0.0163
3150.00,0.0163
3149.00,0.0162
3148.00,0.0162
3147.00,0.0161
3146.00,0.0161
3145.00,0.0160
3144.00,0.0160
3143.00,0.0159
3142.00,0.0158
3141.00,0.0158
3140.00,0.0157
3139.00,0.0157
3138.00,0.0157
3137.00,0.0156
3136.00,0.0156
3135.00,0.0156
3134.00,0.0155
3133.00,0.0155
3132.00,0.0154
3131.00,0.0154
3130.00,0.0153
3129.00,0.0153
3128.00,0.0153
3127.00,0.0153
3126.00,0.0152
3125.00,0.0152
3124.00,0.0152
3123.00,0.0151
3122.00,0.0151
3121.00,0.0151
3120.00,0.0151
3119.00,0.0151
3118.00,0.0150
3117.00,0.0150
3116.00,0.0150
3115.00,0.0150
3114.00,0.0149
3113.00,0.0149
3112.00,0.0149
3111.00,0.0149
3110.00,0.0149
3109.00,0.0149
3108.00,0.0149
3107.00,0.0149
3106.00,0.0149
3105.00,0.0149
3104.00,0.0149
3103.00,0.0149
3102.00,0.0149
3101.00,0.0149
3100.00,0.0149
3099.00,0.0149
3098.00,0.0149
3097.00,0.0149
3096.00,0.0150
3095.00,0.0150
3094.00,0.0150
3093.00,0.0150
3092.00,0.0150
3091.00,0.0150
3090.00,0.0150
3089.00,0.0150
3088.00,0.0150
3087.00,0.0151
3086.00,0.0151
3085.00,0.0151
3084.00,0.0151
3083.00,0.0151
3082.00,0.0151
3081.00,0.0151
3080.00,0.0151
3079.00,0.0151
3078.00,0.0151
3077.00,0.0152
3076.00,0.0152
3075.00,0.0152
3074.00,0.0152
3073.00,0.0152
3072.00,0.0152
3071.00,0.0152
3070.00,0.0152
3069.00,0.0152
3068.00,0.0151
3067.00,0.0151
3066.00,0.0151
3065.00,0.0151
3064.00,0.0151
3063.00,0.0151
3062.00,0.0152
3061.00,0.0151
3060.00,0.0151
3059.00,0.0151
3058.00,0.0150
3057.00,0.0150
3056.00,0.0150
3055.00,0.0149
3054.00,0.0149
3053.00,0.0149
3052.00,0.0148
3051.00,0.0148
3050.00,0.0148
3049.00,0.0147
3048.00,0.0147
3047.00,0.0146
3046.00,0.0146
3045.00,0.0146
3044.00,0.0145
3043.00,0.0145
3042.00,0.0145
3041.00,0.0144
3040.00,0.0144
3039.00,0.0144
3038.00,0.0144
3037.00,0.0143
3036.00,0.0143
3035.00,0.0142
3034.00,0.0142
3033.00,0.0141
3032.00,0.0141
3031.00,0.0141
3030.00,0.0140
3029.00,0.0140
3028.00,0.0140
3027.00,0.0139
3026.00,0.0139
3025.00,0.0138
3024.00,0.0138
3023.00,0.0138
3022.00,0.0137
3021.00,0.0137
3020.00,0.0136
3019.00,0.0136
3018.00,0.0136
3017.00,0.0135
3016.00,0.0135
3015.00,0.0135
3014.00,0.0134
3013.00,0.0134
3012.00,0.0134
3011.00,0.0134
3010.00,0.0134
3009.00,0.0134
3008.00,0.0133
3007.00,0.0133
3006.00,0.0133
3005.00,0.0133
3004.00,0.0133
3003.00,0.0133
3002.00,0.0133
3001.00,0.0133
3000.00,0.0133
2999.00,0.0133
2998.00,0.0133
2997.00,0.0133
2996.00,0.0134
2995.00,0.0134
2994.00,0.0134
2993.00,0.0135
2992.00,0.0135
2991.00,0.0136
2990.00,0.0136
2989.00,0.0137
2988.00,0.0138
2987.00,0.0139
2986.00,0.0139
2985.00,0.0140
2984.00,0.0140
2983.00,0.0141
2982.00,0.0142
2981.00,0.0143
2980.00,0.0143
2979.00,0.0144
2978.00,0.0145
2977.00,0.0146
2976.00,0.0147
2975.00,0.0148
2974.00,0.0149
2973.00,0.0150
2972.00,0.0151
2971.00,0.0152
2970.00,0.0153
2969.00,0.0154
2968.00,0.0155
2967.00,0.0156
2966.00,0.0156
2965.00,0.0157
2964.00,0.0158
2963.00,0.0159
2962.00,0.0159
2961.00,0.0160
2960.00,0.0160
2959.00,0.0161
2958.00,0.0161
2957.00,0.0161
2956.00,0.0162
2955.00,0.0162
2954.00,0.0161
2953.00,0.0161
2952.00,0.0161
2951.00,0.0161
2950.00,0.0161
2949.00,0.0161
2948.00,0.0161
2947.00,0.0162
2946.00,0.0162
2945.00,0.0163
2944.00,0.0164
2943.00,0.0165
2942.00,0.0166
2941.00,0.0168
2940.00,0.0170
2939.00,0.0172
2938.00,0.0174
2937.00,0.0176
2936.00,0.0178
2935.00,0.0180
2934.00,0.0182
2933.00,0.0184
2932.00,0.0186
2931.00,0.0188
2930.00,0.0190
2929.00,0.0191
2928.00,0.0192
2927.00,0.0194
2926.00,0.0194
2925.00,0.0195
2924.00,0.0194
2923.00,0.0194
2922.00,0.0192
2921.00,0.0190
2920.00,0.0187
2919.00,0.0184
2918.00,0.0180
2917.00,0.0176
2916.00,0.0173
2915.00,0.0171
2914.00,0.0169
2913.00,0.0168
2912.00,0.0168
2911.00,0.0167
2910.00,0.0166
2909.00,0.0165
2908.00,0.0164
2907.00,0.0163
2906.00,0.0163
2905.00,0.0162
2904.00,0.0161
2903.00,0.0160
2902.00,0.0159
2901.00,0.0159
2900.00,0.0158
2899.00,0.0157
2898.00,0.0156
2897.00,0.0156
2896.00,0.0155
2895.00,0.0154
2894.00,0.0154
2893.00,0.0153
2892.00,0.0153
2891.00,0.0152
2890.00,0.0152
2889.00,0.0151
2888.00,0.0151
2887.00,0.0151
2886.00,0.0150
2885.00,0.0150
2884.00,0.0150
2883.00,0.0150
2882.00,0.0150
2881.00,0.0150
2880.00,0.0150
2879.00,0.0151
2878.00,0.0151
2877.00,0.0151
2876.00,0.0152
2875.00,0.0152
2874.00,0.0152
2873.00,0.0152
2872.00,0.0152
2871.00,0.0152
2870.00,0.0152
2869.00,0.0151
2868.00,0.0151
2867.00,0.0150
2866.00,0.0150
2865.00,0.0150
2864.00,0.0150
2863.00,0.0151
2862.00,0.0151
2861.00,0.0152
2860.00,0.0153
2859.00,0.0155
2858.00,0.0156
2857.00,0.0157
2856.00,0.0159
2855.00,0.0160
2854.00,0.0160
2853.00,0.0159
2852.00,0.0157
2851.00,0.0154
2850.00,0.0150
2849.00,0.0147
2848.00,0.0144
2847.00,0.0142
2846.00,0.0141
2845.00,0.0140
2844.00,0.0140
2843.00,0.0139
2842.00,0.0138
2841.00,0.0137
2840.00,0.0135
2839.00,0.0134
2838.00,0.0133
2837.00,0.0133
2836.00,0.0132
2835.00,0.0131
2834.00,0.0130
2833.00,0.0130
2832.00,0.0129
2831.00,0.0129
2830.00,0.0128
2829.00,0.0128
2828.00,0.0128
2827.00,0.0127
2826.00,0.0127
2825.00,0.0127
2824.00,0.0126
2823.00,0.0126
2822.00,0.0126
2821.00,0.0126
2820.00,0.0125
2819.00,0.0125
2818.00,0.0125
2817.00,0.0124
2816.00,0.0124
2815.00,0.0124
2814.00,0.0124
2813.00,0.0124
2812.00,0.0124
2811.00,0.0123
2810.00,0.0123
2809.00,0.0123
2808.00,0.0122
2807.00,0.0122
2806.00,0.0122
2805.00,0.0122
2804.00,0.0122
2803.00,0.0121
2802.00,0.0121
2801.00,0.0121
2800.00,0.0121
2799.00,0.0121
2798.00,0.0121
2797.00,0.0121
2796.00,0.0120
2795.00,0.0120
2794.00,0.0120
2793.00,0.0120
2792.00,0.0119
2791.00,0.0119
2790.00,0.0119
2789.00,0.0119
2788.00,0.0119
2787.00,0.0119
2786.00,0.0119
2785.00,0.0119
2784.00,0.0118
2783.00,0.0118
2782.00,0.0118
2781.00,0.0118
2780.00,0.0118
2779.00,0.0118
2778.00,0.0118
2777.00,0.0117
2776.00,0.0117
2775.00,0.0117
2774.00,0.0117
2773.00,0.0117
2772.00,0.0117
2771.00,0.0117
2770.00,0.0116
2769.00,0.0116
2768.00,0.0116
2767.00,0.0116
2766.00,0.0116
2765.00,0.0115
2764.00,0.0115
2763.00,0.0115
2762.00,0.0115
2761.00,0.0115
2760.00,0.0115
2759.00,0.0115
2758.00,0.0115
2757.00,0.0115
2756.00,0.0114
2755.00,0.0114
2754.00,0.0114
2753.00,0.0114
2752.00,0.0114
2751.00,0.0114
2750.00,0.0113
2749.00,0.0113
2748.00,0.0113
2747.00,0.0113
2746.00,0.0113
2745.00,0.0113
2744.00,0.0113
2743.00,0.0113
2742.00,0.0113
2741.00,0.0112
2740.00,0.0112
2739.00,0.0112
2738.00,0.0112
2737.00,0.0112
2736.00,0.0112
2735.00,0.0112
2734.00,0.0112
2733.00,0.0112
2732.00,0.0111
2731.00,0.0111
2730.00,0.0111
2729.00,0.0111
2728.00,0.0111
2727.00,0.0111
2726.00,0.0111
2725.00,0.0111
2724.00,0.0110
2723.00,0.0110
2722.00,0.0110
2721.00,0.0110
2720.00,0.0110
2719.00,0.0110
2718.00,0.0110
2717.00,0.0110
2716.00,0.0109
2715.00,0.0109
2714.00,0.0109
2713.00,0.0109
2712.00,0.0109
2711.00,0.0109
2710.00,0.0109
2709.00,0.0109
2708.00,0.0108
2707.00,0.0108
2706.00,0.0108
2705.00,0.0108
2704.00,0.0108
2703.00,0.0107
2702.00,0.0107
2701.00,0.0107
2700.00,0.0107
2699.00,0.0107
2698.00,0.0107
2697.00,0.0107
2696.00,0.0107
2695.00,0.0107
2694.00,0.0107
2693.00,0.0106
2692.00,0.0106
2691.00,0.0106
2690.00,0.0106
2689.00,0.0106
2688.00,0.0106
2687.00,0.0106
2686.00,0.0106
2685.00,0.0106
2684.00,0.0106
2683.00,0.0106
2682.00,0.0106
2681.00,0.0105
2680.00,0.0105
2679.00,0.0105
2678.00,0.0105
2677.00,0.0105
2676.00,0.0105
2675.00,0.0105
2674.00,0.0105
2673.00,0.0105
2672.00,0.0105
2671.00,0.0105
2670.00,0.0105
2669.00,0.0104
2668.00,0.0104
2667.00,0.0104
2666.00,0.0104
2665.00,0.0104
2664.00,0.0104
2663.00,0.0104
2662.00,0.0103
2661.00,0.0103
2660.00,0.0103
2659.00,0.0103
2658.00,0.0103
2657.00,0.0103
2656.00,0.0103
2655.00,0.0102
2654.00,0.0102
2653.00,0.0102
2652.00,0.0102
2651.00,0.0102
2650.00,0.0102
2649.00,0.0102
2648.00,0.0102
2647.00,0.0102
2646.00,0.0102
2645.00,0.0102
2644.00,0.0102
2643.00,0.0101
2642.00,0.0101
2641.00,0.0101
2640.00,0.0101
2639.00,0.0101
2638.00,0.0101
2637.00,0.0101
2636.00,0.0101
2635.00,0.0101
2634.00,0.0101
2633.00,0.0101
2632.00,0.0101
2631.00,0.0101
2630.00,0.0101
2629.00,0.0101
2628.00,0.0101
2627.00,0.0101
2626.00,0.0101
2625.00,0.0101
2624.00,0.0101
2623.00,0.0101
2622.00,0.0101
2621.00,0.0101
2620.00,0.0101
2619.00,0.0101
2618.00,0.0101
2617.00,0.0101
2616.00,0.0101
2615.00,0.0100
2614.00,0.0100
2613.00,0.0100
2612.00,0.0100
2611.00,0.0100
2610.00,0.0100
2609.00,0.0100
2608.00,0.0100
2607.00,0.0100
2606.00,0.0100
2605.00,0.0100
2604.00,0.0100
2603.00,0.0100
2602.00,0.0100
2601.00,0.0100
2600.00,0.0100
2599.00,0.0100
2598.00,0.0099
2597.00,0.0099
2596.00,0.0099
2595.00,0.0099
2594.00,0.0099
2593.00,0.0099
2592.00,0.0099
2591.00,0.0099
2590.00,0.0099
2589.00,0.0099
2588.00,0.0099
2587.00,0.0099
2586.00,0.0099
2585.00,0.0099
2584.00,0.0099
2583.00,0.0099
2582.00,0.0099
2581.00,0.0099
2580.00,0.0099
2579.00,0.0098
2578.00,0.0098
2577.00,0.0098
2576.00,0.0098
2575.00,0.0098
2574.00,0.0098
2573.00,0.0098
2572.00,0.0098
2571.00,0.0098
2570.00,0.0098
2569.00,0.0098
2568.00,0.0098
2567.00,0.0098
2566.00,0.0098
2565.00,0.0098
2564.00,0.0098
2563.00,0.0098
2562.00,0.0098
2561.00,0.0097
2560.00,0.0097
2559.00,0.0097
2558.00,0.0097
2557.00,0.0097
2556.00,0.0097
2555.00,0.0097
2554.00,0.0097
2553.00,0.0097
2552.00,0.0097
2551.00,0.0097
2550.00,0.0097
2549.00,0.0097
2548.00,0.0097
2547.00,0.0097
2546.00,0.0097
2545.00,0.0097
2544.00,0.0097
2543.00,0.0097
2542.00,0.0097
2541.00,0.0096
2540.00,0.0096
2539.00,0.0096
2538.00,0.0096
2537.00,0.0096
2536.00,0.0096
2535.00,0.0096
2534.00,0.0096
2533.00,0.0096
2532.00,0.0096
2531.00,0.0096
2530.00,0.0096
2529.00,0.0095
2528.00,0.0095
2527.00,0.0095
2526.00,0.0095
2525.00,0.0096
2524.00,0.0096
2523.00,0.0096
2522.00,0.0096
2521.00,0.0096
2520.00,0.0095
2519.00,0.0095
2518.00,0.0095
2517.00,0.0095
2516.00,0.0095
2515.00,0.0095
2514.00,0.0095
2513.00,0.0095
2512.00,0.0095
2511.00,0.0095
2510.00,0.0095
2509.00,0.0095
2508.00,0.0095
2507.00,0.0095
2506.00,0.0095
2505.00,0.0095
2504.00,0.0095
2503.00,0.0095
2502.00,0.0095
2501.00,0.0095
2500.00,0.0095
2499.00,0.0095
2498.00,0.0095
2497.00,0.0094
2496.00,0.0094
2495.00,0.0094
2494.00,0.0094
2493.00,0.0094
2492.00,0.0094
2491.00,0.0094
2490.00,0.0094
2489.00,0.0094
2488.00,0.0094
2487.00,0.0094
2486.00,0.0094
2485.00,0.0094
2484.00,0.0094
2483.00,0.0094
2482.00,0.0094
2481.00,0.0094
2480.00,0.0094
2479.00,0.0094
2478.00,0.0094
2477.00,0.0093
2476.00,0.0093
2475.00,0.0093
2474.00,0.0093
2473.00,0.0093
2472.00,0.0093
2471.00,0.0093
2470.00,0.0093
2469.00,0.0093
2468.00,0.0093
2467.00,0.0093
2466.00,0.0093
2465.00,0.0093
2464.00,0.0093
2463.00,0.0093
2462.00,0.0093
2461.00,0.0093
2460.00,0.0093
2459.00,0.0092
2458.00,0.0092
2457.00,0.0092
2456.00,0.0092
2455.00,0.0092
2454.00,0.0092
2453.00,0.0092
2452.00,0.0092
2451.00,0.0091
2450.00,0.0091
2449.00,0.0092
2448.00,0.0092
2447.00,0.0092
2446.00,0.0092
2445.00,0.0092
2444.00,0.0092
2443.00,0.0092
2442.00,0.0091
2441.00,0.0091
2440.00,0.0091
2439.00,0.0091
2438.00,0.0091
2437.00,0.0091
2436.00,0.0091
2435.00,0.0091
2434.00,0.0091
2433.00,0.0091
2432.00,0.0091
2431.00,0.0091
2430.00,0.0091
2429.00,0.0091
2428.00,0.0091
2427.00,0.0091
2426.00,0.0091
2425.00,0.0091
2424.00,0.0091
2423.00,0.0091
2422.00,0.0091
2421.00,0.0091
2420.00,0.0091
2419.00,0.0091
2418.00,0.0091
2417.00,0.0090
2416.00,0.0090
2415.00,0.0090
2414.00,0.0090
2413.00,0.0090
2412.00,0.0090
2411.00,0.0090
2410.00,0.0090
2409.00,0.0090
2408.00,0.0090
2407.00,0.0090
2406.00,0.0090
2405.00,0.0090
2404.00,0.0090
2403.00,0.0090
2402.00,0.0090
2401.00,0.0090
2400.00,0.0090
2399.00,0.0090
2398.00,0.0089
2397.00,0.0090
2396.00,0.0090
2395.00,0.0090
2394.00,0.0089
2393.00,0.0089
2392.00,0.0089
2391.00,0.0089
2390.00,0.0089
2389.00,0.0089
2388.00,0.0089
2387.00,0.0089
2386.00,0.0088
2385.00,0.0088
2384.00,0.0088
2383.00,0.0088
2382.00,0.0088
2381.00,0.0089
2380.00,0.0089
2379.00,0.0089
2378.00,0.0089
2377.00,0.0089
2376.00,0.0089
2375.00,0.0089
2374.00,0.0089
2373.00,0.0088
2372.00,0.0088
2371.00,0.0088
2370.00,0.0088
2369.00,0.0088
2368.00,0.0088
2367.00,0.0088
2366.00,0.0088
2365.00,0.0089
2364.00,0.0088
2363.00,0.0088
2362.00,0.0088
2361.00,0.0087
2360.00,0.0087
2359.00,0.0087
2358.00,0.0087
2357.00,0.0087
2356.00,0.0087
2355.00,0.0087
2354.00,0.0087
2353.00,0.0087
2352.00,0.0087
2351.00,0.0087
2350.00,0.0087
2349.00,0.0086
2348.00,0.0086
2347.00,0.0086
2346.00,0.0086
2345.00,0.0086
2344.00,0.0086
2343.00,0.0085
2342.00,0.0085
2341.00,0.0085
2340.00,0.0085
2339.00,0.0085
2338.00,0.0085
2337.00,0.0085
2336.00,0.0085
2335.00,0.0085
2334.00,0.0085
2333.00,0.0085
2332.00,0.0085
2331.00,0.0085
2330.00,0.0085
2329.00,0.0085
2328.00,0.0084
2327.00,0.0083
2326.00,0.0083
2325.00,0.0082
2324.00,0.0082
2323.00,0.0082
2322.00,0.0082
2321.00,0.0083
2320.00,0.0083
2319.00,0.0083
2318.00,0.0083
2317.00,0.0083
2316.00,0.0083
2315.00,0.0084
2314.00,0.0084
2313.00,0.0084
2312.00,0.0084
2311.00,0.0084
2310.00,0.0083
2309.00,0.0083
2308.00,0.0083
2307.00,0.0083
2306.00,0.0083
2305.00,0.0083
2304.00,0.0083
2303.00,0.0083
2302.00,0.0083
2301.00,0.0083
2300.00,0.0083
2299.00,0.0083
2298.00,0.0083
2297.00,0.0083
2296.00,0.0083
2295.00,0.0083
2294.00,0.0083
2293.00,0.0083
2292.00,0.0083
2291.00,0.0083
2290.00,0.0083
2289.00,0.0083
2288.00,0.0082
2287.00,0.0082
2286.00,0.0082
2285.00,0.0082
2284.00,0.0082
2283.00,0.0083
2282.00,0.0083
2281.00,0.0083
2280.00,0.0083
2279.00,0.0083
2278.00,0.0083
2277.00,0.0083
2276.00,0.0083
2275.00,0.0083
2274.00,0.0083
2273.00,0.0083
2272.00,0.0083
2271.00,0.0083
2270.00,0.0083
2269.00,0.0083
2268.00,0.0083
2267.00,0.0083
2266.00,0.0083
2265.00,0.0083
2264.00,0.0083
2263.00,0.0083
2262.00,0.0083
2261.00,0.0083
2260.00,0.0083
2259.00,0.0084
2258.00,0.0084
2257.00,0.0084
2256.00,0.0084
2255.00,0.0084
2254.00,0.0084
2253.00,0.0084
2252.00,0.0084
2251.00,0.0083
2250.00,0.0083
2249.00,0.0083
2248.00,0.0083
2247.00,0.0083
2246.00,0.0083
2245.00,0.0083
2244.00,0.0083
2243.00,0.0083
2242.00,0.0083
2241.00,0.0083
2240.00,0.0084
2239.00,0.0084
2238.00,0.0084
2237.00,0.0084
2236.00,0.0084
2235.00,0.0083
2234.00,0.0083
2233.00,0.0082
2232.00,0.0082
2231.00,0.0082
2230.00,0.0082
2229.00,0.0082
2228.00,0.0083
2227.00,0.0083
2226.00,0.0083
2225.00,0.0084
2224.00,0.0084
2223.00,0.0084
2222.00,0.0084
2221.00,0.0084
2220.00,0.0084
2219.00,0.0084
2218.00,0.0083
2217.00,0.0083
2216.00,0.0082
2215.00,0.0082
2214.00,0.0082
2213.00,0.0083
2212.00,0.0083
2211.00,0.0084
2210.00,0.0084
2209.00,0.0084
2208.00,0.0083
2207.00,0.0083
2206.00,0.0082
2205.00,0.0082
2204.00,0.0082
2203.00,0.0082
2202.00,0.0082
2201.00,0.0082
2200.00,0.0082
2199.00,0.0082
2198.00,0.0083
2197.00,0.0083
2196.00,0.0083
2195.00,0.0082
2194.00,0.0082
2193.00,0.0082
2192.00,0.0082
2191.00,0.0081
2190.00,0.0081
2189.00,0.0081
2188.00,0.0081
2187.00,0.0081
2186.00,0.0081
2185.00,0.0081
2184.00,0.0081
2183.00,0.0081
2182.00,0.0080
2181.00,0.0081
2180.00,0.0081
2179.00,0.0082
2178.00,0.0083
2177.00,0.0083
2176.00,0.0083
2175.00,0.0084
2174.00,0.0084
2173.00,0.0084
2172.00,0.0083
2171.00,0.0082
2170.00,0.0081
2169.00,0.0081
2168.00,0.0080
2167.00,0.0080
2166.00,0.0080
2165.00,0.0080
2164.00,0.0080
2163.00,0.0079
2162.00,0.0078
2161.00,0.0079
2160.00,0.0080
2159.00,0.0083
2158.00,0.0085
2157.00,0.0086
2156.00,0.0086
2155.00,0.0085
2154.00,0.0084
2153.00,0.0084
2152.00,0.0084
2151.00,0.0084
2150.00,0.0084
2149.00,0.0084
2148.00,0.0084
2147.00,0.0084
2146.00,0.0084
2145.00,0.0084
2144.00,0.0084
2143.00,0.0084
2142.00,0.0085
2141.00,0.0085
2140.00,0.0084
2139.00,0.0084
2138.00,0.0084
2137.00,0.0084
2136.00,0.0085
2135.00,0.0085
2134.00,0.0085
2133.00,0.0085
2132.00,0.0085
2131.00,0.0085
2130.00,0.0085
2129.00,0.0085
2128.00,0.0085
2127.00,0.0085
2126.00,0.0084
2125.00,0.0084
2124.00,0.0084
2123.00,0.0084
2122.00,0.0084
2121.00,0.0083
2120.00,0.0083
2119.00,0.0083
2118.00,0.0082
2117.00,0.0082
2116.00,0.0082
2115.00,0.0082
2114.00,0.0082
2113.00,0.0082
2112.00,0.0082
2111.00,0.0082
2110.00,0.0082
2109.00,0.0082
2108.00,0.0081
2107.00,0.0081
2106.00,0.0081
2105.00,0.0081
2104.00,0.0081
2103.00,0.0081
2102.00,0.0082
2101.00,0.0082
2100.00,0.0082
2099.00,0.0082
2098.00,0.0082
2097.00,0.0082
2096.00,0.0082
2095.00,0.0082
2094.00,0.0082
2093.00,0.0082
2092.00,0.0082
2091.00,0.0082
2090.00,0.0082
2089.00,0.0081
2088.00,0.0081
2087.00,0.0080
2086.00,0.0080
2085.00,0.0080
2084.00,0.0080
2083.00,0.0081
2082.00,0.0081
2081.00,0.0081
2080.00,0.0081
2079.00,0.0080
2078.00,0.0080
2077.00,0.0080
2076.00,0.0079
2075.00,0.0079
2074.00,0.0079
2073.00,0.0079
2072.00,0.0080
2071.00,0.0080
2070.00,0.0080
2069.00,0.0080
2068.00,0.0080
2067.00,0.0080
2066.00,0.0080
2065.00,0.0080
2064.00,0.0080
2063.00,0.0079
2062.00,0.0078
2061.00,0.0078
2060.00,0.0078
2059.00,0.0078
2058.00,0.0078
2057.00,0.0079
2056.00,0.0079
2055.00,0.0079
2054.00,0.0078
2053.00,0.0078
2052.00,0.0077
2051.00,0.0076
2050.00,0.0077
2049.00,0.0077
2048.00,0.0077
2047.00,0.0077
2046.00,0.0077
2045.00,0.0077
2044.00,0.0076
2043.00,0.0077
2042.00,0.0077
2041.00,0.0077
2040.00,0.0078
2039.00,0.0078
2038.00,0.0078
2037.00,0.0078
2036.00,0.0078
2035.00,0.0078
2034.00,0.0079
2033.00,0.0079
2032.00,0.0079
2031.00,0.0078
2030.00,0.0077
2029.00,0.0077
2028.00,0.0077
2027.00,0.0077
2026.00,0.0077
2025.00,0.0077
2024.00,0.0078
2023.00,0.0079
2022.00,0.0079
2021.00,0.0080
2020.00,0.0080
2019.00,0.0080
2018.00,0.0079
2017.00,0.0079
2016.00,0.0079
2015.00,0.0078
2014.00,0.0078
2013.00,0.0078
2012.00,0.0078
2011.00,0.0078
2010.00,0.0078
2009.00,0.0078
2008.00,0.0078
2007.00,0.0078
2006.00,0.0079
2005.00,0.0080
2004.00,0.0080
2003.00,0.0081
2002.00,0.0080
2001.00,0.0080
2000.00,0.0080
1999.00,0.0079
1998.00,0.0079
1997.00,0.0078
1996.00,0.0078
1995.00,0.0077
1994.00,0.0076
1993.00,0.0076
1992.00,0.0076
1991.00,0.0076
1990.00,0.0076
1989.00,0.0076
1988.00,0.0077
1987.00,0.0077
1986.00,0.0077
1985.00,0.0077
1984.00,0.0076
1983.00,0.0075
1982.00,0.0075
1981.00,0.0074
1980.00,0.0074
1979.00,0.0074
1978.00,0.0075
1977.00,0.0076
1976.00,0.0077
1975.00,0.0077
1974.00,0.0078
1973.00,0.0078
1972.00,0.0078
1971.00,0.0078
1970.00,0.0079
1969.00,0.0079
1968.00,0.0080
1967.00,0.0079
1966.00,0.0079
1965.00,0.0078
1964.00,0.0078
1963.00,0.0078
1962.00,0.0079
1961.00,0.0079
1960.00,0.0080
1959.00,0.0080
1958.00,0.0079
1957.00,0.0079
1956.00,0.0079
1955.00,0.0078
1954.00,0.0078
1953.00,0.0077
1952.00,0.0077
1951.00,0.0077
1950.00,0.0077
1949.00,0.0077
1948.00,0.0077
1947.00,0.0077
1946.00,0.0077
1945.00,0.0077
1944.00,0.0077
1943.00,0.0077
1942.00,0.0077
1941.00,0.0077
1940.00,0.0077
1939.00,0.0077
1938.00,0.0077
1937.00,0.0077
1936.00,0.0077
1935.00,0.0077
1934.00,0.0076
1933.00,0.0076
1932.00,0.0076
1931.00,0.0076
1930.00,0.0076
1929.00,0.0076
1928.00,0.0076
1927.00,0.0076
1926.00,0.0076
1925.00,0.0076
1924.00,0.0076
1923.00,0.0076
1922.00,0.0076
1921.00,0.0075
1920.00,0.0075
1919.00,0.0075
1918.00,0.0075
1917.00,0.0075
1916.00,0.0075
1915.00,0.0075
1914.00,0.0075
1913.00,0.0074
1912.00,0.0074
1911.00,0.0074
1910.00,0.0075
1909.00,0.0075
1908.00,0.0075
1907.00,0.0074
1906.00,0.0074
1905.00,0.0074
1904.00,0.0074
1903.00,0.0074
1902.00,0.0074
1901.00,0.0074
1900.00,0.0074
1899.00,0.0074
1898.00,0.0073
1897.00,0.0073
1896.00,0.0074
1895.00,0.0074
1894.00,0.0074
1893.00,0.0073
1892.00,0.0073
1891.00,0.0073
1890.00,0.0073
1889.00,0.0074
1888.00,0.0074
1887.00,0.0073
1886.00,0.0073
1885.00,0.0072
1884.00,0.0073
1883.00,0.0072
1882.00,0.0072
1881.00,0.0072
1880.00,0.0072
1879.00,0.0073
1878.00,0.0072
1877.00,0.0072
1876.00,0.0072
1875.00,0.0072
1874.00,0.0071
1873.00,0.0070
1872.00,0.0070
1871.00,0.0070
1870.00,0.0070
1869.00,0.0070
1868.00,0.0071
1867.00,0.0071
1866.00,0.0070
1865.00,0.0070
1864.00,0.0070
1863.00,0.0070
1862.00,0.0070
1861.00,0.0070
1860.00,0.0071
1859.00,0.0071
1858.00,0.0070
1857.00,0.0070
1856.00,0.0070
1855.00,0.0070
1854.00,0.0069
1853.00,0.0069
1852.00,0.0069
1851.00,0.0069
1850.00,0.0069
1849.00,0.0069
1848.00,0.0069
1847.00,0.0069
1846.00,0.0069
1845.00,0.0068
1844.00,0.0068
1843.00,0.0068
1842.00,0.0068
1841.00,0.0067
1840.00,0.0067
1839.00,0.0067
1838.00,0.0067
1837.00,0.0067
1836.00,0.0067
1835.00,0.0067
1834.00,0.0067
1833.00,0.0067
1832.00,0.0067
1831.00,0.0068
1830.00,0.0068
1829.00,0.0068
1828.00,0.0067
1827.00,0.0066
1826.00,0.0066
1825.00,0.0066
1824.00,0.0066
1823.00,0.0066
1822.00,0.0066
1821.00,0.0066
1820.00,0.0066
1819.00,0.0066
1818.00,0.0066
1817.00,0.0066
1816.00,0.0066
1815.00,0.0066
1814.00,0.0065
1813.00,0.0064
1812.00,0.0064
1811.00,0.0064
1810.00,0.0064
1809.00,0.0063
1808.00,0.0063
1807.00,0.0064
1806.00,0.0063
1805.00,0.0063
1804.00,0.0064
1803.00,0.0064
1802.00,0.0063
1801.00,0.0062
1800.00,0.0062
1799.00,0.0061
1798.00,0.0061
1797.00,0.0060
1796.00,0.0061
1795.00,0.0061
1794.00,0.0061
1793.00,0.0060
1792.00,0.0061
1791.00,0.0061
1790.00,0.0060
1789.00,0.0060
1788.00,0.0060
1787.00,0.0060
1786.00,0.0060
1785.00,0.0060
1784.00,0.0060
1783.00,0.0060
1782.00,0.0059
1781.00,0.0059
1780.00,0.0059
1779.00,0.0059
1778.00,0.0058
1777.00,0.0058
1776.00,0.0059
1775.00,0.0059
1774.00,0.0059
1773.00,0.0059
1772.00,0.0059
1771.00,0.0059
1770.00,0.0059
1769.00,0.0058
1768.00,0.0057
1767.00,0.0058
1766.00,0.0058
1765.00,0.0058
1764.00,0.0058
1763.00,0.0059
1762.00,0.0060
1761.00,0.0060
1760.00,0.0059
1759.00,0.0059
1758.00,0.0059
1757.00,0.0059
1756.00,0.0059
1755.00,0.0059
1754.00,0.0059
1753.00,0.0058
1752.00,0.0058
1751.00,0.0058
1750.00,0.0059
1749.00,0.0060
1748.00,0.0061
1747.00,0.0062
1746.00,0.0064
1745.00,0.0065
1744.00,0.0066
1743.00,0.0068
1742.00,0.0069
1741.00,0.0069
1740.00,0.0069
1739.00,0.0069
1738.00,0.0069
1737.00,0.0068
1736.00,0.0067
1735.00,0.0065
1734.00,0.0064
1733.00,0.0063
1732.00,0.0061
1731.00,0.0060
1730.00,0.0060
1729.00,0.0060
1728.00,0.0060
1727.00,0.0059
1726.00,0.0059
1725.00,0.0059
1724.00,0.0059
1723.00,0.0059
1722.00,0.0059
1721.00,0.0059
1720.00,0.0060
1719.00,0.0060
1718.00,0.0060
1717.00,0.0060
1716.00,0.0061
1715.00,0.0061
1714.00,0.0061
1713.00,0.0062
1712.00,0.0063
1711.00,0.0065
1710.00,0.0067
1709.00,0.0069
1708.00,0.0073
1707.00,0.0077
1706.00,0.0082
1705.00,0.0089
1704.00,0.0096
1703.00,0.0103
1702.00,0.0109
1701.00,0.0117
1700.00,0.0129
1699.00,0.0139
1698.00,0.0144
1697.00,0.0148
1696.00,0.0153
1695.00,0.0158
1694.00,0.0160
1693.00,0.0162
1692.00,0.0164
1691.00,0.0168
1690.00,0.0172
1689.00,0.0177
1688.00,0.0182
1687.00,0.0188
1686.00,0.0192
1685.00,0.0197
1684.00,0.0205
1683.00,0.0212
1682.00,0.0217
1681.00,0.0222
1680.00,0.0227
1679.00,0.0233
1678.00,0.0239
1677.00,0.0244
1676.00,0.0250
1675.00,0.0257
1674.00,0.0263
1673.00,0.0268
1672.00,0.0273
1671.00,0.0279
1670.00,0.0287
1669.00,0.0296
1668.00,0.0304
1667.00,0.0311
1666.00,0.0317
1665.00,0.0323
1664.00,0.0329
1663.00,0.0337
1662.00,0.0345
1661.00,0.0352
1660.00,0.0358
1659.00,0.0364
1658.00,0.0371
1657.00,0.0378
1656.00,0.0385
1655.00,0.0391
1654.00,0.0395
1653.00,0.0402
1652.00,0.0406
1651.00,0.0407
1650.00,0.0407
1649.00,0.0406
1648.00,0.0406
1647.00,0.0407
1646.00,0.0409
1645.00,0.0410
1644.00,0.0411
1643.00,0.0412
1642.00,0.0412
1641.00,0.0412
1640.00,0.0413
1639.00,0.0414
1638.00,0.0415
1637.00,0.0415
1636.00,0.0416
1635.00,0.0419
1634.00,0.0422
1633.00,0.0424
1632.00,0.0426
1631.00,0.0427
1630.00,0.0429
1629.00,0.0433
1628.00,0.0437
1627.00,0.0442
1626.00,0.0447
1625.00,0.0452
1624.00,0.0457
1623.00,0.0463
1622.00,0.0469
1621.00,0.0474
1620.00,0.0478
1619.00,0.0481
1618.00,0.0482
1617.00,0.0482
1616.00,0.0481
1615.00,0.0478
1614.00,0.0474
1613.00,0.0468
1612.00,0.0461
1611.00,0.0452
1610.00,0.0443
1609.00,0.0433
1608.00,0.0423
1607.00,0.0413
1606.00,0.0403
1605.00,0.0392
1604.00,0.0382
1603.00,0.0371
1602.00,0.0362
1601.00,0.0352
1600.00,0.0343
1599.00,0.0334
1598.00,0.0326
1597.00,0.0318
1596.00,0.0310
1595.00,0.0302
1594.00,0.0296
1593.00,0.0290
1592.00,0.0283
1591.00,0.0277
1590.00,0.0272
1589.00,0.0267
1588.00,0.0262
1587.00,0.0258
1586.00,0.0254
1585.00,0.0251
1584.00,0.0247
1583.00,0.0244
1582.00,0.0242
1581.00,0.0241
1580.00,0.0239
1579.00,0.0238
1578.00,0.0237
1577.00,0.0237
1576.00,0.0235
1575.00,0.0233
1574.00,0.0233
1573.00,0.0234
1572.00,0.0234
1571.00,0.0234
1570.00,0.0236
1569.00,0.0238
1568.00,0.0239
1567.00,0.0241
1566.00,0.0243
1565.00,0.0247
1564.00,0.0252
1563.00,0.0257
1562.00,0.0263
1561.00,0.0268
1560.00,0.0271
1559.00,0.0277
1558.00,0.0286
1557.00,0.0293
1556.00,0.0298
1555.00,0.0303
1554.00,0.0308
1553.00,0.0314
1552.00,0.0320
1551.00,0.0326
1550.00,0.0333
1549.00,0.0340
1548.00,0.0345
1547.00,0.0350
1546.00,0.0356
1545.00,0.0362
1544.00,0.0368
1543.00,0.0374
1542.00,0.0378
1541.00,0.0381
1540.00,0.0385
1539.00,0.0390
1538.00,0.0394
1537.00,0.0397
1536.00,0.0399
1535.00,0.0401
1534.00,0.0403
1533.00,0.0407
1532.00,0.0411
1531.00,0.0413
1530.00,0.0415
1529.00,0.0417
1528.00,0.0420
1527.00,0.0422
1526.00,0.0425
1525.00,0.0428
1524.00,0.0431
1523.00,0.0433
1522.00,0.0435
1521.00,0.0438
1520.00,0.0442
1519.00,0.0443
1518.00,0.0444
1517.00,0.0445
1516.00,0.0446
1515.00,0.0446
1514.00,0.0446
1513.00,0.0444
1512.00,0.0442
1511.00,0.0441
1510.00,0.0440
1509.00,0.0436
1508.00,0.0431
1507.00,0.0425
1506.00,0.0419
1505.00,0.0413
1504.00,0.0409
1503.00,0.0404
1502.00,0.0399
1501.00,0.0393
1500.00,0.0387
1499.00,0.0382
1498.00,0.0376
1497.00,0.0369
1496.00,0.0362
1495.00,0.0356
1494.00,0.0350
1493.00,0.0343
1492.00,0.0336
1491.00,0.0329
1490.00,0.0322
1489.00,0.0316
1488.00,0.0311
1487.00,0.0305
1486.00,0.0299
1485.00,0.0294
1484.00,0.0289
1483.00,0.0284
1482.00,0.0279
1481.00,0.0275
1480.00,0.0271
1479.00,0.0268
1478.00,0.0265
1477.00,0.0263
1476.00,0.0262
1475.00,0.0261
1474.00,0.0259
1473.00,0.0259
1472.00,0.0260
1471.00,0.0263
1470.00,0.0264
1469.00,0.0266
1468.00,0.0267
1467.00,0.0268
1466.00,0.0268
1465.00,0.0267
1464.00,0.0267
1463.00,0.0267
1462.00,0.0268
1461.00,0.0269
1460.00,0.0272
1459.00,0.0275
1458.00,0.0278
1457.00,0.0282
1456.00,0.0284
1455.00,0.0286
1454.00,0.0287
1453.00,0.0288
1452.00,0.0288
1451.00,0.0288
1450.00,0.0289
1449.00,0.0288
1448.00,0.0288
1447.00,0.0287
1446.00,0.0286
1445.00,0.0284
1444.00,0.0281
1443.00,0.0279
1442.00,0.0277
1441.00,0.0274
1440.00,0.0272
1439.00,0.0271
1438.00,0.0269
1437.00,0.0266
1436.00,0.0262
1435.00,0.0260
1434.00,0.0258
1433.00,0.0255
1432.00,0.0253
1431.00,0.0252
1430.00,0.0251
1429.00,0.0250
1428.00,0.0248
1427.00,0.0248
1426.00,0.0247
1425.00,0.0247
1424.00,0.0247
1423.00,0.0248
1422.00,0.0250
1421.00,0.0251
1420.00,0.0252
1419.00,0.0254
1418.00,0.0255
1417.00,0.0255
1416.00,0.0255
1415.00,0.0256
1414.00,0.0258
1413.00,0.0259
1412.00,0.0259
1411.00,0.0260
1410.00,0.0261
1409.00,0.0261
1408.00,0.0261
1407.00,0.0261
1406.00,0.0261
1405.00,0.0261
1404.00,0.0260
1403.00,0.0260
1402.00,0.0260
1401.00,0.0259
1400.00,0.0258
1399.00,0.0257
1398.00,0.0258
1397.00,0.0258
1396.00,0.0258
1395.00,0.0258
1394.00,0.0259
1393.00,0.0259
1392.00,0.0258
1391.00,0.0258
1390.00,0.0259
1389.00,0.0259
1388.00,0.0260
1387.00,0.0260
1386.00,0.0260
1385.00,0.0260
1384.00,0.0259
1383.00,0.0259
1382.00,0.0259
1381.00,0.0259
1380.00,0.0259
1379.00,0.0258
1378.00,0.0258
1377.00,0.0257
1376.00,0.0257
1375.00,0.0256
1374.00,0.0257
1373.00,0.0257
1372.00,0.0256
1371.00,0.0255
1370.00,0.0255
1369.00,0.0254
1368.00,0.0253
1367.00,0.0252
1366.00,0.0251
1365.00,0.0249
1364.00,0.0248
1363.00,0.0246
1362.00,0.0245
1361.00,0.0244
1360.00,0.0242
1359.00,0.0240
1358.00,0.0239
1357.00,0.0238
1356.00,0.0238
1355.00,0.0237
1354.00,0.0237
1353.00,0.0236
1352.00,0.0236
1351.00,0.0236
1350.00,0.0236
1349.00,0.0236
1348.00,0.0236
1347.00,0.0236
1346.00,0.0236
1345.00,0.0236
1344.00,0.0237
1343.00,0.0237
1342.00,0.0237
1341.00,0.0238
1340.00,0.0238
1339.00,0.0239
1338.00,0.0239
1337.00,0.0239
1336.00,0.0238
1335.00,0.0238
1334.00,0.0237
1333.00,0.0237
1332.00,0.0237
1331.00,0.0236
1330.00,0.0236
1329.00,0.0235
1328.00,0.0235
1327.00,0.0234
1326.00,0.0234
1325.00,0.0234
1324.00,0.0234
1323.00,0.0234
1322.00,0.0235
1321.00,0.0235
1320.00,0.0236
1319.00,0.0236
1318.00,0.0237
1317.00,0.0238
1316.00,0.0238
1315.00,0.0239
1314.00,0.0239
1313.00,0.0240
1312.00,0.0240
1311.00,0.0240
1310.00,0.0240
1309.00,0.0241
1308.00,0.0241
1307.00,0.0241
1306.00,0.0241
1305.00,0.0241
1304.00,0.0240
1303.00,0.0240
1302.00,0.0240
1301.00,0.0240
1300.00,0.0240
1299.00,0.0239
1298.00,0.0239
1297.00,0.0239
1296.00,0.0238
1295.00,0.0238
1294.00,0.0238
1293.00,0.0237
1292.00,0.0237
1291.00,0.0237
1290.00,0.0237
1289.00,0.0236
1288.00,0.0236
1287.00,0.0236
1286.00,0.0236
1285.00,0.0235
1284.00,0.0235
1283.00,0.0235
1282.00,0.0235
1281.00,0.0235
1280.00,0.0234
1279.00,0.0234
1278.00,0.0234
1277.00,0.0233
1276.00,0.0233
1275.00,0.0232
1274.00,0.0232
1273.00,0.0232
1272.00,0.0232
1271.00,0.0232
1270.00,0.0232
1269.00,0.0233
1268.00,0.0233
1267.00,0.0233
1266.00,0.0234
1265.00,0.0235
1264.00,0.0235
1263.00,0.0236
1262.00,0.0237
1261.00,0.0238
1260.00,0.0239
1259.00,0.0240
1258.00,0.0241
1257.00,0.0242
1256.00,0.0244
1255.00,0.0245
1254.00,0.0247
1253.00,0.0249
1252.00,0.0250
1251.00,0.0252
1250.00,0.0254
1249.00,0.0255
1248.00,0.0257
1247.00,0.0258
1246.00,0.0259
1245.00,0.0260
1244.00,0.0261
1243.00,0.0262
1242.00,0.0262
1241.00,0.0263
1240.00,0.0264
1239.00,0.0264
1238.00,0.0265
1237.00,0.0265
1236.00,0.0265
1235.00,0.0265
1234.00,0.0265
1233.00,0.0265
1232.00,0.0265
1231.00,0.0264
1230.00,0.0264
1229.00,0.0263
1228.00,0.0263
1227.00,0.0262
1226.00,0.0261
1225.00,0.0260
1224.00,0.0259
1223.00,0.0257
1222.00,0.0256
1221.00,0.0255
1220.00,0.0254
1219.00,0.0253
1218.00,0.0252
1217.00,0.0250
1216.00,0.0249
1215.00,0.0247
1214.00,0.0246
1213.00,0.0245
1212.00,0.0243
1211.00,0.0242
1210.00,0.0240
1209.00,0.0239
1208.00,0.0237
1207.00,0.0235
1206.00,0.0234
1205.00,0.0232
1204.00,0.0230
1203.00,0.0228
1202.00,0.0227
1201.00,0.0225
1200.00,0.0223
1199.00,0.0221
1198.00,0.0219
1197.00,0.0217
1196.00,0.0216
1195.00,0.0214
1194.00,0.0213
1193.00,0.0211
1192.00,0.0210
1191.00,0.0209
1190.00,0.0208
1189.00,0.0207
1188.00,0.0206
1187.00,0.0205
1186.00,0.0205
1185.00,0.0204
1184.00,0.0204
1183.00,0.0203
1182.00,0.0204
1181.00,0.0204
1180.00,0.0204
1179.00,0.0205
1178.00,0.0207
1177.00,0.0208
1176.00,0.0210
1175.00,0.0212
1174.00,0.0214
1173.00,0.0217
1172.00,0.0219
1171.00,0.0222
1170.00,0.0224
1169.00,0.0226
1168.00,0.0228
1167.00,0.0230
1166.00,0.0232
1165.00,0.0233
1164.00,0.0234
1163.00,0.0235
1162.00,0.0235
1161.00,0.0235
1160.00,0.0234
1159.00,0.0233
1158.00,0.0232
1157.00,0.0230
1156.00,0.0229
1155.00,0.0227
1154.00,0.0225
1153.00,0.0223
1152.00,0.0221
1151.00,0.0219
1150.00,0.0218
1149.00,0.0216
1148.00,0.0214
1147.00,0.0212
1146.00,0.0211
1145.00,0.0209
1144.00,0.0208
1143.00,0.0207
1142.00,0.0206
1141.00,0.0205
1140.00,0.0204
1139.00,0.0204
1138.00,0.0204
1137.00,0.0204
1136.00,0.0203
1135.00,0.0203
1134.00,0.0204
1133.00,0.0204
1132.00,0.0204
1131.00,0.0204
1130.00,0.0205
1129.00,0.0205
1128.00,0.0205
1127.00,0.0205
1126.00,0.0205
1125.00,0.0206
1124.00,0.0206
1123.00,0.0206
1122.00,0.0206
1121.00,0.0207
1120.00,0.0207
1119.00,0.0207
1118.00,0.0208
1117.00,0.0209
1116.00,0.0209
1115.00,0.0210
1114.00,0.0211
1113.00,0.0211
1112.00,0.0212
1111.00,0.0212
1110.00,0.0213
1109.00,0.0213
1108.00,0.0213
1107.00,0.0213
1106.00,0.0214
1105.00,0.0215
1104.00,0.0215
1103.00,0.0215
1102.00,0.0215
1101.00,0.0215
1100.00,0.0215
1099.00,0.0214
1098.00,0.0215
1097.00,0.0215
1096.00,0.0215
1095.00,0.0215
1094.00,0.0217
1093.00,0.0218
1092.00,0.0219
1091.00,0.0221
1090.00,0.0223
1089.00,0.0225
1088.00,0.0227
1087.00,0.0230
1086.00,0.0233
1085.00,0.0236
1084.00,0.0238
1083.00,0.0241
1082.00,0.0245
1081.00,0.0248
1080.00,0.0251
1079.00,0.0254
1078.00,0.0257
1077.00,0.0260
1076.00,0.0263
1075.00,0.0265
1074.00,0.0268
1073.00,0.0270
1072.00,0.0272
1071.00,0.0274
1070.00,0.0276
1069.00,0.0278
1068.00,0.0280
1067.00,0.0282
1066.00,0.0284
1065.00,0.0286
1064.00,0.0287
1063.00,0.0288
1062.00,0.0289
1061.00,0.0290
1060.00,0.0290
1059.00,0.0290
1058.00,0.0290
1057.00,0.0289
1056.00,0.0288
1055.00,0.0287
1054.00,0.0287
1053.00,0.0285
1052.00,0.0284
1051.00,0.0282
1050.00,0.0281
1049.00,0.0280
1048.00,0.0278
1047.00,0.0276
1046.00,0.0274
1045.00,0.0272
1044.00,0.0270
1043.00,0.0268
1042.00,0.0266
1041.00,0.0264
1040.00,0.0262
1039.00,0.0261
1038.00,0.0260
1037.00,0.0259
1036.00,0.0258
1035.00,0.0257
1034.00,0.0256
1033.00,0.0256
1032.00,0.0254
1031.00,0.0253
1030.00,0.0252
1029.00,0.0250
1028.00,0.0247
1027.00,0.0245
1026.00,0.0242
1025.00,0.0240
1024.00,0.0237
1023.00,0.0234
1022.00,0.0232
1021.00,0.0230
1020.00,0.0227
1019.00,0.0225
1018.00,0.0223
1017.00,0.0221
1016.00,0.0219
1015.00,0.0217
1014.00,0.0215
1013.00,0.0214
1012.00,0.0212
1011.00,0.0210
1010.00,0.0209
1009.00,0.0208
1008.00,0.0207
1007.00,0.0205
1006.00,0.0204
1005.00,0.0203
1004.00,0.0202
1003.00,0.0201
1002.00,0.0200
1001.00,0.0199
1000.00,0.0198
999.00,0.0197
998.00,0.0196
997.00,0.0196
996.00,0.0194
995.00,0.0194
994.00,0.0193
993.00,0.0193
992.00,0.0192
991.00,0.0191
990.00,0.0191
989.00,0.0190
988.00,0.0189
987.00,0.0189
986.00,0.0189
985.00,0.0188
984.00,0.0188
983.00,0.0188
982.00,0.0187
981.00,0.0187
980.00,0.0185
979.00,0.0184
978.00,0.0184
977.00,0.0183
976.00,0.0182
975.00,0.0181
974.00,0.0181
973.00,0.0181
972.00,0.0180
971.00,0.0180
970.00,0.0180
969.00,0.0180
968.00,0.0180
967.00,0.0180
966.00,0.0181
965.00,0.0181
964.00,0.0181
963.00,0.0181
962.00,0.0181
961.00,0.0180
960.00,0.0179
959.00,0.0178
958.00,0.0178
957.00,0.0177
956.00,0.0175
955.00,0.0174
954.00,0.0174
953.00,0.0173
952.00,0.0172
951.00,0.0171
950.00,0.0170
949.00,0.0170
948.00,0.0169
947.00,0.0168
946.00,0.0167
945.00,0.0167
944.00,0.0166
943.00,0.0166
942.00,0.0165
941.00,0.0165
940.00,0.0165
939.00,0.0165
938.00,0.0165
937.00,0.0165
936.00,0.0164
935.00,0.0164
934.00,0.0164
933.00,0.0165
932.00,0.0164
931.00,0.0164
930.00,0.0164
929.00,0.0163
928.00,0.0163
927.00,0.0162
926.00,0.0162
925.00,0.0162
924.00,0.0161
923.00,0.0160
922.00,0.0159
921.00,0.0158
920.00,0.0157
919.00,0.0156
918.00,0.0156
917.00,0.0156
916.00,0.0155
915.00,0.0154
914.00,0.0154
913.00,0.0154
912.00,0.0153
911.00,0.0153
910.00,0.0153
909.00,0.0154
908.00,0.0154
907.00,0.0154
906.00,0.0154
905.00,0.0155
904.00,0.0155
903.00,0.0155
902.00,0.0155
901.00,0.0155
900.00,0.0154
899.00,0.0154
898.00,0.0154
897.00,0.0154
896.00,0.0154
895.00,0.0154
894.00,0.0154
893.00,0.0153
892.00,0.0152
891.00,0.0151
890.00,0.0151
889.00,0.0150
888.00,0.0149
887.00,0.0148
886.00,0.0147
885.00,0.0147
884.00,0.0146
883.00,0.0146
882.00,0.0146
881.00,0.0146
880.00,0.0145
879.00,0.0145
878.00,0.0145
877.00,0.0145
876.00,0.0145
875.00,0.0144
874.00,0.0144
873.00,0.0144
872.00,0.0143
871.00,0.0142
870.00,0.0142
869.00,0.0142
868.00,0.0141
867.00,0.0141
866.00,0.0140
865.00,0.0140
864.00,0.0139
863.00,0.0138
862.00,0.0138
861.00,0.0138
860.00,0.0137
859.00,0.0137
858.00,0.0137
857.00,0.0137
856.00,0.0137
855.00,0.0136
854.00,0.0137
853.00,0.0137
852.00,0.0137
851.00,0.0137
850.00,0.0137
849.00,0.0137
848.00,0.0137
847.00,0.0136
846.00,0.0137
845.00,0.0137
844.00,0.0136
843.00,0.0136
842.00,0.0137
841.00,0.0137
840.00,0.0137
839.00,0.0138
838.00,0.0139
837.00,0.0140
836.00,0.0140
835.00,0.0140
834.00,0.0141
833.00,0.0142
832.00,0.0142
831.00,0.0143
830.00,0.0144
829.00,0.0145
828.00,0.0145
827.00,0.0146
826.00,0.0147
825.00,0.0147
824.00,0.0147
823.00,0.0148
822.00,0.0148
821.00,0.0149
820.00,0.0149
819.00,0.0149
818.00,0.0150
817.00,0.0151
816.00,0.0151
815.00,0.0151
814.00,0.0152
813.00,0.0153
812.00,0.0153
811.00,0.0154
810.00,0.0155
809.00,0.0156
808.00,0.0156
807.00,0.0156
806.00,0.0157
805.00,0.0158
804.00,0.0158
803.00,0.0159
802.00,0.0159
801.00,0.0160
800.00,0.0159
799.00,0.0160
798.00,0.0160
797.00,0.0161
796.00,0.0161
795.00,0.0161
794.00,0.0162
793.00,0.0163
792.00,0.0164
791.00,0.0165
790.00,0.0166
789.00,0.0167
788.00,0.0168
787.00,0.0169
786.00,0.0170
785.00,0.0171
784.00,0.0172
783.00,0.0173
782.00,0.0174
781.00,0.0176
780.00,0.0177
779.00,0.0178
778.00,0.0180
777.00,0.0181
776.00,0.0182
775.00,0.0183
774.00,0.0185
773.00,0.0186
772.00,0.0187
771.00,0.0187
770.00,0.0189
769.00,0.0190
768.00,0.0191
767.00,0.0192
766.00,0.0193
765.00,0.0195
764.00,0.0195
763.00,0.0196
762.00,0.0197
761.00,0.0197
760.00,0.0198
759.00,0.0198
758.00,0.0200
757.00,0.0201
756.00,0.0202
755.00,0.0203
754.00,0.0204
753.00,0.0206
752.00,0.0207
751.00,0.0208
750.00,0.0209
749.00,0.0210
748.00,0.0211
747.00,0.0211
746.00,0.0211
745.00,0.0211
744.00,0.0211
743.00,0.0211
742.00,0.0211
741.00,0.0211
740.00,0.0211
739.00,0.0211
738.00,0.0211
737.00,0.0212
736.00,0.0212
735.00,0.0213
734.00,0.0215
733.00,0.0216
732.00,0.0217
731.00,0.0218
730.00,0.0220
729.00,0.0222
728.00,0.0223
727.00,0.0225
726.00,0.0228
725.00,0.0231
724.00,0.0233
723.00,0.0236
722.00,0.0239
721.00,0.0242
720.00,0.0245
719.00,0.0248
718.00,0.0251
717.00,0.0254
716.00,0.0257
715.00,0.0260
714.00,0.0263
713.00,0.0266
712.00,0.0268
711.00,0.0271
710.00,0.0275
709.00,0.0279
708.00,0.0283
707.00,0.0286
706.00,0.0290
705.00,0.0294
704.00,0.0297
703.00,0.0300
702.00,0.0304
701.00,0.0307
700.00,0.0309
699.00,0.0310
698.00,0.0311
697.00,0.0312
696.00,0.0312
695.00,0.0312
694.00,0.0312
693.00,0.0311
692.00,0.0310
691.00,0.0310
690.00,0.0311
689.00,0.0312
688.00,0.0312
687.00,0.0313
686.00,0.0314
685.00,0.0314
684.00,0.0315
683.00,0.0315
682.00,0.0317
681.00,0.0318
680.00,0.0319
679.00,0.0320
678.00,0.0321
677.00,0.0322
676.00,0.0322
675.00,0.0323
674.00,0.0324
673.00,0.0325
672.00,0.0326
671.00,0.0326
670.00,0.0327
669.00,0.0328
668.00,0.0329
667.00,0.0330
666.00,0.0332
665.00,0.0334
664.00,0.0335
663.00,0.0335
662.00,0.0336
661.00,0.0337
660.00,0.0336
659.00,0.0336
658.00,0.0338
657.00,0.0339
656.00,0.0339
655.00,0.0339
654.00,0.0340
653.00,0.0340
652.00,0.0340
651.00,0.0341
650.00,0.0342
649.00,0.0343
648.00,0.0343
647.00,0.0343
646.00,0.0345
645.00,0.0347
644.00,0.0348
643.00,0.0349
642.00,0.0350
641.00,0.0352
640.00,0.0353
639.00,0.0354
638.00,0.0356
637.00,0.0357
636.00,0.0358
635.00,0.0358
634.00,0.0360
633.00,0.0362
632.00,0.0363
631.00,0.0364
630.00,0.0365
629.00,0.0367
628.00,0.0367
627.00,0.0367
626.00,0.0368
625.00,0.0369
624.00,0.0369
623.00,0.0370
622.00,0.0371
621.00,0.0372
620.00,0.0372
619.00,0.0372
618.00,0.0373
617.00,0.0374
616.00,0.0373
615.00,0.0372
614.00,0.0372
613.00,0.0373
612.00,0.0371
611.00,0.0371
610.00,0.0371
609.00,0.0371
608.00,0.0370
607.00,0.0369
606.00,0.0369
605.00,0.0370
604.00,0.0370
603.00,0.0369
602.00,0.0370
601.00,0.0370
600.00,0.0370
599.00,0.0370
598.00,0.0370
597.00,0.0370
596.00,0.0370
595.00,0.0370
594.00,0.0372
593.00,0.0373
592.00,0.0373
591.00,0.0372
590.00,0.0373
589.00,0.0374
588.00,0.0373
587.00,0.0374
586.00,0.0375
585.00,0.0376
584.00,0.0375
583.00,0.0375
582.00,0.0376
581.00,0.0377
580.00,0.0376
579.00,0.0376
578.00,0.0377
577.00,0.0378
576.00,0.0377
575.00,0.0377
574.00,0.0379
573.00,0.0380
572.00,0.0381
571.00,0.0381
570.00,0.0383
569.00,0.0384
568.00,0.0383
567.00,0.0383
566.00,0.0384
565.00,0.0386
564.00,0.0386
563.00,0.0387
562.00,0.0389
561.00,0.0390
560.00,0.0390
559.00,0.0391
558.00,0.0393
557.00,0.0393
556.00,0.0392
555.00,0.0390
554.00,0.0391
553.00,0.0393
552.00,0.0393
551.00,0.0393
550.00,0.0394
549.00,0.0393
548.00,0.0392
547.00,0.0391
546.00,0.0392
545.00,0.0393
544.00,0.0392
543.00,0.0391
542.00,0.0392
541.00,0.0393
540.00,0.0393
539.00,0.0394
538.00,0.0395
537.00,0.0396
536.00,0.0395
535.00,0.0394
534.00,0.0397
533.00,0.0399
532.00,0.0399
531.00,0.0399
530.00,0.0400
529.00,0.0401
528.00,0.0401
527.00,0.0401
526.00,0.0403
525.00,0.0406
524.00,0.0406
523.00,0.0406
522.00,0.0409
521.00,0.0412
520.00,0.0411
519.00,0.0409
518.00,0.0408
517.00,0.0406
516.00,0.0403
515.00,0.0402
514.00,0.0404
513.00,0.0404
512.00,0.0403
511.00,0.0401
510.00,0.0402
509.00,0.0402
508.00,0.0399
507.00,0.0396
506.00,0.0394
505.00,0.0393
504.00,0.0391
503.00,0.0390
502.00,0.0392
501.00,0.0393
500.00,0.0391
499.00,0.0390
498.00,0.0390
497.00,0.0390
496.00,0.0388
495.00,0.0387
494.00,0.0388
493.00,0.0390
492.00,0.0390
491.00,0.0390
490.00,0.0392
489.00,0.0394
488.00,0.0393
487.00,0.0391
486.00,0.0393
485.00,0.0393
484.00,0.0392
483.00,0.0391
482.00,0.0392
481.00,0.0393
480.00,0.0390
479.00,0.0389
478.00,0.0390
477.00,0.0391
476.00,0.0388
475.00,0.0385
474.00,0.0385
473.00,0.0385
472.00,0.0383
471.00,0.0383
470.00,0.0386
469.00,0.0388
468.00,0.0385
467.00,0.0384
466.00,0.0388
465.00,0.0392
464.00,0.0391
463.00,0.0388
462.00,0.0388
461.00,0.0387
460.00,0.0382
459.00,0.0378
458.00,0.0380
457.00,0.0382
456.00,0.0381
455.00,0.0380
454.00,0.0384
453.00,0.0385
452.00,0.0381
451.00,0.0377
450.00,0.0378
449.00,0.0380
448.00,0.0378
447.00,0.0375
446.00,0.0374
445.00,0.0371
444.00,0.0367
443.00,0.0365
442.00,0.0368
441.00,0.0367
440.00,0.0359
439.00,0.0353
438.00,0.0352
437.00,0.0351
436.00,0.0345
435.00,0.0339
434.00,0.0341
433.00,0.0343
432.00,0.0341
431.00,0.0338
430.00,0.0337
429.00,0.0333
428.00,0.0324
427.00,0.0318
426.00,0.0321
425.00,0.0326
424.00,0.0322
423.00,0.0316
422.00,0.0315
421.00,0.0314
420.00,0.0306
419.00,0.0301
418.00,0.0307
417.00,0.0312
416.00,0.0308
415.00,0.0307
414.00,0.0315
413.00,0.0322
412.00,0.0317
411.00,0.0310
410.00,0.0311
409.00,0.0314
408.00,0.0307
407.00,0.0301
406.00,0.0302
405.00,0.0303
404.00,0.0295
403.00,0.0292
402.00,0.0302
401.00,0.0310
400.00,0.0300
