Created as New Dataset,Sample 011 By YargerLab Date Wednesday, October 23 2024
cm-1,A
4000.00,0.0028
3999.00,0.0028
3998.00,0.0028
3997.00,0.0028
3996.00,0.0028
3995.00,0.0028
3994.00,0.0028
3993.00,0.0028
3992.00,0.0028
3991.00,0.0028
3990.00,0.0028
3989.00,0.0028
3988.00,0.0027
3987.00,0.0027
3986.00,0.0027
3985.00,0.0027
3984.00,0.0027
3983.00,0.0027
3982.00,0.0027
3981.00,0.0027
3980.00,0.0027
3979.00,0.0028
3978.00,0.0028
3977.00,0.0028
3976.00,0.0028
3975.00,0.0028
3974.00,0.0028
3973.00,0.0028
3972.00,0.0028
3971.00,0.0027
3970.00,0.0027
3969.00,0.0027
3968.00,0.0027
3967.00,0.0027
3966.00,0.0027
3965.00,0.0027
3964.00,0.0027
3963.00,0.0027
3962.00,0.0027
3961.00,0.0027
3960.00,0.0027
3959.00,0.0027
3958.00,0.0027
3957.00,0.0027
3956.00,0.0027
3955.00,0.0027
3954.00,0.0027
3953.00,0.0027
3952.00,0.0027
3951.00,0.0027
3950.00,0.0027
3949.00,0.0027
3948.00,0.0027
3947.00,0.0027
3946.00,0.0027
3945.00,0.0027
3944.00,0.0027
3943.00,0.0027
3942.00,0.0027
3941.00,0.0027
3940.00,0.0027
3939.00,0.0027
3938.00,0.0027
3937.00,0.0027
3936.00,0.0027
3935.00,0.0027
3934.00,0.0027
3933.00,0.0027
3932.00,0.0027
3931.00,0.0027
3930.00,0.0027
3929.00,0.0027
3928.00,0.0027
3927.00,0.0027
3926.00,0.0027
3925.00,0.0027
3924.00,0.0027
3923.00,0.0027
3922.00,0.0027
3921.00,0.0027
3920.00,0.0027
3919.00,0.0027
3918.00,0.0027
3917.00,0.0027
3916.00,0.0026
3915.00,0.0026
3914.00,0.0026
3913.00,0.0026
3912.00,0.0026
3911.00,0.0026
3910.00,0.0026
3909.00,0.0026
3908.00,0.0026
3907.00,0.0026
3906.00,0.0026
3905.00,0.0026
3904.00,0.0026
3903.00,0.0026
3902.00,0.0026
3901.00,0.0026
3900.00,0.0027
3899.00,0.0026
3898.00,0.0026
3897.00,0.0026
3896.00,0.0026
3895.00,0.0026
3894.00,0.0026
3893.00,0.0026
3892.00,0.0026
3891.00,0.0026
3890.00,0.0026
3889.00,0.0026
3888.00,0.0026
3887.00,0.0026
3886.00,0.0026
3885.00,0.0026
3884.00,0.0026
3883.00,0.0026
3882.00,0.0026
3881.00,0.0026
3880.00,0.0026
3879.00,0.0026
3878.00,0.0026
3877.00,0.0026
3876.00,0.0026
3875.00,0.0026
3874.00,0.0026
3873.00,0.0026
3872.00,0.0026
3871.00,0.0026
3870.00,0.0026
3869.00,0.0026
3868.00,0.0026
3867.00,0.0026
3866.00,0.0026
3865.00,0.0026
3864.00,0.0026
3863.00,0.0026
3862.00,0.0026
3861.00,0.0026
3860.00,0.0026
3859.00,0.0026
3858.00,0.0026
3857.00,0.0026
3856.00,0.0026
3855.00,0.0026
3854.00,0.0026
3853.00,0.0026
3852.00,0.0026
3851.00,0.0026
3850.00,0.0026
3849.00,0.0026
3848.00,0.0026
3847.00,0.0025
3846.00,0.0025
3845.00,0.0025
3844.00,0.0025
3843.00,0.0025
3842.00,0.0025
3841.00,0.0026
3840.00,0.0026
3839.00,0.0026
3838.00,0.0026
3837.00,0.0026
3836.00,0.0026
3835.00,0.0026
3834.00,0.0026
3833.00,0.0026
3832.00,0.0026
3831.00,0.0025
3830.00,0.0025
3829.00,0.0025
3828.00,0.0025
3827.00,0.0025
3826.00,0.0025
3825.00,0.0025
3824.00,0.0026
3823.00,0.0026
3822.00,0.0026
3821.00,0.0025
3820.00,0.0025
3819.00,0.0025
3818.00,0.0025
3817.00,0.0025
3816.00,0.0025
3815.00,0.0025
3814.00,0.0025
3813.00,0.0025
3812.00,0.0025
3811.00,0.0025
3810.00,0.0025
3809.00,0.0025
3808.00,0.0025
3807.00,0.0025
3806.00,0.0025
3805.00,0.0025
3804.00,0.0025
3803.00,0.0025
3802.00,0.0025
3801.00,0.0025
3800.00,0.0025
3799.00,0.0025
3798.00,0.0025
3797.00,0.0025
3796.00,0.0025
3795.00,0.0025
3794.00,0.0025
3793.00,0.0025
3792.00,0.0025
3791.00,0.0025
3790.00,0.0025
3789.00,0.0025
3788.00,0.0025
3787.00,0.0025
3786.00,0.0025
3785.00,0.0025
3784.00,0.0025
3783.00,0.0025
3782.00,0.0025
3781.00,0.0025
3780.00,0.0025
3779.00,0.0025
3778.00,0.0025
3777.00,0.0025
3776.00,0.0025
3775.00,0.0025
3774.00,0.0025
3773.00,0.0025
3772.00,0.0025
3771.00,0.0025
3770.00,0.0025
3769.00,0.0025
3768.00,0.0025
3767.00,0.0025
3766.00,0.0025
3765.00,0.0025
3764.00,0.0025
3763.00,0.0025
3762.00,0.0025
3761.00,0.0025
3760.00,0.0025
3759.00,0.0025
3758.00,0.0025
3757.00,0.0025
3756.00,0.0026
3755.00,0.0026
3754.00,0.0026
3753.00,0.0026
3752.00,0.0026
3751.00,0.0026
3750.00,0.0025
3749.00,0.0025
3748.00,0.0025
3747.00,0.0026
3746.00,0.0026
3745.00,0.0026
3744.00,0.0026
3743.00,0.0026
3742.00,0.0026
3741.00,0.0026
3740.00,0.0026
3739.00,0.0026
3738.00,0.0026
3737.00,0.0026
3736.00,0.0026
3735.00,0.0026
3734.00,0.0026
3733.00,0.0025
3732.00,0.0025
3731.00,0.0025
3730.00,0.0025
3729.00,0.0026
3728.00,0.0026
3727.00,0.0026
3726.00,0.0026
3725.00,0.0026
3724.00,0.0026
3723.00,0.0026
3722.00,0.0026
3721.00,0.0026
3720.00,0.0026
3719.00,0.0026
3718.00,0.0026
3717.00,0.0026
3716.00,0.0026
3715.00,0.0026
3714.00,0.0026
3713.00,0.0025
3712.00,0.0025
3711.00,0.0025
3710.00,0.0026
3709.00,0.0026
3708.00,0.0026
3707.00,0.0026
3706.00,0.0025
3705.00,0.0025
3704.00,0.0025
3703.00,0.0025
3702.00,0.0025
3701.00,0.0026
3700.00,0.0026
3699.00,0.0026
3698.00,0.0026
3697.00,0.0026
3696.00,0.0026
3695.00,0.0026
3694.00,0.0026
3693.00,0.0026
3692.00,0.0026
3691.00,0.0026
3690.00,0.0026
3689.00,0.0026
3688.00,0.0027
3687.00,0.0027
3686.00,0.0027
3685.00,0.0026
3684.00,0.0026
3683.00,0.0026
3682.00,0.0026
3681.00,0.0027
3680.00,0.0027
3679.00,0.0027
3678.00,0.0027
3677.00,0.0027
3676.00,0.0027
3675.00,0.0027
3674.00,0.0027
3673.00,0.0027
3672.00,0.0027
3671.00,0.0027
3670.00,0.0027
3669.00,0.0028
3668.00,0.0028
3667.00,0.0028
3666.00,0.0028
3665.00,0.0028
3664.00,0.0028
3663.00,0.0028
3662.00,0.0028
3661.00,0.0029
3660.00,0.0029
3659.00,0.0029
3658.00,0.0029
3657.00,0.0030
3656.00,0.0030
3655.00,0.0030
3654.00,0.0031
3653.00,0.0031
3652.00,0.0031
3651.00,0.0032
3650.00,0.0032
3649.00,0.0032
3648.00,0.0033
3647.00,0.0033
3646.00,0.0033
3645.00,0.0034
3644.00,0.0034
3643.00,0.0035
3642.00,0.0035
3641.00,0.0035
3640.00,0.0036
3639.00,0.0036
3638.00,0.0036
3637.00,0.0037
3636.00,0.0037
3635.00,0.0038
3634.00,0.0038
3633.00,0.0039
3632.00,0.0039
3631.00,0.0040
3630.00,0.0041
3629.00,0.0041
3628.00,0.0042
3627.00,0.0042
3626.00,0.0043
3625.00,0.0043
3624.00,0.0043
3623.00,0.0044
3622.00,0.0044
3621.00,0.0045
3620.00,0.0045
3619.00,0.0046
3618.00,0.0047
3617.00,0.0047
3616.00,0.0048
3615.00,0.0048
3614.00,0.0048
3613.00,0.0049
3612.00,0.0049
3611.00,0.0050
3610.00,0.0050
3609.00,0.0050
3608.00,0.0051
3607.00,0.0051
3606.00,0.0052
3605.00,0.0052
3604.00,0.0053
3603.00,0.0053
3602.00,0.0054
3601.00,0.0054
3600.00,0.0055
3599.00,0.0055
3598.00,0.0056
3597.00,0.0056
3596.00,0.0057
3595.00,0.0057
3594.00,0.0058
3593.00,0.0058
3592.00,0.0059
3591.00,0.0059
3590.00,0.0060
3589.00,0.0060
3588.00,0.0061
3587.00,0.0062
3586.00,0.0062
3585.00,0.0063
3584.00,0.0063
3583.00,0.0064
3582.00,0.0064
3581.00,0.0065
3580.00,0.0065
3579.00,0.0066
3578.00,0.0067
3577.00,0.0067
3576.00,0.0068
3575.00,0.0068
3574.00,0.0069
3573.00,0.0069
3572.00,0.0070
3571.00,0.0071
3570.00,0.0071
3569.00,0.0072
3568.00,0.0073
3567.00,0.0074
3566.00,0.0075
3565.00,0.0075
3564.00,0.0076
3563.00,0.0076
3562.00,0.0076
3561.00,0.0077
3560.00,0.0078
3559.00,0.0078
3558.00,0.0079
3557.00,0.0080
3556.00,0.0080
3555.00,0.0081
3554.00,0.0082
3553.00,0.0082
3552.00,0.0083
3551.00,0.0083
3550.00,0.0084
3549.00,0.0084
3548.00,0.0085
3547.00,0.0086
3546.00,0.0087
3545.00,0.0087
3544.00,0.0088
3543.00,0.0089
3542.00,0.0089
3541.00,0.0090
3540.00,0.0091
3539.00,0.0091
3538.00,0.0092
3537.00,0.0092
3536.00,0.0093
3535.00,0.0093
3534.00,0.0094
3533.00,0.0095
3532.00,0.0095
3531.00,0.0096
3530.00,0.0097
3529.00,0.0097
3528.00,0.0098
3527.00,0.0099
3526.00,0.0100
3525.00,0.0100
3524.00,0.0101
3523.00,0.0101
3522.00,0.0102
3521.00,0.0103
3520.00,0.0104
3519.00,0.0104
3518.00,0.0105
3517.00,0.0105
3516.00,0.0106
3515.00,0.0107
3514.00,0.0108
3513.00,0.0108
3512.00,0.0109
3511.00,0.0110
3510.00,0.0110
3509.00,0.0111
3508.00,0.0112
3507.00,0.0112
3506.00,0.0113
3505.00,0.0114
3504.00,0.0114
3503.00,0.0115
3502.00,0.0116
3501.00,0.0117
3500.00,0.0118
3499.00,0.0118
3498.00,0.0119
3497.00,0.0120
3496.00,0.0121
3495.00,0.0121
3494.00,0.0122
3493.00,0.0123
3492.00,0.0124
3491.00,0.0124
3490.00,0.0125
3489.00,0.0126
3488.00,0.0127
3487.00,0.0128
3486.00,0.0129
3485.00,0.0129
3484.00,0.0130
3483.00,0.0131
3482.00,0.0132
3481.00,0.0133
3480.00,0.0133
3479.00,0.0134
3478.00,0.0135
3477.00,0.0136
3476.00,0.0136
3475.00,0.0137
3474.00,0.0138
3473.00,0.0139
3472.00,0.0140
3471.00,0.0140
3470.00,0.0141
3469.00,0.0142
3468.00,0.0143
3467.00,0.0144
3466.00,0.0144
3465.00,0.0145
3464.00,0.0146
3463.00,0.0146
3462.00,0.0147
3461.00,0.0148
3460.00,0.0149
3459.00,0.0149
3458.00,0.0150
3457.00,0.0151
3456.00,0.0152
3455.00,0.0153
3454.00,0.0154
3453.00,0.0155
3452.00,0.0156
3451.00,0.0156
3450.00,0.0157
3449.00,0.0158
3448.00,0.0159
3447.00,0.0160
3446.00,0.0161
3445.00,0.0162
3444.00,0.0163
3443.00,0.0164
3442.00,0.0164
3441.00,0.0165
3440.00,0.0166
3439.00,0.0167
3438.00,0.0168
3437.00,0.0170
3436.00,0.0171
3435.00,0.0172
3434.00,0.0173
3433.00,0.0174
3432.00,0.0175
3431.00,0.0176
3430.00,0.0177
3429.00,0.0178
3428.00,0.0179
3427.00,0.0180
3426.00,0.0181
3425.00,0.0182
3424.00,0.0183
3423.00,0.0184
3422.00,0.0185
3421.00,0.0187
3420.00,0.0188
3419.00,0.0188
3418.00,0.0189
3417.00,0.0191
3416.00,0.0192
3415.00,0.0193
3414.00,0.0194
3413.00,0.0195
3412.00,0.0196
3411.00,0.0197
3410.00,0.0198
3409.00,0.0199
3408.00,0.0200
3407.00,0.0201
3406.00,0.0202
3405.00,0.0203
3404.00,0.0204
3403.00,0.0205
3402.00,0.0205
3401.00,0.0207
3400.00,0.0208
3399.00,0.0209
3398.00,0.0210
3397.00,0.0211
3396.00,0.0212
3395.00,0.0213
3394.00,0.0213
3393.00,0.0214
3392.00,0.0215
3391.00,0.0216
3390.00,0.0218
3389.00,0.0219
3388.00,0.0220
3387.00,0.0221
3386.00,0.0222
3385.00,0.0223
3384.00,0.0224
3383.00,0.0225
3382.00,0.0226
3381.00,0.0227
3380.00,0.0228
3379.00,0.0229
3378.00,0.0231
3377.00,0.0232
3376.00,0.0233
3375.00,0.0234
3374.00,0.0236
3373.00,0.0236
3372.00,0.0237
3371.00,0.0238
3370.00,0.0239
3369.00,0.0241
3368.00,0.0242
3367.00,0.0244
3366.00,0.0246
3365.00,0.0247
3364.00,0.0249
3363.00,0.0250
3362.00,0.0251
3361.00,0.0253
3360.00,0.0254
3359.00,0.0256
3358.00,0.0257
3357.00,0.0259
3356.00,0.0261
3355.00,0.0262
3354.00,0.0263
3353.00,0.0265
3352.00,0.0266
3351.00,0.0267
3350.00,0.0269
3349.00,0.0271
3348.00,0.0273
3347.00,0.0275
3346.00,0.0276
3345.00,0.0278
3344.00,0.0279
3343.00,0.0281
3342.00,0.0283
3341.00,0.0284
3340.00,0.0286
3339.00,0.0288
3338.00,0.0290
3337.00,0.0292
3336.00,0.0294
3335.00,0.0296
3334.00,0.0299
3333.00,0.0301
3332.00,0.0303
3331.00,0.0305
3330.00,0.0306
3329.00,0.0308
3328.00,0.0310
3327.00,0.0312
3326.00,0.0313
3325.00,0.0316
3324.00,0.0318
3323.00,0.0320
3322.00,0.0323
3321.00,0.0325
3320.00,0.0327
3319.00,0.0330
3318.00,0.0332
3317.00,0.0334
3316.00,0.0337
3315.00,0.0339
3314.00,0.0341
3313.00,0.0343
3312.00,0.0345
3311.00,0.0347
3310.00,0.0348
3309.00,0.0350
3308.00,0.0352
3307.00,0.0354
3306.00,0.0356
3305.00,0.0359
3304.00,0.0362
3303.00,0.0365
3302.00,0.0368
3301.00,0.0371
3300.00,0.0373
3299.00,0.0374
3298.00,0.0376
3297.00,0.0378
3296.00,0.0379
3295.00,0.0381
3294.00,0.0383
3293.00,0.0385
3292.00,0.0387
3291.00,0.0389
3290.00,0.0391
3289.00,0.0393
3288.00,0.0395
3287.00,0.0397
3286.00,0.0398
3285.00,0.0399
3284.00,0.0400
3283.00,0.0401
3282.00,0.0401
3281.00,0.0402
3280.00,0.0403
3279.00,0.0403
3278.00,0.0403
3277.00,0.0403
3276.00,0.0402
3275.00,0.0402
3274.00,0.0401
3273.00,0.0400
3272.00,0.0399
3271.00,0.0398
3270.00,0.0397
3269.00,0.0397
3268.00,0.0397
3267.00,0.0396
3266.00,0.0395
3265.00,0.0393
3264.00,0.0392
3263.00,0.0390
3262.00,0.0388
3261.00,0.0386
3260.00,0.0384
3259.00,0.0381
3258.00,0.0379
3257.00,0.0377
3256.00,0.0374
3255.00,0.0372
3254.00,0.0371
3253.00,0.0369
3252.00,0.0367
3251.00,0.0365
3250.00,0.0362
3249.00,0.0360
3248.00,0.0357
3247.00,0.0355
3246.00,0.0353
3245.00,0.0352
3244.00,0.0351
3243.00,0.0349
3242.00,0.0347
3241.00,0.0345
3240.00,0.0344
3239.00,0.0342
3238.00,0.0340
3237.00,0.0338
3236.00,0.0335
3235.00,0.0333
3234.00,0.0331
3233.00,0.0330
3232.00,0.0329
3231.00,0.0329
3230.00,0.0328
3229.00,0.0326
3228.00,0.0325
3227.00,0.0324
3226.00,0.0323
3225.00,0.0321
3224.00,0.0320
3223.00,0.0319
3222.00,0.0318
3221.00,0.0316
3220.00,0.0315
3219.00,0.0314
3218.00,0.0313
3217.00,0.0312
3216.00,0.0311
3215.00,0.0309
3214.00,0.0308
3213.00,0.0307
3212.00,0.0306
3211.00,0.0305
3210.00,0.0304
3209.00,0.0303
3208.00,0.0302
3207.00,0.0301
3206.00,0.0300
3205.00,0.0299
3204.00,0.0298
3203.00,0.0297
3202.00,0.0296
3201.00,0.0295
3200.00,0.0294
3199.00,0.0293
3198.00,0.0292
3197.00,0.0291
3196.00,0.0289
3195.00,0.0288
3194.00,0.0287
3193.00,0.0286
3192.00,0.0285
3191.00,0.0284
3190.00,0.0283
3189.00,0.0282
3188.00,0.0281
3187.00,0.0279
3186.00,0.0278
3185.00,0.0277
3184.00,0.0276
3183.00,0.0274
3182.00,0.0273
3181.00,0.0272
3180.00,0.0271
3179.00,0.0270
3178.00,0.0269
3177.00,0.0268
3176.00,0.0266
3175.00,0.0265
3174.00,0.0264
3173.00,0.0263
3172.00,0.0262
3171.00,0.0261
3170.00,0.0260
3169.00,0.0258
3168.00,0.0257
3167.00,0.0256
3166.00,0.0255
3165.00,0.0254
3164.00,0.0253
3163.00,0.0251
3162.00,0.0250
3161.00,0.0249
3160.00,0.0248
3159.00,0.0247
3158.00,0.0246
3157.00,0.0245
3156.00,0.0244
3155.00,0.0242
3154.00,0.0241
3153.00,0.0240
3152.00,0.0239
3151.00,0.0239
3150.00,0.0238
3149.00,0.0237
3148.00,0.0237
3147.00,0.0236
3146.00,0.0235
3145.00,0.0234
3144.00,0.0233
3143.00,0.0232
3142.00,0.0231
3141.00,0.0230
3140.00,0.0229
3139.00,0.0229
3138.00,0.0228
3137.00,0.0228
3136.00,0.0227
3135.00,0.0227
3134.00,0.0226
3133.00,0.0226
3132.00,0.0225
3131.00,0.0224
3130.00,0.0224
3129.00,0.0223
3128.00,0.0223
3127.00,0.0223
3126.00,0.0222
3125.00,0.0222
3124.00,0.0221
3123.00,0.0220
3122.00,0.0219
3121.00,0.0219
3120.00,0.0218
3119.00,0.0218
3118.00,0.0217
3117.00,0.0217
3116.00,0.0218
3115.00,0.0218
3114.00,0.0219
3113.00,0.0219
3112.00,0.0219
3111.00,0.0219
3110.00,0.0218
3109.00,0.0218
3108.00,0.0219
3107.00,0.0219
3106.00,0.0220
3105.00,0.0220
3104.00,0.0220
3103.00,0.0220
3102.00,0.0220
3101.00,0.0220
3100.00,0.0221
3099.00,0.0221
3098.00,0.0222
3097.00,0.0223
3096.00,0.0223
3095.00,0.0223
3094.00,0.0223
3093.00,0.0223
3092.00,0.0223
3091.00,0.0223
3090.00,0.0223
3089.00,0.0224
3088.00,0.0224
3087.00,0.0224
3086.00,0.0224
3085.00,0.0224
3084.00,0.0224
3083.00,0.0224
3082.00,0.0224
3081.00,0.0224
3080.00,0.0224
3079.00,0.0224
3078.00,0.0225
3077.00,0.0226
3076.00,0.0226
3075.00,0.0227
3074.00,0.0228
3073.00,0.0228
3072.00,0.0227
3071.00,0.0227
3070.00,0.0226
3069.00,0.0226
3068.00,0.0225
3067.00,0.0225
3066.00,0.0225
3065.00,0.0225
3064.00,0.0225
3063.00,0.0225
3062.00,0.0225
3061.00,0.0224
3060.00,0.0223
3059.00,0.0222
3058.00,0.0221
3057.00,0.0220
3056.00,0.0220
3055.00,0.0219
3054.00,0.0218
3053.00,0.0216
3052.00,0.0215
3051.00,0.0215
3050.00,0.0214
3049.00,0.0213
3048.00,0.0212
3047.00,0.0211
3046.00,0.0210
3045.00,0.0209
3044.00,0.0208
3043.00,0.0207
3042.00,0.0206
3041.00,0.0205
3040.00,0.0205
3039.00,0.0205
3038.00,0.0204
3037.00,0.0203
3036.00,0.0202
3035.00,0.0201
3034.00,0.0200
3033.00,0.0199
3032.00,0.0199
3031.00,0.0199
3030.00,0.0198
3029.00,0.0198
3028.00,0.0197
3027.00,0.0196
3026.00,0.0194
3025.00,0.0193
3024.00,0.0192
3023.00,0.0191
3022.00,0.0190
3021.00,0.0189
3020.00,0.0188
3019.00,0.0187
3018.00,0.0186
3017.00,0.0184
3016.00,0.0183
3015.00,0.0182
3014.00,0.0181
3013.00,0.0180
3012.00,0.0179
3011.00,0.0179
3010.00,0.0179
3009.00,0.0178
3008.00,0.0177
3007.00,0.0176
3006.00,0.0175
3005.00,0.0174
3004.00,0.0174
3003.00,0.0173
3002.00,0.0172
3001.00,0.0171
3000.00,0.0170
2999.00,0.0169
2998.00,0.0169
2997.00,0.0169
2996.00,0.0169
2995.00,0.0170
2994.00,0.0170
2993.00,0.0171
2992.00,0.0172
2991.00,0.0173
2990.00,0.0175
2989.00,0.0177
2988.00,0.0178
2987.00,0.0180
2986.00,0.0181
2985.00,0.0181
2984.00,0.0182
2983.00,0.0182
2982.00,0.0183
2981.00,0.0186
2980.00,0.0190
2979.00,0.0195
2978.00,0.0200
2977.00,0.0205
2976.00,0.0210
2975.00,0.0214
2974.00,0.0218
2973.00,0.0221
2972.00,0.0225
2971.00,0.0228
2970.00,0.0232
2969.00,0.0236
2968.00,0.0240
2967.00,0.0243
2966.00,0.0246
2965.00,0.0248
2964.00,0.0249
2963.00,0.0250
2962.00,0.0251
2961.00,0.0251
2960.00,0.0251
2959.00,0.0251
2958.00,0.0250
2957.00,0.0249
2956.00,0.0247
2955.00,0.0245
2954.00,0.0244
2953.00,0.0242
2952.00,0.0241
2951.00,0.0239
2950.00,0.0238
2949.00,0.0238
2948.00,0.0237
2947.00,0.0237
2946.00,0.0238
2945.00,0.0239
2944.00,0.0241
2943.00,0.0243
2942.00,0.0245
2941.00,0.0248
2940.00,0.0250
2939.00,0.0253
2938.00,0.0256
2937.00,0.0258
2936.00,0.0261
2935.00,0.0263
2934.00,0.0265
2933.00,0.0266
2932.00,0.0267
2931.00,0.0268
2930.00,0.0269
2929.00,0.0270
2928.00,0.0271
2927.00,0.0271
2926.00,0.0271
2925.00,0.0271
2924.00,0.0270
2923.00,0.0269
2922.00,0.0268
2921.00,0.0266
2920.00,0.0263
2919.00,0.0260
2918.00,0.0257
2917.00,0.0254
2916.00,0.0250
2915.00,0.0246
2914.00,0.0243
2913.00,0.0240
2912.00,0.0237
2911.00,0.0234
2910.00,0.0231
2909.00,0.0228
2908.00,0.0226
2907.00,0.0223
2906.00,0.0221
2905.00,0.0219
2904.00,0.0217
2903.00,0.0215
2902.00,0.0213
2901.00,0.0212
2900.00,0.0210
2899.00,0.0209
2898.00,0.0207
2897.00,0.0206
2896.00,0.0204
2895.00,0.0203
2894.00,0.0202
2893.00,0.0201
2892.00,0.0200
2891.00,0.0199
2890.00,0.0198
2889.00,0.0197
2888.00,0.0197
2887.00,0.0197
2886.00,0.0197
2885.00,0.0197
2884.00,0.0198
2883.00,0.0199
2882.00,0.0200
2881.00,0.0201
2880.00,0.0203
2879.00,0.0204
2878.00,0.0205
2877.00,0.0206
2876.00,0.0207
2875.00,0.0207
2874.00,0.0207
2873.00,0.0207
2872.00,0.0206
2871.00,0.0205
2870.00,0.0204
2869.00,0.0203
2868.00,0.0201
2867.00,0.0200
2866.00,0.0198
2865.00,0.0197
2864.00,0.0196
2863.00,0.0195
2862.00,0.0194
2861.00,0.0194
2860.00,0.0193
2859.00,0.0194
2858.00,0.0194
2857.00,0.0194
2856.00,0.0194
2855.00,0.0193
2854.00,0.0193
2853.00,0.0192
2852.00,0.0191
2851.00,0.0189
2850.00,0.0186
2849.00,0.0184
2848.00,0.0181
2847.00,0.0178
2846.00,0.0175
2845.00,0.0172
2844.00,0.0169
2843.00,0.0166
2842.00,0.0164
2841.00,0.0161
2840.00,0.0159
2839.00,0.0158
2838.00,0.0156
2837.00,0.0155
2836.00,0.0154
2835.00,0.0153
2834.00,0.0152
2833.00,0.0151
2832.00,0.0151
2831.00,0.0150
2830.00,0.0149
2829.00,0.0148
2828.00,0.0148
2827.00,0.0147
2826.00,0.0146
2825.00,0.0146
2824.00,0.0145
2823.00,0.0145
2822.00,0.0144
2821.00,0.0144
2820.00,0.0143
2819.00,0.0143
2818.00,0.0142
2817.00,0.0142
2816.00,0.0141
2815.00,0.0141
2814.00,0.0140
2813.00,0.0140
2812.00,0.0139
2811.00,0.0139
2810.00,0.0138
2809.00,0.0138
2808.00,0.0138
2807.00,0.0137
2806.00,0.0137
2805.00,0.0137
2804.00,0.0136
2803.00,0.0136
2802.00,0.0135
2801.00,0.0135
2800.00,0.0134
2799.00,0.0134
2798.00,0.0133
2797.00,0.0133
2796.00,0.0133
2795.00,0.0132
2794.00,0.0132
2793.00,0.0131
2792.00,0.0131
2791.00,0.0130
2790.00,0.0130
2789.00,0.0130
2788.00,0.0129
2787.00,0.0129
2786.00,0.0129
2785.00,0.0128
2784.00,0.0128
2783.00,0.0127
2782.00,0.0127
2781.00,0.0127
2780.00,0.0126
2779.00,0.0126
2778.00,0.0126
2777.00,0.0125
2776.00,0.0125
2775.00,0.0125
2774.00,0.0124
2773.00,0.0124
2772.00,0.0124
2771.00,0.0123
2770.00,0.0123
2769.00,0.0122
2768.00,0.0122
2767.00,0.0122
2766.00,0.0121
2765.00,0.0121
2764.00,0.0121
2763.00,0.0121
2762.00,0.0120
2761.00,0.0120
2760.00,0.0120
2759.00,0.0119
2758.00,0.0119
2757.00,0.0119
2756.00,0.0118
2755.00,0.0118
2754.00,0.0117
2753.00,0.0117
2752.00,0.0117
2751.00,0.0116
2750.00,0.0116
2749.00,0.0115
2748.00,0.0115
2747.00,0.0115
2746.00,0.0115
2745.00,0.0114
2744.00,0.0114
2743.00,0.0114
2742.00,0.0113
2741.00,0.0113
2740.00,0.0113
2739.00,0.0112
2738.00,0.0112
2737.00,0.0112
2736.00,0.0111
2735.00,0.0111
2734.00,0.0111
2733.00,0.0111
2732.00,0.0110
2731.00,0.0110
2730.00,0.0110
2729.00,0.0109
2728.00,0.0109
2727.00,0.0108
2726.00,0.0108
2725.00,0.0108
2724.00,0.0107
2723.00,0.0107
2722.00,0.0107
2721.00,0.0106
2720.00,0.0106
2719.00,0.0106
2718.00,0.0105
2717.00,0.0105
2716.00,0.0105
2715.00,0.0105
2714.00,0.0104
2713.00,0.0104
2712.00,0.0104
2711.00,0.0103
2710.00,0.0103
2709.00,0.0102
2708.00,0.0102
2707.00,0.0102
2706.00,0.0102
2705.00,0.0101
2704.00,0.0101
2703.00,0.0101
2702.00,0.0101
2701.00,0.0100
2700.00,0.0100
2699.00,0.0100
2698.00,0.0100
2697.00,0.0100
2696.00,0.0099
2695.00,0.0099
2694.00,0.0099
2693.00,0.0099
2692.00,0.0099
2691.00,0.0098
2690.00,0.0098
2689.00,0.0098
2688.00,0.0098
2687.00,0.0098
2686.00,0.0097
2685.00,0.0097
2684.00,0.0097
2683.00,0.0097
2682.00,0.0097
2681.00,0.0096
2680.00,0.0096
2679.00,0.0096
2678.00,0.0096
2677.00,0.0095
2676.00,0.0095
2675.00,0.0095
2674.00,0.0095
2673.00,0.0095
2672.00,0.0094
2671.00,0.0094
2670.00,0.0094
2669.00,0.0094
2668.00,0.0094
2667.00,0.0094
2666.00,0.0094
2665.00,0.0094
2664.00,0.0094
2663.00,0.0093
2662.00,0.0093
2661.00,0.0093
2660.00,0.0093
2659.00,0.0093
2658.00,0.0093
2657.00,0.0093
2656.00,0.0092
2655.00,0.0092
2654.00,0.0092
2653.00,0.0092
2652.00,0.0092
2651.00,0.0092
2650.00,0.0092
2649.00,0.0092
2648.00,0.0092
2647.00,0.0091
2646.00,0.0091
2645.00,0.0091
2644.00,0.0091
2643.00,0.0091
2642.00,0.0091
2641.00,0.0091
2640.00,0.0091
2639.00,0.0091
2638.00,0.0091
2637.00,0.0091
2636.00,0.0091
2635.00,0.0090
2634.00,0.0090
2633.00,0.0090
2632.00,0.0090
2631.00,0.0090
2630.00,0.0090
2629.00,0.0090
2628.00,0.0090
2627.00,0.0090
2626.00,0.0090
2625.00,0.0090
2624.00,0.0090
2623.00,0.0090
2622.00,0.0090
2621.00,0.0089
2620.00,0.0089
2619.00,0.0089
2618.00,0.0089
2617.00,0.0089
2616.00,0.0089
2615.00,0.0089
2614.00,0.0089
2613.00,0.0089
2612.00,0.0089
2611.00,0.0088
2610.00,0.0088
2609.00,0.0088
2608.00,0.0088
2607.00,0.0088
2606.00,0.0088
2605.00,0.0088
2604.00,0.0087
2603.00,0.0087
2602.00,0.0087
2601.00,0.0087
2600.00,0.0087
2599.00,0.0087
2598.00,0.0087
2597.00,0.0087
2596.00,0.0087
2595.00,0.0086
2594.00,0.0086
2593.00,0.0086
2592.00,0.0086
2591.00,0.0086
2590.00,0.0085
2589.00,0.0085
2588.00,0.0085
2587.00,0.0085
2586.00,0.0085
2585.00,0.0085
2584.00,0.0085
2583.00,0.0085
2582.00,0.0084
2581.00,0.0084
2580.00,0.0084
2579.00,0.0084
2578.00,0.0084
2577.00,0.0083
2576.00,0.0083
2575.00,0.0083
2574.00,0.0083
2573.00,0.0083
2572.00,0.0083
2571.00,0.0083
2570.00,0.0083
2569.00,0.0083
2568.00,0.0083
2567.00,0.0083
2566.00,0.0083
2565.00,0.0082
2564.00,0.0082
2563.00,0.0082
2562.00,0.0082
2561.00,0.0081
2560.00,0.0081
2559.00,0.0081
2558.00,0.0081
2557.00,0.0081
2556.00,0.0081
2555.00,0.0081
2554.00,0.0080
2553.00,0.0080
2552.00,0.0080
2551.00,0.0080
2550.00,0.0080
2549.00,0.0080
2548.00,0.0080
2547.00,0.0080
2546.00,0.0079
2545.00,0.0079
2544.00,0.0079
2543.00,0.0079
2542.00,0.0079
2541.00,0.0079
2540.00,0.0079
2539.00,0.0078
2538.00,0.0078
2537.00,0.0078
2536.00,0.0078
2535.00,0.0078
2534.00,0.0078
2533.00,0.0078
2532.00,0.0078
2531.00,0.0078
2530.00,0.0078
2529.00,0.0078
2528.00,0.0078
2527.00,0.0077
2526.00,0.0077
2525.00,0.0077
2524.00,0.0077
2523.00,0.0077
2522.00,0.0077
2521.00,0.0077
2520.00,0.0076
2519.00,0.0076
2518.00,0.0076
2517.00,0.0076
2516.00,0.0076
2515.00,0.0076
2514.00,0.0075
2513.00,0.0075
2512.00,0.0075
2511.00,0.0075
2510.00,0.0075
2509.00,0.0075
2508.00,0.0075
2507.00,0.0075
2506.00,0.0074
2505.00,0.0074
2504.00,0.0074
2503.00,0.0074
2502.00,0.0074
2501.00,0.0074
2500.00,0.0074
2499.00,0.0074
2498.00,0.0074
2497.00,0.0074
2496.00,0.0073
2495.00,0.0073
2494.00,0.0073
2493.00,0.0073
2492.00,0.0073
2491.00,0.0073
2490.00,0.0073
2489.00,0.0072
2488.00,0.0072
2487.00,0.0072
2486.00,0.0072
2485.00,0.0072
2484.00,0.0072
2483.00,0.0071
2482.00,0.0071
2481.00,0.0071
2480.00,0.0071
2479.00,0.0071
2478.00,0.0071
2477.00,0.0071
2476.00,0.0070
2475.00,0.0070
2474.00,0.0070
2473.00,0.0070
2472.00,0.0070
2471.00,0.0070
2470.00,0.0070
2469.00,0.0070
2468.00,0.0069
2467.00,0.0069
2466.00,0.0069
2465.00,0.0069
2464.00,0.0069
2463.00,0.0069
2462.00,0.0069
2461.00,0.0069
2460.00,0.0068
2459.00,0.0068
2458.00,0.0068
2457.00,0.0068
2456.00,0.0068
2455.00,0.0068
2454.00,0.0068
2453.00,0.0067
2452.00,0.0067
2451.00,0.0067
2450.00,0.0067
2449.00,0.0067
2448.00,0.0067
2447.00,0.0066
2446.00,0.0066
2445.00,0.0066
2444.00,0.0066
2443.00,0.0066
2442.00,0.0066
2441.00,0.0066
2440.00,0.0066
2439.00,0.0066
2438.00,0.0066
2437.00,0.0065
2436.00,0.0065
2435.00,0.0065
2434.00,0.0065
2433.00,0.0065
2432.00,0.0064
2431.00,0.0064
2430.00,0.0064
2429.00,0.0064
2428.00,0.0064
2427.00,0.0064
2426.00,0.0064
2425.00,0.0063
2424.00,0.0063
2423.00,0.0063
2422.00,0.0063
2421.00,0.0063
2420.00,0.0063
2419.00,0.0063
2418.00,0.0063
2417.00,0.0063
2416.00,0.0063
2415.00,0.0063
2414.00,0.0062
2413.00,0.0062
2412.00,0.0062
2411.00,0.0062
2410.00,0.0062
2409.00,0.0061
2408.00,0.0061
2407.00,0.0061
2406.00,0.0061
2405.00,0.0061
2404.00,0.0061
2403.00,0.0061
2402.00,0.0061
2401.00,0.0061
2400.00,0.0060
2399.00,0.0060
2398.00,0.0060
2397.00,0.0060
2396.00,0.0060
2395.00,0.0060
2394.00,0.0060
2393.00,0.0060
2392.00,0.0060
2391.00,0.0059
2390.00,0.0059
2389.00,0.0059
2388.00,0.0059
2387.00,0.0059
2386.00,0.0059
2385.00,0.0058
2384.00,0.0058
2383.00,0.0058
2382.00,0.0058
2381.00,0.0058
2380.00,0.0058
2379.00,0.0058
2378.00,0.0058
2377.00,0.0058
2376.00,0.0058
2375.00,0.0058
2374.00,0.0057
2373.00,0.0057
2372.00,0.0057
2371.00,0.0057
2370.00,0.0056
2369.00,0.0056
2368.00,0.0056
2367.00,0.0056
2366.00,0.0056
2365.00,0.0056
2364.00,0.0056
2363.00,0.0056
2362.00,0.0056
2361.00,0.0056
2360.00,0.0056
2359.00,0.0056
2358.00,0.0056
2357.00,0.0056
2356.00,0.0056
2355.00,0.0056
2354.00,0.0056
2353.00,0.0056
2352.00,0.0056
2351.00,0.0057
2350.00,0.0057
2349.00,0.0056
2348.00,0.0055
2347.00,0.0053
2346.00,0.0052
2345.00,0.0052
2344.00,0.0053
2343.00,0.0054
2342.00,0.0054
2341.00,0.0054
2340.00,0.0054
2339.00,0.0054
2338.00,0.0054
2337.00,0.0055
2336.00,0.0055
2335.00,0.0055
2334.00,0.0055
2333.00,0.0055
2332.00,0.0054
2331.00,0.0054
2330.00,0.0055
2329.00,0.0055
2328.00,0.0056
2327.00,0.0056
2326.00,0.0056
2325.00,0.0055
2324.00,0.0055
2323.00,0.0054
2322.00,0.0054
2321.00,0.0054
2320.00,0.0054
2319.00,0.0055
2318.00,0.0055
2317.00,0.0055
2316.00,0.0055
2315.00,0.0054
2314.00,0.0054
2313.00,0.0054
2312.00,0.0054
2311.00,0.0054
2310.00,0.0054
2309.00,0.0054
2308.00,0.0054
2307.00,0.0054
2306.00,0.0053
2305.00,0.0053
2304.00,0.0053
2303.00,0.0053
2302.00,0.0053
2301.00,0.0053
2300.00,0.0054
2299.00,0.0054
2298.00,0.0053
2297.00,0.0053
2296.00,0.0053
2295.00,0.0053
2294.00,0.0053
2293.00,0.0053
2292.00,0.0053
2291.00,0.0053
2290.00,0.0053
2289.00,0.0053
2288.00,0.0053
2287.00,0.0053
2286.00,0.0053
2285.00,0.0053
2284.00,0.0053
2283.00,0.0053
2282.00,0.0053
2281.00,0.0052
2280.00,0.0052
2279.00,0.0052
2278.00,0.0052
2277.00,0.0052
2276.00,0.0052
2275.00,0.0052
2274.00,0.0052
2273.00,0.0052
2272.00,0.0052
2271.00,0.0052
2270.00,0.0052
2269.00,0.0052
2268.00,0.0052
2267.00,0.0052
2266.00,0.0052
2265.00,0.0052
2264.00,0.0052
2263.00,0.0052
2262.00,0.0052
2261.00,0.0052
2260.00,0.0052
2259.00,0.0052
2258.00,0.0051
2257.00,0.0051
2256.00,0.0050
2255.00,0.0050
2254.00,0.0050
2253.00,0.0050
2252.00,0.0051
2251.00,0.0050
2250.00,0.0050
2249.00,0.0050
2248.00,0.0050
2247.00,0.0050
2246.00,0.0050
2245.00,0.0050
2244.00,0.0050
2243.00,0.0050
2242.00,0.0050
2241.00,0.0050
2240.00,0.0050
2239.00,0.0050
2238.00,0.0050
2237.00,0.0050
2236.00,0.0050
2235.00,0.0050
2234.00,0.0050
2233.00,0.0050
2232.00,0.0050
2231.00,0.0050
2230.00,0.0050
2229.00,0.0050
2228.00,0.0050
2227.00,0.0050
2226.00,0.0049
2225.00,0.0049
2224.00,0.0049
2223.00,0.0049
2222.00,0.0049
2221.00,0.0049
2220.00,0.0049
2219.00,0.0049
2218.00,0.0049
2217.00,0.0049
2216.00,0.0049
2215.00,0.0049
2214.00,0.0049
2213.00,0.0049
2212.00,0.0049
2211.00,0.0049
2210.00,0.0049
2209.00,0.0049
2208.00,0.0049
2207.00,0.0049
2206.00,0.0048
2205.00,0.0048
2204.00,0.0048
2203.00,0.0048
2202.00,0.0048
2201.00,0.0048
2200.00,0.0048
2199.00,0.0048
2198.00,0.0048
2197.00,0.0048
2196.00,0.0048
2195.00,0.0048
2194.00,0.0048
2193.00,0.0047
2192.00,0.0047
2191.00,0.0047
2190.00,0.0046
2189.00,0.0046
2188.00,0.0046
2187.00,0.0046
2186.00,0.0046
2185.00,0.0046
2184.00,0.0047
2183.00,0.0046
2182.00,0.0046
2181.00,0.0046
2180.00,0.0046
2179.00,0.0045
2178.00,0.0045
2177.00,0.0046
2176.00,0.0046
2175.00,0.0047
2174.00,0.0047
2173.00,0.0047
2172.00,0.0048
2171.00,0.0047
2170.00,0.0046
2169.00,0.0046
2168.00,0.0045
2167.00,0.0046
2166.00,0.0046
2165.00,0.0047
2164.00,0.0047
2163.00,0.0046
2162.00,0.0044
2161.00,0.0042
2160.00,0.0041
2159.00,0.0041
2158.00,0.0041
2157.00,0.0042
2156.00,0.0043
2155.00,0.0044
2154.00,0.0044
2153.00,0.0044
2152.00,0.0045
2151.00,0.0045
2150.00,0.0045
2149.00,0.0045
2148.00,0.0044
2147.00,0.0044
2146.00,0.0044
2145.00,0.0044
2144.00,0.0044
2143.00,0.0044
2142.00,0.0044
2141.00,0.0044
2140.00,0.0045
2139.00,0.0045
2138.00,0.0045
2137.00,0.0044
2136.00,0.0044
2135.00,0.0044
2134.00,0.0045
2133.00,0.0045
2132.00,0.0045
2131.00,0.0046
2130.00,0.0046
2129.00,0.0047
2128.00,0.0047
2127.00,0.0047
2126.00,0.0047
2125.00,0.0047
2124.00,0.0047
2123.00,0.0047
2122.00,0.0048
2121.00,0.0048
2120.00,0.0048
2119.00,0.0048
2118.00,0.0048
2117.00,0.0048
2116.00,0.0048
2115.00,0.0048
2114.00,0.0048
2113.00,0.0048
2112.00,0.0048
2111.00,0.0048
2110.00,0.0048
2109.00,0.0048
2108.00,0.0048
2107.00,0.0048
2106.00,0.0048
2105.00,0.0048
2104.00,0.0048
2103.00,0.0048
2102.00,0.0047
2101.00,0.0047
2100.00,0.0047
2099.00,0.0047
2098.00,0.0046
2097.00,0.0046
2096.00,0.0046
2095.00,0.0046
2094.00,0.0046
2093.00,0.0046
2092.00,0.0046
2091.00,0.0046
2090.00,0.0046
2089.00,0.0046
2088.00,0.0046
2087.00,0.0046
2086.00,0.0046
2085.00,0.0046
2084.00,0.0046
2083.00,0.0046
2082.00,0.0046
2081.00,0.0045
2080.00,0.0045
2079.00,0.0045
2078.00,0.0045
2077.00,0.0045
2076.00,0.0045
2075.00,0.0045
2074.00,0.0045
2073.00,0.0044
2072.00,0.0044
2071.00,0.0044
2070.00,0.0044
2069.00,0.0043
2068.00,0.0043
2067.00,0.0043
2066.00,0.0043
2065.00,0.0043
2064.00,0.0043
2063.00,0.0043
2062.00,0.0042
2061.00,0.0042
2060.00,0.0042
2059.00,0.0042
2058.00,0.0041
2057.00,0.0041
2056.00,0.0042
2055.00,0.0042
2054.00,0.0042
2053.00,0.0042
2052.00,0.0042
2051.00,0.0041
2050.00,0.0041
2049.00,0.0040
2048.00,0.0040
2047.00,0.0041
2046.00,0.0041
2045.00,0.0041
2044.00,0.0040
2043.00,0.0040
2042.00,0.0039
2041.00,0.0039
2040.00,0.0039
2039.00,0.0039
2038.00,0.0039
2037.00,0.0040
2036.00,0.0040
2035.00,0.0040
2034.00,0.0039
2033.00,0.0039
2032.00,0.0039
2031.00,0.0038
2030.00,0.0038
2029.00,0.0038
2028.00,0.0038
2027.00,0.0039
2026.00,0.0039
2025.00,0.0039
2024.00,0.0039
2023.00,0.0038
2022.00,0.0038
2021.00,0.0038
2020.00,0.0039
2019.00,0.0040
2018.00,0.0040
2017.00,0.0040
2016.00,0.0040
2015.00,0.0039
2014.00,0.0038
2013.00,0.0037
2012.00,0.0036
2011.00,0.0036
2010.00,0.0036
2009.00,0.0036
2008.00,0.0037
2007.00,0.0038
2006.00,0.0038
2005.00,0.0039
2004.00,0.0039
2003.00,0.0040
2002.00,0.0039
2001.00,0.0039
2000.00,0.0039
1999.00,0.0039
1998.00,0.0038
1997.00,0.0038
1996.00,0.0038
1995.00,0.0038
1994.00,0.0038
1993.00,0.0038
1992.00,0.0038
1991.00,0.0038
1990.00,0.0037
1989.00,0.0037
1988.00,0.0037
1987.00,0.0038
1986.00,0.0037
1985.00,0.0038
1984.00,0.0038
1983.00,0.0038
1982.00,0.0038
1981.00,0.0037
1980.00,0.0037
1979.00,0.0036
1978.00,0.0036
1977.00,0.0036
1976.00,0.0036
1975.00,0.0036
1974.00,0.0035
1973.00,0.0035
1972.00,0.0035
1971.00,0.0036
1970.00,0.0036
1969.00,0.0036
1968.00,0.0036
1967.00,0.0036
1966.00,0.0036
1965.00,0.0036
1964.00,0.0037
1963.00,0.0037
1962.00,0.0036
1961.00,0.0036
1960.00,0.0036
1959.00,0.0036
1958.00,0.0036
1957.00,0.0036
1956.00,0.0036
1955.00,0.0036
1954.00,0.0036
1953.00,0.0036
1952.00,0.0037
1951.00,0.0037
1950.00,0.0037
1949.00,0.0037
1948.00,0.0037
1947.00,0.0037
1946.00,0.0036
1945.00,0.0036
1944.00,0.0036
1943.00,0.0036
1942.00,0.0036
1941.00,0.0037
1940.00,0.0037
1939.00,0.0036
1938.00,0.0036
1937.00,0.0036
1936.00,0.0036
1935.00,0.0036
1934.00,0.0036
1933.00,0.0036
1932.00,0.0036
1931.00,0.0036
1930.00,0.0036
1929.00,0.0036
1928.00,0.0036
1927.00,0.0036
1926.00,0.0036
1925.00,0.0035
1924.00,0.0035
1923.00,0.0035
1922.00,0.0035
1921.00,0.0035
1920.00,0.0035
1919.00,0.0035
1918.00,0.0036
1917.00,0.0036
1916.00,0.0037
1915.00,0.0036
1914.00,0.0036
1913.00,0.0035
1912.00,0.0035
1911.00,0.0035
1910.00,0.0035
1909.00,0.0035
1908.00,0.0035
1907.00,0.0035
1906.00,0.0035
1905.00,0.0036
1904.00,0.0036
1903.00,0.0036
1902.00,0.0035
1901.00,0.0035
1900.00,0.0035
1899.00,0.0035
1898.00,0.0034
1897.00,0.0034
1896.00,0.0034
1895.00,0.0034
1894.00,0.0034
1893.00,0.0034
1892.00,0.0034
1891.00,0.0034
1890.00,0.0034
1889.00,0.0034
1888.00,0.0034
1887.00,0.0034
1886.00,0.0034
1885.00,0.0034
1884.00,0.0034
1883.00,0.0034
1882.00,0.0034
1881.00,0.0034
1880.00,0.0034
1879.00,0.0034
1878.00,0.0033
1877.00,0.0033
1876.00,0.0033
1875.00,0.0033
1874.00,0.0033
1873.00,0.0033
1872.00,0.0033
1871.00,0.0032
1870.00,0.0032
1869.00,0.0032
1868.00,0.0033
1867.00,0.0033
1866.00,0.0033
1865.00,0.0032
1864.00,0.0032
1863.00,0.0032
1862.00,0.0032
1861.00,0.0032
1860.00,0.0032
1859.00,0.0032
1858.00,0.0031
1857.00,0.0031
1856.00,0.0031
1855.00,0.0031
1854.00,0.0031
1853.00,0.0031
1852.00,0.0031
1851.00,0.0031
1850.00,0.0031
1849.00,0.0031
1848.00,0.0031
1847.00,0.0031
1846.00,0.0031
1845.00,0.0031
1844.00,0.0031
1843.00,0.0031
1842.00,0.0031
1841.00,0.0031
1840.00,0.0031
1839.00,0.0030
1838.00,0.0030
1837.00,0.0030
1836.00,0.0031
1835.00,0.0031
1834.00,0.0030
1833.00,0.0030
1832.00,0.0030
1831.00,0.0030
1830.00,0.0030
1829.00,0.0030
1828.00,0.0030
1827.00,0.0029
1826.00,0.0029
1825.00,0.0029
1824.00,0.0030
1823.00,0.0030
1822.00,0.0029
1821.00,0.0029
1820.00,0.0029
1819.00,0.0029
1818.00,0.0029
1817.00,0.0029
1816.00,0.0029
1815.00,0.0029
1814.00,0.0029
1813.00,0.0028
1812.00,0.0028
1811.00,0.0029
1810.00,0.0029
1809.00,0.0029
1808.00,0.0029
1807.00,0.0029
1806.00,0.0028
1805.00,0.0028
1804.00,0.0028
1803.00,0.0028
1802.00,0.0028
1801.00,0.0028
1800.00,0.0029
1799.00,0.0028
1798.00,0.0028
1797.00,0.0028
1796.00,0.0029
1795.00,0.0029
1794.00,0.0028
1793.00,0.0028
1792.00,0.0028
1791.00,0.0029
1790.00,0.0028
1789.00,0.0028
1788.00,0.0028
1787.00,0.0027
1786.00,0.0027
1785.00,0.0028
1784.00,0.0028
1783.00,0.0028
1782.00,0.0027
1781.00,0.0027
1780.00,0.0028
1779.00,0.0028
1778.00,0.0028
1777.00,0.0029
1776.00,0.0029
1775.00,0.0030
1774.00,0.0030
1773.00,0.0030
1772.00,0.0030
1771.00,0.0030
1770.00,0.0029
1769.00,0.0029
1768.00,0.0029
1767.00,0.0030
1766.00,0.0030
1765.00,0.0030
1764.00,0.0030
1763.00,0.0030
1762.00,0.0030
1761.00,0.0031
1760.00,0.0032
1759.00,0.0032
1758.00,0.0032
1757.00,0.0033
1756.00,0.0035
1755.00,0.0036
1754.00,0.0036
1753.00,0.0037
1752.00,0.0038
1751.00,0.0039
1750.00,0.0040
1749.00,0.0041
1748.00,0.0043
1747.00,0.0044
1746.00,0.0045
1745.00,0.0046
1744.00,0.0047
1743.00,0.0049
1742.00,0.0049
1741.00,0.0050
1740.00,0.0052
1739.00,0.0054
1738.00,0.0055
1737.00,0.0056
1736.00,0.0057
1735.00,0.0058
1734.00,0.0059
1733.00,0.0060
1732.00,0.0059
1731.00,0.0059
1730.00,0.0059
1729.00,0.0060
1728.00,0.0061
1727.00,0.0062
1726.00,0.0062
1725.00,0.0063
1724.00,0.0065
1723.00,0.0068
1722.00,0.0070
1721.00,0.0072
1720.00,0.0074
1719.00,0.0077
1718.00,0.0080
1717.00,0.0083
1716.00,0.0087
1715.00,0.0089
1714.00,0.0092
1713.00,0.0096
1712.00,0.0101
1711.00,0.0106
1710.00,0.0111
1709.00,0.0118
1708.00,0.0125
1707.00,0.0134
1706.00,0.0146
1705.00,0.0159
1704.00,0.0172
1703.00,0.0184
1702.00,0.0197
1701.00,0.0218
1700.00,0.0245
1699.00,0.0266
1698.00,0.0280
1697.00,0.0294
1696.00,0.0310
1695.00,0.0326
1694.00,0.0337
1693.00,0.0345
1692.00,0.0352
1691.00,0.0361
1690.00,0.0372
1689.00,0.0384
1688.00,0.0395
1687.00,0.0404
1686.00,0.0413
1685.00,0.0427
1684.00,0.0445
1683.00,0.0460
1682.00,0.0470
1681.00,0.0478
1680.00,0.0489
1679.00,0.0499
1678.00,0.0510
1677.00,0.0520
1676.00,0.0534
1675.00,0.0550
1674.00,0.0563
1673.00,0.0574
1672.00,0.0583
1671.00,0.0595
1670.00,0.0610
1669.00,0.0626
1668.00,0.0640
1667.00,0.0652
1666.00,0.0661
1665.00,0.0671
1664.00,0.0683
1663.00,0.0698
1662.00,0.0713
1661.00,0.0726
1660.00,0.0738
1659.00,0.0749
1658.00,0.0760
1657.00,0.0770
1656.00,0.0779
1655.00,0.0789
1654.00,0.0804
1653.00,0.0826
1652.00,0.0841
1651.00,0.0845
1650.00,0.0845
1649.00,0.0847
1648.00,0.0854
1647.00,0.0865
1646.00,0.0876
1645.00,0.0883
1644.00,0.0888
1643.00,0.0892
1642.00,0.0896
1641.00,0.0902
1640.00,0.0909
1639.00,0.0916
1638.00,0.0922
1637.00,0.0931
1636.00,0.0946
1635.00,0.0961
1634.00,0.0973
1633.00,0.0981
1632.00,0.0987
1631.00,0.0995
1630.00,0.1004
1629.00,0.1014
1628.00,0.1024
1627.00,0.1032
1626.00,0.1037
1625.00,0.1038
1624.00,0.1038
1623.00,0.1036
1622.00,0.1029
1621.00,0.1018
1620.00,0.1004
1619.00,0.0988
1618.00,0.0969
1617.00,0.0946
1616.00,0.0921
1615.00,0.0895
1614.00,0.0869
1613.00,0.0843
1612.00,0.0816
1611.00,0.0789
1610.00,0.0763
1609.00,0.0738
1608.00,0.0713
1607.00,0.0690
1606.00,0.0669
1605.00,0.0648
1604.00,0.0630
1603.00,0.0612
1602.00,0.0597
1601.00,0.0583
1600.00,0.0570
1599.00,0.0558
1598.00,0.0547
1597.00,0.0538
1596.00,0.0528
1595.00,0.0520
1594.00,0.0513
1593.00,0.0506
1592.00,0.0499
1591.00,0.0493
1590.00,0.0488
1589.00,0.0483
1588.00,0.0479
1587.00,0.0476
1586.00,0.0474
1585.00,0.0472
1584.00,0.0471
1583.00,0.0471
1582.00,0.0472
1581.00,0.0473
1580.00,0.0475
1579.00,0.0476
1578.00,0.0479
1577.00,0.0484
1576.00,0.0490
1575.00,0.0495
1574.00,0.0499
1573.00,0.0502
1572.00,0.0505
1571.00,0.0510
1570.00,0.0519
1569.00,0.0529
1568.00,0.0537
1567.00,0.0543
1566.00,0.0550
1565.00,0.0559
1564.00,0.0568
1563.00,0.0577
1562.00,0.0583
1561.00,0.0590
1560.00,0.0601
1559.00,0.0621
1558.00,0.0640
1557.00,0.0649
1556.00,0.0655
1555.00,0.0662
1554.00,0.0671
1553.00,0.0681
1552.00,0.0690
1551.00,0.0700
1550.00,0.0711
1549.00,0.0723
1548.00,0.0732
1547.00,0.0741
1546.00,0.0750
1545.00,0.0760
1544.00,0.0771
1543.00,0.0781
1542.00,0.0791
1541.00,0.0802
1540.00,0.0817
1539.00,0.0830
1538.00,0.0837
1537.00,0.0839
1536.00,0.0841
1535.00,0.0844
1534.00,0.0852
1533.00,0.0863
1532.00,0.0870
1531.00,0.0874
1530.00,0.0877
1529.00,0.0881
1528.00,0.0885
1527.00,0.0890
1526.00,0.0896
1525.00,0.0900
1524.00,0.0902
1523.00,0.0905
1522.00,0.0911
1521.00,0.0919
1520.00,0.0925
1519.00,0.0927
1518.00,0.0930
1517.00,0.0934
1516.00,0.0938
1515.00,0.0938
1514.00,0.0934
1513.00,0.0927
1512.00,0.0920
1511.00,0.0911
1510.00,0.0901
1509.00,0.0890
1508.00,0.0878
1507.00,0.0868
1506.00,0.0856
1505.00,0.0841
1504.00,0.0824
1503.00,0.0808
1502.00,0.0793
1501.00,0.0778
1500.00,0.0763
1499.00,0.0749
1498.00,0.0735
1497.00,0.0720
1496.00,0.0703
1495.00,0.0686
1494.00,0.0669
1493.00,0.0652
1492.00,0.0635
1491.00,0.0618
1490.00,0.0601
1489.00,0.0586
1488.00,0.0571
1487.00,0.0556
1486.00,0.0542
1485.00,0.0529
1484.00,0.0517
1483.00,0.0506
1482.00,0.0496
1481.00,0.0487
1480.00,0.0480
1479.00,0.0474
1478.00,0.0469
1477.00,0.0466
1476.00,0.0465
1475.00,0.0465
1474.00,0.0467
1473.00,0.0471
1472.00,0.0477
1471.00,0.0483
1470.00,0.0486
1469.00,0.0488
1468.00,0.0489
1467.00,0.0489
1466.00,0.0490
1465.00,0.0491
1464.00,0.0491
1463.00,0.0492
1462.00,0.0492
1461.00,0.0492
1460.00,0.0493
1459.00,0.0495
1458.00,0.0501
1457.00,0.0509
1456.00,0.0515
1455.00,0.0518
1454.00,0.0517
1453.00,0.0515
1452.00,0.0514
1451.00,0.0514
1450.00,0.0513
1449.00,0.0512
1448.00,0.0511
1447.00,0.0510
1446.00,0.0509
1445.00,0.0506
1444.00,0.0503
1443.00,0.0501
1442.00,0.0499
1441.00,0.0496
1440.00,0.0493
1439.00,0.0489
1438.00,0.0485
1437.00,0.0482
1436.00,0.0478
1435.00,0.0473
1434.00,0.0467
1433.00,0.0460
1432.00,0.0453
1431.00,0.0448
1430.00,0.0443
1429.00,0.0439
1428.00,0.0436
1427.00,0.0433
1426.00,0.0430
1425.00,0.0429
1424.00,0.0430
1423.00,0.0431
1422.00,0.0432
1421.00,0.0432
1420.00,0.0434
1419.00,0.0439
1418.00,0.0443
1417.00,0.0446
1416.00,0.0449
1415.00,0.0451
1414.00,0.0454
1413.00,0.0457
1412.00,0.0461
1411.00,0.0465
1410.00,0.0469
1409.00,0.0473
1408.00,0.0476
1407.00,0.0479
1406.00,0.0483
1405.00,0.0488
1404.00,0.0492
1403.00,0.0495
1402.00,0.0498
1401.00,0.0500
1400.00,0.0502
1399.00,0.0505
1398.00,0.0508
1397.00,0.0510
1396.00,0.0512
1395.00,0.0514
1394.00,0.0517
1393.00,0.0518
1392.00,0.0519
1391.00,0.0519
1390.00,0.0518
1389.00,0.0518
1388.00,0.0518
1387.00,0.0517
1386.00,0.0516
1385.00,0.0513
1384.00,0.0509
1383.00,0.0506
1382.00,0.0502
1381.00,0.0498
1380.00,0.0494
1379.00,0.0490
1378.00,0.0486
1377.00,0.0481
1376.00,0.0476
1375.00,0.0472
1374.00,0.0468
1373.00,0.0465
1372.00,0.0463
1371.00,0.0460
1370.00,0.0457
1369.00,0.0454
1368.00,0.0451
1367.00,0.0447
1366.00,0.0441
1365.00,0.0436
1364.00,0.0430
1363.00,0.0424
1362.00,0.0420
1361.00,0.0415
1360.00,0.0411
1359.00,0.0407
1358.00,0.0404
1357.00,0.0401
1356.00,0.0398
1355.00,0.0396
1354.00,0.0395
1353.00,0.0394
1352.00,0.0393
1351.00,0.0392
1350.00,0.0392
1349.00,0.0391
1348.00,0.0391
1347.00,0.0391
1346.00,0.0391
1345.00,0.0391
1344.00,0.0391
1343.00,0.0391
1342.00,0.0391
1341.00,0.0390
1340.00,0.0390
1339.00,0.0390
1338.00,0.0390
1337.00,0.0389
1336.00,0.0387
1335.00,0.0386
1334.00,0.0385
1333.00,0.0383
1332.00,0.0382
1331.00,0.0381
1330.00,0.0380
1329.00,0.0380
1328.00,0.0379
1327.00,0.0379
1326.00,0.0379
1325.00,0.0379
1324.00,0.0380
1323.00,0.0380
1322.00,0.0381
1321.00,0.0382
1320.00,0.0383
1319.00,0.0384
1318.00,0.0386
1317.00,0.0387
1316.00,0.0389
1315.00,0.0390
1314.00,0.0391
1313.00,0.0392
1312.00,0.0393
1311.00,0.0393
1310.00,0.0393
1309.00,0.0393
1308.00,0.0393
1307.00,0.0393
1306.00,0.0393
1305.00,0.0392
1304.00,0.0392
1303.00,0.0391
1302.00,0.0391
1301.00,0.0390
1300.00,0.0390
1299.00,0.0390
1298.00,0.0389
1297.00,0.0389
1296.00,0.0390
1295.00,0.0390
1294.00,0.0391
1293.00,0.0391
1292.00,0.0392
1291.00,0.0393
1290.00,0.0394
1289.00,0.0395
1288.00,0.0396
1287.00,0.0397
1286.00,0.0398
1285.00,0.0399
1284.00,0.0399
1283.00,0.0400
1282.00,0.0401
1281.00,0.0401
1280.00,0.0401
1279.00,0.0402
1278.00,0.0402
1277.00,0.0402
1276.00,0.0402
1275.00,0.0402
1274.00,0.0403
1273.00,0.0403
1272.00,0.0404
1271.00,0.0405
1270.00,0.0406
1269.00,0.0408
1268.00,0.0409
1267.00,0.0411
1266.00,0.0413
1265.00,0.0416
1264.00,0.0419
1263.00,0.0422
1262.00,0.0425
1261.00,0.0429
1260.00,0.0433
1259.00,0.0437
1258.00,0.0441
1257.00,0.0445
1256.00,0.0449
1255.00,0.0453
1254.00,0.0457
1253.00,0.0462
1252.00,0.0466
1251.00,0.0470
1250.00,0.0475
1249.00,0.0480
1248.00,0.0484
1247.00,0.0489
1246.00,0.0493
1245.00,0.0497
1244.00,0.0500
1243.00,0.0504
1242.00,0.0507
1241.00,0.0510
1240.00,0.0513
1239.00,0.0516
1238.00,0.0519
1237.00,0.0521
1236.00,0.0523
1235.00,0.0525
1234.00,0.0527
1233.00,0.0528
1232.00,0.0529
1231.00,0.0529
1230.00,0.0529
1229.00,0.0529
1228.00,0.0528
1227.00,0.0527
1226.00,0.0526
1225.00,0.0524
1224.00,0.0522
1223.00,0.0519
1222.00,0.0517
1221.00,0.0513
1220.00,0.0510
1219.00,0.0506
1218.00,0.0501
1217.00,0.0497
1216.00,0.0491
1215.00,0.0486
1214.00,0.0480
1213.00,0.0474
1212.00,0.0468
1211.00,0.0462
1210.00,0.0455
1209.00,0.0449
1208.00,0.0442
1207.00,0.0436
1206.00,0.0429
1205.00,0.0423
1204.00,0.0417
1203.00,0.0411
1202.00,0.0405
1201.00,0.0400
1200.00,0.0394
1199.00,0.0389
1198.00,0.0384
1197.00,0.0380
1196.00,0.0375
1195.00,0.0372
1194.00,0.0368
1193.00,0.0365
1192.00,0.0361
1191.00,0.0358
1190.00,0.0356
1189.00,0.0353
1188.00,0.0350
1187.00,0.0347
1186.00,0.0345
1185.00,0.0343
1184.00,0.0341
1183.00,0.0339
1182.00,0.0337
1181.00,0.0336
1180.00,0.0336
1179.00,0.0336
1178.00,0.0337
1177.00,0.0338
1176.00,0.0340
1175.00,0.0342
1174.00,0.0344
1173.00,0.0346
1172.00,0.0349
1171.00,0.0350
1170.00,0.0352
1169.00,0.0354
1168.00,0.0356
1167.00,0.0358
1166.00,0.0360
1165.00,0.0363
1164.00,0.0365
1163.00,0.0367
1162.00,0.0370
1161.00,0.0371
1160.00,0.0372
1159.00,0.0372
1158.00,0.0372
1157.00,0.0372
1156.00,0.0370
1155.00,0.0369
1154.00,0.0367
1153.00,0.0365
1152.00,0.0362
1151.00,0.0360
1150.00,0.0357
1149.00,0.0355
1148.00,0.0352
1147.00,0.0349
1146.00,0.0347
1145.00,0.0344
1144.00,0.0342
1143.00,0.0340
1142.00,0.0339
1141.00,0.0338
1140.00,0.0338
1139.00,0.0338
1138.00,0.0339
1137.00,0.0341
1136.00,0.0343
1135.00,0.0346
1134.00,0.0350
1133.00,0.0354
1132.00,0.0358
1131.00,0.0362
1130.00,0.0365
1129.00,0.0368
1128.00,0.0370
1127.00,0.0371
1126.00,0.0372
1125.00,0.0373
1124.00,0.0372
1123.00,0.0372
1122.00,0.0371
1121.00,0.0371
1120.00,0.0371
1119.00,0.0371
1118.00,0.0372
1117.00,0.0373
1116.00,0.0374
1115.00,0.0375
1114.00,0.0377
1113.00,0.0379
1112.00,0.0381
1111.00,0.0383
1110.00,0.0385
1109.00,0.0387
1108.00,0.0389
1107.00,0.0391
1106.00,0.0394
1105.00,0.0396
1104.00,0.0398
1103.00,0.0400
1102.00,0.0401
1101.00,0.0403
1100.00,0.0404
1099.00,0.0405
1098.00,0.0407
1097.00,0.0408
1096.00,0.0410
1095.00,0.0413
1094.00,0.0416
1093.00,0.0419
1092.00,0.0422
1091.00,0.0425
1090.00,0.0429
1089.00,0.0433
1088.00,0.0437
1087.00,0.0441
1086.00,0.0445
1085.00,0.0449
1084.00,0.0453
1083.00,0.0457
1082.00,0.0461
1081.00,0.0464
1080.00,0.0467
1079.00,0.0469
1078.00,0.0471
1077.00,0.0472
1076.00,0.0473
1075.00,0.0473
1074.00,0.0473
1073.00,0.0473
1072.00,0.0473
1071.00,0.0472
1070.00,0.0472
1069.00,0.0471
1068.00,0.0471
1067.00,0.0471
1066.00,0.0471
1065.00,0.0470
1064.00,0.0469
1063.00,0.0468
1062.00,0.0468
1061.00,0.0467
1060.00,0.0466
1059.00,0.0465
1058.00,0.0464
1057.00,0.0462
1056.00,0.0460
1055.00,0.0459
1054.00,0.0457
1053.00,0.0455
1052.00,0.0453
1051.00,0.0450
1050.00,0.0448
1049.00,0.0446
1048.00,0.0444
1047.00,0.0441
1046.00,0.0439
1045.00,0.0437
1044.00,0.0434
1043.00,0.0432
1042.00,0.0429
1041.00,0.0427
1040.00,0.0424
1039.00,0.0422
1038.00,0.0420
1037.00,0.0418
1036.00,0.0416
1035.00,0.0414
1034.00,0.0413
1033.00,0.0412
1032.00,0.0411
1031.00,0.0409
1030.00,0.0408
1029.00,0.0406
1028.00,0.0404
1027.00,0.0401
1026.00,0.0398
1025.00,0.0394
1024.00,0.0391
1023.00,0.0387
1022.00,0.0383
1021.00,0.0379
1020.00,0.0374
1019.00,0.0370
1018.00,0.0367
1017.00,0.0363
1016.00,0.0359
1015.00,0.0355
1014.00,0.0351
1013.00,0.0347
1012.00,0.0343
1011.00,0.0339
1010.00,0.0335
1009.00,0.0330
1008.00,0.0326
1007.00,0.0322
1006.00,0.0319
1005.00,0.0316
1004.00,0.0312
1003.00,0.0309
1002.00,0.0306
1001.00,0.0304
1000.00,0.0301
999.00,0.0298
998.00,0.0296
997.00,0.0293
996.00,0.0291
995.00,0.0289
994.00,0.0287
993.00,0.0284
992.00,0.0282
991.00,0.0279
990.00,0.0277
989.00,0.0275
988.00,0.0272
987.00,0.0270
986.00,0.0268
985.00,0.0266
984.00,0.0263
983.00,0.0262
982.00,0.0260
981.00,0.0259
980.00,0.0258
979.00,0.0257
978.00,0.0256
977.00,0.0256
976.00,0.0255
975.00,0.0255
974.00,0.0255
973.00,0.0255
972.00,0.0255
971.00,0.0255
970.00,0.0255
969.00,0.0255
968.00,0.0255
967.00,0.0255
966.00,0.0256
965.00,0.0257
964.00,0.0257
963.00,0.0259
962.00,0.0261
961.00,0.0263
960.00,0.0265
959.00,0.0268
958.00,0.0273
957.00,0.0278
956.00,0.0284
955.00,0.0289
954.00,0.0295
953.00,0.0300
952.00,0.0304
951.00,0.0307
950.00,0.0308
949.00,0.0308
948.00,0.0306
947.00,0.0302
946.00,0.0299
945.00,0.0295
944.00,0.0291
943.00,0.0287
942.00,0.0285
941.00,0.0282
940.00,0.0281
939.00,0.0279
938.00,0.0279
937.00,0.0279
936.00,0.0279
935.00,0.0279
934.00,0.0279
933.00,0.0278
932.00,0.0277
931.00,0.0277
930.00,0.0276
929.00,0.0275
928.00,0.0273
927.00,0.0271
926.00,0.0270
925.00,0.0269
924.00,0.0267
923.00,0.0266
922.00,0.0265
921.00,0.0264
920.00,0.0262
919.00,0.0261
918.00,0.0260
917.00,0.0258
916.00,0.0256
915.00,0.0255
914.00,0.0253
913.00,0.0252
912.00,0.0251
911.00,0.0250
910.00,0.0249
909.00,0.0248
908.00,0.0247
907.00,0.0246
906.00,0.0246
905.00,0.0245
904.00,0.0244
903.00,0.0244
902.00,0.0243
901.00,0.0243
900.00,0.0242
899.00,0.0242
898.00,0.0242
897.00,0.0242
896.00,0.0242
895.00,0.0242
894.00,0.0242
893.00,0.0242
892.00,0.0241
891.00,0.0241
890.00,0.0241
889.00,0.0241
888.00,0.0241
887.00,0.0241
886.00,0.0242
885.00,0.0243
884.00,0.0243
883.00,0.0243
882.00,0.0243
881.00,0.0243
880.00,0.0243
879.00,0.0243
878.00,0.0242
877.00,0.0242
876.00,0.0241
875.00,0.0241
874.00,0.0241
873.00,0.0241
872.00,0.0241
871.00,0.0241
870.00,0.0240
869.00,0.0240
868.00,0.0240
867.00,0.0240
866.00,0.0241
865.00,0.0242
864.00,0.0243
863.00,0.0243
862.00,0.0244
861.00,0.0245
860.00,0.0246
859.00,0.0247
858.00,0.0249
857.00,0.0251
856.00,0.0253
855.00,0.0255
854.00,0.0257
853.00,0.0259
852.00,0.0260
851.00,0.0261
850.00,0.0262
849.00,0.0263
848.00,0.0263
847.00,0.0263
846.00,0.0264
845.00,0.0265
844.00,0.0265
843.00,0.0266
842.00,0.0268
841.00,0.0270
840.00,0.0271
839.00,0.0273
838.00,0.0276
837.00,0.0278
836.00,0.0280
835.00,0.0283
834.00,0.0286
833.00,0.0288
832.00,0.0290
831.00,0.0292
830.00,0.0294
829.00,0.0296
828.00,0.0298
827.00,0.0299
826.00,0.0301
825.00,0.0302
824.00,0.0303
823.00,0.0305
822.00,0.0307
821.00,0.0310
820.00,0.0313
819.00,0.0316
818.00,0.0319
817.00,0.0322
816.00,0.0323
815.00,0.0324
814.00,0.0324
813.00,0.0324
812.00,0.0322
811.00,0.0321
810.00,0.0320
809.00,0.0319
808.00,0.0318
807.00,0.0318
806.00,0.0319
805.00,0.0320
804.00,0.0320
803.00,0.0320
802.00,0.0321
801.00,0.0323
800.00,0.0324
799.00,0.0326
798.00,0.0328
797.00,0.0330
796.00,0.0331
795.00,0.0333
794.00,0.0335
793.00,0.0337
792.00,0.0339
791.00,0.0341
790.00,0.0345
789.00,0.0348
788.00,0.0351
787.00,0.0354
786.00,0.0357
785.00,0.0360
784.00,0.0362
783.00,0.0365
782.00,0.0368
781.00,0.0370
780.00,0.0372
779.00,0.0373
778.00,0.0375
777.00,0.0376
776.00,0.0376
775.00,0.0377
774.00,0.0378
773.00,0.0379
772.00,0.0380
771.00,0.0382
770.00,0.0384
769.00,0.0386
768.00,0.0387
767.00,0.0388
766.00,0.0390
765.00,0.0391
764.00,0.0392
763.00,0.0393
762.00,0.0395
761.00,0.0397
760.00,0.0398
759.00,0.0400
758.00,0.0402
757.00,0.0405
756.00,0.0406
755.00,0.0408
754.00,0.0411
753.00,0.0414
752.00,0.0417
751.00,0.0420
750.00,0.0423
749.00,0.0426
748.00,0.0428
747.00,0.0430
746.00,0.0433
745.00,0.0436
744.00,0.0438
743.00,0.0440
742.00,0.0442
741.00,0.0444
740.00,0.0445
739.00,0.0446
738.00,0.0447
737.00,0.0449
736.00,0.0450
735.00,0.0451
734.00,0.0454
733.00,0.0457
732.00,0.0459
731.00,0.0462
730.00,0.0466
729.00,0.0470
728.00,0.0474
727.00,0.0478
726.00,0.0483
725.00,0.0488
724.00,0.0493
723.00,0.0497
722.00,0.0503
721.00,0.0508
720.00,0.0513
719.00,0.0517
718.00,0.0522
717.00,0.0526
716.00,0.0530
715.00,0.0534
714.00,0.0539
713.00,0.0543
712.00,0.0547
711.00,0.0552
710.00,0.0557
709.00,0.0563
708.00,0.0568
707.00,0.0574
706.00,0.0581
705.00,0.0587
704.00,0.0593
703.00,0.0599
702.00,0.0606
701.00,0.0611
700.00,0.0615
699.00,0.0617
698.00,0.0620
697.00,0.0621
696.00,0.0621
695.00,0.0621
694.00,0.0621
693.00,0.0621
692.00,0.0620
691.00,0.0619
690.00,0.0620
689.00,0.0621
688.00,0.0621
687.00,0.0622
686.00,0.0624
685.00,0.0626
684.00,0.0627
683.00,0.0628
682.00,0.0630
681.00,0.0632
680.00,0.0632
679.00,0.0633
678.00,0.0634
677.00,0.0636
676.00,0.0636
675.00,0.0638
674.00,0.0640
673.00,0.0641
672.00,0.0642
671.00,0.0642
670.00,0.0644
669.00,0.0647
668.00,0.0653
667.00,0.0659
666.00,0.0662
665.00,0.0662
664.00,0.0662
663.00,0.0662
662.00,0.0664
661.00,0.0666
660.00,0.0667
659.00,0.0668
658.00,0.0669
657.00,0.0671
656.00,0.0671
655.00,0.0672
654.00,0.0674
653.00,0.0675
652.00,0.0676
651.00,0.0676
650.00,0.0678
649.00,0.0679
648.00,0.0680
647.00,0.0681
646.00,0.0683
645.00,0.0684
644.00,0.0685
643.00,0.0686
642.00,0.0687
641.00,0.0689
640.00,0.0689
639.00,0.0689
638.00,0.0690
637.00,0.0691
636.00,0.0692
635.00,0.0693
634.00,0.0696
633.00,0.0698
632.00,0.0699
631.00,0.0701
630.00,0.0703
629.00,0.0706
628.00,0.0707
627.00,0.0709
626.00,0.0712
625.00,0.0714
624.00,0.0715
623.00,0.0717
622.00,0.0719
621.00,0.0720
620.00,0.0720
619.00,0.0720
618.00,0.0721
617.00,0.0722
616.00,0.0722
615.00,0.0722
614.00,0.0723
613.00,0.0723
612.00,0.0722
611.00,0.0722
610.00,0.0723
609.00,0.0723
608.00,0.0723
607.00,0.0723
606.00,0.0725
605.00,0.0726
604.00,0.0726
603.00,0.0726
602.00,0.0728
601.00,0.0729
600.00,0.0729
599.00,0.0729
598.00,0.0731
597.00,0.0732
596.00,0.0732
595.00,0.0733
594.00,0.0734
593.00,0.0736
592.00,0.0737
591.00,0.0737
590.00,0.0739
589.00,0.0741
588.00,0.0742
587.00,0.0743
586.00,0.0745
585.00,0.0747
584.00,0.0748
583.00,0.0749
582.00,0.0751
581.00,0.0753
580.00,0.0753
579.00,0.0754
578.00,0.0756
577.00,0.0758
576.00,0.0758
575.00,0.0759
574.00,0.0761
573.00,0.0763
572.00,0.0763
571.00,0.0764
570.00,0.0766
569.00,0.0768
568.00,0.0769
567.00,0.0770
566.00,0.0772
565.00,0.0774
564.00,0.0774
563.00,0.0775
562.00,0.0777
561.00,0.0779
560.00,0.0780
559.00,0.0782
558.00,0.0784
557.00,0.0787
556.00,0.0787
555.00,0.0788
554.00,0.0791
553.00,0.0792
552.00,0.0792
551.00,0.0793
550.00,0.0795
549.00,0.0797
548.00,0.0798
547.00,0.0798
546.00,0.0801
545.00,0.0802
544.00,0.0802
543.00,0.0802
542.00,0.0804
541.00,0.0805
540.00,0.0804
539.00,0.0804
538.00,0.0806
537.00,0.0807
536.00,0.0807
535.00,0.0806
534.00,0.0808
533.00,0.0809
532.00,0.0808
531.00,0.0807
530.00,0.0808
529.00,0.0809
528.00,0.0807
527.00,0.0806
526.00,0.0808
525.00,0.0808
524.00,0.0807
523.00,0.0807
522.00,0.0809
521.00,0.0810
520.00,0.0809
519.00,0.0808
518.00,0.0810
517.00,0.0811
516.00,0.0810
515.00,0.0809
514.00,0.0810
513.00,0.0810
512.00,0.0808
511.00,0.0807
510.00,0.0808
509.00,0.0809
508.00,0.0807
507.00,0.0804
506.00,0.0805
505.00,0.0804
504.00,0.0802
503.00,0.0801
502.00,0.0802
501.00,0.0803
500.00,0.0801
499.00,0.0799
498.00,0.0800
497.00,0.0801
496.00,0.0799
495.00,0.0798
494.00,0.0799
493.00,0.0800
492.00,0.0799
491.00,0.0799
490.00,0.0801
489.00,0.0801
488.00,0.0798
487.00,0.0796
486.00,0.0797
485.00,0.0798
484.00,0.0796
483.00,0.0795
482.00,0.0796
481.00,0.0795
480.00,0.0791
479.00,0.0787
478.00,0.0786
477.00,0.0786
476.00,0.0783
475.00,0.0782
474.00,0.0783
473.00,0.0784
472.00,0.0781
471.00,0.0779
470.00,0.0780
469.00,0.0781
468.00,0.0778
467.00,0.0777
466.00,0.0779
465.00,0.0780
464.00,0.0777
463.00,0.0775
462.00,0.0777
461.00,0.0777
460.00,0.0773
459.00,0.0770
458.00,0.0771
457.00,0.0771
456.00,0.0767
455.00,0.0763
454.00,0.0763
453.00,0.0764
452.00,0.0760
451.00,0.0758
450.00,0.0760
449.00,0.0761
448.00,0.0757
447.00,0.0754
446.00,0.0755
445.00,0.0755
444.00,0.0751
443.00,0.0748
442.00,0.0748
441.00,0.0747
440.00,0.0741
439.00,0.0737
438.00,0.0738
437.00,0.0741
436.00,0.0739
435.00,0.0737
434.00,0.0740
433.00,0.0743
432.00,0.0741
431.00,0.0739
430.00,0.0743
429.00,0.0745
428.00,0.0743
427.00,0.0741
426.00,0.0745
425.00,0.0747
424.00,0.0741
423.00,0.0736
422.00,0.0740
421.00,0.0742
420.00,0.0735
419.00,0.0729
418.00,0.0733
417.00,0.0736
416.00,0.0730
415.00,0.0726
414.00,0.0730
413.00,0.0732
412.00,0.0724
411.00,0.0716
410.00,0.0719
409.00,0.0720
408.00,0.0710
407.00,0.0700
406.00,0.0703
405.00,0.0707
404.00,0.0701
403.00,0.0694
402.00,0.0695
401.00,0.0694
400.00,0.0682
