Created as New Dataset,Sample 358 By YargerLab Date Wednesday, September 25 2024
cm-1,A
4000.00,0.0026
3999.00,0.0026
3998.00,0.0026
3997.00,0.0026
3996.00,0.0026
3995.00,0.0026
3994.00,0.0026
3993.00,0.0026
3992.00,0.0026
3991.00,0.0026
3990.00,0.0026
3989.00,0.0026
3988.00,0.0026
3987.00,0.0026
3986.00,0.0026
3985.00,0.0026
3984.00,0.0027
3983.00,0.0027
3982.00,0.0027
3981.00,0.0027
3980.00,0.0026
3979.00,0.0026
3978.00,0.0025
3977.00,0.0025
3976.00,0.0025
3975.00,0.0026
3974.00,0.0026
3973.00,0.0026
3972.00,0.0026
3971.00,0.0025
3970.00,0.0025
3969.00,0.0025
3968.00,0.0026
3967.00,0.0026
3966.00,0.0025
3965.00,0.0025
3964.00,0.0025
3963.00,0.0024
3962.00,0.0025
3961.00,0.0025
3960.00,0.0025
3959.00,0.0025
3958.00,0.0025
3957.00,0.0025
3956.00,0.0026
3955.00,0.0026
3954.00,0.0025
3953.00,0.0025
3952.00,0.0025
3951.00,0.0024
3950.00,0.0022
3949.00,0.0020
3948.00,0.0018
3947.00,0.0017
3946.00,0.0017
3945.00,0.0019
3944.00,0.0021
3943.00,0.0023
3942.00,0.0024
3941.00,0.0023
3940.00,0.0022
3939.00,0.0022
3938.00,0.0022
3937.00,0.0022
3936.00,0.0021
3935.00,0.0018
3934.00,0.0016
3933.00,0.0016
3932.00,0.0017
3931.00,0.0018
3930.00,0.0019
3929.00,0.0020
3928.00,0.0021
3927.00,0.0022
3926.00,0.0024
3925.00,0.0025
3924.00,0.0024
3923.00,0.0022
3922.00,0.0018
3921.00,0.0014
3920.00,0.0012
3919.00,0.0011
3918.00,0.0011
3917.00,0.0012
3916.00,0.0015
3915.00,0.0017
3914.00,0.0020
3913.00,0.0021
3912.00,0.0022
3911.00,0.0024
3910.00,0.0024
3909.00,0.0024
3908.00,0.0024
3907.00,0.0023
3906.00,0.0020
3905.00,0.0015
3904.00,0.0007
3903.00,-0.0001
3902.00,-0.0006
3901.00,-0.0005
3900.00,-0.0001
3899.00,0.0005
3898.00,0.0009
3897.00,0.0011
3896.00,0.0011
3895.00,0.0013
3894.00,0.0015
3893.00,0.0017
3892.00,0.0018
3891.00,0.0017
3890.00,0.0015
3889.00,0.0011
3888.00,0.0006
3887.00,0.0003
3886.00,0.0004
3885.00,0.0007
3884.00,0.0009
3883.00,0.0008
3882.00,0.0007
3881.00,0.0008
3880.00,0.0010
3879.00,0.0010
3878.00,0.0009
3877.00,0.0007
3876.00,0.0007
3875.00,0.0010
3874.00,0.0013
3873.00,0.0013
3872.00,0.0007
3871.00,0.0002
3870.00,-0.0000
3869.00,0.0001
3868.00,0.0002
3867.00,-0.0001
3866.00,-0.0003
3865.00,-0.0000
3864.00,0.0004
3863.00,0.0004
3862.00,0.0002
3861.00,0.0000
3860.00,0.0001
3859.00,0.0005
3858.00,0.0013
3857.00,0.0020
3856.00,0.0024
3855.00,0.0023
3854.00,0.0019
3853.00,0.0013
3852.00,0.0007
3851.00,0.0004
3850.00,0.0001
3849.00,0.0001
3848.00,0.0002
3847.00,0.0003
3846.00,0.0004
3845.00,0.0005
3844.00,0.0005
3843.00,0.0005
3842.00,0.0003
3841.00,0.0002
3840.00,0.0001
3839.00,0.0001
3838.00,0.0002
3837.00,0.0002
3836.00,0.0003
3835.00,0.0003
3834.00,0.0003
3833.00,0.0002
3832.00,0.0002
3831.00,0.0004
3830.00,0.0005
3829.00,0.0006
3828.00,0.0006
3827.00,0.0008
3826.00,0.0009
3825.00,0.0008
3824.00,0.0003
3823.00,-0.0001
3822.00,-0.0002
3821.00,0.0001
3820.00,0.0003
3819.00,0.0002
3818.00,-0.0001
3817.00,-0.0002
3816.00,0.0002
3815.00,0.0008
3814.00,0.0012
3813.00,0.0013
3812.00,0.0013
3811.00,0.0014
3810.00,0.0015
3809.00,0.0014
3808.00,0.0011
3807.00,0.0009
3806.00,0.0008
3805.00,0.0005
3804.00,0.0002
3803.00,-0.0000
3802.00,0.0002
3801.00,0.0006
3800.00,0.0007
3799.00,0.0005
3798.00,0.0003
3797.00,0.0003
3796.00,0.0006
3795.00,0.0010
3794.00,0.0013
3793.00,0.0016
3792.00,0.0018
3791.00,0.0021
3790.00,0.0023
3789.00,0.0023
3788.00,0.0023
3787.00,0.0023
3786.00,0.0023
3785.00,0.0022
3784.00,0.0021
3783.00,0.0019
3782.00,0.0016
3781.00,0.0015
3780.00,0.0016
3779.00,0.0017
3778.00,0.0018
3777.00,0.0018
3776.00,0.0017
3775.00,0.0017
3774.00,0.0018
3773.00,0.0017
3772.00,0.0015
3771.00,0.0012
3770.00,0.0010
3769.00,0.0009
3768.00,0.0007
3767.00,0.0006
3766.00,0.0005
3765.00,0.0007
3764.00,0.0008
3763.00,0.0007
3762.00,0.0005
3761.00,0.0004
3760.00,0.0004
3759.00,0.0005
3758.00,0.0003
3757.00,0.0001
3756.00,-0.0001
3755.00,-0.0003
3754.00,-0.0007
3753.00,-0.0011
3752.00,-0.0014
3751.00,-0.0019
3750.00,-0.0025
3749.00,-0.0026
3748.00,-0.0024
3747.00,-0.0023
3746.00,-0.0024
3745.00,-0.0024
3744.00,-0.0020
3743.00,-0.0016
3742.00,-0.0017
3741.00,-0.0021
3740.00,-0.0025
3739.00,-0.0029
3738.00,-0.0032
3737.00,-0.0033
3736.00,-0.0030
3735.00,-0.0026
3734.00,-0.0024
3733.00,-0.0024
3732.00,-0.0020
3731.00,-0.0014
3730.00,-0.0009
3729.00,-0.0008
3728.00,-0.0008
3727.00,-0.0007
3726.00,-0.0004
3725.00,-0.0002
3724.00,-0.0001
3723.00,-0.0000
3722.00,0.0001
3721.00,0.0003
3720.00,0.0005
3719.00,0.0006
3718.00,0.0007
3717.00,0.0007
3716.00,0.0007
3715.00,0.0005
3714.00,0.0001
3713.00,-0.0000
3712.00,0.0000
3711.00,-0.0000
3710.00,-0.0001
3709.00,-0.0001
3708.00,0.0000
3707.00,0.0003
3706.00,0.0006
3705.00,0.0008
3704.00,0.0011
3703.00,0.0013
3702.00,0.0016
3701.00,0.0017
3700.00,0.0017
3699.00,0.0016
3698.00,0.0015
3697.00,0.0015
3696.00,0.0016
3695.00,0.0016
3694.00,0.0014
3693.00,0.0012
3692.00,0.0013
3691.00,0.0014
3690.00,0.0011
3689.00,0.0006
3688.00,0.0003
3687.00,0.0004
3686.00,0.0006
3685.00,0.0008
3684.00,0.0009
3683.00,0.0010
3682.00,0.0011
3681.00,0.0012
3680.00,0.0013
3679.00,0.0013
3678.00,0.0009
3677.00,0.0004
3676.00,0.0002
3675.00,0.0003
3674.00,0.0004
3673.00,0.0001
3672.00,-0.0002
3671.00,-0.0000
3670.00,0.0007
3669.00,0.0013
3668.00,0.0016
3667.00,0.0018
3666.00,0.0020
3665.00,0.0024
3664.00,0.0027
3663.00,0.0030
3662.00,0.0032
3661.00,0.0033
3660.00,0.0033
3659.00,0.0031
3658.00,0.0028
3657.00,0.0025
3656.00,0.0023
3655.00,0.0021
3654.00,0.0017
3653.00,0.0010
3652.00,0.0004
3651.00,0.0000
3650.00,-0.0002
3649.00,-0.0005
3648.00,-0.0006
3647.00,-0.0003
3646.00,0.0002
3645.00,0.0007
3644.00,0.0012
3643.00,0.0017
3642.00,0.0022
3641.00,0.0025
3640.00,0.0027
3639.00,0.0028
3638.00,0.0028
3637.00,0.0027
3636.00,0.0024
3635.00,0.0021
3634.00,0.0019
3633.00,0.0016
3632.00,0.0012
3631.00,0.0006
3630.00,0.0001
3629.00,-0.0000
3628.00,-0.0000
3627.00,-0.0000
3626.00,-0.0000
3625.00,0.0001
3624.00,0.0003
3623.00,0.0006
3622.00,0.0008
3621.00,0.0010
3620.00,0.0012
3619.00,0.0011
3618.00,0.0008
3617.00,0.0003
3616.00,-0.0000
3615.00,-0.0003
3614.00,-0.0003
3613.00,-0.0003
3612.00,-0.0004
3611.00,-0.0006
3610.00,-0.0007
3609.00,-0.0005
3608.00,0.0001
3607.00,0.0006
3606.00,0.0010
3605.00,0.0012
3604.00,0.0013
3603.00,0.0015
3602.00,0.0017
3601.00,0.0018
3600.00,0.0018
3599.00,0.0017
3598.00,0.0016
3597.00,0.0016
3596.00,0.0016
3595.00,0.0017
3594.00,0.0017
3593.00,0.0016
3592.00,0.0013
3591.00,0.0010
3590.00,0.0007
3589.00,0.0007
3588.00,0.0010
3587.00,0.0012
3586.00,0.0014
3585.00,0.0014
3584.00,0.0016
3583.00,0.0019
3582.00,0.0022
3581.00,0.0026
3580.00,0.0029
3579.00,0.0030
3578.00,0.0031
3577.00,0.0032
3576.00,0.0032
3575.00,0.0032
3574.00,0.0031
3573.00,0.0030
3572.00,0.0028
3571.00,0.0025
3570.00,0.0020
3569.00,0.0017
3568.00,0.0015
3567.00,0.0016
3566.00,0.0018
3565.00,0.0019
3564.00,0.0020
3563.00,0.0022
3562.00,0.0025
3561.00,0.0029
3560.00,0.0032
3559.00,0.0034
3558.00,0.0035
3557.00,0.0036
3556.00,0.0036
3555.00,0.0037
3554.00,0.0037
3553.00,0.0037
3552.00,0.0037
3551.00,0.0035
3550.00,0.0033
3549.00,0.0030
3548.00,0.0029
3547.00,0.0028
3546.00,0.0030
3545.00,0.0031
3544.00,0.0033
3543.00,0.0035
3542.00,0.0037
3541.00,0.0039
3540.00,0.0041
3539.00,0.0043
3538.00,0.0044
3537.00,0.0045
3536.00,0.0045
3535.00,0.0046
3534.00,0.0045
3533.00,0.0045
3532.00,0.0045
3531.00,0.0045
3530.00,0.0045
3529.00,0.0045
3528.00,0.0043
3527.00,0.0041
3526.00,0.0040
3525.00,0.0040
3524.00,0.0041
3523.00,0.0043
3522.00,0.0045
3521.00,0.0047
3520.00,0.0048
3519.00,0.0050
3518.00,0.0051
3517.00,0.0052
3516.00,0.0052
3515.00,0.0053
3514.00,0.0053
3513.00,0.0053
3512.00,0.0053
3511.00,0.0053
3510.00,0.0054
3509.00,0.0054
3508.00,0.0053
3507.00,0.0052
3506.00,0.0052
3505.00,0.0052
3504.00,0.0052
3503.00,0.0053
3502.00,0.0053
3501.00,0.0053
3500.00,0.0054
3499.00,0.0055
3498.00,0.0056
3497.00,0.0058
3496.00,0.0059
3495.00,0.0060
3494.00,0.0061
3493.00,0.0061
3492.00,0.0061
3491.00,0.0062
3490.00,0.0062
3489.00,0.0062
3488.00,0.0063
3487.00,0.0063
3486.00,0.0063
3485.00,0.0064
3484.00,0.0064
3483.00,0.0065
3482.00,0.0065
3481.00,0.0065
3480.00,0.0066
3479.00,0.0066
3478.00,0.0067
3477.00,0.0068
3476.00,0.0070
3475.00,0.0071
3474.00,0.0072
3473.00,0.0072
3472.00,0.0072
3471.00,0.0072
3470.00,0.0072
3469.00,0.0072
3468.00,0.0073
3467.00,0.0073
3466.00,0.0074
3465.00,0.0075
3464.00,0.0076
3463.00,0.0077
3462.00,0.0077
3461.00,0.0078
3460.00,0.0078
3459.00,0.0079
3458.00,0.0079
3457.00,0.0080
3456.00,0.0081
3455.00,0.0082
3454.00,0.0082
3453.00,0.0083
3452.00,0.0083
3451.00,0.0083
3450.00,0.0083
3449.00,0.0083
3448.00,0.0084
3447.00,0.0084
3446.00,0.0084
3445.00,0.0084
3444.00,0.0084
3443.00,0.0085
3442.00,0.0086
3441.00,0.0087
3440.00,0.0087
3439.00,0.0088
3438.00,0.0088
3437.00,0.0089
3436.00,0.0089
3435.00,0.0090
3434.00,0.0090
3433.00,0.0091
3432.00,0.0092
3431.00,0.0092
3430.00,0.0093
3429.00,0.0094
3428.00,0.0094
3427.00,0.0095
3426.00,0.0096
3425.00,0.0096
3424.00,0.0097
3423.00,0.0097
3422.00,0.0097
3421.00,0.0098
3420.00,0.0098
3419.00,0.0099
3418.00,0.0099
3417.00,0.0100
3416.00,0.0100
3415.00,0.0101
3414.00,0.0102
3413.00,0.0102
3412.00,0.0103
3411.00,0.0103
3410.00,0.0104
3409.00,0.0105
3408.00,0.0105
3407.00,0.0106
3406.00,0.0106
3405.00,0.0107
3404.00,0.0107
3403.00,0.0108
3402.00,0.0108
3401.00,0.0108
3400.00,0.0109
3399.00,0.0109
3398.00,0.0109
3397.00,0.0110
3396.00,0.0110
3395.00,0.0110
3394.00,0.0111
3393.00,0.0111
3392.00,0.0112
3391.00,0.0113
3390.00,0.0113
3389.00,0.0114
3388.00,0.0115
3387.00,0.0116
3386.00,0.0117
3385.00,0.0118
3384.00,0.0119
3383.00,0.0119
3382.00,0.0119
3381.00,0.0119
3380.00,0.0120
3379.00,0.0121
3378.00,0.0122
3377.00,0.0122
3376.00,0.0123
3375.00,0.0124
3374.00,0.0125
3373.00,0.0125
3372.00,0.0125
3371.00,0.0126
3370.00,0.0126
3369.00,0.0127
3368.00,0.0128
3367.00,0.0128
3366.00,0.0129
3365.00,0.0130
3364.00,0.0131
3363.00,0.0132
3362.00,0.0133
3361.00,0.0134
3360.00,0.0136
3359.00,0.0137
3358.00,0.0138
3357.00,0.0140
3356.00,0.0141
3355.00,0.0142
3354.00,0.0142
3353.00,0.0143
3352.00,0.0144
3351.00,0.0145
3350.00,0.0146
3349.00,0.0147
3348.00,0.0149
3347.00,0.0150
3346.00,0.0151
3345.00,0.0151
3344.00,0.0152
3343.00,0.0153
3342.00,0.0154
3341.00,0.0155
3340.00,0.0156
3339.00,0.0156
3338.00,0.0158
3337.00,0.0159
3336.00,0.0161
3335.00,0.0162
3334.00,0.0164
3333.00,0.0165
3332.00,0.0167
3331.00,0.0168
3330.00,0.0169
3329.00,0.0169
3328.00,0.0170
3327.00,0.0171
3326.00,0.0171
3325.00,0.0173
3324.00,0.0174
3323.00,0.0176
3322.00,0.0177
3321.00,0.0179
3320.00,0.0181
3319.00,0.0182
3318.00,0.0183
3317.00,0.0184
3316.00,0.0185
3315.00,0.0186
3314.00,0.0187
3313.00,0.0188
3312.00,0.0189
3311.00,0.0189
3310.00,0.0190
3309.00,0.0192
3308.00,0.0193
3307.00,0.0195
3306.00,0.0197
3305.00,0.0198
3304.00,0.0200
3303.00,0.0202
3302.00,0.0204
3301.00,0.0206
3300.00,0.0207
3299.00,0.0208
3298.00,0.0209
3297.00,0.0210
3296.00,0.0211
3295.00,0.0212
3294.00,0.0214
3293.00,0.0215
3292.00,0.0217
3291.00,0.0218
3290.00,0.0220
3289.00,0.0222
3288.00,0.0224
3287.00,0.0226
3286.00,0.0227
3285.00,0.0228
3284.00,0.0229
3283.00,0.0230
3282.00,0.0231
3281.00,0.0231
3280.00,0.0232
3279.00,0.0232
3278.00,0.0231
3277.00,0.0231
3276.00,0.0231
3275.00,0.0230
3274.00,0.0230
3273.00,0.0230
3272.00,0.0230
3271.00,0.0230
3270.00,0.0231
3269.00,0.0231
3268.00,0.0231
3267.00,0.0231
3266.00,0.0231
3265.00,0.0230
3264.00,0.0229
3263.00,0.0228
3262.00,0.0227
3261.00,0.0226
3260.00,0.0225
3259.00,0.0223
3258.00,0.0221
3257.00,0.0219
3256.00,0.0218
3255.00,0.0216
3254.00,0.0216
3253.00,0.0215
3252.00,0.0214
3251.00,0.0212
3250.00,0.0211
3249.00,0.0209
3248.00,0.0207
3247.00,0.0205
3246.00,0.0204
3245.00,0.0204
3244.00,0.0203
3243.00,0.0202
3242.00,0.0202
3241.00,0.0201
3240.00,0.0200
3239.00,0.0199
3238.00,0.0198
3237.00,0.0196
3236.00,0.0195
3235.00,0.0193
3234.00,0.0192
3233.00,0.0191
3232.00,0.0190
3231.00,0.0190
3230.00,0.0190
3229.00,0.0190
3228.00,0.0190
3227.00,0.0189
3226.00,0.0188
3225.00,0.0188
3224.00,0.0187
3223.00,0.0186
3222.00,0.0185
3221.00,0.0184
3220.00,0.0183
3219.00,0.0182
3218.00,0.0182
3217.00,0.0181
3216.00,0.0180
3215.00,0.0180
3214.00,0.0179
3213.00,0.0179
3212.00,0.0179
3211.00,0.0178
3210.00,0.0178
3209.00,0.0177
3208.00,0.0177
3207.00,0.0176
3206.00,0.0176
3205.00,0.0175
3204.00,0.0175
3203.00,0.0174
3202.00,0.0174
3201.00,0.0173
3200.00,0.0172
3199.00,0.0172
3198.00,0.0171
3197.00,0.0170
3196.00,0.0170
3195.00,0.0169
3194.00,0.0169
3193.00,0.0168
3192.00,0.0168
3191.00,0.0167
3190.00,0.0166
3189.00,0.0166
3188.00,0.0165
3187.00,0.0164
3186.00,0.0164
3185.00,0.0163
3184.00,0.0162
3183.00,0.0161
3182.00,0.0160
3181.00,0.0159
3180.00,0.0159
3179.00,0.0158
3178.00,0.0157
3177.00,0.0157
3176.00,0.0156
3175.00,0.0155
3174.00,0.0155
3173.00,0.0154
3172.00,0.0153
3171.00,0.0153
3170.00,0.0152
3169.00,0.0151
3168.00,0.0151
3167.00,0.0150
3166.00,0.0149
3165.00,0.0148
3164.00,0.0147
3163.00,0.0147
3162.00,0.0146
3161.00,0.0145
3160.00,0.0145
3159.00,0.0144
3158.00,0.0143
3157.00,0.0141
3156.00,0.0140
3155.00,0.0139
3154.00,0.0138
3153.00,0.0137
3152.00,0.0137
3151.00,0.0136
3150.00,0.0136
3149.00,0.0136
3148.00,0.0136
3147.00,0.0136
3146.00,0.0135
3145.00,0.0135
3144.00,0.0134
3143.00,0.0133
3142.00,0.0132
3141.00,0.0131
3140.00,0.0130
3139.00,0.0129
3138.00,0.0129
3137.00,0.0129
3136.00,0.0129
3135.00,0.0129
3134.00,0.0129
3133.00,0.0128
3132.00,0.0127
3131.00,0.0126
3130.00,0.0126
3129.00,0.0126
3128.00,0.0126
3127.00,0.0126
3126.00,0.0125
3125.00,0.0124
3124.00,0.0124
3123.00,0.0123
3122.00,0.0122
3121.00,0.0121
3120.00,0.0121
3119.00,0.0121
3118.00,0.0120
3117.00,0.0120
3116.00,0.0120
3115.00,0.0120
3114.00,0.0121
3113.00,0.0121
3112.00,0.0121
3111.00,0.0121
3110.00,0.0121
3109.00,0.0121
3108.00,0.0122
3107.00,0.0122
3106.00,0.0123
3105.00,0.0123
3104.00,0.0123
3103.00,0.0122
3102.00,0.0122
3101.00,0.0121
3100.00,0.0121
3099.00,0.0122
3098.00,0.0122
3097.00,0.0123
3096.00,0.0124
3095.00,0.0124
3094.00,0.0124
3093.00,0.0124
3092.00,0.0123
3091.00,0.0123
3090.00,0.0124
3089.00,0.0124
3088.00,0.0124
3087.00,0.0124
3086.00,0.0124
3085.00,0.0124
3084.00,0.0124
3083.00,0.0124
3082.00,0.0124
3081.00,0.0124
3080.00,0.0124
3079.00,0.0124
3078.00,0.0125
3077.00,0.0125
3076.00,0.0126
3075.00,0.0127
3074.00,0.0127
3073.00,0.0128
3072.00,0.0128
3071.00,0.0128
3070.00,0.0127
3069.00,0.0126
3068.00,0.0126
3067.00,0.0126
3066.00,0.0126
3065.00,0.0126
3064.00,0.0127
3063.00,0.0127
3062.00,0.0128
3061.00,0.0128
3060.00,0.0127
3059.00,0.0127
3058.00,0.0126
3057.00,0.0125
3056.00,0.0125
3055.00,0.0124
3054.00,0.0124
3053.00,0.0123
3052.00,0.0123
3051.00,0.0123
3050.00,0.0122
3049.00,0.0122
3048.00,0.0122
3047.00,0.0121
3046.00,0.0121
3045.00,0.0120
3044.00,0.0119
3043.00,0.0119
3042.00,0.0119
3041.00,0.0119
3040.00,0.0119
3039.00,0.0119
3038.00,0.0118
3037.00,0.0117
3036.00,0.0116
3035.00,0.0115
3034.00,0.0114
3033.00,0.0114
3032.00,0.0114
3031.00,0.0114
3030.00,0.0114
3029.00,0.0115
3028.00,0.0115
3027.00,0.0115
3026.00,0.0114
3025.00,0.0114
3024.00,0.0114
3023.00,0.0114
3022.00,0.0113
3021.00,0.0113
3020.00,0.0113
3019.00,0.0113
3018.00,0.0113
3017.00,0.0113
3016.00,0.0114
3015.00,0.0114
3014.00,0.0116
3013.00,0.0117
3012.00,0.0120
3011.00,0.0122
3010.00,0.0125
3009.00,0.0129
3008.00,0.0133
3007.00,0.0137
3006.00,0.0141
3005.00,0.0145
3004.00,0.0149
3003.00,0.0153
3002.00,0.0157
3001.00,0.0161
3000.00,0.0165
2999.00,0.0168
2998.00,0.0172
2997.00,0.0175
2996.00,0.0177
2995.00,0.0180
2994.00,0.0182
2993.00,0.0185
2992.00,0.0187
2991.00,0.0190
2990.00,0.0193
2989.00,0.0196
2988.00,0.0200
2987.00,0.0204
2986.00,0.0211
2985.00,0.0221
2984.00,0.0234
2983.00,0.0247
2982.00,0.0256
2981.00,0.0260
2980.00,0.0258
2979.00,0.0252
2978.00,0.0246
2977.00,0.0240
2976.00,0.0236
2975.00,0.0235
2974.00,0.0236
2973.00,0.0238
2972.00,0.0240
2971.00,0.0239
2970.00,0.0236
2969.00,0.0231
2968.00,0.0225
2967.00,0.0220
2966.00,0.0216
2965.00,0.0212
2964.00,0.0208
2963.00,0.0204
2962.00,0.0200
2961.00,0.0197
2960.00,0.0194
2959.00,0.0191
2958.00,0.0189
2957.00,0.0186
2956.00,0.0183
2955.00,0.0181
2954.00,0.0178
2953.00,0.0176
2952.00,0.0175
2951.00,0.0173
2950.00,0.0172
2949.00,0.0171
2948.00,0.0169
2947.00,0.0168
2946.00,0.0166
2945.00,0.0164
2944.00,0.0163
2943.00,0.0162
2942.00,0.0162
2941.00,0.0161
2940.00,0.0161
2939.00,0.0161
2938.00,0.0160
2937.00,0.0159
2936.00,0.0158
2935.00,0.0157
2934.00,0.0155
2933.00,0.0153
2932.00,0.0151
2931.00,0.0147
2930.00,0.0144
2929.00,0.0140
2928.00,0.0135
2927.00,0.0129
2926.00,0.0122
2925.00,0.0115
2924.00,0.0106
2923.00,0.0096
2922.00,0.0085
2921.00,0.0073
2920.00,0.0061
2919.00,0.0049
2918.00,0.0040
2917.00,0.0034
2916.00,0.0035
2915.00,0.0042
2914.00,0.0053
2913.00,0.0067
2912.00,0.0082
2911.00,0.0094
2910.00,0.0104
2909.00,0.0112
2908.00,0.0118
2907.00,0.0122
2906.00,0.0125
2905.00,0.0127
2904.00,0.0129
2903.00,0.0130
2902.00,0.0131
2901.00,0.0133
2900.00,0.0133
2899.00,0.0134
2898.00,0.0134
2897.00,0.0135
2896.00,0.0136
2895.00,0.0137
2894.00,0.0139
2893.00,0.0141
2892.00,0.0142
2891.00,0.0144
2890.00,0.0145
2889.00,0.0146
2888.00,0.0147
2887.00,0.0147
2886.00,0.0148
2885.00,0.0149
2884.00,0.0149
2883.00,0.0149
2882.00,0.0148
2881.00,0.0147
2880.00,0.0145
2879.00,0.0143
2878.00,0.0142
2877.00,0.0141
2876.00,0.0139
2875.00,0.0138
2874.00,0.0137
2873.00,0.0137
2872.00,0.0136
2871.00,0.0136
2870.00,0.0135
2869.00,0.0134
2868.00,0.0132
2867.00,0.0131
2866.00,0.0129
2865.00,0.0126
2864.00,0.0124
2863.00,0.0122
2862.00,0.0119
2861.00,0.0115
2860.00,0.0112
2859.00,0.0109
2858.00,0.0106
2857.00,0.0102
2856.00,0.0097
2855.00,0.0090
2854.00,0.0082
2853.00,0.0070
2852.00,0.0057
2851.00,0.0044
2850.00,0.0033
2849.00,0.0028
2848.00,0.0030
2847.00,0.0040
2846.00,0.0052
2845.00,0.0065
2844.00,0.0075
2843.00,0.0082
2842.00,0.0087
2841.00,0.0090
2840.00,0.0092
2839.00,0.0094
2838.00,0.0095
2837.00,0.0095
2836.00,0.0096
2835.00,0.0097
2834.00,0.0097
2833.00,0.0097
2832.00,0.0098
2831.00,0.0098
2830.00,0.0098
2829.00,0.0098
2828.00,0.0098
2827.00,0.0098
2826.00,0.0098
2825.00,0.0098
2824.00,0.0097
2823.00,0.0097
2822.00,0.0097
2821.00,0.0097
2820.00,0.0097
2819.00,0.0097
2818.00,0.0097
2817.00,0.0096
2816.00,0.0096
2815.00,0.0096
2814.00,0.0095
2813.00,0.0095
2812.00,0.0095
2811.00,0.0094
2810.00,0.0094
2809.00,0.0094
2808.00,0.0094
2807.00,0.0094
2806.00,0.0094
2805.00,0.0094
2804.00,0.0093
2803.00,0.0093
2802.00,0.0093
2801.00,0.0093
2800.00,0.0092
2799.00,0.0092
2798.00,0.0092
2797.00,0.0092
2796.00,0.0092
2795.00,0.0092
2794.00,0.0091
2793.00,0.0091
2792.00,0.0091
2791.00,0.0091
2790.00,0.0090
2789.00,0.0090
2788.00,0.0090
2787.00,0.0091
2786.00,0.0091
2785.00,0.0091
2784.00,0.0091
2783.00,0.0091
2782.00,0.0090
2781.00,0.0090
2780.00,0.0090
2779.00,0.0090
2778.00,0.0089
2777.00,0.0089
2776.00,0.0088
2775.00,0.0088
2774.00,0.0088
2773.00,0.0088
2772.00,0.0088
2771.00,0.0088
2770.00,0.0088
2769.00,0.0088
2768.00,0.0088
2767.00,0.0088
2766.00,0.0088
2765.00,0.0087
2764.00,0.0087
2763.00,0.0087
2762.00,0.0087
2761.00,0.0087
2760.00,0.0087
2759.00,0.0086
2758.00,0.0086
2757.00,0.0086
2756.00,0.0086
2755.00,0.0086
2754.00,0.0085
2753.00,0.0085
2752.00,0.0085
2751.00,0.0084
2750.00,0.0084
2749.00,0.0084
2748.00,0.0084
2747.00,0.0084
2746.00,0.0084
2745.00,0.0084
2744.00,0.0084
2743.00,0.0084
2742.00,0.0084
2741.00,0.0084
2740.00,0.0084
2739.00,0.0084
2738.00,0.0083
2737.00,0.0083
2736.00,0.0083
2735.00,0.0083
2734.00,0.0083
2733.00,0.0083
2732.00,0.0083
2731.00,0.0083
2730.00,0.0082
2729.00,0.0082
2728.00,0.0081
2727.00,0.0081
2726.00,0.0081
2725.00,0.0080
2724.00,0.0080
2723.00,0.0080
2722.00,0.0080
2721.00,0.0080
2720.00,0.0081
2719.00,0.0080
2718.00,0.0080
2717.00,0.0080
2716.00,0.0080
2715.00,0.0080
2714.00,0.0080
2713.00,0.0080
2712.00,0.0079
2711.00,0.0079
2710.00,0.0079
2709.00,0.0079
2708.00,0.0079
2707.00,0.0079
2706.00,0.0079
2705.00,0.0078
2704.00,0.0078
2703.00,0.0078
2702.00,0.0078
2701.00,0.0078
2700.00,0.0078
2699.00,0.0078
2698.00,0.0078
2697.00,0.0078
2696.00,0.0078
2695.00,0.0077
2694.00,0.0077
2693.00,0.0077
2692.00,0.0077
2691.00,0.0077
2690.00,0.0077
2689.00,0.0077
2688.00,0.0077
2687.00,0.0077
2686.00,0.0077
2685.00,0.0077
2684.00,0.0077
2683.00,0.0076
2682.00,0.0076
2681.00,0.0076
2680.00,0.0076
2679.00,0.0076
2678.00,0.0076
2677.00,0.0076
2676.00,0.0076
2675.00,0.0076
2674.00,0.0076
2673.00,0.0076
2672.00,0.0076
2671.00,0.0076
2670.00,0.0076
2669.00,0.0076
2668.00,0.0076
2667.00,0.0076
2666.00,0.0076
2665.00,0.0076
2664.00,0.0076
2663.00,0.0076
2662.00,0.0076
2661.00,0.0076
2660.00,0.0075
2659.00,0.0075
2658.00,0.0075
2657.00,0.0075
2656.00,0.0075
2655.00,0.0075
2654.00,0.0075
2653.00,0.0075
2652.00,0.0075
2651.00,0.0075
2650.00,0.0075
2649.00,0.0075
2648.00,0.0075
2647.00,0.0075
2646.00,0.0075
2645.00,0.0075
2644.00,0.0075
2643.00,0.0075
2642.00,0.0075
2641.00,0.0075
2640.00,0.0075
2639.00,0.0075
2638.00,0.0075
2637.00,0.0075
2636.00,0.0075
2635.00,0.0074
2634.00,0.0074
2633.00,0.0074
2632.00,0.0075
2631.00,0.0075
2630.00,0.0075
2629.00,0.0075
2628.00,0.0075
2627.00,0.0075
2626.00,0.0075
2625.00,0.0075
2624.00,0.0075
2623.00,0.0075
2622.00,0.0075
2621.00,0.0075
2620.00,0.0075
2619.00,0.0075
2618.00,0.0075
2617.00,0.0075
2616.00,0.0074
2615.00,0.0074
2614.00,0.0074
2613.00,0.0074
2612.00,0.0074
2611.00,0.0074
2610.00,0.0074
2609.00,0.0074
2608.00,0.0074
2607.00,0.0074
2606.00,0.0074
2605.00,0.0074
2604.00,0.0074
2603.00,0.0074
2602.00,0.0074
2601.00,0.0074
2600.00,0.0074
2599.00,0.0074
2598.00,0.0074
2597.00,0.0074
2596.00,0.0074
2595.00,0.0074
2594.00,0.0073
2593.00,0.0073
2592.00,0.0073
2591.00,0.0073
2590.00,0.0073
2589.00,0.0073
2588.00,0.0073
2587.00,0.0073
2586.00,0.0072
2585.00,0.0072
2584.00,0.0073
2583.00,0.0073
2582.00,0.0073
2581.00,0.0073
2580.00,0.0073
2579.00,0.0072
2578.00,0.0072
2577.00,0.0072
2576.00,0.0072
2575.00,0.0072
2574.00,0.0072
2573.00,0.0072
2572.00,0.0072
2571.00,0.0072
2570.00,0.0072
2569.00,0.0072
2568.00,0.0072
2567.00,0.0072
2566.00,0.0072
2565.00,0.0072
2564.00,0.0072
2563.00,0.0072
2562.00,0.0072
2561.00,0.0072
2560.00,0.0072
2559.00,0.0072
2558.00,0.0072
2557.00,0.0072
2556.00,0.0072
2555.00,0.0072
2554.00,0.0072
2553.00,0.0072
2552.00,0.0072
2551.00,0.0072
2550.00,0.0071
2549.00,0.0071
2548.00,0.0071
2547.00,0.0071
2546.00,0.0071
2545.00,0.0071
2544.00,0.0071
2543.00,0.0071
2542.00,0.0071
2541.00,0.0071
2540.00,0.0071
2539.00,0.0071
2538.00,0.0071
2537.00,0.0071
2536.00,0.0071
2535.00,0.0071
2534.00,0.0071
2533.00,0.0071
2532.00,0.0071
2531.00,0.0071
2530.00,0.0071
2529.00,0.0071
2528.00,0.0071
2527.00,0.0071
2526.00,0.0071
2525.00,0.0071
2524.00,0.0071
2523.00,0.0071
2522.00,0.0070
2521.00,0.0070
2520.00,0.0070
2519.00,0.0070
2518.00,0.0070
2517.00,0.0070
2516.00,0.0070
2515.00,0.0070
2514.00,0.0070
2513.00,0.0071
2512.00,0.0071
2511.00,0.0070
2510.00,0.0070
2509.00,0.0070
2508.00,0.0070
2507.00,0.0070
2506.00,0.0070
2505.00,0.0070
2504.00,0.0070
2503.00,0.0070
2502.00,0.0070
2501.00,0.0070
2500.00,0.0070
2499.00,0.0070
2498.00,0.0070
2497.00,0.0070
2496.00,0.0069
2495.00,0.0069
2494.00,0.0069
2493.00,0.0069
2492.00,0.0069
2491.00,0.0069
2490.00,0.0069
2489.00,0.0069
2488.00,0.0069
2487.00,0.0069
2486.00,0.0069
2485.00,0.0069
2484.00,0.0069
2483.00,0.0069
2482.00,0.0069
2481.00,0.0069
2480.00,0.0069
2479.00,0.0069
2478.00,0.0069
2477.00,0.0068
2476.00,0.0069
2475.00,0.0069
2474.00,0.0069
2473.00,0.0069
2472.00,0.0069
2471.00,0.0068
2470.00,0.0068
2469.00,0.0068
2468.00,0.0068
2467.00,0.0068
2466.00,0.0068
2465.00,0.0068
2464.00,0.0068
2463.00,0.0068
2462.00,0.0067
2461.00,0.0067
2460.00,0.0067
2459.00,0.0067
2458.00,0.0067
2457.00,0.0067
2456.00,0.0067
2455.00,0.0067
2454.00,0.0067
2453.00,0.0067
2452.00,0.0067
2451.00,0.0067
2450.00,0.0067
2449.00,0.0067
2448.00,0.0067
2447.00,0.0067
2446.00,0.0067
2445.00,0.0067
2444.00,0.0067
2443.00,0.0066
2442.00,0.0066
2441.00,0.0066
2440.00,0.0066
2439.00,0.0066
2438.00,0.0066
2437.00,0.0066
2436.00,0.0066
2435.00,0.0066
2434.00,0.0066
2433.00,0.0066
2432.00,0.0066
2431.00,0.0066
2430.00,0.0065
2429.00,0.0065
2428.00,0.0065
2427.00,0.0065
2426.00,0.0065
2425.00,0.0065
2424.00,0.0065
2423.00,0.0065
2422.00,0.0065
2421.00,0.0065
2420.00,0.0065
2419.00,0.0065
2418.00,0.0065
2417.00,0.0065
2416.00,0.0065
2415.00,0.0065
2414.00,0.0065
2413.00,0.0064
2412.00,0.0064
2411.00,0.0064
2410.00,0.0064
2409.00,0.0064
2408.00,0.0064
2407.00,0.0064
2406.00,0.0064
2405.00,0.0064
2404.00,0.0064
2403.00,0.0064
2402.00,0.0064
2401.00,0.0064
2400.00,0.0064
2399.00,0.0064
2398.00,0.0064
2397.00,0.0064
2396.00,0.0064
2395.00,0.0063
2394.00,0.0063
2393.00,0.0063
2392.00,0.0063
2391.00,0.0063
2390.00,0.0063
2389.00,0.0063
2388.00,0.0063
2387.00,0.0062
2386.00,0.0062
2385.00,0.0062
2384.00,0.0062
2383.00,0.0062
2382.00,0.0062
2381.00,0.0062
2380.00,0.0062
2379.00,0.0062
2378.00,0.0062
2377.00,0.0062
2376.00,0.0062
2375.00,0.0062
2374.00,0.0062
2373.00,0.0062
2372.00,0.0062
2371.00,0.0062
2370.00,0.0062
2369.00,0.0062
2368.00,0.0062
2367.00,0.0062
2366.00,0.0061
2365.00,0.0061
2364.00,0.0061
2363.00,0.0061
2362.00,0.0061
2361.00,0.0061
2360.00,0.0061
2359.00,0.0061
2358.00,0.0061
2357.00,0.0061
2356.00,0.0061
2355.00,0.0061
2354.00,0.0061
2353.00,0.0061
2352.00,0.0061
2351.00,0.0061
2350.00,0.0061
2349.00,0.0060
2348.00,0.0060
2347.00,0.0060
2346.00,0.0060
2345.00,0.0060
2344.00,0.0060
2343.00,0.0060
2342.00,0.0060
2341.00,0.0060
2340.00,0.0060
2339.00,0.0060
2338.00,0.0060
2337.00,0.0060
2336.00,0.0060
2335.00,0.0060
2334.00,0.0060
2333.00,0.0060
2332.00,0.0060
2331.00,0.0059
2330.00,0.0059
2329.00,0.0060
2328.00,0.0060
2327.00,0.0059
2326.00,0.0059
2325.00,0.0058
2324.00,0.0057
2323.00,0.0057
2322.00,0.0057
2321.00,0.0058
2320.00,0.0058
2319.00,0.0059
2318.00,0.0059
2317.00,0.0059
2316.00,0.0059
2315.00,0.0059
2314.00,0.0059
2313.00,0.0059
2312.00,0.0059
2311.00,0.0059
2310.00,0.0059
2309.00,0.0059
2308.00,0.0059
2307.00,0.0059
2306.00,0.0059
2305.00,0.0059
2304.00,0.0059
2303.00,0.0059
2302.00,0.0059
2301.00,0.0059
2300.00,0.0059
2299.00,0.0059
2298.00,0.0059
2297.00,0.0058
2296.00,0.0058
2295.00,0.0058
2294.00,0.0058
2293.00,0.0058
2292.00,0.0058
2291.00,0.0058
2290.00,0.0058
2289.00,0.0058
2288.00,0.0058
2287.00,0.0058
2286.00,0.0058
2285.00,0.0058
2284.00,0.0058
2283.00,0.0058
2282.00,0.0058
2281.00,0.0058
2280.00,0.0058
2279.00,0.0058
2278.00,0.0058
2277.00,0.0058
2276.00,0.0058
2275.00,0.0058
2274.00,0.0058
2273.00,0.0058
2272.00,0.0058
2271.00,0.0058
2270.00,0.0058
2269.00,0.0058
2268.00,0.0058
2267.00,0.0058
2266.00,0.0058
2265.00,0.0058
2264.00,0.0059
2263.00,0.0059
2262.00,0.0058
2261.00,0.0058
2260.00,0.0057
2259.00,0.0057
2258.00,0.0057
2257.00,0.0057
2256.00,0.0058
2255.00,0.0058
2254.00,0.0059
2253.00,0.0058
2252.00,0.0058
2251.00,0.0058
2250.00,0.0058
2249.00,0.0058
2248.00,0.0059
2247.00,0.0059
2246.00,0.0058
2245.00,0.0058
2244.00,0.0058
2243.00,0.0058
2242.00,0.0058
2241.00,0.0058
2240.00,0.0059
2239.00,0.0058
2238.00,0.0058
2237.00,0.0057
2236.00,0.0057
2235.00,0.0057
2234.00,0.0057
2233.00,0.0057
2232.00,0.0057
2231.00,0.0057
2230.00,0.0057
2229.00,0.0057
2228.00,0.0057
2227.00,0.0057
2226.00,0.0057
2225.00,0.0057
2224.00,0.0057
2223.00,0.0057
2222.00,0.0057
2221.00,0.0057
2220.00,0.0057
2219.00,0.0057
2218.00,0.0056
2217.00,0.0056
2216.00,0.0057
2215.00,0.0057
2214.00,0.0058
2213.00,0.0058
2212.00,0.0058
2211.00,0.0057
2210.00,0.0057
2209.00,0.0057
2208.00,0.0057
2207.00,0.0058
2206.00,0.0057
2205.00,0.0056
2204.00,0.0056
2203.00,0.0056
2202.00,0.0056
2201.00,0.0057
2200.00,0.0057
2199.00,0.0057
2198.00,0.0057
2197.00,0.0057
2196.00,0.0058
2195.00,0.0058
2194.00,0.0058
2193.00,0.0058
2192.00,0.0058
2191.00,0.0057
2190.00,0.0056
2189.00,0.0056
2188.00,0.0056
2187.00,0.0056
2186.00,0.0055
2185.00,0.0055
2184.00,0.0056
2183.00,0.0056
2182.00,0.0056
2181.00,0.0056
2180.00,0.0056
2179.00,0.0056
2178.00,0.0056
2177.00,0.0056
2176.00,0.0057
2175.00,0.0057
2174.00,0.0056
2173.00,0.0056
2172.00,0.0057
2171.00,0.0056
2170.00,0.0056
2169.00,0.0056
2168.00,0.0056
2167.00,0.0056
2166.00,0.0056
2165.00,0.0055
2164.00,0.0055
2163.00,0.0053
2162.00,0.0052
2161.00,0.0052
2160.00,0.0053
2159.00,0.0055
2158.00,0.0055
2157.00,0.0055
2156.00,0.0055
2155.00,0.0055
2154.00,0.0055
2153.00,0.0056
2152.00,0.0056
2151.00,0.0055
2150.00,0.0055
2149.00,0.0055
2148.00,0.0056
2147.00,0.0056
2146.00,0.0056
2145.00,0.0056
2144.00,0.0056
2143.00,0.0055
2142.00,0.0055
2141.00,0.0056
2140.00,0.0056
2139.00,0.0057
2138.00,0.0057
2137.00,0.0057
2136.00,0.0058
2135.00,0.0058
2134.00,0.0058
2133.00,0.0057
2132.00,0.0057
2131.00,0.0057
2130.00,0.0056
2129.00,0.0056
2128.00,0.0056
2127.00,0.0056
2126.00,0.0055
2125.00,0.0056
2124.00,0.0056
2123.00,0.0056
2122.00,0.0056
2121.00,0.0056
2120.00,0.0055
2119.00,0.0055
2118.00,0.0055
2117.00,0.0055
2116.00,0.0055
2115.00,0.0055
2114.00,0.0055
2113.00,0.0055
2112.00,0.0056
2111.00,0.0056
2110.00,0.0056
2109.00,0.0056
2108.00,0.0056
2107.00,0.0056
2106.00,0.0055
2105.00,0.0055
2104.00,0.0055
2103.00,0.0055
2102.00,0.0055
2101.00,0.0055
2100.00,0.0055
2099.00,0.0055
2098.00,0.0055
2097.00,0.0055
2096.00,0.0055
2095.00,0.0055
2094.00,0.0055
2093.00,0.0054
2092.00,0.0055
2091.00,0.0055
2090.00,0.0055
2089.00,0.0055
2088.00,0.0056
2087.00,0.0056
2086.00,0.0055
2085.00,0.0054
2084.00,0.0054
2083.00,0.0054
2082.00,0.0054
2081.00,0.0054
2080.00,0.0054
2079.00,0.0054
2078.00,0.0053
2077.00,0.0053
2076.00,0.0053
2075.00,0.0054
2074.00,0.0054
2073.00,0.0054
2072.00,0.0054
2071.00,0.0053
2070.00,0.0053
2069.00,0.0052
2068.00,0.0053
2067.00,0.0053
2066.00,0.0053
2065.00,0.0053
2064.00,0.0052
2063.00,0.0052
2062.00,0.0051
2061.00,0.0051
2060.00,0.0052
2059.00,0.0052
2058.00,0.0051
2057.00,0.0051
2056.00,0.0052
2055.00,0.0052
2054.00,0.0052
2053.00,0.0052
2052.00,0.0052
2051.00,0.0051
2050.00,0.0051
2049.00,0.0050
2048.00,0.0051
2047.00,0.0050
2046.00,0.0050
2045.00,0.0050
2044.00,0.0050
2043.00,0.0051
2042.00,0.0050
2041.00,0.0049
2040.00,0.0049
2039.00,0.0049
2038.00,0.0048
2037.00,0.0048
2036.00,0.0049
2035.00,0.0050
2034.00,0.0050
2033.00,0.0050
2032.00,0.0051
2031.00,0.0051
2030.00,0.0051
2029.00,0.0051
2028.00,0.0052
2027.00,0.0052
2026.00,0.0052
2025.00,0.0051
2024.00,0.0052
2023.00,0.0052
2022.00,0.0052
2021.00,0.0051
2020.00,0.0051
2019.00,0.0051
2018.00,0.0051
2017.00,0.0051
2016.00,0.0052
2015.00,0.0052
2014.00,0.0050
2013.00,0.0050
2012.00,0.0050
2011.00,0.0050
2010.00,0.0050
2009.00,0.0050
2008.00,0.0051
2007.00,0.0052
2006.00,0.0051
2005.00,0.0051
2004.00,0.0051
2003.00,0.0050
2002.00,0.0050
2001.00,0.0050
2000.00,0.0050
1999.00,0.0050
1998.00,0.0049
1997.00,0.0049
1996.00,0.0050
1995.00,0.0050
1994.00,0.0050
1993.00,0.0050
1992.00,0.0049
1991.00,0.0048
1990.00,0.0046
1989.00,0.0046
1988.00,0.0046
1987.00,0.0046
1986.00,0.0047
1985.00,0.0047
1984.00,0.0048
1983.00,0.0048
1982.00,0.0048
1981.00,0.0047
1980.00,0.0047
1979.00,0.0046
1978.00,0.0046
1977.00,0.0047
1976.00,0.0048
1975.00,0.0048
1974.00,0.0048
1973.00,0.0047
1972.00,0.0048
1971.00,0.0048
1970.00,0.0047
1969.00,0.0047
1968.00,0.0048
1967.00,0.0049
1966.00,0.0048
1965.00,0.0048
1964.00,0.0047
1963.00,0.0047
1962.00,0.0048
1961.00,0.0048
1960.00,0.0048
1959.00,0.0049
1958.00,0.0049
1957.00,0.0050
1956.00,0.0050
1955.00,0.0049
1954.00,0.0049
1953.00,0.0048
1952.00,0.0047
1951.00,0.0047
1950.00,0.0047
1949.00,0.0047
1948.00,0.0047
1947.00,0.0046
1946.00,0.0046
1945.00,0.0045
1944.00,0.0046
1943.00,0.0047
1942.00,0.0048
1941.00,0.0048
1940.00,0.0047
1939.00,0.0046
1938.00,0.0045
1937.00,0.0046
1936.00,0.0047
1935.00,0.0047
1934.00,0.0047
1933.00,0.0048
1932.00,0.0048
1931.00,0.0047
1930.00,0.0047
1929.00,0.0047
1928.00,0.0047
1927.00,0.0047
1926.00,0.0046
1925.00,0.0045
1924.00,0.0046
1923.00,0.0047
1922.00,0.0047
1921.00,0.0045
1920.00,0.0042
1919.00,0.0041
1918.00,0.0040
1917.00,0.0042
1916.00,0.0043
1915.00,0.0043
1914.00,0.0043
1913.00,0.0043
1912.00,0.0044
1911.00,0.0045
1910.00,0.0045
1909.00,0.0046
1908.00,0.0046
1907.00,0.0045
1906.00,0.0044
1905.00,0.0044
1904.00,0.0045
1903.00,0.0045
1902.00,0.0045
1901.00,0.0045
1900.00,0.0045
1899.00,0.0045
1898.00,0.0044
1897.00,0.0044
1896.00,0.0045
1895.00,0.0045
1894.00,0.0044
1893.00,0.0043
1892.00,0.0043
1891.00,0.0043
1890.00,0.0044
1889.00,0.0045
1888.00,0.0045
1887.00,0.0044
1886.00,0.0042
1885.00,0.0042
1884.00,0.0043
1883.00,0.0043
1882.00,0.0042
1881.00,0.0042
1880.00,0.0043
1879.00,0.0043
1878.00,0.0042
1877.00,0.0042
1876.00,0.0042
1875.00,0.0041
1874.00,0.0040
1873.00,0.0039
1872.00,0.0038
1871.00,0.0038
1870.00,0.0037
1869.00,0.0038
1868.00,0.0040
1867.00,0.0040
1866.00,0.0038
1865.00,0.0038
1864.00,0.0038
1863.00,0.0038
1862.00,0.0038
1861.00,0.0039
1860.00,0.0040
1859.00,0.0040
1858.00,0.0040
1857.00,0.0039
1856.00,0.0040
1855.00,0.0039
1854.00,0.0039
1853.00,0.0039
1852.00,0.0039
1851.00,0.0038
1850.00,0.0037
1849.00,0.0037
1848.00,0.0038
1847.00,0.0037
1846.00,0.0036
1845.00,0.0035
1844.00,0.0035
1843.00,0.0036
1842.00,0.0034
1841.00,0.0033
1840.00,0.0033
1839.00,0.0034
1838.00,0.0035
1837.00,0.0036
1836.00,0.0036
1835.00,0.0035
1834.00,0.0035
1833.00,0.0034
1832.00,0.0035
1831.00,0.0037
1830.00,0.0039
1829.00,0.0039
1828.00,0.0038
1827.00,0.0035
1826.00,0.0034
1825.00,0.0034
1824.00,0.0036
1823.00,0.0035
1822.00,0.0034
1821.00,0.0033
1820.00,0.0033
1819.00,0.0034
1818.00,0.0034
1817.00,0.0034
1816.00,0.0034
1815.00,0.0035
1814.00,0.0033
1813.00,0.0031
1812.00,0.0032
1811.00,0.0033
1810.00,0.0032
1809.00,0.0032
1808.00,0.0032
1807.00,0.0032
1806.00,0.0031
1805.00,0.0031
1804.00,0.0032
1803.00,0.0032
1802.00,0.0031
1801.00,0.0029
1800.00,0.0028
1799.00,0.0028
1798.00,0.0026
1797.00,0.0025
1796.00,0.0026
1795.00,0.0027
1794.00,0.0025
1793.00,0.0023
1792.00,0.0025
1791.00,0.0027
1790.00,0.0026
1789.00,0.0025
1788.00,0.0025
1787.00,0.0025
1786.00,0.0025
1785.00,0.0026
1784.00,0.0027
1783.00,0.0028
1782.00,0.0027
1781.00,0.0027
1780.00,0.0027
1779.00,0.0026
1778.00,0.0025
1777.00,0.0024
1776.00,0.0025
1775.00,0.0027
1774.00,0.0027
1773.00,0.0027
1772.00,0.0028
1771.00,0.0029
1770.00,0.0027
1769.00,0.0024
1768.00,0.0023
1767.00,0.0024
1766.00,0.0025
1765.00,0.0026
1764.00,0.0027
1763.00,0.0030
1762.00,0.0032
1761.00,0.0032
1760.00,0.0030
1759.00,0.0029
1758.00,0.0028
1757.00,0.0026
1756.00,0.0025
1755.00,0.0024
1754.00,0.0022
1753.00,0.0018
1752.00,0.0013
1751.00,0.0012
1750.00,0.0016
1749.00,0.0018
1748.00,0.0020
1747.00,0.0022
1746.00,0.0025
1745.00,0.0027
1744.00,0.0029
1743.00,0.0033
1742.00,0.0036
1741.00,0.0036
1740.00,0.0036
1739.00,0.0038
1738.00,0.0040
1737.00,0.0039
1736.00,0.0035
1735.00,0.0031
1734.00,0.0032
1733.00,0.0034
1732.00,0.0034
1731.00,0.0034
1730.00,0.0036
1729.00,0.0038
1728.00,0.0039
1727.00,0.0040
1726.00,0.0040
1725.00,0.0040
1724.00,0.0039
1723.00,0.0039
1722.00,0.0040
1721.00,0.0041
1720.00,0.0042
1719.00,0.0041
1718.00,0.0039
1717.00,0.0038
1716.00,0.0039
1715.00,0.0039
1714.00,0.0039
1713.00,0.0040
1712.00,0.0044
1711.00,0.0046
1710.00,0.0048
1709.00,0.0051
1708.00,0.0056
1707.00,0.0062
1706.00,0.0070
1705.00,0.0081
1704.00,0.0093
1703.00,0.0101
1702.00,0.0104
1701.00,0.0109
1700.00,0.0125
1699.00,0.0137
1698.00,0.0141
1697.00,0.0145
1696.00,0.0156
1695.00,0.0165
1694.00,0.0168
1693.00,0.0169
1692.00,0.0171
1691.00,0.0176
1690.00,0.0182
1689.00,0.0190
1688.00,0.0200
1687.00,0.0208
1686.00,0.0214
1685.00,0.0222
1684.00,0.0235
1683.00,0.0245
1682.00,0.0250
1681.00,0.0254
1680.00,0.0261
1679.00,0.0270
1678.00,0.0279
1677.00,0.0288
1676.00,0.0296
1675.00,0.0305
1674.00,0.0313
1673.00,0.0319
1672.00,0.0326
1671.00,0.0334
1670.00,0.0346
1669.00,0.0360
1668.00,0.0370
1667.00,0.0379
1666.00,0.0387
1665.00,0.0396
1664.00,0.0406
1663.00,0.0416
1662.00,0.0426
1661.00,0.0434
1660.00,0.0441
1659.00,0.0449
1658.00,0.0460
1657.00,0.0475
1656.00,0.0491
1655.00,0.0504
1654.00,0.0514
1653.00,0.0523
1652.00,0.0522
1651.00,0.0518
1650.00,0.0514
1649.00,0.0513
1648.00,0.0513
1647.00,0.0515
1646.00,0.0516
1645.00,0.0517
1644.00,0.0519
1643.00,0.0520
1642.00,0.0520
1641.00,0.0521
1640.00,0.0524
1639.00,0.0526
1638.00,0.0528
1637.00,0.0529
1636.00,0.0529
1635.00,0.0530
1634.00,0.0531
1633.00,0.0533
1632.00,0.0534
1631.00,0.0535
1630.00,0.0537
1629.00,0.0541
1628.00,0.0546
1627.00,0.0551
1626.00,0.0555
1625.00,0.0560
1624.00,0.0563
1623.00,0.0566
1622.00,0.0570
1621.00,0.0575
1620.00,0.0581
1619.00,0.0584
1618.00,0.0585
1617.00,0.0583
1616.00,0.0576
1615.00,0.0567
1614.00,0.0558
1613.00,0.0550
1612.00,0.0539
1611.00,0.0526
1610.00,0.0513
1609.00,0.0501
1608.00,0.0488
1607.00,0.0474
1606.00,0.0461
1605.00,0.0449
1604.00,0.0437
1603.00,0.0423
1602.00,0.0412
1601.00,0.0402
1600.00,0.0391
1599.00,0.0380
1598.00,0.0370
1597.00,0.0362
1596.00,0.0354
1595.00,0.0345
1594.00,0.0337
1593.00,0.0331
1592.00,0.0323
1591.00,0.0316
1590.00,0.0310
1589.00,0.0305
1588.00,0.0300
1587.00,0.0294
1586.00,0.0289
1585.00,0.0285
1584.00,0.0281
1583.00,0.0275
1582.00,0.0272
1581.00,0.0271
1580.00,0.0270
1579.00,0.0269
1578.00,0.0269
1577.00,0.0269
1576.00,0.0266
1575.00,0.0262
1574.00,0.0262
1573.00,0.0264
1572.00,0.0265
1571.00,0.0267
1570.00,0.0270
1569.00,0.0274
1568.00,0.0275
1567.00,0.0275
1566.00,0.0279
1565.00,0.0286
1564.00,0.0295
1563.00,0.0307
1562.00,0.0321
1561.00,0.0331
1560.00,0.0333
1559.00,0.0335
1558.00,0.0345
1557.00,0.0354
1556.00,0.0358
1555.00,0.0362
1554.00,0.0368
1553.00,0.0375
1552.00,0.0383
1551.00,0.0390
1550.00,0.0399
1549.00,0.0407
1548.00,0.0413
1547.00,0.0417
1546.00,0.0423
1545.00,0.0431
1544.00,0.0441
1543.00,0.0448
1542.00,0.0450
1541.00,0.0452
1540.00,0.0456
1539.00,0.0460
1538.00,0.0465
1537.00,0.0470
1536.00,0.0475
1535.00,0.0480
1534.00,0.0485
1533.00,0.0492
1532.00,0.0497
1531.00,0.0500
1530.00,0.0502
1529.00,0.0506
1528.00,0.0511
1527.00,0.0516
1526.00,0.0519
1525.00,0.0522
1524.00,0.0528
1523.00,0.0533
1522.00,0.0536
1521.00,0.0539
1520.00,0.0543
1519.00,0.0545
1518.00,0.0546
1517.00,0.0546
1516.00,0.0546
1515.00,0.0546
1514.00,0.0544
1513.00,0.0541
1512.00,0.0541
1511.00,0.0542
1510.00,0.0541
1509.00,0.0537
1508.00,0.0530
1507.00,0.0524
1506.00,0.0514
1505.00,0.0503
1504.00,0.0495
1503.00,0.0489
1502.00,0.0483
1501.00,0.0476
1500.00,0.0470
1499.00,0.0464
1498.00,0.0455
1497.00,0.0442
1496.00,0.0431
1495.00,0.0422
1494.00,0.0413
1493.00,0.0402
1492.00,0.0391
1491.00,0.0381
1490.00,0.0372
1489.00,0.0365
1488.00,0.0360
1487.00,0.0353
1486.00,0.0345
1485.00,0.0337
1484.00,0.0331
1483.00,0.0324
1482.00,0.0317
1481.00,0.0311
1480.00,0.0306
1479.00,0.0301
1478.00,0.0297
1477.00,0.0293
1476.00,0.0292
1475.00,0.0289
1474.00,0.0284
1473.00,0.0279
1472.00,0.0280
1471.00,0.0284
1470.00,0.0286
1469.00,0.0287
1468.00,0.0290
1467.00,0.0293
1466.00,0.0293
1465.00,0.0292
1464.00,0.0292
1463.00,0.0294
1462.00,0.0296
1461.00,0.0300
1460.00,0.0307
1459.00,0.0316
1458.00,0.0322
1457.00,0.0324
1456.00,0.0324
1455.00,0.0326
1454.00,0.0328
1453.00,0.0329
1452.00,0.0332
1451.00,0.0335
1450.00,0.0337
1449.00,0.0336
1448.00,0.0336
1447.00,0.0337
1446.00,0.0336
1445.00,0.0332
1444.00,0.0329
1443.00,0.0326
1442.00,0.0323
1441.00,0.0319
1440.00,0.0317
1439.00,0.0316
1438.00,0.0313
1437.00,0.0308
1436.00,0.0301
1435.00,0.0297
1434.00,0.0293
1433.00,0.0289
1432.00,0.0286
1431.00,0.0286
1430.00,0.0286
1429.00,0.0285
1428.00,0.0283
1427.00,0.0283
1426.00,0.0283
1425.00,0.0281
1424.00,0.0281
1423.00,0.0284
1422.00,0.0289
1421.00,0.0292
1420.00,0.0294
1419.00,0.0298
1418.00,0.0301
1417.00,0.0300
1416.00,0.0301
1415.00,0.0305
1414.00,0.0310
1413.00,0.0314
1412.00,0.0316
1411.00,0.0320
1410.00,0.0324
1409.00,0.0327
1408.00,0.0328
1407.00,0.0331
1406.00,0.0333
1405.00,0.0335
1404.00,0.0336
1403.00,0.0338
1402.00,0.0341
1401.00,0.0343
1400.00,0.0343
1399.00,0.0345
1398.00,0.0349
1397.00,0.0352
1396.00,0.0355
1395.00,0.0360
1394.00,0.0364
1393.00,0.0365
1392.00,0.0363
1391.00,0.0364
1390.00,0.0366
1389.00,0.0368
1388.00,0.0370
1387.00,0.0371
1386.00,0.0372
1385.00,0.0372
1384.00,0.0372
1383.00,0.0372
1382.00,0.0372
1381.00,0.0371
1380.00,0.0368
1379.00,0.0365
1378.00,0.0362
1377.00,0.0360
1376.00,0.0358
1375.00,0.0357
1374.00,0.0356
1373.00,0.0355
1372.00,0.0352
1371.00,0.0348
1370.00,0.0345
1369.00,0.0342
1368.00,0.0339
1367.00,0.0336
1366.00,0.0333
1365.00,0.0330
1364.00,0.0328
1363.00,0.0326
1362.00,0.0324
1361.00,0.0321
1360.00,0.0317
1359.00,0.0314
1358.00,0.0312
1357.00,0.0311
1356.00,0.0310
1355.00,0.0309
1354.00,0.0308
1353.00,0.0307
1352.00,0.0307
1351.00,0.0306
1350.00,0.0306
1349.00,0.0306
1348.00,0.0306
1347.00,0.0306
1346.00,0.0306
1345.00,0.0306
1344.00,0.0307
1343.00,0.0307
1342.00,0.0307
1341.00,0.0308
1340.00,0.0308
1339.00,0.0308
1338.00,0.0309
1337.00,0.0308
1336.00,0.0307
1335.00,0.0306
1334.00,0.0305
1333.00,0.0305
1332.00,0.0304
1331.00,0.0302
1330.00,0.0301
1329.00,0.0301
1328.00,0.0299
1327.00,0.0298
1326.00,0.0297
1325.00,0.0297
1324.00,0.0296
1323.00,0.0296
1322.00,0.0296
1321.00,0.0296
1320.00,0.0296
1319.00,0.0296
1318.00,0.0296
1317.00,0.0297
1316.00,0.0297
1315.00,0.0297
1314.00,0.0298
1313.00,0.0298
1312.00,0.0298
1311.00,0.0297
1310.00,0.0297
1309.00,0.0296
1308.00,0.0296
1307.00,0.0295
1306.00,0.0294
1305.00,0.0294
1304.00,0.0292
1303.00,0.0290
1302.00,0.0289
1301.00,0.0288
1300.00,0.0287
1299.00,0.0287
1298.00,0.0286
1297.00,0.0285
1296.00,0.0284
1295.00,0.0283
1294.00,0.0283
1293.00,0.0282
1292.00,0.0282
1291.00,0.0282
1290.00,0.0282
1289.00,0.0282
1288.00,0.0282
1287.00,0.0283
1286.00,0.0283
1285.00,0.0284
1284.00,0.0285
1283.00,0.0285
1282.00,0.0286
1281.00,0.0287
1280.00,0.0287
1279.00,0.0288
1278.00,0.0289
1277.00,0.0290
1276.00,0.0291
1275.00,0.0292
1274.00,0.0293
1273.00,0.0295
1272.00,0.0296
1271.00,0.0298
1270.00,0.0300
1269.00,0.0302
1268.00,0.0304
1267.00,0.0307
1266.00,0.0310
1265.00,0.0312
1264.00,0.0314
1263.00,0.0316
1262.00,0.0318
1261.00,0.0319
1260.00,0.0321
1259.00,0.0322
1258.00,0.0325
1257.00,0.0327
1256.00,0.0330
1255.00,0.0333
1254.00,0.0336
1253.00,0.0339
1252.00,0.0342
1251.00,0.0344
1250.00,0.0345
1249.00,0.0347
1248.00,0.0347
1247.00,0.0348
1246.00,0.0349
1245.00,0.0350
1244.00,0.0351
1243.00,0.0351
1242.00,0.0353
1241.00,0.0353
1240.00,0.0354
1239.00,0.0354
1238.00,0.0354
1237.00,0.0354
1236.00,0.0353
1235.00,0.0352
1234.00,0.0351
1233.00,0.0350
1232.00,0.0348
1231.00,0.0346
1230.00,0.0344
1229.00,0.0342
1228.00,0.0339
1227.00,0.0337
1226.00,0.0335
1225.00,0.0332
1224.00,0.0329
1223.00,0.0326
1222.00,0.0324
1221.00,0.0322
1220.00,0.0319
1219.00,0.0317
1218.00,0.0315
1217.00,0.0313
1216.00,0.0310
1215.00,0.0307
1214.00,0.0305
1213.00,0.0303
1212.00,0.0301
1211.00,0.0299
1210.00,0.0297
1209.00,0.0294
1208.00,0.0292
1207.00,0.0289
1206.00,0.0287
1205.00,0.0285
1204.00,0.0282
1203.00,0.0279
1202.00,0.0277
1201.00,0.0274
1200.00,0.0270
1199.00,0.0267
1198.00,0.0264
1197.00,0.0261
1196.00,0.0258
1195.00,0.0255
1194.00,0.0252
1193.00,0.0250
1192.00,0.0248
1191.00,0.0247
1190.00,0.0247
1189.00,0.0247
1188.00,0.0246
1187.00,0.0246
1186.00,0.0247
1185.00,0.0247
1184.00,0.0248
1183.00,0.0250
1182.00,0.0252
1181.00,0.0254
1180.00,0.0257
1179.00,0.0260
1178.00,0.0263
1177.00,0.0267
1176.00,0.0271
1175.00,0.0275
1174.00,0.0281
1173.00,0.0286
1172.00,0.0290
1171.00,0.0295
1170.00,0.0300
1169.00,0.0305
1168.00,0.0309
1167.00,0.0313
1166.00,0.0317
1165.00,0.0321
1164.00,0.0324
1163.00,0.0325
1162.00,0.0327
1161.00,0.0328
1160.00,0.0327
1159.00,0.0327
1158.00,0.0326
1157.00,0.0325
1156.00,0.0323
1155.00,0.0321
1154.00,0.0319
1153.00,0.0317
1152.00,0.0314
1151.00,0.0311
1150.00,0.0308
1149.00,0.0305
1148.00,0.0302
1147.00,0.0298
1146.00,0.0295
1145.00,0.0292
1144.00,0.0289
1143.00,0.0286
1142.00,0.0284
1141.00,0.0282
1140.00,0.0279
1139.00,0.0278
1138.00,0.0276
1137.00,0.0275
1136.00,0.0273
1135.00,0.0271
1134.00,0.0270
1133.00,0.0270
1132.00,0.0268
1131.00,0.0267
1130.00,0.0267
1129.00,0.0267
1128.00,0.0266
1127.00,0.0265
1126.00,0.0264
1125.00,0.0264
1124.00,0.0263
1123.00,0.0262
1122.00,0.0261
1121.00,0.0260
1120.00,0.0259
1119.00,0.0258
1118.00,0.0258
1117.00,0.0258
1116.00,0.0257
1115.00,0.0257
1114.00,0.0257
1113.00,0.0258
1112.00,0.0258
1111.00,0.0258
1110.00,0.0258
1109.00,0.0258
1108.00,0.0258
1107.00,0.0258
1106.00,0.0259
1105.00,0.0260
1104.00,0.0260
1103.00,0.0261
1102.00,0.0263
1101.00,0.0263
1100.00,0.0264
1099.00,0.0265
1098.00,0.0266
1097.00,0.0268
1096.00,0.0269
1095.00,0.0271
1094.00,0.0274
1093.00,0.0277
1092.00,0.0280
1091.00,0.0283
1090.00,0.0287
1089.00,0.0291
1088.00,0.0295
1087.00,0.0299
1086.00,0.0303
1085.00,0.0307
1084.00,0.0311
1083.00,0.0315
1082.00,0.0320
1081.00,0.0324
1080.00,0.0328
1079.00,0.0331
1078.00,0.0335
1077.00,0.0339
1076.00,0.0342
1075.00,0.0345
1074.00,0.0349
1073.00,0.0352
1072.00,0.0354
1071.00,0.0355
1070.00,0.0357
1069.00,0.0358
1068.00,0.0359
1067.00,0.0359
1066.00,0.0360
1065.00,0.0361
1064.00,0.0361
1063.00,0.0362
1062.00,0.0362
1061.00,0.0362
1060.00,0.0362
1059.00,0.0361
1058.00,0.0360
1057.00,0.0358
1056.00,0.0355
1055.00,0.0353
1054.00,0.0350
1053.00,0.0347
1052.00,0.0344
1051.00,0.0340
1050.00,0.0337
1049.00,0.0334
1048.00,0.0330
1047.00,0.0327
1046.00,0.0324
1045.00,0.0320
1044.00,0.0316
1043.00,0.0312
1042.00,0.0310
1041.00,0.0307
1040.00,0.0304
1039.00,0.0302
1038.00,0.0300
1037.00,0.0299
1036.00,0.0297
1035.00,0.0296
1034.00,0.0295
1033.00,0.0294
1032.00,0.0292
1031.00,0.0290
1030.00,0.0288
1029.00,0.0286
1028.00,0.0283
1027.00,0.0279
1026.00,0.0276
1025.00,0.0273
1024.00,0.0269
1023.00,0.0266
1022.00,0.0263
1021.00,0.0260
1020.00,0.0256
1019.00,0.0253
1018.00,0.0251
1017.00,0.0248
1016.00,0.0245
1015.00,0.0242
1014.00,0.0240
1013.00,0.0238
1012.00,0.0235
1011.00,0.0233
1010.00,0.0231
1009.00,0.0229
1008.00,0.0227
1007.00,0.0225
1006.00,0.0224
1005.00,0.0223
1004.00,0.0222
1003.00,0.0220
1002.00,0.0219
1001.00,0.0218
1000.00,0.0216
999.00,0.0215
998.00,0.0214
997.00,0.0213
996.00,0.0211
995.00,0.0210
994.00,0.0209
993.00,0.0208
992.00,0.0207
991.00,0.0206
990.00,0.0205
989.00,0.0205
988.00,0.0205
987.00,0.0205
986.00,0.0205
985.00,0.0206
984.00,0.0206
983.00,0.0206
982.00,0.0207
981.00,0.0208
980.00,0.0208
979.00,0.0209
978.00,0.0210
977.00,0.0211
976.00,0.0213
975.00,0.0215
974.00,0.0217
973.00,0.0220
972.00,0.0223
971.00,0.0225
970.00,0.0229
969.00,0.0231
968.00,0.0233
967.00,0.0235
966.00,0.0236
965.00,0.0236
964.00,0.0236
963.00,0.0235
962.00,0.0235
961.00,0.0236
960.00,0.0236
959.00,0.0236
958.00,0.0237
957.00,0.0237
956.00,0.0236
955.00,0.0235
954.00,0.0234
953.00,0.0232
952.00,0.0230
951.00,0.0228
950.00,0.0226
949.00,0.0223
948.00,0.0221
947.00,0.0218
946.00,0.0217
945.00,0.0216
944.00,0.0214
943.00,0.0213
942.00,0.0212
941.00,0.0211
940.00,0.0209
939.00,0.0207
938.00,0.0206
937.00,0.0204
936.00,0.0201
935.00,0.0198
934.00,0.0196
933.00,0.0194
932.00,0.0191
931.00,0.0188
930.00,0.0187
929.00,0.0184
928.00,0.0182
927.00,0.0180
926.00,0.0178
925.00,0.0176
924.00,0.0174
923.00,0.0173
922.00,0.0171
921.00,0.0170
920.00,0.0168
919.00,0.0167
918.00,0.0166
917.00,0.0165
916.00,0.0164
915.00,0.0163
914.00,0.0162
913.00,0.0162
912.00,0.0161
911.00,0.0160
910.00,0.0160
909.00,0.0160
908.00,0.0160
907.00,0.0160
906.00,0.0160
905.00,0.0161
904.00,0.0160
903.00,0.0160
902.00,0.0160
901.00,0.0161
900.00,0.0160
899.00,0.0160
898.00,0.0160
897.00,0.0160
896.00,0.0159
895.00,0.0158
894.00,0.0158
893.00,0.0158
892.00,0.0157
891.00,0.0156
890.00,0.0156
889.00,0.0155
888.00,0.0154
887.00,0.0153
886.00,0.0152
885.00,0.0151
884.00,0.0150
883.00,0.0149
882.00,0.0149
881.00,0.0149
880.00,0.0149
879.00,0.0149
878.00,0.0150
877.00,0.0150
876.00,0.0150
875.00,0.0149
874.00,0.0149
873.00,0.0149
872.00,0.0148
871.00,0.0147
870.00,0.0146
869.00,0.0146
868.00,0.0145
867.00,0.0144
866.00,0.0143
865.00,0.0142
864.00,0.0141
863.00,0.0140
862.00,0.0139
861.00,0.0139
860.00,0.0138
859.00,0.0137
858.00,0.0137
857.00,0.0137
856.00,0.0137
855.00,0.0137
854.00,0.0137
853.00,0.0138
852.00,0.0138
851.00,0.0138
850.00,0.0138
849.00,0.0139
848.00,0.0138
847.00,0.0138
846.00,0.0138
845.00,0.0138
844.00,0.0138
843.00,0.0138
842.00,0.0139
841.00,0.0140
840.00,0.0140
839.00,0.0140
838.00,0.0142
837.00,0.0144
836.00,0.0145
835.00,0.0147
834.00,0.0149
833.00,0.0150
832.00,0.0152
831.00,0.0154
830.00,0.0156
829.00,0.0158
828.00,0.0160
827.00,0.0160
826.00,0.0162
825.00,0.0162
824.00,0.0162
823.00,0.0162
822.00,0.0162
821.00,0.0163
820.00,0.0163
819.00,0.0164
818.00,0.0165
817.00,0.0166
816.00,0.0166
815.00,0.0167
814.00,0.0168
813.00,0.0170
812.00,0.0170
811.00,0.0171
810.00,0.0173
809.00,0.0174
808.00,0.0175
807.00,0.0176
806.00,0.0177
805.00,0.0178
804.00,0.0178
803.00,0.0179
802.00,0.0179
801.00,0.0179
800.00,0.0178
799.00,0.0178
798.00,0.0178
797.00,0.0178
796.00,0.0178
795.00,0.0178
794.00,0.0179
793.00,0.0180
792.00,0.0180
791.00,0.0181
790.00,0.0182
789.00,0.0184
788.00,0.0184
787.00,0.0185
786.00,0.0187
785.00,0.0188
784.00,0.0189
783.00,0.0190
782.00,0.0192
781.00,0.0194
780.00,0.0196
779.00,0.0197
778.00,0.0199
777.00,0.0202
776.00,0.0203
775.00,0.0205
774.00,0.0207
773.00,0.0209
772.00,0.0211
771.00,0.0212
770.00,0.0214
769.00,0.0216
768.00,0.0217
767.00,0.0219
766.00,0.0221
765.00,0.0223
764.00,0.0224
763.00,0.0226
762.00,0.0228
761.00,0.0229
760.00,0.0231
759.00,0.0232
758.00,0.0235
757.00,0.0237
756.00,0.0237
755.00,0.0238
754.00,0.0240
753.00,0.0242
752.00,0.0243
751.00,0.0244
750.00,0.0246
749.00,0.0247
748.00,0.0247
747.00,0.0247
746.00,0.0247
745.00,0.0247
744.00,0.0246
743.00,0.0245
742.00,0.0246
741.00,0.0246
740.00,0.0245
739.00,0.0245
738.00,0.0245
737.00,0.0246
736.00,0.0246
735.00,0.0246
734.00,0.0247
733.00,0.0248
732.00,0.0248
731.00,0.0248
730.00,0.0249
729.00,0.0251
728.00,0.0254
727.00,0.0257
726.00,0.0261
725.00,0.0265
724.00,0.0268
723.00,0.0272
722.00,0.0275
721.00,0.0279
720.00,0.0282
719.00,0.0286
718.00,0.0292
717.00,0.0298
716.00,0.0303
715.00,0.0309
714.00,0.0314
713.00,0.0319
712.00,0.0324
711.00,0.0328
710.00,0.0334
709.00,0.0339
708.00,0.0344
707.00,0.0350
706.00,0.0356
705.00,0.0362
704.00,0.0367
703.00,0.0372
702.00,0.0377
701.00,0.0380
700.00,0.0383
699.00,0.0384
698.00,0.0386
697.00,0.0387
696.00,0.0386
695.00,0.0386
694.00,0.0386
693.00,0.0386
692.00,0.0385
691.00,0.0384
690.00,0.0385
689.00,0.0385
688.00,0.0385
687.00,0.0386
686.00,0.0387
685.00,0.0389
684.00,0.0390
683.00,0.0390
682.00,0.0392
681.00,0.0394
680.00,0.0395
679.00,0.0396
678.00,0.0398
677.00,0.0400
676.00,0.0401
675.00,0.0402
674.00,0.0404
673.00,0.0406
672.00,0.0407
671.00,0.0409
670.00,0.0412
669.00,0.0415
668.00,0.0417
667.00,0.0418
666.00,0.0419
665.00,0.0419
664.00,0.0419
663.00,0.0420
662.00,0.0421
661.00,0.0422
660.00,0.0422
659.00,0.0423
658.00,0.0424
657.00,0.0426
656.00,0.0426
655.00,0.0426
654.00,0.0426
653.00,0.0427
652.00,0.0427
651.00,0.0428
650.00,0.0430
649.00,0.0433
648.00,0.0434
647.00,0.0435
646.00,0.0437
645.00,0.0439
644.00,0.0440
643.00,0.0442
642.00,0.0444
641.00,0.0446
640.00,0.0448
639.00,0.0449
638.00,0.0451
637.00,0.0453
636.00,0.0455
635.00,0.0456
634.00,0.0459
633.00,0.0462
632.00,0.0463
631.00,0.0464
630.00,0.0466
629.00,0.0468
628.00,0.0468
627.00,0.0469
626.00,0.0470
625.00,0.0472
624.00,0.0472
623.00,0.0472
622.00,0.0474
621.00,0.0475
620.00,0.0475
619.00,0.0475
618.00,0.0475
617.00,0.0475
616.00,0.0475
615.00,0.0474
614.00,0.0474
613.00,0.0474
612.00,0.0473
611.00,0.0472
610.00,0.0473
609.00,0.0473
608.00,0.0472
607.00,0.0472
606.00,0.0473
605.00,0.0473
604.00,0.0473
603.00,0.0472
602.00,0.0473
601.00,0.0473
600.00,0.0473
599.00,0.0472
598.00,0.0473
597.00,0.0474
596.00,0.0473
595.00,0.0473
594.00,0.0474
593.00,0.0475
592.00,0.0474
591.00,0.0474
590.00,0.0476
589.00,0.0477
588.00,0.0477
587.00,0.0476
586.00,0.0477
585.00,0.0477
584.00,0.0477
583.00,0.0477
582.00,0.0479
581.00,0.0481
580.00,0.0480
579.00,0.0480
578.00,0.0481
577.00,0.0482
576.00,0.0480
575.00,0.0481
574.00,0.0485
573.00,0.0488
572.00,0.0488
571.00,0.0488
570.00,0.0490
569.00,0.0491
568.00,0.0490
567.00,0.0491
566.00,0.0494
565.00,0.0496
564.00,0.0496
563.00,0.0496
562.00,0.0499
561.00,0.0502
560.00,0.0502
559.00,0.0502
558.00,0.0505
557.00,0.0507
556.00,0.0506
555.00,0.0505
554.00,0.0506
553.00,0.0507
552.00,0.0506
551.00,0.0505
550.00,0.0507
549.00,0.0509
548.00,0.0507
547.00,0.0506
546.00,0.0508
545.00,0.0510
544.00,0.0509
543.00,0.0508
542.00,0.0510
541.00,0.0512
540.00,0.0511
539.00,0.0510
538.00,0.0512
537.00,0.0514
536.00,0.0513
535.00,0.0513
534.00,0.0516
533.00,0.0518
532.00,0.0518
531.00,0.0517
530.00,0.0519
529.00,0.0520
528.00,0.0518
527.00,0.0515
526.00,0.0516
525.00,0.0519
524.00,0.0521
523.00,0.0523
522.00,0.0528
521.00,0.0530
520.00,0.0528
519.00,0.0526
518.00,0.0527
517.00,0.0527
516.00,0.0525
515.00,0.0524
514.00,0.0525
513.00,0.0525
512.00,0.0522
511.00,0.0520
510.00,0.0520
509.00,0.0519
508.00,0.0515
507.00,0.0511
506.00,0.0510
505.00,0.0508
504.00,0.0504
503.00,0.0499
502.00,0.0499
501.00,0.0500
500.00,0.0500
499.00,0.0501
498.00,0.0504
497.00,0.0505
496.00,0.0503
495.00,0.0501
494.00,0.0502
493.00,0.0503
492.00,0.0500
491.00,0.0498
490.00,0.0499
489.00,0.0501
488.00,0.0499
487.00,0.0497
486.00,0.0498
485.00,0.0499
484.00,0.0497
483.00,0.0495
482.00,0.0496
481.00,0.0496
480.00,0.0494
479.00,0.0492
478.00,0.0495
477.00,0.0498
476.00,0.0496
475.00,0.0494
474.00,0.0494
473.00,0.0492
472.00,0.0486
471.00,0.0484
470.00,0.0490
469.00,0.0495
468.00,0.0492
467.00,0.0489
466.00,0.0492
465.00,0.0495
464.00,0.0492
463.00,0.0490
462.00,0.0491
461.00,0.0490
460.00,0.0483
459.00,0.0478
458.00,0.0479
457.00,0.0480
456.00,0.0475
455.00,0.0473
454.00,0.0477
453.00,0.0480
452.00,0.0476
451.00,0.0474
450.00,0.0478
449.00,0.0479
448.00,0.0473
447.00,0.0467
446.00,0.0468
445.00,0.0469
444.00,0.0465
443.00,0.0462
442.00,0.0462
441.00,0.0458
440.00,0.0450
439.00,0.0445
438.00,0.0449
437.00,0.0452
436.00,0.0447
435.00,0.0443
434.00,0.0444
433.00,0.0443
432.00,0.0434
431.00,0.0428
430.00,0.0428
429.00,0.0429
428.00,0.0423
427.00,0.0418
426.00,0.0420
425.00,0.0419
424.00,0.0409
423.00,0.0398
422.00,0.0397
421.00,0.0396
420.00,0.0384
419.00,0.0374
418.00,0.0386
417.00,0.0400
416.00,0.0400
415.00,0.0398
414.00,0.0404
413.00,0.0410
412.00,0.0405
411.00,0.0400
410.00,0.0406
409.00,0.0409
408.00,0.0400
407.00,0.0390
406.00,0.0393
405.00,0.0396
404.00,0.0384
403.00,0.0373
402.00,0.0380
401.00,0.0389
400.00,0.0379
