Created as New Dataset,Sample 288 By YargerLab Date Saturday, July 27 2024
cm-1,A
4000.00,-0.0005
3999.00,-0.0005
3998.00,-0.0005
3997.00,-0.0005
3996.00,-0.0005
3995.00,-0.0005
3994.00,-0.0005
3993.00,-0.0005
3992.00,-0.0005
3991.00,-0.0005
3990.00,-0.0005
3989.00,-0.0005
3988.00,-0.0005
3987.00,-0.0005
3986.00,-0.0005
3985.00,-0.0005
3984.00,-0.0005
3983.00,-0.0005
3982.00,-0.0005
3981.00,-0.0005
3980.00,-0.0005
3979.00,-0.0005
3978.00,-0.0005
3977.00,-0.0006
3976.00,-0.0006
3975.00,-0.0006
3974.00,-0.0006
3973.00,-0.0005
3972.00,-0.0005
3971.00,-0.0005
3970.00,-0.0005
3969.00,-0.0005
3968.00,-0.0005
3967.00,-0.0005
3966.00,-0.0005
3965.00,-0.0005
3964.00,-0.0005
3963.00,-0.0005
3962.00,-0.0005
3961.00,-0.0006
3960.00,-0.0006
3959.00,-0.0006
3958.00,-0.0006
3957.00,-0.0006
3956.00,-0.0006
3955.00,-0.0006
3954.00,-0.0006
3953.00,-0.0006
3952.00,-0.0006
3951.00,-0.0006
3950.00,-0.0006
3949.00,-0.0006
3948.00,-0.0006
3947.00,-0.0006
3946.00,-0.0006
3945.00,-0.0006
3944.00,-0.0006
3943.00,-0.0006
3942.00,-0.0006
3941.00,-0.0006
3940.00,-0.0006
3939.00,-0.0006
3938.00,-0.0006
3937.00,-0.0006
3936.00,-0.0006
3935.00,-0.0006
3934.00,-0.0006
3933.00,-0.0006
3932.00,-0.0005
3931.00,-0.0005
3930.00,-0.0006
3929.00,-0.0006
3928.00,-0.0006
3927.00,-0.0006
3926.00,-0.0006
3925.00,-0.0006
3924.00,-0.0006
3923.00,-0.0006
3922.00,-0.0006
3921.00,-0.0006
3920.00,-0.0006
3919.00,-0.0006
3918.00,-0.0006
3917.00,-0.0006
3916.00,-0.0006
3915.00,-0.0006
3914.00,-0.0006
3913.00,-0.0006
3912.00,-0.0006
3911.00,-0.0006
3910.00,-0.0006
3909.00,-0.0006
3908.00,-0.0006
3907.00,-0.0006
3906.00,-0.0006
3905.00,-0.0006
3904.00,-0.0006
3903.00,-0.0006
3902.00,-0.0006
3901.00,-0.0007
3900.00,-0.0007
3899.00,-0.0006
3898.00,-0.0006
3897.00,-0.0006
3896.00,-0.0006
3895.00,-0.0006
3894.00,-0.0006
3893.00,-0.0007
3892.00,-0.0007
3891.00,-0.0006
3890.00,-0.0006
3889.00,-0.0006
3888.00,-0.0007
3887.00,-0.0007
3886.00,-0.0006
3885.00,-0.0006
3884.00,-0.0007
3883.00,-0.0007
3882.00,-0.0007
3881.00,-0.0007
3880.00,-0.0006
3879.00,-0.0006
3878.00,-0.0006
3877.00,-0.0006
3876.00,-0.0006
3875.00,-0.0006
3874.00,-0.0006
3873.00,-0.0006
3872.00,-0.0006
3871.00,-0.0007
3870.00,-0.0007
3869.00,-0.0007
3868.00,-0.0007
3867.00,-0.0007
3866.00,-0.0007
3865.00,-0.0007
3864.00,-0.0007
3863.00,-0.0007
3862.00,-0.0006
3861.00,-0.0006
3860.00,-0.0006
3859.00,-0.0006
3858.00,-0.0006
3857.00,-0.0007
3856.00,-0.0007
3855.00,-0.0007
3854.00,-0.0007
3853.00,-0.0007
3852.00,-0.0007
3851.00,-0.0007
3850.00,-0.0007
3849.00,-0.0007
3848.00,-0.0007
3847.00,-0.0007
3846.00,-0.0006
3845.00,-0.0006
3844.00,-0.0006
3843.00,-0.0006
3842.00,-0.0006
3841.00,-0.0006
3840.00,-0.0007
3839.00,-0.0007
3838.00,-0.0007
3837.00,-0.0007
3836.00,-0.0007
3835.00,-0.0007
3834.00,-0.0007
3833.00,-0.0007
3832.00,-0.0007
3831.00,-0.0007
3830.00,-0.0007
3829.00,-0.0007
3828.00,-0.0007
3827.00,-0.0006
3826.00,-0.0006
3825.00,-0.0006
3824.00,-0.0006
3823.00,-0.0007
3822.00,-0.0007
3821.00,-0.0007
3820.00,-0.0007
3819.00,-0.0007
3818.00,-0.0007
3817.00,-0.0007
3816.00,-0.0007
3815.00,-0.0006
3814.00,-0.0006
3813.00,-0.0006
3812.00,-0.0006
3811.00,-0.0006
3810.00,-0.0006
3809.00,-0.0006
3808.00,-0.0006
3807.00,-0.0006
3806.00,-0.0006
3805.00,-0.0006
3804.00,-0.0007
3803.00,-0.0007
3802.00,-0.0007
3801.00,-0.0006
3800.00,-0.0007
3799.00,-0.0007
3798.00,-0.0007
3797.00,-0.0007
3796.00,-0.0007
3795.00,-0.0007
3794.00,-0.0007
3793.00,-0.0007
3792.00,-0.0006
3791.00,-0.0006
3790.00,-0.0006
3789.00,-0.0006
3788.00,-0.0006
3787.00,-0.0006
3786.00,-0.0006
3785.00,-0.0006
3784.00,-0.0006
3783.00,-0.0006
3782.00,-0.0006
3781.00,-0.0006
3780.00,-0.0006
3779.00,-0.0006
3778.00,-0.0006
3777.00,-0.0006
3776.00,-0.0006
3775.00,-0.0006
3774.00,-0.0006
3773.00,-0.0006
3772.00,-0.0006
3771.00,-0.0006
3770.00,-0.0006
3769.00,-0.0006
3768.00,-0.0006
3767.00,-0.0006
3766.00,-0.0006
3765.00,-0.0006
3764.00,-0.0006
3763.00,-0.0006
3762.00,-0.0006
3761.00,-0.0006
3760.00,-0.0006
3759.00,-0.0006
3758.00,-0.0006
3757.00,-0.0006
3756.00,-0.0006
3755.00,-0.0006
3754.00,-0.0006
3753.00,-0.0006
3752.00,-0.0006
3751.00,-0.0006
3750.00,-0.0007
3749.00,-0.0007
3748.00,-0.0007
3747.00,-0.0007
3746.00,-0.0007
3745.00,-0.0007
3744.00,-0.0007
3743.00,-0.0006
3742.00,-0.0006
3741.00,-0.0006
3740.00,-0.0006
3739.00,-0.0006
3738.00,-0.0006
3737.00,-0.0006
3736.00,-0.0006
3735.00,-0.0007
3734.00,-0.0007
3733.00,-0.0007
3732.00,-0.0007
3731.00,-0.0006
3730.00,-0.0006
3729.00,-0.0006
3728.00,-0.0006
3727.00,-0.0006
3726.00,-0.0006
3725.00,-0.0006
3724.00,-0.0006
3723.00,-0.0006
3722.00,-0.0006
3721.00,-0.0006
3720.00,-0.0006
3719.00,-0.0006
3718.00,-0.0006
3717.00,-0.0006
3716.00,-0.0006
3715.00,-0.0006
3714.00,-0.0006
3713.00,-0.0006
3712.00,-0.0006
3711.00,-0.0006
3710.00,-0.0006
3709.00,-0.0006
3708.00,-0.0006
3707.00,-0.0006
3706.00,-0.0005
3705.00,-0.0005
3704.00,-0.0005
3703.00,-0.0005
3702.00,-0.0005
3701.00,-0.0005
3700.00,-0.0005
3699.00,-0.0005
3698.00,-0.0005
3697.00,-0.0005
3696.00,-0.0005
3695.00,-0.0005
3694.00,-0.0005
3693.00,-0.0005
3692.00,-0.0005
3691.00,-0.0005
3690.00,-0.0005
3689.00,-0.0005
3688.00,-0.0005
3687.00,-0.0005
3686.00,-0.0005
3685.00,-0.0005
3684.00,-0.0004
3683.00,-0.0004
3682.00,-0.0004
3681.00,-0.0004
3680.00,-0.0004
3679.00,-0.0004
3678.00,-0.0004
3677.00,-0.0005
3676.00,-0.0005
3675.00,-0.0004
3674.00,-0.0004
3673.00,-0.0004
3672.00,-0.0004
3671.00,-0.0004
3670.00,-0.0004
3669.00,-0.0004
3668.00,-0.0004
3667.00,-0.0003
3666.00,-0.0003
3665.00,-0.0003
3664.00,-0.0002
3663.00,-0.0002
3662.00,-0.0002
3661.00,-0.0002
3660.00,-0.0002
3659.00,-0.0002
3658.00,-0.0002
3657.00,-0.0002
3656.00,-0.0002
3655.00,-0.0002
3654.00,-0.0002
3653.00,-0.0002
3652.00,-0.0002
3651.00,-0.0002
3650.00,-0.0001
3649.00,-0.0001
3648.00,-0.0001
3647.00,-0.0001
3646.00,-0.0001
3645.00,-0.0001
3644.00,-0.0000
3643.00,0.0000
3642.00,0.0001
3641.00,0.0001
3640.00,0.0001
3639.00,0.0001
3638.00,0.0001
3637.00,0.0001
3636.00,0.0001
3635.00,0.0002
3634.00,0.0002
3633.00,0.0002
3632.00,0.0002
3631.00,0.0001
3630.00,0.0001
3629.00,0.0001
3628.00,0.0002
3627.00,0.0002
3626.00,0.0002
3625.00,0.0002
3624.00,0.0003
3623.00,0.0003
3622.00,0.0003
3621.00,0.0004
3620.00,0.0004
3619.00,0.0004
3618.00,0.0004
3617.00,0.0004
3616.00,0.0004
3615.00,0.0004
3614.00,0.0004
3613.00,0.0004
3612.00,0.0005
3611.00,0.0005
3610.00,0.0005
3609.00,0.0005
3608.00,0.0006
3607.00,0.0006
3606.00,0.0006
3605.00,0.0007
3604.00,0.0007
3603.00,0.0007
3602.00,0.0008
3601.00,0.0008
3600.00,0.0008
3599.00,0.0008
3598.00,0.0008
3597.00,0.0008
3596.00,0.0008
3595.00,0.0009
3594.00,0.0009
3593.00,0.0009
3592.00,0.0009
3591.00,0.0010
3590.00,0.0010
3589.00,0.0010
3588.00,0.0010
3587.00,0.0009
3586.00,0.0009
3585.00,0.0010
3584.00,0.0010
3583.00,0.0011
3582.00,0.0011
3581.00,0.0011
3580.00,0.0012
3579.00,0.0012
3578.00,0.0012
3577.00,0.0012
3576.00,0.0012
3575.00,0.0013
3574.00,0.0013
3573.00,0.0013
3572.00,0.0013
3571.00,0.0013
3570.00,0.0014
3569.00,0.0014
3568.00,0.0014
3567.00,0.0013
3566.00,0.0014
3565.00,0.0014
3564.00,0.0014
3563.00,0.0015
3562.00,0.0015
3561.00,0.0015
3560.00,0.0016
3559.00,0.0016
3558.00,0.0016
3557.00,0.0016
3556.00,0.0016
3555.00,0.0017
3554.00,0.0017
3553.00,0.0017
3552.00,0.0017
3551.00,0.0017
3550.00,0.0018
3549.00,0.0018
3548.00,0.0018
3547.00,0.0018
3546.00,0.0018
3545.00,0.0018
3544.00,0.0018
3543.00,0.0019
3542.00,0.0019
3541.00,0.0019
3540.00,0.0020
3539.00,0.0020
3538.00,0.0020
3537.00,0.0020
3536.00,0.0020
3535.00,0.0021
3534.00,0.0021
3533.00,0.0021
3532.00,0.0021
3531.00,0.0022
3530.00,0.0022
3529.00,0.0022
3528.00,0.0022
3527.00,0.0022
3526.00,0.0022
3525.00,0.0023
3524.00,0.0023
3523.00,0.0023
3522.00,0.0023
3521.00,0.0023
3520.00,0.0023
3519.00,0.0023
3518.00,0.0024
3517.00,0.0024
3516.00,0.0024
3515.00,0.0024
3514.00,0.0025
3513.00,0.0025
3512.00,0.0025
3511.00,0.0025
3510.00,0.0026
3509.00,0.0026
3508.00,0.0026
3507.00,0.0026
3506.00,0.0026
3505.00,0.0027
3504.00,0.0027
3503.00,0.0027
3502.00,0.0027
3501.00,0.0027
3500.00,0.0027
3499.00,0.0027
3498.00,0.0028
3497.00,0.0028
3496.00,0.0028
3495.00,0.0028
3494.00,0.0028
3493.00,0.0029
3492.00,0.0029
3491.00,0.0029
3490.00,0.0029
3489.00,0.0030
3488.00,0.0030
3487.00,0.0030
3486.00,0.0030
3485.00,0.0030
3484.00,0.0031
3483.00,0.0031
3482.00,0.0031
3481.00,0.0031
3480.00,0.0031
3479.00,0.0031
3478.00,0.0032
3477.00,0.0032
3476.00,0.0032
3475.00,0.0032
3474.00,0.0033
3473.00,0.0033
3472.00,0.0033
3471.00,0.0033
3470.00,0.0033
3469.00,0.0034
3468.00,0.0034
3467.00,0.0034
3466.00,0.0034
3465.00,0.0034
3464.00,0.0035
3463.00,0.0035
3462.00,0.0035
3461.00,0.0035
3460.00,0.0035
3459.00,0.0036
3458.00,0.0036
3457.00,0.0036
3456.00,0.0036
3455.00,0.0036
3454.00,0.0036
3453.00,0.0036
3452.00,0.0037
3451.00,0.0037
3450.00,0.0037
3449.00,0.0037
3448.00,0.0038
3447.00,0.0038
3446.00,0.0038
3445.00,0.0038
3444.00,0.0038
3443.00,0.0038
3442.00,0.0039
3441.00,0.0039
3440.00,0.0039
3439.00,0.0039
3438.00,0.0039
3437.00,0.0040
3436.00,0.0040
3435.00,0.0040
3434.00,0.0040
3433.00,0.0040
3432.00,0.0040
3431.00,0.0041
3430.00,0.0041
3429.00,0.0041
3428.00,0.0041
3427.00,0.0042
3426.00,0.0042
3425.00,0.0042
3424.00,0.0042
3423.00,0.0042
3422.00,0.0042
3421.00,0.0042
3420.00,0.0043
3419.00,0.0043
3418.00,0.0043
3417.00,0.0043
3416.00,0.0044
3415.00,0.0044
3414.00,0.0044
3413.00,0.0044
3412.00,0.0045
3411.00,0.0045
3410.00,0.0045
3409.00,0.0045
3408.00,0.0045
3407.00,0.0045
3406.00,0.0045
3405.00,0.0046
3404.00,0.0046
3403.00,0.0046
3402.00,0.0046
3401.00,0.0047
3400.00,0.0047
3399.00,0.0047
3398.00,0.0047
3397.00,0.0047
3396.00,0.0047
3395.00,0.0047
3394.00,0.0048
3393.00,0.0048
3392.00,0.0048
3391.00,0.0048
3390.00,0.0048
3389.00,0.0049
3388.00,0.0049
3387.00,0.0049
3386.00,0.0049
3385.00,0.0049
3384.00,0.0050
3383.00,0.0050
3382.00,0.0050
3381.00,0.0050
3380.00,0.0050
3379.00,0.0050
3378.00,0.0051
3377.00,0.0051
3376.00,0.0051
3375.00,0.0051
3374.00,0.0052
3373.00,0.0052
3372.00,0.0052
3371.00,0.0053
3370.00,0.0053
3369.00,0.0053
3368.00,0.0054
3367.00,0.0054
3366.00,0.0054
3365.00,0.0054
3364.00,0.0055
3363.00,0.0055
3362.00,0.0055
3361.00,0.0055
3360.00,0.0056
3359.00,0.0056
3358.00,0.0056
3357.00,0.0056
3356.00,0.0057
3355.00,0.0057
3354.00,0.0057
3353.00,0.0058
3352.00,0.0058
3351.00,0.0059
3350.00,0.0059
3349.00,0.0059
3348.00,0.0059
3347.00,0.0060
3346.00,0.0060
3345.00,0.0060
3344.00,0.0061
3343.00,0.0061
3342.00,0.0061
3341.00,0.0062
3340.00,0.0062
3339.00,0.0063
3338.00,0.0063
3337.00,0.0063
3336.00,0.0064
3335.00,0.0064
3334.00,0.0065
3333.00,0.0065
3332.00,0.0065
3331.00,0.0066
3330.00,0.0066
3329.00,0.0067
3328.00,0.0068
3327.00,0.0068
3326.00,0.0069
3325.00,0.0069
3324.00,0.0070
3323.00,0.0070
3322.00,0.0071
3321.00,0.0071
3320.00,0.0072
3319.00,0.0072
3318.00,0.0073
3317.00,0.0074
3316.00,0.0074
3315.00,0.0075
3314.00,0.0075
3313.00,0.0076
3312.00,0.0077
3311.00,0.0077
3310.00,0.0078
3309.00,0.0079
3308.00,0.0079
3307.00,0.0080
3306.00,0.0081
3305.00,0.0081
3304.00,0.0082
3303.00,0.0083
3302.00,0.0083
3301.00,0.0084
3300.00,0.0085
3299.00,0.0085
3298.00,0.0086
3297.00,0.0087
3296.00,0.0087
3295.00,0.0088
3294.00,0.0089
3293.00,0.0089
3292.00,0.0090
3291.00,0.0091
3290.00,0.0091
3289.00,0.0092
3288.00,0.0092
3287.00,0.0093
3286.00,0.0094
3285.00,0.0094
3284.00,0.0095
3283.00,0.0095
3282.00,0.0095
3281.00,0.0096
3280.00,0.0096
3279.00,0.0097
3278.00,0.0097
3277.00,0.0097
3276.00,0.0097
3275.00,0.0097
3274.00,0.0097
3273.00,0.0098
3272.00,0.0098
3271.00,0.0098
3270.00,0.0097
3269.00,0.0097
3268.00,0.0097
3267.00,0.0096
3266.00,0.0096
3265.00,0.0095
3264.00,0.0095
3263.00,0.0094
3262.00,0.0094
3261.00,0.0093
3260.00,0.0093
3259.00,0.0092
3258.00,0.0092
3257.00,0.0092
3256.00,0.0091
3255.00,0.0090
3254.00,0.0089
3253.00,0.0089
3252.00,0.0088
3251.00,0.0087
3250.00,0.0087
3249.00,0.0086
3248.00,0.0086
3247.00,0.0085
3246.00,0.0084
3245.00,0.0084
3244.00,0.0083
3243.00,0.0082
3242.00,0.0082
3241.00,0.0081
3240.00,0.0081
3239.00,0.0080
3238.00,0.0080
3237.00,0.0080
3236.00,0.0079
3235.00,0.0079
3234.00,0.0078
3233.00,0.0078
3232.00,0.0077
3231.00,0.0076
3230.00,0.0076
3229.00,0.0075
3228.00,0.0075
3227.00,0.0075
3226.00,0.0074
3225.00,0.0074
3224.00,0.0073
3223.00,0.0073
3222.00,0.0072
3221.00,0.0072
3220.00,0.0072
3219.00,0.0071
3218.00,0.0071
3217.00,0.0071
3216.00,0.0071
3215.00,0.0070
3214.00,0.0070
3213.00,0.0070
3212.00,0.0069
3211.00,0.0069
3210.00,0.0069
3209.00,0.0068
3208.00,0.0068
3207.00,0.0068
3206.00,0.0067
3205.00,0.0067
3204.00,0.0066
3203.00,0.0066
3202.00,0.0066
3201.00,0.0065
3200.00,0.0065
3199.00,0.0065
3198.00,0.0064
3197.00,0.0064
3196.00,0.0063
3195.00,0.0063
3194.00,0.0063
3193.00,0.0063
3192.00,0.0062
3191.00,0.0062
3190.00,0.0062
3189.00,0.0062
3188.00,0.0061
3187.00,0.0061
3186.00,0.0060
3185.00,0.0060
3184.00,0.0060
3183.00,0.0059
3182.00,0.0059
3181.00,0.0059
3180.00,0.0059
3179.00,0.0058
3178.00,0.0058
3177.00,0.0057
3176.00,0.0057
3175.00,0.0056
3174.00,0.0056
3173.00,0.0056
3172.00,0.0056
3171.00,0.0055
3170.00,0.0055
3169.00,0.0055
3168.00,0.0054
3167.00,0.0054
3166.00,0.0054
3165.00,0.0053
3164.00,0.0053
3163.00,0.0053
3162.00,0.0052
3161.00,0.0052
3160.00,0.0052
3159.00,0.0051
3158.00,0.0051
3157.00,0.0051
3156.00,0.0051
3155.00,0.0050
3154.00,0.0050
3153.00,0.0050
3152.00,0.0049
3151.00,0.0049
3150.00,0.0049
3149.00,0.0049
3148.00,0.0049
3147.00,0.0048
3146.00,0.0048
3145.00,0.0048
3144.00,0.0047
3143.00,0.0047
3142.00,0.0047
3141.00,0.0047
3140.00,0.0047
3139.00,0.0047
3138.00,0.0047
3137.00,0.0046
3136.00,0.0046
3135.00,0.0046
3134.00,0.0046
3133.00,0.0046
3132.00,0.0045
3131.00,0.0045
3130.00,0.0045
3129.00,0.0045
3128.00,0.0045
3127.00,0.0045
3126.00,0.0045
3125.00,0.0045
3124.00,0.0045
3123.00,0.0045
3122.00,0.0044
3121.00,0.0044
3120.00,0.0044
3119.00,0.0044
3118.00,0.0044
3117.00,0.0044
3116.00,0.0044
3115.00,0.0044
3114.00,0.0044
3113.00,0.0044
3112.00,0.0044
3111.00,0.0044
3110.00,0.0044
3109.00,0.0044
3108.00,0.0044
3107.00,0.0044
3106.00,0.0044
3105.00,0.0044
3104.00,0.0044
3103.00,0.0044
3102.00,0.0044
3101.00,0.0044
3100.00,0.0044
3099.00,0.0044
3098.00,0.0045
3097.00,0.0045
3096.00,0.0045
3095.00,0.0045
3094.00,0.0045
3093.00,0.0045
3092.00,0.0045
3091.00,0.0045
3090.00,0.0045
3089.00,0.0045
3088.00,0.0045
3087.00,0.0045
3086.00,0.0045
3085.00,0.0045
3084.00,0.0045
3083.00,0.0045
3082.00,0.0045
3081.00,0.0045
3080.00,0.0045
3079.00,0.0045
3078.00,0.0045
3077.00,0.0045
3076.00,0.0045
3075.00,0.0045
3074.00,0.0045
3073.00,0.0045
3072.00,0.0045
3071.00,0.0045
3070.00,0.0045
3069.00,0.0045
3068.00,0.0045
3067.00,0.0044
3066.00,0.0044
3065.00,0.0044
3064.00,0.0044
3063.00,0.0044
3062.00,0.0044
3061.00,0.0043
3060.00,0.0043
3059.00,0.0043
3058.00,0.0043
3057.00,0.0042
3056.00,0.0042
3055.00,0.0042
3054.00,0.0042
3053.00,0.0041
3052.00,0.0041
3051.00,0.0041
3050.00,0.0040
3049.00,0.0040
3048.00,0.0040
3047.00,0.0040
3046.00,0.0039
3045.00,0.0039
3044.00,0.0039
3043.00,0.0038
3042.00,0.0038
3041.00,0.0038
3040.00,0.0037
3039.00,0.0037
3038.00,0.0037
3037.00,0.0037
3036.00,0.0037
3035.00,0.0036
3034.00,0.0036
3033.00,0.0036
3032.00,0.0035
3031.00,0.0035
3030.00,0.0035
3029.00,0.0035
3028.00,0.0035
3027.00,0.0034
3026.00,0.0034
3025.00,0.0034
3024.00,0.0034
3023.00,0.0033
3022.00,0.0033
3021.00,0.0033
3020.00,0.0033
3019.00,0.0033
3018.00,0.0032
3017.00,0.0032
3016.00,0.0032
3015.00,0.0031
3014.00,0.0031
3013.00,0.0031
3012.00,0.0031
3011.00,0.0031
3010.00,0.0031
3009.00,0.0031
3008.00,0.0031
3007.00,0.0031
3006.00,0.0031
3005.00,0.0031
3004.00,0.0031
3003.00,0.0031
3002.00,0.0031
3001.00,0.0031
3000.00,0.0031
2999.00,0.0031
2998.00,0.0031
2997.00,0.0031
2996.00,0.0031
2995.00,0.0031
2994.00,0.0032
2993.00,0.0032
2992.00,0.0032
2991.00,0.0032
2990.00,0.0033
2989.00,0.0033
2988.00,0.0034
2987.00,0.0034
2986.00,0.0034
2985.00,0.0035
2984.00,0.0035
2983.00,0.0036
2982.00,0.0036
2981.00,0.0037
2980.00,0.0037
2979.00,0.0038
2978.00,0.0038
2977.00,0.0039
2976.00,0.0039
2975.00,0.0040
2974.00,0.0040
2973.00,0.0041
2972.00,0.0041
2971.00,0.0042
2970.00,0.0042
2969.00,0.0043
2968.00,0.0043
2967.00,0.0043
2966.00,0.0044
2965.00,0.0044
2964.00,0.0044
2963.00,0.0044
2962.00,0.0044
2961.00,0.0044
2960.00,0.0044
2959.00,0.0044
2958.00,0.0043
2957.00,0.0043
2956.00,0.0043
2955.00,0.0042
2954.00,0.0042
2953.00,0.0042
2952.00,0.0041
2951.00,0.0041
2950.00,0.0041
2949.00,0.0041
2948.00,0.0040
2947.00,0.0040
2946.00,0.0040
2945.00,0.0040
2944.00,0.0041
2943.00,0.0041
2942.00,0.0041
2941.00,0.0042
2940.00,0.0042
2939.00,0.0043
2938.00,0.0043
2937.00,0.0043
2936.00,0.0044
2935.00,0.0044
2934.00,0.0044
2933.00,0.0044
2932.00,0.0044
2931.00,0.0044
2930.00,0.0044
2929.00,0.0044
2928.00,0.0043
2927.00,0.0043
2926.00,0.0043
2925.00,0.0043
2924.00,0.0042
2923.00,0.0042
2922.00,0.0042
2921.00,0.0042
2920.00,0.0041
2919.00,0.0041
2918.00,0.0040
2917.00,0.0039
2916.00,0.0039
2915.00,0.0038
2914.00,0.0038
2913.00,0.0037
2912.00,0.0037
2911.00,0.0036
2910.00,0.0036
2909.00,0.0035
2908.00,0.0035
2907.00,0.0035
2906.00,0.0034
2905.00,0.0034
2904.00,0.0033
2903.00,0.0033
2902.00,0.0033
2901.00,0.0033
2900.00,0.0032
2899.00,0.0032
2898.00,0.0032
2897.00,0.0031
2896.00,0.0031
2895.00,0.0031
2894.00,0.0031
2893.00,0.0030
2892.00,0.0030
2891.00,0.0030
2890.00,0.0030
2889.00,0.0030
2888.00,0.0030
2887.00,0.0031
2886.00,0.0031
2885.00,0.0031
2884.00,0.0031
2883.00,0.0031
2882.00,0.0031
2881.00,0.0031
2880.00,0.0032
2879.00,0.0032
2878.00,0.0032
2877.00,0.0032
2876.00,0.0032
2875.00,0.0032
2874.00,0.0032
2873.00,0.0032
2872.00,0.0031
2871.00,0.0031
2870.00,0.0031
2869.00,0.0030
2868.00,0.0030
2867.00,0.0029
2866.00,0.0029
2865.00,0.0029
2864.00,0.0028
2863.00,0.0028
2862.00,0.0027
2861.00,0.0027
2860.00,0.0027
2859.00,0.0027
2858.00,0.0027
2857.00,0.0026
2856.00,0.0026
2855.00,0.0026
2854.00,0.0026
2853.00,0.0026
2852.00,0.0026
2851.00,0.0025
2850.00,0.0025
2849.00,0.0025
2848.00,0.0024
2847.00,0.0024
2846.00,0.0023
2845.00,0.0023
2844.00,0.0022
2843.00,0.0022
2842.00,0.0021
2841.00,0.0021
2840.00,0.0021
2839.00,0.0020
2838.00,0.0020
2837.00,0.0020
2836.00,0.0020
2835.00,0.0020
2834.00,0.0020
2833.00,0.0020
2832.00,0.0019
2831.00,0.0019
2830.00,0.0019
2829.00,0.0019
2828.00,0.0019
2827.00,0.0019
2826.00,0.0019
2825.00,0.0019
2824.00,0.0019
2823.00,0.0019
2822.00,0.0018
2821.00,0.0018
2820.00,0.0018
2819.00,0.0018
2818.00,0.0018
2817.00,0.0018
2816.00,0.0018
2815.00,0.0018
2814.00,0.0018
2813.00,0.0018
2812.00,0.0018
2811.00,0.0018
2810.00,0.0018
2809.00,0.0018
2808.00,0.0017
2807.00,0.0017
2806.00,0.0017
2805.00,0.0017
2804.00,0.0017
2803.00,0.0017
2802.00,0.0017
2801.00,0.0017
2800.00,0.0017
2799.00,0.0017
2798.00,0.0017
2797.00,0.0017
2796.00,0.0017
2795.00,0.0016
2794.00,0.0016
2793.00,0.0016
2792.00,0.0016
2791.00,0.0016
2790.00,0.0016
2789.00,0.0016
2788.00,0.0016
2787.00,0.0016
2786.00,0.0015
2785.00,0.0015
2784.00,0.0015
2783.00,0.0015
2782.00,0.0015
2781.00,0.0015
2780.00,0.0015
2779.00,0.0015
2778.00,0.0015
2777.00,0.0014
2776.00,0.0014
2775.00,0.0014
2774.00,0.0014
2773.00,0.0014
2772.00,0.0014
2771.00,0.0014
2770.00,0.0014
2769.00,0.0014
2768.00,0.0013
2767.00,0.0013
2766.00,0.0013
2765.00,0.0013
2764.00,0.0013
2763.00,0.0013
2762.00,0.0012
2761.00,0.0012
2760.00,0.0012
2759.00,0.0012
2758.00,0.0012
2757.00,0.0012
2756.00,0.0012
2755.00,0.0012
2754.00,0.0012
2753.00,0.0012
2752.00,0.0011
2751.00,0.0011
2750.00,0.0011
2749.00,0.0011
2748.00,0.0011
2747.00,0.0011
2746.00,0.0011
2745.00,0.0011
2744.00,0.0011
2743.00,0.0011
2742.00,0.0011
2741.00,0.0011
2740.00,0.0010
2739.00,0.0010
2738.00,0.0010
2737.00,0.0010
2736.00,0.0010
2735.00,0.0010
2734.00,0.0010
2733.00,0.0010
2732.00,0.0010
2731.00,0.0010
2730.00,0.0010
2729.00,0.0009
2728.00,0.0009
2727.00,0.0009
2726.00,0.0009
2725.00,0.0009
2724.00,0.0009
2723.00,0.0009
2722.00,0.0009
2721.00,0.0009
2720.00,0.0009
2719.00,0.0008
2718.00,0.0008
2717.00,0.0008
2716.00,0.0008
2715.00,0.0008
2714.00,0.0008
2713.00,0.0008
2712.00,0.0008
2711.00,0.0008
2710.00,0.0008
2709.00,0.0008
2708.00,0.0008
2707.00,0.0008
2706.00,0.0008
2705.00,0.0008
2704.00,0.0008
2703.00,0.0008
2702.00,0.0008
2701.00,0.0008
2700.00,0.0007
2699.00,0.0007
2698.00,0.0007
2697.00,0.0007
2696.00,0.0007
2695.00,0.0007
2694.00,0.0007
2693.00,0.0007
2692.00,0.0007
2691.00,0.0007
2690.00,0.0007
2689.00,0.0007
2688.00,0.0007
2687.00,0.0007
2686.00,0.0007
2685.00,0.0007
2684.00,0.0006
2683.00,0.0006
2682.00,0.0006
2681.00,0.0006
2680.00,0.0006
2679.00,0.0006
2678.00,0.0006
2677.00,0.0006
2676.00,0.0006
2675.00,0.0006
2674.00,0.0006
2673.00,0.0006
2672.00,0.0006
2671.00,0.0006
2670.00,0.0006
2669.00,0.0006
2668.00,0.0006
2667.00,0.0006
2666.00,0.0005
2665.00,0.0005
2664.00,0.0005
2663.00,0.0005
2662.00,0.0005
2661.00,0.0005
2660.00,0.0005
2659.00,0.0005
2658.00,0.0005
2657.00,0.0004
2656.00,0.0004
2655.00,0.0004
2654.00,0.0004
2653.00,0.0004
2652.00,0.0004
2651.00,0.0004
2650.00,0.0004
2649.00,0.0004
2648.00,0.0004
2647.00,0.0004
2646.00,0.0004
2645.00,0.0004
2644.00,0.0004
2643.00,0.0004
2642.00,0.0004
2641.00,0.0004
2640.00,0.0004
2639.00,0.0004
2638.00,0.0004
2637.00,0.0004
2636.00,0.0004
2635.00,0.0004
2634.00,0.0004
2633.00,0.0004
2632.00,0.0004
2631.00,0.0004
2630.00,0.0004
2629.00,0.0004
2628.00,0.0004
2627.00,0.0003
2626.00,0.0003
2625.00,0.0003
2624.00,0.0003
2623.00,0.0004
2622.00,0.0003
2621.00,0.0003
2620.00,0.0003
2619.00,0.0003
2618.00,0.0003
2617.00,0.0003
2616.00,0.0003
2615.00,0.0003
2614.00,0.0003
2613.00,0.0003
2612.00,0.0003
2611.00,0.0003
2610.00,0.0003
2609.00,0.0003
2608.00,0.0003
2607.00,0.0003
2606.00,0.0003
2605.00,0.0003
2604.00,0.0003
2603.00,0.0003
2602.00,0.0003
2601.00,0.0003
2600.00,0.0003
2599.00,0.0003
2598.00,0.0003
2597.00,0.0003
2596.00,0.0003
2595.00,0.0003
2594.00,0.0003
2593.00,0.0003
2592.00,0.0003
2591.00,0.0003
2590.00,0.0003
2589.00,0.0003
2588.00,0.0003
2587.00,0.0003
2586.00,0.0003
2585.00,0.0002
2584.00,0.0002
2583.00,0.0002
2582.00,0.0002
2581.00,0.0002
2580.00,0.0002
2579.00,0.0002
2578.00,0.0002
2577.00,0.0002
2576.00,0.0002
2575.00,0.0002
2574.00,0.0002
2573.00,0.0002
2572.00,0.0002
2571.00,0.0002
2570.00,0.0002
2569.00,0.0002
2568.00,0.0002
2567.00,0.0002
2566.00,0.0002
2565.00,0.0002
2564.00,0.0002
2563.00,0.0002
2562.00,0.0001
2561.00,0.0001
2560.00,0.0001
2559.00,0.0002
2558.00,0.0002
2557.00,0.0002
2556.00,0.0002
2555.00,0.0002
2554.00,0.0002
2553.00,0.0002
2552.00,0.0002
2551.00,0.0002
2550.00,0.0002
2549.00,0.0001
2548.00,0.0001
2547.00,0.0001
2546.00,0.0001
2545.00,0.0001
2544.00,0.0001
2543.00,0.0001
2542.00,0.0001
2541.00,0.0001
2540.00,0.0001
2539.00,0.0001
2538.00,0.0001
2537.00,0.0001
2536.00,0.0001
2535.00,0.0001
2534.00,0.0001
2533.00,0.0001
2532.00,0.0001
2531.00,0.0001
2530.00,0.0001
2529.00,0.0001
2528.00,0.0001
2527.00,0.0001
2526.00,0.0001
2525.00,0.0001
2524.00,0.0001
2523.00,0.0000
2522.00,0.0000
2521.00,0.0000
2520.00,0.0000
2519.00,0.0000
2518.00,0.0000
2517.00,0.0000
2516.00,0.0000
2515.00,0.0001
2514.00,0.0001
2513.00,0.0001
2512.00,0.0000
2511.00,0.0000
2510.00,0.0000
2509.00,0.0000
2508.00,0.0000
2507.00,0.0000
2506.00,0.0000
2505.00,0.0000
2504.00,0.0000
2503.00,0.0000
2502.00,0.0000
2501.00,-0.0000
2500.00,-0.0000
2499.00,-0.0000
2498.00,-0.0000
2497.00,-0.0000
2496.00,-0.0000
2495.00,-0.0000
2494.00,-0.0000
2493.00,-0.0000
2492.00,-0.0000
2491.00,-0.0001
2490.00,-0.0001
2489.00,-0.0001
2488.00,-0.0001
2487.00,-0.0001
2486.00,-0.0001
2485.00,-0.0000
2484.00,-0.0000
2483.00,-0.0001
2482.00,-0.0001
2481.00,-0.0001
2480.00,-0.0001
2479.00,-0.0001
2478.00,-0.0001
2477.00,-0.0001
2476.00,-0.0001
2475.00,-0.0001
2474.00,-0.0001
2473.00,-0.0001
2472.00,-0.0001
2471.00,-0.0001
2470.00,-0.0001
2469.00,-0.0001
2468.00,-0.0001
2467.00,-0.0001
2466.00,-0.0001
2465.00,-0.0001
2464.00,-0.0001
2463.00,-0.0001
2462.00,-0.0001
2461.00,-0.0001
2460.00,-0.0001
2459.00,-0.0001
2458.00,-0.0001
2457.00,-0.0001
2456.00,-0.0001
2455.00,-0.0001
2454.00,-0.0001
2453.00,-0.0001
2452.00,-0.0001
2451.00,-0.0001
2450.00,-0.0002
2449.00,-0.0002
2448.00,-0.0002
2447.00,-0.0002
2446.00,-0.0002
2445.00,-0.0001
2444.00,-0.0001
2443.00,-0.0001
2442.00,-0.0001
2441.00,-0.0002
2440.00,-0.0002
2439.00,-0.0002
2438.00,-0.0002
2437.00,-0.0002
2436.00,-0.0002
2435.00,-0.0002
2434.00,-0.0002
2433.00,-0.0002
2432.00,-0.0002
2431.00,-0.0002
2430.00,-0.0002
2429.00,-0.0002
2428.00,-0.0002
2427.00,-0.0002
2426.00,-0.0002
2425.00,-0.0002
2424.00,-0.0002
2423.00,-0.0002
2422.00,-0.0002
2421.00,-0.0002
2420.00,-0.0002
2419.00,-0.0002
2418.00,-0.0002
2417.00,-0.0002
2416.00,-0.0002
2415.00,-0.0002
2414.00,-0.0002
2413.00,-0.0002
2412.00,-0.0002
2411.00,-0.0002
2410.00,-0.0002
2409.00,-0.0002
2408.00,-0.0002
2407.00,-0.0002
2406.00,-0.0002
2405.00,-0.0002
2404.00,-0.0002
2403.00,-0.0002
2402.00,-0.0002
2401.00,-0.0002
2400.00,-0.0002
2399.00,-0.0002
2398.00,-0.0002
2397.00,-0.0002
2396.00,-0.0002
2395.00,-0.0003
2394.00,-0.0003
2393.00,-0.0003
2392.00,-0.0003
2391.00,-0.0003
2390.00,-0.0003
2389.00,-0.0003
2388.00,-0.0003
2387.00,-0.0003
2386.00,-0.0003
2385.00,-0.0003
2384.00,-0.0003
2383.00,-0.0003
2382.00,-0.0003
2381.00,-0.0003
2380.00,-0.0003
2379.00,-0.0003
2378.00,-0.0003
2377.00,-0.0003
2376.00,-0.0003
2375.00,-0.0003
2374.00,-0.0003
2373.00,-0.0003
2372.00,-0.0003
2371.00,-0.0003
2370.00,-0.0003
2369.00,-0.0003
2368.00,-0.0003
2367.00,-0.0003
2366.00,-0.0003
2365.00,-0.0003
2364.00,-0.0003
2363.00,-0.0003
2362.00,-0.0003
2361.00,-0.0003
2360.00,-0.0003
2359.00,-0.0003
2358.00,-0.0003
2357.00,-0.0003
2356.00,-0.0003
2355.00,-0.0003
2354.00,-0.0003
2353.00,-0.0003
2352.00,-0.0003
2351.00,-0.0003
2350.00,-0.0003
2349.00,-0.0003
2348.00,-0.0003
2347.00,-0.0003
2346.00,-0.0003
2345.00,-0.0003
2344.00,-0.0003
2343.00,-0.0003
2342.00,-0.0003
2341.00,-0.0003
2340.00,-0.0003
2339.00,-0.0003
2338.00,-0.0003
2337.00,-0.0004
2336.00,-0.0004
2335.00,-0.0004
2334.00,-0.0004
2333.00,-0.0004
2332.00,-0.0003
2331.00,-0.0003
2330.00,-0.0003
2329.00,-0.0004
2328.00,-0.0004
2327.00,-0.0004
2326.00,-0.0005
2325.00,-0.0005
2324.00,-0.0005
2323.00,-0.0005
2322.00,-0.0005
2321.00,-0.0005
2320.00,-0.0005
2319.00,-0.0004
2318.00,-0.0004
2317.00,-0.0004
2316.00,-0.0004
2315.00,-0.0004
2314.00,-0.0004
2313.00,-0.0004
2312.00,-0.0004
2311.00,-0.0004
2310.00,-0.0004
2309.00,-0.0004
2308.00,-0.0004
2307.00,-0.0005
2306.00,-0.0005
2305.00,-0.0004
2304.00,-0.0004
2303.00,-0.0004
2302.00,-0.0004
2301.00,-0.0004
2300.00,-0.0004
2299.00,-0.0004
2298.00,-0.0004
2297.00,-0.0004
2296.00,-0.0004
2295.00,-0.0005
2294.00,-0.0005
2293.00,-0.0005
2292.00,-0.0005
2291.00,-0.0005
2290.00,-0.0005
2289.00,-0.0005
2288.00,-0.0005
2287.00,-0.0005
2286.00,-0.0005
2285.00,-0.0005
2284.00,-0.0004
2283.00,-0.0004
2282.00,-0.0004
2281.00,-0.0004
2280.00,-0.0004
2279.00,-0.0004
2278.00,-0.0005
2277.00,-0.0005
2276.00,-0.0005
2275.00,-0.0005
2274.00,-0.0005
2273.00,-0.0004
2272.00,-0.0004
2271.00,-0.0004
2270.00,-0.0004
2269.00,-0.0004
2268.00,-0.0004
2267.00,-0.0004
2266.00,-0.0004
2265.00,-0.0004
2264.00,-0.0004
2263.00,-0.0004
2262.00,-0.0004
2261.00,-0.0004
2260.00,-0.0004
2259.00,-0.0004
2258.00,-0.0004
2257.00,-0.0004
2256.00,-0.0004
2255.00,-0.0004
2254.00,-0.0004
2253.00,-0.0004
2252.00,-0.0004
2251.00,-0.0004
2250.00,-0.0004
2249.00,-0.0004
2248.00,-0.0005
2247.00,-0.0005
2246.00,-0.0005
2245.00,-0.0004
2244.00,-0.0004
2243.00,-0.0004
2242.00,-0.0004
2241.00,-0.0004
2240.00,-0.0003
2239.00,-0.0003
2238.00,-0.0003
2237.00,-0.0003
2236.00,-0.0003
2235.00,-0.0003
2234.00,-0.0003
2233.00,-0.0003
2232.00,-0.0004
2231.00,-0.0004
2230.00,-0.0004
2229.00,-0.0004
2228.00,-0.0004
2227.00,-0.0004
2226.00,-0.0004
2225.00,-0.0004
2224.00,-0.0003
2223.00,-0.0003
2222.00,-0.0003
2221.00,-0.0003
2220.00,-0.0003
2219.00,-0.0003
2218.00,-0.0003
2217.00,-0.0003
2216.00,-0.0003
2215.00,-0.0003
2214.00,-0.0003
2213.00,-0.0004
2212.00,-0.0004
2211.00,-0.0004
2210.00,-0.0004
2209.00,-0.0004
2208.00,-0.0004
2207.00,-0.0004
2206.00,-0.0004
2205.00,-0.0004
2204.00,-0.0004
2203.00,-0.0004
2202.00,-0.0004
2201.00,-0.0004
2200.00,-0.0004
2199.00,-0.0005
2198.00,-0.0005
2197.00,-0.0005
2196.00,-0.0004
2195.00,-0.0004
2194.00,-0.0004
2193.00,-0.0004
2192.00,-0.0004
2191.00,-0.0004
2190.00,-0.0004
2189.00,-0.0004
2188.00,-0.0004
2187.00,-0.0004
2186.00,-0.0004
2185.00,-0.0004
2184.00,-0.0003
2183.00,-0.0003
2182.00,-0.0002
2181.00,-0.0002
2180.00,-0.0002
2179.00,-0.0002
2178.00,-0.0002
2177.00,-0.0002
2176.00,-0.0002
2175.00,-0.0003
2174.00,-0.0004
2173.00,-0.0005
2172.00,-0.0005
2171.00,-0.0006
2170.00,-0.0006
2169.00,-0.0005
2168.00,-0.0004
2167.00,-0.0004
2166.00,-0.0004
2165.00,-0.0004
2164.00,-0.0005
2163.00,-0.0006
2162.00,-0.0006
2161.00,-0.0006
2160.00,-0.0005
2159.00,-0.0003
2158.00,-0.0001
2157.00,0.0001
2156.00,0.0001
2155.00,0.0001
2154.00,0.0000
2153.00,-0.0001
2152.00,-0.0002
2151.00,-0.0003
2150.00,-0.0003
2149.00,-0.0003
2148.00,-0.0003
2147.00,-0.0002
2146.00,-0.0003
2145.00,-0.0003
2144.00,-0.0003
2143.00,-0.0003
2142.00,-0.0002
2141.00,-0.0002
2140.00,-0.0001
2139.00,-0.0001
2138.00,-0.0002
2137.00,-0.0002
2136.00,-0.0002
2135.00,-0.0002
2134.00,-0.0001
2133.00,-0.0001
2132.00,-0.0002
2131.00,-0.0002
2130.00,-0.0003
2129.00,-0.0003
2128.00,-0.0004
2127.00,-0.0003
2126.00,-0.0003
2125.00,-0.0003
2124.00,-0.0003
2123.00,-0.0003
2122.00,-0.0003
2121.00,-0.0003
2120.00,-0.0003
2119.00,-0.0003
2118.00,-0.0003
2117.00,-0.0003
2116.00,-0.0003
2115.00,-0.0003
2114.00,-0.0004
2113.00,-0.0004
2112.00,-0.0003
2111.00,-0.0003
2110.00,-0.0004
2109.00,-0.0004
2108.00,-0.0004
2107.00,-0.0004
2106.00,-0.0004
2105.00,-0.0004
2104.00,-0.0004
2103.00,-0.0004
2102.00,-0.0004
2101.00,-0.0004
2100.00,-0.0004
2099.00,-0.0004
2098.00,-0.0003
2097.00,-0.0003
2096.00,-0.0003
2095.00,-0.0003
2094.00,-0.0003
2093.00,-0.0003
2092.00,-0.0004
2091.00,-0.0004
2090.00,-0.0004
2089.00,-0.0004
2088.00,-0.0004
2087.00,-0.0004
2086.00,-0.0003
2085.00,-0.0003
2084.00,-0.0003
2083.00,-0.0004
2082.00,-0.0004
2081.00,-0.0004
2080.00,-0.0004
2079.00,-0.0004
2078.00,-0.0004
2077.00,-0.0005
2076.00,-0.0004
2075.00,-0.0004
2074.00,-0.0004
2073.00,-0.0004
2072.00,-0.0004
2071.00,-0.0004
2070.00,-0.0004
2069.00,-0.0004
2068.00,-0.0004
2067.00,-0.0004
2066.00,-0.0004
2065.00,-0.0004
2064.00,-0.0004
2063.00,-0.0004
2062.00,-0.0003
2061.00,-0.0004
2060.00,-0.0004
2059.00,-0.0005
2058.00,-0.0005
2057.00,-0.0006
2056.00,-0.0005
2055.00,-0.0005
2054.00,-0.0005
2053.00,-0.0005
2052.00,-0.0005
2051.00,-0.0005
2050.00,-0.0005
2049.00,-0.0005
2048.00,-0.0005
2047.00,-0.0005
2046.00,-0.0006
2045.00,-0.0006
2044.00,-0.0006
2043.00,-0.0006
2042.00,-0.0006
2041.00,-0.0005
2040.00,-0.0004
2039.00,-0.0003
2038.00,-0.0003
2037.00,-0.0002
2036.00,-0.0002
2035.00,-0.0002
2034.00,-0.0004
2033.00,-0.0005
2032.00,-0.0006
2031.00,-0.0006
2030.00,-0.0005
2029.00,-0.0005
2028.00,-0.0004
2027.00,-0.0004
2026.00,-0.0003
2025.00,-0.0003
2024.00,-0.0003
2023.00,-0.0003
2022.00,-0.0003
2021.00,-0.0003
2020.00,-0.0004
2019.00,-0.0004
2018.00,-0.0004
2017.00,-0.0004
2016.00,-0.0004
2015.00,-0.0004
2014.00,-0.0004
2013.00,-0.0004
2012.00,-0.0004
2011.00,-0.0003
2010.00,-0.0004
2009.00,-0.0004
2008.00,-0.0004
2007.00,-0.0004
2006.00,-0.0003
2005.00,-0.0003
2004.00,-0.0003
2003.00,-0.0003
2002.00,-0.0003
2001.00,-0.0004
2000.00,-0.0003
1999.00,-0.0003
1998.00,-0.0003
1997.00,-0.0003
1996.00,-0.0004
1995.00,-0.0004
1994.00,-0.0005
1993.00,-0.0005
1992.00,-0.0005
1991.00,-0.0005
1990.00,-0.0005
1989.00,-0.0005
1988.00,-0.0004
1987.00,-0.0004
1986.00,-0.0004
1985.00,-0.0005
1984.00,-0.0005
1983.00,-0.0005
1982.00,-0.0005
1981.00,-0.0005
1980.00,-0.0004
1979.00,-0.0003
1978.00,-0.0002
1977.00,-0.0002
1976.00,-0.0002
1975.00,-0.0002
1974.00,-0.0003
1973.00,-0.0003
1972.00,-0.0004
1971.00,-0.0004
1970.00,-0.0005
1969.00,-0.0005
1968.00,-0.0006
1967.00,-0.0006
1966.00,-0.0006
1965.00,-0.0005
1964.00,-0.0005
1963.00,-0.0005
1962.00,-0.0005
1961.00,-0.0005
1960.00,-0.0004
1959.00,-0.0004
1958.00,-0.0004
1957.00,-0.0004
1956.00,-0.0003
1955.00,-0.0004
1954.00,-0.0004
1953.00,-0.0004
1952.00,-0.0004
1951.00,-0.0004
1950.00,-0.0005
1949.00,-0.0005
1948.00,-0.0005
1947.00,-0.0005
1946.00,-0.0005
1945.00,-0.0006
1944.00,-0.0006
1943.00,-0.0005
1942.00,-0.0004
1941.00,-0.0004
1940.00,-0.0003
1939.00,-0.0004
1938.00,-0.0004
1937.00,-0.0004
1936.00,-0.0004
1935.00,-0.0004
1934.00,-0.0005
1933.00,-0.0005
1932.00,-0.0005
1931.00,-0.0005
1930.00,-0.0006
1929.00,-0.0006
1928.00,-0.0006
1927.00,-0.0006
1926.00,-0.0006
1925.00,-0.0005
1924.00,-0.0005
1923.00,-0.0004
1922.00,-0.0004
1921.00,-0.0005
1920.00,-0.0005
1919.00,-0.0005
1918.00,-0.0005
1917.00,-0.0005
1916.00,-0.0005
1915.00,-0.0006
1914.00,-0.0006
1913.00,-0.0006
1912.00,-0.0005
1911.00,-0.0005
1910.00,-0.0005
1909.00,-0.0005
1908.00,-0.0005
1907.00,-0.0005
1906.00,-0.0005
1905.00,-0.0005
1904.00,-0.0005
1903.00,-0.0006
1902.00,-0.0006
1901.00,-0.0005
1900.00,-0.0005
1899.00,-0.0005
1898.00,-0.0005
1897.00,-0.0006
1896.00,-0.0006
1895.00,-0.0005
1894.00,-0.0005
1893.00,-0.0005
1892.00,-0.0005
1891.00,-0.0005
1890.00,-0.0005
1889.00,-0.0005
1888.00,-0.0005
1887.00,-0.0005
1886.00,-0.0005
1885.00,-0.0005
1884.00,-0.0005
1883.00,-0.0005
1882.00,-0.0005
1881.00,-0.0005
1880.00,-0.0005
1879.00,-0.0005
1878.00,-0.0005
1877.00,-0.0005
1876.00,-0.0005
1875.00,-0.0006
1874.00,-0.0006
1873.00,-0.0006
1872.00,-0.0006
1871.00,-0.0006
1870.00,-0.0006
1869.00,-0.0006
1868.00,-0.0006
1867.00,-0.0006
1866.00,-0.0006
1865.00,-0.0006
1864.00,-0.0006
1863.00,-0.0006
1862.00,-0.0006
1861.00,-0.0005
1860.00,-0.0005
1859.00,-0.0005
1858.00,-0.0005
1857.00,-0.0005
1856.00,-0.0005
1855.00,-0.0005
1854.00,-0.0006
1853.00,-0.0006
1852.00,-0.0006
1851.00,-0.0006
1850.00,-0.0006
1849.00,-0.0005
1848.00,-0.0005
1847.00,-0.0005
1846.00,-0.0005
1845.00,-0.0005
1844.00,-0.0004
1843.00,-0.0004
1842.00,-0.0005
1841.00,-0.0006
1840.00,-0.0006
1839.00,-0.0006
1838.00,-0.0006
1837.00,-0.0006
1836.00,-0.0006
1835.00,-0.0006
1834.00,-0.0006
1833.00,-0.0006
1832.00,-0.0007
1831.00,-0.0007
1830.00,-0.0006
1829.00,-0.0006
1828.00,-0.0006
1827.00,-0.0006
1826.00,-0.0006
1825.00,-0.0005
1824.00,-0.0005
1823.00,-0.0005
1822.00,-0.0006
1821.00,-0.0006
1820.00,-0.0005
1819.00,-0.0005
1818.00,-0.0005
1817.00,-0.0005
1816.00,-0.0005
1815.00,-0.0005
1814.00,-0.0006
1813.00,-0.0006
1812.00,-0.0006
1811.00,-0.0006
1810.00,-0.0005
1809.00,-0.0005
1808.00,-0.0005
1807.00,-0.0005
1806.00,-0.0005
1805.00,-0.0006
1804.00,-0.0006
1803.00,-0.0006
1802.00,-0.0006
1801.00,-0.0006
1800.00,-0.0005
1799.00,-0.0005
1798.00,-0.0005
1797.00,-0.0006
1796.00,-0.0006
1795.00,-0.0006
1794.00,-0.0005
1793.00,-0.0005
1792.00,-0.0004
1791.00,-0.0004
1790.00,-0.0004
1789.00,-0.0005
1788.00,-0.0005
1787.00,-0.0005
1786.00,-0.0004
1785.00,-0.0004
1784.00,-0.0004
1783.00,-0.0005
1782.00,-0.0005
1781.00,-0.0005
1780.00,-0.0004
1779.00,-0.0004
1778.00,-0.0005
1777.00,-0.0005
1776.00,-0.0005
1775.00,-0.0005
1774.00,-0.0005
1773.00,-0.0005
1772.00,-0.0004
1771.00,-0.0003
1770.00,-0.0003
1769.00,-0.0003
1768.00,-0.0002
1767.00,-0.0002
1766.00,-0.0003
1765.00,-0.0004
1764.00,-0.0004
1763.00,-0.0003
1762.00,-0.0003
1761.00,-0.0002
1760.00,-0.0002
1759.00,-0.0003
1758.00,-0.0002
1757.00,-0.0002
1756.00,-0.0001
1755.00,-0.0001
1754.00,-0.0001
1753.00,-0.0001
1752.00,-0.0001
1751.00,-0.0001
1750.00,-0.0001
1749.00,-0.0001
1748.00,-0.0001
1747.00,-0.0001
1746.00,-0.0000
1745.00,-0.0000
1744.00,0.0000
1743.00,0.0001
1742.00,0.0001
1741.00,0.0001
1740.00,0.0002
1739.00,0.0003
1738.00,0.0003
1737.00,0.0003
1736.00,0.0004
1735.00,0.0005
1734.00,0.0006
1733.00,0.0006
1732.00,0.0005
1731.00,0.0005
1730.00,0.0005
1729.00,0.0005
1728.00,0.0006
1727.00,0.0006
1726.00,0.0006
1725.00,0.0007
1724.00,0.0007
1723.00,0.0008
1722.00,0.0008
1721.00,0.0008
1720.00,0.0008
1719.00,0.0009
1718.00,0.0010
1717.00,0.0011
1716.00,0.0012
1715.00,0.0012
1714.00,0.0013
1713.00,0.0014
1712.00,0.0015
1711.00,0.0016
1710.00,0.0017
1709.00,0.0018
1708.00,0.0019
1707.00,0.0020
1706.00,0.0023
1705.00,0.0026
1704.00,0.0029
1703.00,0.0033
1702.00,0.0037
1701.00,0.0042
1700.00,0.0048
1699.00,0.0052
1698.00,0.0055
1697.00,0.0058
1696.00,0.0062
1695.00,0.0065
1694.00,0.0066
1693.00,0.0067
1692.00,0.0067
1691.00,0.0069
1690.00,0.0070
1689.00,0.0072
1688.00,0.0074
1687.00,0.0076
1686.00,0.0078
1685.00,0.0080
1684.00,0.0082
1683.00,0.0084
1682.00,0.0086
1681.00,0.0088
1680.00,0.0090
1679.00,0.0093
1678.00,0.0096
1677.00,0.0099
1676.00,0.0101
1675.00,0.0103
1674.00,0.0105
1673.00,0.0106
1672.00,0.0108
1671.00,0.0111
1670.00,0.0113
1669.00,0.0115
1668.00,0.0118
1667.00,0.0120
1666.00,0.0123
1665.00,0.0125
1664.00,0.0128
1663.00,0.0130
1662.00,0.0132
1661.00,0.0135
1660.00,0.0137
1659.00,0.0140
1658.00,0.0143
1657.00,0.0147
1656.00,0.0151
1655.00,0.0154
1654.00,0.0155
1653.00,0.0154
1652.00,0.0154
1651.00,0.0155
1650.00,0.0157
1649.00,0.0159
1648.00,0.0160
1647.00,0.0160
1646.00,0.0160
1645.00,0.0161
1644.00,0.0162
1643.00,0.0163
1642.00,0.0165
1641.00,0.0166
1640.00,0.0167
1639.00,0.0169
1638.00,0.0170
1637.00,0.0171
1636.00,0.0171
1635.00,0.0171
1634.00,0.0172
1633.00,0.0174
1632.00,0.0177
1631.00,0.0180
1630.00,0.0182
1629.00,0.0184
1628.00,0.0186
1627.00,0.0189
1626.00,0.0193
1625.00,0.0195
1624.00,0.0198
1623.00,0.0200
1622.00,0.0202
1621.00,0.0205
1620.00,0.0209
1619.00,0.0212
1618.00,0.0212
1617.00,0.0211
1616.00,0.0208
1615.00,0.0206
1614.00,0.0205
1613.00,0.0204
1612.00,0.0201
1611.00,0.0198
1610.00,0.0193
1609.00,0.0188
1608.00,0.0182
1607.00,0.0177
1606.00,0.0172
1605.00,0.0167
1604.00,0.0163
1603.00,0.0158
1602.00,0.0153
1601.00,0.0149
1600.00,0.0145
1599.00,0.0141
1598.00,0.0138
1597.00,0.0135
1596.00,0.0132
1595.00,0.0129
1594.00,0.0127
1593.00,0.0124
1592.00,0.0122
1591.00,0.0121
1590.00,0.0119
1589.00,0.0117
1588.00,0.0116
1587.00,0.0115
1586.00,0.0114
1585.00,0.0113
1584.00,0.0112
1583.00,0.0111
1582.00,0.0111
1581.00,0.0111
1580.00,0.0111
1579.00,0.0111
1578.00,0.0111
1577.00,0.0112
1576.00,0.0112
1575.00,0.0112
1574.00,0.0113
1573.00,0.0114
1572.00,0.0115
1571.00,0.0116
1570.00,0.0117
1569.00,0.0118
1568.00,0.0120
1567.00,0.0121
1566.00,0.0123
1565.00,0.0125
1564.00,0.0127
1563.00,0.0131
1562.00,0.0134
1561.00,0.0137
1560.00,0.0138
1559.00,0.0138
1558.00,0.0139
1557.00,0.0141
1556.00,0.0144
1555.00,0.0146
1554.00,0.0149
1553.00,0.0151
1552.00,0.0154
1551.00,0.0155
1550.00,0.0157
1549.00,0.0159
1548.00,0.0162
1547.00,0.0165
1546.00,0.0167
1545.00,0.0168
1544.00,0.0169
1543.00,0.0171
1542.00,0.0172
1541.00,0.0172
1540.00,0.0172
1539.00,0.0173
1538.00,0.0175
1537.00,0.0177
1536.00,0.0180
1535.00,0.0182
1534.00,0.0182
1533.00,0.0182
1532.00,0.0183
1531.00,0.0185
1530.00,0.0186
1529.00,0.0188
1528.00,0.0189
1527.00,0.0189
1526.00,0.0189
1525.00,0.0190
1524.00,0.0191
1523.00,0.0191
1522.00,0.0191
1521.00,0.0190
1520.00,0.0189
1519.00,0.0190
1518.00,0.0190
1517.00,0.0190
1516.00,0.0189
1515.00,0.0189
1514.00,0.0189
1513.00,0.0189
1512.00,0.0187
1511.00,0.0185
1510.00,0.0184
1509.00,0.0181
1508.00,0.0177
1507.00,0.0170
1506.00,0.0164
1505.00,0.0160
1504.00,0.0158
1503.00,0.0156
1502.00,0.0155
1501.00,0.0152
1500.00,0.0149
1499.00,0.0146
1498.00,0.0143
1497.00,0.0138
1496.00,0.0134
1495.00,0.0130
1494.00,0.0127
1493.00,0.0125
1492.00,0.0121
1491.00,0.0117
1490.00,0.0113
1489.00,0.0109
1488.00,0.0105
1487.00,0.0103
1486.00,0.0100
1485.00,0.0098
1484.00,0.0096
1483.00,0.0095
1482.00,0.0093
1481.00,0.0091
1480.00,0.0090
1479.00,0.0090
1478.00,0.0089
1477.00,0.0089
1476.00,0.0089
1475.00,0.0089
1474.00,0.0090
1473.00,0.0091
1472.00,0.0091
1471.00,0.0092
1470.00,0.0093
1469.00,0.0093
1468.00,0.0094
1467.00,0.0095
1466.00,0.0095
1465.00,0.0095
1464.00,0.0095
1463.00,0.0095
1462.00,0.0096
1461.00,0.0097
1460.00,0.0098
1459.00,0.0099
1458.00,0.0101
1457.00,0.0102
1456.00,0.0103
1455.00,0.0103
1454.00,0.0103
1453.00,0.0103
1452.00,0.0103
1451.00,0.0104
1450.00,0.0103
1449.00,0.0103
1448.00,0.0102
1447.00,0.0102
1446.00,0.0101
1445.00,0.0101
1444.00,0.0100
1443.00,0.0099
1442.00,0.0099
1441.00,0.0098
1440.00,0.0098
1439.00,0.0098
1438.00,0.0098
1437.00,0.0097
1436.00,0.0094
1435.00,0.0092
1434.00,0.0090
1433.00,0.0089
1432.00,0.0087
1431.00,0.0086
1430.00,0.0085
1429.00,0.0084
1428.00,0.0084
1427.00,0.0083
1426.00,0.0083
1425.00,0.0083
1424.00,0.0083
1423.00,0.0084
1422.00,0.0085
1421.00,0.0087
1420.00,0.0088
1419.00,0.0088
1418.00,0.0089
1417.00,0.0090
1416.00,0.0090
1415.00,0.0091
1414.00,0.0093
1413.00,0.0094
1412.00,0.0095
1411.00,0.0096
1410.00,0.0097
1409.00,0.0098
1408.00,0.0099
1407.00,0.0099
1406.00,0.0100
1405.00,0.0101
1404.00,0.0101
1403.00,0.0102
1402.00,0.0102
1401.00,0.0103
1400.00,0.0103
1399.00,0.0104
1398.00,0.0104
1397.00,0.0104
1396.00,0.0104
1395.00,0.0105
1394.00,0.0105
1393.00,0.0105
1392.00,0.0105
1391.00,0.0105
1390.00,0.0106
1389.00,0.0106
1388.00,0.0106
1387.00,0.0105
1386.00,0.0104
1385.00,0.0103
1384.00,0.0102
1383.00,0.0101
1382.00,0.0100
1381.00,0.0099
1380.00,0.0098
1379.00,0.0097
1378.00,0.0096
1377.00,0.0095
1376.00,0.0094
1375.00,0.0093
1374.00,0.0092
1373.00,0.0092
1372.00,0.0091
1371.00,0.0090
1370.00,0.0090
1369.00,0.0089
1368.00,0.0088
1367.00,0.0087
1366.00,0.0085
1365.00,0.0084
1364.00,0.0083
1363.00,0.0081
1362.00,0.0080
1361.00,0.0080
1360.00,0.0079
1359.00,0.0079
1358.00,0.0079
1357.00,0.0079
1356.00,0.0079
1355.00,0.0079
1354.00,0.0080
1353.00,0.0080
1352.00,0.0081
1351.00,0.0082
1350.00,0.0082
1349.00,0.0083
1348.00,0.0083
1347.00,0.0083
1346.00,0.0083
1345.00,0.0083
1344.00,0.0082
1343.00,0.0082
1342.00,0.0082
1341.00,0.0081
1340.00,0.0081
1339.00,0.0080
1338.00,0.0080
1337.00,0.0079
1336.00,0.0079
1335.00,0.0078
1334.00,0.0078
1333.00,0.0077
1332.00,0.0077
1331.00,0.0077
1330.00,0.0076
1329.00,0.0076
1328.00,0.0076
1327.00,0.0076
1326.00,0.0075
1325.00,0.0075
1324.00,0.0075
1323.00,0.0075
1322.00,0.0075
1321.00,0.0075
1320.00,0.0075
1319.00,0.0075
1318.00,0.0075
1317.00,0.0075
1316.00,0.0075
1315.00,0.0075
1314.00,0.0075
1313.00,0.0075
1312.00,0.0074
1311.00,0.0074
1310.00,0.0074
1309.00,0.0074
1308.00,0.0074
1307.00,0.0074
1306.00,0.0073
1305.00,0.0073
1304.00,0.0073
1303.00,0.0073
1302.00,0.0073
1301.00,0.0072
1300.00,0.0072
1299.00,0.0072
1298.00,0.0072
1297.00,0.0072
1296.00,0.0072
1295.00,0.0072
1294.00,0.0073
1293.00,0.0073
1292.00,0.0073
1291.00,0.0073
1290.00,0.0073
1289.00,0.0074
1288.00,0.0074
1287.00,0.0074
1286.00,0.0074
1285.00,0.0074
1284.00,0.0074
1283.00,0.0074
1282.00,0.0074
1281.00,0.0074
1280.00,0.0074
1279.00,0.0075
1278.00,0.0075
1277.00,0.0074
1276.00,0.0074
1275.00,0.0074
1274.00,0.0075
1273.00,0.0075
1272.00,0.0075
1271.00,0.0075
1270.00,0.0075
1269.00,0.0076
1268.00,0.0076
1267.00,0.0077
1266.00,0.0078
1265.00,0.0078
1264.00,0.0079
1263.00,0.0080
1262.00,0.0081
1261.00,0.0082
1260.00,0.0083
1259.00,0.0084
1258.00,0.0085
1257.00,0.0085
1256.00,0.0086
1255.00,0.0087
1254.00,0.0088
1253.00,0.0089
1252.00,0.0090
1251.00,0.0092
1250.00,0.0093
1249.00,0.0093
1248.00,0.0094
1247.00,0.0095
1246.00,0.0096
1245.00,0.0097
1244.00,0.0097
1243.00,0.0098
1242.00,0.0098
1241.00,0.0099
1240.00,0.0100
1239.00,0.0100
1238.00,0.0100
1237.00,0.0100
1236.00,0.0101
1235.00,0.0101
1234.00,0.0101
1233.00,0.0101
1232.00,0.0100
1231.00,0.0100
1230.00,0.0100
1229.00,0.0099
1228.00,0.0099
1227.00,0.0099
1226.00,0.0098
1225.00,0.0097
1224.00,0.0096
1223.00,0.0096
1222.00,0.0095
1221.00,0.0094
1220.00,0.0093
1219.00,0.0092
1218.00,0.0090
1217.00,0.0089
1216.00,0.0088
1215.00,0.0086
1214.00,0.0085
1213.00,0.0084
1212.00,0.0082
1211.00,0.0080
1210.00,0.0079
1209.00,0.0077
1208.00,0.0075
1207.00,0.0074
1206.00,0.0072
1205.00,0.0071
1204.00,0.0070
1203.00,0.0069
1202.00,0.0068
1201.00,0.0067
1200.00,0.0066
1199.00,0.0065
1198.00,0.0064
1197.00,0.0063
1196.00,0.0062
1195.00,0.0062
1194.00,0.0061
1193.00,0.0061
1192.00,0.0060
1191.00,0.0060
1190.00,0.0060
1189.00,0.0059
1188.00,0.0059
1187.00,0.0059
1186.00,0.0059
1185.00,0.0058
1184.00,0.0058
1183.00,0.0058
1182.00,0.0058
1181.00,0.0058
1180.00,0.0058
1179.00,0.0058
1178.00,0.0059
1177.00,0.0060
1176.00,0.0061
1175.00,0.0061
1174.00,0.0062
1173.00,0.0063
1172.00,0.0064
1171.00,0.0064
1170.00,0.0065
1169.00,0.0065
1168.00,0.0065
1167.00,0.0066
1166.00,0.0066
1165.00,0.0066
1164.00,0.0066
1163.00,0.0066
1162.00,0.0066
1161.00,0.0066
1160.00,0.0066
1159.00,0.0066
1158.00,0.0067
1157.00,0.0067
1156.00,0.0066
1155.00,0.0066
1154.00,0.0066
1153.00,0.0065
1152.00,0.0065
1151.00,0.0065
1150.00,0.0064
1149.00,0.0064
1148.00,0.0063
1147.00,0.0063
1146.00,0.0062
1145.00,0.0062
1144.00,0.0061
1143.00,0.0061
1142.00,0.0061
1141.00,0.0061
1140.00,0.0061
1139.00,0.0061
1138.00,0.0061
1137.00,0.0061
1136.00,0.0061
1135.00,0.0061
1134.00,0.0062
1133.00,0.0062
1132.00,0.0062
1131.00,0.0063
1130.00,0.0063
1129.00,0.0064
1128.00,0.0065
1127.00,0.0065
1126.00,0.0066
1125.00,0.0066
1124.00,0.0066
1123.00,0.0067
1122.00,0.0067
1121.00,0.0067
1120.00,0.0068
1119.00,0.0068
1118.00,0.0069
1117.00,0.0069
1116.00,0.0070
1115.00,0.0070
1114.00,0.0070
1113.00,0.0070
1112.00,0.0071
1111.00,0.0071
1110.00,0.0071
1109.00,0.0072
1108.00,0.0072
1107.00,0.0072
1106.00,0.0072
1105.00,0.0073
1104.00,0.0073
1103.00,0.0073
1102.00,0.0073
1101.00,0.0074
1100.00,0.0074
1099.00,0.0074
1098.00,0.0075
1097.00,0.0076
1096.00,0.0077
1095.00,0.0078
1094.00,0.0078
1093.00,0.0079
1092.00,0.0080
1091.00,0.0082
1090.00,0.0083
1089.00,0.0085
1088.00,0.0086
1087.00,0.0088
1086.00,0.0089
1085.00,0.0091
1084.00,0.0092
1083.00,0.0093
1082.00,0.0095
1081.00,0.0096
1080.00,0.0097
1079.00,0.0098
1078.00,0.0099
1077.00,0.0100
1076.00,0.0100
1075.00,0.0101
1074.00,0.0101
1073.00,0.0102
1072.00,0.0102
1071.00,0.0102
1070.00,0.0102
1069.00,0.0102
1068.00,0.0102
1067.00,0.0102
1066.00,0.0102
1065.00,0.0102
1064.00,0.0102
1063.00,0.0101
1062.00,0.0101
1061.00,0.0100
1060.00,0.0099
1059.00,0.0099
1058.00,0.0098
1057.00,0.0097
1056.00,0.0096
1055.00,0.0096
1054.00,0.0095
1053.00,0.0094
1052.00,0.0093
1051.00,0.0092
1050.00,0.0091
1049.00,0.0091
1048.00,0.0090
1047.00,0.0089
1046.00,0.0088
1045.00,0.0087
1044.00,0.0086
1043.00,0.0085
1042.00,0.0084
1041.00,0.0083
1040.00,0.0082
1039.00,0.0081
1038.00,0.0080
1037.00,0.0079
1036.00,0.0078
1035.00,0.0078
1034.00,0.0077
1033.00,0.0076
1032.00,0.0075
1031.00,0.0075
1030.00,0.0074
1029.00,0.0073
1028.00,0.0072
1027.00,0.0071
1026.00,0.0070
1025.00,0.0069
1024.00,0.0068
1023.00,0.0067
1022.00,0.0065
1021.00,0.0064
1020.00,0.0063
1019.00,0.0062
1018.00,0.0060
1017.00,0.0059
1016.00,0.0058
1015.00,0.0057
1014.00,0.0056
1013.00,0.0054
1012.00,0.0053
1011.00,0.0052
1010.00,0.0050
1009.00,0.0049
1008.00,0.0048
1007.00,0.0047
1006.00,0.0046
1005.00,0.0045
1004.00,0.0044
1003.00,0.0043
1002.00,0.0042
1001.00,0.0042
1000.00,0.0041
999.00,0.0040
998.00,0.0040
997.00,0.0039
996.00,0.0039
995.00,0.0039
994.00,0.0038
993.00,0.0038
992.00,0.0038
991.00,0.0037
990.00,0.0037
989.00,0.0037
988.00,0.0037
987.00,0.0037
986.00,0.0037
985.00,0.0038
984.00,0.0038
983.00,0.0038
982.00,0.0038
981.00,0.0039
980.00,0.0039
979.00,0.0040
978.00,0.0041
977.00,0.0041
976.00,0.0042
975.00,0.0042
974.00,0.0042
973.00,0.0042
972.00,0.0042
971.00,0.0042
970.00,0.0042
969.00,0.0042
968.00,0.0042
967.00,0.0042
966.00,0.0041
965.00,0.0041
964.00,0.0040
963.00,0.0040
962.00,0.0040
961.00,0.0040
960.00,0.0040
959.00,0.0039
958.00,0.0039
957.00,0.0039
956.00,0.0039
955.00,0.0038
954.00,0.0038
953.00,0.0038
952.00,0.0038
951.00,0.0038
950.00,0.0038
949.00,0.0038
948.00,0.0038
947.00,0.0038
946.00,0.0038
945.00,0.0038
944.00,0.0038
943.00,0.0038
942.00,0.0038
941.00,0.0038
940.00,0.0038
939.00,0.0038
938.00,0.0038
937.00,0.0039
936.00,0.0039
935.00,0.0039
934.00,0.0039
933.00,0.0039
932.00,0.0038
931.00,0.0038
930.00,0.0038
929.00,0.0037
928.00,0.0037
927.00,0.0037
926.00,0.0036
925.00,0.0036
924.00,0.0035
923.00,0.0034
922.00,0.0034
921.00,0.0034
920.00,0.0033
919.00,0.0033
918.00,0.0032
917.00,0.0032
916.00,0.0032
915.00,0.0031
914.00,0.0031
913.00,0.0031
912.00,0.0031
911.00,0.0030
910.00,0.0030
909.00,0.0030
908.00,0.0030
907.00,0.0030
906.00,0.0030
905.00,0.0031
904.00,0.0031
903.00,0.0031
902.00,0.0031
901.00,0.0031
900.00,0.0031
899.00,0.0031
898.00,0.0031
897.00,0.0031
896.00,0.0031
895.00,0.0030
894.00,0.0030
893.00,0.0030
892.00,0.0030
891.00,0.0030
890.00,0.0030
889.00,0.0031
888.00,0.0031
887.00,0.0031
886.00,0.0031
885.00,0.0031
884.00,0.0031
883.00,0.0031
882.00,0.0030
881.00,0.0030
880.00,0.0030
879.00,0.0030
878.00,0.0030
877.00,0.0030
876.00,0.0030
875.00,0.0030
874.00,0.0030
873.00,0.0030
872.00,0.0030
871.00,0.0030
870.00,0.0030
869.00,0.0030
868.00,0.0030
867.00,0.0030
866.00,0.0030
865.00,0.0030
864.00,0.0030
863.00,0.0030
862.00,0.0030
861.00,0.0031
860.00,0.0031
859.00,0.0032
858.00,0.0033
857.00,0.0033
856.00,0.0034
855.00,0.0034
854.00,0.0034
853.00,0.0035
852.00,0.0036
851.00,0.0036
850.00,0.0036
849.00,0.0036
848.00,0.0036
847.00,0.0037
846.00,0.0037
845.00,0.0037
844.00,0.0037
843.00,0.0038
842.00,0.0038
841.00,0.0039
840.00,0.0039
839.00,0.0040
838.00,0.0041
837.00,0.0042
836.00,0.0042
835.00,0.0043
834.00,0.0044
833.00,0.0045
832.00,0.0046
831.00,0.0046
830.00,0.0047
829.00,0.0048
828.00,0.0048
827.00,0.0048
826.00,0.0048
825.00,0.0048
824.00,0.0048
823.00,0.0048
822.00,0.0049
821.00,0.0049
820.00,0.0049
819.00,0.0050
818.00,0.0050
817.00,0.0050
816.00,0.0051
815.00,0.0051
814.00,0.0052
813.00,0.0052
812.00,0.0053
811.00,0.0053
810.00,0.0053
809.00,0.0054
808.00,0.0054
807.00,0.0055
806.00,0.0055
805.00,0.0056
804.00,0.0056
803.00,0.0057
802.00,0.0057
801.00,0.0058
800.00,0.0058
799.00,0.0059
798.00,0.0059
797.00,0.0060
796.00,0.0060
795.00,0.0061
794.00,0.0062
793.00,0.0063
792.00,0.0064
791.00,0.0066
790.00,0.0067
789.00,0.0068
788.00,0.0068
787.00,0.0069
786.00,0.0070
785.00,0.0071
784.00,0.0072
783.00,0.0073
782.00,0.0074
781.00,0.0074
780.00,0.0075
779.00,0.0076
778.00,0.0076
777.00,0.0077
776.00,0.0077
775.00,0.0078
774.00,0.0079
773.00,0.0079
772.00,0.0080
771.00,0.0081
770.00,0.0081
769.00,0.0081
768.00,0.0082
767.00,0.0082
766.00,0.0083
765.00,0.0083
764.00,0.0084
763.00,0.0084
762.00,0.0084
761.00,0.0085
760.00,0.0085
759.00,0.0085
758.00,0.0086
757.00,0.0086
756.00,0.0087
755.00,0.0087
754.00,0.0088
753.00,0.0088
752.00,0.0089
751.00,0.0090
750.00,0.0091
749.00,0.0091
748.00,0.0092
747.00,0.0092
746.00,0.0093
745.00,0.0093
744.00,0.0094
743.00,0.0094
742.00,0.0095
741.00,0.0095
740.00,0.0095
739.00,0.0095
738.00,0.0096
737.00,0.0096
736.00,0.0097
735.00,0.0098
734.00,0.0099
733.00,0.0100
732.00,0.0101
731.00,0.0102
730.00,0.0103
729.00,0.0104
728.00,0.0105
727.00,0.0107
726.00,0.0108
725.00,0.0110
724.00,0.0112
723.00,0.0114
722.00,0.0115
721.00,0.0117
720.00,0.0119
719.00,0.0120
718.00,0.0122
717.00,0.0123
716.00,0.0125
715.00,0.0126
714.00,0.0127
713.00,0.0129
712.00,0.0130
711.00,0.0131
710.00,0.0132
709.00,0.0133
708.00,0.0135
707.00,0.0137
706.00,0.0139
705.00,0.0140
704.00,0.0142
703.00,0.0143
702.00,0.0144
701.00,0.0146
700.00,0.0147
699.00,0.0148
698.00,0.0148
697.00,0.0149
696.00,0.0149
695.00,0.0149
694.00,0.0149
693.00,0.0149
692.00,0.0149
691.00,0.0149
690.00,0.0149
689.00,0.0149
688.00,0.0150
687.00,0.0151
686.00,0.0151
685.00,0.0152
684.00,0.0152
683.00,0.0151
682.00,0.0152
681.00,0.0152
680.00,0.0152
679.00,0.0153
678.00,0.0154
677.00,0.0154
676.00,0.0154
675.00,0.0155
674.00,0.0155
673.00,0.0155
672.00,0.0155
671.00,0.0156
670.00,0.0156
669.00,0.0156
668.00,0.0156
667.00,0.0155
666.00,0.0156
665.00,0.0156
664.00,0.0157
663.00,0.0158
662.00,0.0158
661.00,0.0158
660.00,0.0159
659.00,0.0159
658.00,0.0159
657.00,0.0160
656.00,0.0160
655.00,0.0161
654.00,0.0161
653.00,0.0162
652.00,0.0162
651.00,0.0163
650.00,0.0163
649.00,0.0163
648.00,0.0163
647.00,0.0163
646.00,0.0164
645.00,0.0165
644.00,0.0165
643.00,0.0166
642.00,0.0166
641.00,0.0166
640.00,0.0167
639.00,0.0167
638.00,0.0168
637.00,0.0169
636.00,0.0169
635.00,0.0170
634.00,0.0170
633.00,0.0170
632.00,0.0171
631.00,0.0171
630.00,0.0171
629.00,0.0172
628.00,0.0173
627.00,0.0173
626.00,0.0174
625.00,0.0175
624.00,0.0175
623.00,0.0176
622.00,0.0176
621.00,0.0177
620.00,0.0177
619.00,0.0177
618.00,0.0177
617.00,0.0177
616.00,0.0177
615.00,0.0176
614.00,0.0176
613.00,0.0176
612.00,0.0177
611.00,0.0178
610.00,0.0178
609.00,0.0178
608.00,0.0178
607.00,0.0178
606.00,0.0178
605.00,0.0178
604.00,0.0177
603.00,0.0177
602.00,0.0178
601.00,0.0178
600.00,0.0179
599.00,0.0179
598.00,0.0179
597.00,0.0179
596.00,0.0179
595.00,0.0179
594.00,0.0180
593.00,0.0180
592.00,0.0180
591.00,0.0180
590.00,0.0181
589.00,0.0181
588.00,0.0182
587.00,0.0182
586.00,0.0182
585.00,0.0183
584.00,0.0183
583.00,0.0183
582.00,0.0183
581.00,0.0183
580.00,0.0184
579.00,0.0184
578.00,0.0185
577.00,0.0186
576.00,0.0187
575.00,0.0187
574.00,0.0188
573.00,0.0188
572.00,0.0188
571.00,0.0189
570.00,0.0189
569.00,0.0190
568.00,0.0191
567.00,0.0191
566.00,0.0191
565.00,0.0192
564.00,0.0192
563.00,0.0192
562.00,0.0193
561.00,0.0194
560.00,0.0195
559.00,0.0195
558.00,0.0196
557.00,0.0196
556.00,0.0197
555.00,0.0198
554.00,0.0200
553.00,0.0201
552.00,0.0202
551.00,0.0202
550.00,0.0202
549.00,0.0203
548.00,0.0203
547.00,0.0202
546.00,0.0203
545.00,0.0203
544.00,0.0204
543.00,0.0205
542.00,0.0206
541.00,0.0206
540.00,0.0207
539.00,0.0208
538.00,0.0208
537.00,0.0209
536.00,0.0209
535.00,0.0209
534.00,0.0210
533.00,0.0211
532.00,0.0211
531.00,0.0212
530.00,0.0213
529.00,0.0214
528.00,0.0215
527.00,0.0216
526.00,0.0216
525.00,0.0216
524.00,0.0216
523.00,0.0216
522.00,0.0217
521.00,0.0218
520.00,0.0219
519.00,0.0219
518.00,0.0220
517.00,0.0221
516.00,0.0221
515.00,0.0222
514.00,0.0222
513.00,0.0223
512.00,0.0223
511.00,0.0224
510.00,0.0225
509.00,0.0225
508.00,0.0224
507.00,0.0223
506.00,0.0223
505.00,0.0224
504.00,0.0225
503.00,0.0226
502.00,0.0228
501.00,0.0228
500.00,0.0229
499.00,0.0230
498.00,0.0230
497.00,0.0231
496.00,0.0232
495.00,0.0233
494.00,0.0233
493.00,0.0232
492.00,0.0231
491.00,0.0231
490.00,0.0232
489.00,0.0232
488.00,0.0233
487.00,0.0234
486.00,0.0235
485.00,0.0235
484.00,0.0236
483.00,0.0236
482.00,0.0236
481.00,0.0236
480.00,0.0236
479.00,0.0237
478.00,0.0237
477.00,0.0238
476.00,0.0237
475.00,0.0237
474.00,0.0236
473.00,0.0235
472.00,0.0236
471.00,0.0237
470.00,0.0239
469.00,0.0240
468.00,0.0240
467.00,0.0239
466.00,0.0238
465.00,0.0238
464.00,0.0238
463.00,0.0239
462.00,0.0241
461.00,0.0242
460.00,0.0242
459.00,0.0242
458.00,0.0241
457.00,0.0241
456.00,0.0242
455.00,0.0242
454.00,0.0241
453.00,0.0240
452.00,0.0239
451.00,0.0238
450.00,0.0238
449.00,0.0238
448.00,0.0238
447.00,0.0238
446.00,0.0238
445.00,0.0237
444.00,0.0236
443.00,0.0234
442.00,0.0232
441.00,0.0230
440.00,0.0229
439.00,0.0229
438.00,0.0229
437.00,0.0228
436.00,0.0227
435.00,0.0225
434.00,0.0224
433.00,0.0223
432.00,0.0223
431.00,0.0222
430.00,0.0221
429.00,0.0221
428.00,0.0221
427.00,0.0222
426.00,0.0224
425.00,0.0226
424.00,0.0227
423.00,0.0227
422.00,0.0228
421.00,0.0230
420.00,0.0232
419.00,0.0232
418.00,0.0230
417.00,0.0227
416.00,0.0224
415.00,0.0223
414.00,0.0224
413.00,0.0226
412.00,0.0230
411.00,0.0233
410.00,0.0235
409.00,0.0234
408.00,0.0230
407.00,0.0224
406.00,0.0218
405.00,0.0212
404.00,0.0207
403.00,0.0205
402.00,0.0205
401.00,0.0206
400.00,0.0208
