Created as New Dataset,Sample 197 By YargerLab Date Sunday, June 09 2024
cm-1,A
4000.00,0.0099
3999.00,0.0099
3998.00,0.0099
3997.00,0.0099
3996.00,0.0099
3995.00,0.0099
3994.00,0.0099
3993.00,0.0099
3992.00,0.0099
3991.00,0.0099
3990.00,0.0099
3989.00,0.0099
3988.00,0.0099
3987.00,0.0099
3986.00,0.0099
3985.00,0.0099
3984.00,0.0099
3983.00,0.0099
3982.00,0.0099
3981.00,0.0099
3980.00,0.0099
3979.00,0.0099
3978.00,0.0099
3977.00,0.0099
3976.00,0.0099
3975.00,0.0099
3974.00,0.0099
3973.00,0.0099
3972.00,0.0099
3971.00,0.0099
3970.00,0.0099
3969.00,0.0099
3968.00,0.0099
3967.00,0.0099
3966.00,0.0099
3965.00,0.0099
3964.00,0.0099
3963.00,0.0099
3962.00,0.0099
3961.00,0.0099
3960.00,0.0099
3959.00,0.0099
3958.00,0.0099
3957.00,0.0099
3956.00,0.0099
3955.00,0.0099
3954.00,0.0099
3953.00,0.0099
3952.00,0.0099
3951.00,0.0099
3950.00,0.0098
3949.00,0.0098
3948.00,0.0097
3947.00,0.0097
3946.00,0.0097
3945.00,0.0097
3944.00,0.0098
3943.00,0.0098
3942.00,0.0098
3941.00,0.0098
3940.00,0.0098
3939.00,0.0098
3938.00,0.0098
3937.00,0.0098
3936.00,0.0097
3935.00,0.0097
3934.00,0.0096
3933.00,0.0096
3932.00,0.0097
3931.00,0.0097
3930.00,0.0097
3929.00,0.0097
3928.00,0.0098
3927.00,0.0098
3926.00,0.0098
3925.00,0.0098
3924.00,0.0098
3923.00,0.0098
3922.00,0.0097
3921.00,0.0095
3920.00,0.0095
3919.00,0.0094
3918.00,0.0095
3917.00,0.0095
3916.00,0.0096
3915.00,0.0097
3914.00,0.0097
3913.00,0.0097
3912.00,0.0098
3911.00,0.0098
3910.00,0.0098
3909.00,0.0098
3908.00,0.0098
3907.00,0.0097
3906.00,0.0097
3905.00,0.0095
3904.00,0.0093
3903.00,0.0091
3902.00,0.0090
3901.00,0.0090
3900.00,0.0091
3899.00,0.0093
3898.00,0.0094
3897.00,0.0095
3896.00,0.0095
3895.00,0.0095
3894.00,0.0095
3893.00,0.0096
3892.00,0.0096
3891.00,0.0096
3890.00,0.0095
3889.00,0.0094
3888.00,0.0093
3887.00,0.0092
3886.00,0.0092
3885.00,0.0093
3884.00,0.0094
3883.00,0.0093
3882.00,0.0093
3881.00,0.0093
3880.00,0.0093
3879.00,0.0094
3878.00,0.0093
3877.00,0.0093
3876.00,0.0092
3875.00,0.0093
3874.00,0.0094
3873.00,0.0094
3872.00,0.0093
3871.00,0.0091
3870.00,0.0091
3869.00,0.0091
3868.00,0.0091
3867.00,0.0090
3866.00,0.0090
3865.00,0.0091
3864.00,0.0091
3863.00,0.0092
3862.00,0.0091
3861.00,0.0091
3860.00,0.0091
3859.00,0.0092
3858.00,0.0094
3857.00,0.0096
3856.00,0.0098
3855.00,0.0097
3854.00,0.0096
3853.00,0.0095
3852.00,0.0093
3851.00,0.0092
3850.00,0.0092
3849.00,0.0091
3848.00,0.0091
3847.00,0.0091
3846.00,0.0091
3845.00,0.0091
3844.00,0.0091
3843.00,0.0091
3842.00,0.0090
3841.00,0.0090
3840.00,0.0090
3839.00,0.0090
3838.00,0.0091
3837.00,0.0091
3836.00,0.0091
3835.00,0.0091
3834.00,0.0091
3833.00,0.0091
3832.00,0.0090
3831.00,0.0091
3830.00,0.0091
3829.00,0.0091
3828.00,0.0091
3827.00,0.0091
3826.00,0.0091
3825.00,0.0091
3824.00,0.0090
3823.00,0.0088
3822.00,0.0088
3821.00,0.0089
3820.00,0.0090
3819.00,0.0089
3818.00,0.0089
3817.00,0.0089
3816.00,0.0090
3815.00,0.0092
3814.00,0.0093
3813.00,0.0093
3812.00,0.0093
3811.00,0.0093
3810.00,0.0093
3809.00,0.0093
3808.00,0.0092
3807.00,0.0092
3806.00,0.0091
3805.00,0.0090
3804.00,0.0089
3803.00,0.0089
3802.00,0.0089
3801.00,0.0091
3800.00,0.0091
3799.00,0.0090
3798.00,0.0090
3797.00,0.0090
3796.00,0.0091
3795.00,0.0092
3794.00,0.0092
3793.00,0.0093
3792.00,0.0094
3791.00,0.0094
3790.00,0.0095
3789.00,0.0095
3788.00,0.0095
3787.00,0.0094
3786.00,0.0094
3785.00,0.0094
3784.00,0.0094
3783.00,0.0093
3782.00,0.0092
3781.00,0.0092
3780.00,0.0092
3779.00,0.0092
3778.00,0.0093
3777.00,0.0093
3776.00,0.0093
3775.00,0.0093
3774.00,0.0093
3773.00,0.0093
3772.00,0.0092
3771.00,0.0091
3770.00,0.0091
3769.00,0.0091
3768.00,0.0090
3767.00,0.0090
3766.00,0.0089
3765.00,0.0090
3764.00,0.0090
3763.00,0.0090
3762.00,0.0089
3761.00,0.0088
3760.00,0.0088
3759.00,0.0089
3758.00,0.0088
3757.00,0.0088
3756.00,0.0087
3755.00,0.0086
3754.00,0.0085
3753.00,0.0084
3752.00,0.0083
3751.00,0.0082
3750.00,0.0081
3749.00,0.0081
3748.00,0.0081
3747.00,0.0081
3746.00,0.0081
3745.00,0.0081
3744.00,0.0082
3743.00,0.0083
3742.00,0.0083
3741.00,0.0082
3740.00,0.0080
3739.00,0.0079
3738.00,0.0078
3737.00,0.0078
3736.00,0.0079
3735.00,0.0080
3734.00,0.0081
3733.00,0.0081
3732.00,0.0082
3731.00,0.0084
3730.00,0.0085
3729.00,0.0086
3728.00,0.0086
3727.00,0.0086
3726.00,0.0086
3725.00,0.0087
3724.00,0.0087
3723.00,0.0087
3722.00,0.0087
3721.00,0.0088
3720.00,0.0088
3719.00,0.0088
3718.00,0.0089
3717.00,0.0089
3716.00,0.0088
3715.00,0.0088
3714.00,0.0087
3713.00,0.0086
3712.00,0.0086
3711.00,0.0086
3710.00,0.0086
3709.00,0.0086
3708.00,0.0086
3707.00,0.0087
3706.00,0.0088
3705.00,0.0088
3704.00,0.0089
3703.00,0.0090
3702.00,0.0090
3701.00,0.0090
3700.00,0.0090
3699.00,0.0090
3698.00,0.0090
3697.00,0.0090
3696.00,0.0090
3695.00,0.0090
3694.00,0.0089
3693.00,0.0089
3692.00,0.0089
3691.00,0.0089
3690.00,0.0088
3689.00,0.0087
3688.00,0.0086
3687.00,0.0086
3686.00,0.0087
3685.00,0.0087
3684.00,0.0087
3683.00,0.0087
3682.00,0.0087
3681.00,0.0087
3680.00,0.0087
3679.00,0.0087
3678.00,0.0086
3677.00,0.0084
3676.00,0.0083
3675.00,0.0084
3674.00,0.0084
3673.00,0.0083
3672.00,0.0083
3671.00,0.0083
3670.00,0.0085
3669.00,0.0087
3668.00,0.0087
3667.00,0.0088
3666.00,0.0088
3665.00,0.0089
3664.00,0.0090
3663.00,0.0090
3662.00,0.0091
3661.00,0.0091
3660.00,0.0091
3659.00,0.0091
3658.00,0.0090
3657.00,0.0089
3656.00,0.0089
3655.00,0.0088
3654.00,0.0087
3653.00,0.0086
3652.00,0.0084
3651.00,0.0083
3650.00,0.0082
3649.00,0.0082
3648.00,0.0082
3647.00,0.0083
3646.00,0.0084
3645.00,0.0086
3644.00,0.0088
3643.00,0.0089
3642.00,0.0091
3641.00,0.0092
3640.00,0.0092
3639.00,0.0092
3638.00,0.0092
3637.00,0.0092
3636.00,0.0092
3635.00,0.0091
3634.00,0.0091
3633.00,0.0091
3632.00,0.0090
3631.00,0.0089
3630.00,0.0088
3629.00,0.0088
3628.00,0.0088
3627.00,0.0088
3626.00,0.0088
3625.00,0.0088
3624.00,0.0089
3623.00,0.0090
3622.00,0.0090
3621.00,0.0091
3620.00,0.0092
3619.00,0.0092
3618.00,0.0091
3617.00,0.0090
3616.00,0.0089
3615.00,0.0089
3614.00,0.0089
3613.00,0.0089
3612.00,0.0089
3611.00,0.0089
3610.00,0.0089
3609.00,0.0089
3608.00,0.0091
3607.00,0.0092
3606.00,0.0094
3605.00,0.0094
3604.00,0.0095
3603.00,0.0095
3602.00,0.0096
3601.00,0.0096
3600.00,0.0096
3599.00,0.0096
3598.00,0.0096
3597.00,0.0096
3596.00,0.0096
3595.00,0.0096
3594.00,0.0097
3593.00,0.0097
3592.00,0.0096
3591.00,0.0096
3590.00,0.0095
3589.00,0.0095
3588.00,0.0096
3587.00,0.0097
3586.00,0.0098
3585.00,0.0098
3584.00,0.0099
3583.00,0.0099
3582.00,0.0100
3581.00,0.0101
3580.00,0.0102
3579.00,0.0103
3578.00,0.0103
3577.00,0.0103
3576.00,0.0103
3575.00,0.0104
3574.00,0.0104
3573.00,0.0104
3572.00,0.0103
3571.00,0.0102
3570.00,0.0101
3569.00,0.0100
3568.00,0.0100
3567.00,0.0101
3566.00,0.0102
3565.00,0.0103
3564.00,0.0103
3563.00,0.0104
3562.00,0.0104
3561.00,0.0105
3560.00,0.0106
3559.00,0.0107
3558.00,0.0107
3557.00,0.0108
3556.00,0.0108
3555.00,0.0108
3554.00,0.0108
3553.00,0.0109
3552.00,0.0109
3551.00,0.0108
3550.00,0.0108
3549.00,0.0108
3548.00,0.0107
3547.00,0.0108
3546.00,0.0108
3545.00,0.0109
3544.00,0.0110
3543.00,0.0111
3542.00,0.0111
3541.00,0.0112
3540.00,0.0112
3539.00,0.0113
3538.00,0.0113
3537.00,0.0114
3536.00,0.0114
3535.00,0.0114
3534.00,0.0114
3533.00,0.0114
3532.00,0.0114
3531.00,0.0114
3530.00,0.0115
3529.00,0.0115
3528.00,0.0115
3527.00,0.0115
3526.00,0.0115
3525.00,0.0115
3524.00,0.0116
3523.00,0.0116
3522.00,0.0117
3521.00,0.0118
3520.00,0.0118
3519.00,0.0118
3518.00,0.0119
3517.00,0.0119
3516.00,0.0119
3515.00,0.0120
3514.00,0.0120
3513.00,0.0120
3512.00,0.0120
3511.00,0.0121
3510.00,0.0121
3509.00,0.0121
3508.00,0.0121
3507.00,0.0121
3506.00,0.0121
3505.00,0.0122
3504.00,0.0122
3503.00,0.0123
3502.00,0.0123
3501.00,0.0123
3500.00,0.0124
3499.00,0.0124
3498.00,0.0125
3497.00,0.0125
3496.00,0.0126
3495.00,0.0126
3494.00,0.0126
3493.00,0.0127
3492.00,0.0127
3491.00,0.0127
3490.00,0.0128
3489.00,0.0128
3488.00,0.0128
3487.00,0.0129
3486.00,0.0129
3485.00,0.0129
3484.00,0.0130
3483.00,0.0130
3482.00,0.0131
3481.00,0.0131
3480.00,0.0132
3479.00,0.0132
3478.00,0.0132
3477.00,0.0133
3476.00,0.0133
3475.00,0.0134
3474.00,0.0134
3473.00,0.0134
3472.00,0.0135
3471.00,0.0135
3470.00,0.0136
3469.00,0.0136
3468.00,0.0136
3467.00,0.0137
3466.00,0.0137
3465.00,0.0137
3464.00,0.0138
3463.00,0.0138
3462.00,0.0139
3461.00,0.0139
3460.00,0.0139
3459.00,0.0139
3458.00,0.0140
3457.00,0.0140
3456.00,0.0141
3455.00,0.0141
3454.00,0.0141
3453.00,0.0142
3452.00,0.0142
3451.00,0.0142
3450.00,0.0142
3449.00,0.0142
3448.00,0.0143
3447.00,0.0143
3446.00,0.0143
3445.00,0.0144
3444.00,0.0144
3443.00,0.0144
3442.00,0.0145
3441.00,0.0145
3440.00,0.0145
3439.00,0.0146
3438.00,0.0146
3437.00,0.0147
3436.00,0.0147
3435.00,0.0147
3434.00,0.0148
3433.00,0.0148
3432.00,0.0149
3431.00,0.0149
3430.00,0.0149
3429.00,0.0150
3428.00,0.0150
3427.00,0.0150
3426.00,0.0151
3425.00,0.0151
3424.00,0.0152
3423.00,0.0152
3422.00,0.0153
3421.00,0.0153
3420.00,0.0154
3419.00,0.0154
3418.00,0.0154
3417.00,0.0155
3416.00,0.0155
3415.00,0.0155
3414.00,0.0156
3413.00,0.0156
3412.00,0.0157
3411.00,0.0157
3410.00,0.0157
3409.00,0.0158
3408.00,0.0158
3407.00,0.0158
3406.00,0.0158
3405.00,0.0159
3404.00,0.0159
3403.00,0.0160
3402.00,0.0160
3401.00,0.0161
3400.00,0.0161
3399.00,0.0161
3398.00,0.0161
3397.00,0.0161
3396.00,0.0162
3395.00,0.0162
3394.00,0.0162
3393.00,0.0163
3392.00,0.0164
3391.00,0.0164
3390.00,0.0164
3389.00,0.0165
3388.00,0.0165
3387.00,0.0166
3386.00,0.0166
3385.00,0.0167
3384.00,0.0167
3383.00,0.0167
3382.00,0.0168
3381.00,0.0168
3380.00,0.0169
3379.00,0.0169
3378.00,0.0170
3377.00,0.0170
3376.00,0.0171
3375.00,0.0171
3374.00,0.0172
3373.00,0.0172
3372.00,0.0173
3371.00,0.0173
3370.00,0.0174
3369.00,0.0174
3368.00,0.0175
3367.00,0.0176
3366.00,0.0177
3365.00,0.0177
3364.00,0.0178
3363.00,0.0179
3362.00,0.0179
3361.00,0.0180
3360.00,0.0181
3359.00,0.0182
3358.00,0.0183
3357.00,0.0184
3356.00,0.0185
3355.00,0.0185
3354.00,0.0186
3353.00,0.0186
3352.00,0.0187
3351.00,0.0188
3350.00,0.0189
3349.00,0.0190
3348.00,0.0191
3347.00,0.0192
3346.00,0.0192
3345.00,0.0193
3344.00,0.0194
3343.00,0.0195
3342.00,0.0196
3341.00,0.0197
3340.00,0.0198
3339.00,0.0198
3338.00,0.0200
3337.00,0.0201
3336.00,0.0202
3335.00,0.0204
3334.00,0.0205
3333.00,0.0206
3332.00,0.0207
3331.00,0.0208
3330.00,0.0209
3329.00,0.0210
3328.00,0.0211
3327.00,0.0212
3326.00,0.0213
3325.00,0.0214
3324.00,0.0216
3323.00,0.0217
3322.00,0.0219
3321.00,0.0220
3320.00,0.0222
3319.00,0.0223
3318.00,0.0224
3317.00,0.0226
3316.00,0.0227
3315.00,0.0229
3314.00,0.0230
3313.00,0.0231
3312.00,0.0233
3311.00,0.0234
3310.00,0.0235
3309.00,0.0236
3308.00,0.0238
3307.00,0.0239
3306.00,0.0241
3305.00,0.0243
3304.00,0.0245
3303.00,0.0247
3302.00,0.0249
3301.00,0.0251
3300.00,0.0252
3299.00,0.0254
3298.00,0.0255
3297.00,0.0256
3296.00,0.0258
3295.00,0.0259
3294.00,0.0260
3293.00,0.0262
3292.00,0.0264
3291.00,0.0266
3290.00,0.0268
3289.00,0.0270
3288.00,0.0271
3287.00,0.0273
3286.00,0.0274
3285.00,0.0276
3284.00,0.0277
3283.00,0.0278
3282.00,0.0279
3281.00,0.0280
3280.00,0.0281
3279.00,0.0281
3278.00,0.0281
3277.00,0.0282
3276.00,0.0282
3275.00,0.0282
3274.00,0.0282
3273.00,0.0282
3272.00,0.0282
3271.00,0.0282
3270.00,0.0282
3269.00,0.0282
3268.00,0.0282
3267.00,0.0282
3266.00,0.0282
3265.00,0.0281
3264.00,0.0280
3263.00,0.0279
3262.00,0.0278
3261.00,0.0277
3260.00,0.0276
3259.00,0.0275
3258.00,0.0273
3257.00,0.0272
3256.00,0.0271
3255.00,0.0270
3254.00,0.0269
3253.00,0.0268
3252.00,0.0267
3251.00,0.0265
3250.00,0.0263
3249.00,0.0262
3248.00,0.0260
3247.00,0.0259
3246.00,0.0258
3245.00,0.0257
3244.00,0.0257
3243.00,0.0256
3242.00,0.0255
3241.00,0.0254
3240.00,0.0253
3239.00,0.0251
3238.00,0.0250
3237.00,0.0249
3236.00,0.0247
3235.00,0.0246
3234.00,0.0245
3233.00,0.0244
3232.00,0.0243
3231.00,0.0243
3230.00,0.0242
3229.00,0.0242
3228.00,0.0241
3227.00,0.0240
3226.00,0.0239
3225.00,0.0238
3224.00,0.0238
3223.00,0.0237
3222.00,0.0236
3221.00,0.0235
3220.00,0.0234
3219.00,0.0234
3218.00,0.0233
3217.00,0.0232
3216.00,0.0231
3215.00,0.0231
3214.00,0.0230
3213.00,0.0230
3212.00,0.0229
3211.00,0.0228
3210.00,0.0228
3209.00,0.0227
3208.00,0.0226
3207.00,0.0226
3206.00,0.0225
3205.00,0.0224
3204.00,0.0224
3203.00,0.0223
3202.00,0.0223
3201.00,0.0222
3200.00,0.0221
3199.00,0.0221
3198.00,0.0220
3197.00,0.0219
3196.00,0.0219
3195.00,0.0218
3194.00,0.0218
3193.00,0.0217
3192.00,0.0216
3191.00,0.0216
3190.00,0.0215
3189.00,0.0214
3188.00,0.0214
3187.00,0.0213
3186.00,0.0212
3185.00,0.0211
3184.00,0.0211
3183.00,0.0210
3182.00,0.0209
3181.00,0.0209
3180.00,0.0208
3179.00,0.0207
3178.00,0.0206
3177.00,0.0205
3176.00,0.0205
3175.00,0.0204
3174.00,0.0203
3173.00,0.0203
3172.00,0.0202
3171.00,0.0201
3170.00,0.0200
3169.00,0.0200
3168.00,0.0199
3167.00,0.0198
3166.00,0.0198
3165.00,0.0197
3164.00,0.0197
3163.00,0.0196
3162.00,0.0195
3161.00,0.0194
3160.00,0.0194
3159.00,0.0193
3158.00,0.0192
3157.00,0.0191
3156.00,0.0190
3155.00,0.0189
3154.00,0.0189
3153.00,0.0188
3152.00,0.0188
3151.00,0.0187
3150.00,0.0187
3149.00,0.0186
3148.00,0.0186
3147.00,0.0185
3146.00,0.0185
3145.00,0.0184
3144.00,0.0184
3143.00,0.0183
3142.00,0.0182
3141.00,0.0181
3140.00,0.0181
3139.00,0.0180
3138.00,0.0180
3137.00,0.0180
3136.00,0.0180
3135.00,0.0179
3134.00,0.0179
3133.00,0.0178
3132.00,0.0178
3131.00,0.0177
3130.00,0.0177
3129.00,0.0176
3128.00,0.0176
3127.00,0.0176
3126.00,0.0176
3125.00,0.0175
3124.00,0.0175
3123.00,0.0174
3122.00,0.0174
3121.00,0.0173
3120.00,0.0173
3119.00,0.0173
3118.00,0.0173
3117.00,0.0173
3116.00,0.0173
3115.00,0.0173
3114.00,0.0173
3113.00,0.0173
3112.00,0.0173
3111.00,0.0172
3110.00,0.0172
3109.00,0.0172
3108.00,0.0172
3107.00,0.0173
3106.00,0.0173
3105.00,0.0173
3104.00,0.0173
3103.00,0.0173
3102.00,0.0173
3101.00,0.0173
3100.00,0.0173
3099.00,0.0173
3098.00,0.0173
3097.00,0.0173
3096.00,0.0174
3095.00,0.0174
3094.00,0.0174
3093.00,0.0174
3092.00,0.0174
3091.00,0.0174
3090.00,0.0174
3089.00,0.0174
3088.00,0.0174
3087.00,0.0174
3086.00,0.0174
3085.00,0.0174
3084.00,0.0175
3083.00,0.0175
3082.00,0.0175
3081.00,0.0175
3080.00,0.0175
3079.00,0.0175
3078.00,0.0175
3077.00,0.0176
3076.00,0.0176
3075.00,0.0177
3074.00,0.0177
3073.00,0.0177
3072.00,0.0177
3071.00,0.0177
3070.00,0.0177
3069.00,0.0176
3068.00,0.0176
3067.00,0.0176
3066.00,0.0176
3065.00,0.0176
3064.00,0.0177
3063.00,0.0177
3062.00,0.0177
3061.00,0.0177
3060.00,0.0177
3059.00,0.0176
3058.00,0.0176
3057.00,0.0175
3056.00,0.0175
3055.00,0.0174
3054.00,0.0174
3053.00,0.0174
3052.00,0.0173
3051.00,0.0173
3050.00,0.0173
3049.00,0.0172
3048.00,0.0172
3047.00,0.0171
3046.00,0.0170
3045.00,0.0170
3044.00,0.0169
3043.00,0.0169
3042.00,0.0169
3041.00,0.0169
3040.00,0.0169
3039.00,0.0169
3038.00,0.0168
3037.00,0.0168
3036.00,0.0167
3035.00,0.0166
3034.00,0.0166
3033.00,0.0166
3032.00,0.0166
3031.00,0.0165
3030.00,0.0165
3029.00,0.0165
3028.00,0.0165
3027.00,0.0164
3026.00,0.0164
3025.00,0.0163
3024.00,0.0163
3023.00,0.0162
3022.00,0.0162
3021.00,0.0161
3020.00,0.0160
3019.00,0.0160
3018.00,0.0159
3017.00,0.0159
3016.00,0.0158
3015.00,0.0157
3014.00,0.0157
3013.00,0.0157
3012.00,0.0157
3011.00,0.0157
3010.00,0.0157
3009.00,0.0157
3008.00,0.0157
3007.00,0.0157
3006.00,0.0157
3005.00,0.0157
3004.00,0.0157
3003.00,0.0157
3002.00,0.0157
3001.00,0.0156
3000.00,0.0156
2999.00,0.0156
2998.00,0.0156
2997.00,0.0157
2996.00,0.0157
2995.00,0.0157
2994.00,0.0157
2993.00,0.0157
2992.00,0.0158
2991.00,0.0159
2990.00,0.0160
2989.00,0.0160
2988.00,0.0161
2987.00,0.0162
2986.00,0.0163
2985.00,0.0163
2984.00,0.0164
2983.00,0.0165
2982.00,0.0165
2981.00,0.0166
2980.00,0.0167
2979.00,0.0167
2978.00,0.0168
2977.00,0.0169
2976.00,0.0170
2975.00,0.0171
2974.00,0.0172
2973.00,0.0173
2972.00,0.0174
2971.00,0.0175
2970.00,0.0176
2969.00,0.0177
2968.00,0.0178
2967.00,0.0179
2966.00,0.0180
2965.00,0.0180
2964.00,0.0181
2963.00,0.0181
2962.00,0.0182
2961.00,0.0182
2960.00,0.0183
2959.00,0.0183
2958.00,0.0183
2957.00,0.0183
2956.00,0.0183
2955.00,0.0183
2954.00,0.0183
2953.00,0.0183
2952.00,0.0182
2951.00,0.0182
2950.00,0.0182
2949.00,0.0182
2948.00,0.0182
2947.00,0.0182
2946.00,0.0183
2945.00,0.0183
2944.00,0.0184
2943.00,0.0185
2942.00,0.0187
2941.00,0.0188
2940.00,0.0190
2939.00,0.0191
2938.00,0.0193
2937.00,0.0195
2936.00,0.0196
2935.00,0.0198
2934.00,0.0200
2933.00,0.0201
2932.00,0.0202
2931.00,0.0203
2930.00,0.0204
2929.00,0.0205
2928.00,0.0206
2927.00,0.0206
2926.00,0.0206
2925.00,0.0206
2924.00,0.0205
2923.00,0.0203
2922.00,0.0201
2921.00,0.0198
2920.00,0.0195
2919.00,0.0192
2918.00,0.0188
2917.00,0.0185
2916.00,0.0182
2915.00,0.0181
2914.00,0.0180
2913.00,0.0180
2912.00,0.0180
2911.00,0.0180
2910.00,0.0180
2909.00,0.0180
2908.00,0.0180
2907.00,0.0179
2906.00,0.0178
2905.00,0.0178
2904.00,0.0177
2903.00,0.0176
2902.00,0.0176
2901.00,0.0175
2900.00,0.0175
2899.00,0.0174
2898.00,0.0173
2897.00,0.0173
2896.00,0.0172
2895.00,0.0172
2894.00,0.0172
2893.00,0.0171
2892.00,0.0171
2891.00,0.0170
2890.00,0.0170
2889.00,0.0170
2888.00,0.0170
2887.00,0.0170
2886.00,0.0170
2885.00,0.0170
2884.00,0.0170
2883.00,0.0170
2882.00,0.0170
2881.00,0.0171
2880.00,0.0171
2879.00,0.0171
2878.00,0.0172
2877.00,0.0172
2876.00,0.0172
2875.00,0.0173
2874.00,0.0173
2873.00,0.0173
2872.00,0.0173
2871.00,0.0172
2870.00,0.0172
2869.00,0.0172
2868.00,0.0171
2867.00,0.0171
2866.00,0.0170
2865.00,0.0170
2864.00,0.0170
2863.00,0.0170
2862.00,0.0170
2861.00,0.0170
2860.00,0.0171
2859.00,0.0171
2858.00,0.0172
2857.00,0.0173
2856.00,0.0174
2855.00,0.0174
2854.00,0.0173
2853.00,0.0172
2852.00,0.0169
2851.00,0.0166
2850.00,0.0163
2849.00,0.0160
2848.00,0.0158
2847.00,0.0158
2846.00,0.0158
2845.00,0.0158
2844.00,0.0158
2843.00,0.0158
2842.00,0.0157
2841.00,0.0156
2840.00,0.0156
2839.00,0.0155
2838.00,0.0154
2837.00,0.0154
2836.00,0.0153
2835.00,0.0153
2834.00,0.0152
2833.00,0.0152
2832.00,0.0152
2831.00,0.0151
2830.00,0.0151
2829.00,0.0151
2828.00,0.0151
2827.00,0.0150
2826.00,0.0150
2825.00,0.0150
2824.00,0.0149
2823.00,0.0149
2822.00,0.0149
2821.00,0.0148
2820.00,0.0148
2819.00,0.0148
2818.00,0.0148
2817.00,0.0148
2816.00,0.0147
2815.00,0.0147
2814.00,0.0147
2813.00,0.0147
2812.00,0.0146
2811.00,0.0146
2810.00,0.0146
2809.00,0.0146
2808.00,0.0146
2807.00,0.0145
2806.00,0.0145
2805.00,0.0145
2804.00,0.0145
2803.00,0.0145
2802.00,0.0145
2801.00,0.0145
2800.00,0.0144
2799.00,0.0144
2798.00,0.0144
2797.00,0.0144
2796.00,0.0144
2795.00,0.0144
2794.00,0.0143
2793.00,0.0143
2792.00,0.0143
2791.00,0.0143
2790.00,0.0143
2789.00,0.0143
2788.00,0.0142
2787.00,0.0142
2786.00,0.0142
2785.00,0.0142
2784.00,0.0142
2783.00,0.0142
2782.00,0.0142
2781.00,0.0142
2780.00,0.0141
2779.00,0.0141
2778.00,0.0141
2777.00,0.0141
2776.00,0.0141
2775.00,0.0141
2774.00,0.0140
2773.00,0.0140
2772.00,0.0140
2771.00,0.0140
2770.00,0.0140
2769.00,0.0140
2768.00,0.0140
2767.00,0.0140
2766.00,0.0139
2765.00,0.0139
2764.00,0.0139
2763.00,0.0139
2762.00,0.0139
2761.00,0.0139
2760.00,0.0139
2759.00,0.0139
2758.00,0.0138
2757.00,0.0138
2756.00,0.0138
2755.00,0.0138
2754.00,0.0138
2753.00,0.0138
2752.00,0.0137
2751.00,0.0137
2750.00,0.0137
2749.00,0.0137
2748.00,0.0137
2747.00,0.0137
2746.00,0.0137
2745.00,0.0136
2744.00,0.0136
2743.00,0.0136
2742.00,0.0136
2741.00,0.0136
2740.00,0.0136
2739.00,0.0136
2738.00,0.0135
2737.00,0.0135
2736.00,0.0135
2735.00,0.0135
2734.00,0.0135
2733.00,0.0135
2732.00,0.0135
2731.00,0.0135
2730.00,0.0135
2729.00,0.0134
2728.00,0.0134
2727.00,0.0134
2726.00,0.0134
2725.00,0.0134
2724.00,0.0134
2723.00,0.0133
2722.00,0.0133
2721.00,0.0133
2720.00,0.0133
2719.00,0.0133
2718.00,0.0133
2717.00,0.0133
2716.00,0.0132
2715.00,0.0132
2714.00,0.0132
2713.00,0.0132
2712.00,0.0132
2711.00,0.0132
2710.00,0.0132
2709.00,0.0132
2708.00,0.0132
2707.00,0.0131
2706.00,0.0131
2705.00,0.0131
2704.00,0.0131
2703.00,0.0131
2702.00,0.0131
2701.00,0.0131
2700.00,0.0130
2699.00,0.0130
2698.00,0.0130
2697.00,0.0130
2696.00,0.0130
2695.00,0.0130
2694.00,0.0130
2693.00,0.0130
2692.00,0.0130
2691.00,0.0130
2690.00,0.0130
2689.00,0.0129
2688.00,0.0129
2687.00,0.0129
2686.00,0.0129
2685.00,0.0129
2684.00,0.0129
2683.00,0.0129
2682.00,0.0129
2681.00,0.0129
2680.00,0.0128
2679.00,0.0128
2678.00,0.0128
2677.00,0.0128
2676.00,0.0128
2675.00,0.0128
2674.00,0.0128
2673.00,0.0128
2672.00,0.0128
2671.00,0.0128
2670.00,0.0128
2669.00,0.0128
2668.00,0.0127
2667.00,0.0127
2666.00,0.0127
2665.00,0.0127
2664.00,0.0127
2663.00,0.0127
2662.00,0.0127
2661.00,0.0127
2660.00,0.0126
2659.00,0.0126
2658.00,0.0126
2657.00,0.0126
2656.00,0.0126
2655.00,0.0126
2654.00,0.0126
2653.00,0.0125
2652.00,0.0125
2651.00,0.0125
2650.00,0.0125
2649.00,0.0125
2648.00,0.0125
2647.00,0.0125
2646.00,0.0125
2645.00,0.0125
2644.00,0.0125
2643.00,0.0124
2642.00,0.0124
2641.00,0.0124
2640.00,0.0125
2639.00,0.0125
2638.00,0.0124
2637.00,0.0124
2636.00,0.0124
2635.00,0.0124
2634.00,0.0124
2633.00,0.0124
2632.00,0.0124
2631.00,0.0124
2630.00,0.0124
2629.00,0.0124
2628.00,0.0124
2627.00,0.0124
2626.00,0.0124
2625.00,0.0124
2624.00,0.0124
2623.00,0.0124
2622.00,0.0124
2621.00,0.0124
2620.00,0.0124
2619.00,0.0124
2618.00,0.0124
2617.00,0.0123
2616.00,0.0123
2615.00,0.0123
2614.00,0.0123
2613.00,0.0123
2612.00,0.0123
2611.00,0.0123
2610.00,0.0123
2609.00,0.0123
2608.00,0.0123
2607.00,0.0123
2606.00,0.0123
2605.00,0.0123
2604.00,0.0123
2603.00,0.0123
2602.00,0.0123
2601.00,0.0123
2600.00,0.0123
2599.00,0.0123
2598.00,0.0123
2597.00,0.0123
2596.00,0.0122
2595.00,0.0122
2594.00,0.0122
2593.00,0.0122
2592.00,0.0122
2591.00,0.0122
2590.00,0.0122
2589.00,0.0122
2588.00,0.0121
2587.00,0.0121
2586.00,0.0121
2585.00,0.0121
2584.00,0.0121
2583.00,0.0121
2582.00,0.0121
2581.00,0.0121
2580.00,0.0121
2579.00,0.0121
2578.00,0.0121
2577.00,0.0121
2576.00,0.0121
2575.00,0.0121
2574.00,0.0121
2573.00,0.0121
2572.00,0.0121
2571.00,0.0121
2570.00,0.0121
2569.00,0.0121
2568.00,0.0121
2567.00,0.0120
2566.00,0.0120
2565.00,0.0120
2564.00,0.0120
2563.00,0.0120
2562.00,0.0120
2561.00,0.0120
2560.00,0.0120
2559.00,0.0120
2558.00,0.0120
2557.00,0.0120
2556.00,0.0120
2555.00,0.0120
2554.00,0.0120
2553.00,0.0120
2552.00,0.0120
2551.00,0.0120
2550.00,0.0119
2549.00,0.0119
2548.00,0.0119
2547.00,0.0119
2546.00,0.0119
2545.00,0.0119
2544.00,0.0119
2543.00,0.0119
2542.00,0.0119
2541.00,0.0119
2540.00,0.0119
2539.00,0.0119
2538.00,0.0119
2537.00,0.0119
2536.00,0.0119
2535.00,0.0119
2534.00,0.0118
2533.00,0.0118
2532.00,0.0118
2531.00,0.0118
2530.00,0.0118
2529.00,0.0118
2528.00,0.0118
2527.00,0.0118
2526.00,0.0118
2525.00,0.0118
2524.00,0.0118
2523.00,0.0118
2522.00,0.0118
2521.00,0.0118
2520.00,0.0118
2519.00,0.0118
2518.00,0.0118
2517.00,0.0118
2516.00,0.0117
2515.00,0.0117
2514.00,0.0117
2513.00,0.0117
2512.00,0.0117
2511.00,0.0117
2510.00,0.0117
2509.00,0.0118
2508.00,0.0118
2507.00,0.0117
2506.00,0.0117
2505.00,0.0117
2504.00,0.0117
2503.00,0.0117
2502.00,0.0117
2501.00,0.0117
2500.00,0.0117
2499.00,0.0117
2498.00,0.0117
2497.00,0.0116
2496.00,0.0116
2495.00,0.0116
2494.00,0.0117
2493.00,0.0117
2492.00,0.0117
2491.00,0.0116
2490.00,0.0116
2489.00,0.0116
2488.00,0.0116
2487.00,0.0116
2486.00,0.0116
2485.00,0.0116
2484.00,0.0116
2483.00,0.0116
2482.00,0.0116
2481.00,0.0116
2480.00,0.0116
2479.00,0.0116
2478.00,0.0116
2477.00,0.0116
2476.00,0.0115
2475.00,0.0115
2474.00,0.0115
2473.00,0.0115
2472.00,0.0115
2471.00,0.0115
2470.00,0.0115
2469.00,0.0115
2468.00,0.0115
2467.00,0.0115
2466.00,0.0115
2465.00,0.0115
2464.00,0.0115
2463.00,0.0115
2462.00,0.0115
2461.00,0.0115
2460.00,0.0115
2459.00,0.0114
2458.00,0.0114
2457.00,0.0114
2456.00,0.0114
2455.00,0.0114
2454.00,0.0114
2453.00,0.0114
2452.00,0.0114
2451.00,0.0114
2450.00,0.0114
2449.00,0.0114
2448.00,0.0114
2447.00,0.0114
2446.00,0.0114
2445.00,0.0114
2444.00,0.0114
2443.00,0.0113
2442.00,0.0113
2441.00,0.0114
2440.00,0.0114
2439.00,0.0114
2438.00,0.0114
2437.00,0.0113
2436.00,0.0113
2435.00,0.0113
2434.00,0.0113
2433.00,0.0113
2432.00,0.0113
2431.00,0.0113
2430.00,0.0113
2429.00,0.0113
2428.00,0.0113
2427.00,0.0113
2426.00,0.0113
2425.00,0.0113
2424.00,0.0113
2423.00,0.0113
2422.00,0.0113
2421.00,0.0113
2420.00,0.0112
2419.00,0.0112
2418.00,0.0112
2417.00,0.0112
2416.00,0.0112
2415.00,0.0112
2414.00,0.0112
2413.00,0.0112
2412.00,0.0112
2411.00,0.0112
2410.00,0.0112
2409.00,0.0112
2408.00,0.0112
2407.00,0.0112
2406.00,0.0112
2405.00,0.0112
2404.00,0.0112
2403.00,0.0112
2402.00,0.0112
2401.00,0.0112
2400.00,0.0111
2399.00,0.0111
2398.00,0.0111
2397.00,0.0111
2396.00,0.0111
2395.00,0.0111
2394.00,0.0111
2393.00,0.0111
2392.00,0.0111
2391.00,0.0111
2390.00,0.0111
2389.00,0.0111
2388.00,0.0110
2387.00,0.0110
2386.00,0.0110
2385.00,0.0110
2384.00,0.0110
2383.00,0.0110
2382.00,0.0110
2381.00,0.0110
2380.00,0.0110
2379.00,0.0110
2378.00,0.0110
2377.00,0.0110
2376.00,0.0110
2375.00,0.0110
2374.00,0.0109
2373.00,0.0109
2372.00,0.0109
2371.00,0.0109
2370.00,0.0109
2369.00,0.0109
2368.00,0.0109
2367.00,0.0109
2366.00,0.0109
2365.00,0.0109
2364.00,0.0109
2363.00,0.0108
2362.00,0.0108
2361.00,0.0108
2360.00,0.0107
2359.00,0.0107
2358.00,0.0107
2357.00,0.0107
2356.00,0.0107
2355.00,0.0107
2354.00,0.0107
2353.00,0.0108
2352.00,0.0108
2351.00,0.0108
2350.00,0.0107
2349.00,0.0107
2348.00,0.0106
2347.00,0.0106
2346.00,0.0106
2345.00,0.0106
2344.00,0.0106
2343.00,0.0106
2342.00,0.0106
2341.00,0.0106
2340.00,0.0106
2339.00,0.0106
2338.00,0.0106
2337.00,0.0106
2336.00,0.0105
2335.00,0.0105
2334.00,0.0105
2333.00,0.0106
2332.00,0.0106
2331.00,0.0106
2330.00,0.0106
2329.00,0.0106
2328.00,0.0105
2327.00,0.0105
2326.00,0.0104
2325.00,0.0104
2324.00,0.0103
2323.00,0.0104
2322.00,0.0104
2321.00,0.0104
2320.00,0.0104
2319.00,0.0104
2318.00,0.0104
2317.00,0.0104
2316.00,0.0105
2315.00,0.0105
2314.00,0.0105
2313.00,0.0105
2312.00,0.0105
2311.00,0.0105
2310.00,0.0105
2309.00,0.0105
2308.00,0.0105
2307.00,0.0105
2306.00,0.0105
2305.00,0.0105
2304.00,0.0105
2303.00,0.0105
2302.00,0.0104
2301.00,0.0104
2300.00,0.0104
2299.00,0.0104
2298.00,0.0104
2297.00,0.0104
2296.00,0.0104
2295.00,0.0104
2294.00,0.0104
2293.00,0.0104
2292.00,0.0104
2291.00,0.0104
2290.00,0.0104
2289.00,0.0104
2288.00,0.0104
2287.00,0.0104
2286.00,0.0104
2285.00,0.0104
2284.00,0.0104
2283.00,0.0104
2282.00,0.0104
2281.00,0.0104
2280.00,0.0104
2279.00,0.0104
2278.00,0.0104
2277.00,0.0104
2276.00,0.0104
2275.00,0.0104
2274.00,0.0104
2273.00,0.0104
2272.00,0.0104
2271.00,0.0104
2270.00,0.0104
2269.00,0.0104
2268.00,0.0104
2267.00,0.0104
2266.00,0.0103
2265.00,0.0104
2264.00,0.0104
2263.00,0.0104
2262.00,0.0104
2261.00,0.0104
2260.00,0.0104
2259.00,0.0104
2258.00,0.0104
2257.00,0.0104
2256.00,0.0104
2255.00,0.0104
2254.00,0.0104
2253.00,0.0104
2252.00,0.0104
2251.00,0.0104
2250.00,0.0104
2249.00,0.0104
2248.00,0.0104
2247.00,0.0104
2246.00,0.0104
2245.00,0.0104
2244.00,0.0103
2243.00,0.0103
2242.00,0.0103
2241.00,0.0103
2240.00,0.0104
2239.00,0.0104
2238.00,0.0104
2237.00,0.0104
2236.00,0.0104
2235.00,0.0103
2234.00,0.0103
2233.00,0.0103
2232.00,0.0103
2231.00,0.0103
2230.00,0.0103
2229.00,0.0102
2228.00,0.0102
2227.00,0.0102
2226.00,0.0102
2225.00,0.0102
2224.00,0.0102
2223.00,0.0103
2222.00,0.0103
2221.00,0.0103
2220.00,0.0103
2219.00,0.0104
2218.00,0.0104
2217.00,0.0104
2216.00,0.0104
2215.00,0.0103
2214.00,0.0103
2213.00,0.0102
2212.00,0.0102
2211.00,0.0102
2210.00,0.0102
2209.00,0.0102
2208.00,0.0103
2207.00,0.0103
2206.00,0.0103
2205.00,0.0103
2204.00,0.0103
2203.00,0.0102
2202.00,0.0102
2201.00,0.0102
2200.00,0.0102
2199.00,0.0101
2198.00,0.0101
2197.00,0.0101
2196.00,0.0101
2195.00,0.0101
2194.00,0.0102
2193.00,0.0102
2192.00,0.0102
2191.00,0.0101
2190.00,0.0101
2189.00,0.0101
2188.00,0.0100
2187.00,0.0100
2186.00,0.0100
2185.00,0.0100
2184.00,0.0099
2183.00,0.0099
2182.00,0.0099
2181.00,0.0099
2180.00,0.0100
2179.00,0.0101
2178.00,0.0102
2177.00,0.0102
2176.00,0.0102
2175.00,0.0102
2174.00,0.0102
2173.00,0.0102
2172.00,0.0101
2171.00,0.0101
2170.00,0.0100
2169.00,0.0099
2168.00,0.0098
2167.00,0.0098
2166.00,0.0099
2165.00,0.0099
2164.00,0.0098
2163.00,0.0097
2162.00,0.0096
2161.00,0.0096
2160.00,0.0098
2159.00,0.0100
2158.00,0.0102
2157.00,0.0104
2156.00,0.0104
2155.00,0.0103
2154.00,0.0102
2153.00,0.0101
2152.00,0.0101
2151.00,0.0101
2150.00,0.0101
2149.00,0.0102
2148.00,0.0102
2147.00,0.0102
2146.00,0.0102
2145.00,0.0102
2144.00,0.0102
2143.00,0.0102
2142.00,0.0102
2141.00,0.0102
2140.00,0.0102
2139.00,0.0102
2138.00,0.0102
2137.00,0.0102
2136.00,0.0103
2135.00,0.0103
2134.00,0.0103
2133.00,0.0103
2132.00,0.0103
2131.00,0.0103
2130.00,0.0104
2129.00,0.0104
2128.00,0.0104
2127.00,0.0103
2126.00,0.0102
2125.00,0.0102
2124.00,0.0102
2123.00,0.0101
2122.00,0.0101
2121.00,0.0101
2120.00,0.0101
2119.00,0.0101
2118.00,0.0101
2117.00,0.0101
2116.00,0.0101
2115.00,0.0100
2114.00,0.0100
2113.00,0.0100
2112.00,0.0101
2111.00,0.0101
2110.00,0.0101
2109.00,0.0100
2108.00,0.0100
2107.00,0.0100
2106.00,0.0100
2105.00,0.0100
2104.00,0.0100
2103.00,0.0100
2102.00,0.0100
2101.00,0.0100
2100.00,0.0100
2099.00,0.0100
2098.00,0.0100
2097.00,0.0100
2096.00,0.0100
2095.00,0.0100
2094.00,0.0100
2093.00,0.0099
2092.00,0.0099
2091.00,0.0099
2090.00,0.0099
2089.00,0.0099
2088.00,0.0099
2087.00,0.0099
2086.00,0.0099
2085.00,0.0099
2084.00,0.0099
2083.00,0.0099
2082.00,0.0099
2081.00,0.0099
2080.00,0.0098
2079.00,0.0098
2078.00,0.0098
2077.00,0.0098
2076.00,0.0097
2075.00,0.0097
2074.00,0.0097
2073.00,0.0097
2072.00,0.0098
2071.00,0.0098
2070.00,0.0098
2069.00,0.0098
2068.00,0.0098
2067.00,0.0098
2066.00,0.0098
2065.00,0.0098
2064.00,0.0098
2063.00,0.0097
2062.00,0.0097
2061.00,0.0096
2060.00,0.0096
2059.00,0.0096
2058.00,0.0096
2057.00,0.0096
2056.00,0.0096
2055.00,0.0096
2054.00,0.0096
2053.00,0.0095
2052.00,0.0095
2051.00,0.0094
2050.00,0.0093
2049.00,0.0093
2048.00,0.0093
2047.00,0.0093
2046.00,0.0093
2045.00,0.0093
2044.00,0.0093
2043.00,0.0094
2042.00,0.0094
2041.00,0.0094
2040.00,0.0094
2039.00,0.0094
2038.00,0.0093
2037.00,0.0093
2036.00,0.0094
2035.00,0.0094
2034.00,0.0095
2033.00,0.0096
2032.00,0.0096
2031.00,0.0096
2030.00,0.0095
2029.00,0.0095
2028.00,0.0095
2027.00,0.0095
2026.00,0.0095
2025.00,0.0096
2024.00,0.0097
2023.00,0.0097
2022.00,0.0096
2021.00,0.0096
2020.00,0.0096
2019.00,0.0095
2018.00,0.0095
2017.00,0.0095
2016.00,0.0094
2015.00,0.0094
2014.00,0.0094
2013.00,0.0094
2012.00,0.0094
2011.00,0.0094
2010.00,0.0094
2009.00,0.0094
2008.00,0.0095
2007.00,0.0095
2006.00,0.0095
2005.00,0.0095
2004.00,0.0096
2003.00,0.0096
2002.00,0.0095
2001.00,0.0095
2000.00,0.0095
1999.00,0.0095
1998.00,0.0095
1997.00,0.0096
1996.00,0.0096
1995.00,0.0095
1994.00,0.0095
1993.00,0.0094
1992.00,0.0094
1991.00,0.0094
1990.00,0.0093
1989.00,0.0093
1988.00,0.0093
1987.00,0.0093
1986.00,0.0093
1985.00,0.0093
1984.00,0.0093
1983.00,0.0092
1982.00,0.0091
1981.00,0.0090
1980.00,0.0090
1979.00,0.0090
1978.00,0.0091
1977.00,0.0093
1976.00,0.0093
1975.00,0.0093
1974.00,0.0093
1973.00,0.0093
1972.00,0.0093
1971.00,0.0093
1970.00,0.0094
1969.00,0.0095
1968.00,0.0096
1967.00,0.0095
1966.00,0.0094
1965.00,0.0094
1964.00,0.0093
1963.00,0.0093
1962.00,0.0094
1961.00,0.0095
1960.00,0.0095
1959.00,0.0095
1958.00,0.0094
1957.00,0.0094
1956.00,0.0094
1955.00,0.0094
1954.00,0.0094
1953.00,0.0094
1952.00,0.0094
1951.00,0.0094
1950.00,0.0094
1949.00,0.0094
1948.00,0.0094
1947.00,0.0094
1946.00,0.0094
1945.00,0.0093
1944.00,0.0093
1943.00,0.0093
1942.00,0.0093
1941.00,0.0093
1940.00,0.0093
1939.00,0.0093
1938.00,0.0093
1937.00,0.0093
1936.00,0.0093
1935.00,0.0093
1934.00,0.0092
1933.00,0.0092
1932.00,0.0092
1931.00,0.0092
1930.00,0.0092
1929.00,0.0092
1928.00,0.0092
1927.00,0.0092
1926.00,0.0091
1925.00,0.0092
1924.00,0.0092
1923.00,0.0092
1922.00,0.0092
1921.00,0.0091
1920.00,0.0091
1919.00,0.0091
1918.00,0.0090
1917.00,0.0090
1916.00,0.0090
1915.00,0.0090
1914.00,0.0090
1913.00,0.0090
1912.00,0.0090
1911.00,0.0091
1910.00,0.0091
1909.00,0.0091
1908.00,0.0091
1907.00,0.0090
1906.00,0.0090
1905.00,0.0090
1904.00,0.0090
1903.00,0.0090
1902.00,0.0089
1901.00,0.0089
1900.00,0.0089
1899.00,0.0089
1898.00,0.0089
1897.00,0.0089
1896.00,0.0090
1895.00,0.0090
1894.00,0.0089
1893.00,0.0089
1892.00,0.0089
1891.00,0.0090
1890.00,0.0090
1889.00,0.0090
1888.00,0.0089
1887.00,0.0088
1886.00,0.0088
1885.00,0.0088
1884.00,0.0088
1883.00,0.0087
1882.00,0.0087
1881.00,0.0087
1880.00,0.0087
1879.00,0.0088
1878.00,0.0087
1877.00,0.0087
1876.00,0.0087
1875.00,0.0087
1874.00,0.0086
1873.00,0.0086
1872.00,0.0087
1871.00,0.0087
1870.00,0.0087
1869.00,0.0087
1868.00,0.0087
1867.00,0.0086
1866.00,0.0085
1865.00,0.0085
1864.00,0.0085
1863.00,0.0085
1862.00,0.0085
1861.00,0.0085
1860.00,0.0086
1859.00,0.0086
1858.00,0.0085
1857.00,0.0085
1856.00,0.0085
1855.00,0.0085
1854.00,0.0084
1853.00,0.0084
1852.00,0.0084
1851.00,0.0084
1850.00,0.0084
1849.00,0.0084
1848.00,0.0085
1847.00,0.0085
1846.00,0.0085
1845.00,0.0083
1844.00,0.0082
1843.00,0.0081
1842.00,0.0080
1841.00,0.0081
1840.00,0.0082
1839.00,0.0082
1838.00,0.0082
1837.00,0.0082
1836.00,0.0082
1835.00,0.0082
1834.00,0.0081
1833.00,0.0082
1832.00,0.0083
1831.00,0.0084
1830.00,0.0084
1829.00,0.0083
1828.00,0.0082
1827.00,0.0081
1826.00,0.0081
1825.00,0.0080
1824.00,0.0080
1823.00,0.0080
1822.00,0.0079
1821.00,0.0079
1820.00,0.0079
1819.00,0.0079
1818.00,0.0079
1817.00,0.0079
1816.00,0.0079
1815.00,0.0079
1814.00,0.0079
1813.00,0.0079
1812.00,0.0079
1811.00,0.0079
1810.00,0.0078
1809.00,0.0077
1808.00,0.0077
1807.00,0.0077
1806.00,0.0077
1805.00,0.0077
1804.00,0.0077
1803.00,0.0078
1802.00,0.0077
1801.00,0.0077
1800.00,0.0076
1799.00,0.0075
1798.00,0.0074
1797.00,0.0074
1796.00,0.0075
1795.00,0.0076
1794.00,0.0075
1793.00,0.0074
1792.00,0.0073
1791.00,0.0073
1790.00,0.0072
1789.00,0.0071
1788.00,0.0072
1787.00,0.0072
1786.00,0.0072
1785.00,0.0072
1784.00,0.0072
1783.00,0.0072
1782.00,0.0072
1781.00,0.0072
1780.00,0.0072
1779.00,0.0071
1778.00,0.0071
1777.00,0.0071
1776.00,0.0072
1775.00,0.0072
1774.00,0.0072
1773.00,0.0071
1772.00,0.0070
1771.00,0.0069
1770.00,0.0069
1769.00,0.0068
1768.00,0.0067
1767.00,0.0067
1766.00,0.0067
1765.00,0.0068
1764.00,0.0070
1763.00,0.0070
1762.00,0.0070
1761.00,0.0070
1760.00,0.0069
1759.00,0.0069
1758.00,0.0070
1757.00,0.0069
1756.00,0.0068
1755.00,0.0068
1754.00,0.0069
1753.00,0.0069
1752.00,0.0068
1751.00,0.0068
1750.00,0.0070
1749.00,0.0071
1748.00,0.0072
1747.00,0.0072
1746.00,0.0074
1745.00,0.0075
1744.00,0.0076
1743.00,0.0077
1742.00,0.0077
1741.00,0.0076
1740.00,0.0075
1739.00,0.0074
1738.00,0.0074
1737.00,0.0074
1736.00,0.0073
1735.00,0.0070
1734.00,0.0067
1733.00,0.0065
1732.00,0.0065
1731.00,0.0066
1730.00,0.0067
1729.00,0.0066
1728.00,0.0066
1727.00,0.0065
1726.00,0.0065
1725.00,0.0065
1724.00,0.0065
1723.00,0.0065
1722.00,0.0066
1721.00,0.0067
1720.00,0.0068
1719.00,0.0068
1718.00,0.0067
1717.00,0.0065
1716.00,0.0065
1715.00,0.0065
1714.00,0.0065
1713.00,0.0067
1712.00,0.0070
1711.00,0.0072
1710.00,0.0075
1709.00,0.0078
1708.00,0.0083
1707.00,0.0088
1706.00,0.0095
1705.00,0.0102
1704.00,0.0110
1703.00,0.0117
1702.00,0.0124
1701.00,0.0133
1700.00,0.0147
1699.00,0.0158
1698.00,0.0164
1697.00,0.0169
1696.00,0.0174
1695.00,0.0177
1694.00,0.0180
1693.00,0.0184
1692.00,0.0189
1691.00,0.0194
1690.00,0.0200
1689.00,0.0206
1688.00,0.0212
1687.00,0.0216
1686.00,0.0220
1685.00,0.0228
1684.00,0.0239
1683.00,0.0247
1682.00,0.0254
1681.00,0.0260
1680.00,0.0266
1679.00,0.0272
1678.00,0.0278
1677.00,0.0284
1676.00,0.0291
1675.00,0.0300
1674.00,0.0309
1673.00,0.0316
1672.00,0.0323
1671.00,0.0331
1670.00,0.0341
1669.00,0.0352
1668.00,0.0362
1667.00,0.0369
1666.00,0.0376
1665.00,0.0382
1664.00,0.0391
1663.00,0.0401
1662.00,0.0412
1661.00,0.0421
1660.00,0.0429
1659.00,0.0435
1658.00,0.0442
1657.00,0.0448
1656.00,0.0452
1655.00,0.0454
1654.00,0.0463
1653.00,0.0478
1652.00,0.0486
1651.00,0.0489
1650.00,0.0487
1649.00,0.0485
1648.00,0.0485
1647.00,0.0489
1646.00,0.0492
1645.00,0.0493
1644.00,0.0493
1643.00,0.0492
1642.00,0.0491
1641.00,0.0491
1640.00,0.0490
1639.00,0.0490
1638.00,0.0489
1637.00,0.0489
1636.00,0.0494
1635.00,0.0500
1634.00,0.0504
1633.00,0.0506
1632.00,0.0507
1631.00,0.0507
1630.00,0.0509
1629.00,0.0514
1628.00,0.0521
1627.00,0.0528
1626.00,0.0533
1625.00,0.0539
1624.00,0.0547
1623.00,0.0556
1622.00,0.0565
1621.00,0.0570
1620.00,0.0572
1619.00,0.0571
1618.00,0.0572
1617.00,0.0575
1616.00,0.0577
1615.00,0.0575
1614.00,0.0569
1613.00,0.0560
1612.00,0.0550
1611.00,0.0538
1610.00,0.0527
1609.00,0.0515
1608.00,0.0503
1607.00,0.0490
1606.00,0.0477
1605.00,0.0464
1604.00,0.0451
1603.00,0.0439
1602.00,0.0427
1601.00,0.0416
1600.00,0.0404
1599.00,0.0393
1598.00,0.0383
1597.00,0.0374
1596.00,0.0365
1595.00,0.0356
1594.00,0.0348
1593.00,0.0340
1592.00,0.0333
1591.00,0.0325
1590.00,0.0319
1589.00,0.0313
1588.00,0.0307
1587.00,0.0302
1586.00,0.0297
1585.00,0.0293
1584.00,0.0289
1583.00,0.0285
1582.00,0.0283
1581.00,0.0281
1580.00,0.0278
1579.00,0.0276
1578.00,0.0274
1577.00,0.0273
1576.00,0.0271
1575.00,0.0270
1574.00,0.0271
1573.00,0.0272
1572.00,0.0272
1571.00,0.0272
1570.00,0.0275
1569.00,0.0278
1568.00,0.0280
1567.00,0.0281
1566.00,0.0285
1565.00,0.0289
1564.00,0.0294
1563.00,0.0299
1562.00,0.0302
1561.00,0.0305
1560.00,0.0311
1559.00,0.0324
1558.00,0.0337
1557.00,0.0345
1556.00,0.0350
1555.00,0.0356
1554.00,0.0364
1553.00,0.0371
1552.00,0.0379
1551.00,0.0387
1550.00,0.0396
1549.00,0.0404
1548.00,0.0410
1547.00,0.0414
1546.00,0.0420
1545.00,0.0428
1544.00,0.0436
1543.00,0.0442
1542.00,0.0446
1541.00,0.0452
1540.00,0.0461
1539.00,0.0468
1538.00,0.0473
1537.00,0.0475
1536.00,0.0476
1535.00,0.0477
1534.00,0.0482
1533.00,0.0489
1532.00,0.0494
1531.00,0.0496
1530.00,0.0497
1529.00,0.0499
1528.00,0.0502
1527.00,0.0506
1526.00,0.0511
1525.00,0.0514
1524.00,0.0516
1523.00,0.0518
1522.00,0.0523
1521.00,0.0531
1520.00,0.0536
1519.00,0.0539
1518.00,0.0541
1517.00,0.0544
1516.00,0.0546
1515.00,0.0546
1514.00,0.0544
1513.00,0.0540
1512.00,0.0538
1511.00,0.0535
1510.00,0.0532
1509.00,0.0526
1508.00,0.0521
1507.00,0.0518
1506.00,0.0514
1505.00,0.0507
1504.00,0.0499
1503.00,0.0491
1502.00,0.0482
1501.00,0.0474
1500.00,0.0466
1499.00,0.0459
1498.00,0.0451
1497.00,0.0443
1496.00,0.0436
1495.00,0.0429
1494.00,0.0421
1493.00,0.0413
1492.00,0.0404
1491.00,0.0397
1490.00,0.0390
1489.00,0.0383
1488.00,0.0376
1487.00,0.0368
1486.00,0.0360
1485.00,0.0353
1484.00,0.0346
1483.00,0.0340
1482.00,0.0334
1481.00,0.0328
1480.00,0.0324
1479.00,0.0319
1478.00,0.0316
1477.00,0.0313
1476.00,0.0311
1475.00,0.0310
1474.00,0.0308
1473.00,0.0307
1472.00,0.0309
1471.00,0.0310
1470.00,0.0312
1469.00,0.0312
1468.00,0.0313
1467.00,0.0313
1466.00,0.0313
1465.00,0.0313
1464.00,0.0314
1463.00,0.0314
1462.00,0.0315
1461.00,0.0316
1460.00,0.0318
1459.00,0.0321
1458.00,0.0326
1457.00,0.0331
1456.00,0.0335
1455.00,0.0338
1454.00,0.0340
1453.00,0.0340
1452.00,0.0341
1451.00,0.0341
1450.00,0.0341
1449.00,0.0341
1448.00,0.0340
1447.00,0.0340
1446.00,0.0338
1445.00,0.0335
1444.00,0.0332
1443.00,0.0329
1442.00,0.0326
1441.00,0.0323
1440.00,0.0319
1439.00,0.0316
1438.00,0.0313
1437.00,0.0310
1436.00,0.0307
1435.00,0.0305
1434.00,0.0303
1433.00,0.0300
1432.00,0.0297
1431.00,0.0295
1430.00,0.0294
1429.00,0.0293
1428.00,0.0291
1427.00,0.0290
1426.00,0.0290
1425.00,0.0290
1424.00,0.0290
1423.00,0.0291
1422.00,0.0292
1421.00,0.0292
1420.00,0.0293
1419.00,0.0297
1418.00,0.0300
1417.00,0.0301
1416.00,0.0301
1415.00,0.0302
1414.00,0.0304
1413.00,0.0305
1412.00,0.0305
1411.00,0.0307
1410.00,0.0308
1409.00,0.0308
1408.00,0.0307
1407.00,0.0308
1406.00,0.0308
1405.00,0.0308
1404.00,0.0307
1403.00,0.0307
1402.00,0.0306
1401.00,0.0305
1400.00,0.0304
1399.00,0.0304
1398.00,0.0305
1397.00,0.0305
1396.00,0.0305
1395.00,0.0305
1394.00,0.0305
1393.00,0.0305
1392.00,0.0304
1391.00,0.0303
1390.00,0.0304
1389.00,0.0304
1388.00,0.0305
1387.00,0.0305
1386.00,0.0305
1385.00,0.0305
1384.00,0.0304
1383.00,0.0303
1382.00,0.0303
1381.00,0.0303
1380.00,0.0302
1379.00,0.0301
1378.00,0.0300
1377.00,0.0300
1376.00,0.0299
1375.00,0.0299
1374.00,0.0299
1373.00,0.0299
1372.00,0.0298
1371.00,0.0296
1370.00,0.0295
1369.00,0.0295
1368.00,0.0293
1367.00,0.0292
1366.00,0.0290
1365.00,0.0289
1364.00,0.0287
1363.00,0.0286
1362.00,0.0285
1361.00,0.0283
1360.00,0.0281
1359.00,0.0279
1358.00,0.0277
1357.00,0.0276
1356.00,0.0275
1355.00,0.0275
1354.00,0.0274
1353.00,0.0274
1352.00,0.0273
1351.00,0.0273
1350.00,0.0273
1349.00,0.0273
1348.00,0.0273
1347.00,0.0273
1346.00,0.0273
1345.00,0.0273
1344.00,0.0273
1343.00,0.0274
1342.00,0.0274
1341.00,0.0275
1340.00,0.0276
1339.00,0.0277
1338.00,0.0277
1337.00,0.0276
1336.00,0.0275
1335.00,0.0274
1334.00,0.0273
1333.00,0.0273
1332.00,0.0272
1331.00,0.0272
1330.00,0.0272
1329.00,0.0271
1328.00,0.0271
1327.00,0.0271
1326.00,0.0270
1325.00,0.0271
1324.00,0.0270
1323.00,0.0271
1322.00,0.0271
1321.00,0.0272
1320.00,0.0272
1319.00,0.0273
1318.00,0.0273
1317.00,0.0274
1316.00,0.0274
1315.00,0.0275
1314.00,0.0275
1313.00,0.0276
1312.00,0.0276
1311.00,0.0277
1310.00,0.0277
1309.00,0.0278
1308.00,0.0278
1307.00,0.0278
1306.00,0.0279
1305.00,0.0279
1304.00,0.0279
1303.00,0.0279
1302.00,0.0279
1301.00,0.0279
1300.00,0.0279
1299.00,0.0279
1298.00,0.0279
1297.00,0.0278
1296.00,0.0278
1295.00,0.0277
1294.00,0.0277
1293.00,0.0277
1292.00,0.0276
1291.00,0.0276
1290.00,0.0276
1289.00,0.0276
1288.00,0.0275
1287.00,0.0275
1286.00,0.0275
1285.00,0.0274
1284.00,0.0274
1283.00,0.0273
1282.00,0.0273
1281.00,0.0273
1280.00,0.0272
1279.00,0.0272
1278.00,0.0271
1277.00,0.0271
1276.00,0.0271
1275.00,0.0270
1274.00,0.0270
1273.00,0.0270
1272.00,0.0270
1271.00,0.0271
1270.00,0.0271
1269.00,0.0271
1268.00,0.0272
1267.00,0.0272
1266.00,0.0273
1265.00,0.0274
1264.00,0.0274
1263.00,0.0275
1262.00,0.0277
1261.00,0.0278
1260.00,0.0279
1259.00,0.0280
1258.00,0.0282
1257.00,0.0283
1256.00,0.0285
1255.00,0.0286
1254.00,0.0288
1253.00,0.0290
1252.00,0.0292
1251.00,0.0293
1250.00,0.0295
1249.00,0.0297
1248.00,0.0298
1247.00,0.0299
1246.00,0.0301
1245.00,0.0302
1244.00,0.0303
1243.00,0.0304
1242.00,0.0305
1241.00,0.0306
1240.00,0.0306
1239.00,0.0306
1238.00,0.0307
1237.00,0.0307
1236.00,0.0307
1235.00,0.0307
1234.00,0.0308
1233.00,0.0307
1232.00,0.0307
1231.00,0.0307
1230.00,0.0306
1229.00,0.0306
1228.00,0.0305
1227.00,0.0304
1226.00,0.0303
1225.00,0.0302
1224.00,0.0300
1223.00,0.0299
1222.00,0.0298
1221.00,0.0297
1220.00,0.0295
1219.00,0.0294
1218.00,0.0292
1217.00,0.0291
1216.00,0.0289
1215.00,0.0287
1214.00,0.0286
1213.00,0.0284
1212.00,0.0282
1211.00,0.0280
1210.00,0.0279
1209.00,0.0277
1208.00,0.0274
1207.00,0.0272
1206.00,0.0270
1205.00,0.0268
1204.00,0.0266
1203.00,0.0264
1202.00,0.0262
1201.00,0.0259
1200.00,0.0257
1199.00,0.0255
1198.00,0.0253
1197.00,0.0251
1196.00,0.0249
1195.00,0.0247
1194.00,0.0246
1193.00,0.0244
1192.00,0.0243
1191.00,0.0242
1190.00,0.0241
1189.00,0.0240
1188.00,0.0239
1187.00,0.0238
1186.00,0.0237
1185.00,0.0236
1184.00,0.0235
1183.00,0.0235
1182.00,0.0235
1181.00,0.0235
1180.00,0.0235
1179.00,0.0236
1178.00,0.0237
1177.00,0.0239
1176.00,0.0240
1175.00,0.0242
1174.00,0.0244
1173.00,0.0247
1172.00,0.0249
1171.00,0.0251
1170.00,0.0253
1169.00,0.0255
1168.00,0.0256
1167.00,0.0257
1166.00,0.0258
1165.00,0.0259
1164.00,0.0259
1163.00,0.0259
1162.00,0.0260
1161.00,0.0259
1160.00,0.0258
1159.00,0.0257
1158.00,0.0256
1157.00,0.0255
1156.00,0.0253
1155.00,0.0251
1154.00,0.0249
1153.00,0.0248
1152.00,0.0245
1151.00,0.0243
1150.00,0.0242
1149.00,0.0240
1148.00,0.0238
1147.00,0.0236
1146.00,0.0235
1145.00,0.0234
1144.00,0.0232
1143.00,0.0231
1142.00,0.0230
1141.00,0.0230
1140.00,0.0229
1139.00,0.0228
1138.00,0.0228
1137.00,0.0227
1136.00,0.0227
1135.00,0.0226
1134.00,0.0226
1133.00,0.0226
1132.00,0.0226
1131.00,0.0225
1130.00,0.0225
1129.00,0.0225
1128.00,0.0224
1127.00,0.0224
1126.00,0.0224
1125.00,0.0224
1124.00,0.0224
1123.00,0.0223
1122.00,0.0223
1121.00,0.0223
1120.00,0.0222
1119.00,0.0222
1118.00,0.0222
1117.00,0.0222
1116.00,0.0221
1115.00,0.0221
1114.00,0.0221
1113.00,0.0221
1112.00,0.0221
1111.00,0.0221
1110.00,0.0221
1109.00,0.0221
1108.00,0.0221
1107.00,0.0221
1106.00,0.0222
1105.00,0.0222
1104.00,0.0222
1103.00,0.0222
1102.00,0.0223
1101.00,0.0223
1100.00,0.0223
1099.00,0.0224
1098.00,0.0224
1097.00,0.0225
1096.00,0.0225
1095.00,0.0226
1094.00,0.0228
1093.00,0.0230
1092.00,0.0231
1091.00,0.0233
1090.00,0.0235
1089.00,0.0238
1088.00,0.0240
1087.00,0.0242
1086.00,0.0246
1085.00,0.0249
1084.00,0.0252
1083.00,0.0255
1082.00,0.0259
1081.00,0.0262
1080.00,0.0264
1079.00,0.0267
1078.00,0.0270
1077.00,0.0273
1076.00,0.0276
1075.00,0.0278
1074.00,0.0281
1073.00,0.0283
1072.00,0.0285
1071.00,0.0287
1070.00,0.0289
1069.00,0.0290
1068.00,0.0291
1067.00,0.0292
1066.00,0.0293
1065.00,0.0294
1064.00,0.0295
1063.00,0.0295
1062.00,0.0295
1061.00,0.0294
1060.00,0.0293
1059.00,0.0292
1058.00,0.0292
1057.00,0.0291
1056.00,0.0289
1055.00,0.0288
1054.00,0.0288
1053.00,0.0287
1052.00,0.0285
1051.00,0.0284
1050.00,0.0283
1049.00,0.0282
1048.00,0.0281
1047.00,0.0280
1046.00,0.0278
1045.00,0.0277
1044.00,0.0275
1043.00,0.0273
1042.00,0.0271
1041.00,0.0269
1040.00,0.0266
1039.00,0.0264
1038.00,0.0262
1037.00,0.0260
1036.00,0.0258
1035.00,0.0257
1034.00,0.0256
1033.00,0.0254
1032.00,0.0253
1031.00,0.0251
1030.00,0.0249
1029.00,0.0247
1028.00,0.0245
1027.00,0.0242
1026.00,0.0240
1025.00,0.0237
1024.00,0.0235
1023.00,0.0232
1022.00,0.0230
1021.00,0.0228
1020.00,0.0225
1019.00,0.0223
1018.00,0.0221
1017.00,0.0219
1016.00,0.0217
1015.00,0.0215
1014.00,0.0213
1013.00,0.0212
1012.00,0.0210
1011.00,0.0208
1010.00,0.0207
1009.00,0.0205
1008.00,0.0204
1007.00,0.0202
1006.00,0.0201
1005.00,0.0200
1004.00,0.0199
1003.00,0.0197
1002.00,0.0196
1001.00,0.0196
1000.00,0.0194
999.00,0.0193
998.00,0.0193
997.00,0.0192
996.00,0.0191
995.00,0.0191
994.00,0.0190
993.00,0.0190
992.00,0.0189
991.00,0.0189
990.00,0.0189
989.00,0.0188
988.00,0.0187
987.00,0.0186
986.00,0.0186
985.00,0.0186
984.00,0.0185
983.00,0.0185
982.00,0.0185
981.00,0.0185
980.00,0.0184
979.00,0.0184
978.00,0.0185
977.00,0.0185
976.00,0.0185
975.00,0.0185
974.00,0.0185
973.00,0.0185
972.00,0.0186
971.00,0.0186
970.00,0.0187
969.00,0.0188
968.00,0.0188
967.00,0.0189
966.00,0.0190
965.00,0.0191
964.00,0.0191
963.00,0.0192
962.00,0.0192
961.00,0.0192
960.00,0.0191
959.00,0.0191
958.00,0.0190
957.00,0.0190
956.00,0.0188
955.00,0.0187
954.00,0.0187
953.00,0.0186
952.00,0.0185
951.00,0.0185
950.00,0.0184
949.00,0.0184
948.00,0.0183
947.00,0.0183
946.00,0.0183
945.00,0.0183
944.00,0.0182
943.00,0.0182
942.00,0.0182
941.00,0.0182
940.00,0.0181
939.00,0.0181
938.00,0.0182
937.00,0.0182
936.00,0.0182
935.00,0.0182
934.00,0.0183
933.00,0.0183
932.00,0.0182
931.00,0.0182
930.00,0.0182
929.00,0.0182
928.00,0.0181
927.00,0.0181
926.00,0.0181
925.00,0.0181
924.00,0.0180
923.00,0.0179
922.00,0.0178
921.00,0.0178
920.00,0.0177
919.00,0.0176
918.00,0.0176
917.00,0.0176
916.00,0.0175
915.00,0.0175
914.00,0.0174
913.00,0.0174
912.00,0.0173
911.00,0.0173
910.00,0.0173
909.00,0.0173
908.00,0.0174
907.00,0.0174
906.00,0.0175
905.00,0.0175
904.00,0.0175
903.00,0.0175
902.00,0.0175
901.00,0.0175
900.00,0.0175
899.00,0.0175
898.00,0.0175
897.00,0.0175
896.00,0.0175
895.00,0.0174
894.00,0.0174
893.00,0.0174
892.00,0.0173
891.00,0.0173
890.00,0.0172
889.00,0.0172
888.00,0.0171
887.00,0.0170
886.00,0.0169
885.00,0.0169
884.00,0.0168
883.00,0.0168
882.00,0.0168
881.00,0.0168
880.00,0.0168
879.00,0.0167
878.00,0.0168
877.00,0.0168
876.00,0.0167
875.00,0.0167
874.00,0.0167
873.00,0.0167
872.00,0.0167
871.00,0.0166
870.00,0.0166
869.00,0.0166
868.00,0.0165
867.00,0.0164
866.00,0.0164
865.00,0.0163
864.00,0.0162
863.00,0.0162
862.00,0.0162
861.00,0.0161
860.00,0.0160
859.00,0.0160
858.00,0.0160
857.00,0.0160
856.00,0.0160
855.00,0.0160
854.00,0.0160
853.00,0.0161
852.00,0.0160
851.00,0.0160
850.00,0.0161
849.00,0.0161
848.00,0.0160
847.00,0.0160
846.00,0.0160
845.00,0.0160
844.00,0.0160
843.00,0.0160
842.00,0.0161
841.00,0.0161
840.00,0.0161
839.00,0.0161
838.00,0.0162
837.00,0.0163
836.00,0.0164
835.00,0.0164
834.00,0.0166
833.00,0.0167
832.00,0.0167
831.00,0.0168
830.00,0.0169
829.00,0.0170
828.00,0.0170
827.00,0.0171
826.00,0.0172
825.00,0.0172
824.00,0.0173
823.00,0.0173
822.00,0.0174
821.00,0.0174
820.00,0.0174
819.00,0.0175
818.00,0.0176
817.00,0.0177
816.00,0.0177
815.00,0.0178
814.00,0.0179
813.00,0.0180
812.00,0.0180
811.00,0.0181
810.00,0.0182
809.00,0.0183
808.00,0.0183
807.00,0.0184
806.00,0.0185
805.00,0.0186
804.00,0.0186
803.00,0.0186
802.00,0.0186
801.00,0.0187
800.00,0.0186
799.00,0.0187
798.00,0.0187
797.00,0.0188
796.00,0.0188
795.00,0.0189
794.00,0.0190
793.00,0.0191
792.00,0.0192
791.00,0.0193
790.00,0.0194
789.00,0.0196
788.00,0.0197
787.00,0.0198
786.00,0.0199
785.00,0.0200
784.00,0.0201
783.00,0.0202
782.00,0.0204
781.00,0.0205
780.00,0.0207
779.00,0.0208
778.00,0.0209
777.00,0.0211
776.00,0.0212
775.00,0.0214
774.00,0.0215
773.00,0.0217
772.00,0.0218
771.00,0.0219
770.00,0.0221
769.00,0.0222
768.00,0.0223
767.00,0.0224
766.00,0.0225
765.00,0.0227
764.00,0.0227
763.00,0.0228
762.00,0.0229
761.00,0.0230
760.00,0.0230
759.00,0.0231
758.00,0.0233
757.00,0.0235
756.00,0.0236
755.00,0.0237
754.00,0.0239
753.00,0.0240
752.00,0.0241
751.00,0.0242
750.00,0.0244
749.00,0.0245
748.00,0.0245
747.00,0.0246
746.00,0.0246
745.00,0.0246
744.00,0.0245
743.00,0.0245
742.00,0.0245
741.00,0.0245
740.00,0.0245
739.00,0.0245
738.00,0.0245
737.00,0.0245
736.00,0.0246
735.00,0.0247
734.00,0.0248
733.00,0.0250
732.00,0.0251
731.00,0.0252
730.00,0.0254
729.00,0.0256
728.00,0.0258
727.00,0.0261
726.00,0.0264
725.00,0.0267
724.00,0.0269
723.00,0.0272
722.00,0.0276
721.00,0.0279
720.00,0.0282
719.00,0.0285
718.00,0.0289
717.00,0.0293
716.00,0.0297
715.00,0.0300
714.00,0.0304
713.00,0.0308
712.00,0.0311
711.00,0.0315
710.00,0.0319
709.00,0.0324
708.00,0.0328
707.00,0.0333
706.00,0.0338
705.00,0.0342
704.00,0.0346
703.00,0.0350
702.00,0.0354
701.00,0.0358
700.00,0.0360
699.00,0.0362
698.00,0.0364
697.00,0.0365
696.00,0.0364
695.00,0.0364
694.00,0.0364
693.00,0.0364
692.00,0.0363
691.00,0.0363
690.00,0.0363
689.00,0.0364
688.00,0.0364
687.00,0.0364
686.00,0.0365
685.00,0.0367
684.00,0.0367
683.00,0.0368
682.00,0.0369
681.00,0.0370
680.00,0.0371
679.00,0.0372
678.00,0.0373
677.00,0.0375
676.00,0.0375
675.00,0.0375
674.00,0.0376
673.00,0.0377
672.00,0.0378
671.00,0.0377
670.00,0.0377
669.00,0.0377
668.00,0.0380
667.00,0.0383
666.00,0.0386
665.00,0.0387
664.00,0.0386
663.00,0.0386
662.00,0.0387
661.00,0.0389
660.00,0.0390
659.00,0.0391
658.00,0.0392
657.00,0.0393
656.00,0.0393
655.00,0.0393
654.00,0.0394
653.00,0.0396
652.00,0.0396
651.00,0.0397
650.00,0.0399
649.00,0.0400
648.00,0.0401
647.00,0.0402
646.00,0.0404
645.00,0.0406
644.00,0.0407
643.00,0.0409
642.00,0.0411
641.00,0.0412
640.00,0.0413
639.00,0.0415
638.00,0.0417
637.00,0.0419
636.00,0.0420
635.00,0.0421
634.00,0.0424
633.00,0.0425
632.00,0.0426
631.00,0.0427
630.00,0.0428
629.00,0.0430
628.00,0.0430
627.00,0.0431
626.00,0.0432
625.00,0.0433
624.00,0.0433
623.00,0.0434
622.00,0.0435
621.00,0.0436
620.00,0.0436
619.00,0.0435
618.00,0.0435
617.00,0.0435
616.00,0.0433
615.00,0.0433
614.00,0.0433
613.00,0.0433
612.00,0.0432
611.00,0.0432
610.00,0.0432
609.00,0.0432
608.00,0.0430
607.00,0.0429
606.00,0.0430
605.00,0.0430
604.00,0.0430
603.00,0.0430
602.00,0.0431
601.00,0.0431
600.00,0.0431
599.00,0.0430
598.00,0.0432
597.00,0.0432
596.00,0.0432
595.00,0.0432
594.00,0.0433
593.00,0.0434
592.00,0.0433
591.00,0.0433
590.00,0.0435
589.00,0.0436
588.00,0.0436
587.00,0.0436
586.00,0.0437
585.00,0.0437
584.00,0.0437
583.00,0.0437
582.00,0.0439
581.00,0.0440
580.00,0.0439
579.00,0.0439
578.00,0.0441
577.00,0.0441
576.00,0.0441
575.00,0.0440
574.00,0.0441
573.00,0.0442
572.00,0.0442
571.00,0.0442
570.00,0.0444
569.00,0.0446
568.00,0.0445
567.00,0.0446
566.00,0.0447
565.00,0.0448
564.00,0.0447
563.00,0.0446
562.00,0.0448
561.00,0.0449
560.00,0.0449
559.00,0.0449
558.00,0.0451
557.00,0.0452
556.00,0.0451
555.00,0.0451
554.00,0.0452
553.00,0.0452
552.00,0.0451
551.00,0.0451
550.00,0.0452
549.00,0.0452
548.00,0.0451
547.00,0.0451
546.00,0.0453
545.00,0.0454
544.00,0.0453
543.00,0.0452
542.00,0.0454
541.00,0.0455
540.00,0.0455
539.00,0.0455
538.00,0.0456
537.00,0.0456
536.00,0.0455
535.00,0.0455
534.00,0.0457
533.00,0.0459
532.00,0.0458
531.00,0.0458
530.00,0.0460
529.00,0.0462
528.00,0.0461
527.00,0.0459
526.00,0.0461
525.00,0.0463
524.00,0.0464
523.00,0.0465
522.00,0.0467
521.00,0.0467
520.00,0.0465
519.00,0.0463
518.00,0.0464
517.00,0.0464
516.00,0.0462
515.00,0.0461
514.00,0.0462
513.00,0.0462
512.00,0.0460
511.00,0.0458
510.00,0.0458
509.00,0.0457
508.00,0.0454
507.00,0.0452
506.00,0.0451
505.00,0.0450
504.00,0.0447
503.00,0.0444
502.00,0.0444
501.00,0.0445
500.00,0.0443
499.00,0.0441
498.00,0.0441
497.00,0.0441
496.00,0.0439
495.00,0.0437
494.00,0.0438
493.00,0.0439
492.00,0.0438
491.00,0.0438
490.00,0.0439
489.00,0.0440
488.00,0.0439
487.00,0.0438
486.00,0.0440
485.00,0.0441
484.00,0.0438
483.00,0.0436
482.00,0.0438
481.00,0.0439
480.00,0.0436
479.00,0.0433
478.00,0.0434
477.00,0.0434
476.00,0.0431
475.00,0.0429
474.00,0.0431
473.00,0.0432
472.00,0.0429
471.00,0.0429
470.00,0.0433
469.00,0.0435
468.00,0.0432
467.00,0.0430
466.00,0.0432
465.00,0.0434
464.00,0.0433
463.00,0.0431
462.00,0.0434
461.00,0.0434
460.00,0.0430
459.00,0.0426
458.00,0.0428
457.00,0.0429
456.00,0.0427
455.00,0.0426
454.00,0.0430
453.00,0.0431
452.00,0.0428
451.00,0.0426
450.00,0.0429
449.00,0.0431
448.00,0.0428
447.00,0.0424
446.00,0.0424
445.00,0.0423
444.00,0.0418
443.00,0.0415
442.00,0.0416
441.00,0.0414
440.00,0.0408
439.00,0.0404
438.00,0.0407
437.00,0.0409
436.00,0.0407
435.00,0.0404
434.00,0.0406
433.00,0.0405
432.00,0.0400
431.00,0.0395
430.00,0.0395
429.00,0.0395
428.00,0.0389
427.00,0.0387
426.00,0.0391
425.00,0.0395
424.00,0.0389
423.00,0.0383
422.00,0.0383
421.00,0.0383
420.00,0.0375
419.00,0.0368
418.00,0.0374
417.00,0.0379
416.00,0.0376
415.00,0.0374
414.00,0.0381
413.00,0.0388
412.00,0.0386
411.00,0.0382
410.00,0.0385
409.00,0.0386
408.00,0.0375
407.00,0.0365
406.00,0.0368
405.00,0.0371
404.00,0.0364
403.00,0.0357
402.00,0.0363
401.00,0.0367
400.00,0.0355
