Created as New Dataset,Sample 373 By YargerLab Date Wednesday, October 23 2024
cm-1,A
4000.00,0.0031
3999.00,0.0031
3998.00,0.0031
3997.00,0.0031
3996.00,0.0031
3995.00,0.0031
3994.00,0.0031
3993.00,0.0031
3992.00,0.0031
3991.00,0.0031
3990.00,0.0031
3989.00,0.0031
3988.00,0.0031
3987.00,0.0031
3986.00,0.0031
3985.00,0.0031
3984.00,0.0031
3983.00,0.0031
3982.00,0.0031
3981.00,0.0031
3980.00,0.0031
3979.00,0.0031
3978.00,0.0031
3977.00,0.0031
3976.00,0.0031
3975.00,0.0032
3974.00,0.0032
3973.00,0.0032
3972.00,0.0032
3971.00,0.0032
3970.00,0.0031
3969.00,0.0031
3968.00,0.0031
3967.00,0.0031
3966.00,0.0031
3965.00,0.0031
3964.00,0.0031
3963.00,0.0031
3962.00,0.0031
3961.00,0.0031
3960.00,0.0031
3959.00,0.0031
3958.00,0.0031
3957.00,0.0031
3956.00,0.0031
3955.00,0.0031
3954.00,0.0031
3953.00,0.0031
3952.00,0.0031
3951.00,0.0031
3950.00,0.0031
3949.00,0.0031
3948.00,0.0031
3947.00,0.0031
3946.00,0.0031
3945.00,0.0031
3944.00,0.0031
3943.00,0.0031
3942.00,0.0031
3941.00,0.0031
3940.00,0.0031
3939.00,0.0031
3938.00,0.0031
3937.00,0.0031
3936.00,0.0031
3935.00,0.0031
3934.00,0.0030
3933.00,0.0030
3932.00,0.0030
3931.00,0.0031
3930.00,0.0031
3929.00,0.0031
3928.00,0.0031
3927.00,0.0031
3926.00,0.0031
3925.00,0.0031
3924.00,0.0031
3923.00,0.0031
3922.00,0.0030
3921.00,0.0030
3920.00,0.0030
3919.00,0.0030
3918.00,0.0030
3917.00,0.0030
3916.00,0.0030
3915.00,0.0030
3914.00,0.0030
3913.00,0.0030
3912.00,0.0030
3911.00,0.0030
3910.00,0.0030
3909.00,0.0030
3908.00,0.0030
3907.00,0.0030
3906.00,0.0030
3905.00,0.0030
3904.00,0.0030
3903.00,0.0030
3902.00,0.0030
3901.00,0.0030
3900.00,0.0030
3899.00,0.0030
3898.00,0.0030
3897.00,0.0030
3896.00,0.0030
3895.00,0.0030
3894.00,0.0030
3893.00,0.0030
3892.00,0.0030
3891.00,0.0030
3890.00,0.0030
3889.00,0.0030
3888.00,0.0030
3887.00,0.0030
3886.00,0.0030
3885.00,0.0030
3884.00,0.0030
3883.00,0.0030
3882.00,0.0030
3881.00,0.0030
3880.00,0.0030
3879.00,0.0030
3878.00,0.0030
3877.00,0.0030
3876.00,0.0030
3875.00,0.0030
3874.00,0.0030
3873.00,0.0030
3872.00,0.0029
3871.00,0.0029
3870.00,0.0030
3869.00,0.0030
3868.00,0.0030
3867.00,0.0030
3866.00,0.0030
3865.00,0.0030
3864.00,0.0029
3863.00,0.0029
3862.00,0.0029
3861.00,0.0029
3860.00,0.0029
3859.00,0.0030
3858.00,0.0030
3857.00,0.0029
3856.00,0.0029
3855.00,0.0029
3854.00,0.0029
3853.00,0.0029
3852.00,0.0029
3851.00,0.0029
3850.00,0.0029
3849.00,0.0029
3848.00,0.0029
3847.00,0.0029
3846.00,0.0029
3845.00,0.0029
3844.00,0.0029
3843.00,0.0029
3842.00,0.0029
3841.00,0.0029
3840.00,0.0029
3839.00,0.0029
3838.00,0.0029
3837.00,0.0029
3836.00,0.0029
3835.00,0.0029
3834.00,0.0029
3833.00,0.0029
3832.00,0.0029
3831.00,0.0029
3830.00,0.0029
3829.00,0.0029
3828.00,0.0029
3827.00,0.0029
3826.00,0.0029
3825.00,0.0029
3824.00,0.0029
3823.00,0.0029
3822.00,0.0029
3821.00,0.0029
3820.00,0.0029
3819.00,0.0029
3818.00,0.0028
3817.00,0.0028
3816.00,0.0029
3815.00,0.0029
3814.00,0.0029
3813.00,0.0029
3812.00,0.0029
3811.00,0.0029
3810.00,0.0029
3809.00,0.0029
3808.00,0.0029
3807.00,0.0029
3806.00,0.0029
3805.00,0.0029
3804.00,0.0029
3803.00,0.0029
3802.00,0.0029
3801.00,0.0029
3800.00,0.0029
3799.00,0.0029
3798.00,0.0029
3797.00,0.0029
3796.00,0.0029
3795.00,0.0029
3794.00,0.0029
3793.00,0.0029
3792.00,0.0029
3791.00,0.0029
3790.00,0.0029
3789.00,0.0029
3788.00,0.0029
3787.00,0.0029
3786.00,0.0029
3785.00,0.0029
3784.00,0.0029
3783.00,0.0029
3782.00,0.0029
3781.00,0.0029
3780.00,0.0029
3779.00,0.0029
3778.00,0.0029
3777.00,0.0029
3776.00,0.0030
3775.00,0.0030
3774.00,0.0030
3773.00,0.0030
3772.00,0.0030
3771.00,0.0030
3770.00,0.0030
3769.00,0.0030
3768.00,0.0030
3767.00,0.0029
3766.00,0.0029
3765.00,0.0029
3764.00,0.0029
3763.00,0.0029
3762.00,0.0029
3761.00,0.0030
3760.00,0.0030
3759.00,0.0029
3758.00,0.0029
3757.00,0.0029
3756.00,0.0029
3755.00,0.0029
3754.00,0.0029
3753.00,0.0029
3752.00,0.0029
3751.00,0.0029
3750.00,0.0029
3749.00,0.0029
3748.00,0.0029
3747.00,0.0029
3746.00,0.0029
3745.00,0.0029
3744.00,0.0029
3743.00,0.0029
3742.00,0.0029
3741.00,0.0029
3740.00,0.0029
3739.00,0.0029
3738.00,0.0029
3737.00,0.0029
3736.00,0.0029
3735.00,0.0029
3734.00,0.0029
3733.00,0.0029
3732.00,0.0029
3731.00,0.0029
3730.00,0.0029
3729.00,0.0029
3728.00,0.0029
3727.00,0.0029
3726.00,0.0029
3725.00,0.0030
3724.00,0.0030
3723.00,0.0030
3722.00,0.0030
3721.00,0.0030
3720.00,0.0030
3719.00,0.0030
3718.00,0.0030
3717.00,0.0030
3716.00,0.0030
3715.00,0.0029
3714.00,0.0029
3713.00,0.0030
3712.00,0.0030
3711.00,0.0030
3710.00,0.0030
3709.00,0.0030
3708.00,0.0030
3707.00,0.0030
3706.00,0.0030
3705.00,0.0030
3704.00,0.0030
3703.00,0.0030
3702.00,0.0030
3701.00,0.0030
3700.00,0.0030
3699.00,0.0030
3698.00,0.0030
3697.00,0.0030
3696.00,0.0030
3695.00,0.0030
3694.00,0.0030
3693.00,0.0030
3692.00,0.0030
3691.00,0.0030
3690.00,0.0030
3689.00,0.0030
3688.00,0.0029
3687.00,0.0029
3686.00,0.0029
3685.00,0.0029
3684.00,0.0029
3683.00,0.0029
3682.00,0.0029
3681.00,0.0029
3680.00,0.0029
3679.00,0.0029
3678.00,0.0029
3677.00,0.0029
3676.00,0.0028
3675.00,0.0028
3674.00,0.0028
3673.00,0.0028
3672.00,0.0028
3671.00,0.0028
3670.00,0.0028
3669.00,0.0028
3668.00,0.0028
3667.00,0.0029
3666.00,0.0029
3665.00,0.0029
3664.00,0.0029
3663.00,0.0029
3662.00,0.0029
3661.00,0.0029
3660.00,0.0029
3659.00,0.0029
3658.00,0.0030
3657.00,0.0030
3656.00,0.0030
3655.00,0.0031
3654.00,0.0031
3653.00,0.0031
3652.00,0.0031
3651.00,0.0031
3650.00,0.0032
3649.00,0.0032
3648.00,0.0032
3647.00,0.0032
3646.00,0.0033
3645.00,0.0033
3644.00,0.0034
3643.00,0.0034
3642.00,0.0035
3641.00,0.0035
3640.00,0.0036
3639.00,0.0036
3638.00,0.0036
3637.00,0.0036
3636.00,0.0037
3635.00,0.0038
3634.00,0.0038
3633.00,0.0039
3632.00,0.0040
3631.00,0.0040
3630.00,0.0040
3629.00,0.0041
3628.00,0.0041
3627.00,0.0042
3626.00,0.0042
3625.00,0.0043
3624.00,0.0043
3623.00,0.0044
3622.00,0.0044
3621.00,0.0044
3620.00,0.0045
3619.00,0.0045
3618.00,0.0045
3617.00,0.0045
3616.00,0.0046
3615.00,0.0046
3614.00,0.0046
3613.00,0.0047
3612.00,0.0047
3611.00,0.0047
3610.00,0.0048
3609.00,0.0048
3608.00,0.0049
3607.00,0.0049
3606.00,0.0050
3605.00,0.0050
3604.00,0.0051
3603.00,0.0051
3602.00,0.0052
3601.00,0.0052
3600.00,0.0052
3599.00,0.0053
3598.00,0.0053
3597.00,0.0053
3596.00,0.0054
3595.00,0.0054
3594.00,0.0055
3593.00,0.0055
3592.00,0.0056
3591.00,0.0056
3590.00,0.0057
3589.00,0.0057
3588.00,0.0057
3587.00,0.0058
3586.00,0.0058
3585.00,0.0059
3584.00,0.0059
3583.00,0.0059
3582.00,0.0060
3581.00,0.0060
3580.00,0.0061
3579.00,0.0062
3578.00,0.0062
3577.00,0.0063
3576.00,0.0063
3575.00,0.0063
3574.00,0.0064
3573.00,0.0064
3572.00,0.0065
3571.00,0.0065
3570.00,0.0066
3569.00,0.0066
3568.00,0.0067
3567.00,0.0067
3566.00,0.0067
3565.00,0.0068
3564.00,0.0068
3563.00,0.0069
3562.00,0.0069
3561.00,0.0070
3560.00,0.0071
3559.00,0.0071
3558.00,0.0072
3557.00,0.0073
3556.00,0.0073
3555.00,0.0074
3554.00,0.0074
3553.00,0.0075
3552.00,0.0075
3551.00,0.0075
3550.00,0.0076
3549.00,0.0076
3548.00,0.0077
3547.00,0.0077
3546.00,0.0078
3545.00,0.0078
3544.00,0.0079
3543.00,0.0079
3542.00,0.0080
3541.00,0.0081
3540.00,0.0081
3539.00,0.0082
3538.00,0.0082
3537.00,0.0083
3536.00,0.0083
3535.00,0.0084
3534.00,0.0084
3533.00,0.0085
3532.00,0.0086
3531.00,0.0086
3530.00,0.0087
3529.00,0.0087
3528.00,0.0088
3527.00,0.0088
3526.00,0.0089
3525.00,0.0089
3524.00,0.0090
3523.00,0.0090
3522.00,0.0091
3521.00,0.0091
3520.00,0.0092
3519.00,0.0092
3518.00,0.0093
3517.00,0.0093
3516.00,0.0094
3515.00,0.0095
3514.00,0.0095
3513.00,0.0096
3512.00,0.0097
3511.00,0.0097
3510.00,0.0098
3509.00,0.0098
3508.00,0.0099
3507.00,0.0099
3506.00,0.0100
3505.00,0.0101
3504.00,0.0101
3503.00,0.0102
3502.00,0.0102
3501.00,0.0103
3500.00,0.0103
3499.00,0.0104
3498.00,0.0104
3497.00,0.0105
3496.00,0.0106
3495.00,0.0107
3494.00,0.0107
3493.00,0.0108
3492.00,0.0109
3491.00,0.0109
3490.00,0.0110
3489.00,0.0110
3488.00,0.0111
3487.00,0.0112
3486.00,0.0113
3485.00,0.0113
3484.00,0.0114
3483.00,0.0115
3482.00,0.0115
3481.00,0.0116
3480.00,0.0117
3479.00,0.0118
3478.00,0.0118
3477.00,0.0119
3476.00,0.0120
3475.00,0.0120
3474.00,0.0121
3473.00,0.0122
3472.00,0.0122
3471.00,0.0123
3470.00,0.0123
3469.00,0.0124
3468.00,0.0125
3467.00,0.0126
3466.00,0.0126
3465.00,0.0127
3464.00,0.0127
3463.00,0.0128
3462.00,0.0128
3461.00,0.0129
3460.00,0.0130
3459.00,0.0130
3458.00,0.0131
3457.00,0.0132
3456.00,0.0132
3455.00,0.0133
3454.00,0.0134
3453.00,0.0135
3452.00,0.0135
3451.00,0.0136
3450.00,0.0137
3449.00,0.0138
3448.00,0.0139
3447.00,0.0139
3446.00,0.0140
3445.00,0.0141
3444.00,0.0142
3443.00,0.0143
3442.00,0.0144
3441.00,0.0144
3440.00,0.0145
3439.00,0.0146
3438.00,0.0147
3437.00,0.0148
3436.00,0.0149
3435.00,0.0150
3434.00,0.0151
3433.00,0.0152
3432.00,0.0153
3431.00,0.0153
3430.00,0.0154
3429.00,0.0155
3428.00,0.0156
3427.00,0.0157
3426.00,0.0158
3425.00,0.0159
3424.00,0.0160
3423.00,0.0161
3422.00,0.0162
3421.00,0.0163
3420.00,0.0164
3419.00,0.0165
3418.00,0.0165
3417.00,0.0166
3416.00,0.0167
3415.00,0.0168
3414.00,0.0169
3413.00,0.0170
3412.00,0.0171
3411.00,0.0172
3410.00,0.0173
3409.00,0.0174
3408.00,0.0174
3407.00,0.0175
3406.00,0.0176
3405.00,0.0177
3404.00,0.0178
3403.00,0.0179
3402.00,0.0180
3401.00,0.0181
3400.00,0.0182
3399.00,0.0182
3398.00,0.0183
3397.00,0.0184
3396.00,0.0185
3395.00,0.0186
3394.00,0.0187
3393.00,0.0187
3392.00,0.0188
3391.00,0.0189
3390.00,0.0190
3389.00,0.0191
3388.00,0.0192
3387.00,0.0193
3386.00,0.0194
3385.00,0.0195
3384.00,0.0195
3383.00,0.0196
3382.00,0.0197
3381.00,0.0198
3380.00,0.0199
3379.00,0.0200
3378.00,0.0201
3377.00,0.0202
3376.00,0.0203
3375.00,0.0204
3374.00,0.0205
3373.00,0.0206
3372.00,0.0207
3371.00,0.0208
3370.00,0.0209
3369.00,0.0210
3368.00,0.0211
3367.00,0.0212
3366.00,0.0214
3365.00,0.0215
3364.00,0.0216
3363.00,0.0217
3362.00,0.0219
3361.00,0.0220
3360.00,0.0221
3359.00,0.0222
3358.00,0.0224
3357.00,0.0225
3356.00,0.0226
3355.00,0.0228
3354.00,0.0229
3353.00,0.0230
3352.00,0.0231
3351.00,0.0233
3350.00,0.0234
3349.00,0.0236
3348.00,0.0237
3347.00,0.0239
3346.00,0.0240
3345.00,0.0241
3344.00,0.0243
3343.00,0.0244
3342.00,0.0245
3341.00,0.0247
3340.00,0.0248
3339.00,0.0250
3338.00,0.0251
3337.00,0.0253
3336.00,0.0255
3335.00,0.0257
3334.00,0.0258
3333.00,0.0260
3332.00,0.0262
3331.00,0.0263
3330.00,0.0265
3329.00,0.0266
3328.00,0.0268
3327.00,0.0269
3326.00,0.0271
3325.00,0.0273
3324.00,0.0274
3323.00,0.0276
3322.00,0.0278
3321.00,0.0280
3320.00,0.0282
3319.00,0.0284
3318.00,0.0285
3317.00,0.0287
3316.00,0.0289
3315.00,0.0291
3314.00,0.0293
3313.00,0.0294
3312.00,0.0296
3311.00,0.0297
3310.00,0.0299
3309.00,0.0300
3308.00,0.0301
3307.00,0.0303
3306.00,0.0305
3305.00,0.0307
3304.00,0.0309
3303.00,0.0311
3302.00,0.0313
3301.00,0.0315
3300.00,0.0317
3299.00,0.0319
3298.00,0.0320
3297.00,0.0321
3296.00,0.0322
3295.00,0.0324
3294.00,0.0325
3293.00,0.0326
3292.00,0.0328
3291.00,0.0329
3290.00,0.0331
3289.00,0.0332
3288.00,0.0334
3287.00,0.0335
3286.00,0.0336
3285.00,0.0336
3284.00,0.0337
3283.00,0.0338
3282.00,0.0338
3281.00,0.0339
3280.00,0.0339
3279.00,0.0339
3278.00,0.0339
3277.00,0.0339
3276.00,0.0339
3275.00,0.0338
3274.00,0.0337
3273.00,0.0337
3272.00,0.0336
3271.00,0.0335
3270.00,0.0335
3269.00,0.0334
3268.00,0.0334
3267.00,0.0333
3266.00,0.0332
3265.00,0.0331
3264.00,0.0329
3263.00,0.0328
3262.00,0.0327
3261.00,0.0325
3260.00,0.0323
3259.00,0.0322
3258.00,0.0320
3257.00,0.0318
3256.00,0.0316
3255.00,0.0315
3254.00,0.0313
3253.00,0.0312
3252.00,0.0310
3251.00,0.0309
3250.00,0.0307
3249.00,0.0305
3248.00,0.0303
3247.00,0.0301
3246.00,0.0300
3245.00,0.0299
3244.00,0.0298
3243.00,0.0296
3242.00,0.0295
3241.00,0.0294
3240.00,0.0292
3239.00,0.0291
3238.00,0.0290
3237.00,0.0288
3236.00,0.0286
3235.00,0.0285
3234.00,0.0283
3233.00,0.0282
3232.00,0.0282
3231.00,0.0281
3230.00,0.0280
3229.00,0.0279
3228.00,0.0279
3227.00,0.0278
3226.00,0.0277
3225.00,0.0276
3224.00,0.0275
3223.00,0.0274
3222.00,0.0273
3221.00,0.0272
3220.00,0.0271
3219.00,0.0270
3218.00,0.0269
3217.00,0.0269
3216.00,0.0268
3215.00,0.0267
3214.00,0.0266
3213.00,0.0265
3212.00,0.0265
3211.00,0.0264
3210.00,0.0263
3209.00,0.0262
3208.00,0.0262
3207.00,0.0261
3206.00,0.0260
3205.00,0.0259
3204.00,0.0258
3203.00,0.0257
3202.00,0.0257
3201.00,0.0256
3200.00,0.0255
3199.00,0.0254
3198.00,0.0253
3197.00,0.0253
3196.00,0.0252
3195.00,0.0251
3194.00,0.0250
3193.00,0.0249
3192.00,0.0248
3191.00,0.0247
3190.00,0.0247
3189.00,0.0246
3188.00,0.0245
3187.00,0.0244
3186.00,0.0243
3185.00,0.0242
3184.00,0.0241
3183.00,0.0240
3182.00,0.0239
3181.00,0.0238
3180.00,0.0237
3179.00,0.0236
3178.00,0.0235
3177.00,0.0234
3176.00,0.0234
3175.00,0.0233
3174.00,0.0232
3173.00,0.0231
3172.00,0.0230
3171.00,0.0229
3170.00,0.0228
3169.00,0.0227
3168.00,0.0226
3167.00,0.0225
3166.00,0.0224
3165.00,0.0223
3164.00,0.0222
3163.00,0.0221
3162.00,0.0220
3161.00,0.0219
3160.00,0.0219
3159.00,0.0218
3158.00,0.0217
3157.00,0.0216
3156.00,0.0215
3155.00,0.0214
3154.00,0.0213
3153.00,0.0212
3152.00,0.0211
3151.00,0.0210
3150.00,0.0210
3149.00,0.0209
3148.00,0.0209
3147.00,0.0208
3146.00,0.0207
3145.00,0.0207
3144.00,0.0206
3143.00,0.0205
3142.00,0.0204
3141.00,0.0203
3140.00,0.0203
3139.00,0.0202
3138.00,0.0201
3137.00,0.0201
3136.00,0.0201
3135.00,0.0200
3134.00,0.0200
3133.00,0.0199
3132.00,0.0199
3131.00,0.0198
3130.00,0.0198
3129.00,0.0197
3128.00,0.0197
3127.00,0.0197
3126.00,0.0196
3125.00,0.0196
3124.00,0.0195
3123.00,0.0195
3122.00,0.0194
3121.00,0.0194
3120.00,0.0193
3119.00,0.0193
3118.00,0.0193
3117.00,0.0193
3116.00,0.0193
3115.00,0.0193
3114.00,0.0193
3113.00,0.0193
3112.00,0.0193
3111.00,0.0193
3110.00,0.0193
3109.00,0.0193
3108.00,0.0193
3107.00,0.0194
3106.00,0.0194
3105.00,0.0194
3104.00,0.0194
3103.00,0.0194
3102.00,0.0194
3101.00,0.0194
3100.00,0.0194
3099.00,0.0195
3098.00,0.0195
3097.00,0.0196
3096.00,0.0196
3095.00,0.0196
3094.00,0.0196
3093.00,0.0196
3092.00,0.0196
3091.00,0.0196
3090.00,0.0196
3089.00,0.0197
3088.00,0.0197
3087.00,0.0197
3086.00,0.0197
3085.00,0.0197
3084.00,0.0198
3083.00,0.0198
3082.00,0.0198
3081.00,0.0198
3080.00,0.0198
3079.00,0.0198
3078.00,0.0198
3077.00,0.0199
3076.00,0.0200
3075.00,0.0200
3074.00,0.0200
3073.00,0.0200
3072.00,0.0200
3071.00,0.0200
3070.00,0.0199
3069.00,0.0199
3068.00,0.0199
3067.00,0.0199
3066.00,0.0199
3065.00,0.0199
3064.00,0.0199
3063.00,0.0199
3062.00,0.0199
3061.00,0.0198
3060.00,0.0198
3059.00,0.0197
3058.00,0.0196
3057.00,0.0196
3056.00,0.0195
3055.00,0.0194
3054.00,0.0194
3053.00,0.0193
3052.00,0.0192
3051.00,0.0192
3050.00,0.0191
3049.00,0.0190
3048.00,0.0190
3047.00,0.0189
3046.00,0.0188
3045.00,0.0187
3044.00,0.0186
3043.00,0.0185
3042.00,0.0185
3041.00,0.0184
3040.00,0.0184
3039.00,0.0183
3038.00,0.0183
3037.00,0.0182
3036.00,0.0181
3035.00,0.0180
3034.00,0.0179
3033.00,0.0179
3032.00,0.0179
3031.00,0.0178
3030.00,0.0178
3029.00,0.0177
3028.00,0.0176
3027.00,0.0176
3026.00,0.0175
3025.00,0.0174
3024.00,0.0173
3023.00,0.0172
3022.00,0.0171
3021.00,0.0170
3020.00,0.0169
3019.00,0.0168
3018.00,0.0167
3017.00,0.0166
3016.00,0.0165
3015.00,0.0164
3014.00,0.0162
3013.00,0.0161
3012.00,0.0160
3011.00,0.0159
3010.00,0.0159
3009.00,0.0157
3008.00,0.0156
3007.00,0.0155
3006.00,0.0153
3005.00,0.0152
3004.00,0.0150
3003.00,0.0149
3002.00,0.0147
3001.00,0.0146
3000.00,0.0145
2999.00,0.0143
2998.00,0.0143
2997.00,0.0142
2996.00,0.0142
2995.00,0.0141
2994.00,0.0141
2993.00,0.0141
2992.00,0.0142
2991.00,0.0143
2990.00,0.0144
2989.00,0.0144
2988.00,0.0145
2987.00,0.0146
2986.00,0.0146
2985.00,0.0144
2984.00,0.0142
2983.00,0.0140
2982.00,0.0140
2981.00,0.0141
2980.00,0.0145
2979.00,0.0150
2978.00,0.0155
2977.00,0.0160
2976.00,0.0165
2975.00,0.0169
2974.00,0.0172
2973.00,0.0174
2972.00,0.0177
2971.00,0.0180
2970.00,0.0184
2969.00,0.0188
2968.00,0.0193
2967.00,0.0196
2966.00,0.0199
2965.00,0.0202
2964.00,0.0204
2963.00,0.0206
2962.00,0.0208
2961.00,0.0209
2960.00,0.0210
2959.00,0.0210
2958.00,0.0210
2957.00,0.0210
2956.00,0.0209
2955.00,0.0208
2954.00,0.0207
2953.00,0.0206
2952.00,0.0206
2951.00,0.0205
2950.00,0.0205
2949.00,0.0204
2948.00,0.0204
2947.00,0.0205
2946.00,0.0205
2945.00,0.0207
2944.00,0.0208
2943.00,0.0210
2942.00,0.0212
2941.00,0.0215
2940.00,0.0217
2939.00,0.0219
2938.00,0.0222
2937.00,0.0224
2936.00,0.0226
2935.00,0.0228
2934.00,0.0230
2933.00,0.0232
2932.00,0.0233
2931.00,0.0234
2930.00,0.0235
2929.00,0.0236
2928.00,0.0237
2927.00,0.0238
2926.00,0.0238
2925.00,0.0238
2924.00,0.0238
2923.00,0.0238
2922.00,0.0236
2921.00,0.0235
2920.00,0.0233
2919.00,0.0230
2918.00,0.0227
2917.00,0.0225
2916.00,0.0222
2915.00,0.0219
2914.00,0.0216
2913.00,0.0213
2912.00,0.0210
2911.00,0.0207
2910.00,0.0205
2909.00,0.0202
2908.00,0.0200
2907.00,0.0198
2906.00,0.0196
2905.00,0.0194
2904.00,0.0192
2903.00,0.0190
2902.00,0.0189
2901.00,0.0188
2900.00,0.0186
2899.00,0.0185
2898.00,0.0183
2897.00,0.0182
2896.00,0.0180
2895.00,0.0179
2894.00,0.0178
2893.00,0.0177
2892.00,0.0175
2891.00,0.0174
2890.00,0.0174
2889.00,0.0173
2888.00,0.0173
2887.00,0.0173
2886.00,0.0173
2885.00,0.0173
2884.00,0.0173
2883.00,0.0174
2882.00,0.0175
2881.00,0.0177
2880.00,0.0178
2879.00,0.0180
2878.00,0.0181
2877.00,0.0182
2876.00,0.0183
2875.00,0.0184
2874.00,0.0184
2873.00,0.0184
2872.00,0.0184
2871.00,0.0183
2870.00,0.0183
2869.00,0.0182
2868.00,0.0181
2867.00,0.0179
2866.00,0.0178
2865.00,0.0178
2864.00,0.0177
2863.00,0.0176
2862.00,0.0176
2861.00,0.0176
2860.00,0.0176
2859.00,0.0176
2858.00,0.0176
2857.00,0.0177
2856.00,0.0177
2855.00,0.0177
2854.00,0.0177
2853.00,0.0176
2852.00,0.0175
2851.00,0.0174
2850.00,0.0172
2849.00,0.0170
2848.00,0.0168
2847.00,0.0165
2846.00,0.0162
2845.00,0.0160
2844.00,0.0157
2843.00,0.0155
2842.00,0.0153
2841.00,0.0151
2840.00,0.0149
2839.00,0.0147
2838.00,0.0146
2837.00,0.0145
2836.00,0.0144
2835.00,0.0143
2834.00,0.0142
2833.00,0.0141
2832.00,0.0141
2831.00,0.0140
2830.00,0.0139
2829.00,0.0138
2828.00,0.0138
2827.00,0.0137
2826.00,0.0137
2825.00,0.0136
2824.00,0.0136
2823.00,0.0135
2822.00,0.0135
2821.00,0.0134
2820.00,0.0134
2819.00,0.0133
2818.00,0.0133
2817.00,0.0133
2816.00,0.0132
2815.00,0.0132
2814.00,0.0132
2813.00,0.0131
2812.00,0.0131
2811.00,0.0130
2810.00,0.0130
2809.00,0.0129
2808.00,0.0129
2807.00,0.0129
2806.00,0.0129
2805.00,0.0128
2804.00,0.0128
2803.00,0.0128
2802.00,0.0127
2801.00,0.0127
2800.00,0.0126
2799.00,0.0126
2798.00,0.0125
2797.00,0.0125
2796.00,0.0125
2795.00,0.0125
2794.00,0.0124
2793.00,0.0124
2792.00,0.0124
2791.00,0.0123
2790.00,0.0123
2789.00,0.0122
2788.00,0.0122
2787.00,0.0122
2786.00,0.0122
2785.00,0.0121
2784.00,0.0121
2783.00,0.0121
2782.00,0.0120
2781.00,0.0120
2780.00,0.0120
2779.00,0.0120
2778.00,0.0119
2777.00,0.0119
2776.00,0.0119
2775.00,0.0118
2774.00,0.0118
2773.00,0.0118
2772.00,0.0117
2771.00,0.0117
2770.00,0.0117
2769.00,0.0117
2768.00,0.0116
2767.00,0.0116
2766.00,0.0116
2765.00,0.0115
2764.00,0.0115
2763.00,0.0115
2762.00,0.0115
2761.00,0.0114
2760.00,0.0114
2759.00,0.0114
2758.00,0.0114
2757.00,0.0113
2756.00,0.0113
2755.00,0.0113
2754.00,0.0112
2753.00,0.0112
2752.00,0.0112
2751.00,0.0111
2750.00,0.0111
2749.00,0.0111
2748.00,0.0110
2747.00,0.0110
2746.00,0.0110
2745.00,0.0110
2744.00,0.0110
2743.00,0.0109
2742.00,0.0109
2741.00,0.0109
2740.00,0.0109
2739.00,0.0108
2738.00,0.0108
2737.00,0.0108
2736.00,0.0108
2735.00,0.0107
2734.00,0.0107
2733.00,0.0107
2732.00,0.0107
2731.00,0.0106
2730.00,0.0106
2729.00,0.0106
2728.00,0.0105
2727.00,0.0105
2726.00,0.0105
2725.00,0.0104
2724.00,0.0104
2723.00,0.0104
2722.00,0.0104
2721.00,0.0103
2720.00,0.0103
2719.00,0.0103
2718.00,0.0102
2717.00,0.0102
2716.00,0.0102
2715.00,0.0102
2714.00,0.0102
2713.00,0.0101
2712.00,0.0101
2711.00,0.0101
2710.00,0.0100
2709.00,0.0100
2708.00,0.0100
2707.00,0.0099
2706.00,0.0099
2705.00,0.0099
2704.00,0.0099
2703.00,0.0099
2702.00,0.0099
2701.00,0.0098
2700.00,0.0098
2699.00,0.0098
2698.00,0.0098
2697.00,0.0098
2696.00,0.0097
2695.00,0.0097
2694.00,0.0097
2693.00,0.0097
2692.00,0.0097
2691.00,0.0096
2690.00,0.0096
2689.00,0.0096
2688.00,0.0096
2687.00,0.0096
2686.00,0.0095
2685.00,0.0095
2684.00,0.0095
2683.00,0.0095
2682.00,0.0095
2681.00,0.0095
2680.00,0.0094
2679.00,0.0094
2678.00,0.0094
2677.00,0.0094
2676.00,0.0094
2675.00,0.0094
2674.00,0.0093
2673.00,0.0093
2672.00,0.0093
2671.00,0.0093
2670.00,0.0092
2669.00,0.0092
2668.00,0.0092
2667.00,0.0092
2666.00,0.0092
2665.00,0.0092
2664.00,0.0092
2663.00,0.0092
2662.00,0.0092
2661.00,0.0092
2660.00,0.0091
2659.00,0.0091
2658.00,0.0091
2657.00,0.0091
2656.00,0.0091
2655.00,0.0091
2654.00,0.0091
2653.00,0.0091
2652.00,0.0091
2651.00,0.0090
2650.00,0.0090
2649.00,0.0090
2648.00,0.0090
2647.00,0.0090
2646.00,0.0090
2645.00,0.0090
2644.00,0.0090
2643.00,0.0090
2642.00,0.0090
2641.00,0.0090
2640.00,0.0090
2639.00,0.0090
2638.00,0.0090
2637.00,0.0090
2636.00,0.0090
2635.00,0.0090
2634.00,0.0090
2633.00,0.0090
2632.00,0.0090
2631.00,0.0090
2630.00,0.0090
2629.00,0.0090
2628.00,0.0090
2627.00,0.0090
2626.00,0.0090
2625.00,0.0089
2624.00,0.0089
2623.00,0.0089
2622.00,0.0089
2621.00,0.0089
2620.00,0.0089
2619.00,0.0089
2618.00,0.0089
2617.00,0.0089
2616.00,0.0089
2615.00,0.0089
2614.00,0.0089
2613.00,0.0089
2612.00,0.0089
2611.00,0.0088
2610.00,0.0088
2609.00,0.0088
2608.00,0.0088
2607.00,0.0088
2606.00,0.0088
2605.00,0.0088
2604.00,0.0088
2603.00,0.0088
2602.00,0.0088
2601.00,0.0088
2600.00,0.0088
2599.00,0.0087
2598.00,0.0087
2597.00,0.0087
2596.00,0.0087
2595.00,0.0087
2594.00,0.0087
2593.00,0.0087
2592.00,0.0087
2591.00,0.0087
2590.00,0.0087
2589.00,0.0087
2588.00,0.0086
2587.00,0.0086
2586.00,0.0086
2585.00,0.0086
2584.00,0.0086
2583.00,0.0086
2582.00,0.0086
2581.00,0.0086
2580.00,0.0086
2579.00,0.0085
2578.00,0.0085
2577.00,0.0085
2576.00,0.0085
2575.00,0.0085
2574.00,0.0084
2573.00,0.0085
2572.00,0.0085
2571.00,0.0085
2570.00,0.0085
2569.00,0.0085
2568.00,0.0084
2567.00,0.0084
2566.00,0.0084
2565.00,0.0084
2564.00,0.0084
2563.00,0.0084
2562.00,0.0083
2561.00,0.0083
2560.00,0.0083
2559.00,0.0083
2558.00,0.0083
2557.00,0.0083
2556.00,0.0083
2555.00,0.0083
2554.00,0.0083
2553.00,0.0082
2552.00,0.0082
2551.00,0.0082
2550.00,0.0082
2549.00,0.0082
2548.00,0.0082
2547.00,0.0082
2546.00,0.0082
2545.00,0.0081
2544.00,0.0081
2543.00,0.0081
2542.00,0.0081
2541.00,0.0081
2540.00,0.0081
2539.00,0.0081
2538.00,0.0081
2537.00,0.0081
2536.00,0.0081
2535.00,0.0081
2534.00,0.0081
2533.00,0.0080
2532.00,0.0080
2531.00,0.0080
2530.00,0.0080
2529.00,0.0080
2528.00,0.0080
2527.00,0.0080
2526.00,0.0080
2525.00,0.0080
2524.00,0.0080
2523.00,0.0080
2522.00,0.0080
2521.00,0.0079
2520.00,0.0079
2519.00,0.0079
2518.00,0.0079
2517.00,0.0079
2516.00,0.0078
2515.00,0.0078
2514.00,0.0078
2513.00,0.0078
2512.00,0.0078
2511.00,0.0078
2510.00,0.0078
2509.00,0.0078
2508.00,0.0078
2507.00,0.0077
2506.00,0.0077
2505.00,0.0077
2504.00,0.0077
2503.00,0.0077
2502.00,0.0077
2501.00,0.0077
2500.00,0.0077
2499.00,0.0077
2498.00,0.0077
2497.00,0.0077
2496.00,0.0077
2495.00,0.0077
2494.00,0.0077
2493.00,0.0077
2492.00,0.0077
2491.00,0.0076
2490.00,0.0076
2489.00,0.0076
2488.00,0.0076
2487.00,0.0076
2486.00,0.0076
2485.00,0.0076
2484.00,0.0075
2483.00,0.0075
2482.00,0.0075
2481.00,0.0075
2480.00,0.0075
2479.00,0.0075
2478.00,0.0074
2477.00,0.0074
2476.00,0.0074
2475.00,0.0074
2474.00,0.0074
2473.00,0.0074
2472.00,0.0074
2471.00,0.0074
2470.00,0.0073
2469.00,0.0073
2468.00,0.0073
2467.00,0.0073
2466.00,0.0073
2465.00,0.0073
2464.00,0.0073
2463.00,0.0073
2462.00,0.0072
2461.00,0.0072
2460.00,0.0072
2459.00,0.0072
2458.00,0.0072
2457.00,0.0072
2456.00,0.0072
2455.00,0.0072
2454.00,0.0071
2453.00,0.0071
2452.00,0.0071
2451.00,0.0071
2450.00,0.0071
2449.00,0.0071
2448.00,0.0071
2447.00,0.0071
2446.00,0.0071
2445.00,0.0071
2444.00,0.0071
2443.00,0.0070
2442.00,0.0070
2441.00,0.0070
2440.00,0.0070
2439.00,0.0070
2438.00,0.0070
2437.00,0.0069
2436.00,0.0069
2435.00,0.0069
2434.00,0.0069
2433.00,0.0069
2432.00,0.0069
2431.00,0.0069
2430.00,0.0069
2429.00,0.0069
2428.00,0.0069
2427.00,0.0069
2426.00,0.0068
2425.00,0.0068
2424.00,0.0068
2423.00,0.0068
2422.00,0.0068
2421.00,0.0068
2420.00,0.0068
2419.00,0.0068
2418.00,0.0068
2417.00,0.0068
2416.00,0.0067
2415.00,0.0067
2414.00,0.0067
2413.00,0.0067
2412.00,0.0067
2411.00,0.0067
2410.00,0.0067
2409.00,0.0066
2408.00,0.0066
2407.00,0.0066
2406.00,0.0066
2405.00,0.0066
2404.00,0.0066
2403.00,0.0066
2402.00,0.0066
2401.00,0.0066
2400.00,0.0065
2399.00,0.0065
2398.00,0.0065
2397.00,0.0065
2396.00,0.0065
2395.00,0.0065
2394.00,0.0065
2393.00,0.0065
2392.00,0.0065
2391.00,0.0064
2390.00,0.0064
2389.00,0.0064
2388.00,0.0064
2387.00,0.0064
2386.00,0.0064
2385.00,0.0064
2384.00,0.0064
2383.00,0.0064
2382.00,0.0064
2381.00,0.0064
2380.00,0.0064
2379.00,0.0064
2378.00,0.0064
2377.00,0.0064
2376.00,0.0064
2375.00,0.0064
2374.00,0.0063
2373.00,0.0063
2372.00,0.0063
2371.00,0.0062
2370.00,0.0062
2369.00,0.0062
2368.00,0.0062
2367.00,0.0062
2366.00,0.0062
2365.00,0.0062
2364.00,0.0062
2363.00,0.0062
2362.00,0.0062
2361.00,0.0062
2360.00,0.0062
2359.00,0.0062
2358.00,0.0061
2357.00,0.0061
2356.00,0.0061
2355.00,0.0061
2354.00,0.0061
2353.00,0.0061
2352.00,0.0061
2351.00,0.0061
2350.00,0.0061
2349.00,0.0061
2348.00,0.0061
2347.00,0.0061
2346.00,0.0061
2345.00,0.0060
2344.00,0.0060
2343.00,0.0060
2342.00,0.0060
2341.00,0.0060
2340.00,0.0060
2339.00,0.0060
2338.00,0.0060
2337.00,0.0060
2336.00,0.0060
2335.00,0.0060
2334.00,0.0060
2333.00,0.0059
2332.00,0.0059
2331.00,0.0059
2330.00,0.0059
2329.00,0.0059
2328.00,0.0059
2327.00,0.0059
2326.00,0.0059
2325.00,0.0059
2324.00,0.0059
2323.00,0.0058
2322.00,0.0058
2321.00,0.0058
2320.00,0.0059
2319.00,0.0059
2318.00,0.0059
2317.00,0.0059
2316.00,0.0059
2315.00,0.0059
2314.00,0.0059
2313.00,0.0059
2312.00,0.0059
2311.00,0.0059
2310.00,0.0059
2309.00,0.0059
2308.00,0.0059
2307.00,0.0059
2306.00,0.0058
2305.00,0.0058
2304.00,0.0058
2303.00,0.0058
2302.00,0.0058
2301.00,0.0058
2300.00,0.0058
2299.00,0.0058
2298.00,0.0058
2297.00,0.0058
2296.00,0.0058
2295.00,0.0058
2294.00,0.0058
2293.00,0.0058
2292.00,0.0058
2291.00,0.0058
2290.00,0.0058
2289.00,0.0058
2288.00,0.0058
2287.00,0.0058
2286.00,0.0058
2285.00,0.0058
2284.00,0.0058
2283.00,0.0058
2282.00,0.0058
2281.00,0.0058
2280.00,0.0058
2279.00,0.0058
2278.00,0.0058
2277.00,0.0058
2276.00,0.0058
2275.00,0.0058
2274.00,0.0058
2273.00,0.0058
2272.00,0.0058
2271.00,0.0058
2270.00,0.0058
2269.00,0.0057
2268.00,0.0058
2267.00,0.0058
2266.00,0.0058
2265.00,0.0058
2264.00,0.0058
2263.00,0.0058
2262.00,0.0058
2261.00,0.0058
2260.00,0.0058
2259.00,0.0058
2258.00,0.0058
2257.00,0.0057
2256.00,0.0057
2255.00,0.0057
2254.00,0.0057
2253.00,0.0057
2252.00,0.0057
2251.00,0.0057
2250.00,0.0057
2249.00,0.0057
2248.00,0.0057
2247.00,0.0057
2246.00,0.0057
2245.00,0.0057
2244.00,0.0057
2243.00,0.0056
2242.00,0.0056
2241.00,0.0056
2240.00,0.0056
2239.00,0.0056
2238.00,0.0056
2237.00,0.0056
2236.00,0.0056
2235.00,0.0056
2234.00,0.0056
2233.00,0.0056
2232.00,0.0057
2231.00,0.0057
2230.00,0.0056
2229.00,0.0056
2228.00,0.0056
2227.00,0.0056
2226.00,0.0056
2225.00,0.0056
2224.00,0.0056
2223.00,0.0057
2222.00,0.0057
2221.00,0.0056
2220.00,0.0056
2219.00,0.0056
2218.00,0.0056
2217.00,0.0056
2216.00,0.0056
2215.00,0.0056
2214.00,0.0056
2213.00,0.0056
2212.00,0.0056
2211.00,0.0056
2210.00,0.0056
2209.00,0.0056
2208.00,0.0056
2207.00,0.0056
2206.00,0.0055
2205.00,0.0055
2204.00,0.0055
2203.00,0.0055
2202.00,0.0055
2201.00,0.0056
2200.00,0.0056
2199.00,0.0056
2198.00,0.0056
2197.00,0.0055
2196.00,0.0055
2195.00,0.0055
2194.00,0.0055
2193.00,0.0055
2192.00,0.0055
2191.00,0.0055
2190.00,0.0055
2189.00,0.0055
2188.00,0.0055
2187.00,0.0055
2186.00,0.0054
2185.00,0.0054
2184.00,0.0054
2183.00,0.0054
2182.00,0.0053
2181.00,0.0053
2180.00,0.0054
2179.00,0.0054
2178.00,0.0054
2177.00,0.0054
2176.00,0.0054
2175.00,0.0054
2174.00,0.0054
2173.00,0.0054
2172.00,0.0054
2171.00,0.0054
2170.00,0.0053
2169.00,0.0053
2168.00,0.0052
2167.00,0.0052
2166.00,0.0052
2165.00,0.0053
2164.00,0.0053
2163.00,0.0053
2162.00,0.0052
2161.00,0.0052
2160.00,0.0052
2159.00,0.0052
2158.00,0.0053
2157.00,0.0053
2156.00,0.0052
2155.00,0.0053
2154.00,0.0053
2153.00,0.0054
2152.00,0.0055
2151.00,0.0055
2150.00,0.0055
2149.00,0.0054
2148.00,0.0053
2147.00,0.0053
2146.00,0.0053
2145.00,0.0053
2144.00,0.0053
2143.00,0.0053
2142.00,0.0053
2141.00,0.0053
2140.00,0.0054
2139.00,0.0054
2138.00,0.0053
2137.00,0.0053
2136.00,0.0053
2135.00,0.0053
2134.00,0.0054
2133.00,0.0054
2132.00,0.0054
2131.00,0.0054
2130.00,0.0054
2129.00,0.0054
2128.00,0.0054
2127.00,0.0054
2126.00,0.0054
2125.00,0.0053
2124.00,0.0054
2123.00,0.0054
2122.00,0.0054
2121.00,0.0054
2120.00,0.0055
2119.00,0.0055
2118.00,0.0055
2117.00,0.0055
2116.00,0.0054
2115.00,0.0054
2114.00,0.0054
2113.00,0.0054
2112.00,0.0054
2111.00,0.0054
2110.00,0.0054
2109.00,0.0054
2108.00,0.0054
2107.00,0.0054
2106.00,0.0054
2105.00,0.0054
2104.00,0.0053
2103.00,0.0053
2102.00,0.0053
2101.00,0.0053
2100.00,0.0053
2099.00,0.0053
2098.00,0.0053
2097.00,0.0053
2096.00,0.0052
2095.00,0.0053
2094.00,0.0053
2093.00,0.0053
2092.00,0.0053
2091.00,0.0052
2090.00,0.0052
2089.00,0.0052
2088.00,0.0052
2087.00,0.0052
2086.00,0.0052
2085.00,0.0052
2084.00,0.0052
2083.00,0.0052
2082.00,0.0052
2081.00,0.0051
2080.00,0.0051
2079.00,0.0050
2078.00,0.0050
2077.00,0.0050
2076.00,0.0051
2075.00,0.0051
2074.00,0.0051
2073.00,0.0051
2072.00,0.0051
2071.00,0.0051
2070.00,0.0051
2069.00,0.0050
2068.00,0.0050
2067.00,0.0050
2066.00,0.0050
2065.00,0.0050
2064.00,0.0050
2063.00,0.0050
2062.00,0.0050
2061.00,0.0049
2060.00,0.0049
2059.00,0.0049
2058.00,0.0049
2057.00,0.0049
2056.00,0.0049
2055.00,0.0049
2054.00,0.0048
2053.00,0.0048
2052.00,0.0048
2051.00,0.0047
2050.00,0.0047
2049.00,0.0047
2048.00,0.0048
2047.00,0.0048
2046.00,0.0048
2045.00,0.0048
2044.00,0.0048
2043.00,0.0048
2042.00,0.0048
2041.00,0.0047
2040.00,0.0047
2039.00,0.0047
2038.00,0.0046
2037.00,0.0046
2036.00,0.0047
2035.00,0.0047
2034.00,0.0047
2033.00,0.0047
2032.00,0.0047
2031.00,0.0046
2030.00,0.0045
2029.00,0.0045
2028.00,0.0046
2027.00,0.0046
2026.00,0.0046
2025.00,0.0046
2024.00,0.0046
2023.00,0.0045
2022.00,0.0045
2021.00,0.0045
2020.00,0.0046
2019.00,0.0046
2018.00,0.0046
2017.00,0.0047
2016.00,0.0047
2015.00,0.0047
2014.00,0.0047
2013.00,0.0046
2012.00,0.0045
2011.00,0.0045
2010.00,0.0045
2009.00,0.0045
2008.00,0.0045
2007.00,0.0046
2006.00,0.0046
2005.00,0.0047
2004.00,0.0047
2003.00,0.0047
2002.00,0.0047
2001.00,0.0047
2000.00,0.0047
1999.00,0.0047
1998.00,0.0047
1997.00,0.0046
1996.00,0.0045
1995.00,0.0045
1994.00,0.0044
1993.00,0.0044
1992.00,0.0044
1991.00,0.0044
1990.00,0.0044
1989.00,0.0044
1988.00,0.0044
1987.00,0.0045
1986.00,0.0045
1985.00,0.0045
1984.00,0.0045
1983.00,0.0045
1982.00,0.0045
1981.00,0.0045
1980.00,0.0045
1979.00,0.0044
1978.00,0.0043
1977.00,0.0042
1976.00,0.0042
1975.00,0.0042
1974.00,0.0042
1973.00,0.0042
1972.00,0.0043
1971.00,0.0043
1970.00,0.0044
1969.00,0.0044
1968.00,0.0044
1967.00,0.0045
1966.00,0.0045
1965.00,0.0045
1964.00,0.0045
1963.00,0.0045
1962.00,0.0045
1961.00,0.0044
1960.00,0.0045
1959.00,0.0045
1958.00,0.0045
1957.00,0.0045
1956.00,0.0044
1955.00,0.0044
1954.00,0.0043
1953.00,0.0043
1952.00,0.0044
1951.00,0.0044
1950.00,0.0044
1949.00,0.0044
1948.00,0.0043
1947.00,0.0043
1946.00,0.0043
1945.00,0.0043
1944.00,0.0044
1943.00,0.0044
1942.00,0.0044
1941.00,0.0044
1940.00,0.0043
1939.00,0.0043
1938.00,0.0043
1937.00,0.0042
1936.00,0.0042
1935.00,0.0042
1934.00,0.0042
1933.00,0.0042
1932.00,0.0042
1931.00,0.0042
1930.00,0.0042
1929.00,0.0042
1928.00,0.0042
1927.00,0.0042
1926.00,0.0042
1925.00,0.0042
1924.00,0.0042
1923.00,0.0042
1922.00,0.0041
1921.00,0.0041
1920.00,0.0040
1919.00,0.0040
1918.00,0.0041
1917.00,0.0041
1916.00,0.0041
1915.00,0.0041
1914.00,0.0041
1913.00,0.0041
1912.00,0.0041
1911.00,0.0041
1910.00,0.0041
1909.00,0.0041
1908.00,0.0041
1907.00,0.0041
1906.00,0.0041
1905.00,0.0041
1904.00,0.0041
1903.00,0.0041
1902.00,0.0040
1901.00,0.0040
1900.00,0.0040
1899.00,0.0040
1898.00,0.0039
1897.00,0.0039
1896.00,0.0039
1895.00,0.0039
1894.00,0.0039
1893.00,0.0039
1892.00,0.0039
1891.00,0.0039
1890.00,0.0039
1889.00,0.0039
1888.00,0.0039
1887.00,0.0039
1886.00,0.0039
1885.00,0.0039
1884.00,0.0039
1883.00,0.0039
1882.00,0.0039
1881.00,0.0039
1880.00,0.0039
1879.00,0.0039
1878.00,0.0038
1877.00,0.0038
1876.00,0.0038
1875.00,0.0038
1874.00,0.0038
1873.00,0.0037
1872.00,0.0037
1871.00,0.0037
1870.00,0.0036
1869.00,0.0036
1868.00,0.0037
1867.00,0.0037
1866.00,0.0037
1865.00,0.0037
1864.00,0.0037
1863.00,0.0037
1862.00,0.0037
1861.00,0.0036
1860.00,0.0036
1859.00,0.0036
1858.00,0.0036
1857.00,0.0036
1856.00,0.0036
1855.00,0.0036
1854.00,0.0036
1853.00,0.0035
1852.00,0.0035
1851.00,0.0035
1850.00,0.0035
1849.00,0.0035
1848.00,0.0035
1847.00,0.0035
1846.00,0.0035
1845.00,0.0035
1844.00,0.0035
1843.00,0.0035
1842.00,0.0034
1841.00,0.0034
1840.00,0.0034
1839.00,0.0034
1838.00,0.0034
1837.00,0.0034
1836.00,0.0034
1835.00,0.0034
1834.00,0.0034
1833.00,0.0033
1832.00,0.0033
1831.00,0.0032
1830.00,0.0032
1829.00,0.0032
1828.00,0.0032
1827.00,0.0032
1826.00,0.0032
1825.00,0.0032
1824.00,0.0032
1823.00,0.0033
1822.00,0.0032
1821.00,0.0032
1820.00,0.0032
1819.00,0.0032
1818.00,0.0032
1817.00,0.0032
1816.00,0.0032
1815.00,0.0032
1814.00,0.0031
1813.00,0.0031
1812.00,0.0031
1811.00,0.0031
1810.00,0.0031
1809.00,0.0031
1808.00,0.0031
1807.00,0.0031
1806.00,0.0031
1805.00,0.0030
1804.00,0.0030
1803.00,0.0030
1802.00,0.0030
1801.00,0.0030
1800.00,0.0030
1799.00,0.0030
1798.00,0.0030
1797.00,0.0030
1796.00,0.0030
1795.00,0.0030
1794.00,0.0029
1793.00,0.0029
1792.00,0.0029
1791.00,0.0029
1790.00,0.0029
1789.00,0.0029
1788.00,0.0029
1787.00,0.0029
1786.00,0.0029
1785.00,0.0029
1784.00,0.0029
1783.00,0.0029
1782.00,0.0028
1781.00,0.0028
1780.00,0.0029
1779.00,0.0029
1778.00,0.0029
1777.00,0.0029
1776.00,0.0029
1775.00,0.0029
1774.00,0.0029
1773.00,0.0029
1772.00,0.0029
1771.00,0.0029
1770.00,0.0029
1769.00,0.0029
1768.00,0.0029
1767.00,0.0029
1766.00,0.0029
1765.00,0.0029
1764.00,0.0029
1763.00,0.0029
1762.00,0.0030
1761.00,0.0030
1760.00,0.0030
1759.00,0.0031
1758.00,0.0031
1757.00,0.0032
1756.00,0.0033
1755.00,0.0034
1754.00,0.0035
1753.00,0.0036
1752.00,0.0037
1751.00,0.0037
1750.00,0.0037
1749.00,0.0038
1748.00,0.0039
1747.00,0.0040
1746.00,0.0042
1745.00,0.0043
1744.00,0.0044
1743.00,0.0045
1742.00,0.0045
1741.00,0.0046
1740.00,0.0047
1739.00,0.0048
1738.00,0.0050
1737.00,0.0051
1736.00,0.0054
1735.00,0.0056
1734.00,0.0057
1733.00,0.0056
1732.00,0.0054
1731.00,0.0054
1730.00,0.0054
1729.00,0.0054
1728.00,0.0055
1727.00,0.0056
1726.00,0.0057
1725.00,0.0058
1724.00,0.0059
1723.00,0.0060
1722.00,0.0061
1721.00,0.0063
1720.00,0.0066
1719.00,0.0069
1718.00,0.0072
1717.00,0.0073
1716.00,0.0075
1715.00,0.0076
1714.00,0.0079
1713.00,0.0083
1712.00,0.0087
1711.00,0.0092
1710.00,0.0097
1709.00,0.0102
1708.00,0.0108
1707.00,0.0116
1706.00,0.0125
1705.00,0.0135
1704.00,0.0147
1703.00,0.0158
1702.00,0.0171
1701.00,0.0187
1700.00,0.0207
1699.00,0.0225
1698.00,0.0241
1697.00,0.0255
1696.00,0.0269
1695.00,0.0281
1694.00,0.0290
1693.00,0.0298
1692.00,0.0307
1691.00,0.0317
1690.00,0.0326
1689.00,0.0337
1688.00,0.0348
1687.00,0.0360
1686.00,0.0371
1685.00,0.0381
1684.00,0.0389
1683.00,0.0397
1682.00,0.0406
1681.00,0.0416
1680.00,0.0428
1679.00,0.0439
1678.00,0.0450
1677.00,0.0461
1676.00,0.0472
1675.00,0.0482
1674.00,0.0492
1673.00,0.0502
1672.00,0.0513
1671.00,0.0525
1670.00,0.0536
1669.00,0.0546
1668.00,0.0557
1667.00,0.0568
1666.00,0.0579
1665.00,0.0591
1664.00,0.0603
1663.00,0.0614
1662.00,0.0624
1661.00,0.0634
1660.00,0.0645
1659.00,0.0656
1658.00,0.0668
1657.00,0.0680
1656.00,0.0695
1655.00,0.0710
1654.00,0.0719
1653.00,0.0722
1652.00,0.0722
1651.00,0.0726
1650.00,0.0733
1649.00,0.0744
1648.00,0.0753
1647.00,0.0759
1646.00,0.0763
1645.00,0.0766
1644.00,0.0772
1643.00,0.0779
1642.00,0.0787
1641.00,0.0794
1640.00,0.0801
1639.00,0.0809
1638.00,0.0817
1637.00,0.0824
1636.00,0.0828
1635.00,0.0830
1634.00,0.0834
1633.00,0.0841
1632.00,0.0851
1631.00,0.0861
1630.00,0.0868
1629.00,0.0874
1628.00,0.0878
1627.00,0.0880
1626.00,0.0882
1625.00,0.0882
1624.00,0.0877
1623.00,0.0868
1622.00,0.0856
1621.00,0.0846
1620.00,0.0838
1619.00,0.0829
1618.00,0.0814
1617.00,0.0789
1616.00,0.0761
1615.00,0.0735
1614.00,0.0715
1613.00,0.0697
1612.00,0.0679
1611.00,0.0659
1610.00,0.0638
1609.00,0.0617
1608.00,0.0597
1607.00,0.0579
1606.00,0.0562
1605.00,0.0547
1604.00,0.0532
1603.00,0.0519
1602.00,0.0506
1601.00,0.0495
1600.00,0.0485
1599.00,0.0476
1598.00,0.0468
1597.00,0.0461
1596.00,0.0453
1595.00,0.0447
1594.00,0.0441
1593.00,0.0435
1592.00,0.0430
1591.00,0.0425
1590.00,0.0421
1589.00,0.0417
1588.00,0.0414
1587.00,0.0411
1586.00,0.0409
1585.00,0.0408
1584.00,0.0407
1583.00,0.0407
1582.00,0.0407
1581.00,0.0408
1580.00,0.0410
1579.00,0.0413
1578.00,0.0418
1577.00,0.0421
1576.00,0.0422
1575.00,0.0422
1574.00,0.0424
1573.00,0.0428
1572.00,0.0433
1571.00,0.0438
1570.00,0.0443
1569.00,0.0448
1568.00,0.0454
1567.00,0.0460
1566.00,0.0467
1565.00,0.0475
1564.00,0.0483
1563.00,0.0492
1562.00,0.0502
1561.00,0.0512
1560.00,0.0519
1559.00,0.0524
1558.00,0.0529
1557.00,0.0537
1556.00,0.0546
1555.00,0.0555
1554.00,0.0565
1553.00,0.0573
1552.00,0.0582
1551.00,0.0591
1550.00,0.0600
1549.00,0.0609
1548.00,0.0619
1547.00,0.0628
1546.00,0.0637
1545.00,0.0647
1544.00,0.0655
1543.00,0.0664
1542.00,0.0674
1541.00,0.0682
1540.00,0.0687
1539.00,0.0691
1538.00,0.0696
1537.00,0.0702
1536.00,0.0710
1535.00,0.0718
1534.00,0.0724
1533.00,0.0729
1532.00,0.0733
1531.00,0.0739
1530.00,0.0746
1529.00,0.0752
1528.00,0.0757
1527.00,0.0761
1526.00,0.0764
1525.00,0.0768
1524.00,0.0773
1523.00,0.0778
1522.00,0.0781
1521.00,0.0782
1520.00,0.0783
1519.00,0.0787
1518.00,0.0793
1517.00,0.0797
1516.00,0.0800
1515.00,0.0801
1514.00,0.0802
1513.00,0.0800
1512.00,0.0797
1511.00,0.0792
1510.00,0.0789
1509.00,0.0785
1508.00,0.0777
1507.00,0.0760
1506.00,0.0740
1505.00,0.0724
1504.00,0.0714
1503.00,0.0707
1502.00,0.0700
1501.00,0.0691
1500.00,0.0681
1499.00,0.0670
1498.00,0.0658
1497.00,0.0643
1496.00,0.0626
1495.00,0.0610
1494.00,0.0597
1493.00,0.0584
1492.00,0.0572
1491.00,0.0557
1490.00,0.0541
1489.00,0.0524
1488.00,0.0510
1487.00,0.0497
1486.00,0.0486
1485.00,0.0475
1484.00,0.0466
1483.00,0.0456
1482.00,0.0447
1481.00,0.0439
1480.00,0.0431
1479.00,0.0426
1478.00,0.0421
1477.00,0.0417
1476.00,0.0415
1475.00,0.0414
1474.00,0.0414
1473.00,0.0415
1472.00,0.0417
1471.00,0.0420
1470.00,0.0423
1469.00,0.0426
1468.00,0.0429
1467.00,0.0430
1466.00,0.0430
1465.00,0.0429
1464.00,0.0427
1463.00,0.0426
1462.00,0.0427
1461.00,0.0429
1460.00,0.0432
1459.00,0.0437
1458.00,0.0440
1457.00,0.0442
1456.00,0.0443
1455.00,0.0444
1454.00,0.0445
1453.00,0.0446
1452.00,0.0447
1451.00,0.0447
1450.00,0.0447
1449.00,0.0446
1448.00,0.0445
1447.00,0.0443
1446.00,0.0442
1445.00,0.0441
1444.00,0.0439
1443.00,0.0438
1442.00,0.0436
1441.00,0.0434
1440.00,0.0432
1439.00,0.0430
1438.00,0.0428
1437.00,0.0423
1436.00,0.0417
1435.00,0.0411
1434.00,0.0407
1433.00,0.0403
1432.00,0.0398
1431.00,0.0393
1430.00,0.0389
1429.00,0.0385
1428.00,0.0381
1427.00,0.0379
1426.00,0.0378
1425.00,0.0376
1424.00,0.0376
1423.00,0.0376
1422.00,0.0377
1421.00,0.0379
1420.00,0.0381
1419.00,0.0382
1418.00,0.0383
1417.00,0.0384
1416.00,0.0386
1415.00,0.0389
1414.00,0.0392
1413.00,0.0395
1412.00,0.0398
1411.00,0.0400
1410.00,0.0403
1409.00,0.0406
1408.00,0.0409
1407.00,0.0411
1406.00,0.0414
1405.00,0.0417
1404.00,0.0419
1403.00,0.0422
1402.00,0.0424
1401.00,0.0427
1400.00,0.0429
1399.00,0.0431
1398.00,0.0432
1397.00,0.0434
1396.00,0.0436
1395.00,0.0437
1394.00,0.0438
1393.00,0.0440
1392.00,0.0441
1391.00,0.0443
1390.00,0.0444
1389.00,0.0445
1388.00,0.0444
1387.00,0.0443
1386.00,0.0440
1385.00,0.0438
1384.00,0.0435
1383.00,0.0432
1382.00,0.0429
1381.00,0.0426
1380.00,0.0423
1379.00,0.0420
1378.00,0.0417
1377.00,0.0414
1376.00,0.0411
1375.00,0.0407
1374.00,0.0404
1373.00,0.0401
1372.00,0.0399
1371.00,0.0398
1370.00,0.0396
1369.00,0.0395
1368.00,0.0392
1367.00,0.0389
1366.00,0.0385
1365.00,0.0381
1364.00,0.0377
1363.00,0.0372
1362.00,0.0367
1361.00,0.0364
1360.00,0.0360
1359.00,0.0357
1358.00,0.0355
1357.00,0.0353
1356.00,0.0351
1355.00,0.0349
1354.00,0.0348
1353.00,0.0348
1352.00,0.0347
1351.00,0.0346
1350.00,0.0346
1349.00,0.0345
1348.00,0.0345
1347.00,0.0345
1346.00,0.0345
1345.00,0.0345
1344.00,0.0345
1343.00,0.0345
1342.00,0.0345
1341.00,0.0345
1340.00,0.0345
1339.00,0.0344
1338.00,0.0343
1337.00,0.0342
1336.00,0.0341
1335.00,0.0341
1334.00,0.0340
1333.00,0.0339
1332.00,0.0338
1331.00,0.0337
1330.00,0.0336
1329.00,0.0336
1328.00,0.0335
1327.00,0.0335
1326.00,0.0335
1325.00,0.0335
1324.00,0.0336
1323.00,0.0336
1322.00,0.0337
1321.00,0.0338
1320.00,0.0338
1319.00,0.0339
1318.00,0.0340
1317.00,0.0341
1316.00,0.0342
1315.00,0.0343
1314.00,0.0344
1313.00,0.0345
1312.00,0.0346
1311.00,0.0346
1310.00,0.0346
1309.00,0.0347
1308.00,0.0347
1307.00,0.0347
1306.00,0.0346
1305.00,0.0346
1304.00,0.0346
1303.00,0.0345
1302.00,0.0345
1301.00,0.0344
1300.00,0.0344
1299.00,0.0344
1298.00,0.0344
1297.00,0.0344
1296.00,0.0344
1295.00,0.0344
1294.00,0.0344
1293.00,0.0345
1292.00,0.0345
1291.00,0.0346
1290.00,0.0347
1289.00,0.0348
1288.00,0.0349
1287.00,0.0350
1286.00,0.0350
1285.00,0.0351
1284.00,0.0352
1283.00,0.0352
1282.00,0.0353
1281.00,0.0353
1280.00,0.0354
1279.00,0.0354
1278.00,0.0354
1277.00,0.0354
1276.00,0.0354
1275.00,0.0354
1274.00,0.0355
1273.00,0.0355
1272.00,0.0356
1271.00,0.0357
1270.00,0.0357
1269.00,0.0359
1268.00,0.0360
1267.00,0.0361
1266.00,0.0363
1265.00,0.0365
1264.00,0.0367
1263.00,0.0370
1262.00,0.0373
1261.00,0.0376
1260.00,0.0379
1259.00,0.0383
1258.00,0.0386
1257.00,0.0389
1256.00,0.0393
1255.00,0.0396
1254.00,0.0400
1253.00,0.0404
1252.00,0.0407
1251.00,0.0411
1250.00,0.0416
1249.00,0.0420
1248.00,0.0424
1247.00,0.0428
1246.00,0.0432
1245.00,0.0436
1244.00,0.0439
1243.00,0.0443
1242.00,0.0446
1241.00,0.0449
1240.00,0.0451
1239.00,0.0454
1238.00,0.0456
1237.00,0.0459
1236.00,0.0461
1235.00,0.0463
1234.00,0.0465
1233.00,0.0466
1232.00,0.0467
1231.00,0.0468
1230.00,0.0469
1229.00,0.0469
1228.00,0.0469
1227.00,0.0468
1226.00,0.0468
1225.00,0.0467
1224.00,0.0465
1223.00,0.0463
1222.00,0.0462
1221.00,0.0459
1220.00,0.0456
1219.00,0.0453
1218.00,0.0450
1217.00,0.0447
1216.00,0.0442
1215.00,0.0438
1214.00,0.0433
1213.00,0.0429
1212.00,0.0424
1211.00,0.0419
1210.00,0.0414
1209.00,0.0408
1208.00,0.0403
1207.00,0.0397
1206.00,0.0392
1205.00,0.0387
1204.00,0.0381
1203.00,0.0376
1202.00,0.0371
1201.00,0.0366
1200.00,0.0361
1199.00,0.0357
1198.00,0.0353
1197.00,0.0348
1196.00,0.0345
1195.00,0.0341
1194.00,0.0338
1193.00,0.0335
1192.00,0.0332
1191.00,0.0329
1190.00,0.0326
1189.00,0.0324
1188.00,0.0321
1187.00,0.0319
1186.00,0.0317
1185.00,0.0314
1184.00,0.0312
1183.00,0.0310
1182.00,0.0309
1181.00,0.0307
1180.00,0.0306
1179.00,0.0306
1178.00,0.0306
1177.00,0.0307
1176.00,0.0308
1175.00,0.0309
1174.00,0.0310
1173.00,0.0312
1172.00,0.0313
1171.00,0.0314
1170.00,0.0315
1169.00,0.0316
1168.00,0.0317
1167.00,0.0318
1166.00,0.0320
1165.00,0.0321
1164.00,0.0323
1163.00,0.0325
1162.00,0.0326
1161.00,0.0328
1160.00,0.0328
1159.00,0.0329
1158.00,0.0329
1157.00,0.0329
1156.00,0.0328
1155.00,0.0327
1154.00,0.0326
1153.00,0.0325
1152.00,0.0323
1151.00,0.0321
1150.00,0.0320
1149.00,0.0317
1148.00,0.0315
1147.00,0.0313
1146.00,0.0311
1145.00,0.0310
1144.00,0.0308
1143.00,0.0307
1142.00,0.0306
1141.00,0.0305
1140.00,0.0304
1139.00,0.0304
1138.00,0.0305
1137.00,0.0306
1136.00,0.0308
1135.00,0.0310
1134.00,0.0313
1133.00,0.0317
1132.00,0.0319
1131.00,0.0322
1130.00,0.0325
1129.00,0.0328
1128.00,0.0329
1127.00,0.0331
1126.00,0.0332
1125.00,0.0333
1124.00,0.0333
1123.00,0.0333
1122.00,0.0334
1121.00,0.0334
1120.00,0.0334
1119.00,0.0334
1118.00,0.0335
1117.00,0.0336
1116.00,0.0337
1115.00,0.0339
1114.00,0.0340
1113.00,0.0342
1112.00,0.0344
1111.00,0.0345
1110.00,0.0348
1109.00,0.0349
1108.00,0.0351
1107.00,0.0353
1106.00,0.0355
1105.00,0.0357
1104.00,0.0359
1103.00,0.0360
1102.00,0.0362
1101.00,0.0363
1100.00,0.0364
1099.00,0.0365
1098.00,0.0367
1097.00,0.0369
1096.00,0.0370
1095.00,0.0372
1094.00,0.0374
1093.00,0.0377
1092.00,0.0379
1091.00,0.0382
1090.00,0.0386
1089.00,0.0389
1088.00,0.0392
1087.00,0.0396
1086.00,0.0400
1085.00,0.0404
1084.00,0.0407
1083.00,0.0411
1082.00,0.0414
1081.00,0.0418
1080.00,0.0420
1079.00,0.0422
1078.00,0.0424
1077.00,0.0426
1076.00,0.0426
1075.00,0.0427
1074.00,0.0427
1073.00,0.0428
1072.00,0.0427
1071.00,0.0427
1070.00,0.0427
1069.00,0.0427
1068.00,0.0426
1067.00,0.0426
1066.00,0.0426
1065.00,0.0425
1064.00,0.0425
1063.00,0.0424
1062.00,0.0424
1061.00,0.0423
1060.00,0.0422
1059.00,0.0421
1058.00,0.0420
1057.00,0.0419
1056.00,0.0418
1055.00,0.0416
1054.00,0.0415
1053.00,0.0414
1052.00,0.0412
1051.00,0.0410
1050.00,0.0408
1049.00,0.0407
1048.00,0.0405
1047.00,0.0403
1046.00,0.0401
1045.00,0.0399
1044.00,0.0397
1043.00,0.0395
1042.00,0.0394
1041.00,0.0392
1040.00,0.0390
1039.00,0.0388
1038.00,0.0386
1037.00,0.0385
1036.00,0.0383
1035.00,0.0381
1034.00,0.0381
1033.00,0.0380
1032.00,0.0378
1031.00,0.0377
1030.00,0.0376
1029.00,0.0375
1028.00,0.0373
1027.00,0.0370
1026.00,0.0367
1025.00,0.0364
1024.00,0.0361
1023.00,0.0358
1022.00,0.0355
1021.00,0.0351
1020.00,0.0348
1019.00,0.0344
1018.00,0.0341
1017.00,0.0337
1016.00,0.0333
1015.00,0.0330
1014.00,0.0327
1013.00,0.0323
1012.00,0.0320
1011.00,0.0316
1010.00,0.0312
1009.00,0.0309
1008.00,0.0305
1007.00,0.0301
1006.00,0.0298
1005.00,0.0295
1004.00,0.0292
1003.00,0.0289
1002.00,0.0287
1001.00,0.0285
1000.00,0.0282
999.00,0.0280
998.00,0.0278
997.00,0.0276
996.00,0.0273
995.00,0.0271
994.00,0.0270
993.00,0.0268
992.00,0.0265
991.00,0.0263
990.00,0.0261
989.00,0.0259
988.00,0.0257
987.00,0.0255
986.00,0.0253
985.00,0.0251
984.00,0.0249
983.00,0.0247
982.00,0.0245
981.00,0.0244
980.00,0.0242
979.00,0.0240
978.00,0.0239
977.00,0.0238
976.00,0.0237
975.00,0.0236
974.00,0.0235
973.00,0.0235
972.00,0.0233
971.00,0.0232
970.00,0.0232
969.00,0.0231
968.00,0.0231
967.00,0.0231
966.00,0.0231
965.00,0.0232
964.00,0.0232
963.00,0.0233
962.00,0.0234
961.00,0.0235
960.00,0.0237
959.00,0.0238
958.00,0.0241
957.00,0.0245
956.00,0.0248
955.00,0.0252
954.00,0.0256
953.00,0.0260
952.00,0.0263
951.00,0.0265
950.00,0.0267
949.00,0.0267
948.00,0.0266
947.00,0.0265
946.00,0.0263
945.00,0.0260
944.00,0.0257
943.00,0.0255
942.00,0.0253
941.00,0.0252
940.00,0.0251
939.00,0.0250
938.00,0.0251
937.00,0.0251
936.00,0.0251
935.00,0.0252
934.00,0.0252
933.00,0.0252
932.00,0.0252
931.00,0.0251
930.00,0.0251
929.00,0.0251
928.00,0.0250
927.00,0.0249
926.00,0.0248
925.00,0.0247
924.00,0.0246
923.00,0.0245
922.00,0.0245
921.00,0.0244
920.00,0.0242
919.00,0.0241
918.00,0.0240
917.00,0.0239
916.00,0.0237
915.00,0.0236
914.00,0.0235
913.00,0.0234
912.00,0.0233
911.00,0.0232
910.00,0.0231
909.00,0.0230
908.00,0.0229
907.00,0.0228
906.00,0.0227
905.00,0.0226
904.00,0.0226
903.00,0.0225
902.00,0.0225
901.00,0.0224
900.00,0.0223
899.00,0.0223
898.00,0.0223
897.00,0.0222
896.00,0.0222
895.00,0.0221
894.00,0.0221
893.00,0.0221
892.00,0.0221
891.00,0.0221
890.00,0.0221
889.00,0.0221
888.00,0.0221
887.00,0.0221
886.00,0.0222
885.00,0.0222
884.00,0.0222
883.00,0.0222
882.00,0.0222
881.00,0.0222
880.00,0.0221
879.00,0.0221
878.00,0.0221
877.00,0.0221
876.00,0.0221
875.00,0.0221
874.00,0.0221
873.00,0.0220
872.00,0.0219
871.00,0.0219
870.00,0.0219
869.00,0.0218
868.00,0.0218
867.00,0.0218
866.00,0.0219
865.00,0.0220
864.00,0.0220
863.00,0.0220
862.00,0.0221
861.00,0.0222
860.00,0.0222
859.00,0.0223
858.00,0.0225
857.00,0.0226
856.00,0.0228
855.00,0.0229
854.00,0.0231
853.00,0.0232
852.00,0.0233
851.00,0.0234
850.00,0.0236
849.00,0.0236
848.00,0.0236
847.00,0.0236
846.00,0.0237
845.00,0.0238
844.00,0.0238
843.00,0.0239
842.00,0.0240
841.00,0.0241
840.00,0.0242
839.00,0.0244
838.00,0.0246
837.00,0.0248
836.00,0.0250
835.00,0.0252
834.00,0.0254
833.00,0.0256
832.00,0.0257
831.00,0.0258
830.00,0.0260
829.00,0.0262
828.00,0.0263
827.00,0.0264
826.00,0.0265
825.00,0.0266
824.00,0.0267
823.00,0.0267
822.00,0.0269
821.00,0.0271
820.00,0.0272
819.00,0.0274
818.00,0.0277
817.00,0.0279
816.00,0.0280
815.00,0.0281
814.00,0.0281
813.00,0.0282
812.00,0.0281
811.00,0.0280
810.00,0.0280
809.00,0.0279
808.00,0.0278
807.00,0.0278
806.00,0.0278
805.00,0.0279
804.00,0.0279
803.00,0.0280
802.00,0.0281
801.00,0.0282
800.00,0.0283
799.00,0.0284
798.00,0.0286
797.00,0.0288
796.00,0.0288
795.00,0.0289
794.00,0.0291
793.00,0.0293
792.00,0.0294
791.00,0.0297
790.00,0.0299
789.00,0.0302
788.00,0.0304
787.00,0.0306
786.00,0.0309
785.00,0.0312
784.00,0.0313
783.00,0.0315
782.00,0.0318
781.00,0.0320
780.00,0.0321
779.00,0.0321
778.00,0.0323
777.00,0.0323
776.00,0.0324
775.00,0.0325
774.00,0.0326
773.00,0.0327
772.00,0.0328
771.00,0.0329
770.00,0.0331
769.00,0.0333
768.00,0.0334
767.00,0.0335
766.00,0.0336
765.00,0.0337
764.00,0.0337
763.00,0.0338
762.00,0.0340
761.00,0.0342
760.00,0.0343
759.00,0.0344
758.00,0.0346
757.00,0.0348
756.00,0.0350
755.00,0.0352
754.00,0.0354
753.00,0.0357
752.00,0.0359
751.00,0.0361
750.00,0.0363
749.00,0.0366
748.00,0.0368
747.00,0.0370
746.00,0.0372
745.00,0.0375
744.00,0.0376
743.00,0.0378
742.00,0.0379
741.00,0.0381
740.00,0.0381
739.00,0.0382
738.00,0.0384
737.00,0.0385
736.00,0.0385
735.00,0.0386
734.00,0.0388
733.00,0.0390
732.00,0.0392
731.00,0.0394
730.00,0.0397
729.00,0.0400
728.00,0.0403
727.00,0.0406
726.00,0.0410
725.00,0.0414
724.00,0.0418
723.00,0.0422
722.00,0.0426
721.00,0.0430
720.00,0.0434
719.00,0.0437
718.00,0.0441
717.00,0.0444
716.00,0.0447
715.00,0.0450
714.00,0.0454
713.00,0.0458
712.00,0.0461
711.00,0.0465
710.00,0.0470
709.00,0.0474
708.00,0.0479
707.00,0.0483
706.00,0.0489
705.00,0.0495
704.00,0.0500
703.00,0.0505
702.00,0.0510
701.00,0.0514
700.00,0.0517
699.00,0.0519
698.00,0.0522
697.00,0.0523
696.00,0.0523
695.00,0.0522
694.00,0.0523
693.00,0.0523
692.00,0.0522
691.00,0.0522
690.00,0.0523
689.00,0.0524
688.00,0.0524
687.00,0.0525
686.00,0.0527
685.00,0.0528
684.00,0.0529
683.00,0.0530
682.00,0.0531
681.00,0.0532
680.00,0.0533
679.00,0.0534
678.00,0.0535
677.00,0.0536
676.00,0.0537
675.00,0.0538
674.00,0.0540
673.00,0.0541
672.00,0.0543
671.00,0.0544
670.00,0.0546
669.00,0.0548
668.00,0.0549
667.00,0.0550
666.00,0.0552
665.00,0.0555
664.00,0.0557
663.00,0.0559
662.00,0.0561
661.00,0.0563
660.00,0.0563
659.00,0.0563
658.00,0.0565
657.00,0.0566
656.00,0.0567
655.00,0.0567
654.00,0.0569
653.00,0.0570
652.00,0.0570
651.00,0.0570
650.00,0.0572
649.00,0.0573
648.00,0.0574
647.00,0.0575
646.00,0.0576
645.00,0.0577
644.00,0.0577
643.00,0.0578
642.00,0.0579
641.00,0.0580
640.00,0.0580
639.00,0.0580
638.00,0.0581
637.00,0.0582
636.00,0.0583
635.00,0.0584
634.00,0.0585
633.00,0.0587
632.00,0.0588
631.00,0.0590
630.00,0.0592
629.00,0.0595
628.00,0.0596
627.00,0.0597
626.00,0.0599
625.00,0.0601
624.00,0.0602
623.00,0.0602
622.00,0.0604
621.00,0.0605
620.00,0.0606
619.00,0.0607
618.00,0.0608
617.00,0.0608
616.00,0.0608
615.00,0.0608
614.00,0.0609
613.00,0.0610
612.00,0.0609
611.00,0.0609
610.00,0.0609
609.00,0.0610
608.00,0.0610
607.00,0.0610
606.00,0.0612
605.00,0.0613
604.00,0.0613
603.00,0.0613
602.00,0.0614
601.00,0.0615
600.00,0.0615
599.00,0.0615
598.00,0.0617
597.00,0.0619
596.00,0.0620
595.00,0.0620
594.00,0.0622
593.00,0.0623
592.00,0.0623
591.00,0.0623
590.00,0.0625
589.00,0.0626
588.00,0.0626
587.00,0.0627
586.00,0.0629
585.00,0.0630
584.00,0.0631
583.00,0.0632
582.00,0.0634
581.00,0.0635
580.00,0.0636
579.00,0.0637
578.00,0.0639
577.00,0.0641
576.00,0.0641
575.00,0.0641
574.00,0.0644
573.00,0.0646
572.00,0.0646
571.00,0.0647
570.00,0.0648
569.00,0.0649
568.00,0.0649
567.00,0.0650
566.00,0.0652
565.00,0.0655
564.00,0.0655
563.00,0.0656
562.00,0.0659
561.00,0.0661
560.00,0.0662
559.00,0.0663
558.00,0.0665
557.00,0.0667
556.00,0.0668
555.00,0.0669
554.00,0.0672
553.00,0.0674
552.00,0.0674
551.00,0.0675
550.00,0.0677
549.00,0.0679
548.00,0.0679
547.00,0.0680
546.00,0.0682
545.00,0.0684
544.00,0.0683
543.00,0.0682
542.00,0.0684
541.00,0.0684
540.00,0.0684
539.00,0.0684
538.00,0.0686
537.00,0.0688
536.00,0.0687
535.00,0.0686
534.00,0.0687
533.00,0.0688
532.00,0.0688
531.00,0.0688
530.00,0.0689
529.00,0.0690
528.00,0.0688
527.00,0.0688
526.00,0.0689
525.00,0.0690
524.00,0.0689
523.00,0.0689
522.00,0.0691
521.00,0.0693
520.00,0.0693
519.00,0.0694
518.00,0.0695
517.00,0.0696
516.00,0.0694
515.00,0.0692
514.00,0.0692
513.00,0.0693
512.00,0.0693
511.00,0.0692
510.00,0.0693
509.00,0.0693
508.00,0.0691
507.00,0.0689
506.00,0.0689
505.00,0.0689
504.00,0.0687
503.00,0.0686
502.00,0.0686
501.00,0.0687
500.00,0.0686
499.00,0.0685
498.00,0.0687
497.00,0.0688
496.00,0.0687
495.00,0.0686
494.00,0.0687
493.00,0.0687
492.00,0.0686
491.00,0.0684
490.00,0.0685
489.00,0.0685
488.00,0.0683
487.00,0.0682
486.00,0.0683
485.00,0.0684
484.00,0.0681
483.00,0.0679
482.00,0.0679
481.00,0.0679
480.00,0.0677
479.00,0.0675
478.00,0.0677
477.00,0.0678
476.00,0.0676
475.00,0.0673
474.00,0.0675
473.00,0.0676
472.00,0.0674
471.00,0.0672
470.00,0.0674
469.00,0.0675
468.00,0.0672
467.00,0.0669
466.00,0.0670
465.00,0.0671
464.00,0.0668
463.00,0.0666
462.00,0.0668
461.00,0.0669
460.00,0.0665
459.00,0.0661
458.00,0.0661
457.00,0.0660
456.00,0.0655
455.00,0.0651
454.00,0.0650
453.00,0.0649
452.00,0.0644
451.00,0.0641
450.00,0.0643
449.00,0.0644
448.00,0.0640
447.00,0.0637
446.00,0.0639
445.00,0.0640
444.00,0.0636
443.00,0.0632
442.00,0.0633
441.00,0.0632
440.00,0.0627
439.00,0.0623
438.00,0.0623
437.00,0.0622
436.00,0.0616
435.00,0.0611
434.00,0.0612
433.00,0.0613
432.00,0.0611
431.00,0.0609
430.00,0.0613
429.00,0.0615
428.00,0.0611
427.00,0.0609
426.00,0.0613
425.00,0.0616
424.00,0.0610
423.00,0.0605
422.00,0.0607
421.00,0.0610
420.00,0.0607
419.00,0.0604
418.00,0.0611
417.00,0.0614
416.00,0.0608
415.00,0.0601
414.00,0.0602
413.00,0.0601
412.00,0.0592
411.00,0.0586
410.00,0.0590
409.00,0.0593
408.00,0.0584
407.00,0.0574
406.00,0.0576
405.00,0.0578
404.00,0.0572
403.00,0.0566
402.00,0.0571
401.00,0.0574
400.00,0.0561
