Created as New Dataset,Sample 266 By YargerLab Date Wednesday, July 24 2024
cm-1,A
4000.00,0.0047
3999.00,0.0047
3998.00,0.0047
3997.00,0.0047
3996.00,0.0047
3995.00,0.0047
3994.00,0.0047
3993.00,0.0047
3992.00,0.0047
3991.00,0.0047
3990.00,0.0047
3989.00,0.0047
3988.00,0.0047
3987.00,0.0047
3986.00,0.0047
3985.00,0.0047
3984.00,0.0047
3983.00,0.0046
3982.00,0.0046
3981.00,0.0046
3980.00,0.0046
3979.00,0.0046
3978.00,0.0046
3977.00,0.0046
3976.00,0.0046
3975.00,0.0046
3974.00,0.0046
3973.00,0.0046
3972.00,0.0046
3971.00,0.0046
3970.00,0.0046
3969.00,0.0046
3968.00,0.0046
3967.00,0.0046
3966.00,0.0046
3965.00,0.0046
3964.00,0.0046
3963.00,0.0046
3962.00,0.0046
3961.00,0.0046
3960.00,0.0046
3959.00,0.0046
3958.00,0.0046
3957.00,0.0046
3956.00,0.0046
3955.00,0.0046
3954.00,0.0046
3953.00,0.0046
3952.00,0.0046
3951.00,0.0046
3950.00,0.0046
3949.00,0.0046
3948.00,0.0046
3947.00,0.0046
3946.00,0.0046
3945.00,0.0045
3944.00,0.0045
3943.00,0.0045
3942.00,0.0045
3941.00,0.0045
3940.00,0.0045
3939.00,0.0045
3938.00,0.0045
3937.00,0.0045
3936.00,0.0046
3935.00,0.0046
3934.00,0.0046
3933.00,0.0045
3932.00,0.0045
3931.00,0.0045
3930.00,0.0045
3929.00,0.0045
3928.00,0.0045
3927.00,0.0045
3926.00,0.0045
3925.00,0.0044
3924.00,0.0044
3923.00,0.0044
3922.00,0.0045
3921.00,0.0045
3920.00,0.0045
3919.00,0.0045
3918.00,0.0045
3917.00,0.0045
3916.00,0.0045
3915.00,0.0044
3914.00,0.0044
3913.00,0.0044
3912.00,0.0044
3911.00,0.0044
3910.00,0.0044
3909.00,0.0044
3908.00,0.0044
3907.00,0.0044
3906.00,0.0044
3905.00,0.0044
3904.00,0.0044
3903.00,0.0044
3902.00,0.0044
3901.00,0.0044
3900.00,0.0044
3899.00,0.0044
3898.00,0.0044
3897.00,0.0044
3896.00,0.0044
3895.00,0.0044
3894.00,0.0044
3893.00,0.0044
3892.00,0.0044
3891.00,0.0043
3890.00,0.0043
3889.00,0.0044
3888.00,0.0044
3887.00,0.0044
3886.00,0.0043
3885.00,0.0043
3884.00,0.0043
3883.00,0.0043
3882.00,0.0043
3881.00,0.0043
3880.00,0.0043
3879.00,0.0043
3878.00,0.0043
3877.00,0.0043
3876.00,0.0043
3875.00,0.0043
3874.00,0.0043
3873.00,0.0043
3872.00,0.0043
3871.00,0.0043
3870.00,0.0043
3869.00,0.0043
3868.00,0.0043
3867.00,0.0043
3866.00,0.0043
3865.00,0.0043
3864.00,0.0043
3863.00,0.0043
3862.00,0.0043
3861.00,0.0043
3860.00,0.0043
3859.00,0.0043
3858.00,0.0043
3857.00,0.0042
3856.00,0.0042
3855.00,0.0042
3854.00,0.0042
3853.00,0.0042
3852.00,0.0042
3851.00,0.0042
3850.00,0.0042
3849.00,0.0042
3848.00,0.0042
3847.00,0.0042
3846.00,0.0042
3845.00,0.0042
3844.00,0.0042
3843.00,0.0042
3842.00,0.0042
3841.00,0.0042
3840.00,0.0042
3839.00,0.0042
3838.00,0.0042
3837.00,0.0042
3836.00,0.0042
3835.00,0.0042
3834.00,0.0042
3833.00,0.0042
3832.00,0.0042
3831.00,0.0042
3830.00,0.0042
3829.00,0.0042
3828.00,0.0042
3827.00,0.0042
3826.00,0.0042
3825.00,0.0042
3824.00,0.0042
3823.00,0.0042
3822.00,0.0042
3821.00,0.0041
3820.00,0.0042
3819.00,0.0042
3818.00,0.0042
3817.00,0.0041
3816.00,0.0041
3815.00,0.0041
3814.00,0.0041
3813.00,0.0041
3812.00,0.0041
3811.00,0.0041
3810.00,0.0041
3809.00,0.0042
3808.00,0.0042
3807.00,0.0042
3806.00,0.0042
3805.00,0.0042
3804.00,0.0042
3803.00,0.0041
3802.00,0.0041
3801.00,0.0041
3800.00,0.0041
3799.00,0.0041
3798.00,0.0041
3797.00,0.0041
3796.00,0.0041
3795.00,0.0041
3794.00,0.0041
3793.00,0.0041
3792.00,0.0041
3791.00,0.0041
3790.00,0.0041
3789.00,0.0041
3788.00,0.0041
3787.00,0.0041
3786.00,0.0041
3785.00,0.0041
3784.00,0.0041
3783.00,0.0041
3782.00,0.0041
3781.00,0.0041
3780.00,0.0041
3779.00,0.0041
3778.00,0.0041
3777.00,0.0041
3776.00,0.0041
3775.00,0.0041
3774.00,0.0041
3773.00,0.0041
3772.00,0.0041
3771.00,0.0041
3770.00,0.0041
3769.00,0.0041
3768.00,0.0041
3767.00,0.0041
3766.00,0.0041
3765.00,0.0041
3764.00,0.0041
3763.00,0.0041
3762.00,0.0041
3761.00,0.0041
3760.00,0.0041
3759.00,0.0041
3758.00,0.0041
3757.00,0.0041
3756.00,0.0041
3755.00,0.0041
3754.00,0.0041
3753.00,0.0041
3752.00,0.0041
3751.00,0.0041
3750.00,0.0041
3749.00,0.0041
3748.00,0.0041
3747.00,0.0041
3746.00,0.0041
3745.00,0.0041
3744.00,0.0041
3743.00,0.0041
3742.00,0.0041
3741.00,0.0041
3740.00,0.0041
3739.00,0.0041
3738.00,0.0041
3737.00,0.0041
3736.00,0.0041
3735.00,0.0041
3734.00,0.0041
3733.00,0.0040
3732.00,0.0040
3731.00,0.0041
3730.00,0.0041
3729.00,0.0041
3728.00,0.0041
3727.00,0.0041
3726.00,0.0041
3725.00,0.0040
3724.00,0.0040
3723.00,0.0040
3722.00,0.0040
3721.00,0.0040
3720.00,0.0040
3719.00,0.0040
3718.00,0.0040
3717.00,0.0040
3716.00,0.0040
3715.00,0.0041
3714.00,0.0041
3713.00,0.0041
3712.00,0.0041
3711.00,0.0041
3710.00,0.0041
3709.00,0.0041
3708.00,0.0040
3707.00,0.0040
3706.00,0.0040
3705.00,0.0041
3704.00,0.0041
3703.00,0.0041
3702.00,0.0041
3701.00,0.0041
3700.00,0.0041
3699.00,0.0041
3698.00,0.0041
3697.00,0.0041
3696.00,0.0041
3695.00,0.0041
3694.00,0.0041
3693.00,0.0041
3692.00,0.0041
3691.00,0.0041
3690.00,0.0041
3689.00,0.0041
3688.00,0.0041
3687.00,0.0041
3686.00,0.0041
3685.00,0.0041
3684.00,0.0041
3683.00,0.0041
3682.00,0.0041
3681.00,0.0041
3680.00,0.0041
3679.00,0.0041
3678.00,0.0041
3677.00,0.0041
3676.00,0.0041
3675.00,0.0041
3674.00,0.0041
3673.00,0.0041
3672.00,0.0041
3671.00,0.0041
3670.00,0.0041
3669.00,0.0042
3668.00,0.0042
3667.00,0.0043
3666.00,0.0043
3665.00,0.0043
3664.00,0.0043
3663.00,0.0043
3662.00,0.0044
3661.00,0.0044
3660.00,0.0044
3659.00,0.0045
3658.00,0.0046
3657.00,0.0046
3656.00,0.0047
3655.00,0.0047
3654.00,0.0047
3653.00,0.0048
3652.00,0.0048
3651.00,0.0049
3650.00,0.0050
3649.00,0.0051
3648.00,0.0052
3647.00,0.0053
3646.00,0.0053
3645.00,0.0054
3644.00,0.0055
3643.00,0.0055
3642.00,0.0056
3641.00,0.0057
3640.00,0.0057
3639.00,0.0058
3638.00,0.0059
3637.00,0.0060
3636.00,0.0061
3635.00,0.0062
3634.00,0.0063
3633.00,0.0063
3632.00,0.0064
3631.00,0.0065
3630.00,0.0067
3629.00,0.0068
3628.00,0.0070
3627.00,0.0071
3626.00,0.0071
3625.00,0.0071
3624.00,0.0072
3623.00,0.0072
3622.00,0.0073
3621.00,0.0074
3620.00,0.0075
3619.00,0.0076
3618.00,0.0077
3617.00,0.0078
3616.00,0.0078
3615.00,0.0079
3614.00,0.0080
3613.00,0.0081
3612.00,0.0081
3611.00,0.0082
3610.00,0.0083
3609.00,0.0085
3608.00,0.0086
3607.00,0.0086
3606.00,0.0087
3605.00,0.0088
3604.00,0.0088
3603.00,0.0089
3602.00,0.0090
3601.00,0.0090
3600.00,0.0091
3599.00,0.0092
3598.00,0.0093
3597.00,0.0093
3596.00,0.0094
3595.00,0.0095
3594.00,0.0096
3593.00,0.0097
3592.00,0.0098
3591.00,0.0098
3590.00,0.0099
3589.00,0.0100
3588.00,0.0102
3587.00,0.0103
3586.00,0.0104
3585.00,0.0105
3584.00,0.0105
3583.00,0.0106
3582.00,0.0107
3581.00,0.0108
3580.00,0.0108
3579.00,0.0109
3578.00,0.0110
3577.00,0.0111
3576.00,0.0112
3575.00,0.0113
3574.00,0.0114
3573.00,0.0115
3572.00,0.0115
3571.00,0.0116
3570.00,0.0116
3569.00,0.0117
3568.00,0.0119
3567.00,0.0121
3566.00,0.0122
3565.00,0.0124
3564.00,0.0125
3563.00,0.0125
3562.00,0.0126
3561.00,0.0127
3560.00,0.0128
3559.00,0.0129
3558.00,0.0129
3557.00,0.0130
3556.00,0.0131
3555.00,0.0131
3554.00,0.0132
3553.00,0.0134
3552.00,0.0135
3551.00,0.0136
3550.00,0.0137
3549.00,0.0137
3548.00,0.0138
3547.00,0.0139
3546.00,0.0141
3545.00,0.0142
3544.00,0.0143
3543.00,0.0144
3542.00,0.0145
3541.00,0.0145
3540.00,0.0146
3539.00,0.0147
3538.00,0.0148
3537.00,0.0148
3536.00,0.0149
3535.00,0.0150
3534.00,0.0151
3533.00,0.0151
3532.00,0.0152
3531.00,0.0153
3530.00,0.0154
3529.00,0.0155
3528.00,0.0156
3527.00,0.0157
3526.00,0.0158
3525.00,0.0159
3524.00,0.0160
3523.00,0.0161
3522.00,0.0162
3521.00,0.0162
3520.00,0.0163
3519.00,0.0164
3518.00,0.0165
3517.00,0.0165
3516.00,0.0166
3515.00,0.0167
3514.00,0.0167
3513.00,0.0168
3512.00,0.0169
3511.00,0.0170
3510.00,0.0171
3509.00,0.0172
3508.00,0.0172
3507.00,0.0173
3506.00,0.0173
3505.00,0.0174
3504.00,0.0175
3503.00,0.0176
3502.00,0.0177
3501.00,0.0178
3500.00,0.0179
3499.00,0.0179
3498.00,0.0180
3497.00,0.0181
3496.00,0.0182
3495.00,0.0182
3494.00,0.0183
3493.00,0.0183
3492.00,0.0184
3491.00,0.0185
3490.00,0.0185
3489.00,0.0186
3488.00,0.0187
3487.00,0.0188
3486.00,0.0188
3485.00,0.0189
3484.00,0.0190
3483.00,0.0190
3482.00,0.0191
3481.00,0.0192
3480.00,0.0192
3479.00,0.0193
3478.00,0.0193
3477.00,0.0194
3476.00,0.0195
3475.00,0.0195
3474.00,0.0196
3473.00,0.0197
3472.00,0.0198
3471.00,0.0198
3470.00,0.0199
3469.00,0.0200
3468.00,0.0200
3467.00,0.0201
3466.00,0.0201
3465.00,0.0202
3464.00,0.0203
3463.00,0.0203
3462.00,0.0204
3461.00,0.0205
3460.00,0.0205
3459.00,0.0206
3458.00,0.0206
3457.00,0.0207
3456.00,0.0207
3455.00,0.0208
3454.00,0.0209
3453.00,0.0209
3452.00,0.0210
3451.00,0.0210
3450.00,0.0211
3449.00,0.0212
3448.00,0.0212
3447.00,0.0213
3446.00,0.0214
3445.00,0.0215
3444.00,0.0216
3443.00,0.0217
3442.00,0.0217
3441.00,0.0218
3440.00,0.0219
3439.00,0.0220
3438.00,0.0221
3437.00,0.0221
3436.00,0.0222
3435.00,0.0223
3434.00,0.0224
3433.00,0.0225
3432.00,0.0226
3431.00,0.0227
3430.00,0.0228
3429.00,0.0229
3428.00,0.0230
3427.00,0.0231
3426.00,0.0231
3425.00,0.0232
3424.00,0.0233
3423.00,0.0234
3422.00,0.0235
3421.00,0.0237
3420.00,0.0238
3419.00,0.0239
3418.00,0.0240
3417.00,0.0241
3416.00,0.0242
3415.00,0.0243
3414.00,0.0244
3413.00,0.0245
3412.00,0.0246
3411.00,0.0247
3410.00,0.0248
3409.00,0.0250
3408.00,0.0251
3407.00,0.0252
3406.00,0.0253
3405.00,0.0254
3404.00,0.0255
3403.00,0.0256
3402.00,0.0257
3401.00,0.0258
3400.00,0.0259
3399.00,0.0260
3398.00,0.0261
3397.00,0.0263
3396.00,0.0264
3395.00,0.0264
3394.00,0.0265
3393.00,0.0266
3392.00,0.0267
3391.00,0.0268
3390.00,0.0270
3389.00,0.0271
3388.00,0.0272
3387.00,0.0273
3386.00,0.0274
3385.00,0.0276
3384.00,0.0277
3383.00,0.0278
3382.00,0.0279
3381.00,0.0280
3380.00,0.0281
3379.00,0.0282
3378.00,0.0283
3377.00,0.0284
3376.00,0.0286
3375.00,0.0287
3374.00,0.0289
3373.00,0.0290
3372.00,0.0291
3371.00,0.0292
3370.00,0.0293
3369.00,0.0295
3368.00,0.0296
3367.00,0.0298
3366.00,0.0300
3365.00,0.0302
3364.00,0.0304
3363.00,0.0306
3362.00,0.0308
3361.00,0.0310
3360.00,0.0312
3359.00,0.0314
3358.00,0.0317
3357.00,0.0319
3356.00,0.0321
3355.00,0.0323
3354.00,0.0325
3353.00,0.0327
3352.00,0.0329
3351.00,0.0331
3350.00,0.0334
3349.00,0.0337
3348.00,0.0340
3347.00,0.0343
3346.00,0.0346
3345.00,0.0348
3344.00,0.0351
3343.00,0.0354
3342.00,0.0357
3341.00,0.0360
3340.00,0.0363
3339.00,0.0366
3338.00,0.0370
3337.00,0.0374
3336.00,0.0378
3335.00,0.0382
3334.00,0.0387
3333.00,0.0391
3332.00,0.0395
3331.00,0.0399
3330.00,0.0402
3329.00,0.0406
3328.00,0.0410
3327.00,0.0414
3326.00,0.0419
3325.00,0.0423
3324.00,0.0428
3323.00,0.0434
3322.00,0.0439
3321.00,0.0444
3320.00,0.0449
3319.00,0.0454
3318.00,0.0459
3317.00,0.0464
3316.00,0.0469
3315.00,0.0474
3314.00,0.0479
3313.00,0.0484
3312.00,0.0489
3311.00,0.0493
3310.00,0.0498
3309.00,0.0502
3308.00,0.0507
3307.00,0.0512
3306.00,0.0518
3305.00,0.0524
3304.00,0.0530
3303.00,0.0536
3302.00,0.0541
3301.00,0.0546
3300.00,0.0551
3299.00,0.0555
3298.00,0.0558
3297.00,0.0561
3296.00,0.0565
3295.00,0.0568
3294.00,0.0571
3293.00,0.0574
3292.00,0.0578
3291.00,0.0581
3290.00,0.0584
3289.00,0.0586
3288.00,0.0587
3287.00,0.0588
3286.00,0.0588
3285.00,0.0588
3284.00,0.0587
3283.00,0.0587
3282.00,0.0586
3281.00,0.0584
3280.00,0.0582
3279.00,0.0579
3278.00,0.0576
3277.00,0.0572
3276.00,0.0568
3275.00,0.0564
3274.00,0.0559
3273.00,0.0555
3272.00,0.0550
3271.00,0.0546
3270.00,0.0542
3269.00,0.0538
3268.00,0.0535
3267.00,0.0530
3266.00,0.0526
3265.00,0.0521
3264.00,0.0516
3263.00,0.0511
3262.00,0.0506
3261.00,0.0502
3260.00,0.0497
3259.00,0.0491
3258.00,0.0486
3257.00,0.0481
3256.00,0.0477
3255.00,0.0473
3254.00,0.0470
3253.00,0.0466
3252.00,0.0462
3251.00,0.0458
3250.00,0.0453
3249.00,0.0449
3248.00,0.0444
3247.00,0.0441
3246.00,0.0438
3245.00,0.0435
3244.00,0.0433
3243.00,0.0430
3242.00,0.0427
3241.00,0.0424
3240.00,0.0421
3239.00,0.0418
3238.00,0.0414
3237.00,0.0411
3236.00,0.0407
3235.00,0.0403
3234.00,0.0400
3233.00,0.0398
3232.00,0.0396
3231.00,0.0395
3230.00,0.0393
3229.00,0.0391
3228.00,0.0389
3227.00,0.0386
3226.00,0.0384
3225.00,0.0381
3224.00,0.0379
3223.00,0.0376
3222.00,0.0374
3221.00,0.0371
3220.00,0.0369
3219.00,0.0367
3218.00,0.0364
3217.00,0.0362
3216.00,0.0360
3215.00,0.0358
3214.00,0.0356
3213.00,0.0354
3212.00,0.0352
3211.00,0.0349
3210.00,0.0347
3209.00,0.0345
3208.00,0.0343
3207.00,0.0340
3206.00,0.0338
3205.00,0.0336
3204.00,0.0334
3203.00,0.0332
3202.00,0.0329
3201.00,0.0327
3200.00,0.0325
3199.00,0.0323
3198.00,0.0321
3197.00,0.0319
3196.00,0.0316
3195.00,0.0314
3194.00,0.0311
3193.00,0.0309
3192.00,0.0307
3191.00,0.0304
3190.00,0.0302
3189.00,0.0300
3188.00,0.0298
3187.00,0.0295
3186.00,0.0293
3185.00,0.0291
3184.00,0.0289
3183.00,0.0287
3182.00,0.0285
3181.00,0.0282
3180.00,0.0280
3179.00,0.0278
3178.00,0.0276
3177.00,0.0274
3176.00,0.0272
3175.00,0.0270
3174.00,0.0267
3173.00,0.0265
3172.00,0.0263
3171.00,0.0261
3170.00,0.0259
3169.00,0.0257
3168.00,0.0255
3167.00,0.0253
3166.00,0.0252
3165.00,0.0250
3164.00,0.0248
3163.00,0.0246
3162.00,0.0244
3161.00,0.0243
3160.00,0.0241
3159.00,0.0239
3158.00,0.0237
3157.00,0.0235
3156.00,0.0233
3155.00,0.0231
3154.00,0.0229
3153.00,0.0227
3152.00,0.0226
3151.00,0.0225
3150.00,0.0224
3149.00,0.0223
3148.00,0.0222
3147.00,0.0221
3146.00,0.0220
3145.00,0.0219
3144.00,0.0217
3143.00,0.0216
3142.00,0.0214
3141.00,0.0213
3140.00,0.0212
3139.00,0.0211
3138.00,0.0210
3137.00,0.0210
3136.00,0.0210
3135.00,0.0209
3134.00,0.0208
3133.00,0.0208
3132.00,0.0207
3131.00,0.0206
3130.00,0.0205
3129.00,0.0205
3128.00,0.0205
3127.00,0.0205
3126.00,0.0204
3125.00,0.0204
3124.00,0.0203
3123.00,0.0202
3122.00,0.0201
3121.00,0.0200
3120.00,0.0199
3119.00,0.0199
3118.00,0.0199
3117.00,0.0199
3116.00,0.0200
3115.00,0.0201
3114.00,0.0202
3113.00,0.0203
3112.00,0.0203
3111.00,0.0203
3110.00,0.0203
3109.00,0.0203
3108.00,0.0204
3107.00,0.0205
3106.00,0.0206
3105.00,0.0207
3104.00,0.0207
3103.00,0.0207
3102.00,0.0207
3101.00,0.0207
3100.00,0.0208
3099.00,0.0209
3098.00,0.0210
3097.00,0.0211
3096.00,0.0212
3095.00,0.0213
3094.00,0.0213
3093.00,0.0213
3092.00,0.0213
3091.00,0.0213
3090.00,0.0213
3089.00,0.0213
3088.00,0.0214
3087.00,0.0214
3086.00,0.0214
3085.00,0.0215
3084.00,0.0215
3083.00,0.0215
3082.00,0.0215
3081.00,0.0215
3080.00,0.0216
3079.00,0.0216
3078.00,0.0217
3077.00,0.0218
3076.00,0.0219
3075.00,0.0220
3074.00,0.0221
3073.00,0.0221
3072.00,0.0220
3071.00,0.0220
3070.00,0.0218
3069.00,0.0217
3068.00,0.0216
3067.00,0.0216
3066.00,0.0216
3065.00,0.0216
3064.00,0.0215
3063.00,0.0215
3062.00,0.0215
3061.00,0.0214
3060.00,0.0213
3059.00,0.0211
3058.00,0.0209
3057.00,0.0208
3056.00,0.0206
3055.00,0.0205
3054.00,0.0203
3053.00,0.0202
3052.00,0.0200
3051.00,0.0199
3050.00,0.0198
3049.00,0.0196
3048.00,0.0195
3047.00,0.0193
3046.00,0.0191
3045.00,0.0189
3044.00,0.0187
3043.00,0.0185
3042.00,0.0184
3041.00,0.0184
3040.00,0.0183
3039.00,0.0183
3038.00,0.0181
3037.00,0.0180
3036.00,0.0177
3035.00,0.0175
3034.00,0.0174
3033.00,0.0173
3032.00,0.0172
3031.00,0.0172
3030.00,0.0172
3029.00,0.0171
3028.00,0.0170
3027.00,0.0168
3026.00,0.0167
3025.00,0.0165
3024.00,0.0164
3023.00,0.0163
3022.00,0.0162
3021.00,0.0160
3020.00,0.0158
3019.00,0.0157
3018.00,0.0155
3017.00,0.0153
3016.00,0.0151
3015.00,0.0149
3014.00,0.0148
3013.00,0.0147
3012.00,0.0146
3011.00,0.0146
3010.00,0.0146
3009.00,0.0145
3008.00,0.0144
3007.00,0.0143
3006.00,0.0141
3005.00,0.0140
3004.00,0.0138
3003.00,0.0137
3002.00,0.0135
3001.00,0.0134
3000.00,0.0132
2999.00,0.0131
2998.00,0.0131
2997.00,0.0131
2996.00,0.0131
2995.00,0.0131
2994.00,0.0131
2993.00,0.0131
2992.00,0.0132
2991.00,0.0133
2990.00,0.0134
2989.00,0.0135
2988.00,0.0136
2987.00,0.0136
2986.00,0.0135
2985.00,0.0132
2984.00,0.0128
2983.00,0.0124
2982.00,0.0121
2981.00,0.0121
2980.00,0.0123
2979.00,0.0127
2978.00,0.0131
2977.00,0.0134
2976.00,0.0137
2975.00,0.0139
2974.00,0.0140
2973.00,0.0140
2972.00,0.0141
2971.00,0.0143
2970.00,0.0145
2969.00,0.0149
2968.00,0.0151
2967.00,0.0154
2966.00,0.0156
2965.00,0.0157
2964.00,0.0159
2963.00,0.0160
2962.00,0.0161
2961.00,0.0162
2960.00,0.0163
2959.00,0.0164
2958.00,0.0165
2957.00,0.0165
2956.00,0.0165
2955.00,0.0165
2954.00,0.0165
2953.00,0.0165
2952.00,0.0165
2951.00,0.0166
2950.00,0.0167
2949.00,0.0168
2948.00,0.0169
2947.00,0.0171
2946.00,0.0173
2945.00,0.0176
2944.00,0.0180
2943.00,0.0183
2942.00,0.0187
2941.00,0.0190
2940.00,0.0193
2939.00,0.0197
2938.00,0.0200
2937.00,0.0204
2936.00,0.0207
2935.00,0.0210
2934.00,0.0213
2933.00,0.0216
2932.00,0.0218
2931.00,0.0221
2930.00,0.0224
2929.00,0.0228
2928.00,0.0231
2927.00,0.0235
2926.00,0.0239
2925.00,0.0244
2924.00,0.0248
2923.00,0.0252
2922.00,0.0256
2921.00,0.0260
2920.00,0.0262
2919.00,0.0263
2918.00,0.0262
2917.00,0.0258
2916.00,0.0252
2915.00,0.0243
2914.00,0.0233
2913.00,0.0222
2912.00,0.0212
2911.00,0.0203
2910.00,0.0195
2909.00,0.0188
2908.00,0.0183
2907.00,0.0178
2906.00,0.0173
2905.00,0.0170
2904.00,0.0167
2903.00,0.0164
2902.00,0.0162
2901.00,0.0159
2900.00,0.0157
2899.00,0.0154
2898.00,0.0152
2897.00,0.0149
2896.00,0.0147
2895.00,0.0145
2894.00,0.0144
2893.00,0.0142
2892.00,0.0140
2891.00,0.0138
2890.00,0.0137
2889.00,0.0136
2888.00,0.0135
2887.00,0.0134
2886.00,0.0133
2885.00,0.0133
2884.00,0.0133
2883.00,0.0133
2882.00,0.0134
2881.00,0.0135
2880.00,0.0136
2879.00,0.0137
2878.00,0.0137
2877.00,0.0138
2876.00,0.0138
2875.00,0.0138
2874.00,0.0138
2873.00,0.0138
2872.00,0.0138
2871.00,0.0137
2870.00,0.0137
2869.00,0.0136
2868.00,0.0135
2867.00,0.0134
2866.00,0.0134
2865.00,0.0134
2864.00,0.0134
2863.00,0.0135
2862.00,0.0136
2861.00,0.0138
2860.00,0.0140
2859.00,0.0142
2858.00,0.0145
2857.00,0.0149
2856.00,0.0154
2855.00,0.0159
2854.00,0.0165
2853.00,0.0171
2852.00,0.0177
2851.00,0.0180
2850.00,0.0180
2849.00,0.0176
2848.00,0.0170
2847.00,0.0161
2846.00,0.0152
2845.00,0.0144
2844.00,0.0136
2843.00,0.0129
2842.00,0.0124
2841.00,0.0120
2840.00,0.0116
2839.00,0.0113
2838.00,0.0111
2837.00,0.0109
2836.00,0.0108
2835.00,0.0107
2834.00,0.0105
2833.00,0.0105
2832.00,0.0104
2831.00,0.0103
2830.00,0.0103
2829.00,0.0102
2828.00,0.0102
2827.00,0.0101
2826.00,0.0101
2825.00,0.0100
2824.00,0.0099
2823.00,0.0099
2822.00,0.0099
2821.00,0.0098
2820.00,0.0098
2819.00,0.0098
2818.00,0.0097
2817.00,0.0097
2816.00,0.0097
2815.00,0.0096
2814.00,0.0096
2813.00,0.0095
2812.00,0.0095
2811.00,0.0094
2810.00,0.0094
2809.00,0.0094
2808.00,0.0093
2807.00,0.0093
2806.00,0.0093
2805.00,0.0093
2804.00,0.0092
2803.00,0.0092
2802.00,0.0091
2801.00,0.0091
2800.00,0.0090
2799.00,0.0090
2798.00,0.0089
2797.00,0.0089
2796.00,0.0089
2795.00,0.0088
2794.00,0.0088
2793.00,0.0087
2792.00,0.0087
2791.00,0.0086
2790.00,0.0086
2789.00,0.0086
2788.00,0.0086
2787.00,0.0086
2786.00,0.0085
2785.00,0.0085
2784.00,0.0085
2783.00,0.0084
2782.00,0.0084
2781.00,0.0084
2780.00,0.0083
2779.00,0.0083
2778.00,0.0083
2777.00,0.0082
2776.00,0.0082
2775.00,0.0081
2774.00,0.0081
2773.00,0.0081
2772.00,0.0081
2771.00,0.0080
2770.00,0.0080
2769.00,0.0080
2768.00,0.0079
2767.00,0.0079
2766.00,0.0079
2765.00,0.0078
2764.00,0.0078
2763.00,0.0078
2762.00,0.0077
2761.00,0.0077
2760.00,0.0077
2759.00,0.0077
2758.00,0.0076
2757.00,0.0076
2756.00,0.0076
2755.00,0.0075
2754.00,0.0075
2753.00,0.0075
2752.00,0.0074
2751.00,0.0074
2750.00,0.0073
2749.00,0.0073
2748.00,0.0073
2747.00,0.0073
2746.00,0.0073
2745.00,0.0072
2744.00,0.0072
2743.00,0.0072
2742.00,0.0072
2741.00,0.0071
2740.00,0.0071
2739.00,0.0071
2738.00,0.0071
2737.00,0.0070
2736.00,0.0070
2735.00,0.0070
2734.00,0.0069
2733.00,0.0069
2732.00,0.0069
2731.00,0.0069
2730.00,0.0068
2729.00,0.0068
2728.00,0.0068
2727.00,0.0067
2726.00,0.0067
2725.00,0.0067
2724.00,0.0066
2723.00,0.0066
2722.00,0.0066
2721.00,0.0066
2720.00,0.0066
2719.00,0.0065
2718.00,0.0065
2717.00,0.0065
2716.00,0.0064
2715.00,0.0064
2714.00,0.0064
2713.00,0.0064
2712.00,0.0064
2711.00,0.0063
2710.00,0.0063
2709.00,0.0063
2708.00,0.0063
2707.00,0.0063
2706.00,0.0062
2705.00,0.0062
2704.00,0.0062
2703.00,0.0062
2702.00,0.0061
2701.00,0.0061
2700.00,0.0061
2699.00,0.0061
2698.00,0.0061
2697.00,0.0061
2696.00,0.0061
2695.00,0.0060
2694.00,0.0060
2693.00,0.0060
2692.00,0.0060
2691.00,0.0060
2690.00,0.0059
2689.00,0.0059
2688.00,0.0059
2687.00,0.0059
2686.00,0.0059
2685.00,0.0058
2684.00,0.0058
2683.00,0.0058
2682.00,0.0058
2681.00,0.0058
2680.00,0.0057
2679.00,0.0057
2678.00,0.0057
2677.00,0.0057
2676.00,0.0057
2675.00,0.0057
2674.00,0.0056
2673.00,0.0056
2672.00,0.0056
2671.00,0.0056
2670.00,0.0056
2669.00,0.0056
2668.00,0.0056
2667.00,0.0055
2666.00,0.0055
2665.00,0.0055
2664.00,0.0055
2663.00,0.0055
2662.00,0.0055
2661.00,0.0055
2660.00,0.0055
2659.00,0.0055
2658.00,0.0055
2657.00,0.0055
2656.00,0.0055
2655.00,0.0055
2654.00,0.0055
2653.00,0.0055
2652.00,0.0055
2651.00,0.0055
2650.00,0.0055
2649.00,0.0055
2648.00,0.0055
2647.00,0.0055
2646.00,0.0055
2645.00,0.0055
2644.00,0.0055
2643.00,0.0055
2642.00,0.0055
2641.00,0.0055
2640.00,0.0055
2639.00,0.0055
2638.00,0.0055
2637.00,0.0055
2636.00,0.0055
2635.00,0.0055
2634.00,0.0055
2633.00,0.0055
2632.00,0.0055
2631.00,0.0055
2630.00,0.0055
2629.00,0.0055
2628.00,0.0055
2627.00,0.0055
2626.00,0.0055
2625.00,0.0055
2624.00,0.0055
2623.00,0.0055
2622.00,0.0055
2621.00,0.0055
2620.00,0.0055
2619.00,0.0055
2618.00,0.0055
2617.00,0.0055
2616.00,0.0055
2615.00,0.0055
2614.00,0.0055
2613.00,0.0054
2612.00,0.0054
2611.00,0.0054
2610.00,0.0054
2609.00,0.0054
2608.00,0.0054
2607.00,0.0054
2606.00,0.0054
2605.00,0.0054
2604.00,0.0054
2603.00,0.0054
2602.00,0.0053
2601.00,0.0053
2600.00,0.0053
2599.00,0.0053
2598.00,0.0053
2597.00,0.0053
2596.00,0.0052
2595.00,0.0052
2594.00,0.0052
2593.00,0.0052
2592.00,0.0052
2591.00,0.0052
2590.00,0.0052
2589.00,0.0051
2588.00,0.0051
2587.00,0.0051
2586.00,0.0051
2585.00,0.0051
2584.00,0.0051
2583.00,0.0050
2582.00,0.0050
2581.00,0.0050
2580.00,0.0050
2579.00,0.0050
2578.00,0.0050
2577.00,0.0050
2576.00,0.0050
2575.00,0.0050
2574.00,0.0050
2573.00,0.0049
2572.00,0.0049
2571.00,0.0049
2570.00,0.0049
2569.00,0.0049
2568.00,0.0048
2567.00,0.0048
2566.00,0.0048
2565.00,0.0048
2564.00,0.0048
2563.00,0.0047
2562.00,0.0047
2561.00,0.0047
2560.00,0.0047
2559.00,0.0047
2558.00,0.0047
2557.00,0.0047
2556.00,0.0047
2555.00,0.0046
2554.00,0.0046
2553.00,0.0046
2552.00,0.0046
2551.00,0.0046
2550.00,0.0046
2549.00,0.0046
2548.00,0.0046
2547.00,0.0045
2546.00,0.0045
2545.00,0.0045
2544.00,0.0045
2543.00,0.0045
2542.00,0.0045
2541.00,0.0045
2540.00,0.0045
2539.00,0.0045
2538.00,0.0045
2537.00,0.0045
2536.00,0.0045
2535.00,0.0045
2534.00,0.0045
2533.00,0.0045
2532.00,0.0045
2531.00,0.0044
2530.00,0.0044
2529.00,0.0044
2528.00,0.0044
2527.00,0.0044
2526.00,0.0044
2525.00,0.0044
2524.00,0.0044
2523.00,0.0043
2522.00,0.0043
2521.00,0.0043
2520.00,0.0043
2519.00,0.0043
2518.00,0.0043
2517.00,0.0043
2516.00,0.0043
2515.00,0.0043
2514.00,0.0043
2513.00,0.0043
2512.00,0.0043
2511.00,0.0043
2510.00,0.0043
2509.00,0.0043
2508.00,0.0043
2507.00,0.0043
2506.00,0.0042
2505.00,0.0042
2504.00,0.0042
2503.00,0.0042
2502.00,0.0042
2501.00,0.0042
2500.00,0.0042
2499.00,0.0042
2498.00,0.0042
2497.00,0.0042
2496.00,0.0042
2495.00,0.0042
2494.00,0.0042
2493.00,0.0042
2492.00,0.0042
2491.00,0.0042
2490.00,0.0042
2489.00,0.0041
2488.00,0.0041
2487.00,0.0041
2486.00,0.0041
2485.00,0.0041
2484.00,0.0041
2483.00,0.0041
2482.00,0.0040
2481.00,0.0040
2480.00,0.0040
2479.00,0.0040
2478.00,0.0040
2477.00,0.0040
2476.00,0.0040
2475.00,0.0040
2474.00,0.0040
2473.00,0.0040
2472.00,0.0040
2471.00,0.0039
2470.00,0.0039
2469.00,0.0039
2468.00,0.0039
2467.00,0.0039
2466.00,0.0039
2465.00,0.0039
2464.00,0.0039
2463.00,0.0039
2462.00,0.0039
2461.00,0.0039
2460.00,0.0039
2459.00,0.0039
2458.00,0.0039
2457.00,0.0038
2456.00,0.0038
2455.00,0.0038
2454.00,0.0038
2453.00,0.0038
2452.00,0.0038
2451.00,0.0038
2450.00,0.0038
2449.00,0.0038
2448.00,0.0038
2447.00,0.0038
2446.00,0.0038
2445.00,0.0037
2444.00,0.0037
2443.00,0.0037
2442.00,0.0037
2441.00,0.0037
2440.00,0.0037
2439.00,0.0036
2438.00,0.0036
2437.00,0.0036
2436.00,0.0036
2435.00,0.0036
2434.00,0.0036
2433.00,0.0036
2432.00,0.0036
2431.00,0.0036
2430.00,0.0036
2429.00,0.0036
2428.00,0.0036
2427.00,0.0036
2426.00,0.0035
2425.00,0.0035
2424.00,0.0035
2423.00,0.0035
2422.00,0.0035
2421.00,0.0035
2420.00,0.0034
2419.00,0.0034
2418.00,0.0034
2417.00,0.0034
2416.00,0.0034
2415.00,0.0034
2414.00,0.0034
2413.00,0.0034
2412.00,0.0034
2411.00,0.0033
2410.00,0.0033
2409.00,0.0032
2408.00,0.0032
2407.00,0.0032
2406.00,0.0032
2405.00,0.0032
2404.00,0.0032
2403.00,0.0032
2402.00,0.0032
2401.00,0.0032
2400.00,0.0032
2399.00,0.0032
2398.00,0.0031
2397.00,0.0031
2396.00,0.0031
2395.00,0.0031
2394.00,0.0031
2393.00,0.0031
2392.00,0.0031
2391.00,0.0030
2390.00,0.0030
2389.00,0.0030
2388.00,0.0030
2387.00,0.0030
2386.00,0.0030
2385.00,0.0030
2384.00,0.0030
2383.00,0.0029
2382.00,0.0029
2381.00,0.0029
2380.00,0.0029
2379.00,0.0029
2378.00,0.0029
2377.00,0.0029
2376.00,0.0029
2375.00,0.0029
2374.00,0.0029
2373.00,0.0029
2372.00,0.0029
2371.00,0.0029
2370.00,0.0029
2369.00,0.0028
2368.00,0.0028
2367.00,0.0029
2366.00,0.0029
2365.00,0.0029
2364.00,0.0029
2363.00,0.0029
2362.00,0.0028
2361.00,0.0028
2360.00,0.0028
2359.00,0.0028
2358.00,0.0028
2357.00,0.0028
2356.00,0.0028
2355.00,0.0028
2354.00,0.0028
2353.00,0.0028
2352.00,0.0028
2351.00,0.0028
2350.00,0.0028
2349.00,0.0027
2348.00,0.0027
2347.00,0.0027
2346.00,0.0027
2345.00,0.0027
2344.00,0.0027
2343.00,0.0027
2342.00,0.0027
2341.00,0.0027
2340.00,0.0027
2339.00,0.0027
2338.00,0.0027
2337.00,0.0027
2336.00,0.0027
2335.00,0.0027
2334.00,0.0027
2333.00,0.0026
2332.00,0.0027
2331.00,0.0027
2330.00,0.0027
2329.00,0.0027
2328.00,0.0027
2327.00,0.0028
2326.00,0.0028
2325.00,0.0027
2324.00,0.0027
2323.00,0.0027
2322.00,0.0026
2321.00,0.0026
2320.00,0.0027
2319.00,0.0027
2318.00,0.0027
2317.00,0.0027
2316.00,0.0027
2315.00,0.0027
2314.00,0.0027
2313.00,0.0027
2312.00,0.0027
2311.00,0.0026
2310.00,0.0026
2309.00,0.0026
2308.00,0.0026
2307.00,0.0026
2306.00,0.0026
2305.00,0.0026
2304.00,0.0026
2303.00,0.0026
2302.00,0.0026
2301.00,0.0026
2300.00,0.0026
2299.00,0.0026
2298.00,0.0026
2297.00,0.0026
2296.00,0.0026
2295.00,0.0026
2294.00,0.0027
2293.00,0.0027
2292.00,0.0027
2291.00,0.0027
2290.00,0.0027
2289.00,0.0027
2288.00,0.0027
2287.00,0.0027
2286.00,0.0027
2285.00,0.0027
2284.00,0.0027
2283.00,0.0026
2282.00,0.0026
2281.00,0.0026
2280.00,0.0026
2279.00,0.0026
2278.00,0.0026
2277.00,0.0026
2276.00,0.0026
2275.00,0.0026
2274.00,0.0026
2273.00,0.0026
2272.00,0.0026
2271.00,0.0026
2270.00,0.0026
2269.00,0.0026
2268.00,0.0025
2267.00,0.0025
2266.00,0.0025
2265.00,0.0025
2264.00,0.0025
2263.00,0.0025
2262.00,0.0025
2261.00,0.0025
2260.00,0.0025
2259.00,0.0025
2258.00,0.0024
2257.00,0.0024
2256.00,0.0024
2255.00,0.0024
2254.00,0.0024
2253.00,0.0024
2252.00,0.0025
2251.00,0.0025
2250.00,0.0024
2249.00,0.0024
2248.00,0.0024
2247.00,0.0024
2246.00,0.0024
2245.00,0.0023
2244.00,0.0023
2243.00,0.0023
2242.00,0.0023
2241.00,0.0024
2240.00,0.0024
2239.00,0.0024
2238.00,0.0024
2237.00,0.0024
2236.00,0.0024
2235.00,0.0023
2234.00,0.0023
2233.00,0.0023
2232.00,0.0023
2231.00,0.0023
2230.00,0.0023
2229.00,0.0023
2228.00,0.0023
2227.00,0.0023
2226.00,0.0023
2225.00,0.0023
2224.00,0.0023
2223.00,0.0022
2222.00,0.0022
2221.00,0.0022
2220.00,0.0022
2219.00,0.0022
2218.00,0.0022
2217.00,0.0022
2216.00,0.0022
2215.00,0.0022
2214.00,0.0022
2213.00,0.0022
2212.00,0.0023
2211.00,0.0023
2210.00,0.0023
2209.00,0.0023
2208.00,0.0024
2207.00,0.0023
2206.00,0.0023
2205.00,0.0023
2204.00,0.0023
2203.00,0.0022
2202.00,0.0022
2201.00,0.0021
2200.00,0.0021
2199.00,0.0021
2198.00,0.0021
2197.00,0.0021
2196.00,0.0022
2195.00,0.0022
2194.00,0.0022
2193.00,0.0022
2192.00,0.0023
2191.00,0.0023
2190.00,0.0022
2189.00,0.0022
2188.00,0.0022
2187.00,0.0022
2186.00,0.0021
2185.00,0.0021
2184.00,0.0022
2183.00,0.0021
2182.00,0.0021
2181.00,0.0021
2180.00,0.0021
2179.00,0.0020
2178.00,0.0020
2177.00,0.0020
2176.00,0.0020
2175.00,0.0021
2174.00,0.0021
2173.00,0.0022
2172.00,0.0022
2171.00,0.0022
2170.00,0.0021
2169.00,0.0022
2168.00,0.0022
2167.00,0.0022
2166.00,0.0022
2165.00,0.0022
2164.00,0.0023
2163.00,0.0022
2162.00,0.0019
2161.00,0.0017
2160.00,0.0014
2159.00,0.0013
2158.00,0.0014
2157.00,0.0016
2156.00,0.0017
2155.00,0.0017
2154.00,0.0017
2153.00,0.0018
2152.00,0.0018
2151.00,0.0019
2150.00,0.0019
2149.00,0.0019
2148.00,0.0019
2147.00,0.0019
2146.00,0.0019
2145.00,0.0019
2144.00,0.0018
2143.00,0.0018
2142.00,0.0017
2141.00,0.0017
2140.00,0.0017
2139.00,0.0018
2138.00,0.0017
2137.00,0.0017
2136.00,0.0018
2135.00,0.0018
2134.00,0.0017
2133.00,0.0018
2132.00,0.0018
2131.00,0.0018
2130.00,0.0019
2129.00,0.0019
2128.00,0.0019
2127.00,0.0019
2126.00,0.0019
2125.00,0.0019
2124.00,0.0020
2123.00,0.0020
2122.00,0.0020
2121.00,0.0020
2120.00,0.0020
2119.00,0.0020
2118.00,0.0020
2117.00,0.0020
2116.00,0.0020
2115.00,0.0020
2114.00,0.0020
2113.00,0.0020
2112.00,0.0020
2111.00,0.0021
2110.00,0.0021
2109.00,0.0021
2108.00,0.0021
2107.00,0.0020
2106.00,0.0020
2105.00,0.0020
2104.00,0.0020
2103.00,0.0020
2102.00,0.0020
2101.00,0.0020
2100.00,0.0020
2099.00,0.0019
2098.00,0.0019
2097.00,0.0018
2096.00,0.0018
2095.00,0.0018
2094.00,0.0018
2093.00,0.0018
2092.00,0.0019
2091.00,0.0019
2090.00,0.0018
2089.00,0.0019
2088.00,0.0019
2087.00,0.0019
2086.00,0.0018
2085.00,0.0018
2084.00,0.0018
2083.00,0.0018
2082.00,0.0018
2081.00,0.0018
2080.00,0.0018
2079.00,0.0018
2078.00,0.0017
2077.00,0.0017
2076.00,0.0017
2075.00,0.0016
2074.00,0.0016
2073.00,0.0016
2072.00,0.0016
2071.00,0.0016
2070.00,0.0016
2069.00,0.0016
2068.00,0.0016
2067.00,0.0016
2066.00,0.0016
2065.00,0.0016
2064.00,0.0016
2063.00,0.0016
2062.00,0.0015
2061.00,0.0015
2060.00,0.0015
2059.00,0.0015
2058.00,0.0014
2057.00,0.0014
2056.00,0.0014
2055.00,0.0013
2054.00,0.0013
2053.00,0.0014
2052.00,0.0014
2051.00,0.0014
2050.00,0.0013
2049.00,0.0013
2048.00,0.0014
2047.00,0.0014
2046.00,0.0013
2045.00,0.0013
2044.00,0.0013
2043.00,0.0012
2042.00,0.0011
2041.00,0.0011
2040.00,0.0011
2039.00,0.0011
2038.00,0.0011
2037.00,0.0010
2036.00,0.0010
2035.00,0.0010
2034.00,0.0009
2033.00,0.0009
2032.00,0.0010
2031.00,0.0009
2030.00,0.0008
2029.00,0.0008
2028.00,0.0009
2027.00,0.0008
2026.00,0.0008
2025.00,0.0008
2024.00,0.0008
2023.00,0.0008
2022.00,0.0007
2021.00,0.0007
2020.00,0.0008
2019.00,0.0007
2018.00,0.0007
2017.00,0.0007
2016.00,0.0007
2015.00,0.0007
2014.00,0.0007
2013.00,0.0007
2012.00,0.0008
2011.00,0.0008
2010.00,0.0008
2009.00,0.0008
2008.00,0.0008
2007.00,0.0008
2006.00,0.0007
2005.00,0.0007
2004.00,0.0008
2003.00,0.0008
2002.00,0.0007
2001.00,0.0008
2000.00,0.0008
1999.00,0.0008
1998.00,0.0007
1997.00,0.0007
1996.00,0.0007
1995.00,0.0007
1994.00,0.0007
1993.00,0.0007
1992.00,0.0008
1991.00,0.0008
1990.00,0.0007
1989.00,0.0007
1988.00,0.0007
1987.00,0.0007
1986.00,0.0007
1985.00,0.0007
1984.00,0.0008
1983.00,0.0008
1982.00,0.0008
1981.00,0.0007
1980.00,0.0007
1979.00,0.0006
1978.00,0.0005
1977.00,0.0004
1976.00,0.0005
1975.00,0.0005
1974.00,0.0005
1973.00,0.0005
1972.00,0.0005
1971.00,0.0005
1970.00,0.0004
1969.00,0.0004
1968.00,0.0004
1967.00,0.0004
1966.00,0.0004
1965.00,0.0004
1964.00,0.0005
1963.00,0.0005
1962.00,0.0005
1961.00,0.0004
1960.00,0.0005
1959.00,0.0005
1958.00,0.0004
1957.00,0.0005
1956.00,0.0005
1955.00,0.0005
1954.00,0.0005
1953.00,0.0005
1952.00,0.0005
1951.00,0.0005
1950.00,0.0004
1949.00,0.0004
1948.00,0.0004
1947.00,0.0004
1946.00,0.0003
1945.00,0.0004
1944.00,0.0005
1943.00,0.0005
1942.00,0.0005
1941.00,0.0005
1940.00,0.0005
1939.00,0.0005
1938.00,0.0005
1937.00,0.0005
1936.00,0.0005
1935.00,0.0005
1934.00,0.0005
1933.00,0.0005
1932.00,0.0006
1931.00,0.0006
1930.00,0.0005
1929.00,0.0005
1928.00,0.0005
1927.00,0.0005
1926.00,0.0005
1925.00,0.0005
1924.00,0.0005
1923.00,0.0005
1922.00,0.0005
1921.00,0.0005
1920.00,0.0005
1919.00,0.0005
1918.00,0.0005
1917.00,0.0005
1916.00,0.0005
1915.00,0.0005
1914.00,0.0004
1913.00,0.0004
1912.00,0.0004
1911.00,0.0004
1910.00,0.0004
1909.00,0.0004
1908.00,0.0004
1907.00,0.0004
1906.00,0.0004
1905.00,0.0004
1904.00,0.0004
1903.00,0.0004
1902.00,0.0003
1901.00,0.0003
1900.00,0.0004
1899.00,0.0004
1898.00,0.0004
1897.00,0.0004
1896.00,0.0004
1895.00,0.0004
1894.00,0.0003
1893.00,0.0003
1892.00,0.0004
1891.00,0.0003
1890.00,0.0003
1889.00,0.0003
1888.00,0.0003
1887.00,0.0004
1886.00,0.0003
1885.00,0.0003
1884.00,0.0004
1883.00,0.0004
1882.00,0.0003
1881.00,0.0003
1880.00,0.0003
1879.00,0.0003
1878.00,0.0002
1877.00,0.0002
1876.00,0.0002
1875.00,0.0002
1874.00,0.0002
1873.00,0.0002
1872.00,0.0002
1871.00,0.0002
1870.00,0.0001
1869.00,0.0001
1868.00,0.0001
1867.00,0.0001
1866.00,0.0001
1865.00,0.0001
1864.00,0.0001
1863.00,0.0001
1862.00,0.0001
1861.00,0.0001
1860.00,0.0001
1859.00,0.0001
1858.00,0.0001
1857.00,0.0001
1856.00,0.0001
1855.00,0.0001
1854.00,0.0000
1853.00,0.0000
1852.00,0.0001
1851.00,0.0001
1850.00,0.0000
1849.00,0.0000
1848.00,0.0000
1847.00,0.0000
1846.00,-0.0000
1845.00,-0.0001
1844.00,-0.0000
1843.00,-0.0000
1842.00,-0.0000
1841.00,0.0000
1840.00,0.0001
1839.00,0.0000
1838.00,0.0000
1837.00,0.0000
1836.00,0.0000
1835.00,0.0000
1834.00,-0.0000
1833.00,-0.0000
1832.00,-0.0000
1831.00,-0.0000
1830.00,-0.0001
1829.00,-0.0001
1828.00,-0.0001
1827.00,-0.0001
1826.00,-0.0001
1825.00,-0.0001
1824.00,-0.0001
1823.00,-0.0001
1822.00,-0.0001
1821.00,-0.0001
1820.00,-0.0001
1819.00,-0.0001
1818.00,-0.0001
1817.00,-0.0001
1816.00,-0.0001
1815.00,-0.0001
1814.00,-0.0001
1813.00,-0.0001
1812.00,-0.0000
1811.00,-0.0000
1810.00,-0.0001
1809.00,-0.0000
1808.00,-0.0000
1807.00,-0.0000
1806.00,-0.0000
1805.00,-0.0000
1804.00,0.0000
1803.00,0.0000
1802.00,-0.0000
1801.00,-0.0000
1800.00,-0.0000
1799.00,-0.0000
1798.00,-0.0000
1797.00,0.0000
1796.00,0.0001
1795.00,0.0000
1794.00,0.0000
1793.00,0.0000
1792.00,0.0000
1791.00,0.0000
1790.00,0.0000
1789.00,0.0001
1788.00,0.0001
1787.00,0.0001
1786.00,0.0001
1785.00,0.0001
1784.00,0.0001
1783.00,0.0001
1782.00,0.0001
1781.00,0.0001
1780.00,0.0002
1779.00,0.0002
1778.00,0.0002
1777.00,0.0002
1776.00,0.0002
1775.00,0.0002
1774.00,0.0002
1773.00,0.0002
1772.00,0.0002
1771.00,0.0003
1770.00,0.0003
1769.00,0.0003
1768.00,0.0004
1767.00,0.0004
1766.00,0.0004
1765.00,0.0004
1764.00,0.0004
1763.00,0.0004
1762.00,0.0004
1761.00,0.0005
1760.00,0.0006
1759.00,0.0006
1758.00,0.0006
1757.00,0.0007
1756.00,0.0008
1755.00,0.0008
1754.00,0.0009
1753.00,0.0009
1752.00,0.0010
1751.00,0.0011
1750.00,0.0011
1749.00,0.0012
1748.00,0.0013
1747.00,0.0014
1746.00,0.0015
1745.00,0.0016
1744.00,0.0017
1743.00,0.0017
1742.00,0.0017
1741.00,0.0018
1740.00,0.0020
1739.00,0.0021
1738.00,0.0021
1737.00,0.0021
1736.00,0.0022
1735.00,0.0022
1734.00,0.0023
1733.00,0.0025
1732.00,0.0027
1731.00,0.0028
1730.00,0.0028
1729.00,0.0029
1728.00,0.0031
1727.00,0.0033
1726.00,0.0034
1725.00,0.0035
1724.00,0.0037
1723.00,0.0039
1722.00,0.0041
1721.00,0.0042
1720.00,0.0044
1719.00,0.0047
1718.00,0.0051
1717.00,0.0057
1716.00,0.0064
1715.00,0.0071
1714.00,0.0077
1713.00,0.0084
1712.00,0.0093
1711.00,0.0103
1710.00,0.0114
1709.00,0.0126
1708.00,0.0142
1707.00,0.0162
1706.00,0.0187
1705.00,0.0216
1704.00,0.0243
1703.00,0.0265
1702.00,0.0289
1701.00,0.0325
1700.00,0.0367
1699.00,0.0394
1698.00,0.0405
1697.00,0.0410
1696.00,0.0417
1695.00,0.0424
1694.00,0.0428
1693.00,0.0430
1692.00,0.0431
1691.00,0.0436
1690.00,0.0443
1689.00,0.0451
1688.00,0.0458
1687.00,0.0462
1686.00,0.0469
1685.00,0.0487
1684.00,0.0515
1683.00,0.0538
1682.00,0.0551
1681.00,0.0561
1680.00,0.0572
1679.00,0.0584
1678.00,0.0594
1677.00,0.0606
1676.00,0.0625
1675.00,0.0649
1674.00,0.0669
1673.00,0.0681
1672.00,0.0692
1671.00,0.0708
1670.00,0.0732
1669.00,0.0759
1668.00,0.0781
1667.00,0.0796
1666.00,0.0806
1665.00,0.0817
1664.00,0.0834
1663.00,0.0860
1662.00,0.0886
1661.00,0.0907
1660.00,0.0924
1659.00,0.0938
1658.00,0.0950
1657.00,0.0958
1656.00,0.0962
1655.00,0.0971
1654.00,0.1002
1653.00,0.1055
1652.00,0.1092
1651.00,0.1099
1650.00,0.1093
1649.00,0.1091
1648.00,0.1102
1647.00,0.1128
1646.00,0.1154
1645.00,0.1171
1644.00,0.1179
1643.00,0.1184
1642.00,0.1190
1641.00,0.1198
1640.00,0.1206
1639.00,0.1212
1638.00,0.1219
1637.00,0.1234
1636.00,0.1265
1635.00,0.1298
1634.00,0.1317
1633.00,0.1322
1632.00,0.1323
1631.00,0.1325
1630.00,0.1328
1629.00,0.1334
1628.00,0.1340
1627.00,0.1342
1626.00,0.1337
1625.00,0.1327
1624.00,0.1316
1623.00,0.1303
1622.00,0.1283
1621.00,0.1255
1620.00,0.1223
1619.00,0.1189
1618.00,0.1155
1617.00,0.1121
1616.00,0.1086
1615.00,0.1050
1614.00,0.1014
1613.00,0.0976
1612.00,0.0938
1611.00,0.0901
1610.00,0.0864
1609.00,0.0827
1608.00,0.0791
1607.00,0.0756
1606.00,0.0725
1605.00,0.0695
1604.00,0.0667
1603.00,0.0642
1602.00,0.0621
1601.00,0.0601
1600.00,0.0583
1599.00,0.0567
1598.00,0.0553
1597.00,0.0540
1596.00,0.0526
1595.00,0.0514
1594.00,0.0502
1593.00,0.0492
1592.00,0.0482
1591.00,0.0473
1590.00,0.0466
1589.00,0.0461
1588.00,0.0456
1587.00,0.0453
1586.00,0.0452
1585.00,0.0452
1584.00,0.0454
1583.00,0.0457
1582.00,0.0462
1581.00,0.0467
1580.00,0.0471
1579.00,0.0473
1578.00,0.0479
1577.00,0.0490
1576.00,0.0505
1575.00,0.0519
1574.00,0.0526
1573.00,0.0530
1572.00,0.0532
1571.00,0.0540
1570.00,0.0557
1569.00,0.0575
1568.00,0.0589
1567.00,0.0600
1566.00,0.0611
1565.00,0.0626
1564.00,0.0638
1563.00,0.0646
1562.00,0.0650
1561.00,0.0654
1560.00,0.0674
1559.00,0.0720
1558.00,0.0761
1557.00,0.0778
1556.00,0.0784
1555.00,0.0794
1554.00,0.0808
1553.00,0.0822
1552.00,0.0834
1551.00,0.0847
1550.00,0.0864
1549.00,0.0880
1548.00,0.0892
1547.00,0.0901
1546.00,0.0912
1545.00,0.0927
1544.00,0.0942
1543.00,0.0954
1542.00,0.0967
1541.00,0.0991
1540.00,0.1024
1539.00,0.1052
1538.00,0.1063
1537.00,0.1062
1536.00,0.1059
1535.00,0.1061
1534.00,0.1076
1533.00,0.1098
1532.00,0.1113
1531.00,0.1120
1530.00,0.1125
1529.00,0.1133
1528.00,0.1144
1527.00,0.1158
1526.00,0.1175
1525.00,0.1187
1524.00,0.1196
1523.00,0.1207
1522.00,0.1232
1521.00,0.1265
1520.00,0.1288
1519.00,0.1301
1518.00,0.1316
1517.00,0.1337
1516.00,0.1355
1515.00,0.1361
1514.00,0.1357
1513.00,0.1348
1512.00,0.1335
1511.00,0.1318
1510.00,0.1298
1509.00,0.1277
1508.00,0.1260
1507.00,0.1246
1506.00,0.1231
1505.00,0.1208
1504.00,0.1180
1503.00,0.1150
1502.00,0.1120
1501.00,0.1090
1500.00,0.1060
1499.00,0.1031
1498.00,0.1002
1497.00,0.0973
1496.00,0.0943
1495.00,0.0913
1494.00,0.0883
1493.00,0.0853
1492.00,0.0824
1491.00,0.0796
1490.00,0.0769
1489.00,0.0744
1488.00,0.0720
1487.00,0.0697
1486.00,0.0676
1485.00,0.0655
1484.00,0.0637
1483.00,0.0620
1482.00,0.0605
1481.00,0.0592
1480.00,0.0580
1479.00,0.0569
1478.00,0.0559
1477.00,0.0552
1476.00,0.0545
1475.00,0.0541
1474.00,0.0539
1473.00,0.0542
1472.00,0.0547
1471.00,0.0548
1470.00,0.0547
1469.00,0.0543
1468.00,0.0539
1467.00,0.0537
1466.00,0.0536
1465.00,0.0538
1464.00,0.0541
1463.00,0.0542
1462.00,0.0541
1461.00,0.0539
1460.00,0.0540
1459.00,0.0544
1458.00,0.0559
1457.00,0.0584
1456.00,0.0608
1455.00,0.0622
1454.00,0.0630
1453.00,0.0637
1452.00,0.0644
1451.00,0.0652
1450.00,0.0657
1449.00,0.0661
1448.00,0.0665
1447.00,0.0666
1446.00,0.0664
1445.00,0.0659
1444.00,0.0652
1443.00,0.0645
1442.00,0.0637
1441.00,0.0628
1440.00,0.0617
1439.00,0.0605
1438.00,0.0593
1437.00,0.0582
1436.00,0.0571
1435.00,0.0560
1434.00,0.0546
1433.00,0.0533
1432.00,0.0520
1431.00,0.0510
1430.00,0.0501
1429.00,0.0495
1428.00,0.0489
1427.00,0.0485
1426.00,0.0482
1425.00,0.0481
1424.00,0.0482
1423.00,0.0483
1422.00,0.0482
1421.00,0.0482
1420.00,0.0485
1419.00,0.0493
1418.00,0.0501
1417.00,0.0505
1416.00,0.0506
1415.00,0.0508
1414.00,0.0509
1413.00,0.0510
1412.00,0.0511
1411.00,0.0513
1410.00,0.0513
1409.00,0.0512
1408.00,0.0511
1407.00,0.0508
1406.00,0.0506
1405.00,0.0503
1404.00,0.0500
1403.00,0.0495
1402.00,0.0489
1401.00,0.0482
1400.00,0.0477
1399.00,0.0473
1398.00,0.0469
1397.00,0.0465
1396.00,0.0461
1395.00,0.0459
1394.00,0.0458
1393.00,0.0456
1392.00,0.0453
1391.00,0.0449
1390.00,0.0446
1389.00,0.0443
1388.00,0.0442
1387.00,0.0442
1386.00,0.0441
1385.00,0.0439
1384.00,0.0436
1383.00,0.0433
1382.00,0.0432
1381.00,0.0430
1380.00,0.0429
1379.00,0.0429
1378.00,0.0428
1377.00,0.0426
1376.00,0.0425
1375.00,0.0425
1374.00,0.0426
1373.00,0.0427
1372.00,0.0427
1371.00,0.0426
1370.00,0.0425
1369.00,0.0422
1368.00,0.0419
1367.00,0.0414
1366.00,0.0408
1365.00,0.0400
1364.00,0.0392
1363.00,0.0385
1362.00,0.0379
1361.00,0.0373
1360.00,0.0368
1359.00,0.0363
1358.00,0.0360
1357.00,0.0357
1356.00,0.0355
1355.00,0.0353
1354.00,0.0353
1353.00,0.0352
1352.00,0.0352
1351.00,0.0353
1350.00,0.0353
1349.00,0.0354
1348.00,0.0355
1347.00,0.0356
1346.00,0.0357
1345.00,0.0358
1344.00,0.0359
1343.00,0.0360
1342.00,0.0360
1341.00,0.0361
1340.00,0.0363
1339.00,0.0364
1338.00,0.0365
1337.00,0.0365
1336.00,0.0364
1335.00,0.0363
1334.00,0.0361
1333.00,0.0359
1332.00,0.0356
1331.00,0.0354
1330.00,0.0351
1329.00,0.0348
1328.00,0.0345
1327.00,0.0343
1326.00,0.0341
1325.00,0.0339
1324.00,0.0337
1323.00,0.0336
1322.00,0.0335
1321.00,0.0335
1320.00,0.0335
1319.00,0.0336
1318.00,0.0337
1317.00,0.0337
1316.00,0.0338
1315.00,0.0338
1314.00,0.0339
1313.00,0.0340
1312.00,0.0340
1311.00,0.0341
1310.00,0.0341
1309.00,0.0341
1308.00,0.0341
1307.00,0.0341
1306.00,0.0341
1305.00,0.0341
1304.00,0.0341
1303.00,0.0341
1302.00,0.0341
1301.00,0.0341
1300.00,0.0341
1299.00,0.0341
1298.00,0.0341
1297.00,0.0341
1296.00,0.0341
1295.00,0.0342
1294.00,0.0342
1293.00,0.0344
1292.00,0.0345
1291.00,0.0347
1290.00,0.0349
1289.00,0.0351
1288.00,0.0353
1287.00,0.0356
1286.00,0.0359
1285.00,0.0361
1284.00,0.0364
1283.00,0.0367
1282.00,0.0371
1281.00,0.0375
1280.00,0.0379
1279.00,0.0384
1278.00,0.0390
1277.00,0.0396
1276.00,0.0403
1275.00,0.0410
1274.00,0.0417
1273.00,0.0425
1272.00,0.0434
1271.00,0.0443
1270.00,0.0453
1269.00,0.0462
1268.00,0.0471
1267.00,0.0480
1266.00,0.0488
1265.00,0.0494
1264.00,0.0500
1263.00,0.0505
1262.00,0.0509
1261.00,0.0512
1260.00,0.0515
1259.00,0.0517
1258.00,0.0518
1257.00,0.0518
1256.00,0.0519
1255.00,0.0520
1254.00,0.0521
1253.00,0.0523
1252.00,0.0526
1251.00,0.0529
1250.00,0.0533
1249.00,0.0537
1248.00,0.0542
1247.00,0.0547
1246.00,0.0552
1245.00,0.0557
1244.00,0.0563
1243.00,0.0569
1242.00,0.0575
1241.00,0.0581
1240.00,0.0588
1239.00,0.0595
1238.00,0.0602
1237.00,0.0609
1236.00,0.0616
1235.00,0.0622
1234.00,0.0628
1233.00,0.0633
1232.00,0.0636
1231.00,0.0638
1230.00,0.0638
1229.00,0.0636
1228.00,0.0632
1227.00,0.0627
1226.00,0.0620
1225.00,0.0612
1224.00,0.0603
1223.00,0.0593
1222.00,0.0582
1221.00,0.0571
1220.00,0.0560
1219.00,0.0548
1218.00,0.0536
1217.00,0.0523
1216.00,0.0510
1215.00,0.0496
1214.00,0.0482
1213.00,0.0468
1212.00,0.0453
1211.00,0.0439
1210.00,0.0425
1209.00,0.0411
1208.00,0.0398
1207.00,0.0385
1206.00,0.0373
1205.00,0.0360
1204.00,0.0349
1203.00,0.0338
1202.00,0.0328
1201.00,0.0318
1200.00,0.0309
1199.00,0.0302
1198.00,0.0295
1197.00,0.0288
1196.00,0.0283
1195.00,0.0278
1194.00,0.0274
1193.00,0.0271
1192.00,0.0268
1191.00,0.0265
1190.00,0.0263
1189.00,0.0262
1188.00,0.0260
1187.00,0.0260
1186.00,0.0259
1185.00,0.0260
1184.00,0.0261
1183.00,0.0263
1182.00,0.0265
1181.00,0.0269
1180.00,0.0274
1179.00,0.0280
1178.00,0.0287
1177.00,0.0295
1176.00,0.0303
1175.00,0.0311
1174.00,0.0319
1173.00,0.0326
1172.00,0.0333
1171.00,0.0338
1170.00,0.0341
1169.00,0.0344
1168.00,0.0345
1167.00,0.0346
1166.00,0.0346
1165.00,0.0346
1164.00,0.0344
1163.00,0.0342
1162.00,0.0339
1161.00,0.0335
1160.00,0.0331
1159.00,0.0326
1158.00,0.0320
1157.00,0.0314
1156.00,0.0308
1155.00,0.0301
1154.00,0.0294
1153.00,0.0287
1152.00,0.0280
1151.00,0.0274
1150.00,0.0268
1149.00,0.0262
1148.00,0.0256
1147.00,0.0251
1146.00,0.0247
1145.00,0.0243
1144.00,0.0239
1143.00,0.0236
1142.00,0.0234
1141.00,0.0231
1140.00,0.0229
1139.00,0.0228
1138.00,0.0226
1137.00,0.0225
1136.00,0.0225
1135.00,0.0225
1134.00,0.0224
1133.00,0.0224
1132.00,0.0224
1131.00,0.0224
1130.00,0.0224
1129.00,0.0224
1128.00,0.0224
1127.00,0.0225
1126.00,0.0225
1125.00,0.0226
1124.00,0.0226
1123.00,0.0226
1122.00,0.0226
1121.00,0.0227
1120.00,0.0228
1119.00,0.0229
1118.00,0.0230
1117.00,0.0231
1116.00,0.0232
1115.00,0.0233
1114.00,0.0233
1113.00,0.0234
1112.00,0.0235
1111.00,0.0235
1110.00,0.0235
1109.00,0.0236
1108.00,0.0236
1107.00,0.0236
1106.00,0.0236
1105.00,0.0236
1104.00,0.0236
1103.00,0.0234
1102.00,0.0232
1101.00,0.0230
1100.00,0.0227
1099.00,0.0225
1098.00,0.0222
1097.00,0.0220
1096.00,0.0218
1095.00,0.0216
1094.00,0.0215
1093.00,0.0215
1092.00,0.0214
1091.00,0.0215
1090.00,0.0216
1089.00,0.0217
1088.00,0.0219
1087.00,0.0221
1086.00,0.0224
1085.00,0.0227
1084.00,0.0229
1083.00,0.0232
1082.00,0.0235
1081.00,0.0238
1080.00,0.0240
1079.00,0.0243
1078.00,0.0245
1077.00,0.0248
1076.00,0.0249
1075.00,0.0251
1074.00,0.0253
1073.00,0.0254
1072.00,0.0255
1071.00,0.0256
1070.00,0.0258
1069.00,0.0259
1068.00,0.0260
1067.00,0.0262
1066.00,0.0263
1065.00,0.0264
1064.00,0.0265
1063.00,0.0266
1062.00,0.0267
1061.00,0.0267
1060.00,0.0266
1059.00,0.0266
1058.00,0.0265
1057.00,0.0263
1056.00,0.0261
1055.00,0.0260
1054.00,0.0258
1053.00,0.0255
1052.00,0.0253
1051.00,0.0251
1050.00,0.0249
1049.00,0.0247
1048.00,0.0244
1047.00,0.0242
1046.00,0.0240
1045.00,0.0237
1044.00,0.0235
1043.00,0.0233
1042.00,0.0231
1041.00,0.0229
1040.00,0.0227
1039.00,0.0226
1038.00,0.0224
1037.00,0.0223
1036.00,0.0222
1035.00,0.0221
1034.00,0.0220
1033.00,0.0219
1032.00,0.0218
1031.00,0.0217
1030.00,0.0216
1029.00,0.0216
1028.00,0.0215
1027.00,0.0214
1026.00,0.0214
1025.00,0.0214
1024.00,0.0215
1023.00,0.0216
1022.00,0.0219
1021.00,0.0222
1020.00,0.0225
1019.00,0.0229
1018.00,0.0232
1017.00,0.0235
1016.00,0.0237
1015.00,0.0238
1014.00,0.0238
1013.00,0.0238
1012.00,0.0236
1011.00,0.0235
1010.00,0.0232
1009.00,0.0230
1008.00,0.0228
1007.00,0.0228
1006.00,0.0228
1005.00,0.0229
1004.00,0.0231
1003.00,0.0233
1002.00,0.0235
1001.00,0.0236
1000.00,0.0237
999.00,0.0236
998.00,0.0234
997.00,0.0230
996.00,0.0225
995.00,0.0219
994.00,0.0212
993.00,0.0205
992.00,0.0197
991.00,0.0190
990.00,0.0184
989.00,0.0179
988.00,0.0174
987.00,0.0172
986.00,0.0170
985.00,0.0170
984.00,0.0171
983.00,0.0172
982.00,0.0174
981.00,0.0177
980.00,0.0179
979.00,0.0181
978.00,0.0183
977.00,0.0183
976.00,0.0183
975.00,0.0181
974.00,0.0178
973.00,0.0174
972.00,0.0169
971.00,0.0163
970.00,0.0158
969.00,0.0152
968.00,0.0147
967.00,0.0143
966.00,0.0139
965.00,0.0136
964.00,0.0133
963.00,0.0130
962.00,0.0127
961.00,0.0125
960.00,0.0123
959.00,0.0121
958.00,0.0120
957.00,0.0118
956.00,0.0118
955.00,0.0117
954.00,0.0116
953.00,0.0115
952.00,0.0114
951.00,0.0113
950.00,0.0113
949.00,0.0112
948.00,0.0112
947.00,0.0112
946.00,0.0111
945.00,0.0111
944.00,0.0110
943.00,0.0110
942.00,0.0110
941.00,0.0110
940.00,0.0110
939.00,0.0111
938.00,0.0111
937.00,0.0112
936.00,0.0113
935.00,0.0114
934.00,0.0115
933.00,0.0115
932.00,0.0116
931.00,0.0117
930.00,0.0117
929.00,0.0117
928.00,0.0116
927.00,0.0116
926.00,0.0115
925.00,0.0114
924.00,0.0112
923.00,0.0110
922.00,0.0107
921.00,0.0105
920.00,0.0103
919.00,0.0101
918.00,0.0099
917.00,0.0097
916.00,0.0095
915.00,0.0093
914.00,0.0092
913.00,0.0091
912.00,0.0089
911.00,0.0088
910.00,0.0087
909.00,0.0086
908.00,0.0086
907.00,0.0085
906.00,0.0084
905.00,0.0084
904.00,0.0084
903.00,0.0084
902.00,0.0084
901.00,0.0084
900.00,0.0084
899.00,0.0084
898.00,0.0084
897.00,0.0084
896.00,0.0084
895.00,0.0085
894.00,0.0085
893.00,0.0086
892.00,0.0086
891.00,0.0086
890.00,0.0087
889.00,0.0087
888.00,0.0087
887.00,0.0087
886.00,0.0088
885.00,0.0089
884.00,0.0090
883.00,0.0092
882.00,0.0094
881.00,0.0096
880.00,0.0098
879.00,0.0100
878.00,0.0101
877.00,0.0102
876.00,0.0103
875.00,0.0102
874.00,0.0101
873.00,0.0100
872.00,0.0099
871.00,0.0098
870.00,0.0098
869.00,0.0098
868.00,0.0099
867.00,0.0100
866.00,0.0101
865.00,0.0103
864.00,0.0104
863.00,0.0106
862.00,0.0109
861.00,0.0111
860.00,0.0115
859.00,0.0118
858.00,0.0122
857.00,0.0126
856.00,0.0129
855.00,0.0133
854.00,0.0136
853.00,0.0138
852.00,0.0140
851.00,0.0141
850.00,0.0142
849.00,0.0141
848.00,0.0140
847.00,0.0139
846.00,0.0138
845.00,0.0138
844.00,0.0138
843.00,0.0139
842.00,0.0141
841.00,0.0143
840.00,0.0146
839.00,0.0148
838.00,0.0151
837.00,0.0154
836.00,0.0157
835.00,0.0160
834.00,0.0163
833.00,0.0166
832.00,0.0169
831.00,0.0171
830.00,0.0173
829.00,0.0175
828.00,0.0176
827.00,0.0176
826.00,0.0176
825.00,0.0175
824.00,0.0174
823.00,0.0174
822.00,0.0174
821.00,0.0174
820.00,0.0174
819.00,0.0175
818.00,0.0175
817.00,0.0176
816.00,0.0178
815.00,0.0179
814.00,0.0181
813.00,0.0183
812.00,0.0186
811.00,0.0188
810.00,0.0190
809.00,0.0191
808.00,0.0193
807.00,0.0195
806.00,0.0197
805.00,0.0199
804.00,0.0200
803.00,0.0201
802.00,0.0202
801.00,0.0203
800.00,0.0205
799.00,0.0206
798.00,0.0207
797.00,0.0209
796.00,0.0210
795.00,0.0212
794.00,0.0214
793.00,0.0216
792.00,0.0218
791.00,0.0220
790.00,0.0222
789.00,0.0225
788.00,0.0228
787.00,0.0231
786.00,0.0233
785.00,0.0236
784.00,0.0239
783.00,0.0242
782.00,0.0245
781.00,0.0248
780.00,0.0250
779.00,0.0253
778.00,0.0256
777.00,0.0259
776.00,0.0262
775.00,0.0266
774.00,0.0270
773.00,0.0273
772.00,0.0277
771.00,0.0281
770.00,0.0285
769.00,0.0289
768.00,0.0293
767.00,0.0297
766.00,0.0301
765.00,0.0304
764.00,0.0307
763.00,0.0310
762.00,0.0313
761.00,0.0316
760.00,0.0319
759.00,0.0322
758.00,0.0325
757.00,0.0328
756.00,0.0332
755.00,0.0335
754.00,0.0339
753.00,0.0343
752.00,0.0347
751.00,0.0351
750.00,0.0355
749.00,0.0359
748.00,0.0364
747.00,0.0369
746.00,0.0374
745.00,0.0380
744.00,0.0386
743.00,0.0391
742.00,0.0396
741.00,0.0401
740.00,0.0407
739.00,0.0413
738.00,0.0419
737.00,0.0426
736.00,0.0432
735.00,0.0439
734.00,0.0446
733.00,0.0453
732.00,0.0461
731.00,0.0469
730.00,0.0477
729.00,0.0484
728.00,0.0492
727.00,0.0499
726.00,0.0507
725.00,0.0514
724.00,0.0522
723.00,0.0530
722.00,0.0538
721.00,0.0546
720.00,0.0552
719.00,0.0558
718.00,0.0562
717.00,0.0565
716.00,0.0569
715.00,0.0573
714.00,0.0577
713.00,0.0582
712.00,0.0587
711.00,0.0592
710.00,0.0597
709.00,0.0601
708.00,0.0606
707.00,0.0612
706.00,0.0618
705.00,0.0624
704.00,0.0631
703.00,0.0637
702.00,0.0642
701.00,0.0647
700.00,0.0651
699.00,0.0655
698.00,0.0658
697.00,0.0661
696.00,0.0665
695.00,0.0667
694.00,0.0670
693.00,0.0673
692.00,0.0675
691.00,0.0678
690.00,0.0680
689.00,0.0682
688.00,0.0684
687.00,0.0686
686.00,0.0687
685.00,0.0689
684.00,0.0691
683.00,0.0693
682.00,0.0695
681.00,0.0697
680.00,0.0699
679.00,0.0701
678.00,0.0702
677.00,0.0704
676.00,0.0706
675.00,0.0707
674.00,0.0708
673.00,0.0709
672.00,0.0710
671.00,0.0709
670.00,0.0709
669.00,0.0711
668.00,0.0717
667.00,0.0723
666.00,0.0725
665.00,0.0725
664.00,0.0725
663.00,0.0727
662.00,0.0728
661.00,0.0731
660.00,0.0733
659.00,0.0736
658.00,0.0738
657.00,0.0740
656.00,0.0742
655.00,0.0745
654.00,0.0748
653.00,0.0750
652.00,0.0754
651.00,0.0758
650.00,0.0761
649.00,0.0764
648.00,0.0767
647.00,0.0769
646.00,0.0771
645.00,0.0773
644.00,0.0776
643.00,0.0779
642.00,0.0781
641.00,0.0783
640.00,0.0785
639.00,0.0787
638.00,0.0788
637.00,0.0788
636.00,0.0788
635.00,0.0788
634.00,0.0788
633.00,0.0789
632.00,0.0789
631.00,0.0790
630.00,0.0790
629.00,0.0790
628.00,0.0791
627.00,0.0791
626.00,0.0792
625.00,0.0793
624.00,0.0796
623.00,0.0798
622.00,0.0801
621.00,0.0804
620.00,0.0807
619.00,0.0811
618.00,0.0814
617.00,0.0818
616.00,0.0821
615.00,0.0824
614.00,0.0825
613.00,0.0826
612.00,0.0826
611.00,0.0824
610.00,0.0820
609.00,0.0816
608.00,0.0812
607.00,0.0808
606.00,0.0804
605.00,0.0800
604.00,0.0796
603.00,0.0793
602.00,0.0789
601.00,0.0785
600.00,0.0782
599.00,0.0779
598.00,0.0776
597.00,0.0774
596.00,0.0773
595.00,0.0773
594.00,0.0771
593.00,0.0770
592.00,0.0770
591.00,0.0770
590.00,0.0770
589.00,0.0770
588.00,0.0771
587.00,0.0772
586.00,0.0773
585.00,0.0774
584.00,0.0775
583.00,0.0776
582.00,0.0777
581.00,0.0778
580.00,0.0780
579.00,0.0781
578.00,0.0783
577.00,0.0784
576.00,0.0787
575.00,0.0790
574.00,0.0793
573.00,0.0796
572.00,0.0799
571.00,0.0802
570.00,0.0805
569.00,0.0809
568.00,0.0815
567.00,0.0821
566.00,0.0828
565.00,0.0834
564.00,0.0841
563.00,0.0849
562.00,0.0857
561.00,0.0866
560.00,0.0875
559.00,0.0884
558.00,0.0892
557.00,0.0899
556.00,0.0907
555.00,0.0915
554.00,0.0920
553.00,0.0923
552.00,0.0926
551.00,0.0927
550.00,0.0927
549.00,0.0926
548.00,0.0926
547.00,0.0924
546.00,0.0922
545.00,0.0918
544.00,0.0914
543.00,0.0910
542.00,0.0904
541.00,0.0899
540.00,0.0895
539.00,0.0891
538.00,0.0887
537.00,0.0882
536.00,0.0878
535.00,0.0874
534.00,0.0870
533.00,0.0866
532.00,0.0863
531.00,0.0859
530.00,0.0856
529.00,0.0852
528.00,0.0850
527.00,0.0847
526.00,0.0845
525.00,0.0842
524.00,0.0840
523.00,0.0838
522.00,0.0834
521.00,0.0830
520.00,0.0826
519.00,0.0823
518.00,0.0820
517.00,0.0819
516.00,0.0819
515.00,0.0819
514.00,0.0818
513.00,0.0815
512.00,0.0812
511.00,0.0809
510.00,0.0805
509.00,0.0801
508.00,0.0797
507.00,0.0793
506.00,0.0789
505.00,0.0784
504.00,0.0780
503.00,0.0777
502.00,0.0774
501.00,0.0772
500.00,0.0770
499.00,0.0768
498.00,0.0766
497.00,0.0765
496.00,0.0765
495.00,0.0767
494.00,0.0769
493.00,0.0771
492.00,0.0773
491.00,0.0773
490.00,0.0770
489.00,0.0766
488.00,0.0761
487.00,0.0756
486.00,0.0752
485.00,0.0749
484.00,0.0747
483.00,0.0746
482.00,0.0745
481.00,0.0743
480.00,0.0741
479.00,0.0737
478.00,0.0733
477.00,0.0730
476.00,0.0729
475.00,0.0728
474.00,0.0727
473.00,0.0724
472.00,0.0722
471.00,0.0719
470.00,0.0714
469.00,0.0711
468.00,0.0710
467.00,0.0710
466.00,0.0708
465.00,0.0706
464.00,0.0706
463.00,0.0706
462.00,0.0706
461.00,0.0705
460.00,0.0703
459.00,0.0700
458.00,0.0697
457.00,0.0695
456.00,0.0695
455.00,0.0694
454.00,0.0693
453.00,0.0692
452.00,0.0694
451.00,0.0696
450.00,0.0695
449.00,0.0693
448.00,0.0693
447.00,0.0696
446.00,0.0698
445.00,0.0698
444.00,0.0696
443.00,0.0696
442.00,0.0696
441.00,0.0697
440.00,0.0698
439.00,0.0698
438.00,0.0698
437.00,0.0698
436.00,0.0698
435.00,0.0700
434.00,0.0702
433.00,0.0708
432.00,0.0716
431.00,0.0724
430.00,0.0730
429.00,0.0737
428.00,0.0744
427.00,0.0750
426.00,0.0755
425.00,0.0758
424.00,0.0758
423.00,0.0755
422.00,0.0749
421.00,0.0742
420.00,0.0739
419.00,0.0738
418.00,0.0735
417.00,0.0730
416.00,0.0725
415.00,0.0716
414.00,0.0705
413.00,0.0696
412.00,0.0691
411.00,0.0686
410.00,0.0678
409.00,0.0669
408.00,0.0665
407.00,0.0666
406.00,0.0668
405.00,0.0667
404.00,0.0662
403.00,0.0651
402.00,0.0638
401.00,0.0628
400.00,0.0624
