Created as New Dataset,Sample 224 By YargerLab Date Tuesday, June 11 2024
cm-1,A
4000.00,0.0040
3999.00,0.0040
3998.00,0.0040
3997.00,0.0040
3996.00,0.0040
3995.00,0.0040
3994.00,0.0040
3993.00,0.0040
3992.00,0.0040
3991.00,0.0040
3990.00,0.0040
3989.00,0.0040
3988.00,0.0040
3987.00,0.0040
3986.00,0.0040
3985.00,0.0040
3984.00,0.0040
3983.00,0.0040
3982.00,0.0040
3981.00,0.0040
3980.00,0.0040
3979.00,0.0040
3978.00,0.0040
3977.00,0.0040
3976.00,0.0040
3975.00,0.0040
3974.00,0.0040
3973.00,0.0040
3972.00,0.0040
3971.00,0.0040
3970.00,0.0040
3969.00,0.0040
3968.00,0.0040
3967.00,0.0040
3966.00,0.0040
3965.00,0.0040
3964.00,0.0040
3963.00,0.0040
3962.00,0.0040
3961.00,0.0040
3960.00,0.0040
3959.00,0.0040
3958.00,0.0040
3957.00,0.0040
3956.00,0.0040
3955.00,0.0040
3954.00,0.0040
3953.00,0.0040
3952.00,0.0040
3951.00,0.0040
3950.00,0.0039
3949.00,0.0039
3948.00,0.0039
3947.00,0.0039
3946.00,0.0039
3945.00,0.0039
3944.00,0.0039
3943.00,0.0040
3942.00,0.0040
3941.00,0.0040
3940.00,0.0040
3939.00,0.0040
3938.00,0.0039
3937.00,0.0039
3936.00,0.0039
3935.00,0.0039
3934.00,0.0038
3933.00,0.0038
3932.00,0.0039
3931.00,0.0039
3930.00,0.0039
3929.00,0.0039
3928.00,0.0039
3927.00,0.0039
3926.00,0.0040
3925.00,0.0040
3924.00,0.0040
3923.00,0.0039
3922.00,0.0039
3921.00,0.0038
3920.00,0.0038
3919.00,0.0037
3918.00,0.0037
3917.00,0.0037
3916.00,0.0038
3915.00,0.0038
3914.00,0.0039
3913.00,0.0039
3912.00,0.0039
3911.00,0.0040
3910.00,0.0040
3909.00,0.0040
3908.00,0.0040
3907.00,0.0040
3906.00,0.0039
3905.00,0.0038
3904.00,0.0037
3903.00,0.0035
3902.00,0.0034
3901.00,0.0034
3900.00,0.0035
3899.00,0.0036
3898.00,0.0037
3897.00,0.0037
3896.00,0.0037
3895.00,0.0038
3894.00,0.0038
3893.00,0.0039
3892.00,0.0039
3891.00,0.0038
3890.00,0.0038
3889.00,0.0037
3888.00,0.0036
3887.00,0.0036
3886.00,0.0036
3885.00,0.0037
3884.00,0.0037
3883.00,0.0037
3882.00,0.0036
3881.00,0.0037
3880.00,0.0037
3879.00,0.0037
3878.00,0.0037
3877.00,0.0037
3876.00,0.0037
3875.00,0.0037
3874.00,0.0038
3873.00,0.0038
3872.00,0.0037
3871.00,0.0035
3870.00,0.0035
3869.00,0.0035
3868.00,0.0035
3867.00,0.0035
3866.00,0.0035
3865.00,0.0035
3864.00,0.0036
3863.00,0.0036
3862.00,0.0036
3861.00,0.0035
3860.00,0.0035
3859.00,0.0036
3858.00,0.0038
3857.00,0.0039
3856.00,0.0040
3855.00,0.0040
3854.00,0.0039
3853.00,0.0037
3852.00,0.0036
3851.00,0.0036
3850.00,0.0035
3849.00,0.0035
3848.00,0.0035
3847.00,0.0036
3846.00,0.0036
3845.00,0.0036
3844.00,0.0036
3843.00,0.0036
3842.00,0.0036
3841.00,0.0035
3840.00,0.0035
3839.00,0.0035
3838.00,0.0035
3837.00,0.0035
3836.00,0.0035
3835.00,0.0035
3834.00,0.0035
3833.00,0.0035
3832.00,0.0035
3831.00,0.0036
3830.00,0.0036
3829.00,0.0036
3828.00,0.0036
3827.00,0.0037
3826.00,0.0037
3825.00,0.0037
3824.00,0.0036
3823.00,0.0035
3822.00,0.0035
3821.00,0.0035
3820.00,0.0036
3819.00,0.0036
3818.00,0.0035
3817.00,0.0034
3816.00,0.0035
3815.00,0.0037
3814.00,0.0037
3813.00,0.0038
3812.00,0.0037
3811.00,0.0038
3810.00,0.0038
3809.00,0.0038
3808.00,0.0037
3807.00,0.0037
3806.00,0.0037
3805.00,0.0037
3804.00,0.0036
3803.00,0.0035
3802.00,0.0035
3801.00,0.0036
3800.00,0.0037
3799.00,0.0036
3798.00,0.0036
3797.00,0.0036
3796.00,0.0036
3795.00,0.0037
3794.00,0.0038
3793.00,0.0038
3792.00,0.0039
3791.00,0.0039
3790.00,0.0040
3789.00,0.0040
3788.00,0.0040
3787.00,0.0040
3786.00,0.0040
3785.00,0.0040
3784.00,0.0039
3783.00,0.0039
3782.00,0.0038
3781.00,0.0038
3780.00,0.0038
3779.00,0.0039
3778.00,0.0039
3777.00,0.0039
3776.00,0.0039
3775.00,0.0039
3774.00,0.0039
3773.00,0.0039
3772.00,0.0038
3771.00,0.0038
3770.00,0.0037
3769.00,0.0037
3768.00,0.0037
3767.00,0.0036
3766.00,0.0036
3765.00,0.0037
3764.00,0.0037
3763.00,0.0037
3762.00,0.0036
3761.00,0.0036
3760.00,0.0036
3759.00,0.0036
3758.00,0.0036
3757.00,0.0036
3756.00,0.0035
3755.00,0.0035
3754.00,0.0034
3753.00,0.0034
3752.00,0.0033
3751.00,0.0032
3750.00,0.0031
3749.00,0.0031
3748.00,0.0032
3747.00,0.0032
3746.00,0.0031
3745.00,0.0031
3744.00,0.0032
3743.00,0.0033
3742.00,0.0033
3741.00,0.0032
3740.00,0.0031
3739.00,0.0030
3738.00,0.0030
3737.00,0.0029
3736.00,0.0030
3735.00,0.0031
3734.00,0.0031
3733.00,0.0031
3732.00,0.0032
3731.00,0.0033
3730.00,0.0034
3729.00,0.0034
3728.00,0.0034
3727.00,0.0034
3726.00,0.0035
3725.00,0.0035
3724.00,0.0035
3723.00,0.0035
3722.00,0.0036
3721.00,0.0036
3720.00,0.0036
3719.00,0.0037
3718.00,0.0037
3717.00,0.0037
3716.00,0.0037
3715.00,0.0036
3714.00,0.0036
3713.00,0.0035
3712.00,0.0035
3711.00,0.0035
3710.00,0.0035
3709.00,0.0035
3708.00,0.0035
3707.00,0.0036
3706.00,0.0036
3705.00,0.0037
3704.00,0.0037
3703.00,0.0038
3702.00,0.0038
3701.00,0.0039
3700.00,0.0039
3699.00,0.0039
3698.00,0.0038
3697.00,0.0039
3696.00,0.0039
3695.00,0.0039
3694.00,0.0038
3693.00,0.0038
3692.00,0.0038
3691.00,0.0038
3690.00,0.0037
3689.00,0.0036
3688.00,0.0036
3687.00,0.0036
3686.00,0.0037
3685.00,0.0037
3684.00,0.0037
3683.00,0.0037
3682.00,0.0038
3681.00,0.0038
3680.00,0.0038
3679.00,0.0039
3678.00,0.0038
3677.00,0.0037
3676.00,0.0037
3675.00,0.0037
3674.00,0.0038
3673.00,0.0038
3672.00,0.0037
3671.00,0.0037
3670.00,0.0039
3669.00,0.0040
3668.00,0.0040
3667.00,0.0041
3666.00,0.0041
3665.00,0.0042
3664.00,0.0043
3663.00,0.0043
3662.00,0.0044
3661.00,0.0044
3660.00,0.0044
3659.00,0.0044
3658.00,0.0044
3657.00,0.0044
3656.00,0.0044
3655.00,0.0043
3654.00,0.0043
3653.00,0.0041
3652.00,0.0040
3651.00,0.0040
3650.00,0.0040
3649.00,0.0039
3648.00,0.0039
3647.00,0.0040
3646.00,0.0041
3645.00,0.0042
3644.00,0.0043
3643.00,0.0044
3642.00,0.0045
3641.00,0.0046
3640.00,0.0047
3639.00,0.0047
3638.00,0.0047
3637.00,0.0047
3636.00,0.0047
3635.00,0.0047
3634.00,0.0047
3633.00,0.0047
3632.00,0.0046
3631.00,0.0045
3630.00,0.0044
3629.00,0.0044
3628.00,0.0044
3627.00,0.0044
3626.00,0.0045
3625.00,0.0045
3624.00,0.0046
3623.00,0.0047
3622.00,0.0047
3621.00,0.0048
3620.00,0.0049
3619.00,0.0049
3618.00,0.0049
3617.00,0.0048
3616.00,0.0047
3615.00,0.0047
3614.00,0.0047
3613.00,0.0047
3612.00,0.0047
3611.00,0.0047
3610.00,0.0047
3609.00,0.0048
3608.00,0.0049
3607.00,0.0050
3606.00,0.0051
3605.00,0.0052
3604.00,0.0053
3603.00,0.0053
3602.00,0.0054
3601.00,0.0054
3600.00,0.0055
3599.00,0.0055
3598.00,0.0055
3597.00,0.0055
3596.00,0.0055
3595.00,0.0056
3594.00,0.0056
3593.00,0.0056
3592.00,0.0056
3591.00,0.0055
3590.00,0.0055
3589.00,0.0056
3588.00,0.0056
3587.00,0.0057
3586.00,0.0058
3585.00,0.0058
3584.00,0.0058
3583.00,0.0059
3582.00,0.0060
3581.00,0.0061
3580.00,0.0062
3579.00,0.0063
3578.00,0.0063
3577.00,0.0064
3576.00,0.0064
3575.00,0.0064
3574.00,0.0065
3573.00,0.0065
3572.00,0.0065
3571.00,0.0065
3570.00,0.0064
3569.00,0.0064
3568.00,0.0064
3567.00,0.0064
3566.00,0.0065
3565.00,0.0066
3564.00,0.0066
3563.00,0.0067
3562.00,0.0068
3561.00,0.0069
3560.00,0.0070
3559.00,0.0070
3558.00,0.0071
3557.00,0.0071
3556.00,0.0072
3555.00,0.0072
3554.00,0.0072
3553.00,0.0073
3552.00,0.0073
3551.00,0.0073
3550.00,0.0073
3549.00,0.0073
3548.00,0.0073
3547.00,0.0074
3546.00,0.0074
3545.00,0.0075
3544.00,0.0076
3543.00,0.0077
3542.00,0.0077
3541.00,0.0078
3540.00,0.0079
3539.00,0.0079
3538.00,0.0080
3537.00,0.0080
3536.00,0.0081
3535.00,0.0081
3534.00,0.0081
3533.00,0.0081
3532.00,0.0081
3531.00,0.0082
3530.00,0.0082
3529.00,0.0083
3528.00,0.0083
3527.00,0.0083
3526.00,0.0083
3525.00,0.0084
3524.00,0.0084
3523.00,0.0085
3522.00,0.0086
3521.00,0.0086
3520.00,0.0087
3519.00,0.0087
3518.00,0.0088
3517.00,0.0089
3516.00,0.0089
3515.00,0.0089
3514.00,0.0090
3513.00,0.0090
3512.00,0.0091
3511.00,0.0091
3510.00,0.0092
3509.00,0.0092
3508.00,0.0092
3507.00,0.0093
3506.00,0.0093
3505.00,0.0093
3504.00,0.0094
3503.00,0.0094
3502.00,0.0095
3501.00,0.0095
3500.00,0.0096
3499.00,0.0096
3498.00,0.0097
3497.00,0.0098
3496.00,0.0098
3495.00,0.0099
3494.00,0.0099
3493.00,0.0100
3492.00,0.0100
3491.00,0.0101
3490.00,0.0101
3489.00,0.0102
3488.00,0.0102
3487.00,0.0103
3486.00,0.0103
3485.00,0.0104
3484.00,0.0105
3483.00,0.0105
3482.00,0.0106
3481.00,0.0106
3480.00,0.0107
3479.00,0.0107
3478.00,0.0108
3477.00,0.0109
3476.00,0.0109
3475.00,0.0110
3474.00,0.0110
3473.00,0.0111
3472.00,0.0111
3471.00,0.0112
3470.00,0.0112
3469.00,0.0113
3468.00,0.0113
3467.00,0.0114
3466.00,0.0114
3465.00,0.0115
3464.00,0.0115
3463.00,0.0116
3462.00,0.0117
3461.00,0.0117
3460.00,0.0118
3459.00,0.0118
3458.00,0.0119
3457.00,0.0119
3456.00,0.0120
3455.00,0.0120
3454.00,0.0121
3453.00,0.0121
3452.00,0.0122
3451.00,0.0122
3450.00,0.0123
3449.00,0.0123
3448.00,0.0124
3447.00,0.0124
3446.00,0.0124
3445.00,0.0125
3444.00,0.0125
3443.00,0.0126
3442.00,0.0126
3441.00,0.0127
3440.00,0.0128
3439.00,0.0128
3438.00,0.0128
3437.00,0.0129
3436.00,0.0130
3435.00,0.0130
3434.00,0.0131
3433.00,0.0131
3432.00,0.0132
3431.00,0.0132
3430.00,0.0133
3429.00,0.0133
3428.00,0.0134
3427.00,0.0134
3426.00,0.0135
3425.00,0.0135
3424.00,0.0136
3423.00,0.0136
3422.00,0.0137
3421.00,0.0138
3420.00,0.0138
3419.00,0.0139
3418.00,0.0139
3417.00,0.0140
3416.00,0.0140
3415.00,0.0141
3414.00,0.0141
3413.00,0.0142
3412.00,0.0142
3411.00,0.0143
3410.00,0.0143
3409.00,0.0144
3408.00,0.0145
3407.00,0.0145
3406.00,0.0145
3405.00,0.0146
3404.00,0.0146
3403.00,0.0147
3402.00,0.0147
3401.00,0.0148
3400.00,0.0148
3399.00,0.0148
3398.00,0.0149
3397.00,0.0150
3396.00,0.0150
3395.00,0.0150
3394.00,0.0151
3393.00,0.0151
3392.00,0.0152
3391.00,0.0153
3390.00,0.0153
3389.00,0.0154
3388.00,0.0154
3387.00,0.0155
3386.00,0.0155
3385.00,0.0156
3384.00,0.0157
3383.00,0.0157
3382.00,0.0158
3381.00,0.0158
3380.00,0.0159
3379.00,0.0159
3378.00,0.0160
3377.00,0.0161
3376.00,0.0162
3375.00,0.0162
3374.00,0.0163
3373.00,0.0164
3372.00,0.0164
3371.00,0.0165
3370.00,0.0165
3369.00,0.0166
3368.00,0.0167
3367.00,0.0168
3366.00,0.0169
3365.00,0.0170
3364.00,0.0171
3363.00,0.0172
3362.00,0.0172
3361.00,0.0173
3360.00,0.0174
3359.00,0.0175
3358.00,0.0176
3357.00,0.0177
3356.00,0.0178
3355.00,0.0179
3354.00,0.0180
3353.00,0.0181
3352.00,0.0182
3351.00,0.0183
3350.00,0.0184
3349.00,0.0185
3348.00,0.0186
3347.00,0.0187
3346.00,0.0189
3345.00,0.0190
3344.00,0.0191
3343.00,0.0192
3342.00,0.0193
3341.00,0.0194
3340.00,0.0195
3339.00,0.0196
3338.00,0.0198
3337.00,0.0199
3336.00,0.0200
3335.00,0.0202
3334.00,0.0203
3333.00,0.0205
3332.00,0.0206
3331.00,0.0208
3330.00,0.0209
3329.00,0.0210
3328.00,0.0211
3327.00,0.0213
3326.00,0.0214
3325.00,0.0216
3324.00,0.0218
3323.00,0.0219
3322.00,0.0221
3321.00,0.0223
3320.00,0.0224
3319.00,0.0226
3318.00,0.0228
3317.00,0.0229
3316.00,0.0231
3315.00,0.0233
3314.00,0.0234
3313.00,0.0236
3312.00,0.0238
3311.00,0.0239
3310.00,0.0241
3309.00,0.0243
3308.00,0.0244
3307.00,0.0246
3306.00,0.0248
3305.00,0.0250
3304.00,0.0253
3303.00,0.0255
3302.00,0.0257
3301.00,0.0259
3300.00,0.0261
3299.00,0.0263
3298.00,0.0264
3297.00,0.0266
3296.00,0.0268
3295.00,0.0270
3294.00,0.0272
3293.00,0.0274
3292.00,0.0276
3291.00,0.0278
3290.00,0.0280
3289.00,0.0282
3288.00,0.0284
3287.00,0.0285
3286.00,0.0287
3285.00,0.0288
3284.00,0.0290
3283.00,0.0291
3282.00,0.0292
3281.00,0.0293
3280.00,0.0294
3279.00,0.0294
3278.00,0.0295
3277.00,0.0295
3276.00,0.0295
3275.00,0.0296
3274.00,0.0296
3273.00,0.0295
3272.00,0.0295
3271.00,0.0295
3270.00,0.0295
3269.00,0.0295
3268.00,0.0295
3267.00,0.0294
3266.00,0.0293
3265.00,0.0292
3264.00,0.0291
3263.00,0.0290
3262.00,0.0288
3261.00,0.0287
3260.00,0.0285
3259.00,0.0284
3258.00,0.0282
3257.00,0.0280
3256.00,0.0278
3255.00,0.0277
3254.00,0.0275
3253.00,0.0274
3252.00,0.0272
3251.00,0.0271
3250.00,0.0269
3249.00,0.0267
3248.00,0.0265
3247.00,0.0263
3246.00,0.0261
3245.00,0.0260
3244.00,0.0259
3243.00,0.0257
3242.00,0.0256
3241.00,0.0255
3240.00,0.0253
3239.00,0.0252
3238.00,0.0250
3237.00,0.0249
3236.00,0.0247
3235.00,0.0245
3234.00,0.0244
3233.00,0.0243
3232.00,0.0242
3231.00,0.0241
3230.00,0.0240
3229.00,0.0239
3228.00,0.0238
3227.00,0.0237
3226.00,0.0236
3225.00,0.0235
3224.00,0.0234
3223.00,0.0233
3222.00,0.0232
3221.00,0.0231
3220.00,0.0230
3219.00,0.0229
3218.00,0.0228
3217.00,0.0227
3216.00,0.0226
3215.00,0.0225
3214.00,0.0224
3213.00,0.0224
3212.00,0.0223
3211.00,0.0222
3210.00,0.0221
3209.00,0.0220
3208.00,0.0220
3207.00,0.0219
3206.00,0.0218
3205.00,0.0217
3204.00,0.0216
3203.00,0.0215
3202.00,0.0214
3201.00,0.0214
3200.00,0.0213
3199.00,0.0212
3198.00,0.0211
3197.00,0.0210
3196.00,0.0209
3195.00,0.0208
3194.00,0.0208
3193.00,0.0207
3192.00,0.0206
3191.00,0.0205
3190.00,0.0204
3189.00,0.0203
3188.00,0.0202
3187.00,0.0201
3186.00,0.0200
3185.00,0.0199
3184.00,0.0198
3183.00,0.0197
3182.00,0.0196
3181.00,0.0195
3180.00,0.0194
3179.00,0.0193
3178.00,0.0192
3177.00,0.0191
3176.00,0.0190
3175.00,0.0189
3174.00,0.0188
3173.00,0.0187
3172.00,0.0186
3171.00,0.0185
3170.00,0.0184
3169.00,0.0183
3168.00,0.0182
3167.00,0.0181
3166.00,0.0180
3165.00,0.0179
3164.00,0.0178
3163.00,0.0177
3162.00,0.0176
3161.00,0.0175
3160.00,0.0174
3159.00,0.0173
3158.00,0.0172
3157.00,0.0171
3156.00,0.0170
3155.00,0.0169
3154.00,0.0168
3153.00,0.0167
3152.00,0.0166
3151.00,0.0165
3150.00,0.0165
3149.00,0.0164
3148.00,0.0164
3147.00,0.0163
3146.00,0.0162
3145.00,0.0162
3144.00,0.0161
3143.00,0.0160
3142.00,0.0159
3141.00,0.0158
3140.00,0.0157
3139.00,0.0156
3138.00,0.0156
3137.00,0.0156
3136.00,0.0155
3135.00,0.0155
3134.00,0.0154
3133.00,0.0154
3132.00,0.0153
3131.00,0.0152
3130.00,0.0152
3129.00,0.0151
3128.00,0.0151
3127.00,0.0151
3126.00,0.0150
3125.00,0.0150
3124.00,0.0149
3123.00,0.0149
3122.00,0.0148
3121.00,0.0148
3120.00,0.0147
3119.00,0.0147
3118.00,0.0146
3117.00,0.0146
3116.00,0.0146
3115.00,0.0146
3114.00,0.0146
3113.00,0.0146
3112.00,0.0146
3111.00,0.0146
3110.00,0.0146
3109.00,0.0146
3108.00,0.0146
3107.00,0.0146
3106.00,0.0146
3105.00,0.0146
3104.00,0.0147
3103.00,0.0146
3102.00,0.0146
3101.00,0.0146
3100.00,0.0146
3099.00,0.0147
3098.00,0.0147
3097.00,0.0147
3096.00,0.0148
3095.00,0.0148
3094.00,0.0148
3093.00,0.0148
3092.00,0.0148
3091.00,0.0148
3090.00,0.0148
3089.00,0.0148
3088.00,0.0148
3087.00,0.0148
3086.00,0.0148
3085.00,0.0149
3084.00,0.0149
3083.00,0.0149
3082.00,0.0149
3081.00,0.0149
3080.00,0.0149
3079.00,0.0149
3078.00,0.0150
3077.00,0.0150
3076.00,0.0151
3075.00,0.0151
3074.00,0.0151
3073.00,0.0151
3072.00,0.0151
3071.00,0.0151
3070.00,0.0151
3069.00,0.0151
3068.00,0.0150
3067.00,0.0150
3066.00,0.0150
3065.00,0.0150
3064.00,0.0150
3063.00,0.0150
3062.00,0.0150
3061.00,0.0150
3060.00,0.0150
3059.00,0.0149
3058.00,0.0148
3057.00,0.0148
3056.00,0.0147
3055.00,0.0147
3054.00,0.0146
3053.00,0.0146
3052.00,0.0145
3051.00,0.0144
3050.00,0.0144
3049.00,0.0143
3048.00,0.0143
3047.00,0.0142
3046.00,0.0141
3045.00,0.0141
3044.00,0.0140
3043.00,0.0139
3042.00,0.0139
3041.00,0.0138
3040.00,0.0138
3039.00,0.0138
3038.00,0.0137
3037.00,0.0137
3036.00,0.0136
3035.00,0.0135
3034.00,0.0135
3033.00,0.0134
3032.00,0.0134
3031.00,0.0133
3030.00,0.0133
3029.00,0.0133
3028.00,0.0132
3027.00,0.0132
3026.00,0.0131
3025.00,0.0130
3024.00,0.0130
3023.00,0.0129
3022.00,0.0128
3021.00,0.0128
3020.00,0.0127
3019.00,0.0126
3018.00,0.0125
3017.00,0.0125
3016.00,0.0124
3015.00,0.0124
3014.00,0.0124
3013.00,0.0124
3012.00,0.0125
3011.00,0.0125
3010.00,0.0126
3009.00,0.0127
3008.00,0.0127
3007.00,0.0128
3006.00,0.0129
3005.00,0.0129
3004.00,0.0130
3003.00,0.0131
3002.00,0.0131
3001.00,0.0132
3000.00,0.0133
2999.00,0.0133
2998.00,0.0134
2997.00,0.0135
2996.00,0.0136
2995.00,0.0136
2994.00,0.0137
2993.00,0.0138
2992.00,0.0139
2991.00,0.0140
2990.00,0.0142
2989.00,0.0143
2988.00,0.0145
2987.00,0.0146
2986.00,0.0148
2985.00,0.0151
2984.00,0.0154
2983.00,0.0157
2982.00,0.0159
2981.00,0.0161
2980.00,0.0162
2979.00,0.0162
2978.00,0.0162
2977.00,0.0162
2976.00,0.0162
2975.00,0.0163
2974.00,0.0164
2973.00,0.0166
2972.00,0.0167
2971.00,0.0168
2970.00,0.0169
2969.00,0.0169
2968.00,0.0169
2967.00,0.0169
2966.00,0.0169
2965.00,0.0169
2964.00,0.0169
2963.00,0.0169
2962.00,0.0169
2961.00,0.0169
2960.00,0.0169
2959.00,0.0168
2958.00,0.0167
2957.00,0.0167
2956.00,0.0166
2955.00,0.0164
2954.00,0.0163
2953.00,0.0162
2952.00,0.0161
2951.00,0.0160
2950.00,0.0159
2949.00,0.0158
2948.00,0.0157
2947.00,0.0157
2946.00,0.0157
2945.00,0.0157
2944.00,0.0157
2943.00,0.0158
2942.00,0.0160
2941.00,0.0161
2940.00,0.0163
2939.00,0.0164
2938.00,0.0166
2937.00,0.0167
2936.00,0.0169
2935.00,0.0170
2934.00,0.0171
2933.00,0.0172
2932.00,0.0172
2931.00,0.0173
2930.00,0.0173
2929.00,0.0173
2928.00,0.0173
2927.00,0.0173
2926.00,0.0173
2925.00,0.0172
2924.00,0.0171
2923.00,0.0170
2922.00,0.0168
2921.00,0.0167
2920.00,0.0165
2919.00,0.0163
2918.00,0.0161
2917.00,0.0159
2916.00,0.0158
2915.00,0.0156
2914.00,0.0154
2913.00,0.0153
2912.00,0.0152
2911.00,0.0150
2910.00,0.0149
2909.00,0.0148
2908.00,0.0147
2907.00,0.0146
2906.00,0.0145
2905.00,0.0144
2904.00,0.0144
2903.00,0.0143
2902.00,0.0143
2901.00,0.0142
2900.00,0.0141
2899.00,0.0141
2898.00,0.0140
2897.00,0.0140
2896.00,0.0139
2895.00,0.0139
2894.00,0.0139
2893.00,0.0139
2892.00,0.0138
2891.00,0.0138
2890.00,0.0138
2889.00,0.0138
2888.00,0.0138
2887.00,0.0138
2886.00,0.0139
2885.00,0.0139
2884.00,0.0139
2883.00,0.0139
2882.00,0.0139
2881.00,0.0139
2880.00,0.0140
2879.00,0.0140
2878.00,0.0140
2877.00,0.0140
2876.00,0.0140
2875.00,0.0140
2874.00,0.0140
2873.00,0.0139
2872.00,0.0139
2871.00,0.0138
2870.00,0.0138
2869.00,0.0137
2868.00,0.0136
2867.00,0.0134
2866.00,0.0133
2865.00,0.0133
2864.00,0.0132
2863.00,0.0131
2862.00,0.0131
2861.00,0.0131
2860.00,0.0131
2859.00,0.0131
2858.00,0.0131
2857.00,0.0131
2856.00,0.0131
2855.00,0.0131
2854.00,0.0131
2853.00,0.0130
2852.00,0.0129
2851.00,0.0128
2850.00,0.0127
2849.00,0.0125
2848.00,0.0123
2847.00,0.0122
2846.00,0.0120
2845.00,0.0118
2844.00,0.0117
2843.00,0.0115
2842.00,0.0114
2841.00,0.0113
2840.00,0.0112
2839.00,0.0111
2838.00,0.0110
2837.00,0.0110
2836.00,0.0109
2835.00,0.0109
2834.00,0.0108
2833.00,0.0108
2832.00,0.0108
2831.00,0.0108
2830.00,0.0107
2829.00,0.0107
2828.00,0.0107
2827.00,0.0106
2826.00,0.0106
2825.00,0.0106
2824.00,0.0105
2823.00,0.0105
2822.00,0.0104
2821.00,0.0104
2820.00,0.0104
2819.00,0.0104
2818.00,0.0104
2817.00,0.0103
2816.00,0.0103
2815.00,0.0103
2814.00,0.0102
2813.00,0.0102
2812.00,0.0102
2811.00,0.0101
2810.00,0.0101
2809.00,0.0101
2808.00,0.0101
2807.00,0.0101
2806.00,0.0100
2805.00,0.0100
2804.00,0.0100
2803.00,0.0100
2802.00,0.0099
2801.00,0.0099
2800.00,0.0099
2799.00,0.0099
2798.00,0.0098
2797.00,0.0098
2796.00,0.0098
2795.00,0.0098
2794.00,0.0098
2793.00,0.0097
2792.00,0.0097
2791.00,0.0097
2790.00,0.0097
2789.00,0.0097
2788.00,0.0097
2787.00,0.0097
2786.00,0.0096
2785.00,0.0096
2784.00,0.0096
2783.00,0.0096
2782.00,0.0095
2781.00,0.0095
2780.00,0.0095
2779.00,0.0095
2778.00,0.0095
2777.00,0.0094
2776.00,0.0094
2775.00,0.0094
2774.00,0.0094
2773.00,0.0094
2772.00,0.0094
2771.00,0.0093
2770.00,0.0093
2769.00,0.0093
2768.00,0.0093
2767.00,0.0093
2766.00,0.0093
2765.00,0.0092
2764.00,0.0092
2763.00,0.0092
2762.00,0.0092
2761.00,0.0091
2760.00,0.0091
2759.00,0.0091
2758.00,0.0091
2757.00,0.0091
2756.00,0.0091
2755.00,0.0090
2754.00,0.0090
2753.00,0.0090
2752.00,0.0090
2751.00,0.0089
2750.00,0.0089
2749.00,0.0089
2748.00,0.0089
2747.00,0.0089
2746.00,0.0089
2745.00,0.0089
2744.00,0.0089
2743.00,0.0088
2742.00,0.0088
2741.00,0.0088
2740.00,0.0088
2739.00,0.0087
2738.00,0.0087
2737.00,0.0087
2736.00,0.0087
2735.00,0.0087
2734.00,0.0087
2733.00,0.0087
2732.00,0.0086
2731.00,0.0086
2730.00,0.0086
2729.00,0.0086
2728.00,0.0085
2727.00,0.0085
2726.00,0.0085
2725.00,0.0085
2724.00,0.0085
2723.00,0.0084
2722.00,0.0084
2721.00,0.0084
2720.00,0.0084
2719.00,0.0084
2718.00,0.0084
2717.00,0.0084
2716.00,0.0084
2715.00,0.0083
2714.00,0.0083
2713.00,0.0083
2712.00,0.0083
2711.00,0.0082
2710.00,0.0082
2709.00,0.0082
2708.00,0.0082
2707.00,0.0082
2706.00,0.0082
2705.00,0.0082
2704.00,0.0081
2703.00,0.0081
2702.00,0.0081
2701.00,0.0081
2700.00,0.0081
2699.00,0.0081
2698.00,0.0080
2697.00,0.0080
2696.00,0.0080
2695.00,0.0080
2694.00,0.0080
2693.00,0.0080
2692.00,0.0080
2691.00,0.0080
2690.00,0.0080
2689.00,0.0080
2688.00,0.0079
2687.00,0.0079
2686.00,0.0079
2685.00,0.0079
2684.00,0.0079
2683.00,0.0079
2682.00,0.0079
2681.00,0.0078
2680.00,0.0078
2679.00,0.0078
2678.00,0.0078
2677.00,0.0078
2676.00,0.0078
2675.00,0.0078
2674.00,0.0078
2673.00,0.0078
2672.00,0.0078
2671.00,0.0078
2670.00,0.0078
2669.00,0.0078
2668.00,0.0077
2667.00,0.0077
2666.00,0.0077
2665.00,0.0077
2664.00,0.0077
2663.00,0.0077
2662.00,0.0077
2661.00,0.0077
2660.00,0.0077
2659.00,0.0077
2658.00,0.0077
2657.00,0.0077
2656.00,0.0077
2655.00,0.0077
2654.00,0.0077
2653.00,0.0077
2652.00,0.0077
2651.00,0.0077
2650.00,0.0076
2649.00,0.0076
2648.00,0.0076
2647.00,0.0076
2646.00,0.0076
2645.00,0.0076
2644.00,0.0076
2643.00,0.0076
2642.00,0.0076
2641.00,0.0076
2640.00,0.0076
2639.00,0.0076
2638.00,0.0076
2637.00,0.0076
2636.00,0.0076
2635.00,0.0076
2634.00,0.0076
2633.00,0.0076
2632.00,0.0076
2631.00,0.0076
2630.00,0.0076
2629.00,0.0076
2628.00,0.0076
2627.00,0.0076
2626.00,0.0075
2625.00,0.0075
2624.00,0.0075
2623.00,0.0075
2622.00,0.0075
2621.00,0.0075
2620.00,0.0075
2619.00,0.0075
2618.00,0.0075
2617.00,0.0075
2616.00,0.0075
2615.00,0.0075
2614.00,0.0075
2613.00,0.0074
2612.00,0.0074
2611.00,0.0074
2610.00,0.0074
2609.00,0.0074
2608.00,0.0074
2607.00,0.0074
2606.00,0.0074
2605.00,0.0074
2604.00,0.0074
2603.00,0.0074
2602.00,0.0074
2601.00,0.0074
2600.00,0.0074
2599.00,0.0074
2598.00,0.0074
2597.00,0.0073
2596.00,0.0073
2595.00,0.0073
2594.00,0.0073
2593.00,0.0073
2592.00,0.0073
2591.00,0.0073
2590.00,0.0073
2589.00,0.0073
2588.00,0.0073
2587.00,0.0073
2586.00,0.0073
2585.00,0.0072
2584.00,0.0072
2583.00,0.0072
2582.00,0.0072
2581.00,0.0072
2580.00,0.0072
2579.00,0.0072
2578.00,0.0072
2577.00,0.0072
2576.00,0.0072
2575.00,0.0072
2574.00,0.0072
2573.00,0.0072
2572.00,0.0072
2571.00,0.0072
2570.00,0.0072
2569.00,0.0072
2568.00,0.0071
2567.00,0.0071
2566.00,0.0071
2565.00,0.0071
2564.00,0.0071
2563.00,0.0071
2562.00,0.0071
2561.00,0.0071
2560.00,0.0070
2559.00,0.0070
2558.00,0.0070
2557.00,0.0070
2556.00,0.0070
2555.00,0.0070
2554.00,0.0070
2553.00,0.0070
2552.00,0.0070
2551.00,0.0070
2550.00,0.0070
2549.00,0.0070
2548.00,0.0070
2547.00,0.0070
2546.00,0.0070
2545.00,0.0070
2544.00,0.0070
2543.00,0.0069
2542.00,0.0069
2541.00,0.0069
2540.00,0.0069
2539.00,0.0069
2538.00,0.0069
2537.00,0.0069
2536.00,0.0069
2535.00,0.0069
2534.00,0.0069
2533.00,0.0069
2532.00,0.0069
2531.00,0.0069
2530.00,0.0068
2529.00,0.0068
2528.00,0.0068
2527.00,0.0068
2526.00,0.0068
2525.00,0.0068
2524.00,0.0068
2523.00,0.0067
2522.00,0.0067
2521.00,0.0067
2520.00,0.0067
2519.00,0.0067
2518.00,0.0067
2517.00,0.0067
2516.00,0.0067
2515.00,0.0067
2514.00,0.0067
2513.00,0.0067
2512.00,0.0067
2511.00,0.0067
2510.00,0.0067
2509.00,0.0067
2508.00,0.0067
2507.00,0.0067
2506.00,0.0067
2505.00,0.0067
2504.00,0.0067
2503.00,0.0067
2502.00,0.0067
2501.00,0.0067
2500.00,0.0067
2499.00,0.0067
2498.00,0.0066
2497.00,0.0066
2496.00,0.0066
2495.00,0.0066
2494.00,0.0066
2493.00,0.0066
2492.00,0.0066
2491.00,0.0066
2490.00,0.0066
2489.00,0.0066
2488.00,0.0066
2487.00,0.0066
2486.00,0.0066
2485.00,0.0066
2484.00,0.0066
2483.00,0.0066
2482.00,0.0066
2481.00,0.0066
2480.00,0.0065
2479.00,0.0065
2478.00,0.0065
2477.00,0.0065
2476.00,0.0065
2475.00,0.0065
2474.00,0.0065
2473.00,0.0065
2472.00,0.0065
2471.00,0.0065
2470.00,0.0065
2469.00,0.0065
2468.00,0.0064
2467.00,0.0064
2466.00,0.0064
2465.00,0.0064
2464.00,0.0064
2463.00,0.0064
2462.00,0.0064
2461.00,0.0064
2460.00,0.0064
2459.00,0.0064
2458.00,0.0064
2457.00,0.0064
2456.00,0.0064
2455.00,0.0064
2454.00,0.0064
2453.00,0.0064
2452.00,0.0064
2451.00,0.0064
2450.00,0.0064
2449.00,0.0063
2448.00,0.0063
2447.00,0.0063
2446.00,0.0063
2445.00,0.0063
2444.00,0.0063
2443.00,0.0063
2442.00,0.0063
2441.00,0.0063
2440.00,0.0063
2439.00,0.0063
2438.00,0.0063
2437.00,0.0063
2436.00,0.0063
2435.00,0.0063
2434.00,0.0062
2433.00,0.0062
2432.00,0.0062
2431.00,0.0062
2430.00,0.0062
2429.00,0.0062
2428.00,0.0062
2427.00,0.0062
2426.00,0.0062
2425.00,0.0062
2424.00,0.0062
2423.00,0.0061
2422.00,0.0061
2421.00,0.0061
2420.00,0.0061
2419.00,0.0061
2418.00,0.0061
2417.00,0.0061
2416.00,0.0061
2415.00,0.0061
2414.00,0.0061
2413.00,0.0061
2412.00,0.0061
2411.00,0.0061
2410.00,0.0060
2409.00,0.0061
2408.00,0.0061
2407.00,0.0061
2406.00,0.0060
2405.00,0.0060
2404.00,0.0060
2403.00,0.0060
2402.00,0.0060
2401.00,0.0060
2400.00,0.0060
2399.00,0.0060
2398.00,0.0060
2397.00,0.0060
2396.00,0.0060
2395.00,0.0059
2394.00,0.0059
2393.00,0.0059
2392.00,0.0059
2391.00,0.0059
2390.00,0.0059
2389.00,0.0059
2388.00,0.0059
2387.00,0.0059
2386.00,0.0059
2385.00,0.0059
2384.00,0.0059
2383.00,0.0059
2382.00,0.0059
2381.00,0.0059
2380.00,0.0059
2379.00,0.0059
2378.00,0.0058
2377.00,0.0058
2376.00,0.0058
2375.00,0.0058
2374.00,0.0058
2373.00,0.0058
2372.00,0.0058
2371.00,0.0058
2370.00,0.0058
2369.00,0.0058
2368.00,0.0058
2367.00,0.0058
2366.00,0.0058
2365.00,0.0058
2364.00,0.0058
2363.00,0.0058
2362.00,0.0058
2361.00,0.0058
2360.00,0.0058
2359.00,0.0058
2358.00,0.0057
2357.00,0.0057
2356.00,0.0057
2355.00,0.0057
2354.00,0.0057
2353.00,0.0057
2352.00,0.0057
2351.00,0.0057
2350.00,0.0057
2349.00,0.0057
2348.00,0.0057
2347.00,0.0057
2346.00,0.0057
2345.00,0.0057
2344.00,0.0057
2343.00,0.0057
2342.00,0.0057
2341.00,0.0057
2340.00,0.0057
2339.00,0.0057
2338.00,0.0057
2337.00,0.0057
2336.00,0.0056
2335.00,0.0056
2334.00,0.0056
2333.00,0.0056
2332.00,0.0056
2331.00,0.0056
2330.00,0.0056
2329.00,0.0056
2328.00,0.0056
2327.00,0.0057
2326.00,0.0057
2325.00,0.0056
2324.00,0.0056
2323.00,0.0056
2322.00,0.0056
2321.00,0.0056
2320.00,0.0056
2319.00,0.0056
2318.00,0.0055
2317.00,0.0056
2316.00,0.0056
2315.00,0.0056
2314.00,0.0056
2313.00,0.0056
2312.00,0.0056
2311.00,0.0056
2310.00,0.0056
2309.00,0.0056
2308.00,0.0056
2307.00,0.0056
2306.00,0.0056
2305.00,0.0056
2304.00,0.0056
2303.00,0.0056
2302.00,0.0056
2301.00,0.0056
2300.00,0.0056
2299.00,0.0056
2298.00,0.0056
2297.00,0.0056
2296.00,0.0056
2295.00,0.0056
2294.00,0.0056
2293.00,0.0056
2292.00,0.0056
2291.00,0.0056
2290.00,0.0056
2289.00,0.0056
2288.00,0.0056
2287.00,0.0056
2286.00,0.0056
2285.00,0.0056
2284.00,0.0056
2283.00,0.0056
2282.00,0.0055
2281.00,0.0055
2280.00,0.0055
2279.00,0.0055
2278.00,0.0055
2277.00,0.0055
2276.00,0.0055
2275.00,0.0055
2274.00,0.0055
2273.00,0.0055
2272.00,0.0055
2271.00,0.0056
2270.00,0.0055
2269.00,0.0055
2268.00,0.0055
2267.00,0.0055
2266.00,0.0055
2265.00,0.0055
2264.00,0.0055
2263.00,0.0055
2262.00,0.0055
2261.00,0.0055
2260.00,0.0055
2259.00,0.0055
2258.00,0.0054
2257.00,0.0054
2256.00,0.0054
2255.00,0.0054
2254.00,0.0054
2253.00,0.0054
2252.00,0.0054
2251.00,0.0054
2250.00,0.0054
2249.00,0.0054
2248.00,0.0054
2247.00,0.0054
2246.00,0.0054
2245.00,0.0054
2244.00,0.0054
2243.00,0.0054
2242.00,0.0054
2241.00,0.0054
2240.00,0.0054
2239.00,0.0054
2238.00,0.0054
2237.00,0.0054
2236.00,0.0054
2235.00,0.0054
2234.00,0.0053
2233.00,0.0053
2232.00,0.0053
2231.00,0.0053
2230.00,0.0053
2229.00,0.0053
2228.00,0.0053
2227.00,0.0053
2226.00,0.0053
2225.00,0.0053
2224.00,0.0053
2223.00,0.0053
2222.00,0.0052
2221.00,0.0052
2220.00,0.0052
2219.00,0.0052
2218.00,0.0052
2217.00,0.0052
2216.00,0.0052
2215.00,0.0052
2214.00,0.0052
2213.00,0.0052
2212.00,0.0052
2211.00,0.0053
2210.00,0.0053
2209.00,0.0053
2208.00,0.0053
2207.00,0.0052
2206.00,0.0052
2205.00,0.0052
2204.00,0.0052
2203.00,0.0052
2202.00,0.0052
2201.00,0.0051
2200.00,0.0052
2199.00,0.0052
2198.00,0.0052
2197.00,0.0052
2196.00,0.0053
2195.00,0.0053
2194.00,0.0053
2193.00,0.0053
2192.00,0.0053
2191.00,0.0052
2190.00,0.0052
2189.00,0.0052
2188.00,0.0053
2187.00,0.0052
2186.00,0.0052
2185.00,0.0051
2184.00,0.0051
2183.00,0.0051
2182.00,0.0052
2181.00,0.0052
2180.00,0.0052
2179.00,0.0052
2178.00,0.0052
2177.00,0.0052
2176.00,0.0053
2175.00,0.0053
2174.00,0.0053
2173.00,0.0053
2172.00,0.0053
2171.00,0.0053
2170.00,0.0053
2169.00,0.0053
2168.00,0.0054
2167.00,0.0053
2166.00,0.0053
2165.00,0.0053
2164.00,0.0053
2163.00,0.0053
2162.00,0.0052
2161.00,0.0050
2160.00,0.0049
2159.00,0.0048
2158.00,0.0048
2157.00,0.0049
2156.00,0.0049
2155.00,0.0049
2154.00,0.0049
2153.00,0.0049
2152.00,0.0049
2151.00,0.0049
2150.00,0.0050
2149.00,0.0050
2148.00,0.0050
2147.00,0.0049
2146.00,0.0049
2145.00,0.0049
2144.00,0.0049
2143.00,0.0049
2142.00,0.0048
2141.00,0.0048
2140.00,0.0049
2139.00,0.0049
2138.00,0.0049
2137.00,0.0048
2136.00,0.0048
2135.00,0.0048
2134.00,0.0048
2133.00,0.0048
2132.00,0.0049
2131.00,0.0049
2130.00,0.0049
2129.00,0.0049
2128.00,0.0049
2127.00,0.0049
2126.00,0.0049
2125.00,0.0049
2124.00,0.0049
2123.00,0.0049
2122.00,0.0049
2121.00,0.0049
2120.00,0.0049
2119.00,0.0050
2118.00,0.0050
2117.00,0.0050
2116.00,0.0050
2115.00,0.0049
2114.00,0.0049
2113.00,0.0049
2112.00,0.0049
2111.00,0.0049
2110.00,0.0049
2109.00,0.0050
2108.00,0.0050
2107.00,0.0050
2106.00,0.0050
2105.00,0.0049
2104.00,0.0049
2103.00,0.0049
2102.00,0.0049
2101.00,0.0049
2100.00,0.0049
2099.00,0.0049
2098.00,0.0048
2097.00,0.0048
2096.00,0.0048
2095.00,0.0048
2094.00,0.0048
2093.00,0.0048
2092.00,0.0048
2091.00,0.0048
2090.00,0.0049
2089.00,0.0049
2088.00,0.0049
2087.00,0.0049
2086.00,0.0049
2085.00,0.0048
2084.00,0.0048
2083.00,0.0048
2082.00,0.0047
2081.00,0.0047
2080.00,0.0047
2079.00,0.0048
2078.00,0.0048
2077.00,0.0048
2076.00,0.0048
2075.00,0.0048
2074.00,0.0048
2073.00,0.0048
2072.00,0.0048
2071.00,0.0048
2070.00,0.0048
2069.00,0.0047
2068.00,0.0046
2067.00,0.0046
2066.00,0.0045
2065.00,0.0046
2064.00,0.0046
2063.00,0.0046
2062.00,0.0045
2061.00,0.0045
2060.00,0.0046
2059.00,0.0046
2058.00,0.0046
2057.00,0.0046
2056.00,0.0046
2055.00,0.0045
2054.00,0.0045
2053.00,0.0045
2052.00,0.0045
2051.00,0.0045
2050.00,0.0045
2049.00,0.0045
2048.00,0.0045
2047.00,0.0045
2046.00,0.0045
2045.00,0.0044
2044.00,0.0044
2043.00,0.0045
2042.00,0.0045
2041.00,0.0046
2040.00,0.0046
2039.00,0.0046
2038.00,0.0045
2037.00,0.0045
2036.00,0.0045
2035.00,0.0045
2034.00,0.0044
2033.00,0.0044
2032.00,0.0044
2031.00,0.0043
2030.00,0.0043
2029.00,0.0044
2028.00,0.0045
2027.00,0.0045
2026.00,0.0045
2025.00,0.0045
2024.00,0.0045
2023.00,0.0045
2022.00,0.0045
2021.00,0.0044
2020.00,0.0044
2019.00,0.0044
2018.00,0.0044
2017.00,0.0044
2016.00,0.0044
2015.00,0.0044
2014.00,0.0043
2013.00,0.0043
2012.00,0.0043
2011.00,0.0043
2010.00,0.0043
2009.00,0.0043
2008.00,0.0043
2007.00,0.0043
2006.00,0.0042
2005.00,0.0041
2004.00,0.0042
2003.00,0.0043
2002.00,0.0043
2001.00,0.0044
2000.00,0.0044
1999.00,0.0044
1998.00,0.0043
1997.00,0.0044
1996.00,0.0044
1995.00,0.0045
1994.00,0.0045
1993.00,0.0045
1992.00,0.0044
1991.00,0.0043
1990.00,0.0043
1989.00,0.0043
1988.00,0.0043
1987.00,0.0043
1986.00,0.0043
1985.00,0.0043
1984.00,0.0044
1983.00,0.0044
1982.00,0.0043
1981.00,0.0042
1980.00,0.0041
1979.00,0.0040
1978.00,0.0040
1977.00,0.0041
1976.00,0.0041
1975.00,0.0040
1974.00,0.0039
1973.00,0.0039
1972.00,0.0039
1971.00,0.0039
1970.00,0.0039
1969.00,0.0040
1968.00,0.0041
1967.00,0.0041
1966.00,0.0041
1965.00,0.0041
1964.00,0.0041
1963.00,0.0041
1962.00,0.0040
1961.00,0.0040
1960.00,0.0040
1959.00,0.0040
1958.00,0.0040
1957.00,0.0040
1956.00,0.0041
1955.00,0.0040
1954.00,0.0040
1953.00,0.0041
1952.00,0.0041
1951.00,0.0040
1950.00,0.0040
1949.00,0.0039
1948.00,0.0039
1947.00,0.0039
1946.00,0.0039
1945.00,0.0039
1944.00,0.0039
1943.00,0.0039
1942.00,0.0040
1941.00,0.0039
1940.00,0.0039
1939.00,0.0039
1938.00,0.0038
1937.00,0.0038
1936.00,0.0038
1935.00,0.0038
1934.00,0.0038
1933.00,0.0038
1932.00,0.0038
1931.00,0.0038
1930.00,0.0037
1929.00,0.0037
1928.00,0.0037
1927.00,0.0037
1926.00,0.0037
1925.00,0.0037
1924.00,0.0037
1923.00,0.0037
1922.00,0.0037
1921.00,0.0036
1920.00,0.0036
1919.00,0.0035
1918.00,0.0035
1917.00,0.0036
1916.00,0.0036
1915.00,0.0036
1914.00,0.0036
1913.00,0.0036
1912.00,0.0036
1911.00,0.0037
1910.00,0.0037
1909.00,0.0037
1908.00,0.0037
1907.00,0.0037
1906.00,0.0037
1905.00,0.0036
1904.00,0.0036
1903.00,0.0036
1902.00,0.0036
1901.00,0.0036
1900.00,0.0036
1899.00,0.0036
1898.00,0.0035
1897.00,0.0035
1896.00,0.0035
1895.00,0.0035
1894.00,0.0035
1893.00,0.0035
1892.00,0.0035
1891.00,0.0035
1890.00,0.0035
1889.00,0.0035
1888.00,0.0035
1887.00,0.0034
1886.00,0.0034
1885.00,0.0034
1884.00,0.0035
1883.00,0.0034
1882.00,0.0034
1881.00,0.0034
1880.00,0.0034
1879.00,0.0034
1878.00,0.0033
1877.00,0.0033
1876.00,0.0033
1875.00,0.0033
1874.00,0.0033
1873.00,0.0033
1872.00,0.0033
1871.00,0.0032
1870.00,0.0032
1869.00,0.0032
1868.00,0.0033
1867.00,0.0033
1866.00,0.0032
1865.00,0.0032
1864.00,0.0032
1863.00,0.0032
1862.00,0.0032
1861.00,0.0032
1860.00,0.0032
1859.00,0.0032
1858.00,0.0032
1857.00,0.0031
1856.00,0.0031
1855.00,0.0031
1854.00,0.0031
1853.00,0.0031
1852.00,0.0031
1851.00,0.0030
1850.00,0.0030
1849.00,0.0030
1848.00,0.0030
1847.00,0.0030
1846.00,0.0030
1845.00,0.0029
1844.00,0.0029
1843.00,0.0029
1842.00,0.0029
1841.00,0.0029
1840.00,0.0029
1839.00,0.0029
1838.00,0.0029
1837.00,0.0029
1836.00,0.0029
1835.00,0.0029
1834.00,0.0029
1833.00,0.0029
1832.00,0.0029
1831.00,0.0029
1830.00,0.0030
1829.00,0.0030
1828.00,0.0029
1827.00,0.0029
1826.00,0.0028
1825.00,0.0028
1824.00,0.0028
1823.00,0.0028
1822.00,0.0028
1821.00,0.0028
1820.00,0.0028
1819.00,0.0028
1818.00,0.0028
1817.00,0.0027
1816.00,0.0028
1815.00,0.0028
1814.00,0.0027
1813.00,0.0027
1812.00,0.0027
1811.00,0.0027
1810.00,0.0027
1809.00,0.0026
1808.00,0.0027
1807.00,0.0027
1806.00,0.0026
1805.00,0.0026
1804.00,0.0026
1803.00,0.0026
1802.00,0.0026
1801.00,0.0025
1800.00,0.0025
1799.00,0.0025
1798.00,0.0025
1797.00,0.0025
1796.00,0.0025
1795.00,0.0025
1794.00,0.0024
1793.00,0.0024
1792.00,0.0024
1791.00,0.0024
1790.00,0.0024
1789.00,0.0024
1788.00,0.0024
1787.00,0.0024
1786.00,0.0024
1785.00,0.0024
1784.00,0.0024
1783.00,0.0024
1782.00,0.0024
1781.00,0.0024
1780.00,0.0024
1779.00,0.0024
1778.00,0.0024
1777.00,0.0024
1776.00,0.0024
1775.00,0.0025
1774.00,0.0025
1773.00,0.0024
1772.00,0.0024
1771.00,0.0024
1770.00,0.0023
1769.00,0.0022
1768.00,0.0022
1767.00,0.0022
1766.00,0.0023
1765.00,0.0024
1764.00,0.0024
1763.00,0.0025
1762.00,0.0026
1761.00,0.0026
1760.00,0.0026
1759.00,0.0026
1758.00,0.0026
1757.00,0.0026
1756.00,0.0027
1755.00,0.0027
1754.00,0.0028
1753.00,0.0028
1752.00,0.0028
1751.00,0.0028
1750.00,0.0030
1749.00,0.0032
1748.00,0.0034
1747.00,0.0035
1746.00,0.0036
1745.00,0.0037
1744.00,0.0038
1743.00,0.0039
1742.00,0.0039
1741.00,0.0039
1740.00,0.0038
1739.00,0.0038
1738.00,0.0038
1737.00,0.0038
1736.00,0.0037
1735.00,0.0035
1734.00,0.0033
1733.00,0.0032
1732.00,0.0032
1731.00,0.0032
1730.00,0.0032
1729.00,0.0033
1728.00,0.0033
1727.00,0.0033
1726.00,0.0033
1725.00,0.0033
1724.00,0.0034
1723.00,0.0034
1722.00,0.0035
1721.00,0.0036
1720.00,0.0037
1719.00,0.0037
1718.00,0.0037
1717.00,0.0038
1716.00,0.0040
1715.00,0.0041
1714.00,0.0042
1713.00,0.0044
1712.00,0.0047
1711.00,0.0050
1710.00,0.0053
1709.00,0.0056
1708.00,0.0061
1707.00,0.0066
1706.00,0.0073
1705.00,0.0082
1704.00,0.0091
1703.00,0.0099
1702.00,0.0107
1701.00,0.0119
1700.00,0.0137
1699.00,0.0152
1698.00,0.0161
1697.00,0.0167
1696.00,0.0174
1695.00,0.0180
1694.00,0.0184
1693.00,0.0188
1692.00,0.0192
1691.00,0.0196
1690.00,0.0202
1689.00,0.0209
1688.00,0.0216
1687.00,0.0222
1686.00,0.0228
1685.00,0.0235
1684.00,0.0247
1683.00,0.0257
1682.00,0.0264
1681.00,0.0270
1680.00,0.0277
1679.00,0.0285
1678.00,0.0292
1677.00,0.0299
1676.00,0.0307
1675.00,0.0317
1674.00,0.0326
1673.00,0.0334
1672.00,0.0341
1671.00,0.0349
1670.00,0.0359
1669.00,0.0371
1668.00,0.0381
1667.00,0.0389
1666.00,0.0396
1665.00,0.0404
1664.00,0.0412
1663.00,0.0423
1662.00,0.0433
1661.00,0.0442
1660.00,0.0451
1659.00,0.0458
1658.00,0.0466
1657.00,0.0473
1656.00,0.0479
1655.00,0.0485
1654.00,0.0493
1653.00,0.0505
1652.00,0.0514
1651.00,0.0517
1650.00,0.0517
1649.00,0.0517
1648.00,0.0519
1647.00,0.0524
1646.00,0.0528
1645.00,0.0532
1644.00,0.0534
1643.00,0.0535
1642.00,0.0536
1641.00,0.0537
1640.00,0.0539
1639.00,0.0541
1638.00,0.0542
1637.00,0.0543
1636.00,0.0548
1635.00,0.0553
1634.00,0.0558
1633.00,0.0562
1632.00,0.0565
1631.00,0.0568
1630.00,0.0572
1629.00,0.0578
1628.00,0.0586
1627.00,0.0595
1626.00,0.0602
1625.00,0.0610
1624.00,0.0619
1623.00,0.0630
1622.00,0.0640
1621.00,0.0647
1620.00,0.0653
1619.00,0.0656
1618.00,0.0659
1617.00,0.0661
1616.00,0.0661
1615.00,0.0658
1614.00,0.0652
1613.00,0.0643
1612.00,0.0632
1611.00,0.0619
1610.00,0.0606
1609.00,0.0592
1608.00,0.0576
1607.00,0.0561
1606.00,0.0545
1605.00,0.0529
1604.00,0.0514
1603.00,0.0498
1602.00,0.0483
1601.00,0.0468
1600.00,0.0453
1599.00,0.0440
1598.00,0.0427
1597.00,0.0415
1596.00,0.0403
1595.00,0.0392
1594.00,0.0381
1593.00,0.0371
1592.00,0.0362
1591.00,0.0352
1590.00,0.0344
1589.00,0.0337
1588.00,0.0329
1587.00,0.0323
1586.00,0.0317
1585.00,0.0312
1584.00,0.0308
1583.00,0.0303
1582.00,0.0300
1581.00,0.0297
1580.00,0.0295
1579.00,0.0293
1578.00,0.0291
1577.00,0.0291
1576.00,0.0290
1575.00,0.0290
1574.00,0.0290
1573.00,0.0290
1572.00,0.0290
1571.00,0.0291
1570.00,0.0294
1569.00,0.0298
1568.00,0.0302
1567.00,0.0305
1566.00,0.0309
1565.00,0.0314
1564.00,0.0320
1563.00,0.0325
1562.00,0.0331
1561.00,0.0335
1560.00,0.0340
1559.00,0.0352
1558.00,0.0367
1557.00,0.0376
1556.00,0.0382
1555.00,0.0388
1554.00,0.0396
1553.00,0.0404
1552.00,0.0412
1551.00,0.0419
1550.00,0.0428
1549.00,0.0437
1548.00,0.0444
1547.00,0.0450
1546.00,0.0456
1545.00,0.0463
1544.00,0.0471
1543.00,0.0478
1542.00,0.0484
1541.00,0.0491
1540.00,0.0500
1539.00,0.0507
1538.00,0.0512
1537.00,0.0515
1536.00,0.0516
1535.00,0.0518
1534.00,0.0522
1533.00,0.0529
1532.00,0.0534
1531.00,0.0538
1530.00,0.0540
1529.00,0.0542
1528.00,0.0546
1527.00,0.0550
1526.00,0.0554
1525.00,0.0558
1524.00,0.0562
1523.00,0.0565
1522.00,0.0569
1521.00,0.0575
1520.00,0.0580
1519.00,0.0583
1518.00,0.0586
1517.00,0.0588
1516.00,0.0591
1515.00,0.0592
1514.00,0.0591
1513.00,0.0589
1512.00,0.0586
1511.00,0.0584
1510.00,0.0580
1509.00,0.0575
1508.00,0.0570
1507.00,0.0565
1506.00,0.0560
1505.00,0.0554
1504.00,0.0547
1503.00,0.0539
1502.00,0.0531
1501.00,0.0522
1500.00,0.0514
1499.00,0.0507
1498.00,0.0498
1497.00,0.0489
1496.00,0.0480
1495.00,0.0471
1494.00,0.0461
1493.00,0.0450
1492.00,0.0439
1491.00,0.0428
1490.00,0.0418
1489.00,0.0409
1488.00,0.0400
1487.00,0.0391
1486.00,0.0382
1485.00,0.0373
1484.00,0.0365
1483.00,0.0358
1482.00,0.0350
1481.00,0.0344
1480.00,0.0338
1479.00,0.0333
1478.00,0.0329
1477.00,0.0326
1476.00,0.0324
1475.00,0.0323
1474.00,0.0322
1473.00,0.0322
1472.00,0.0324
1471.00,0.0326
1470.00,0.0327
1469.00,0.0328
1468.00,0.0328
1467.00,0.0329
1466.00,0.0329
1465.00,0.0330
1464.00,0.0332
1463.00,0.0333
1462.00,0.0334
1461.00,0.0335
1460.00,0.0337
1459.00,0.0340
1458.00,0.0345
1457.00,0.0351
1456.00,0.0357
1455.00,0.0361
1454.00,0.0363
1453.00,0.0363
1452.00,0.0364
1451.00,0.0364
1450.00,0.0364
1449.00,0.0363
1448.00,0.0362
1447.00,0.0361
1446.00,0.0359
1445.00,0.0356
1444.00,0.0352
1443.00,0.0349
1442.00,0.0345
1441.00,0.0341
1440.00,0.0338
1439.00,0.0334
1438.00,0.0329
1437.00,0.0325
1436.00,0.0321
1435.00,0.0319
1434.00,0.0316
1433.00,0.0312
1432.00,0.0309
1431.00,0.0307
1430.00,0.0305
1429.00,0.0304
1428.00,0.0302
1427.00,0.0302
1426.00,0.0301
1425.00,0.0301
1424.00,0.0302
1423.00,0.0303
1422.00,0.0305
1421.00,0.0306
1420.00,0.0307
1419.00,0.0311
1418.00,0.0314
1417.00,0.0316
1416.00,0.0318
1415.00,0.0320
1414.00,0.0322
1413.00,0.0324
1412.00,0.0325
1411.00,0.0327
1410.00,0.0329
1409.00,0.0330
1408.00,0.0330
1407.00,0.0330
1406.00,0.0331
1405.00,0.0331
1404.00,0.0331
1403.00,0.0331
1402.00,0.0331
1401.00,0.0330
1400.00,0.0329
1399.00,0.0329
1398.00,0.0330
1397.00,0.0330
1396.00,0.0330
1395.00,0.0331
1394.00,0.0332
1393.00,0.0333
1392.00,0.0333
1391.00,0.0332
1390.00,0.0333
1389.00,0.0333
1388.00,0.0333
1387.00,0.0334
1386.00,0.0334
1385.00,0.0334
1384.00,0.0333
1383.00,0.0332
1382.00,0.0331
1381.00,0.0330
1380.00,0.0329
1379.00,0.0328
1378.00,0.0327
1377.00,0.0325
1376.00,0.0324
1375.00,0.0323
1374.00,0.0323
1373.00,0.0322
1372.00,0.0321
1371.00,0.0319
1370.00,0.0318
1369.00,0.0316
1368.00,0.0314
1367.00,0.0312
1366.00,0.0309
1365.00,0.0306
1364.00,0.0303
1363.00,0.0301
1362.00,0.0299
1361.00,0.0297
1360.00,0.0295
1359.00,0.0293
1358.00,0.0291
1357.00,0.0290
1356.00,0.0289
1355.00,0.0288
1354.00,0.0287
1353.00,0.0287
1352.00,0.0286
1351.00,0.0286
1350.00,0.0286
1349.00,0.0286
1348.00,0.0286
1347.00,0.0287
1346.00,0.0287
1345.00,0.0287
1344.00,0.0287
1343.00,0.0287
1342.00,0.0288
1341.00,0.0288
1340.00,0.0288
1339.00,0.0289
1338.00,0.0289
1337.00,0.0289
1336.00,0.0288
1335.00,0.0287
1334.00,0.0287
1333.00,0.0286
1332.00,0.0285
1331.00,0.0284
1330.00,0.0284
1329.00,0.0283
1328.00,0.0283
1327.00,0.0282
1326.00,0.0282
1325.00,0.0282
1324.00,0.0281
1323.00,0.0281
1322.00,0.0281
1321.00,0.0281
1320.00,0.0282
1319.00,0.0282
1318.00,0.0283
1317.00,0.0283
1316.00,0.0284
1315.00,0.0284
1314.00,0.0284
1313.00,0.0285
1312.00,0.0285
1311.00,0.0286
1310.00,0.0286
1309.00,0.0286
1308.00,0.0286
1307.00,0.0287
1306.00,0.0287
1305.00,0.0287
1304.00,0.0288
1303.00,0.0288
1302.00,0.0288
1301.00,0.0288
1300.00,0.0288
1299.00,0.0287
1298.00,0.0287
1297.00,0.0287
1296.00,0.0286
1295.00,0.0286
1294.00,0.0286
1293.00,0.0286
1292.00,0.0286
1291.00,0.0285
1290.00,0.0285
1289.00,0.0285
1288.00,0.0285
1287.00,0.0285
1286.00,0.0285
1285.00,0.0285
1284.00,0.0285
1283.00,0.0285
1282.00,0.0284
1281.00,0.0284
1280.00,0.0284
1279.00,0.0284
1278.00,0.0284
1277.00,0.0284
1276.00,0.0283
1275.00,0.0283
1274.00,0.0284
1273.00,0.0284
1272.00,0.0285
1271.00,0.0286
1270.00,0.0287
1269.00,0.0288
1268.00,0.0289
1267.00,0.0291
1266.00,0.0293
1265.00,0.0295
1264.00,0.0297
1263.00,0.0298
1262.00,0.0300
1261.00,0.0302
1260.00,0.0304
1259.00,0.0306
1258.00,0.0308
1257.00,0.0310
1256.00,0.0312
1255.00,0.0314
1254.00,0.0316
1253.00,0.0318
1252.00,0.0320
1251.00,0.0322
1250.00,0.0324
1249.00,0.0326
1248.00,0.0328
1247.00,0.0329
1246.00,0.0331
1245.00,0.0333
1244.00,0.0334
1243.00,0.0335
1242.00,0.0336
1241.00,0.0337
1240.00,0.0338
1239.00,0.0339
1238.00,0.0339
1237.00,0.0339
1236.00,0.0339
1235.00,0.0339
1234.00,0.0339
1233.00,0.0338
1232.00,0.0337
1231.00,0.0336
1230.00,0.0335
1229.00,0.0334
1228.00,0.0333
1227.00,0.0332
1226.00,0.0331
1225.00,0.0329
1224.00,0.0328
1223.00,0.0326
1222.00,0.0325
1221.00,0.0323
1220.00,0.0322
1219.00,0.0320
1218.00,0.0318
1217.00,0.0316
1216.00,0.0313
1215.00,0.0311
1214.00,0.0309
1213.00,0.0307
1212.00,0.0305
1211.00,0.0302
1210.00,0.0300
1209.00,0.0297
1208.00,0.0295
1207.00,0.0292
1206.00,0.0289
1205.00,0.0287
1204.00,0.0284
1203.00,0.0281
1202.00,0.0278
1201.00,0.0275
1200.00,0.0272
1199.00,0.0270
1198.00,0.0267
1197.00,0.0265
1196.00,0.0263
1195.00,0.0260
1194.00,0.0259
1193.00,0.0257
1192.00,0.0255
1191.00,0.0254
1190.00,0.0252
1189.00,0.0251
1188.00,0.0250
1187.00,0.0249
1186.00,0.0249
1185.00,0.0248
1184.00,0.0248
1183.00,0.0248
1182.00,0.0248
1181.00,0.0248
1180.00,0.0249
1179.00,0.0250
1178.00,0.0252
1177.00,0.0254
1176.00,0.0256
1175.00,0.0258
1174.00,0.0261
1173.00,0.0264
1172.00,0.0266
1171.00,0.0269
1170.00,0.0271
1169.00,0.0274
1168.00,0.0275
1167.00,0.0277
1166.00,0.0279
1165.00,0.0280
1164.00,0.0281
1163.00,0.0282
1162.00,0.0282
1161.00,0.0282
1160.00,0.0281
1159.00,0.0280
1158.00,0.0279
1157.00,0.0277
1156.00,0.0276
1155.00,0.0274
1154.00,0.0272
1153.00,0.0270
1152.00,0.0267
1151.00,0.0265
1150.00,0.0263
1149.00,0.0261
1148.00,0.0258
1147.00,0.0256
1146.00,0.0254
1145.00,0.0253
1144.00,0.0251
1143.00,0.0250
1142.00,0.0248
1141.00,0.0247
1140.00,0.0246
1139.00,0.0245
1138.00,0.0245
1137.00,0.0244
1136.00,0.0243
1135.00,0.0243
1134.00,0.0243
1133.00,0.0243
1132.00,0.0243
1131.00,0.0243
1130.00,0.0243
1129.00,0.0242
1128.00,0.0242
1127.00,0.0242
1126.00,0.0242
1125.00,0.0242
1124.00,0.0242
1123.00,0.0242
1122.00,0.0242
1121.00,0.0242
1120.00,0.0242
1119.00,0.0241
1118.00,0.0241
1117.00,0.0241
1116.00,0.0241
1115.00,0.0241
1114.00,0.0241
1113.00,0.0241
1112.00,0.0241
1111.00,0.0241
1110.00,0.0242
1109.00,0.0242
1108.00,0.0242
1107.00,0.0243
1106.00,0.0244
1105.00,0.0244
1104.00,0.0245
1103.00,0.0246
1102.00,0.0247
1101.00,0.0248
1100.00,0.0249
1099.00,0.0250
1098.00,0.0252
1097.00,0.0253
1096.00,0.0255
1095.00,0.0257
1094.00,0.0259
1093.00,0.0262
1092.00,0.0264
1091.00,0.0267
1090.00,0.0271
1089.00,0.0274
1088.00,0.0277
1087.00,0.0281
1086.00,0.0285
1085.00,0.0289
1084.00,0.0294
1083.00,0.0298
1082.00,0.0303
1081.00,0.0307
1080.00,0.0311
1079.00,0.0315
1078.00,0.0319
1077.00,0.0322
1076.00,0.0326
1075.00,0.0329
1074.00,0.0332
1073.00,0.0335
1072.00,0.0338
1071.00,0.0340
1070.00,0.0342
1069.00,0.0344
1068.00,0.0345
1067.00,0.0346
1066.00,0.0347
1065.00,0.0347
1064.00,0.0347
1063.00,0.0347
1062.00,0.0346
1061.00,0.0345
1060.00,0.0344
1059.00,0.0342
1058.00,0.0340
1057.00,0.0339
1056.00,0.0337
1055.00,0.0335
1054.00,0.0333
1053.00,0.0331
1052.00,0.0330
1051.00,0.0328
1050.00,0.0326
1049.00,0.0324
1048.00,0.0322
1047.00,0.0320
1046.00,0.0317
1045.00,0.0315
1044.00,0.0312
1043.00,0.0309
1042.00,0.0306
1041.00,0.0303
1040.00,0.0299
1039.00,0.0296
1038.00,0.0293
1037.00,0.0290
1036.00,0.0287
1035.00,0.0285
1034.00,0.0282
1033.00,0.0280
1032.00,0.0277
1031.00,0.0275
1030.00,0.0272
1029.00,0.0270
1028.00,0.0267
1027.00,0.0264
1026.00,0.0260
1025.00,0.0257
1024.00,0.0253
1023.00,0.0250
1022.00,0.0247
1021.00,0.0245
1020.00,0.0241
1019.00,0.0238
1018.00,0.0236
1017.00,0.0233
1016.00,0.0230
1015.00,0.0227
1014.00,0.0225
1013.00,0.0222
1012.00,0.0219
1011.00,0.0216
1010.00,0.0214
1009.00,0.0211
1008.00,0.0209
1007.00,0.0207
1006.00,0.0205
1005.00,0.0203
1004.00,0.0201
1003.00,0.0200
1002.00,0.0198
1001.00,0.0197
1000.00,0.0195
999.00,0.0194
998.00,0.0193
997.00,0.0192
996.00,0.0191
995.00,0.0190
994.00,0.0189
993.00,0.0189
992.00,0.0188
991.00,0.0187
990.00,0.0187
989.00,0.0186
988.00,0.0185
987.00,0.0184
986.00,0.0184
985.00,0.0183
984.00,0.0182
983.00,0.0182
982.00,0.0181
981.00,0.0181
980.00,0.0181
979.00,0.0182
978.00,0.0182
977.00,0.0183
976.00,0.0184
975.00,0.0185
974.00,0.0186
973.00,0.0187
972.00,0.0188
971.00,0.0189
970.00,0.0190
969.00,0.0192
968.00,0.0193
967.00,0.0195
966.00,0.0196
965.00,0.0197
964.00,0.0197
963.00,0.0197
962.00,0.0198
961.00,0.0198
960.00,0.0198
959.00,0.0197
958.00,0.0197
957.00,0.0196
956.00,0.0195
955.00,0.0194
954.00,0.0193
953.00,0.0192
952.00,0.0191
951.00,0.0190
950.00,0.0189
949.00,0.0188
948.00,0.0187
947.00,0.0186
946.00,0.0186
945.00,0.0185
944.00,0.0185
943.00,0.0185
942.00,0.0184
941.00,0.0184
940.00,0.0184
939.00,0.0184
938.00,0.0183
937.00,0.0183
936.00,0.0183
935.00,0.0183
934.00,0.0183
933.00,0.0182
932.00,0.0182
931.00,0.0181
930.00,0.0181
929.00,0.0180
928.00,0.0179
927.00,0.0178
926.00,0.0177
925.00,0.0176
924.00,0.0175
923.00,0.0174
922.00,0.0173
921.00,0.0172
920.00,0.0171
919.00,0.0170
918.00,0.0169
917.00,0.0168
916.00,0.0167
915.00,0.0166
914.00,0.0166
913.00,0.0165
912.00,0.0165
911.00,0.0165
910.00,0.0165
909.00,0.0165
908.00,0.0165
907.00,0.0165
906.00,0.0165
905.00,0.0166
904.00,0.0166
903.00,0.0166
902.00,0.0166
901.00,0.0166
900.00,0.0166
899.00,0.0166
898.00,0.0166
897.00,0.0166
896.00,0.0165
895.00,0.0164
894.00,0.0164
893.00,0.0163
892.00,0.0162
891.00,0.0162
890.00,0.0161
889.00,0.0160
888.00,0.0160
887.00,0.0159
886.00,0.0158
885.00,0.0157
884.00,0.0157
883.00,0.0156
882.00,0.0156
881.00,0.0156
880.00,0.0156
879.00,0.0156
878.00,0.0156
877.00,0.0156
876.00,0.0156
875.00,0.0156
874.00,0.0156
873.00,0.0156
872.00,0.0156
871.00,0.0155
870.00,0.0155
869.00,0.0154
868.00,0.0153
867.00,0.0152
866.00,0.0152
865.00,0.0151
864.00,0.0150
863.00,0.0149
862.00,0.0149
861.00,0.0148
860.00,0.0148
859.00,0.0147
858.00,0.0147
857.00,0.0147
856.00,0.0147
855.00,0.0147
854.00,0.0147
853.00,0.0147
852.00,0.0147
851.00,0.0148
850.00,0.0148
849.00,0.0148
848.00,0.0148
847.00,0.0148
846.00,0.0148
845.00,0.0148
844.00,0.0147
843.00,0.0147
842.00,0.0148
841.00,0.0148
840.00,0.0149
839.00,0.0149
838.00,0.0150
837.00,0.0152
836.00,0.0153
835.00,0.0154
834.00,0.0155
833.00,0.0156
832.00,0.0157
831.00,0.0159
830.00,0.0160
829.00,0.0161
828.00,0.0162
827.00,0.0163
826.00,0.0164
825.00,0.0164
824.00,0.0165
823.00,0.0165
822.00,0.0166
821.00,0.0167
820.00,0.0168
819.00,0.0169
818.00,0.0170
817.00,0.0172
816.00,0.0173
815.00,0.0174
814.00,0.0174
813.00,0.0175
812.00,0.0176
811.00,0.0177
810.00,0.0178
809.00,0.0180
808.00,0.0181
807.00,0.0182
806.00,0.0183
805.00,0.0185
804.00,0.0185
803.00,0.0186
802.00,0.0186
801.00,0.0187
800.00,0.0187
799.00,0.0187
798.00,0.0187
797.00,0.0187
796.00,0.0187
795.00,0.0188
794.00,0.0189
793.00,0.0190
792.00,0.0191
791.00,0.0192
790.00,0.0193
789.00,0.0194
788.00,0.0195
787.00,0.0196
786.00,0.0197
785.00,0.0198
784.00,0.0200
783.00,0.0201
782.00,0.0202
781.00,0.0204
780.00,0.0205
779.00,0.0207
778.00,0.0209
777.00,0.0210
776.00,0.0212
775.00,0.0214
774.00,0.0215
773.00,0.0217
772.00,0.0218
771.00,0.0220
770.00,0.0222
769.00,0.0223
768.00,0.0224
767.00,0.0225
766.00,0.0226
765.00,0.0228
764.00,0.0229
763.00,0.0230
762.00,0.0231
761.00,0.0232
760.00,0.0233
759.00,0.0234
758.00,0.0236
757.00,0.0237
756.00,0.0238
755.00,0.0240
754.00,0.0241
753.00,0.0243
752.00,0.0244
751.00,0.0245
750.00,0.0246
749.00,0.0247
748.00,0.0248
747.00,0.0248
746.00,0.0249
745.00,0.0250
744.00,0.0250
743.00,0.0250
742.00,0.0250
741.00,0.0250
740.00,0.0250
739.00,0.0251
738.00,0.0251
737.00,0.0252
736.00,0.0253
735.00,0.0254
734.00,0.0256
733.00,0.0258
732.00,0.0260
731.00,0.0262
730.00,0.0265
729.00,0.0267
728.00,0.0270
727.00,0.0273
726.00,0.0277
725.00,0.0280
724.00,0.0284
723.00,0.0287
722.00,0.0291
721.00,0.0295
720.00,0.0299
719.00,0.0302
718.00,0.0306
717.00,0.0310
716.00,0.0314
715.00,0.0318
714.00,0.0322
713.00,0.0326
712.00,0.0331
711.00,0.0335
710.00,0.0340
709.00,0.0345
708.00,0.0350
707.00,0.0355
706.00,0.0361
705.00,0.0367
704.00,0.0372
703.00,0.0377
702.00,0.0382
701.00,0.0386
700.00,0.0388
699.00,0.0390
698.00,0.0392
697.00,0.0392
696.00,0.0392
695.00,0.0392
694.00,0.0391
693.00,0.0391
692.00,0.0391
691.00,0.0391
690.00,0.0392
689.00,0.0392
688.00,0.0393
687.00,0.0394
686.00,0.0395
685.00,0.0396
684.00,0.0397
683.00,0.0397
682.00,0.0398
681.00,0.0399
680.00,0.0400
679.00,0.0401
678.00,0.0402
677.00,0.0403
676.00,0.0404
675.00,0.0405
674.00,0.0406
673.00,0.0407
672.00,0.0408
671.00,0.0409
670.00,0.0411
669.00,0.0413
668.00,0.0415
667.00,0.0416
666.00,0.0416
665.00,0.0416
664.00,0.0415
663.00,0.0415
662.00,0.0416
661.00,0.0417
660.00,0.0418
659.00,0.0419
658.00,0.0420
657.00,0.0420
656.00,0.0421
655.00,0.0421
654.00,0.0422
653.00,0.0424
652.00,0.0425
651.00,0.0426
650.00,0.0427
649.00,0.0429
648.00,0.0430
647.00,0.0432
646.00,0.0434
645.00,0.0436
644.00,0.0437
643.00,0.0439
642.00,0.0440
641.00,0.0442
640.00,0.0444
639.00,0.0446
638.00,0.0448
637.00,0.0450
636.00,0.0451
635.00,0.0453
634.00,0.0455
633.00,0.0457
632.00,0.0458
631.00,0.0459
630.00,0.0460
629.00,0.0462
628.00,0.0462
627.00,0.0463
626.00,0.0464
625.00,0.0465
624.00,0.0465
623.00,0.0466
622.00,0.0466
621.00,0.0466
620.00,0.0466
619.00,0.0466
618.00,0.0467
617.00,0.0466
616.00,0.0466
615.00,0.0465
614.00,0.0464
613.00,0.0464
612.00,0.0464
611.00,0.0464
610.00,0.0464
609.00,0.0463
608.00,0.0463
607.00,0.0462
606.00,0.0463
605.00,0.0462
604.00,0.0462
603.00,0.0462
602.00,0.0462
601.00,0.0462
600.00,0.0462
599.00,0.0463
598.00,0.0463
597.00,0.0464
596.00,0.0464
595.00,0.0464
594.00,0.0464
593.00,0.0465
592.00,0.0465
591.00,0.0466
590.00,0.0467
589.00,0.0468
588.00,0.0468
587.00,0.0469
586.00,0.0470
585.00,0.0472
584.00,0.0472
583.00,0.0473
582.00,0.0474
581.00,0.0475
580.00,0.0475
579.00,0.0476
578.00,0.0477
577.00,0.0477
576.00,0.0478
575.00,0.0479
574.00,0.0480
573.00,0.0481
572.00,0.0482
571.00,0.0482
570.00,0.0483
569.00,0.0484
568.00,0.0484
567.00,0.0485
566.00,0.0486
565.00,0.0487
564.00,0.0488
563.00,0.0489
562.00,0.0490
561.00,0.0490
560.00,0.0490
559.00,0.0491
558.00,0.0492
557.00,0.0493
556.00,0.0493
555.00,0.0493
554.00,0.0494
553.00,0.0495
552.00,0.0496
551.00,0.0497
550.00,0.0498
549.00,0.0499
548.00,0.0499
547.00,0.0500
546.00,0.0501
545.00,0.0501
544.00,0.0502
543.00,0.0502
542.00,0.0503
541.00,0.0503
540.00,0.0503
539.00,0.0503
538.00,0.0504
537.00,0.0505
536.00,0.0505
535.00,0.0506
534.00,0.0508
533.00,0.0510
532.00,0.0511
531.00,0.0511
530.00,0.0511
529.00,0.0511
528.00,0.0511
527.00,0.0511
526.00,0.0512
525.00,0.0514
524.00,0.0516
523.00,0.0518
522.00,0.0519
521.00,0.0520
520.00,0.0521
519.00,0.0520
518.00,0.0519
517.00,0.0518
516.00,0.0517
515.00,0.0515
514.00,0.0514
513.00,0.0513
512.00,0.0513
511.00,0.0513
510.00,0.0513
509.00,0.0513
508.00,0.0513
507.00,0.0513
506.00,0.0513
505.00,0.0512
504.00,0.0510
503.00,0.0508
502.00,0.0507
501.00,0.0507
500.00,0.0507
499.00,0.0508
498.00,0.0509
497.00,0.0509
496.00,0.0509
495.00,0.0507
494.00,0.0507
493.00,0.0507
492.00,0.0507
491.00,0.0507
490.00,0.0508
489.00,0.0509
488.00,0.0509
487.00,0.0509
486.00,0.0508
485.00,0.0507
484.00,0.0507
483.00,0.0506
482.00,0.0507
481.00,0.0507
480.00,0.0507
479.00,0.0506
478.00,0.0506
477.00,0.0507
476.00,0.0507
475.00,0.0506
474.00,0.0505
473.00,0.0505
472.00,0.0503
471.00,0.0502
470.00,0.0503
469.00,0.0505
468.00,0.0506
467.00,0.0507
466.00,0.0509
465.00,0.0511
464.00,0.0510
463.00,0.0509
462.00,0.0509
461.00,0.0507
460.00,0.0505
459.00,0.0502
458.00,0.0502
457.00,0.0503
456.00,0.0503
455.00,0.0502
454.00,0.0501
453.00,0.0499
452.00,0.0497
451.00,0.0495
450.00,0.0494
449.00,0.0492
448.00,0.0490
447.00,0.0488
446.00,0.0487
445.00,0.0485
444.00,0.0481
443.00,0.0477
442.00,0.0473
441.00,0.0469
440.00,0.0464
439.00,0.0461
438.00,0.0460
437.00,0.0459
436.00,0.0456
435.00,0.0454
434.00,0.0453
433.00,0.0453
432.00,0.0451
431.00,0.0447
430.00,0.0444
429.00,0.0440
428.00,0.0436
427.00,0.0432
426.00,0.0428
425.00,0.0424
424.00,0.0419
423.00,0.0416
422.00,0.0416
421.00,0.0415
420.00,0.0414
419.00,0.0414
418.00,0.0419
417.00,0.0424
416.00,0.0425
415.00,0.0424
414.00,0.0424
413.00,0.0423
412.00,0.0421
411.00,0.0418
410.00,0.0417
409.00,0.0416
408.00,0.0414
407.00,0.0414
406.00,0.0418
405.00,0.0421
404.00,0.0418
403.00,0.0416
402.00,0.0417
401.00,0.0420
400.00,0.0415
