Created as New Dataset,Sample 195 By YargerLab Date Sunday, June 09 2024
cm-1,A
4000.00,0.0079
3999.00,0.0079
3998.00,0.0079
3997.00,0.0079
3996.00,0.0079
3995.00,0.0079
3994.00,0.0078
3993.00,0.0078
3992.00,0.0078
3991.00,0.0078
3990.00,0.0078
3989.00,0.0078
3988.00,0.0078
3987.00,0.0078
3986.00,0.0078
3985.00,0.0078
3984.00,0.0078
3983.00,0.0078
3982.00,0.0078
3981.00,0.0078
3980.00,0.0078
3979.00,0.0078
3978.00,0.0078
3977.00,0.0078
3976.00,0.0078
3975.00,0.0078
3974.00,0.0078
3973.00,0.0078
3972.00,0.0078
3971.00,0.0078
3970.00,0.0078
3969.00,0.0078
3968.00,0.0078
3967.00,0.0078
3966.00,0.0078
3965.00,0.0078
3964.00,0.0078
3963.00,0.0078
3962.00,0.0078
3961.00,0.0078
3960.00,0.0078
3959.00,0.0078
3958.00,0.0078
3957.00,0.0078
3956.00,0.0078
3955.00,0.0078
3954.00,0.0078
3953.00,0.0078
3952.00,0.0078
3951.00,0.0077
3950.00,0.0077
3949.00,0.0077
3948.00,0.0076
3947.00,0.0076
3946.00,0.0076
3945.00,0.0076
3944.00,0.0077
3943.00,0.0077
3942.00,0.0077
3941.00,0.0077
3940.00,0.0077
3939.00,0.0077
3938.00,0.0077
3937.00,0.0077
3936.00,0.0076
3935.00,0.0076
3934.00,0.0075
3933.00,0.0075
3932.00,0.0076
3931.00,0.0076
3930.00,0.0076
3929.00,0.0076
3928.00,0.0076
3927.00,0.0077
3926.00,0.0077
3925.00,0.0077
3924.00,0.0077
3923.00,0.0077
3922.00,0.0076
3921.00,0.0075
3920.00,0.0074
3919.00,0.0074
3918.00,0.0074
3917.00,0.0074
3916.00,0.0075
3915.00,0.0075
3914.00,0.0076
3913.00,0.0076
3912.00,0.0076
3911.00,0.0076
3910.00,0.0076
3909.00,0.0076
3908.00,0.0076
3907.00,0.0076
3906.00,0.0076
3905.00,0.0074
3904.00,0.0073
3903.00,0.0071
3902.00,0.0070
3901.00,0.0070
3900.00,0.0071
3899.00,0.0072
3898.00,0.0073
3897.00,0.0074
3896.00,0.0074
3895.00,0.0074
3894.00,0.0074
3893.00,0.0074
3892.00,0.0075
3891.00,0.0075
3890.00,0.0074
3889.00,0.0074
3888.00,0.0072
3887.00,0.0071
3886.00,0.0072
3885.00,0.0073
3884.00,0.0073
3883.00,0.0072
3882.00,0.0072
3881.00,0.0072
3880.00,0.0073
3879.00,0.0073
3878.00,0.0072
3877.00,0.0072
3876.00,0.0071
3875.00,0.0072
3874.00,0.0073
3873.00,0.0073
3872.00,0.0072
3871.00,0.0071
3870.00,0.0071
3869.00,0.0071
3868.00,0.0071
3867.00,0.0070
3866.00,0.0069
3865.00,0.0070
3864.00,0.0071
3863.00,0.0071
3862.00,0.0071
3861.00,0.0070
3860.00,0.0070
3859.00,0.0072
3858.00,0.0073
3857.00,0.0075
3856.00,0.0076
3855.00,0.0076
3854.00,0.0075
3853.00,0.0074
3852.00,0.0072
3851.00,0.0071
3850.00,0.0070
3849.00,0.0070
3848.00,0.0070
3847.00,0.0070
3846.00,0.0070
3845.00,0.0070
3844.00,0.0070
3843.00,0.0070
3842.00,0.0069
3841.00,0.0069
3840.00,0.0069
3839.00,0.0069
3838.00,0.0069
3837.00,0.0070
3836.00,0.0070
3835.00,0.0070
3834.00,0.0069
3833.00,0.0069
3832.00,0.0069
3831.00,0.0069
3830.00,0.0070
3829.00,0.0070
3828.00,0.0070
3827.00,0.0070
3826.00,0.0070
3825.00,0.0070
3824.00,0.0069
3823.00,0.0067
3822.00,0.0067
3821.00,0.0068
3820.00,0.0069
3819.00,0.0069
3818.00,0.0068
3817.00,0.0068
3816.00,0.0069
3815.00,0.0071
3814.00,0.0072
3813.00,0.0072
3812.00,0.0071
3811.00,0.0072
3810.00,0.0072
3809.00,0.0071
3808.00,0.0071
3807.00,0.0070
3806.00,0.0070
3805.00,0.0069
3804.00,0.0068
3803.00,0.0068
3802.00,0.0068
3801.00,0.0069
3800.00,0.0070
3799.00,0.0069
3798.00,0.0068
3797.00,0.0068
3796.00,0.0069
3795.00,0.0070
3794.00,0.0071
3793.00,0.0072
3792.00,0.0073
3791.00,0.0073
3790.00,0.0074
3789.00,0.0074
3788.00,0.0074
3787.00,0.0073
3786.00,0.0073
3785.00,0.0073
3784.00,0.0072
3783.00,0.0072
3782.00,0.0071
3781.00,0.0070
3780.00,0.0071
3779.00,0.0071
3778.00,0.0072
3777.00,0.0072
3776.00,0.0072
3775.00,0.0072
3774.00,0.0072
3773.00,0.0072
3772.00,0.0071
3771.00,0.0071
3770.00,0.0070
3769.00,0.0070
3768.00,0.0069
3767.00,0.0069
3766.00,0.0069
3765.00,0.0069
3764.00,0.0069
3763.00,0.0069
3762.00,0.0068
3761.00,0.0068
3760.00,0.0068
3759.00,0.0068
3758.00,0.0067
3757.00,0.0067
3756.00,0.0067
3755.00,0.0066
3754.00,0.0065
3753.00,0.0064
3752.00,0.0064
3751.00,0.0063
3750.00,0.0062
3749.00,0.0061
3748.00,0.0062
3747.00,0.0062
3746.00,0.0061
3745.00,0.0061
3744.00,0.0062
3743.00,0.0063
3742.00,0.0063
3741.00,0.0062
3740.00,0.0061
3739.00,0.0060
3738.00,0.0059
3737.00,0.0059
3736.00,0.0060
3735.00,0.0061
3734.00,0.0061
3733.00,0.0062
3732.00,0.0062
3731.00,0.0064
3730.00,0.0065
3729.00,0.0066
3728.00,0.0066
3727.00,0.0066
3726.00,0.0067
3725.00,0.0067
3724.00,0.0067
3723.00,0.0067
3722.00,0.0067
3721.00,0.0068
3720.00,0.0068
3719.00,0.0069
3718.00,0.0069
3717.00,0.0069
3716.00,0.0068
3715.00,0.0068
3714.00,0.0066
3713.00,0.0066
3712.00,0.0066
3711.00,0.0066
3710.00,0.0066
3709.00,0.0066
3708.00,0.0066
3707.00,0.0067
3706.00,0.0068
3705.00,0.0068
3704.00,0.0069
3703.00,0.0069
3702.00,0.0070
3701.00,0.0070
3700.00,0.0070
3699.00,0.0070
3698.00,0.0070
3697.00,0.0070
3696.00,0.0070
3695.00,0.0070
3694.00,0.0069
3693.00,0.0069
3692.00,0.0068
3691.00,0.0068
3690.00,0.0068
3689.00,0.0067
3688.00,0.0066
3687.00,0.0066
3686.00,0.0067
3685.00,0.0067
3684.00,0.0067
3683.00,0.0067
3682.00,0.0067
3681.00,0.0067
3680.00,0.0067
3679.00,0.0067
3678.00,0.0066
3677.00,0.0064
3676.00,0.0064
3675.00,0.0064
3674.00,0.0064
3673.00,0.0064
3672.00,0.0063
3671.00,0.0063
3670.00,0.0064
3669.00,0.0066
3668.00,0.0066
3667.00,0.0067
3666.00,0.0067
3665.00,0.0068
3664.00,0.0068
3663.00,0.0069
3662.00,0.0070
3661.00,0.0070
3660.00,0.0070
3659.00,0.0070
3658.00,0.0069
3657.00,0.0068
3656.00,0.0068
3655.00,0.0067
3654.00,0.0066
3653.00,0.0064
3652.00,0.0063
3651.00,0.0062
3650.00,0.0061
3649.00,0.0060
3648.00,0.0060
3647.00,0.0061
3646.00,0.0062
3645.00,0.0064
3644.00,0.0065
3643.00,0.0067
3642.00,0.0068
3641.00,0.0069
3640.00,0.0069
3639.00,0.0069
3638.00,0.0069
3637.00,0.0069
3636.00,0.0069
3635.00,0.0068
3634.00,0.0068
3633.00,0.0068
3632.00,0.0067
3631.00,0.0066
3630.00,0.0065
3629.00,0.0065
3628.00,0.0065
3627.00,0.0065
3626.00,0.0064
3625.00,0.0065
3624.00,0.0065
3623.00,0.0066
3622.00,0.0066
3621.00,0.0067
3620.00,0.0067
3619.00,0.0067
3618.00,0.0066
3617.00,0.0065
3616.00,0.0064
3615.00,0.0064
3614.00,0.0064
3613.00,0.0064
3612.00,0.0064
3611.00,0.0063
3610.00,0.0063
3609.00,0.0064
3608.00,0.0065
3607.00,0.0066
3606.00,0.0067
3605.00,0.0068
3604.00,0.0068
3603.00,0.0068
3602.00,0.0069
3601.00,0.0069
3600.00,0.0069
3599.00,0.0069
3598.00,0.0068
3597.00,0.0068
3596.00,0.0068
3595.00,0.0069
3594.00,0.0069
3593.00,0.0069
3592.00,0.0068
3591.00,0.0068
3590.00,0.0067
3589.00,0.0067
3588.00,0.0068
3587.00,0.0069
3586.00,0.0069
3585.00,0.0069
3584.00,0.0069
3583.00,0.0069
3582.00,0.0070
3581.00,0.0071
3580.00,0.0071
3579.00,0.0072
3578.00,0.0072
3577.00,0.0072
3576.00,0.0072
3575.00,0.0072
3574.00,0.0072
3573.00,0.0072
3572.00,0.0072
3571.00,0.0071
3570.00,0.0070
3569.00,0.0069
3568.00,0.0069
3567.00,0.0069
3566.00,0.0069
3565.00,0.0069
3564.00,0.0069
3563.00,0.0070
3562.00,0.0071
3561.00,0.0071
3560.00,0.0072
3559.00,0.0073
3558.00,0.0073
3557.00,0.0073
3556.00,0.0073
3555.00,0.0073
3554.00,0.0073
3553.00,0.0073
3552.00,0.0073
3551.00,0.0073
3550.00,0.0072
3549.00,0.0072
3548.00,0.0072
3547.00,0.0072
3546.00,0.0072
3545.00,0.0073
3544.00,0.0073
3543.00,0.0073
3542.00,0.0074
3541.00,0.0074
3540.00,0.0074
3539.00,0.0075
3538.00,0.0075
3537.00,0.0075
3536.00,0.0076
3535.00,0.0075
3534.00,0.0075
3533.00,0.0075
3532.00,0.0075
3531.00,0.0075
3530.00,0.0075
3529.00,0.0075
3528.00,0.0075
3527.00,0.0074
3526.00,0.0074
3525.00,0.0074
3524.00,0.0075
3523.00,0.0075
3522.00,0.0075
3521.00,0.0076
3520.00,0.0076
3519.00,0.0076
3518.00,0.0076
3517.00,0.0076
3516.00,0.0076
3515.00,0.0077
3514.00,0.0077
3513.00,0.0077
3512.00,0.0077
3511.00,0.0077
3510.00,0.0077
3509.00,0.0077
3508.00,0.0077
3507.00,0.0076
3506.00,0.0076
3505.00,0.0077
3504.00,0.0077
3503.00,0.0077
3502.00,0.0077
3501.00,0.0077
3500.00,0.0077
3499.00,0.0078
3498.00,0.0078
3497.00,0.0078
3496.00,0.0078
3495.00,0.0079
3494.00,0.0079
3493.00,0.0079
3492.00,0.0079
3491.00,0.0079
3490.00,0.0079
3489.00,0.0079
3488.00,0.0079
3487.00,0.0079
3486.00,0.0079
3485.00,0.0079
3484.00,0.0080
3483.00,0.0080
3482.00,0.0080
3481.00,0.0080
3480.00,0.0080
3479.00,0.0080
3478.00,0.0080
3477.00,0.0080
3476.00,0.0080
3475.00,0.0081
3474.00,0.0081
3473.00,0.0081
3472.00,0.0081
3471.00,0.0082
3470.00,0.0082
3469.00,0.0082
3468.00,0.0082
3467.00,0.0082
3466.00,0.0082
3465.00,0.0082
3464.00,0.0082
3463.00,0.0083
3462.00,0.0083
3461.00,0.0083
3460.00,0.0083
3459.00,0.0083
3458.00,0.0083
3457.00,0.0083
3456.00,0.0083
3455.00,0.0083
3454.00,0.0083
3453.00,0.0083
3452.00,0.0083
3451.00,0.0083
3450.00,0.0083
3449.00,0.0083
3448.00,0.0084
3447.00,0.0084
3446.00,0.0084
3445.00,0.0084
3444.00,0.0084
3443.00,0.0084
3442.00,0.0084
3441.00,0.0084
3440.00,0.0084
3439.00,0.0085
3438.00,0.0085
3437.00,0.0085
3436.00,0.0085
3435.00,0.0085
3434.00,0.0086
3433.00,0.0086
3432.00,0.0086
3431.00,0.0086
3430.00,0.0086
3429.00,0.0086
3428.00,0.0086
3427.00,0.0086
3426.00,0.0086
3425.00,0.0086
3424.00,0.0087
3423.00,0.0087
3422.00,0.0087
3421.00,0.0087
3420.00,0.0087
3419.00,0.0087
3418.00,0.0087
3417.00,0.0087
3416.00,0.0088
3415.00,0.0088
3414.00,0.0088
3413.00,0.0088
3412.00,0.0088
3411.00,0.0088
3410.00,0.0088
3409.00,0.0088
3408.00,0.0089
3407.00,0.0088
3406.00,0.0089
3405.00,0.0089
3404.00,0.0089
3403.00,0.0089
3402.00,0.0089
3401.00,0.0089
3400.00,0.0089
3399.00,0.0090
3398.00,0.0089
3397.00,0.0089
3396.00,0.0090
3395.00,0.0090
3394.00,0.0090
3393.00,0.0090
3392.00,0.0090
3391.00,0.0090
3390.00,0.0091
3389.00,0.0091
3388.00,0.0091
3387.00,0.0091
3386.00,0.0091
3385.00,0.0091
3384.00,0.0091
3383.00,0.0091
3382.00,0.0091
3381.00,0.0092
3380.00,0.0092
3379.00,0.0092
3378.00,0.0092
3377.00,0.0092
3376.00,0.0093
3375.00,0.0093
3374.00,0.0093
3373.00,0.0093
3372.00,0.0093
3371.00,0.0093
3370.00,0.0093
3369.00,0.0094
3368.00,0.0094
3367.00,0.0094
3366.00,0.0094
3365.00,0.0095
3364.00,0.0095
3363.00,0.0095
3362.00,0.0095
3361.00,0.0095
3360.00,0.0095
3359.00,0.0096
3358.00,0.0096
3357.00,0.0097
3356.00,0.0097
3355.00,0.0097
3354.00,0.0097
3353.00,0.0097
3352.00,0.0098
3351.00,0.0098
3350.00,0.0098
3349.00,0.0098
3348.00,0.0099
3347.00,0.0099
3346.00,0.0099
3345.00,0.0100
3344.00,0.0100
3343.00,0.0100
3342.00,0.0100
3341.00,0.0101
3340.00,0.0101
3339.00,0.0101
3338.00,0.0102
3337.00,0.0102
3336.00,0.0102
3335.00,0.0103
3334.00,0.0103
3333.00,0.0103
3332.00,0.0104
3331.00,0.0104
3330.00,0.0104
3329.00,0.0104
3328.00,0.0105
3327.00,0.0105
3326.00,0.0105
3325.00,0.0106
3324.00,0.0106
3323.00,0.0107
3322.00,0.0107
3321.00,0.0108
3320.00,0.0108
3319.00,0.0108
3318.00,0.0109
3317.00,0.0109
3316.00,0.0110
3315.00,0.0110
3314.00,0.0110
3313.00,0.0111
3312.00,0.0111
3311.00,0.0112
3310.00,0.0112
3309.00,0.0113
3308.00,0.0113
3307.00,0.0114
3306.00,0.0114
3305.00,0.0115
3304.00,0.0115
3303.00,0.0116
3302.00,0.0117
3301.00,0.0117
3300.00,0.0118
3299.00,0.0118
3298.00,0.0118
3297.00,0.0119
3296.00,0.0119
3295.00,0.0120
3294.00,0.0120
3293.00,0.0120
3292.00,0.0121
3291.00,0.0121
3290.00,0.0122
3289.00,0.0123
3288.00,0.0123
3287.00,0.0124
3286.00,0.0124
3285.00,0.0124
3284.00,0.0125
3283.00,0.0125
3282.00,0.0125
3281.00,0.0126
3280.00,0.0126
3279.00,0.0126
3278.00,0.0126
3277.00,0.0126
3276.00,0.0126
3275.00,0.0126
3274.00,0.0126
3273.00,0.0127
3272.00,0.0127
3271.00,0.0127
3270.00,0.0127
3269.00,0.0127
3268.00,0.0126
3267.00,0.0126
3266.00,0.0126
3265.00,0.0126
3264.00,0.0126
3263.00,0.0125
3262.00,0.0125
3261.00,0.0125
3260.00,0.0124
3259.00,0.0124
3258.00,0.0123
3257.00,0.0123
3256.00,0.0122
3255.00,0.0122
3254.00,0.0122
3253.00,0.0121
3252.00,0.0121
3251.00,0.0120
3250.00,0.0120
3249.00,0.0120
3248.00,0.0119
3247.00,0.0119
3246.00,0.0118
3245.00,0.0118
3244.00,0.0118
3243.00,0.0117
3242.00,0.0117
3241.00,0.0117
3240.00,0.0116
3239.00,0.0116
3238.00,0.0115
3237.00,0.0115
3236.00,0.0115
3235.00,0.0114
3234.00,0.0114
3233.00,0.0114
3232.00,0.0114
3231.00,0.0113
3230.00,0.0113
3229.00,0.0113
3228.00,0.0113
3227.00,0.0112
3226.00,0.0112
3225.00,0.0112
3224.00,0.0111
3223.00,0.0111
3222.00,0.0111
3221.00,0.0111
3220.00,0.0110
3219.00,0.0110
3218.00,0.0110
3217.00,0.0109
3216.00,0.0109
3215.00,0.0109
3214.00,0.0109
3213.00,0.0109
3212.00,0.0109
3211.00,0.0108
3210.00,0.0108
3209.00,0.0108
3208.00,0.0107
3207.00,0.0107
3206.00,0.0107
3205.00,0.0107
3204.00,0.0107
3203.00,0.0107
3202.00,0.0106
3201.00,0.0106
3200.00,0.0106
3199.00,0.0106
3198.00,0.0105
3197.00,0.0105
3196.00,0.0105
3195.00,0.0105
3194.00,0.0105
3193.00,0.0105
3192.00,0.0104
3191.00,0.0104
3190.00,0.0104
3189.00,0.0104
3188.00,0.0104
3187.00,0.0103
3186.00,0.0103
3185.00,0.0103
3184.00,0.0102
3183.00,0.0102
3182.00,0.0102
3181.00,0.0101
3180.00,0.0101
3179.00,0.0101
3178.00,0.0101
3177.00,0.0100
3176.00,0.0100
3175.00,0.0100
3174.00,0.0100
3173.00,0.0100
3172.00,0.0099
3171.00,0.0099
3170.00,0.0099
3169.00,0.0099
3168.00,0.0098
3167.00,0.0098
3166.00,0.0098
3165.00,0.0098
3164.00,0.0098
3163.00,0.0098
3162.00,0.0097
3161.00,0.0097
3160.00,0.0097
3159.00,0.0096
3158.00,0.0096
3157.00,0.0096
3156.00,0.0095
3155.00,0.0095
3154.00,0.0095
3153.00,0.0095
3152.00,0.0095
3151.00,0.0095
3150.00,0.0094
3149.00,0.0094
3148.00,0.0094
3147.00,0.0094
3146.00,0.0093
3145.00,0.0093
3144.00,0.0093
3143.00,0.0093
3142.00,0.0093
3141.00,0.0092
3140.00,0.0092
3139.00,0.0092
3138.00,0.0092
3137.00,0.0092
3136.00,0.0091
3135.00,0.0091
3134.00,0.0091
3133.00,0.0091
3132.00,0.0091
3131.00,0.0091
3130.00,0.0090
3129.00,0.0090
3128.00,0.0090
3127.00,0.0090
3126.00,0.0090
3125.00,0.0090
3124.00,0.0090
3123.00,0.0090
3122.00,0.0090
3121.00,0.0090
3120.00,0.0090
3119.00,0.0090
3118.00,0.0089
3117.00,0.0089
3116.00,0.0089
3115.00,0.0089
3114.00,0.0089
3113.00,0.0089
3112.00,0.0089
3111.00,0.0089
3110.00,0.0089
3109.00,0.0089
3108.00,0.0089
3107.00,0.0089
3106.00,0.0089
3105.00,0.0089
3104.00,0.0089
3103.00,0.0089
3102.00,0.0089
3101.00,0.0089
3100.00,0.0089
3099.00,0.0089
3098.00,0.0089
3097.00,0.0089
3096.00,0.0089
3095.00,0.0089
3094.00,0.0089
3093.00,0.0089
3092.00,0.0089
3091.00,0.0089
3090.00,0.0089
3089.00,0.0089
3088.00,0.0089
3087.00,0.0089
3086.00,0.0090
3085.00,0.0090
3084.00,0.0090
3083.00,0.0090
3082.00,0.0090
3081.00,0.0090
3080.00,0.0090
3079.00,0.0090
3078.00,0.0090
3077.00,0.0090
3076.00,0.0090
3075.00,0.0090
3074.00,0.0090
3073.00,0.0090
3072.00,0.0090
3071.00,0.0090
3070.00,0.0090
3069.00,0.0090
3068.00,0.0090
3067.00,0.0089
3066.00,0.0089
3065.00,0.0089
3064.00,0.0090
3063.00,0.0090
3062.00,0.0090
3061.00,0.0090
3060.00,0.0089
3059.00,0.0089
3058.00,0.0089
3057.00,0.0089
3056.00,0.0089
3055.00,0.0089
3054.00,0.0089
3053.00,0.0089
3052.00,0.0089
3051.00,0.0088
3050.00,0.0088
3049.00,0.0088
3048.00,0.0088
3047.00,0.0088
3046.00,0.0088
3045.00,0.0088
3044.00,0.0087
3043.00,0.0087
3042.00,0.0087
3041.00,0.0087
3040.00,0.0087
3039.00,0.0087
3038.00,0.0087
3037.00,0.0086
3036.00,0.0086
3035.00,0.0086
3034.00,0.0086
3033.00,0.0086
3032.00,0.0085
3031.00,0.0085
3030.00,0.0085
3029.00,0.0085
3028.00,0.0085
3027.00,0.0085
3026.00,0.0085
3025.00,0.0085
3024.00,0.0085
3023.00,0.0084
3022.00,0.0084
3021.00,0.0084
3020.00,0.0084
3019.00,0.0084
3018.00,0.0084
3017.00,0.0084
3016.00,0.0084
3015.00,0.0084
3014.00,0.0084
3013.00,0.0083
3012.00,0.0083
3011.00,0.0083
3010.00,0.0083
3009.00,0.0083
3008.00,0.0083
3007.00,0.0083
3006.00,0.0083
3005.00,0.0083
3004.00,0.0083
3003.00,0.0083
3002.00,0.0083
3001.00,0.0083
3000.00,0.0083
2999.00,0.0083
2998.00,0.0083
2997.00,0.0083
2996.00,0.0083
2995.00,0.0083
2994.00,0.0083
2993.00,0.0083
2992.00,0.0084
2991.00,0.0084
2990.00,0.0084
2989.00,0.0084
2988.00,0.0085
2987.00,0.0085
2986.00,0.0085
2985.00,0.0085
2984.00,0.0086
2983.00,0.0086
2982.00,0.0087
2981.00,0.0087
2980.00,0.0087
2979.00,0.0088
2978.00,0.0088
2977.00,0.0089
2976.00,0.0089
2975.00,0.0090
2974.00,0.0090
2973.00,0.0091
2972.00,0.0091
2971.00,0.0092
2970.00,0.0093
2969.00,0.0093
2968.00,0.0094
2967.00,0.0095
2966.00,0.0095
2965.00,0.0096
2964.00,0.0096
2963.00,0.0097
2962.00,0.0098
2961.00,0.0098
2960.00,0.0098
2959.00,0.0099
2958.00,0.0099
2957.00,0.0100
2956.00,0.0100
2955.00,0.0100
2954.00,0.0100
2953.00,0.0100
2952.00,0.0100
2951.00,0.0100
2950.00,0.0101
2949.00,0.0101
2948.00,0.0101
2947.00,0.0101
2946.00,0.0101
2945.00,0.0102
2944.00,0.0103
2943.00,0.0103
2942.00,0.0104
2941.00,0.0105
2940.00,0.0107
2939.00,0.0108
2938.00,0.0110
2937.00,0.0112
2936.00,0.0113
2935.00,0.0115
2934.00,0.0117
2933.00,0.0119
2932.00,0.0121
2931.00,0.0123
2930.00,0.0124
2929.00,0.0126
2928.00,0.0127
2927.00,0.0129
2926.00,0.0130
2925.00,0.0130
2924.00,0.0130
2923.00,0.0129
2922.00,0.0128
2921.00,0.0126
2920.00,0.0124
2919.00,0.0121
2918.00,0.0117
2917.00,0.0114
2916.00,0.0112
2915.00,0.0109
2914.00,0.0108
2913.00,0.0107
2912.00,0.0107
2911.00,0.0106
2910.00,0.0106
2909.00,0.0105
2908.00,0.0105
2907.00,0.0104
2906.00,0.0104
2905.00,0.0103
2904.00,0.0102
2903.00,0.0101
2902.00,0.0101
2901.00,0.0100
2900.00,0.0100
2899.00,0.0099
2898.00,0.0099
2897.00,0.0098
2896.00,0.0097
2895.00,0.0097
2894.00,0.0096
2893.00,0.0096
2892.00,0.0095
2891.00,0.0095
2890.00,0.0094
2889.00,0.0094
2888.00,0.0094
2887.00,0.0093
2886.00,0.0093
2885.00,0.0093
2884.00,0.0093
2883.00,0.0092
2882.00,0.0092
2881.00,0.0092
2880.00,0.0092
2879.00,0.0092
2878.00,0.0093
2877.00,0.0093
2876.00,0.0093
2875.00,0.0094
2874.00,0.0094
2873.00,0.0094
2872.00,0.0094
2871.00,0.0094
2870.00,0.0094
2869.00,0.0094
2868.00,0.0094
2867.00,0.0094
2866.00,0.0094
2865.00,0.0094
2864.00,0.0095
2863.00,0.0096
2862.00,0.0097
2861.00,0.0098
2860.00,0.0099
2859.00,0.0101
2858.00,0.0102
2857.00,0.0104
2856.00,0.0105
2855.00,0.0106
2854.00,0.0106
2853.00,0.0105
2852.00,0.0104
2851.00,0.0101
2850.00,0.0098
2849.00,0.0095
2848.00,0.0093
2847.00,0.0091
2846.00,0.0090
2845.00,0.0089
2844.00,0.0089
2843.00,0.0088
2842.00,0.0088
2841.00,0.0087
2840.00,0.0086
2839.00,0.0086
2838.00,0.0085
2837.00,0.0084
2836.00,0.0083
2835.00,0.0083
2834.00,0.0082
2833.00,0.0082
2832.00,0.0082
2831.00,0.0081
2830.00,0.0081
2829.00,0.0081
2828.00,0.0081
2827.00,0.0080
2826.00,0.0080
2825.00,0.0080
2824.00,0.0080
2823.00,0.0080
2822.00,0.0079
2821.00,0.0079
2820.00,0.0079
2819.00,0.0079
2818.00,0.0079
2817.00,0.0078
2816.00,0.0078
2815.00,0.0078
2814.00,0.0078
2813.00,0.0078
2812.00,0.0078
2811.00,0.0078
2810.00,0.0078
2809.00,0.0078
2808.00,0.0077
2807.00,0.0077
2806.00,0.0077
2805.00,0.0077
2804.00,0.0077
2803.00,0.0077
2802.00,0.0077
2801.00,0.0077
2800.00,0.0077
2799.00,0.0076
2798.00,0.0076
2797.00,0.0076
2796.00,0.0076
2795.00,0.0076
2794.00,0.0076
2793.00,0.0076
2792.00,0.0076
2791.00,0.0076
2790.00,0.0076
2789.00,0.0075
2788.00,0.0075
2787.00,0.0075
2786.00,0.0075
2785.00,0.0075
2784.00,0.0075
2783.00,0.0075
2782.00,0.0075
2781.00,0.0075
2780.00,0.0075
2779.00,0.0074
2778.00,0.0074
2777.00,0.0074
2776.00,0.0074
2775.00,0.0074
2774.00,0.0074
2773.00,0.0074
2772.00,0.0074
2771.00,0.0074
2770.00,0.0074
2769.00,0.0074
2768.00,0.0074
2767.00,0.0074
2766.00,0.0073
2765.00,0.0073
2764.00,0.0073
2763.00,0.0073
2762.00,0.0073
2761.00,0.0073
2760.00,0.0073
2759.00,0.0073
2758.00,0.0073
2757.00,0.0073
2756.00,0.0073
2755.00,0.0073
2754.00,0.0073
2753.00,0.0073
2752.00,0.0072
2751.00,0.0072
2750.00,0.0072
2749.00,0.0072
2748.00,0.0072
2747.00,0.0072
2746.00,0.0072
2745.00,0.0072
2744.00,0.0072
2743.00,0.0072
2742.00,0.0072
2741.00,0.0072
2740.00,0.0072
2739.00,0.0072
2738.00,0.0072
2737.00,0.0071
2736.00,0.0071
2735.00,0.0071
2734.00,0.0071
2733.00,0.0071
2732.00,0.0071
2731.00,0.0071
2730.00,0.0071
2729.00,0.0071
2728.00,0.0071
2727.00,0.0071
2726.00,0.0071
2725.00,0.0071
2724.00,0.0071
2723.00,0.0071
2722.00,0.0071
2721.00,0.0070
2720.00,0.0070
2719.00,0.0070
2718.00,0.0070
2717.00,0.0070
2716.00,0.0070
2715.00,0.0070
2714.00,0.0070
2713.00,0.0070
2712.00,0.0070
2711.00,0.0070
2710.00,0.0070
2709.00,0.0070
2708.00,0.0070
2707.00,0.0070
2706.00,0.0070
2705.00,0.0069
2704.00,0.0069
2703.00,0.0069
2702.00,0.0069
2701.00,0.0069
2700.00,0.0069
2699.00,0.0069
2698.00,0.0069
2697.00,0.0069
2696.00,0.0069
2695.00,0.0069
2694.00,0.0069
2693.00,0.0069
2692.00,0.0069
2691.00,0.0068
2690.00,0.0068
2689.00,0.0068
2688.00,0.0068
2687.00,0.0068
2686.00,0.0068
2685.00,0.0068
2684.00,0.0068
2683.00,0.0068
2682.00,0.0068
2681.00,0.0068
2680.00,0.0068
2679.00,0.0068
2678.00,0.0068
2677.00,0.0068
2676.00,0.0068
2675.00,0.0068
2674.00,0.0068
2673.00,0.0068
2672.00,0.0068
2671.00,0.0068
2670.00,0.0068
2669.00,0.0068
2668.00,0.0067
2667.00,0.0067
2666.00,0.0067
2665.00,0.0067
2664.00,0.0067
2663.00,0.0067
2662.00,0.0067
2661.00,0.0066
2660.00,0.0066
2659.00,0.0066
2658.00,0.0066
2657.00,0.0066
2656.00,0.0066
2655.00,0.0066
2654.00,0.0066
2653.00,0.0066
2652.00,0.0066
2651.00,0.0066
2650.00,0.0066
2649.00,0.0066
2648.00,0.0066
2647.00,0.0066
2646.00,0.0066
2645.00,0.0066
2644.00,0.0066
2643.00,0.0066
2642.00,0.0066
2641.00,0.0066
2640.00,0.0066
2639.00,0.0066
2638.00,0.0066
2637.00,0.0066
2636.00,0.0066
2635.00,0.0066
2634.00,0.0066
2633.00,0.0066
2632.00,0.0066
2631.00,0.0066
2630.00,0.0066
2629.00,0.0066
2628.00,0.0066
2627.00,0.0066
2626.00,0.0066
2625.00,0.0066
2624.00,0.0065
2623.00,0.0065
2622.00,0.0065
2621.00,0.0065
2620.00,0.0065
2619.00,0.0065
2618.00,0.0066
2617.00,0.0066
2616.00,0.0066
2615.00,0.0065
2614.00,0.0065
2613.00,0.0065
2612.00,0.0065
2611.00,0.0065
2610.00,0.0065
2609.00,0.0065
2608.00,0.0065
2607.00,0.0065
2606.00,0.0065
2605.00,0.0065
2604.00,0.0065
2603.00,0.0065
2602.00,0.0065
2601.00,0.0065
2600.00,0.0065
2599.00,0.0065
2598.00,0.0065
2597.00,0.0065
2596.00,0.0065
2595.00,0.0064
2594.00,0.0064
2593.00,0.0064
2592.00,0.0064
2591.00,0.0064
2590.00,0.0064
2589.00,0.0064
2588.00,0.0064
2587.00,0.0064
2586.00,0.0064
2585.00,0.0064
2584.00,0.0064
2583.00,0.0064
2582.00,0.0064
2581.00,0.0064
2580.00,0.0064
2579.00,0.0064
2578.00,0.0064
2577.00,0.0064
2576.00,0.0064
2575.00,0.0064
2574.00,0.0064
2573.00,0.0064
2572.00,0.0064
2571.00,0.0064
2570.00,0.0064
2569.00,0.0064
2568.00,0.0064
2567.00,0.0064
2566.00,0.0064
2565.00,0.0064
2564.00,0.0063
2563.00,0.0063
2562.00,0.0064
2561.00,0.0064
2560.00,0.0064
2559.00,0.0064
2558.00,0.0064
2557.00,0.0064
2556.00,0.0064
2555.00,0.0064
2554.00,0.0063
2553.00,0.0063
2552.00,0.0063
2551.00,0.0063
2550.00,0.0063
2549.00,0.0063
2548.00,0.0063
2547.00,0.0063
2546.00,0.0063
2545.00,0.0063
2544.00,0.0063
2543.00,0.0063
2542.00,0.0063
2541.00,0.0063
2540.00,0.0063
2539.00,0.0063
2538.00,0.0063
2537.00,0.0063
2536.00,0.0063
2535.00,0.0063
2534.00,0.0063
2533.00,0.0063
2532.00,0.0063
2531.00,0.0063
2530.00,0.0063
2529.00,0.0063
2528.00,0.0063
2527.00,0.0062
2526.00,0.0062
2525.00,0.0062
2524.00,0.0062
2523.00,0.0063
2522.00,0.0063
2521.00,0.0063
2520.00,0.0063
2519.00,0.0063
2518.00,0.0062
2517.00,0.0062
2516.00,0.0062
2515.00,0.0062
2514.00,0.0062
2513.00,0.0062
2512.00,0.0062
2511.00,0.0062
2510.00,0.0062
2509.00,0.0062
2508.00,0.0062
2507.00,0.0062
2506.00,0.0062
2505.00,0.0062
2504.00,0.0062
2503.00,0.0062
2502.00,0.0062
2501.00,0.0062
2500.00,0.0062
2499.00,0.0062
2498.00,0.0062
2497.00,0.0061
2496.00,0.0061
2495.00,0.0061
2494.00,0.0061
2493.00,0.0062
2492.00,0.0062
2491.00,0.0062
2490.00,0.0062
2489.00,0.0062
2488.00,0.0062
2487.00,0.0062
2486.00,0.0062
2485.00,0.0061
2484.00,0.0061
2483.00,0.0061
2482.00,0.0061
2481.00,0.0061
2480.00,0.0061
2479.00,0.0061
2478.00,0.0061
2477.00,0.0061
2476.00,0.0061
2475.00,0.0061
2474.00,0.0060
2473.00,0.0060
2472.00,0.0060
2471.00,0.0061
2470.00,0.0061
2469.00,0.0061
2468.00,0.0061
2467.00,0.0061
2466.00,0.0061
2465.00,0.0060
2464.00,0.0060
2463.00,0.0060
2462.00,0.0060
2461.00,0.0060
2460.00,0.0060
2459.00,0.0060
2458.00,0.0060
2457.00,0.0060
2456.00,0.0060
2455.00,0.0060
2454.00,0.0060
2453.00,0.0060
2452.00,0.0060
2451.00,0.0060
2450.00,0.0059
2449.00,0.0059
2448.00,0.0059
2447.00,0.0060
2446.00,0.0060
2445.00,0.0060
2444.00,0.0060
2443.00,0.0060
2442.00,0.0059
2441.00,0.0059
2440.00,0.0059
2439.00,0.0059
2438.00,0.0059
2437.00,0.0059
2436.00,0.0059
2435.00,0.0059
2434.00,0.0059
2433.00,0.0059
2432.00,0.0059
2431.00,0.0059
2430.00,0.0059
2429.00,0.0059
2428.00,0.0059
2427.00,0.0059
2426.00,0.0059
2425.00,0.0059
2424.00,0.0059
2423.00,0.0059
2422.00,0.0059
2421.00,0.0059
2420.00,0.0059
2419.00,0.0059
2418.00,0.0059
2417.00,0.0059
2416.00,0.0059
2415.00,0.0059
2414.00,0.0059
2413.00,0.0059
2412.00,0.0059
2411.00,0.0059
2410.00,0.0058
2409.00,0.0058
2408.00,0.0059
2407.00,0.0059
2406.00,0.0059
2405.00,0.0059
2404.00,0.0059
2403.00,0.0059
2402.00,0.0059
2401.00,0.0058
2400.00,0.0058
2399.00,0.0058
2398.00,0.0058
2397.00,0.0058
2396.00,0.0058
2395.00,0.0058
2394.00,0.0058
2393.00,0.0058
2392.00,0.0058
2391.00,0.0058
2390.00,0.0058
2389.00,0.0058
2388.00,0.0057
2387.00,0.0057
2386.00,0.0057
2385.00,0.0057
2384.00,0.0057
2383.00,0.0057
2382.00,0.0057
2381.00,0.0057
2380.00,0.0057
2379.00,0.0058
2378.00,0.0058
2377.00,0.0058
2376.00,0.0057
2375.00,0.0057
2374.00,0.0057
2373.00,0.0057
2372.00,0.0056
2371.00,0.0056
2370.00,0.0056
2369.00,0.0056
2368.00,0.0057
2367.00,0.0057
2366.00,0.0057
2365.00,0.0057
2364.00,0.0057
2363.00,0.0056
2362.00,0.0056
2361.00,0.0056
2360.00,0.0056
2359.00,0.0055
2358.00,0.0055
2357.00,0.0055
2356.00,0.0055
2355.00,0.0055
2354.00,0.0055
2353.00,0.0056
2352.00,0.0056
2351.00,0.0056
2350.00,0.0056
2349.00,0.0055
2348.00,0.0054
2347.00,0.0054
2346.00,0.0054
2345.00,0.0054
2344.00,0.0054
2343.00,0.0054
2342.00,0.0054
2341.00,0.0054
2340.00,0.0054
2339.00,0.0054
2338.00,0.0054
2337.00,0.0054
2336.00,0.0054
2335.00,0.0054
2334.00,0.0054
2333.00,0.0054
2332.00,0.0054
2331.00,0.0054
2330.00,0.0054
2329.00,0.0054
2328.00,0.0054
2327.00,0.0053
2326.00,0.0053
2325.00,0.0052
2324.00,0.0052
2323.00,0.0052
2322.00,0.0052
2321.00,0.0052
2320.00,0.0052
2319.00,0.0052
2318.00,0.0052
2317.00,0.0053
2316.00,0.0053
2315.00,0.0053
2314.00,0.0053
2313.00,0.0053
2312.00,0.0053
2311.00,0.0053
2310.00,0.0053
2309.00,0.0053
2308.00,0.0053
2307.00,0.0053
2306.00,0.0053
2305.00,0.0053
2304.00,0.0053
2303.00,0.0053
2302.00,0.0053
2301.00,0.0053
2300.00,0.0053
2299.00,0.0053
2298.00,0.0053
2297.00,0.0053
2296.00,0.0053
2295.00,0.0053
2294.00,0.0052
2293.00,0.0052
2292.00,0.0052
2291.00,0.0052
2290.00,0.0052
2289.00,0.0052
2288.00,0.0052
2287.00,0.0052
2286.00,0.0053
2285.00,0.0053
2284.00,0.0053
2283.00,0.0053
2282.00,0.0053
2281.00,0.0053
2280.00,0.0053
2279.00,0.0053
2278.00,0.0053
2277.00,0.0053
2276.00,0.0053
2275.00,0.0053
2274.00,0.0053
2273.00,0.0053
2272.00,0.0053
2271.00,0.0053
2270.00,0.0053
2269.00,0.0053
2268.00,0.0053
2267.00,0.0053
2266.00,0.0053
2265.00,0.0053
2264.00,0.0053
2263.00,0.0053
2262.00,0.0053
2261.00,0.0053
2260.00,0.0053
2259.00,0.0053
2258.00,0.0053
2257.00,0.0053
2256.00,0.0053
2255.00,0.0053
2254.00,0.0053
2253.00,0.0053
2252.00,0.0053
2251.00,0.0053
2250.00,0.0053
2249.00,0.0053
2248.00,0.0053
2247.00,0.0053
2246.00,0.0053
2245.00,0.0053
2244.00,0.0053
2243.00,0.0053
2242.00,0.0053
2241.00,0.0053
2240.00,0.0053
2239.00,0.0053
2238.00,0.0053
2237.00,0.0053
2236.00,0.0053
2235.00,0.0052
2234.00,0.0052
2233.00,0.0052
2232.00,0.0052
2231.00,0.0052
2230.00,0.0052
2229.00,0.0052
2228.00,0.0052
2227.00,0.0053
2226.00,0.0053
2225.00,0.0054
2224.00,0.0054
2223.00,0.0054
2222.00,0.0054
2221.00,0.0054
2220.00,0.0054
2219.00,0.0054
2218.00,0.0053
2217.00,0.0053
2216.00,0.0053
2215.00,0.0052
2214.00,0.0052
2213.00,0.0052
2212.00,0.0052
2211.00,0.0053
2210.00,0.0053
2209.00,0.0053
2208.00,0.0053
2207.00,0.0053
2206.00,0.0053
2205.00,0.0053
2204.00,0.0053
2203.00,0.0053
2202.00,0.0053
2201.00,0.0052
2200.00,0.0052
2199.00,0.0052
2198.00,0.0052
2197.00,0.0052
2196.00,0.0052
2195.00,0.0053
2194.00,0.0053
2193.00,0.0053
2192.00,0.0053
2191.00,0.0052
2190.00,0.0052
2189.00,0.0051
2188.00,0.0050
2187.00,0.0050
2186.00,0.0050
2185.00,0.0050
2184.00,0.0050
2183.00,0.0050
2182.00,0.0051
2181.00,0.0052
2180.00,0.0052
2179.00,0.0052
2178.00,0.0052
2177.00,0.0052
2176.00,0.0052
2175.00,0.0052
2174.00,0.0052
2173.00,0.0053
2172.00,0.0053
2171.00,0.0052
2170.00,0.0051
2169.00,0.0051
2168.00,0.0051
2167.00,0.0051
2166.00,0.0051
2165.00,0.0050
2164.00,0.0049
2163.00,0.0048
2162.00,0.0048
2161.00,0.0049
2160.00,0.0051
2159.00,0.0053
2158.00,0.0055
2157.00,0.0056
2156.00,0.0056
2155.00,0.0056
2154.00,0.0055
2153.00,0.0054
2152.00,0.0053
2151.00,0.0053
2150.00,0.0054
2149.00,0.0054
2148.00,0.0055
2147.00,0.0055
2146.00,0.0054
2145.00,0.0053
2144.00,0.0053
2143.00,0.0053
2142.00,0.0054
2141.00,0.0055
2140.00,0.0055
2139.00,0.0055
2138.00,0.0055
2137.00,0.0055
2136.00,0.0055
2135.00,0.0056
2134.00,0.0056
2133.00,0.0056
2132.00,0.0056
2131.00,0.0056
2130.00,0.0055
2129.00,0.0055
2128.00,0.0055
2127.00,0.0055
2126.00,0.0055
2125.00,0.0054
2124.00,0.0054
2123.00,0.0054
2122.00,0.0054
2121.00,0.0054
2120.00,0.0054
2119.00,0.0053
2118.00,0.0053
2117.00,0.0053
2116.00,0.0052
2115.00,0.0052
2114.00,0.0052
2113.00,0.0052
2112.00,0.0053
2111.00,0.0053
2110.00,0.0053
2109.00,0.0052
2108.00,0.0052
2107.00,0.0052
2106.00,0.0052
2105.00,0.0052
2104.00,0.0053
2103.00,0.0053
2102.00,0.0053
2101.00,0.0052
2100.00,0.0052
2099.00,0.0052
2098.00,0.0053
2097.00,0.0053
2096.00,0.0053
2095.00,0.0053
2094.00,0.0053
2093.00,0.0053
2092.00,0.0052
2091.00,0.0052
2090.00,0.0052
2089.00,0.0052
2088.00,0.0052
2087.00,0.0052
2086.00,0.0052
2085.00,0.0052
2084.00,0.0052
2083.00,0.0052
2082.00,0.0052
2081.00,0.0052
2080.00,0.0052
2079.00,0.0052
2078.00,0.0052
2077.00,0.0051
2076.00,0.0051
2075.00,0.0051
2074.00,0.0051
2073.00,0.0051
2072.00,0.0051
2071.00,0.0051
2070.00,0.0051
2069.00,0.0052
2068.00,0.0052
2067.00,0.0052
2066.00,0.0052
2065.00,0.0052
2064.00,0.0051
2063.00,0.0051
2062.00,0.0051
2061.00,0.0050
2060.00,0.0050
2059.00,0.0050
2058.00,0.0050
2057.00,0.0050
2056.00,0.0050
2055.00,0.0051
2054.00,0.0051
2053.00,0.0050
2052.00,0.0049
2051.00,0.0049
2050.00,0.0049
2049.00,0.0049
2048.00,0.0049
2047.00,0.0050
2046.00,0.0050
2045.00,0.0050
2044.00,0.0050
2043.00,0.0050
2042.00,0.0050
2041.00,0.0051
2040.00,0.0051
2039.00,0.0051
2038.00,0.0051
2037.00,0.0050
2036.00,0.0050
2035.00,0.0050
2034.00,0.0051
2033.00,0.0051
2032.00,0.0051
2031.00,0.0051
2030.00,0.0051
2029.00,0.0051
2028.00,0.0051
2027.00,0.0051
2026.00,0.0052
2025.00,0.0052
2024.00,0.0053
2023.00,0.0054
2022.00,0.0054
2021.00,0.0054
2020.00,0.0053
2019.00,0.0053
2018.00,0.0052
2017.00,0.0051
2016.00,0.0051
2015.00,0.0051
2014.00,0.0051
2013.00,0.0051
2012.00,0.0050
2011.00,0.0050
2010.00,0.0050
2009.00,0.0050
2008.00,0.0051
2007.00,0.0051
2006.00,0.0052
2005.00,0.0052
2004.00,0.0053
2003.00,0.0053
2002.00,0.0052
2001.00,0.0052
2000.00,0.0051
1999.00,0.0051
1998.00,0.0051
1997.00,0.0051
1996.00,0.0052
1995.00,0.0052
1994.00,0.0051
1993.00,0.0051
1992.00,0.0051
1991.00,0.0050
1990.00,0.0050
1989.00,0.0051
1988.00,0.0051
1987.00,0.0051
1986.00,0.0051
1985.00,0.0051
1984.00,0.0050
1983.00,0.0050
1982.00,0.0049
1981.00,0.0049
1980.00,0.0049
1979.00,0.0050
1978.00,0.0051
1977.00,0.0052
1976.00,0.0052
1975.00,0.0051
1974.00,0.0051
1973.00,0.0051
1972.00,0.0051
1971.00,0.0051
1970.00,0.0052
1969.00,0.0052
1968.00,0.0052
1967.00,0.0052
1966.00,0.0052
1965.00,0.0052
1964.00,0.0052
1963.00,0.0052
1962.00,0.0052
1961.00,0.0052
1960.00,0.0052
1959.00,0.0052
1958.00,0.0052
1957.00,0.0052
1956.00,0.0052
1955.00,0.0052
1954.00,0.0051
1953.00,0.0051
1952.00,0.0051
1951.00,0.0052
1950.00,0.0052
1949.00,0.0052
1948.00,0.0052
1947.00,0.0052
1946.00,0.0052
1945.00,0.0052
1944.00,0.0052
1943.00,0.0052
1942.00,0.0052
1941.00,0.0052
1940.00,0.0051
1939.00,0.0051
1938.00,0.0052
1937.00,0.0052
1936.00,0.0052
1935.00,0.0052
1934.00,0.0052
1933.00,0.0052
1932.00,0.0052
1931.00,0.0052
1930.00,0.0052
1929.00,0.0052
1928.00,0.0052
1927.00,0.0051
1926.00,0.0051
1925.00,0.0051
1924.00,0.0051
1923.00,0.0051
1922.00,0.0051
1921.00,0.0050
1920.00,0.0050
1919.00,0.0049
1918.00,0.0049
1917.00,0.0050
1916.00,0.0050
1915.00,0.0050
1914.00,0.0050
1913.00,0.0050
1912.00,0.0050
1911.00,0.0050
1910.00,0.0050
1909.00,0.0051
1908.00,0.0051
1907.00,0.0050
1906.00,0.0050
1905.00,0.0050
1904.00,0.0050
1903.00,0.0050
1902.00,0.0050
1901.00,0.0050
1900.00,0.0050
1899.00,0.0049
1898.00,0.0049
1897.00,0.0050
1896.00,0.0050
1895.00,0.0050
1894.00,0.0050
1893.00,0.0050
1892.00,0.0049
1891.00,0.0049
1890.00,0.0050
1889.00,0.0050
1888.00,0.0050
1887.00,0.0049
1886.00,0.0049
1885.00,0.0049
1884.00,0.0049
1883.00,0.0049
1882.00,0.0049
1881.00,0.0049
1880.00,0.0049
1879.00,0.0049
1878.00,0.0049
1877.00,0.0049
1876.00,0.0049
1875.00,0.0049
1874.00,0.0048
1873.00,0.0048
1872.00,0.0048
1871.00,0.0047
1870.00,0.0047
1869.00,0.0047
1868.00,0.0048
1867.00,0.0048
1866.00,0.0047
1865.00,0.0047
1864.00,0.0048
1863.00,0.0048
1862.00,0.0048
1861.00,0.0048
1860.00,0.0048
1859.00,0.0048
1858.00,0.0048
1857.00,0.0048
1856.00,0.0048
1855.00,0.0048
1854.00,0.0047
1853.00,0.0047
1852.00,0.0047
1851.00,0.0047
1850.00,0.0047
1849.00,0.0047
1848.00,0.0047
1847.00,0.0047
1846.00,0.0046
1845.00,0.0046
1844.00,0.0046
1843.00,0.0046
1842.00,0.0046
1841.00,0.0045
1840.00,0.0045
1839.00,0.0046
1838.00,0.0046
1837.00,0.0046
1836.00,0.0046
1835.00,0.0046
1834.00,0.0046
1833.00,0.0045
1832.00,0.0045
1831.00,0.0046
1830.00,0.0046
1829.00,0.0046
1828.00,0.0045
1827.00,0.0045
1826.00,0.0044
1825.00,0.0045
1824.00,0.0045
1823.00,0.0045
1822.00,0.0045
1821.00,0.0045
1820.00,0.0045
1819.00,0.0045
1818.00,0.0045
1817.00,0.0045
1816.00,0.0045
1815.00,0.0045
1814.00,0.0044
1813.00,0.0044
1812.00,0.0043
1811.00,0.0043
1810.00,0.0043
1809.00,0.0043
1808.00,0.0043
1807.00,0.0043
1806.00,0.0043
1805.00,0.0043
1804.00,0.0043
1803.00,0.0043
1802.00,0.0042
1801.00,0.0042
1800.00,0.0041
1799.00,0.0041
1798.00,0.0041
1797.00,0.0041
1796.00,0.0041
1795.00,0.0040
1794.00,0.0040
1793.00,0.0040
1792.00,0.0040
1791.00,0.0040
1790.00,0.0040
1789.00,0.0040
1788.00,0.0040
1787.00,0.0040
1786.00,0.0040
1785.00,0.0040
1784.00,0.0040
1783.00,0.0040
1782.00,0.0040
1781.00,0.0040
1780.00,0.0040
1779.00,0.0040
1778.00,0.0039
1777.00,0.0039
1776.00,0.0039
1775.00,0.0039
1774.00,0.0039
1773.00,0.0038
1772.00,0.0038
1771.00,0.0038
1770.00,0.0038
1769.00,0.0038
1768.00,0.0038
1767.00,0.0038
1766.00,0.0038
1765.00,0.0038
1764.00,0.0039
1763.00,0.0039
1762.00,0.0040
1761.00,0.0040
1760.00,0.0039
1759.00,0.0039
1758.00,0.0039
1757.00,0.0039
1756.00,0.0039
1755.00,0.0039
1754.00,0.0039
1753.00,0.0038
1752.00,0.0037
1751.00,0.0037
1750.00,0.0038
1749.00,0.0039
1748.00,0.0040
1747.00,0.0041
1746.00,0.0043
1745.00,0.0044
1744.00,0.0046
1743.00,0.0047
1742.00,0.0047
1741.00,0.0047
1740.00,0.0047
1739.00,0.0047
1738.00,0.0047
1737.00,0.0045
1736.00,0.0043
1735.00,0.0041
1734.00,0.0041
1733.00,0.0040
1732.00,0.0040
1731.00,0.0039
1730.00,0.0039
1729.00,0.0039
1728.00,0.0039
1727.00,0.0039
1726.00,0.0038
1725.00,0.0038
1724.00,0.0038
1723.00,0.0037
1722.00,0.0037
1721.00,0.0037
1720.00,0.0036
1719.00,0.0035
1718.00,0.0035
1717.00,0.0034
1716.00,0.0035
1715.00,0.0035
1714.00,0.0035
1713.00,0.0035
1712.00,0.0036
1711.00,0.0037
1710.00,0.0038
1709.00,0.0038
1708.00,0.0040
1707.00,0.0041
1706.00,0.0044
1705.00,0.0047
1704.00,0.0050
1703.00,0.0052
1702.00,0.0053
1701.00,0.0055
1700.00,0.0060
1699.00,0.0064
1698.00,0.0065
1697.00,0.0067
1696.00,0.0070
1695.00,0.0072
1694.00,0.0074
1693.00,0.0075
1692.00,0.0076
1691.00,0.0077
1690.00,0.0079
1689.00,0.0081
1688.00,0.0083
1687.00,0.0085
1686.00,0.0086
1685.00,0.0088
1684.00,0.0092
1683.00,0.0095
1682.00,0.0097
1681.00,0.0099
1680.00,0.0102
1679.00,0.0104
1678.00,0.0106
1677.00,0.0109
1676.00,0.0111
1675.00,0.0113
1674.00,0.0116
1673.00,0.0118
1672.00,0.0120
1671.00,0.0122
1670.00,0.0126
1669.00,0.0130
1668.00,0.0133
1667.00,0.0136
1666.00,0.0138
1665.00,0.0141
1664.00,0.0144
1663.00,0.0147
1662.00,0.0150
1661.00,0.0153
1660.00,0.0155
1659.00,0.0158
1658.00,0.0161
1657.00,0.0164
1656.00,0.0167
1655.00,0.0170
1654.00,0.0172
1653.00,0.0174
1652.00,0.0174
1651.00,0.0174
1650.00,0.0174
1649.00,0.0174
1648.00,0.0173
1647.00,0.0173
1646.00,0.0173
1645.00,0.0174
1644.00,0.0175
1643.00,0.0176
1642.00,0.0176
1641.00,0.0177
1640.00,0.0177
1639.00,0.0177
1638.00,0.0177
1637.00,0.0177
1636.00,0.0177
1635.00,0.0178
1634.00,0.0179
1633.00,0.0181
1632.00,0.0182
1631.00,0.0183
1630.00,0.0184
1629.00,0.0185
1628.00,0.0187
1627.00,0.0189
1626.00,0.0191
1625.00,0.0193
1624.00,0.0194
1623.00,0.0196
1622.00,0.0198
1621.00,0.0200
1620.00,0.0202
1619.00,0.0202
1618.00,0.0203
1617.00,0.0202
1616.00,0.0200
1615.00,0.0198
1614.00,0.0197
1613.00,0.0195
1612.00,0.0192
1611.00,0.0188
1610.00,0.0184
1609.00,0.0181
1608.00,0.0177
1607.00,0.0172
1606.00,0.0169
1605.00,0.0165
1604.00,0.0161
1603.00,0.0157
1602.00,0.0154
1601.00,0.0151
1600.00,0.0147
1599.00,0.0144
1598.00,0.0141
1597.00,0.0138
1596.00,0.0136
1595.00,0.0133
1594.00,0.0130
1593.00,0.0129
1592.00,0.0126
1591.00,0.0124
1590.00,0.0122
1589.00,0.0121
1588.00,0.0119
1587.00,0.0117
1586.00,0.0116
1585.00,0.0115
1584.00,0.0113
1583.00,0.0112
1582.00,0.0111
1581.00,0.0111
1580.00,0.0111
1579.00,0.0110
1578.00,0.0109
1577.00,0.0109
1576.00,0.0108
1575.00,0.0106
1574.00,0.0107
1573.00,0.0107
1572.00,0.0107
1571.00,0.0107
1570.00,0.0107
1569.00,0.0108
1568.00,0.0107
1567.00,0.0107
1566.00,0.0109
1565.00,0.0110
1564.00,0.0113
1563.00,0.0115
1562.00,0.0117
1561.00,0.0119
1560.00,0.0119
1559.00,0.0120
1558.00,0.0123
1557.00,0.0126
1556.00,0.0128
1555.00,0.0131
1554.00,0.0133
1553.00,0.0136
1552.00,0.0138
1551.00,0.0141
1550.00,0.0144
1549.00,0.0146
1548.00,0.0148
1547.00,0.0150
1546.00,0.0153
1545.00,0.0155
1544.00,0.0158
1543.00,0.0160
1542.00,0.0161
1541.00,0.0161
1540.00,0.0162
1539.00,0.0164
1538.00,0.0166
1537.00,0.0168
1536.00,0.0170
1535.00,0.0172
1534.00,0.0173
1533.00,0.0175
1532.00,0.0176
1531.00,0.0177
1530.00,0.0178
1529.00,0.0179
1528.00,0.0180
1527.00,0.0182
1526.00,0.0183
1525.00,0.0184
1524.00,0.0185
1523.00,0.0186
1522.00,0.0186
1521.00,0.0187
1520.00,0.0188
1519.00,0.0189
1518.00,0.0190
1517.00,0.0190
1516.00,0.0190
1515.00,0.0189
1514.00,0.0189
1513.00,0.0189
1512.00,0.0188
1511.00,0.0188
1510.00,0.0188
1509.00,0.0186
1508.00,0.0183
1507.00,0.0180
1506.00,0.0176
1505.00,0.0173
1504.00,0.0172
1503.00,0.0171
1502.00,0.0169
1501.00,0.0167
1500.00,0.0165
1499.00,0.0163
1498.00,0.0160
1497.00,0.0156
1496.00,0.0153
1495.00,0.0151
1494.00,0.0149
1493.00,0.0147
1492.00,0.0145
1491.00,0.0142
1490.00,0.0140
1489.00,0.0137
1488.00,0.0135
1487.00,0.0133
1486.00,0.0131
1485.00,0.0129
1484.00,0.0128
1483.00,0.0126
1482.00,0.0124
1481.00,0.0123
1480.00,0.0121
1479.00,0.0120
1478.00,0.0119
1477.00,0.0118
1476.00,0.0117
1475.00,0.0116
1474.00,0.0115
1473.00,0.0114
1472.00,0.0115
1471.00,0.0117
1470.00,0.0119
1469.00,0.0121
1468.00,0.0122
1467.00,0.0123
1466.00,0.0123
1465.00,0.0121
1464.00,0.0120
1463.00,0.0120
1462.00,0.0120
1461.00,0.0121
1460.00,0.0121
1459.00,0.0123
1458.00,0.0124
1457.00,0.0124
1456.00,0.0124
1455.00,0.0125
1454.00,0.0126
1453.00,0.0126
1452.00,0.0126
1451.00,0.0127
1450.00,0.0127
1449.00,0.0127
1448.00,0.0127
1447.00,0.0127
1446.00,0.0127
1445.00,0.0126
1444.00,0.0125
1443.00,0.0124
1442.00,0.0124
1441.00,0.0123
1440.00,0.0122
1439.00,0.0121
1438.00,0.0120
1437.00,0.0119
1436.00,0.0117
1435.00,0.0116
1434.00,0.0115
1433.00,0.0114
1432.00,0.0113
1431.00,0.0113
1430.00,0.0113
1429.00,0.0112
1428.00,0.0111
1427.00,0.0111
1426.00,0.0111
1425.00,0.0111
1424.00,0.0110
1423.00,0.0111
1422.00,0.0112
1421.00,0.0112
1420.00,0.0113
1419.00,0.0113
1418.00,0.0114
1417.00,0.0114
1416.00,0.0114
1415.00,0.0115
1414.00,0.0116
1413.00,0.0116
1412.00,0.0117
1411.00,0.0117
1410.00,0.0118
1409.00,0.0118
1408.00,0.0118
1407.00,0.0117
1406.00,0.0117
1405.00,0.0117
1404.00,0.0117
1403.00,0.0117
1402.00,0.0117
1401.00,0.0117
1400.00,0.0116
1399.00,0.0116
1398.00,0.0116
1397.00,0.0116
1396.00,0.0116
1395.00,0.0116
1394.00,0.0117
1393.00,0.0117
1392.00,0.0116
1391.00,0.0116
1390.00,0.0117
1389.00,0.0117
1388.00,0.0118
1387.00,0.0117
1386.00,0.0117
1385.00,0.0117
1384.00,0.0117
1383.00,0.0117
1382.00,0.0118
1381.00,0.0118
1380.00,0.0117
1379.00,0.0117
1378.00,0.0117
1377.00,0.0116
1376.00,0.0116
1375.00,0.0115
1374.00,0.0115
1373.00,0.0115
1372.00,0.0115
1371.00,0.0115
1370.00,0.0115
1369.00,0.0115
1368.00,0.0114
1367.00,0.0114
1366.00,0.0113
1365.00,0.0113
1364.00,0.0112
1363.00,0.0112
1362.00,0.0111
1361.00,0.0111
1360.00,0.0110
1359.00,0.0109
1358.00,0.0109
1357.00,0.0109
1356.00,0.0108
1355.00,0.0108
1354.00,0.0108
1353.00,0.0108
1352.00,0.0108
1351.00,0.0108
1350.00,0.0108
1349.00,0.0108
1348.00,0.0108
1347.00,0.0107
1346.00,0.0107
1345.00,0.0107
1344.00,0.0107
1343.00,0.0107
1342.00,0.0107
1341.00,0.0108
1340.00,0.0108
1339.00,0.0108
1338.00,0.0108
1337.00,0.0107
1336.00,0.0107
1335.00,0.0106
1334.00,0.0106
1333.00,0.0106
1332.00,0.0106
1331.00,0.0106
1330.00,0.0106
1329.00,0.0106
1328.00,0.0105
1327.00,0.0105
1326.00,0.0105
1325.00,0.0105
1324.00,0.0105
1323.00,0.0105
1322.00,0.0105
1321.00,0.0105
1320.00,0.0105
1319.00,0.0105
1318.00,0.0105
1317.00,0.0106
1316.00,0.0106
1315.00,0.0106
1314.00,0.0106
1313.00,0.0106
1312.00,0.0106
1311.00,0.0106
1310.00,0.0107
1309.00,0.0107
1308.00,0.0107
1307.00,0.0107
1306.00,0.0107
1305.00,0.0107
1304.00,0.0107
1303.00,0.0107
1302.00,0.0107
1301.00,0.0107
1300.00,0.0106
1299.00,0.0106
1298.00,0.0106
1297.00,0.0106
1296.00,0.0106
1295.00,0.0106
1294.00,0.0106
1293.00,0.0106
1292.00,0.0105
1291.00,0.0105
1290.00,0.0105
1289.00,0.0105
1288.00,0.0105
1287.00,0.0104
1286.00,0.0104
1285.00,0.0104
1284.00,0.0104
1283.00,0.0104
1282.00,0.0104
1281.00,0.0104
1280.00,0.0104
1279.00,0.0103
1278.00,0.0103
1277.00,0.0103
1276.00,0.0103
1275.00,0.0103
1274.00,0.0103
1273.00,0.0103
1272.00,0.0103
1271.00,0.0103
1270.00,0.0103
1269.00,0.0103
1268.00,0.0103
1267.00,0.0103
1266.00,0.0103
1265.00,0.0103
1264.00,0.0104
1263.00,0.0104
1262.00,0.0104
1261.00,0.0104
1260.00,0.0105
1259.00,0.0105
1258.00,0.0105
1257.00,0.0106
1256.00,0.0107
1255.00,0.0107
1254.00,0.0108
1253.00,0.0109
1252.00,0.0110
1251.00,0.0110
1250.00,0.0111
1249.00,0.0112
1248.00,0.0112
1247.00,0.0113
1246.00,0.0113
1245.00,0.0114
1244.00,0.0114
1243.00,0.0114
1242.00,0.0114
1241.00,0.0115
1240.00,0.0115
1239.00,0.0115
1238.00,0.0116
1237.00,0.0116
1236.00,0.0116
1235.00,0.0116
1234.00,0.0116
1233.00,0.0116
1232.00,0.0116
1231.00,0.0116
1230.00,0.0116
1229.00,0.0116
1228.00,0.0116
1227.00,0.0115
1226.00,0.0115
1225.00,0.0115
1224.00,0.0114
1223.00,0.0114
1222.00,0.0114
1221.00,0.0113
1220.00,0.0113
1219.00,0.0112
1218.00,0.0112
1217.00,0.0112
1216.00,0.0111
1215.00,0.0110
1214.00,0.0110
1213.00,0.0110
1212.00,0.0109
1211.00,0.0108
1210.00,0.0108
1209.00,0.0107
1208.00,0.0106
1207.00,0.0106
1206.00,0.0105
1205.00,0.0105
1204.00,0.0104
1203.00,0.0103
1202.00,0.0103
1201.00,0.0102
1200.00,0.0101
1199.00,0.0101
1198.00,0.0100
1197.00,0.0099
1196.00,0.0099
1195.00,0.0098
1194.00,0.0098
1193.00,0.0097
1192.00,0.0097
1191.00,0.0097
1190.00,0.0096
1189.00,0.0096
1188.00,0.0096
1187.00,0.0096
1186.00,0.0095
1185.00,0.0095
1184.00,0.0095
1183.00,0.0094
1182.00,0.0094
1181.00,0.0095
1180.00,0.0095
1179.00,0.0095
1178.00,0.0096
1177.00,0.0096
1176.00,0.0097
1175.00,0.0097
1174.00,0.0098
1173.00,0.0099
1172.00,0.0099
1171.00,0.0100
1170.00,0.0101
1169.00,0.0102
1168.00,0.0102
1167.00,0.0102
1166.00,0.0103
1165.00,0.0103
1164.00,0.0103
1163.00,0.0103
1162.00,0.0103
1161.00,0.0103
1160.00,0.0103
1159.00,0.0102
1158.00,0.0102
1157.00,0.0101
1156.00,0.0101
1155.00,0.0100
1154.00,0.0099
1153.00,0.0098
1152.00,0.0098
1151.00,0.0097
1150.00,0.0096
1149.00,0.0096
1148.00,0.0095
1147.00,0.0094
1146.00,0.0094
1145.00,0.0094
1144.00,0.0093
1143.00,0.0093
1142.00,0.0092
1141.00,0.0092
1140.00,0.0092
1139.00,0.0092
1138.00,0.0091
1137.00,0.0091
1136.00,0.0091
1135.00,0.0091
1134.00,0.0091
1133.00,0.0090
1132.00,0.0090
1131.00,0.0090
1130.00,0.0090
1129.00,0.0090
1128.00,0.0090
1127.00,0.0090
1126.00,0.0090
1125.00,0.0090
1124.00,0.0089
1123.00,0.0089
1122.00,0.0089
1121.00,0.0089
1120.00,0.0089
1119.00,0.0089
1118.00,0.0089
1117.00,0.0090
1116.00,0.0089
1115.00,0.0089
1114.00,0.0089
1113.00,0.0089
1112.00,0.0089
1111.00,0.0089
1110.00,0.0089
1109.00,0.0089
1108.00,0.0089
1107.00,0.0089
1106.00,0.0089
1105.00,0.0089
1104.00,0.0089
1103.00,0.0089
1102.00,0.0089
1101.00,0.0089
1100.00,0.0089
1099.00,0.0089
1098.00,0.0089
1097.00,0.0089
1096.00,0.0089
1095.00,0.0090
1094.00,0.0090
1093.00,0.0091
1092.00,0.0091
1091.00,0.0092
1090.00,0.0092
1089.00,0.0093
1088.00,0.0094
1087.00,0.0095
1086.00,0.0096
1085.00,0.0097
1084.00,0.0098
1083.00,0.0099
1082.00,0.0100
1081.00,0.0101
1080.00,0.0102
1079.00,0.0103
1078.00,0.0104
1077.00,0.0105
1076.00,0.0106
1075.00,0.0107
1074.00,0.0107
1073.00,0.0108
1072.00,0.0109
1071.00,0.0109
1070.00,0.0110
1069.00,0.0110
1068.00,0.0111
1067.00,0.0111
1066.00,0.0112
1065.00,0.0112
1064.00,0.0112
1063.00,0.0112
1062.00,0.0113
1061.00,0.0112
1060.00,0.0112
1059.00,0.0111
1058.00,0.0111
1057.00,0.0111
1056.00,0.0111
1055.00,0.0111
1054.00,0.0111
1053.00,0.0110
1052.00,0.0110
1051.00,0.0110
1050.00,0.0110
1049.00,0.0110
1048.00,0.0109
1047.00,0.0109
1046.00,0.0109
1045.00,0.0109
1044.00,0.0108
1043.00,0.0107
1042.00,0.0107
1041.00,0.0106
1040.00,0.0105
1039.00,0.0104
1038.00,0.0104
1037.00,0.0103
1036.00,0.0103
1035.00,0.0102
1034.00,0.0102
1033.00,0.0102
1032.00,0.0101
1031.00,0.0100
1030.00,0.0100
1029.00,0.0099
1028.00,0.0098
1027.00,0.0097
1026.00,0.0097
1025.00,0.0096
1024.00,0.0095
1023.00,0.0094
1022.00,0.0093
1021.00,0.0092
1020.00,0.0091
1019.00,0.0090
1018.00,0.0090
1017.00,0.0089
1016.00,0.0089
1015.00,0.0088
1014.00,0.0087
1013.00,0.0087
1012.00,0.0087
1011.00,0.0086
1010.00,0.0086
1009.00,0.0086
1008.00,0.0085
1007.00,0.0085
1006.00,0.0085
1005.00,0.0084
1004.00,0.0083
1003.00,0.0083
1002.00,0.0082
1001.00,0.0082
1000.00,0.0082
999.00,0.0082
998.00,0.0082
997.00,0.0081
996.00,0.0081
995.00,0.0080
994.00,0.0080
993.00,0.0080
992.00,0.0080
991.00,0.0080
990.00,0.0080
989.00,0.0080
988.00,0.0079
987.00,0.0079
986.00,0.0079
985.00,0.0079
984.00,0.0078
983.00,0.0078
982.00,0.0078
981.00,0.0078
980.00,0.0078
979.00,0.0078
978.00,0.0078
977.00,0.0078
976.00,0.0078
975.00,0.0078
974.00,0.0078
973.00,0.0078
972.00,0.0078
971.00,0.0078
970.00,0.0078
969.00,0.0079
968.00,0.0079
967.00,0.0079
966.00,0.0079
965.00,0.0079
964.00,0.0079
963.00,0.0079
962.00,0.0079
961.00,0.0079
960.00,0.0079
959.00,0.0079
958.00,0.0079
957.00,0.0079
956.00,0.0078
955.00,0.0078
954.00,0.0077
953.00,0.0077
952.00,0.0077
951.00,0.0076
950.00,0.0076
949.00,0.0076
948.00,0.0076
947.00,0.0076
946.00,0.0076
945.00,0.0076
944.00,0.0075
943.00,0.0075
942.00,0.0075
941.00,0.0075
940.00,0.0075
939.00,0.0074
938.00,0.0075
937.00,0.0075
936.00,0.0075
935.00,0.0075
934.00,0.0075
933.00,0.0075
932.00,0.0075
931.00,0.0075
930.00,0.0075
929.00,0.0075
928.00,0.0075
927.00,0.0074
926.00,0.0074
925.00,0.0074
924.00,0.0074
923.00,0.0073
922.00,0.0073
921.00,0.0073
920.00,0.0073
919.00,0.0073
918.00,0.0073
917.00,0.0073
916.00,0.0072
915.00,0.0072
914.00,0.0072
913.00,0.0072
912.00,0.0071
911.00,0.0071
910.00,0.0071
909.00,0.0072
908.00,0.0071
907.00,0.0071
906.00,0.0072
905.00,0.0072
904.00,0.0072
903.00,0.0072
902.00,0.0072
901.00,0.0072
900.00,0.0072
899.00,0.0072
898.00,0.0072
897.00,0.0072
896.00,0.0072
895.00,0.0071
894.00,0.0072
893.00,0.0071
892.00,0.0071
891.00,0.0071
890.00,0.0071
889.00,0.0071
888.00,0.0070
887.00,0.0069
886.00,0.0069
885.00,0.0069
884.00,0.0069
883.00,0.0068
882.00,0.0069
881.00,0.0069
880.00,0.0069
879.00,0.0069
878.00,0.0069
877.00,0.0069
876.00,0.0069
875.00,0.0068
874.00,0.0069
873.00,0.0069
872.00,0.0068
871.00,0.0068
870.00,0.0068
869.00,0.0068
868.00,0.0068
867.00,0.0067
866.00,0.0067
865.00,0.0067
864.00,0.0067
863.00,0.0067
862.00,0.0067
861.00,0.0067
860.00,0.0066
859.00,0.0066
858.00,0.0066
857.00,0.0067
856.00,0.0066
855.00,0.0066
854.00,0.0066
853.00,0.0066
852.00,0.0066
851.00,0.0066
850.00,0.0066
849.00,0.0067
848.00,0.0066
847.00,0.0066
846.00,0.0066
845.00,0.0066
844.00,0.0066
843.00,0.0066
842.00,0.0066
841.00,0.0066
840.00,0.0066
839.00,0.0066
838.00,0.0067
837.00,0.0067
836.00,0.0067
835.00,0.0067
834.00,0.0067
833.00,0.0068
832.00,0.0068
831.00,0.0068
830.00,0.0068
829.00,0.0069
828.00,0.0069
827.00,0.0069
826.00,0.0069
825.00,0.0070
824.00,0.0069
823.00,0.0069
822.00,0.0070
821.00,0.0070
820.00,0.0070
819.00,0.0070
818.00,0.0070
817.00,0.0071
816.00,0.0071
815.00,0.0071
814.00,0.0071
813.00,0.0072
812.00,0.0072
811.00,0.0072
810.00,0.0072
809.00,0.0072
808.00,0.0072
807.00,0.0072
806.00,0.0073
805.00,0.0073
804.00,0.0073
803.00,0.0073
802.00,0.0073
801.00,0.0074
800.00,0.0073
799.00,0.0073
798.00,0.0074
797.00,0.0074
796.00,0.0074
795.00,0.0074
794.00,0.0075
793.00,0.0075
792.00,0.0075
791.00,0.0076
790.00,0.0077
789.00,0.0077
788.00,0.0077
787.00,0.0078
786.00,0.0078
785.00,0.0079
784.00,0.0079
783.00,0.0079
782.00,0.0080
781.00,0.0080
780.00,0.0081
779.00,0.0081
778.00,0.0082
777.00,0.0083
776.00,0.0083
775.00,0.0083
774.00,0.0084
773.00,0.0084
772.00,0.0085
771.00,0.0085
770.00,0.0086
769.00,0.0086
768.00,0.0086
767.00,0.0086
766.00,0.0087
765.00,0.0088
764.00,0.0088
763.00,0.0088
762.00,0.0089
761.00,0.0089
760.00,0.0089
759.00,0.0089
758.00,0.0090
757.00,0.0090
756.00,0.0091
755.00,0.0091
754.00,0.0092
753.00,0.0092
752.00,0.0093
751.00,0.0093
750.00,0.0094
749.00,0.0095
748.00,0.0094
747.00,0.0094
746.00,0.0094
745.00,0.0095
744.00,0.0094
743.00,0.0094
742.00,0.0094
741.00,0.0094
740.00,0.0094
739.00,0.0094
738.00,0.0094
737.00,0.0095
736.00,0.0095
735.00,0.0095
734.00,0.0096
733.00,0.0096
732.00,0.0096
731.00,0.0096
730.00,0.0097
729.00,0.0098
728.00,0.0099
727.00,0.0100
726.00,0.0101
725.00,0.0102
724.00,0.0103
723.00,0.0104
722.00,0.0105
721.00,0.0106
720.00,0.0107
719.00,0.0108
718.00,0.0109
717.00,0.0110
716.00,0.0111
715.00,0.0112
714.00,0.0113
713.00,0.0115
712.00,0.0115
711.00,0.0116
710.00,0.0117
709.00,0.0119
708.00,0.0120
707.00,0.0121
706.00,0.0123
705.00,0.0124
704.00,0.0125
703.00,0.0126
702.00,0.0127
701.00,0.0129
700.00,0.0129
699.00,0.0130
698.00,0.0131
697.00,0.0131
696.00,0.0131
695.00,0.0131
694.00,0.0131
693.00,0.0131
692.00,0.0131
691.00,0.0130
690.00,0.0131
689.00,0.0131
688.00,0.0131
687.00,0.0131
686.00,0.0132
685.00,0.0132
684.00,0.0132
683.00,0.0132
682.00,0.0133
681.00,0.0134
680.00,0.0134
679.00,0.0134
678.00,0.0135
677.00,0.0135
676.00,0.0135
675.00,0.0135
674.00,0.0135
673.00,0.0136
672.00,0.0136
671.00,0.0135
670.00,0.0134
669.00,0.0133
668.00,0.0132
667.00,0.0132
666.00,0.0134
665.00,0.0137
664.00,0.0137
663.00,0.0137
662.00,0.0138
661.00,0.0139
660.00,0.0139
659.00,0.0139
658.00,0.0140
657.00,0.0140
656.00,0.0140
655.00,0.0140
654.00,0.0140
653.00,0.0141
652.00,0.0141
651.00,0.0141
650.00,0.0142
649.00,0.0142
648.00,0.0142
647.00,0.0142
646.00,0.0143
645.00,0.0144
644.00,0.0144
643.00,0.0144
642.00,0.0145
641.00,0.0145
640.00,0.0145
639.00,0.0145
638.00,0.0146
637.00,0.0147
636.00,0.0147
635.00,0.0147
634.00,0.0148
633.00,0.0149
632.00,0.0149
631.00,0.0149
630.00,0.0149
629.00,0.0150
628.00,0.0150
627.00,0.0150
626.00,0.0150
625.00,0.0151
624.00,0.0151
623.00,0.0151
622.00,0.0152
621.00,0.0153
620.00,0.0152
619.00,0.0151
618.00,0.0152
617.00,0.0152
616.00,0.0152
615.00,0.0151
614.00,0.0152
613.00,0.0152
612.00,0.0151
611.00,0.0151
610.00,0.0151
609.00,0.0151
608.00,0.0150
607.00,0.0150
606.00,0.0150
605.00,0.0151
604.00,0.0150
603.00,0.0150
602.00,0.0150
601.00,0.0150
600.00,0.0150
599.00,0.0150
598.00,0.0151
597.00,0.0151
596.00,0.0151
595.00,0.0151
594.00,0.0152
593.00,0.0152
592.00,0.0151
591.00,0.0150
590.00,0.0151
589.00,0.0152
588.00,0.0152
587.00,0.0152
586.00,0.0152
585.00,0.0153
584.00,0.0152
583.00,0.0152
582.00,0.0153
581.00,0.0153
580.00,0.0153
579.00,0.0152
578.00,0.0153
577.00,0.0153
576.00,0.0152
575.00,0.0151
574.00,0.0152
573.00,0.0153
572.00,0.0153
571.00,0.0153
570.00,0.0155
569.00,0.0156
568.00,0.0156
567.00,0.0156
566.00,0.0157
565.00,0.0158
564.00,0.0157
563.00,0.0155
562.00,0.0155
561.00,0.0156
560.00,0.0155
559.00,0.0155
558.00,0.0157
557.00,0.0158
556.00,0.0158
555.00,0.0157
554.00,0.0158
553.00,0.0159
552.00,0.0158
551.00,0.0157
550.00,0.0157
549.00,0.0158
548.00,0.0157
547.00,0.0156
546.00,0.0158
545.00,0.0159
544.00,0.0158
543.00,0.0158
542.00,0.0159
541.00,0.0160
540.00,0.0160
539.00,0.0160
538.00,0.0160
537.00,0.0160
536.00,0.0159
535.00,0.0158
534.00,0.0159
533.00,0.0161
532.00,0.0160
531.00,0.0160
530.00,0.0162
529.00,0.0163
528.00,0.0161
527.00,0.0159
526.00,0.0159
525.00,0.0160
524.00,0.0161
523.00,0.0162
522.00,0.0164
521.00,0.0165
520.00,0.0164
519.00,0.0163
518.00,0.0164
517.00,0.0164
516.00,0.0162
515.00,0.0161
514.00,0.0162
513.00,0.0163
512.00,0.0162
511.00,0.0161
510.00,0.0162
509.00,0.0162
508.00,0.0160
507.00,0.0158
506.00,0.0158
505.00,0.0159
504.00,0.0157
503.00,0.0155
502.00,0.0156
501.00,0.0156
500.00,0.0155
499.00,0.0155
498.00,0.0157
497.00,0.0158
496.00,0.0157
495.00,0.0156
494.00,0.0157
493.00,0.0158
492.00,0.0157
491.00,0.0156
490.00,0.0157
489.00,0.0157
488.00,0.0156
487.00,0.0155
486.00,0.0156
485.00,0.0158
484.00,0.0157
483.00,0.0156
482.00,0.0158
481.00,0.0160
480.00,0.0158
479.00,0.0157
478.00,0.0158
477.00,0.0159
476.00,0.0156
475.00,0.0153
474.00,0.0154
473.00,0.0156
472.00,0.0155
471.00,0.0155
470.00,0.0159
469.00,0.0160
468.00,0.0157
467.00,0.0154
466.00,0.0155
465.00,0.0156
464.00,0.0154
463.00,0.0153
462.00,0.0154
461.00,0.0154
460.00,0.0149
459.00,0.0145
458.00,0.0147
457.00,0.0149
456.00,0.0149
455.00,0.0149
454.00,0.0152
453.00,0.0154
452.00,0.0151
451.00,0.0149
450.00,0.0151
449.00,0.0153
448.00,0.0151
447.00,0.0149
446.00,0.0151
445.00,0.0151
444.00,0.0147
443.00,0.0144
442.00,0.0145
441.00,0.0145
440.00,0.0141
439.00,0.0138
438.00,0.0139
437.00,0.0141
436.00,0.0139
435.00,0.0137
434.00,0.0139
433.00,0.0140
432.00,0.0136
431.00,0.0132
430.00,0.0132
429.00,0.0131
428.00,0.0126
427.00,0.0124
426.00,0.0128
425.00,0.0133
424.00,0.0130
423.00,0.0124
422.00,0.0123
421.00,0.0121
420.00,0.0114
419.00,0.0109
418.00,0.0115
417.00,0.0121
416.00,0.0118
415.00,0.0115
414.00,0.0120
413.00,0.0125
412.00,0.0122
411.00,0.0121
410.00,0.0126
409.00,0.0130
408.00,0.0123
407.00,0.0116
406.00,0.0119
405.00,0.0124
404.00,0.0119
403.00,0.0113
402.00,0.0118
401.00,0.0123
400.00,0.0115
