Created as New Dataset,Sample 655 By YargerLab Date Tuesday, June 10 2025
cm-1,A
4000.00,0.0041
3999.00,0.0041
3998.00,0.0041
3997.00,0.0041
3996.00,0.0041
3995.00,0.0041
3994.00,0.0041
3993.00,0.0041
3992.00,0.0042
3991.00,0.0042
3990.00,0.0041
3989.00,0.0041
3988.00,0.0041
3987.00,0.0041
3986.00,0.0041
3985.00,0.0041
3984.00,0.0041
3983.00,0.0041
3982.00,0.0041
3981.00,0.0040
3980.00,0.0040
3979.00,0.0040
3978.00,0.0040
3977.00,0.0040
3976.00,0.0040
3975.00,0.0040
3974.00,0.0040
3973.00,0.0040
3972.00,0.0040
3971.00,0.0041
3970.00,0.0041
3969.00,0.0041
3968.00,0.0041
3967.00,0.0041
3966.00,0.0041
3965.00,0.0041
3964.00,0.0041
3963.00,0.0041
3962.00,0.0041
3961.00,0.0041
3960.00,0.0041
3959.00,0.0041
3958.00,0.0042
3957.00,0.0042
3956.00,0.0041
3955.00,0.0041
3954.00,0.0041
3953.00,0.0041
3952.00,0.0041
3951.00,0.0041
3950.00,0.0041
3949.00,0.0042
3948.00,0.0043
3947.00,0.0043
3946.00,0.0044
3945.00,0.0043
3944.00,0.0043
3943.00,0.0042
3942.00,0.0041
3941.00,0.0041
3940.00,0.0041
3939.00,0.0042
3938.00,0.0042
3937.00,0.0042
3936.00,0.0042
3935.00,0.0043
3934.00,0.0044
3933.00,0.0044
3932.00,0.0044
3931.00,0.0043
3930.00,0.0043
3929.00,0.0043
3928.00,0.0043
3927.00,0.0042
3926.00,0.0042
3925.00,0.0041
3924.00,0.0041
3923.00,0.0042
3922.00,0.0043
3921.00,0.0044
3920.00,0.0045
3919.00,0.0045
3918.00,0.0045
3917.00,0.0044
3916.00,0.0044
3915.00,0.0043
3914.00,0.0043
3913.00,0.0042
3912.00,0.0042
3911.00,0.0041
3910.00,0.0041
3909.00,0.0041
3908.00,0.0041
3907.00,0.0041
3906.00,0.0042
3905.00,0.0043
3904.00,0.0046
3903.00,0.0049
3902.00,0.0052
3901.00,0.0052
3900.00,0.0051
3899.00,0.0050
3898.00,0.0048
3897.00,0.0048
3896.00,0.0047
3895.00,0.0046
3894.00,0.0044
3893.00,0.0042
3892.00,0.0042
3891.00,0.0042
3890.00,0.0043
3889.00,0.0045
3888.00,0.0047
3887.00,0.0048
3886.00,0.0048
3885.00,0.0047
3884.00,0.0046
3883.00,0.0046
3882.00,0.0047
3881.00,0.0046
3880.00,0.0045
3879.00,0.0045
3878.00,0.0045
3877.00,0.0046
3876.00,0.0047
3875.00,0.0046
3874.00,0.0045
3873.00,0.0045
3872.00,0.0046
3871.00,0.0048
3870.00,0.0049
3869.00,0.0048
3868.00,0.0048
3867.00,0.0049
3866.00,0.0050
3865.00,0.0049
3864.00,0.0048
3863.00,0.0047
3862.00,0.0048
3861.00,0.0048
3860.00,0.0048
3859.00,0.0046
3858.00,0.0044
3857.00,0.0040
3856.00,0.0038
3855.00,0.0038
3854.00,0.0039
3853.00,0.0041
3852.00,0.0045
3851.00,0.0047
3850.00,0.0048
3849.00,0.0049
3848.00,0.0049
3847.00,0.0048
3846.00,0.0048
3845.00,0.0048
3844.00,0.0048
3843.00,0.0048
3842.00,0.0048
3841.00,0.0048
3840.00,0.0048
3839.00,0.0048
3838.00,0.0048
3837.00,0.0048
3836.00,0.0048
3835.00,0.0048
3834.00,0.0048
3833.00,0.0048
3832.00,0.0048
3831.00,0.0048
3830.00,0.0047
3829.00,0.0047
3828.00,0.0046
3827.00,0.0046
3826.00,0.0045
3825.00,0.0046
3824.00,0.0047
3823.00,0.0048
3822.00,0.0049
3821.00,0.0047
3820.00,0.0046
3819.00,0.0047
3818.00,0.0048
3817.00,0.0049
3816.00,0.0048
3815.00,0.0046
3814.00,0.0044
3813.00,0.0044
3812.00,0.0044
3811.00,0.0043
3810.00,0.0043
3809.00,0.0043
3808.00,0.0044
3807.00,0.0045
3806.00,0.0046
3805.00,0.0047
3804.00,0.0048
3803.00,0.0049
3802.00,0.0049
3801.00,0.0047
3800.00,0.0046
3799.00,0.0047
3798.00,0.0048
3797.00,0.0048
3796.00,0.0047
3795.00,0.0045
3794.00,0.0044
3793.00,0.0043
3792.00,0.0043
3791.00,0.0042
3790.00,0.0041
3789.00,0.0040
3788.00,0.0040
3787.00,0.0040
3786.00,0.0040
3785.00,0.0040
3784.00,0.0040
3783.00,0.0041
3782.00,0.0042
3781.00,0.0043
3780.00,0.0043
3779.00,0.0043
3778.00,0.0042
3777.00,0.0042
3776.00,0.0042
3775.00,0.0042
3774.00,0.0042
3773.00,0.0042
3772.00,0.0043
3771.00,0.0044
3770.00,0.0044
3769.00,0.0044
3768.00,0.0044
3767.00,0.0045
3766.00,0.0046
3765.00,0.0046
3764.00,0.0046
3763.00,0.0046
3762.00,0.0047
3761.00,0.0047
3760.00,0.0047
3759.00,0.0047
3758.00,0.0047
3757.00,0.0047
3756.00,0.0048
3755.00,0.0048
3754.00,0.0050
3753.00,0.0051
3752.00,0.0051
3751.00,0.0052
3750.00,0.0054
3749.00,0.0055
3748.00,0.0055
3747.00,0.0055
3746.00,0.0056
3745.00,0.0056
3744.00,0.0056
3743.00,0.0054
3742.00,0.0054
3741.00,0.0055
3740.00,0.0056
3739.00,0.0056
3738.00,0.0057
3737.00,0.0058
3736.00,0.0057
3735.00,0.0056
3734.00,0.0056
3733.00,0.0056
3732.00,0.0055
3731.00,0.0053
3730.00,0.0051
3729.00,0.0050
3728.00,0.0050
3727.00,0.0050
3726.00,0.0049
3725.00,0.0048
3724.00,0.0048
3723.00,0.0048
3722.00,0.0048
3721.00,0.0047
3720.00,0.0046
3719.00,0.0045
3718.00,0.0045
3717.00,0.0044
3716.00,0.0044
3715.00,0.0045
3714.00,0.0047
3713.00,0.0048
3712.00,0.0048
3711.00,0.0048
3710.00,0.0048
3709.00,0.0048
3708.00,0.0048
3707.00,0.0047
3706.00,0.0045
3705.00,0.0044
3704.00,0.0044
3703.00,0.0043
3702.00,0.0042
3701.00,0.0041
3700.00,0.0041
3699.00,0.0041
3698.00,0.0041
3697.00,0.0041
3696.00,0.0041
3695.00,0.0041
3694.00,0.0042
3693.00,0.0043
3692.00,0.0043
3691.00,0.0043
3690.00,0.0043
3689.00,0.0044
3688.00,0.0045
3687.00,0.0045
3686.00,0.0045
3685.00,0.0044
3684.00,0.0044
3683.00,0.0044
3682.00,0.0044
3681.00,0.0044
3680.00,0.0045
3679.00,0.0046
3678.00,0.0048
3677.00,0.0050
3676.00,0.0051
3675.00,0.0051
3674.00,0.0051
3673.00,0.0051
3672.00,0.0052
3671.00,0.0052
3670.00,0.0050
3669.00,0.0048
3668.00,0.0047
3667.00,0.0046
3666.00,0.0046
3665.00,0.0045
3664.00,0.0043
3663.00,0.0042
3662.00,0.0042
3661.00,0.0042
3660.00,0.0042
3659.00,0.0042
3658.00,0.0043
3657.00,0.0044
3656.00,0.0045
3655.00,0.0047
3654.00,0.0049
3653.00,0.0051
3652.00,0.0054
3651.00,0.0055
3650.00,0.0055
3649.00,0.0056
3648.00,0.0056
3647.00,0.0056
3646.00,0.0054
3645.00,0.0051
3644.00,0.0049
3643.00,0.0047
3642.00,0.0045
3641.00,0.0044
3640.00,0.0043
3639.00,0.0043
3638.00,0.0043
3637.00,0.0043
3636.00,0.0044
3635.00,0.0045
3634.00,0.0046
3633.00,0.0046
3632.00,0.0046
3631.00,0.0048
3630.00,0.0050
3629.00,0.0051
3628.00,0.0052
3627.00,0.0052
3626.00,0.0053
3625.00,0.0053
3624.00,0.0051
3623.00,0.0050
3622.00,0.0048
3621.00,0.0047
3620.00,0.0046
3619.00,0.0046
3618.00,0.0048
3617.00,0.0050
3616.00,0.0051
3615.00,0.0052
3614.00,0.0053
3613.00,0.0052
3612.00,0.0053
3611.00,0.0054
3610.00,0.0055
3609.00,0.0055
3608.00,0.0053
3607.00,0.0051
3606.00,0.0050
3605.00,0.0050
3604.00,0.0049
3603.00,0.0049
3602.00,0.0049
3601.00,0.0049
3600.00,0.0049
3599.00,0.0049
3598.00,0.0050
3597.00,0.0050
3596.00,0.0050
3595.00,0.0049
3594.00,0.0049
3593.00,0.0050
3592.00,0.0051
3591.00,0.0052
3590.00,0.0053
3589.00,0.0054
3588.00,0.0053
3587.00,0.0052
3586.00,0.0052
3585.00,0.0052
3584.00,0.0052
3583.00,0.0052
3582.00,0.0051
3581.00,0.0049
3580.00,0.0048
3579.00,0.0047
3578.00,0.0046
3577.00,0.0046
3576.00,0.0047
3575.00,0.0047
3574.00,0.0047
3573.00,0.0048
3572.00,0.0049
3571.00,0.0051
3570.00,0.0054
3569.00,0.0056
3568.00,0.0057
3567.00,0.0057
3566.00,0.0056
3565.00,0.0056
3564.00,0.0055
3563.00,0.0054
3562.00,0.0053
3561.00,0.0052
3560.00,0.0051
3559.00,0.0050
3558.00,0.0050
3557.00,0.0050
3556.00,0.0050
3555.00,0.0050
3554.00,0.0050
3553.00,0.0050
3552.00,0.0050
3551.00,0.0051
3550.00,0.0052
3549.00,0.0053
3548.00,0.0054
3547.00,0.0055
3546.00,0.0055
3545.00,0.0055
3544.00,0.0054
3543.00,0.0054
3542.00,0.0054
3541.00,0.0053
3540.00,0.0053
3539.00,0.0053
3538.00,0.0053
3537.00,0.0053
3536.00,0.0052
3535.00,0.0052
3534.00,0.0052
3533.00,0.0052
3532.00,0.0053
3531.00,0.0053
3530.00,0.0053
3529.00,0.0054
3528.00,0.0054
3527.00,0.0055
3526.00,0.0056
3525.00,0.0056
3524.00,0.0057
3523.00,0.0057
3522.00,0.0057
3521.00,0.0058
3520.00,0.0059
3519.00,0.0059
3518.00,0.0058
3517.00,0.0057
3516.00,0.0056
3515.00,0.0055
3514.00,0.0055
3513.00,0.0055
3512.00,0.0055
3511.00,0.0055
3510.00,0.0055
3509.00,0.0056
3508.00,0.0056
3507.00,0.0057
3506.00,0.0057
3505.00,0.0057
3504.00,0.0057
3503.00,0.0057
3502.00,0.0058
3501.00,0.0058
3500.00,0.0058
3499.00,0.0058
3498.00,0.0058
3497.00,0.0058
3496.00,0.0058
3495.00,0.0058
3494.00,0.0057
3493.00,0.0057
3492.00,0.0057
3491.00,0.0057
3490.00,0.0057
3489.00,0.0058
3488.00,0.0058
3487.00,0.0058
3486.00,0.0059
3485.00,0.0059
3484.00,0.0059
3483.00,0.0059
3482.00,0.0059
3481.00,0.0059
3480.00,0.0060
3479.00,0.0060
3478.00,0.0060
3477.00,0.0060
3476.00,0.0059
3475.00,0.0059
3474.00,0.0059
3473.00,0.0060
3472.00,0.0060
3471.00,0.0060
3470.00,0.0060
3469.00,0.0060
3468.00,0.0061
3467.00,0.0061
3466.00,0.0061
3465.00,0.0061
3464.00,0.0061
3463.00,0.0061
3462.00,0.0061
3461.00,0.0062
3460.00,0.0062
3459.00,0.0063
3458.00,0.0064
3457.00,0.0064
3456.00,0.0065
3455.00,0.0064
3454.00,0.0064
3453.00,0.0063
3452.00,0.0062
3451.00,0.0062
3450.00,0.0063
3449.00,0.0063
3448.00,0.0064
3447.00,0.0064
3446.00,0.0064
3445.00,0.0064
3444.00,0.0064
3443.00,0.0064
3442.00,0.0064
3441.00,0.0064
3440.00,0.0065
3439.00,0.0065
3438.00,0.0065
3437.00,0.0065
3436.00,0.0064
3435.00,0.0064
3434.00,0.0064
3433.00,0.0065
3432.00,0.0065
3431.00,0.0065
3430.00,0.0065
3429.00,0.0065
3428.00,0.0066
3427.00,0.0066
3426.00,0.0066
3425.00,0.0066
3424.00,0.0066
3423.00,0.0066
3422.00,0.0066
3421.00,0.0066
3420.00,0.0067
3419.00,0.0067
3418.00,0.0068
3417.00,0.0068
3416.00,0.0068
3415.00,0.0068
3414.00,0.0068
3413.00,0.0068
3412.00,0.0069
3411.00,0.0068
3410.00,0.0068
3409.00,0.0068
3408.00,0.0068
3407.00,0.0068
3406.00,0.0069
3405.00,0.0069
3404.00,0.0069
3403.00,0.0069
3402.00,0.0070
3401.00,0.0071
3400.00,0.0071
3399.00,0.0071
3398.00,0.0072
3397.00,0.0072
3396.00,0.0072
3395.00,0.0071
3394.00,0.0071
3393.00,0.0071
3392.00,0.0072
3391.00,0.0072
3390.00,0.0072
3389.00,0.0072
3388.00,0.0072
3387.00,0.0072
3386.00,0.0072
3385.00,0.0073
3384.00,0.0073
3383.00,0.0073
3382.00,0.0073
3381.00,0.0074
3380.00,0.0074
3379.00,0.0074
3378.00,0.0074
3377.00,0.0075
3376.00,0.0075
3375.00,0.0075
3374.00,0.0075
3373.00,0.0076
3372.00,0.0076
3371.00,0.0076
3370.00,0.0076
3369.00,0.0076
3368.00,0.0077
3367.00,0.0077
3366.00,0.0078
3365.00,0.0078
3364.00,0.0079
3363.00,0.0079
3362.00,0.0080
3361.00,0.0080
3360.00,0.0080
3359.00,0.0080
3358.00,0.0080
3357.00,0.0080
3356.00,0.0080
3355.00,0.0080
3354.00,0.0081
3353.00,0.0082
3352.00,0.0082
3351.00,0.0082
3350.00,0.0082
3349.00,0.0082
3348.00,0.0083
3347.00,0.0083
3346.00,0.0083
3345.00,0.0084
3344.00,0.0084
3343.00,0.0085
3342.00,0.0085
3341.00,0.0085
3340.00,0.0086
3339.00,0.0086
3338.00,0.0087
3337.00,0.0087
3336.00,0.0087
3335.00,0.0088
3334.00,0.0087
3333.00,0.0087
3332.00,0.0088
3331.00,0.0088
3330.00,0.0089
3329.00,0.0089
3328.00,0.0090
3327.00,0.0091
3326.00,0.0091
3325.00,0.0091
3324.00,0.0091
3323.00,0.0092
3322.00,0.0092
3321.00,0.0092
3320.00,0.0093
3319.00,0.0093
3318.00,0.0094
3317.00,0.0094
3316.00,0.0094
3315.00,0.0095
3314.00,0.0095
3313.00,0.0096
3312.00,0.0097
3311.00,0.0097
3310.00,0.0098
3309.00,0.0098
3308.00,0.0098
3307.00,0.0098
3306.00,0.0098
3305.00,0.0099
3304.00,0.0099
3303.00,0.0099
3302.00,0.0099
3301.00,0.0099
3300.00,0.0100
3299.00,0.0101
3298.00,0.0101
3297.00,0.0102
3296.00,0.0102
3295.00,0.0102
3294.00,0.0102
3293.00,0.0102
3292.00,0.0102
3291.00,0.0102
3290.00,0.0102
3289.00,0.0102
3288.00,0.0102
3287.00,0.0102
3286.00,0.0102
3285.00,0.0102
3284.00,0.0102
3283.00,0.0102
3282.00,0.0102
3281.00,0.0101
3280.00,0.0101
3279.00,0.0101
3278.00,0.0100
3277.00,0.0100
3276.00,0.0101
3275.00,0.0101
3274.00,0.0101
3273.00,0.0100
3272.00,0.0100
3271.00,0.0099
3270.00,0.0097
3269.00,0.0096
3268.00,0.0095
3267.00,0.0095
3266.00,0.0095
3265.00,0.0095
3264.00,0.0095
3263.00,0.0094
3262.00,0.0094
3261.00,0.0093
3260.00,0.0093
3259.00,0.0092
3258.00,0.0092
3257.00,0.0092
3256.00,0.0091
3255.00,0.0091
3254.00,0.0090
3253.00,0.0090
3252.00,0.0089
3251.00,0.0089
3250.00,0.0089
3249.00,0.0089
3248.00,0.0088
3247.00,0.0088
3246.00,0.0088
3245.00,0.0088
3244.00,0.0087
3243.00,0.0087
3242.00,0.0087
3241.00,0.0086
3240.00,0.0086
3239.00,0.0085
3238.00,0.0085
3237.00,0.0084
3236.00,0.0084
3235.00,0.0084
3234.00,0.0084
3233.00,0.0084
3232.00,0.0083
3231.00,0.0083
3230.00,0.0082
3229.00,0.0082
3228.00,0.0082
3227.00,0.0082
3226.00,0.0081
3225.00,0.0081
3224.00,0.0081
3223.00,0.0080
3222.00,0.0080
3221.00,0.0080
3220.00,0.0080
3219.00,0.0080
3218.00,0.0080
3217.00,0.0080
3216.00,0.0079
3215.00,0.0079
3214.00,0.0079
3213.00,0.0078
3212.00,0.0078
3211.00,0.0078
3210.00,0.0078
3209.00,0.0077
3208.00,0.0077
3207.00,0.0077
3206.00,0.0077
3205.00,0.0076
3204.00,0.0076
3203.00,0.0076
3202.00,0.0075
3201.00,0.0075
3200.00,0.0075
3199.00,0.0075
3198.00,0.0075
3197.00,0.0075
3196.00,0.0074
3195.00,0.0074
3194.00,0.0073
3193.00,0.0073
3192.00,0.0072
3191.00,0.0072
3190.00,0.0071
3189.00,0.0071
3188.00,0.0071
3187.00,0.0071
3186.00,0.0070
3185.00,0.0070
3184.00,0.0070
3183.00,0.0070
3182.00,0.0070
3181.00,0.0070
3180.00,0.0069
3179.00,0.0069
3178.00,0.0069
3177.00,0.0069
3176.00,0.0069
3175.00,0.0069
3174.00,0.0069
3173.00,0.0068
3172.00,0.0067
3171.00,0.0067
3170.00,0.0067
3169.00,0.0067
3168.00,0.0067
3167.00,0.0067
3166.00,0.0066
3165.00,0.0066
3164.00,0.0066
3163.00,0.0066
3162.00,0.0065
3161.00,0.0065
3160.00,0.0065
3159.00,0.0065
3158.00,0.0064
3157.00,0.0064
3156.00,0.0064
3155.00,0.0064
3154.00,0.0064
3153.00,0.0064
3152.00,0.0064
3151.00,0.0064
3150.00,0.0063
3149.00,0.0063
3148.00,0.0063
3147.00,0.0062
3146.00,0.0063
3145.00,0.0063
3144.00,0.0063
3143.00,0.0063
3142.00,0.0064
3141.00,0.0063
3140.00,0.0063
3139.00,0.0062
3138.00,0.0062
3137.00,0.0062
3136.00,0.0061
3135.00,0.0061
3134.00,0.0061
3133.00,0.0061
3132.00,0.0061
3131.00,0.0061
3130.00,0.0061
3129.00,0.0062
3128.00,0.0061
3127.00,0.0061
3126.00,0.0061
3125.00,0.0061
3124.00,0.0061
3123.00,0.0061
3122.00,0.0061
3121.00,0.0062
3120.00,0.0062
3119.00,0.0063
3118.00,0.0063
3117.00,0.0063
3116.00,0.0064
3115.00,0.0064
3114.00,0.0065
3113.00,0.0065
3112.00,0.0066
3111.00,0.0067
3110.00,0.0069
3109.00,0.0070
3108.00,0.0072
3107.00,0.0073
3106.00,0.0074
3105.00,0.0075
3104.00,0.0076
3103.00,0.0076
3102.00,0.0077
3101.00,0.0077
3100.00,0.0076
3099.00,0.0076
3098.00,0.0075
3097.00,0.0075
3096.00,0.0074
3095.00,0.0075
3094.00,0.0076
3093.00,0.0078
3092.00,0.0080
3091.00,0.0083
3090.00,0.0086
3089.00,0.0090
3088.00,0.0095
3087.00,0.0100
3086.00,0.0105
3085.00,0.0109
3084.00,0.0113
3083.00,0.0115
3082.00,0.0115
3081.00,0.0114
3080.00,0.0111
3079.00,0.0108
3078.00,0.0105
3077.00,0.0102
3076.00,0.0100
3075.00,0.0098
3074.00,0.0097
3073.00,0.0097
3072.00,0.0097
3071.00,0.0099
3070.00,0.0101
3069.00,0.0104
3068.00,0.0107
3067.00,0.0111
3066.00,0.0116
3065.00,0.0121
3064.00,0.0126
3063.00,0.0131
3062.00,0.0135
3061.00,0.0138
3060.00,0.0139
3059.00,0.0138
3058.00,0.0136
3057.00,0.0132
3056.00,0.0127
3055.00,0.0122
3054.00,0.0117
3053.00,0.0112
3052.00,0.0108
3051.00,0.0104
3050.00,0.0102
3049.00,0.0099
3048.00,0.0097
3047.00,0.0096
3046.00,0.0095
3045.00,0.0094
3044.00,0.0094
3043.00,0.0095
3042.00,0.0096
3041.00,0.0098
3040.00,0.0101
3039.00,0.0104
3038.00,0.0107
3037.00,0.0112
3036.00,0.0118
3035.00,0.0125
3034.00,0.0133
3033.00,0.0143
3032.00,0.0154
3031.00,0.0166
3030.00,0.0179
3029.00,0.0191
3028.00,0.0202
3027.00,0.0211
3026.00,0.0216
3025.00,0.0216
3024.00,0.0212
3023.00,0.0203
3022.00,0.0191
3021.00,0.0177
3020.00,0.0162
3019.00,0.0147
3018.00,0.0134
3017.00,0.0122
3016.00,0.0112
3015.00,0.0104
3014.00,0.0099
3013.00,0.0095
3012.00,0.0092
3011.00,0.0089
3010.00,0.0088
3009.00,0.0087
3008.00,0.0086
3007.00,0.0087
3006.00,0.0087
3005.00,0.0088
3004.00,0.0090
3003.00,0.0091
3002.00,0.0092
3001.00,0.0092
3000.00,0.0090
2999.00,0.0088
2998.00,0.0086
2997.00,0.0083
2996.00,0.0080
2995.00,0.0077
2994.00,0.0075
2993.00,0.0072
2992.00,0.0071
2991.00,0.0069
2990.00,0.0069
2989.00,0.0068
2988.00,0.0068
2987.00,0.0067
2986.00,0.0067
2985.00,0.0067
2984.00,0.0067
2983.00,0.0067
2982.00,0.0068
2981.00,0.0068
2980.00,0.0069
2979.00,0.0069
2978.00,0.0070
2977.00,0.0070
2976.00,0.0070
2975.00,0.0070
2974.00,0.0070
2973.00,0.0071
2972.00,0.0071
2971.00,0.0072
2970.00,0.0072
2969.00,0.0072
2968.00,0.0073
2967.00,0.0073
2966.00,0.0074
2965.00,0.0075
2964.00,0.0076
2963.00,0.0077
2962.00,0.0078
2961.00,0.0080
2960.00,0.0081
2959.00,0.0082
2958.00,0.0083
2957.00,0.0084
2956.00,0.0086
2955.00,0.0088
2954.00,0.0090
2953.00,0.0093
2952.00,0.0095
2951.00,0.0098
2950.00,0.0101
2949.00,0.0104
2948.00,0.0108
2947.00,0.0112
2946.00,0.0116
2945.00,0.0120
2944.00,0.0125
2943.00,0.0130
2942.00,0.0135
2941.00,0.0140
2940.00,0.0146
2939.00,0.0151
2938.00,0.0158
2937.00,0.0164
2936.00,0.0171
2935.00,0.0179
2934.00,0.0187
2933.00,0.0194
2932.00,0.0202
2931.00,0.0209
2930.00,0.0216
2929.00,0.0223
2928.00,0.0229
2927.00,0.0235
2926.00,0.0241
2925.00,0.0245
2924.00,0.0250
2923.00,0.0253
2922.00,0.0257
2921.00,0.0259
2920.00,0.0260
2919.00,0.0261
2918.00,0.0260
2917.00,0.0258
2916.00,0.0254
2915.00,0.0249
2914.00,0.0243
2913.00,0.0237
2912.00,0.0230
2911.00,0.0224
2910.00,0.0217
2909.00,0.0211
2908.00,0.0205
2907.00,0.0200
2906.00,0.0194
2905.00,0.0188
2904.00,0.0182
2903.00,0.0176
2902.00,0.0171
2901.00,0.0165
2900.00,0.0160
2899.00,0.0155
2898.00,0.0151
2897.00,0.0146
2896.00,0.0142
2895.00,0.0138
2894.00,0.0135
2893.00,0.0132
2892.00,0.0129
2891.00,0.0126
2890.00,0.0123
2889.00,0.0121
2888.00,0.0119
2887.00,0.0117
2886.00,0.0116
2885.00,0.0114
2884.00,0.0112
2883.00,0.0110
2882.00,0.0108
2881.00,0.0107
2880.00,0.0105
2879.00,0.0103
2878.00,0.0102
2877.00,0.0100
2876.00,0.0099
2875.00,0.0098
2874.00,0.0097
2873.00,0.0096
2872.00,0.0095
2871.00,0.0095
2870.00,0.0094
2869.00,0.0093
2868.00,0.0093
2867.00,0.0093
2866.00,0.0094
2865.00,0.0095
2864.00,0.0096
2863.00,0.0097
2862.00,0.0099
2861.00,0.0101
2860.00,0.0104
2859.00,0.0107
2858.00,0.0111
2857.00,0.0115
2856.00,0.0119
2855.00,0.0123
2854.00,0.0127
2853.00,0.0132
2852.00,0.0136
2851.00,0.0139
2850.00,0.0141
2849.00,0.0142
2848.00,0.0141
2847.00,0.0139
2846.00,0.0135
2845.00,0.0130
2844.00,0.0124
2843.00,0.0118
2842.00,0.0113
2841.00,0.0107
2840.00,0.0101
2839.00,0.0095
2838.00,0.0090
2837.00,0.0085
2836.00,0.0081
2835.00,0.0078
2834.00,0.0075
2833.00,0.0073
2832.00,0.0071
2831.00,0.0069
2830.00,0.0067
2829.00,0.0066
2828.00,0.0065
2827.00,0.0064
2826.00,0.0063
2825.00,0.0062
2824.00,0.0062
2823.00,0.0061
2822.00,0.0061
2821.00,0.0061
2820.00,0.0061
2819.00,0.0061
2818.00,0.0060
2817.00,0.0060
2816.00,0.0059
2815.00,0.0059
2814.00,0.0058
2813.00,0.0058
2812.00,0.0058
2811.00,0.0058
2810.00,0.0058
2809.00,0.0058
2808.00,0.0058
2807.00,0.0058
2806.00,0.0058
2805.00,0.0057
2804.00,0.0057
2803.00,0.0057
2802.00,0.0056
2801.00,0.0056
2800.00,0.0056
2799.00,0.0056
2798.00,0.0055
2797.00,0.0055
2796.00,0.0054
2795.00,0.0054
2794.00,0.0054
2793.00,0.0055
2792.00,0.0055
2791.00,0.0054
2790.00,0.0054
2789.00,0.0054
2788.00,0.0053
2787.00,0.0053
2786.00,0.0053
2785.00,0.0053
2784.00,0.0053
2783.00,0.0053
2782.00,0.0053
2781.00,0.0053
2780.00,0.0053
2779.00,0.0053
2778.00,0.0053
2777.00,0.0053
2776.00,0.0053
2775.00,0.0052
2774.00,0.0052
2773.00,0.0052
2772.00,0.0051
2771.00,0.0051
2770.00,0.0051
2769.00,0.0051
2768.00,0.0051
2767.00,0.0051
2766.00,0.0051
2765.00,0.0050
2764.00,0.0050
2763.00,0.0050
2762.00,0.0050
2761.00,0.0050
2760.00,0.0050
2759.00,0.0050
2758.00,0.0050
2757.00,0.0050
2756.00,0.0050
2755.00,0.0050
2754.00,0.0050
2753.00,0.0050
2752.00,0.0050
2751.00,0.0049
2750.00,0.0049
2749.00,0.0050
2748.00,0.0050
2747.00,0.0049
2746.00,0.0049
2745.00,0.0049
2744.00,0.0049
2743.00,0.0049
2742.00,0.0049
2741.00,0.0049
2740.00,0.0049
2739.00,0.0049
2738.00,0.0049
2737.00,0.0048
2736.00,0.0048
2735.00,0.0048
2734.00,0.0048
2733.00,0.0048
2732.00,0.0048
2731.00,0.0048
2730.00,0.0048
2729.00,0.0048
2728.00,0.0048
2727.00,0.0048
2726.00,0.0048
2725.00,0.0048
2724.00,0.0048
2723.00,0.0048
2722.00,0.0048
2721.00,0.0048
2720.00,0.0048
2719.00,0.0048
2718.00,0.0048
2717.00,0.0048
2716.00,0.0048
2715.00,0.0048
2714.00,0.0048
2713.00,0.0048
2712.00,0.0047
2711.00,0.0047
2710.00,0.0047
2709.00,0.0047
2708.00,0.0047
2707.00,0.0047
2706.00,0.0047
2705.00,0.0047
2704.00,0.0047
2703.00,0.0047
2702.00,0.0047
2701.00,0.0047
2700.00,0.0047
2699.00,0.0047
2698.00,0.0047
2697.00,0.0047
2696.00,0.0047
2695.00,0.0047
2694.00,0.0047
2693.00,0.0047
2692.00,0.0047
2691.00,0.0047
2690.00,0.0047
2689.00,0.0047
2688.00,0.0047
2687.00,0.0047
2686.00,0.0047
2685.00,0.0047
2684.00,0.0047
2683.00,0.0047
2682.00,0.0047
2681.00,0.0047
2680.00,0.0047
2679.00,0.0047
2678.00,0.0047
2677.00,0.0047
2676.00,0.0047
2675.00,0.0046
2674.00,0.0046
2673.00,0.0046
2672.00,0.0046
2671.00,0.0045
2670.00,0.0045
2669.00,0.0046
2668.00,0.0046
2667.00,0.0046
2666.00,0.0047
2665.00,0.0047
2664.00,0.0047
2663.00,0.0047
2662.00,0.0048
2661.00,0.0048
2660.00,0.0048
2659.00,0.0048
2658.00,0.0048
2657.00,0.0048
2656.00,0.0048
2655.00,0.0048
2654.00,0.0048
2653.00,0.0048
2652.00,0.0048
2651.00,0.0049
2650.00,0.0049
2649.00,0.0049
2648.00,0.0049
2647.00,0.0049
2646.00,0.0048
2645.00,0.0048
2644.00,0.0048
2643.00,0.0048
2642.00,0.0048
2641.00,0.0048
2640.00,0.0047
2639.00,0.0047
2638.00,0.0048
2637.00,0.0048
2636.00,0.0049
2635.00,0.0049
2634.00,0.0049
2633.00,0.0049
2632.00,0.0048
2631.00,0.0048
2630.00,0.0048
2629.00,0.0048
2628.00,0.0048
2627.00,0.0048
2626.00,0.0047
2625.00,0.0047
2624.00,0.0047
2623.00,0.0047
2622.00,0.0047
2621.00,0.0047
2620.00,0.0047
2619.00,0.0047
2618.00,0.0047
2617.00,0.0046
2616.00,0.0046
2615.00,0.0046
2614.00,0.0046
2613.00,0.0046
2612.00,0.0046
2611.00,0.0046
2610.00,0.0047
2609.00,0.0047
2608.00,0.0047
2607.00,0.0047
2606.00,0.0047
2605.00,0.0046
2604.00,0.0046
2603.00,0.0046
2602.00,0.0046
2601.00,0.0045
2600.00,0.0045
2599.00,0.0045
2598.00,0.0045
2597.00,0.0045
2596.00,0.0045
2595.00,0.0045
2594.00,0.0045
2593.00,0.0045
2592.00,0.0044
2591.00,0.0044
2590.00,0.0044
2589.00,0.0044
2588.00,0.0044
2587.00,0.0044
2586.00,0.0045
2585.00,0.0044
2584.00,0.0044
2583.00,0.0044
2582.00,0.0044
2581.00,0.0044
2580.00,0.0044
2579.00,0.0043
2578.00,0.0042
2577.00,0.0041
2576.00,0.0040
2575.00,0.0041
2574.00,0.0042
2573.00,0.0042
2572.00,0.0043
2571.00,0.0042
2570.00,0.0042
2569.00,0.0042
2568.00,0.0041
2567.00,0.0041
2566.00,0.0042
2565.00,0.0042
2564.00,0.0042
2563.00,0.0042
2562.00,0.0042
2561.00,0.0042
2560.00,0.0042
2559.00,0.0042
2558.00,0.0042
2557.00,0.0041
2556.00,0.0041
2555.00,0.0040
2554.00,0.0040
2553.00,0.0040
2552.00,0.0041
2551.00,0.0041
2550.00,0.0042
2549.00,0.0042
2548.00,0.0041
2547.00,0.0041
2546.00,0.0041
2545.00,0.0041
2544.00,0.0041
2543.00,0.0040
2542.00,0.0040
2541.00,0.0040
2540.00,0.0040
2539.00,0.0040
2538.00,0.0040
2537.00,0.0041
2536.00,0.0041
2535.00,0.0040
2534.00,0.0040
2533.00,0.0040
2532.00,0.0040
2531.00,0.0040
2530.00,0.0041
2529.00,0.0041
2528.00,0.0041
2527.00,0.0041
2526.00,0.0041
2525.00,0.0041
2524.00,0.0041
2523.00,0.0041
2522.00,0.0041
2521.00,0.0041
2520.00,0.0041
2519.00,0.0041
2518.00,0.0041
2517.00,0.0041
2516.00,0.0041
2515.00,0.0041
2514.00,0.0041
2513.00,0.0042
2512.00,0.0042
2511.00,0.0041
2510.00,0.0040
2509.00,0.0039
2508.00,0.0039
2507.00,0.0039
2506.00,0.0039
2505.00,0.0039
2504.00,0.0039
2503.00,0.0039
2502.00,0.0039
2501.00,0.0039
2500.00,0.0039
2499.00,0.0039
2498.00,0.0038
2497.00,0.0038
2496.00,0.0038
2495.00,0.0038
2494.00,0.0038
2493.00,0.0038
2492.00,0.0038
2491.00,0.0039
2490.00,0.0039
2489.00,0.0039
2488.00,0.0039
2487.00,0.0039
2486.00,0.0039
2485.00,0.0039
2484.00,0.0039
2483.00,0.0039
2482.00,0.0038
2481.00,0.0038
2480.00,0.0037
2479.00,0.0038
2478.00,0.0038
2477.00,0.0038
2476.00,0.0038
2475.00,0.0038
2474.00,0.0038
2473.00,0.0037
2472.00,0.0037
2471.00,0.0037
2470.00,0.0037
2469.00,0.0037
2468.00,0.0037
2467.00,0.0037
2466.00,0.0038
2465.00,0.0038
2464.00,0.0038
2463.00,0.0038
2462.00,0.0038
2461.00,0.0038
2460.00,0.0038
2459.00,0.0038
2458.00,0.0038
2457.00,0.0038
2456.00,0.0038
2455.00,0.0038
2454.00,0.0037
2453.00,0.0037
2452.00,0.0037
2451.00,0.0037
2450.00,0.0037
2449.00,0.0037
2448.00,0.0037
2447.00,0.0038
2446.00,0.0037
2445.00,0.0037
2444.00,0.0037
2443.00,0.0037
2442.00,0.0037
2441.00,0.0037
2440.00,0.0037
2439.00,0.0036
2438.00,0.0037
2437.00,0.0037
2436.00,0.0037
2435.00,0.0037
2434.00,0.0036
2433.00,0.0036
2432.00,0.0036
2431.00,0.0035
2430.00,0.0035
2429.00,0.0035
2428.00,0.0035
2427.00,0.0035
2426.00,0.0035
2425.00,0.0035
2424.00,0.0035
2423.00,0.0035
2422.00,0.0035
2421.00,0.0035
2420.00,0.0035
2419.00,0.0035
2418.00,0.0035
2417.00,0.0035
2416.00,0.0035
2415.00,0.0035
2414.00,0.0035
2413.00,0.0035
2412.00,0.0035
2411.00,0.0035
2410.00,0.0035
2409.00,0.0034
2408.00,0.0034
2407.00,0.0034
2406.00,0.0034
2405.00,0.0034
2404.00,0.0034
2403.00,0.0034
2402.00,0.0034
2401.00,0.0034
2400.00,0.0034
2399.00,0.0034
2398.00,0.0034
2397.00,0.0034
2396.00,0.0033
2395.00,0.0033
2394.00,0.0033
2393.00,0.0033
2392.00,0.0033
2391.00,0.0033
2390.00,0.0033
2389.00,0.0033
2388.00,0.0033
2387.00,0.0033
2386.00,0.0032
2385.00,0.0032
2384.00,0.0032
2383.00,0.0033
2382.00,0.0033
2381.00,0.0033
2380.00,0.0033
2379.00,0.0033
2378.00,0.0033
2377.00,0.0033
2376.00,0.0032
2375.00,0.0032
2374.00,0.0032
2373.00,0.0032
2372.00,0.0032
2371.00,0.0032
2370.00,0.0033
2369.00,0.0033
2368.00,0.0033
2367.00,0.0033
2366.00,0.0033
2365.00,0.0033
2364.00,0.0033
2363.00,0.0034
2362.00,0.0035
2361.00,0.0036
2360.00,0.0036
2359.00,0.0036
2358.00,0.0035
2357.00,0.0034
2356.00,0.0034
2355.00,0.0034
2354.00,0.0035
2353.00,0.0035
2352.00,0.0036
2351.00,0.0036
2350.00,0.0036
2349.00,0.0036
2348.00,0.0036
2347.00,0.0036
2346.00,0.0036
2345.00,0.0036
2344.00,0.0036
2343.00,0.0037
2342.00,0.0037
2341.00,0.0037
2340.00,0.0038
2339.00,0.0038
2338.00,0.0038
2337.00,0.0039
2336.00,0.0039
2335.00,0.0038
2334.00,0.0037
2333.00,0.0037
2332.00,0.0037
2331.00,0.0037
2330.00,0.0038
2329.00,0.0039
2328.00,0.0040
2327.00,0.0042
2326.00,0.0042
2325.00,0.0043
2324.00,0.0043
2323.00,0.0043
2322.00,0.0043
2321.00,0.0043
2320.00,0.0042
2319.00,0.0041
2318.00,0.0041
2317.00,0.0040
2316.00,0.0040
2315.00,0.0040
2314.00,0.0041
2313.00,0.0040
2312.00,0.0040
2311.00,0.0040
2310.00,0.0039
2309.00,0.0039
2308.00,0.0039
2307.00,0.0039
2306.00,0.0039
2305.00,0.0038
2304.00,0.0038
2303.00,0.0038
2302.00,0.0038
2301.00,0.0038
2300.00,0.0038
2299.00,0.0038
2298.00,0.0038
2297.00,0.0039
2296.00,0.0040
2295.00,0.0041
2294.00,0.0042
2293.00,0.0042
2292.00,0.0042
2291.00,0.0041
2290.00,0.0040
2289.00,0.0040
2288.00,0.0040
2287.00,0.0040
2286.00,0.0040
2285.00,0.0039
2284.00,0.0039
2283.00,0.0038
2282.00,0.0038
2281.00,0.0038
2280.00,0.0037
2279.00,0.0037
2278.00,0.0037
2277.00,0.0037
2276.00,0.0037
2275.00,0.0037
2274.00,0.0037
2273.00,0.0036
2272.00,0.0036
2271.00,0.0036
2270.00,0.0036
2269.00,0.0037
2268.00,0.0037
2267.00,0.0037
2266.00,0.0036
2265.00,0.0036
2264.00,0.0037
2263.00,0.0037
2262.00,0.0037
2261.00,0.0036
2260.00,0.0035
2259.00,0.0034
2258.00,0.0034
2257.00,0.0034
2256.00,0.0034
2255.00,0.0034
2254.00,0.0034
2253.00,0.0035
2252.00,0.0035
2251.00,0.0035
2250.00,0.0035
2249.00,0.0034
2248.00,0.0034
2247.00,0.0034
2246.00,0.0033
2245.00,0.0033
2244.00,0.0033
2243.00,0.0033
2242.00,0.0033
2241.00,0.0033
2240.00,0.0033
2239.00,0.0034
2238.00,0.0035
2237.00,0.0036
2236.00,0.0035
2235.00,0.0035
2234.00,0.0035
2233.00,0.0035
2232.00,0.0035
2231.00,0.0034
2230.00,0.0033
2229.00,0.0032
2228.00,0.0032
2227.00,0.0032
2226.00,0.0033
2225.00,0.0034
2224.00,0.0034
2223.00,0.0034
2222.00,0.0034
2221.00,0.0034
2220.00,0.0035
2219.00,0.0035
2218.00,0.0036
2217.00,0.0037
2216.00,0.0037
2215.00,0.0036
2214.00,0.0035
2213.00,0.0033
2212.00,0.0032
2211.00,0.0031
2210.00,0.0031
2209.00,0.0032
2208.00,0.0033
2207.00,0.0034
2206.00,0.0034
2205.00,0.0034
2204.00,0.0033
2203.00,0.0032
2202.00,0.0033
2201.00,0.0035
2200.00,0.0037
2199.00,0.0037
2198.00,0.0036
2197.00,0.0034
2196.00,0.0033
2195.00,0.0033
2194.00,0.0034
2193.00,0.0034
2192.00,0.0034
2191.00,0.0034
2190.00,0.0034
2189.00,0.0034
2188.00,0.0034
2187.00,0.0034
2186.00,0.0035
2185.00,0.0035
2184.00,0.0035
2183.00,0.0034
2182.00,0.0033
2181.00,0.0032
2180.00,0.0032
2179.00,0.0031
2178.00,0.0030
2177.00,0.0028
2176.00,0.0027
2175.00,0.0028
2174.00,0.0029
2173.00,0.0031
2172.00,0.0033
2171.00,0.0035
2170.00,0.0038
2169.00,0.0039
2168.00,0.0039
2167.00,0.0037
2166.00,0.0036
2165.00,0.0035
2164.00,0.0036
2163.00,0.0037
2162.00,0.0035
2161.00,0.0028
2160.00,0.0019
2159.00,0.0011
2158.00,0.0008
2157.00,0.0009
2156.00,0.0012
2155.00,0.0015
2154.00,0.0018
2153.00,0.0019
2152.00,0.0020
2151.00,0.0021
2150.00,0.0022
2149.00,0.0021
2148.00,0.0021
2147.00,0.0020
2146.00,0.0020
2145.00,0.0020
2144.00,0.0020
2143.00,0.0020
2142.00,0.0020
2141.00,0.0019
2140.00,0.0018
2139.00,0.0018
2138.00,0.0017
2137.00,0.0016
2136.00,0.0014
2135.00,0.0013
2134.00,0.0013
2133.00,0.0014
2132.00,0.0016
2131.00,0.0018
2130.00,0.0019
2129.00,0.0020
2128.00,0.0021
2127.00,0.0021
2126.00,0.0021
2125.00,0.0022
2124.00,0.0022
2123.00,0.0023
2122.00,0.0023
2121.00,0.0023
2120.00,0.0024
2119.00,0.0026
2118.00,0.0027
2117.00,0.0029
2116.00,0.0029
2115.00,0.0029
2114.00,0.0029
2113.00,0.0028
2112.00,0.0028
2111.00,0.0028
2110.00,0.0028
2109.00,0.0028
2108.00,0.0028
2107.00,0.0029
2106.00,0.0030
2105.00,0.0030
2104.00,0.0029
2103.00,0.0028
2102.00,0.0028
2101.00,0.0027
2100.00,0.0027
2099.00,0.0027
2098.00,0.0026
2097.00,0.0025
2096.00,0.0024
2095.00,0.0024
2094.00,0.0024
2093.00,0.0026
2092.00,0.0027
2091.00,0.0028
2090.00,0.0028
2089.00,0.0027
2088.00,0.0027
2087.00,0.0027
2086.00,0.0028
2085.00,0.0029
2084.00,0.0030
2083.00,0.0030
2082.00,0.0030
2081.00,0.0030
2080.00,0.0030
2079.00,0.0030
2078.00,0.0031
2077.00,0.0032
2076.00,0.0033
2075.00,0.0034
2074.00,0.0034
2073.00,0.0034
2072.00,0.0032
2071.00,0.0030
2070.00,0.0029
2069.00,0.0029
2068.00,0.0028
2067.00,0.0026
2066.00,0.0025
2065.00,0.0024
2064.00,0.0024
2063.00,0.0025
2062.00,0.0025
2061.00,0.0025
2060.00,0.0025
2059.00,0.0026
2058.00,0.0026
2057.00,0.0027
2056.00,0.0027
2055.00,0.0028
2054.00,0.0030
2053.00,0.0032
2052.00,0.0034
2051.00,0.0034
2050.00,0.0031
2049.00,0.0028
2048.00,0.0027
2047.00,0.0027
2046.00,0.0028
2045.00,0.0029
2044.00,0.0030
2043.00,0.0031
2042.00,0.0033
2041.00,0.0033
2040.00,0.0032
2039.00,0.0031
2038.00,0.0029
2037.00,0.0028
2036.00,0.0026
2035.00,0.0024
2034.00,0.0023
2033.00,0.0023
2032.00,0.0021
2031.00,0.0020
2030.00,0.0018
2029.00,0.0019
2028.00,0.0019
2027.00,0.0019
2026.00,0.0019
2025.00,0.0018
2024.00,0.0018
2023.00,0.0019
2022.00,0.0020
2021.00,0.0021
2020.00,0.0021
2019.00,0.0020
2018.00,0.0021
2017.00,0.0024
2016.00,0.0026
2015.00,0.0024
2014.00,0.0016
2013.00,0.0006
2012.00,-0.0004
2011.00,-0.0007
2010.00,-0.0003
2009.00,0.0005
2008.00,0.0012
2007.00,0.0016
2006.00,0.0019
2005.00,0.0020
2004.00,0.0022
2003.00,0.0024
2002.00,0.0026
2001.00,0.0026
2000.00,0.0024
1999.00,0.0023
1998.00,0.0021
1997.00,0.0020
1996.00,0.0020
1995.00,0.0021
1994.00,0.0023
1993.00,0.0026
1992.00,0.0027
1991.00,0.0028
1990.00,0.0028
1989.00,0.0028
1988.00,0.0030
1987.00,0.0031
1986.00,0.0033
1985.00,0.0034
1984.00,0.0034
1983.00,0.0037
1982.00,0.0040
1981.00,0.0044
1980.00,0.0044
1979.00,0.0040
1978.00,0.0033
1977.00,0.0026
1976.00,0.0022
1975.00,0.0019
1974.00,0.0018
1973.00,0.0018
1972.00,0.0020
1971.00,0.0022
1970.00,0.0025
1969.00,0.0027
1968.00,0.0029
1967.00,0.0030
1966.00,0.0031
1965.00,0.0032
1964.00,0.0033
1963.00,0.0033
1962.00,0.0033
1961.00,0.0032
1960.00,0.0031
1959.00,0.0031
1958.00,0.0032
1957.00,0.0034
1956.00,0.0035
1955.00,0.0036
1954.00,0.0036
1953.00,0.0036
1952.00,0.0037
1951.00,0.0038
1950.00,0.0040
1949.00,0.0042
1948.00,0.0043
1947.00,0.0044
1946.00,0.0045
1945.00,0.0046
1944.00,0.0047
1943.00,0.0047
1942.00,0.0047
1941.00,0.0047
1940.00,0.0046
1939.00,0.0044
1938.00,0.0042
1937.00,0.0040
1936.00,0.0039
1935.00,0.0038
1934.00,0.0036
1933.00,0.0034
1932.00,0.0033
1931.00,0.0032
1930.00,0.0032
1929.00,0.0031
1928.00,0.0030
1927.00,0.0030
1926.00,0.0029
1925.00,0.0029
1924.00,0.0028
1923.00,0.0027
1922.00,0.0027
1921.00,0.0027
1920.00,0.0028
1919.00,0.0028
1918.00,0.0029
1917.00,0.0028
1916.00,0.0027
1915.00,0.0027
1914.00,0.0027
1913.00,0.0027
1912.00,0.0027
1911.00,0.0028
1910.00,0.0027
1909.00,0.0027
1908.00,0.0026
1907.00,0.0026
1906.00,0.0027
1905.00,0.0027
1904.00,0.0026
1903.00,0.0026
1902.00,0.0026
1901.00,0.0027
1900.00,0.0027
1899.00,0.0027
1898.00,0.0028
1897.00,0.0029
1896.00,0.0030
1895.00,0.0031
1894.00,0.0032
1893.00,0.0033
1892.00,0.0034
1891.00,0.0035
1890.00,0.0036
1889.00,0.0037
1888.00,0.0037
1887.00,0.0039
1886.00,0.0040
1885.00,0.0040
1884.00,0.0040
1883.00,0.0040
1882.00,0.0040
1881.00,0.0040
1880.00,0.0040
1879.00,0.0041
1878.00,0.0041
1877.00,0.0042
1876.00,0.0042
1875.00,0.0043
1874.00,0.0044
1873.00,0.0044
1872.00,0.0045
1871.00,0.0045
1870.00,0.0045
1869.00,0.0045
1868.00,0.0044
1867.00,0.0044
1866.00,0.0044
1865.00,0.0043
1864.00,0.0041
1863.00,0.0040
1862.00,0.0038
1861.00,0.0037
1860.00,0.0035
1859.00,0.0034
1858.00,0.0033
1857.00,0.0033
1856.00,0.0032
1855.00,0.0032
1854.00,0.0032
1853.00,0.0032
1852.00,0.0031
1851.00,0.0030
1850.00,0.0029
1849.00,0.0029
1848.00,0.0029
1847.00,0.0029
1846.00,0.0030
1845.00,0.0030
1844.00,0.0030
1843.00,0.0029
1842.00,0.0029
1841.00,0.0029
1840.00,0.0028
1839.00,0.0028
1838.00,0.0027
1837.00,0.0027
1836.00,0.0028
1835.00,0.0028
1834.00,0.0029
1833.00,0.0029
1832.00,0.0029
1831.00,0.0029
1830.00,0.0029
1829.00,0.0029
1828.00,0.0031
1827.00,0.0032
1826.00,0.0032
1825.00,0.0033
1824.00,0.0033
1823.00,0.0034
1822.00,0.0034
1821.00,0.0035
1820.00,0.0034
1819.00,0.0034
1818.00,0.0035
1817.00,0.0036
1816.00,0.0037
1815.00,0.0037
1814.00,0.0039
1813.00,0.0040
1812.00,0.0041
1811.00,0.0041
1810.00,0.0043
1809.00,0.0044
1808.00,0.0045
1807.00,0.0045
1806.00,0.0046
1805.00,0.0047
1804.00,0.0047
1803.00,0.0048
1802.00,0.0049
1801.00,0.0050
1800.00,0.0049
1799.00,0.0049
1798.00,0.0048
1797.00,0.0047
1796.00,0.0046
1795.00,0.0045
1794.00,0.0044
1793.00,0.0044
1792.00,0.0042
1791.00,0.0041
1790.00,0.0040
1789.00,0.0038
1788.00,0.0036
1787.00,0.0035
1786.00,0.0034
1785.00,0.0034
1784.00,0.0034
1783.00,0.0034
1782.00,0.0034
1781.00,0.0034
1780.00,0.0034
1779.00,0.0034
1778.00,0.0034
1777.00,0.0035
1776.00,0.0035
1775.00,0.0034
1774.00,0.0034
1773.00,0.0033
1772.00,0.0033
1771.00,0.0033
1770.00,0.0034
1769.00,0.0035
1768.00,0.0035
1767.00,0.0034
1766.00,0.0033
1765.00,0.0032
1764.00,0.0032
1763.00,0.0031
1762.00,0.0029
1761.00,0.0029
1760.00,0.0029
1759.00,0.0030
1758.00,0.0031
1757.00,0.0033
1756.00,0.0035
1755.00,0.0036
1754.00,0.0037
1753.00,0.0040
1752.00,0.0042
1751.00,0.0042
1750.00,0.0041
1749.00,0.0041
1748.00,0.0040
1747.00,0.0039
1746.00,0.0038
1745.00,0.0038
1744.00,0.0037
1743.00,0.0037
1742.00,0.0036
1741.00,0.0036
1740.00,0.0036
1739.00,0.0036
1738.00,0.0035
1737.00,0.0036
1736.00,0.0038
1735.00,0.0040
1734.00,0.0039
1733.00,0.0039
1732.00,0.0040
1731.00,0.0039
1730.00,0.0038
1729.00,0.0037
1728.00,0.0036
1727.00,0.0035
1726.00,0.0035
1725.00,0.0035
1724.00,0.0035
1723.00,0.0035
1722.00,0.0036
1721.00,0.0036
1720.00,0.0037
1719.00,0.0038
1718.00,0.0040
1717.00,0.0040
1716.00,0.0040
1715.00,0.0041
1714.00,0.0042
1713.00,0.0042
1712.00,0.0042
1711.00,0.0042
1710.00,0.0044
1709.00,0.0045
1708.00,0.0047
1707.00,0.0049
1706.00,0.0052
1705.00,0.0054
1704.00,0.0056
1703.00,0.0059
1702.00,0.0065
1701.00,0.0070
1700.00,0.0073
1699.00,0.0076
1698.00,0.0079
1697.00,0.0082
1696.00,0.0083
1695.00,0.0083
1694.00,0.0084
1693.00,0.0086
1692.00,0.0088
1691.00,0.0090
1690.00,0.0092
1689.00,0.0094
1688.00,0.0096
1687.00,0.0099
1686.00,0.0102
1685.00,0.0105
1684.00,0.0107
1683.00,0.0110
1682.00,0.0112
1681.00,0.0114
1680.00,0.0116
1679.00,0.0117
1678.00,0.0119
1677.00,0.0121
1676.00,0.0124
1675.00,0.0127
1674.00,0.0129
1673.00,0.0131
1672.00,0.0134
1671.00,0.0136
1670.00,0.0138
1669.00,0.0139
1668.00,0.0141
1667.00,0.0143
1666.00,0.0144
1665.00,0.0145
1664.00,0.0147
1663.00,0.0149
1662.00,0.0151
1661.00,0.0153
1660.00,0.0155
1659.00,0.0157
1658.00,0.0158
1657.00,0.0157
1656.00,0.0157
1655.00,0.0158
1654.00,0.0158
1653.00,0.0158
1652.00,0.0161
1651.00,0.0163
1650.00,0.0165
1649.00,0.0167
1648.00,0.0168
1647.00,0.0168
1646.00,0.0168
1645.00,0.0167
1644.00,0.0166
1643.00,0.0166
1642.00,0.0166
1641.00,0.0166
1640.00,0.0166
1639.00,0.0166
1638.00,0.0167
1637.00,0.0167
1636.00,0.0167
1635.00,0.0167
1634.00,0.0166
1633.00,0.0164
1632.00,0.0163
1631.00,0.0162
1630.00,0.0161
1629.00,0.0160
1628.00,0.0159
1627.00,0.0157
1626.00,0.0155
1625.00,0.0153
1624.00,0.0151
1623.00,0.0149
1622.00,0.0146
1621.00,0.0142
1620.00,0.0140
1619.00,0.0138
1618.00,0.0135
1617.00,0.0132
1616.00,0.0131
1615.00,0.0130
1614.00,0.0130
1613.00,0.0130
1612.00,0.0132
1611.00,0.0135
1610.00,0.0139
1609.00,0.0145
1608.00,0.0155
1607.00,0.0169
1606.00,0.0185
1605.00,0.0203
1604.00,0.0222
1603.00,0.0239
1602.00,0.0250
1601.00,0.0252
1600.00,0.0245
1599.00,0.0232
1598.00,0.0213
1597.00,0.0192
1596.00,0.0174
1595.00,0.0159
1594.00,0.0147
1593.00,0.0137
1592.00,0.0130
1591.00,0.0125
1590.00,0.0120
1589.00,0.0118
1588.00,0.0119
1587.00,0.0123
1586.00,0.0129
1585.00,0.0136
1584.00,0.0142
1583.00,0.0145
1582.00,0.0142
1581.00,0.0135
1580.00,0.0127
1579.00,0.0119
1578.00,0.0113
1577.00,0.0108
1576.00,0.0106
1575.00,0.0105
1574.00,0.0104
1573.00,0.0103
1572.00,0.0103
1571.00,0.0103
1570.00,0.0103
1569.00,0.0103
1568.00,0.0105
1567.00,0.0106
1566.00,0.0107
1565.00,0.0107
1564.00,0.0107
1563.00,0.0108
1562.00,0.0108
1561.00,0.0109
1560.00,0.0114
1559.00,0.0120
1558.00,0.0124
1557.00,0.0124
1556.00,0.0124
1555.00,0.0126
1554.00,0.0129
1553.00,0.0132
1552.00,0.0135
1551.00,0.0138
1550.00,0.0140
1549.00,0.0143
1548.00,0.0146
1547.00,0.0149
1546.00,0.0151
1545.00,0.0153
1544.00,0.0154
1543.00,0.0155
1542.00,0.0156
1541.00,0.0158
1540.00,0.0159
1539.00,0.0161
1538.00,0.0160
1537.00,0.0159
1536.00,0.0158
1535.00,0.0157
1534.00,0.0156
1533.00,0.0155
1532.00,0.0154
1531.00,0.0153
1530.00,0.0153
1529.00,0.0153
1528.00,0.0152
1527.00,0.0151
1526.00,0.0151
1525.00,0.0151
1524.00,0.0151
1523.00,0.0151
1522.00,0.0152
1521.00,0.0153
1520.00,0.0155
1519.00,0.0156
1518.00,0.0158
1517.00,0.0160
1516.00,0.0160
1515.00,0.0160
1514.00,0.0159
1513.00,0.0158
1512.00,0.0157
1511.00,0.0155
1510.00,0.0154
1509.00,0.0154
1508.00,0.0153
1507.00,0.0151
1506.00,0.0152
1505.00,0.0153
1504.00,0.0154
1503.00,0.0156
1502.00,0.0160
1501.00,0.0168
1500.00,0.0180
1499.00,0.0200
1498.00,0.0235
1497.00,0.0291
1496.00,0.0364
1495.00,0.0441
1494.00,0.0504
1493.00,0.0540
1492.00,0.0539
1491.00,0.0499
1490.00,0.0430
1489.00,0.0357
1488.00,0.0297
1487.00,0.0252
1486.00,0.0219
1485.00,0.0194
1484.00,0.0174
1483.00,0.0159
1482.00,0.0147
1481.00,0.0137
1480.00,0.0131
1479.00,0.0127
1478.00,0.0124
1477.00,0.0122
1476.00,0.0120
1475.00,0.0119
1474.00,0.0119
1473.00,0.0120
1472.00,0.0119
1471.00,0.0118
1470.00,0.0117
1469.00,0.0117
1468.00,0.0116
1467.00,0.0117
1466.00,0.0118
1465.00,0.0121
1464.00,0.0125
1463.00,0.0129
1462.00,0.0134
1461.00,0.0141
1460.00,0.0151
1459.00,0.0166
1458.00,0.0198
1457.00,0.0257
1456.00,0.0333
1455.00,0.0406
1454.00,0.0467
1453.00,0.0513
1452.00,0.0536
1451.00,0.0532
1450.00,0.0507
1449.00,0.0473
1448.00,0.0436
1447.00,0.0403
1446.00,0.0375
1445.00,0.0352
1444.00,0.0330
1443.00,0.0308
1442.00,0.0288
1441.00,0.0270
1440.00,0.0255
1439.00,0.0240
1438.00,0.0226
1437.00,0.0211
1436.00,0.0195
1435.00,0.0182
1434.00,0.0171
1433.00,0.0162
1432.00,0.0154
1431.00,0.0145
1430.00,0.0137
1429.00,0.0131
1428.00,0.0126
1427.00,0.0122
1426.00,0.0120
1425.00,0.0118
1424.00,0.0117
1423.00,0.0115
1422.00,0.0113
1421.00,0.0112
1420.00,0.0112
1419.00,0.0112
1418.00,0.0112
1417.00,0.0113
1416.00,0.0113
1415.00,0.0111
1414.00,0.0109
1413.00,0.0109
1412.00,0.0109
1411.00,0.0109
1410.00,0.0109
1409.00,0.0110
1408.00,0.0110
1407.00,0.0110
1406.00,0.0110
1405.00,0.0110
1404.00,0.0110
1403.00,0.0109
1402.00,0.0108
1401.00,0.0107
1400.00,0.0108
1399.00,0.0108
1398.00,0.0108
1397.00,0.0108
1396.00,0.0108
1395.00,0.0108
1394.00,0.0108
1393.00,0.0110
1392.00,0.0112
1391.00,0.0114
1390.00,0.0115
1389.00,0.0117
1388.00,0.0120
1387.00,0.0124
1386.00,0.0127
1385.00,0.0131
1384.00,0.0134
1383.00,0.0136
1382.00,0.0138
1381.00,0.0141
1380.00,0.0143
1379.00,0.0146
1378.00,0.0149
1377.00,0.0152
1376.00,0.0155
1375.00,0.0157
1374.00,0.0158
1373.00,0.0159
1372.00,0.0159
1371.00,0.0159
1370.00,0.0158
1369.00,0.0157
1368.00,0.0155
1367.00,0.0154
1366.00,0.0153
1365.00,0.0152
1364.00,0.0151
1363.00,0.0150
1362.00,0.0149
1361.00,0.0147
1360.00,0.0146
1359.00,0.0144
1358.00,0.0142
1357.00,0.0141
1356.00,0.0140
1355.00,0.0138
1354.00,0.0138
1353.00,0.0137
1352.00,0.0137
1351.00,0.0137
1350.00,0.0137
1349.00,0.0137
1348.00,0.0136
1347.00,0.0135
1346.00,0.0134
1345.00,0.0133
1344.00,0.0131
1343.00,0.0130
1342.00,0.0128
1341.00,0.0127
1340.00,0.0126
1339.00,0.0125
1338.00,0.0125
1337.00,0.0125
1336.00,0.0126
1335.00,0.0128
1334.00,0.0129
1333.00,0.0131
1332.00,0.0132
1331.00,0.0134
1330.00,0.0135
1329.00,0.0135
1328.00,0.0134
1327.00,0.0134
1326.00,0.0133
1325.00,0.0131
1324.00,0.0130
1323.00,0.0129
1322.00,0.0128
1321.00,0.0127
1320.00,0.0127
1319.00,0.0128
1318.00,0.0128
1317.00,0.0129
1316.00,0.0130
1315.00,0.0131
1314.00,0.0131
1313.00,0.0132
1312.00,0.0132
1311.00,0.0131
1310.00,0.0130
1309.00,0.0129
1308.00,0.0127
1307.00,0.0126
1306.00,0.0124
1305.00,0.0123
1304.00,0.0122
1303.00,0.0120
1302.00,0.0118
1301.00,0.0116
1300.00,0.0115
1299.00,0.0113
1298.00,0.0112
1297.00,0.0111
1296.00,0.0111
1295.00,0.0111
1294.00,0.0111
1293.00,0.0110
1292.00,0.0109
1291.00,0.0109
1290.00,0.0108
1289.00,0.0107
1288.00,0.0106
1287.00,0.0106
1286.00,0.0106
1285.00,0.0106
1284.00,0.0106
1283.00,0.0106
1282.00,0.0106
1281.00,0.0105
1280.00,0.0105
1279.00,0.0105
1278.00,0.0104
1277.00,0.0103
1276.00,0.0102
1275.00,0.0100
1274.00,0.0099
1273.00,0.0098
1272.00,0.0097
1271.00,0.0097
1270.00,0.0097
1269.00,0.0096
1268.00,0.0096
1267.00,0.0096
1266.00,0.0096
1265.00,0.0096
1264.00,0.0096
1263.00,0.0096
1262.00,0.0096
1261.00,0.0096
1260.00,0.0095
1259.00,0.0094
1258.00,0.0093
1257.00,0.0093
1256.00,0.0093
1255.00,0.0094
1254.00,0.0094
1253.00,0.0094
1252.00,0.0095
1251.00,0.0095
1250.00,0.0096
1249.00,0.0096
1248.00,0.0096
1247.00,0.0096
1246.00,0.0097
1245.00,0.0097
1244.00,0.0097
1243.00,0.0097
1242.00,0.0097
1241.00,0.0097
1240.00,0.0098
1239.00,0.0097
1238.00,0.0097
1237.00,0.0097
1236.00,0.0097
1235.00,0.0097
1234.00,0.0097
1233.00,0.0097
1232.00,0.0097
1231.00,0.0097
1230.00,0.0098
1229.00,0.0098
1228.00,0.0099
1227.00,0.0099
1226.00,0.0098
1225.00,0.0098
1224.00,0.0098
1223.00,0.0098
1222.00,0.0098
1221.00,0.0098
1220.00,0.0098
1219.00,0.0098
1218.00,0.0098
1217.00,0.0098
1216.00,0.0098
1215.00,0.0098
1214.00,0.0098
1213.00,0.0098
1212.00,0.0099
1211.00,0.0099
1210.00,0.0100
1209.00,0.0101
1208.00,0.0102
1207.00,0.0103
1206.00,0.0104
1205.00,0.0105
1204.00,0.0106
1203.00,0.0107
1202.00,0.0108
1201.00,0.0110
1200.00,0.0111
1199.00,0.0112
1198.00,0.0113
1197.00,0.0114
1196.00,0.0114
1195.00,0.0114
1194.00,0.0114
1193.00,0.0114
1192.00,0.0113
1191.00,0.0113
1190.00,0.0113
1189.00,0.0114
1188.00,0.0116
1187.00,0.0119
1186.00,0.0122
1185.00,0.0127
1184.00,0.0132
1183.00,0.0137
1182.00,0.0140
1181.00,0.0141
1180.00,0.0139
1179.00,0.0134
1178.00,0.0127
1177.00,0.0121
1176.00,0.0114
1175.00,0.0109
1174.00,0.0105
1173.00,0.0102
1172.00,0.0100
1171.00,0.0098
1170.00,0.0097
1169.00,0.0096
1168.00,0.0095
1167.00,0.0095
1166.00,0.0095
1165.00,0.0096
1164.00,0.0096
1163.00,0.0098
1162.00,0.0100
1161.00,0.0103
1160.00,0.0109
1159.00,0.0116
1158.00,0.0123
1157.00,0.0131
1156.00,0.0137
1155.00,0.0140
1154.00,0.0140
1153.00,0.0137
1152.00,0.0130
1151.00,0.0122
1150.00,0.0113
1149.00,0.0105
1148.00,0.0098
1147.00,0.0093
1146.00,0.0089
1145.00,0.0086
1144.00,0.0084
1143.00,0.0082
1142.00,0.0079
1141.00,0.0078
1140.00,0.0076
1139.00,0.0075
1138.00,0.0074
1137.00,0.0073
1136.00,0.0073
1135.00,0.0072
1134.00,0.0072
1133.00,0.0071
1132.00,0.0071
1131.00,0.0071
1130.00,0.0072
1129.00,0.0072
1128.00,0.0072
1127.00,0.0073
1126.00,0.0073
1125.00,0.0073
1124.00,0.0074
1123.00,0.0074
1122.00,0.0075
1121.00,0.0077
1120.00,0.0078
1119.00,0.0080
1118.00,0.0082
1117.00,0.0084
1116.00,0.0087
1115.00,0.0089
1114.00,0.0091
1113.00,0.0092
1112.00,0.0092
1111.00,0.0092
1110.00,0.0092
1109.00,0.0091
1108.00,0.0091
1107.00,0.0091
1106.00,0.0091
1105.00,0.0091
1104.00,0.0091
1103.00,0.0091
1102.00,0.0091
1101.00,0.0091
1100.00,0.0092
1099.00,0.0093
1098.00,0.0094
1097.00,0.0094
1096.00,0.0095
1095.00,0.0096
1094.00,0.0097
1093.00,0.0098
1092.00,0.0099
1091.00,0.0100
1090.00,0.0101
1089.00,0.0103
1088.00,0.0106
1087.00,0.0109
1086.00,0.0112
1085.00,0.0115
1084.00,0.0118
1083.00,0.0121
1082.00,0.0124
1081.00,0.0127
1080.00,0.0130
1079.00,0.0134
1078.00,0.0138
1077.00,0.0143
1076.00,0.0149
1075.00,0.0155
1074.00,0.0161
1073.00,0.0168
1072.00,0.0173
1071.00,0.0178
1070.00,0.0181
1069.00,0.0182
1068.00,0.0182
1067.00,0.0180
1066.00,0.0177
1065.00,0.0173
1064.00,0.0168
1063.00,0.0162
1062.00,0.0157
1061.00,0.0152
1060.00,0.0148
1059.00,0.0143
1058.00,0.0139
1057.00,0.0136
1056.00,0.0133
1055.00,0.0130
1054.00,0.0129
1053.00,0.0127
1052.00,0.0125
1051.00,0.0123
1050.00,0.0120
1049.00,0.0118
1048.00,0.0116
1047.00,0.0115
1046.00,0.0113
1045.00,0.0112
1044.00,0.0112
1043.00,0.0111
1042.00,0.0111
1041.00,0.0112
1040.00,0.0113
1039.00,0.0117
1038.00,0.0122
1037.00,0.0131
1036.00,0.0144
1035.00,0.0162
1034.00,0.0183
1033.00,0.0207
1032.00,0.0232
1031.00,0.0255
1030.00,0.0275
1029.00,0.0288
1028.00,0.0293
1027.00,0.0289
1026.00,0.0277
1025.00,0.0260
1024.00,0.0242
1023.00,0.0225
1022.00,0.0210
1021.00,0.0198
1020.00,0.0188
1019.00,0.0178
1018.00,0.0170
1017.00,0.0163
1016.00,0.0157
1015.00,0.0152
1014.00,0.0147
1013.00,0.0143
1012.00,0.0140
1011.00,0.0138
1010.00,0.0136
1009.00,0.0136
1008.00,0.0138
1007.00,0.0142
1006.00,0.0147
1005.00,0.0151
1004.00,0.0150
1003.00,0.0146
1002.00,0.0140
1001.00,0.0133
1000.00,0.0126
999.00,0.0120
998.00,0.0114
997.00,0.0110
996.00,0.0108
995.00,0.0106
994.00,0.0105
993.00,0.0105
992.00,0.0105
991.00,0.0105
990.00,0.0105
989.00,0.0106
988.00,0.0108
987.00,0.0110
986.00,0.0113
985.00,0.0116
984.00,0.0118
983.00,0.0121
982.00,0.0123
981.00,0.0124
980.00,0.0125
979.00,0.0124
978.00,0.0123
977.00,0.0120
976.00,0.0118
975.00,0.0115
974.00,0.0113
973.00,0.0112
972.00,0.0113
971.00,0.0115
970.00,0.0117
969.00,0.0120
968.00,0.0124
967.00,0.0127
966.00,0.0129
965.00,0.0130
964.00,0.0131
963.00,0.0129
962.00,0.0127
961.00,0.0124
960.00,0.0119
959.00,0.0115
958.00,0.0110
957.00,0.0106
956.00,0.0102
955.00,0.0100
954.00,0.0098
953.00,0.0097
952.00,0.0097
951.00,0.0098
950.00,0.0098
949.00,0.0099
948.00,0.0100
947.00,0.0102
946.00,0.0103
945.00,0.0105
944.00,0.0107
943.00,0.0107
942.00,0.0106
941.00,0.0105
940.00,0.0104
939.00,0.0102
938.00,0.0100
937.00,0.0097
936.00,0.0094
935.00,0.0091
934.00,0.0088
933.00,0.0085
932.00,0.0084
931.00,0.0082
930.00,0.0081
929.00,0.0080
928.00,0.0080
927.00,0.0080
926.00,0.0081
925.00,0.0081
924.00,0.0082
923.00,0.0084
922.00,0.0086
921.00,0.0088
920.00,0.0091
919.00,0.0094
918.00,0.0098
917.00,0.0103
916.00,0.0110
915.00,0.0118
914.00,0.0127
913.00,0.0138
912.00,0.0150
911.00,0.0163
910.00,0.0175
909.00,0.0186
908.00,0.0195
907.00,0.0200
906.00,0.0201
905.00,0.0198
904.00,0.0191
903.00,0.0181
902.00,0.0168
901.00,0.0154
900.00,0.0141
899.00,0.0127
898.00,0.0115
897.00,0.0106
896.00,0.0099
895.00,0.0093
894.00,0.0088
893.00,0.0084
892.00,0.0081
891.00,0.0078
890.00,0.0076
889.00,0.0074
888.00,0.0072
887.00,0.0071
886.00,0.0071
885.00,0.0071
884.00,0.0070
883.00,0.0069
882.00,0.0068
881.00,0.0068
880.00,0.0067
879.00,0.0067
878.00,0.0066
877.00,0.0065
876.00,0.0065
875.00,0.0064
874.00,0.0063
873.00,0.0062
872.00,0.0061
871.00,0.0060
870.00,0.0059
869.00,0.0059
868.00,0.0059
867.00,0.0058
866.00,0.0058
865.00,0.0057
864.00,0.0056
863.00,0.0057
862.00,0.0057
861.00,0.0058
860.00,0.0058
859.00,0.0059
858.00,0.0059
857.00,0.0059
856.00,0.0061
855.00,0.0063
854.00,0.0065
853.00,0.0067
852.00,0.0069
851.00,0.0072
850.00,0.0075
849.00,0.0080
848.00,0.0085
847.00,0.0092
846.00,0.0098
845.00,0.0104
844.00,0.0108
843.00,0.0110
842.00,0.0112
841.00,0.0112
840.00,0.0111
839.00,0.0108
838.00,0.0103
837.00,0.0098
836.00,0.0092
835.00,0.0086
834.00,0.0081
833.00,0.0076
832.00,0.0072
831.00,0.0069
830.00,0.0067
829.00,0.0066
828.00,0.0065
827.00,0.0065
826.00,0.0065
825.00,0.0065
824.00,0.0065
823.00,0.0065
822.00,0.0064
821.00,0.0063
820.00,0.0062
819.00,0.0062
818.00,0.0062
817.00,0.0063
816.00,0.0065
815.00,0.0066
814.00,0.0067
813.00,0.0067
812.00,0.0067
811.00,0.0068
810.00,0.0068
809.00,0.0069
808.00,0.0070
807.00,0.0071
806.00,0.0071
805.00,0.0071
804.00,0.0072
803.00,0.0072
802.00,0.0073
801.00,0.0074
800.00,0.0076
799.00,0.0077
798.00,0.0079
797.00,0.0082
796.00,0.0085
795.00,0.0089
794.00,0.0092
793.00,0.0096
792.00,0.0099
791.00,0.0103
790.00,0.0108
789.00,0.0113
788.00,0.0118
787.00,0.0124
786.00,0.0131
785.00,0.0138
784.00,0.0146
783.00,0.0154
782.00,0.0162
781.00,0.0172
780.00,0.0184
779.00,0.0198
778.00,0.0213
777.00,0.0230
776.00,0.0250
775.00,0.0271
774.00,0.0294
773.00,0.0319
772.00,0.0347
771.00,0.0376
770.00,0.0406
769.00,0.0437
768.00,0.0468
767.00,0.0499
766.00,0.0529
765.00,0.0560
764.00,0.0591
763.00,0.0623
762.00,0.0655
761.00,0.0688
760.00,0.0721
759.00,0.0752
758.00,0.0779
757.00,0.0800
756.00,0.0816
755.00,0.0824
754.00,0.0827
753.00,0.0825
752.00,0.0821
751.00,0.0818
750.00,0.0816
749.00,0.0814
748.00,0.0808
747.00,0.0797
746.00,0.0775
745.00,0.0742
744.00,0.0699
743.00,0.0649
742.00,0.0596
741.00,0.0544
740.00,0.0495
739.00,0.0451
738.00,0.0410
737.00,0.0373
736.00,0.0336
735.00,0.0301
734.00,0.0267
733.00,0.0236
732.00,0.0209
731.00,0.0187
730.00,0.0170
729.00,0.0157
728.00,0.0148
727.00,0.0141
726.00,0.0135
725.00,0.0131
724.00,0.0129
723.00,0.0127
722.00,0.0126
721.00,0.0126
720.00,0.0128
719.00,0.0130
718.00,0.0133
717.00,0.0137
716.00,0.0144
715.00,0.0153
714.00,0.0165
713.00,0.0183
712.00,0.0208
711.00,0.0242
710.00,0.0289
709.00,0.0350
708.00,0.0429
707.00,0.0526
706.00,0.0642
705.00,0.0778
704.00,0.0934
703.00,0.1108
702.00,0.1297
701.00,0.1497
700.00,0.1705
699.00,0.1916
698.00,0.2125
697.00,0.2319
696.00,0.2473
695.00,0.2552
694.00,0.2526
693.00,0.2388
692.00,0.2164
691.00,0.1901
690.00,0.1644
689.00,0.1418
688.00,0.1231
687.00,0.1082
686.00,0.0963
685.00,0.0868
684.00,0.0791
683.00,0.0727
682.00,0.0674
681.00,0.0628
680.00,0.0589
679.00,0.0554
678.00,0.0525
677.00,0.0499
676.00,0.0477
675.00,0.0458
674.00,0.0441
673.00,0.0427
672.00,0.0415
671.00,0.0403
670.00,0.0392
669.00,0.0380
668.00,0.0367
667.00,0.0354
666.00,0.0343
665.00,0.0333
664.00,0.0322
663.00,0.0311
662.00,0.0301
661.00,0.0291
660.00,0.0281
659.00,0.0271
658.00,0.0261
657.00,0.0252
656.00,0.0243
655.00,0.0236
654.00,0.0229
653.00,0.0223
652.00,0.0217
651.00,0.0212
650.00,0.0207
649.00,0.0203
648.00,0.0199
647.00,0.0197
646.00,0.0194
645.00,0.0191
644.00,0.0188
643.00,0.0187
642.00,0.0186
641.00,0.0185
640.00,0.0186
639.00,0.0186
638.00,0.0188
637.00,0.0190
636.00,0.0193
635.00,0.0197
634.00,0.0201
633.00,0.0205
632.00,0.0208
631.00,0.0210
630.00,0.0212
629.00,0.0215
628.00,0.0217
627.00,0.0220
626.00,0.0222
625.00,0.0223
624.00,0.0225
623.00,0.0228
622.00,0.0231
621.00,0.0233
620.00,0.0233
619.00,0.0230
618.00,0.0224
617.00,0.0218
616.00,0.0214
615.00,0.0210
614.00,0.0206
613.00,0.0203
612.00,0.0201
611.00,0.0200
610.00,0.0198
609.00,0.0196
608.00,0.0194
607.00,0.0192
606.00,0.0191
605.00,0.0191
604.00,0.0191
603.00,0.0190
602.00,0.0190
601.00,0.0191
600.00,0.0192
599.00,0.0193
598.00,0.0194
597.00,0.0196
596.00,0.0198
595.00,0.0201
594.00,0.0204
593.00,0.0206
592.00,0.0208
591.00,0.0209
590.00,0.0210
589.00,0.0211
588.00,0.0213
587.00,0.0216
586.00,0.0219
585.00,0.0222
584.00,0.0226
583.00,0.0231
582.00,0.0236
581.00,0.0243
580.00,0.0251
579.00,0.0260
578.00,0.0269
577.00,0.0278
576.00,0.0288
575.00,0.0299
574.00,0.0310
573.00,0.0322
572.00,0.0334
571.00,0.0346
570.00,0.0356
569.00,0.0364
568.00,0.0373
567.00,0.0382
566.00,0.0392
565.00,0.0403
564.00,0.0415
563.00,0.0428
562.00,0.0440
561.00,0.0452
560.00,0.0465
559.00,0.0477
558.00,0.0487
557.00,0.0497
556.00,0.0509
555.00,0.0522
554.00,0.0536
553.00,0.0550
552.00,0.0565
551.00,0.0579
550.00,0.0595
549.00,0.0612
548.00,0.0634
547.00,0.0659
546.00,0.0686
545.00,0.0714
544.00,0.0746
543.00,0.0777
542.00,0.0805
541.00,0.0831
540.00,0.0854
539.00,0.0871
538.00,0.0878
537.00,0.0876
536.00,0.0865
535.00,0.0843
534.00,0.0811
533.00,0.0772
532.00,0.0731
531.00,0.0687
530.00,0.0644
529.00,0.0604
528.00,0.0568
527.00,0.0534
526.00,0.0502
525.00,0.0472
524.00,0.0445
523.00,0.0422
522.00,0.0399
521.00,0.0380
520.00,0.0365
519.00,0.0352
518.00,0.0342
517.00,0.0332
516.00,0.0324
515.00,0.0317
514.00,0.0308
513.00,0.0299
512.00,0.0291
511.00,0.0284
510.00,0.0277
509.00,0.0268
508.00,0.0259
507.00,0.0251
506.00,0.0239
505.00,0.0217
504.00,0.0190
503.00,0.0168
502.00,0.0164
501.00,0.0178
500.00,0.0196
499.00,0.0204
498.00,0.0203
497.00,0.0199
496.00,0.0196
495.00,0.0193
494.00,0.0190
493.00,0.0187
492.00,0.0185
491.00,0.0182
490.00,0.0178
489.00,0.0175
488.00,0.0173
487.00,0.0172
486.00,0.0169
485.00,0.0167
484.00,0.0165
483.00,0.0165
482.00,0.0164
481.00,0.0163
480.00,0.0163
479.00,0.0162
478.00,0.0160
477.00,0.0157
476.00,0.0155
475.00,0.0152
474.00,0.0150
473.00,0.0149
472.00,0.0152
471.00,0.0156
470.00,0.0157
469.00,0.0155
468.00,0.0153
467.00,0.0149
466.00,0.0144
465.00,0.0142
464.00,0.0141
463.00,0.0139
462.00,0.0138
461.00,0.0138
460.00,0.0142
459.00,0.0146
458.00,0.0148
457.00,0.0148
456.00,0.0145
455.00,0.0138
454.00,0.0131
453.00,0.0130
452.00,0.0134
451.00,0.0138
450.00,0.0139
449.00,0.0138
448.00,0.0136
447.00,0.0132
446.00,0.0127
445.00,0.0124
444.00,0.0124
443.00,0.0124
442.00,0.0123
441.00,0.0123
440.00,0.0122
439.00,0.0121
438.00,0.0120
437.00,0.0120
436.00,0.0122
435.00,0.0122
434.00,0.0120
433.00,0.0117
432.00,0.0115
431.00,0.0113
430.00,0.0115
429.00,0.0119
428.00,0.0124
427.00,0.0124
426.00,0.0119
425.00,0.0114
424.00,0.0114
423.00,0.0118
422.00,0.0119
421.00,0.0119
420.00,0.0120
419.00,0.0123
418.00,0.0122
417.00,0.0119
416.00,0.0116
415.00,0.0111
414.00,0.0108
413.00,0.0111
412.00,0.0120
411.00,0.0128
410.00,0.0128
409.00,0.0120
408.00,0.0110
407.00,0.0102
406.00,0.0100
405.00,0.0106
404.00,0.0118
403.00,0.0126
402.00,0.0126
401.00,0.0116
400.00,0.0103
