Created as New Dataset,Sample 650 By YargerLab Date Tuesday, June 10 2025
cm-1,A
4000.00,0.0039
3999.00,0.0039
3998.00,0.0039
3997.00,0.0039
3996.00,0.0039
3995.00,0.0039
3994.00,0.0039
3993.00,0.0039
3992.00,0.0039
3991.00,0.0039
3990.00,0.0039
3989.00,0.0039
3988.00,0.0039
3987.00,0.0039
3986.00,0.0039
3985.00,0.0039
3984.00,0.0039
3983.00,0.0039
3982.00,0.0038
3981.00,0.0038
3980.00,0.0038
3979.00,0.0038
3978.00,0.0038
3977.00,0.0038
3976.00,0.0038
3975.00,0.0038
3974.00,0.0038
3973.00,0.0038
3972.00,0.0038
3971.00,0.0039
3970.00,0.0038
3969.00,0.0038
3968.00,0.0038
3967.00,0.0038
3966.00,0.0038
3965.00,0.0038
3964.00,0.0039
3963.00,0.0039
3962.00,0.0039
3961.00,0.0039
3960.00,0.0039
3959.00,0.0039
3958.00,0.0039
3957.00,0.0039
3956.00,0.0039
3955.00,0.0039
3954.00,0.0039
3953.00,0.0038
3952.00,0.0038
3951.00,0.0038
3950.00,0.0038
3949.00,0.0038
3948.00,0.0038
3947.00,0.0039
3946.00,0.0039
3945.00,0.0039
3944.00,0.0039
3943.00,0.0038
3942.00,0.0038
3941.00,0.0038
3940.00,0.0038
3939.00,0.0038
3938.00,0.0038
3937.00,0.0038
3936.00,0.0039
3935.00,0.0039
3934.00,0.0039
3933.00,0.0039
3932.00,0.0039
3931.00,0.0039
3930.00,0.0039
3929.00,0.0039
3928.00,0.0038
3927.00,0.0038
3926.00,0.0038
3925.00,0.0038
3924.00,0.0038
3923.00,0.0038
3922.00,0.0038
3921.00,0.0038
3920.00,0.0038
3919.00,0.0038
3918.00,0.0037
3917.00,0.0037
3916.00,0.0037
3915.00,0.0037
3914.00,0.0037
3913.00,0.0037
3912.00,0.0037
3911.00,0.0037
3910.00,0.0037
3909.00,0.0037
3908.00,0.0037
3907.00,0.0038
3906.00,0.0038
3905.00,0.0038
3904.00,0.0038
3903.00,0.0039
3902.00,0.0039
3901.00,0.0039
3900.00,0.0039
3899.00,0.0039
3898.00,0.0039
3897.00,0.0040
3896.00,0.0040
3895.00,0.0039
3894.00,0.0039
3893.00,0.0039
3892.00,0.0038
3891.00,0.0038
3890.00,0.0038
3889.00,0.0039
3888.00,0.0038
3887.00,0.0038
3886.00,0.0038
3885.00,0.0038
3884.00,0.0038
3883.00,0.0038
3882.00,0.0037
3881.00,0.0037
3880.00,0.0037
3879.00,0.0037
3878.00,0.0037
3877.00,0.0037
3876.00,0.0038
3875.00,0.0038
3874.00,0.0038
3873.00,0.0038
3872.00,0.0039
3871.00,0.0039
3870.00,0.0039
3869.00,0.0039
3868.00,0.0039
3867.00,0.0039
3866.00,0.0039
3865.00,0.0039
3864.00,0.0039
3863.00,0.0038
3862.00,0.0038
3861.00,0.0038
3860.00,0.0038
3859.00,0.0038
3858.00,0.0038
3857.00,0.0038
3856.00,0.0038
3855.00,0.0038
3854.00,0.0038
3853.00,0.0038
3852.00,0.0038
3851.00,0.0038
3850.00,0.0038
3849.00,0.0038
3848.00,0.0038
3847.00,0.0038
3846.00,0.0038
3845.00,0.0038
3844.00,0.0038
3843.00,0.0038
3842.00,0.0038
3841.00,0.0038
3840.00,0.0038
3839.00,0.0039
3838.00,0.0039
3837.00,0.0038
3836.00,0.0038
3835.00,0.0038
3834.00,0.0037
3833.00,0.0037
3832.00,0.0038
3831.00,0.0038
3830.00,0.0038
3829.00,0.0038
3828.00,0.0037
3827.00,0.0037
3826.00,0.0037
3825.00,0.0037
3824.00,0.0037
3823.00,0.0037
3822.00,0.0037
3821.00,0.0037
3820.00,0.0037
3819.00,0.0037
3818.00,0.0037
3817.00,0.0037
3816.00,0.0037
3815.00,0.0037
3814.00,0.0037
3813.00,0.0037
3812.00,0.0037
3811.00,0.0037
3810.00,0.0037
3809.00,0.0037
3808.00,0.0037
3807.00,0.0037
3806.00,0.0038
3805.00,0.0038
3804.00,0.0038
3803.00,0.0038
3802.00,0.0038
3801.00,0.0037
3800.00,0.0037
3799.00,0.0037
3798.00,0.0037
3797.00,0.0037
3796.00,0.0037
3795.00,0.0037
3794.00,0.0037
3793.00,0.0037
3792.00,0.0037
3791.00,0.0037
3790.00,0.0037
3789.00,0.0037
3788.00,0.0037
3787.00,0.0036
3786.00,0.0036
3785.00,0.0036
3784.00,0.0036
3783.00,0.0036
3782.00,0.0036
3781.00,0.0036
3780.00,0.0036
3779.00,0.0036
3778.00,0.0036
3777.00,0.0036
3776.00,0.0036
3775.00,0.0036
3774.00,0.0036
3773.00,0.0037
3772.00,0.0038
3771.00,0.0038
3770.00,0.0038
3769.00,0.0038
3768.00,0.0038
3767.00,0.0037
3766.00,0.0037
3765.00,0.0037
3764.00,0.0037
3763.00,0.0037
3762.00,0.0037
3761.00,0.0037
3760.00,0.0037
3759.00,0.0037
3758.00,0.0037
3757.00,0.0037
3756.00,0.0037
3755.00,0.0037
3754.00,0.0037
3753.00,0.0037
3752.00,0.0038
3751.00,0.0038
3750.00,0.0038
3749.00,0.0038
3748.00,0.0038
3747.00,0.0038
3746.00,0.0038
3745.00,0.0038
3744.00,0.0038
3743.00,0.0038
3742.00,0.0038
3741.00,0.0037
3740.00,0.0037
3739.00,0.0037
3738.00,0.0037
3737.00,0.0037
3736.00,0.0038
3735.00,0.0038
3734.00,0.0038
3733.00,0.0038
3732.00,0.0038
3731.00,0.0038
3730.00,0.0037
3729.00,0.0037
3728.00,0.0037
3727.00,0.0037
3726.00,0.0037
3725.00,0.0037
3724.00,0.0037
3723.00,0.0037
3722.00,0.0037
3721.00,0.0037
3720.00,0.0037
3719.00,0.0036
3718.00,0.0036
3717.00,0.0036
3716.00,0.0036
3715.00,0.0036
3714.00,0.0036
3713.00,0.0036
3712.00,0.0036
3711.00,0.0036
3710.00,0.0037
3709.00,0.0037
3708.00,0.0037
3707.00,0.0037
3706.00,0.0037
3705.00,0.0036
3704.00,0.0036
3703.00,0.0036
3702.00,0.0036
3701.00,0.0036
3700.00,0.0036
3699.00,0.0036
3698.00,0.0036
3697.00,0.0036
3696.00,0.0036
3695.00,0.0036
3694.00,0.0036
3693.00,0.0036
3692.00,0.0036
3691.00,0.0036
3690.00,0.0036
3689.00,0.0036
3688.00,0.0036
3687.00,0.0036
3686.00,0.0036
3685.00,0.0036
3684.00,0.0036
3683.00,0.0036
3682.00,0.0035
3681.00,0.0036
3680.00,0.0036
3679.00,0.0036
3678.00,0.0037
3677.00,0.0038
3676.00,0.0038
3675.00,0.0038
3674.00,0.0038
3673.00,0.0037
3672.00,0.0037
3671.00,0.0037
3670.00,0.0036
3669.00,0.0036
3668.00,0.0036
3667.00,0.0036
3666.00,0.0036
3665.00,0.0037
3664.00,0.0037
3663.00,0.0037
3662.00,0.0037
3661.00,0.0037
3660.00,0.0037
3659.00,0.0036
3658.00,0.0036
3657.00,0.0037
3656.00,0.0037
3655.00,0.0037
3654.00,0.0038
3653.00,0.0038
3652.00,0.0038
3651.00,0.0038
3650.00,0.0038
3649.00,0.0038
3648.00,0.0038
3647.00,0.0038
3646.00,0.0037
3645.00,0.0037
3644.00,0.0036
3643.00,0.0036
3642.00,0.0036
3641.00,0.0036
3640.00,0.0037
3639.00,0.0037
3638.00,0.0037
3637.00,0.0037
3636.00,0.0037
3635.00,0.0037
3634.00,0.0037
3633.00,0.0037
3632.00,0.0037
3631.00,0.0038
3630.00,0.0038
3629.00,0.0038
3628.00,0.0038
3627.00,0.0039
3626.00,0.0039
3625.00,0.0039
3624.00,0.0039
3623.00,0.0038
3622.00,0.0038
3621.00,0.0038
3620.00,0.0037
3619.00,0.0037
3618.00,0.0037
3617.00,0.0037
3616.00,0.0038
3615.00,0.0038
3614.00,0.0038
3613.00,0.0038
3612.00,0.0039
3611.00,0.0039
3610.00,0.0039
3609.00,0.0039
3608.00,0.0039
3607.00,0.0039
3606.00,0.0039
3605.00,0.0039
3604.00,0.0039
3603.00,0.0039
3602.00,0.0039
3601.00,0.0039
3600.00,0.0040
3599.00,0.0040
3598.00,0.0040
3597.00,0.0040
3596.00,0.0040
3595.00,0.0040
3594.00,0.0040
3593.00,0.0040
3592.00,0.0040
3591.00,0.0040
3590.00,0.0040
3589.00,0.0040
3588.00,0.0040
3587.00,0.0040
3586.00,0.0041
3585.00,0.0041
3584.00,0.0041
3583.00,0.0041
3582.00,0.0041
3581.00,0.0041
3580.00,0.0040
3579.00,0.0040
3578.00,0.0040
3577.00,0.0040
3576.00,0.0040
3575.00,0.0040
3574.00,0.0041
3573.00,0.0041
3572.00,0.0041
3571.00,0.0042
3570.00,0.0042
3569.00,0.0043
3568.00,0.0043
3567.00,0.0043
3566.00,0.0043
3565.00,0.0043
3564.00,0.0043
3563.00,0.0042
3562.00,0.0042
3561.00,0.0042
3560.00,0.0042
3559.00,0.0042
3558.00,0.0042
3557.00,0.0042
3556.00,0.0042
3555.00,0.0042
3554.00,0.0042
3553.00,0.0042
3552.00,0.0042
3551.00,0.0042
3550.00,0.0042
3549.00,0.0043
3548.00,0.0043
3547.00,0.0044
3546.00,0.0044
3545.00,0.0044
3544.00,0.0044
3543.00,0.0044
3542.00,0.0044
3541.00,0.0044
3540.00,0.0044
3539.00,0.0044
3538.00,0.0045
3537.00,0.0045
3536.00,0.0045
3535.00,0.0044
3534.00,0.0044
3533.00,0.0044
3532.00,0.0044
3531.00,0.0044
3530.00,0.0045
3529.00,0.0045
3528.00,0.0045
3527.00,0.0046
3526.00,0.0046
3525.00,0.0046
3524.00,0.0047
3523.00,0.0047
3522.00,0.0047
3521.00,0.0048
3520.00,0.0048
3519.00,0.0048
3518.00,0.0048
3517.00,0.0048
3516.00,0.0048
3515.00,0.0048
3514.00,0.0048
3513.00,0.0048
3512.00,0.0048
3511.00,0.0048
3510.00,0.0047
3509.00,0.0047
3508.00,0.0047
3507.00,0.0047
3506.00,0.0048
3505.00,0.0048
3504.00,0.0048
3503.00,0.0049
3502.00,0.0049
3501.00,0.0049
3500.00,0.0049
3499.00,0.0049
3498.00,0.0049
3497.00,0.0049
3496.00,0.0049
3495.00,0.0049
3494.00,0.0049
3493.00,0.0049
3492.00,0.0049
3491.00,0.0049
3490.00,0.0049
3489.00,0.0049
3488.00,0.0049
3487.00,0.0049
3486.00,0.0050
3485.00,0.0050
3484.00,0.0050
3483.00,0.0050
3482.00,0.0050
3481.00,0.0050
3480.00,0.0050
3479.00,0.0051
3478.00,0.0051
3477.00,0.0051
3476.00,0.0051
3475.00,0.0051
3474.00,0.0051
3473.00,0.0051
3472.00,0.0051
3471.00,0.0051
3470.00,0.0051
3469.00,0.0051
3468.00,0.0051
3467.00,0.0051
3466.00,0.0051
3465.00,0.0051
3464.00,0.0052
3463.00,0.0052
3462.00,0.0052
3461.00,0.0053
3460.00,0.0053
3459.00,0.0054
3458.00,0.0055
3457.00,0.0056
3456.00,0.0056
3455.00,0.0056
3454.00,0.0055
3453.00,0.0054
3452.00,0.0054
3451.00,0.0054
3450.00,0.0054
3449.00,0.0054
3448.00,0.0054
3447.00,0.0055
3446.00,0.0055
3445.00,0.0055
3444.00,0.0055
3443.00,0.0055
3442.00,0.0055
3441.00,0.0055
3440.00,0.0055
3439.00,0.0055
3438.00,0.0055
3437.00,0.0056
3436.00,0.0056
3435.00,0.0056
3434.00,0.0055
3433.00,0.0056
3432.00,0.0056
3431.00,0.0056
3430.00,0.0057
3429.00,0.0057
3428.00,0.0057
3427.00,0.0058
3426.00,0.0058
3425.00,0.0057
3424.00,0.0057
3423.00,0.0057
3422.00,0.0057
3421.00,0.0058
3420.00,0.0059
3419.00,0.0059
3418.00,0.0059
3417.00,0.0059
3416.00,0.0060
3415.00,0.0060
3414.00,0.0060
3413.00,0.0061
3412.00,0.0061
3411.00,0.0061
3410.00,0.0061
3409.00,0.0061
3408.00,0.0062
3407.00,0.0062
3406.00,0.0062
3405.00,0.0062
3404.00,0.0062
3403.00,0.0062
3402.00,0.0063
3401.00,0.0064
3400.00,0.0064
3399.00,0.0065
3398.00,0.0065
3397.00,0.0065
3396.00,0.0065
3395.00,0.0065
3394.00,0.0064
3393.00,0.0064
3392.00,0.0064
3391.00,0.0065
3390.00,0.0065
3389.00,0.0065
3388.00,0.0066
3387.00,0.0066
3386.00,0.0066
3385.00,0.0067
3384.00,0.0067
3383.00,0.0067
3382.00,0.0067
3381.00,0.0068
3380.00,0.0068
3379.00,0.0068
3378.00,0.0068
3377.00,0.0069
3376.00,0.0069
3375.00,0.0069
3374.00,0.0070
3373.00,0.0070
3372.00,0.0070
3371.00,0.0070
3370.00,0.0070
3369.00,0.0071
3368.00,0.0071
3367.00,0.0072
3366.00,0.0072
3365.00,0.0073
3364.00,0.0074
3363.00,0.0074
3362.00,0.0075
3361.00,0.0075
3360.00,0.0075
3359.00,0.0075
3358.00,0.0075
3357.00,0.0076
3356.00,0.0076
3355.00,0.0077
3354.00,0.0077
3353.00,0.0078
3352.00,0.0078
3351.00,0.0079
3350.00,0.0079
3349.00,0.0079
3348.00,0.0080
3347.00,0.0080
3346.00,0.0081
3345.00,0.0082
3344.00,0.0082
3343.00,0.0082
3342.00,0.0083
3341.00,0.0084
3340.00,0.0085
3339.00,0.0085
3338.00,0.0086
3337.00,0.0087
3336.00,0.0087
3335.00,0.0088
3334.00,0.0088
3333.00,0.0088
3332.00,0.0088
3331.00,0.0089
3330.00,0.0090
3329.00,0.0090
3328.00,0.0091
3327.00,0.0092
3326.00,0.0092
3325.00,0.0092
3324.00,0.0093
3323.00,0.0093
3322.00,0.0093
3321.00,0.0094
3320.00,0.0094
3319.00,0.0095
3318.00,0.0095
3317.00,0.0096
3316.00,0.0096
3315.00,0.0096
3314.00,0.0097
3313.00,0.0098
3312.00,0.0098
3311.00,0.0099
3310.00,0.0099
3309.00,0.0099
3308.00,0.0100
3307.00,0.0100
3306.00,0.0100
3305.00,0.0101
3304.00,0.0101
3303.00,0.0102
3302.00,0.0102
3301.00,0.0103
3300.00,0.0103
3299.00,0.0103
3298.00,0.0103
3297.00,0.0104
3296.00,0.0104
3295.00,0.0105
3294.00,0.0105
3293.00,0.0105
3292.00,0.0105
3291.00,0.0105
3290.00,0.0105
3289.00,0.0105
3288.00,0.0105
3287.00,0.0105
3286.00,0.0104
3285.00,0.0104
3284.00,0.0104
3283.00,0.0104
3282.00,0.0104
3281.00,0.0104
3280.00,0.0103
3279.00,0.0103
3278.00,0.0103
3277.00,0.0103
3276.00,0.0102
3275.00,0.0102
3274.00,0.0101
3273.00,0.0101
3272.00,0.0100
3271.00,0.0099
3270.00,0.0099
3269.00,0.0099
3268.00,0.0098
3267.00,0.0098
3266.00,0.0097
3265.00,0.0097
3264.00,0.0096
3263.00,0.0095
3262.00,0.0094
3261.00,0.0094
3260.00,0.0093
3259.00,0.0093
3258.00,0.0092
3257.00,0.0091
3256.00,0.0091
3255.00,0.0090
3254.00,0.0090
3253.00,0.0089
3252.00,0.0089
3251.00,0.0089
3250.00,0.0088
3249.00,0.0088
3248.00,0.0088
3247.00,0.0087
3246.00,0.0087
3245.00,0.0086
3244.00,0.0086
3243.00,0.0086
3242.00,0.0086
3241.00,0.0085
3240.00,0.0085
3239.00,0.0084
3238.00,0.0084
3237.00,0.0083
3236.00,0.0083
3235.00,0.0083
3234.00,0.0083
3233.00,0.0082
3232.00,0.0082
3231.00,0.0081
3230.00,0.0081
3229.00,0.0080
3228.00,0.0080
3227.00,0.0080
3226.00,0.0080
3225.00,0.0080
3224.00,0.0079
3223.00,0.0079
3222.00,0.0078
3221.00,0.0078
3220.00,0.0078
3219.00,0.0078
3218.00,0.0077
3217.00,0.0077
3216.00,0.0077
3215.00,0.0077
3214.00,0.0076
3213.00,0.0076
3212.00,0.0076
3211.00,0.0076
3210.00,0.0075
3209.00,0.0075
3208.00,0.0075
3207.00,0.0075
3206.00,0.0075
3205.00,0.0074
3204.00,0.0074
3203.00,0.0074
3202.00,0.0074
3201.00,0.0073
3200.00,0.0073
3199.00,0.0073
3198.00,0.0073
3197.00,0.0072
3196.00,0.0072
3195.00,0.0072
3194.00,0.0071
3193.00,0.0071
3192.00,0.0071
3191.00,0.0070
3190.00,0.0070
3189.00,0.0070
3188.00,0.0070
3187.00,0.0069
3186.00,0.0069
3185.00,0.0068
3184.00,0.0068
3183.00,0.0068
3182.00,0.0068
3181.00,0.0067
3180.00,0.0067
3179.00,0.0067
3178.00,0.0066
3177.00,0.0066
3176.00,0.0067
3175.00,0.0067
3174.00,0.0066
3173.00,0.0066
3172.00,0.0065
3171.00,0.0065
3170.00,0.0065
3169.00,0.0065
3168.00,0.0065
3167.00,0.0065
3166.00,0.0065
3165.00,0.0064
3164.00,0.0064
3163.00,0.0063
3162.00,0.0063
3161.00,0.0063
3160.00,0.0062
3159.00,0.0062
3158.00,0.0062
3157.00,0.0062
3156.00,0.0062
3155.00,0.0061
3154.00,0.0061
3153.00,0.0061
3152.00,0.0061
3151.00,0.0061
3150.00,0.0061
3149.00,0.0060
3148.00,0.0060
3147.00,0.0060
3146.00,0.0060
3145.00,0.0060
3144.00,0.0060
3143.00,0.0060
3142.00,0.0060
3141.00,0.0060
3140.00,0.0060
3139.00,0.0059
3138.00,0.0059
3137.00,0.0059
3136.00,0.0059
3135.00,0.0059
3134.00,0.0058
3133.00,0.0058
3132.00,0.0058
3131.00,0.0058
3130.00,0.0058
3129.00,0.0059
3128.00,0.0059
3127.00,0.0059
3126.00,0.0059
3125.00,0.0059
3124.00,0.0058
3123.00,0.0058
3122.00,0.0058
3121.00,0.0058
3120.00,0.0058
3119.00,0.0059
3118.00,0.0059
3117.00,0.0059
3116.00,0.0060
3115.00,0.0060
3114.00,0.0061
3113.00,0.0061
3112.00,0.0062
3111.00,0.0063
3110.00,0.0064
3109.00,0.0066
3108.00,0.0067
3107.00,0.0068
3106.00,0.0069
3105.00,0.0070
3104.00,0.0070
3103.00,0.0071
3102.00,0.0071
3101.00,0.0071
3100.00,0.0071
3099.00,0.0071
3098.00,0.0071
3097.00,0.0070
3096.00,0.0070
3095.00,0.0071
3094.00,0.0072
3093.00,0.0073
3092.00,0.0074
3091.00,0.0076
3090.00,0.0078
3089.00,0.0081
3088.00,0.0085
3087.00,0.0088
3086.00,0.0092
3085.00,0.0096
3084.00,0.0098
3083.00,0.0100
3082.00,0.0100
3081.00,0.0100
3080.00,0.0098
3079.00,0.0096
3078.00,0.0094
3077.00,0.0092
3076.00,0.0090
3075.00,0.0089
3074.00,0.0088
3073.00,0.0088
3072.00,0.0089
3071.00,0.0089
3070.00,0.0091
3069.00,0.0092
3068.00,0.0095
3067.00,0.0098
3066.00,0.0101
3065.00,0.0105
3064.00,0.0109
3063.00,0.0113
3062.00,0.0116
3061.00,0.0118
3060.00,0.0119
3059.00,0.0119
3058.00,0.0117
3057.00,0.0114
3056.00,0.0111
3055.00,0.0107
3054.00,0.0102
3053.00,0.0099
3052.00,0.0095
3051.00,0.0093
3050.00,0.0090
3049.00,0.0088
3048.00,0.0087
3047.00,0.0086
3046.00,0.0085
3045.00,0.0085
3044.00,0.0085
3043.00,0.0085
3042.00,0.0086
3041.00,0.0088
3040.00,0.0090
3039.00,0.0092
3038.00,0.0095
3037.00,0.0098
3036.00,0.0102
3035.00,0.0107
3034.00,0.0113
3033.00,0.0120
3032.00,0.0129
3031.00,0.0138
3030.00,0.0147
3029.00,0.0157
3028.00,0.0165
3027.00,0.0171
3026.00,0.0175
3025.00,0.0176
3024.00,0.0173
3023.00,0.0167
3022.00,0.0158
3021.00,0.0147
3020.00,0.0136
3019.00,0.0124
3018.00,0.0114
3017.00,0.0105
3016.00,0.0098
3015.00,0.0093
3014.00,0.0088
3013.00,0.0085
3012.00,0.0082
3011.00,0.0080
3010.00,0.0079
3009.00,0.0078
3008.00,0.0078
3007.00,0.0078
3006.00,0.0079
3005.00,0.0080
3004.00,0.0081
3003.00,0.0082
3002.00,0.0082
3001.00,0.0082
3000.00,0.0081
2999.00,0.0079
2998.00,0.0077
2997.00,0.0075
2996.00,0.0073
2995.00,0.0071
2994.00,0.0069
2993.00,0.0067
2992.00,0.0066
2991.00,0.0065
2990.00,0.0065
2989.00,0.0064
2988.00,0.0064
2987.00,0.0064
2986.00,0.0064
2985.00,0.0064
2984.00,0.0064
2983.00,0.0064
2982.00,0.0064
2981.00,0.0065
2980.00,0.0065
2979.00,0.0065
2978.00,0.0066
2977.00,0.0066
2976.00,0.0066
2975.00,0.0067
2974.00,0.0067
2973.00,0.0067
2972.00,0.0068
2971.00,0.0068
2970.00,0.0069
2969.00,0.0069
2968.00,0.0070
2967.00,0.0071
2966.00,0.0071
2965.00,0.0072
2964.00,0.0073
2963.00,0.0074
2962.00,0.0075
2961.00,0.0076
2960.00,0.0077
2959.00,0.0078
2958.00,0.0079
2957.00,0.0080
2956.00,0.0081
2955.00,0.0082
2954.00,0.0084
2953.00,0.0086
2952.00,0.0088
2951.00,0.0090
2950.00,0.0092
2949.00,0.0094
2948.00,0.0097
2947.00,0.0100
2946.00,0.0104
2945.00,0.0107
2944.00,0.0111
2943.00,0.0115
2942.00,0.0120
2941.00,0.0124
2940.00,0.0129
2939.00,0.0134
2938.00,0.0140
2937.00,0.0145
2936.00,0.0151
2935.00,0.0157
2934.00,0.0163
2933.00,0.0170
2932.00,0.0176
2931.00,0.0182
2930.00,0.0188
2929.00,0.0194
2928.00,0.0199
2927.00,0.0205
2926.00,0.0209
2925.00,0.0213
2924.00,0.0217
2923.00,0.0220
2922.00,0.0222
2921.00,0.0223
2920.00,0.0224
2919.00,0.0224
2918.00,0.0223
2917.00,0.0221
2916.00,0.0218
2915.00,0.0213
2914.00,0.0208
2913.00,0.0202
2912.00,0.0197
2911.00,0.0191
2910.00,0.0186
2909.00,0.0181
2908.00,0.0176
2907.00,0.0171
2906.00,0.0167
2905.00,0.0162
2904.00,0.0158
2903.00,0.0153
2902.00,0.0149
2901.00,0.0144
2900.00,0.0140
2899.00,0.0136
2898.00,0.0132
2897.00,0.0128
2896.00,0.0125
2895.00,0.0121
2894.00,0.0119
2893.00,0.0116
2892.00,0.0114
2891.00,0.0111
2890.00,0.0109
2889.00,0.0107
2888.00,0.0105
2887.00,0.0104
2886.00,0.0102
2885.00,0.0101
2884.00,0.0100
2883.00,0.0098
2882.00,0.0097
2881.00,0.0095
2880.00,0.0094
2879.00,0.0093
2878.00,0.0092
2877.00,0.0091
2876.00,0.0090
2875.00,0.0089
2874.00,0.0088
2873.00,0.0087
2872.00,0.0087
2871.00,0.0086
2870.00,0.0086
2869.00,0.0085
2868.00,0.0085
2867.00,0.0085
2866.00,0.0086
2865.00,0.0086
2864.00,0.0087
2863.00,0.0089
2862.00,0.0090
2861.00,0.0092
2860.00,0.0095
2859.00,0.0098
2858.00,0.0102
2857.00,0.0106
2856.00,0.0110
2855.00,0.0113
2854.00,0.0117
2853.00,0.0121
2852.00,0.0124
2851.00,0.0126
2850.00,0.0127
2849.00,0.0127
2848.00,0.0125
2847.00,0.0122
2846.00,0.0119
2845.00,0.0114
2844.00,0.0110
2843.00,0.0105
2842.00,0.0100
2841.00,0.0095
2840.00,0.0091
2839.00,0.0086
2838.00,0.0082
2837.00,0.0078
2836.00,0.0075
2835.00,0.0072
2834.00,0.0069
2833.00,0.0067
2832.00,0.0066
2831.00,0.0064
2830.00,0.0063
2829.00,0.0062
2828.00,0.0061
2827.00,0.0060
2826.00,0.0060
2825.00,0.0059
2824.00,0.0059
2823.00,0.0058
2822.00,0.0058
2821.00,0.0058
2820.00,0.0058
2819.00,0.0057
2818.00,0.0057
2817.00,0.0056
2816.00,0.0056
2815.00,0.0056
2814.00,0.0056
2813.00,0.0055
2812.00,0.0056
2811.00,0.0056
2810.00,0.0055
2809.00,0.0055
2808.00,0.0055
2807.00,0.0055
2806.00,0.0054
2805.00,0.0054
2804.00,0.0054
2803.00,0.0054
2802.00,0.0054
2801.00,0.0054
2800.00,0.0053
2799.00,0.0053
2798.00,0.0052
2797.00,0.0052
2796.00,0.0052
2795.00,0.0052
2794.00,0.0051
2793.00,0.0051
2792.00,0.0051
2791.00,0.0051
2790.00,0.0051
2789.00,0.0051
2788.00,0.0051
2787.00,0.0052
2786.00,0.0051
2785.00,0.0051
2784.00,0.0051
2783.00,0.0051
2782.00,0.0051
2781.00,0.0051
2780.00,0.0050
2779.00,0.0050
2778.00,0.0050
2777.00,0.0050
2776.00,0.0050
2775.00,0.0050
2774.00,0.0050
2773.00,0.0050
2772.00,0.0049
2771.00,0.0049
2770.00,0.0049
2769.00,0.0049
2768.00,0.0049
2767.00,0.0048
2766.00,0.0048
2765.00,0.0048
2764.00,0.0048
2763.00,0.0048
2762.00,0.0048
2761.00,0.0048
2760.00,0.0048
2759.00,0.0048
2758.00,0.0048
2757.00,0.0048
2756.00,0.0048
2755.00,0.0048
2754.00,0.0048
2753.00,0.0048
2752.00,0.0047
2751.00,0.0047
2750.00,0.0047
2749.00,0.0047
2748.00,0.0047
2747.00,0.0047
2746.00,0.0047
2745.00,0.0047
2744.00,0.0047
2743.00,0.0047
2742.00,0.0047
2741.00,0.0047
2740.00,0.0047
2739.00,0.0047
2738.00,0.0047
2737.00,0.0047
2736.00,0.0047
2735.00,0.0046
2734.00,0.0046
2733.00,0.0046
2732.00,0.0046
2731.00,0.0046
2730.00,0.0047
2729.00,0.0047
2728.00,0.0047
2727.00,0.0047
2726.00,0.0047
2725.00,0.0047
2724.00,0.0047
2723.00,0.0047
2722.00,0.0047
2721.00,0.0047
2720.00,0.0047
2719.00,0.0047
2718.00,0.0047
2717.00,0.0047
2716.00,0.0047
2715.00,0.0047
2714.00,0.0047
2713.00,0.0046
2712.00,0.0046
2711.00,0.0046
2710.00,0.0046
2709.00,0.0046
2708.00,0.0046
2707.00,0.0046
2706.00,0.0046
2705.00,0.0046
2704.00,0.0046
2703.00,0.0046
2702.00,0.0046
2701.00,0.0046
2700.00,0.0046
2699.00,0.0046
2698.00,0.0046
2697.00,0.0046
2696.00,0.0046
2695.00,0.0046
2694.00,0.0046
2693.00,0.0046
2692.00,0.0046
2691.00,0.0046
2690.00,0.0045
2689.00,0.0045
2688.00,0.0045
2687.00,0.0045
2686.00,0.0045
2685.00,0.0046
2684.00,0.0046
2683.00,0.0046
2682.00,0.0045
2681.00,0.0045
2680.00,0.0045
2679.00,0.0045
2678.00,0.0045
2677.00,0.0045
2676.00,0.0045
2675.00,0.0045
2674.00,0.0045
2673.00,0.0044
2672.00,0.0044
2671.00,0.0044
2670.00,0.0044
2669.00,0.0045
2668.00,0.0045
2667.00,0.0046
2666.00,0.0046
2665.00,0.0046
2664.00,0.0046
2663.00,0.0046
2662.00,0.0047
2661.00,0.0047
2660.00,0.0047
2659.00,0.0047
2658.00,0.0047
2657.00,0.0047
2656.00,0.0047
2655.00,0.0047
2654.00,0.0047
2653.00,0.0047
2652.00,0.0047
2651.00,0.0047
2650.00,0.0047
2649.00,0.0047
2648.00,0.0047
2647.00,0.0047
2646.00,0.0047
2645.00,0.0047
2644.00,0.0047
2643.00,0.0047
2642.00,0.0047
2641.00,0.0046
2640.00,0.0046
2639.00,0.0046
2638.00,0.0046
2637.00,0.0047
2636.00,0.0047
2635.00,0.0047
2634.00,0.0047
2633.00,0.0047
2632.00,0.0047
2631.00,0.0047
2630.00,0.0047
2629.00,0.0047
2628.00,0.0047
2627.00,0.0047
2626.00,0.0047
2625.00,0.0046
2624.00,0.0046
2623.00,0.0046
2622.00,0.0046
2621.00,0.0046
2620.00,0.0046
2619.00,0.0046
2618.00,0.0046
2617.00,0.0046
2616.00,0.0045
2615.00,0.0045
2614.00,0.0045
2613.00,0.0045
2612.00,0.0046
2611.00,0.0046
2610.00,0.0046
2609.00,0.0046
2608.00,0.0046
2607.00,0.0046
2606.00,0.0046
2605.00,0.0046
2604.00,0.0046
2603.00,0.0045
2602.00,0.0045
2601.00,0.0045
2600.00,0.0045
2599.00,0.0045
2598.00,0.0045
2597.00,0.0044
2596.00,0.0044
2595.00,0.0044
2594.00,0.0044
2593.00,0.0044
2592.00,0.0044
2591.00,0.0044
2590.00,0.0043
2589.00,0.0043
2588.00,0.0043
2587.00,0.0044
2586.00,0.0044
2585.00,0.0044
2584.00,0.0043
2583.00,0.0043
2582.00,0.0043
2581.00,0.0043
2580.00,0.0043
2579.00,0.0043
2578.00,0.0042
2577.00,0.0041
2576.00,0.0040
2575.00,0.0041
2574.00,0.0041
2573.00,0.0041
2572.00,0.0042
2571.00,0.0042
2570.00,0.0042
2569.00,0.0042
2568.00,0.0042
2567.00,0.0042
2566.00,0.0042
2565.00,0.0042
2564.00,0.0042
2563.00,0.0042
2562.00,0.0042
2561.00,0.0042
2560.00,0.0042
2559.00,0.0042
2558.00,0.0042
2557.00,0.0042
2556.00,0.0041
2555.00,0.0041
2554.00,0.0040
2553.00,0.0040
2552.00,0.0041
2551.00,0.0041
2550.00,0.0041
2549.00,0.0041
2548.00,0.0041
2547.00,0.0041
2546.00,0.0041
2545.00,0.0040
2544.00,0.0040
2543.00,0.0040
2542.00,0.0041
2541.00,0.0041
2540.00,0.0041
2539.00,0.0041
2538.00,0.0041
2537.00,0.0041
2536.00,0.0041
2535.00,0.0041
2534.00,0.0041
2533.00,0.0041
2532.00,0.0041
2531.00,0.0041
2530.00,0.0041
2529.00,0.0041
2528.00,0.0041
2527.00,0.0041
2526.00,0.0041
2525.00,0.0041
2524.00,0.0040
2523.00,0.0040
2522.00,0.0040
2521.00,0.0040
2520.00,0.0040
2519.00,0.0041
2518.00,0.0041
2517.00,0.0041
2516.00,0.0041
2515.00,0.0041
2514.00,0.0040
2513.00,0.0040
2512.00,0.0039
2511.00,0.0039
2510.00,0.0040
2509.00,0.0040
2508.00,0.0040
2507.00,0.0040
2506.00,0.0040
2505.00,0.0040
2504.00,0.0040
2503.00,0.0040
2502.00,0.0040
2501.00,0.0040
2500.00,0.0039
2499.00,0.0039
2498.00,0.0039
2497.00,0.0039
2496.00,0.0039
2495.00,0.0039
2494.00,0.0039
2493.00,0.0039
2492.00,0.0039
2491.00,0.0039
2490.00,0.0039
2489.00,0.0039
2488.00,0.0040
2487.00,0.0040
2486.00,0.0040
2485.00,0.0040
2484.00,0.0040
2483.00,0.0039
2482.00,0.0039
2481.00,0.0038
2480.00,0.0038
2479.00,0.0038
2478.00,0.0038
2477.00,0.0039
2476.00,0.0039
2475.00,0.0039
2474.00,0.0039
2473.00,0.0038
2472.00,0.0038
2471.00,0.0038
2470.00,0.0038
2469.00,0.0038
2468.00,0.0039
2467.00,0.0039
2466.00,0.0039
2465.00,0.0039
2464.00,0.0038
2463.00,0.0038
2462.00,0.0038
2461.00,0.0038
2460.00,0.0039
2459.00,0.0039
2458.00,0.0039
2457.00,0.0039
2456.00,0.0039
2455.00,0.0039
2454.00,0.0039
2453.00,0.0039
2452.00,0.0038
2451.00,0.0038
2450.00,0.0038
2449.00,0.0038
2448.00,0.0038
2447.00,0.0038
2446.00,0.0038
2445.00,0.0038
2444.00,0.0038
2443.00,0.0038
2442.00,0.0038
2441.00,0.0038
2440.00,0.0038
2439.00,0.0038
2438.00,0.0038
2437.00,0.0038
2436.00,0.0037
2435.00,0.0037
2434.00,0.0037
2433.00,0.0037
2432.00,0.0037
2431.00,0.0037
2430.00,0.0036
2429.00,0.0036
2428.00,0.0036
2427.00,0.0036
2426.00,0.0036
2425.00,0.0036
2424.00,0.0036
2423.00,0.0036
2422.00,0.0036
2421.00,0.0036
2420.00,0.0036
2419.00,0.0036
2418.00,0.0036
2417.00,0.0036
2416.00,0.0036
2415.00,0.0036
2414.00,0.0036
2413.00,0.0036
2412.00,0.0036
2411.00,0.0036
2410.00,0.0036
2409.00,0.0036
2408.00,0.0036
2407.00,0.0036
2406.00,0.0036
2405.00,0.0036
2404.00,0.0036
2403.00,0.0035
2402.00,0.0035
2401.00,0.0035
2400.00,0.0036
2399.00,0.0036
2398.00,0.0036
2397.00,0.0035
2396.00,0.0035
2395.00,0.0034
2394.00,0.0034
2393.00,0.0035
2392.00,0.0035
2391.00,0.0035
2390.00,0.0035
2389.00,0.0035
2388.00,0.0035
2387.00,0.0035
2386.00,0.0035
2385.00,0.0035
2384.00,0.0035
2383.00,0.0034
2382.00,0.0034
2381.00,0.0034
2380.00,0.0034
2379.00,0.0035
2378.00,0.0035
2377.00,0.0035
2376.00,0.0035
2375.00,0.0035
2374.00,0.0035
2373.00,0.0035
2372.00,0.0035
2371.00,0.0035
2370.00,0.0035
2369.00,0.0035
2368.00,0.0035
2367.00,0.0035
2366.00,0.0035
2365.00,0.0035
2364.00,0.0036
2363.00,0.0036
2362.00,0.0037
2361.00,0.0037
2360.00,0.0037
2359.00,0.0036
2358.00,0.0035
2357.00,0.0035
2356.00,0.0035
2355.00,0.0035
2354.00,0.0036
2353.00,0.0036
2352.00,0.0037
2351.00,0.0037
2350.00,0.0037
2349.00,0.0037
2348.00,0.0037
2347.00,0.0038
2346.00,0.0038
2345.00,0.0038
2344.00,0.0039
2343.00,0.0039
2342.00,0.0039
2341.00,0.0039
2340.00,0.0039
2339.00,0.0039
2338.00,0.0039
2337.00,0.0039
2336.00,0.0039
2335.00,0.0039
2334.00,0.0039
2333.00,0.0039
2332.00,0.0039
2331.00,0.0039
2330.00,0.0039
2329.00,0.0040
2328.00,0.0041
2327.00,0.0043
2326.00,0.0043
2325.00,0.0043
2324.00,0.0043
2323.00,0.0043
2322.00,0.0043
2321.00,0.0043
2320.00,0.0043
2319.00,0.0043
2318.00,0.0042
2317.00,0.0042
2316.00,0.0042
2315.00,0.0042
2314.00,0.0041
2313.00,0.0041
2312.00,0.0041
2311.00,0.0041
2310.00,0.0041
2309.00,0.0041
2308.00,0.0040
2307.00,0.0040
2306.00,0.0040
2305.00,0.0039
2304.00,0.0039
2303.00,0.0039
2302.00,0.0039
2301.00,0.0040
2300.00,0.0040
2299.00,0.0040
2298.00,0.0040
2297.00,0.0040
2296.00,0.0041
2295.00,0.0042
2294.00,0.0043
2293.00,0.0043
2292.00,0.0043
2291.00,0.0042
2290.00,0.0042
2289.00,0.0042
2288.00,0.0042
2287.00,0.0042
2286.00,0.0042
2285.00,0.0042
2284.00,0.0041
2283.00,0.0040
2282.00,0.0040
2281.00,0.0039
2280.00,0.0039
2279.00,0.0038
2278.00,0.0038
2277.00,0.0038
2276.00,0.0038
2275.00,0.0038
2274.00,0.0038
2273.00,0.0038
2272.00,0.0038
2271.00,0.0038
2270.00,0.0039
2269.00,0.0040
2268.00,0.0040
2267.00,0.0039
2266.00,0.0038
2265.00,0.0038
2264.00,0.0038
2263.00,0.0038
2262.00,0.0038
2261.00,0.0039
2260.00,0.0038
2259.00,0.0038
2258.00,0.0037
2257.00,0.0037
2256.00,0.0036
2255.00,0.0037
2254.00,0.0037
2253.00,0.0038
2252.00,0.0038
2251.00,0.0038
2250.00,0.0038
2249.00,0.0038
2248.00,0.0038
2247.00,0.0037
2246.00,0.0036
2245.00,0.0036
2244.00,0.0035
2243.00,0.0035
2242.00,0.0036
2241.00,0.0036
2240.00,0.0036
2239.00,0.0037
2238.00,0.0038
2237.00,0.0039
2236.00,0.0039
2235.00,0.0039
2234.00,0.0039
2233.00,0.0038
2232.00,0.0038
2231.00,0.0038
2230.00,0.0037
2229.00,0.0036
2228.00,0.0035
2227.00,0.0035
2226.00,0.0035
2225.00,0.0035
2224.00,0.0035
2223.00,0.0035
2222.00,0.0036
2221.00,0.0036
2220.00,0.0037
2219.00,0.0037
2218.00,0.0037
2217.00,0.0038
2216.00,0.0037
2215.00,0.0037
2214.00,0.0037
2213.00,0.0036
2212.00,0.0035
2211.00,0.0035
2210.00,0.0035
2209.00,0.0035
2208.00,0.0036
2207.00,0.0037
2206.00,0.0037
2205.00,0.0037
2204.00,0.0037
2203.00,0.0037
2202.00,0.0037
2201.00,0.0038
2200.00,0.0039
2199.00,0.0038
2198.00,0.0038
2197.00,0.0037
2196.00,0.0037
2195.00,0.0037
2194.00,0.0038
2193.00,0.0037
2192.00,0.0037
2191.00,0.0037
2190.00,0.0037
2189.00,0.0038
2188.00,0.0038
2187.00,0.0039
2186.00,0.0039
2185.00,0.0039
2184.00,0.0037
2183.00,0.0035
2182.00,0.0032
2181.00,0.0030
2180.00,0.0030
2179.00,0.0031
2178.00,0.0031
2177.00,0.0032
2176.00,0.0032
2175.00,0.0034
2174.00,0.0037
2173.00,0.0038
2172.00,0.0039
2171.00,0.0040
2170.00,0.0042
2169.00,0.0045
2168.00,0.0047
2167.00,0.0047
2166.00,0.0046
2165.00,0.0045
2164.00,0.0044
2163.00,0.0044
2162.00,0.0041
2161.00,0.0033
2160.00,0.0024
2159.00,0.0017
2158.00,0.0015
2157.00,0.0016
2156.00,0.0018
2155.00,0.0020
2154.00,0.0021
2153.00,0.0022
2152.00,0.0023
2151.00,0.0023
2150.00,0.0023
2149.00,0.0023
2148.00,0.0023
2147.00,0.0023
2146.00,0.0023
2145.00,0.0023
2144.00,0.0022
2143.00,0.0023
2142.00,0.0023
2141.00,0.0024
2140.00,0.0024
2139.00,0.0023
2138.00,0.0022
2137.00,0.0021
2136.00,0.0019
2135.00,0.0019
2134.00,0.0020
2133.00,0.0021
2132.00,0.0022
2131.00,0.0023
2130.00,0.0024
2129.00,0.0025
2128.00,0.0026
2127.00,0.0027
2126.00,0.0027
2125.00,0.0026
2124.00,0.0027
2123.00,0.0027
2122.00,0.0028
2121.00,0.0029
2120.00,0.0029
2119.00,0.0030
2118.00,0.0030
2117.00,0.0031
2116.00,0.0031
2115.00,0.0032
2114.00,0.0032
2113.00,0.0031
2112.00,0.0031
2111.00,0.0030
2110.00,0.0030
2109.00,0.0031
2108.00,0.0032
2107.00,0.0033
2106.00,0.0034
2105.00,0.0033
2104.00,0.0032
2103.00,0.0031
2102.00,0.0031
2101.00,0.0031
2100.00,0.0030
2099.00,0.0030
2098.00,0.0029
2097.00,0.0027
2096.00,0.0027
2095.00,0.0027
2094.00,0.0028
2093.00,0.0029
2092.00,0.0030
2091.00,0.0030
2090.00,0.0030
2089.00,0.0030
2088.00,0.0029
2087.00,0.0029
2086.00,0.0030
2085.00,0.0031
2084.00,0.0032
2083.00,0.0032
2082.00,0.0032
2081.00,0.0033
2080.00,0.0034
2079.00,0.0035
2078.00,0.0036
2077.00,0.0037
2076.00,0.0037
2075.00,0.0038
2074.00,0.0038
2073.00,0.0037
2072.00,0.0035
2071.00,0.0034
2070.00,0.0033
2069.00,0.0032
2068.00,0.0032
2067.00,0.0031
2066.00,0.0030
2065.00,0.0029
2064.00,0.0029
2063.00,0.0029
2062.00,0.0030
2061.00,0.0030
2060.00,0.0030
2059.00,0.0031
2058.00,0.0032
2057.00,0.0032
2056.00,0.0031
2055.00,0.0031
2054.00,0.0033
2053.00,0.0036
2052.00,0.0038
2051.00,0.0039
2050.00,0.0036
2049.00,0.0033
2048.00,0.0030
2047.00,0.0029
2046.00,0.0030
2045.00,0.0031
2044.00,0.0033
2043.00,0.0036
2042.00,0.0038
2041.00,0.0039
2040.00,0.0037
2039.00,0.0034
2038.00,0.0032
2037.00,0.0031
2036.00,0.0030
2035.00,0.0029
2034.00,0.0028
2033.00,0.0027
2032.00,0.0026
2031.00,0.0024
2030.00,0.0023
2029.00,0.0024
2028.00,0.0026
2027.00,0.0027
2026.00,0.0028
2025.00,0.0028
2024.00,0.0029
2023.00,0.0031
2022.00,0.0032
2021.00,0.0030
2020.00,0.0028
2019.00,0.0026
2018.00,0.0026
2017.00,0.0028
2016.00,0.0029
2015.00,0.0028
2014.00,0.0022
2013.00,0.0014
2012.00,0.0007
2011.00,0.0005
2010.00,0.0009
2009.00,0.0016
2008.00,0.0022
2007.00,0.0026
2006.00,0.0028
2005.00,0.0029
2004.00,0.0030
2003.00,0.0031
2002.00,0.0032
2001.00,0.0031
2000.00,0.0029
1999.00,0.0028
1998.00,0.0026
1997.00,0.0025
1996.00,0.0026
1995.00,0.0027
1994.00,0.0029
1993.00,0.0031
1992.00,0.0032
1991.00,0.0033
1990.00,0.0034
1989.00,0.0034
1988.00,0.0035
1987.00,0.0037
1986.00,0.0038
1985.00,0.0038
1984.00,0.0039
1983.00,0.0041
1982.00,0.0044
1981.00,0.0048
1980.00,0.0050
1979.00,0.0046
1978.00,0.0039
1977.00,0.0032
1976.00,0.0027
1975.00,0.0026
1974.00,0.0027
1973.00,0.0028
1972.00,0.0029
1971.00,0.0030
1970.00,0.0031
1969.00,0.0032
1968.00,0.0033
1967.00,0.0034
1966.00,0.0034
1965.00,0.0035
1964.00,0.0035
1963.00,0.0036
1962.00,0.0035
1961.00,0.0034
1960.00,0.0033
1959.00,0.0031
1958.00,0.0031
1957.00,0.0031
1956.00,0.0032
1955.00,0.0033
1954.00,0.0034
1953.00,0.0035
1952.00,0.0036
1951.00,0.0038
1950.00,0.0040
1949.00,0.0042
1948.00,0.0043
1947.00,0.0043
1946.00,0.0042
1945.00,0.0041
1944.00,0.0041
1943.00,0.0042
1942.00,0.0043
1941.00,0.0043
1940.00,0.0042
1939.00,0.0041
1938.00,0.0040
1937.00,0.0039
1936.00,0.0038
1935.00,0.0037
1934.00,0.0036
1933.00,0.0034
1932.00,0.0033
1931.00,0.0032
1930.00,0.0032
1929.00,0.0032
1928.00,0.0031
1927.00,0.0031
1926.00,0.0031
1925.00,0.0030
1924.00,0.0029
1923.00,0.0029
1922.00,0.0029
1921.00,0.0028
1920.00,0.0028
1919.00,0.0029
1918.00,0.0029
1917.00,0.0029
1916.00,0.0028
1915.00,0.0028
1914.00,0.0028
1913.00,0.0028
1912.00,0.0028
1911.00,0.0028
1910.00,0.0028
1909.00,0.0028
1908.00,0.0028
1907.00,0.0028
1906.00,0.0028
1905.00,0.0028
1904.00,0.0028
1903.00,0.0028
1902.00,0.0028
1901.00,0.0028
1900.00,0.0028
1899.00,0.0029
1898.00,0.0030
1897.00,0.0030
1896.00,0.0031
1895.00,0.0031
1894.00,0.0032
1893.00,0.0032
1892.00,0.0033
1891.00,0.0034
1890.00,0.0034
1889.00,0.0035
1888.00,0.0035
1887.00,0.0036
1886.00,0.0037
1885.00,0.0037
1884.00,0.0037
1883.00,0.0037
1882.00,0.0037
1881.00,0.0037
1880.00,0.0037
1879.00,0.0038
1878.00,0.0038
1877.00,0.0038
1876.00,0.0038
1875.00,0.0039
1874.00,0.0039
1873.00,0.0039
1872.00,0.0039
1871.00,0.0039
1870.00,0.0040
1869.00,0.0040
1868.00,0.0040
1867.00,0.0039
1866.00,0.0039
1865.00,0.0038
1864.00,0.0037
1863.00,0.0036
1862.00,0.0035
1861.00,0.0034
1860.00,0.0033
1859.00,0.0033
1858.00,0.0032
1857.00,0.0031
1856.00,0.0031
1855.00,0.0031
1854.00,0.0030
1853.00,0.0030
1852.00,0.0029
1851.00,0.0028
1850.00,0.0027
1849.00,0.0027
1848.00,0.0027
1847.00,0.0028
1846.00,0.0028
1845.00,0.0028
1844.00,0.0028
1843.00,0.0027
1842.00,0.0027
1841.00,0.0026
1840.00,0.0026
1839.00,0.0025
1838.00,0.0026
1837.00,0.0026
1836.00,0.0026
1835.00,0.0026
1834.00,0.0027
1833.00,0.0027
1832.00,0.0027
1831.00,0.0027
1830.00,0.0028
1829.00,0.0028
1828.00,0.0028
1827.00,0.0029
1826.00,0.0029
1825.00,0.0029
1824.00,0.0030
1823.00,0.0030
1822.00,0.0030
1821.00,0.0030
1820.00,0.0030
1819.00,0.0030
1818.00,0.0030
1817.00,0.0031
1816.00,0.0032
1815.00,0.0033
1814.00,0.0034
1813.00,0.0034
1812.00,0.0035
1811.00,0.0035
1810.00,0.0036
1809.00,0.0037
1808.00,0.0038
1807.00,0.0038
1806.00,0.0039
1805.00,0.0039
1804.00,0.0040
1803.00,0.0040
1802.00,0.0040
1801.00,0.0040
1800.00,0.0040
1799.00,0.0039
1798.00,0.0038
1797.00,0.0038
1796.00,0.0037
1795.00,0.0037
1794.00,0.0036
1793.00,0.0036
1792.00,0.0035
1791.00,0.0034
1790.00,0.0033
1789.00,0.0031
1788.00,0.0030
1787.00,0.0029
1786.00,0.0029
1785.00,0.0029
1784.00,0.0029
1783.00,0.0029
1782.00,0.0028
1781.00,0.0028
1780.00,0.0028
1779.00,0.0028
1778.00,0.0028
1777.00,0.0029
1776.00,0.0029
1775.00,0.0029
1774.00,0.0029
1773.00,0.0029
1772.00,0.0029
1771.00,0.0029
1770.00,0.0029
1769.00,0.0028
1768.00,0.0027
1767.00,0.0027
1766.00,0.0026
1765.00,0.0026
1764.00,0.0026
1763.00,0.0026
1762.00,0.0026
1761.00,0.0025
1760.00,0.0025
1759.00,0.0025
1758.00,0.0025
1757.00,0.0025
1756.00,0.0026
1755.00,0.0026
1754.00,0.0027
1753.00,0.0027
1752.00,0.0027
1751.00,0.0027
1750.00,0.0027
1749.00,0.0027
1748.00,0.0027
1747.00,0.0026
1746.00,0.0026
1745.00,0.0026
1744.00,0.0025
1743.00,0.0025
1742.00,0.0025
1741.00,0.0025
1740.00,0.0026
1739.00,0.0026
1738.00,0.0026
1737.00,0.0027
1736.00,0.0027
1735.00,0.0028
1734.00,0.0028
1733.00,0.0027
1732.00,0.0027
1731.00,0.0027
1730.00,0.0026
1729.00,0.0026
1728.00,0.0025
1727.00,0.0025
1726.00,0.0025
1725.00,0.0025
1724.00,0.0026
1723.00,0.0026
1722.00,0.0027
1721.00,0.0027
1720.00,0.0028
1719.00,0.0029
1718.00,0.0029
1717.00,0.0030
1716.00,0.0031
1715.00,0.0032
1714.00,0.0032
1713.00,0.0033
1712.00,0.0034
1711.00,0.0036
1710.00,0.0037
1709.00,0.0040
1708.00,0.0043
1707.00,0.0046
1706.00,0.0050
1705.00,0.0053
1704.00,0.0057
1703.00,0.0061
1702.00,0.0065
1701.00,0.0069
1700.00,0.0073
1699.00,0.0077
1698.00,0.0079
1697.00,0.0080
1696.00,0.0081
1695.00,0.0084
1694.00,0.0087
1693.00,0.0090
1692.00,0.0092
1691.00,0.0095
1690.00,0.0098
1689.00,0.0101
1688.00,0.0104
1687.00,0.0106
1686.00,0.0108
1685.00,0.0110
1684.00,0.0113
1683.00,0.0117
1682.00,0.0120
1681.00,0.0122
1680.00,0.0124
1679.00,0.0127
1678.00,0.0129
1677.00,0.0131
1676.00,0.0133
1675.00,0.0135
1674.00,0.0136
1673.00,0.0137
1672.00,0.0139
1671.00,0.0140
1670.00,0.0142
1669.00,0.0145
1668.00,0.0147
1667.00,0.0148
1666.00,0.0149
1665.00,0.0151
1664.00,0.0153
1663.00,0.0155
1662.00,0.0158
1661.00,0.0160
1660.00,0.0161
1659.00,0.0163
1658.00,0.0165
1657.00,0.0166
1656.00,0.0168
1655.00,0.0169
1654.00,0.0170
1653.00,0.0172
1652.00,0.0174
1651.00,0.0176
1650.00,0.0176
1649.00,0.0177
1648.00,0.0177
1647.00,0.0177
1646.00,0.0177
1645.00,0.0177
1644.00,0.0176
1643.00,0.0176
1642.00,0.0175
1641.00,0.0175
1640.00,0.0175
1639.00,0.0175
1638.00,0.0175
1637.00,0.0175
1636.00,0.0175
1635.00,0.0175
1634.00,0.0175
1633.00,0.0174
1632.00,0.0173
1631.00,0.0171
1630.00,0.0170
1629.00,0.0168
1628.00,0.0166
1627.00,0.0165
1626.00,0.0162
1625.00,0.0160
1624.00,0.0156
1623.00,0.0153
1622.00,0.0149
1621.00,0.0145
1620.00,0.0142
1619.00,0.0138
1618.00,0.0135
1617.00,0.0131
1616.00,0.0128
1615.00,0.0126
1614.00,0.0125
1613.00,0.0123
1612.00,0.0123
1611.00,0.0123
1610.00,0.0125
1609.00,0.0129
1608.00,0.0135
1607.00,0.0144
1606.00,0.0155
1605.00,0.0169
1604.00,0.0182
1603.00,0.0194
1602.00,0.0201
1601.00,0.0203
1600.00,0.0198
1599.00,0.0187
1598.00,0.0173
1597.00,0.0158
1596.00,0.0144
1595.00,0.0132
1594.00,0.0123
1593.00,0.0115
1592.00,0.0109
1591.00,0.0105
1590.00,0.0102
1589.00,0.0100
1588.00,0.0100
1587.00,0.0102
1586.00,0.0107
1585.00,0.0112
1584.00,0.0116
1583.00,0.0118
1582.00,0.0116
1581.00,0.0112
1580.00,0.0106
1579.00,0.0101
1578.00,0.0096
1577.00,0.0093
1576.00,0.0091
1575.00,0.0091
1574.00,0.0091
1573.00,0.0091
1572.00,0.0091
1571.00,0.0091
1570.00,0.0091
1569.00,0.0092
1568.00,0.0093
1567.00,0.0094
1566.00,0.0095
1565.00,0.0096
1564.00,0.0098
1563.00,0.0100
1562.00,0.0102
1561.00,0.0104
1560.00,0.0106
1559.00,0.0110
1558.00,0.0114
1557.00,0.0116
1556.00,0.0117
1555.00,0.0117
1554.00,0.0119
1553.00,0.0121
1552.00,0.0124
1551.00,0.0126
1550.00,0.0129
1549.00,0.0131
1548.00,0.0134
1547.00,0.0136
1546.00,0.0139
1545.00,0.0142
1544.00,0.0144
1543.00,0.0147
1542.00,0.0149
1541.00,0.0150
1540.00,0.0151
1539.00,0.0153
1538.00,0.0154
1537.00,0.0155
1536.00,0.0155
1535.00,0.0156
1534.00,0.0157
1533.00,0.0159
1532.00,0.0160
1531.00,0.0162
1530.00,0.0162
1529.00,0.0163
1528.00,0.0163
1527.00,0.0163
1526.00,0.0163
1525.00,0.0163
1524.00,0.0163
1523.00,0.0164
1522.00,0.0164
1521.00,0.0165
1520.00,0.0167
1519.00,0.0168
1518.00,0.0169
1517.00,0.0169
1516.00,0.0170
1515.00,0.0170
1514.00,0.0169
1513.00,0.0168
1512.00,0.0167
1511.00,0.0166
1510.00,0.0165
1509.00,0.0163
1508.00,0.0161
1507.00,0.0160
1506.00,0.0161
1505.00,0.0161
1504.00,0.0162
1503.00,0.0163
1502.00,0.0165
1501.00,0.0171
1500.00,0.0180
1499.00,0.0195
1498.00,0.0219
1497.00,0.0258
1496.00,0.0309
1495.00,0.0364
1494.00,0.0410
1493.00,0.0436
1492.00,0.0436
1491.00,0.0406
1490.00,0.0355
1489.00,0.0300
1488.00,0.0253
1487.00,0.0218
1486.00,0.0192
1485.00,0.0172
1484.00,0.0156
1483.00,0.0143
1482.00,0.0132
1481.00,0.0124
1480.00,0.0118
1479.00,0.0113
1478.00,0.0110
1477.00,0.0108
1476.00,0.0106
1475.00,0.0105
1474.00,0.0104
1473.00,0.0103
1472.00,0.0103
1471.00,0.0103
1470.00,0.0103
1469.00,0.0103
1468.00,0.0103
1467.00,0.0104
1466.00,0.0105
1465.00,0.0107
1464.00,0.0109
1463.00,0.0112
1462.00,0.0116
1461.00,0.0122
1460.00,0.0130
1459.00,0.0142
1458.00,0.0166
1457.00,0.0206
1456.00,0.0259
1455.00,0.0312
1454.00,0.0358
1453.00,0.0394
1452.00,0.0413
1451.00,0.0412
1450.00,0.0395
1449.00,0.0370
1448.00,0.0343
1447.00,0.0319
1446.00,0.0299
1445.00,0.0281
1444.00,0.0264
1443.00,0.0248
1442.00,0.0232
1441.00,0.0219
1440.00,0.0207
1439.00,0.0196
1438.00,0.0186
1437.00,0.0174
1436.00,0.0161
1435.00,0.0151
1434.00,0.0142
1433.00,0.0135
1432.00,0.0128
1431.00,0.0121
1430.00,0.0115
1429.00,0.0110
1428.00,0.0105
1427.00,0.0102
1426.00,0.0099
1425.00,0.0097
1424.00,0.0095
1423.00,0.0094
1422.00,0.0093
1421.00,0.0092
1420.00,0.0092
1419.00,0.0092
1418.00,0.0092
1417.00,0.0091
1416.00,0.0090
1415.00,0.0089
1414.00,0.0088
1413.00,0.0088
1412.00,0.0088
1411.00,0.0088
1410.00,0.0088
1409.00,0.0088
1408.00,0.0088
1407.00,0.0088
1406.00,0.0087
1405.00,0.0087
1404.00,0.0086
1403.00,0.0086
1402.00,0.0086
1401.00,0.0086
1400.00,0.0087
1399.00,0.0087
1398.00,0.0087
1397.00,0.0088
1396.00,0.0088
1395.00,0.0089
1394.00,0.0090
1393.00,0.0092
1392.00,0.0094
1391.00,0.0095
1390.00,0.0097
1389.00,0.0100
1388.00,0.0102
1387.00,0.0105
1386.00,0.0108
1385.00,0.0110
1384.00,0.0112
1383.00,0.0114
1382.00,0.0117
1381.00,0.0119
1380.00,0.0121
1379.00,0.0123
1378.00,0.0125
1377.00,0.0127
1376.00,0.0129
1375.00,0.0131
1374.00,0.0131
1373.00,0.0132
1372.00,0.0132
1371.00,0.0132
1370.00,0.0131
1369.00,0.0130
1368.00,0.0130
1367.00,0.0129
1366.00,0.0128
1365.00,0.0128
1364.00,0.0127
1363.00,0.0126
1362.00,0.0124
1361.00,0.0123
1360.00,0.0122
1359.00,0.0120
1358.00,0.0119
1357.00,0.0119
1356.00,0.0118
1355.00,0.0118
1354.00,0.0118
1353.00,0.0119
1352.00,0.0120
1351.00,0.0121
1350.00,0.0121
1349.00,0.0121
1348.00,0.0120
1347.00,0.0119
1346.00,0.0117
1345.00,0.0115
1344.00,0.0114
1343.00,0.0113
1342.00,0.0112
1341.00,0.0111
1340.00,0.0110
1339.00,0.0109
1338.00,0.0109
1337.00,0.0109
1336.00,0.0110
1335.00,0.0110
1334.00,0.0111
1333.00,0.0113
1332.00,0.0114
1331.00,0.0114
1330.00,0.0115
1329.00,0.0115
1328.00,0.0115
1327.00,0.0114
1326.00,0.0113
1325.00,0.0112
1324.00,0.0111
1323.00,0.0110
1322.00,0.0110
1321.00,0.0110
1320.00,0.0110
1319.00,0.0111
1318.00,0.0112
1317.00,0.0113
1316.00,0.0114
1315.00,0.0115
1314.00,0.0116
1313.00,0.0116
1312.00,0.0116
1311.00,0.0116
1310.00,0.0116
1309.00,0.0115
1308.00,0.0113
1307.00,0.0112
1306.00,0.0111
1305.00,0.0109
1304.00,0.0108
1303.00,0.0106
1302.00,0.0105
1301.00,0.0103
1300.00,0.0102
1299.00,0.0101
1298.00,0.0100
1297.00,0.0099
1296.00,0.0099
1295.00,0.0098
1294.00,0.0098
1293.00,0.0097
1292.00,0.0097
1291.00,0.0096
1290.00,0.0096
1289.00,0.0095
1288.00,0.0094
1287.00,0.0094
1286.00,0.0094
1285.00,0.0094
1284.00,0.0094
1283.00,0.0094
1282.00,0.0094
1281.00,0.0094
1280.00,0.0094
1279.00,0.0093
1278.00,0.0093
1277.00,0.0093
1276.00,0.0093
1275.00,0.0092
1274.00,0.0091
1273.00,0.0090
1272.00,0.0090
1271.00,0.0089
1270.00,0.0089
1269.00,0.0089
1268.00,0.0088
1267.00,0.0088
1266.00,0.0087
1265.00,0.0087
1264.00,0.0087
1263.00,0.0087
1262.00,0.0087
1261.00,0.0087
1260.00,0.0087
1259.00,0.0087
1258.00,0.0086
1257.00,0.0086
1256.00,0.0086
1255.00,0.0086
1254.00,0.0087
1253.00,0.0087
1252.00,0.0088
1251.00,0.0088
1250.00,0.0089
1249.00,0.0089
1248.00,0.0089
1247.00,0.0090
1246.00,0.0090
1245.00,0.0091
1244.00,0.0091
1243.00,0.0092
1242.00,0.0092
1241.00,0.0093
1240.00,0.0094
1239.00,0.0094
1238.00,0.0095
1237.00,0.0095
1236.00,0.0096
1235.00,0.0097
1234.00,0.0099
1233.00,0.0101
1232.00,0.0102
1231.00,0.0104
1230.00,0.0105
1229.00,0.0107
1228.00,0.0107
1227.00,0.0108
1226.00,0.0107
1225.00,0.0107
1224.00,0.0105
1223.00,0.0104
1222.00,0.0103
1221.00,0.0101
1220.00,0.0100
1219.00,0.0099
1218.00,0.0098
1217.00,0.0097
1216.00,0.0096
1215.00,0.0095
1214.00,0.0094
1213.00,0.0094
1212.00,0.0094
1211.00,0.0094
1210.00,0.0094
1209.00,0.0094
1208.00,0.0094
1207.00,0.0094
1206.00,0.0094
1205.00,0.0095
1204.00,0.0095
1203.00,0.0095
1202.00,0.0096
1201.00,0.0097
1200.00,0.0098
1199.00,0.0098
1198.00,0.0098
1197.00,0.0098
1196.00,0.0099
1195.00,0.0099
1194.00,0.0100
1193.00,0.0100
1192.00,0.0100
1191.00,0.0100
1190.00,0.0101
1189.00,0.0101
1188.00,0.0102
1187.00,0.0103
1186.00,0.0105
1185.00,0.0108
1184.00,0.0112
1183.00,0.0115
1182.00,0.0118
1181.00,0.0118
1180.00,0.0117
1179.00,0.0113
1178.00,0.0108
1177.00,0.0103
1176.00,0.0098
1175.00,0.0094
1174.00,0.0091
1173.00,0.0089
1172.00,0.0087
1171.00,0.0086
1170.00,0.0086
1169.00,0.0085
1168.00,0.0085
1167.00,0.0085
1166.00,0.0085
1165.00,0.0086
1164.00,0.0086
1163.00,0.0087
1162.00,0.0088
1161.00,0.0091
1160.00,0.0094
1159.00,0.0099
1158.00,0.0105
1157.00,0.0111
1156.00,0.0115
1155.00,0.0118
1154.00,0.0118
1153.00,0.0116
1152.00,0.0111
1151.00,0.0104
1150.00,0.0097
1149.00,0.0091
1148.00,0.0085
1147.00,0.0081
1146.00,0.0077
1145.00,0.0075
1144.00,0.0072
1143.00,0.0070
1142.00,0.0069
1141.00,0.0068
1140.00,0.0066
1139.00,0.0065
1138.00,0.0065
1137.00,0.0064
1136.00,0.0063
1135.00,0.0062
1134.00,0.0062
1133.00,0.0062
1132.00,0.0062
1131.00,0.0062
1130.00,0.0063
1129.00,0.0063
1128.00,0.0064
1127.00,0.0065
1126.00,0.0066
1125.00,0.0068
1124.00,0.0069
1123.00,0.0070
1122.00,0.0072
1121.00,0.0073
1120.00,0.0074
1119.00,0.0075
1118.00,0.0075
1117.00,0.0076
1116.00,0.0076
1115.00,0.0077
1114.00,0.0077
1113.00,0.0078
1112.00,0.0077
1111.00,0.0077
1110.00,0.0077
1109.00,0.0077
1108.00,0.0077
1107.00,0.0077
1106.00,0.0078
1105.00,0.0079
1104.00,0.0079
1103.00,0.0080
1102.00,0.0080
1101.00,0.0080
1100.00,0.0080
1099.00,0.0080
1098.00,0.0080
1097.00,0.0081
1096.00,0.0081
1095.00,0.0081
1094.00,0.0082
1093.00,0.0083
1092.00,0.0083
1091.00,0.0084
1090.00,0.0085
1089.00,0.0086
1088.00,0.0088
1087.00,0.0089
1086.00,0.0092
1085.00,0.0094
1084.00,0.0097
1083.00,0.0099
1082.00,0.0102
1081.00,0.0105
1080.00,0.0107
1079.00,0.0110
1078.00,0.0113
1077.00,0.0117
1076.00,0.0121
1075.00,0.0125
1074.00,0.0130
1073.00,0.0136
1072.00,0.0140
1071.00,0.0143
1070.00,0.0146
1069.00,0.0146
1068.00,0.0145
1067.00,0.0144
1066.00,0.0142
1065.00,0.0139
1064.00,0.0134
1063.00,0.0130
1062.00,0.0125
1061.00,0.0122
1060.00,0.0118
1059.00,0.0115
1058.00,0.0113
1057.00,0.0111
1056.00,0.0108
1055.00,0.0105
1054.00,0.0103
1053.00,0.0100
1052.00,0.0098
1051.00,0.0096
1050.00,0.0094
1049.00,0.0093
1048.00,0.0091
1047.00,0.0089
1046.00,0.0088
1045.00,0.0088
1044.00,0.0087
1043.00,0.0087
1042.00,0.0088
1041.00,0.0089
1040.00,0.0090
1039.00,0.0092
1038.00,0.0096
1037.00,0.0103
1036.00,0.0114
1035.00,0.0127
1034.00,0.0144
1033.00,0.0162
1032.00,0.0181
1031.00,0.0199
1030.00,0.0214
1029.00,0.0225
1028.00,0.0228
1027.00,0.0226
1026.00,0.0217
1025.00,0.0204
1024.00,0.0190
1023.00,0.0178
1022.00,0.0167
1021.00,0.0158
1020.00,0.0150
1019.00,0.0143
1018.00,0.0137
1017.00,0.0131
1016.00,0.0126
1015.00,0.0122
1014.00,0.0119
1013.00,0.0116
1012.00,0.0114
1011.00,0.0112
1010.00,0.0112
1009.00,0.0111
1008.00,0.0111
1007.00,0.0112
1006.00,0.0114
1005.00,0.0116
1004.00,0.0117
1003.00,0.0117
1002.00,0.0115
1001.00,0.0112
1000.00,0.0107
999.00,0.0102
998.00,0.0098
997.00,0.0095
996.00,0.0092
995.00,0.0090
994.00,0.0090
993.00,0.0090
992.00,0.0089
991.00,0.0089
990.00,0.0090
989.00,0.0091
988.00,0.0092
987.00,0.0094
986.00,0.0097
985.00,0.0100
984.00,0.0101
983.00,0.0103
982.00,0.0106
981.00,0.0108
980.00,0.0108
979.00,0.0108
978.00,0.0107
977.00,0.0105
976.00,0.0103
975.00,0.0101
974.00,0.0100
973.00,0.0099
972.00,0.0099
971.00,0.0100
970.00,0.0102
969.00,0.0105
968.00,0.0107
967.00,0.0110
966.00,0.0112
965.00,0.0113
964.00,0.0113
963.00,0.0112
962.00,0.0110
961.00,0.0107
960.00,0.0103
959.00,0.0099
958.00,0.0096
957.00,0.0093
956.00,0.0090
955.00,0.0088
954.00,0.0087
953.00,0.0087
952.00,0.0087
951.00,0.0087
950.00,0.0088
949.00,0.0088
948.00,0.0089
947.00,0.0090
946.00,0.0091
945.00,0.0092
944.00,0.0092
943.00,0.0092
942.00,0.0092
941.00,0.0092
940.00,0.0091
939.00,0.0089
938.00,0.0088
937.00,0.0086
936.00,0.0083
935.00,0.0080
934.00,0.0078
933.00,0.0076
932.00,0.0074
931.00,0.0072
930.00,0.0072
929.00,0.0071
928.00,0.0070
927.00,0.0070
926.00,0.0071
925.00,0.0072
924.00,0.0073
923.00,0.0074
922.00,0.0076
921.00,0.0078
920.00,0.0079
919.00,0.0082
918.00,0.0085
917.00,0.0089
916.00,0.0094
915.00,0.0100
914.00,0.0108
913.00,0.0116
912.00,0.0125
911.00,0.0135
910.00,0.0144
909.00,0.0153
908.00,0.0159
907.00,0.0163
906.00,0.0164
905.00,0.0161
904.00,0.0156
903.00,0.0148
902.00,0.0138
901.00,0.0127
900.00,0.0116
899.00,0.0106
898.00,0.0097
897.00,0.0089
896.00,0.0083
895.00,0.0078
894.00,0.0075
893.00,0.0071
892.00,0.0068
891.00,0.0066
890.00,0.0064
889.00,0.0062
888.00,0.0061
887.00,0.0060
886.00,0.0060
885.00,0.0059
884.00,0.0058
883.00,0.0057
882.00,0.0057
881.00,0.0056
880.00,0.0055
879.00,0.0055
878.00,0.0055
877.00,0.0054
876.00,0.0053
875.00,0.0052
874.00,0.0052
873.00,0.0051
872.00,0.0050
871.00,0.0050
870.00,0.0050
869.00,0.0050
868.00,0.0050
867.00,0.0050
866.00,0.0050
865.00,0.0050
864.00,0.0049
863.00,0.0049
862.00,0.0050
861.00,0.0051
860.00,0.0052
859.00,0.0052
858.00,0.0053
857.00,0.0053
856.00,0.0053
855.00,0.0054
854.00,0.0056
853.00,0.0058
852.00,0.0059
851.00,0.0061
850.00,0.0063
849.00,0.0066
848.00,0.0070
847.00,0.0074
846.00,0.0080
845.00,0.0084
844.00,0.0087
843.00,0.0089
842.00,0.0091
841.00,0.0092
840.00,0.0091
839.00,0.0088
838.00,0.0085
837.00,0.0082
836.00,0.0077
835.00,0.0072
834.00,0.0069
833.00,0.0066
832.00,0.0063
831.00,0.0061
830.00,0.0059
829.00,0.0058
828.00,0.0057
827.00,0.0056
826.00,0.0056
825.00,0.0056
824.00,0.0055
823.00,0.0054
822.00,0.0054
821.00,0.0054
820.00,0.0053
819.00,0.0053
818.00,0.0053
817.00,0.0053
816.00,0.0054
815.00,0.0054
814.00,0.0055
813.00,0.0054
812.00,0.0054
811.00,0.0054
810.00,0.0055
809.00,0.0056
808.00,0.0056
807.00,0.0056
806.00,0.0057
805.00,0.0057
804.00,0.0057
803.00,0.0057
802.00,0.0059
801.00,0.0060
800.00,0.0062
799.00,0.0063
798.00,0.0066
797.00,0.0069
796.00,0.0071
795.00,0.0074
794.00,0.0077
793.00,0.0080
792.00,0.0082
791.00,0.0086
790.00,0.0090
789.00,0.0094
788.00,0.0098
787.00,0.0102
786.00,0.0108
785.00,0.0113
784.00,0.0119
783.00,0.0125
782.00,0.0132
781.00,0.0140
780.00,0.0148
779.00,0.0158
778.00,0.0170
777.00,0.0184
776.00,0.0199
775.00,0.0216
774.00,0.0234
773.00,0.0254
772.00,0.0275
771.00,0.0297
770.00,0.0322
769.00,0.0346
768.00,0.0370
767.00,0.0393
766.00,0.0418
765.00,0.0442
764.00,0.0465
763.00,0.0489
762.00,0.0514
761.00,0.0539
760.00,0.0563
759.00,0.0586
758.00,0.0607
757.00,0.0624
756.00,0.0635
755.00,0.0642
754.00,0.0644
753.00,0.0644
752.00,0.0642
751.00,0.0640
750.00,0.0640
749.00,0.0640
748.00,0.0637
747.00,0.0629
746.00,0.0614
745.00,0.0589
744.00,0.0555
743.00,0.0516
742.00,0.0475
741.00,0.0434
740.00,0.0395
739.00,0.0359
738.00,0.0327
737.00,0.0298
736.00,0.0268
735.00,0.0240
734.00,0.0214
733.00,0.0190
732.00,0.0169
731.00,0.0152
730.00,0.0139
729.00,0.0130
728.00,0.0122
727.00,0.0116
726.00,0.0112
725.00,0.0109
724.00,0.0107
723.00,0.0106
722.00,0.0107
721.00,0.0108
720.00,0.0109
719.00,0.0110
718.00,0.0113
717.00,0.0116
716.00,0.0121
715.00,0.0128
714.00,0.0139
713.00,0.0153
712.00,0.0172
711.00,0.0198
710.00,0.0234
709.00,0.0282
708.00,0.0342
707.00,0.0418
706.00,0.0509
705.00,0.0615
704.00,0.0734
703.00,0.0867
702.00,0.1011
701.00,0.1162
700.00,0.1316
699.00,0.1472
698.00,0.1627
697.00,0.1772
696.00,0.1892
695.00,0.1962
694.00,0.1961
693.00,0.1877
692.00,0.1722
691.00,0.1532
690.00,0.1339
689.00,0.1164
688.00,0.1015
687.00,0.0893
686.00,0.0797
685.00,0.0720
684.00,0.0657
683.00,0.0605
682.00,0.0562
681.00,0.0524
680.00,0.0490
679.00,0.0461
678.00,0.0436
677.00,0.0414
676.00,0.0394
675.00,0.0377
674.00,0.0364
673.00,0.0353
672.00,0.0343
671.00,0.0334
670.00,0.0327
669.00,0.0318
668.00,0.0305
667.00,0.0293
666.00,0.0285
665.00,0.0278
664.00,0.0269
663.00,0.0260
662.00,0.0252
661.00,0.0243
660.00,0.0234
659.00,0.0226
658.00,0.0219
657.00,0.0212
656.00,0.0204
655.00,0.0198
654.00,0.0192
653.00,0.0187
652.00,0.0181
651.00,0.0176
650.00,0.0172
649.00,0.0169
648.00,0.0165
647.00,0.0162
646.00,0.0159
645.00,0.0157
644.00,0.0155
643.00,0.0153
642.00,0.0153
641.00,0.0154
640.00,0.0154
639.00,0.0154
638.00,0.0157
637.00,0.0159
636.00,0.0160
635.00,0.0162
634.00,0.0165
633.00,0.0168
632.00,0.0170
631.00,0.0173
630.00,0.0177
629.00,0.0180
628.00,0.0181
627.00,0.0182
626.00,0.0183
625.00,0.0184
624.00,0.0185
623.00,0.0186
622.00,0.0190
621.00,0.0192
620.00,0.0191
619.00,0.0188
618.00,0.0185
617.00,0.0181
616.00,0.0177
615.00,0.0173
614.00,0.0171
613.00,0.0169
612.00,0.0166
611.00,0.0164
610.00,0.0163
609.00,0.0162
608.00,0.0159
607.00,0.0157
606.00,0.0157
605.00,0.0156
604.00,0.0155
603.00,0.0155
602.00,0.0156
601.00,0.0157
600.00,0.0157
599.00,0.0157
598.00,0.0159
597.00,0.0161
596.00,0.0162
595.00,0.0163
594.00,0.0165
593.00,0.0167
592.00,0.0168
591.00,0.0169
590.00,0.0171
589.00,0.0173
588.00,0.0174
587.00,0.0176
586.00,0.0179
585.00,0.0182
584.00,0.0185
583.00,0.0188
582.00,0.0192
581.00,0.0197
580.00,0.0202
579.00,0.0208
578.00,0.0217
577.00,0.0226
576.00,0.0233
575.00,0.0242
574.00,0.0252
573.00,0.0262
572.00,0.0271
571.00,0.0281
570.00,0.0291
569.00,0.0300
568.00,0.0306
567.00,0.0312
566.00,0.0322
565.00,0.0332
564.00,0.0342
563.00,0.0352
562.00,0.0362
561.00,0.0372
560.00,0.0381
559.00,0.0389
558.00,0.0400
557.00,0.0410
556.00,0.0418
555.00,0.0428
554.00,0.0440
553.00,0.0453
552.00,0.0464
551.00,0.0475
550.00,0.0488
549.00,0.0503
548.00,0.0519
547.00,0.0539
546.00,0.0562
545.00,0.0585
544.00,0.0608
543.00,0.0632
542.00,0.0658
541.00,0.0681
540.00,0.0700
539.00,0.0714
538.00,0.0724
537.00,0.0725
536.00,0.0713
535.00,0.0693
534.00,0.0668
533.00,0.0637
532.00,0.0603
531.00,0.0568
530.00,0.0534
529.00,0.0502
528.00,0.0470
527.00,0.0440
526.00,0.0414
525.00,0.0391
524.00,0.0368
523.00,0.0349
522.00,0.0334
521.00,0.0321
520.00,0.0307
519.00,0.0295
518.00,0.0287
517.00,0.0280
516.00,0.0273
515.00,0.0265
514.00,0.0260
513.00,0.0254
512.00,0.0245
511.00,0.0237
510.00,0.0232
509.00,0.0226
508.00,0.0218
507.00,0.0210
506.00,0.0205
505.00,0.0203
504.00,0.0199
503.00,0.0195
502.00,0.0192
501.00,0.0188
500.00,0.0181
499.00,0.0177
498.00,0.0176
497.00,0.0174
496.00,0.0169
495.00,0.0166
494.00,0.0165
493.00,0.0164
492.00,0.0159
491.00,0.0155
490.00,0.0154
489.00,0.0153
488.00,0.0150
487.00,0.0147
486.00,0.0148
485.00,0.0148
484.00,0.0144
483.00,0.0141
482.00,0.0142
481.00,0.0142
480.00,0.0138
479.00,0.0135
478.00,0.0135
477.00,0.0134
476.00,0.0129
475.00,0.0125
474.00,0.0127
473.00,0.0129
472.00,0.0129
471.00,0.0128
470.00,0.0131
469.00,0.0131
468.00,0.0127
467.00,0.0123
466.00,0.0124
465.00,0.0126
464.00,0.0124
463.00,0.0122
462.00,0.0124
461.00,0.0124
460.00,0.0119
459.00,0.0114
458.00,0.0117
457.00,0.0119
456.00,0.0115
455.00,0.0110
454.00,0.0109
453.00,0.0110
452.00,0.0108
451.00,0.0109
450.00,0.0112
449.00,0.0113
448.00,0.0107
447.00,0.0102
446.00,0.0104
445.00,0.0106
444.00,0.0104
443.00,0.0103
442.00,0.0107
441.00,0.0108
440.00,0.0101
439.00,0.0094
438.00,0.0094
437.00,0.0095
436.00,0.0090
435.00,0.0086
434.00,0.0090
433.00,0.0093
432.00,0.0092
431.00,0.0090
430.00,0.0094
429.00,0.0096
428.00,0.0089
427.00,0.0081
426.00,0.0080
425.00,0.0082
424.00,0.0079
423.00,0.0077
422.00,0.0081
421.00,0.0082
420.00,0.0074
419.00,0.0067
418.00,0.0071
417.00,0.0074
416.00,0.0069
415.00,0.0069
414.00,0.0082
413.00,0.0094
412.00,0.0094
411.00,0.0092
410.00,0.0096
409.00,0.0095
408.00,0.0080
407.00,0.0070
406.00,0.0077
405.00,0.0085
404.00,0.0078
403.00,0.0069
402.00,0.0072
401.00,0.0073
400.00,0.0056
