Created as New Dataset,Sample 605 By YargerLab Date Thursday, June 05 2025
cm-1,A
4000.00,0.0062
3999.00,0.0062
3998.00,0.0062
3997.00,0.0062
3996.00,0.0062
3995.00,0.0062
3994.00,0.0062
3993.00,0.0062
3992.00,0.0062
3991.00,0.0062
3990.00,0.0062
3989.00,0.0062
3988.00,0.0062
3987.00,0.0062
3986.00,0.0062
3985.00,0.0062
3984.00,0.0063
3983.00,0.0063
3982.00,0.0062
3981.00,0.0062
3980.00,0.0062
3979.00,0.0062
3978.00,0.0062
3977.00,0.0062
3976.00,0.0062
3975.00,0.0062
3974.00,0.0062
3973.00,0.0062
3972.00,0.0062
3971.00,0.0062
3970.00,0.0062
3969.00,0.0062
3968.00,0.0062
3967.00,0.0062
3966.00,0.0062
3965.00,0.0062
3964.00,0.0062
3963.00,0.0062
3962.00,0.0062
3961.00,0.0062
3960.00,0.0062
3959.00,0.0062
3958.00,0.0062
3957.00,0.0062
3956.00,0.0062
3955.00,0.0062
3954.00,0.0062
3953.00,0.0062
3952.00,0.0061
3951.00,0.0061
3950.00,0.0061
3949.00,0.0061
3948.00,0.0060
3947.00,0.0060
3946.00,0.0061
3945.00,0.0061
3944.00,0.0061
3943.00,0.0061
3942.00,0.0062
3941.00,0.0062
3940.00,0.0062
3939.00,0.0061
3938.00,0.0061
3937.00,0.0061
3936.00,0.0061
3935.00,0.0061
3934.00,0.0061
3933.00,0.0061
3932.00,0.0061
3931.00,0.0061
3930.00,0.0060
3929.00,0.0060
3928.00,0.0061
3927.00,0.0061
3926.00,0.0061
3925.00,0.0061
3924.00,0.0061
3923.00,0.0061
3922.00,0.0061
3921.00,0.0061
3920.00,0.0060
3919.00,0.0060
3918.00,0.0060
3917.00,0.0060
3916.00,0.0060
3915.00,0.0060
3914.00,0.0060
3913.00,0.0060
3912.00,0.0060
3911.00,0.0061
3910.00,0.0061
3909.00,0.0061
3908.00,0.0061
3907.00,0.0060
3906.00,0.0060
3905.00,0.0060
3904.00,0.0060
3903.00,0.0059
3902.00,0.0059
3901.00,0.0059
3900.00,0.0059
3899.00,0.0059
3898.00,0.0059
3897.00,0.0059
3896.00,0.0059
3895.00,0.0059
3894.00,0.0060
3893.00,0.0060
3892.00,0.0060
3891.00,0.0060
3890.00,0.0060
3889.00,0.0059
3888.00,0.0059
3887.00,0.0058
3886.00,0.0059
3885.00,0.0059
3884.00,0.0059
3883.00,0.0059
3882.00,0.0058
3881.00,0.0058
3880.00,0.0058
3879.00,0.0059
3878.00,0.0059
3877.00,0.0058
3876.00,0.0058
3875.00,0.0058
3874.00,0.0059
3873.00,0.0059
3872.00,0.0059
3871.00,0.0058
3870.00,0.0058
3869.00,0.0058
3868.00,0.0058
3867.00,0.0058
3866.00,0.0057
3865.00,0.0057
3864.00,0.0058
3863.00,0.0058
3862.00,0.0058
3861.00,0.0057
3860.00,0.0058
3859.00,0.0058
3858.00,0.0059
3857.00,0.0059
3856.00,0.0059
3855.00,0.0058
3854.00,0.0058
3853.00,0.0057
3852.00,0.0057
3851.00,0.0057
3850.00,0.0057
3849.00,0.0057
3848.00,0.0057
3847.00,0.0057
3846.00,0.0058
3845.00,0.0058
3844.00,0.0058
3843.00,0.0058
3842.00,0.0058
3841.00,0.0058
3840.00,0.0057
3839.00,0.0057
3838.00,0.0057
3837.00,0.0056
3836.00,0.0056
3835.00,0.0057
3834.00,0.0057
3833.00,0.0057
3832.00,0.0057
3831.00,0.0057
3830.00,0.0057
3829.00,0.0057
3828.00,0.0057
3827.00,0.0057
3826.00,0.0057
3825.00,0.0057
3824.00,0.0057
3823.00,0.0056
3822.00,0.0056
3821.00,0.0056
3820.00,0.0056
3819.00,0.0056
3818.00,0.0056
3817.00,0.0055
3816.00,0.0056
3815.00,0.0057
3814.00,0.0057
3813.00,0.0057
3812.00,0.0057
3811.00,0.0057
3810.00,0.0058
3809.00,0.0057
3808.00,0.0057
3807.00,0.0056
3806.00,0.0056
3805.00,0.0057
3804.00,0.0056
3803.00,0.0056
3802.00,0.0056
3801.00,0.0056
3800.00,0.0057
3799.00,0.0056
3798.00,0.0056
3797.00,0.0056
3796.00,0.0056
3795.00,0.0057
3794.00,0.0057
3793.00,0.0057
3792.00,0.0057
3791.00,0.0057
3790.00,0.0058
3789.00,0.0058
3788.00,0.0057
3787.00,0.0057
3786.00,0.0057
3785.00,0.0057
3784.00,0.0057
3783.00,0.0057
3782.00,0.0057
3781.00,0.0057
3780.00,0.0057
3779.00,0.0057
3778.00,0.0057
3777.00,0.0057
3776.00,0.0057
3775.00,0.0057
3774.00,0.0057
3773.00,0.0058
3772.00,0.0057
3771.00,0.0057
3770.00,0.0057
3769.00,0.0057
3768.00,0.0057
3767.00,0.0056
3766.00,0.0056
3765.00,0.0056
3764.00,0.0056
3763.00,0.0056
3762.00,0.0056
3761.00,0.0056
3760.00,0.0056
3759.00,0.0056
3758.00,0.0056
3757.00,0.0056
3756.00,0.0056
3755.00,0.0056
3754.00,0.0056
3753.00,0.0055
3752.00,0.0055
3751.00,0.0054
3750.00,0.0053
3749.00,0.0053
3748.00,0.0053
3747.00,0.0053
3746.00,0.0052
3745.00,0.0052
3744.00,0.0053
3743.00,0.0053
3742.00,0.0053
3741.00,0.0053
3740.00,0.0052
3739.00,0.0052
3738.00,0.0052
3737.00,0.0052
3736.00,0.0052
3735.00,0.0052
3734.00,0.0052
3733.00,0.0052
3732.00,0.0052
3731.00,0.0053
3730.00,0.0053
3729.00,0.0054
3728.00,0.0054
3727.00,0.0054
3726.00,0.0054
3725.00,0.0054
3724.00,0.0054
3723.00,0.0054
3722.00,0.0055
3721.00,0.0055
3720.00,0.0055
3719.00,0.0055
3718.00,0.0055
3717.00,0.0055
3716.00,0.0054
3715.00,0.0054
3714.00,0.0054
3713.00,0.0053
3712.00,0.0053
3711.00,0.0053
3710.00,0.0053
3709.00,0.0053
3708.00,0.0053
3707.00,0.0053
3706.00,0.0054
3705.00,0.0054
3704.00,0.0054
3703.00,0.0054
3702.00,0.0054
3701.00,0.0055
3700.00,0.0055
3699.00,0.0055
3698.00,0.0054
3697.00,0.0054
3696.00,0.0054
3695.00,0.0054
3694.00,0.0054
3693.00,0.0054
3692.00,0.0054
3691.00,0.0054
3690.00,0.0054
3689.00,0.0054
3688.00,0.0053
3687.00,0.0053
3686.00,0.0053
3685.00,0.0053
3684.00,0.0053
3683.00,0.0053
3682.00,0.0053
3681.00,0.0053
3680.00,0.0053
3679.00,0.0053
3678.00,0.0053
3677.00,0.0052
3676.00,0.0051
3675.00,0.0051
3674.00,0.0051
3673.00,0.0051
3672.00,0.0050
3671.00,0.0050
3670.00,0.0051
3669.00,0.0052
3668.00,0.0052
3667.00,0.0052
3666.00,0.0052
3665.00,0.0053
3664.00,0.0053
3663.00,0.0054
3662.00,0.0054
3661.00,0.0054
3660.00,0.0054
3659.00,0.0054
3658.00,0.0054
3657.00,0.0054
3656.00,0.0054
3655.00,0.0054
3654.00,0.0054
3653.00,0.0053
3652.00,0.0053
3651.00,0.0052
3650.00,0.0053
3649.00,0.0053
3648.00,0.0053
3647.00,0.0053
3646.00,0.0054
3645.00,0.0055
3644.00,0.0055
3643.00,0.0056
3642.00,0.0056
3641.00,0.0057
3640.00,0.0058
3639.00,0.0058
3638.00,0.0058
3637.00,0.0058
3636.00,0.0058
3635.00,0.0059
3634.00,0.0059
3633.00,0.0059
3632.00,0.0059
3631.00,0.0059
3630.00,0.0059
3629.00,0.0059
3628.00,0.0060
3627.00,0.0060
3626.00,0.0060
3625.00,0.0061
3624.00,0.0061
3623.00,0.0062
3622.00,0.0062
3621.00,0.0062
3620.00,0.0062
3619.00,0.0063
3618.00,0.0063
3617.00,0.0063
3616.00,0.0062
3615.00,0.0062
3614.00,0.0062
3613.00,0.0063
3612.00,0.0063
3611.00,0.0064
3610.00,0.0064
3609.00,0.0064
3608.00,0.0065
3607.00,0.0066
3606.00,0.0066
3605.00,0.0066
3604.00,0.0066
3603.00,0.0067
3602.00,0.0067
3601.00,0.0067
3600.00,0.0068
3599.00,0.0068
3598.00,0.0068
3597.00,0.0068
3596.00,0.0069
3595.00,0.0069
3594.00,0.0069
3593.00,0.0070
3592.00,0.0070
3591.00,0.0070
3590.00,0.0070
3589.00,0.0070
3588.00,0.0071
3587.00,0.0071
3586.00,0.0072
3585.00,0.0072
3584.00,0.0073
3583.00,0.0073
3582.00,0.0073
3581.00,0.0074
3580.00,0.0074
3579.00,0.0074
3578.00,0.0075
3577.00,0.0075
3576.00,0.0075
3575.00,0.0076
3574.00,0.0076
3573.00,0.0076
3572.00,0.0076
3571.00,0.0076
3570.00,0.0076
3569.00,0.0076
3568.00,0.0077
3567.00,0.0077
3566.00,0.0078
3565.00,0.0079
3564.00,0.0079
3563.00,0.0079
3562.00,0.0080
3561.00,0.0080
3560.00,0.0081
3559.00,0.0081
3558.00,0.0082
3557.00,0.0083
3556.00,0.0083
3555.00,0.0084
3554.00,0.0084
3553.00,0.0084
3552.00,0.0084
3551.00,0.0084
3550.00,0.0085
3549.00,0.0085
3548.00,0.0085
3547.00,0.0086
3546.00,0.0086
3545.00,0.0087
3544.00,0.0087
3543.00,0.0087
3542.00,0.0088
3541.00,0.0088
3540.00,0.0088
3539.00,0.0089
3538.00,0.0089
3537.00,0.0090
3536.00,0.0091
3535.00,0.0091
3534.00,0.0091
3533.00,0.0091
3532.00,0.0091
3531.00,0.0092
3530.00,0.0092
3529.00,0.0093
3528.00,0.0093
3527.00,0.0093
3526.00,0.0094
3525.00,0.0094
3524.00,0.0094
3523.00,0.0095
3522.00,0.0095
3521.00,0.0095
3520.00,0.0096
3519.00,0.0096
3518.00,0.0096
3517.00,0.0097
3516.00,0.0097
3515.00,0.0098
3514.00,0.0098
3513.00,0.0098
3512.00,0.0099
3511.00,0.0099
3510.00,0.0099
3509.00,0.0100
3508.00,0.0100
3507.00,0.0100
3506.00,0.0100
3505.00,0.0101
3504.00,0.0101
3503.00,0.0102
3502.00,0.0103
3501.00,0.0103
3500.00,0.0104
3499.00,0.0104
3498.00,0.0105
3497.00,0.0105
3496.00,0.0106
3495.00,0.0106
3494.00,0.0106
3493.00,0.0106
3492.00,0.0107
3491.00,0.0107
3490.00,0.0108
3489.00,0.0108
3488.00,0.0109
3487.00,0.0109
3486.00,0.0110
3485.00,0.0110
3484.00,0.0110
3483.00,0.0111
3482.00,0.0111
3481.00,0.0112
3480.00,0.0112
3479.00,0.0112
3478.00,0.0113
3477.00,0.0113
3476.00,0.0114
3475.00,0.0114
3474.00,0.0114
3473.00,0.0115
3472.00,0.0115
3471.00,0.0116
3470.00,0.0116
3469.00,0.0117
3468.00,0.0118
3467.00,0.0118
3466.00,0.0119
3465.00,0.0119
3464.00,0.0120
3463.00,0.0120
3462.00,0.0121
3461.00,0.0121
3460.00,0.0122
3459.00,0.0122
3458.00,0.0123
3457.00,0.0124
3456.00,0.0125
3455.00,0.0126
3454.00,0.0127
3453.00,0.0128
3452.00,0.0129
3451.00,0.0130
3450.00,0.0131
3449.00,0.0132
3448.00,0.0134
3447.00,0.0135
3446.00,0.0137
3445.00,0.0138
3444.00,0.0138
3443.00,0.0139
3442.00,0.0139
3441.00,0.0140
3440.00,0.0140
3439.00,0.0140
3438.00,0.0140
3437.00,0.0140
3436.00,0.0140
3435.00,0.0140
3434.00,0.0140
3433.00,0.0140
3432.00,0.0141
3431.00,0.0141
3430.00,0.0141
3429.00,0.0142
3428.00,0.0142
3427.00,0.0143
3426.00,0.0143
3425.00,0.0143
3424.00,0.0144
3423.00,0.0144
3422.00,0.0145
3421.00,0.0145
3420.00,0.0146
3419.00,0.0147
3418.00,0.0147
3417.00,0.0148
3416.00,0.0149
3415.00,0.0150
3414.00,0.0150
3413.00,0.0151
3412.00,0.0151
3411.00,0.0152
3410.00,0.0153
3409.00,0.0153
3408.00,0.0154
3407.00,0.0155
3406.00,0.0155
3405.00,0.0156
3404.00,0.0156
3403.00,0.0157
3402.00,0.0158
3401.00,0.0158
3400.00,0.0159
3399.00,0.0160
3398.00,0.0161
3397.00,0.0161
3396.00,0.0162
3395.00,0.0162
3394.00,0.0162
3393.00,0.0163
3392.00,0.0164
3391.00,0.0164
3390.00,0.0165
3389.00,0.0166
3388.00,0.0167
3387.00,0.0167
3386.00,0.0168
3385.00,0.0169
3384.00,0.0170
3383.00,0.0170
3382.00,0.0171
3381.00,0.0172
3380.00,0.0172
3379.00,0.0173
3378.00,0.0173
3377.00,0.0174
3376.00,0.0175
3375.00,0.0175
3374.00,0.0176
3373.00,0.0177
3372.00,0.0177
3371.00,0.0178
3370.00,0.0179
3369.00,0.0180
3368.00,0.0181
3367.00,0.0182
3366.00,0.0183
3365.00,0.0185
3364.00,0.0186
3363.00,0.0186
3362.00,0.0187
3361.00,0.0188
3360.00,0.0189
3359.00,0.0190
3358.00,0.0191
3357.00,0.0192
3356.00,0.0193
3355.00,0.0194
3354.00,0.0195
3353.00,0.0196
3352.00,0.0197
3351.00,0.0198
3350.00,0.0199
3349.00,0.0201
3348.00,0.0202
3347.00,0.0203
3346.00,0.0204
3345.00,0.0205
3344.00,0.0206
3343.00,0.0207
3342.00,0.0208
3341.00,0.0209
3340.00,0.0209
3339.00,0.0211
3338.00,0.0212
3337.00,0.0214
3336.00,0.0215
3335.00,0.0217
3334.00,0.0218
3333.00,0.0219
3332.00,0.0221
3331.00,0.0221
3330.00,0.0222
3329.00,0.0223
3328.00,0.0224
3327.00,0.0224
3326.00,0.0226
3325.00,0.0227
3324.00,0.0229
3323.00,0.0231
3322.00,0.0232
3321.00,0.0233
3320.00,0.0234
3319.00,0.0235
3318.00,0.0236
3317.00,0.0238
3316.00,0.0239
3315.00,0.0240
3314.00,0.0242
3313.00,0.0242
3312.00,0.0243
3311.00,0.0243
3310.00,0.0243
3309.00,0.0244
3308.00,0.0245
3307.00,0.0246
3306.00,0.0247
3305.00,0.0248
3304.00,0.0251
3303.00,0.0253
3302.00,0.0254
3301.00,0.0256
3300.00,0.0256
3299.00,0.0257
3298.00,0.0257
3297.00,0.0257
3296.00,0.0257
3295.00,0.0258
3294.00,0.0258
3293.00,0.0259
3292.00,0.0260
3291.00,0.0262
3290.00,0.0263
3289.00,0.0264
3288.00,0.0265
3287.00,0.0265
3286.00,0.0265
3285.00,0.0266
3284.00,0.0266
3283.00,0.0266
3282.00,0.0266
3281.00,0.0266
3280.00,0.0266
3279.00,0.0265
3278.00,0.0265
3277.00,0.0264
3276.00,0.0263
3275.00,0.0262
3274.00,0.0261
3273.00,0.0260
3272.00,0.0259
3271.00,0.0258
3270.00,0.0259
3269.00,0.0259
3268.00,0.0259
3267.00,0.0258
3266.00,0.0257
3265.00,0.0256
3264.00,0.0255
3263.00,0.0254
3262.00,0.0253
3261.00,0.0251
3260.00,0.0250
3259.00,0.0249
3258.00,0.0247
3257.00,0.0245
3256.00,0.0244
3255.00,0.0243
3254.00,0.0243
3253.00,0.0242
3252.00,0.0241
3251.00,0.0240
3250.00,0.0238
3249.00,0.0236
3248.00,0.0234
3247.00,0.0233
3246.00,0.0233
3245.00,0.0232
3244.00,0.0232
3243.00,0.0231
3242.00,0.0230
3241.00,0.0228
3240.00,0.0227
3239.00,0.0226
3238.00,0.0225
3237.00,0.0224
3236.00,0.0222
3235.00,0.0221
3234.00,0.0220
3233.00,0.0220
3232.00,0.0220
3231.00,0.0220
3230.00,0.0219
3229.00,0.0218
3228.00,0.0218
3227.00,0.0217
3226.00,0.0216
3225.00,0.0216
3224.00,0.0215
3223.00,0.0214
3222.00,0.0214
3221.00,0.0213
3220.00,0.0213
3219.00,0.0212
3218.00,0.0211
3217.00,0.0211
3216.00,0.0210
3215.00,0.0210
3214.00,0.0209
3213.00,0.0209
3212.00,0.0208
3211.00,0.0207
3210.00,0.0207
3209.00,0.0206
3208.00,0.0205
3207.00,0.0205
3206.00,0.0204
3205.00,0.0203
3204.00,0.0203
3203.00,0.0202
3202.00,0.0202
3201.00,0.0201
3200.00,0.0200
3199.00,0.0200
3198.00,0.0199
3197.00,0.0198
3196.00,0.0197
3195.00,0.0197
3194.00,0.0196
3193.00,0.0195
3192.00,0.0194
3191.00,0.0193
3190.00,0.0192
3189.00,0.0192
3188.00,0.0191
3187.00,0.0191
3186.00,0.0190
3185.00,0.0190
3184.00,0.0189
3183.00,0.0188
3182.00,0.0187
3181.00,0.0186
3180.00,0.0185
3179.00,0.0185
3178.00,0.0184
3177.00,0.0183
3176.00,0.0182
3175.00,0.0181
3174.00,0.0180
3173.00,0.0180
3172.00,0.0179
3171.00,0.0178
3170.00,0.0178
3169.00,0.0176
3168.00,0.0176
3167.00,0.0175
3166.00,0.0174
3165.00,0.0174
3164.00,0.0173
3163.00,0.0172
3162.00,0.0171
3161.00,0.0171
3160.00,0.0170
3159.00,0.0169
3158.00,0.0169
3157.00,0.0168
3156.00,0.0167
3155.00,0.0165
3154.00,0.0165
3153.00,0.0164
3152.00,0.0164
3151.00,0.0164
3150.00,0.0163
3149.00,0.0163
3148.00,0.0163
3147.00,0.0162
3146.00,0.0162
3145.00,0.0161
3144.00,0.0161
3143.00,0.0160
3142.00,0.0159
3141.00,0.0158
3140.00,0.0157
3139.00,0.0157
3138.00,0.0157
3137.00,0.0157
3136.00,0.0157
3135.00,0.0157
3134.00,0.0156
3133.00,0.0156
3132.00,0.0155
3131.00,0.0154
3130.00,0.0154
3129.00,0.0154
3128.00,0.0154
3127.00,0.0154
3126.00,0.0154
3125.00,0.0153
3124.00,0.0153
3123.00,0.0152
3122.00,0.0151
3121.00,0.0150
3120.00,0.0149
3119.00,0.0149
3118.00,0.0149
3117.00,0.0149
3116.00,0.0150
3115.00,0.0151
3114.00,0.0151
3113.00,0.0152
3112.00,0.0152
3111.00,0.0152
3110.00,0.0151
3109.00,0.0151
3108.00,0.0152
3107.00,0.0152
3106.00,0.0153
3105.00,0.0153
3104.00,0.0153
3103.00,0.0153
3102.00,0.0153
3101.00,0.0153
3100.00,0.0153
3099.00,0.0154
3098.00,0.0154
3097.00,0.0155
3096.00,0.0155
3095.00,0.0155
3094.00,0.0155
3093.00,0.0155
3092.00,0.0155
3091.00,0.0155
3090.00,0.0155
3089.00,0.0155
3088.00,0.0155
3087.00,0.0155
3086.00,0.0155
3085.00,0.0155
3084.00,0.0155
3083.00,0.0155
3082.00,0.0155
3081.00,0.0155
3080.00,0.0155
3079.00,0.0155
3078.00,0.0156
3077.00,0.0157
3076.00,0.0158
3075.00,0.0159
3074.00,0.0160
3073.00,0.0160
3072.00,0.0160
3071.00,0.0159
3070.00,0.0159
3069.00,0.0158
3068.00,0.0158
3067.00,0.0158
3066.00,0.0158
3065.00,0.0158
3064.00,0.0158
3063.00,0.0158
3062.00,0.0158
3061.00,0.0158
3060.00,0.0158
3059.00,0.0157
3058.00,0.0157
3057.00,0.0156
3056.00,0.0155
3055.00,0.0155
3054.00,0.0154
3053.00,0.0153
3052.00,0.0153
3051.00,0.0152
3050.00,0.0152
3049.00,0.0152
3048.00,0.0151
3047.00,0.0151
3046.00,0.0149
3045.00,0.0148
3044.00,0.0148
3043.00,0.0147
3042.00,0.0147
3041.00,0.0147
3040.00,0.0147
3039.00,0.0147
3038.00,0.0146
3037.00,0.0145
3036.00,0.0144
3035.00,0.0144
3034.00,0.0143
3033.00,0.0143
3032.00,0.0143
3031.00,0.0143
3030.00,0.0143
3029.00,0.0143
3028.00,0.0142
3027.00,0.0142
3026.00,0.0141
3025.00,0.0140
3024.00,0.0139
3023.00,0.0139
3022.00,0.0138
3021.00,0.0137
3020.00,0.0136
3019.00,0.0135
3018.00,0.0134
3017.00,0.0132
3016.00,0.0131
3015.00,0.0130
3014.00,0.0130
3013.00,0.0130
3012.00,0.0129
3011.00,0.0129
3010.00,0.0129
3009.00,0.0129
3008.00,0.0129
3007.00,0.0128
3006.00,0.0126
3005.00,0.0125
3004.00,0.0124
3003.00,0.0124
3002.00,0.0123
3001.00,0.0122
3000.00,0.0121
2999.00,0.0120
2998.00,0.0120
2997.00,0.0119
2996.00,0.0119
2995.00,0.0120
2994.00,0.0120
2993.00,0.0120
2992.00,0.0121
2991.00,0.0121
2990.00,0.0122
2989.00,0.0123
2988.00,0.0124
2987.00,0.0124
2986.00,0.0124
2985.00,0.0123
2984.00,0.0122
2983.00,0.0120
2982.00,0.0120
2981.00,0.0121
2980.00,0.0123
2979.00,0.0126
2978.00,0.0129
2977.00,0.0132
2976.00,0.0134
2975.00,0.0136
2974.00,0.0138
2973.00,0.0140
2972.00,0.0141
2971.00,0.0142
2970.00,0.0144
2969.00,0.0146
2968.00,0.0148
2967.00,0.0150
2966.00,0.0152
2965.00,0.0154
2964.00,0.0155
2963.00,0.0157
2962.00,0.0158
2961.00,0.0159
2960.00,0.0159
2959.00,0.0159
2958.00,0.0159
2957.00,0.0159
2956.00,0.0158
2955.00,0.0157
2954.00,0.0157
2953.00,0.0156
2952.00,0.0156
2951.00,0.0156
2950.00,0.0155
2949.00,0.0155
2948.00,0.0154
2947.00,0.0154
2946.00,0.0155
2945.00,0.0155
2944.00,0.0156
2943.00,0.0158
2942.00,0.0159
2941.00,0.0161
2940.00,0.0162
2939.00,0.0163
2938.00,0.0164
2937.00,0.0165
2936.00,0.0165
2935.00,0.0166
2934.00,0.0167
2933.00,0.0167
2932.00,0.0167
2931.00,0.0168
2930.00,0.0168
2929.00,0.0169
2928.00,0.0169
2927.00,0.0170
2926.00,0.0170
2925.00,0.0170
2924.00,0.0170
2923.00,0.0170
2922.00,0.0170
2921.00,0.0170
2920.00,0.0169
2919.00,0.0168
2918.00,0.0166
2917.00,0.0164
2916.00,0.0162
2915.00,0.0160
2914.00,0.0157
2913.00,0.0154
2912.00,0.0152
2911.00,0.0150
2910.00,0.0149
2909.00,0.0147
2908.00,0.0145
2907.00,0.0143
2906.00,0.0142
2905.00,0.0140
2904.00,0.0139
2903.00,0.0138
2902.00,0.0137
2901.00,0.0136
2900.00,0.0135
2899.00,0.0134
2898.00,0.0133
2897.00,0.0132
2896.00,0.0132
2895.00,0.0131
2894.00,0.0130
2893.00,0.0130
2892.00,0.0129
2891.00,0.0129
2890.00,0.0128
2889.00,0.0128
2888.00,0.0128
2887.00,0.0128
2886.00,0.0129
2885.00,0.0129
2884.00,0.0130
2883.00,0.0130
2882.00,0.0131
2881.00,0.0132
2880.00,0.0133
2879.00,0.0134
2878.00,0.0134
2877.00,0.0135
2876.00,0.0135
2875.00,0.0135
2874.00,0.0135
2873.00,0.0135
2872.00,0.0135
2871.00,0.0134
2870.00,0.0134
2869.00,0.0133
2868.00,0.0132
2867.00,0.0130
2866.00,0.0129
2865.00,0.0128
2864.00,0.0127
2863.00,0.0127
2862.00,0.0126
2861.00,0.0125
2860.00,0.0125
2859.00,0.0125
2858.00,0.0124
2857.00,0.0124
2856.00,0.0124
2855.00,0.0124
2854.00,0.0124
2853.00,0.0125
2852.00,0.0125
2851.00,0.0125
2850.00,0.0124
2849.00,0.0123
2848.00,0.0122
2847.00,0.0120
2846.00,0.0119
2845.00,0.0118
2844.00,0.0116
2843.00,0.0115
2842.00,0.0114
2841.00,0.0113
2840.00,0.0112
2839.00,0.0111
2838.00,0.0111
2837.00,0.0111
2836.00,0.0110
2835.00,0.0110
2834.00,0.0110
2833.00,0.0109
2832.00,0.0109
2831.00,0.0109
2830.00,0.0108
2829.00,0.0108
2828.00,0.0107
2827.00,0.0107
2826.00,0.0107
2825.00,0.0106
2824.00,0.0106
2823.00,0.0106
2822.00,0.0106
2821.00,0.0105
2820.00,0.0105
2819.00,0.0105
2818.00,0.0105
2817.00,0.0105
2816.00,0.0105
2815.00,0.0105
2814.00,0.0104
2813.00,0.0104
2812.00,0.0103
2811.00,0.0103
2810.00,0.0103
2809.00,0.0103
2808.00,0.0103
2807.00,0.0102
2806.00,0.0102
2805.00,0.0102
2804.00,0.0102
2803.00,0.0101
2802.00,0.0101
2801.00,0.0101
2800.00,0.0101
2799.00,0.0101
2798.00,0.0100
2797.00,0.0100
2796.00,0.0100
2795.00,0.0100
2794.00,0.0099
2793.00,0.0099
2792.00,0.0099
2791.00,0.0099
2790.00,0.0099
2789.00,0.0099
2788.00,0.0099
2787.00,0.0099
2786.00,0.0099
2785.00,0.0098
2784.00,0.0098
2783.00,0.0098
2782.00,0.0097
2781.00,0.0097
2780.00,0.0097
2779.00,0.0097
2778.00,0.0096
2777.00,0.0096
2776.00,0.0096
2775.00,0.0096
2774.00,0.0096
2773.00,0.0096
2772.00,0.0096
2771.00,0.0095
2770.00,0.0095
2769.00,0.0095
2768.00,0.0095
2767.00,0.0094
2766.00,0.0094
2765.00,0.0094
2764.00,0.0094
2763.00,0.0094
2762.00,0.0093
2761.00,0.0093
2760.00,0.0093
2759.00,0.0093
2758.00,0.0093
2757.00,0.0092
2756.00,0.0092
2755.00,0.0092
2754.00,0.0092
2753.00,0.0091
2752.00,0.0091
2751.00,0.0091
2750.00,0.0091
2749.00,0.0091
2748.00,0.0091
2747.00,0.0091
2746.00,0.0090
2745.00,0.0090
2744.00,0.0090
2743.00,0.0090
2742.00,0.0090
2741.00,0.0090
2740.00,0.0090
2739.00,0.0090
2738.00,0.0090
2737.00,0.0090
2736.00,0.0089
2735.00,0.0089
2734.00,0.0089
2733.00,0.0089
2732.00,0.0089
2731.00,0.0089
2730.00,0.0088
2729.00,0.0088
2728.00,0.0087
2727.00,0.0087
2726.00,0.0087
2725.00,0.0087
2724.00,0.0087
2723.00,0.0086
2722.00,0.0086
2721.00,0.0086
2720.00,0.0086
2719.00,0.0086
2718.00,0.0086
2717.00,0.0086
2716.00,0.0085
2715.00,0.0085
2714.00,0.0085
2713.00,0.0085
2712.00,0.0085
2711.00,0.0085
2710.00,0.0084
2709.00,0.0084
2708.00,0.0084
2707.00,0.0084
2706.00,0.0084
2705.00,0.0084
2704.00,0.0083
2703.00,0.0083
2702.00,0.0083
2701.00,0.0083
2700.00,0.0082
2699.00,0.0082
2698.00,0.0082
2697.00,0.0082
2696.00,0.0082
2695.00,0.0082
2694.00,0.0082
2693.00,0.0082
2692.00,0.0082
2691.00,0.0082
2690.00,0.0082
2689.00,0.0082
2688.00,0.0082
2687.00,0.0081
2686.00,0.0081
2685.00,0.0081
2684.00,0.0081
2683.00,0.0081
2682.00,0.0081
2681.00,0.0081
2680.00,0.0080
2679.00,0.0080
2678.00,0.0080
2677.00,0.0080
2676.00,0.0080
2675.00,0.0080
2674.00,0.0080
2673.00,0.0080
2672.00,0.0080
2671.00,0.0080
2670.00,0.0080
2669.00,0.0080
2668.00,0.0079
2667.00,0.0079
2666.00,0.0079
2665.00,0.0080
2664.00,0.0080
2663.00,0.0081
2662.00,0.0081
2661.00,0.0081
2660.00,0.0081
2659.00,0.0081
2658.00,0.0081
2657.00,0.0081
2656.00,0.0081
2655.00,0.0081
2654.00,0.0081
2653.00,0.0081
2652.00,0.0081
2651.00,0.0081
2650.00,0.0081
2649.00,0.0081
2648.00,0.0081
2647.00,0.0081
2646.00,0.0080
2645.00,0.0080
2644.00,0.0080
2643.00,0.0080
2642.00,0.0080
2641.00,0.0079
2640.00,0.0079
2639.00,0.0079
2638.00,0.0079
2637.00,0.0079
2636.00,0.0079
2635.00,0.0079
2634.00,0.0079
2633.00,0.0078
2632.00,0.0078
2631.00,0.0078
2630.00,0.0078
2629.00,0.0078
2628.00,0.0078
2627.00,0.0078
2626.00,0.0078
2625.00,0.0077
2624.00,0.0077
2623.00,0.0077
2622.00,0.0077
2621.00,0.0076
2620.00,0.0076
2619.00,0.0076
2618.00,0.0076
2617.00,0.0076
2616.00,0.0075
2615.00,0.0075
2614.00,0.0075
2613.00,0.0075
2612.00,0.0075
2611.00,0.0075
2610.00,0.0074
2609.00,0.0074
2608.00,0.0074
2607.00,0.0074
2606.00,0.0074
2605.00,0.0074
2604.00,0.0074
2603.00,0.0074
2602.00,0.0073
2601.00,0.0073
2600.00,0.0073
2599.00,0.0073
2598.00,0.0073
2597.00,0.0072
2596.00,0.0072
2595.00,0.0072
2594.00,0.0072
2593.00,0.0072
2592.00,0.0072
2591.00,0.0072
2590.00,0.0072
2589.00,0.0072
2588.00,0.0072
2587.00,0.0072
2586.00,0.0072
2585.00,0.0071
2584.00,0.0071
2583.00,0.0071
2582.00,0.0071
2581.00,0.0071
2580.00,0.0071
2579.00,0.0071
2578.00,0.0071
2577.00,0.0071
2576.00,0.0071
2575.00,0.0071
2574.00,0.0070
2573.00,0.0070
2572.00,0.0069
2571.00,0.0069
2570.00,0.0069
2569.00,0.0069
2568.00,0.0069
2567.00,0.0069
2566.00,0.0069
2565.00,0.0069
2564.00,0.0069
2563.00,0.0069
2562.00,0.0068
2561.00,0.0068
2560.00,0.0068
2559.00,0.0068
2558.00,0.0067
2557.00,0.0067
2556.00,0.0067
2555.00,0.0067
2554.00,0.0067
2553.00,0.0067
2552.00,0.0067
2551.00,0.0067
2550.00,0.0067
2549.00,0.0067
2548.00,0.0067
2547.00,0.0067
2546.00,0.0066
2545.00,0.0066
2544.00,0.0066
2543.00,0.0066
2542.00,0.0065
2541.00,0.0065
2540.00,0.0065
2539.00,0.0065
2538.00,0.0065
2537.00,0.0065
2536.00,0.0065
2535.00,0.0065
2534.00,0.0065
2533.00,0.0065
2532.00,0.0065
2531.00,0.0064
2530.00,0.0064
2529.00,0.0064
2528.00,0.0064
2527.00,0.0064
2526.00,0.0064
2525.00,0.0064
2524.00,0.0063
2523.00,0.0063
2522.00,0.0063
2521.00,0.0063
2520.00,0.0063
2519.00,0.0063
2518.00,0.0063
2517.00,0.0063
2516.00,0.0063
2515.00,0.0063
2514.00,0.0063
2513.00,0.0063
2512.00,0.0062
2511.00,0.0062
2510.00,0.0062
2509.00,0.0062
2508.00,0.0062
2507.00,0.0062
2506.00,0.0062
2505.00,0.0061
2504.00,0.0061
2503.00,0.0061
2502.00,0.0061
2501.00,0.0061
2500.00,0.0062
2499.00,0.0062
2498.00,0.0062
2497.00,0.0062
2496.00,0.0061
2495.00,0.0061
2494.00,0.0060
2493.00,0.0060
2492.00,0.0060
2491.00,0.0060
2490.00,0.0060
2489.00,0.0060
2488.00,0.0060
2487.00,0.0060
2486.00,0.0060
2485.00,0.0060
2484.00,0.0060
2483.00,0.0060
2482.00,0.0060
2481.00,0.0060
2480.00,0.0060
2479.00,0.0060
2478.00,0.0060
2477.00,0.0060
2476.00,0.0060
2475.00,0.0059
2474.00,0.0059
2473.00,0.0059
2472.00,0.0059
2471.00,0.0059
2470.00,0.0059
2469.00,0.0059
2468.00,0.0058
2467.00,0.0058
2466.00,0.0058
2465.00,0.0058
2464.00,0.0059
2463.00,0.0059
2462.00,0.0059
2461.00,0.0059
2460.00,0.0059
2459.00,0.0059
2458.00,0.0059
2457.00,0.0059
2456.00,0.0059
2455.00,0.0059
2454.00,0.0059
2453.00,0.0059
2452.00,0.0058
2451.00,0.0058
2450.00,0.0058
2449.00,0.0058
2448.00,0.0058
2447.00,0.0058
2446.00,0.0057
2445.00,0.0057
2444.00,0.0057
2443.00,0.0057
2442.00,0.0056
2441.00,0.0056
2440.00,0.0056
2439.00,0.0056
2438.00,0.0056
2437.00,0.0056
2436.00,0.0056
2435.00,0.0056
2434.00,0.0056
2433.00,0.0056
2432.00,0.0056
2431.00,0.0056
2430.00,0.0056
2429.00,0.0056
2428.00,0.0055
2427.00,0.0055
2426.00,0.0054
2425.00,0.0054
2424.00,0.0054
2423.00,0.0054
2422.00,0.0054
2421.00,0.0054
2420.00,0.0054
2419.00,0.0055
2418.00,0.0055
2417.00,0.0055
2416.00,0.0054
2415.00,0.0054
2414.00,0.0054
2413.00,0.0053
2412.00,0.0053
2411.00,0.0053
2410.00,0.0053
2409.00,0.0052
2408.00,0.0052
2407.00,0.0051
2406.00,0.0051
2405.00,0.0051
2404.00,0.0051
2403.00,0.0051
2402.00,0.0051
2401.00,0.0051
2400.00,0.0051
2399.00,0.0051
2398.00,0.0051
2397.00,0.0051
2396.00,0.0051
2395.00,0.0051
2394.00,0.0051
2393.00,0.0051
2392.00,0.0051
2391.00,0.0051
2390.00,0.0051
2389.00,0.0050
2388.00,0.0050
2387.00,0.0049
2386.00,0.0049
2385.00,0.0049
2384.00,0.0049
2383.00,0.0049
2382.00,0.0048
2381.00,0.0048
2380.00,0.0047
2379.00,0.0046
2378.00,0.0046
2377.00,0.0046
2376.00,0.0046
2375.00,0.0046
2374.00,0.0046
2373.00,0.0046
2372.00,0.0046
2371.00,0.0046
2370.00,0.0046
2369.00,0.0046
2368.00,0.0046
2367.00,0.0046
2366.00,0.0046
2365.00,0.0047
2364.00,0.0047
2363.00,0.0047
2362.00,0.0046
2361.00,0.0046
2360.00,0.0045
2359.00,0.0045
2358.00,0.0046
2357.00,0.0046
2356.00,0.0046
2355.00,0.0046
2354.00,0.0046
2353.00,0.0046
2352.00,0.0046
2351.00,0.0046
2350.00,0.0046
2349.00,0.0046
2348.00,0.0047
2347.00,0.0048
2346.00,0.0049
2345.00,0.0049
2344.00,0.0048
2343.00,0.0048
2342.00,0.0047
2341.00,0.0048
2340.00,0.0048
2339.00,0.0048
2338.00,0.0048
2337.00,0.0048
2336.00,0.0048
2335.00,0.0047
2334.00,0.0047
2333.00,0.0047
2332.00,0.0047
2331.00,0.0047
2330.00,0.0047
2329.00,0.0048
2328.00,0.0051
2327.00,0.0054
2326.00,0.0057
2325.00,0.0058
2324.00,0.0058
2323.00,0.0057
2322.00,0.0055
2321.00,0.0054
2320.00,0.0053
2319.00,0.0052
2318.00,0.0051
2317.00,0.0050
2316.00,0.0050
2315.00,0.0050
2314.00,0.0050
2313.00,0.0049
2312.00,0.0049
2311.00,0.0049
2310.00,0.0049
2309.00,0.0049
2308.00,0.0049
2307.00,0.0049
2306.00,0.0050
2305.00,0.0050
2304.00,0.0051
2303.00,0.0051
2302.00,0.0051
2301.00,0.0051
2300.00,0.0052
2299.00,0.0052
2298.00,0.0052
2297.00,0.0052
2296.00,0.0052
2295.00,0.0053
2294.00,0.0053
2293.00,0.0054
2292.00,0.0055
2291.00,0.0056
2290.00,0.0056
2289.00,0.0056
2288.00,0.0057
2287.00,0.0057
2286.00,0.0057
2285.00,0.0057
2284.00,0.0056
2283.00,0.0056
2282.00,0.0055
2281.00,0.0055
2280.00,0.0055
2279.00,0.0055
2278.00,0.0054
2277.00,0.0054
2276.00,0.0053
2275.00,0.0053
2274.00,0.0052
2273.00,0.0053
2272.00,0.0053
2271.00,0.0053
2270.00,0.0053
2269.00,0.0052
2268.00,0.0051
2267.00,0.0050
2266.00,0.0049
2265.00,0.0048
2264.00,0.0048
2263.00,0.0048
2262.00,0.0049
2261.00,0.0050
2260.00,0.0051
2259.00,0.0051
2258.00,0.0051
2257.00,0.0050
2256.00,0.0049
2255.00,0.0048
2254.00,0.0047
2253.00,0.0046
2252.00,0.0046
2251.00,0.0046
2250.00,0.0046
2249.00,0.0046
2248.00,0.0047
2247.00,0.0047
2246.00,0.0047
2245.00,0.0047
2244.00,0.0047
2243.00,0.0047
2242.00,0.0047
2241.00,0.0047
2240.00,0.0047
2239.00,0.0047
2238.00,0.0047
2237.00,0.0047
2236.00,0.0046
2235.00,0.0046
2234.00,0.0046
2233.00,0.0045
2232.00,0.0045
2231.00,0.0045
2230.00,0.0045
2229.00,0.0045
2228.00,0.0045
2227.00,0.0045
2226.00,0.0046
2225.00,0.0046
2224.00,0.0045
2223.00,0.0044
2222.00,0.0043
2221.00,0.0043
2220.00,0.0044
2219.00,0.0044
2218.00,0.0043
2217.00,0.0043
2216.00,0.0044
2215.00,0.0044
2214.00,0.0045
2213.00,0.0046
2212.00,0.0046
2211.00,0.0047
2210.00,0.0046
2209.00,0.0046
2208.00,0.0046
2207.00,0.0046
2206.00,0.0046
2205.00,0.0046
2204.00,0.0046
2203.00,0.0045
2202.00,0.0045
2201.00,0.0044
2200.00,0.0044
2199.00,0.0044
2198.00,0.0043
2197.00,0.0043
2196.00,0.0043
2195.00,0.0045
2194.00,0.0046
2193.00,0.0047
2192.00,0.0047
2191.00,0.0047
2190.00,0.0047
2189.00,0.0048
2188.00,0.0049
2187.00,0.0048
2186.00,0.0047
2185.00,0.0046
2184.00,0.0044
2183.00,0.0042
2182.00,0.0041
2181.00,0.0040
2180.00,0.0041
2179.00,0.0042
2178.00,0.0042
2177.00,0.0041
2176.00,0.0040
2175.00,0.0038
2174.00,0.0038
2173.00,0.0039
2172.00,0.0041
2171.00,0.0043
2170.00,0.0045
2169.00,0.0047
2168.00,0.0047
2167.00,0.0047
2166.00,0.0046
2165.00,0.0047
2164.00,0.0049
2163.00,0.0049
2162.00,0.0046
2161.00,0.0039
2160.00,0.0029
2159.00,0.0019
2158.00,0.0013
2157.00,0.0013
2156.00,0.0015
2155.00,0.0018
2154.00,0.0020
2153.00,0.0022
2152.00,0.0024
2151.00,0.0025
2150.00,0.0026
2149.00,0.0027
2148.00,0.0028
2147.00,0.0029
2146.00,0.0029
2145.00,0.0029
2144.00,0.0028
2143.00,0.0029
2142.00,0.0029
2141.00,0.0029
2140.00,0.0029
2139.00,0.0028
2138.00,0.0028
2137.00,0.0027
2136.00,0.0026
2135.00,0.0025
2134.00,0.0025
2133.00,0.0026
2132.00,0.0028
2131.00,0.0030
2130.00,0.0031
2129.00,0.0032
2128.00,0.0033
2127.00,0.0033
2126.00,0.0033
2125.00,0.0034
2124.00,0.0035
2123.00,0.0035
2122.00,0.0036
2121.00,0.0037
2120.00,0.0038
2119.00,0.0039
2118.00,0.0040
2117.00,0.0040
2116.00,0.0040
2115.00,0.0040
2114.00,0.0040
2113.00,0.0041
2112.00,0.0042
2111.00,0.0042
2110.00,0.0042
2109.00,0.0042
2108.00,0.0042
2107.00,0.0041
2106.00,0.0042
2105.00,0.0042
2104.00,0.0042
2103.00,0.0041
2102.00,0.0040
2101.00,0.0040
2100.00,0.0039
2099.00,0.0039
2098.00,0.0038
2097.00,0.0038
2096.00,0.0037
2095.00,0.0036
2094.00,0.0035
2093.00,0.0036
2092.00,0.0037
2091.00,0.0038
2090.00,0.0039
2089.00,0.0039
2088.00,0.0040
2087.00,0.0040
2086.00,0.0040
2085.00,0.0040
2084.00,0.0041
2083.00,0.0041
2082.00,0.0042
2081.00,0.0042
2080.00,0.0042
2079.00,0.0042
2078.00,0.0042
2077.00,0.0042
2076.00,0.0041
2075.00,0.0041
2074.00,0.0041
2073.00,0.0040
2072.00,0.0040
2071.00,0.0039
2070.00,0.0039
2069.00,0.0039
2068.00,0.0039
2067.00,0.0039
2066.00,0.0039
2065.00,0.0039
2064.00,0.0039
2063.00,0.0039
2062.00,0.0039
2061.00,0.0039
2060.00,0.0039
2059.00,0.0039
2058.00,0.0039
2057.00,0.0039
2056.00,0.0039
2055.00,0.0040
2054.00,0.0041
2053.00,0.0043
2052.00,0.0045
2051.00,0.0045
2050.00,0.0044
2049.00,0.0041
2048.00,0.0039
2047.00,0.0037
2046.00,0.0036
2045.00,0.0036
2044.00,0.0037
2043.00,0.0038
2042.00,0.0039
2041.00,0.0040
2040.00,0.0040
2039.00,0.0040
2038.00,0.0040
2037.00,0.0039
2036.00,0.0038
2035.00,0.0036
2034.00,0.0034
2033.00,0.0033
2032.00,0.0033
2031.00,0.0033
2030.00,0.0032
2029.00,0.0032
2028.00,0.0032
2027.00,0.0032
2026.00,0.0031
2025.00,0.0031
2024.00,0.0032
2023.00,0.0032
2022.00,0.0031
2021.00,0.0031
2020.00,0.0032
2019.00,0.0033
2018.00,0.0034
2017.00,0.0034
2016.00,0.0034
2015.00,0.0032
2014.00,0.0031
2013.00,0.0031
2012.00,0.0031
2011.00,0.0031
2010.00,0.0030
2009.00,0.0029
2008.00,0.0028
2007.00,0.0026
2006.00,0.0026
2005.00,0.0026
2004.00,0.0027
2003.00,0.0027
2002.00,0.0027
2001.00,0.0028
2000.00,0.0029
1999.00,0.0029
1998.00,0.0031
1997.00,0.0032
1996.00,0.0033
1995.00,0.0034
1994.00,0.0035
1993.00,0.0036
1992.00,0.0036
1991.00,0.0037
1990.00,0.0037
1989.00,0.0038
1988.00,0.0039
1987.00,0.0038
1986.00,0.0038
1985.00,0.0039
1984.00,0.0040
1983.00,0.0042
1982.00,0.0044
1981.00,0.0045
1980.00,0.0044
1979.00,0.0039
1978.00,0.0033
1977.00,0.0029
1976.00,0.0027
1975.00,0.0026
1974.00,0.0024
1973.00,0.0024
1972.00,0.0024
1971.00,0.0025
1970.00,0.0026
1969.00,0.0026
1968.00,0.0025
1967.00,0.0023
1966.00,0.0022
1965.00,0.0022
1964.00,0.0023
1963.00,0.0024
1962.00,0.0025
1961.00,0.0025
1960.00,0.0026
1959.00,0.0026
1958.00,0.0027
1957.00,0.0027
1956.00,0.0028
1955.00,0.0027
1954.00,0.0027
1953.00,0.0026
1952.00,0.0027
1951.00,0.0026
1950.00,0.0026
1949.00,0.0025
1948.00,0.0027
1947.00,0.0028
1946.00,0.0029
1945.00,0.0030
1944.00,0.0029
1943.00,0.0028
1942.00,0.0027
1941.00,0.0026
1940.00,0.0027
1939.00,0.0028
1938.00,0.0029
1937.00,0.0030
1936.00,0.0030
1935.00,0.0030
1934.00,0.0029
1933.00,0.0029
1932.00,0.0029
1931.00,0.0030
1930.00,0.0030
1929.00,0.0030
1928.00,0.0030
1927.00,0.0030
1926.00,0.0030
1925.00,0.0031
1924.00,0.0031
1923.00,0.0031
1922.00,0.0030
1921.00,0.0030
1920.00,0.0031
1919.00,0.0031
1918.00,0.0031
1917.00,0.0030
1916.00,0.0031
1915.00,0.0032
1914.00,0.0032
1913.00,0.0032
1912.00,0.0032
1911.00,0.0032
1910.00,0.0032
1909.00,0.0032
1908.00,0.0032
1907.00,0.0032
1906.00,0.0031
1905.00,0.0031
1904.00,0.0031
1903.00,0.0032
1902.00,0.0032
1901.00,0.0032
1900.00,0.0032
1899.00,0.0033
1898.00,0.0033
1897.00,0.0033
1896.00,0.0034
1895.00,0.0033
1894.00,0.0033
1893.00,0.0033
1892.00,0.0033
1891.00,0.0033
1890.00,0.0032
1889.00,0.0031
1888.00,0.0031
1887.00,0.0031
1886.00,0.0032
1885.00,0.0032
1884.00,0.0032
1883.00,0.0032
1882.00,0.0032
1881.00,0.0032
1880.00,0.0032
1879.00,0.0032
1878.00,0.0032
1877.00,0.0032
1876.00,0.0032
1875.00,0.0032
1874.00,0.0032
1873.00,0.0033
1872.00,0.0034
1871.00,0.0035
1870.00,0.0035
1869.00,0.0034
1868.00,0.0032
1867.00,0.0030
1866.00,0.0029
1865.00,0.0030
1864.00,0.0031
1863.00,0.0032
1862.00,0.0032
1861.00,0.0032
1860.00,0.0032
1859.00,0.0031
1858.00,0.0031
1857.00,0.0031
1856.00,0.0032
1855.00,0.0032
1854.00,0.0032
1853.00,0.0032
1852.00,0.0032
1851.00,0.0032
1850.00,0.0032
1849.00,0.0032
1848.00,0.0034
1847.00,0.0035
1846.00,0.0036
1845.00,0.0034
1844.00,0.0031
1843.00,0.0028
1842.00,0.0028
1841.00,0.0030
1840.00,0.0032
1839.00,0.0033
1838.00,0.0033
1837.00,0.0033
1836.00,0.0032
1835.00,0.0032
1834.00,0.0033
1833.00,0.0034
1832.00,0.0036
1831.00,0.0036
1830.00,0.0035
1829.00,0.0033
1828.00,0.0033
1827.00,0.0034
1826.00,0.0034
1825.00,0.0034
1824.00,0.0033
1823.00,0.0032
1822.00,0.0032
1821.00,0.0032
1820.00,0.0033
1819.00,0.0032
1818.00,0.0031
1817.00,0.0031
1816.00,0.0031
1815.00,0.0032
1814.00,0.0033
1813.00,0.0034
1812.00,0.0035
1811.00,0.0035
1810.00,0.0034
1809.00,0.0034
1808.00,0.0034
1807.00,0.0034
1806.00,0.0035
1805.00,0.0035
1804.00,0.0037
1803.00,0.0037
1802.00,0.0038
1801.00,0.0037
1800.00,0.0036
1799.00,0.0035
1798.00,0.0035
1797.00,0.0036
1796.00,0.0038
1795.00,0.0039
1794.00,0.0040
1793.00,0.0038
1792.00,0.0035
1791.00,0.0032
1790.00,0.0031
1789.00,0.0033
1788.00,0.0035
1787.00,0.0036
1786.00,0.0037
1785.00,0.0036
1784.00,0.0036
1783.00,0.0037
1782.00,0.0037
1781.00,0.0037
1780.00,0.0037
1779.00,0.0036
1778.00,0.0037
1777.00,0.0038
1776.00,0.0040
1775.00,0.0042
1774.00,0.0042
1773.00,0.0040
1772.00,0.0037
1771.00,0.0034
1770.00,0.0034
1769.00,0.0035
1768.00,0.0035
1767.00,0.0035
1766.00,0.0036
1765.00,0.0039
1764.00,0.0041
1763.00,0.0042
1762.00,0.0040
1761.00,0.0038
1760.00,0.0038
1759.00,0.0039
1758.00,0.0040
1757.00,0.0040
1756.00,0.0039
1755.00,0.0040
1754.00,0.0042
1753.00,0.0043
1752.00,0.0044
1751.00,0.0043
1750.00,0.0042
1749.00,0.0042
1748.00,0.0043
1747.00,0.0044
1746.00,0.0045
1745.00,0.0046
1744.00,0.0048
1743.00,0.0048
1742.00,0.0049
1741.00,0.0049
1740.00,0.0048
1739.00,0.0047
1738.00,0.0048
1737.00,0.0052
1736.00,0.0054
1735.00,0.0053
1734.00,0.0047
1733.00,0.0043
1732.00,0.0044
1731.00,0.0049
1730.00,0.0052
1729.00,0.0053
1728.00,0.0054
1727.00,0.0055
1726.00,0.0056
1725.00,0.0058
1724.00,0.0059
1723.00,0.0059
1722.00,0.0061
1721.00,0.0065
1720.00,0.0069
1719.00,0.0071
1718.00,0.0070
1717.00,0.0068
1716.00,0.0068
1715.00,0.0069
1714.00,0.0072
1713.00,0.0076
1712.00,0.0081
1711.00,0.0087
1710.00,0.0092
1709.00,0.0098
1708.00,0.0105
1707.00,0.0113
1706.00,0.0120
1705.00,0.0127
1704.00,0.0135
1703.00,0.0143
1702.00,0.0150
1701.00,0.0160
1700.00,0.0172
1699.00,0.0182
1698.00,0.0193
1697.00,0.0204
1696.00,0.0216
1695.00,0.0225
1694.00,0.0233
1693.00,0.0242
1692.00,0.0252
1691.00,0.0261
1690.00,0.0270
1689.00,0.0279
1688.00,0.0286
1687.00,0.0291
1686.00,0.0297
1685.00,0.0308
1684.00,0.0323
1683.00,0.0335
1682.00,0.0343
1681.00,0.0350
1680.00,0.0358
1679.00,0.0365
1678.00,0.0371
1677.00,0.0378
1676.00,0.0388
1675.00,0.0400
1674.00,0.0410
1673.00,0.0418
1672.00,0.0425
1671.00,0.0435
1670.00,0.0448
1669.00,0.0461
1668.00,0.0472
1667.00,0.0479
1666.00,0.0484
1665.00,0.0490
1664.00,0.0500
1663.00,0.0514
1662.00,0.0527
1661.00,0.0538
1660.00,0.0546
1659.00,0.0553
1658.00,0.0559
1657.00,0.0563
1656.00,0.0563
1655.00,0.0566
1654.00,0.0584
1653.00,0.0614
1652.00,0.0634
1651.00,0.0637
1650.00,0.0635
1649.00,0.0634
1648.00,0.0640
1647.00,0.0654
1646.00,0.0667
1645.00,0.0674
1644.00,0.0677
1643.00,0.0678
1642.00,0.0678
1641.00,0.0680
1640.00,0.0681
1639.00,0.0679
1638.00,0.0678
1637.00,0.0681
1636.00,0.0693
1635.00,0.0704
1634.00,0.0707
1633.00,0.0703
1632.00,0.0697
1631.00,0.0690
1630.00,0.0684
1629.00,0.0680
1628.00,0.0677
1627.00,0.0671
1626.00,0.0662
1625.00,0.0652
1624.00,0.0645
1623.00,0.0638
1622.00,0.0628
1621.00,0.0615
1620.00,0.0598
1619.00,0.0582
1618.00,0.0568
1617.00,0.0557
1616.00,0.0546
1615.00,0.0533
1614.00,0.0518
1613.00,0.0503
1612.00,0.0487
1611.00,0.0472
1610.00,0.0459
1609.00,0.0446
1608.00,0.0433
1607.00,0.0421
1606.00,0.0409
1605.00,0.0399
1604.00,0.0389
1603.00,0.0380
1602.00,0.0373
1601.00,0.0366
1600.00,0.0359
1599.00,0.0354
1598.00,0.0349
1597.00,0.0345
1596.00,0.0342
1595.00,0.0339
1594.00,0.0337
1593.00,0.0335
1592.00,0.0332
1591.00,0.0331
1590.00,0.0330
1589.00,0.0329
1588.00,0.0329
1587.00,0.0329
1586.00,0.0330
1585.00,0.0331
1584.00,0.0331
1583.00,0.0333
1582.00,0.0335
1581.00,0.0338
1580.00,0.0339
1579.00,0.0341
1578.00,0.0343
1577.00,0.0346
1576.00,0.0351
1575.00,0.0356
1574.00,0.0359
1573.00,0.0362
1572.00,0.0365
1571.00,0.0369
1570.00,0.0376
1569.00,0.0382
1568.00,0.0387
1567.00,0.0391
1566.00,0.0396
1565.00,0.0402
1564.00,0.0407
1563.00,0.0409
1562.00,0.0409
1561.00,0.0409
1560.00,0.0418
1559.00,0.0439
1558.00,0.0455
1557.00,0.0461
1556.00,0.0465
1555.00,0.0471
1554.00,0.0478
1553.00,0.0485
1552.00,0.0492
1551.00,0.0499
1550.00,0.0508
1549.00,0.0516
1548.00,0.0520
1547.00,0.0524
1546.00,0.0529
1545.00,0.0537
1544.00,0.0544
1543.00,0.0549
1542.00,0.0554
1541.00,0.0564
1540.00,0.0579
1539.00,0.0590
1538.00,0.0594
1537.00,0.0592
1536.00,0.0590
1535.00,0.0590
1534.00,0.0597
1533.00,0.0606
1532.00,0.0611
1531.00,0.0611
1530.00,0.0610
1529.00,0.0610
1528.00,0.0612
1527.00,0.0616
1526.00,0.0619
1525.00,0.0621
1524.00,0.0620
1523.00,0.0620
1522.00,0.0626
1521.00,0.0635
1520.00,0.0640
1519.00,0.0640
1518.00,0.0641
1517.00,0.0645
1516.00,0.0648
1515.00,0.0646
1514.00,0.0641
1513.00,0.0634
1512.00,0.0628
1511.00,0.0622
1510.00,0.0613
1509.00,0.0604
1508.00,0.0600
1507.00,0.0601
1506.00,0.0599
1505.00,0.0590
1504.00,0.0579
1503.00,0.0566
1502.00,0.0554
1501.00,0.0543
1500.00,0.0532
1499.00,0.0522
1498.00,0.0512
1497.00,0.0502
1496.00,0.0492
1495.00,0.0480
1494.00,0.0469
1493.00,0.0456
1492.00,0.0444
1491.00,0.0433
1490.00,0.0423
1489.00,0.0413
1488.00,0.0401
1487.00,0.0390
1486.00,0.0379
1485.00,0.0368
1484.00,0.0359
1483.00,0.0351
1482.00,0.0344
1481.00,0.0338
1480.00,0.0332
1479.00,0.0328
1478.00,0.0324
1477.00,0.0322
1476.00,0.0322
1475.00,0.0321
1474.00,0.0321
1473.00,0.0323
1472.00,0.0327
1471.00,0.0329
1470.00,0.0330
1469.00,0.0330
1468.00,0.0330
1467.00,0.0330
1466.00,0.0329
1465.00,0.0329
1464.00,0.0329
1463.00,0.0329
1462.00,0.0329
1461.00,0.0329
1460.00,0.0330
1459.00,0.0332
1458.00,0.0336
1457.00,0.0342
1456.00,0.0346
1455.00,0.0350
1454.00,0.0353
1453.00,0.0355
1452.00,0.0357
1451.00,0.0359
1450.00,0.0360
1449.00,0.0361
1448.00,0.0363
1447.00,0.0364
1446.00,0.0363
1445.00,0.0361
1444.00,0.0359
1443.00,0.0357
1442.00,0.0355
1441.00,0.0351
1440.00,0.0347
1439.00,0.0342
1438.00,0.0338
1437.00,0.0333
1436.00,0.0330
1435.00,0.0327
1434.00,0.0323
1433.00,0.0319
1432.00,0.0316
1431.00,0.0312
1430.00,0.0310
1429.00,0.0307
1428.00,0.0304
1427.00,0.0302
1426.00,0.0302
1425.00,0.0302
1424.00,0.0303
1423.00,0.0305
1422.00,0.0305
1421.00,0.0305
1420.00,0.0307
1419.00,0.0311
1418.00,0.0315
1417.00,0.0318
1416.00,0.0320
1415.00,0.0322
1414.00,0.0324
1413.00,0.0325
1412.00,0.0328
1411.00,0.0330
1410.00,0.0332
1409.00,0.0333
1408.00,0.0335
1407.00,0.0336
1406.00,0.0338
1405.00,0.0340
1404.00,0.0342
1403.00,0.0344
1402.00,0.0345
1401.00,0.0345
1400.00,0.0347
1399.00,0.0349
1398.00,0.0351
1397.00,0.0352
1396.00,0.0353
1395.00,0.0354
1394.00,0.0355
1393.00,0.0355
1392.00,0.0355
1391.00,0.0354
1390.00,0.0354
1389.00,0.0353
1388.00,0.0352
1387.00,0.0351
1386.00,0.0349
1385.00,0.0346
1384.00,0.0343
1383.00,0.0340
1382.00,0.0336
1381.00,0.0333
1380.00,0.0331
1379.00,0.0328
1378.00,0.0325
1377.00,0.0323
1376.00,0.0320
1375.00,0.0318
1374.00,0.0316
1373.00,0.0313
1372.00,0.0311
1371.00,0.0308
1370.00,0.0307
1369.00,0.0305
1368.00,0.0302
1367.00,0.0298
1366.00,0.0294
1365.00,0.0290
1364.00,0.0287
1363.00,0.0284
1362.00,0.0282
1361.00,0.0279
1360.00,0.0277
1359.00,0.0275
1358.00,0.0274
1357.00,0.0273
1356.00,0.0273
1355.00,0.0273
1354.00,0.0273
1353.00,0.0272
1352.00,0.0272
1351.00,0.0273
1350.00,0.0273
1349.00,0.0274
1348.00,0.0274
1347.00,0.0274
1346.00,0.0273
1345.00,0.0273
1344.00,0.0273
1343.00,0.0273
1342.00,0.0274
1341.00,0.0274
1340.00,0.0275
1339.00,0.0276
1338.00,0.0276
1337.00,0.0276
1336.00,0.0276
1335.00,0.0275
1334.00,0.0274
1333.00,0.0273
1332.00,0.0272
1331.00,0.0272
1330.00,0.0271
1329.00,0.0271
1328.00,0.0271
1327.00,0.0272
1326.00,0.0272
1325.00,0.0273
1324.00,0.0275
1323.00,0.0276
1322.00,0.0278
1321.00,0.0280
1320.00,0.0281
1319.00,0.0283
1318.00,0.0283
1317.00,0.0283
1316.00,0.0283
1315.00,0.0283
1314.00,0.0283
1313.00,0.0282
1312.00,0.0282
1311.00,0.0282
1310.00,0.0282
1309.00,0.0282
1308.00,0.0282
1307.00,0.0282
1306.00,0.0282
1305.00,0.0282
1304.00,0.0281
1303.00,0.0281
1302.00,0.0280
1301.00,0.0280
1300.00,0.0280
1299.00,0.0280
1298.00,0.0280
1297.00,0.0281
1296.00,0.0281
1295.00,0.0282
1294.00,0.0283
1293.00,0.0284
1292.00,0.0285
1291.00,0.0286
1290.00,0.0287
1289.00,0.0289
1288.00,0.0290
1287.00,0.0291
1286.00,0.0292
1285.00,0.0293
1284.00,0.0294
1283.00,0.0295
1282.00,0.0296
1281.00,0.0296
1280.00,0.0297
1279.00,0.0297
1278.00,0.0296
1277.00,0.0296
1276.00,0.0296
1275.00,0.0296
1274.00,0.0296
1273.00,0.0296
1272.00,0.0296
1271.00,0.0297
1270.00,0.0298
1269.00,0.0299
1268.00,0.0300
1267.00,0.0302
1266.00,0.0304
1265.00,0.0306
1264.00,0.0308
1263.00,0.0310
1262.00,0.0312
1261.00,0.0313
1260.00,0.0315
1259.00,0.0316
1258.00,0.0317
1257.00,0.0318
1256.00,0.0318
1255.00,0.0320
1254.00,0.0321
1253.00,0.0323
1252.00,0.0324
1251.00,0.0326
1250.00,0.0327
1249.00,0.0329
1248.00,0.0332
1247.00,0.0334
1246.00,0.0337
1245.00,0.0339
1244.00,0.0341
1243.00,0.0342
1242.00,0.0343
1241.00,0.0343
1240.00,0.0344
1239.00,0.0344
1238.00,0.0344
1237.00,0.0344
1236.00,0.0345
1235.00,0.0345
1234.00,0.0345
1233.00,0.0345
1232.00,0.0345
1231.00,0.0345
1230.00,0.0344
1229.00,0.0343
1228.00,0.0342
1227.00,0.0341
1226.00,0.0339
1225.00,0.0336
1224.00,0.0334
1223.00,0.0332
1222.00,0.0330
1221.00,0.0327
1220.00,0.0325
1219.00,0.0322
1218.00,0.0319
1217.00,0.0316
1216.00,0.0312
1215.00,0.0308
1214.00,0.0304
1213.00,0.0301
1212.00,0.0297
1211.00,0.0294
1210.00,0.0291
1209.00,0.0288
1208.00,0.0286
1207.00,0.0283
1206.00,0.0280
1205.00,0.0276
1204.00,0.0271
1203.00,0.0267
1202.00,0.0262
1201.00,0.0258
1200.00,0.0254
1199.00,0.0251
1198.00,0.0248
1197.00,0.0245
1196.00,0.0243
1195.00,0.0241
1194.00,0.0239
1193.00,0.0237
1192.00,0.0235
1191.00,0.0234
1190.00,0.0233
1189.00,0.0231
1188.00,0.0230
1187.00,0.0228
1186.00,0.0227
1185.00,0.0227
1184.00,0.0226
1183.00,0.0226
1182.00,0.0226
1181.00,0.0226
1180.00,0.0226
1179.00,0.0227
1178.00,0.0228
1177.00,0.0230
1176.00,0.0232
1175.00,0.0235
1174.00,0.0236
1173.00,0.0238
1172.00,0.0238
1171.00,0.0238
1170.00,0.0237
1169.00,0.0235
1168.00,0.0234
1167.00,0.0232
1166.00,0.0230
1165.00,0.0229
1164.00,0.0228
1163.00,0.0227
1162.00,0.0227
1161.00,0.0227
1160.00,0.0227
1159.00,0.0227
1158.00,0.0226
1157.00,0.0226
1156.00,0.0225
1155.00,0.0224
1154.00,0.0223
1153.00,0.0222
1152.00,0.0221
1151.00,0.0220
1150.00,0.0219
1149.00,0.0218
1148.00,0.0216
1147.00,0.0214
1146.00,0.0212
1145.00,0.0210
1144.00,0.0208
1143.00,0.0207
1142.00,0.0206
1141.00,0.0205
1140.00,0.0205
1139.00,0.0204
1138.00,0.0204
1137.00,0.0204
1136.00,0.0204
1135.00,0.0204
1134.00,0.0205
1133.00,0.0206
1132.00,0.0207
1131.00,0.0208
1130.00,0.0210
1129.00,0.0211
1128.00,0.0212
1127.00,0.0213
1126.00,0.0213
1125.00,0.0214
1124.00,0.0215
1123.00,0.0216
1122.00,0.0216
1121.00,0.0217
1120.00,0.0217
1119.00,0.0218
1118.00,0.0219
1117.00,0.0219
1116.00,0.0220
1115.00,0.0221
1114.00,0.0222
1113.00,0.0223
1112.00,0.0224
1111.00,0.0225
1110.00,0.0226
1109.00,0.0227
1108.00,0.0227
1107.00,0.0228
1106.00,0.0228
1105.00,0.0229
1104.00,0.0229
1103.00,0.0229
1102.00,0.0229
1101.00,0.0229
1100.00,0.0229
1099.00,0.0229
1098.00,0.0229
1097.00,0.0229
1096.00,0.0229
1095.00,0.0229
1094.00,0.0229
1093.00,0.0229
1092.00,0.0229
1091.00,0.0230
1090.00,0.0230
1089.00,0.0231
1088.00,0.0232
1087.00,0.0233
1086.00,0.0234
1085.00,0.0235
1084.00,0.0237
1083.00,0.0238
1082.00,0.0240
1081.00,0.0240
1080.00,0.0241
1079.00,0.0241
1078.00,0.0242
1077.00,0.0242
1076.00,0.0243
1075.00,0.0243
1074.00,0.0244
1073.00,0.0244
1072.00,0.0243
1071.00,0.0243
1070.00,0.0243
1069.00,0.0243
1068.00,0.0242
1067.00,0.0242
1066.00,0.0243
1065.00,0.0243
1064.00,0.0243
1063.00,0.0244
1062.00,0.0244
1061.00,0.0244
1060.00,0.0245
1059.00,0.0245
1058.00,0.0246
1057.00,0.0247
1056.00,0.0249
1055.00,0.0249
1054.00,0.0250
1053.00,0.0249
1052.00,0.0248
1051.00,0.0247
1050.00,0.0247
1049.00,0.0246
1048.00,0.0246
1047.00,0.0247
1046.00,0.0246
1045.00,0.0246
1044.00,0.0245
1043.00,0.0244
1042.00,0.0242
1041.00,0.0241
1040.00,0.0239
1039.00,0.0238
1038.00,0.0237
1037.00,0.0235
1036.00,0.0235
1035.00,0.0234
1034.00,0.0233
1033.00,0.0232
1032.00,0.0230
1031.00,0.0228
1030.00,0.0226
1029.00,0.0224
1028.00,0.0222
1027.00,0.0220
1026.00,0.0218
1025.00,0.0216
1024.00,0.0214
1023.00,0.0213
1022.00,0.0211
1021.00,0.0210
1020.00,0.0208
1019.00,0.0206
1018.00,0.0205
1017.00,0.0203
1016.00,0.0202
1015.00,0.0201
1014.00,0.0199
1013.00,0.0198
1012.00,0.0196
1011.00,0.0193
1010.00,0.0190
1009.00,0.0187
1008.00,0.0185
1007.00,0.0182
1006.00,0.0180
1005.00,0.0178
1004.00,0.0176
1003.00,0.0175
1002.00,0.0173
1001.00,0.0172
1000.00,0.0170
999.00,0.0169
998.00,0.0167
997.00,0.0166
996.00,0.0165
995.00,0.0164
994.00,0.0163
993.00,0.0163
992.00,0.0162
991.00,0.0161
990.00,0.0160
989.00,0.0160
988.00,0.0160
987.00,0.0159
986.00,0.0158
985.00,0.0157
984.00,0.0156
983.00,0.0155
982.00,0.0155
981.00,0.0154
980.00,0.0153
979.00,0.0153
978.00,0.0152
977.00,0.0151
976.00,0.0150
975.00,0.0149
974.00,0.0148
973.00,0.0148
972.00,0.0148
971.00,0.0147
970.00,0.0146
969.00,0.0145
968.00,0.0145
967.00,0.0144
966.00,0.0144
965.00,0.0144
964.00,0.0144
963.00,0.0144
962.00,0.0144
961.00,0.0144
960.00,0.0144
959.00,0.0143
958.00,0.0143
957.00,0.0142
956.00,0.0142
955.00,0.0141
954.00,0.0141
953.00,0.0140
952.00,0.0140
951.00,0.0140
950.00,0.0141
949.00,0.0142
948.00,0.0143
947.00,0.0144
946.00,0.0145
945.00,0.0146
944.00,0.0147
943.00,0.0148
942.00,0.0149
941.00,0.0150
940.00,0.0151
939.00,0.0153
938.00,0.0154
937.00,0.0155
936.00,0.0156
935.00,0.0158
934.00,0.0159
933.00,0.0160
932.00,0.0160
931.00,0.0160
930.00,0.0160
929.00,0.0160
928.00,0.0160
927.00,0.0160
926.00,0.0160
925.00,0.0159
924.00,0.0159
923.00,0.0158
922.00,0.0158
921.00,0.0157
920.00,0.0157
919.00,0.0156
918.00,0.0155
917.00,0.0155
916.00,0.0155
915.00,0.0154
914.00,0.0154
913.00,0.0153
912.00,0.0153
911.00,0.0152
910.00,0.0152
909.00,0.0152
908.00,0.0153
907.00,0.0154
906.00,0.0155
905.00,0.0156
904.00,0.0156
903.00,0.0157
902.00,0.0157
901.00,0.0156
900.00,0.0156
899.00,0.0156
898.00,0.0156
897.00,0.0155
896.00,0.0155
895.00,0.0154
894.00,0.0154
893.00,0.0154
892.00,0.0154
891.00,0.0154
890.00,0.0155
889.00,0.0154
888.00,0.0154
887.00,0.0153
886.00,0.0154
885.00,0.0154
884.00,0.0155
883.00,0.0155
882.00,0.0155
881.00,0.0154
880.00,0.0154
879.00,0.0154
878.00,0.0154
877.00,0.0154
876.00,0.0154
875.00,0.0153
874.00,0.0153
873.00,0.0152
872.00,0.0152
871.00,0.0152
870.00,0.0152
869.00,0.0153
868.00,0.0153
867.00,0.0154
866.00,0.0155
865.00,0.0156
864.00,0.0157
863.00,0.0158
862.00,0.0158
861.00,0.0159
860.00,0.0160
859.00,0.0161
858.00,0.0163
857.00,0.0164
856.00,0.0166
855.00,0.0167
854.00,0.0168
853.00,0.0168
852.00,0.0168
851.00,0.0169
850.00,0.0169
849.00,0.0170
848.00,0.0171
847.00,0.0172
846.00,0.0172
845.00,0.0172
844.00,0.0173
843.00,0.0174
842.00,0.0175
841.00,0.0176
840.00,0.0178
839.00,0.0179
838.00,0.0181
837.00,0.0182
836.00,0.0183
835.00,0.0184
834.00,0.0185
833.00,0.0186
832.00,0.0188
831.00,0.0190
830.00,0.0191
829.00,0.0192
828.00,0.0194
827.00,0.0195
826.00,0.0196
825.00,0.0197
824.00,0.0198
823.00,0.0198
822.00,0.0199
821.00,0.0199
820.00,0.0200
819.00,0.0201
818.00,0.0201
817.00,0.0202
816.00,0.0204
815.00,0.0205
814.00,0.0207
813.00,0.0208
812.00,0.0210
811.00,0.0211
810.00,0.0212
809.00,0.0213
808.00,0.0215
807.00,0.0217
806.00,0.0218
805.00,0.0220
804.00,0.0221
803.00,0.0222
802.00,0.0223
801.00,0.0224
800.00,0.0225
799.00,0.0226
798.00,0.0227
797.00,0.0228
796.00,0.0230
795.00,0.0231
794.00,0.0233
793.00,0.0234
792.00,0.0235
791.00,0.0236
790.00,0.0236
789.00,0.0237
788.00,0.0238
787.00,0.0240
786.00,0.0241
785.00,0.0242
784.00,0.0244
783.00,0.0246
782.00,0.0247
781.00,0.0248
780.00,0.0249
779.00,0.0250
778.00,0.0250
777.00,0.0251
776.00,0.0252
775.00,0.0253
774.00,0.0254
773.00,0.0256
772.00,0.0257
771.00,0.0258
770.00,0.0258
769.00,0.0259
768.00,0.0261
767.00,0.0262
766.00,0.0263
765.00,0.0264
764.00,0.0266
763.00,0.0268
762.00,0.0269
761.00,0.0271
760.00,0.0273
759.00,0.0275
758.00,0.0276
757.00,0.0278
756.00,0.0280
755.00,0.0281
754.00,0.0282
753.00,0.0283
752.00,0.0285
751.00,0.0287
750.00,0.0289
749.00,0.0291
748.00,0.0293
747.00,0.0295
746.00,0.0297
745.00,0.0298
744.00,0.0300
743.00,0.0302
742.00,0.0303
741.00,0.0304
740.00,0.0305
739.00,0.0306
738.00,0.0307
737.00,0.0309
736.00,0.0311
735.00,0.0313
734.00,0.0314
733.00,0.0316
732.00,0.0317
731.00,0.0319
730.00,0.0321
729.00,0.0324
728.00,0.0326
727.00,0.0329
726.00,0.0331
725.00,0.0333
724.00,0.0335
723.00,0.0338
722.00,0.0341
721.00,0.0344
720.00,0.0348
719.00,0.0351
718.00,0.0355
717.00,0.0357
716.00,0.0360
715.00,0.0363
714.00,0.0366
713.00,0.0370
712.00,0.0373
711.00,0.0377
710.00,0.0380
709.00,0.0384
708.00,0.0387
707.00,0.0391
706.00,0.0395
705.00,0.0399
704.00,0.0403
703.00,0.0406
702.00,0.0409
701.00,0.0411
700.00,0.0413
699.00,0.0415
698.00,0.0417
697.00,0.0418
696.00,0.0419
695.00,0.0419
694.00,0.0420
693.00,0.0420
692.00,0.0421
691.00,0.0422
690.00,0.0422
689.00,0.0424
688.00,0.0426
687.00,0.0428
686.00,0.0430
685.00,0.0432
684.00,0.0435
683.00,0.0437
682.00,0.0438
681.00,0.0439
680.00,0.0441
679.00,0.0444
678.00,0.0446
677.00,0.0448
676.00,0.0450
675.00,0.0451
674.00,0.0452
673.00,0.0452
672.00,0.0453
671.00,0.0452
670.00,0.0453
669.00,0.0458
668.00,0.0467
667.00,0.0474
666.00,0.0475
665.00,0.0472
664.00,0.0471
663.00,0.0471
662.00,0.0472
661.00,0.0474
660.00,0.0475
659.00,0.0476
658.00,0.0477
657.00,0.0477
656.00,0.0478
655.00,0.0479
654.00,0.0479
653.00,0.0480
652.00,0.0482
651.00,0.0483
650.00,0.0484
649.00,0.0484
648.00,0.0485
647.00,0.0486
646.00,0.0487
645.00,0.0488
644.00,0.0489
643.00,0.0490
642.00,0.0490
641.00,0.0491
640.00,0.0492
639.00,0.0494
638.00,0.0496
637.00,0.0497
636.00,0.0498
635.00,0.0499
634.00,0.0500
633.00,0.0502
632.00,0.0504
631.00,0.0505
630.00,0.0506
629.00,0.0508
628.00,0.0509
627.00,0.0510
626.00,0.0511
625.00,0.0512
624.00,0.0513
623.00,0.0515
622.00,0.0516
621.00,0.0518
620.00,0.0521
619.00,0.0523
618.00,0.0524
617.00,0.0524
616.00,0.0524
615.00,0.0525
614.00,0.0525
613.00,0.0526
612.00,0.0526
611.00,0.0525
610.00,0.0525
609.00,0.0525
608.00,0.0526
607.00,0.0527
606.00,0.0528
605.00,0.0530
604.00,0.0531
603.00,0.0532
602.00,0.0533
601.00,0.0534
600.00,0.0535
599.00,0.0536
598.00,0.0535
597.00,0.0534
596.00,0.0534
595.00,0.0534
594.00,0.0536
593.00,0.0538
592.00,0.0540
591.00,0.0542
590.00,0.0543
589.00,0.0545
588.00,0.0546
587.00,0.0548
586.00,0.0548
585.00,0.0548
584.00,0.0549
583.00,0.0550
582.00,0.0551
581.00,0.0554
580.00,0.0557
579.00,0.0560
578.00,0.0561
577.00,0.0561
576.00,0.0561
575.00,0.0561
574.00,0.0561
573.00,0.0561
572.00,0.0562
571.00,0.0562
570.00,0.0562
569.00,0.0561
568.00,0.0561
567.00,0.0562
566.00,0.0564
565.00,0.0566
564.00,0.0568
563.00,0.0569
562.00,0.0569
561.00,0.0570
560.00,0.0571
559.00,0.0573
558.00,0.0574
557.00,0.0575
556.00,0.0577
555.00,0.0579
554.00,0.0581
553.00,0.0583
552.00,0.0584
551.00,0.0584
550.00,0.0583
549.00,0.0582
548.00,0.0582
547.00,0.0582
546.00,0.0582
545.00,0.0582
544.00,0.0581
543.00,0.0581
542.00,0.0581
541.00,0.0581
540.00,0.0582
539.00,0.0582
538.00,0.0582
537.00,0.0583
536.00,0.0584
535.00,0.0585
534.00,0.0584
533.00,0.0583
532.00,0.0581
531.00,0.0581
530.00,0.0580
529.00,0.0580
528.00,0.0581
527.00,0.0581
526.00,0.0579
525.00,0.0578
524.00,0.0578
523.00,0.0579
522.00,0.0579
521.00,0.0578
520.00,0.0576
519.00,0.0575
518.00,0.0572
517.00,0.0570
516.00,0.0571
515.00,0.0573
514.00,0.0574
513.00,0.0573
512.00,0.0571
511.00,0.0568
510.00,0.0566
509.00,0.0564
508.00,0.0564
507.00,0.0564
506.00,0.0562
505.00,0.0559
504.00,0.0556
503.00,0.0556
502.00,0.0558
501.00,0.0559
500.00,0.0561
499.00,0.0561
498.00,0.0561
497.00,0.0562
496.00,0.0563
495.00,0.0563
494.00,0.0563
493.00,0.0564
492.00,0.0566
491.00,0.0567
490.00,0.0566
489.00,0.0564
488.00,0.0563
487.00,0.0562
486.00,0.0560
485.00,0.0558
484.00,0.0555
483.00,0.0552
482.00,0.0550
481.00,0.0549
480.00,0.0550
479.00,0.0551
478.00,0.0550
477.00,0.0549
476.00,0.0547
475.00,0.0545
474.00,0.0542
473.00,0.0541
472.00,0.0542
471.00,0.0545
470.00,0.0547
469.00,0.0549
468.00,0.0550
467.00,0.0549
466.00,0.0547
465.00,0.0545
464.00,0.0544
463.00,0.0543
462.00,0.0541
461.00,0.0540
460.00,0.0540
459.00,0.0541
458.00,0.0542
457.00,0.0543
456.00,0.0541
455.00,0.0537
454.00,0.0534
453.00,0.0535
452.00,0.0538
451.00,0.0541
450.00,0.0538
449.00,0.0534
448.00,0.0531
447.00,0.0529
446.00,0.0527
445.00,0.0529
444.00,0.0533
443.00,0.0539
442.00,0.0541
441.00,0.0539
440.00,0.0538
439.00,0.0537
438.00,0.0538
437.00,0.0540
436.00,0.0542
435.00,0.0541
434.00,0.0536
433.00,0.0529
432.00,0.0526
431.00,0.0525
430.00,0.0527
429.00,0.0530
428.00,0.0534
427.00,0.0537
426.00,0.0537
425.00,0.0538
424.00,0.0541
423.00,0.0543
422.00,0.0541
421.00,0.0538
420.00,0.0536
419.00,0.0534
418.00,0.0529
417.00,0.0525
416.00,0.0526
415.00,0.0528
414.00,0.0526
413.00,0.0523
412.00,0.0520
411.00,0.0516
410.00,0.0511
409.00,0.0510
408.00,0.0516
407.00,0.0522
406.00,0.0526
405.00,0.0527
404.00,0.0529
403.00,0.0527
402.00,0.0519
401.00,0.0515
400.00,0.0520
