Created as New Dataset,Sample 600 By YargerLab Date Thursday, June 05 2025
cm-1,A
4000.00,0.0054
3999.00,0.0054
3998.00,0.0054
3997.00,0.0053
3996.00,0.0053
3995.00,0.0053
3994.00,0.0054
3993.00,0.0054
3992.00,0.0053
3991.00,0.0053
3990.00,0.0053
3989.00,0.0053
3988.00,0.0053
3987.00,0.0053
3986.00,0.0053
3985.00,0.0053
3984.00,0.0054
3983.00,0.0054
3982.00,0.0054
3981.00,0.0054
3980.00,0.0053
3979.00,0.0053
3978.00,0.0053
3977.00,0.0053
3976.00,0.0053
3975.00,0.0053
3974.00,0.0053
3973.00,0.0053
3972.00,0.0053
3971.00,0.0053
3970.00,0.0053
3969.00,0.0053
3968.00,0.0053
3967.00,0.0053
3966.00,0.0054
3965.00,0.0054
3964.00,0.0054
3963.00,0.0053
3962.00,0.0053
3961.00,0.0053
3960.00,0.0053
3959.00,0.0053
3958.00,0.0053
3957.00,0.0053
3956.00,0.0053
3955.00,0.0053
3954.00,0.0053
3953.00,0.0053
3952.00,0.0053
3951.00,0.0052
3950.00,0.0052
3949.00,0.0052
3948.00,0.0052
3947.00,0.0052
3946.00,0.0052
3945.00,0.0052
3944.00,0.0052
3943.00,0.0053
3942.00,0.0053
3941.00,0.0053
3940.00,0.0053
3939.00,0.0053
3938.00,0.0053
3937.00,0.0053
3936.00,0.0053
3935.00,0.0053
3934.00,0.0053
3933.00,0.0053
3932.00,0.0053
3931.00,0.0053
3930.00,0.0053
3929.00,0.0052
3928.00,0.0052
3927.00,0.0052
3926.00,0.0052
3925.00,0.0053
3924.00,0.0053
3923.00,0.0053
3922.00,0.0052
3921.00,0.0052
3920.00,0.0052
3919.00,0.0052
3918.00,0.0052
3917.00,0.0052
3916.00,0.0052
3915.00,0.0052
3914.00,0.0052
3913.00,0.0052
3912.00,0.0052
3911.00,0.0052
3910.00,0.0053
3909.00,0.0053
3908.00,0.0053
3907.00,0.0053
3906.00,0.0052
3905.00,0.0052
3904.00,0.0052
3903.00,0.0052
3902.00,0.0051
3901.00,0.0051
3900.00,0.0051
3899.00,0.0051
3898.00,0.0051
3897.00,0.0052
3896.00,0.0052
3895.00,0.0052
3894.00,0.0052
3893.00,0.0052
3892.00,0.0052
3891.00,0.0052
3890.00,0.0051
3889.00,0.0051
3888.00,0.0051
3887.00,0.0051
3886.00,0.0051
3885.00,0.0051
3884.00,0.0051
3883.00,0.0050
3882.00,0.0050
3881.00,0.0050
3880.00,0.0051
3879.00,0.0051
3878.00,0.0051
3877.00,0.0051
3876.00,0.0051
3875.00,0.0050
3874.00,0.0050
3873.00,0.0050
3872.00,0.0050
3871.00,0.0050
3870.00,0.0050
3869.00,0.0050
3868.00,0.0050
3867.00,0.0050
3866.00,0.0050
3865.00,0.0050
3864.00,0.0050
3863.00,0.0051
3862.00,0.0050
3861.00,0.0050
3860.00,0.0050
3859.00,0.0050
3858.00,0.0051
3857.00,0.0051
3856.00,0.0051
3855.00,0.0050
3854.00,0.0049
3853.00,0.0049
3852.00,0.0049
3851.00,0.0049
3850.00,0.0049
3849.00,0.0049
3848.00,0.0049
3847.00,0.0049
3846.00,0.0050
3845.00,0.0050
3844.00,0.0050
3843.00,0.0049
3842.00,0.0049
3841.00,0.0049
3840.00,0.0049
3839.00,0.0048
3838.00,0.0048
3837.00,0.0048
3836.00,0.0048
3835.00,0.0049
3834.00,0.0049
3833.00,0.0049
3832.00,0.0049
3831.00,0.0049
3830.00,0.0050
3829.00,0.0050
3828.00,0.0050
3827.00,0.0050
3826.00,0.0050
3825.00,0.0050
3824.00,0.0049
3823.00,0.0049
3822.00,0.0048
3821.00,0.0048
3820.00,0.0048
3819.00,0.0048
3818.00,0.0048
3817.00,0.0048
3816.00,0.0048
3815.00,0.0049
3814.00,0.0049
3813.00,0.0049
3812.00,0.0049
3811.00,0.0049
3810.00,0.0049
3809.00,0.0049
3808.00,0.0049
3807.00,0.0048
3806.00,0.0049
3805.00,0.0049
3804.00,0.0049
3803.00,0.0049
3802.00,0.0048
3801.00,0.0049
3800.00,0.0049
3799.00,0.0049
3798.00,0.0049
3797.00,0.0049
3796.00,0.0049
3795.00,0.0049
3794.00,0.0050
3793.00,0.0050
3792.00,0.0050
3791.00,0.0050
3790.00,0.0050
3789.00,0.0050
3788.00,0.0050
3787.00,0.0050
3786.00,0.0049
3785.00,0.0049
3784.00,0.0049
3783.00,0.0049
3782.00,0.0049
3781.00,0.0049
3780.00,0.0049
3779.00,0.0049
3778.00,0.0049
3777.00,0.0049
3776.00,0.0049
3775.00,0.0049
3774.00,0.0049
3773.00,0.0049
3772.00,0.0049
3771.00,0.0049
3770.00,0.0049
3769.00,0.0049
3768.00,0.0048
3767.00,0.0048
3766.00,0.0048
3765.00,0.0048
3764.00,0.0048
3763.00,0.0049
3762.00,0.0049
3761.00,0.0049
3760.00,0.0048
3759.00,0.0048
3758.00,0.0048
3757.00,0.0048
3756.00,0.0048
3755.00,0.0048
3754.00,0.0048
3753.00,0.0047
3752.00,0.0047
3751.00,0.0047
3750.00,0.0046
3749.00,0.0046
3748.00,0.0046
3747.00,0.0046
3746.00,0.0046
3745.00,0.0046
3744.00,0.0046
3743.00,0.0046
3742.00,0.0046
3741.00,0.0046
3740.00,0.0045
3739.00,0.0045
3738.00,0.0045
3737.00,0.0044
3736.00,0.0044
3735.00,0.0045
3734.00,0.0045
3733.00,0.0045
3732.00,0.0046
3731.00,0.0046
3730.00,0.0046
3729.00,0.0046
3728.00,0.0046
3727.00,0.0046
3726.00,0.0046
3725.00,0.0046
3724.00,0.0046
3723.00,0.0046
3722.00,0.0046
3721.00,0.0046
3720.00,0.0046
3719.00,0.0046
3718.00,0.0046
3717.00,0.0047
3716.00,0.0047
3715.00,0.0047
3714.00,0.0046
3713.00,0.0046
3712.00,0.0045
3711.00,0.0045
3710.00,0.0045
3709.00,0.0045
3708.00,0.0045
3707.00,0.0045
3706.00,0.0046
3705.00,0.0046
3704.00,0.0046
3703.00,0.0046
3702.00,0.0046
3701.00,0.0046
3700.00,0.0047
3699.00,0.0046
3698.00,0.0046
3697.00,0.0046
3696.00,0.0046
3695.00,0.0046
3694.00,0.0046
3693.00,0.0046
3692.00,0.0045
3691.00,0.0045
3690.00,0.0045
3689.00,0.0045
3688.00,0.0045
3687.00,0.0045
3686.00,0.0045
3685.00,0.0045
3684.00,0.0045
3683.00,0.0045
3682.00,0.0045
3681.00,0.0045
3680.00,0.0045
3679.00,0.0045
3678.00,0.0045
3677.00,0.0044
3676.00,0.0044
3675.00,0.0043
3674.00,0.0043
3673.00,0.0043
3672.00,0.0043
3671.00,0.0043
3670.00,0.0043
3669.00,0.0044
3668.00,0.0044
3667.00,0.0044
3666.00,0.0044
3665.00,0.0044
3664.00,0.0045
3663.00,0.0045
3662.00,0.0045
3661.00,0.0046
3660.00,0.0046
3659.00,0.0046
3658.00,0.0046
3657.00,0.0046
3656.00,0.0046
3655.00,0.0046
3654.00,0.0045
3653.00,0.0045
3652.00,0.0044
3651.00,0.0044
3650.00,0.0044
3649.00,0.0044
3648.00,0.0045
3647.00,0.0045
3646.00,0.0045
3645.00,0.0046
3644.00,0.0046
3643.00,0.0047
3642.00,0.0047
3641.00,0.0048
3640.00,0.0048
3639.00,0.0048
3638.00,0.0048
3637.00,0.0048
3636.00,0.0048
3635.00,0.0048
3634.00,0.0048
3633.00,0.0048
3632.00,0.0049
3631.00,0.0049
3630.00,0.0048
3629.00,0.0048
3628.00,0.0049
3627.00,0.0049
3626.00,0.0050
3625.00,0.0050
3624.00,0.0051
3623.00,0.0051
3622.00,0.0052
3621.00,0.0052
3620.00,0.0052
3619.00,0.0052
3618.00,0.0052
3617.00,0.0052
3616.00,0.0051
3615.00,0.0051
3614.00,0.0052
3613.00,0.0052
3612.00,0.0053
3611.00,0.0053
3610.00,0.0053
3609.00,0.0053
3608.00,0.0054
3607.00,0.0054
3606.00,0.0054
3605.00,0.0054
3604.00,0.0054
3603.00,0.0054
3602.00,0.0054
3601.00,0.0055
3600.00,0.0055
3599.00,0.0055
3598.00,0.0055
3597.00,0.0055
3596.00,0.0056
3595.00,0.0056
3594.00,0.0056
3593.00,0.0057
3592.00,0.0057
3591.00,0.0057
3590.00,0.0057
3589.00,0.0057
3588.00,0.0058
3587.00,0.0058
3586.00,0.0059
3585.00,0.0059
3584.00,0.0059
3583.00,0.0059
3582.00,0.0059
3581.00,0.0060
3580.00,0.0060
3579.00,0.0061
3578.00,0.0061
3577.00,0.0061
3576.00,0.0061
3575.00,0.0062
3574.00,0.0062
3573.00,0.0063
3572.00,0.0063
3571.00,0.0063
3570.00,0.0063
3569.00,0.0063
3568.00,0.0063
3567.00,0.0063
3566.00,0.0063
3565.00,0.0064
3564.00,0.0064
3563.00,0.0064
3562.00,0.0065
3561.00,0.0065
3560.00,0.0066
3559.00,0.0066
3558.00,0.0067
3557.00,0.0067
3556.00,0.0067
3555.00,0.0068
3554.00,0.0068
3553.00,0.0068
3552.00,0.0068
3551.00,0.0068
3550.00,0.0068
3549.00,0.0069
3548.00,0.0069
3547.00,0.0069
3546.00,0.0070
3545.00,0.0070
3544.00,0.0070
3543.00,0.0071
3542.00,0.0071
3541.00,0.0071
3540.00,0.0071
3539.00,0.0072
3538.00,0.0072
3537.00,0.0073
3536.00,0.0074
3535.00,0.0074
3534.00,0.0074
3533.00,0.0074
3532.00,0.0074
3531.00,0.0074
3530.00,0.0075
3529.00,0.0075
3528.00,0.0075
3527.00,0.0076
3526.00,0.0076
3525.00,0.0077
3524.00,0.0077
3523.00,0.0077
3522.00,0.0078
3521.00,0.0078
3520.00,0.0078
3519.00,0.0078
3518.00,0.0079
3517.00,0.0079
3516.00,0.0079
3515.00,0.0079
3514.00,0.0080
3513.00,0.0080
3512.00,0.0080
3511.00,0.0080
3510.00,0.0081
3509.00,0.0081
3508.00,0.0081
3507.00,0.0081
3506.00,0.0081
3505.00,0.0081
3504.00,0.0082
3503.00,0.0082
3502.00,0.0083
3501.00,0.0083
3500.00,0.0084
3499.00,0.0084
3498.00,0.0085
3497.00,0.0085
3496.00,0.0085
3495.00,0.0086
3494.00,0.0086
3493.00,0.0086
3492.00,0.0086
3491.00,0.0087
3490.00,0.0087
3489.00,0.0088
3488.00,0.0088
3487.00,0.0088
3486.00,0.0089
3485.00,0.0089
3484.00,0.0089
3483.00,0.0090
3482.00,0.0090
3481.00,0.0091
3480.00,0.0091
3479.00,0.0091
3478.00,0.0092
3477.00,0.0092
3476.00,0.0092
3475.00,0.0093
3474.00,0.0093
3473.00,0.0093
3472.00,0.0094
3471.00,0.0094
3470.00,0.0094
3469.00,0.0095
3468.00,0.0095
3467.00,0.0096
3466.00,0.0096
3465.00,0.0096
3464.00,0.0097
3463.00,0.0097
3462.00,0.0097
3461.00,0.0098
3460.00,0.0098
3459.00,0.0099
3458.00,0.0100
3457.00,0.0101
3456.00,0.0101
3455.00,0.0102
3454.00,0.0104
3453.00,0.0105
3452.00,0.0106
3451.00,0.0107
3450.00,0.0108
3449.00,0.0109
3448.00,0.0110
3447.00,0.0111
3446.00,0.0112
3445.00,0.0112
3444.00,0.0113
3443.00,0.0113
3442.00,0.0114
3441.00,0.0114
3440.00,0.0114
3439.00,0.0114
3438.00,0.0114
3437.00,0.0114
3436.00,0.0114
3435.00,0.0114
3434.00,0.0114
3433.00,0.0114
3432.00,0.0114
3431.00,0.0114
3430.00,0.0115
3429.00,0.0115
3428.00,0.0115
3427.00,0.0116
3426.00,0.0116
3425.00,0.0116
3424.00,0.0117
3423.00,0.0117
3422.00,0.0117
3421.00,0.0118
3420.00,0.0118
3419.00,0.0119
3418.00,0.0119
3417.00,0.0120
3416.00,0.0121
3415.00,0.0121
3414.00,0.0122
3413.00,0.0122
3412.00,0.0122
3411.00,0.0123
3410.00,0.0123
3409.00,0.0124
3408.00,0.0125
3407.00,0.0125
3406.00,0.0126
3405.00,0.0126
3404.00,0.0127
3403.00,0.0127
3402.00,0.0128
3401.00,0.0128
3400.00,0.0129
3399.00,0.0130
3398.00,0.0130
3397.00,0.0131
3396.00,0.0131
3395.00,0.0131
3394.00,0.0131
3393.00,0.0132
3392.00,0.0132
3391.00,0.0133
3390.00,0.0134
3389.00,0.0135
3388.00,0.0136
3387.00,0.0136
3386.00,0.0137
3385.00,0.0137
3384.00,0.0138
3383.00,0.0138
3382.00,0.0139
3381.00,0.0140
3380.00,0.0140
3379.00,0.0141
3378.00,0.0141
3377.00,0.0142
3376.00,0.0142
3375.00,0.0143
3374.00,0.0143
3373.00,0.0144
3372.00,0.0144
3371.00,0.0145
3370.00,0.0145
3369.00,0.0146
3368.00,0.0147
3367.00,0.0148
3366.00,0.0149
3365.00,0.0150
3364.00,0.0151
3363.00,0.0152
3362.00,0.0153
3361.00,0.0154
3360.00,0.0154
3359.00,0.0155
3358.00,0.0156
3357.00,0.0157
3356.00,0.0158
3355.00,0.0159
3354.00,0.0160
3353.00,0.0160
3352.00,0.0161
3351.00,0.0162
3350.00,0.0163
3349.00,0.0164
3348.00,0.0165
3347.00,0.0166
3346.00,0.0167
3345.00,0.0168
3344.00,0.0168
3343.00,0.0169
3342.00,0.0170
3341.00,0.0171
3340.00,0.0171
3339.00,0.0172
3338.00,0.0173
3337.00,0.0175
3336.00,0.0176
3335.00,0.0177
3334.00,0.0178
3333.00,0.0179
3332.00,0.0180
3331.00,0.0181
3330.00,0.0182
3329.00,0.0183
3328.00,0.0184
3327.00,0.0185
3326.00,0.0186
3325.00,0.0187
3324.00,0.0189
3323.00,0.0190
3322.00,0.0191
3321.00,0.0191
3320.00,0.0192
3319.00,0.0193
3318.00,0.0194
3317.00,0.0195
3316.00,0.0197
3315.00,0.0198
3314.00,0.0199
3313.00,0.0199
3312.00,0.0200
3311.00,0.0200
3310.00,0.0200
3309.00,0.0201
3308.00,0.0201
3307.00,0.0202
3306.00,0.0203
3305.00,0.0205
3304.00,0.0207
3303.00,0.0208
3302.00,0.0210
3301.00,0.0211
3300.00,0.0211
3299.00,0.0212
3298.00,0.0212
3297.00,0.0212
3296.00,0.0212
3295.00,0.0213
3294.00,0.0213
3293.00,0.0214
3292.00,0.0215
3291.00,0.0217
3290.00,0.0218
3289.00,0.0219
3288.00,0.0220
3287.00,0.0220
3286.00,0.0221
3285.00,0.0221
3284.00,0.0221
3283.00,0.0222
3282.00,0.0222
3281.00,0.0222
3280.00,0.0222
3279.00,0.0222
3278.00,0.0221
3277.00,0.0221
3276.00,0.0220
3275.00,0.0219
3274.00,0.0218
3273.00,0.0217
3272.00,0.0216
3271.00,0.0216
3270.00,0.0216
3269.00,0.0216
3268.00,0.0217
3267.00,0.0216
3266.00,0.0215
3265.00,0.0214
3264.00,0.0213
3263.00,0.0212
3262.00,0.0212
3261.00,0.0211
3260.00,0.0210
3259.00,0.0209
3258.00,0.0208
3257.00,0.0206
3256.00,0.0205
3255.00,0.0204
3254.00,0.0204
3253.00,0.0203
3252.00,0.0202
3251.00,0.0201
3250.00,0.0199
3249.00,0.0198
3248.00,0.0197
3247.00,0.0196
3246.00,0.0195
3245.00,0.0195
3244.00,0.0195
3243.00,0.0194
3242.00,0.0193
3241.00,0.0192
3240.00,0.0191
3239.00,0.0190
3238.00,0.0189
3237.00,0.0188
3236.00,0.0187
3235.00,0.0185
3234.00,0.0184
3233.00,0.0184
3232.00,0.0184
3231.00,0.0184
3230.00,0.0184
3229.00,0.0183
3228.00,0.0183
3227.00,0.0182
3226.00,0.0181
3225.00,0.0180
3224.00,0.0180
3223.00,0.0179
3222.00,0.0179
3221.00,0.0178
3220.00,0.0178
3219.00,0.0177
3218.00,0.0176
3217.00,0.0176
3216.00,0.0175
3215.00,0.0175
3214.00,0.0175
3213.00,0.0174
3212.00,0.0174
3211.00,0.0173
3210.00,0.0173
3209.00,0.0172
3208.00,0.0172
3207.00,0.0171
3206.00,0.0171
3205.00,0.0170
3204.00,0.0170
3203.00,0.0169
3202.00,0.0169
3201.00,0.0168
3200.00,0.0168
3199.00,0.0167
3198.00,0.0166
3197.00,0.0166
3196.00,0.0165
3195.00,0.0164
3194.00,0.0164
3193.00,0.0163
3192.00,0.0163
3191.00,0.0162
3190.00,0.0162
3189.00,0.0161
3188.00,0.0161
3187.00,0.0160
3186.00,0.0159
3185.00,0.0159
3184.00,0.0158
3183.00,0.0158
3182.00,0.0157
3181.00,0.0157
3180.00,0.0156
3179.00,0.0155
3178.00,0.0155
3177.00,0.0154
3176.00,0.0153
3175.00,0.0152
3174.00,0.0152
3173.00,0.0151
3172.00,0.0151
3171.00,0.0150
3170.00,0.0150
3169.00,0.0149
3168.00,0.0148
3167.00,0.0147
3166.00,0.0147
3165.00,0.0146
3164.00,0.0146
3163.00,0.0145
3162.00,0.0145
3161.00,0.0144
3160.00,0.0143
3159.00,0.0143
3158.00,0.0142
3157.00,0.0141
3156.00,0.0140
3155.00,0.0139
3154.00,0.0138
3153.00,0.0138
3152.00,0.0138
3151.00,0.0138
3150.00,0.0138
3149.00,0.0138
3148.00,0.0138
3147.00,0.0137
3146.00,0.0137
3145.00,0.0136
3144.00,0.0136
3143.00,0.0135
3142.00,0.0134
3141.00,0.0134
3140.00,0.0133
3139.00,0.0132
3138.00,0.0132
3137.00,0.0132
3136.00,0.0133
3135.00,0.0133
3134.00,0.0132
3133.00,0.0132
3132.00,0.0131
3131.00,0.0131
3130.00,0.0130
3129.00,0.0130
3128.00,0.0130
3127.00,0.0130
3126.00,0.0130
3125.00,0.0129
3124.00,0.0129
3123.00,0.0128
3122.00,0.0127
3121.00,0.0127
3120.00,0.0126
3119.00,0.0126
3118.00,0.0126
3117.00,0.0126
3116.00,0.0126
3115.00,0.0127
3114.00,0.0127
3113.00,0.0128
3112.00,0.0128
3111.00,0.0128
3110.00,0.0128
3109.00,0.0127
3108.00,0.0127
3107.00,0.0128
3106.00,0.0128
3105.00,0.0129
3104.00,0.0129
3103.00,0.0129
3102.00,0.0129
3101.00,0.0129
3100.00,0.0129
3099.00,0.0129
3098.00,0.0129
3097.00,0.0130
3096.00,0.0130
3095.00,0.0130
3094.00,0.0130
3093.00,0.0130
3092.00,0.0129
3091.00,0.0129
3090.00,0.0130
3089.00,0.0130
3088.00,0.0130
3087.00,0.0130
3086.00,0.0130
3085.00,0.0130
3084.00,0.0130
3083.00,0.0130
3082.00,0.0130
3081.00,0.0130
3080.00,0.0130
3079.00,0.0130
3078.00,0.0130
3077.00,0.0131
3076.00,0.0132
3075.00,0.0133
3074.00,0.0134
3073.00,0.0134
3072.00,0.0134
3071.00,0.0133
3070.00,0.0132
3069.00,0.0132
3068.00,0.0131
3067.00,0.0131
3066.00,0.0131
3065.00,0.0132
3064.00,0.0132
3063.00,0.0132
3062.00,0.0132
3061.00,0.0132
3060.00,0.0132
3059.00,0.0132
3058.00,0.0131
3057.00,0.0130
3056.00,0.0130
3055.00,0.0129
3054.00,0.0129
3053.00,0.0128
3052.00,0.0128
3051.00,0.0127
3050.00,0.0127
3049.00,0.0127
3048.00,0.0127
3047.00,0.0126
3046.00,0.0125
3045.00,0.0124
3044.00,0.0124
3043.00,0.0123
3042.00,0.0123
3041.00,0.0123
3040.00,0.0123
3039.00,0.0123
3038.00,0.0123
3037.00,0.0122
3036.00,0.0121
3035.00,0.0121
3034.00,0.0120
3033.00,0.0120
3032.00,0.0120
3031.00,0.0120
3030.00,0.0120
3029.00,0.0120
3028.00,0.0119
3027.00,0.0119
3026.00,0.0118
3025.00,0.0118
3024.00,0.0117
3023.00,0.0117
3022.00,0.0116
3021.00,0.0115
3020.00,0.0114
3019.00,0.0114
3018.00,0.0113
3017.00,0.0112
3016.00,0.0111
3015.00,0.0110
3014.00,0.0109
3013.00,0.0109
3012.00,0.0108
3011.00,0.0108
3010.00,0.0108
3009.00,0.0108
3008.00,0.0108
3007.00,0.0107
3006.00,0.0107
3005.00,0.0106
3004.00,0.0105
3003.00,0.0104
3002.00,0.0103
3001.00,0.0102
3000.00,0.0102
2999.00,0.0101
2998.00,0.0101
2997.00,0.0100
2996.00,0.0100
2995.00,0.0100
2994.00,0.0100
2993.00,0.0100
2992.00,0.0101
2991.00,0.0101
2990.00,0.0102
2989.00,0.0103
2988.00,0.0103
2987.00,0.0104
2986.00,0.0103
2985.00,0.0103
2984.00,0.0101
2983.00,0.0100
2982.00,0.0100
2981.00,0.0100
2980.00,0.0102
2979.00,0.0105
2978.00,0.0107
2977.00,0.0109
2976.00,0.0111
2975.00,0.0113
2974.00,0.0114
2973.00,0.0115
2972.00,0.0116
2971.00,0.0117
2970.00,0.0118
2969.00,0.0120
2968.00,0.0122
2967.00,0.0123
2966.00,0.0125
2965.00,0.0126
2964.00,0.0127
2963.00,0.0128
2962.00,0.0129
2961.00,0.0130
2960.00,0.0130
2959.00,0.0130
2958.00,0.0130
2957.00,0.0130
2956.00,0.0129
2955.00,0.0129
2954.00,0.0128
2953.00,0.0128
2952.00,0.0127
2951.00,0.0127
2950.00,0.0126
2949.00,0.0126
2948.00,0.0126
2947.00,0.0126
2946.00,0.0126
2945.00,0.0127
2944.00,0.0128
2943.00,0.0129
2942.00,0.0130
2941.00,0.0131
2940.00,0.0132
2939.00,0.0133
2938.00,0.0133
2937.00,0.0134
2936.00,0.0134
2935.00,0.0135
2934.00,0.0135
2933.00,0.0136
2932.00,0.0136
2931.00,0.0136
2930.00,0.0136
2929.00,0.0137
2928.00,0.0137
2927.00,0.0137
2926.00,0.0137
2925.00,0.0137
2924.00,0.0137
2923.00,0.0136
2922.00,0.0136
2921.00,0.0136
2920.00,0.0136
2919.00,0.0136
2918.00,0.0135
2917.00,0.0133
2916.00,0.0131
2915.00,0.0130
2914.00,0.0128
2913.00,0.0126
2912.00,0.0124
2911.00,0.0123
2910.00,0.0121
2909.00,0.0120
2908.00,0.0119
2907.00,0.0118
2906.00,0.0117
2905.00,0.0116
2904.00,0.0115
2903.00,0.0114
2902.00,0.0114
2901.00,0.0113
2900.00,0.0113
2899.00,0.0112
2898.00,0.0111
2897.00,0.0110
2896.00,0.0110
2895.00,0.0109
2894.00,0.0109
2893.00,0.0108
2892.00,0.0108
2891.00,0.0108
2890.00,0.0107
2889.00,0.0107
2888.00,0.0107
2887.00,0.0107
2886.00,0.0108
2885.00,0.0108
2884.00,0.0108
2883.00,0.0108
2882.00,0.0109
2881.00,0.0110
2880.00,0.0110
2879.00,0.0111
2878.00,0.0112
2877.00,0.0112
2876.00,0.0113
2875.00,0.0113
2874.00,0.0113
2873.00,0.0113
2872.00,0.0112
2871.00,0.0112
2870.00,0.0112
2869.00,0.0111
2868.00,0.0110
2867.00,0.0109
2866.00,0.0109
2865.00,0.0108
2864.00,0.0107
2863.00,0.0106
2862.00,0.0105
2861.00,0.0105
2860.00,0.0104
2859.00,0.0104
2858.00,0.0104
2857.00,0.0104
2856.00,0.0103
2855.00,0.0103
2854.00,0.0103
2853.00,0.0104
2852.00,0.0104
2851.00,0.0104
2850.00,0.0103
2849.00,0.0103
2848.00,0.0102
2847.00,0.0101
2846.00,0.0100
2845.00,0.0099
2844.00,0.0099
2843.00,0.0098
2842.00,0.0097
2841.00,0.0096
2840.00,0.0096
2839.00,0.0095
2838.00,0.0094
2837.00,0.0094
2836.00,0.0094
2835.00,0.0094
2834.00,0.0093
2833.00,0.0093
2832.00,0.0093
2831.00,0.0093
2830.00,0.0092
2829.00,0.0092
2828.00,0.0092
2827.00,0.0091
2826.00,0.0091
2825.00,0.0090
2824.00,0.0090
2823.00,0.0090
2822.00,0.0090
2821.00,0.0090
2820.00,0.0090
2819.00,0.0090
2818.00,0.0090
2817.00,0.0090
2816.00,0.0089
2815.00,0.0089
2814.00,0.0089
2813.00,0.0089
2812.00,0.0089
2811.00,0.0088
2810.00,0.0088
2809.00,0.0088
2808.00,0.0088
2807.00,0.0088
2806.00,0.0088
2805.00,0.0088
2804.00,0.0088
2803.00,0.0087
2802.00,0.0087
2801.00,0.0087
2800.00,0.0087
2799.00,0.0087
2798.00,0.0086
2797.00,0.0086
2796.00,0.0086
2795.00,0.0086
2794.00,0.0086
2793.00,0.0085
2792.00,0.0085
2791.00,0.0085
2790.00,0.0085
2789.00,0.0085
2788.00,0.0085
2787.00,0.0084
2786.00,0.0084
2785.00,0.0084
2784.00,0.0084
2783.00,0.0084
2782.00,0.0084
2781.00,0.0083
2780.00,0.0083
2779.00,0.0083
2778.00,0.0083
2777.00,0.0083
2776.00,0.0082
2775.00,0.0082
2774.00,0.0082
2773.00,0.0082
2772.00,0.0082
2771.00,0.0082
2770.00,0.0082
2769.00,0.0081
2768.00,0.0081
2767.00,0.0081
2766.00,0.0081
2765.00,0.0081
2764.00,0.0081
2763.00,0.0080
2762.00,0.0080
2761.00,0.0080
2760.00,0.0080
2759.00,0.0080
2758.00,0.0080
2757.00,0.0080
2756.00,0.0079
2755.00,0.0079
2754.00,0.0079
2753.00,0.0079
2752.00,0.0078
2751.00,0.0078
2750.00,0.0078
2749.00,0.0078
2748.00,0.0078
2747.00,0.0078
2746.00,0.0078
2745.00,0.0078
2744.00,0.0078
2743.00,0.0078
2742.00,0.0078
2741.00,0.0077
2740.00,0.0077
2739.00,0.0077
2738.00,0.0077
2737.00,0.0077
2736.00,0.0076
2735.00,0.0076
2734.00,0.0076
2733.00,0.0076
2732.00,0.0076
2731.00,0.0076
2730.00,0.0076
2729.00,0.0075
2728.00,0.0075
2727.00,0.0075
2726.00,0.0075
2725.00,0.0075
2724.00,0.0075
2723.00,0.0074
2722.00,0.0074
2721.00,0.0074
2720.00,0.0074
2719.00,0.0074
2718.00,0.0074
2717.00,0.0074
2716.00,0.0074
2715.00,0.0074
2714.00,0.0074
2713.00,0.0073
2712.00,0.0073
2711.00,0.0073
2710.00,0.0073
2709.00,0.0072
2708.00,0.0072
2707.00,0.0072
2706.00,0.0072
2705.00,0.0072
2704.00,0.0072
2703.00,0.0072
2702.00,0.0071
2701.00,0.0071
2700.00,0.0071
2699.00,0.0071
2698.00,0.0071
2697.00,0.0071
2696.00,0.0071
2695.00,0.0071
2694.00,0.0071
2693.00,0.0071
2692.00,0.0071
2691.00,0.0071
2690.00,0.0071
2689.00,0.0071
2688.00,0.0070
2687.00,0.0070
2686.00,0.0070
2685.00,0.0070
2684.00,0.0070
2683.00,0.0070
2682.00,0.0070
2681.00,0.0070
2680.00,0.0069
2679.00,0.0069
2678.00,0.0069
2677.00,0.0069
2676.00,0.0069
2675.00,0.0069
2674.00,0.0069
2673.00,0.0069
2672.00,0.0069
2671.00,0.0069
2670.00,0.0069
2669.00,0.0069
2668.00,0.0069
2667.00,0.0069
2666.00,0.0069
2665.00,0.0069
2664.00,0.0070
2663.00,0.0070
2662.00,0.0071
2661.00,0.0071
2660.00,0.0071
2659.00,0.0071
2658.00,0.0071
2657.00,0.0071
2656.00,0.0071
2655.00,0.0071
2654.00,0.0071
2653.00,0.0071
2652.00,0.0071
2651.00,0.0071
2650.00,0.0071
2649.00,0.0071
2648.00,0.0071
2647.00,0.0071
2646.00,0.0071
2645.00,0.0071
2644.00,0.0070
2643.00,0.0070
2642.00,0.0070
2641.00,0.0070
2640.00,0.0070
2639.00,0.0070
2638.00,0.0070
2637.00,0.0070
2636.00,0.0070
2635.00,0.0070
2634.00,0.0070
2633.00,0.0069
2632.00,0.0069
2631.00,0.0069
2630.00,0.0069
2629.00,0.0069
2628.00,0.0069
2627.00,0.0069
2626.00,0.0069
2625.00,0.0068
2624.00,0.0068
2623.00,0.0068
2622.00,0.0068
2621.00,0.0068
2620.00,0.0067
2619.00,0.0067
2618.00,0.0067
2617.00,0.0067
2616.00,0.0067
2615.00,0.0066
2614.00,0.0066
2613.00,0.0066
2612.00,0.0066
2611.00,0.0066
2610.00,0.0066
2609.00,0.0066
2608.00,0.0066
2607.00,0.0065
2606.00,0.0065
2605.00,0.0065
2604.00,0.0065
2603.00,0.0065
2602.00,0.0064
2601.00,0.0064
2600.00,0.0064
2599.00,0.0064
2598.00,0.0064
2597.00,0.0063
2596.00,0.0063
2595.00,0.0063
2594.00,0.0064
2593.00,0.0063
2592.00,0.0063
2591.00,0.0063
2590.00,0.0062
2589.00,0.0062
2588.00,0.0062
2587.00,0.0062
2586.00,0.0062
2585.00,0.0062
2584.00,0.0062
2583.00,0.0062
2582.00,0.0062
2581.00,0.0062
2580.00,0.0062
2579.00,0.0062
2578.00,0.0062
2577.00,0.0062
2576.00,0.0062
2575.00,0.0062
2574.00,0.0062
2573.00,0.0061
2572.00,0.0061
2571.00,0.0060
2570.00,0.0060
2569.00,0.0060
2568.00,0.0061
2567.00,0.0061
2566.00,0.0061
2565.00,0.0061
2564.00,0.0061
2563.00,0.0060
2562.00,0.0060
2561.00,0.0060
2560.00,0.0059
2559.00,0.0059
2558.00,0.0059
2557.00,0.0058
2556.00,0.0059
2555.00,0.0059
2554.00,0.0059
2553.00,0.0059
2552.00,0.0059
2551.00,0.0059
2550.00,0.0058
2549.00,0.0059
2548.00,0.0059
2547.00,0.0059
2546.00,0.0059
2545.00,0.0058
2544.00,0.0058
2543.00,0.0058
2542.00,0.0057
2541.00,0.0057
2540.00,0.0057
2539.00,0.0057
2538.00,0.0057
2537.00,0.0057
2536.00,0.0057
2535.00,0.0057
2534.00,0.0057
2533.00,0.0057
2532.00,0.0056
2531.00,0.0056
2530.00,0.0056
2529.00,0.0056
2528.00,0.0056
2527.00,0.0056
2526.00,0.0055
2525.00,0.0055
2524.00,0.0055
2523.00,0.0055
2522.00,0.0056
2521.00,0.0056
2520.00,0.0056
2519.00,0.0056
2518.00,0.0055
2517.00,0.0055
2516.00,0.0055
2515.00,0.0055
2514.00,0.0055
2513.00,0.0055
2512.00,0.0054
2511.00,0.0054
2510.00,0.0054
2509.00,0.0054
2508.00,0.0054
2507.00,0.0054
2506.00,0.0054
2505.00,0.0053
2504.00,0.0053
2503.00,0.0053
2502.00,0.0054
2501.00,0.0053
2500.00,0.0053
2499.00,0.0053
2498.00,0.0053
2497.00,0.0054
2496.00,0.0054
2495.00,0.0054
2494.00,0.0053
2493.00,0.0053
2492.00,0.0053
2491.00,0.0053
2490.00,0.0053
2489.00,0.0052
2488.00,0.0052
2487.00,0.0052
2486.00,0.0052
2485.00,0.0052
2484.00,0.0051
2483.00,0.0052
2482.00,0.0052
2481.00,0.0052
2480.00,0.0052
2479.00,0.0052
2478.00,0.0052
2477.00,0.0052
2476.00,0.0052
2475.00,0.0052
2474.00,0.0052
2473.00,0.0052
2472.00,0.0051
2471.00,0.0051
2470.00,0.0051
2469.00,0.0051
2468.00,0.0051
2467.00,0.0051
2466.00,0.0052
2465.00,0.0051
2464.00,0.0051
2463.00,0.0051
2462.00,0.0051
2461.00,0.0051
2460.00,0.0051
2459.00,0.0051
2458.00,0.0051
2457.00,0.0052
2456.00,0.0052
2455.00,0.0052
2454.00,0.0052
2453.00,0.0051
2452.00,0.0051
2451.00,0.0050
2450.00,0.0050
2449.00,0.0050
2448.00,0.0050
2447.00,0.0050
2446.00,0.0050
2445.00,0.0050
2444.00,0.0050
2443.00,0.0050
2442.00,0.0050
2441.00,0.0049
2440.00,0.0049
2439.00,0.0049
2438.00,0.0049
2437.00,0.0049
2436.00,0.0049
2435.00,0.0049
2434.00,0.0049
2433.00,0.0049
2432.00,0.0049
2431.00,0.0049
2430.00,0.0049
2429.00,0.0049
2428.00,0.0049
2427.00,0.0048
2426.00,0.0047
2425.00,0.0047
2424.00,0.0046
2423.00,0.0046
2422.00,0.0046
2421.00,0.0047
2420.00,0.0047
2419.00,0.0047
2418.00,0.0047
2417.00,0.0046
2416.00,0.0046
2415.00,0.0046
2414.00,0.0046
2413.00,0.0046
2412.00,0.0046
2411.00,0.0046
2410.00,0.0046
2409.00,0.0045
2408.00,0.0045
2407.00,0.0044
2406.00,0.0044
2405.00,0.0044
2404.00,0.0044
2403.00,0.0044
2402.00,0.0044
2401.00,0.0044
2400.00,0.0044
2399.00,0.0044
2398.00,0.0044
2397.00,0.0044
2396.00,0.0044
2395.00,0.0044
2394.00,0.0043
2393.00,0.0043
2392.00,0.0043
2391.00,0.0043
2390.00,0.0043
2389.00,0.0043
2388.00,0.0043
2387.00,0.0042
2386.00,0.0042
2385.00,0.0041
2384.00,0.0041
2383.00,0.0040
2382.00,0.0040
2381.00,0.0040
2380.00,0.0039
2379.00,0.0039
2378.00,0.0039
2377.00,0.0039
2376.00,0.0039
2375.00,0.0039
2374.00,0.0039
2373.00,0.0040
2372.00,0.0040
2371.00,0.0040
2370.00,0.0040
2369.00,0.0039
2368.00,0.0039
2367.00,0.0039
2366.00,0.0039
2365.00,0.0039
2364.00,0.0039
2363.00,0.0039
2362.00,0.0039
2361.00,0.0039
2360.00,0.0039
2359.00,0.0039
2358.00,0.0039
2357.00,0.0040
2356.00,0.0040
2355.00,0.0040
2354.00,0.0040
2353.00,0.0039
2352.00,0.0039
2351.00,0.0040
2350.00,0.0040
2349.00,0.0040
2348.00,0.0041
2347.00,0.0041
2346.00,0.0041
2345.00,0.0041
2344.00,0.0042
2343.00,0.0042
2342.00,0.0041
2341.00,0.0042
2340.00,0.0042
2339.00,0.0042
2338.00,0.0043
2337.00,0.0043
2336.00,0.0043
2335.00,0.0043
2334.00,0.0042
2333.00,0.0042
2332.00,0.0042
2331.00,0.0042
2330.00,0.0042
2329.00,0.0044
2328.00,0.0047
2327.00,0.0050
2326.00,0.0053
2325.00,0.0054
2324.00,0.0054
2323.00,0.0052
2322.00,0.0051
2321.00,0.0049
2320.00,0.0048
2319.00,0.0047
2318.00,0.0046
2317.00,0.0045
2316.00,0.0044
2315.00,0.0044
2314.00,0.0044
2313.00,0.0043
2312.00,0.0043
2311.00,0.0043
2310.00,0.0043
2309.00,0.0043
2308.00,0.0044
2307.00,0.0044
2306.00,0.0044
2305.00,0.0044
2304.00,0.0045
2303.00,0.0045
2302.00,0.0045
2301.00,0.0046
2300.00,0.0046
2299.00,0.0046
2298.00,0.0047
2297.00,0.0047
2296.00,0.0047
2295.00,0.0048
2294.00,0.0048
2293.00,0.0049
2292.00,0.0050
2291.00,0.0050
2290.00,0.0050
2289.00,0.0051
2288.00,0.0051
2287.00,0.0052
2286.00,0.0051
2285.00,0.0051
2284.00,0.0050
2283.00,0.0049
2282.00,0.0049
2281.00,0.0048
2280.00,0.0048
2279.00,0.0048
2278.00,0.0048
2277.00,0.0048
2276.00,0.0048
2275.00,0.0048
2274.00,0.0047
2273.00,0.0047
2272.00,0.0047
2271.00,0.0047
2270.00,0.0047
2269.00,0.0046
2268.00,0.0045
2267.00,0.0044
2266.00,0.0044
2265.00,0.0044
2264.00,0.0043
2263.00,0.0043
2262.00,0.0043
2261.00,0.0044
2260.00,0.0044
2259.00,0.0045
2258.00,0.0045
2257.00,0.0044
2256.00,0.0043
2255.00,0.0042
2254.00,0.0042
2253.00,0.0041
2252.00,0.0041
2251.00,0.0041
2250.00,0.0041
2249.00,0.0041
2248.00,0.0041
2247.00,0.0041
2246.00,0.0041
2245.00,0.0041
2244.00,0.0041
2243.00,0.0042
2242.00,0.0042
2241.00,0.0042
2240.00,0.0042
2239.00,0.0041
2238.00,0.0041
2237.00,0.0041
2236.00,0.0041
2235.00,0.0041
2234.00,0.0041
2233.00,0.0041
2232.00,0.0041
2231.00,0.0042
2230.00,0.0042
2229.00,0.0043
2228.00,0.0043
2227.00,0.0043
2226.00,0.0043
2225.00,0.0042
2224.00,0.0042
2223.00,0.0041
2222.00,0.0041
2221.00,0.0041
2220.00,0.0040
2219.00,0.0040
2218.00,0.0039
2217.00,0.0039
2216.00,0.0038
2215.00,0.0038
2214.00,0.0039
2213.00,0.0040
2212.00,0.0041
2211.00,0.0042
2210.00,0.0041
2209.00,0.0040
2208.00,0.0039
2207.00,0.0039
2206.00,0.0039
2205.00,0.0040
2204.00,0.0041
2203.00,0.0041
2202.00,0.0040
2201.00,0.0039
2200.00,0.0038
2199.00,0.0038
2198.00,0.0038
2197.00,0.0039
2196.00,0.0040
2195.00,0.0042
2194.00,0.0043
2193.00,0.0044
2192.00,0.0044
2191.00,0.0043
2190.00,0.0043
2189.00,0.0043
2188.00,0.0044
2187.00,0.0044
2186.00,0.0043
2185.00,0.0041
2184.00,0.0039
2183.00,0.0037
2182.00,0.0035
2181.00,0.0034
2180.00,0.0035
2179.00,0.0036
2178.00,0.0037
2177.00,0.0037
2176.00,0.0036
2175.00,0.0035
2174.00,0.0034
2173.00,0.0035
2172.00,0.0036
2171.00,0.0038
2170.00,0.0041
2169.00,0.0043
2168.00,0.0044
2167.00,0.0043
2166.00,0.0043
2165.00,0.0044
2164.00,0.0046
2163.00,0.0047
2162.00,0.0042
2161.00,0.0032
2160.00,0.0020
2159.00,0.0009
2158.00,0.0004
2157.00,0.0005
2156.00,0.0007
2155.00,0.0010
2154.00,0.0013
2153.00,0.0016
2152.00,0.0018
2151.00,0.0019
2150.00,0.0020
2149.00,0.0020
2148.00,0.0021
2147.00,0.0021
2146.00,0.0021
2145.00,0.0021
2144.00,0.0021
2143.00,0.0021
2142.00,0.0022
2141.00,0.0022
2140.00,0.0022
2139.00,0.0022
2138.00,0.0021
2137.00,0.0019
2136.00,0.0018
2135.00,0.0016
2134.00,0.0015
2133.00,0.0016
2132.00,0.0018
2131.00,0.0020
2130.00,0.0021
2129.00,0.0023
2128.00,0.0025
2127.00,0.0026
2126.00,0.0027
2125.00,0.0027
2124.00,0.0028
2123.00,0.0028
2122.00,0.0028
2121.00,0.0029
2120.00,0.0030
2119.00,0.0032
2118.00,0.0033
2117.00,0.0034
2116.00,0.0034
2115.00,0.0034
2114.00,0.0034
2113.00,0.0035
2112.00,0.0036
2111.00,0.0036
2110.00,0.0036
2109.00,0.0036
2108.00,0.0035
2107.00,0.0034
2106.00,0.0034
2105.00,0.0034
2104.00,0.0035
2103.00,0.0035
2102.00,0.0035
2101.00,0.0035
2100.00,0.0035
2099.00,0.0034
2098.00,0.0033
2097.00,0.0031
2096.00,0.0029
2095.00,0.0029
2094.00,0.0029
2093.00,0.0030
2092.00,0.0031
2091.00,0.0032
2090.00,0.0033
2089.00,0.0034
2088.00,0.0034
2087.00,0.0034
2086.00,0.0034
2085.00,0.0035
2084.00,0.0035
2083.00,0.0035
2082.00,0.0036
2081.00,0.0036
2080.00,0.0036
2079.00,0.0036
2078.00,0.0036
2077.00,0.0036
2076.00,0.0036
2075.00,0.0035
2074.00,0.0036
2073.00,0.0036
2072.00,0.0036
2071.00,0.0035
2070.00,0.0034
2069.00,0.0034
2068.00,0.0034
2067.00,0.0033
2066.00,0.0033
2065.00,0.0032
2064.00,0.0032
2063.00,0.0032
2062.00,0.0032
2061.00,0.0032
2060.00,0.0032
2059.00,0.0032
2058.00,0.0032
2057.00,0.0032
2056.00,0.0033
2055.00,0.0034
2054.00,0.0037
2053.00,0.0040
2052.00,0.0042
2051.00,0.0042
2050.00,0.0039
2049.00,0.0036
2048.00,0.0034
2047.00,0.0033
2046.00,0.0033
2045.00,0.0033
2044.00,0.0033
2043.00,0.0033
2042.00,0.0033
2041.00,0.0033
2040.00,0.0033
2039.00,0.0034
2038.00,0.0034
2037.00,0.0034
2036.00,0.0033
2035.00,0.0032
2034.00,0.0031
2033.00,0.0030
2032.00,0.0029
2031.00,0.0028
2030.00,0.0027
2029.00,0.0026
2028.00,0.0025
2027.00,0.0025
2026.00,0.0024
2025.00,0.0024
2024.00,0.0024
2023.00,0.0024
2022.00,0.0023
2021.00,0.0023
2020.00,0.0023
2019.00,0.0024
2018.00,0.0025
2017.00,0.0026
2016.00,0.0026
2015.00,0.0026
2014.00,0.0025
2013.00,0.0025
2012.00,0.0024
2011.00,0.0024
2010.00,0.0023
2009.00,0.0023
2008.00,0.0022
2007.00,0.0021
2006.00,0.0020
2005.00,0.0021
2004.00,0.0021
2003.00,0.0021
2002.00,0.0020
2001.00,0.0021
2000.00,0.0022
1999.00,0.0023
1998.00,0.0024
1997.00,0.0026
1996.00,0.0027
1995.00,0.0028
1994.00,0.0029
1993.00,0.0030
1992.00,0.0031
1991.00,0.0032
1990.00,0.0031
1989.00,0.0031
1988.00,0.0031
1987.00,0.0032
1986.00,0.0032
1985.00,0.0033
1984.00,0.0033
1983.00,0.0034
1982.00,0.0036
1981.00,0.0037
1980.00,0.0035
1979.00,0.0030
1978.00,0.0025
1977.00,0.0021
1976.00,0.0019
1975.00,0.0018
1974.00,0.0017
1973.00,0.0017
1972.00,0.0017
1971.00,0.0017
1970.00,0.0017
1969.00,0.0017
1968.00,0.0018
1967.00,0.0018
1966.00,0.0019
1965.00,0.0019
1964.00,0.0020
1963.00,0.0019
1962.00,0.0019
1961.00,0.0018
1960.00,0.0018
1959.00,0.0018
1958.00,0.0018
1957.00,0.0018
1956.00,0.0019
1955.00,0.0019
1954.00,0.0020
1953.00,0.0021
1952.00,0.0021
1951.00,0.0021
1950.00,0.0019
1949.00,0.0019
1948.00,0.0019
1947.00,0.0020
1946.00,0.0021
1945.00,0.0021
1944.00,0.0021
1943.00,0.0020
1942.00,0.0020
1941.00,0.0020
1940.00,0.0020
1939.00,0.0020
1938.00,0.0021
1937.00,0.0022
1936.00,0.0023
1935.00,0.0023
1934.00,0.0022
1933.00,0.0022
1932.00,0.0022
1931.00,0.0023
1930.00,0.0023
1929.00,0.0023
1928.00,0.0023
1927.00,0.0022
1926.00,0.0022
1925.00,0.0022
1924.00,0.0023
1923.00,0.0023
1922.00,0.0023
1921.00,0.0023
1920.00,0.0023
1919.00,0.0023
1918.00,0.0023
1917.00,0.0023
1916.00,0.0022
1915.00,0.0023
1914.00,0.0023
1913.00,0.0023
1912.00,0.0024
1911.00,0.0024
1910.00,0.0024
1909.00,0.0024
1908.00,0.0024
1907.00,0.0024
1906.00,0.0024
1905.00,0.0024
1904.00,0.0024
1903.00,0.0024
1902.00,0.0024
1901.00,0.0024
1900.00,0.0024
1899.00,0.0024
1898.00,0.0024
1897.00,0.0025
1896.00,0.0025
1895.00,0.0025
1894.00,0.0025
1893.00,0.0024
1892.00,0.0024
1891.00,0.0024
1890.00,0.0024
1889.00,0.0023
1888.00,0.0023
1887.00,0.0023
1886.00,0.0024
1885.00,0.0024
1884.00,0.0024
1883.00,0.0025
1882.00,0.0024
1881.00,0.0024
1880.00,0.0024
1879.00,0.0024
1878.00,0.0023
1877.00,0.0023
1876.00,0.0023
1875.00,0.0024
1874.00,0.0024
1873.00,0.0024
1872.00,0.0025
1871.00,0.0025
1870.00,0.0025
1869.00,0.0025
1868.00,0.0025
1867.00,0.0024
1866.00,0.0024
1865.00,0.0024
1864.00,0.0024
1863.00,0.0025
1862.00,0.0024
1861.00,0.0024
1860.00,0.0024
1859.00,0.0023
1858.00,0.0023
1857.00,0.0023
1856.00,0.0023
1855.00,0.0024
1854.00,0.0023
1853.00,0.0024
1852.00,0.0024
1851.00,0.0024
1850.00,0.0024
1849.00,0.0024
1848.00,0.0025
1847.00,0.0025
1846.00,0.0025
1845.00,0.0025
1844.00,0.0024
1843.00,0.0023
1842.00,0.0023
1841.00,0.0023
1840.00,0.0024
1839.00,0.0025
1838.00,0.0025
1837.00,0.0024
1836.00,0.0024
1835.00,0.0024
1834.00,0.0024
1833.00,0.0024
1832.00,0.0025
1831.00,0.0025
1830.00,0.0025
1829.00,0.0024
1828.00,0.0024
1827.00,0.0025
1826.00,0.0025
1825.00,0.0025
1824.00,0.0025
1823.00,0.0025
1822.00,0.0024
1821.00,0.0024
1820.00,0.0023
1819.00,0.0023
1818.00,0.0022
1817.00,0.0021
1816.00,0.0022
1815.00,0.0023
1814.00,0.0023
1813.00,0.0024
1812.00,0.0025
1811.00,0.0025
1810.00,0.0025
1809.00,0.0025
1808.00,0.0025
1807.00,0.0025
1806.00,0.0025
1805.00,0.0025
1804.00,0.0026
1803.00,0.0026
1802.00,0.0026
1801.00,0.0026
1800.00,0.0026
1799.00,0.0026
1798.00,0.0025
1797.00,0.0026
1796.00,0.0026
1795.00,0.0027
1794.00,0.0026
1793.00,0.0026
1792.00,0.0025
1791.00,0.0024
1790.00,0.0024
1789.00,0.0025
1788.00,0.0025
1787.00,0.0026
1786.00,0.0026
1785.00,0.0026
1784.00,0.0026
1783.00,0.0026
1782.00,0.0026
1781.00,0.0026
1780.00,0.0026
1779.00,0.0026
1778.00,0.0026
1777.00,0.0026
1776.00,0.0027
1775.00,0.0027
1774.00,0.0027
1773.00,0.0026
1772.00,0.0026
1771.00,0.0025
1770.00,0.0025
1769.00,0.0025
1768.00,0.0025
1767.00,0.0025
1766.00,0.0026
1765.00,0.0026
1764.00,0.0027
1763.00,0.0028
1762.00,0.0028
1761.00,0.0027
1760.00,0.0027
1759.00,0.0028
1758.00,0.0028
1757.00,0.0028
1756.00,0.0028
1755.00,0.0028
1754.00,0.0028
1753.00,0.0029
1752.00,0.0029
1751.00,0.0029
1750.00,0.0029
1749.00,0.0029
1748.00,0.0030
1747.00,0.0031
1746.00,0.0031
1745.00,0.0032
1744.00,0.0033
1743.00,0.0033
1742.00,0.0033
1741.00,0.0033
1740.00,0.0033
1739.00,0.0033
1738.00,0.0033
1737.00,0.0033
1736.00,0.0033
1735.00,0.0032
1734.00,0.0032
1733.00,0.0031
1732.00,0.0033
1731.00,0.0035
1730.00,0.0037
1729.00,0.0038
1728.00,0.0038
1727.00,0.0039
1726.00,0.0039
1725.00,0.0040
1724.00,0.0041
1723.00,0.0042
1722.00,0.0042
1721.00,0.0043
1720.00,0.0044
1719.00,0.0045
1718.00,0.0046
1717.00,0.0047
1716.00,0.0048
1715.00,0.0050
1714.00,0.0052
1713.00,0.0055
1712.00,0.0058
1711.00,0.0061
1710.00,0.0065
1709.00,0.0069
1708.00,0.0073
1707.00,0.0079
1706.00,0.0085
1705.00,0.0091
1704.00,0.0096
1703.00,0.0101
1702.00,0.0105
1701.00,0.0113
1700.00,0.0124
1699.00,0.0135
1698.00,0.0143
1697.00,0.0151
1696.00,0.0160
1695.00,0.0169
1694.00,0.0176
1693.00,0.0182
1692.00,0.0188
1691.00,0.0195
1690.00,0.0202
1689.00,0.0208
1688.00,0.0213
1687.00,0.0217
1686.00,0.0221
1685.00,0.0229
1684.00,0.0241
1683.00,0.0251
1682.00,0.0257
1681.00,0.0263
1680.00,0.0270
1679.00,0.0275
1678.00,0.0280
1677.00,0.0285
1676.00,0.0293
1675.00,0.0302
1674.00,0.0310
1673.00,0.0316
1672.00,0.0322
1671.00,0.0329
1670.00,0.0338
1669.00,0.0349
1668.00,0.0358
1667.00,0.0364
1666.00,0.0369
1665.00,0.0375
1664.00,0.0382
1663.00,0.0392
1662.00,0.0403
1661.00,0.0412
1660.00,0.0419
1659.00,0.0426
1658.00,0.0432
1657.00,0.0435
1656.00,0.0436
1655.00,0.0439
1654.00,0.0449
1653.00,0.0469
1652.00,0.0483
1651.00,0.0487
1650.00,0.0487
1649.00,0.0487
1648.00,0.0491
1647.00,0.0498
1646.00,0.0506
1645.00,0.0510
1644.00,0.0512
1643.00,0.0513
1642.00,0.0514
1641.00,0.0514
1640.00,0.0515
1639.00,0.0514
1638.00,0.0513
1637.00,0.0514
1636.00,0.0520
1635.00,0.0525
1634.00,0.0528
1633.00,0.0527
1632.00,0.0524
1631.00,0.0520
1630.00,0.0516
1629.00,0.0513
1628.00,0.0511
1627.00,0.0507
1626.00,0.0501
1625.00,0.0495
1624.00,0.0490
1623.00,0.0484
1622.00,0.0478
1621.00,0.0469
1620.00,0.0458
1619.00,0.0446
1618.00,0.0435
1617.00,0.0425
1616.00,0.0415
1615.00,0.0405
1614.00,0.0394
1613.00,0.0383
1612.00,0.0371
1611.00,0.0360
1610.00,0.0349
1609.00,0.0338
1608.00,0.0328
1607.00,0.0318
1606.00,0.0310
1605.00,0.0302
1604.00,0.0294
1603.00,0.0287
1602.00,0.0281
1601.00,0.0276
1600.00,0.0271
1599.00,0.0266
1598.00,0.0263
1597.00,0.0260
1596.00,0.0257
1595.00,0.0255
1594.00,0.0253
1593.00,0.0251
1592.00,0.0249
1591.00,0.0248
1590.00,0.0247
1589.00,0.0246
1588.00,0.0245
1587.00,0.0245
1586.00,0.0245
1585.00,0.0245
1584.00,0.0246
1583.00,0.0247
1582.00,0.0248
1581.00,0.0250
1580.00,0.0251
1579.00,0.0251
1578.00,0.0252
1577.00,0.0254
1576.00,0.0258
1575.00,0.0262
1574.00,0.0265
1573.00,0.0267
1572.00,0.0268
1571.00,0.0271
1570.00,0.0276
1569.00,0.0281
1568.00,0.0285
1567.00,0.0289
1566.00,0.0293
1565.00,0.0297
1564.00,0.0301
1563.00,0.0304
1562.00,0.0304
1561.00,0.0304
1560.00,0.0310
1559.00,0.0324
1558.00,0.0337
1557.00,0.0344
1556.00,0.0349
1555.00,0.0354
1554.00,0.0361
1553.00,0.0367
1552.00,0.0373
1551.00,0.0379
1550.00,0.0386
1549.00,0.0393
1548.00,0.0397
1547.00,0.0401
1546.00,0.0405
1545.00,0.0411
1544.00,0.0416
1543.00,0.0419
1542.00,0.0423
1541.00,0.0430
1540.00,0.0439
1539.00,0.0446
1538.00,0.0449
1537.00,0.0449
1536.00,0.0448
1535.00,0.0449
1534.00,0.0452
1533.00,0.0457
1532.00,0.0460
1531.00,0.0461
1530.00,0.0460
1529.00,0.0460
1528.00,0.0461
1527.00,0.0463
1526.00,0.0465
1525.00,0.0465
1524.00,0.0464
1523.00,0.0464
1522.00,0.0466
1521.00,0.0470
1520.00,0.0472
1519.00,0.0473
1518.00,0.0474
1517.00,0.0476
1516.00,0.0476
1515.00,0.0474
1514.00,0.0470
1513.00,0.0465
1512.00,0.0460
1511.00,0.0455
1510.00,0.0449
1509.00,0.0442
1508.00,0.0436
1507.00,0.0432
1506.00,0.0426
1505.00,0.0419
1504.00,0.0412
1503.00,0.0405
1502.00,0.0398
1501.00,0.0390
1500.00,0.0382
1499.00,0.0375
1498.00,0.0367
1497.00,0.0358
1496.00,0.0350
1495.00,0.0342
1494.00,0.0334
1493.00,0.0326
1492.00,0.0318
1491.00,0.0310
1490.00,0.0303
1489.00,0.0295
1488.00,0.0288
1487.00,0.0281
1486.00,0.0274
1485.00,0.0267
1484.00,0.0262
1483.00,0.0257
1482.00,0.0252
1481.00,0.0248
1480.00,0.0244
1479.00,0.0242
1478.00,0.0239
1477.00,0.0238
1476.00,0.0237
1475.00,0.0237
1474.00,0.0237
1473.00,0.0238
1472.00,0.0241
1471.00,0.0243
1470.00,0.0244
1469.00,0.0244
1468.00,0.0244
1467.00,0.0243
1466.00,0.0243
1465.00,0.0242
1464.00,0.0243
1463.00,0.0243
1462.00,0.0243
1461.00,0.0243
1460.00,0.0244
1459.00,0.0245
1458.00,0.0247
1457.00,0.0250
1456.00,0.0254
1455.00,0.0257
1454.00,0.0259
1453.00,0.0261
1452.00,0.0262
1451.00,0.0263
1450.00,0.0263
1449.00,0.0264
1448.00,0.0265
1447.00,0.0265
1446.00,0.0264
1445.00,0.0263
1444.00,0.0262
1443.00,0.0260
1442.00,0.0258
1441.00,0.0256
1440.00,0.0252
1439.00,0.0249
1438.00,0.0245
1437.00,0.0243
1436.00,0.0241
1435.00,0.0239
1434.00,0.0237
1433.00,0.0234
1432.00,0.0231
1431.00,0.0229
1430.00,0.0227
1429.00,0.0226
1428.00,0.0224
1427.00,0.0223
1426.00,0.0223
1425.00,0.0223
1424.00,0.0225
1423.00,0.0225
1422.00,0.0226
1421.00,0.0226
1420.00,0.0227
1419.00,0.0230
1418.00,0.0234
1417.00,0.0236
1416.00,0.0237
1415.00,0.0239
1414.00,0.0240
1413.00,0.0241
1412.00,0.0243
1411.00,0.0245
1410.00,0.0246
1409.00,0.0247
1408.00,0.0248
1407.00,0.0248
1406.00,0.0250
1405.00,0.0251
1404.00,0.0252
1403.00,0.0253
1402.00,0.0254
1401.00,0.0254
1400.00,0.0254
1399.00,0.0256
1398.00,0.0256
1397.00,0.0257
1396.00,0.0257
1395.00,0.0258
1394.00,0.0258
1393.00,0.0258
1392.00,0.0258
1391.00,0.0258
1390.00,0.0257
1389.00,0.0257
1388.00,0.0256
1387.00,0.0255
1386.00,0.0254
1385.00,0.0251
1384.00,0.0249
1383.00,0.0247
1382.00,0.0244
1381.00,0.0242
1380.00,0.0240
1379.00,0.0237
1378.00,0.0235
1377.00,0.0233
1376.00,0.0231
1375.00,0.0229
1374.00,0.0228
1373.00,0.0226
1372.00,0.0225
1371.00,0.0224
1370.00,0.0223
1369.00,0.0221
1368.00,0.0220
1367.00,0.0217
1366.00,0.0214
1365.00,0.0211
1364.00,0.0209
1363.00,0.0207
1362.00,0.0206
1361.00,0.0204
1360.00,0.0203
1359.00,0.0202
1358.00,0.0201
1357.00,0.0200
1356.00,0.0200
1355.00,0.0200
1354.00,0.0200
1353.00,0.0200
1352.00,0.0200
1351.00,0.0200
1350.00,0.0200
1349.00,0.0200
1348.00,0.0200
1347.00,0.0200
1346.00,0.0200
1345.00,0.0200
1344.00,0.0200
1343.00,0.0200
1342.00,0.0201
1341.00,0.0201
1340.00,0.0202
1339.00,0.0203
1338.00,0.0203
1337.00,0.0203
1336.00,0.0203
1335.00,0.0202
1334.00,0.0201
1333.00,0.0201
1332.00,0.0200
1331.00,0.0200
1330.00,0.0200
1329.00,0.0200
1328.00,0.0201
1327.00,0.0201
1326.00,0.0202
1325.00,0.0203
1324.00,0.0204
1323.00,0.0205
1322.00,0.0206
1321.00,0.0207
1320.00,0.0208
1319.00,0.0208
1318.00,0.0209
1317.00,0.0209
1316.00,0.0209
1315.00,0.0209
1314.00,0.0209
1313.00,0.0209
1312.00,0.0209
1311.00,0.0209
1310.00,0.0209
1309.00,0.0209
1308.00,0.0209
1307.00,0.0209
1306.00,0.0209
1305.00,0.0209
1304.00,0.0209
1303.00,0.0209
1302.00,0.0209
1301.00,0.0209
1300.00,0.0209
1299.00,0.0209
1298.00,0.0209
1297.00,0.0210
1296.00,0.0210
1295.00,0.0210
1294.00,0.0211
1293.00,0.0211
1292.00,0.0212
1291.00,0.0213
1290.00,0.0214
1289.00,0.0215
1288.00,0.0216
1287.00,0.0216
1286.00,0.0217
1285.00,0.0217
1284.00,0.0218
1283.00,0.0218
1282.00,0.0218
1281.00,0.0218
1280.00,0.0218
1279.00,0.0218
1278.00,0.0218
1277.00,0.0218
1276.00,0.0217
1275.00,0.0217
1274.00,0.0217
1273.00,0.0218
1272.00,0.0218
1271.00,0.0218
1270.00,0.0219
1269.00,0.0220
1268.00,0.0222
1267.00,0.0223
1266.00,0.0224
1265.00,0.0226
1264.00,0.0227
1263.00,0.0229
1262.00,0.0230
1261.00,0.0231
1260.00,0.0232
1259.00,0.0232
1258.00,0.0233
1257.00,0.0233
1256.00,0.0233
1255.00,0.0234
1254.00,0.0234
1253.00,0.0235
1252.00,0.0235
1251.00,0.0236
1250.00,0.0237
1249.00,0.0238
1248.00,0.0239
1247.00,0.0241
1246.00,0.0242
1245.00,0.0243
1244.00,0.0243
1243.00,0.0244
1242.00,0.0244
1241.00,0.0244
1240.00,0.0244
1239.00,0.0245
1238.00,0.0245
1237.00,0.0245
1236.00,0.0245
1235.00,0.0246
1234.00,0.0246
1233.00,0.0246
1232.00,0.0246
1231.00,0.0245
1230.00,0.0245
1229.00,0.0244
1228.00,0.0243
1227.00,0.0241
1226.00,0.0240
1225.00,0.0238
1224.00,0.0237
1223.00,0.0235
1222.00,0.0234
1221.00,0.0232
1220.00,0.0231
1219.00,0.0229
1218.00,0.0227
1217.00,0.0224
1216.00,0.0222
1215.00,0.0219
1214.00,0.0217
1213.00,0.0215
1212.00,0.0212
1211.00,0.0210
1210.00,0.0208
1209.00,0.0206
1208.00,0.0204
1207.00,0.0202
1206.00,0.0199
1205.00,0.0196
1204.00,0.0193
1203.00,0.0190
1202.00,0.0187
1201.00,0.0184
1200.00,0.0182
1199.00,0.0180
1198.00,0.0178
1197.00,0.0177
1196.00,0.0176
1195.00,0.0175
1194.00,0.0173
1193.00,0.0172
1192.00,0.0171
1191.00,0.0170
1190.00,0.0169
1189.00,0.0168
1188.00,0.0167
1187.00,0.0167
1186.00,0.0166
1185.00,0.0165
1184.00,0.0165
1183.00,0.0164
1182.00,0.0164
1181.00,0.0165
1180.00,0.0165
1179.00,0.0165
1178.00,0.0166
1177.00,0.0167
1176.00,0.0168
1175.00,0.0169
1174.00,0.0171
1173.00,0.0172
1172.00,0.0172
1171.00,0.0172
1170.00,0.0171
1169.00,0.0170
1168.00,0.0169
1167.00,0.0168
1166.00,0.0167
1165.00,0.0166
1164.00,0.0165
1163.00,0.0165
1162.00,0.0165
1161.00,0.0165
1160.00,0.0165
1159.00,0.0166
1158.00,0.0165
1157.00,0.0165
1156.00,0.0164
1155.00,0.0164
1154.00,0.0163
1153.00,0.0162
1152.00,0.0161
1151.00,0.0161
1150.00,0.0159
1149.00,0.0157
1148.00,0.0156
1147.00,0.0154
1146.00,0.0153
1145.00,0.0152
1144.00,0.0151
1143.00,0.0150
1142.00,0.0150
1141.00,0.0150
1140.00,0.0150
1139.00,0.0150
1138.00,0.0150
1137.00,0.0150
1136.00,0.0150
1135.00,0.0151
1134.00,0.0151
1133.00,0.0152
1132.00,0.0153
1131.00,0.0154
1130.00,0.0155
1129.00,0.0156
1128.00,0.0157
1127.00,0.0158
1126.00,0.0159
1125.00,0.0160
1124.00,0.0160
1123.00,0.0161
1122.00,0.0162
1121.00,0.0162
1120.00,0.0162
1119.00,0.0163
1118.00,0.0164
1117.00,0.0165
1116.00,0.0166
1115.00,0.0167
1114.00,0.0167
1113.00,0.0168
1112.00,0.0168
1111.00,0.0169
1110.00,0.0170
1109.00,0.0170
1108.00,0.0171
1107.00,0.0172
1106.00,0.0173
1105.00,0.0174
1104.00,0.0174
1103.00,0.0174
1102.00,0.0174
1101.00,0.0174
1100.00,0.0174
1099.00,0.0174
1098.00,0.0173
1097.00,0.0173
1096.00,0.0173
1095.00,0.0173
1094.00,0.0173
1093.00,0.0173
1092.00,0.0173
1091.00,0.0173
1090.00,0.0173
1089.00,0.0174
1088.00,0.0174
1087.00,0.0175
1086.00,0.0176
1085.00,0.0177
1084.00,0.0177
1083.00,0.0178
1082.00,0.0178
1081.00,0.0179
1080.00,0.0179
1079.00,0.0180
1078.00,0.0181
1077.00,0.0181
1076.00,0.0182
1075.00,0.0182
1074.00,0.0182
1073.00,0.0182
1072.00,0.0182
1071.00,0.0182
1070.00,0.0182
1069.00,0.0182
1068.00,0.0183
1067.00,0.0183
1066.00,0.0183
1065.00,0.0184
1064.00,0.0184
1063.00,0.0184
1062.00,0.0185
1061.00,0.0185
1060.00,0.0186
1059.00,0.0186
1058.00,0.0186
1057.00,0.0187
1056.00,0.0187
1055.00,0.0188
1054.00,0.0188
1053.00,0.0187
1052.00,0.0186
1051.00,0.0186
1050.00,0.0186
1049.00,0.0186
1048.00,0.0187
1047.00,0.0188
1046.00,0.0188
1045.00,0.0188
1044.00,0.0187
1043.00,0.0186
1042.00,0.0185
1041.00,0.0184
1040.00,0.0183
1039.00,0.0182
1038.00,0.0182
1037.00,0.0181
1036.00,0.0180
1035.00,0.0178
1034.00,0.0177
1033.00,0.0176
1032.00,0.0174
1031.00,0.0172
1030.00,0.0171
1029.00,0.0169
1028.00,0.0168
1027.00,0.0167
1026.00,0.0166
1025.00,0.0165
1024.00,0.0164
1023.00,0.0163
1022.00,0.0163
1021.00,0.0162
1020.00,0.0161
1019.00,0.0160
1018.00,0.0159
1017.00,0.0158
1016.00,0.0157
1015.00,0.0156
1014.00,0.0155
1013.00,0.0154
1012.00,0.0152
1011.00,0.0150
1010.00,0.0148
1009.00,0.0145
1008.00,0.0143
1007.00,0.0141
1006.00,0.0139
1005.00,0.0137
1004.00,0.0136
1003.00,0.0135
1002.00,0.0134
1001.00,0.0133
1000.00,0.0132
999.00,0.0130
998.00,0.0129
997.00,0.0128
996.00,0.0127
995.00,0.0127
994.00,0.0127
993.00,0.0126
992.00,0.0126
991.00,0.0125
990.00,0.0125
989.00,0.0124
988.00,0.0124
987.00,0.0123
986.00,0.0123
985.00,0.0122
984.00,0.0121
983.00,0.0120
982.00,0.0120
981.00,0.0119
980.00,0.0119
979.00,0.0118
978.00,0.0117
977.00,0.0116
976.00,0.0115
975.00,0.0115
974.00,0.0114
973.00,0.0113
972.00,0.0112
971.00,0.0111
970.00,0.0110
969.00,0.0110
968.00,0.0109
967.00,0.0109
966.00,0.0109
965.00,0.0109
964.00,0.0109
963.00,0.0109
962.00,0.0109
961.00,0.0109
960.00,0.0108
959.00,0.0108
958.00,0.0107
957.00,0.0106
956.00,0.0106
955.00,0.0105
954.00,0.0105
953.00,0.0104
952.00,0.0104
951.00,0.0104
950.00,0.0104
949.00,0.0105
948.00,0.0106
947.00,0.0107
946.00,0.0108
945.00,0.0108
944.00,0.0109
943.00,0.0110
942.00,0.0111
941.00,0.0112
940.00,0.0113
939.00,0.0114
938.00,0.0115
937.00,0.0116
936.00,0.0117
935.00,0.0118
934.00,0.0119
933.00,0.0119
932.00,0.0119
931.00,0.0120
930.00,0.0120
929.00,0.0120
928.00,0.0120
927.00,0.0120
926.00,0.0120
925.00,0.0119
924.00,0.0118
923.00,0.0118
922.00,0.0118
921.00,0.0117
920.00,0.0117
919.00,0.0117
918.00,0.0116
917.00,0.0116
916.00,0.0116
915.00,0.0116
914.00,0.0115
913.00,0.0114
912.00,0.0114
911.00,0.0114
910.00,0.0114
909.00,0.0115
908.00,0.0116
907.00,0.0116
906.00,0.0117
905.00,0.0118
904.00,0.0118
903.00,0.0118
902.00,0.0118
901.00,0.0118
900.00,0.0118
899.00,0.0117
898.00,0.0117
897.00,0.0117
896.00,0.0116
895.00,0.0116
894.00,0.0115
893.00,0.0115
892.00,0.0114
891.00,0.0114
890.00,0.0113
889.00,0.0112
888.00,0.0112
887.00,0.0111
886.00,0.0111
885.00,0.0111
884.00,0.0112
883.00,0.0112
882.00,0.0112
881.00,0.0113
880.00,0.0113
879.00,0.0113
878.00,0.0113
877.00,0.0113
876.00,0.0112
875.00,0.0112
874.00,0.0112
873.00,0.0113
872.00,0.0113
871.00,0.0113
870.00,0.0113
869.00,0.0113
868.00,0.0113
867.00,0.0113
866.00,0.0113
865.00,0.0113
864.00,0.0114
863.00,0.0115
862.00,0.0115
861.00,0.0115
860.00,0.0116
859.00,0.0117
858.00,0.0118
857.00,0.0119
856.00,0.0121
855.00,0.0122
854.00,0.0122
853.00,0.0122
852.00,0.0122
851.00,0.0123
850.00,0.0124
849.00,0.0124
848.00,0.0124
847.00,0.0125
846.00,0.0125
845.00,0.0125
844.00,0.0125
843.00,0.0126
842.00,0.0126
841.00,0.0127
840.00,0.0127
839.00,0.0128
838.00,0.0129
837.00,0.0131
836.00,0.0132
835.00,0.0133
834.00,0.0134
833.00,0.0135
832.00,0.0136
831.00,0.0138
830.00,0.0139
829.00,0.0139
828.00,0.0140
827.00,0.0141
826.00,0.0142
825.00,0.0143
824.00,0.0144
823.00,0.0146
822.00,0.0146
821.00,0.0146
820.00,0.0147
819.00,0.0147
818.00,0.0148
817.00,0.0149
816.00,0.0150
815.00,0.0152
814.00,0.0153
813.00,0.0154
812.00,0.0155
811.00,0.0156
810.00,0.0157
809.00,0.0158
808.00,0.0159
807.00,0.0161
806.00,0.0161
805.00,0.0162
804.00,0.0163
803.00,0.0163
802.00,0.0164
801.00,0.0165
800.00,0.0166
799.00,0.0167
798.00,0.0168
797.00,0.0168
796.00,0.0169
795.00,0.0171
794.00,0.0172
793.00,0.0173
792.00,0.0174
791.00,0.0174
790.00,0.0174
789.00,0.0175
788.00,0.0176
787.00,0.0177
786.00,0.0178
785.00,0.0178
784.00,0.0179
783.00,0.0180
782.00,0.0181
781.00,0.0181
780.00,0.0182
779.00,0.0183
778.00,0.0183
777.00,0.0184
776.00,0.0185
775.00,0.0185
774.00,0.0186
773.00,0.0186
772.00,0.0187
771.00,0.0187
770.00,0.0188
769.00,0.0189
768.00,0.0190
767.00,0.0191
766.00,0.0192
765.00,0.0193
764.00,0.0193
763.00,0.0194
762.00,0.0195
761.00,0.0196
760.00,0.0198
759.00,0.0200
758.00,0.0201
757.00,0.0202
756.00,0.0204
755.00,0.0205
754.00,0.0206
753.00,0.0206
752.00,0.0207
751.00,0.0209
750.00,0.0210
749.00,0.0212
748.00,0.0213
747.00,0.0215
746.00,0.0216
745.00,0.0216
744.00,0.0217
743.00,0.0219
742.00,0.0220
741.00,0.0221
740.00,0.0222
739.00,0.0223
738.00,0.0225
737.00,0.0226
736.00,0.0227
735.00,0.0228
734.00,0.0228
733.00,0.0229
732.00,0.0230
731.00,0.0232
730.00,0.0234
729.00,0.0236
728.00,0.0238
727.00,0.0240
726.00,0.0242
725.00,0.0244
724.00,0.0246
723.00,0.0248
722.00,0.0251
721.00,0.0253
720.00,0.0256
719.00,0.0259
718.00,0.0261
717.00,0.0263
716.00,0.0265
715.00,0.0267
714.00,0.0269
713.00,0.0272
712.00,0.0275
711.00,0.0278
710.00,0.0280
709.00,0.0283
708.00,0.0285
707.00,0.0288
706.00,0.0291
705.00,0.0294
704.00,0.0296
703.00,0.0299
702.00,0.0301
701.00,0.0302
700.00,0.0304
699.00,0.0305
698.00,0.0306
697.00,0.0306
696.00,0.0306
695.00,0.0306
694.00,0.0306
693.00,0.0307
692.00,0.0307
691.00,0.0308
690.00,0.0308
689.00,0.0309
688.00,0.0311
687.00,0.0312
686.00,0.0314
685.00,0.0315
684.00,0.0317
683.00,0.0318
682.00,0.0319
681.00,0.0320
680.00,0.0321
679.00,0.0322
678.00,0.0323
677.00,0.0325
676.00,0.0326
675.00,0.0326
674.00,0.0327
673.00,0.0329
672.00,0.0330
671.00,0.0331
670.00,0.0333
669.00,0.0337
668.00,0.0343
667.00,0.0347
666.00,0.0347
665.00,0.0345
664.00,0.0343
663.00,0.0343
662.00,0.0344
661.00,0.0345
660.00,0.0346
659.00,0.0347
658.00,0.0348
657.00,0.0349
656.00,0.0349
655.00,0.0350
654.00,0.0350
653.00,0.0351
652.00,0.0351
651.00,0.0352
650.00,0.0352
649.00,0.0351
648.00,0.0352
647.00,0.0352
646.00,0.0354
645.00,0.0355
644.00,0.0356
643.00,0.0357
642.00,0.0357
641.00,0.0358
640.00,0.0359
639.00,0.0360
638.00,0.0361
637.00,0.0361
636.00,0.0362
635.00,0.0363
634.00,0.0364
633.00,0.0365
632.00,0.0367
631.00,0.0368
630.00,0.0369
629.00,0.0370
628.00,0.0371
627.00,0.0372
626.00,0.0373
625.00,0.0373
624.00,0.0374
623.00,0.0375
622.00,0.0376
621.00,0.0378
620.00,0.0379
619.00,0.0380
618.00,0.0381
617.00,0.0381
616.00,0.0381
615.00,0.0381
614.00,0.0381
613.00,0.0381
612.00,0.0382
611.00,0.0383
610.00,0.0384
609.00,0.0384
608.00,0.0383
607.00,0.0383
606.00,0.0383
605.00,0.0385
604.00,0.0386
603.00,0.0387
602.00,0.0387
601.00,0.0388
600.00,0.0388
599.00,0.0387
598.00,0.0386
597.00,0.0386
596.00,0.0386
595.00,0.0387
594.00,0.0388
593.00,0.0388
592.00,0.0389
591.00,0.0390
590.00,0.0390
589.00,0.0391
588.00,0.0392
587.00,0.0392
586.00,0.0392
585.00,0.0392
584.00,0.0393
583.00,0.0393
582.00,0.0395
581.00,0.0396
580.00,0.0398
579.00,0.0400
578.00,0.0401
577.00,0.0401
576.00,0.0401
575.00,0.0400
574.00,0.0400
573.00,0.0400
572.00,0.0401
571.00,0.0403
570.00,0.0404
569.00,0.0404
568.00,0.0404
567.00,0.0404
566.00,0.0406
565.00,0.0407
564.00,0.0407
563.00,0.0407
562.00,0.0406
561.00,0.0406
560.00,0.0406
559.00,0.0407
558.00,0.0408
557.00,0.0408
556.00,0.0409
555.00,0.0411
554.00,0.0412
553.00,0.0413
552.00,0.0413
551.00,0.0412
550.00,0.0411
549.00,0.0410
548.00,0.0410
547.00,0.0410
546.00,0.0410
545.00,0.0410
544.00,0.0410
543.00,0.0410
542.00,0.0410
541.00,0.0410
540.00,0.0411
539.00,0.0413
538.00,0.0413
537.00,0.0412
536.00,0.0411
535.00,0.0410
534.00,0.0408
533.00,0.0407
532.00,0.0407
531.00,0.0408
530.00,0.0409
529.00,0.0409
528.00,0.0409
527.00,0.0407
526.00,0.0405
525.00,0.0404
524.00,0.0404
523.00,0.0405
522.00,0.0405
521.00,0.0404
520.00,0.0402
519.00,0.0401
518.00,0.0400
517.00,0.0400
516.00,0.0401
515.00,0.0401
514.00,0.0402
513.00,0.0403
512.00,0.0404
511.00,0.0405
510.00,0.0404
509.00,0.0402
508.00,0.0400
507.00,0.0397
506.00,0.0394
505.00,0.0391
504.00,0.0389
503.00,0.0387
502.00,0.0387
501.00,0.0389
500.00,0.0391
499.00,0.0393
498.00,0.0392
497.00,0.0390
496.00,0.0388
495.00,0.0387
494.00,0.0387
493.00,0.0387
492.00,0.0388
491.00,0.0388
490.00,0.0387
489.00,0.0386
488.00,0.0385
487.00,0.0385
486.00,0.0385
485.00,0.0384
484.00,0.0383
483.00,0.0380
482.00,0.0377
481.00,0.0375
480.00,0.0374
479.00,0.0375
478.00,0.0377
477.00,0.0379
476.00,0.0378
475.00,0.0375
474.00,0.0372
473.00,0.0371
472.00,0.0372
471.00,0.0374
470.00,0.0375
469.00,0.0376
468.00,0.0376
467.00,0.0377
466.00,0.0378
465.00,0.0378
464.00,0.0377
463.00,0.0375
462.00,0.0371
461.00,0.0367
460.00,0.0365
459.00,0.0366
458.00,0.0367
457.00,0.0367
456.00,0.0366
455.00,0.0365
454.00,0.0364
453.00,0.0365
452.00,0.0367
451.00,0.0368
450.00,0.0365
449.00,0.0359
448.00,0.0355
447.00,0.0352
446.00,0.0353
445.00,0.0357
444.00,0.0363
443.00,0.0366
442.00,0.0366
441.00,0.0366
440.00,0.0367
439.00,0.0370
438.00,0.0375
437.00,0.0380
436.00,0.0384
435.00,0.0386
434.00,0.0384
433.00,0.0379
432.00,0.0373
431.00,0.0369
430.00,0.0369
429.00,0.0372
428.00,0.0376
427.00,0.0380
426.00,0.0382
425.00,0.0385
424.00,0.0389
423.00,0.0389
422.00,0.0385
421.00,0.0380
420.00,0.0376
419.00,0.0372
418.00,0.0368
417.00,0.0366
416.00,0.0368
415.00,0.0368
414.00,0.0365
413.00,0.0361
412.00,0.0357
411.00,0.0354
410.00,0.0351
409.00,0.0349
408.00,0.0351
407.00,0.0355
406.00,0.0356
405.00,0.0357
404.00,0.0358
403.00,0.0359
402.00,0.0356
401.00,0.0352
400.00,0.0340
