Created as New Dataset,Sample 602 By YargerLab Date Thursday, June 05 2025
cm-1,A
4000.00,0.0100
3999.00,0.0100
3998.00,0.0100
3997.00,0.0100
3996.00,0.0100
3995.00,0.0100
3994.00,0.0100
3993.00,0.0100
3992.00,0.0100
3991.00,0.0100
3990.00,0.0099
3989.00,0.0099
3988.00,0.0099
3987.00,0.0099
3986.00,0.0099
3985.00,0.0100
3984.00,0.0100
3983.00,0.0100
3982.00,0.0100
3981.00,0.0100
3980.00,0.0100
3979.00,0.0100
3978.00,0.0099
3977.00,0.0099
3976.00,0.0099
3975.00,0.0099
3974.00,0.0099
3973.00,0.0099
3972.00,0.0100
3971.00,0.0100
3970.00,0.0099
3969.00,0.0099
3968.00,0.0099
3967.00,0.0099
3966.00,0.0099
3965.00,0.0100
3964.00,0.0100
3963.00,0.0100
3962.00,0.0099
3961.00,0.0099
3960.00,0.0099
3959.00,0.0099
3958.00,0.0099
3957.00,0.0099
3956.00,0.0099
3955.00,0.0099
3954.00,0.0099
3953.00,0.0099
3952.00,0.0099
3951.00,0.0099
3950.00,0.0099
3949.00,0.0099
3948.00,0.0098
3947.00,0.0098
3946.00,0.0098
3945.00,0.0098
3944.00,0.0098
3943.00,0.0099
3942.00,0.0099
3941.00,0.0099
3940.00,0.0099
3939.00,0.0099
3938.00,0.0099
3937.00,0.0099
3936.00,0.0099
3935.00,0.0099
3934.00,0.0098
3933.00,0.0098
3932.00,0.0098
3931.00,0.0098
3930.00,0.0098
3929.00,0.0098
3928.00,0.0097
3927.00,0.0097
3926.00,0.0098
3925.00,0.0098
3924.00,0.0098
3923.00,0.0098
3922.00,0.0098
3921.00,0.0098
3920.00,0.0098
3919.00,0.0097
3918.00,0.0097
3917.00,0.0097
3916.00,0.0097
3915.00,0.0097
3914.00,0.0097
3913.00,0.0097
3912.00,0.0097
3911.00,0.0097
3910.00,0.0097
3909.00,0.0097
3908.00,0.0097
3907.00,0.0097
3906.00,0.0097
3905.00,0.0097
3904.00,0.0097
3903.00,0.0096
3902.00,0.0096
3901.00,0.0096
3900.00,0.0096
3899.00,0.0096
3898.00,0.0097
3897.00,0.0097
3896.00,0.0097
3895.00,0.0097
3894.00,0.0097
3893.00,0.0097
3892.00,0.0097
3891.00,0.0097
3890.00,0.0096
3889.00,0.0096
3888.00,0.0096
3887.00,0.0096
3886.00,0.0096
3885.00,0.0096
3884.00,0.0096
3883.00,0.0096
3882.00,0.0095
3881.00,0.0095
3880.00,0.0095
3879.00,0.0095
3878.00,0.0095
3877.00,0.0095
3876.00,0.0095
3875.00,0.0095
3874.00,0.0095
3873.00,0.0095
3872.00,0.0095
3871.00,0.0094
3870.00,0.0094
3869.00,0.0094
3868.00,0.0094
3867.00,0.0094
3866.00,0.0094
3865.00,0.0094
3864.00,0.0094
3863.00,0.0095
3862.00,0.0094
3861.00,0.0094
3860.00,0.0094
3859.00,0.0094
3858.00,0.0095
3857.00,0.0095
3856.00,0.0095
3855.00,0.0094
3854.00,0.0094
3853.00,0.0093
3852.00,0.0093
3851.00,0.0093
3850.00,0.0093
3849.00,0.0093
3848.00,0.0093
3847.00,0.0093
3846.00,0.0093
3845.00,0.0093
3844.00,0.0093
3843.00,0.0093
3842.00,0.0093
3841.00,0.0093
3840.00,0.0093
3839.00,0.0092
3838.00,0.0092
3837.00,0.0092
3836.00,0.0092
3835.00,0.0092
3834.00,0.0092
3833.00,0.0092
3832.00,0.0093
3831.00,0.0093
3830.00,0.0093
3829.00,0.0093
3828.00,0.0093
3827.00,0.0093
3826.00,0.0093
3825.00,0.0093
3824.00,0.0093
3823.00,0.0092
3822.00,0.0092
3821.00,0.0092
3820.00,0.0092
3819.00,0.0092
3818.00,0.0091
3817.00,0.0091
3816.00,0.0092
3815.00,0.0092
3814.00,0.0093
3813.00,0.0093
3812.00,0.0093
3811.00,0.0093
3810.00,0.0093
3809.00,0.0092
3808.00,0.0092
3807.00,0.0092
3806.00,0.0092
3805.00,0.0091
3804.00,0.0091
3803.00,0.0091
3802.00,0.0091
3801.00,0.0091
3800.00,0.0091
3799.00,0.0091
3798.00,0.0091
3797.00,0.0091
3796.00,0.0092
3795.00,0.0092
3794.00,0.0092
3793.00,0.0092
3792.00,0.0092
3791.00,0.0093
3790.00,0.0093
3789.00,0.0093
3788.00,0.0092
3787.00,0.0092
3786.00,0.0092
3785.00,0.0092
3784.00,0.0092
3783.00,0.0092
3782.00,0.0092
3781.00,0.0092
3780.00,0.0092
3779.00,0.0092
3778.00,0.0092
3777.00,0.0092
3776.00,0.0092
3775.00,0.0092
3774.00,0.0092
3773.00,0.0092
3772.00,0.0092
3771.00,0.0092
3770.00,0.0091
3769.00,0.0091
3768.00,0.0091
3767.00,0.0091
3766.00,0.0091
3765.00,0.0091
3764.00,0.0091
3763.00,0.0091
3762.00,0.0091
3761.00,0.0090
3760.00,0.0090
3759.00,0.0091
3758.00,0.0090
3757.00,0.0090
3756.00,0.0090
3755.00,0.0090
3754.00,0.0089
3753.00,0.0089
3752.00,0.0089
3751.00,0.0088
3750.00,0.0088
3749.00,0.0088
3748.00,0.0088
3747.00,0.0088
3746.00,0.0088
3745.00,0.0088
3744.00,0.0088
3743.00,0.0088
3742.00,0.0088
3741.00,0.0088
3740.00,0.0087
3739.00,0.0087
3738.00,0.0087
3737.00,0.0086
3736.00,0.0086
3735.00,0.0086
3734.00,0.0086
3733.00,0.0086
3732.00,0.0086
3731.00,0.0087
3730.00,0.0087
3729.00,0.0087
3728.00,0.0087
3727.00,0.0088
3726.00,0.0088
3725.00,0.0088
3724.00,0.0088
3723.00,0.0088
3722.00,0.0088
3721.00,0.0088
3720.00,0.0088
3719.00,0.0088
3718.00,0.0088
3717.00,0.0088
3716.00,0.0088
3715.00,0.0088
3714.00,0.0088
3713.00,0.0087
3712.00,0.0086
3711.00,0.0086
3710.00,0.0086
3709.00,0.0086
3708.00,0.0087
3707.00,0.0087
3706.00,0.0087
3705.00,0.0087
3704.00,0.0088
3703.00,0.0088
3702.00,0.0088
3701.00,0.0088
3700.00,0.0088
3699.00,0.0087
3698.00,0.0087
3697.00,0.0088
3696.00,0.0088
3695.00,0.0088
3694.00,0.0088
3693.00,0.0087
3692.00,0.0087
3691.00,0.0087
3690.00,0.0086
3689.00,0.0086
3688.00,0.0086
3687.00,0.0086
3686.00,0.0086
3685.00,0.0086
3684.00,0.0086
3683.00,0.0086
3682.00,0.0086
3681.00,0.0086
3680.00,0.0086
3679.00,0.0086
3678.00,0.0086
3677.00,0.0085
3676.00,0.0085
3675.00,0.0085
3674.00,0.0085
3673.00,0.0086
3672.00,0.0086
3671.00,0.0086
3670.00,0.0086
3669.00,0.0087
3668.00,0.0088
3667.00,0.0088
3666.00,0.0088
3665.00,0.0088
3664.00,0.0089
3663.00,0.0089
3662.00,0.0089
3661.00,0.0089
3660.00,0.0089
3659.00,0.0089
3658.00,0.0089
3657.00,0.0089
3656.00,0.0090
3655.00,0.0090
3654.00,0.0089
3653.00,0.0089
3652.00,0.0089
3651.00,0.0089
3650.00,0.0089
3649.00,0.0090
3648.00,0.0090
3647.00,0.0091
3646.00,0.0091
3645.00,0.0092
3644.00,0.0092
3643.00,0.0092
3642.00,0.0093
3641.00,0.0093
3640.00,0.0094
3639.00,0.0094
3638.00,0.0094
3637.00,0.0094
3636.00,0.0094
3635.00,0.0095
3634.00,0.0095
3633.00,0.0096
3632.00,0.0096
3631.00,0.0096
3630.00,0.0096
3629.00,0.0096
3628.00,0.0097
3627.00,0.0097
3626.00,0.0098
3625.00,0.0098
3624.00,0.0099
3623.00,0.0100
3622.00,0.0100
3621.00,0.0101
3620.00,0.0101
3619.00,0.0102
3618.00,0.0102
3617.00,0.0102
3616.00,0.0102
3615.00,0.0102
3614.00,0.0103
3613.00,0.0103
3612.00,0.0104
3611.00,0.0104
3610.00,0.0105
3609.00,0.0105
3608.00,0.0106
3607.00,0.0106
3606.00,0.0107
3605.00,0.0107
3604.00,0.0107
3603.00,0.0108
3602.00,0.0108
3601.00,0.0109
3600.00,0.0109
3599.00,0.0109
3598.00,0.0110
3597.00,0.0110
3596.00,0.0111
3595.00,0.0111
3594.00,0.0111
3593.00,0.0112
3592.00,0.0113
3591.00,0.0113
3590.00,0.0114
3589.00,0.0114
3588.00,0.0115
3587.00,0.0115
3586.00,0.0116
3585.00,0.0116
3584.00,0.0117
3583.00,0.0117
3582.00,0.0118
3581.00,0.0118
3580.00,0.0119
3579.00,0.0119
3578.00,0.0120
3577.00,0.0120
3576.00,0.0121
3575.00,0.0122
3574.00,0.0122
3573.00,0.0123
3572.00,0.0124
3571.00,0.0124
3570.00,0.0124
3569.00,0.0125
3568.00,0.0125
3567.00,0.0126
3566.00,0.0126
3565.00,0.0127
3564.00,0.0127
3563.00,0.0128
3562.00,0.0128
3561.00,0.0129
3560.00,0.0130
3559.00,0.0131
3558.00,0.0132
3557.00,0.0133
3556.00,0.0133
3555.00,0.0134
3554.00,0.0134
3553.00,0.0134
3552.00,0.0134
3551.00,0.0135
3550.00,0.0136
3549.00,0.0136
3548.00,0.0137
3547.00,0.0138
3546.00,0.0138
3545.00,0.0139
3544.00,0.0140
3543.00,0.0140
3542.00,0.0141
3541.00,0.0141
3540.00,0.0142
3539.00,0.0143
3538.00,0.0144
3537.00,0.0144
3536.00,0.0145
3535.00,0.0146
3534.00,0.0146
3533.00,0.0146
3532.00,0.0147
3531.00,0.0147
3530.00,0.0148
3529.00,0.0149
3528.00,0.0150
3527.00,0.0150
3526.00,0.0151
3525.00,0.0152
3524.00,0.0153
3523.00,0.0153
3522.00,0.0153
3521.00,0.0154
3520.00,0.0154
3519.00,0.0154
3518.00,0.0155
3517.00,0.0156
3516.00,0.0156
3515.00,0.0157
3514.00,0.0158
3513.00,0.0158
3512.00,0.0158
3511.00,0.0159
3510.00,0.0159
3509.00,0.0160
3508.00,0.0161
3507.00,0.0162
3506.00,0.0162
3505.00,0.0162
3504.00,0.0163
3503.00,0.0164
3502.00,0.0165
3501.00,0.0166
3500.00,0.0167
3499.00,0.0167
3498.00,0.0168
3497.00,0.0169
3496.00,0.0170
3495.00,0.0170
3494.00,0.0171
3493.00,0.0172
3492.00,0.0172
3491.00,0.0173
3490.00,0.0173
3489.00,0.0174
3488.00,0.0175
3487.00,0.0176
3486.00,0.0176
3485.00,0.0177
3484.00,0.0178
3483.00,0.0179
3482.00,0.0179
3481.00,0.0180
3480.00,0.0180
3479.00,0.0181
3478.00,0.0182
3477.00,0.0182
3476.00,0.0183
3475.00,0.0184
3474.00,0.0184
3473.00,0.0185
3472.00,0.0186
3471.00,0.0187
3470.00,0.0188
3469.00,0.0189
3468.00,0.0190
3467.00,0.0191
3466.00,0.0191
3465.00,0.0192
3464.00,0.0193
3463.00,0.0194
3462.00,0.0195
3461.00,0.0195
3460.00,0.0196
3459.00,0.0197
3458.00,0.0198
3457.00,0.0199
3456.00,0.0200
3455.00,0.0202
3454.00,0.0203
3453.00,0.0204
3452.00,0.0205
3451.00,0.0206
3450.00,0.0207
3449.00,0.0207
3448.00,0.0208
3447.00,0.0209
3446.00,0.0210
3445.00,0.0211
3444.00,0.0212
3443.00,0.0212
3442.00,0.0213
3441.00,0.0214
3440.00,0.0215
3439.00,0.0216
3438.00,0.0216
3437.00,0.0217
3436.00,0.0218
3435.00,0.0218
3434.00,0.0219
3433.00,0.0220
3432.00,0.0221
3431.00,0.0222
3430.00,0.0223
3429.00,0.0224
3428.00,0.0225
3427.00,0.0226
3426.00,0.0227
3425.00,0.0228
3424.00,0.0229
3423.00,0.0230
3422.00,0.0231
3421.00,0.0232
3420.00,0.0233
3419.00,0.0234
3418.00,0.0235
3417.00,0.0236
3416.00,0.0238
3415.00,0.0239
3414.00,0.0240
3413.00,0.0241
3412.00,0.0242
3411.00,0.0243
3410.00,0.0244
3409.00,0.0245
3408.00,0.0246
3407.00,0.0247
3406.00,0.0247
3405.00,0.0249
3404.00,0.0250
3403.00,0.0251
3402.00,0.0252
3401.00,0.0253
3400.00,0.0254
3399.00,0.0255
3398.00,0.0256
3397.00,0.0256
3396.00,0.0257
3395.00,0.0258
3394.00,0.0259
3393.00,0.0260
3392.00,0.0261
3391.00,0.0262
3390.00,0.0263
3389.00,0.0264
3388.00,0.0266
3387.00,0.0267
3386.00,0.0268
3385.00,0.0269
3384.00,0.0270
3383.00,0.0271
3382.00,0.0272
3381.00,0.0273
3380.00,0.0274
3379.00,0.0275
3378.00,0.0276
3377.00,0.0277
3376.00,0.0279
3375.00,0.0280
3374.00,0.0281
3373.00,0.0283
3372.00,0.0284
3371.00,0.0285
3370.00,0.0287
3369.00,0.0288
3368.00,0.0289
3367.00,0.0291
3366.00,0.0292
3365.00,0.0294
3364.00,0.0295
3363.00,0.0297
3362.00,0.0298
3361.00,0.0300
3360.00,0.0301
3359.00,0.0303
3358.00,0.0304
3357.00,0.0306
3356.00,0.0307
3355.00,0.0309
3354.00,0.0310
3353.00,0.0312
3352.00,0.0314
3351.00,0.0315
3350.00,0.0317
3349.00,0.0319
3348.00,0.0321
3347.00,0.0323
3346.00,0.0324
3345.00,0.0326
3344.00,0.0328
3343.00,0.0329
3342.00,0.0331
3341.00,0.0333
3340.00,0.0334
3339.00,0.0336
3338.00,0.0337
3337.00,0.0340
3336.00,0.0342
3335.00,0.0343
3334.00,0.0345
3333.00,0.0347
3332.00,0.0349
3331.00,0.0351
3330.00,0.0352
3329.00,0.0354
3328.00,0.0355
3327.00,0.0357
3326.00,0.0359
3325.00,0.0361
3324.00,0.0364
3323.00,0.0366
3322.00,0.0368
3321.00,0.0369
3320.00,0.0371
3319.00,0.0372
3318.00,0.0374
3317.00,0.0376
3316.00,0.0378
3315.00,0.0380
3314.00,0.0382
3313.00,0.0384
3312.00,0.0386
3311.00,0.0387
3310.00,0.0389
3309.00,0.0390
3308.00,0.0392
3307.00,0.0394
3306.00,0.0396
3305.00,0.0398
3304.00,0.0400
3303.00,0.0402
3302.00,0.0404
3301.00,0.0405
3300.00,0.0407
3299.00,0.0408
3298.00,0.0409
3297.00,0.0410
3296.00,0.0412
3295.00,0.0413
3294.00,0.0414
3293.00,0.0415
3292.00,0.0416
3291.00,0.0418
3290.00,0.0419
3289.00,0.0420
3288.00,0.0421
3287.00,0.0421
3286.00,0.0422
3285.00,0.0423
3284.00,0.0423
3283.00,0.0423
3282.00,0.0424
3281.00,0.0423
3280.00,0.0423
3279.00,0.0423
3278.00,0.0423
3277.00,0.0423
3276.00,0.0422
3275.00,0.0421
3274.00,0.0420
3273.00,0.0419
3272.00,0.0418
3271.00,0.0417
3270.00,0.0416
3269.00,0.0415
3268.00,0.0413
3267.00,0.0412
3266.00,0.0411
3265.00,0.0409
3264.00,0.0408
3263.00,0.0406
3262.00,0.0404
3261.00,0.0402
3260.00,0.0400
3259.00,0.0398
3258.00,0.0396
3257.00,0.0394
3256.00,0.0392
3255.00,0.0390
3254.00,0.0388
3253.00,0.0386
3252.00,0.0384
3251.00,0.0382
3250.00,0.0380
3249.00,0.0378
3248.00,0.0376
3247.00,0.0374
3246.00,0.0372
3245.00,0.0370
3244.00,0.0369
3243.00,0.0367
3242.00,0.0365
3241.00,0.0364
3240.00,0.0362
3239.00,0.0360
3238.00,0.0359
3237.00,0.0357
3236.00,0.0356
3235.00,0.0354
3234.00,0.0353
3233.00,0.0352
3232.00,0.0351
3231.00,0.0350
3230.00,0.0348
3229.00,0.0347
3228.00,0.0346
3227.00,0.0344
3226.00,0.0343
3225.00,0.0342
3224.00,0.0341
3223.00,0.0340
3222.00,0.0339
3221.00,0.0338
3220.00,0.0337
3219.00,0.0336
3218.00,0.0335
3217.00,0.0334
3216.00,0.0333
3215.00,0.0332
3214.00,0.0331
3213.00,0.0331
3212.00,0.0330
3211.00,0.0328
3210.00,0.0327
3209.00,0.0326
3208.00,0.0325
3207.00,0.0324
3206.00,0.0323
3205.00,0.0322
3204.00,0.0321
3203.00,0.0320
3202.00,0.0319
3201.00,0.0318
3200.00,0.0317
3199.00,0.0316
3198.00,0.0315
3197.00,0.0314
3196.00,0.0313
3195.00,0.0311
3194.00,0.0310
3193.00,0.0309
3192.00,0.0308
3191.00,0.0307
3190.00,0.0306
3189.00,0.0305
3188.00,0.0304
3187.00,0.0303
3186.00,0.0301
3185.00,0.0300
3184.00,0.0299
3183.00,0.0298
3182.00,0.0297
3181.00,0.0295
3180.00,0.0294
3179.00,0.0293
3178.00,0.0291
3177.00,0.0290
3176.00,0.0288
3175.00,0.0287
3174.00,0.0286
3173.00,0.0285
3172.00,0.0284
3171.00,0.0283
3170.00,0.0282
3169.00,0.0280
3168.00,0.0279
3167.00,0.0278
3166.00,0.0276
3165.00,0.0275
3164.00,0.0274
3163.00,0.0273
3162.00,0.0272
3161.00,0.0270
3160.00,0.0269
3159.00,0.0268
3158.00,0.0267
3157.00,0.0265
3156.00,0.0264
3155.00,0.0263
3154.00,0.0262
3153.00,0.0261
3152.00,0.0260
3151.00,0.0260
3150.00,0.0259
3149.00,0.0258
3148.00,0.0257
3147.00,0.0256
3146.00,0.0256
3145.00,0.0255
3144.00,0.0254
3143.00,0.0252
3142.00,0.0251
3141.00,0.0250
3140.00,0.0249
3139.00,0.0249
3138.00,0.0248
3137.00,0.0247
3136.00,0.0247
3135.00,0.0246
3134.00,0.0246
3133.00,0.0245
3132.00,0.0244
3131.00,0.0243
3130.00,0.0242
3129.00,0.0242
3128.00,0.0241
3127.00,0.0241
3126.00,0.0241
3125.00,0.0240
3124.00,0.0239
3123.00,0.0239
3122.00,0.0238
3121.00,0.0238
3120.00,0.0238
3119.00,0.0238
3118.00,0.0238
3117.00,0.0237
3116.00,0.0237
3115.00,0.0237
3114.00,0.0237
3113.00,0.0238
3112.00,0.0238
3111.00,0.0237
3110.00,0.0237
3109.00,0.0237
3108.00,0.0237
3107.00,0.0237
3106.00,0.0237
3105.00,0.0238
3104.00,0.0238
3103.00,0.0238
3102.00,0.0238
3101.00,0.0238
3100.00,0.0238
3099.00,0.0238
3098.00,0.0239
3097.00,0.0239
3096.00,0.0239
3095.00,0.0240
3094.00,0.0240
3093.00,0.0240
3092.00,0.0240
3091.00,0.0240
3090.00,0.0240
3089.00,0.0241
3088.00,0.0241
3087.00,0.0241
3086.00,0.0241
3085.00,0.0242
3084.00,0.0242
3083.00,0.0242
3082.00,0.0243
3081.00,0.0243
3080.00,0.0243
3079.00,0.0243
3078.00,0.0243
3077.00,0.0244
3076.00,0.0244
3075.00,0.0245
3074.00,0.0245
3073.00,0.0245
3072.00,0.0245
3071.00,0.0245
3070.00,0.0244
3069.00,0.0244
3068.00,0.0244
3067.00,0.0244
3066.00,0.0244
3065.00,0.0244
3064.00,0.0243
3063.00,0.0243
3062.00,0.0243
3061.00,0.0243
3060.00,0.0242
3059.00,0.0241
3058.00,0.0241
3057.00,0.0240
3056.00,0.0239
3055.00,0.0239
3054.00,0.0238
3053.00,0.0237
3052.00,0.0236
3051.00,0.0236
3050.00,0.0235
3049.00,0.0234
3048.00,0.0234
3047.00,0.0233
3046.00,0.0232
3045.00,0.0231
3044.00,0.0230
3043.00,0.0229
3042.00,0.0228
3041.00,0.0228
3040.00,0.0227
3039.00,0.0227
3038.00,0.0226
3037.00,0.0225
3036.00,0.0224
3035.00,0.0223
3034.00,0.0222
3033.00,0.0221
3032.00,0.0221
3031.00,0.0220
3030.00,0.0219
3029.00,0.0218
3028.00,0.0218
3027.00,0.0217
3026.00,0.0216
3025.00,0.0215
3024.00,0.0215
3023.00,0.0214
3022.00,0.0213
3021.00,0.0212
3020.00,0.0211
3019.00,0.0210
3018.00,0.0209
3017.00,0.0207
3016.00,0.0206
3015.00,0.0205
3014.00,0.0205
3013.00,0.0204
3012.00,0.0203
3011.00,0.0202
3010.00,0.0202
3009.00,0.0201
3008.00,0.0200
3007.00,0.0199
3006.00,0.0198
3005.00,0.0198
3004.00,0.0197
3003.00,0.0196
3002.00,0.0196
3001.00,0.0195
3000.00,0.0194
2999.00,0.0194
2998.00,0.0193
2997.00,0.0194
2996.00,0.0194
2995.00,0.0194
2994.00,0.0195
2993.00,0.0196
2992.00,0.0197
2991.00,0.0197
2990.00,0.0199
2989.00,0.0200
2988.00,0.0201
2987.00,0.0202
2986.00,0.0203
2985.00,0.0204
2984.00,0.0203
2983.00,0.0203
2982.00,0.0204
2981.00,0.0206
2980.00,0.0209
2979.00,0.0212
2978.00,0.0216
2977.00,0.0219
2976.00,0.0223
2975.00,0.0226
2974.00,0.0228
2973.00,0.0230
2972.00,0.0232
2971.00,0.0234
2970.00,0.0237
2969.00,0.0240
2968.00,0.0242
2967.00,0.0245
2966.00,0.0247
2965.00,0.0249
2964.00,0.0251
2963.00,0.0252
2962.00,0.0253
2961.00,0.0254
2960.00,0.0254
2959.00,0.0254
2958.00,0.0254
2957.00,0.0253
2956.00,0.0252
2955.00,0.0251
2954.00,0.0250
2953.00,0.0248
2952.00,0.0247
2951.00,0.0246
2950.00,0.0245
2949.00,0.0244
2948.00,0.0244
2947.00,0.0244
2946.00,0.0245
2945.00,0.0246
2944.00,0.0247
2943.00,0.0248
2942.00,0.0250
2941.00,0.0251
2940.00,0.0253
2939.00,0.0254
2938.00,0.0256
2937.00,0.0257
2936.00,0.0258
2935.00,0.0259
2934.00,0.0260
2933.00,0.0261
2932.00,0.0262
2931.00,0.0263
2930.00,0.0263
2929.00,0.0264
2928.00,0.0264
2927.00,0.0265
2926.00,0.0265
2925.00,0.0265
2924.00,0.0265
2923.00,0.0266
2922.00,0.0267
2921.00,0.0267
2920.00,0.0268
2919.00,0.0268
2918.00,0.0268
2917.00,0.0266
2916.00,0.0263
2915.00,0.0260
2914.00,0.0255
2913.00,0.0251
2912.00,0.0246
2911.00,0.0242
2910.00,0.0238
2909.00,0.0235
2908.00,0.0232
2907.00,0.0230
2906.00,0.0227
2905.00,0.0225
2904.00,0.0224
2903.00,0.0222
2902.00,0.0220
2901.00,0.0219
2900.00,0.0218
2899.00,0.0216
2898.00,0.0215
2897.00,0.0214
2896.00,0.0212
2895.00,0.0211
2894.00,0.0210
2893.00,0.0209
2892.00,0.0208
2891.00,0.0208
2890.00,0.0207
2889.00,0.0206
2888.00,0.0206
2887.00,0.0206
2886.00,0.0206
2885.00,0.0207
2884.00,0.0207
2883.00,0.0208
2882.00,0.0209
2881.00,0.0210
2880.00,0.0211
2879.00,0.0213
2878.00,0.0214
2877.00,0.0215
2876.00,0.0215
2875.00,0.0215
2874.00,0.0215
2873.00,0.0214
2872.00,0.0214
2871.00,0.0213
2870.00,0.0212
2869.00,0.0210
2868.00,0.0209
2867.00,0.0207
2866.00,0.0205
2865.00,0.0204
2864.00,0.0202
2863.00,0.0201
2862.00,0.0200
2861.00,0.0199
2860.00,0.0198
2859.00,0.0197
2858.00,0.0197
2857.00,0.0196
2856.00,0.0196
2855.00,0.0197
2854.00,0.0198
2853.00,0.0199
2852.00,0.0200
2851.00,0.0201
2850.00,0.0201
2849.00,0.0200
2848.00,0.0198
2847.00,0.0195
2846.00,0.0191
2845.00,0.0188
2844.00,0.0185
2843.00,0.0183
2842.00,0.0181
2841.00,0.0179
2840.00,0.0178
2839.00,0.0176
2838.00,0.0175
2837.00,0.0174
2836.00,0.0173
2835.00,0.0173
2834.00,0.0172
2833.00,0.0171
2832.00,0.0171
2831.00,0.0170
2830.00,0.0169
2829.00,0.0169
2828.00,0.0168
2827.00,0.0168
2826.00,0.0167
2825.00,0.0167
2824.00,0.0167
2823.00,0.0166
2822.00,0.0166
2821.00,0.0166
2820.00,0.0165
2819.00,0.0165
2818.00,0.0165
2817.00,0.0164
2816.00,0.0164
2815.00,0.0164
2814.00,0.0163
2813.00,0.0163
2812.00,0.0162
2811.00,0.0162
2810.00,0.0162
2809.00,0.0161
2808.00,0.0161
2807.00,0.0161
2806.00,0.0161
2805.00,0.0160
2804.00,0.0160
2803.00,0.0160
2802.00,0.0159
2801.00,0.0159
2800.00,0.0159
2799.00,0.0158
2798.00,0.0157
2797.00,0.0157
2796.00,0.0157
2795.00,0.0157
2794.00,0.0156
2793.00,0.0156
2792.00,0.0155
2791.00,0.0155
2790.00,0.0155
2789.00,0.0154
2788.00,0.0154
2787.00,0.0154
2786.00,0.0154
2785.00,0.0153
2784.00,0.0153
2783.00,0.0152
2782.00,0.0152
2781.00,0.0152
2780.00,0.0151
2779.00,0.0151
2778.00,0.0151
2777.00,0.0150
2776.00,0.0150
2775.00,0.0149
2774.00,0.0149
2773.00,0.0149
2772.00,0.0149
2771.00,0.0148
2770.00,0.0148
2769.00,0.0148
2768.00,0.0147
2767.00,0.0147
2766.00,0.0147
2765.00,0.0147
2764.00,0.0146
2763.00,0.0146
2762.00,0.0146
2761.00,0.0145
2760.00,0.0145
2759.00,0.0145
2758.00,0.0145
2757.00,0.0144
2756.00,0.0144
2755.00,0.0144
2754.00,0.0143
2753.00,0.0143
2752.00,0.0143
2751.00,0.0142
2750.00,0.0142
2749.00,0.0142
2748.00,0.0142
2747.00,0.0141
2746.00,0.0141
2745.00,0.0141
2744.00,0.0141
2743.00,0.0141
2742.00,0.0141
2741.00,0.0140
2740.00,0.0140
2739.00,0.0140
2738.00,0.0139
2737.00,0.0139
2736.00,0.0139
2735.00,0.0139
2734.00,0.0138
2733.00,0.0138
2732.00,0.0138
2731.00,0.0138
2730.00,0.0137
2729.00,0.0137
2728.00,0.0136
2727.00,0.0136
2726.00,0.0136
2725.00,0.0135
2724.00,0.0135
2723.00,0.0135
2722.00,0.0135
2721.00,0.0135
2720.00,0.0134
2719.00,0.0134
2718.00,0.0134
2717.00,0.0133
2716.00,0.0133
2715.00,0.0133
2714.00,0.0132
2713.00,0.0132
2712.00,0.0132
2711.00,0.0132
2710.00,0.0131
2709.00,0.0131
2708.00,0.0131
2707.00,0.0131
2706.00,0.0131
2705.00,0.0130
2704.00,0.0130
2703.00,0.0130
2702.00,0.0129
2701.00,0.0129
2700.00,0.0129
2699.00,0.0129
2698.00,0.0129
2697.00,0.0129
2696.00,0.0129
2695.00,0.0129
2694.00,0.0128
2693.00,0.0128
2692.00,0.0128
2691.00,0.0128
2690.00,0.0128
2689.00,0.0127
2688.00,0.0127
2687.00,0.0127
2686.00,0.0127
2685.00,0.0127
2684.00,0.0126
2683.00,0.0126
2682.00,0.0126
2681.00,0.0126
2680.00,0.0125
2679.00,0.0125
2678.00,0.0125
2677.00,0.0125
2676.00,0.0125
2675.00,0.0125
2674.00,0.0125
2673.00,0.0125
2672.00,0.0124
2671.00,0.0124
2670.00,0.0124
2669.00,0.0124
2668.00,0.0124
2667.00,0.0124
2666.00,0.0124
2665.00,0.0124
2664.00,0.0125
2663.00,0.0125
2662.00,0.0125
2661.00,0.0126
2660.00,0.0126
2659.00,0.0126
2658.00,0.0126
2657.00,0.0126
2656.00,0.0126
2655.00,0.0126
2654.00,0.0126
2653.00,0.0126
2652.00,0.0125
2651.00,0.0125
2650.00,0.0125
2649.00,0.0125
2648.00,0.0125
2647.00,0.0124
2646.00,0.0124
2645.00,0.0124
2644.00,0.0124
2643.00,0.0124
2642.00,0.0124
2641.00,0.0124
2640.00,0.0123
2639.00,0.0123
2638.00,0.0123
2637.00,0.0122
2636.00,0.0122
2635.00,0.0122
2634.00,0.0122
2633.00,0.0122
2632.00,0.0122
2631.00,0.0121
2630.00,0.0121
2629.00,0.0121
2628.00,0.0121
2627.00,0.0121
2626.00,0.0121
2625.00,0.0120
2624.00,0.0120
2623.00,0.0120
2622.00,0.0120
2621.00,0.0119
2620.00,0.0119
2619.00,0.0119
2618.00,0.0119
2617.00,0.0119
2616.00,0.0118
2615.00,0.0118
2614.00,0.0118
2613.00,0.0118
2612.00,0.0117
2611.00,0.0117
2610.00,0.0117
2609.00,0.0117
2608.00,0.0117
2607.00,0.0116
2606.00,0.0116
2605.00,0.0116
2604.00,0.0115
2603.00,0.0115
2602.00,0.0115
2601.00,0.0115
2600.00,0.0114
2599.00,0.0114
2598.00,0.0113
2597.00,0.0113
2596.00,0.0113
2595.00,0.0113
2594.00,0.0113
2593.00,0.0113
2592.00,0.0112
2591.00,0.0112
2590.00,0.0112
2589.00,0.0112
2588.00,0.0112
2587.00,0.0112
2586.00,0.0111
2585.00,0.0111
2584.00,0.0111
2583.00,0.0111
2582.00,0.0111
2581.00,0.0111
2580.00,0.0111
2579.00,0.0111
2578.00,0.0111
2577.00,0.0110
2576.00,0.0110
2575.00,0.0110
2574.00,0.0110
2573.00,0.0110
2572.00,0.0109
2571.00,0.0109
2570.00,0.0109
2569.00,0.0109
2568.00,0.0109
2567.00,0.0109
2566.00,0.0109
2565.00,0.0109
2564.00,0.0108
2563.00,0.0108
2562.00,0.0108
2561.00,0.0108
2560.00,0.0108
2559.00,0.0108
2558.00,0.0107
2557.00,0.0107
2556.00,0.0107
2555.00,0.0107
2554.00,0.0106
2553.00,0.0106
2552.00,0.0106
2551.00,0.0106
2550.00,0.0106
2549.00,0.0106
2548.00,0.0106
2547.00,0.0106
2546.00,0.0105
2545.00,0.0105
2544.00,0.0105
2543.00,0.0105
2542.00,0.0104
2541.00,0.0104
2540.00,0.0104
2539.00,0.0104
2538.00,0.0103
2537.00,0.0103
2536.00,0.0103
2535.00,0.0103
2534.00,0.0103
2533.00,0.0103
2532.00,0.0103
2531.00,0.0103
2530.00,0.0103
2529.00,0.0102
2528.00,0.0102
2527.00,0.0102
2526.00,0.0101
2525.00,0.0101
2524.00,0.0101
2523.00,0.0101
2522.00,0.0101
2521.00,0.0101
2520.00,0.0101
2519.00,0.0101
2518.00,0.0101
2517.00,0.0101
2516.00,0.0101
2515.00,0.0101
2514.00,0.0101
2513.00,0.0100
2512.00,0.0100
2511.00,0.0100
2510.00,0.0100
2509.00,0.0100
2508.00,0.0099
2507.00,0.0099
2506.00,0.0099
2505.00,0.0099
2504.00,0.0099
2503.00,0.0099
2502.00,0.0099
2501.00,0.0099
2500.00,0.0098
2499.00,0.0098
2498.00,0.0098
2497.00,0.0098
2496.00,0.0098
2495.00,0.0098
2494.00,0.0097
2493.00,0.0097
2492.00,0.0097
2491.00,0.0097
2490.00,0.0097
2489.00,0.0097
2488.00,0.0096
2487.00,0.0096
2486.00,0.0096
2485.00,0.0096
2484.00,0.0096
2483.00,0.0095
2482.00,0.0095
2481.00,0.0095
2480.00,0.0095
2479.00,0.0095
2478.00,0.0095
2477.00,0.0095
2476.00,0.0095
2475.00,0.0095
2474.00,0.0094
2473.00,0.0094
2472.00,0.0094
2471.00,0.0094
2470.00,0.0094
2469.00,0.0094
2468.00,0.0094
2467.00,0.0094
2466.00,0.0094
2465.00,0.0094
2464.00,0.0094
2463.00,0.0094
2462.00,0.0094
2461.00,0.0094
2460.00,0.0094
2459.00,0.0094
2458.00,0.0095
2457.00,0.0095
2456.00,0.0095
2455.00,0.0095
2454.00,0.0094
2453.00,0.0094
2452.00,0.0094
2451.00,0.0093
2450.00,0.0093
2449.00,0.0093
2448.00,0.0093
2447.00,0.0092
2446.00,0.0092
2445.00,0.0092
2444.00,0.0092
2443.00,0.0092
2442.00,0.0092
2441.00,0.0091
2440.00,0.0091
2439.00,0.0091
2438.00,0.0090
2437.00,0.0090
2436.00,0.0090
2435.00,0.0090
2434.00,0.0090
2433.00,0.0090
2432.00,0.0091
2431.00,0.0090
2430.00,0.0090
2429.00,0.0090
2428.00,0.0089
2427.00,0.0088
2426.00,0.0088
2425.00,0.0087
2424.00,0.0087
2423.00,0.0087
2422.00,0.0087
2421.00,0.0087
2420.00,0.0087
2419.00,0.0088
2418.00,0.0088
2417.00,0.0088
2416.00,0.0088
2415.00,0.0087
2414.00,0.0087
2413.00,0.0087
2412.00,0.0086
2411.00,0.0086
2410.00,0.0086
2409.00,0.0085
2408.00,0.0084
2407.00,0.0084
2406.00,0.0084
2405.00,0.0084
2404.00,0.0084
2403.00,0.0084
2402.00,0.0084
2401.00,0.0083
2400.00,0.0083
2399.00,0.0083
2398.00,0.0083
2397.00,0.0083
2396.00,0.0083
2395.00,0.0083
2394.00,0.0083
2393.00,0.0083
2392.00,0.0083
2391.00,0.0083
2390.00,0.0083
2389.00,0.0082
2388.00,0.0082
2387.00,0.0081
2386.00,0.0081
2385.00,0.0080
2384.00,0.0080
2383.00,0.0080
2382.00,0.0079
2381.00,0.0078
2380.00,0.0077
2379.00,0.0077
2378.00,0.0077
2377.00,0.0077
2376.00,0.0078
2375.00,0.0078
2374.00,0.0078
2373.00,0.0077
2372.00,0.0077
2371.00,0.0077
2370.00,0.0077
2369.00,0.0077
2368.00,0.0076
2367.00,0.0076
2366.00,0.0077
2365.00,0.0077
2364.00,0.0078
2363.00,0.0078
2362.00,0.0078
2361.00,0.0077
2360.00,0.0077
2359.00,0.0076
2358.00,0.0076
2357.00,0.0077
2356.00,0.0077
2355.00,0.0077
2354.00,0.0077
2353.00,0.0077
2352.00,0.0077
2351.00,0.0077
2350.00,0.0077
2349.00,0.0077
2348.00,0.0077
2347.00,0.0078
2346.00,0.0078
2345.00,0.0079
2344.00,0.0079
2343.00,0.0079
2342.00,0.0079
2341.00,0.0079
2340.00,0.0080
2339.00,0.0080
2338.00,0.0080
2337.00,0.0080
2336.00,0.0080
2335.00,0.0079
2334.00,0.0079
2333.00,0.0079
2332.00,0.0079
2331.00,0.0079
2330.00,0.0079
2329.00,0.0081
2328.00,0.0084
2327.00,0.0088
2326.00,0.0092
2325.00,0.0093
2324.00,0.0092
2323.00,0.0090
2322.00,0.0088
2321.00,0.0087
2320.00,0.0086
2319.00,0.0085
2318.00,0.0084
2317.00,0.0083
2316.00,0.0082
2315.00,0.0082
2314.00,0.0082
2313.00,0.0081
2312.00,0.0081
2311.00,0.0080
2310.00,0.0080
2309.00,0.0080
2308.00,0.0081
2307.00,0.0081
2306.00,0.0082
2305.00,0.0082
2304.00,0.0082
2303.00,0.0083
2302.00,0.0083
2301.00,0.0083
2300.00,0.0083
2299.00,0.0083
2298.00,0.0083
2297.00,0.0084
2296.00,0.0084
2295.00,0.0085
2294.00,0.0086
2293.00,0.0087
2292.00,0.0088
2291.00,0.0089
2290.00,0.0089
2289.00,0.0089
2288.00,0.0089
2287.00,0.0090
2286.00,0.0089
2285.00,0.0089
2284.00,0.0088
2283.00,0.0088
2282.00,0.0087
2281.00,0.0087
2280.00,0.0087
2279.00,0.0087
2278.00,0.0086
2277.00,0.0085
2276.00,0.0085
2275.00,0.0084
2274.00,0.0084
2273.00,0.0084
2272.00,0.0084
2271.00,0.0084
2270.00,0.0084
2269.00,0.0083
2268.00,0.0082
2267.00,0.0081
2266.00,0.0080
2265.00,0.0080
2264.00,0.0080
2263.00,0.0081
2262.00,0.0081
2261.00,0.0082
2260.00,0.0082
2259.00,0.0082
2258.00,0.0082
2257.00,0.0080
2256.00,0.0079
2255.00,0.0078
2254.00,0.0078
2253.00,0.0078
2252.00,0.0078
2251.00,0.0078
2250.00,0.0079
2249.00,0.0079
2248.00,0.0080
2247.00,0.0080
2246.00,0.0079
2245.00,0.0079
2244.00,0.0079
2243.00,0.0080
2242.00,0.0080
2241.00,0.0080
2240.00,0.0080
2239.00,0.0079
2238.00,0.0079
2237.00,0.0079
2236.00,0.0079
2235.00,0.0078
2234.00,0.0078
2233.00,0.0079
2232.00,0.0079
2231.00,0.0079
2230.00,0.0079
2229.00,0.0079
2228.00,0.0079
2227.00,0.0079
2226.00,0.0080
2225.00,0.0080
2224.00,0.0079
2223.00,0.0078
2222.00,0.0077
2221.00,0.0077
2220.00,0.0077
2219.00,0.0077
2218.00,0.0077
2217.00,0.0077
2216.00,0.0077
2215.00,0.0077
2214.00,0.0077
2213.00,0.0077
2212.00,0.0078
2211.00,0.0078
2210.00,0.0079
2209.00,0.0079
2208.00,0.0078
2207.00,0.0077
2206.00,0.0077
2205.00,0.0077
2204.00,0.0078
2203.00,0.0078
2202.00,0.0079
2201.00,0.0079
2200.00,0.0078
2199.00,0.0077
2198.00,0.0076
2197.00,0.0076
2196.00,0.0078
2195.00,0.0080
2194.00,0.0082
2193.00,0.0082
2192.00,0.0082
2191.00,0.0081
2190.00,0.0080
2189.00,0.0081
2188.00,0.0081
2187.00,0.0082
2186.00,0.0081
2185.00,0.0079
2184.00,0.0077
2183.00,0.0074
2182.00,0.0071
2181.00,0.0070
2180.00,0.0071
2179.00,0.0071
2178.00,0.0071
2177.00,0.0070
2176.00,0.0069
2175.00,0.0068
2174.00,0.0068
2173.00,0.0069
2172.00,0.0071
2171.00,0.0074
2170.00,0.0077
2169.00,0.0080
2168.00,0.0082
2167.00,0.0083
2166.00,0.0083
2165.00,0.0084
2164.00,0.0086
2163.00,0.0086
2162.00,0.0081
2161.00,0.0069
2160.00,0.0055
2159.00,0.0043
2158.00,0.0037
2157.00,0.0038
2156.00,0.0041
2155.00,0.0045
2154.00,0.0047
2153.00,0.0049
2152.00,0.0051
2151.00,0.0052
2150.00,0.0053
2149.00,0.0054
2148.00,0.0054
2147.00,0.0054
2146.00,0.0054
2145.00,0.0054
2144.00,0.0055
2143.00,0.0055
2142.00,0.0056
2141.00,0.0057
2140.00,0.0057
2139.00,0.0057
2138.00,0.0057
2137.00,0.0056
2136.00,0.0054
2135.00,0.0053
2134.00,0.0052
2133.00,0.0052
2132.00,0.0054
2131.00,0.0056
2130.00,0.0057
2129.00,0.0058
2128.00,0.0059
2127.00,0.0060
2126.00,0.0061
2125.00,0.0062
2124.00,0.0063
2123.00,0.0064
2122.00,0.0065
2121.00,0.0066
2120.00,0.0067
2119.00,0.0067
2118.00,0.0068
2117.00,0.0069
2116.00,0.0070
2115.00,0.0071
2114.00,0.0071
2113.00,0.0071
2112.00,0.0071
2111.00,0.0071
2110.00,0.0071
2109.00,0.0071
2108.00,0.0071
2107.00,0.0071
2106.00,0.0071
2105.00,0.0071
2104.00,0.0071
2103.00,0.0070
2102.00,0.0070
2101.00,0.0070
2100.00,0.0070
2099.00,0.0069
2098.00,0.0068
2097.00,0.0067
2096.00,0.0065
2095.00,0.0064
2094.00,0.0065
2093.00,0.0066
2092.00,0.0067
2091.00,0.0068
2090.00,0.0068
2089.00,0.0068
2088.00,0.0068
2087.00,0.0068
2086.00,0.0068
2085.00,0.0069
2084.00,0.0070
2083.00,0.0070
2082.00,0.0071
2081.00,0.0071
2080.00,0.0072
2079.00,0.0072
2078.00,0.0072
2077.00,0.0071
2076.00,0.0070
2075.00,0.0069
2074.00,0.0069
2073.00,0.0070
2072.00,0.0070
2071.00,0.0070
2070.00,0.0069
2069.00,0.0069
2068.00,0.0069
2067.00,0.0069
2066.00,0.0069
2065.00,0.0068
2064.00,0.0068
2063.00,0.0067
2062.00,0.0066
2061.00,0.0065
2060.00,0.0065
2059.00,0.0065
2058.00,0.0066
2057.00,0.0067
2056.00,0.0067
2055.00,0.0068
2054.00,0.0070
2053.00,0.0073
2052.00,0.0076
2051.00,0.0076
2050.00,0.0073
2049.00,0.0069
2048.00,0.0067
2047.00,0.0065
2046.00,0.0065
2045.00,0.0065
2044.00,0.0066
2043.00,0.0067
2042.00,0.0067
2041.00,0.0068
2040.00,0.0068
2039.00,0.0069
2038.00,0.0069
2037.00,0.0069
2036.00,0.0068
2035.00,0.0066
2034.00,0.0063
2033.00,0.0061
2032.00,0.0061
2031.00,0.0060
2030.00,0.0060
2029.00,0.0059
2028.00,0.0059
2027.00,0.0059
2026.00,0.0060
2025.00,0.0060
2024.00,0.0061
2023.00,0.0060
2022.00,0.0059
2021.00,0.0059
2020.00,0.0058
2019.00,0.0059
2018.00,0.0059
2017.00,0.0060
2016.00,0.0060
2015.00,0.0060
2014.00,0.0059
2013.00,0.0058
2012.00,0.0057
2011.00,0.0057
2010.00,0.0056
2009.00,0.0054
2008.00,0.0052
2007.00,0.0050
2006.00,0.0050
2005.00,0.0052
2004.00,0.0053
2003.00,0.0054
2002.00,0.0053
2001.00,0.0054
2000.00,0.0055
1999.00,0.0058
1998.00,0.0060
1997.00,0.0061
1996.00,0.0062
1995.00,0.0062
1994.00,0.0062
1993.00,0.0062
1992.00,0.0063
1991.00,0.0064
1990.00,0.0064
1989.00,0.0065
1988.00,0.0065
1987.00,0.0066
1986.00,0.0066
1985.00,0.0067
1984.00,0.0068
1983.00,0.0070
1982.00,0.0073
1981.00,0.0074
1980.00,0.0072
1979.00,0.0067
1978.00,0.0060
1977.00,0.0055
1976.00,0.0052
1975.00,0.0050
1974.00,0.0049
1973.00,0.0049
1972.00,0.0050
1971.00,0.0051
1970.00,0.0051
1969.00,0.0052
1968.00,0.0052
1967.00,0.0052
1966.00,0.0051
1965.00,0.0051
1964.00,0.0051
1963.00,0.0051
1962.00,0.0051
1961.00,0.0050
1960.00,0.0049
1959.00,0.0049
1958.00,0.0049
1957.00,0.0050
1956.00,0.0051
1955.00,0.0052
1954.00,0.0052
1953.00,0.0053
1952.00,0.0053
1951.00,0.0052
1950.00,0.0051
1949.00,0.0050
1948.00,0.0050
1947.00,0.0050
1946.00,0.0051
1945.00,0.0051
1944.00,0.0051
1943.00,0.0051
1942.00,0.0051
1941.00,0.0051
1940.00,0.0051
1939.00,0.0051
1938.00,0.0051
1937.00,0.0052
1936.00,0.0053
1935.00,0.0053
1934.00,0.0053
1933.00,0.0052
1932.00,0.0052
1931.00,0.0052
1930.00,0.0053
1929.00,0.0053
1928.00,0.0054
1927.00,0.0054
1926.00,0.0053
1925.00,0.0053
1924.00,0.0053
1923.00,0.0054
1922.00,0.0053
1921.00,0.0054
1920.00,0.0054
1919.00,0.0054
1918.00,0.0054
1917.00,0.0054
1916.00,0.0054
1915.00,0.0054
1914.00,0.0054
1913.00,0.0054
1912.00,0.0054
1911.00,0.0054
1910.00,0.0055
1909.00,0.0055
1908.00,0.0056
1907.00,0.0056
1906.00,0.0056
1905.00,0.0055
1904.00,0.0055
1903.00,0.0055
1902.00,0.0055
1901.00,0.0055
1900.00,0.0055
1899.00,0.0054
1898.00,0.0054
1897.00,0.0054
1896.00,0.0055
1895.00,0.0056
1894.00,0.0056
1893.00,0.0055
1892.00,0.0055
1891.00,0.0055
1890.00,0.0055
1889.00,0.0055
1888.00,0.0055
1887.00,0.0055
1886.00,0.0055
1885.00,0.0055
1884.00,0.0055
1883.00,0.0055
1882.00,0.0055
1881.00,0.0055
1880.00,0.0055
1879.00,0.0055
1878.00,0.0054
1877.00,0.0054
1876.00,0.0054
1875.00,0.0054
1874.00,0.0054
1873.00,0.0054
1872.00,0.0054
1871.00,0.0054
1870.00,0.0054
1869.00,0.0054
1868.00,0.0054
1867.00,0.0053
1866.00,0.0053
1865.00,0.0053
1864.00,0.0054
1863.00,0.0054
1862.00,0.0054
1861.00,0.0054
1860.00,0.0054
1859.00,0.0053
1858.00,0.0053
1857.00,0.0053
1856.00,0.0054
1855.00,0.0054
1854.00,0.0054
1853.00,0.0054
1852.00,0.0054
1851.00,0.0053
1850.00,0.0053
1849.00,0.0053
1848.00,0.0053
1847.00,0.0053
1846.00,0.0053
1845.00,0.0054
1844.00,0.0054
1843.00,0.0054
1842.00,0.0053
1841.00,0.0053
1840.00,0.0053
1839.00,0.0054
1838.00,0.0054
1837.00,0.0055
1836.00,0.0055
1835.00,0.0054
1834.00,0.0054
1833.00,0.0053
1832.00,0.0053
1831.00,0.0054
1830.00,0.0054
1829.00,0.0054
1828.00,0.0054
1827.00,0.0054
1826.00,0.0054
1825.00,0.0054
1824.00,0.0055
1823.00,0.0055
1822.00,0.0054
1821.00,0.0054
1820.00,0.0053
1819.00,0.0052
1818.00,0.0051
1817.00,0.0051
1816.00,0.0052
1815.00,0.0053
1814.00,0.0054
1813.00,0.0054
1812.00,0.0055
1811.00,0.0055
1810.00,0.0055
1809.00,0.0056
1808.00,0.0056
1807.00,0.0056
1806.00,0.0056
1805.00,0.0056
1804.00,0.0056
1803.00,0.0055
1802.00,0.0055
1801.00,0.0055
1800.00,0.0056
1799.00,0.0056
1798.00,0.0056
1797.00,0.0056
1796.00,0.0056
1795.00,0.0056
1794.00,0.0056
1793.00,0.0056
1792.00,0.0056
1791.00,0.0056
1790.00,0.0056
1789.00,0.0056
1788.00,0.0056
1787.00,0.0056
1786.00,0.0056
1785.00,0.0056
1784.00,0.0057
1783.00,0.0057
1782.00,0.0057
1781.00,0.0057
1780.00,0.0057
1779.00,0.0057
1778.00,0.0057
1777.00,0.0057
1776.00,0.0058
1775.00,0.0058
1774.00,0.0059
1773.00,0.0060
1772.00,0.0060
1771.00,0.0059
1770.00,0.0058
1769.00,0.0058
1768.00,0.0059
1767.00,0.0059
1766.00,0.0059
1765.00,0.0060
1764.00,0.0060
1763.00,0.0060
1762.00,0.0061
1761.00,0.0061
1760.00,0.0061
1759.00,0.0061
1758.00,0.0061
1757.00,0.0062
1756.00,0.0062
1755.00,0.0062
1754.00,0.0063
1753.00,0.0063
1752.00,0.0064
1751.00,0.0064
1750.00,0.0065
1749.00,0.0066
1748.00,0.0067
1747.00,0.0068
1746.00,0.0069
1745.00,0.0070
1744.00,0.0072
1743.00,0.0073
1742.00,0.0074
1741.00,0.0076
1740.00,0.0077
1739.00,0.0079
1738.00,0.0079
1737.00,0.0080
1736.00,0.0081
1735.00,0.0083
1734.00,0.0085
1733.00,0.0087
1732.00,0.0089
1731.00,0.0089
1730.00,0.0089
1729.00,0.0090
1728.00,0.0090
1727.00,0.0090
1726.00,0.0090
1725.00,0.0090
1724.00,0.0091
1723.00,0.0093
1722.00,0.0093
1721.00,0.0094
1720.00,0.0096
1719.00,0.0100
1718.00,0.0103
1717.00,0.0107
1716.00,0.0110
1715.00,0.0113
1714.00,0.0115
1713.00,0.0119
1712.00,0.0124
1711.00,0.0129
1710.00,0.0135
1709.00,0.0142
1708.00,0.0150
1707.00,0.0159
1706.00,0.0169
1705.00,0.0181
1704.00,0.0192
1703.00,0.0202
1702.00,0.0212
1701.00,0.0228
1700.00,0.0251
1699.00,0.0272
1698.00,0.0287
1697.00,0.0302
1696.00,0.0319
1695.00,0.0335
1694.00,0.0347
1693.00,0.0356
1692.00,0.0365
1691.00,0.0376
1690.00,0.0387
1689.00,0.0400
1688.00,0.0412
1687.00,0.0423
1686.00,0.0433
1685.00,0.0447
1684.00,0.0465
1683.00,0.0481
1682.00,0.0493
1681.00,0.0503
1680.00,0.0514
1679.00,0.0526
1678.00,0.0537
1677.00,0.0548
1676.00,0.0560
1675.00,0.0576
1674.00,0.0592
1673.00,0.0605
1672.00,0.0617
1671.00,0.0629
1670.00,0.0643
1669.00,0.0661
1668.00,0.0678
1667.00,0.0693
1666.00,0.0705
1665.00,0.0717
1664.00,0.0731
1663.00,0.0747
1662.00,0.0765
1661.00,0.0782
1660.00,0.0798
1659.00,0.0813
1658.00,0.0827
1657.00,0.0840
1656.00,0.0851
1655.00,0.0861
1654.00,0.0876
1653.00,0.0900
1652.00,0.0925
1651.00,0.0939
1650.00,0.0944
1649.00,0.0946
1648.00,0.0949
1647.00,0.0958
1646.00,0.0968
1645.00,0.0978
1644.00,0.0985
1643.00,0.0989
1642.00,0.0991
1641.00,0.0993
1640.00,0.0996
1639.00,0.0998
1638.00,0.0998
1637.00,0.0997
1636.00,0.0998
1635.00,0.1001
1634.00,0.1004
1633.00,0.1005
1632.00,0.1003
1631.00,0.0999
1630.00,0.0993
1629.00,0.0986
1628.00,0.0979
1627.00,0.0973
1626.00,0.0966
1625.00,0.0956
1624.00,0.0944
1623.00,0.0931
1622.00,0.0918
1621.00,0.0906
1620.00,0.0892
1619.00,0.0875
1618.00,0.0855
1617.00,0.0832
1616.00,0.0810
1615.00,0.0788
1614.00,0.0768
1613.00,0.0746
1612.00,0.0723
1611.00,0.0699
1610.00,0.0677
1609.00,0.0655
1608.00,0.0634
1607.00,0.0615
1606.00,0.0597
1605.00,0.0581
1604.00,0.0566
1603.00,0.0551
1602.00,0.0539
1601.00,0.0528
1600.00,0.0518
1599.00,0.0509
1598.00,0.0501
1597.00,0.0494
1596.00,0.0488
1595.00,0.0482
1594.00,0.0477
1593.00,0.0473
1592.00,0.0469
1591.00,0.0466
1590.00,0.0464
1589.00,0.0462
1588.00,0.0461
1587.00,0.0460
1586.00,0.0459
1585.00,0.0460
1584.00,0.0461
1583.00,0.0462
1582.00,0.0464
1581.00,0.0468
1580.00,0.0470
1579.00,0.0473
1578.00,0.0477
1577.00,0.0483
1576.00,0.0489
1575.00,0.0495
1574.00,0.0500
1573.00,0.0503
1572.00,0.0505
1571.00,0.0508
1570.00,0.0514
1569.00,0.0524
1568.00,0.0532
1567.00,0.0539
1566.00,0.0547
1565.00,0.0555
1564.00,0.0564
1563.00,0.0572
1562.00,0.0579
1561.00,0.0585
1560.00,0.0593
1559.00,0.0611
1558.00,0.0633
1557.00,0.0648
1556.00,0.0658
1555.00,0.0667
1554.00,0.0678
1553.00,0.0690
1552.00,0.0701
1551.00,0.0711
1550.00,0.0724
1549.00,0.0737
1548.00,0.0749
1547.00,0.0758
1546.00,0.0767
1545.00,0.0777
1544.00,0.0788
1543.00,0.0799
1542.00,0.0809
1541.00,0.0819
1540.00,0.0832
1539.00,0.0843
1538.00,0.0851
1537.00,0.0855
1536.00,0.0855
1535.00,0.0855
1534.00,0.0857
1533.00,0.0863
1532.00,0.0870
1531.00,0.0874
1530.00,0.0877
1529.00,0.0878
1528.00,0.0879
1527.00,0.0881
1526.00,0.0884
1525.00,0.0888
1524.00,0.0890
1523.00,0.0891
1522.00,0.0893
1521.00,0.0898
1520.00,0.0904
1519.00,0.0907
1518.00,0.0908
1517.00,0.0909
1516.00,0.0910
1515.00,0.0910
1514.00,0.0906
1513.00,0.0899
1512.00,0.0890
1511.00,0.0881
1510.00,0.0871
1509.00,0.0860
1508.00,0.0847
1507.00,0.0834
1506.00,0.0822
1505.00,0.0812
1504.00,0.0801
1503.00,0.0788
1502.00,0.0774
1501.00,0.0758
1500.00,0.0743
1499.00,0.0727
1498.00,0.0712
1497.00,0.0696
1496.00,0.0679
1495.00,0.0662
1494.00,0.0646
1493.00,0.0629
1492.00,0.0611
1491.00,0.0592
1490.00,0.0574
1489.00,0.0558
1488.00,0.0543
1487.00,0.0530
1486.00,0.0517
1485.00,0.0505
1484.00,0.0494
1483.00,0.0484
1482.00,0.0474
1481.00,0.0466
1480.00,0.0459
1479.00,0.0454
1478.00,0.0449
1477.00,0.0446
1476.00,0.0444
1475.00,0.0445
1474.00,0.0447
1473.00,0.0450
1472.00,0.0456
1471.00,0.0461
1470.00,0.0464
1469.00,0.0465
1468.00,0.0464
1467.00,0.0463
1466.00,0.0462
1465.00,0.0462
1464.00,0.0462
1463.00,0.0463
1462.00,0.0464
1461.00,0.0464
1460.00,0.0464
1459.00,0.0466
1458.00,0.0470
1457.00,0.0477
1456.00,0.0484
1455.00,0.0489
1454.00,0.0491
1453.00,0.0492
1452.00,0.0492
1451.00,0.0494
1450.00,0.0494
1449.00,0.0494
1448.00,0.0495
1447.00,0.0495
1446.00,0.0495
1445.00,0.0494
1444.00,0.0491
1443.00,0.0489
1442.00,0.0486
1441.00,0.0482
1440.00,0.0477
1439.00,0.0472
1438.00,0.0465
1437.00,0.0459
1436.00,0.0455
1435.00,0.0451
1434.00,0.0447
1433.00,0.0442
1432.00,0.0435
1431.00,0.0430
1430.00,0.0427
1429.00,0.0424
1428.00,0.0422
1427.00,0.0420
1426.00,0.0419
1425.00,0.0420
1424.00,0.0421
1423.00,0.0423
1422.00,0.0426
1421.00,0.0427
1420.00,0.0429
1419.00,0.0434
1418.00,0.0439
1417.00,0.0443
1416.00,0.0447
1415.00,0.0450
1414.00,0.0452
1413.00,0.0455
1412.00,0.0458
1411.00,0.0461
1410.00,0.0463
1409.00,0.0466
1408.00,0.0467
1407.00,0.0469
1406.00,0.0471
1405.00,0.0473
1404.00,0.0476
1403.00,0.0478
1402.00,0.0480
1401.00,0.0481
1400.00,0.0482
1399.00,0.0483
1398.00,0.0485
1397.00,0.0486
1396.00,0.0487
1395.00,0.0489
1394.00,0.0491
1393.00,0.0492
1392.00,0.0493
1391.00,0.0493
1390.00,0.0492
1389.00,0.0490
1388.00,0.0488
1387.00,0.0486
1386.00,0.0483
1385.00,0.0480
1384.00,0.0475
1383.00,0.0471
1382.00,0.0466
1381.00,0.0461
1380.00,0.0456
1379.00,0.0451
1378.00,0.0446
1377.00,0.0441
1376.00,0.0437
1375.00,0.0432
1374.00,0.0429
1373.00,0.0426
1372.00,0.0423
1371.00,0.0421
1370.00,0.0418
1369.00,0.0415
1368.00,0.0411
1367.00,0.0407
1366.00,0.0401
1365.00,0.0396
1364.00,0.0390
1363.00,0.0385
1362.00,0.0382
1361.00,0.0379
1360.00,0.0377
1359.00,0.0376
1358.00,0.0374
1357.00,0.0373
1356.00,0.0372
1355.00,0.0371
1354.00,0.0371
1353.00,0.0370
1352.00,0.0370
1351.00,0.0370
1350.00,0.0370
1349.00,0.0371
1348.00,0.0371
1347.00,0.0372
1346.00,0.0372
1345.00,0.0372
1344.00,0.0372
1343.00,0.0372
1342.00,0.0372
1341.00,0.0372
1340.00,0.0372
1339.00,0.0373
1338.00,0.0374
1337.00,0.0375
1336.00,0.0375
1335.00,0.0375
1334.00,0.0375
1333.00,0.0375
1332.00,0.0374
1331.00,0.0374
1330.00,0.0374
1329.00,0.0374
1328.00,0.0374
1327.00,0.0375
1326.00,0.0376
1325.00,0.0377
1324.00,0.0379
1323.00,0.0381
1322.00,0.0383
1321.00,0.0385
1320.00,0.0386
1319.00,0.0388
1318.00,0.0389
1317.00,0.0390
1316.00,0.0391
1315.00,0.0391
1314.00,0.0392
1313.00,0.0392
1312.00,0.0393
1311.00,0.0394
1310.00,0.0394
1309.00,0.0394
1308.00,0.0394
1307.00,0.0394
1306.00,0.0395
1305.00,0.0395
1304.00,0.0394
1303.00,0.0394
1302.00,0.0394
1301.00,0.0394
1300.00,0.0394
1299.00,0.0394
1298.00,0.0395
1297.00,0.0395
1296.00,0.0396
1295.00,0.0397
1294.00,0.0398
1293.00,0.0399
1292.00,0.0400
1291.00,0.0402
1290.00,0.0403
1289.00,0.0405
1288.00,0.0406
1287.00,0.0408
1286.00,0.0409
1285.00,0.0411
1284.00,0.0412
1283.00,0.0413
1282.00,0.0413
1281.00,0.0414
1280.00,0.0414
1279.00,0.0414
1278.00,0.0415
1277.00,0.0415
1276.00,0.0415
1275.00,0.0416
1274.00,0.0416
1273.00,0.0417
1272.00,0.0418
1271.00,0.0419
1270.00,0.0421
1269.00,0.0423
1268.00,0.0425
1267.00,0.0428
1266.00,0.0431
1265.00,0.0434
1264.00,0.0437
1263.00,0.0439
1262.00,0.0441
1261.00,0.0443
1260.00,0.0445
1259.00,0.0447
1258.00,0.0449
1257.00,0.0450
1256.00,0.0451
1255.00,0.0453
1254.00,0.0454
1253.00,0.0455
1252.00,0.0456
1251.00,0.0458
1250.00,0.0460
1249.00,0.0462
1248.00,0.0465
1247.00,0.0468
1246.00,0.0471
1245.00,0.0474
1244.00,0.0476
1243.00,0.0478
1242.00,0.0479
1241.00,0.0480
1240.00,0.0481
1239.00,0.0481
1238.00,0.0482
1237.00,0.0482
1236.00,0.0483
1235.00,0.0483
1234.00,0.0483
1233.00,0.0483
1232.00,0.0483
1231.00,0.0482
1230.00,0.0481
1229.00,0.0480
1228.00,0.0478
1227.00,0.0476
1226.00,0.0473
1225.00,0.0470
1224.00,0.0467
1223.00,0.0465
1222.00,0.0462
1221.00,0.0458
1220.00,0.0455
1219.00,0.0451
1218.00,0.0447
1217.00,0.0443
1216.00,0.0438
1215.00,0.0433
1214.00,0.0428
1213.00,0.0423
1212.00,0.0418
1211.00,0.0413
1210.00,0.0408
1209.00,0.0404
1208.00,0.0400
1207.00,0.0395
1206.00,0.0391
1205.00,0.0386
1204.00,0.0381
1203.00,0.0375
1202.00,0.0371
1201.00,0.0366
1200.00,0.0362
1199.00,0.0359
1198.00,0.0356
1197.00,0.0353
1196.00,0.0351
1195.00,0.0348
1194.00,0.0345
1193.00,0.0343
1192.00,0.0341
1191.00,0.0338
1190.00,0.0337
1189.00,0.0335
1188.00,0.0333
1187.00,0.0332
1186.00,0.0332
1185.00,0.0332
1184.00,0.0332
1183.00,0.0333
1182.00,0.0335
1181.00,0.0336
1180.00,0.0338
1179.00,0.0339
1178.00,0.0341
1177.00,0.0343
1176.00,0.0345
1175.00,0.0347
1174.00,0.0349
1173.00,0.0351
1172.00,0.0351
1171.00,0.0351
1170.00,0.0350
1169.00,0.0349
1168.00,0.0348
1167.00,0.0347
1166.00,0.0346
1165.00,0.0345
1164.00,0.0344
1163.00,0.0344
1162.00,0.0344
1161.00,0.0344
1160.00,0.0344
1159.00,0.0344
1158.00,0.0344
1157.00,0.0344
1156.00,0.0342
1155.00,0.0341
1154.00,0.0340
1153.00,0.0338
1152.00,0.0336
1151.00,0.0334
1150.00,0.0332
1149.00,0.0330
1148.00,0.0326
1147.00,0.0323
1146.00,0.0321
1145.00,0.0319
1144.00,0.0317
1143.00,0.0315
1142.00,0.0315
1141.00,0.0314
1140.00,0.0314
1139.00,0.0314
1138.00,0.0314
1137.00,0.0315
1136.00,0.0316
1135.00,0.0317
1134.00,0.0319
1133.00,0.0321
1132.00,0.0323
1131.00,0.0326
1130.00,0.0328
1129.00,0.0331
1128.00,0.0333
1127.00,0.0335
1126.00,0.0337
1125.00,0.0338
1124.00,0.0339
1123.00,0.0340
1122.00,0.0342
1121.00,0.0343
1120.00,0.0344
1119.00,0.0346
1118.00,0.0348
1117.00,0.0349
1116.00,0.0350
1115.00,0.0351
1114.00,0.0353
1113.00,0.0354
1112.00,0.0356
1111.00,0.0357
1110.00,0.0359
1109.00,0.0360
1108.00,0.0361
1107.00,0.0363
1106.00,0.0364
1105.00,0.0366
1104.00,0.0366
1103.00,0.0367
1102.00,0.0369
1101.00,0.0370
1100.00,0.0370
1099.00,0.0370
1098.00,0.0370
1097.00,0.0370
1096.00,0.0369
1095.00,0.0369
1094.00,0.0370
1093.00,0.0370
1092.00,0.0370
1091.00,0.0370
1090.00,0.0372
1089.00,0.0373
1088.00,0.0375
1087.00,0.0377
1086.00,0.0379
1085.00,0.0381
1084.00,0.0383
1083.00,0.0384
1082.00,0.0386
1081.00,0.0388
1080.00,0.0389
1079.00,0.0390
1078.00,0.0392
1077.00,0.0393
1076.00,0.0393
1075.00,0.0393
1074.00,0.0393
1073.00,0.0393
1072.00,0.0393
1071.00,0.0393
1070.00,0.0393
1069.00,0.0393
1068.00,0.0392
1067.00,0.0392
1066.00,0.0392
1065.00,0.0392
1064.00,0.0392
1063.00,0.0392
1062.00,0.0392
1061.00,0.0392
1060.00,0.0392
1059.00,0.0392
1058.00,0.0392
1057.00,0.0392
1056.00,0.0392
1055.00,0.0392
1054.00,0.0392
1053.00,0.0391
1052.00,0.0390
1051.00,0.0389
1050.00,0.0389
1049.00,0.0389
1048.00,0.0388
1047.00,0.0388
1046.00,0.0387
1045.00,0.0385
1044.00,0.0382
1043.00,0.0379
1042.00,0.0377
1041.00,0.0374
1040.00,0.0371
1039.00,0.0368
1038.00,0.0366
1037.00,0.0364
1036.00,0.0361
1035.00,0.0358
1034.00,0.0356
1033.00,0.0353
1032.00,0.0349
1031.00,0.0346
1030.00,0.0343
1029.00,0.0340
1028.00,0.0336
1027.00,0.0333
1026.00,0.0331
1025.00,0.0329
1024.00,0.0326
1023.00,0.0324
1022.00,0.0322
1021.00,0.0321
1020.00,0.0319
1019.00,0.0316
1018.00,0.0314
1017.00,0.0312
1016.00,0.0310
1015.00,0.0307
1014.00,0.0305
1013.00,0.0302
1012.00,0.0299
1011.00,0.0295
1010.00,0.0291
1009.00,0.0288
1008.00,0.0284
1007.00,0.0280
1006.00,0.0276
1005.00,0.0273
1004.00,0.0270
1003.00,0.0268
1002.00,0.0265
1001.00,0.0263
1000.00,0.0261
999.00,0.0258
998.00,0.0257
997.00,0.0255
996.00,0.0254
995.00,0.0253
994.00,0.0253
993.00,0.0252
992.00,0.0251
991.00,0.0249
990.00,0.0248
989.00,0.0247
988.00,0.0245
987.00,0.0244
986.00,0.0242
985.00,0.0241
984.00,0.0239
983.00,0.0238
982.00,0.0237
981.00,0.0236
980.00,0.0235
979.00,0.0234
978.00,0.0233
977.00,0.0232
976.00,0.0231
975.00,0.0229
974.00,0.0229
973.00,0.0228
972.00,0.0227
971.00,0.0226
970.00,0.0225
969.00,0.0224
968.00,0.0222
967.00,0.0221
966.00,0.0221
965.00,0.0221
964.00,0.0220
963.00,0.0220
962.00,0.0220
961.00,0.0219
960.00,0.0218
959.00,0.0217
958.00,0.0216
957.00,0.0216
956.00,0.0215
955.00,0.0214
954.00,0.0214
953.00,0.0214
952.00,0.0213
951.00,0.0213
950.00,0.0214
949.00,0.0215
948.00,0.0216
947.00,0.0217
946.00,0.0219
945.00,0.0221
944.00,0.0222
943.00,0.0223
942.00,0.0225
941.00,0.0226
940.00,0.0227
939.00,0.0228
938.00,0.0229
937.00,0.0231
936.00,0.0232
935.00,0.0234
934.00,0.0235
933.00,0.0235
932.00,0.0235
931.00,0.0235
930.00,0.0235
929.00,0.0234
928.00,0.0234
927.00,0.0233
926.00,0.0232
925.00,0.0231
924.00,0.0229
923.00,0.0228
922.00,0.0227
921.00,0.0226
920.00,0.0224
919.00,0.0223
918.00,0.0222
917.00,0.0220
916.00,0.0219
915.00,0.0218
914.00,0.0217
913.00,0.0217
912.00,0.0216
911.00,0.0215
910.00,0.0216
909.00,0.0216
908.00,0.0216
907.00,0.0216
906.00,0.0217
905.00,0.0218
904.00,0.0218
903.00,0.0217
902.00,0.0217
901.00,0.0217
900.00,0.0217
899.00,0.0217
898.00,0.0217
897.00,0.0216
896.00,0.0215
895.00,0.0213
894.00,0.0213
893.00,0.0212
892.00,0.0211
891.00,0.0211
890.00,0.0210
889.00,0.0209
888.00,0.0208
887.00,0.0208
886.00,0.0209
885.00,0.0210
884.00,0.0210
883.00,0.0210
882.00,0.0210
881.00,0.0210
880.00,0.0210
879.00,0.0211
878.00,0.0211
877.00,0.0211
876.00,0.0210
875.00,0.0209
874.00,0.0209
873.00,0.0209
872.00,0.0208
871.00,0.0208
870.00,0.0207
869.00,0.0207
868.00,0.0207
867.00,0.0207
866.00,0.0207
865.00,0.0208
864.00,0.0208
863.00,0.0209
862.00,0.0210
861.00,0.0211
860.00,0.0211
859.00,0.0212
858.00,0.0214
857.00,0.0216
856.00,0.0218
855.00,0.0219
854.00,0.0221
853.00,0.0222
852.00,0.0222
851.00,0.0223
850.00,0.0224
849.00,0.0224
848.00,0.0224
847.00,0.0225
846.00,0.0225
845.00,0.0226
844.00,0.0226
843.00,0.0226
842.00,0.0227
841.00,0.0229
840.00,0.0230
839.00,0.0232
838.00,0.0235
837.00,0.0237
836.00,0.0239
835.00,0.0240
834.00,0.0242
833.00,0.0245
832.00,0.0248
831.00,0.0250
830.00,0.0253
829.00,0.0255
828.00,0.0256
827.00,0.0256
826.00,0.0258
825.00,0.0259
824.00,0.0260
823.00,0.0261
822.00,0.0262
821.00,0.0263
820.00,0.0264
819.00,0.0264
818.00,0.0266
817.00,0.0267
816.00,0.0269
815.00,0.0270
814.00,0.0273
813.00,0.0274
812.00,0.0275
811.00,0.0276
810.00,0.0278
809.00,0.0280
808.00,0.0282
807.00,0.0284
806.00,0.0285
805.00,0.0286
804.00,0.0287
803.00,0.0288
802.00,0.0291
801.00,0.0293
800.00,0.0294
799.00,0.0296
798.00,0.0298
797.00,0.0300
796.00,0.0302
795.00,0.0303
794.00,0.0305
793.00,0.0307
792.00,0.0309
791.00,0.0310
790.00,0.0313
789.00,0.0315
788.00,0.0316
787.00,0.0318
786.00,0.0319
785.00,0.0321
784.00,0.0322
783.00,0.0323
782.00,0.0326
781.00,0.0327
780.00,0.0328
779.00,0.0329
778.00,0.0330
777.00,0.0331
776.00,0.0332
775.00,0.0333
774.00,0.0334
773.00,0.0335
772.00,0.0336
771.00,0.0336
770.00,0.0338
769.00,0.0340
768.00,0.0342
767.00,0.0343
766.00,0.0345
765.00,0.0346
764.00,0.0347
763.00,0.0348
762.00,0.0350
761.00,0.0352
760.00,0.0353
759.00,0.0355
758.00,0.0357
757.00,0.0360
756.00,0.0361
755.00,0.0363
754.00,0.0366
753.00,0.0368
752.00,0.0369
751.00,0.0371
750.00,0.0374
749.00,0.0377
748.00,0.0379
747.00,0.0380
746.00,0.0382
745.00,0.0384
744.00,0.0386
743.00,0.0388
742.00,0.0390
741.00,0.0392
740.00,0.0393
739.00,0.0394
738.00,0.0396
737.00,0.0398
736.00,0.0399
735.00,0.0401
734.00,0.0403
733.00,0.0405
732.00,0.0407
731.00,0.0409
730.00,0.0412
729.00,0.0416
728.00,0.0419
727.00,0.0422
726.00,0.0426
725.00,0.0429
724.00,0.0432
723.00,0.0436
722.00,0.0441
721.00,0.0446
720.00,0.0449
719.00,0.0453
718.00,0.0456
717.00,0.0459
716.00,0.0462
715.00,0.0465
714.00,0.0470
713.00,0.0474
712.00,0.0478
711.00,0.0483
710.00,0.0487
709.00,0.0491
708.00,0.0495
707.00,0.0500
706.00,0.0505
705.00,0.0510
704.00,0.0514
703.00,0.0518
702.00,0.0522
701.00,0.0526
700.00,0.0528
699.00,0.0529
698.00,0.0531
697.00,0.0532
696.00,0.0533
695.00,0.0533
694.00,0.0534
693.00,0.0534
692.00,0.0534
691.00,0.0534
690.00,0.0535
689.00,0.0537
688.00,0.0539
687.00,0.0541
686.00,0.0544
685.00,0.0546
684.00,0.0548
683.00,0.0549
682.00,0.0551
681.00,0.0553
680.00,0.0554
679.00,0.0556
678.00,0.0558
677.00,0.0561
676.00,0.0563
675.00,0.0564
674.00,0.0566
673.00,0.0568
672.00,0.0570
671.00,0.0572
670.00,0.0576
669.00,0.0581
668.00,0.0586
667.00,0.0588
666.00,0.0588
665.00,0.0586
664.00,0.0585
663.00,0.0586
662.00,0.0588
661.00,0.0590
660.00,0.0591
659.00,0.0591
658.00,0.0592
657.00,0.0593
656.00,0.0593
655.00,0.0594
654.00,0.0595
653.00,0.0596
652.00,0.0597
651.00,0.0597
650.00,0.0598
649.00,0.0598
648.00,0.0598
647.00,0.0599
646.00,0.0600
645.00,0.0601
644.00,0.0601
643.00,0.0601
642.00,0.0603
641.00,0.0605
640.00,0.0606
639.00,0.0607
638.00,0.0608
637.00,0.0610
636.00,0.0611
635.00,0.0612
634.00,0.0615
633.00,0.0616
632.00,0.0617
631.00,0.0618
630.00,0.0620
629.00,0.0622
628.00,0.0624
627.00,0.0625
626.00,0.0627
625.00,0.0629
624.00,0.0629
623.00,0.0630
622.00,0.0632
621.00,0.0634
620.00,0.0636
619.00,0.0637
618.00,0.0638
617.00,0.0638
616.00,0.0637
615.00,0.0637
614.00,0.0638
613.00,0.0638
612.00,0.0637
611.00,0.0635
610.00,0.0636
609.00,0.0637
608.00,0.0638
607.00,0.0640
606.00,0.0642
605.00,0.0643
604.00,0.0643
603.00,0.0644
602.00,0.0645
601.00,0.0646
600.00,0.0645
599.00,0.0644
598.00,0.0644
597.00,0.0645
596.00,0.0645
595.00,0.0646
594.00,0.0648
593.00,0.0650
592.00,0.0651
591.00,0.0652
590.00,0.0655
589.00,0.0657
588.00,0.0657
587.00,0.0657
586.00,0.0658
585.00,0.0660
584.00,0.0660
583.00,0.0661
582.00,0.0664
581.00,0.0667
580.00,0.0669
579.00,0.0672
578.00,0.0676
577.00,0.0678
576.00,0.0677
575.00,0.0677
574.00,0.0678
573.00,0.0679
572.00,0.0679
571.00,0.0679
570.00,0.0680
569.00,0.0680
568.00,0.0679
567.00,0.0679
566.00,0.0682
565.00,0.0686
564.00,0.0687
563.00,0.0688
562.00,0.0690
561.00,0.0692
560.00,0.0693
559.00,0.0694
558.00,0.0697
557.00,0.0699
556.00,0.0700
555.00,0.0702
554.00,0.0707
553.00,0.0711
552.00,0.0713
551.00,0.0713
550.00,0.0713
549.00,0.0711
548.00,0.0709
547.00,0.0708
546.00,0.0710
545.00,0.0711
544.00,0.0710
543.00,0.0710
542.00,0.0712
541.00,0.0715
540.00,0.0716
539.00,0.0717
538.00,0.0719
537.00,0.0721
536.00,0.0721
535.00,0.0721
534.00,0.0722
533.00,0.0722
532.00,0.0720
531.00,0.0719
530.00,0.0721
529.00,0.0721
528.00,0.0720
527.00,0.0720
526.00,0.0721
525.00,0.0723
524.00,0.0723
523.00,0.0724
522.00,0.0726
521.00,0.0727
520.00,0.0724
519.00,0.0722
518.00,0.0722
517.00,0.0723
516.00,0.0722
515.00,0.0722
514.00,0.0724
513.00,0.0725
512.00,0.0724
511.00,0.0722
510.00,0.0723
509.00,0.0724
508.00,0.0721
507.00,0.0719
506.00,0.0719
505.00,0.0720
504.00,0.0718
503.00,0.0716
502.00,0.0717
501.00,0.0718
500.00,0.0719
499.00,0.0719
498.00,0.0722
497.00,0.0723
496.00,0.0721
495.00,0.0721
494.00,0.0723
493.00,0.0726
492.00,0.0726
491.00,0.0726
490.00,0.0729
489.00,0.0734
488.00,0.0736
487.00,0.0737
486.00,0.0737
485.00,0.0736
484.00,0.0731
483.00,0.0728
482.00,0.0730
481.00,0.0732
480.00,0.0731
479.00,0.0731
478.00,0.0736
477.00,0.0739
476.00,0.0739
475.00,0.0737
474.00,0.0738
473.00,0.0739
472.00,0.0736
471.00,0.0734
470.00,0.0736
469.00,0.0737
468.00,0.0735
467.00,0.0732
466.00,0.0734
465.00,0.0734
464.00,0.0730
463.00,0.0724
462.00,0.0721
461.00,0.0717
460.00,0.0712
459.00,0.0709
458.00,0.0712
457.00,0.0714
456.00,0.0710
455.00,0.0705
454.00,0.0704
453.00,0.0704
452.00,0.0700
451.00,0.0696
450.00,0.0694
449.00,0.0689
448.00,0.0679
447.00,0.0671
446.00,0.0669
445.00,0.0668
444.00,0.0665
443.00,0.0662
442.00,0.0664
441.00,0.0662
440.00,0.0653
439.00,0.0646
438.00,0.0645
437.00,0.0644
436.00,0.0637
435.00,0.0628
434.00,0.0623
433.00,0.0617
432.00,0.0607
431.00,0.0600
430.00,0.0601
429.00,0.0604
428.00,0.0604
427.00,0.0605
426.00,0.0611
425.00,0.0615
424.00,0.0611
423.00,0.0604
422.00,0.0602
421.00,0.0600
420.00,0.0591
419.00,0.0588
418.00,0.0599
417.00,0.0607
416.00,0.0602
415.00,0.0596
414.00,0.0597
413.00,0.0599
412.00,0.0594
411.00,0.0589
410.00,0.0589
409.00,0.0586
408.00,0.0574
407.00,0.0565
406.00,0.0570
405.00,0.0577
404.00,0.0574
403.00,0.0570
402.00,0.0574
401.00,0.0575
400.00,0.0561
