Created as New Dataset,Sample 612 By YargerLab Date Thursday, June 05 2025
cm-1,A
4000.00,0.0060
3999.00,0.0060
3998.00,0.0060
3997.00,0.0060
3996.00,0.0060
3995.00,0.0059
3994.00,0.0059
3993.00,0.0059
3992.00,0.0059
3991.00,0.0059
3990.00,0.0059
3989.00,0.0059
3988.00,0.0059
3987.00,0.0059
3986.00,0.0059
3985.00,0.0059
3984.00,0.0060
3983.00,0.0060
3982.00,0.0060
3981.00,0.0060
3980.00,0.0059
3979.00,0.0059
3978.00,0.0059
3977.00,0.0059
3976.00,0.0059
3975.00,0.0059
3974.00,0.0059
3973.00,0.0059
3972.00,0.0059
3971.00,0.0059
3970.00,0.0059
3969.00,0.0059
3968.00,0.0059
3967.00,0.0059
3966.00,0.0059
3965.00,0.0059
3964.00,0.0059
3963.00,0.0059
3962.00,0.0059
3961.00,0.0059
3960.00,0.0059
3959.00,0.0059
3958.00,0.0059
3957.00,0.0059
3956.00,0.0059
3955.00,0.0059
3954.00,0.0059
3953.00,0.0059
3952.00,0.0058
3951.00,0.0058
3950.00,0.0058
3949.00,0.0058
3948.00,0.0058
3947.00,0.0058
3946.00,0.0058
3945.00,0.0058
3944.00,0.0058
3943.00,0.0058
3942.00,0.0059
3941.00,0.0059
3940.00,0.0059
3939.00,0.0058
3938.00,0.0058
3937.00,0.0058
3936.00,0.0058
3935.00,0.0058
3934.00,0.0058
3933.00,0.0058
3932.00,0.0058
3931.00,0.0058
3930.00,0.0058
3929.00,0.0058
3928.00,0.0058
3927.00,0.0058
3926.00,0.0058
3925.00,0.0058
3924.00,0.0058
3923.00,0.0058
3922.00,0.0058
3921.00,0.0058
3920.00,0.0057
3919.00,0.0057
3918.00,0.0057
3917.00,0.0057
3916.00,0.0057
3915.00,0.0058
3914.00,0.0058
3913.00,0.0058
3912.00,0.0058
3911.00,0.0058
3910.00,0.0058
3909.00,0.0058
3908.00,0.0058
3907.00,0.0058
3906.00,0.0058
3905.00,0.0057
3904.00,0.0057
3903.00,0.0057
3902.00,0.0056
3901.00,0.0056
3900.00,0.0056
3899.00,0.0056
3898.00,0.0056
3897.00,0.0057
3896.00,0.0057
3895.00,0.0057
3894.00,0.0057
3893.00,0.0057
3892.00,0.0057
3891.00,0.0057
3890.00,0.0057
3889.00,0.0057
3888.00,0.0056
3887.00,0.0056
3886.00,0.0056
3885.00,0.0056
3884.00,0.0056
3883.00,0.0056
3882.00,0.0055
3881.00,0.0055
3880.00,0.0055
3879.00,0.0056
3878.00,0.0056
3877.00,0.0055
3876.00,0.0055
3875.00,0.0055
3874.00,0.0056
3873.00,0.0056
3872.00,0.0055
3871.00,0.0054
3870.00,0.0054
3869.00,0.0055
3868.00,0.0055
3867.00,0.0055
3866.00,0.0054
3865.00,0.0054
3864.00,0.0055
3863.00,0.0055
3862.00,0.0055
3861.00,0.0055
3860.00,0.0055
3859.00,0.0056
3858.00,0.0056
3857.00,0.0057
3856.00,0.0057
3855.00,0.0057
3854.00,0.0056
3853.00,0.0055
3852.00,0.0055
3851.00,0.0054
3850.00,0.0054
3849.00,0.0054
3848.00,0.0054
3847.00,0.0054
3846.00,0.0054
3845.00,0.0055
3844.00,0.0055
3843.00,0.0055
3842.00,0.0055
3841.00,0.0054
3840.00,0.0054
3839.00,0.0053
3838.00,0.0053
3837.00,0.0053
3836.00,0.0054
3835.00,0.0054
3834.00,0.0054
3833.00,0.0054
3832.00,0.0054
3831.00,0.0054
3830.00,0.0055
3829.00,0.0055
3828.00,0.0055
3827.00,0.0054
3826.00,0.0055
3825.00,0.0055
3824.00,0.0054
3823.00,0.0053
3822.00,0.0053
3821.00,0.0053
3820.00,0.0053
3819.00,0.0053
3818.00,0.0053
3817.00,0.0053
3816.00,0.0053
3815.00,0.0054
3814.00,0.0055
3813.00,0.0055
3812.00,0.0055
3811.00,0.0055
3810.00,0.0055
3809.00,0.0055
3808.00,0.0055
3807.00,0.0054
3806.00,0.0054
3805.00,0.0054
3804.00,0.0053
3803.00,0.0053
3802.00,0.0053
3801.00,0.0053
3800.00,0.0054
3799.00,0.0053
3798.00,0.0053
3797.00,0.0053
3796.00,0.0054
3795.00,0.0055
3794.00,0.0055
3793.00,0.0055
3792.00,0.0055
3791.00,0.0056
3790.00,0.0056
3789.00,0.0056
3788.00,0.0056
3787.00,0.0056
3786.00,0.0056
3785.00,0.0055
3784.00,0.0055
3783.00,0.0055
3782.00,0.0055
3781.00,0.0055
3780.00,0.0055
3779.00,0.0055
3778.00,0.0055
3777.00,0.0055
3776.00,0.0055
3775.00,0.0055
3774.00,0.0055
3773.00,0.0055
3772.00,0.0055
3771.00,0.0055
3770.00,0.0055
3769.00,0.0055
3768.00,0.0055
3767.00,0.0054
3766.00,0.0054
3765.00,0.0054
3764.00,0.0054
3763.00,0.0054
3762.00,0.0054
3761.00,0.0054
3760.00,0.0053
3759.00,0.0054
3758.00,0.0054
3757.00,0.0053
3756.00,0.0053
3755.00,0.0053
3754.00,0.0053
3753.00,0.0053
3752.00,0.0052
3751.00,0.0052
3750.00,0.0052
3749.00,0.0051
3748.00,0.0051
3747.00,0.0051
3746.00,0.0051
3745.00,0.0050
3744.00,0.0051
3743.00,0.0051
3742.00,0.0051
3741.00,0.0050
3740.00,0.0050
3739.00,0.0049
3738.00,0.0049
3737.00,0.0049
3736.00,0.0049
3735.00,0.0049
3734.00,0.0050
3733.00,0.0050
3732.00,0.0050
3731.00,0.0050
3730.00,0.0051
3729.00,0.0051
3728.00,0.0051
3727.00,0.0052
3726.00,0.0052
3725.00,0.0052
3724.00,0.0052
3723.00,0.0052
3722.00,0.0052
3721.00,0.0053
3720.00,0.0053
3719.00,0.0053
3718.00,0.0053
3717.00,0.0053
3716.00,0.0053
3715.00,0.0053
3714.00,0.0052
3713.00,0.0052
3712.00,0.0051
3711.00,0.0051
3710.00,0.0051
3709.00,0.0051
3708.00,0.0052
3707.00,0.0052
3706.00,0.0053
3705.00,0.0053
3704.00,0.0053
3703.00,0.0053
3702.00,0.0053
3701.00,0.0053
3700.00,0.0054
3699.00,0.0053
3698.00,0.0053
3697.00,0.0053
3696.00,0.0053
3695.00,0.0053
3694.00,0.0053
3693.00,0.0053
3692.00,0.0053
3691.00,0.0052
3690.00,0.0052
3689.00,0.0052
3688.00,0.0051
3687.00,0.0051
3686.00,0.0051
3685.00,0.0052
3684.00,0.0052
3683.00,0.0052
3682.00,0.0052
3681.00,0.0052
3680.00,0.0052
3679.00,0.0051
3678.00,0.0051
3677.00,0.0050
3676.00,0.0050
3675.00,0.0050
3674.00,0.0050
3673.00,0.0049
3672.00,0.0049
3671.00,0.0049
3670.00,0.0050
3669.00,0.0051
3668.00,0.0051
3667.00,0.0052
3666.00,0.0052
3665.00,0.0052
3664.00,0.0053
3663.00,0.0053
3662.00,0.0053
3661.00,0.0054
3660.00,0.0054
3659.00,0.0054
3658.00,0.0054
3657.00,0.0054
3656.00,0.0054
3655.00,0.0054
3654.00,0.0054
3653.00,0.0053
3652.00,0.0052
3651.00,0.0052
3650.00,0.0052
3649.00,0.0052
3648.00,0.0052
3647.00,0.0053
3646.00,0.0054
3645.00,0.0054
3644.00,0.0055
3643.00,0.0056
3642.00,0.0057
3641.00,0.0058
3640.00,0.0058
3639.00,0.0059
3638.00,0.0059
3637.00,0.0059
3636.00,0.0059
3635.00,0.0059
3634.00,0.0060
3633.00,0.0060
3632.00,0.0061
3631.00,0.0061
3630.00,0.0060
3629.00,0.0060
3628.00,0.0061
3627.00,0.0061
3626.00,0.0061
3625.00,0.0062
3624.00,0.0063
3623.00,0.0063
3622.00,0.0064
3621.00,0.0064
3620.00,0.0064
3619.00,0.0065
3618.00,0.0065
3617.00,0.0064
3616.00,0.0064
3615.00,0.0064
3614.00,0.0065
3613.00,0.0065
3612.00,0.0066
3611.00,0.0066
3610.00,0.0066
3609.00,0.0067
3608.00,0.0067
3607.00,0.0068
3606.00,0.0068
3605.00,0.0069
3604.00,0.0069
3603.00,0.0070
3602.00,0.0070
3601.00,0.0070
3600.00,0.0071
3599.00,0.0071
3598.00,0.0071
3597.00,0.0071
3596.00,0.0072
3595.00,0.0072
3594.00,0.0073
3593.00,0.0073
3592.00,0.0074
3591.00,0.0074
3590.00,0.0074
3589.00,0.0074
3588.00,0.0074
3587.00,0.0075
3586.00,0.0075
3585.00,0.0076
3584.00,0.0076
3583.00,0.0076
3582.00,0.0077
3581.00,0.0078
3580.00,0.0078
3579.00,0.0079
3578.00,0.0079
3577.00,0.0079
3576.00,0.0079
3575.00,0.0080
3574.00,0.0080
3573.00,0.0081
3572.00,0.0081
3571.00,0.0081
3570.00,0.0081
3569.00,0.0081
3568.00,0.0081
3567.00,0.0081
3566.00,0.0082
3565.00,0.0082
3564.00,0.0082
3563.00,0.0083
3562.00,0.0083
3561.00,0.0084
3560.00,0.0085
3559.00,0.0086
3558.00,0.0087
3557.00,0.0087
3556.00,0.0088
3555.00,0.0088
3554.00,0.0089
3553.00,0.0089
3552.00,0.0089
3551.00,0.0089
3550.00,0.0089
3549.00,0.0089
3548.00,0.0089
3547.00,0.0090
3546.00,0.0091
3545.00,0.0091
3544.00,0.0092
3543.00,0.0092
3542.00,0.0092
3541.00,0.0093
3540.00,0.0093
3539.00,0.0094
3538.00,0.0094
3537.00,0.0095
3536.00,0.0095
3535.00,0.0096
3534.00,0.0096
3533.00,0.0096
3532.00,0.0097
3531.00,0.0097
3530.00,0.0097
3529.00,0.0097
3528.00,0.0098
3527.00,0.0098
3526.00,0.0098
3525.00,0.0099
3524.00,0.0099
3523.00,0.0100
3522.00,0.0100
3521.00,0.0101
3520.00,0.0101
3519.00,0.0101
3518.00,0.0102
3517.00,0.0102
3516.00,0.0103
3515.00,0.0103
3514.00,0.0103
3513.00,0.0103
3512.00,0.0103
3511.00,0.0104
3510.00,0.0104
3509.00,0.0104
3508.00,0.0105
3507.00,0.0105
3506.00,0.0105
3505.00,0.0105
3504.00,0.0105
3503.00,0.0106
3502.00,0.0106
3501.00,0.0107
3500.00,0.0107
3499.00,0.0108
3498.00,0.0108
3497.00,0.0108
3496.00,0.0108
3495.00,0.0109
3494.00,0.0109
3493.00,0.0109
3492.00,0.0109
3491.00,0.0109
3490.00,0.0110
3489.00,0.0110
3488.00,0.0110
3487.00,0.0110
3486.00,0.0111
3485.00,0.0111
3484.00,0.0111
3483.00,0.0111
3482.00,0.0111
3481.00,0.0112
3480.00,0.0112
3479.00,0.0112
3478.00,0.0112
3477.00,0.0112
3476.00,0.0112
3475.00,0.0112
3474.00,0.0113
3473.00,0.0113
3472.00,0.0113
3471.00,0.0112
3470.00,0.0112
3469.00,0.0112
3468.00,0.0112
3467.00,0.0112
3466.00,0.0111
3465.00,0.0110
3464.00,0.0109
3463.00,0.0108
3462.00,0.0106
3461.00,0.0105
3460.00,0.0103
3459.00,0.0101
3458.00,0.0099
3457.00,0.0097
3456.00,0.0095
3455.00,0.0093
3454.00,0.0091
3453.00,0.0090
3452.00,0.0089
3451.00,0.0089
3450.00,0.0090
3449.00,0.0092
3448.00,0.0095
3447.00,0.0099
3446.00,0.0104
3445.00,0.0108
3444.00,0.0113
3443.00,0.0117
3442.00,0.0121
3441.00,0.0125
3440.00,0.0128
3439.00,0.0131
3438.00,0.0133
3437.00,0.0135
3436.00,0.0136
3435.00,0.0137
3434.00,0.0138
3433.00,0.0139
3432.00,0.0140
3431.00,0.0140
3430.00,0.0141
3429.00,0.0141
3428.00,0.0141
3427.00,0.0142
3426.00,0.0142
3425.00,0.0142
3424.00,0.0142
3423.00,0.0143
3422.00,0.0143
3421.00,0.0144
3420.00,0.0144
3419.00,0.0145
3418.00,0.0146
3417.00,0.0146
3416.00,0.0147
3415.00,0.0148
3414.00,0.0148
3413.00,0.0149
3412.00,0.0149
3411.00,0.0150
3410.00,0.0150
3409.00,0.0151
3408.00,0.0151
3407.00,0.0152
3406.00,0.0152
3405.00,0.0153
3404.00,0.0153
3403.00,0.0154
3402.00,0.0154
3401.00,0.0155
3400.00,0.0155
3399.00,0.0156
3398.00,0.0157
3397.00,0.0157
3396.00,0.0157
3395.00,0.0158
3394.00,0.0158
3393.00,0.0158
3392.00,0.0159
3391.00,0.0160
3390.00,0.0160
3389.00,0.0161
3388.00,0.0162
3387.00,0.0162
3386.00,0.0163
3385.00,0.0164
3384.00,0.0164
3383.00,0.0165
3382.00,0.0165
3381.00,0.0166
3380.00,0.0167
3379.00,0.0167
3378.00,0.0168
3377.00,0.0169
3376.00,0.0169
3375.00,0.0170
3374.00,0.0170
3373.00,0.0171
3372.00,0.0172
3371.00,0.0173
3370.00,0.0174
3369.00,0.0174
3368.00,0.0175
3367.00,0.0176
3366.00,0.0176
3365.00,0.0177
3364.00,0.0178
3363.00,0.0179
3362.00,0.0179
3361.00,0.0180
3360.00,0.0181
3359.00,0.0181
3358.00,0.0182
3357.00,0.0183
3356.00,0.0184
3355.00,0.0184
3354.00,0.0185
3353.00,0.0186
3352.00,0.0187
3351.00,0.0188
3350.00,0.0189
3349.00,0.0190
3348.00,0.0191
3347.00,0.0192
3346.00,0.0193
3345.00,0.0193
3344.00,0.0194
3343.00,0.0195
3342.00,0.0196
3341.00,0.0196
3340.00,0.0197
3339.00,0.0198
3338.00,0.0199
3337.00,0.0200
3336.00,0.0201
3335.00,0.0202
3334.00,0.0203
3333.00,0.0204
3332.00,0.0205
3331.00,0.0206
3330.00,0.0207
3329.00,0.0208
3328.00,0.0209
3327.00,0.0210
3326.00,0.0211
3325.00,0.0212
3324.00,0.0214
3323.00,0.0215
3322.00,0.0216
3321.00,0.0217
3320.00,0.0218
3319.00,0.0219
3318.00,0.0220
3317.00,0.0221
3316.00,0.0222
3315.00,0.0224
3314.00,0.0225
3313.00,0.0226
3312.00,0.0227
3311.00,0.0228
3310.00,0.0229
3309.00,0.0229
3308.00,0.0230
3307.00,0.0231
3306.00,0.0232
3305.00,0.0234
3304.00,0.0235
3303.00,0.0237
3302.00,0.0238
3301.00,0.0240
3300.00,0.0240
3299.00,0.0241
3298.00,0.0242
3297.00,0.0242
3296.00,0.0243
3295.00,0.0244
3294.00,0.0245
3293.00,0.0246
3292.00,0.0247
3291.00,0.0248
3290.00,0.0248
3289.00,0.0249
3288.00,0.0250
3287.00,0.0250
3286.00,0.0251
3285.00,0.0251
3284.00,0.0252
3283.00,0.0252
3282.00,0.0253
3281.00,0.0253
3280.00,0.0253
3279.00,0.0253
3278.00,0.0253
3277.00,0.0253
3276.00,0.0252
3275.00,0.0252
3274.00,0.0251
3273.00,0.0250
3272.00,0.0250
3271.00,0.0249
3270.00,0.0249
3269.00,0.0249
3268.00,0.0248
3267.00,0.0248
3266.00,0.0247
3265.00,0.0246
3264.00,0.0245
3263.00,0.0244
3262.00,0.0243
3261.00,0.0242
3260.00,0.0241
3259.00,0.0239
3258.00,0.0238
3257.00,0.0236
3256.00,0.0235
3255.00,0.0234
3254.00,0.0233
3253.00,0.0232
3252.00,0.0231
3251.00,0.0230
3250.00,0.0228
3249.00,0.0227
3248.00,0.0226
3247.00,0.0225
3246.00,0.0224
3245.00,0.0223
3244.00,0.0222
3243.00,0.0221
3242.00,0.0220
3241.00,0.0219
3240.00,0.0217
3239.00,0.0216
3238.00,0.0215
3237.00,0.0214
3236.00,0.0213
3235.00,0.0211
3234.00,0.0211
3233.00,0.0210
3232.00,0.0209
3231.00,0.0209
3230.00,0.0208
3229.00,0.0207
3228.00,0.0206
3227.00,0.0206
3226.00,0.0205
3225.00,0.0204
3224.00,0.0204
3223.00,0.0203
3222.00,0.0202
3221.00,0.0202
3220.00,0.0201
3219.00,0.0200
3218.00,0.0199
3217.00,0.0199
3216.00,0.0198
3215.00,0.0198
3214.00,0.0197
3213.00,0.0197
3212.00,0.0196
3211.00,0.0196
3210.00,0.0195
3209.00,0.0195
3208.00,0.0194
3207.00,0.0193
3206.00,0.0193
3205.00,0.0192
3204.00,0.0192
3203.00,0.0191
3202.00,0.0191
3201.00,0.0190
3200.00,0.0189
3199.00,0.0189
3198.00,0.0188
3197.00,0.0187
3196.00,0.0187
3195.00,0.0186
3194.00,0.0186
3193.00,0.0185
3192.00,0.0184
3191.00,0.0184
3190.00,0.0183
3189.00,0.0182
3188.00,0.0182
3187.00,0.0181
3186.00,0.0181
3185.00,0.0180
3184.00,0.0180
3183.00,0.0179
3182.00,0.0178
3181.00,0.0178
3180.00,0.0177
3179.00,0.0176
3178.00,0.0176
3177.00,0.0175
3176.00,0.0174
3175.00,0.0174
3174.00,0.0173
3173.00,0.0172
3172.00,0.0172
3171.00,0.0171
3170.00,0.0170
3169.00,0.0170
3168.00,0.0169
3167.00,0.0168
3166.00,0.0168
3165.00,0.0167
3164.00,0.0167
3163.00,0.0166
3162.00,0.0165
3161.00,0.0165
3160.00,0.0164
3159.00,0.0163
3158.00,0.0162
3157.00,0.0162
3156.00,0.0161
3155.00,0.0160
3154.00,0.0159
3153.00,0.0159
3152.00,0.0158
3151.00,0.0158
3150.00,0.0157
3149.00,0.0157
3148.00,0.0156
3147.00,0.0156
3146.00,0.0155
3145.00,0.0154
3144.00,0.0154
3143.00,0.0153
3142.00,0.0152
3141.00,0.0151
3140.00,0.0150
3139.00,0.0150
3138.00,0.0149
3137.00,0.0149
3136.00,0.0149
3135.00,0.0148
3134.00,0.0148
3133.00,0.0148
3132.00,0.0147
3131.00,0.0146
3130.00,0.0145
3129.00,0.0145
3128.00,0.0144
3127.00,0.0144
3126.00,0.0144
3125.00,0.0143
3124.00,0.0143
3123.00,0.0142
3122.00,0.0142
3121.00,0.0141
3120.00,0.0141
3119.00,0.0141
3118.00,0.0140
3117.00,0.0140
3116.00,0.0140
3115.00,0.0140
3114.00,0.0140
3113.00,0.0140
3112.00,0.0140
3111.00,0.0140
3110.00,0.0140
3109.00,0.0139
3108.00,0.0139
3107.00,0.0140
3106.00,0.0140
3105.00,0.0140
3104.00,0.0140
3103.00,0.0139
3102.00,0.0139
3101.00,0.0139
3100.00,0.0139
3099.00,0.0139
3098.00,0.0140
3097.00,0.0140
3096.00,0.0140
3095.00,0.0140
3094.00,0.0141
3093.00,0.0141
3092.00,0.0141
3091.00,0.0141
3090.00,0.0141
3089.00,0.0141
3088.00,0.0141
3087.00,0.0142
3086.00,0.0142
3085.00,0.0142
3084.00,0.0142
3083.00,0.0142
3082.00,0.0142
3081.00,0.0142
3080.00,0.0142
3079.00,0.0143
3078.00,0.0143
3077.00,0.0143
3076.00,0.0144
3075.00,0.0144
3074.00,0.0144
3073.00,0.0144
3072.00,0.0144
3071.00,0.0143
3070.00,0.0142
3069.00,0.0142
3068.00,0.0141
3067.00,0.0142
3066.00,0.0142
3065.00,0.0142
3064.00,0.0143
3063.00,0.0143
3062.00,0.0143
3061.00,0.0144
3060.00,0.0144
3059.00,0.0144
3058.00,0.0144
3057.00,0.0144
3056.00,0.0144
3055.00,0.0143
3054.00,0.0143
3053.00,0.0143
3052.00,0.0142
3051.00,0.0142
3050.00,0.0142
3049.00,0.0142
3048.00,0.0142
3047.00,0.0141
3046.00,0.0141
3045.00,0.0140
3044.00,0.0140
3043.00,0.0140
3042.00,0.0140
3041.00,0.0139
3040.00,0.0139
3039.00,0.0138
3038.00,0.0138
3037.00,0.0137
3036.00,0.0137
3035.00,0.0136
3034.00,0.0136
3033.00,0.0136
3032.00,0.0136
3031.00,0.0135
3030.00,0.0135
3029.00,0.0135
3028.00,0.0134
3027.00,0.0134
3026.00,0.0133
3025.00,0.0133
3024.00,0.0132
3023.00,0.0132
3022.00,0.0131
3021.00,0.0131
3020.00,0.0130
3019.00,0.0129
3018.00,0.0128
3017.00,0.0128
3016.00,0.0127
3015.00,0.0126
3014.00,0.0126
3013.00,0.0125
3012.00,0.0124
3011.00,0.0124
3010.00,0.0123
3009.00,0.0122
3008.00,0.0121
3007.00,0.0120
3006.00,0.0119
3005.00,0.0118
3004.00,0.0117
3003.00,0.0116
3002.00,0.0115
3001.00,0.0114
3000.00,0.0113
2999.00,0.0112
2998.00,0.0111
2997.00,0.0111
2996.00,0.0110
2995.00,0.0110
2994.00,0.0110
2993.00,0.0109
2992.00,0.0109
2991.00,0.0109
2990.00,0.0110
2989.00,0.0110
2988.00,0.0110
2987.00,0.0110
2986.00,0.0110
2985.00,0.0109
2984.00,0.0107
2983.00,0.0105
2982.00,0.0104
2981.00,0.0104
2980.00,0.0106
2979.00,0.0108
2978.00,0.0111
2977.00,0.0113
2976.00,0.0116
2975.00,0.0117
2974.00,0.0119
2973.00,0.0120
2972.00,0.0122
2971.00,0.0123
2970.00,0.0126
2969.00,0.0128
2968.00,0.0131
2967.00,0.0133
2966.00,0.0136
2965.00,0.0138
2964.00,0.0139
2963.00,0.0141
2962.00,0.0142
2961.00,0.0142
2960.00,0.0142
2959.00,0.0142
2958.00,0.0141
2957.00,0.0140
2956.00,0.0139
2955.00,0.0138
2954.00,0.0137
2953.00,0.0136
2952.00,0.0135
2951.00,0.0135
2950.00,0.0134
2949.00,0.0135
2948.00,0.0136
2947.00,0.0137
2946.00,0.0139
2945.00,0.0141
2944.00,0.0143
2943.00,0.0145
2942.00,0.0147
2941.00,0.0148
2940.00,0.0149
2939.00,0.0150
2938.00,0.0151
2937.00,0.0152
2936.00,0.0152
2935.00,0.0153
2934.00,0.0153
2933.00,0.0153
2932.00,0.0154
2931.00,0.0154
2930.00,0.0153
2929.00,0.0153
2928.00,0.0152
2927.00,0.0151
2926.00,0.0150
2925.00,0.0149
2924.00,0.0148
2923.00,0.0147
2922.00,0.0147
2921.00,0.0146
2920.00,0.0145
2919.00,0.0144
2918.00,0.0143
2917.00,0.0142
2916.00,0.0140
2915.00,0.0138
2914.00,0.0136
2913.00,0.0134
2912.00,0.0133
2911.00,0.0131
2910.00,0.0130
2909.00,0.0130
2908.00,0.0129
2907.00,0.0129
2906.00,0.0128
2905.00,0.0128
2904.00,0.0128
2903.00,0.0127
2902.00,0.0126
2901.00,0.0126
2900.00,0.0125
2899.00,0.0124
2898.00,0.0123
2897.00,0.0122
2896.00,0.0121
2895.00,0.0121
2894.00,0.0120
2893.00,0.0119
2892.00,0.0119
2891.00,0.0118
2890.00,0.0118
2889.00,0.0117
2888.00,0.0117
2887.00,0.0117
2886.00,0.0117
2885.00,0.0117
2884.00,0.0117
2883.00,0.0118
2882.00,0.0118
2881.00,0.0119
2880.00,0.0120
2879.00,0.0121
2878.00,0.0122
2877.00,0.0123
2876.00,0.0124
2875.00,0.0124
2874.00,0.0123
2873.00,0.0123
2872.00,0.0122
2871.00,0.0121
2870.00,0.0120
2869.00,0.0119
2868.00,0.0119
2867.00,0.0118
2866.00,0.0118
2865.00,0.0118
2864.00,0.0118
2863.00,0.0118
2862.00,0.0118
2861.00,0.0118
2860.00,0.0118
2859.00,0.0117
2858.00,0.0117
2857.00,0.0117
2856.00,0.0117
2855.00,0.0118
2854.00,0.0118
2853.00,0.0119
2852.00,0.0119
2851.00,0.0119
2850.00,0.0119
2849.00,0.0118
2848.00,0.0117
2847.00,0.0115
2846.00,0.0114
2845.00,0.0112
2844.00,0.0111
2843.00,0.0109
2842.00,0.0108
2841.00,0.0107
2840.00,0.0106
2839.00,0.0105
2838.00,0.0104
2837.00,0.0103
2836.00,0.0102
2835.00,0.0101
2834.00,0.0100
2833.00,0.0100
2832.00,0.0099
2831.00,0.0099
2830.00,0.0099
2829.00,0.0099
2828.00,0.0100
2827.00,0.0100
2826.00,0.0101
2825.00,0.0101
2824.00,0.0101
2823.00,0.0102
2822.00,0.0102
2821.00,0.0102
2820.00,0.0102
2819.00,0.0102
2818.00,0.0102
2817.00,0.0102
2816.00,0.0102
2815.00,0.0102
2814.00,0.0102
2813.00,0.0101
2812.00,0.0101
2811.00,0.0101
2810.00,0.0101
2809.00,0.0101
2808.00,0.0100
2807.00,0.0100
2806.00,0.0100
2805.00,0.0100
2804.00,0.0100
2803.00,0.0100
2802.00,0.0100
2801.00,0.0100
2800.00,0.0099
2799.00,0.0099
2798.00,0.0099
2797.00,0.0099
2796.00,0.0099
2795.00,0.0098
2794.00,0.0098
2793.00,0.0098
2792.00,0.0098
2791.00,0.0097
2790.00,0.0097
2789.00,0.0097
2788.00,0.0097
2787.00,0.0097
2786.00,0.0097
2785.00,0.0096
2784.00,0.0096
2783.00,0.0096
2782.00,0.0096
2781.00,0.0095
2780.00,0.0095
2779.00,0.0095
2778.00,0.0095
2777.00,0.0094
2776.00,0.0094
2775.00,0.0094
2774.00,0.0093
2773.00,0.0093
2772.00,0.0093
2771.00,0.0093
2770.00,0.0092
2769.00,0.0092
2768.00,0.0092
2767.00,0.0092
2766.00,0.0092
2765.00,0.0091
2764.00,0.0091
2763.00,0.0091
2762.00,0.0090
2761.00,0.0090
2760.00,0.0090
2759.00,0.0090
2758.00,0.0089
2757.00,0.0089
2756.00,0.0089
2755.00,0.0089
2754.00,0.0088
2753.00,0.0088
2752.00,0.0088
2751.00,0.0088
2750.00,0.0088
2749.00,0.0088
2748.00,0.0087
2747.00,0.0087
2746.00,0.0087
2745.00,0.0087
2744.00,0.0087
2743.00,0.0086
2742.00,0.0086
2741.00,0.0086
2740.00,0.0086
2739.00,0.0086
2738.00,0.0085
2737.00,0.0085
2736.00,0.0085
2735.00,0.0085
2734.00,0.0085
2733.00,0.0084
2732.00,0.0084
2731.00,0.0084
2730.00,0.0084
2729.00,0.0084
2728.00,0.0083
2727.00,0.0083
2726.00,0.0083
2725.00,0.0082
2724.00,0.0082
2723.00,0.0082
2722.00,0.0082
2721.00,0.0082
2720.00,0.0082
2719.00,0.0082
2718.00,0.0081
2717.00,0.0081
2716.00,0.0081
2715.00,0.0081
2714.00,0.0081
2713.00,0.0080
2712.00,0.0080
2711.00,0.0080
2710.00,0.0080
2709.00,0.0080
2708.00,0.0080
2707.00,0.0079
2706.00,0.0079
2705.00,0.0079
2704.00,0.0079
2703.00,0.0078
2702.00,0.0078
2701.00,0.0078
2700.00,0.0078
2699.00,0.0078
2698.00,0.0078
2697.00,0.0078
2696.00,0.0078
2695.00,0.0078
2694.00,0.0077
2693.00,0.0077
2692.00,0.0077
2691.00,0.0077
2690.00,0.0077
2689.00,0.0077
2688.00,0.0077
2687.00,0.0077
2686.00,0.0077
2685.00,0.0076
2684.00,0.0076
2683.00,0.0076
2682.00,0.0076
2681.00,0.0076
2680.00,0.0076
2679.00,0.0076
2678.00,0.0076
2677.00,0.0076
2676.00,0.0076
2675.00,0.0076
2674.00,0.0076
2673.00,0.0076
2672.00,0.0075
2671.00,0.0075
2670.00,0.0075
2669.00,0.0075
2668.00,0.0075
2667.00,0.0075
2666.00,0.0076
2665.00,0.0076
2664.00,0.0077
2663.00,0.0077
2662.00,0.0077
2661.00,0.0077
2660.00,0.0077
2659.00,0.0078
2658.00,0.0078
2657.00,0.0078
2656.00,0.0078
2655.00,0.0078
2654.00,0.0078
2653.00,0.0078
2652.00,0.0078
2651.00,0.0078
2650.00,0.0078
2649.00,0.0078
2648.00,0.0078
2647.00,0.0078
2646.00,0.0078
2645.00,0.0078
2644.00,0.0078
2643.00,0.0078
2642.00,0.0078
2641.00,0.0078
2640.00,0.0078
2639.00,0.0078
2638.00,0.0078
2637.00,0.0078
2636.00,0.0078
2635.00,0.0078
2634.00,0.0077
2633.00,0.0077
2632.00,0.0077
2631.00,0.0077
2630.00,0.0078
2629.00,0.0078
2628.00,0.0077
2627.00,0.0077
2626.00,0.0077
2625.00,0.0076
2624.00,0.0076
2623.00,0.0076
2622.00,0.0076
2621.00,0.0076
2620.00,0.0075
2619.00,0.0075
2618.00,0.0075
2617.00,0.0075
2616.00,0.0075
2615.00,0.0075
2614.00,0.0075
2613.00,0.0075
2612.00,0.0075
2611.00,0.0075
2610.00,0.0074
2609.00,0.0074
2608.00,0.0074
2607.00,0.0074
2606.00,0.0074
2605.00,0.0073
2604.00,0.0073
2603.00,0.0073
2602.00,0.0072
2601.00,0.0072
2600.00,0.0073
2599.00,0.0073
2598.00,0.0073
2597.00,0.0072
2596.00,0.0073
2595.00,0.0073
2594.00,0.0072
2593.00,0.0072
2592.00,0.0072
2591.00,0.0071
2590.00,0.0071
2589.00,0.0071
2588.00,0.0071
2587.00,0.0071
2586.00,0.0071
2585.00,0.0071
2584.00,0.0071
2583.00,0.0071
2582.00,0.0071
2581.00,0.0071
2580.00,0.0071
2579.00,0.0071
2578.00,0.0071
2577.00,0.0071
2576.00,0.0071
2575.00,0.0070
2574.00,0.0070
2573.00,0.0070
2572.00,0.0069
2571.00,0.0069
2570.00,0.0068
2569.00,0.0068
2568.00,0.0068
2567.00,0.0069
2566.00,0.0068
2565.00,0.0068
2564.00,0.0068
2563.00,0.0068
2562.00,0.0068
2561.00,0.0068
2560.00,0.0067
2559.00,0.0067
2558.00,0.0067
2557.00,0.0066
2556.00,0.0066
2555.00,0.0066
2554.00,0.0066
2553.00,0.0066
2552.00,0.0066
2551.00,0.0066
2550.00,0.0066
2549.00,0.0066
2548.00,0.0066
2547.00,0.0066
2546.00,0.0066
2545.00,0.0066
2544.00,0.0065
2543.00,0.0065
2542.00,0.0065
2541.00,0.0065
2540.00,0.0065
2539.00,0.0065
2538.00,0.0065
2537.00,0.0065
2536.00,0.0065
2535.00,0.0065
2534.00,0.0065
2533.00,0.0065
2532.00,0.0065
2531.00,0.0065
2530.00,0.0065
2529.00,0.0065
2528.00,0.0065
2527.00,0.0065
2526.00,0.0065
2525.00,0.0064
2524.00,0.0064
2523.00,0.0064
2522.00,0.0064
2521.00,0.0064
2520.00,0.0065
2519.00,0.0065
2518.00,0.0064
2517.00,0.0064
2516.00,0.0064
2515.00,0.0064
2514.00,0.0063
2513.00,0.0063
2512.00,0.0063
2511.00,0.0063
2510.00,0.0063
2509.00,0.0064
2508.00,0.0064
2507.00,0.0063
2506.00,0.0063
2505.00,0.0063
2504.00,0.0063
2503.00,0.0063
2502.00,0.0063
2501.00,0.0063
2500.00,0.0063
2499.00,0.0063
2498.00,0.0063
2497.00,0.0063
2496.00,0.0063
2495.00,0.0063
2494.00,0.0063
2493.00,0.0062
2492.00,0.0062
2491.00,0.0062
2490.00,0.0062
2489.00,0.0062
2488.00,0.0062
2487.00,0.0062
2486.00,0.0062
2485.00,0.0062
2484.00,0.0061
2483.00,0.0061
2482.00,0.0061
2481.00,0.0061
2480.00,0.0061
2479.00,0.0061
2478.00,0.0061
2477.00,0.0061
2476.00,0.0061
2475.00,0.0061
2474.00,0.0061
2473.00,0.0061
2472.00,0.0061
2471.00,0.0061
2470.00,0.0061
2469.00,0.0061
2468.00,0.0061
2467.00,0.0061
2466.00,0.0061
2465.00,0.0061
2464.00,0.0061
2463.00,0.0061
2462.00,0.0061
2461.00,0.0061
2460.00,0.0061
2459.00,0.0061
2458.00,0.0061
2457.00,0.0061
2456.00,0.0061
2455.00,0.0061
2454.00,0.0061
2453.00,0.0060
2452.00,0.0060
2451.00,0.0060
2450.00,0.0060
2449.00,0.0060
2448.00,0.0059
2447.00,0.0059
2446.00,0.0058
2445.00,0.0058
2444.00,0.0058
2443.00,0.0058
2442.00,0.0058
2441.00,0.0058
2440.00,0.0058
2439.00,0.0058
2438.00,0.0058
2437.00,0.0057
2436.00,0.0057
2435.00,0.0057
2434.00,0.0057
2433.00,0.0057
2432.00,0.0057
2431.00,0.0057
2430.00,0.0057
2429.00,0.0057
2428.00,0.0056
2427.00,0.0056
2426.00,0.0055
2425.00,0.0055
2424.00,0.0055
2423.00,0.0055
2422.00,0.0055
2421.00,0.0055
2420.00,0.0055
2419.00,0.0055
2418.00,0.0056
2417.00,0.0056
2416.00,0.0056
2415.00,0.0056
2414.00,0.0055
2413.00,0.0055
2412.00,0.0055
2411.00,0.0055
2410.00,0.0055
2409.00,0.0054
2408.00,0.0054
2407.00,0.0053
2406.00,0.0053
2405.00,0.0053
2404.00,0.0053
2403.00,0.0053
2402.00,0.0053
2401.00,0.0053
2400.00,0.0053
2399.00,0.0053
2398.00,0.0053
2397.00,0.0053
2396.00,0.0053
2395.00,0.0053
2394.00,0.0053
2393.00,0.0053
2392.00,0.0054
2391.00,0.0054
2390.00,0.0054
2389.00,0.0054
2388.00,0.0053
2387.00,0.0053
2386.00,0.0052
2385.00,0.0052
2384.00,0.0052
2383.00,0.0052
2382.00,0.0052
2381.00,0.0052
2380.00,0.0052
2379.00,0.0052
2378.00,0.0052
2377.00,0.0052
2376.00,0.0052
2375.00,0.0052
2374.00,0.0052
2373.00,0.0052
2372.00,0.0052
2371.00,0.0052
2370.00,0.0052
2369.00,0.0052
2368.00,0.0051
2367.00,0.0052
2366.00,0.0052
2365.00,0.0053
2364.00,0.0053
2363.00,0.0053
2362.00,0.0053
2361.00,0.0053
2360.00,0.0053
2359.00,0.0053
2358.00,0.0052
2357.00,0.0053
2356.00,0.0053
2355.00,0.0053
2354.00,0.0053
2353.00,0.0053
2352.00,0.0053
2351.00,0.0053
2350.00,0.0054
2349.00,0.0054
2348.00,0.0054
2347.00,0.0055
2346.00,0.0055
2345.00,0.0056
2344.00,0.0056
2343.00,0.0056
2342.00,0.0055
2341.00,0.0056
2340.00,0.0056
2339.00,0.0057
2338.00,0.0057
2337.00,0.0057
2336.00,0.0057
2335.00,0.0057
2334.00,0.0057
2333.00,0.0056
2332.00,0.0056
2331.00,0.0056
2330.00,0.0056
2329.00,0.0058
2328.00,0.0061
2327.00,0.0065
2326.00,0.0068
2325.00,0.0069
2324.00,0.0069
2323.00,0.0067
2322.00,0.0065
2321.00,0.0064
2320.00,0.0063
2319.00,0.0061
2318.00,0.0060
2317.00,0.0060
2316.00,0.0059
2315.00,0.0059
2314.00,0.0059
2313.00,0.0059
2312.00,0.0058
2311.00,0.0058
2310.00,0.0058
2309.00,0.0058
2308.00,0.0058
2307.00,0.0059
2306.00,0.0059
2305.00,0.0059
2304.00,0.0059
2303.00,0.0059
2302.00,0.0059
2301.00,0.0060
2300.00,0.0060
2299.00,0.0061
2298.00,0.0061
2297.00,0.0061
2296.00,0.0061
2295.00,0.0062
2294.00,0.0062
2293.00,0.0063
2292.00,0.0064
2291.00,0.0065
2290.00,0.0065
2289.00,0.0066
2288.00,0.0066
2287.00,0.0067
2286.00,0.0067
2285.00,0.0066
2284.00,0.0066
2283.00,0.0065
2282.00,0.0064
2281.00,0.0064
2280.00,0.0063
2279.00,0.0063
2278.00,0.0063
2277.00,0.0063
2276.00,0.0062
2275.00,0.0062
2274.00,0.0062
2273.00,0.0062
2272.00,0.0062
2271.00,0.0061
2270.00,0.0061
2269.00,0.0060
2268.00,0.0059
2267.00,0.0059
2266.00,0.0058
2265.00,0.0058
2264.00,0.0058
2263.00,0.0058
2262.00,0.0059
2261.00,0.0059
2260.00,0.0060
2259.00,0.0060
2258.00,0.0060
2257.00,0.0059
2256.00,0.0058
2255.00,0.0057
2254.00,0.0056
2253.00,0.0056
2252.00,0.0056
2251.00,0.0056
2250.00,0.0056
2249.00,0.0057
2248.00,0.0057
2247.00,0.0057
2246.00,0.0058
2245.00,0.0058
2244.00,0.0058
2243.00,0.0059
2242.00,0.0059
2241.00,0.0058
2240.00,0.0058
2239.00,0.0058
2238.00,0.0058
2237.00,0.0058
2236.00,0.0058
2235.00,0.0058
2234.00,0.0057
2233.00,0.0057
2232.00,0.0057
2231.00,0.0057
2230.00,0.0057
2229.00,0.0057
2228.00,0.0057
2227.00,0.0058
2226.00,0.0058
2225.00,0.0057
2224.00,0.0057
2223.00,0.0056
2222.00,0.0055
2221.00,0.0055
2220.00,0.0055
2219.00,0.0055
2218.00,0.0055
2217.00,0.0055
2216.00,0.0055
2215.00,0.0055
2214.00,0.0055
2213.00,0.0056
2212.00,0.0056
2211.00,0.0056
2210.00,0.0056
2209.00,0.0056
2208.00,0.0056
2207.00,0.0057
2206.00,0.0057
2205.00,0.0058
2204.00,0.0058
2203.00,0.0058
2202.00,0.0056
2201.00,0.0056
2200.00,0.0056
2199.00,0.0056
2198.00,0.0055
2197.00,0.0055
2196.00,0.0056
2195.00,0.0057
2194.00,0.0058
2193.00,0.0059
2192.00,0.0059
2191.00,0.0058
2190.00,0.0058
2189.00,0.0058
2188.00,0.0059
2187.00,0.0059
2186.00,0.0060
2185.00,0.0059
2184.00,0.0058
2183.00,0.0056
2182.00,0.0054
2181.00,0.0054
2180.00,0.0054
2179.00,0.0055
2178.00,0.0055
2177.00,0.0053
2176.00,0.0051
2175.00,0.0051
2174.00,0.0051
2173.00,0.0052
2172.00,0.0055
2171.00,0.0057
2170.00,0.0060
2169.00,0.0062
2168.00,0.0063
2167.00,0.0063
2166.00,0.0062
2165.00,0.0062
2164.00,0.0063
2163.00,0.0063
2162.00,0.0059
2161.00,0.0050
2160.00,0.0038
2159.00,0.0028
2158.00,0.0023
2157.00,0.0024
2156.00,0.0026
2155.00,0.0029
2154.00,0.0031
2153.00,0.0033
2152.00,0.0036
2151.00,0.0038
2150.00,0.0040
2149.00,0.0041
2148.00,0.0041
2147.00,0.0041
2146.00,0.0040
2145.00,0.0040
2144.00,0.0040
2143.00,0.0040
2142.00,0.0041
2141.00,0.0041
2140.00,0.0041
2139.00,0.0041
2138.00,0.0039
2137.00,0.0037
2136.00,0.0036
2135.00,0.0034
2134.00,0.0034
2133.00,0.0036
2132.00,0.0038
2131.00,0.0040
2130.00,0.0041
2129.00,0.0042
2128.00,0.0043
2127.00,0.0044
2126.00,0.0045
2125.00,0.0046
2124.00,0.0047
2123.00,0.0048
2122.00,0.0049
2121.00,0.0050
2120.00,0.0051
2119.00,0.0051
2118.00,0.0052
2117.00,0.0052
2116.00,0.0053
2115.00,0.0054
2114.00,0.0055
2113.00,0.0056
2112.00,0.0057
2111.00,0.0057
2110.00,0.0057
2109.00,0.0056
2108.00,0.0056
2107.00,0.0056
2106.00,0.0056
2105.00,0.0056
2104.00,0.0055
2103.00,0.0055
2102.00,0.0055
2101.00,0.0055
2100.00,0.0055
2099.00,0.0054
2098.00,0.0053
2097.00,0.0051
2096.00,0.0049
2095.00,0.0049
2094.00,0.0049
2093.00,0.0050
2092.00,0.0052
2091.00,0.0053
2090.00,0.0054
2089.00,0.0054
2088.00,0.0054
2087.00,0.0053
2086.00,0.0054
2085.00,0.0054
2084.00,0.0055
2083.00,0.0056
2082.00,0.0057
2081.00,0.0058
2080.00,0.0058
2079.00,0.0058
2078.00,0.0058
2077.00,0.0057
2076.00,0.0057
2075.00,0.0056
2074.00,0.0056
2073.00,0.0055
2072.00,0.0055
2071.00,0.0055
2070.00,0.0055
2069.00,0.0054
2068.00,0.0054
2067.00,0.0053
2066.00,0.0053
2065.00,0.0053
2064.00,0.0053
2063.00,0.0054
2062.00,0.0054
2061.00,0.0054
2060.00,0.0054
2059.00,0.0054
2058.00,0.0054
2057.00,0.0054
2056.00,0.0055
2055.00,0.0056
2054.00,0.0058
2053.00,0.0061
2052.00,0.0064
2051.00,0.0064
2050.00,0.0061
2049.00,0.0057
2048.00,0.0054
2047.00,0.0052
2046.00,0.0051
2045.00,0.0051
2044.00,0.0052
2043.00,0.0053
2042.00,0.0054
2041.00,0.0054
2040.00,0.0055
2039.00,0.0055
2038.00,0.0055
2037.00,0.0055
2036.00,0.0054
2035.00,0.0051
2034.00,0.0049
2033.00,0.0049
2032.00,0.0050
2031.00,0.0051
2030.00,0.0052
2029.00,0.0052
2028.00,0.0052
2027.00,0.0051
2026.00,0.0050
2025.00,0.0049
2024.00,0.0048
2023.00,0.0047
2022.00,0.0046
2021.00,0.0045
2020.00,0.0045
2019.00,0.0046
2018.00,0.0047
2017.00,0.0048
2016.00,0.0048
2015.00,0.0047
2014.00,0.0046
2013.00,0.0045
2012.00,0.0045
2011.00,0.0045
2010.00,0.0045
2009.00,0.0044
2008.00,0.0042
2007.00,0.0040
2006.00,0.0039
2005.00,0.0040
2004.00,0.0042
2003.00,0.0042
2002.00,0.0043
2001.00,0.0043
2000.00,0.0044
1999.00,0.0045
1998.00,0.0047
1997.00,0.0049
1996.00,0.0051
1995.00,0.0051
1994.00,0.0051
1993.00,0.0051
1992.00,0.0050
1991.00,0.0050
1990.00,0.0050
1989.00,0.0051
1988.00,0.0052
1987.00,0.0053
1986.00,0.0053
1985.00,0.0054
1984.00,0.0056
1983.00,0.0058
1982.00,0.0061
1981.00,0.0063
1980.00,0.0062
1979.00,0.0057
1978.00,0.0051
1977.00,0.0046
1976.00,0.0044
1975.00,0.0043
1974.00,0.0042
1973.00,0.0041
1972.00,0.0041
1971.00,0.0041
1970.00,0.0041
1969.00,0.0042
1968.00,0.0042
1967.00,0.0042
1966.00,0.0041
1965.00,0.0041
1964.00,0.0041
1963.00,0.0041
1962.00,0.0041
1961.00,0.0041
1960.00,0.0041
1959.00,0.0040
1958.00,0.0040
1957.00,0.0040
1956.00,0.0040
1955.00,0.0041
1954.00,0.0041
1953.00,0.0042
1952.00,0.0043
1951.00,0.0043
1950.00,0.0042
1949.00,0.0042
1948.00,0.0043
1947.00,0.0044
1946.00,0.0045
1945.00,0.0045
1944.00,0.0045
1943.00,0.0044
1942.00,0.0042
1941.00,0.0042
1940.00,0.0042
1939.00,0.0043
1938.00,0.0043
1937.00,0.0044
1936.00,0.0044
1935.00,0.0045
1934.00,0.0044
1933.00,0.0044
1932.00,0.0045
1931.00,0.0045
1930.00,0.0044
1929.00,0.0044
1928.00,0.0044
1927.00,0.0044
1926.00,0.0044
1925.00,0.0044
1924.00,0.0044
1923.00,0.0044
1922.00,0.0044
1921.00,0.0045
1920.00,0.0046
1919.00,0.0047
1918.00,0.0047
1917.00,0.0046
1916.00,0.0046
1915.00,0.0046
1914.00,0.0046
1913.00,0.0047
1912.00,0.0047
1911.00,0.0047
1910.00,0.0046
1909.00,0.0046
1908.00,0.0046
1907.00,0.0046
1906.00,0.0046
1905.00,0.0046
1904.00,0.0047
1903.00,0.0047
1902.00,0.0047
1901.00,0.0047
1900.00,0.0048
1899.00,0.0047
1898.00,0.0047
1897.00,0.0047
1896.00,0.0048
1895.00,0.0047
1894.00,0.0047
1893.00,0.0047
1892.00,0.0047
1891.00,0.0047
1890.00,0.0047
1889.00,0.0046
1888.00,0.0046
1887.00,0.0046
1886.00,0.0047
1885.00,0.0047
1884.00,0.0047
1883.00,0.0047
1882.00,0.0047
1881.00,0.0046
1880.00,0.0046
1879.00,0.0046
1878.00,0.0046
1877.00,0.0046
1876.00,0.0047
1875.00,0.0047
1874.00,0.0047
1873.00,0.0047
1872.00,0.0048
1871.00,0.0048
1870.00,0.0047
1869.00,0.0046
1868.00,0.0045
1867.00,0.0044
1866.00,0.0044
1865.00,0.0045
1864.00,0.0046
1863.00,0.0047
1862.00,0.0047
1861.00,0.0047
1860.00,0.0046
1859.00,0.0046
1858.00,0.0045
1857.00,0.0046
1856.00,0.0046
1855.00,0.0047
1854.00,0.0047
1853.00,0.0046
1852.00,0.0046
1851.00,0.0046
1850.00,0.0046
1849.00,0.0046
1848.00,0.0046
1847.00,0.0047
1846.00,0.0048
1845.00,0.0047
1844.00,0.0045
1843.00,0.0044
1842.00,0.0043
1841.00,0.0044
1840.00,0.0046
1839.00,0.0046
1838.00,0.0046
1837.00,0.0046
1836.00,0.0046
1835.00,0.0046
1834.00,0.0046
1833.00,0.0047
1832.00,0.0048
1831.00,0.0048
1830.00,0.0047
1829.00,0.0046
1828.00,0.0046
1827.00,0.0047
1826.00,0.0047
1825.00,0.0046
1824.00,0.0046
1823.00,0.0046
1822.00,0.0046
1821.00,0.0046
1820.00,0.0046
1819.00,0.0045
1818.00,0.0044
1817.00,0.0043
1816.00,0.0044
1815.00,0.0045
1814.00,0.0046
1813.00,0.0046
1812.00,0.0047
1811.00,0.0047
1810.00,0.0047
1809.00,0.0047
1808.00,0.0047
1807.00,0.0047
1806.00,0.0047
1805.00,0.0048
1804.00,0.0048
1803.00,0.0048
1802.00,0.0048
1801.00,0.0048
1800.00,0.0047
1799.00,0.0047
1798.00,0.0047
1797.00,0.0047
1796.00,0.0048
1795.00,0.0050
1794.00,0.0050
1793.00,0.0048
1792.00,0.0046
1791.00,0.0045
1790.00,0.0044
1789.00,0.0045
1788.00,0.0047
1787.00,0.0047
1786.00,0.0047
1785.00,0.0047
1784.00,0.0047
1783.00,0.0047
1782.00,0.0047
1781.00,0.0047
1780.00,0.0047
1779.00,0.0047
1778.00,0.0047
1777.00,0.0048
1776.00,0.0050
1775.00,0.0052
1774.00,0.0053
1773.00,0.0052
1772.00,0.0050
1771.00,0.0048
1770.00,0.0048
1769.00,0.0048
1768.00,0.0048
1767.00,0.0048
1766.00,0.0050
1765.00,0.0052
1764.00,0.0054
1763.00,0.0055
1762.00,0.0054
1761.00,0.0054
1760.00,0.0055
1759.00,0.0057
1758.00,0.0058
1757.00,0.0059
1756.00,0.0060
1755.00,0.0062
1754.00,0.0065
1753.00,0.0068
1752.00,0.0069
1751.00,0.0070
1750.00,0.0072
1749.00,0.0074
1748.00,0.0076
1747.00,0.0079
1746.00,0.0082
1745.00,0.0085
1744.00,0.0089
1743.00,0.0093
1742.00,0.0096
1741.00,0.0100
1740.00,0.0103
1739.00,0.0106
1738.00,0.0111
1737.00,0.0116
1736.00,0.0121
1735.00,0.0124
1734.00,0.0125
1733.00,0.0126
1732.00,0.0129
1731.00,0.0132
1730.00,0.0134
1729.00,0.0136
1728.00,0.0139
1727.00,0.0141
1726.00,0.0143
1725.00,0.0144
1724.00,0.0144
1723.00,0.0145
1722.00,0.0146
1721.00,0.0148
1720.00,0.0150
1719.00,0.0151
1718.00,0.0150
1717.00,0.0149
1716.00,0.0147
1715.00,0.0145
1714.00,0.0145
1713.00,0.0145
1712.00,0.0146
1711.00,0.0147
1710.00,0.0148
1709.00,0.0150
1708.00,0.0153
1707.00,0.0156
1706.00,0.0158
1705.00,0.0162
1704.00,0.0167
1703.00,0.0172
1702.00,0.0176
1701.00,0.0181
1700.00,0.0187
1699.00,0.0195
1698.00,0.0202
1697.00,0.0208
1696.00,0.0213
1695.00,0.0217
1694.00,0.0221
1693.00,0.0226
1692.00,0.0232
1691.00,0.0238
1690.00,0.0244
1689.00,0.0251
1688.00,0.0259
1687.00,0.0267
1686.00,0.0274
1685.00,0.0280
1684.00,0.0288
1683.00,0.0294
1682.00,0.0300
1681.00,0.0306
1680.00,0.0314
1679.00,0.0321
1678.00,0.0328
1677.00,0.0334
1676.00,0.0341
1675.00,0.0349
1674.00,0.0358
1673.00,0.0365
1672.00,0.0373
1671.00,0.0381
1670.00,0.0389
1669.00,0.0398
1668.00,0.0407
1667.00,0.0415
1666.00,0.0423
1665.00,0.0431
1664.00,0.0440
1663.00,0.0450
1662.00,0.0460
1661.00,0.0470
1660.00,0.0480
1659.00,0.0489
1658.00,0.0498
1657.00,0.0507
1656.00,0.0515
1655.00,0.0522
1654.00,0.0531
1653.00,0.0543
1652.00,0.0551
1651.00,0.0554
1650.00,0.0553
1649.00,0.0553
1648.00,0.0553
1647.00,0.0555
1646.00,0.0555
1645.00,0.0554
1644.00,0.0552
1643.00,0.0548
1642.00,0.0545
1641.00,0.0541
1640.00,0.0539
1639.00,0.0537
1638.00,0.0534
1637.00,0.0533
1636.00,0.0533
1635.00,0.0535
1634.00,0.0536
1633.00,0.0535
1632.00,0.0534
1631.00,0.0533
1630.00,0.0534
1629.00,0.0536
1628.00,0.0540
1627.00,0.0543
1626.00,0.0545
1625.00,0.0546
1624.00,0.0547
1623.00,0.0547
1622.00,0.0546
1621.00,0.0543
1620.00,0.0538
1619.00,0.0532
1618.00,0.0525
1617.00,0.0517
1616.00,0.0507
1615.00,0.0496
1614.00,0.0486
1613.00,0.0474
1612.00,0.0463
1611.00,0.0451
1610.00,0.0439
1609.00,0.0428
1608.00,0.0416
1607.00,0.0405
1606.00,0.0394
1605.00,0.0384
1604.00,0.0373
1603.00,0.0363
1602.00,0.0354
1601.00,0.0346
1600.00,0.0337
1599.00,0.0329
1598.00,0.0322
1597.00,0.0315
1596.00,0.0308
1595.00,0.0301
1594.00,0.0294
1593.00,0.0287
1592.00,0.0280
1591.00,0.0273
1590.00,0.0265
1589.00,0.0258
1588.00,0.0251
1587.00,0.0244
1586.00,0.0238
1585.00,0.0232
1584.00,0.0227
1583.00,0.0222
1582.00,0.0219
1581.00,0.0216
1580.00,0.0213
1579.00,0.0211
1578.00,0.0210
1577.00,0.0210
1576.00,0.0211
1575.00,0.0212
1574.00,0.0213
1573.00,0.0213
1572.00,0.0214
1571.00,0.0216
1570.00,0.0221
1569.00,0.0228
1568.00,0.0234
1567.00,0.0239
1566.00,0.0246
1565.00,0.0253
1564.00,0.0261
1563.00,0.0269
1562.00,0.0277
1561.00,0.0283
1560.00,0.0293
1559.00,0.0311
1558.00,0.0329
1557.00,0.0340
1556.00,0.0349
1555.00,0.0358
1554.00,0.0368
1553.00,0.0379
1552.00,0.0389
1551.00,0.0398
1550.00,0.0409
1549.00,0.0419
1548.00,0.0429
1547.00,0.0437
1546.00,0.0444
1545.00,0.0453
1544.00,0.0462
1543.00,0.0470
1542.00,0.0477
1541.00,0.0484
1540.00,0.0492
1539.00,0.0497
1538.00,0.0500
1537.00,0.0501
1536.00,0.0501
1535.00,0.0502
1534.00,0.0504
1533.00,0.0507
1532.00,0.0510
1531.00,0.0511
1530.00,0.0511
1529.00,0.0511
1528.00,0.0511
1527.00,0.0510
1526.00,0.0510
1525.00,0.0511
1524.00,0.0511
1523.00,0.0512
1522.00,0.0513
1521.00,0.0516
1520.00,0.0519
1519.00,0.0520
1518.00,0.0522
1517.00,0.0525
1516.00,0.0527
1515.00,0.0527
1514.00,0.0525
1513.00,0.0520
1512.00,0.0515
1511.00,0.0509
1510.00,0.0504
1509.00,0.0498
1508.00,0.0491
1507.00,0.0482
1506.00,0.0471
1505.00,0.0461
1504.00,0.0453
1503.00,0.0445
1502.00,0.0437
1501.00,0.0428
1500.00,0.0420
1499.00,0.0412
1498.00,0.0403
1497.00,0.0393
1496.00,0.0383
1495.00,0.0373
1494.00,0.0365
1493.00,0.0356
1492.00,0.0346
1491.00,0.0337
1490.00,0.0327
1489.00,0.0318
1488.00,0.0310
1487.00,0.0303
1486.00,0.0296
1485.00,0.0290
1484.00,0.0284
1483.00,0.0279
1482.00,0.0274
1481.00,0.0270
1480.00,0.0266
1479.00,0.0263
1478.00,0.0261
1477.00,0.0259
1476.00,0.0259
1475.00,0.0259
1474.00,0.0260
1473.00,0.0262
1472.00,0.0264
1471.00,0.0267
1470.00,0.0269
1469.00,0.0270
1468.00,0.0270
1467.00,0.0271
1466.00,0.0271
1465.00,0.0271
1464.00,0.0272
1463.00,0.0273
1462.00,0.0274
1461.00,0.0274
1460.00,0.0275
1459.00,0.0276
1458.00,0.0276
1457.00,0.0277
1456.00,0.0277
1455.00,0.0278
1454.00,0.0277
1453.00,0.0275
1452.00,0.0273
1451.00,0.0271
1450.00,0.0268
1449.00,0.0264
1448.00,0.0261
1447.00,0.0259
1446.00,0.0256
1445.00,0.0253
1444.00,0.0249
1443.00,0.0246
1442.00,0.0243
1441.00,0.0241
1440.00,0.0240
1439.00,0.0238
1438.00,0.0237
1437.00,0.0236
1436.00,0.0237
1435.00,0.0238
1434.00,0.0238
1433.00,0.0237
1432.00,0.0236
1431.00,0.0237
1430.00,0.0238
1429.00,0.0240
1428.00,0.0242
1427.00,0.0243
1426.00,0.0244
1425.00,0.0246
1424.00,0.0247
1423.00,0.0249
1422.00,0.0251
1421.00,0.0252
1420.00,0.0253
1419.00,0.0254
1418.00,0.0255
1417.00,0.0257
1416.00,0.0258
1415.00,0.0259
1414.00,0.0260
1413.00,0.0260
1412.00,0.0261
1411.00,0.0261
1410.00,0.0262
1409.00,0.0262
1408.00,0.0261
1407.00,0.0260
1406.00,0.0259
1405.00,0.0258
1404.00,0.0257
1403.00,0.0256
1402.00,0.0254
1401.00,0.0253
1400.00,0.0251
1399.00,0.0250
1398.00,0.0250
1397.00,0.0250
1396.00,0.0250
1395.00,0.0250
1394.00,0.0251
1393.00,0.0252
1392.00,0.0254
1391.00,0.0255
1390.00,0.0257
1389.00,0.0258
1388.00,0.0259
1387.00,0.0259
1386.00,0.0260
1385.00,0.0259
1384.00,0.0258
1383.00,0.0256
1382.00,0.0253
1381.00,0.0249
1380.00,0.0245
1379.00,0.0241
1378.00,0.0238
1377.00,0.0236
1376.00,0.0235
1375.00,0.0235
1374.00,0.0237
1373.00,0.0239
1372.00,0.0241
1371.00,0.0242
1370.00,0.0242
1369.00,0.0241
1368.00,0.0240
1367.00,0.0238
1366.00,0.0237
1365.00,0.0235
1364.00,0.0234
1363.00,0.0233
1362.00,0.0233
1361.00,0.0233
1360.00,0.0233
1359.00,0.0232
1358.00,0.0232
1357.00,0.0231
1356.00,0.0230
1355.00,0.0228
1354.00,0.0226
1353.00,0.0223
1352.00,0.0221
1351.00,0.0220
1350.00,0.0218
1349.00,0.0218
1348.00,0.0218
1347.00,0.0219
1346.00,0.0220
1345.00,0.0222
1344.00,0.0224
1343.00,0.0225
1342.00,0.0226
1341.00,0.0227
1340.00,0.0227
1339.00,0.0226
1338.00,0.0225
1337.00,0.0224
1336.00,0.0223
1335.00,0.0222
1334.00,0.0222
1333.00,0.0223
1332.00,0.0224
1331.00,0.0226
1330.00,0.0228
1329.00,0.0229
1328.00,0.0229
1327.00,0.0228
1326.00,0.0227
1325.00,0.0225
1324.00,0.0223
1323.00,0.0220
1322.00,0.0217
1321.00,0.0213
1320.00,0.0210
1319.00,0.0207
1318.00,0.0205
1317.00,0.0206
1316.00,0.0208
1315.00,0.0211
1314.00,0.0215
1313.00,0.0220
1312.00,0.0224
1311.00,0.0228
1310.00,0.0231
1309.00,0.0232
1308.00,0.0233
1307.00,0.0233
1306.00,0.0233
1305.00,0.0233
1304.00,0.0233
1303.00,0.0235
1302.00,0.0236
1301.00,0.0238
1300.00,0.0241
1299.00,0.0242
1298.00,0.0244
1297.00,0.0245
1296.00,0.0246
1295.00,0.0247
1294.00,0.0248
1293.00,0.0249
1292.00,0.0249
1291.00,0.0248
1290.00,0.0247
1289.00,0.0246
1288.00,0.0244
1287.00,0.0243
1286.00,0.0242
1285.00,0.0240
1284.00,0.0238
1283.00,0.0236
1282.00,0.0234
1281.00,0.0232
1280.00,0.0231
1279.00,0.0231
1278.00,0.0233
1277.00,0.0236
1276.00,0.0240
1275.00,0.0244
1274.00,0.0249
1273.00,0.0254
1272.00,0.0258
1271.00,0.0263
1270.00,0.0266
1269.00,0.0270
1268.00,0.0273
1267.00,0.0276
1266.00,0.0279
1265.00,0.0282
1264.00,0.0285
1263.00,0.0288
1262.00,0.0291
1261.00,0.0293
1260.00,0.0295
1259.00,0.0296
1258.00,0.0297
1257.00,0.0297
1256.00,0.0297
1255.00,0.0296
1254.00,0.0295
1253.00,0.0294
1252.00,0.0293
1251.00,0.0293
1250.00,0.0294
1249.00,0.0294
1248.00,0.0294
1247.00,0.0292
1246.00,0.0290
1245.00,0.0288
1244.00,0.0286
1243.00,0.0286
1242.00,0.0288
1241.00,0.0292
1240.00,0.0297
1239.00,0.0303
1238.00,0.0309
1237.00,0.0315
1236.00,0.0320
1235.00,0.0324
1234.00,0.0327
1233.00,0.0329
1232.00,0.0329
1231.00,0.0329
1230.00,0.0327
1229.00,0.0325
1228.00,0.0323
1227.00,0.0323
1226.00,0.0323
1225.00,0.0324
1224.00,0.0326
1223.00,0.0327
1222.00,0.0327
1221.00,0.0326
1220.00,0.0324
1219.00,0.0323
1218.00,0.0321
1217.00,0.0320
1216.00,0.0320
1215.00,0.0320
1214.00,0.0319
1213.00,0.0318
1212.00,0.0316
1211.00,0.0313
1210.00,0.0309
1209.00,0.0304
1208.00,0.0297
1207.00,0.0290
1206.00,0.0282
1205.00,0.0276
1204.00,0.0273
1203.00,0.0274
1202.00,0.0277
1201.00,0.0283
1200.00,0.0288
1199.00,0.0294
1198.00,0.0299
1197.00,0.0302
1196.00,0.0305
1195.00,0.0307
1194.00,0.0309
1193.00,0.0309
1192.00,0.0310
1191.00,0.0310
1190.00,0.0310
1189.00,0.0311
1188.00,0.0311
1187.00,0.0312
1186.00,0.0313
1185.00,0.0315
1184.00,0.0316
1183.00,0.0318
1182.00,0.0319
1181.00,0.0321
1180.00,0.0321
1179.00,0.0322
1178.00,0.0321
1177.00,0.0320
1176.00,0.0319
1175.00,0.0317
1174.00,0.0315
1173.00,0.0312
1172.00,0.0310
1171.00,0.0308
1170.00,0.0307
1169.00,0.0309
1168.00,0.0312
1167.00,0.0317
1166.00,0.0322
1165.00,0.0326
1164.00,0.0330
1163.00,0.0333
1162.00,0.0336
1161.00,0.0338
1160.00,0.0339
1159.00,0.0340
1158.00,0.0340
1157.00,0.0340
1156.00,0.0340
1155.00,0.0339
1154.00,0.0337
1153.00,0.0334
1152.00,0.0329
1151.00,0.0323
1150.00,0.0315
1149.00,0.0307
1148.00,0.0301
1147.00,0.0299
1146.00,0.0301
1145.00,0.0306
1144.00,0.0312
1143.00,0.0316
1142.00,0.0320
1141.00,0.0322
1140.00,0.0322
1139.00,0.0323
1138.00,0.0322
1137.00,0.0322
1136.00,0.0321
1135.00,0.0321
1134.00,0.0321
1133.00,0.0322
1132.00,0.0322
1131.00,0.0324
1130.00,0.0325
1129.00,0.0327
1128.00,0.0328
1127.00,0.0329
1126.00,0.0330
1125.00,0.0330
1124.00,0.0330
1123.00,0.0331
1122.00,0.0331
1121.00,0.0331
1120.00,0.0331
1119.00,0.0331
1118.00,0.0332
1117.00,0.0332
1116.00,0.0332
1115.00,0.0333
1114.00,0.0333
1113.00,0.0333
1112.00,0.0333
1111.00,0.0332
1110.00,0.0332
1109.00,0.0331
1108.00,0.0331
1107.00,0.0331
1106.00,0.0330
1105.00,0.0330
1104.00,0.0329
1103.00,0.0328
1102.00,0.0327
1101.00,0.0326
1100.00,0.0325
1099.00,0.0325
1098.00,0.0325
1097.00,0.0326
1096.00,0.0328
1095.00,0.0330
1094.00,0.0332
1093.00,0.0333
1092.00,0.0334
1091.00,0.0334
1090.00,0.0335
1089.00,0.0337
1088.00,0.0339
1087.00,0.0340
1086.00,0.0341
1085.00,0.0342
1084.00,0.0343
1083.00,0.0345
1082.00,0.0346
1081.00,0.0347
1080.00,0.0348
1079.00,0.0349
1078.00,0.0350
1077.00,0.0352
1076.00,0.0353
1075.00,0.0354
1074.00,0.0354
1073.00,0.0354
1072.00,0.0353
1071.00,0.0353
1070.00,0.0352
1069.00,0.0351
1068.00,0.0350
1067.00,0.0349
1066.00,0.0349
1065.00,0.0348
1064.00,0.0347
1063.00,0.0346
1062.00,0.0344
1061.00,0.0343
1060.00,0.0340
1059.00,0.0337
1058.00,0.0333
1057.00,0.0329
1056.00,0.0324
1055.00,0.0319
1054.00,0.0314
1053.00,0.0311
1052.00,0.0312
1051.00,0.0315
1050.00,0.0319
1049.00,0.0325
1048.00,0.0329
1047.00,0.0333
1046.00,0.0334
1045.00,0.0333
1044.00,0.0332
1043.00,0.0330
1042.00,0.0327
1041.00,0.0325
1040.00,0.0322
1039.00,0.0318
1038.00,0.0314
1037.00,0.0309
1036.00,0.0304
1035.00,0.0298
1034.00,0.0294
1033.00,0.0290
1032.00,0.0289
1031.00,0.0288
1030.00,0.0290
1029.00,0.0292
1028.00,0.0297
1027.00,0.0302
1026.00,0.0307
1025.00,0.0311
1024.00,0.0315
1023.00,0.0317
1022.00,0.0319
1021.00,0.0320
1020.00,0.0320
1019.00,0.0320
1018.00,0.0320
1017.00,0.0319
1016.00,0.0319
1015.00,0.0319
1014.00,0.0318
1013.00,0.0317
1012.00,0.0315
1011.00,0.0313
1010.00,0.0310
1009.00,0.0308
1008.00,0.0306
1007.00,0.0304
1006.00,0.0302
1005.00,0.0301
1004.00,0.0299
1003.00,0.0297
1002.00,0.0293
1001.00,0.0288
1000.00,0.0283
999.00,0.0279
998.00,0.0276
997.00,0.0275
996.00,0.0276
995.00,0.0277
994.00,0.0278
993.00,0.0278
992.00,0.0277
991.00,0.0276
990.00,0.0274
989.00,0.0272
988.00,0.0271
987.00,0.0269
986.00,0.0267
985.00,0.0264
984.00,0.0262
983.00,0.0261
982.00,0.0260
981.00,0.0259
980.00,0.0259
979.00,0.0259
978.00,0.0258
977.00,0.0257
976.00,0.0256
975.00,0.0254
974.00,0.0252
973.00,0.0251
972.00,0.0249
971.00,0.0248
970.00,0.0246
969.00,0.0244
968.00,0.0243
967.00,0.0242
966.00,0.0241
965.00,0.0240
964.00,0.0239
963.00,0.0237
962.00,0.0235
961.00,0.0233
960.00,0.0231
959.00,0.0229
958.00,0.0227
957.00,0.0227
956.00,0.0226
955.00,0.0226
954.00,0.0226
953.00,0.0225
952.00,0.0225
951.00,0.0226
950.00,0.0226
949.00,0.0227
948.00,0.0227
947.00,0.0228
946.00,0.0228
945.00,0.0228
944.00,0.0229
943.00,0.0229
942.00,0.0230
941.00,0.0231
940.00,0.0232
939.00,0.0233
938.00,0.0234
937.00,0.0235
936.00,0.0236
935.00,0.0237
934.00,0.0238
933.00,0.0239
932.00,0.0239
931.00,0.0238
930.00,0.0238
929.00,0.0237
928.00,0.0236
927.00,0.0236
926.00,0.0234
925.00,0.0233
924.00,0.0232
923.00,0.0232
922.00,0.0231
921.00,0.0230
920.00,0.0228
919.00,0.0227
918.00,0.0225
917.00,0.0224
916.00,0.0223
915.00,0.0222
914.00,0.0220
913.00,0.0220
912.00,0.0220
911.00,0.0221
910.00,0.0223
909.00,0.0225
908.00,0.0226
907.00,0.0227
906.00,0.0226
905.00,0.0225
904.00,0.0222
903.00,0.0220
902.00,0.0217
901.00,0.0216
900.00,0.0215
899.00,0.0216
898.00,0.0217
897.00,0.0219
896.00,0.0219
895.00,0.0218
894.00,0.0215
893.00,0.0208
892.00,0.0199
891.00,0.0189
890.00,0.0180
889.00,0.0175
888.00,0.0174
887.00,0.0175
886.00,0.0175
885.00,0.0174
884.00,0.0173
883.00,0.0177
882.00,0.0184
881.00,0.0193
880.00,0.0200
879.00,0.0205
878.00,0.0208
877.00,0.0209
876.00,0.0210
875.00,0.0210
874.00,0.0211
873.00,0.0211
872.00,0.0211
871.00,0.0210
870.00,0.0209
869.00,0.0208
868.00,0.0207
867.00,0.0205
866.00,0.0202
865.00,0.0199
864.00,0.0195
863.00,0.0190
862.00,0.0184
861.00,0.0180
860.00,0.0178
859.00,0.0177
858.00,0.0178
857.00,0.0180
856.00,0.0181
855.00,0.0184
854.00,0.0186
853.00,0.0189
852.00,0.0192
851.00,0.0196
850.00,0.0198
849.00,0.0200
848.00,0.0200
847.00,0.0201
846.00,0.0201
845.00,0.0202
844.00,0.0202
843.00,0.0203
842.00,0.0203
841.00,0.0202
840.00,0.0201
839.00,0.0200
838.00,0.0200
837.00,0.0202
836.00,0.0206
835.00,0.0212
834.00,0.0217
833.00,0.0220
832.00,0.0223
831.00,0.0224
830.00,0.0224
829.00,0.0223
828.00,0.0223
827.00,0.0225
826.00,0.0227
825.00,0.0231
824.00,0.0234
823.00,0.0237
822.00,0.0239
821.00,0.0240
820.00,0.0241
819.00,0.0241
818.00,0.0242
817.00,0.0242
816.00,0.0243
815.00,0.0244
814.00,0.0245
813.00,0.0246
812.00,0.0246
811.00,0.0246
810.00,0.0246
809.00,0.0245
808.00,0.0244
807.00,0.0242
806.00,0.0238
805.00,0.0234
804.00,0.0230
803.00,0.0229
802.00,0.0229
801.00,0.0230
800.00,0.0233
799.00,0.0234
798.00,0.0235
797.00,0.0234
796.00,0.0234
795.00,0.0234
794.00,0.0235
793.00,0.0238
792.00,0.0242
791.00,0.0246
790.00,0.0251
789.00,0.0255
788.00,0.0259
787.00,0.0262
786.00,0.0265
785.00,0.0266
784.00,0.0268
783.00,0.0270
782.00,0.0272
781.00,0.0273
780.00,0.0275
779.00,0.0275
778.00,0.0276
777.00,0.0276
776.00,0.0277
775.00,0.0277
774.00,0.0276
773.00,0.0276
772.00,0.0276
771.00,0.0276
770.00,0.0277
769.00,0.0278
768.00,0.0280
767.00,0.0282
766.00,0.0283
765.00,0.0285
764.00,0.0287
763.00,0.0288
762.00,0.0290
761.00,0.0292
760.00,0.0294
759.00,0.0296
758.00,0.0297
757.00,0.0299
756.00,0.0300
755.00,0.0300
754.00,0.0302
753.00,0.0304
752.00,0.0307
751.00,0.0311
750.00,0.0314
749.00,0.0316
748.00,0.0318
747.00,0.0320
746.00,0.0321
745.00,0.0322
744.00,0.0323
743.00,0.0324
742.00,0.0324
741.00,0.0324
740.00,0.0323
739.00,0.0322
738.00,0.0321
737.00,0.0319
736.00,0.0317
735.00,0.0315
734.00,0.0313
733.00,0.0313
732.00,0.0314
731.00,0.0318
730.00,0.0322
729.00,0.0327
728.00,0.0332
727.00,0.0336
726.00,0.0339
725.00,0.0342
724.00,0.0345
723.00,0.0348
722.00,0.0351
721.00,0.0354
720.00,0.0357
719.00,0.0360
718.00,0.0362
717.00,0.0364
716.00,0.0366
715.00,0.0369
714.00,0.0371
713.00,0.0373
712.00,0.0376
711.00,0.0378
710.00,0.0381
709.00,0.0384
708.00,0.0388
707.00,0.0392
706.00,0.0396
705.00,0.0400
704.00,0.0404
703.00,0.0408
702.00,0.0412
701.00,0.0415
700.00,0.0417
699.00,0.0420
698.00,0.0421
697.00,0.0422
696.00,0.0421
695.00,0.0421
694.00,0.0420
693.00,0.0420
692.00,0.0420
691.00,0.0419
690.00,0.0418
689.00,0.0419
688.00,0.0420
687.00,0.0421
686.00,0.0421
685.00,0.0422
684.00,0.0422
683.00,0.0422
682.00,0.0421
681.00,0.0421
680.00,0.0422
679.00,0.0424
678.00,0.0425
677.00,0.0427
676.00,0.0429
675.00,0.0430
674.00,0.0431
673.00,0.0433
672.00,0.0435
671.00,0.0437
670.00,0.0441
669.00,0.0446
668.00,0.0453
667.00,0.0458
666.00,0.0458
665.00,0.0457
664.00,0.0458
663.00,0.0459
662.00,0.0461
661.00,0.0463
660.00,0.0464
659.00,0.0465
658.00,0.0466
657.00,0.0467
656.00,0.0468
655.00,0.0470
654.00,0.0471
653.00,0.0472
652.00,0.0473
651.00,0.0473
650.00,0.0473
649.00,0.0473
648.00,0.0475
647.00,0.0477
646.00,0.0479
645.00,0.0481
644.00,0.0482
643.00,0.0483
642.00,0.0485
641.00,0.0486
640.00,0.0488
639.00,0.0489
638.00,0.0489
637.00,0.0489
636.00,0.0489
635.00,0.0489
634.00,0.0491
633.00,0.0493
632.00,0.0496
631.00,0.0500
630.00,0.0503
629.00,0.0506
628.00,0.0510
627.00,0.0513
626.00,0.0515
625.00,0.0517
624.00,0.0519
623.00,0.0521
622.00,0.0523
621.00,0.0524
620.00,0.0526
619.00,0.0527
618.00,0.0527
617.00,0.0526
616.00,0.0525
615.00,0.0525
614.00,0.0525
613.00,0.0526
612.00,0.0528
611.00,0.0530
610.00,0.0532
609.00,0.0533
608.00,0.0533
607.00,0.0534
606.00,0.0534
605.00,0.0535
604.00,0.0537
603.00,0.0538
602.00,0.0539
601.00,0.0540
600.00,0.0541
599.00,0.0541
598.00,0.0541
597.00,0.0541
596.00,0.0542
595.00,0.0542
594.00,0.0543
593.00,0.0544
592.00,0.0546
591.00,0.0548
590.00,0.0550
589.00,0.0551
588.00,0.0553
587.00,0.0555
586.00,0.0555
585.00,0.0556
584.00,0.0556
583.00,0.0556
582.00,0.0555
581.00,0.0552
580.00,0.0549
579.00,0.0546
578.00,0.0544
577.00,0.0545
576.00,0.0550
575.00,0.0557
574.00,0.0563
573.00,0.0569
572.00,0.0574
571.00,0.0578
570.00,0.0580
569.00,0.0582
568.00,0.0583
567.00,0.0585
566.00,0.0586
565.00,0.0588
564.00,0.0590
563.00,0.0591
562.00,0.0591
561.00,0.0591
560.00,0.0592
559.00,0.0593
558.00,0.0592
557.00,0.0590
556.00,0.0588
555.00,0.0585
554.00,0.0581
553.00,0.0577
552.00,0.0575
551.00,0.0577
550.00,0.0581
549.00,0.0587
548.00,0.0595
547.00,0.0600
546.00,0.0603
545.00,0.0604
544.00,0.0605
543.00,0.0605
542.00,0.0606
541.00,0.0608
540.00,0.0611
539.00,0.0611
538.00,0.0609
537.00,0.0606
536.00,0.0603
535.00,0.0601
534.00,0.0599
533.00,0.0601
532.00,0.0606
531.00,0.0613
530.00,0.0618
529.00,0.0619
528.00,0.0618
527.00,0.0615
526.00,0.0611
525.00,0.0610
524.00,0.0612
523.00,0.0614
522.00,0.0616
521.00,0.0619
520.00,0.0622
519.00,0.0626
518.00,0.0629
517.00,0.0632
516.00,0.0636
515.00,0.0640
514.00,0.0642
513.00,0.0643
512.00,0.0642
511.00,0.0640
510.00,0.0637
509.00,0.0634
508.00,0.0633
507.00,0.0631
506.00,0.0629
505.00,0.0627
504.00,0.0626
503.00,0.0625
502.00,0.0625
501.00,0.0626
500.00,0.0627
499.00,0.0626
498.00,0.0623
497.00,0.0619
496.00,0.0616
495.00,0.0612
494.00,0.0609
493.00,0.0605
492.00,0.0602
491.00,0.0598
490.00,0.0594
489.00,0.0592
488.00,0.0591
487.00,0.0591
486.00,0.0589
485.00,0.0587
484.00,0.0586
483.00,0.0585
482.00,0.0583
481.00,0.0582
480.00,0.0585
479.00,0.0588
478.00,0.0590
477.00,0.0592
476.00,0.0594
475.00,0.0593
474.00,0.0592
473.00,0.0591
472.00,0.0594
471.00,0.0598
470.00,0.0600
469.00,0.0602
468.00,0.0603
467.00,0.0603
466.00,0.0601
465.00,0.0600
464.00,0.0603
463.00,0.0606
462.00,0.0607
461.00,0.0609
460.00,0.0611
459.00,0.0615
458.00,0.0617
457.00,0.0619
456.00,0.0622
455.00,0.0625
454.00,0.0626
453.00,0.0627
452.00,0.0629
451.00,0.0628
450.00,0.0622
449.00,0.0615
448.00,0.0611
447.00,0.0610
446.00,0.0610
445.00,0.0610
444.00,0.0613
443.00,0.0614
442.00,0.0612
441.00,0.0611
440.00,0.0613
439.00,0.0616
438.00,0.0616
437.00,0.0614
436.00,0.0611
435.00,0.0605
434.00,0.0598
433.00,0.0593
432.00,0.0595
431.00,0.0599
430.00,0.0603
429.00,0.0609
428.00,0.0616
427.00,0.0621
426.00,0.0618
425.00,0.0613
424.00,0.0612
423.00,0.0613
422.00,0.0610
421.00,0.0606
420.00,0.0605
419.00,0.0610
418.00,0.0614
417.00,0.0617
416.00,0.0618
415.00,0.0618
414.00,0.0615
413.00,0.0616
412.00,0.0622
411.00,0.0627
410.00,0.0626
409.00,0.0621
408.00,0.0618
407.00,0.0617
406.00,0.0614
405.00,0.0608
404.00,0.0604
403.00,0.0600
402.00,0.0594
401.00,0.0593
400.00,0.0600
