Created as New Dataset,Sample 651 By YargerLab Date Tuesday, June 10 2025
cm-1,A
4000.00,0.0069
3999.00,0.0068
3998.00,0.0068
3997.00,0.0068
3996.00,0.0068
3995.00,0.0068
3994.00,0.0069
3993.00,0.0069
3992.00,0.0069
3991.00,0.0069
3990.00,0.0069
3989.00,0.0068
3988.00,0.0068
3987.00,0.0068
3986.00,0.0069
3985.00,0.0069
3984.00,0.0069
3983.00,0.0069
3982.00,0.0069
3981.00,0.0069
3980.00,0.0068
3979.00,0.0068
3978.00,0.0068
3977.00,0.0068
3976.00,0.0068
3975.00,0.0068
3974.00,0.0068
3973.00,0.0068
3972.00,0.0068
3971.00,0.0068
3970.00,0.0068
3969.00,0.0069
3968.00,0.0068
3967.00,0.0068
3966.00,0.0068
3965.00,0.0068
3964.00,0.0068
3963.00,0.0068
3962.00,0.0069
3961.00,0.0069
3960.00,0.0069
3959.00,0.0069
3958.00,0.0069
3957.00,0.0069
3956.00,0.0069
3955.00,0.0069
3954.00,0.0069
3953.00,0.0068
3952.00,0.0068
3951.00,0.0068
3950.00,0.0068
3949.00,0.0068
3948.00,0.0069
3947.00,0.0069
3946.00,0.0069
3945.00,0.0069
3944.00,0.0068
3943.00,0.0068
3942.00,0.0068
3941.00,0.0068
3940.00,0.0068
3939.00,0.0068
3938.00,0.0068
3937.00,0.0068
3936.00,0.0068
3935.00,0.0069
3934.00,0.0069
3933.00,0.0068
3932.00,0.0068
3931.00,0.0068
3930.00,0.0068
3929.00,0.0068
3928.00,0.0068
3927.00,0.0068
3926.00,0.0068
3925.00,0.0068
3924.00,0.0068
3923.00,0.0068
3922.00,0.0068
3921.00,0.0068
3920.00,0.0068
3919.00,0.0068
3918.00,0.0067
3917.00,0.0067
3916.00,0.0067
3915.00,0.0067
3914.00,0.0067
3913.00,0.0067
3912.00,0.0068
3911.00,0.0068
3910.00,0.0067
3909.00,0.0067
3908.00,0.0067
3907.00,0.0067
3906.00,0.0067
3905.00,0.0067
3904.00,0.0068
3903.00,0.0068
3902.00,0.0068
3901.00,0.0068
3900.00,0.0068
3899.00,0.0068
3898.00,0.0069
3897.00,0.0069
3896.00,0.0069
3895.00,0.0069
3894.00,0.0068
3893.00,0.0068
3892.00,0.0067
3891.00,0.0068
3890.00,0.0068
3889.00,0.0068
3888.00,0.0068
3887.00,0.0067
3886.00,0.0067
3885.00,0.0067
3884.00,0.0067
3883.00,0.0067
3882.00,0.0066
3881.00,0.0066
3880.00,0.0066
3879.00,0.0066
3878.00,0.0066
3877.00,0.0066
3876.00,0.0066
3875.00,0.0066
3874.00,0.0067
3873.00,0.0067
3872.00,0.0067
3871.00,0.0067
3870.00,0.0067
3869.00,0.0067
3868.00,0.0067
3867.00,0.0066
3866.00,0.0066
3865.00,0.0067
3864.00,0.0067
3863.00,0.0067
3862.00,0.0067
3861.00,0.0066
3860.00,0.0066
3859.00,0.0066
3858.00,0.0066
3857.00,0.0066
3856.00,0.0066
3855.00,0.0065
3854.00,0.0065
3853.00,0.0065
3852.00,0.0065
3851.00,0.0065
3850.00,0.0065
3849.00,0.0066
3848.00,0.0066
3847.00,0.0066
3846.00,0.0067
3845.00,0.0067
3844.00,0.0067
3843.00,0.0067
3842.00,0.0067
3841.00,0.0066
3840.00,0.0066
3839.00,0.0066
3838.00,0.0066
3837.00,0.0065
3836.00,0.0065
3835.00,0.0065
3834.00,0.0065
3833.00,0.0065
3832.00,0.0066
3831.00,0.0066
3830.00,0.0066
3829.00,0.0066
3828.00,0.0065
3827.00,0.0065
3826.00,0.0066
3825.00,0.0066
3824.00,0.0066
3823.00,0.0065
3822.00,0.0065
3821.00,0.0065
3820.00,0.0065
3819.00,0.0065
3818.00,0.0064
3817.00,0.0064
3816.00,0.0064
3815.00,0.0065
3814.00,0.0065
3813.00,0.0065
3812.00,0.0065
3811.00,0.0065
3810.00,0.0066
3809.00,0.0066
3808.00,0.0066
3807.00,0.0066
3806.00,0.0066
3805.00,0.0066
3804.00,0.0065
3803.00,0.0065
3802.00,0.0065
3801.00,0.0065
3800.00,0.0065
3799.00,0.0065
3798.00,0.0065
3797.00,0.0065
3796.00,0.0065
3795.00,0.0066
3794.00,0.0066
3793.00,0.0066
3792.00,0.0066
3791.00,0.0066
3790.00,0.0066
3789.00,0.0066
3788.00,0.0065
3787.00,0.0065
3786.00,0.0065
3785.00,0.0065
3784.00,0.0065
3783.00,0.0065
3782.00,0.0065
3781.00,0.0065
3780.00,0.0065
3779.00,0.0066
3778.00,0.0066
3777.00,0.0066
3776.00,0.0066
3775.00,0.0066
3774.00,0.0066
3773.00,0.0066
3772.00,0.0066
3771.00,0.0066
3770.00,0.0066
3769.00,0.0066
3768.00,0.0065
3767.00,0.0065
3766.00,0.0065
3765.00,0.0066
3764.00,0.0066
3763.00,0.0066
3762.00,0.0065
3761.00,0.0065
3760.00,0.0065
3759.00,0.0065
3758.00,0.0065
3757.00,0.0065
3756.00,0.0065
3755.00,0.0065
3754.00,0.0064
3753.00,0.0065
3752.00,0.0065
3751.00,0.0065
3750.00,0.0065
3749.00,0.0065
3748.00,0.0065
3747.00,0.0064
3746.00,0.0064
3745.00,0.0064
3744.00,0.0065
3743.00,0.0065
3742.00,0.0065
3741.00,0.0065
3740.00,0.0064
3739.00,0.0064
3738.00,0.0064
3737.00,0.0064
3736.00,0.0064
3735.00,0.0065
3734.00,0.0065
3733.00,0.0065
3732.00,0.0065
3731.00,0.0065
3730.00,0.0065
3729.00,0.0065
3728.00,0.0065
3727.00,0.0065
3726.00,0.0065
3725.00,0.0065
3724.00,0.0065
3723.00,0.0065
3722.00,0.0065
3721.00,0.0065
3720.00,0.0064
3719.00,0.0064
3718.00,0.0064
3717.00,0.0064
3716.00,0.0064
3715.00,0.0064
3714.00,0.0064
3713.00,0.0064
3712.00,0.0064
3711.00,0.0064
3710.00,0.0064
3709.00,0.0064
3708.00,0.0064
3707.00,0.0064
3706.00,0.0064
3705.00,0.0064
3704.00,0.0063
3703.00,0.0063
3702.00,0.0063
3701.00,0.0064
3700.00,0.0064
3699.00,0.0064
3698.00,0.0064
3697.00,0.0064
3696.00,0.0064
3695.00,0.0064
3694.00,0.0064
3693.00,0.0064
3692.00,0.0063
3691.00,0.0063
3690.00,0.0063
3689.00,0.0062
3688.00,0.0062
3687.00,0.0062
3686.00,0.0062
3685.00,0.0063
3684.00,0.0063
3683.00,0.0063
3682.00,0.0064
3681.00,0.0064
3680.00,0.0065
3679.00,0.0065
3678.00,0.0066
3677.00,0.0066
3676.00,0.0065
3675.00,0.0065
3674.00,0.0065
3673.00,0.0064
3672.00,0.0064
3671.00,0.0064
3670.00,0.0064
3669.00,0.0065
3668.00,0.0065
3667.00,0.0066
3666.00,0.0066
3665.00,0.0066
3664.00,0.0067
3663.00,0.0067
3662.00,0.0067
3661.00,0.0067
3660.00,0.0067
3659.00,0.0067
3658.00,0.0067
3657.00,0.0067
3656.00,0.0067
3655.00,0.0068
3654.00,0.0068
3653.00,0.0068
3652.00,0.0068
3651.00,0.0068
3650.00,0.0068
3649.00,0.0068
3648.00,0.0068
3647.00,0.0068
3646.00,0.0068
3645.00,0.0068
3644.00,0.0067
3643.00,0.0068
3642.00,0.0068
3641.00,0.0069
3640.00,0.0070
3639.00,0.0070
3638.00,0.0070
3637.00,0.0070
3636.00,0.0071
3635.00,0.0071
3634.00,0.0071
3633.00,0.0072
3632.00,0.0072
3631.00,0.0072
3630.00,0.0073
3629.00,0.0073
3628.00,0.0073
3627.00,0.0073
3626.00,0.0073
3625.00,0.0074
3624.00,0.0074
3623.00,0.0074
3622.00,0.0074
3621.00,0.0074
3620.00,0.0074
3619.00,0.0074
3618.00,0.0074
3617.00,0.0074
3616.00,0.0075
3615.00,0.0075
3614.00,0.0076
3613.00,0.0076
3612.00,0.0077
3611.00,0.0078
3610.00,0.0078
3609.00,0.0079
3608.00,0.0079
3607.00,0.0079
3606.00,0.0079
3605.00,0.0079
3604.00,0.0080
3603.00,0.0081
3602.00,0.0081
3601.00,0.0082
3600.00,0.0082
3599.00,0.0082
3598.00,0.0083
3597.00,0.0083
3596.00,0.0083
3595.00,0.0084
3594.00,0.0084
3593.00,0.0084
3592.00,0.0085
3591.00,0.0085
3590.00,0.0085
3589.00,0.0086
3588.00,0.0086
3587.00,0.0086
3586.00,0.0086
3585.00,0.0087
3584.00,0.0087
3583.00,0.0088
3582.00,0.0089
3581.00,0.0089
3580.00,0.0089
3579.00,0.0089
3578.00,0.0089
3577.00,0.0090
3576.00,0.0090
3575.00,0.0091
3574.00,0.0091
3573.00,0.0092
3572.00,0.0093
3571.00,0.0093
3570.00,0.0095
3569.00,0.0095
3568.00,0.0096
3567.00,0.0096
3566.00,0.0096
3565.00,0.0096
3564.00,0.0096
3563.00,0.0096
3562.00,0.0097
3561.00,0.0098
3560.00,0.0098
3559.00,0.0098
3558.00,0.0098
3557.00,0.0099
3556.00,0.0099
3555.00,0.0099
3554.00,0.0099
3553.00,0.0100
3552.00,0.0100
3551.00,0.0100
3550.00,0.0101
3549.00,0.0102
3548.00,0.0103
3547.00,0.0104
3546.00,0.0105
3545.00,0.0105
3544.00,0.0105
3543.00,0.0106
3542.00,0.0106
3541.00,0.0106
3540.00,0.0107
3539.00,0.0107
3538.00,0.0108
3537.00,0.0108
3536.00,0.0109
3535.00,0.0109
3534.00,0.0109
3533.00,0.0109
3532.00,0.0110
3531.00,0.0110
3530.00,0.0111
3529.00,0.0112
3528.00,0.0112
3527.00,0.0113
3526.00,0.0114
3525.00,0.0114
3524.00,0.0115
3523.00,0.0116
3522.00,0.0116
3521.00,0.0117
3520.00,0.0118
3519.00,0.0118
3518.00,0.0119
3517.00,0.0119
3516.00,0.0119
3515.00,0.0119
3514.00,0.0120
3513.00,0.0120
3512.00,0.0120
3511.00,0.0121
3510.00,0.0121
3509.00,0.0121
3508.00,0.0122
3507.00,0.0122
3506.00,0.0123
3505.00,0.0123
3504.00,0.0124
3503.00,0.0125
3502.00,0.0125
3501.00,0.0125
3500.00,0.0126
3499.00,0.0126
3498.00,0.0127
3497.00,0.0128
3496.00,0.0129
3495.00,0.0129
3494.00,0.0129
3493.00,0.0130
3492.00,0.0130
3491.00,0.0130
3490.00,0.0131
3489.00,0.0131
3488.00,0.0132
3487.00,0.0133
3486.00,0.0134
3485.00,0.0134
3484.00,0.0135
3483.00,0.0135
3482.00,0.0136
3481.00,0.0136
3480.00,0.0137
3479.00,0.0138
3478.00,0.0139
3477.00,0.0140
3476.00,0.0140
3475.00,0.0141
3474.00,0.0141
3473.00,0.0141
3472.00,0.0142
3471.00,0.0142
3470.00,0.0143
3469.00,0.0143
3468.00,0.0144
3467.00,0.0144
3466.00,0.0145
3465.00,0.0145
3464.00,0.0146
3463.00,0.0146
3462.00,0.0147
3461.00,0.0148
3460.00,0.0149
3459.00,0.0150
3458.00,0.0152
3457.00,0.0153
3456.00,0.0154
3455.00,0.0154
3454.00,0.0153
3453.00,0.0153
3452.00,0.0153
3451.00,0.0153
3450.00,0.0154
3449.00,0.0155
3448.00,0.0155
3447.00,0.0156
3446.00,0.0156
3445.00,0.0156
3444.00,0.0157
3443.00,0.0157
3442.00,0.0158
3441.00,0.0159
3440.00,0.0160
3439.00,0.0161
3438.00,0.0161
3437.00,0.0162
3436.00,0.0162
3435.00,0.0162
3434.00,0.0163
3433.00,0.0163
3432.00,0.0164
3431.00,0.0165
3430.00,0.0166
3429.00,0.0166
3428.00,0.0167
3427.00,0.0168
3426.00,0.0168
3425.00,0.0169
3424.00,0.0169
3423.00,0.0170
3422.00,0.0171
3421.00,0.0172
3420.00,0.0173
3419.00,0.0173
3418.00,0.0174
3417.00,0.0174
3416.00,0.0175
3415.00,0.0176
3414.00,0.0177
3413.00,0.0178
3412.00,0.0178
3411.00,0.0179
3410.00,0.0179
3409.00,0.0180
3408.00,0.0180
3407.00,0.0181
3406.00,0.0181
3405.00,0.0182
3404.00,0.0182
3403.00,0.0183
3402.00,0.0184
3401.00,0.0185
3400.00,0.0186
3399.00,0.0186
3398.00,0.0187
3397.00,0.0188
3396.00,0.0188
3395.00,0.0189
3394.00,0.0190
3393.00,0.0191
3392.00,0.0191
3391.00,0.0192
3390.00,0.0193
3389.00,0.0194
3388.00,0.0194
3387.00,0.0195
3386.00,0.0196
3385.00,0.0197
3384.00,0.0197
3383.00,0.0198
3382.00,0.0199
3381.00,0.0199
3380.00,0.0200
3379.00,0.0201
3378.00,0.0202
3377.00,0.0203
3376.00,0.0203
3375.00,0.0204
3374.00,0.0205
3373.00,0.0206
3372.00,0.0207
3371.00,0.0208
3370.00,0.0209
3369.00,0.0210
3368.00,0.0211
3367.00,0.0212
3366.00,0.0213
3365.00,0.0214
3364.00,0.0216
3363.00,0.0217
3362.00,0.0218
3361.00,0.0219
3360.00,0.0220
3359.00,0.0221
3358.00,0.0222
3357.00,0.0223
3356.00,0.0224
3355.00,0.0225
3354.00,0.0227
3353.00,0.0228
3352.00,0.0230
3351.00,0.0231
3350.00,0.0232
3349.00,0.0233
3348.00,0.0235
3347.00,0.0236
3346.00,0.0238
3345.00,0.0239
3344.00,0.0240
3343.00,0.0242
3342.00,0.0243
3341.00,0.0244
3340.00,0.0246
3339.00,0.0248
3338.00,0.0250
3337.00,0.0252
3336.00,0.0253
3335.00,0.0254
3334.00,0.0256
3333.00,0.0257
3332.00,0.0258
3331.00,0.0260
3330.00,0.0262
3329.00,0.0264
3328.00,0.0266
3327.00,0.0267
3326.00,0.0269
3325.00,0.0270
3324.00,0.0272
3323.00,0.0273
3322.00,0.0275
3321.00,0.0277
3320.00,0.0279
3319.00,0.0281
3318.00,0.0282
3317.00,0.0284
3316.00,0.0286
3315.00,0.0287
3314.00,0.0289
3313.00,0.0291
3312.00,0.0293
3311.00,0.0295
3310.00,0.0296
3309.00,0.0298
3308.00,0.0300
3307.00,0.0301
3306.00,0.0303
3305.00,0.0305
3304.00,0.0307
3303.00,0.0309
3302.00,0.0311
3301.00,0.0313
3300.00,0.0315
3299.00,0.0317
3298.00,0.0319
3297.00,0.0320
3296.00,0.0322
3295.00,0.0323
3294.00,0.0325
3293.00,0.0326
3292.00,0.0327
3291.00,0.0329
3290.00,0.0330
3289.00,0.0331
3288.00,0.0332
3287.00,0.0334
3286.00,0.0335
3285.00,0.0336
3284.00,0.0337
3283.00,0.0338
3282.00,0.0338
3281.00,0.0339
3280.00,0.0339
3279.00,0.0339
3278.00,0.0339
3277.00,0.0339
3276.00,0.0339
3275.00,0.0338
3274.00,0.0338
3273.00,0.0337
3272.00,0.0336
3271.00,0.0335
3270.00,0.0334
3269.00,0.0333
3268.00,0.0333
3267.00,0.0331
3266.00,0.0330
3265.00,0.0329
3264.00,0.0327
3263.00,0.0325
3262.00,0.0323
3261.00,0.0321
3260.00,0.0319
3259.00,0.0318
3258.00,0.0316
3257.00,0.0314
3256.00,0.0312
3255.00,0.0310
3254.00,0.0309
3253.00,0.0307
3252.00,0.0305
3251.00,0.0303
3250.00,0.0302
3249.00,0.0300
3248.00,0.0299
3247.00,0.0297
3246.00,0.0295
3245.00,0.0294
3244.00,0.0292
3243.00,0.0290
3242.00,0.0288
3241.00,0.0287
3240.00,0.0285
3239.00,0.0283
3238.00,0.0282
3237.00,0.0281
3236.00,0.0279
3235.00,0.0278
3234.00,0.0277
3233.00,0.0276
3232.00,0.0274
3231.00,0.0273
3230.00,0.0271
3229.00,0.0270
3228.00,0.0269
3227.00,0.0268
3226.00,0.0267
3225.00,0.0266
3224.00,0.0265
3223.00,0.0263
3222.00,0.0262
3221.00,0.0261
3220.00,0.0260
3219.00,0.0259
3218.00,0.0258
3217.00,0.0258
3216.00,0.0257
3215.00,0.0256
3214.00,0.0255
3213.00,0.0254
3212.00,0.0253
3211.00,0.0252
3210.00,0.0251
3209.00,0.0250
3208.00,0.0249
3207.00,0.0248
3206.00,0.0247
3205.00,0.0246
3204.00,0.0245
3203.00,0.0244
3202.00,0.0244
3201.00,0.0243
3200.00,0.0242
3199.00,0.0241
3198.00,0.0241
3197.00,0.0240
3196.00,0.0239
3195.00,0.0237
3194.00,0.0236
3193.00,0.0235
3192.00,0.0234
3191.00,0.0233
3190.00,0.0232
3189.00,0.0231
3188.00,0.0230
3187.00,0.0229
3186.00,0.0228
3185.00,0.0227
3184.00,0.0226
3183.00,0.0225
3182.00,0.0224
3181.00,0.0223
3180.00,0.0222
3179.00,0.0220
3178.00,0.0219
3177.00,0.0219
3176.00,0.0218
3175.00,0.0217
3174.00,0.0216
3173.00,0.0214
3172.00,0.0212
3171.00,0.0211
3170.00,0.0210
3169.00,0.0209
3168.00,0.0208
3167.00,0.0207
3166.00,0.0206
3165.00,0.0204
3164.00,0.0203
3163.00,0.0202
3162.00,0.0200
3161.00,0.0199
3160.00,0.0198
3159.00,0.0197
3158.00,0.0196
3157.00,0.0196
3156.00,0.0195
3155.00,0.0194
3154.00,0.0193
3153.00,0.0192
3152.00,0.0191
3151.00,0.0190
3150.00,0.0190
3149.00,0.0189
3148.00,0.0188
3147.00,0.0187
3146.00,0.0187
3145.00,0.0186
3144.00,0.0185
3143.00,0.0185
3142.00,0.0184
3141.00,0.0183
3140.00,0.0182
3139.00,0.0181
3138.00,0.0180
3137.00,0.0179
3136.00,0.0179
3135.00,0.0178
3134.00,0.0177
3133.00,0.0177
3132.00,0.0176
3131.00,0.0176
3130.00,0.0175
3129.00,0.0175
3128.00,0.0174
3127.00,0.0174
3126.00,0.0173
3125.00,0.0173
3124.00,0.0172
3123.00,0.0172
3122.00,0.0171
3121.00,0.0171
3120.00,0.0170
3119.00,0.0170
3118.00,0.0170
3117.00,0.0169
3116.00,0.0169
3115.00,0.0169
3114.00,0.0169
3113.00,0.0168
3112.00,0.0168
3111.00,0.0168
3110.00,0.0168
3109.00,0.0169
3108.00,0.0169
3107.00,0.0169
3106.00,0.0169
3105.00,0.0169
3104.00,0.0169
3103.00,0.0170
3102.00,0.0170
3101.00,0.0170
3100.00,0.0170
3099.00,0.0170
3098.00,0.0170
3097.00,0.0170
3096.00,0.0170
3095.00,0.0170
3094.00,0.0171
3093.00,0.0171
3092.00,0.0171
3091.00,0.0171
3090.00,0.0171
3089.00,0.0172
3088.00,0.0172
3087.00,0.0172
3086.00,0.0172
3085.00,0.0172
3084.00,0.0172
3083.00,0.0172
3082.00,0.0172
3081.00,0.0172
3080.00,0.0172
3079.00,0.0172
3078.00,0.0173
3077.00,0.0173
3076.00,0.0173
3075.00,0.0174
3074.00,0.0174
3073.00,0.0174
3072.00,0.0174
3071.00,0.0174
3070.00,0.0174
3069.00,0.0174
3068.00,0.0174
3067.00,0.0174
3066.00,0.0174
3065.00,0.0174
3064.00,0.0174
3063.00,0.0174
3062.00,0.0174
3061.00,0.0174
3060.00,0.0174
3059.00,0.0173
3058.00,0.0173
3057.00,0.0172
3056.00,0.0171
3055.00,0.0171
3054.00,0.0170
3053.00,0.0169
3052.00,0.0169
3051.00,0.0168
3050.00,0.0168
3049.00,0.0168
3048.00,0.0167
3047.00,0.0167
3046.00,0.0166
3045.00,0.0165
3044.00,0.0165
3043.00,0.0164
3042.00,0.0164
3041.00,0.0163
3040.00,0.0163
3039.00,0.0162
3038.00,0.0161
3037.00,0.0161
3036.00,0.0160
3035.00,0.0159
3034.00,0.0158
3033.00,0.0157
3032.00,0.0157
3031.00,0.0156
3030.00,0.0156
3029.00,0.0156
3028.00,0.0156
3027.00,0.0155
3026.00,0.0154
3025.00,0.0154
3024.00,0.0153
3023.00,0.0152
3022.00,0.0151
3021.00,0.0150
3020.00,0.0149
3019.00,0.0147
3018.00,0.0146
3017.00,0.0146
3016.00,0.0146
3015.00,0.0145
3014.00,0.0145
3013.00,0.0145
3012.00,0.0145
3011.00,0.0145
3010.00,0.0145
3009.00,0.0145
3008.00,0.0145
3007.00,0.0145
3006.00,0.0145
3005.00,0.0144
3004.00,0.0144
3003.00,0.0144
3002.00,0.0144
3001.00,0.0144
3000.00,0.0144
2999.00,0.0144
2998.00,0.0145
2997.00,0.0145
2996.00,0.0146
2995.00,0.0146
2994.00,0.0147
2993.00,0.0147
2992.00,0.0148
2991.00,0.0149
2990.00,0.0150
2989.00,0.0150
2988.00,0.0151
2987.00,0.0152
2986.00,0.0153
2985.00,0.0154
2984.00,0.0155
2983.00,0.0156
2982.00,0.0157
2981.00,0.0158
2980.00,0.0159
2979.00,0.0160
2978.00,0.0161
2977.00,0.0161
2976.00,0.0162
2975.00,0.0163
2974.00,0.0164
2973.00,0.0165
2972.00,0.0166
2971.00,0.0167
2970.00,0.0168
2969.00,0.0168
2968.00,0.0169
2967.00,0.0170
2966.00,0.0170
2965.00,0.0170
2964.00,0.0170
2963.00,0.0171
2962.00,0.0171
2961.00,0.0171
2960.00,0.0171
2959.00,0.0171
2958.00,0.0171
2957.00,0.0170
2956.00,0.0169
2955.00,0.0169
2954.00,0.0168
2953.00,0.0168
2952.00,0.0167
2951.00,0.0167
2950.00,0.0166
2949.00,0.0166
2948.00,0.0166
2947.00,0.0166
2946.00,0.0167
2945.00,0.0167
2944.00,0.0168
2943.00,0.0169
2942.00,0.0171
2941.00,0.0172
2940.00,0.0173
2939.00,0.0174
2938.00,0.0176
2937.00,0.0177
2936.00,0.0179
2935.00,0.0180
2934.00,0.0181
2933.00,0.0182
2932.00,0.0183
2931.00,0.0184
2930.00,0.0185
2929.00,0.0186
2928.00,0.0187
2927.00,0.0188
2926.00,0.0190
2925.00,0.0192
2924.00,0.0193
2923.00,0.0195
2922.00,0.0198
2921.00,0.0200
2920.00,0.0202
2919.00,0.0203
2918.00,0.0204
2917.00,0.0204
2916.00,0.0202
2915.00,0.0199
2914.00,0.0195
2913.00,0.0191
2912.00,0.0186
2911.00,0.0181
2910.00,0.0177
2909.00,0.0174
2908.00,0.0171
2907.00,0.0169
2906.00,0.0167
2905.00,0.0165
2904.00,0.0164
2903.00,0.0163
2902.00,0.0162
2901.00,0.0161
2900.00,0.0160
2899.00,0.0159
2898.00,0.0158
2897.00,0.0158
2896.00,0.0157
2895.00,0.0156
2894.00,0.0156
2893.00,0.0155
2892.00,0.0155
2891.00,0.0154
2890.00,0.0154
2889.00,0.0154
2888.00,0.0153
2887.00,0.0153
2886.00,0.0153
2885.00,0.0153
2884.00,0.0153
2883.00,0.0153
2882.00,0.0153
2881.00,0.0154
2880.00,0.0154
2879.00,0.0154
2878.00,0.0154
2877.00,0.0154
2876.00,0.0154
2875.00,0.0154
2874.00,0.0154
2873.00,0.0154
2872.00,0.0153
2871.00,0.0153
2870.00,0.0152
2869.00,0.0151
2868.00,0.0150
2867.00,0.0149
2866.00,0.0147
2865.00,0.0146
2864.00,0.0145
2863.00,0.0145
2862.00,0.0144
2861.00,0.0144
2860.00,0.0144
2859.00,0.0144
2858.00,0.0145
2857.00,0.0147
2856.00,0.0148
2855.00,0.0150
2854.00,0.0152
2853.00,0.0155
2852.00,0.0158
2851.00,0.0160
2850.00,0.0161
2849.00,0.0161
2848.00,0.0160
2847.00,0.0156
2846.00,0.0152
2845.00,0.0148
2844.00,0.0144
2843.00,0.0141
2842.00,0.0138
2841.00,0.0136
2840.00,0.0135
2839.00,0.0133
2838.00,0.0132
2837.00,0.0130
2836.00,0.0129
2835.00,0.0128
2834.00,0.0128
2833.00,0.0127
2832.00,0.0127
2831.00,0.0126
2830.00,0.0126
2829.00,0.0126
2828.00,0.0126
2827.00,0.0125
2826.00,0.0125
2825.00,0.0124
2824.00,0.0124
2823.00,0.0124
2822.00,0.0124
2821.00,0.0123
2820.00,0.0123
2819.00,0.0123
2818.00,0.0122
2817.00,0.0122
2816.00,0.0122
2815.00,0.0121
2814.00,0.0121
2813.00,0.0121
2812.00,0.0121
2811.00,0.0121
2810.00,0.0120
2809.00,0.0120
2808.00,0.0120
2807.00,0.0119
2806.00,0.0119
2805.00,0.0119
2804.00,0.0119
2803.00,0.0119
2802.00,0.0118
2801.00,0.0118
2800.00,0.0118
2799.00,0.0118
2798.00,0.0117
2797.00,0.0117
2796.00,0.0116
2795.00,0.0116
2794.00,0.0116
2793.00,0.0116
2792.00,0.0116
2791.00,0.0116
2790.00,0.0116
2789.00,0.0116
2788.00,0.0116
2787.00,0.0115
2786.00,0.0115
2785.00,0.0115
2784.00,0.0115
2783.00,0.0114
2782.00,0.0114
2781.00,0.0114
2780.00,0.0114
2779.00,0.0114
2778.00,0.0113
2777.00,0.0113
2776.00,0.0113
2775.00,0.0112
2774.00,0.0112
2773.00,0.0112
2772.00,0.0112
2771.00,0.0111
2770.00,0.0111
2769.00,0.0111
2768.00,0.0111
2767.00,0.0111
2766.00,0.0110
2765.00,0.0110
2764.00,0.0110
2763.00,0.0110
2762.00,0.0110
2761.00,0.0110
2760.00,0.0110
2759.00,0.0110
2758.00,0.0110
2757.00,0.0110
2756.00,0.0109
2755.00,0.0109
2754.00,0.0109
2753.00,0.0109
2752.00,0.0109
2751.00,0.0108
2750.00,0.0108
2749.00,0.0108
2748.00,0.0107
2747.00,0.0107
2746.00,0.0107
2745.00,0.0107
2744.00,0.0107
2743.00,0.0107
2742.00,0.0107
2741.00,0.0107
2740.00,0.0107
2739.00,0.0107
2738.00,0.0106
2737.00,0.0106
2736.00,0.0105
2735.00,0.0105
2734.00,0.0104
2733.00,0.0104
2732.00,0.0104
2731.00,0.0104
2730.00,0.0104
2729.00,0.0104
2728.00,0.0104
2727.00,0.0104
2726.00,0.0104
2725.00,0.0103
2724.00,0.0103
2723.00,0.0103
2722.00,0.0103
2721.00,0.0103
2720.00,0.0103
2719.00,0.0103
2718.00,0.0103
2717.00,0.0102
2716.00,0.0102
2715.00,0.0102
2714.00,0.0102
2713.00,0.0102
2712.00,0.0102
2711.00,0.0101
2710.00,0.0101
2709.00,0.0101
2708.00,0.0101
2707.00,0.0101
2706.00,0.0101
2705.00,0.0101
2704.00,0.0101
2703.00,0.0100
2702.00,0.0100
2701.00,0.0100
2700.00,0.0100
2699.00,0.0100
2698.00,0.0100
2697.00,0.0100
2696.00,0.0100
2695.00,0.0100
2694.00,0.0099
2693.00,0.0099
2692.00,0.0099
2691.00,0.0099
2690.00,0.0099
2689.00,0.0099
2688.00,0.0099
2687.00,0.0099
2686.00,0.0099
2685.00,0.0099
2684.00,0.0098
2683.00,0.0098
2682.00,0.0098
2681.00,0.0098
2680.00,0.0098
2679.00,0.0098
2678.00,0.0098
2677.00,0.0098
2676.00,0.0098
2675.00,0.0098
2674.00,0.0097
2673.00,0.0097
2672.00,0.0097
2671.00,0.0096
2670.00,0.0097
2669.00,0.0097
2668.00,0.0097
2667.00,0.0098
2666.00,0.0098
2665.00,0.0098
2664.00,0.0099
2663.00,0.0099
2662.00,0.0100
2661.00,0.0100
2660.00,0.0100
2659.00,0.0100
2658.00,0.0100
2657.00,0.0100
2656.00,0.0100
2655.00,0.0100
2654.00,0.0101
2653.00,0.0100
2652.00,0.0100
2651.00,0.0100
2650.00,0.0100
2649.00,0.0100
2648.00,0.0100
2647.00,0.0100
2646.00,0.0100
2645.00,0.0100
2644.00,0.0100
2643.00,0.0100
2642.00,0.0099
2641.00,0.0099
2640.00,0.0099
2639.00,0.0098
2638.00,0.0098
2637.00,0.0098
2636.00,0.0099
2635.00,0.0099
2634.00,0.0099
2633.00,0.0099
2632.00,0.0098
2631.00,0.0098
2630.00,0.0098
2629.00,0.0098
2628.00,0.0098
2627.00,0.0098
2626.00,0.0098
2625.00,0.0098
2624.00,0.0098
2623.00,0.0098
2622.00,0.0098
2621.00,0.0098
2620.00,0.0098
2619.00,0.0098
2618.00,0.0098
2617.00,0.0098
2616.00,0.0097
2615.00,0.0097
2614.00,0.0097
2613.00,0.0097
2612.00,0.0097
2611.00,0.0096
2610.00,0.0096
2609.00,0.0096
2608.00,0.0096
2607.00,0.0095
2606.00,0.0095
2605.00,0.0095
2604.00,0.0095
2603.00,0.0095
2602.00,0.0095
2601.00,0.0095
2600.00,0.0095
2599.00,0.0094
2598.00,0.0094
2597.00,0.0094
2596.00,0.0094
2595.00,0.0094
2594.00,0.0094
2593.00,0.0093
2592.00,0.0093
2591.00,0.0093
2590.00,0.0093
2589.00,0.0092
2588.00,0.0092
2587.00,0.0092
2586.00,0.0092
2585.00,0.0092
2584.00,0.0092
2583.00,0.0092
2582.00,0.0092
2581.00,0.0091
2580.00,0.0091
2579.00,0.0091
2578.00,0.0090
2577.00,0.0089
2576.00,0.0089
2575.00,0.0089
2574.00,0.0090
2573.00,0.0090
2572.00,0.0091
2571.00,0.0090
2570.00,0.0090
2569.00,0.0090
2568.00,0.0090
2567.00,0.0090
2566.00,0.0090
2565.00,0.0090
2564.00,0.0090
2563.00,0.0090
2562.00,0.0089
2561.00,0.0089
2560.00,0.0089
2559.00,0.0089
2558.00,0.0089
2557.00,0.0089
2556.00,0.0088
2555.00,0.0088
2554.00,0.0088
2553.00,0.0088
2552.00,0.0088
2551.00,0.0088
2550.00,0.0089
2549.00,0.0088
2548.00,0.0088
2547.00,0.0088
2546.00,0.0088
2545.00,0.0088
2544.00,0.0088
2543.00,0.0087
2542.00,0.0087
2541.00,0.0087
2540.00,0.0087
2539.00,0.0087
2538.00,0.0087
2537.00,0.0087
2536.00,0.0087
2535.00,0.0087
2534.00,0.0086
2533.00,0.0086
2532.00,0.0086
2531.00,0.0086
2530.00,0.0086
2529.00,0.0087
2528.00,0.0087
2527.00,0.0087
2526.00,0.0087
2525.00,0.0087
2524.00,0.0086
2523.00,0.0086
2522.00,0.0086
2521.00,0.0086
2520.00,0.0086
2519.00,0.0086
2518.00,0.0086
2517.00,0.0087
2516.00,0.0086
2515.00,0.0086
2514.00,0.0085
2513.00,0.0085
2512.00,0.0084
2511.00,0.0085
2510.00,0.0085
2509.00,0.0085
2508.00,0.0085
2507.00,0.0085
2506.00,0.0085
2505.00,0.0085
2504.00,0.0086
2503.00,0.0086
2502.00,0.0085
2501.00,0.0085
2500.00,0.0085
2499.00,0.0084
2498.00,0.0084
2497.00,0.0084
2496.00,0.0084
2495.00,0.0084
2494.00,0.0084
2493.00,0.0084
2492.00,0.0085
2491.00,0.0085
2490.00,0.0085
2489.00,0.0085
2488.00,0.0085
2487.00,0.0085
2486.00,0.0085
2485.00,0.0085
2484.00,0.0085
2483.00,0.0085
2482.00,0.0084
2481.00,0.0084
2480.00,0.0083
2479.00,0.0083
2478.00,0.0083
2477.00,0.0084
2476.00,0.0084
2475.00,0.0084
2474.00,0.0084
2473.00,0.0083
2472.00,0.0083
2471.00,0.0083
2470.00,0.0083
2469.00,0.0083
2468.00,0.0084
2467.00,0.0084
2466.00,0.0084
2465.00,0.0083
2464.00,0.0083
2463.00,0.0083
2462.00,0.0083
2461.00,0.0083
2460.00,0.0083
2459.00,0.0083
2458.00,0.0084
2457.00,0.0084
2456.00,0.0083
2455.00,0.0083
2454.00,0.0083
2453.00,0.0082
2452.00,0.0082
2451.00,0.0082
2450.00,0.0082
2449.00,0.0082
2448.00,0.0082
2447.00,0.0082
2446.00,0.0082
2445.00,0.0082
2444.00,0.0081
2443.00,0.0081
2442.00,0.0081
2441.00,0.0081
2440.00,0.0082
2439.00,0.0082
2438.00,0.0082
2437.00,0.0082
2436.00,0.0082
2435.00,0.0082
2434.00,0.0081
2433.00,0.0081
2432.00,0.0081
2431.00,0.0080
2430.00,0.0080
2429.00,0.0080
2428.00,0.0080
2427.00,0.0080
2426.00,0.0080
2425.00,0.0080
2424.00,0.0080
2423.00,0.0079
2422.00,0.0079
2421.00,0.0079
2420.00,0.0079
2419.00,0.0079
2418.00,0.0079
2417.00,0.0079
2416.00,0.0079
2415.00,0.0078
2414.00,0.0078
2413.00,0.0078
2412.00,0.0079
2411.00,0.0079
2410.00,0.0079
2409.00,0.0079
2408.00,0.0078
2407.00,0.0077
2406.00,0.0077
2405.00,0.0077
2404.00,0.0077
2403.00,0.0076
2402.00,0.0076
2401.00,0.0076
2400.00,0.0077
2399.00,0.0077
2398.00,0.0076
2397.00,0.0076
2396.00,0.0076
2395.00,0.0075
2394.00,0.0075
2393.00,0.0076
2392.00,0.0076
2391.00,0.0076
2390.00,0.0076
2389.00,0.0075
2388.00,0.0075
2387.00,0.0075
2386.00,0.0075
2385.00,0.0075
2384.00,0.0075
2383.00,0.0075
2382.00,0.0074
2381.00,0.0074
2380.00,0.0074
2379.00,0.0074
2378.00,0.0074
2377.00,0.0074
2376.00,0.0075
2375.00,0.0074
2374.00,0.0074
2373.00,0.0074
2372.00,0.0074
2371.00,0.0074
2370.00,0.0074
2369.00,0.0073
2368.00,0.0073
2367.00,0.0073
2366.00,0.0073
2365.00,0.0073
2364.00,0.0074
2363.00,0.0075
2362.00,0.0076
2361.00,0.0076
2360.00,0.0075
2359.00,0.0074
2358.00,0.0074
2357.00,0.0073
2356.00,0.0072
2355.00,0.0072
2354.00,0.0073
2353.00,0.0073
2352.00,0.0074
2351.00,0.0074
2350.00,0.0074
2349.00,0.0075
2348.00,0.0076
2347.00,0.0077
2346.00,0.0078
2345.00,0.0078
2344.00,0.0077
2343.00,0.0077
2342.00,0.0077
2341.00,0.0077
2340.00,0.0077
2339.00,0.0077
2338.00,0.0077
2337.00,0.0077
2336.00,0.0076
2335.00,0.0076
2334.00,0.0075
2333.00,0.0075
2332.00,0.0075
2331.00,0.0076
2330.00,0.0077
2329.00,0.0078
2328.00,0.0081
2327.00,0.0083
2326.00,0.0084
2325.00,0.0085
2324.00,0.0084
2323.00,0.0084
2322.00,0.0083
2321.00,0.0083
2320.00,0.0082
2319.00,0.0081
2318.00,0.0080
2317.00,0.0080
2316.00,0.0080
2315.00,0.0079
2314.00,0.0079
2313.00,0.0079
2312.00,0.0079
2311.00,0.0079
2310.00,0.0078
2309.00,0.0078
2308.00,0.0078
2307.00,0.0078
2306.00,0.0078
2305.00,0.0078
2304.00,0.0079
2303.00,0.0079
2302.00,0.0079
2301.00,0.0080
2300.00,0.0080
2299.00,0.0080
2298.00,0.0080
2297.00,0.0081
2296.00,0.0082
2295.00,0.0083
2294.00,0.0085
2293.00,0.0085
2292.00,0.0085
2291.00,0.0084
2290.00,0.0084
2289.00,0.0084
2288.00,0.0084
2287.00,0.0084
2286.00,0.0084
2285.00,0.0084
2284.00,0.0083
2283.00,0.0083
2282.00,0.0082
2281.00,0.0082
2280.00,0.0081
2279.00,0.0081
2278.00,0.0081
2277.00,0.0081
2276.00,0.0081
2275.00,0.0081
2274.00,0.0081
2273.00,0.0080
2272.00,0.0080
2271.00,0.0080
2270.00,0.0080
2269.00,0.0080
2268.00,0.0080
2267.00,0.0080
2266.00,0.0079
2265.00,0.0079
2264.00,0.0079
2263.00,0.0079
2262.00,0.0080
2261.00,0.0080
2260.00,0.0080
2259.00,0.0080
2258.00,0.0079
2257.00,0.0078
2256.00,0.0077
2255.00,0.0077
2254.00,0.0077
2253.00,0.0078
2252.00,0.0079
2251.00,0.0079
2250.00,0.0079
2249.00,0.0078
2248.00,0.0078
2247.00,0.0078
2246.00,0.0078
2245.00,0.0078
2244.00,0.0078
2243.00,0.0078
2242.00,0.0078
2241.00,0.0078
2240.00,0.0078
2239.00,0.0078
2238.00,0.0078
2237.00,0.0078
2236.00,0.0078
2235.00,0.0078
2234.00,0.0078
2233.00,0.0079
2232.00,0.0080
2231.00,0.0080
2230.00,0.0079
2229.00,0.0078
2228.00,0.0077
2227.00,0.0076
2226.00,0.0076
2225.00,0.0076
2224.00,0.0076
2223.00,0.0076
2222.00,0.0076
2221.00,0.0076
2220.00,0.0076
2219.00,0.0077
2218.00,0.0078
2217.00,0.0079
2216.00,0.0079
2215.00,0.0079
2214.00,0.0078
2213.00,0.0078
2212.00,0.0077
2211.00,0.0077
2210.00,0.0077
2209.00,0.0078
2208.00,0.0079
2207.00,0.0080
2206.00,0.0080
2205.00,0.0080
2204.00,0.0079
2203.00,0.0078
2202.00,0.0079
2201.00,0.0079
2200.00,0.0080
2199.00,0.0079
2198.00,0.0078
2197.00,0.0077
2196.00,0.0077
2195.00,0.0078
2194.00,0.0079
2193.00,0.0080
2192.00,0.0080
2191.00,0.0080
2190.00,0.0080
2189.00,0.0080
2188.00,0.0080
2187.00,0.0080
2186.00,0.0080
2185.00,0.0080
2184.00,0.0080
2183.00,0.0078
2182.00,0.0076
2181.00,0.0074
2180.00,0.0074
2179.00,0.0075
2178.00,0.0075
2177.00,0.0074
2176.00,0.0073
2175.00,0.0074
2174.00,0.0075
2173.00,0.0077
2172.00,0.0078
2171.00,0.0080
2170.00,0.0082
2169.00,0.0085
2168.00,0.0087
2167.00,0.0086
2166.00,0.0085
2165.00,0.0086
2164.00,0.0088
2163.00,0.0089
2162.00,0.0084
2161.00,0.0074
2160.00,0.0061
2159.00,0.0050
2158.00,0.0046
2157.00,0.0047
2156.00,0.0050
2155.00,0.0052
2154.00,0.0054
2153.00,0.0055
2152.00,0.0057
2151.00,0.0059
2150.00,0.0060
2149.00,0.0059
2148.00,0.0059
2147.00,0.0058
2146.00,0.0057
2145.00,0.0056
2144.00,0.0056
2143.00,0.0057
2142.00,0.0058
2141.00,0.0059
2140.00,0.0059
2139.00,0.0058
2138.00,0.0056
2137.00,0.0054
2136.00,0.0052
2135.00,0.0051
2134.00,0.0051
2133.00,0.0052
2132.00,0.0054
2131.00,0.0057
2130.00,0.0060
2129.00,0.0061
2128.00,0.0063
2127.00,0.0063
2126.00,0.0064
2125.00,0.0064
2124.00,0.0065
2123.00,0.0066
2122.00,0.0066
2121.00,0.0066
2120.00,0.0067
2119.00,0.0068
2118.00,0.0069
2117.00,0.0070
2116.00,0.0070
2115.00,0.0070
2114.00,0.0070
2113.00,0.0070
2112.00,0.0070
2111.00,0.0070
2110.00,0.0069
2109.00,0.0070
2108.00,0.0071
2107.00,0.0072
2106.00,0.0073
2105.00,0.0073
2104.00,0.0072
2103.00,0.0071
2102.00,0.0070
2101.00,0.0069
2100.00,0.0069
2099.00,0.0068
2098.00,0.0067
2097.00,0.0065
2096.00,0.0064
2095.00,0.0063
2094.00,0.0064
2093.00,0.0065
2092.00,0.0066
2091.00,0.0067
2090.00,0.0068
2089.00,0.0068
2088.00,0.0068
2087.00,0.0069
2086.00,0.0069
2085.00,0.0070
2084.00,0.0071
2083.00,0.0071
2082.00,0.0071
2081.00,0.0071
2080.00,0.0071
2079.00,0.0072
2078.00,0.0073
2077.00,0.0073
2076.00,0.0074
2075.00,0.0075
2074.00,0.0075
2073.00,0.0074
2072.00,0.0073
2071.00,0.0072
2070.00,0.0072
2069.00,0.0072
2068.00,0.0071
2067.00,0.0070
2066.00,0.0069
2065.00,0.0067
2064.00,0.0067
2063.00,0.0067
2062.00,0.0067
2061.00,0.0067
2060.00,0.0067
2059.00,0.0068
2058.00,0.0068
2057.00,0.0068
2056.00,0.0069
2055.00,0.0070
2054.00,0.0072
2053.00,0.0076
2052.00,0.0079
2051.00,0.0078
2050.00,0.0075
2049.00,0.0071
2048.00,0.0069
2047.00,0.0068
2046.00,0.0068
2045.00,0.0068
2044.00,0.0069
2043.00,0.0071
2042.00,0.0073
2041.00,0.0073
2040.00,0.0072
2039.00,0.0071
2038.00,0.0070
2037.00,0.0069
2036.00,0.0067
2035.00,0.0065
2034.00,0.0063
2033.00,0.0062
2032.00,0.0061
2031.00,0.0061
2030.00,0.0061
2029.00,0.0061
2028.00,0.0063
2027.00,0.0063
2026.00,0.0062
2025.00,0.0061
2024.00,0.0061
2023.00,0.0062
2022.00,0.0064
2021.00,0.0065
2020.00,0.0064
2019.00,0.0062
2018.00,0.0060
2017.00,0.0061
2016.00,0.0062
2015.00,0.0060
2014.00,0.0054
2013.00,0.0045
2012.00,0.0038
2011.00,0.0036
2010.00,0.0041
2009.00,0.0047
2008.00,0.0053
2007.00,0.0055
2006.00,0.0057
2005.00,0.0059
2004.00,0.0062
2003.00,0.0064
2002.00,0.0066
2001.00,0.0066
2000.00,0.0064
1999.00,0.0062
1998.00,0.0060
1997.00,0.0058
1996.00,0.0059
1995.00,0.0060
1994.00,0.0062
1993.00,0.0063
1992.00,0.0064
1991.00,0.0065
1990.00,0.0065
1989.00,0.0065
1988.00,0.0067
1987.00,0.0069
1986.00,0.0071
1985.00,0.0072
1984.00,0.0074
1983.00,0.0077
1982.00,0.0082
1981.00,0.0086
1980.00,0.0086
1979.00,0.0081
1978.00,0.0072
1977.00,0.0063
1976.00,0.0058
1975.00,0.0056
1974.00,0.0056
1973.00,0.0056
1972.00,0.0056
1971.00,0.0056
1970.00,0.0056
1969.00,0.0056
1968.00,0.0057
1967.00,0.0058
1966.00,0.0057
1965.00,0.0057
1964.00,0.0056
1963.00,0.0056
1962.00,0.0054
1961.00,0.0053
1960.00,0.0052
1959.00,0.0051
1958.00,0.0052
1957.00,0.0053
1956.00,0.0054
1955.00,0.0055
1954.00,0.0055
1953.00,0.0055
1952.00,0.0055
1951.00,0.0055
1950.00,0.0056
1949.00,0.0057
1948.00,0.0056
1947.00,0.0056
1946.00,0.0054
1945.00,0.0053
1944.00,0.0052
1943.00,0.0053
1942.00,0.0055
1941.00,0.0056
1940.00,0.0056
1939.00,0.0055
1938.00,0.0054
1937.00,0.0054
1936.00,0.0054
1935.00,0.0055
1934.00,0.0055
1933.00,0.0055
1932.00,0.0055
1931.00,0.0055
1930.00,0.0055
1929.00,0.0055
1928.00,0.0055
1927.00,0.0054
1926.00,0.0053
1925.00,0.0052
1924.00,0.0051
1923.00,0.0052
1922.00,0.0054
1921.00,0.0054
1920.00,0.0054
1919.00,0.0054
1918.00,0.0055
1917.00,0.0056
1916.00,0.0056
1915.00,0.0056
1914.00,0.0055
1913.00,0.0055
1912.00,0.0055
1911.00,0.0054
1910.00,0.0054
1909.00,0.0054
1908.00,0.0054
1907.00,0.0055
1906.00,0.0055
1905.00,0.0055
1904.00,0.0054
1903.00,0.0054
1902.00,0.0053
1901.00,0.0053
1900.00,0.0053
1899.00,0.0053
1898.00,0.0054
1897.00,0.0054
1896.00,0.0053
1895.00,0.0053
1894.00,0.0054
1893.00,0.0054
1892.00,0.0053
1891.00,0.0053
1890.00,0.0053
1889.00,0.0054
1888.00,0.0055
1887.00,0.0056
1886.00,0.0055
1885.00,0.0054
1884.00,0.0054
1883.00,0.0053
1882.00,0.0053
1881.00,0.0053
1880.00,0.0053
1879.00,0.0053
1878.00,0.0053
1877.00,0.0053
1876.00,0.0053
1875.00,0.0053
1874.00,0.0053
1873.00,0.0052
1872.00,0.0051
1871.00,0.0049
1870.00,0.0048
1869.00,0.0048
1868.00,0.0050
1867.00,0.0051
1866.00,0.0052
1865.00,0.0053
1864.00,0.0053
1863.00,0.0052
1862.00,0.0052
1861.00,0.0051
1860.00,0.0050
1859.00,0.0050
1858.00,0.0051
1857.00,0.0051
1856.00,0.0052
1855.00,0.0052
1854.00,0.0053
1853.00,0.0052
1852.00,0.0052
1851.00,0.0051
1850.00,0.0050
1849.00,0.0050
1848.00,0.0049
1847.00,0.0049
1846.00,0.0049
1845.00,0.0050
1844.00,0.0053
1843.00,0.0055
1842.00,0.0054
1841.00,0.0053
1840.00,0.0051
1839.00,0.0050
1838.00,0.0049
1837.00,0.0049
1836.00,0.0049
1835.00,0.0050
1834.00,0.0049
1833.00,0.0048
1832.00,0.0046
1831.00,0.0044
1830.00,0.0044
1829.00,0.0046
1828.00,0.0048
1827.00,0.0048
1826.00,0.0048
1825.00,0.0049
1824.00,0.0050
1823.00,0.0050
1822.00,0.0050
1821.00,0.0049
1820.00,0.0048
1819.00,0.0047
1818.00,0.0047
1817.00,0.0046
1816.00,0.0047
1815.00,0.0047
1814.00,0.0046
1813.00,0.0045
1812.00,0.0045
1811.00,0.0045
1810.00,0.0046
1809.00,0.0047
1808.00,0.0048
1807.00,0.0048
1806.00,0.0048
1805.00,0.0047
1804.00,0.0047
1803.00,0.0046
1802.00,0.0046
1801.00,0.0046
1800.00,0.0046
1799.00,0.0046
1798.00,0.0046
1797.00,0.0046
1796.00,0.0045
1795.00,0.0045
1794.00,0.0045
1793.00,0.0046
1792.00,0.0049
1791.00,0.0051
1790.00,0.0052
1789.00,0.0051
1788.00,0.0049
1787.00,0.0048
1786.00,0.0048
1785.00,0.0049
1784.00,0.0049
1783.00,0.0047
1782.00,0.0046
1781.00,0.0045
1780.00,0.0045
1779.00,0.0045
1778.00,0.0045
1777.00,0.0044
1776.00,0.0043
1775.00,0.0041
1774.00,0.0040
1773.00,0.0040
1772.00,0.0042
1771.00,0.0045
1770.00,0.0047
1769.00,0.0047
1768.00,0.0047
1767.00,0.0047
1766.00,0.0046
1765.00,0.0044
1764.00,0.0041
1763.00,0.0040
1762.00,0.0041
1761.00,0.0042
1760.00,0.0041
1759.00,0.0040
1758.00,0.0038
1757.00,0.0038
1756.00,0.0039
1755.00,0.0039
1754.00,0.0038
1753.00,0.0037
1752.00,0.0036
1751.00,0.0035
1750.00,0.0033
1749.00,0.0030
1748.00,0.0029
1747.00,0.0029
1746.00,0.0029
1745.00,0.0029
1744.00,0.0029
1743.00,0.0029
1742.00,0.0029
1741.00,0.0029
1740.00,0.0031
1739.00,0.0033
1738.00,0.0034
1737.00,0.0034
1736.00,0.0034
1735.00,0.0037
1734.00,0.0042
1733.00,0.0046
1732.00,0.0045
1731.00,0.0042
1730.00,0.0040
1729.00,0.0040
1728.00,0.0042
1727.00,0.0042
1726.00,0.0042
1725.00,0.0042
1724.00,0.0043
1723.00,0.0045
1722.00,0.0045
1721.00,0.0045
1720.00,0.0044
1719.00,0.0045
1718.00,0.0047
1717.00,0.0051
1716.00,0.0056
1715.00,0.0059
1714.00,0.0061
1713.00,0.0063
1712.00,0.0065
1711.00,0.0068
1710.00,0.0071
1709.00,0.0075
1708.00,0.0080
1707.00,0.0085
1706.00,0.0093
1705.00,0.0104
1704.00,0.0116
1703.00,0.0128
1702.00,0.0142
1701.00,0.0158
1700.00,0.0177
1699.00,0.0191
1698.00,0.0200
1697.00,0.0208
1696.00,0.0219
1695.00,0.0230
1694.00,0.0236
1693.00,0.0240
1692.00,0.0244
1691.00,0.0249
1690.00,0.0256
1689.00,0.0264
1688.00,0.0272
1687.00,0.0281
1686.00,0.0289
1685.00,0.0296
1684.00,0.0303
1683.00,0.0313
1682.00,0.0321
1681.00,0.0329
1680.00,0.0339
1679.00,0.0349
1678.00,0.0360
1677.00,0.0370
1676.00,0.0379
1675.00,0.0386
1674.00,0.0392
1673.00,0.0399
1672.00,0.0407
1671.00,0.0416
1670.00,0.0424
1669.00,0.0434
1668.00,0.0444
1667.00,0.0455
1666.00,0.0466
1665.00,0.0477
1664.00,0.0488
1663.00,0.0497
1662.00,0.0506
1661.00,0.0515
1660.00,0.0526
1659.00,0.0537
1658.00,0.0549
1657.00,0.0562
1656.00,0.0578
1655.00,0.0593
1654.00,0.0597
1653.00,0.0590
1652.00,0.0586
1651.00,0.0587
1650.00,0.0593
1649.00,0.0602
1648.00,0.0608
1647.00,0.0608
1646.00,0.0607
1645.00,0.0607
1644.00,0.0609
1643.00,0.0613
1642.00,0.0617
1641.00,0.0620
1640.00,0.0622
1639.00,0.0626
1638.00,0.0629
1637.00,0.0629
1636.00,0.0623
1635.00,0.0616
1634.00,0.0612
1633.00,0.0614
1632.00,0.0618
1631.00,0.0624
1630.00,0.0627
1629.00,0.0628
1628.00,0.0627
1627.00,0.0628
1626.00,0.0631
1625.00,0.0634
1624.00,0.0634
1623.00,0.0631
1622.00,0.0629
1621.00,0.0630
1620.00,0.0636
1619.00,0.0641
1618.00,0.0640
1617.00,0.0630
1616.00,0.0616
1615.00,0.0603
1614.00,0.0595
1613.00,0.0589
1612.00,0.0580
1611.00,0.0568
1610.00,0.0554
1609.00,0.0538
1608.00,0.0523
1607.00,0.0508
1606.00,0.0494
1605.00,0.0480
1604.00,0.0467
1603.00,0.0453
1602.00,0.0439
1601.00,0.0427
1600.00,0.0415
1599.00,0.0404
1598.00,0.0394
1597.00,0.0384
1596.00,0.0374
1595.00,0.0366
1594.00,0.0358
1593.00,0.0350
1592.00,0.0344
1591.00,0.0337
1590.00,0.0331
1589.00,0.0326
1588.00,0.0322
1587.00,0.0318
1586.00,0.0314
1585.00,0.0312
1584.00,0.0310
1583.00,0.0309
1582.00,0.0308
1581.00,0.0307
1580.00,0.0307
1579.00,0.0308
1578.00,0.0309
1577.00,0.0310
1576.00,0.0310
1575.00,0.0310
1574.00,0.0311
1573.00,0.0312
1572.00,0.0315
1571.00,0.0316
1570.00,0.0318
1569.00,0.0321
1568.00,0.0325
1567.00,0.0329
1566.00,0.0333
1565.00,0.0339
1564.00,0.0345
1563.00,0.0354
1562.00,0.0366
1561.00,0.0377
1560.00,0.0382
1559.00,0.0382
1558.00,0.0389
1557.00,0.0398
1556.00,0.0407
1555.00,0.0417
1554.00,0.0427
1553.00,0.0437
1552.00,0.0446
1551.00,0.0455
1550.00,0.0464
1549.00,0.0474
1548.00,0.0485
1547.00,0.0496
1546.00,0.0506
1545.00,0.0514
1544.00,0.0521
1543.00,0.0528
1542.00,0.0535
1541.00,0.0537
1540.00,0.0538
1539.00,0.0541
1538.00,0.0546
1537.00,0.0553
1536.00,0.0562
1535.00,0.0570
1534.00,0.0574
1533.00,0.0575
1532.00,0.0578
1531.00,0.0583
1530.00,0.0590
1529.00,0.0596
1528.00,0.0600
1527.00,0.0602
1526.00,0.0604
1525.00,0.0606
1524.00,0.0610
1523.00,0.0615
1522.00,0.0617
1521.00,0.0617
1520.00,0.0618
1519.00,0.0622
1518.00,0.0626
1517.00,0.0630
1516.00,0.0632
1515.00,0.0636
1514.00,0.0640
1513.00,0.0643
1512.00,0.0642
1511.00,0.0640
1510.00,0.0641
1509.00,0.0640
1508.00,0.0633
1507.00,0.0617
1506.00,0.0603
1505.00,0.0593
1504.00,0.0587
1503.00,0.0585
1502.00,0.0584
1501.00,0.0581
1500.00,0.0576
1499.00,0.0568
1498.00,0.0559
1497.00,0.0547
1496.00,0.0533
1495.00,0.0519
1494.00,0.0509
1493.00,0.0501
1492.00,0.0491
1491.00,0.0478
1490.00,0.0461
1489.00,0.0446
1488.00,0.0433
1487.00,0.0424
1486.00,0.0415
1485.00,0.0407
1484.00,0.0400
1483.00,0.0392
1482.00,0.0385
1481.00,0.0378
1480.00,0.0372
1479.00,0.0369
1478.00,0.0366
1477.00,0.0363
1476.00,0.0361
1475.00,0.0360
1474.00,0.0358
1473.00,0.0357
1472.00,0.0356
1471.00,0.0356
1470.00,0.0356
1469.00,0.0356
1468.00,0.0356
1467.00,0.0357
1466.00,0.0357
1465.00,0.0356
1464.00,0.0355
1463.00,0.0355
1462.00,0.0357
1461.00,0.0359
1460.00,0.0362
1459.00,0.0366
1458.00,0.0370
1457.00,0.0373
1456.00,0.0376
1455.00,0.0377
1454.00,0.0377
1453.00,0.0378
1452.00,0.0379
1451.00,0.0380
1450.00,0.0381
1449.00,0.0380
1448.00,0.0378
1447.00,0.0376
1446.00,0.0375
1445.00,0.0373
1444.00,0.0371
1443.00,0.0368
1442.00,0.0364
1441.00,0.0361
1440.00,0.0359
1439.00,0.0359
1438.00,0.0358
1437.00,0.0355
1436.00,0.0348
1435.00,0.0342
1434.00,0.0338
1433.00,0.0334
1432.00,0.0332
1431.00,0.0329
1430.00,0.0326
1429.00,0.0324
1428.00,0.0322
1427.00,0.0321
1426.00,0.0321
1425.00,0.0321
1424.00,0.0321
1423.00,0.0322
1422.00,0.0326
1421.00,0.0330
1420.00,0.0333
1419.00,0.0334
1418.00,0.0334
1417.00,0.0335
1416.00,0.0336
1415.00,0.0338
1414.00,0.0340
1413.00,0.0343
1412.00,0.0345
1411.00,0.0346
1410.00,0.0348
1409.00,0.0350
1408.00,0.0350
1407.00,0.0351
1406.00,0.0350
1405.00,0.0349
1404.00,0.0348
1403.00,0.0347
1402.00,0.0346
1401.00,0.0345
1400.00,0.0343
1399.00,0.0341
1398.00,0.0339
1397.00,0.0337
1396.00,0.0337
1395.00,0.0336
1394.00,0.0335
1393.00,0.0335
1392.00,0.0334
1391.00,0.0334
1390.00,0.0334
1389.00,0.0335
1388.00,0.0335
1387.00,0.0333
1386.00,0.0332
1385.00,0.0330
1384.00,0.0329
1383.00,0.0328
1382.00,0.0327
1381.00,0.0326
1380.00,0.0324
1379.00,0.0323
1378.00,0.0322
1377.00,0.0320
1376.00,0.0318
1375.00,0.0316
1374.00,0.0314
1373.00,0.0313
1372.00,0.0312
1371.00,0.0311
1370.00,0.0310
1369.00,0.0308
1368.00,0.0306
1367.00,0.0304
1366.00,0.0302
1365.00,0.0300
1364.00,0.0297
1363.00,0.0294
1362.00,0.0292
1361.00,0.0291
1360.00,0.0289
1359.00,0.0288
1358.00,0.0287
1357.00,0.0286
1356.00,0.0286
1355.00,0.0286
1354.00,0.0286
1353.00,0.0287
1352.00,0.0288
1351.00,0.0289
1350.00,0.0290
1349.00,0.0290
1348.00,0.0289
1347.00,0.0288
1346.00,0.0288
1345.00,0.0287
1344.00,0.0287
1343.00,0.0287
1342.00,0.0287
1341.00,0.0287
1340.00,0.0287
1339.00,0.0287
1338.00,0.0287
1337.00,0.0288
1336.00,0.0288
1335.00,0.0288
1334.00,0.0288
1333.00,0.0287
1332.00,0.0286
1331.00,0.0285
1330.00,0.0285
1329.00,0.0284
1328.00,0.0283
1327.00,0.0283
1326.00,0.0283
1325.00,0.0283
1324.00,0.0283
1323.00,0.0284
1322.00,0.0284
1321.00,0.0284
1320.00,0.0284
1319.00,0.0285
1318.00,0.0286
1317.00,0.0288
1316.00,0.0288
1315.00,0.0289
1314.00,0.0290
1313.00,0.0291
1312.00,0.0292
1311.00,0.0292
1310.00,0.0293
1309.00,0.0293
1308.00,0.0293
1307.00,0.0294
1306.00,0.0294
1305.00,0.0294
1304.00,0.0294
1303.00,0.0294
1302.00,0.0293
1301.00,0.0292
1300.00,0.0292
1299.00,0.0291
1298.00,0.0291
1297.00,0.0291
1296.00,0.0290
1295.00,0.0290
1294.00,0.0290
1293.00,0.0289
1292.00,0.0289
1291.00,0.0288
1290.00,0.0288
1289.00,0.0288
1288.00,0.0287
1287.00,0.0287
1286.00,0.0287
1285.00,0.0287
1284.00,0.0287
1283.00,0.0287
1282.00,0.0287
1281.00,0.0286
1280.00,0.0286
1279.00,0.0286
1278.00,0.0286
1277.00,0.0286
1276.00,0.0286
1275.00,0.0286
1274.00,0.0286
1273.00,0.0287
1272.00,0.0287
1271.00,0.0288
1270.00,0.0288
1269.00,0.0289
1268.00,0.0290
1267.00,0.0291
1266.00,0.0291
1265.00,0.0292
1264.00,0.0294
1263.00,0.0295
1262.00,0.0296
1261.00,0.0298
1260.00,0.0299
1259.00,0.0299
1258.00,0.0301
1257.00,0.0302
1256.00,0.0304
1255.00,0.0305
1254.00,0.0308
1253.00,0.0310
1252.00,0.0312
1251.00,0.0314
1250.00,0.0316
1249.00,0.0318
1248.00,0.0320
1247.00,0.0322
1246.00,0.0324
1245.00,0.0326
1244.00,0.0327
1243.00,0.0329
1242.00,0.0331
1241.00,0.0332
1240.00,0.0334
1239.00,0.0335
1238.00,0.0337
1237.00,0.0338
1236.00,0.0339
1235.00,0.0341
1234.00,0.0342
1233.00,0.0344
1232.00,0.0346
1231.00,0.0347
1230.00,0.0348
1229.00,0.0349
1228.00,0.0349
1227.00,0.0348
1226.00,0.0347
1225.00,0.0345
1224.00,0.0342
1223.00,0.0340
1222.00,0.0338
1221.00,0.0335
1220.00,0.0333
1219.00,0.0331
1218.00,0.0328
1217.00,0.0326
1216.00,0.0323
1215.00,0.0320
1214.00,0.0318
1213.00,0.0315
1212.00,0.0312
1211.00,0.0310
1210.00,0.0307
1209.00,0.0304
1208.00,0.0301
1207.00,0.0298
1206.00,0.0295
1205.00,0.0291
1204.00,0.0287
1203.00,0.0284
1202.00,0.0280
1201.00,0.0277
1200.00,0.0274
1199.00,0.0272
1198.00,0.0269
1197.00,0.0267
1196.00,0.0265
1195.00,0.0263
1194.00,0.0262
1193.00,0.0261
1192.00,0.0260
1191.00,0.0258
1190.00,0.0257
1189.00,0.0255
1188.00,0.0254
1187.00,0.0252
1186.00,0.0251
1185.00,0.0250
1184.00,0.0249
1183.00,0.0249
1182.00,0.0249
1181.00,0.0249
1180.00,0.0250
1179.00,0.0250
1178.00,0.0252
1177.00,0.0253
1176.00,0.0255
1175.00,0.0257
1174.00,0.0259
1173.00,0.0262
1172.00,0.0264
1171.00,0.0265
1170.00,0.0267
1169.00,0.0268
1168.00,0.0269
1167.00,0.0270
1166.00,0.0271
1165.00,0.0271
1164.00,0.0271
1163.00,0.0271
1162.00,0.0270
1161.00,0.0268
1160.00,0.0267
1159.00,0.0266
1158.00,0.0265
1157.00,0.0264
1156.00,0.0262
1155.00,0.0260
1154.00,0.0259
1153.00,0.0257
1152.00,0.0255
1151.00,0.0253
1150.00,0.0251
1149.00,0.0248
1148.00,0.0246
1147.00,0.0244
1146.00,0.0242
1145.00,0.0240
1144.00,0.0239
1143.00,0.0238
1142.00,0.0237
1141.00,0.0237
1140.00,0.0236
1139.00,0.0235
1138.00,0.0235
1137.00,0.0235
1136.00,0.0234
1135.00,0.0234
1134.00,0.0234
1133.00,0.0235
1132.00,0.0235
1131.00,0.0235
1130.00,0.0236
1129.00,0.0236
1128.00,0.0237
1127.00,0.0237
1126.00,0.0238
1125.00,0.0239
1124.00,0.0239
1123.00,0.0239
1122.00,0.0239
1121.00,0.0239
1120.00,0.0238
1119.00,0.0237
1118.00,0.0236
1117.00,0.0235
1116.00,0.0234
1115.00,0.0233
1114.00,0.0232
1113.00,0.0232
1112.00,0.0231
1111.00,0.0231
1110.00,0.0231
1109.00,0.0231
1108.00,0.0231
1107.00,0.0232
1106.00,0.0233
1105.00,0.0235
1104.00,0.0236
1103.00,0.0237
1102.00,0.0237
1101.00,0.0238
1100.00,0.0238
1099.00,0.0238
1098.00,0.0238
1097.00,0.0239
1096.00,0.0240
1095.00,0.0241
1094.00,0.0243
1093.00,0.0245
1092.00,0.0247
1091.00,0.0249
1090.00,0.0252
1089.00,0.0255
1088.00,0.0259
1087.00,0.0263
1086.00,0.0267
1085.00,0.0271
1084.00,0.0275
1083.00,0.0279
1082.00,0.0282
1081.00,0.0286
1080.00,0.0290
1079.00,0.0293
1078.00,0.0297
1077.00,0.0300
1076.00,0.0302
1075.00,0.0305
1074.00,0.0308
1073.00,0.0311
1072.00,0.0313
1071.00,0.0314
1070.00,0.0314
1069.00,0.0315
1068.00,0.0315
1067.00,0.0317
1066.00,0.0319
1065.00,0.0320
1064.00,0.0321
1063.00,0.0321
1062.00,0.0321
1061.00,0.0321
1060.00,0.0320
1059.00,0.0320
1058.00,0.0320
1057.00,0.0319
1056.00,0.0318
1055.00,0.0317
1054.00,0.0316
1053.00,0.0315
1052.00,0.0314
1051.00,0.0313
1050.00,0.0312
1049.00,0.0310
1048.00,0.0308
1047.00,0.0306
1046.00,0.0304
1045.00,0.0302
1044.00,0.0300
1043.00,0.0298
1042.00,0.0295
1041.00,0.0293
1040.00,0.0289
1039.00,0.0286
1038.00,0.0282
1037.00,0.0279
1036.00,0.0275
1035.00,0.0271
1034.00,0.0267
1033.00,0.0264
1032.00,0.0260
1031.00,0.0257
1030.00,0.0254
1029.00,0.0252
1028.00,0.0249
1027.00,0.0245
1026.00,0.0242
1025.00,0.0239
1024.00,0.0236
1023.00,0.0233
1022.00,0.0230
1021.00,0.0228
1020.00,0.0224
1019.00,0.0221
1018.00,0.0218
1017.00,0.0215
1016.00,0.0211
1015.00,0.0208
1014.00,0.0206
1013.00,0.0204
1012.00,0.0202
1011.00,0.0200
1010.00,0.0199
1009.00,0.0198
1008.00,0.0196
1007.00,0.0194
1006.00,0.0192
1005.00,0.0190
1004.00,0.0188
1003.00,0.0186
1002.00,0.0185
1001.00,0.0184
1000.00,0.0182
999.00,0.0181
998.00,0.0180
997.00,0.0179
996.00,0.0177
995.00,0.0176
994.00,0.0175
993.00,0.0174
992.00,0.0173
991.00,0.0171
990.00,0.0170
989.00,0.0169
988.00,0.0169
987.00,0.0168
986.00,0.0168
985.00,0.0167
984.00,0.0166
983.00,0.0166
982.00,0.0166
981.00,0.0166
980.00,0.0166
979.00,0.0166
978.00,0.0166
977.00,0.0167
976.00,0.0167
975.00,0.0167
974.00,0.0167
973.00,0.0167
972.00,0.0167
971.00,0.0168
970.00,0.0169
969.00,0.0171
968.00,0.0172
967.00,0.0173
966.00,0.0174
965.00,0.0175
964.00,0.0175
963.00,0.0176
962.00,0.0177
961.00,0.0178
960.00,0.0178
959.00,0.0177
958.00,0.0177
957.00,0.0176
956.00,0.0175
955.00,0.0174
954.00,0.0174
953.00,0.0174
952.00,0.0173
951.00,0.0173
950.00,0.0173
949.00,0.0172
948.00,0.0171
947.00,0.0170
946.00,0.0170
945.00,0.0170
944.00,0.0170
943.00,0.0170
942.00,0.0170
941.00,0.0170
940.00,0.0171
939.00,0.0171
938.00,0.0172
937.00,0.0173
936.00,0.0174
935.00,0.0174
934.00,0.0174
933.00,0.0174
932.00,0.0173
931.00,0.0172
930.00,0.0172
929.00,0.0172
928.00,0.0171
927.00,0.0171
926.00,0.0171
925.00,0.0170
924.00,0.0169
923.00,0.0168
922.00,0.0168
921.00,0.0167
920.00,0.0166
919.00,0.0165
918.00,0.0164
917.00,0.0164
916.00,0.0162
915.00,0.0161
914.00,0.0161
913.00,0.0160
912.00,0.0160
911.00,0.0159
910.00,0.0160
909.00,0.0161
908.00,0.0161
907.00,0.0161
906.00,0.0162
905.00,0.0162
904.00,0.0162
903.00,0.0163
902.00,0.0164
901.00,0.0164
900.00,0.0164
899.00,0.0163
898.00,0.0163
897.00,0.0163
896.00,0.0162
895.00,0.0162
894.00,0.0161
893.00,0.0161
892.00,0.0159
891.00,0.0158
890.00,0.0158
889.00,0.0157
888.00,0.0156
887.00,0.0155
886.00,0.0157
885.00,0.0158
884.00,0.0158
883.00,0.0157
882.00,0.0156
881.00,0.0155
880.00,0.0154
879.00,0.0153
878.00,0.0153
877.00,0.0152
876.00,0.0151
875.00,0.0151
874.00,0.0151
873.00,0.0151
872.00,0.0150
871.00,0.0149
870.00,0.0148
869.00,0.0147
868.00,0.0146
867.00,0.0146
866.00,0.0146
865.00,0.0145
864.00,0.0145
863.00,0.0144
862.00,0.0144
861.00,0.0144
860.00,0.0144
859.00,0.0144
858.00,0.0144
857.00,0.0145
856.00,0.0145
855.00,0.0145
854.00,0.0146
853.00,0.0146
852.00,0.0145
851.00,0.0144
850.00,0.0144
849.00,0.0143
848.00,0.0143
847.00,0.0144
846.00,0.0146
845.00,0.0147
844.00,0.0148
843.00,0.0148
842.00,0.0149
841.00,0.0150
840.00,0.0150
839.00,0.0151
838.00,0.0153
837.00,0.0155
836.00,0.0155
835.00,0.0157
834.00,0.0159
833.00,0.0160
832.00,0.0161
831.00,0.0163
830.00,0.0165
829.00,0.0166
828.00,0.0167
827.00,0.0167
826.00,0.0168
825.00,0.0169
824.00,0.0169
823.00,0.0169
822.00,0.0169
821.00,0.0169
820.00,0.0169
819.00,0.0170
818.00,0.0171
817.00,0.0173
816.00,0.0174
815.00,0.0176
814.00,0.0177
813.00,0.0179
812.00,0.0180
811.00,0.0180
810.00,0.0181
809.00,0.0182
808.00,0.0182
807.00,0.0182
806.00,0.0183
805.00,0.0184
804.00,0.0184
803.00,0.0185
802.00,0.0186
801.00,0.0187
800.00,0.0187
799.00,0.0187
798.00,0.0188
797.00,0.0190
796.00,0.0191
795.00,0.0192
794.00,0.0193
793.00,0.0194
792.00,0.0194
791.00,0.0195
790.00,0.0196
789.00,0.0196
788.00,0.0197
787.00,0.0198
786.00,0.0200
785.00,0.0202
784.00,0.0203
783.00,0.0205
782.00,0.0207
781.00,0.0208
780.00,0.0209
779.00,0.0211
778.00,0.0213
777.00,0.0215
776.00,0.0217
775.00,0.0219
774.00,0.0221
773.00,0.0223
772.00,0.0224
771.00,0.0226
770.00,0.0228
769.00,0.0230
768.00,0.0231
767.00,0.0232
766.00,0.0233
765.00,0.0235
764.00,0.0236
763.00,0.0237
762.00,0.0238
761.00,0.0239
760.00,0.0239
759.00,0.0239
758.00,0.0241
757.00,0.0243
756.00,0.0244
755.00,0.0246
754.00,0.0248
753.00,0.0250
752.00,0.0251
751.00,0.0252
750.00,0.0255
749.00,0.0257
748.00,0.0258
747.00,0.0260
746.00,0.0261
745.00,0.0262
744.00,0.0263
743.00,0.0263
742.00,0.0264
741.00,0.0265
740.00,0.0266
739.00,0.0267
738.00,0.0268
737.00,0.0270
736.00,0.0270
735.00,0.0270
734.00,0.0270
733.00,0.0271
732.00,0.0271
731.00,0.0273
730.00,0.0276
729.00,0.0278
728.00,0.0280
727.00,0.0281
726.00,0.0283
725.00,0.0286
724.00,0.0289
723.00,0.0292
722.00,0.0297
721.00,0.0301
720.00,0.0305
719.00,0.0308
718.00,0.0312
717.00,0.0317
716.00,0.0320
715.00,0.0324
714.00,0.0328
713.00,0.0332
712.00,0.0335
711.00,0.0339
710.00,0.0344
709.00,0.0349
708.00,0.0354
707.00,0.0358
706.00,0.0363
705.00,0.0368
704.00,0.0372
703.00,0.0376
702.00,0.0381
701.00,0.0385
700.00,0.0387
699.00,0.0389
698.00,0.0391
697.00,0.0393
696.00,0.0393
695.00,0.0393
694.00,0.0394
693.00,0.0394
692.00,0.0394
691.00,0.0394
690.00,0.0395
689.00,0.0396
688.00,0.0397
687.00,0.0397
686.00,0.0398
685.00,0.0398
684.00,0.0399
683.00,0.0400
682.00,0.0402
681.00,0.0403
680.00,0.0404
679.00,0.0405
678.00,0.0406
677.00,0.0408
676.00,0.0409
675.00,0.0410
674.00,0.0411
673.00,0.0413
672.00,0.0414
671.00,0.0417
670.00,0.0420
669.00,0.0420
668.00,0.0415
667.00,0.0411
666.00,0.0413
665.00,0.0418
664.00,0.0421
663.00,0.0423
662.00,0.0424
661.00,0.0424
660.00,0.0424
659.00,0.0424
658.00,0.0425
657.00,0.0426
656.00,0.0427
655.00,0.0428
654.00,0.0430
653.00,0.0432
652.00,0.0432
651.00,0.0433
650.00,0.0435
649.00,0.0436
648.00,0.0437
647.00,0.0438
646.00,0.0440
645.00,0.0441
644.00,0.0441
643.00,0.0442
642.00,0.0445
641.00,0.0447
640.00,0.0448
639.00,0.0449
638.00,0.0451
637.00,0.0453
636.00,0.0454
635.00,0.0456
634.00,0.0458
633.00,0.0459
632.00,0.0460
631.00,0.0461
630.00,0.0464
629.00,0.0466
628.00,0.0467
627.00,0.0467
626.00,0.0468
625.00,0.0470
624.00,0.0470
623.00,0.0470
622.00,0.0471
621.00,0.0472
620.00,0.0471
619.00,0.0470
618.00,0.0471
617.00,0.0471
616.00,0.0471
615.00,0.0471
614.00,0.0471
613.00,0.0471
612.00,0.0470
611.00,0.0471
610.00,0.0472
609.00,0.0473
608.00,0.0471
607.00,0.0469
606.00,0.0469
605.00,0.0469
604.00,0.0469
603.00,0.0469
602.00,0.0470
601.00,0.0471
600.00,0.0471
599.00,0.0470
598.00,0.0471
597.00,0.0471
596.00,0.0470
595.00,0.0470
594.00,0.0471
593.00,0.0472
592.00,0.0472
591.00,0.0473
590.00,0.0474
589.00,0.0476
588.00,0.0476
587.00,0.0475
586.00,0.0477
585.00,0.0478
584.00,0.0478
583.00,0.0479
582.00,0.0481
581.00,0.0482
580.00,0.0482
579.00,0.0483
578.00,0.0485
577.00,0.0486
576.00,0.0485
575.00,0.0484
574.00,0.0486
573.00,0.0488
572.00,0.0489
571.00,0.0490
570.00,0.0491
569.00,0.0491
568.00,0.0489
567.00,0.0488
566.00,0.0490
565.00,0.0493
564.00,0.0494
563.00,0.0495
562.00,0.0497
561.00,0.0499
560.00,0.0498
559.00,0.0499
558.00,0.0501
557.00,0.0503
556.00,0.0503
555.00,0.0503
554.00,0.0506
553.00,0.0507
552.00,0.0506
551.00,0.0506
550.00,0.0506
549.00,0.0506
548.00,0.0505
547.00,0.0504
546.00,0.0506
545.00,0.0509
544.00,0.0510
543.00,0.0511
542.00,0.0513
541.00,0.0514
540.00,0.0514
539.00,0.0515
538.00,0.0517
537.00,0.0519
536.00,0.0519
535.00,0.0521
534.00,0.0524
533.00,0.0526
532.00,0.0527
531.00,0.0527
530.00,0.0528
529.00,0.0529
528.00,0.0527
527.00,0.0527
526.00,0.0529
525.00,0.0531
524.00,0.0531
523.00,0.0530
522.00,0.0531
521.00,0.0531
520.00,0.0530
519.00,0.0528
518.00,0.0530
517.00,0.0531
516.00,0.0530
515.00,0.0530
514.00,0.0531
513.00,0.0531
512.00,0.0528
511.00,0.0527
510.00,0.0527
509.00,0.0527
508.00,0.0524
507.00,0.0520
506.00,0.0520
505.00,0.0521
504.00,0.0520
503.00,0.0519
502.00,0.0518
501.00,0.0517
500.00,0.0514
499.00,0.0512
498.00,0.0514
497.00,0.0516
496.00,0.0516
495.00,0.0515
494.00,0.0517
493.00,0.0517
492.00,0.0514
491.00,0.0512
490.00,0.0512
489.00,0.0513
488.00,0.0512
487.00,0.0512
486.00,0.0515
485.00,0.0516
484.00,0.0514
483.00,0.0513
482.00,0.0515
481.00,0.0516
480.00,0.0514
479.00,0.0514
478.00,0.0518
477.00,0.0521
476.00,0.0518
475.00,0.0513
474.00,0.0511
473.00,0.0511
472.00,0.0512
471.00,0.0515
470.00,0.0521
469.00,0.0524
468.00,0.0521
467.00,0.0517
466.00,0.0519
465.00,0.0522
464.00,0.0521
463.00,0.0519
462.00,0.0520
461.00,0.0519
460.00,0.0516
459.00,0.0515
458.00,0.0519
457.00,0.0521
456.00,0.0514
455.00,0.0507
454.00,0.0505
453.00,0.0505
452.00,0.0503
451.00,0.0501
450.00,0.0503
449.00,0.0502
448.00,0.0496
447.00,0.0489
446.00,0.0487
445.00,0.0484
444.00,0.0479
443.00,0.0475
442.00,0.0477
441.00,0.0478
440.00,0.0473
439.00,0.0469
438.00,0.0469
437.00,0.0468
436.00,0.0462
435.00,0.0455
434.00,0.0453
433.00,0.0452
432.00,0.0447
431.00,0.0445
430.00,0.0451
429.00,0.0454
428.00,0.0449
427.00,0.0442
426.00,0.0441
425.00,0.0439
424.00,0.0432
423.00,0.0427
422.00,0.0432
421.00,0.0438
420.00,0.0435
419.00,0.0428
418.00,0.0429
417.00,0.0428
416.00,0.0421
415.00,0.0420
414.00,0.0430
413.00,0.0440
412.00,0.0439
411.00,0.0437
410.00,0.0441
409.00,0.0439
408.00,0.0424
407.00,0.0412
406.00,0.0417
405.00,0.0425
404.00,0.0421
403.00,0.0417
402.00,0.0421
401.00,0.0417
400.00,0.0395
