Created as New Dataset,Sample 746 By YargerLab Date Friday, June 27 2025
cm-1,A
4000.00,0.0007
3999.00,0.0007
3998.00,0.0007
3997.00,0.0007
3996.00,0.0007
3995.00,0.0008
3994.00,0.0008
3993.00,0.0007
3992.00,0.0007
3991.00,0.0007
3990.00,0.0007
3989.00,0.0007
3988.00,0.0007
3987.00,0.0007
3986.00,0.0007
3985.00,0.0007
3984.00,0.0007
3983.00,0.0007
3982.00,0.0007
3981.00,0.0007
3980.00,0.0007
3979.00,0.0007
3978.00,0.0007
3977.00,0.0007
3976.00,0.0007
3975.00,0.0007
3974.00,0.0008
3973.00,0.0008
3972.00,0.0008
3971.00,0.0008
3970.00,0.0007
3969.00,0.0007
3968.00,0.0007
3967.00,0.0007
3966.00,0.0007
3965.00,0.0007
3964.00,0.0007
3963.00,0.0007
3962.00,0.0007
3961.00,0.0007
3960.00,0.0007
3959.00,0.0007
3958.00,0.0007
3957.00,0.0007
3956.00,0.0007
3955.00,0.0007
3954.00,0.0007
3953.00,0.0007
3952.00,0.0007
3951.00,0.0006
3950.00,0.0007
3949.00,0.0007
3948.00,0.0007
3947.00,0.0007
3946.00,0.0006
3945.00,0.0006
3944.00,0.0006
3943.00,0.0006
3942.00,0.0007
3941.00,0.0007
3940.00,0.0006
3939.00,0.0006
3938.00,0.0006
3937.00,0.0006
3936.00,0.0006
3935.00,0.0006
3934.00,0.0006
3933.00,0.0006
3932.00,0.0006
3931.00,0.0006
3930.00,0.0006
3929.00,0.0006
3928.00,0.0006
3927.00,0.0006
3926.00,0.0006
3925.00,0.0006
3924.00,0.0006
3923.00,0.0006
3922.00,0.0006
3921.00,0.0006
3920.00,0.0006
3919.00,0.0006
3918.00,0.0006
3917.00,0.0006
3916.00,0.0006
3915.00,0.0006
3914.00,0.0006
3913.00,0.0006
3912.00,0.0006
3911.00,0.0006
3910.00,0.0006
3909.00,0.0006
3908.00,0.0006
3907.00,0.0006
3906.00,0.0005
3905.00,0.0005
3904.00,0.0004
3903.00,0.0004
3902.00,0.0003
3901.00,0.0003
3900.00,0.0004
3899.00,0.0004
3898.00,0.0005
3897.00,0.0005
3896.00,0.0005
3895.00,0.0005
3894.00,0.0005
3893.00,0.0005
3892.00,0.0005
3891.00,0.0006
3890.00,0.0005
3889.00,0.0005
3888.00,0.0004
3887.00,0.0004
3886.00,0.0005
3885.00,0.0004
3884.00,0.0004
3883.00,0.0004
3882.00,0.0004
3881.00,0.0004
3880.00,0.0005
3879.00,0.0005
3878.00,0.0005
3877.00,0.0004
3876.00,0.0004
3875.00,0.0004
3874.00,0.0004
3873.00,0.0004
3872.00,0.0003
3871.00,0.0003
3870.00,0.0003
3869.00,0.0004
3868.00,0.0004
3867.00,0.0003
3866.00,0.0004
3865.00,0.0004
3864.00,0.0004
3863.00,0.0004
3862.00,0.0004
3861.00,0.0004
3860.00,0.0005
3859.00,0.0005
3858.00,0.0004
3857.00,0.0004
3856.00,0.0003
3855.00,0.0003
3854.00,0.0003
3853.00,0.0003
3852.00,0.0002
3851.00,0.0002
3850.00,0.0002
3849.00,0.0003
3848.00,0.0004
3847.00,0.0005
3846.00,0.0005
3845.00,0.0005
3844.00,0.0004
3843.00,0.0004
3842.00,0.0003
3841.00,0.0003
3840.00,0.0003
3839.00,0.0003
3838.00,0.0003
3837.00,0.0003
3836.00,0.0003
3835.00,0.0003
3834.00,0.0003
3833.00,0.0004
3832.00,0.0004
3831.00,0.0005
3830.00,0.0005
3829.00,0.0005
3828.00,0.0005
3827.00,0.0005
3826.00,0.0005
3825.00,0.0005
3824.00,0.0004
3823.00,0.0003
3822.00,0.0004
3821.00,0.0004
3820.00,0.0004
3819.00,0.0003
3818.00,0.0003
3817.00,0.0004
3816.00,0.0004
3815.00,0.0005
3814.00,0.0004
3813.00,0.0004
3812.00,0.0005
3811.00,0.0005
3810.00,0.0005
3809.00,0.0005
3808.00,0.0005
3807.00,0.0005
3806.00,0.0005
3805.00,0.0004
3804.00,0.0003
3803.00,0.0003
3802.00,0.0003
3801.00,0.0003
3800.00,0.0003
3799.00,0.0003
3798.00,0.0003
3797.00,0.0004
3796.00,0.0005
3795.00,0.0005
3794.00,0.0006
3793.00,0.0006
3792.00,0.0006
3791.00,0.0006
3790.00,0.0007
3789.00,0.0007
3788.00,0.0007
3787.00,0.0006
3786.00,0.0006
3785.00,0.0005
3784.00,0.0005
3783.00,0.0005
3782.00,0.0005
3781.00,0.0005
3780.00,0.0006
3779.00,0.0006
3778.00,0.0006
3777.00,0.0006
3776.00,0.0006
3775.00,0.0006
3774.00,0.0006
3773.00,0.0006
3772.00,0.0006
3771.00,0.0005
3770.00,0.0005
3769.00,0.0005
3768.00,0.0005
3767.00,0.0005
3766.00,0.0005
3765.00,0.0005
3764.00,0.0005
3763.00,0.0005
3762.00,0.0005
3761.00,0.0005
3760.00,0.0005
3759.00,0.0005
3758.00,0.0005
3757.00,0.0005
3756.00,0.0005
3755.00,0.0005
3754.00,0.0005
3753.00,0.0004
3752.00,0.0004
3751.00,0.0004
3750.00,0.0004
3749.00,0.0004
3748.00,0.0003
3747.00,0.0002
3746.00,0.0002
3745.00,0.0002
3744.00,0.0003
3743.00,0.0003
3742.00,0.0003
3741.00,0.0003
3740.00,0.0003
3739.00,0.0003
3738.00,0.0003
3737.00,0.0002
3736.00,0.0002
3735.00,0.0002
3734.00,0.0002
3733.00,0.0002
3732.00,0.0003
3731.00,0.0003
3730.00,0.0004
3729.00,0.0004
3728.00,0.0004
3727.00,0.0005
3726.00,0.0005
3725.00,0.0005
3724.00,0.0004
3723.00,0.0005
3722.00,0.0005
3721.00,0.0005
3720.00,0.0005
3719.00,0.0006
3718.00,0.0006
3717.00,0.0006
3716.00,0.0005
3715.00,0.0005
3714.00,0.0005
3713.00,0.0005
3712.00,0.0005
3711.00,0.0005
3710.00,0.0004
3709.00,0.0004
3708.00,0.0005
3707.00,0.0005
3706.00,0.0005
3705.00,0.0006
3704.00,0.0006
3703.00,0.0006
3702.00,0.0007
3701.00,0.0007
3700.00,0.0007
3699.00,0.0007
3698.00,0.0007
3697.00,0.0007
3696.00,0.0007
3695.00,0.0007
3694.00,0.0007
3693.00,0.0007
3692.00,0.0007
3691.00,0.0007
3690.00,0.0007
3689.00,0.0007
3688.00,0.0007
3687.00,0.0007
3686.00,0.0008
3685.00,0.0008
3684.00,0.0009
3683.00,0.0009
3682.00,0.0010
3681.00,0.0010
3680.00,0.0010
3679.00,0.0010
3678.00,0.0009
3677.00,0.0009
3676.00,0.0010
3675.00,0.0010
3674.00,0.0009
3673.00,0.0009
3672.00,0.0009
3671.00,0.0010
3670.00,0.0011
3669.00,0.0012
3668.00,0.0012
3667.00,0.0013
3666.00,0.0014
3665.00,0.0015
3664.00,0.0016
3663.00,0.0016
3662.00,0.0017
3661.00,0.0017
3660.00,0.0017
3659.00,0.0017
3658.00,0.0018
3657.00,0.0018
3656.00,0.0018
3655.00,0.0018
3654.00,0.0018
3653.00,0.0018
3652.00,0.0018
3651.00,0.0018
3650.00,0.0019
3649.00,0.0019
3648.00,0.0019
3647.00,0.0020
3646.00,0.0021
3645.00,0.0022
3644.00,0.0023
3643.00,0.0024
3642.00,0.0025
3641.00,0.0026
3640.00,0.0027
3639.00,0.0027
3638.00,0.0028
3637.00,0.0029
3636.00,0.0029
3635.00,0.0030
3634.00,0.0030
3633.00,0.0031
3632.00,0.0031
3631.00,0.0031
3630.00,0.0031
3629.00,0.0031
3628.00,0.0031
3627.00,0.0031
3626.00,0.0032
3625.00,0.0034
3624.00,0.0035
3623.00,0.0037
3622.00,0.0037
3621.00,0.0038
3620.00,0.0038
3619.00,0.0038
3618.00,0.0038
3617.00,0.0039
3616.00,0.0039
3615.00,0.0040
3614.00,0.0041
3613.00,0.0042
3612.00,0.0043
3611.00,0.0044
3610.00,0.0044
3609.00,0.0045
3608.00,0.0046
3607.00,0.0046
3606.00,0.0047
3605.00,0.0048
3604.00,0.0049
3603.00,0.0050
3602.00,0.0051
3601.00,0.0052
3600.00,0.0052
3599.00,0.0053
3598.00,0.0054
3597.00,0.0055
3596.00,0.0055
3595.00,0.0056
3594.00,0.0057
3593.00,0.0057
3592.00,0.0058
3591.00,0.0059
3590.00,0.0060
3589.00,0.0061
3588.00,0.0061
3587.00,0.0061
3586.00,0.0061
3585.00,0.0062
3584.00,0.0063
3583.00,0.0064
3582.00,0.0066
3581.00,0.0067
3580.00,0.0068
3579.00,0.0069
3578.00,0.0070
3577.00,0.0071
3576.00,0.0071
3575.00,0.0072
3574.00,0.0073
3573.00,0.0074
3572.00,0.0075
3571.00,0.0076
3570.00,0.0077
3569.00,0.0077
3568.00,0.0078
3567.00,0.0078
3566.00,0.0077
3565.00,0.0077
3564.00,0.0078
3563.00,0.0080
3562.00,0.0081
3561.00,0.0083
3560.00,0.0084
3559.00,0.0085
3558.00,0.0086
3557.00,0.0087
3556.00,0.0088
3555.00,0.0089
3554.00,0.0090
3553.00,0.0091
3552.00,0.0092
3551.00,0.0092
3550.00,0.0093
3549.00,0.0094
3548.00,0.0095
3547.00,0.0096
3546.00,0.0097
3545.00,0.0097
3544.00,0.0097
3543.00,0.0098
3542.00,0.0099
3541.00,0.0100
3540.00,0.0102
3539.00,0.0103
3538.00,0.0104
3537.00,0.0105
3536.00,0.0106
3535.00,0.0106
3534.00,0.0107
3533.00,0.0108
3532.00,0.0109
3531.00,0.0109
3530.00,0.0110
3529.00,0.0111
3528.00,0.0111
3527.00,0.0112
3526.00,0.0113
3525.00,0.0113
3524.00,0.0114
3523.00,0.0115
3522.00,0.0115
3521.00,0.0116
3520.00,0.0117
3519.00,0.0119
3518.00,0.0119
3517.00,0.0120
3516.00,0.0121
3515.00,0.0122
3514.00,0.0123
3513.00,0.0123
3512.00,0.0124
3511.00,0.0125
3510.00,0.0126
3509.00,0.0126
3508.00,0.0127
3507.00,0.0128
3506.00,0.0129
3505.00,0.0130
3504.00,0.0131
3503.00,0.0131
3502.00,0.0132
3501.00,0.0132
3500.00,0.0133
3499.00,0.0134
3498.00,0.0136
3497.00,0.0136
3496.00,0.0137
3495.00,0.0138
3494.00,0.0139
3493.00,0.0139
3492.00,0.0140
3491.00,0.0141
3490.00,0.0142
3489.00,0.0143
3488.00,0.0144
3487.00,0.0145
3486.00,0.0146
3485.00,0.0147
3484.00,0.0147
3483.00,0.0148
3482.00,0.0149
3481.00,0.0150
3480.00,0.0150
3479.00,0.0151
3478.00,0.0152
3477.00,0.0153
3476.00,0.0154
3475.00,0.0154
3474.00,0.0155
3473.00,0.0156
3472.00,0.0157
3471.00,0.0158
3470.00,0.0160
3469.00,0.0161
3468.00,0.0162
3467.00,0.0163
3466.00,0.0163
3465.00,0.0164
3464.00,0.0165
3463.00,0.0165
3462.00,0.0166
3461.00,0.0167
3460.00,0.0168
3459.00,0.0168
3458.00,0.0169
3457.00,0.0170
3456.00,0.0171
3455.00,0.0172
3454.00,0.0173
3453.00,0.0174
3452.00,0.0175
3451.00,0.0176
3450.00,0.0177
3449.00,0.0177
3448.00,0.0178
3447.00,0.0179
3446.00,0.0179
3445.00,0.0180
3444.00,0.0181
3443.00,0.0182
3442.00,0.0183
3441.00,0.0183
3440.00,0.0184
3439.00,0.0186
3438.00,0.0187
3437.00,0.0188
3436.00,0.0189
3435.00,0.0190
3434.00,0.0191
3433.00,0.0192
3432.00,0.0193
3431.00,0.0194
3430.00,0.0194
3429.00,0.0195
3428.00,0.0196
3427.00,0.0197
3426.00,0.0198
3425.00,0.0199
3424.00,0.0200
3423.00,0.0201
3422.00,0.0202
3421.00,0.0203
3420.00,0.0204
3419.00,0.0204
3418.00,0.0205
3417.00,0.0206
3416.00,0.0207
3415.00,0.0208
3414.00,0.0209
3413.00,0.0210
3412.00,0.0211
3411.00,0.0213
3410.00,0.0213
3409.00,0.0214
3408.00,0.0215
3407.00,0.0216
3406.00,0.0217
3405.00,0.0217
3404.00,0.0218
3403.00,0.0219
3402.00,0.0220
3401.00,0.0220
3400.00,0.0221
3399.00,0.0222
3398.00,0.0223
3397.00,0.0224
3396.00,0.0225
3395.00,0.0226
3394.00,0.0227
3393.00,0.0228
3392.00,0.0229
3391.00,0.0230
3390.00,0.0231
3389.00,0.0232
3388.00,0.0233
3387.00,0.0234
3386.00,0.0235
3385.00,0.0235
3384.00,0.0236
3383.00,0.0237
3382.00,0.0238
3381.00,0.0240
3380.00,0.0241
3379.00,0.0242
3378.00,0.0243
3377.00,0.0244
3376.00,0.0246
3375.00,0.0247
3374.00,0.0248
3373.00,0.0249
3372.00,0.0250
3371.00,0.0251
3370.00,0.0252
3369.00,0.0253
3368.00,0.0254
3367.00,0.0256
3366.00,0.0257
3365.00,0.0258
3364.00,0.0259
3363.00,0.0261
3362.00,0.0262
3361.00,0.0264
3360.00,0.0265
3359.00,0.0266
3358.00,0.0268
3357.00,0.0269
3356.00,0.0271
3355.00,0.0272
3354.00,0.0274
3353.00,0.0275
3352.00,0.0276
3351.00,0.0278
3350.00,0.0279
3349.00,0.0281
3348.00,0.0283
3347.00,0.0284
3346.00,0.0286
3345.00,0.0288
3344.00,0.0289
3343.00,0.0291
3342.00,0.0292
3341.00,0.0294
3340.00,0.0296
3339.00,0.0298
3338.00,0.0300
3337.00,0.0302
3336.00,0.0303
3335.00,0.0305
3334.00,0.0307
3333.00,0.0309
3332.00,0.0311
3331.00,0.0314
3330.00,0.0316
3329.00,0.0318
3328.00,0.0320
3327.00,0.0322
3326.00,0.0325
3325.00,0.0327
3324.00,0.0330
3323.00,0.0332
3322.00,0.0335
3321.00,0.0337
3320.00,0.0340
3319.00,0.0343
3318.00,0.0346
3317.00,0.0348
3316.00,0.0351
3315.00,0.0354
3314.00,0.0357
3313.00,0.0360
3312.00,0.0363
3311.00,0.0365
3310.00,0.0368
3309.00,0.0371
3308.00,0.0373
3307.00,0.0376
3306.00,0.0380
3305.00,0.0383
3304.00,0.0387
3303.00,0.0390
3302.00,0.0394
3301.00,0.0398
3300.00,0.0402
3299.00,0.0405
3298.00,0.0408
3297.00,0.0412
3296.00,0.0415
3295.00,0.0418
3294.00,0.0422
3293.00,0.0425
3292.00,0.0428
3291.00,0.0431
3290.00,0.0435
3289.00,0.0438
3288.00,0.0441
3287.00,0.0444
3286.00,0.0448
3285.00,0.0451
3284.00,0.0454
3283.00,0.0456
3282.00,0.0459
3281.00,0.0461
3280.00,0.0463
3279.00,0.0465
3278.00,0.0467
3277.00,0.0468
3276.00,0.0469
3275.00,0.0470
3274.00,0.0471
3273.00,0.0471
3272.00,0.0471
3271.00,0.0471
3270.00,0.0471
3269.00,0.0471
3268.00,0.0471
3267.00,0.0470
3266.00,0.0469
3265.00,0.0468
3264.00,0.0466
3263.00,0.0464
3262.00,0.0462
3261.00,0.0460
3260.00,0.0458
3259.00,0.0455
3258.00,0.0452
3257.00,0.0449
3256.00,0.0446
3255.00,0.0443
3254.00,0.0440
3253.00,0.0437
3252.00,0.0434
3251.00,0.0431
3250.00,0.0428
3249.00,0.0425
3248.00,0.0422
3247.00,0.0419
3246.00,0.0416
3245.00,0.0413
3244.00,0.0410
3243.00,0.0408
3242.00,0.0405
3241.00,0.0402
3240.00,0.0399
3239.00,0.0396
3238.00,0.0394
3237.00,0.0391
3236.00,0.0388
3235.00,0.0385
3234.00,0.0382
3233.00,0.0379
3232.00,0.0377
3231.00,0.0375
3230.00,0.0373
3229.00,0.0371
3228.00,0.0369
3227.00,0.0367
3226.00,0.0365
3225.00,0.0363
3224.00,0.0361
3223.00,0.0359
3222.00,0.0357
3221.00,0.0355
3220.00,0.0353
3219.00,0.0351
3218.00,0.0349
3217.00,0.0347
3216.00,0.0345
3215.00,0.0343
3214.00,0.0342
3213.00,0.0340
3212.00,0.0338
3211.00,0.0337
3210.00,0.0335
3209.00,0.0333
3208.00,0.0331
3207.00,0.0329
3206.00,0.0328
3205.00,0.0326
3204.00,0.0325
3203.00,0.0324
3202.00,0.0322
3201.00,0.0321
3200.00,0.0319
3199.00,0.0318
3198.00,0.0316
3197.00,0.0315
3196.00,0.0313
3195.00,0.0311
3194.00,0.0310
3193.00,0.0308
3192.00,0.0307
3191.00,0.0306
3190.00,0.0304
3189.00,0.0303
3188.00,0.0302
3187.00,0.0300
3186.00,0.0299
3185.00,0.0297
3184.00,0.0296
3183.00,0.0294
3182.00,0.0293
3181.00,0.0291
3180.00,0.0290
3179.00,0.0289
3178.00,0.0287
3177.00,0.0286
3176.00,0.0285
3175.00,0.0283
3174.00,0.0282
3173.00,0.0281
3172.00,0.0279
3171.00,0.0278
3170.00,0.0277
3169.00,0.0276
3168.00,0.0274
3167.00,0.0273
3166.00,0.0272
3165.00,0.0271
3164.00,0.0269
3163.00,0.0268
3162.00,0.0267
3161.00,0.0265
3160.00,0.0264
3159.00,0.0263
3158.00,0.0262
3157.00,0.0262
3156.00,0.0260
3155.00,0.0259
3154.00,0.0258
3153.00,0.0256
3152.00,0.0255
3151.00,0.0254
3150.00,0.0253
3149.00,0.0253
3148.00,0.0252
3147.00,0.0251
3146.00,0.0250
3145.00,0.0249
3144.00,0.0248
3143.00,0.0247
3142.00,0.0246
3141.00,0.0245
3140.00,0.0244
3139.00,0.0243
3138.00,0.0243
3137.00,0.0242
3136.00,0.0242
3135.00,0.0241
3134.00,0.0241
3133.00,0.0240
3132.00,0.0239
3131.00,0.0239
3130.00,0.0238
3129.00,0.0238
3128.00,0.0238
3127.00,0.0237
3126.00,0.0237
3125.00,0.0237
3124.00,0.0236
3123.00,0.0236
3122.00,0.0235
3121.00,0.0235
3120.00,0.0234
3119.00,0.0234
3118.00,0.0234
3117.00,0.0234
3116.00,0.0234
3115.00,0.0234
3114.00,0.0234
3113.00,0.0235
3112.00,0.0235
3111.00,0.0235
3110.00,0.0235
3109.00,0.0235
3108.00,0.0236
3107.00,0.0236
3106.00,0.0237
3105.00,0.0237
3104.00,0.0238
3103.00,0.0238
3102.00,0.0238
3101.00,0.0238
3100.00,0.0238
3099.00,0.0239
3098.00,0.0239
3097.00,0.0240
3096.00,0.0241
3095.00,0.0241
3094.00,0.0242
3093.00,0.0242
3092.00,0.0242
3091.00,0.0243
3090.00,0.0243
3089.00,0.0243
3088.00,0.0244
3087.00,0.0244
3086.00,0.0244
3085.00,0.0244
3084.00,0.0244
3083.00,0.0244
3082.00,0.0244
3081.00,0.0244
3080.00,0.0243
3079.00,0.0243
3078.00,0.0243
3077.00,0.0244
3076.00,0.0244
3075.00,0.0244
3074.00,0.0244
3073.00,0.0244
3072.00,0.0243
3071.00,0.0243
3070.00,0.0242
3069.00,0.0241
3068.00,0.0240
3067.00,0.0239
3066.00,0.0239
3065.00,0.0238
3064.00,0.0238
3063.00,0.0237
3062.00,0.0236
3061.00,0.0236
3060.00,0.0235
3059.00,0.0233
3058.00,0.0232
3057.00,0.0231
3056.00,0.0229
3055.00,0.0228
3054.00,0.0226
3053.00,0.0225
3052.00,0.0223
3051.00,0.0222
3050.00,0.0221
3049.00,0.0220
3048.00,0.0219
3047.00,0.0218
3046.00,0.0216
3045.00,0.0215
3044.00,0.0213
3043.00,0.0212
3042.00,0.0211
3041.00,0.0210
3040.00,0.0209
3039.00,0.0209
3038.00,0.0208
3037.00,0.0207
3036.00,0.0206
3035.00,0.0205
3034.00,0.0204
3033.00,0.0203
3032.00,0.0202
3031.00,0.0201
3030.00,0.0201
3029.00,0.0200
3028.00,0.0199
3027.00,0.0198
3026.00,0.0197
3025.00,0.0196
3024.00,0.0195
3023.00,0.0194
3022.00,0.0193
3021.00,0.0191
3020.00,0.0190
3019.00,0.0189
3018.00,0.0187
3017.00,0.0186
3016.00,0.0185
3015.00,0.0184
3014.00,0.0183
3013.00,0.0182
3012.00,0.0182
3011.00,0.0182
3010.00,0.0182
3009.00,0.0181
3008.00,0.0181
3007.00,0.0181
3006.00,0.0180
3005.00,0.0180
3004.00,0.0180
3003.00,0.0180
3002.00,0.0180
3001.00,0.0180
3000.00,0.0180
2999.00,0.0180
2998.00,0.0181
2997.00,0.0181
2996.00,0.0181
2995.00,0.0182
2994.00,0.0183
2993.00,0.0184
2992.00,0.0185
2991.00,0.0186
2990.00,0.0188
2989.00,0.0190
2988.00,0.0191
2987.00,0.0193
2986.00,0.0196
2985.00,0.0198
2984.00,0.0200
2983.00,0.0202
2982.00,0.0204
2981.00,0.0207
2980.00,0.0210
2979.00,0.0213
2978.00,0.0216
2977.00,0.0219
2976.00,0.0222
2975.00,0.0225
2974.00,0.0227
2973.00,0.0230
2972.00,0.0233
2971.00,0.0236
2970.00,0.0239
2969.00,0.0242
2968.00,0.0245
2967.00,0.0247
2966.00,0.0249
2965.00,0.0251
2964.00,0.0253
2963.00,0.0254
2962.00,0.0255
2961.00,0.0255
2960.00,0.0255
2959.00,0.0254
2958.00,0.0253
2957.00,0.0252
2956.00,0.0250
2955.00,0.0248
2954.00,0.0245
2953.00,0.0243
2952.00,0.0240
2951.00,0.0238
2950.00,0.0236
2949.00,0.0235
2948.00,0.0234
2947.00,0.0233
2946.00,0.0233
2945.00,0.0233
2944.00,0.0234
2943.00,0.0236
2942.00,0.0237
2941.00,0.0239
2940.00,0.0241
2939.00,0.0243
2938.00,0.0245
2937.00,0.0247
2936.00,0.0249
2935.00,0.0251
2934.00,0.0253
2933.00,0.0254
2932.00,0.0256
2931.00,0.0257
2930.00,0.0257
2929.00,0.0258
2928.00,0.0258
2927.00,0.0258
2926.00,0.0258
2925.00,0.0258
2924.00,0.0257
2923.00,0.0256
2922.00,0.0255
2921.00,0.0254
2920.00,0.0252
2919.00,0.0250
2918.00,0.0247
2917.00,0.0245
2916.00,0.0242
2915.00,0.0239
2914.00,0.0235
2913.00,0.0232
2912.00,0.0229
2911.00,0.0226
2910.00,0.0223
2909.00,0.0220
2908.00,0.0217
2907.00,0.0215
2906.00,0.0213
2905.00,0.0210
2904.00,0.0208
2903.00,0.0207
2902.00,0.0205
2901.00,0.0203
2900.00,0.0202
2899.00,0.0201
2898.00,0.0199
2897.00,0.0198
2896.00,0.0197
2895.00,0.0195
2894.00,0.0194
2893.00,0.0193
2892.00,0.0193
2891.00,0.0192
2890.00,0.0191
2889.00,0.0191
2888.00,0.0191
2887.00,0.0191
2886.00,0.0191
2885.00,0.0191
2884.00,0.0192
2883.00,0.0192
2882.00,0.0193
2881.00,0.0194
2880.00,0.0195
2879.00,0.0196
2878.00,0.0198
2877.00,0.0199
2876.00,0.0199
2875.00,0.0200
2874.00,0.0200
2873.00,0.0199
2872.00,0.0199
2871.00,0.0197
2870.00,0.0196
2869.00,0.0194
2868.00,0.0192
2867.00,0.0190
2866.00,0.0188
2865.00,0.0186
2864.00,0.0184
2863.00,0.0182
2862.00,0.0181
2861.00,0.0179
2860.00,0.0179
2859.00,0.0178
2858.00,0.0178
2857.00,0.0178
2856.00,0.0178
2855.00,0.0178
2854.00,0.0177
2853.00,0.0177
2852.00,0.0176
2851.00,0.0175
2850.00,0.0173
2849.00,0.0171
2848.00,0.0168
2847.00,0.0165
2846.00,0.0162
2845.00,0.0159
2844.00,0.0156
2843.00,0.0154
2842.00,0.0151
2841.00,0.0149
2840.00,0.0147
2839.00,0.0146
2838.00,0.0144
2837.00,0.0143
2836.00,0.0142
2835.00,0.0142
2834.00,0.0141
2833.00,0.0140
2832.00,0.0139
2831.00,0.0139
2830.00,0.0138
2829.00,0.0137
2828.00,0.0137
2827.00,0.0136
2826.00,0.0136
2825.00,0.0136
2824.00,0.0135
2823.00,0.0135
2822.00,0.0134
2821.00,0.0134
2820.00,0.0134
2819.00,0.0133
2818.00,0.0133
2817.00,0.0133
2816.00,0.0132
2815.00,0.0132
2814.00,0.0132
2813.00,0.0132
2812.00,0.0131
2811.00,0.0131
2810.00,0.0131
2809.00,0.0130
2808.00,0.0130
2807.00,0.0129
2806.00,0.0129
2805.00,0.0129
2804.00,0.0128
2803.00,0.0128
2802.00,0.0127
2801.00,0.0127
2800.00,0.0126
2799.00,0.0126
2798.00,0.0126
2797.00,0.0126
2796.00,0.0126
2795.00,0.0125
2794.00,0.0125
2793.00,0.0124
2792.00,0.0124
2791.00,0.0124
2790.00,0.0123
2789.00,0.0123
2788.00,0.0122
2787.00,0.0122
2786.00,0.0121
2785.00,0.0121
2784.00,0.0121
2783.00,0.0120
2782.00,0.0120
2781.00,0.0119
2780.00,0.0119
2779.00,0.0118
2778.00,0.0117
2777.00,0.0117
2776.00,0.0116
2775.00,0.0116
2774.00,0.0115
2773.00,0.0115
2772.00,0.0114
2771.00,0.0113
2770.00,0.0113
2769.00,0.0112
2768.00,0.0112
2767.00,0.0111
2766.00,0.0111
2765.00,0.0110
2764.00,0.0110
2763.00,0.0109
2762.00,0.0109
2761.00,0.0108
2760.00,0.0108
2759.00,0.0107
2758.00,0.0106
2757.00,0.0106
2756.00,0.0106
2755.00,0.0105
2754.00,0.0105
2753.00,0.0104
2752.00,0.0104
2751.00,0.0103
2750.00,0.0103
2749.00,0.0102
2748.00,0.0102
2747.00,0.0102
2746.00,0.0101
2745.00,0.0101
2744.00,0.0101
2743.00,0.0101
2742.00,0.0100
2741.00,0.0100
2740.00,0.0100
2739.00,0.0099
2738.00,0.0099
2737.00,0.0098
2736.00,0.0098
2735.00,0.0098
2734.00,0.0097
2733.00,0.0097
2732.00,0.0097
2731.00,0.0097
2730.00,0.0096
2729.00,0.0096
2728.00,0.0095
2727.00,0.0095
2726.00,0.0095
2725.00,0.0094
2724.00,0.0094
2723.00,0.0094
2722.00,0.0093
2721.00,0.0093
2720.00,0.0093
2719.00,0.0092
2718.00,0.0092
2717.00,0.0092
2716.00,0.0091
2715.00,0.0091
2714.00,0.0091
2713.00,0.0090
2712.00,0.0090
2711.00,0.0090
2710.00,0.0089
2709.00,0.0089
2708.00,0.0089
2707.00,0.0089
2706.00,0.0088
2705.00,0.0088
2704.00,0.0088
2703.00,0.0088
2702.00,0.0087
2701.00,0.0087
2700.00,0.0087
2699.00,0.0087
2698.00,0.0086
2697.00,0.0086
2696.00,0.0086
2695.00,0.0086
2694.00,0.0085
2693.00,0.0085
2692.00,0.0085
2691.00,0.0085
2690.00,0.0085
2689.00,0.0085
2688.00,0.0084
2687.00,0.0084
2686.00,0.0084
2685.00,0.0084
2684.00,0.0084
2683.00,0.0083
2682.00,0.0083
2681.00,0.0083
2680.00,0.0082
2679.00,0.0082
2678.00,0.0082
2677.00,0.0082
2676.00,0.0082
2675.00,0.0081
2674.00,0.0081
2673.00,0.0080
2672.00,0.0080
2671.00,0.0080
2670.00,0.0080
2669.00,0.0080
2668.00,0.0079
2667.00,0.0080
2666.00,0.0080
2665.00,0.0080
2664.00,0.0080
2663.00,0.0080
2662.00,0.0080
2661.00,0.0080
2660.00,0.0080
2659.00,0.0080
2658.00,0.0080
2657.00,0.0080
2656.00,0.0080
2655.00,0.0080
2654.00,0.0080
2653.00,0.0079
2652.00,0.0079
2651.00,0.0079
2650.00,0.0078
2649.00,0.0078
2648.00,0.0078
2647.00,0.0078
2646.00,0.0077
2645.00,0.0077
2644.00,0.0077
2643.00,0.0077
2642.00,0.0077
2641.00,0.0076
2640.00,0.0076
2639.00,0.0076
2638.00,0.0076
2637.00,0.0076
2636.00,0.0075
2635.00,0.0075
2634.00,0.0075
2633.00,0.0075
2632.00,0.0074
2631.00,0.0074
2630.00,0.0074
2629.00,0.0074
2628.00,0.0074
2627.00,0.0074
2626.00,0.0073
2625.00,0.0073
2624.00,0.0073
2623.00,0.0073
2622.00,0.0072
2621.00,0.0072
2620.00,0.0071
2619.00,0.0071
2618.00,0.0070
2617.00,0.0070
2616.00,0.0070
2615.00,0.0069
2614.00,0.0069
2613.00,0.0069
2612.00,0.0069
2611.00,0.0069
2610.00,0.0069
2609.00,0.0069
2608.00,0.0068
2607.00,0.0068
2606.00,0.0068
2605.00,0.0068
2604.00,0.0067
2603.00,0.0067
2602.00,0.0066
2601.00,0.0066
2600.00,0.0066
2599.00,0.0066
2598.00,0.0066
2597.00,0.0065
2596.00,0.0065
2595.00,0.0065
2594.00,0.0065
2593.00,0.0064
2592.00,0.0064
2591.00,0.0064
2590.00,0.0064
2589.00,0.0063
2588.00,0.0063
2587.00,0.0062
2586.00,0.0062
2585.00,0.0062
2584.00,0.0062
2583.00,0.0062
2582.00,0.0062
2581.00,0.0061
2580.00,0.0061
2579.00,0.0060
2578.00,0.0060
2577.00,0.0060
2576.00,0.0060
2575.00,0.0060
2574.00,0.0060
2573.00,0.0060
2572.00,0.0060
2571.00,0.0059
2570.00,0.0059
2569.00,0.0059
2568.00,0.0059
2567.00,0.0059
2566.00,0.0058
2565.00,0.0058
2564.00,0.0058
2563.00,0.0058
2562.00,0.0058
2561.00,0.0057
2560.00,0.0057
2559.00,0.0057
2558.00,0.0057
2557.00,0.0056
2556.00,0.0056
2555.00,0.0056
2554.00,0.0056
2553.00,0.0056
2552.00,0.0055
2551.00,0.0055
2550.00,0.0055
2549.00,0.0055
2548.00,0.0055
2547.00,0.0055
2546.00,0.0055
2545.00,0.0055
2544.00,0.0054
2543.00,0.0054
2542.00,0.0054
2541.00,0.0054
2540.00,0.0054
2539.00,0.0054
2538.00,0.0053
2537.00,0.0053
2536.00,0.0052
2535.00,0.0052
2534.00,0.0052
2533.00,0.0052
2532.00,0.0052
2531.00,0.0052
2530.00,0.0052
2529.00,0.0051
2528.00,0.0051
2527.00,0.0051
2526.00,0.0051
2525.00,0.0051
2524.00,0.0051
2523.00,0.0051
2522.00,0.0051
2521.00,0.0051
2520.00,0.0050
2519.00,0.0050
2518.00,0.0050
2517.00,0.0050
2516.00,0.0050
2515.00,0.0050
2514.00,0.0050
2513.00,0.0050
2512.00,0.0050
2511.00,0.0049
2510.00,0.0049
2509.00,0.0048
2508.00,0.0048
2507.00,0.0048
2506.00,0.0048
2505.00,0.0048
2504.00,0.0049
2503.00,0.0048
2502.00,0.0048
2501.00,0.0048
2500.00,0.0048
2499.00,0.0048
2498.00,0.0047
2497.00,0.0047
2496.00,0.0047
2495.00,0.0047
2494.00,0.0047
2493.00,0.0046
2492.00,0.0046
2491.00,0.0046
2490.00,0.0046
2489.00,0.0046
2488.00,0.0046
2487.00,0.0045
2486.00,0.0045
2485.00,0.0045
2484.00,0.0045
2483.00,0.0045
2482.00,0.0045
2481.00,0.0044
2480.00,0.0044
2479.00,0.0044
2478.00,0.0044
2477.00,0.0044
2476.00,0.0044
2475.00,0.0044
2474.00,0.0044
2473.00,0.0044
2472.00,0.0044
2471.00,0.0044
2470.00,0.0044
2469.00,0.0044
2468.00,0.0043
2467.00,0.0043
2466.00,0.0043
2465.00,0.0043
2464.00,0.0043
2463.00,0.0043
2462.00,0.0042
2461.00,0.0042
2460.00,0.0043
2459.00,0.0043
2458.00,0.0043
2457.00,0.0043
2456.00,0.0043
2455.00,0.0043
2454.00,0.0043
2453.00,0.0042
2452.00,0.0042
2451.00,0.0042
2450.00,0.0041
2449.00,0.0041
2448.00,0.0040
2447.00,0.0040
2446.00,0.0040
2445.00,0.0039
2444.00,0.0039
2443.00,0.0039
2442.00,0.0039
2441.00,0.0039
2440.00,0.0039
2439.00,0.0039
2438.00,0.0039
2437.00,0.0039
2436.00,0.0038
2435.00,0.0038
2434.00,0.0038
2433.00,0.0037
2432.00,0.0037
2431.00,0.0037
2430.00,0.0037
2429.00,0.0036
2428.00,0.0036
2427.00,0.0036
2426.00,0.0036
2425.00,0.0035
2424.00,0.0035
2423.00,0.0035
2422.00,0.0035
2421.00,0.0035
2420.00,0.0035
2419.00,0.0035
2418.00,0.0035
2417.00,0.0035
2416.00,0.0035
2415.00,0.0035
2414.00,0.0034
2413.00,0.0034
2412.00,0.0034
2411.00,0.0034
2410.00,0.0034
2409.00,0.0034
2408.00,0.0033
2407.00,0.0032
2406.00,0.0032
2405.00,0.0031
2404.00,0.0031
2403.00,0.0031
2402.00,0.0031
2401.00,0.0031
2400.00,0.0031
2399.00,0.0031
2398.00,0.0031
2397.00,0.0031
2396.00,0.0031
2395.00,0.0031
2394.00,0.0031
2393.00,0.0031
2392.00,0.0030
2391.00,0.0030
2390.00,0.0030
2389.00,0.0030
2388.00,0.0030
2387.00,0.0030
2386.00,0.0029
2385.00,0.0029
2384.00,0.0029
2383.00,0.0029
2382.00,0.0028
2381.00,0.0028
2380.00,0.0029
2379.00,0.0029
2378.00,0.0029
2377.00,0.0029
2376.00,0.0029
2375.00,0.0029
2374.00,0.0028
2373.00,0.0028
2372.00,0.0028
2371.00,0.0028
2370.00,0.0027
2369.00,0.0027
2368.00,0.0027
2367.00,0.0027
2366.00,0.0028
2365.00,0.0029
2364.00,0.0029
2363.00,0.0029
2362.00,0.0029
2361.00,0.0029
2360.00,0.0029
2359.00,0.0029
2358.00,0.0029
2357.00,0.0029
2356.00,0.0029
2355.00,0.0029
2354.00,0.0029
2353.00,0.0028
2352.00,0.0029
2351.00,0.0029
2350.00,0.0030
2349.00,0.0030
2348.00,0.0030
2347.00,0.0030
2346.00,0.0031
2345.00,0.0031
2344.00,0.0032
2343.00,0.0032
2342.00,0.0032
2341.00,0.0032
2340.00,0.0032
2339.00,0.0031
2338.00,0.0031
2337.00,0.0031
2336.00,0.0031
2335.00,0.0031
2334.00,0.0031
2333.00,0.0031
2332.00,0.0031
2331.00,0.0031
2330.00,0.0031
2329.00,0.0033
2328.00,0.0036
2327.00,0.0039
2326.00,0.0042
2325.00,0.0044
2324.00,0.0043
2323.00,0.0042
2322.00,0.0040
2321.00,0.0039
2320.00,0.0038
2319.00,0.0037
2318.00,0.0037
2317.00,0.0036
2316.00,0.0036
2315.00,0.0035
2314.00,0.0035
2313.00,0.0034
2312.00,0.0034
2311.00,0.0034
2310.00,0.0034
2309.00,0.0033
2308.00,0.0033
2307.00,0.0033
2306.00,0.0033
2305.00,0.0034
2304.00,0.0034
2303.00,0.0034
2302.00,0.0034
2301.00,0.0034
2300.00,0.0034
2299.00,0.0034
2298.00,0.0035
2297.00,0.0035
2296.00,0.0036
2295.00,0.0036
2294.00,0.0036
2293.00,0.0036
2292.00,0.0037
2291.00,0.0037
2290.00,0.0038
2289.00,0.0038
2288.00,0.0039
2287.00,0.0039
2286.00,0.0039
2285.00,0.0038
2284.00,0.0037
2283.00,0.0036
2282.00,0.0035
2281.00,0.0035
2280.00,0.0035
2279.00,0.0035
2278.00,0.0034
2277.00,0.0034
2276.00,0.0034
2275.00,0.0034
2274.00,0.0034
2273.00,0.0033
2272.00,0.0033
2271.00,0.0033
2270.00,0.0033
2269.00,0.0032
2268.00,0.0032
2267.00,0.0031
2266.00,0.0031
2265.00,0.0030
2264.00,0.0030
2263.00,0.0030
2262.00,0.0030
2261.00,0.0030
2260.00,0.0030
2259.00,0.0030
2258.00,0.0029
2257.00,0.0029
2256.00,0.0028
2255.00,0.0027
2254.00,0.0026
2253.00,0.0026
2252.00,0.0026
2251.00,0.0026
2250.00,0.0027
2249.00,0.0027
2248.00,0.0027
2247.00,0.0028
2246.00,0.0029
2245.00,0.0029
2244.00,0.0029
2243.00,0.0029
2242.00,0.0029
2241.00,0.0029
2240.00,0.0028
2239.00,0.0028
2238.00,0.0028
2237.00,0.0028
2236.00,0.0028
2235.00,0.0029
2234.00,0.0029
2233.00,0.0029
2232.00,0.0028
2231.00,0.0028
2230.00,0.0027
2229.00,0.0026
2228.00,0.0026
2227.00,0.0026
2226.00,0.0026
2225.00,0.0027
2224.00,0.0028
2223.00,0.0028
2222.00,0.0028
2221.00,0.0028
2220.00,0.0027
2219.00,0.0027
2218.00,0.0026
2217.00,0.0026
2216.00,0.0026
2215.00,0.0027
2214.00,0.0027
2213.00,0.0026
2212.00,0.0026
2211.00,0.0026
2210.00,0.0026
2209.00,0.0027
2208.00,0.0027
2207.00,0.0027
2206.00,0.0027
2205.00,0.0026
2204.00,0.0026
2203.00,0.0026
2202.00,0.0026
2201.00,0.0026
2200.00,0.0027
2199.00,0.0028
2198.00,0.0028
2197.00,0.0028
2196.00,0.0028
2195.00,0.0028
2194.00,0.0027
2193.00,0.0026
2192.00,0.0026
2191.00,0.0026
2190.00,0.0027
2189.00,0.0028
2188.00,0.0029
2187.00,0.0029
2186.00,0.0029
2185.00,0.0028
2184.00,0.0025
2183.00,0.0023
2182.00,0.0021
2181.00,0.0021
2180.00,0.0023
2179.00,0.0024
2178.00,0.0024
2177.00,0.0022
2176.00,0.0021
2175.00,0.0020
2174.00,0.0020
2173.00,0.0021
2172.00,0.0023
2171.00,0.0025
2170.00,0.0027
2169.00,0.0028
2168.00,0.0030
2167.00,0.0030
2166.00,0.0031
2165.00,0.0032
2164.00,0.0035
2163.00,0.0036
2162.00,0.0032
2161.00,0.0022
2160.00,0.0010
2159.00,-0.0002
2158.00,-0.0010
2157.00,-0.0011
2156.00,-0.0010
2155.00,-0.0006
2154.00,-0.0002
2153.00,0.0002
2152.00,0.0006
2151.00,0.0009
2150.00,0.0010
2149.00,0.0011
2148.00,0.0010
2147.00,0.0009
2146.00,0.0008
2145.00,0.0007
2144.00,0.0008
2143.00,0.0008
2142.00,0.0008
2141.00,0.0008
2140.00,0.0009
2139.00,0.0009
2138.00,0.0009
2137.00,0.0008
2136.00,0.0007
2135.00,0.0005
2134.00,0.0004
2133.00,0.0005
2132.00,0.0007
2131.00,0.0010
2130.00,0.0012
2129.00,0.0013
2128.00,0.0014
2127.00,0.0015
2126.00,0.0016
2125.00,0.0018
2124.00,0.0019
2123.00,0.0020
2122.00,0.0020
2121.00,0.0021
2120.00,0.0021
2119.00,0.0022
2118.00,0.0023
2117.00,0.0024
2116.00,0.0025
2115.00,0.0026
2114.00,0.0026
2113.00,0.0026
2112.00,0.0026
2111.00,0.0026
2110.00,0.0025
2109.00,0.0025
2108.00,0.0025
2107.00,0.0025
2106.00,0.0025
2105.00,0.0025
2104.00,0.0025
2103.00,0.0025
2102.00,0.0025
2101.00,0.0026
2100.00,0.0026
2099.00,0.0026
2098.00,0.0024
2097.00,0.0022
2096.00,0.0020
2095.00,0.0018
2094.00,0.0018
2093.00,0.0019
2092.00,0.0021
2091.00,0.0022
2090.00,0.0023
2089.00,0.0023
2088.00,0.0024
2087.00,0.0025
2086.00,0.0025
2085.00,0.0026
2084.00,0.0026
2083.00,0.0027
2082.00,0.0026
2081.00,0.0027
2080.00,0.0027
2079.00,0.0027
2078.00,0.0026
2077.00,0.0026
2076.00,0.0026
2075.00,0.0026
2074.00,0.0026
2073.00,0.0027
2072.00,0.0027
2071.00,0.0026
2070.00,0.0025
2069.00,0.0024
2068.00,0.0024
2067.00,0.0024
2066.00,0.0024
2065.00,0.0024
2064.00,0.0025
2063.00,0.0025
2062.00,0.0024
2061.00,0.0023
2060.00,0.0023
2059.00,0.0022
2058.00,0.0022
2057.00,0.0022
2056.00,0.0023
2055.00,0.0024
2054.00,0.0025
2053.00,0.0029
2052.00,0.0032
2051.00,0.0033
2050.00,0.0031
2049.00,0.0028
2048.00,0.0025
2047.00,0.0023
2046.00,0.0022
2045.00,0.0022
2044.00,0.0023
2043.00,0.0024
2042.00,0.0024
2041.00,0.0024
2040.00,0.0025
2039.00,0.0025
2038.00,0.0025
2037.00,0.0024
2036.00,0.0024
2035.00,0.0022
2034.00,0.0020
2033.00,0.0018
2032.00,0.0018
2031.00,0.0017
2030.00,0.0015
2029.00,0.0013
2028.00,0.0012
2027.00,0.0011
2026.00,0.0010
2025.00,0.0010
2024.00,0.0012
2023.00,0.0014
2022.00,0.0014
2021.00,0.0014
2020.00,0.0014
2019.00,0.0013
2018.00,0.0012
2017.00,0.0012
2016.00,0.0012
2015.00,0.0013
2014.00,0.0012
2013.00,0.0012
2012.00,0.0012
2011.00,0.0013
2010.00,0.0013
2009.00,0.0012
2008.00,0.0012
2007.00,0.0010
2006.00,0.0009
2005.00,0.0008
2004.00,0.0009
2003.00,0.0010
2002.00,0.0011
2001.00,0.0012
2000.00,0.0013
1999.00,0.0014
1998.00,0.0014
1997.00,0.0015
1996.00,0.0015
1995.00,0.0015
1994.00,0.0015
1993.00,0.0016
1992.00,0.0019
1991.00,0.0020
1990.00,0.0021
1989.00,0.0022
1988.00,0.0022
1987.00,0.0022
1986.00,0.0022
1985.00,0.0023
1984.00,0.0025
1983.00,0.0027
1982.00,0.0028
1981.00,0.0027
1980.00,0.0024
1979.00,0.0019
1978.00,0.0014
1977.00,0.0010
1976.00,0.0009
1975.00,0.0008
1974.00,0.0007
1973.00,0.0007
1972.00,0.0007
1971.00,0.0008
1970.00,0.0007
1969.00,0.0007
1968.00,0.0008
1967.00,0.0010
1966.00,0.0011
1965.00,0.0011
1964.00,0.0010
1963.00,0.0008
1962.00,0.0005
1961.00,0.0004
1960.00,0.0004
1959.00,0.0004
1958.00,0.0004
1957.00,0.0005
1956.00,0.0007
1955.00,0.0009
1954.00,0.0010
1953.00,0.0010
1952.00,0.0011
1951.00,0.0011
1950.00,0.0011
1949.00,0.0011
1948.00,0.0011
1947.00,0.0011
1946.00,0.0010
1945.00,0.0010
1944.00,0.0010
1943.00,0.0011
1942.00,0.0012
1941.00,0.0013
1940.00,0.0013
1939.00,0.0012
1938.00,0.0011
1937.00,0.0012
1936.00,0.0012
1935.00,0.0013
1934.00,0.0012
1933.00,0.0012
1932.00,0.0012
1931.00,0.0012
1930.00,0.0012
1929.00,0.0012
1928.00,0.0012
1927.00,0.0012
1926.00,0.0011
1925.00,0.0010
1924.00,0.0011
1923.00,0.0013
1922.00,0.0014
1921.00,0.0014
1920.00,0.0013
1919.00,0.0014
1918.00,0.0016
1917.00,0.0017
1916.00,0.0017
1915.00,0.0016
1914.00,0.0014
1913.00,0.0014
1912.00,0.0013
1911.00,0.0013
1910.00,0.0014
1909.00,0.0015
1908.00,0.0016
1907.00,0.0016
1906.00,0.0016
1905.00,0.0016
1904.00,0.0016
1903.00,0.0017
1902.00,0.0017
1901.00,0.0017
1900.00,0.0017
1899.00,0.0016
1898.00,0.0015
1897.00,0.0014
1896.00,0.0015
1895.00,0.0015
1894.00,0.0016
1893.00,0.0015
1892.00,0.0014
1891.00,0.0014
1890.00,0.0015
1889.00,0.0017
1888.00,0.0018
1887.00,0.0019
1886.00,0.0018
1885.00,0.0018
1884.00,0.0018
1883.00,0.0019
1882.00,0.0018
1881.00,0.0018
1880.00,0.0018
1879.00,0.0018
1878.00,0.0018
1877.00,0.0018
1876.00,0.0018
1875.00,0.0018
1874.00,0.0018
1873.00,0.0017
1872.00,0.0015
1871.00,0.0013
1870.00,0.0012
1869.00,0.0013
1868.00,0.0015
1867.00,0.0017
1866.00,0.0018
1865.00,0.0018
1864.00,0.0018
1863.00,0.0019
1862.00,0.0019
1861.00,0.0019
1860.00,0.0019
1859.00,0.0019
1858.00,0.0019
1857.00,0.0018
1856.00,0.0018
1855.00,0.0019
1854.00,0.0019
1853.00,0.0019
1852.00,0.0020
1851.00,0.0020
1850.00,0.0019
1849.00,0.0020
1848.00,0.0020
1847.00,0.0021
1846.00,0.0021
1845.00,0.0022
1844.00,0.0021
1843.00,0.0020
1842.00,0.0020
1841.00,0.0020
1840.00,0.0021
1839.00,0.0021
1838.00,0.0021
1837.00,0.0021
1836.00,0.0021
1835.00,0.0022
1834.00,0.0023
1833.00,0.0019
1832.00,0.0016
1831.00,0.0015
1830.00,0.0017
1829.00,0.0020
1828.00,0.0021
1827.00,0.0021
1826.00,0.0021
1825.00,0.0023
1824.00,0.0025
1823.00,0.0025
1822.00,0.0024
1821.00,0.0024
1820.00,0.0023
1819.00,0.0023
1818.00,0.0022
1817.00,0.0022
1816.00,0.0023
1815.00,0.0023
1814.00,0.0022
1813.00,0.0021
1812.00,0.0020
1811.00,0.0022
1810.00,0.0023
1809.00,0.0025
1808.00,0.0026
1807.00,0.0026
1806.00,0.0026
1805.00,0.0026
1804.00,0.0026
1803.00,0.0025
1802.00,0.0025
1801.00,0.0025
1800.00,0.0026
1799.00,0.0027
1798.00,0.0029
1797.00,0.0030
1796.00,0.0031
1795.00,0.0032
1794.00,0.0033
1793.00,0.0033
1792.00,0.0033
1791.00,0.0032
1790.00,0.0031
1789.00,0.0031
1788.00,0.0032
1787.00,0.0033
1786.00,0.0033
1785.00,0.0033
1784.00,0.0034
1783.00,0.0034
1782.00,0.0035
1781.00,0.0035
1780.00,0.0035
1779.00,0.0034
1778.00,0.0034
1777.00,0.0035
1776.00,0.0036
1775.00,0.0038
1774.00,0.0039
1773.00,0.0039
1772.00,0.0039
1771.00,0.0039
1770.00,0.0038
1769.00,0.0039
1768.00,0.0039
1767.00,0.0039
1766.00,0.0040
1765.00,0.0039
1764.00,0.0038
1763.00,0.0039
1762.00,0.0042
1761.00,0.0044
1760.00,0.0045
1759.00,0.0044
1758.00,0.0044
1757.00,0.0047
1756.00,0.0049
1755.00,0.0050
1754.00,0.0049
1753.00,0.0049
1752.00,0.0050
1751.00,0.0051
1750.00,0.0050
1749.00,0.0050
1748.00,0.0053
1747.00,0.0055
1746.00,0.0057
1745.00,0.0058
1744.00,0.0060
1743.00,0.0062
1742.00,0.0063
1741.00,0.0065
1740.00,0.0069
1739.00,0.0073
1738.00,0.0075
1737.00,0.0075
1736.00,0.0076
1735.00,0.0081
1734.00,0.0088
1733.00,0.0091
1732.00,0.0089
1731.00,0.0086
1730.00,0.0086
1729.00,0.0089
1728.00,0.0091
1727.00,0.0092
1726.00,0.0093
1725.00,0.0093
1724.00,0.0095
1723.00,0.0098
1722.00,0.0099
1721.00,0.0098
1720.00,0.0098
1719.00,0.0099
1718.00,0.0104
1717.00,0.0110
1716.00,0.0116
1715.00,0.0121
1714.00,0.0124
1713.00,0.0128
1712.00,0.0131
1711.00,0.0135
1710.00,0.0140
1709.00,0.0145
1708.00,0.0150
1707.00,0.0158
1706.00,0.0169
1705.00,0.0185
1704.00,0.0203
1703.00,0.0219
1702.00,0.0238
1701.00,0.0263
1700.00,0.0294
1699.00,0.0318
1698.00,0.0335
1697.00,0.0353
1696.00,0.0374
1695.00,0.0392
1694.00,0.0400
1693.00,0.0404
1692.00,0.0409
1691.00,0.0415
1690.00,0.0422
1689.00,0.0430
1688.00,0.0440
1687.00,0.0451
1686.00,0.0460
1685.00,0.0471
1684.00,0.0484
1683.00,0.0495
1682.00,0.0504
1681.00,0.0516
1680.00,0.0530
1679.00,0.0546
1678.00,0.0561
1677.00,0.0577
1676.00,0.0591
1675.00,0.0601
1674.00,0.0610
1673.00,0.0620
1672.00,0.0632
1671.00,0.0645
1670.00,0.0658
1669.00,0.0671
1668.00,0.0684
1667.00,0.0698
1666.00,0.0713
1665.00,0.0729
1664.00,0.0744
1663.00,0.0757
1662.00,0.0769
1661.00,0.0783
1660.00,0.0798
1659.00,0.0815
1658.00,0.0833
1657.00,0.0854
1656.00,0.0877
1655.00,0.0896
1654.00,0.0903
1653.00,0.0896
1652.00,0.0886
1651.00,0.0887
1650.00,0.0898
1649.00,0.0912
1648.00,0.0921
1647.00,0.0924
1646.00,0.0921
1645.00,0.0920
1644.00,0.0925
1643.00,0.0933
1642.00,0.0942
1641.00,0.0949
1640.00,0.0957
1639.00,0.0967
1638.00,0.0976
1637.00,0.0983
1636.00,0.0986
1635.00,0.0987
1634.00,0.0993
1633.00,0.1007
1632.00,0.1028
1631.00,0.1051
1630.00,0.1072
1629.00,0.1090
1628.00,0.1109
1627.00,0.1130
1626.00,0.1153
1625.00,0.1175
1624.00,0.1194
1623.00,0.1208
1622.00,0.1220
1621.00,0.1237
1620.00,0.1258
1619.00,0.1276
1618.00,0.1280
1617.00,0.1263
1616.00,0.1236
1615.00,0.1211
1614.00,0.1195
1613.00,0.1181
1612.00,0.1163
1611.00,0.1136
1610.00,0.1103
1609.00,0.1067
1608.00,0.1032
1607.00,0.0998
1606.00,0.0965
1605.00,0.0935
1604.00,0.0906
1603.00,0.0878
1602.00,0.0852
1601.00,0.0829
1600.00,0.0809
1599.00,0.0790
1598.00,0.0773
1597.00,0.0757
1596.00,0.0743
1595.00,0.0729
1594.00,0.0717
1593.00,0.0707
1592.00,0.0698
1591.00,0.0690
1590.00,0.0682
1589.00,0.0676
1588.00,0.0670
1587.00,0.0666
1586.00,0.0662
1585.00,0.0659
1584.00,0.0657
1583.00,0.0655
1582.00,0.0653
1581.00,0.0654
1580.00,0.0655
1579.00,0.0658
1578.00,0.0662
1577.00,0.0664
1576.00,0.0665
1575.00,0.0666
1574.00,0.0670
1573.00,0.0679
1572.00,0.0689
1571.00,0.0697
1570.00,0.0703
1569.00,0.0711
1568.00,0.0719
1567.00,0.0728
1566.00,0.0738
1565.00,0.0750
1564.00,0.0764
1563.00,0.0782
1562.00,0.0803
1561.00,0.0820
1560.00,0.0826
1559.00,0.0823
1558.00,0.0824
1557.00,0.0833
1556.00,0.0848
1555.00,0.0865
1554.00,0.0881
1553.00,0.0895
1552.00,0.0909
1551.00,0.0923
1550.00,0.0935
1549.00,0.0948
1548.00,0.0963
1547.00,0.0979
1546.00,0.0993
1545.00,0.1004
1544.00,0.1013
1543.00,0.1021
1542.00,0.1027
1541.00,0.1028
1540.00,0.1027
1539.00,0.1026
1538.00,0.1033
1537.00,0.1049
1536.00,0.1068
1535.00,0.1083
1534.00,0.1090
1533.00,0.1090
1532.00,0.1091
1531.00,0.1099
1530.00,0.1110
1529.00,0.1120
1528.00,0.1126
1527.00,0.1127
1526.00,0.1126
1525.00,0.1127
1524.00,0.1130
1523.00,0.1132
1522.00,0.1129
1521.00,0.1120
1520.00,0.1112
1519.00,0.1111
1518.00,0.1113
1517.00,0.1112
1516.00,0.1107
1515.00,0.1102
1514.00,0.1098
1513.00,0.1091
1512.00,0.1077
1511.00,0.1062
1510.00,0.1048
1509.00,0.1031
1508.00,0.1004
1507.00,0.0965
1506.00,0.0924
1505.00,0.0892
1504.00,0.0873
1503.00,0.0861
1502.00,0.0850
1501.00,0.0836
1500.00,0.0819
1499.00,0.0800
1498.00,0.0781
1497.00,0.0758
1496.00,0.0734
1495.00,0.0712
1494.00,0.0695
1493.00,0.0679
1492.00,0.0663
1491.00,0.0644
1490.00,0.0622
1489.00,0.0602
1488.00,0.0586
1487.00,0.0574
1486.00,0.0564
1485.00,0.0555
1484.00,0.0546
1483.00,0.0539
1482.00,0.0531
1481.00,0.0525
1480.00,0.0521
1479.00,0.0519
1478.00,0.0518
1477.00,0.0518
1476.00,0.0519
1475.00,0.0522
1474.00,0.0526
1473.00,0.0531
1472.00,0.0537
1471.00,0.0543
1470.00,0.0548
1469.00,0.0553
1468.00,0.0558
1467.00,0.0562
1466.00,0.0563
1465.00,0.0563
1464.00,0.0563
1463.00,0.0563
1462.00,0.0565
1461.00,0.0570
1460.00,0.0576
1459.00,0.0583
1458.00,0.0591
1457.00,0.0598
1456.00,0.0601
1455.00,0.0600
1454.00,0.0601
1453.00,0.0603
1452.00,0.0606
1451.00,0.0607
1450.00,0.0607
1449.00,0.0606
1448.00,0.0604
1447.00,0.0601
1446.00,0.0599
1445.00,0.0597
1444.00,0.0595
1443.00,0.0593
1442.00,0.0591
1441.00,0.0590
1440.00,0.0590
1439.00,0.0592
1438.00,0.0592
1437.00,0.0585
1436.00,0.0573
1435.00,0.0560
1434.00,0.0551
1433.00,0.0544
1432.00,0.0538
1431.00,0.0532
1430.00,0.0526
1429.00,0.0521
1428.00,0.0518
1427.00,0.0516
1426.00,0.0515
1425.00,0.0515
1424.00,0.0516
1423.00,0.0519
1422.00,0.0526
1421.00,0.0533
1420.00,0.0539
1419.00,0.0543
1418.00,0.0547
1417.00,0.0551
1416.00,0.0556
1415.00,0.0563
1414.00,0.0571
1413.00,0.0578
1412.00,0.0585
1411.00,0.0592
1410.00,0.0599
1409.00,0.0605
1408.00,0.0611
1407.00,0.0616
1406.00,0.0621
1405.00,0.0626
1404.00,0.0630
1403.00,0.0634
1402.00,0.0638
1401.00,0.0642
1400.00,0.0646
1399.00,0.0648
1398.00,0.0649
1397.00,0.0652
1396.00,0.0654
1395.00,0.0656
1394.00,0.0656
1393.00,0.0656
1392.00,0.0657
1391.00,0.0659
1390.00,0.0662
1389.00,0.0663
1388.00,0.0662
1387.00,0.0657
1386.00,0.0651
1385.00,0.0644
1384.00,0.0638
1383.00,0.0632
1382.00,0.0626
1381.00,0.0619
1380.00,0.0612
1379.00,0.0606
1378.00,0.0599
1377.00,0.0592
1376.00,0.0586
1375.00,0.0579
1374.00,0.0574
1373.00,0.0569
1372.00,0.0566
1371.00,0.0562
1370.00,0.0558
1369.00,0.0554
1368.00,0.0548
1367.00,0.0542
1366.00,0.0535
1365.00,0.0529
1364.00,0.0522
1363.00,0.0515
1362.00,0.0509
1361.00,0.0504
1360.00,0.0500
1359.00,0.0498
1358.00,0.0497
1357.00,0.0497
1356.00,0.0497
1355.00,0.0499
1354.00,0.0501
1353.00,0.0504
1352.00,0.0506
1351.00,0.0509
1350.00,0.0510
1349.00,0.0512
1348.00,0.0513
1347.00,0.0514
1346.00,0.0513
1345.00,0.0512
1344.00,0.0511
1343.00,0.0510
1342.00,0.0508
1341.00,0.0506
1340.00,0.0503
1339.00,0.0501
1338.00,0.0498
1337.00,0.0496
1336.00,0.0493
1335.00,0.0490
1334.00,0.0488
1333.00,0.0485
1332.00,0.0483
1331.00,0.0481
1330.00,0.0480
1329.00,0.0478
1328.00,0.0478
1327.00,0.0477
1326.00,0.0477
1325.00,0.0476
1324.00,0.0476
1323.00,0.0477
1322.00,0.0477
1321.00,0.0477
1320.00,0.0478
1319.00,0.0478
1318.00,0.0479
1317.00,0.0480
1316.00,0.0480
1315.00,0.0480
1314.00,0.0479
1313.00,0.0479
1312.00,0.0478
1311.00,0.0476
1310.00,0.0475
1309.00,0.0474
1308.00,0.0473
1307.00,0.0471
1306.00,0.0470
1305.00,0.0468
1304.00,0.0467
1303.00,0.0465
1302.00,0.0464
1301.00,0.0464
1300.00,0.0463
1299.00,0.0463
1298.00,0.0463
1297.00,0.0463
1296.00,0.0463
1295.00,0.0464
1294.00,0.0466
1293.00,0.0467
1292.00,0.0469
1291.00,0.0471
1290.00,0.0473
1289.00,0.0475
1288.00,0.0477
1287.00,0.0478
1286.00,0.0480
1285.00,0.0481
1284.00,0.0482
1283.00,0.0483
1282.00,0.0483
1281.00,0.0484
1280.00,0.0484
1279.00,0.0484
1278.00,0.0485
1277.00,0.0485
1276.00,0.0485
1275.00,0.0485
1274.00,0.0486
1273.00,0.0487
1272.00,0.0488
1271.00,0.0490
1270.00,0.0492
1269.00,0.0495
1268.00,0.0499
1267.00,0.0504
1266.00,0.0509
1265.00,0.0513
1264.00,0.0518
1263.00,0.0523
1262.00,0.0527
1261.00,0.0532
1260.00,0.0536
1259.00,0.0540
1258.00,0.0544
1257.00,0.0549
1256.00,0.0553
1255.00,0.0557
1254.00,0.0561
1253.00,0.0566
1252.00,0.0571
1251.00,0.0575
1250.00,0.0580
1249.00,0.0584
1248.00,0.0588
1247.00,0.0592
1246.00,0.0596
1245.00,0.0600
1244.00,0.0604
1243.00,0.0607
1242.00,0.0610
1241.00,0.0613
1240.00,0.0616
1239.00,0.0618
1238.00,0.0620
1237.00,0.0621
1236.00,0.0623
1235.00,0.0623
1234.00,0.0624
1233.00,0.0624
1232.00,0.0623
1231.00,0.0622
1230.00,0.0621
1229.00,0.0619
1228.00,0.0616
1227.00,0.0613
1226.00,0.0610
1225.00,0.0606
1224.00,0.0602
1223.00,0.0598
1222.00,0.0593
1221.00,0.0588
1220.00,0.0582
1219.00,0.0575
1218.00,0.0569
1217.00,0.0561
1216.00,0.0553
1215.00,0.0545
1214.00,0.0537
1213.00,0.0528
1212.00,0.0519
1211.00,0.0511
1210.00,0.0503
1209.00,0.0495
1208.00,0.0487
1207.00,0.0480
1206.00,0.0472
1205.00,0.0466
1204.00,0.0459
1203.00,0.0454
1202.00,0.0448
1201.00,0.0444
1200.00,0.0440
1199.00,0.0436
1198.00,0.0432
1197.00,0.0429
1196.00,0.0426
1195.00,0.0424
1194.00,0.0421
1193.00,0.0420
1192.00,0.0418
1191.00,0.0416
1190.00,0.0415
1189.00,0.0413
1188.00,0.0412
1187.00,0.0411
1186.00,0.0410
1185.00,0.0408
1184.00,0.0407
1183.00,0.0406
1182.00,0.0406
1181.00,0.0406
1180.00,0.0407
1179.00,0.0409
1178.00,0.0412
1177.00,0.0415
1176.00,0.0419
1175.00,0.0423
1174.00,0.0427
1173.00,0.0431
1172.00,0.0434
1171.00,0.0437
1170.00,0.0438
1169.00,0.0440
1168.00,0.0440
1167.00,0.0441
1166.00,0.0441
1165.00,0.0442
1164.00,0.0443
1163.00,0.0444
1162.00,0.0446
1161.00,0.0447
1160.00,0.0448
1159.00,0.0450
1158.00,0.0451
1157.00,0.0452
1156.00,0.0453
1155.00,0.0453
1154.00,0.0453
1153.00,0.0453
1152.00,0.0452
1151.00,0.0450
1150.00,0.0449
1149.00,0.0447
1148.00,0.0445
1147.00,0.0442
1146.00,0.0440
1145.00,0.0438
1144.00,0.0437
1143.00,0.0436
1142.00,0.0435
1141.00,0.0435
1140.00,0.0435
1139.00,0.0435
1138.00,0.0436
1137.00,0.0437
1136.00,0.0438
1135.00,0.0440
1134.00,0.0443
1133.00,0.0446
1132.00,0.0450
1131.00,0.0453
1130.00,0.0457
1129.00,0.0461
1128.00,0.0465
1127.00,0.0469
1126.00,0.0472
1125.00,0.0476
1124.00,0.0479
1123.00,0.0483
1122.00,0.0486
1121.00,0.0489
1120.00,0.0492
1119.00,0.0495
1118.00,0.0498
1117.00,0.0502
1116.00,0.0505
1115.00,0.0507
1114.00,0.0510
1113.00,0.0513
1112.00,0.0515
1111.00,0.0517
1110.00,0.0519
1109.00,0.0521
1108.00,0.0523
1107.00,0.0525
1106.00,0.0527
1105.00,0.0528
1104.00,0.0530
1103.00,0.0531
1102.00,0.0533
1101.00,0.0534
1100.00,0.0536
1099.00,0.0538
1098.00,0.0540
1097.00,0.0543
1096.00,0.0546
1095.00,0.0549
1094.00,0.0553
1093.00,0.0557
1092.00,0.0562
1091.00,0.0567
1090.00,0.0573
1089.00,0.0579
1088.00,0.0585
1087.00,0.0591
1086.00,0.0597
1085.00,0.0604
1084.00,0.0610
1083.00,0.0616
1082.00,0.0622
1081.00,0.0628
1080.00,0.0634
1079.00,0.0638
1078.00,0.0642
1077.00,0.0645
1076.00,0.0648
1075.00,0.0650
1074.00,0.0651
1073.00,0.0652
1072.00,0.0653
1071.00,0.0653
1070.00,0.0653
1069.00,0.0654
1068.00,0.0654
1067.00,0.0653
1066.00,0.0653
1065.00,0.0652
1064.00,0.0651
1063.00,0.0650
1062.00,0.0648
1061.00,0.0647
1060.00,0.0645
1059.00,0.0644
1058.00,0.0642
1057.00,0.0640
1056.00,0.0638
1055.00,0.0635
1054.00,0.0632
1053.00,0.0629
1052.00,0.0626
1051.00,0.0622
1050.00,0.0619
1049.00,0.0616
1048.00,0.0612
1047.00,0.0609
1046.00,0.0605
1045.00,0.0602
1044.00,0.0598
1043.00,0.0594
1042.00,0.0590
1041.00,0.0585
1040.00,0.0580
1039.00,0.0576
1038.00,0.0572
1037.00,0.0568
1036.00,0.0564
1035.00,0.0561
1034.00,0.0558
1033.00,0.0555
1032.00,0.0553
1031.00,0.0550
1030.00,0.0547
1029.00,0.0544
1028.00,0.0539
1027.00,0.0535
1026.00,0.0530
1025.00,0.0525
1024.00,0.0519
1023.00,0.0514
1022.00,0.0508
1021.00,0.0501
1020.00,0.0495
1019.00,0.0488
1018.00,0.0482
1017.00,0.0475
1016.00,0.0469
1015.00,0.0463
1014.00,0.0457
1013.00,0.0451
1012.00,0.0444
1011.00,0.0438
1010.00,0.0431
1009.00,0.0425
1008.00,0.0418
1007.00,0.0413
1006.00,0.0407
1005.00,0.0402
1004.00,0.0397
1003.00,0.0392
1002.00,0.0388
1001.00,0.0384
1000.00,0.0380
999.00,0.0377
998.00,0.0374
997.00,0.0371
996.00,0.0368
995.00,0.0365
994.00,0.0363
993.00,0.0361
992.00,0.0359
991.00,0.0358
990.00,0.0356
989.00,0.0355
988.00,0.0354
987.00,0.0354
986.00,0.0354
985.00,0.0354
984.00,0.0355
983.00,0.0356
982.00,0.0359
981.00,0.0361
980.00,0.0364
979.00,0.0367
978.00,0.0370
977.00,0.0372
976.00,0.0375
975.00,0.0377
974.00,0.0378
973.00,0.0378
972.00,0.0378
971.00,0.0378
970.00,0.0376
969.00,0.0375
968.00,0.0373
967.00,0.0370
966.00,0.0368
965.00,0.0365
964.00,0.0363
963.00,0.0361
962.00,0.0359
961.00,0.0357
960.00,0.0355
959.00,0.0354
958.00,0.0353
957.00,0.0352
956.00,0.0352
955.00,0.0351
954.00,0.0351
953.00,0.0350
952.00,0.0349
951.00,0.0349
950.00,0.0349
949.00,0.0349
948.00,0.0349
947.00,0.0349
946.00,0.0350
945.00,0.0351
944.00,0.0352
943.00,0.0353
942.00,0.0354
941.00,0.0355
940.00,0.0356
939.00,0.0357
938.00,0.0358
937.00,0.0359
936.00,0.0360
935.00,0.0360
934.00,0.0361
933.00,0.0361
932.00,0.0361
931.00,0.0360
930.00,0.0359
929.00,0.0357
928.00,0.0356
927.00,0.0354
926.00,0.0352
925.00,0.0349
924.00,0.0347
923.00,0.0344
922.00,0.0342
921.00,0.0339
920.00,0.0336
919.00,0.0334
918.00,0.0332
917.00,0.0331
916.00,0.0330
915.00,0.0329
914.00,0.0328
913.00,0.0327
912.00,0.0326
911.00,0.0326
910.00,0.0326
909.00,0.0326
908.00,0.0326
907.00,0.0326
906.00,0.0326
905.00,0.0326
904.00,0.0327
903.00,0.0327
902.00,0.0328
901.00,0.0328
900.00,0.0329
899.00,0.0329
898.00,0.0329
897.00,0.0329
896.00,0.0329
895.00,0.0329
894.00,0.0329
893.00,0.0329
892.00,0.0330
891.00,0.0330
890.00,0.0331
889.00,0.0332
888.00,0.0332
887.00,0.0333
886.00,0.0333
885.00,0.0334
884.00,0.0335
883.00,0.0335
882.00,0.0336
881.00,0.0336
880.00,0.0337
879.00,0.0337
878.00,0.0337
877.00,0.0337
876.00,0.0337
875.00,0.0336
874.00,0.0336
873.00,0.0335
872.00,0.0335
871.00,0.0335
870.00,0.0335
869.00,0.0335
868.00,0.0335
867.00,0.0335
866.00,0.0336
865.00,0.0337
864.00,0.0338
863.00,0.0340
862.00,0.0343
861.00,0.0345
860.00,0.0348
859.00,0.0350
858.00,0.0353
857.00,0.0356
856.00,0.0360
855.00,0.0363
854.00,0.0366
853.00,0.0369
852.00,0.0372
851.00,0.0373
850.00,0.0375
849.00,0.0376
848.00,0.0377
847.00,0.0379
846.00,0.0380
845.00,0.0382
844.00,0.0384
843.00,0.0386
842.00,0.0388
841.00,0.0391
840.00,0.0394
839.00,0.0398
838.00,0.0402
837.00,0.0407
836.00,0.0412
835.00,0.0417
834.00,0.0422
833.00,0.0427
832.00,0.0431
831.00,0.0435
830.00,0.0439
829.00,0.0442
828.00,0.0445
827.00,0.0448
826.00,0.0449
825.00,0.0451
824.00,0.0451
823.00,0.0452
822.00,0.0453
821.00,0.0453
820.00,0.0455
819.00,0.0456
818.00,0.0457
817.00,0.0459
816.00,0.0461
815.00,0.0463
814.00,0.0466
813.00,0.0468
812.00,0.0470
811.00,0.0473
810.00,0.0476
809.00,0.0479
808.00,0.0482
807.00,0.0485
806.00,0.0487
805.00,0.0490
804.00,0.0493
803.00,0.0497
802.00,0.0501
801.00,0.0505
800.00,0.0509
799.00,0.0512
798.00,0.0515
797.00,0.0518
796.00,0.0521
795.00,0.0525
794.00,0.0530
793.00,0.0535
792.00,0.0540
791.00,0.0546
790.00,0.0552
789.00,0.0558
788.00,0.0563
787.00,0.0568
786.00,0.0574
785.00,0.0579
784.00,0.0584
783.00,0.0588
782.00,0.0592
781.00,0.0595
780.00,0.0597
779.00,0.0600
778.00,0.0602
777.00,0.0605
776.00,0.0607
775.00,0.0609
774.00,0.0612
773.00,0.0614
772.00,0.0617
771.00,0.0619
770.00,0.0622
769.00,0.0624
768.00,0.0627
767.00,0.0629
766.00,0.0631
765.00,0.0634
764.00,0.0635
763.00,0.0637
762.00,0.0639
761.00,0.0640
760.00,0.0642
759.00,0.0645
758.00,0.0648
757.00,0.0650
756.00,0.0653
755.00,0.0655
754.00,0.0658
753.00,0.0662
752.00,0.0666
751.00,0.0670
750.00,0.0674
749.00,0.0678
748.00,0.0682
747.00,0.0685
746.00,0.0688
745.00,0.0692
744.00,0.0696
743.00,0.0699
742.00,0.0703
741.00,0.0706
740.00,0.0709
739.00,0.0712
738.00,0.0715
737.00,0.0719
736.00,0.0723
735.00,0.0727
734.00,0.0732
733.00,0.0738
732.00,0.0745
731.00,0.0752
730.00,0.0760
729.00,0.0769
728.00,0.0778
727.00,0.0789
726.00,0.0800
725.00,0.0811
724.00,0.0822
723.00,0.0834
722.00,0.0845
721.00,0.0855
720.00,0.0865
719.00,0.0874
718.00,0.0882
717.00,0.0890
716.00,0.0897
715.00,0.0904
714.00,0.0911
713.00,0.0919
712.00,0.0927
711.00,0.0935
710.00,0.0942
709.00,0.0950
708.00,0.0958
707.00,0.0967
706.00,0.0975
705.00,0.0985
704.00,0.0995
703.00,0.1005
702.00,0.1014
701.00,0.1022
700.00,0.1029
699.00,0.1034
698.00,0.1037
697.00,0.1039
696.00,0.1039
695.00,0.1038
694.00,0.1037
693.00,0.1036
692.00,0.1034
691.00,0.1033
690.00,0.1032
689.00,0.1032
688.00,0.1033
687.00,0.1033
686.00,0.1034
685.00,0.1034
684.00,0.1036
683.00,0.1037
682.00,0.1038
681.00,0.1039
680.00,0.1040
679.00,0.1042
678.00,0.1043
677.00,0.1044
676.00,0.1046
675.00,0.1048
674.00,0.1049
673.00,0.1050
672.00,0.1052
671.00,0.1055
670.00,0.1058
669.00,0.1060
668.00,0.1060
667.00,0.1059
666.00,0.1060
665.00,0.1065
664.00,0.1070
663.00,0.1073
662.00,0.1076
661.00,0.1078
660.00,0.1080
659.00,0.1081
658.00,0.1082
657.00,0.1083
656.00,0.1084
655.00,0.1085
654.00,0.1087
653.00,0.1089
652.00,0.1091
651.00,0.1094
650.00,0.1095
649.00,0.1097
648.00,0.1100
647.00,0.1102
646.00,0.1106
645.00,0.1109
644.00,0.1113
643.00,0.1116
642.00,0.1118
641.00,0.1120
640.00,0.1122
639.00,0.1123
638.00,0.1125
637.00,0.1128
636.00,0.1130
635.00,0.1132
634.00,0.1134
633.00,0.1136
632.00,0.1138
631.00,0.1140
630.00,0.1143
629.00,0.1147
628.00,0.1152
627.00,0.1156
626.00,0.1160
625.00,0.1163
624.00,0.1166
623.00,0.1169
622.00,0.1171
621.00,0.1173
620.00,0.1175
619.00,0.1175
618.00,0.1173
617.00,0.1173
616.00,0.1174
615.00,0.1176
614.00,0.1178
613.00,0.1178
612.00,0.1179
611.00,0.1179
610.00,0.1178
609.00,0.1179
608.00,0.1180
607.00,0.1181
606.00,0.1182
605.00,0.1182
604.00,0.1182
603.00,0.1182
602.00,0.1182
601.00,0.1182
600.00,0.1183
599.00,0.1185
598.00,0.1186
597.00,0.1187
596.00,0.1189
595.00,0.1192
594.00,0.1194
593.00,0.1195
592.00,0.1196
591.00,0.1198
590.00,0.1199
589.00,0.1202
588.00,0.1204
587.00,0.1205
586.00,0.1207
585.00,0.1208
584.00,0.1211
583.00,0.1213
582.00,0.1216
581.00,0.1218
580.00,0.1222
579.00,0.1225
578.00,0.1228
577.00,0.1232
576.00,0.1238
575.00,0.1247
574.00,0.1257
573.00,0.1263
572.00,0.1261
571.00,0.1255
570.00,0.1250
569.00,0.1248
568.00,0.1250
567.00,0.1254
566.00,0.1257
565.00,0.1261
564.00,0.1264
563.00,0.1266
562.00,0.1269
561.00,0.1273
560.00,0.1278
559.00,0.1283
558.00,0.1286
557.00,0.1289
556.00,0.1293
555.00,0.1295
554.00,0.1298
553.00,0.1300
552.00,0.1305
551.00,0.1309
550.00,0.1313
549.00,0.1317
548.00,0.1319
547.00,0.1320
546.00,0.1320
545.00,0.1321
544.00,0.1324
543.00,0.1327
542.00,0.1330
541.00,0.1333
540.00,0.1338
539.00,0.1342
538.00,0.1344
537.00,0.1345
536.00,0.1346
535.00,0.1347
534.00,0.1348
533.00,0.1349
532.00,0.1352
531.00,0.1355
530.00,0.1357
529.00,0.1360
528.00,0.1364
527.00,0.1366
526.00,0.1366
525.00,0.1365
524.00,0.1365
523.00,0.1366
522.00,0.1369
521.00,0.1371
520.00,0.1374
519.00,0.1376
518.00,0.1376
517.00,0.1376
516.00,0.1376
515.00,0.1375
514.00,0.1375
513.00,0.1376
512.00,0.1378
511.00,0.1380
510.00,0.1381
509.00,0.1381
508.00,0.1382
507.00,0.1381
506.00,0.1381
505.00,0.1380
504.00,0.1381
503.00,0.1381
502.00,0.1382
501.00,0.1385
500.00,0.1388
499.00,0.1390
498.00,0.1391
497.00,0.1390
496.00,0.1391
495.00,0.1392
494.00,0.1393
493.00,0.1394
492.00,0.1395
491.00,0.1397
490.00,0.1397
489.00,0.1398
488.00,0.1399
487.00,0.1400
486.00,0.1398
485.00,0.1396
484.00,0.1394
483.00,0.1394
482.00,0.1394
481.00,0.1394
480.00,0.1394
479.00,0.1395
478.00,0.1397
477.00,0.1400
476.00,0.1404
475.00,0.1406
474.00,0.1406
473.00,0.1404
472.00,0.1402
471.00,0.1401
470.00,0.1401
469.00,0.1403
468.00,0.1406
467.00,0.1408
466.00,0.1408
465.00,0.1408
464.00,0.1410
463.00,0.1411
462.00,0.1411
461.00,0.1411
460.00,0.1413
459.00,0.1414
458.00,0.1415
457.00,0.1416
456.00,0.1416
455.00,0.1413
454.00,0.1409
453.00,0.1405
452.00,0.1405
451.00,0.1405
450.00,0.1405
449.00,0.1405
448.00,0.1405
447.00,0.1403
446.00,0.1396
445.00,0.1390
444.00,0.1385
443.00,0.1382
442.00,0.1377
441.00,0.1374
440.00,0.1375
439.00,0.1378
438.00,0.1381
437.00,0.1381
436.00,0.1378
435.00,0.1372
434.00,0.1365
433.00,0.1360
432.00,0.1356
431.00,0.1354
430.00,0.1353
429.00,0.1356
428.00,0.1362
427.00,0.1367
426.00,0.1366
425.00,0.1364
424.00,0.1364
423.00,0.1364
422.00,0.1364
421.00,0.1366
420.00,0.1367
419.00,0.1362
418.00,0.1350
417.00,0.1340
416.00,0.1337
415.00,0.1340
414.00,0.1345
413.00,0.1347
412.00,0.1346
411.00,0.1343
410.00,0.1337
409.00,0.1333
408.00,0.1333
407.00,0.1335
406.00,0.1336
405.00,0.1336
404.00,0.1336
403.00,0.1336
402.00,0.1337
401.00,0.1339
400.00,0.1340
