Created as New Dataset,Sample 748 By YargerLab Date Friday, June 27 2025
cm-1,A
4000.00,0.0002
3999.00,0.0002
3998.00,0.0002
3997.00,0.0002
3996.00,0.0002
3995.00,0.0002
3994.00,0.0002
3993.00,0.0002
3992.00,0.0002
3991.00,0.0002
3990.00,0.0002
3989.00,0.0002
3988.00,0.0002
3987.00,0.0001
3986.00,0.0002
3985.00,0.0002
3984.00,0.0002
3983.00,0.0002
3982.00,0.0002
3981.00,0.0002
3980.00,0.0002
3979.00,0.0002
3978.00,0.0002
3977.00,0.0002
3976.00,0.0002
3975.00,0.0002
3974.00,0.0002
3973.00,0.0002
3972.00,0.0002
3971.00,0.0002
3970.00,0.0002
3969.00,0.0002
3968.00,0.0002
3967.00,0.0002
3966.00,0.0002
3965.00,0.0002
3964.00,0.0002
3963.00,0.0002
3962.00,0.0002
3961.00,0.0002
3960.00,0.0002
3959.00,0.0002
3958.00,0.0002
3957.00,0.0002
3956.00,0.0002
3955.00,0.0002
3954.00,0.0002
3953.00,0.0002
3952.00,0.0001
3951.00,0.0001
3950.00,0.0001
3949.00,0.0001
3948.00,0.0001
3947.00,0.0001
3946.00,0.0001
3945.00,0.0001
3944.00,0.0001
3943.00,0.0001
3942.00,0.0001
3941.00,0.0001
3940.00,0.0001
3939.00,0.0002
3938.00,0.0002
3937.00,0.0002
3936.00,0.0002
3935.00,0.0001
3934.00,0.0001
3933.00,0.0001
3932.00,0.0001
3931.00,0.0001
3930.00,0.0001
3929.00,0.0001
3928.00,0.0001
3927.00,0.0001
3926.00,0.0001
3925.00,0.0001
3924.00,0.0002
3923.00,0.0002
3922.00,0.0001
3921.00,0.0001
3920.00,0.0001
3919.00,0.0001
3918.00,0.0001
3917.00,0.0001
3916.00,0.0001
3915.00,0.0001
3914.00,0.0001
3913.00,0.0001
3912.00,0.0001
3911.00,0.0001
3910.00,0.0001
3909.00,0.0001
3908.00,0.0001
3907.00,0.0000
3906.00,0.0000
3905.00,-0.0000
3904.00,-0.0000
3903.00,-0.0001
3902.00,-0.0001
3901.00,-0.0001
3900.00,-0.0001
3899.00,-0.0001
3898.00,-0.0000
3897.00,-0.0000
3896.00,0.0000
3895.00,0.0000
3894.00,-0.0000
3893.00,-0.0000
3892.00,-0.0000
3891.00,0.0000
3890.00,0.0001
3889.00,0.0000
3888.00,0.0000
3887.00,0.0000
3886.00,0.0000
3885.00,0.0000
3884.00,0.0000
3883.00,-0.0000
3882.00,-0.0001
3881.00,-0.0000
3880.00,0.0000
3879.00,0.0000
3878.00,0.0000
3877.00,0.0000
3876.00,-0.0000
3875.00,-0.0000
3874.00,-0.0000
3873.00,-0.0000
3872.00,-0.0001
3871.00,-0.0001
3870.00,-0.0001
3869.00,-0.0001
3868.00,-0.0000
3867.00,-0.0001
3866.00,-0.0001
3865.00,-0.0000
3864.00,0.0000
3863.00,0.0000
3862.00,0.0000
3861.00,0.0000
3860.00,0.0000
3859.00,0.0000
3858.00,-0.0000
3857.00,-0.0001
3856.00,-0.0001
3855.00,-0.0001
3854.00,-0.0001
3853.00,-0.0000
3852.00,-0.0001
3851.00,-0.0001
3850.00,-0.0001
3849.00,-0.0001
3848.00,-0.0000
3847.00,-0.0000
3846.00,-0.0000
3845.00,-0.0000
3844.00,-0.0000
3843.00,-0.0001
3842.00,-0.0001
3841.00,-0.0001
3840.00,-0.0001
3839.00,-0.0001
3838.00,-0.0001
3837.00,-0.0000
3836.00,-0.0001
3835.00,-0.0001
3834.00,-0.0001
3833.00,-0.0000
3832.00,0.0000
3831.00,0.0001
3830.00,0.0001
3829.00,0.0001
3828.00,0.0001
3827.00,0.0001
3826.00,0.0001
3825.00,0.0001
3824.00,0.0000
3823.00,0.0000
3822.00,0.0000
3821.00,0.0001
3820.00,0.0001
3819.00,0.0001
3818.00,0.0000
3817.00,0.0000
3816.00,0.0000
3815.00,0.0000
3814.00,0.0000
3813.00,-0.0000
3812.00,0.0000
3811.00,0.0000
3810.00,0.0001
3809.00,0.0001
3808.00,0.0001
3807.00,0.0001
3806.00,0.0001
3805.00,0.0001
3804.00,0.0000
3803.00,-0.0000
3802.00,-0.0000
3801.00,0.0000
3800.00,0.0000
3799.00,-0.0000
3798.00,-0.0000
3797.00,0.0000
3796.00,0.0001
3795.00,0.0001
3794.00,0.0001
3793.00,0.0001
3792.00,0.0001
3791.00,0.0002
3790.00,0.0002
3789.00,0.0002
3788.00,0.0002
3787.00,0.0002
3786.00,0.0001
3785.00,0.0001
3784.00,0.0001
3783.00,0.0001
3782.00,0.0001
3781.00,0.0001
3780.00,0.0001
3779.00,0.0001
3778.00,0.0001
3777.00,0.0001
3776.00,0.0001
3775.00,0.0001
3774.00,0.0002
3773.00,0.0002
3772.00,0.0001
3771.00,0.0001
3770.00,0.0001
3769.00,0.0001
3768.00,0.0001
3767.00,0.0001
3766.00,0.0001
3765.00,0.0001
3764.00,0.0001
3763.00,0.0001
3762.00,0.0000
3761.00,0.0000
3760.00,0.0001
3759.00,0.0001
3758.00,0.0001
3757.00,0.0001
3756.00,0.0001
3755.00,0.0001
3754.00,0.0000
3753.00,0.0000
3752.00,0.0000
3751.00,0.0000
3750.00,-0.0000
3749.00,-0.0000
3748.00,-0.0000
3747.00,-0.0001
3746.00,-0.0001
3745.00,-0.0001
3744.00,-0.0000
3743.00,0.0000
3742.00,-0.0000
3741.00,-0.0000
3740.00,-0.0000
3739.00,-0.0000
3738.00,-0.0001
3737.00,-0.0001
3736.00,-0.0001
3735.00,-0.0001
3734.00,-0.0001
3733.00,-0.0001
3732.00,-0.0001
3731.00,-0.0000
3730.00,-0.0000
3729.00,0.0000
3728.00,0.0000
3727.00,0.0000
3726.00,0.0000
3725.00,0.0000
3724.00,0.0000
3723.00,0.0000
3722.00,0.0000
3721.00,0.0001
3720.00,0.0001
3719.00,0.0001
3718.00,0.0001
3717.00,0.0001
3716.00,0.0001
3715.00,0.0001
3714.00,0.0001
3713.00,0.0001
3712.00,0.0001
3711.00,0.0001
3710.00,0.0001
3709.00,0.0001
3708.00,0.0001
3707.00,0.0001
3706.00,0.0001
3705.00,0.0002
3704.00,0.0002
3703.00,0.0002
3702.00,0.0002
3701.00,0.0002
3700.00,0.0002
3699.00,0.0002
3698.00,0.0002
3697.00,0.0002
3696.00,0.0003
3695.00,0.0003
3694.00,0.0003
3693.00,0.0002
3692.00,0.0002
3691.00,0.0002
3690.00,0.0002
3689.00,0.0003
3688.00,0.0003
3687.00,0.0003
3686.00,0.0003
3685.00,0.0004
3684.00,0.0004
3683.00,0.0004
3682.00,0.0005
3681.00,0.0005
3680.00,0.0005
3679.00,0.0005
3678.00,0.0005
3677.00,0.0005
3676.00,0.0005
3675.00,0.0005
3674.00,0.0005
3673.00,0.0005
3672.00,0.0005
3671.00,0.0005
3670.00,0.0006
3669.00,0.0007
3668.00,0.0007
3667.00,0.0007
3666.00,0.0008
3665.00,0.0009
3664.00,0.0010
3663.00,0.0010
3662.00,0.0011
3661.00,0.0011
3660.00,0.0011
3659.00,0.0011
3658.00,0.0011
3657.00,0.0011
3656.00,0.0011
3655.00,0.0012
3654.00,0.0012
3653.00,0.0012
3652.00,0.0013
3651.00,0.0013
3650.00,0.0013
3649.00,0.0013
3648.00,0.0013
3647.00,0.0014
3646.00,0.0014
3645.00,0.0015
3644.00,0.0016
3643.00,0.0017
3642.00,0.0018
3641.00,0.0019
3640.00,0.0019
3639.00,0.0020
3638.00,0.0020
3637.00,0.0020
3636.00,0.0021
3635.00,0.0021
3634.00,0.0022
3633.00,0.0022
3632.00,0.0023
3631.00,0.0022
3630.00,0.0022
3629.00,0.0022
3628.00,0.0022
3627.00,0.0022
3626.00,0.0023
3625.00,0.0024
3624.00,0.0026
3623.00,0.0027
3622.00,0.0028
3621.00,0.0028
3620.00,0.0029
3619.00,0.0029
3618.00,0.0029
3617.00,0.0029
3616.00,0.0029
3615.00,0.0030
3614.00,0.0031
3613.00,0.0032
3612.00,0.0032
3611.00,0.0033
3610.00,0.0033
3609.00,0.0034
3608.00,0.0034
3607.00,0.0035
3606.00,0.0035
3605.00,0.0036
3604.00,0.0037
3603.00,0.0038
3602.00,0.0039
3601.00,0.0040
3600.00,0.0040
3599.00,0.0041
3598.00,0.0041
3597.00,0.0042
3596.00,0.0042
3595.00,0.0043
3594.00,0.0044
3593.00,0.0045
3592.00,0.0046
3591.00,0.0047
3590.00,0.0047
3589.00,0.0047
3588.00,0.0047
3587.00,0.0047
3586.00,0.0048
3585.00,0.0048
3584.00,0.0049
3583.00,0.0051
3582.00,0.0052
3581.00,0.0053
3580.00,0.0054
3579.00,0.0054
3578.00,0.0055
3577.00,0.0056
3576.00,0.0056
3575.00,0.0057
3574.00,0.0058
3573.00,0.0058
3572.00,0.0059
3571.00,0.0060
3570.00,0.0061
3569.00,0.0061
3568.00,0.0061
3567.00,0.0061
3566.00,0.0061
3565.00,0.0061
3564.00,0.0062
3563.00,0.0063
3562.00,0.0065
3561.00,0.0066
3560.00,0.0067
3559.00,0.0068
3558.00,0.0069
3557.00,0.0070
3556.00,0.0070
3555.00,0.0071
3554.00,0.0072
3553.00,0.0072
3552.00,0.0073
3551.00,0.0074
3550.00,0.0074
3549.00,0.0075
3548.00,0.0076
3547.00,0.0077
3546.00,0.0077
3545.00,0.0077
3544.00,0.0078
3543.00,0.0079
3542.00,0.0079
3541.00,0.0080
3540.00,0.0082
3539.00,0.0083
3538.00,0.0083
3537.00,0.0084
3536.00,0.0085
3535.00,0.0085
3534.00,0.0086
3533.00,0.0086
3532.00,0.0087
3531.00,0.0088
3530.00,0.0088
3529.00,0.0089
3528.00,0.0090
3527.00,0.0090
3526.00,0.0091
3525.00,0.0091
3524.00,0.0092
3523.00,0.0093
3522.00,0.0093
3521.00,0.0094
3520.00,0.0095
3519.00,0.0096
3518.00,0.0096
3517.00,0.0097
3516.00,0.0098
3515.00,0.0098
3514.00,0.0099
3513.00,0.0100
3512.00,0.0101
3511.00,0.0102
3510.00,0.0102
3509.00,0.0102
3508.00,0.0103
3507.00,0.0104
3506.00,0.0105
3505.00,0.0106
3504.00,0.0106
3503.00,0.0107
3502.00,0.0107
3501.00,0.0107
3500.00,0.0108
3499.00,0.0109
3498.00,0.0110
3497.00,0.0111
3496.00,0.0112
3495.00,0.0113
3494.00,0.0113
3493.00,0.0114
3492.00,0.0115
3491.00,0.0115
3490.00,0.0116
3489.00,0.0117
3488.00,0.0118
3487.00,0.0118
3486.00,0.0119
3485.00,0.0119
3484.00,0.0120
3483.00,0.0121
3482.00,0.0122
3481.00,0.0122
3480.00,0.0123
3479.00,0.0124
3478.00,0.0125
3477.00,0.0126
3476.00,0.0126
3475.00,0.0127
3474.00,0.0128
3473.00,0.0128
3472.00,0.0129
3471.00,0.0130
3470.00,0.0131
3469.00,0.0132
3468.00,0.0133
3467.00,0.0134
3466.00,0.0134
3465.00,0.0135
3464.00,0.0136
3463.00,0.0136
3462.00,0.0137
3461.00,0.0137
3460.00,0.0138
3459.00,0.0138
3458.00,0.0139
3457.00,0.0140
3456.00,0.0141
3455.00,0.0142
3454.00,0.0142
3453.00,0.0143
3452.00,0.0144
3451.00,0.0145
3450.00,0.0145
3449.00,0.0146
3448.00,0.0147
3447.00,0.0148
3446.00,0.0148
3445.00,0.0149
3444.00,0.0150
3443.00,0.0150
3442.00,0.0151
3441.00,0.0152
3440.00,0.0153
3439.00,0.0154
3438.00,0.0155
3437.00,0.0156
3436.00,0.0157
3435.00,0.0157
3434.00,0.0158
3433.00,0.0159
3432.00,0.0160
3431.00,0.0160
3430.00,0.0161
3429.00,0.0161
3428.00,0.0162
3427.00,0.0163
3426.00,0.0163
3425.00,0.0164
3424.00,0.0165
3423.00,0.0166
3422.00,0.0167
3421.00,0.0168
3420.00,0.0168
3419.00,0.0169
3418.00,0.0170
3417.00,0.0171
3416.00,0.0172
3415.00,0.0173
3414.00,0.0174
3413.00,0.0175
3412.00,0.0175
3411.00,0.0176
3410.00,0.0177
3409.00,0.0178
3408.00,0.0179
3407.00,0.0180
3406.00,0.0181
3405.00,0.0181
3404.00,0.0182
3403.00,0.0182
3402.00,0.0183
3401.00,0.0184
3400.00,0.0185
3399.00,0.0186
3398.00,0.0186
3397.00,0.0187
3396.00,0.0188
3395.00,0.0189
3394.00,0.0189
3393.00,0.0190
3392.00,0.0191
3391.00,0.0191
3390.00,0.0192
3389.00,0.0193
3388.00,0.0194
3387.00,0.0195
3386.00,0.0196
3385.00,0.0197
3384.00,0.0197
3383.00,0.0198
3382.00,0.0199
3381.00,0.0200
3380.00,0.0202
3379.00,0.0203
3378.00,0.0204
3377.00,0.0205
3376.00,0.0205
3375.00,0.0206
3374.00,0.0207
3373.00,0.0208
3372.00,0.0210
3371.00,0.0211
3370.00,0.0212
3369.00,0.0213
3368.00,0.0214
3367.00,0.0215
3366.00,0.0216
3365.00,0.0216
3364.00,0.0217
3363.00,0.0218
3362.00,0.0220
3361.00,0.0221
3360.00,0.0223
3359.00,0.0224
3358.00,0.0225
3357.00,0.0227
3356.00,0.0228
3355.00,0.0229
3354.00,0.0231
3353.00,0.0232
3352.00,0.0233
3351.00,0.0234
3350.00,0.0235
3349.00,0.0237
3348.00,0.0238
3347.00,0.0240
3346.00,0.0241
3345.00,0.0243
3344.00,0.0244
3343.00,0.0246
3342.00,0.0247
3341.00,0.0249
3340.00,0.0250
3339.00,0.0252
3338.00,0.0253
3337.00,0.0255
3336.00,0.0256
3335.00,0.0258
3334.00,0.0260
3333.00,0.0262
3332.00,0.0263
3331.00,0.0265
3330.00,0.0268
3329.00,0.0270
3328.00,0.0272
3327.00,0.0273
3326.00,0.0275
3325.00,0.0277
3324.00,0.0279
3323.00,0.0282
3322.00,0.0284
3321.00,0.0286
3320.00,0.0289
3319.00,0.0291
3318.00,0.0294
3317.00,0.0296
3316.00,0.0299
3315.00,0.0301
3314.00,0.0304
3313.00,0.0306
3312.00,0.0309
3311.00,0.0311
3310.00,0.0314
3309.00,0.0316
3308.00,0.0319
3307.00,0.0321
3306.00,0.0324
3305.00,0.0327
3304.00,0.0330
3303.00,0.0333
3302.00,0.0336
3301.00,0.0340
3300.00,0.0343
3299.00,0.0346
3298.00,0.0348
3297.00,0.0351
3296.00,0.0354
3295.00,0.0357
3294.00,0.0360
3293.00,0.0363
3292.00,0.0366
3291.00,0.0369
3290.00,0.0372
3289.00,0.0374
3288.00,0.0377
3287.00,0.0380
3286.00,0.0383
3285.00,0.0386
3284.00,0.0388
3283.00,0.0390
3282.00,0.0393
3281.00,0.0394
3280.00,0.0396
3279.00,0.0398
3278.00,0.0399
3277.00,0.0401
3276.00,0.0402
3275.00,0.0403
3274.00,0.0404
3273.00,0.0404
3272.00,0.0404
3271.00,0.0404
3270.00,0.0404
3269.00,0.0403
3268.00,0.0403
3267.00,0.0402
3266.00,0.0402
3265.00,0.0401
3264.00,0.0399
3263.00,0.0398
3262.00,0.0396
3261.00,0.0394
3260.00,0.0391
3259.00,0.0389
3258.00,0.0387
3257.00,0.0384
3256.00,0.0382
3255.00,0.0379
3254.00,0.0377
3253.00,0.0374
3252.00,0.0371
3251.00,0.0369
3250.00,0.0366
3249.00,0.0363
3248.00,0.0360
3247.00,0.0358
3246.00,0.0355
3245.00,0.0353
3244.00,0.0350
3243.00,0.0347
3242.00,0.0345
3241.00,0.0343
3240.00,0.0340
3239.00,0.0338
3238.00,0.0335
3237.00,0.0333
3236.00,0.0330
3235.00,0.0327
3234.00,0.0325
3233.00,0.0322
3232.00,0.0320
3231.00,0.0319
3230.00,0.0317
3229.00,0.0315
3228.00,0.0313
3227.00,0.0311
3226.00,0.0309
3225.00,0.0307
3224.00,0.0306
3223.00,0.0304
3222.00,0.0302
3221.00,0.0300
3220.00,0.0298
3219.00,0.0297
3218.00,0.0295
3217.00,0.0293
3216.00,0.0292
3215.00,0.0290
3214.00,0.0289
3213.00,0.0287
3212.00,0.0286
3211.00,0.0284
3210.00,0.0282
3209.00,0.0281
3208.00,0.0279
3207.00,0.0278
3206.00,0.0276
3205.00,0.0275
3204.00,0.0274
3203.00,0.0273
3202.00,0.0272
3201.00,0.0270
3200.00,0.0269
3199.00,0.0268
3198.00,0.0266
3197.00,0.0264
3196.00,0.0263
3195.00,0.0261
3194.00,0.0260
3193.00,0.0259
3192.00,0.0258
3191.00,0.0257
3190.00,0.0256
3189.00,0.0254
3188.00,0.0253
3187.00,0.0252
3186.00,0.0250
3185.00,0.0249
3184.00,0.0248
3183.00,0.0246
3182.00,0.0245
3181.00,0.0244
3180.00,0.0243
3179.00,0.0241
3178.00,0.0240
3177.00,0.0239
3176.00,0.0238
3175.00,0.0237
3174.00,0.0236
3173.00,0.0235
3172.00,0.0234
3171.00,0.0232
3170.00,0.0231
3169.00,0.0230
3168.00,0.0229
3167.00,0.0228
3166.00,0.0226
3165.00,0.0225
3164.00,0.0224
3163.00,0.0223
3162.00,0.0222
3161.00,0.0221
3160.00,0.0221
3159.00,0.0220
3158.00,0.0219
3157.00,0.0218
3156.00,0.0217
3155.00,0.0216
3154.00,0.0215
3153.00,0.0213
3152.00,0.0212
3151.00,0.0211
3150.00,0.0211
3149.00,0.0210
3148.00,0.0209
3147.00,0.0208
3146.00,0.0208
3145.00,0.0207
3144.00,0.0206
3143.00,0.0205
3142.00,0.0205
3141.00,0.0204
3140.00,0.0203
3139.00,0.0202
3138.00,0.0202
3137.00,0.0201
3136.00,0.0201
3135.00,0.0200
3134.00,0.0200
3133.00,0.0199
3132.00,0.0199
3131.00,0.0198
3130.00,0.0197
3129.00,0.0197
3128.00,0.0197
3127.00,0.0197
3126.00,0.0196
3125.00,0.0196
3124.00,0.0196
3123.00,0.0196
3122.00,0.0195
3121.00,0.0194
3120.00,0.0194
3119.00,0.0194
3118.00,0.0193
3117.00,0.0194
3116.00,0.0194
3115.00,0.0194
3114.00,0.0195
3113.00,0.0195
3112.00,0.0195
3111.00,0.0195
3110.00,0.0196
3109.00,0.0196
3108.00,0.0196
3107.00,0.0196
3106.00,0.0196
3105.00,0.0197
3104.00,0.0197
3103.00,0.0197
3102.00,0.0198
3101.00,0.0198
3100.00,0.0198
3099.00,0.0199
3098.00,0.0199
3097.00,0.0200
3096.00,0.0201
3095.00,0.0201
3094.00,0.0201
3093.00,0.0201
3092.00,0.0202
3091.00,0.0202
3090.00,0.0203
3089.00,0.0203
3088.00,0.0203
3087.00,0.0203
3086.00,0.0203
3085.00,0.0203
3084.00,0.0203
3083.00,0.0204
3082.00,0.0204
3081.00,0.0203
3080.00,0.0203
3079.00,0.0203
3078.00,0.0203
3077.00,0.0203
3076.00,0.0203
3075.00,0.0204
3074.00,0.0204
3073.00,0.0203
3072.00,0.0203
3071.00,0.0202
3070.00,0.0202
3069.00,0.0201
3068.00,0.0201
3067.00,0.0200
3066.00,0.0200
3065.00,0.0199
3064.00,0.0199
3063.00,0.0198
3062.00,0.0197
3061.00,0.0196
3060.00,0.0195
3059.00,0.0194
3058.00,0.0193
3057.00,0.0192
3056.00,0.0191
3055.00,0.0190
3054.00,0.0189
3053.00,0.0187
3052.00,0.0186
3051.00,0.0185
3050.00,0.0184
3049.00,0.0183
3048.00,0.0182
3047.00,0.0181
3046.00,0.0180
3045.00,0.0179
3044.00,0.0177
3043.00,0.0176
3042.00,0.0175
3041.00,0.0174
3040.00,0.0174
3039.00,0.0173
3038.00,0.0173
3037.00,0.0172
3036.00,0.0171
3035.00,0.0170
3034.00,0.0169
3033.00,0.0168
3032.00,0.0168
3031.00,0.0167
3030.00,0.0167
3029.00,0.0166
3028.00,0.0165
3027.00,0.0164
3026.00,0.0163
3025.00,0.0162
3024.00,0.0161
3023.00,0.0160
3022.00,0.0159
3021.00,0.0158
3020.00,0.0157
3019.00,0.0156
3018.00,0.0155
3017.00,0.0154
3016.00,0.0153
3015.00,0.0153
3014.00,0.0152
3013.00,0.0151
3012.00,0.0151
3011.00,0.0151
3010.00,0.0150
3009.00,0.0150
3008.00,0.0150
3007.00,0.0150
3006.00,0.0150
3005.00,0.0149
3004.00,0.0149
3003.00,0.0149
3002.00,0.0149
3001.00,0.0149
3000.00,0.0149
2999.00,0.0149
2998.00,0.0149
2997.00,0.0150
2996.00,0.0150
2995.00,0.0151
2994.00,0.0151
2993.00,0.0152
2992.00,0.0153
2991.00,0.0155
2990.00,0.0156
2989.00,0.0158
2988.00,0.0159
2987.00,0.0161
2986.00,0.0163
2985.00,0.0165
2984.00,0.0167
2983.00,0.0169
2982.00,0.0171
2981.00,0.0173
2980.00,0.0175
2979.00,0.0178
2978.00,0.0181
2977.00,0.0183
2976.00,0.0186
2975.00,0.0189
2974.00,0.0191
2973.00,0.0194
2972.00,0.0197
2971.00,0.0200
2970.00,0.0202
2969.00,0.0205
2968.00,0.0207
2967.00,0.0209
2966.00,0.0211
2965.00,0.0213
2964.00,0.0214
2963.00,0.0215
2962.00,0.0216
2961.00,0.0216
2960.00,0.0216
2959.00,0.0215
2958.00,0.0214
2957.00,0.0213
2956.00,0.0211
2955.00,0.0209
2954.00,0.0207
2953.00,0.0205
2952.00,0.0203
2951.00,0.0202
2950.00,0.0200
2949.00,0.0198
2948.00,0.0198
2947.00,0.0197
2946.00,0.0197
2945.00,0.0197
2944.00,0.0198
2943.00,0.0199
2942.00,0.0201
2941.00,0.0202
2940.00,0.0204
2939.00,0.0206
2938.00,0.0208
2937.00,0.0210
2936.00,0.0212
2935.00,0.0213
2934.00,0.0214
2933.00,0.0216
2932.00,0.0217
2931.00,0.0218
2930.00,0.0218
2929.00,0.0219
2928.00,0.0219
2927.00,0.0219
2926.00,0.0218
2925.00,0.0218
2924.00,0.0218
2923.00,0.0217
2922.00,0.0216
2921.00,0.0215
2920.00,0.0213
2919.00,0.0212
2918.00,0.0209
2917.00,0.0207
2916.00,0.0204
2915.00,0.0202
2914.00,0.0199
2913.00,0.0196
2912.00,0.0193
2911.00,0.0191
2910.00,0.0188
2909.00,0.0186
2908.00,0.0183
2907.00,0.0181
2906.00,0.0179
2905.00,0.0177
2904.00,0.0175
2903.00,0.0174
2902.00,0.0172
2901.00,0.0171
2900.00,0.0170
2899.00,0.0168
2898.00,0.0167
2897.00,0.0166
2896.00,0.0165
2895.00,0.0164
2894.00,0.0163
2893.00,0.0162
2892.00,0.0161
2891.00,0.0161
2890.00,0.0160
2889.00,0.0160
2888.00,0.0159
2887.00,0.0159
2886.00,0.0160
2885.00,0.0160
2884.00,0.0161
2883.00,0.0161
2882.00,0.0162
2881.00,0.0163
2880.00,0.0164
2879.00,0.0165
2878.00,0.0166
2877.00,0.0167
2876.00,0.0168
2875.00,0.0168
2874.00,0.0168
2873.00,0.0168
2872.00,0.0167
2871.00,0.0166
2870.00,0.0165
2869.00,0.0163
2868.00,0.0161
2867.00,0.0159
2866.00,0.0158
2865.00,0.0156
2864.00,0.0154
2863.00,0.0153
2862.00,0.0152
2861.00,0.0151
2860.00,0.0150
2859.00,0.0149
2858.00,0.0149
2857.00,0.0149
2856.00,0.0149
2855.00,0.0149
2854.00,0.0149
2853.00,0.0148
2852.00,0.0147
2851.00,0.0146
2850.00,0.0144
2849.00,0.0142
2848.00,0.0140
2847.00,0.0137
2846.00,0.0135
2845.00,0.0132
2844.00,0.0130
2843.00,0.0128
2842.00,0.0126
2841.00,0.0124
2840.00,0.0122
2839.00,0.0121
2838.00,0.0120
2837.00,0.0119
2836.00,0.0118
2835.00,0.0117
2834.00,0.0116
2833.00,0.0116
2832.00,0.0115
2831.00,0.0114
2830.00,0.0114
2829.00,0.0113
2828.00,0.0113
2827.00,0.0112
2826.00,0.0112
2825.00,0.0112
2824.00,0.0111
2823.00,0.0111
2822.00,0.0111
2821.00,0.0111
2820.00,0.0110
2819.00,0.0110
2818.00,0.0110
2817.00,0.0109
2816.00,0.0109
2815.00,0.0108
2814.00,0.0108
2813.00,0.0108
2812.00,0.0108
2811.00,0.0107
2810.00,0.0107
2809.00,0.0107
2808.00,0.0107
2807.00,0.0106
2806.00,0.0106
2805.00,0.0106
2804.00,0.0106
2803.00,0.0105
2802.00,0.0105
2801.00,0.0104
2800.00,0.0104
2799.00,0.0104
2798.00,0.0104
2797.00,0.0103
2796.00,0.0103
2795.00,0.0103
2794.00,0.0102
2793.00,0.0102
2792.00,0.0101
2791.00,0.0101
2790.00,0.0101
2789.00,0.0100
2788.00,0.0100
2787.00,0.0100
2786.00,0.0100
2785.00,0.0099
2784.00,0.0099
2783.00,0.0099
2782.00,0.0098
2781.00,0.0098
2780.00,0.0097
2779.00,0.0097
2778.00,0.0096
2777.00,0.0096
2776.00,0.0095
2775.00,0.0095
2774.00,0.0094
2773.00,0.0094
2772.00,0.0093
2771.00,0.0093
2770.00,0.0093
2769.00,0.0092
2768.00,0.0092
2767.00,0.0091
2766.00,0.0091
2765.00,0.0090
2764.00,0.0090
2763.00,0.0090
2762.00,0.0089
2761.00,0.0089
2760.00,0.0088
2759.00,0.0088
2758.00,0.0087
2757.00,0.0087
2756.00,0.0087
2755.00,0.0086
2754.00,0.0086
2753.00,0.0086
2752.00,0.0085
2751.00,0.0085
2750.00,0.0084
2749.00,0.0084
2748.00,0.0084
2747.00,0.0083
2746.00,0.0083
2745.00,0.0083
2744.00,0.0083
2743.00,0.0082
2742.00,0.0082
2741.00,0.0082
2740.00,0.0082
2739.00,0.0081
2738.00,0.0081
2737.00,0.0081
2736.00,0.0080
2735.00,0.0080
2734.00,0.0080
2733.00,0.0079
2732.00,0.0079
2731.00,0.0079
2730.00,0.0079
2729.00,0.0078
2728.00,0.0078
2727.00,0.0078
2726.00,0.0077
2725.00,0.0077
2724.00,0.0077
2723.00,0.0076
2722.00,0.0076
2721.00,0.0076
2720.00,0.0076
2719.00,0.0075
2718.00,0.0075
2717.00,0.0074
2716.00,0.0074
2715.00,0.0074
2714.00,0.0074
2713.00,0.0073
2712.00,0.0073
2711.00,0.0073
2710.00,0.0073
2709.00,0.0072
2708.00,0.0072
2707.00,0.0072
2706.00,0.0072
2705.00,0.0072
2704.00,0.0072
2703.00,0.0072
2702.00,0.0072
2701.00,0.0072
2700.00,0.0071
2699.00,0.0071
2698.00,0.0071
2697.00,0.0070
2696.00,0.0070
2695.00,0.0070
2694.00,0.0070
2693.00,0.0070
2692.00,0.0070
2691.00,0.0069
2690.00,0.0069
2689.00,0.0069
2688.00,0.0069
2687.00,0.0069
2686.00,0.0068
2685.00,0.0068
2684.00,0.0068
2683.00,0.0068
2682.00,0.0068
2681.00,0.0068
2680.00,0.0067
2679.00,0.0067
2678.00,0.0067
2677.00,0.0066
2676.00,0.0066
2675.00,0.0066
2674.00,0.0066
2673.00,0.0065
2672.00,0.0066
2671.00,0.0066
2670.00,0.0065
2669.00,0.0065
2668.00,0.0065
2667.00,0.0065
2666.00,0.0066
2665.00,0.0066
2664.00,0.0066
2663.00,0.0066
2662.00,0.0066
2661.00,0.0066
2660.00,0.0066
2659.00,0.0066
2658.00,0.0066
2657.00,0.0066
2656.00,0.0066
2655.00,0.0066
2654.00,0.0066
2653.00,0.0066
2652.00,0.0066
2651.00,0.0066
2650.00,0.0065
2649.00,0.0065
2648.00,0.0065
2647.00,0.0064
2646.00,0.0064
2645.00,0.0064
2644.00,0.0064
2643.00,0.0063
2642.00,0.0063
2641.00,0.0063
2640.00,0.0063
2639.00,0.0063
2638.00,0.0063
2637.00,0.0062
2636.00,0.0062
2635.00,0.0062
2634.00,0.0062
2633.00,0.0061
2632.00,0.0061
2631.00,0.0061
2630.00,0.0060
2629.00,0.0060
2628.00,0.0060
2627.00,0.0060
2626.00,0.0060
2625.00,0.0060
2624.00,0.0060
2623.00,0.0059
2622.00,0.0059
2621.00,0.0059
2620.00,0.0058
2619.00,0.0058
2618.00,0.0058
2617.00,0.0058
2616.00,0.0058
2615.00,0.0058
2614.00,0.0057
2613.00,0.0057
2612.00,0.0057
2611.00,0.0057
2610.00,0.0057
2609.00,0.0056
2608.00,0.0056
2607.00,0.0056
2606.00,0.0056
2605.00,0.0055
2604.00,0.0055
2603.00,0.0055
2602.00,0.0055
2601.00,0.0054
2600.00,0.0054
2599.00,0.0054
2598.00,0.0053
2597.00,0.0053
2596.00,0.0053
2595.00,0.0053
2594.00,0.0053
2593.00,0.0053
2592.00,0.0053
2591.00,0.0052
2590.00,0.0052
2589.00,0.0052
2588.00,0.0052
2587.00,0.0051
2586.00,0.0051
2585.00,0.0051
2584.00,0.0051
2583.00,0.0051
2582.00,0.0050
2581.00,0.0050
2580.00,0.0050
2579.00,0.0049
2578.00,0.0049
2577.00,0.0049
2576.00,0.0049
2575.00,0.0049
2574.00,0.0049
2573.00,0.0048
2572.00,0.0048
2571.00,0.0048
2570.00,0.0048
2569.00,0.0048
2568.00,0.0047
2567.00,0.0047
2566.00,0.0047
2565.00,0.0047
2564.00,0.0047
2563.00,0.0047
2562.00,0.0046
2561.00,0.0046
2560.00,0.0046
2559.00,0.0046
2558.00,0.0046
2557.00,0.0045
2556.00,0.0045
2555.00,0.0045
2554.00,0.0045
2553.00,0.0045
2552.00,0.0045
2551.00,0.0045
2550.00,0.0044
2549.00,0.0044
2548.00,0.0044
2547.00,0.0044
2546.00,0.0044
2545.00,0.0043
2544.00,0.0043
2543.00,0.0043
2542.00,0.0043
2541.00,0.0044
2540.00,0.0044
2539.00,0.0043
2538.00,0.0043
2537.00,0.0043
2536.00,0.0042
2535.00,0.0042
2534.00,0.0041
2533.00,0.0041
2532.00,0.0042
2531.00,0.0042
2530.00,0.0042
2529.00,0.0042
2528.00,0.0042
2527.00,0.0041
2526.00,0.0041
2525.00,0.0041
2524.00,0.0041
2523.00,0.0041
2522.00,0.0041
2521.00,0.0041
2520.00,0.0040
2519.00,0.0040
2518.00,0.0040
2517.00,0.0040
2516.00,0.0040
2515.00,0.0041
2514.00,0.0041
2513.00,0.0041
2512.00,0.0041
2511.00,0.0040
2510.00,0.0039
2509.00,0.0039
2508.00,0.0038
2507.00,0.0038
2506.00,0.0038
2505.00,0.0038
2504.00,0.0038
2503.00,0.0039
2502.00,0.0039
2501.00,0.0039
2500.00,0.0039
2499.00,0.0038
2498.00,0.0038
2497.00,0.0038
2496.00,0.0038
2495.00,0.0038
2494.00,0.0038
2493.00,0.0037
2492.00,0.0037
2491.00,0.0037
2490.00,0.0037
2489.00,0.0037
2488.00,0.0037
2487.00,0.0037
2486.00,0.0036
2485.00,0.0036
2484.00,0.0036
2483.00,0.0036
2482.00,0.0035
2481.00,0.0035
2480.00,0.0035
2479.00,0.0035
2478.00,0.0035
2477.00,0.0035
2476.00,0.0035
2475.00,0.0035
2474.00,0.0035
2473.00,0.0035
2472.00,0.0034
2471.00,0.0034
2470.00,0.0034
2469.00,0.0034
2468.00,0.0034
2467.00,0.0034
2466.00,0.0034
2465.00,0.0034
2464.00,0.0034
2463.00,0.0034
2462.00,0.0034
2461.00,0.0034
2460.00,0.0034
2459.00,0.0035
2458.00,0.0035
2457.00,0.0035
2456.00,0.0035
2455.00,0.0035
2454.00,0.0034
2453.00,0.0034
2452.00,0.0034
2451.00,0.0033
2450.00,0.0033
2449.00,0.0033
2448.00,0.0032
2447.00,0.0032
2446.00,0.0032
2445.00,0.0032
2444.00,0.0032
2443.00,0.0032
2442.00,0.0032
2441.00,0.0031
2440.00,0.0031
2439.00,0.0031
2438.00,0.0031
2437.00,0.0030
2436.00,0.0030
2435.00,0.0029
2434.00,0.0029
2433.00,0.0029
2432.00,0.0029
2431.00,0.0029
2430.00,0.0029
2429.00,0.0029
2428.00,0.0029
2427.00,0.0029
2426.00,0.0029
2425.00,0.0029
2424.00,0.0028
2423.00,0.0028
2422.00,0.0028
2421.00,0.0027
2420.00,0.0027
2419.00,0.0027
2418.00,0.0027
2417.00,0.0027
2416.00,0.0027
2415.00,0.0027
2414.00,0.0027
2413.00,0.0027
2412.00,0.0027
2411.00,0.0027
2410.00,0.0027
2409.00,0.0027
2408.00,0.0026
2407.00,0.0025
2406.00,0.0025
2405.00,0.0024
2404.00,0.0024
2403.00,0.0024
2402.00,0.0024
2401.00,0.0024
2400.00,0.0024
2399.00,0.0024
2398.00,0.0024
2397.00,0.0023
2396.00,0.0023
2395.00,0.0023
2394.00,0.0024
2393.00,0.0024
2392.00,0.0024
2391.00,0.0024
2390.00,0.0023
2389.00,0.0023
2388.00,0.0023
2387.00,0.0023
2386.00,0.0023
2385.00,0.0022
2384.00,0.0022
2383.00,0.0022
2382.00,0.0021
2381.00,0.0021
2380.00,0.0021
2379.00,0.0022
2378.00,0.0022
2377.00,0.0022
2376.00,0.0021
2375.00,0.0021
2374.00,0.0021
2373.00,0.0021
2372.00,0.0021
2371.00,0.0020
2370.00,0.0020
2369.00,0.0019
2368.00,0.0019
2367.00,0.0020
2366.00,0.0020
2365.00,0.0020
2364.00,0.0021
2363.00,0.0021
2362.00,0.0021
2361.00,0.0022
2360.00,0.0022
2359.00,0.0022
2358.00,0.0021
2357.00,0.0021
2356.00,0.0021
2355.00,0.0021
2354.00,0.0021
2353.00,0.0021
2352.00,0.0021
2351.00,0.0022
2350.00,0.0022
2349.00,0.0022
2348.00,0.0022
2347.00,0.0022
2346.00,0.0023
2345.00,0.0024
2344.00,0.0024
2343.00,0.0025
2342.00,0.0024
2341.00,0.0024
2340.00,0.0024
2339.00,0.0023
2338.00,0.0023
2337.00,0.0023
2336.00,0.0023
2335.00,0.0023
2334.00,0.0023
2333.00,0.0023
2332.00,0.0023
2331.00,0.0023
2330.00,0.0024
2329.00,0.0025
2328.00,0.0029
2327.00,0.0032
2326.00,0.0036
2325.00,0.0037
2324.00,0.0036
2323.00,0.0035
2322.00,0.0033
2321.00,0.0032
2320.00,0.0031
2319.00,0.0031
2318.00,0.0030
2317.00,0.0030
2316.00,0.0029
2315.00,0.0029
2314.00,0.0028
2313.00,0.0028
2312.00,0.0028
2311.00,0.0028
2310.00,0.0027
2309.00,0.0027
2308.00,0.0027
2307.00,0.0027
2306.00,0.0027
2305.00,0.0027
2304.00,0.0027
2303.00,0.0028
2302.00,0.0028
2301.00,0.0028
2300.00,0.0028
2299.00,0.0028
2298.00,0.0028
2297.00,0.0029
2296.00,0.0029
2295.00,0.0029
2294.00,0.0029
2293.00,0.0030
2292.00,0.0030
2291.00,0.0031
2290.00,0.0031
2289.00,0.0032
2288.00,0.0033
2287.00,0.0034
2286.00,0.0034
2285.00,0.0033
2284.00,0.0032
2283.00,0.0031
2282.00,0.0030
2281.00,0.0029
2280.00,0.0029
2279.00,0.0028
2278.00,0.0028
2277.00,0.0028
2276.00,0.0028
2275.00,0.0028
2274.00,0.0027
2273.00,0.0027
2272.00,0.0027
2271.00,0.0026
2270.00,0.0026
2269.00,0.0026
2268.00,0.0025
2267.00,0.0025
2266.00,0.0025
2265.00,0.0024
2264.00,0.0024
2263.00,0.0024
2262.00,0.0024
2261.00,0.0024
2260.00,0.0024
2259.00,0.0024
2258.00,0.0024
2257.00,0.0023
2256.00,0.0022
2255.00,0.0021
2254.00,0.0020
2253.00,0.0019
2252.00,0.0020
2251.00,0.0020
2250.00,0.0021
2249.00,0.0021
2248.00,0.0022
2247.00,0.0022
2246.00,0.0023
2245.00,0.0023
2244.00,0.0024
2243.00,0.0024
2242.00,0.0023
2241.00,0.0023
2240.00,0.0022
2239.00,0.0022
2238.00,0.0021
2237.00,0.0021
2236.00,0.0022
2235.00,0.0023
2234.00,0.0023
2233.00,0.0023
2232.00,0.0022
2231.00,0.0022
2230.00,0.0021
2229.00,0.0021
2228.00,0.0020
2227.00,0.0020
2226.00,0.0020
2225.00,0.0020
2224.00,0.0021
2223.00,0.0021
2222.00,0.0021
2221.00,0.0021
2220.00,0.0021
2219.00,0.0021
2218.00,0.0021
2217.00,0.0021
2216.00,0.0021
2215.00,0.0021
2214.00,0.0020
2213.00,0.0019
2212.00,0.0019
2211.00,0.0019
2210.00,0.0020
2209.00,0.0020
2208.00,0.0020
2207.00,0.0020
2206.00,0.0020
2205.00,0.0021
2204.00,0.0020
2203.00,0.0020
2202.00,0.0019
2201.00,0.0019
2200.00,0.0021
2199.00,0.0022
2198.00,0.0022
2197.00,0.0023
2196.00,0.0022
2195.00,0.0022
2194.00,0.0021
2193.00,0.0021
2192.00,0.0022
2191.00,0.0022
2190.00,0.0023
2189.00,0.0023
2188.00,0.0023
2187.00,0.0023
2186.00,0.0023
2185.00,0.0021
2184.00,0.0019
2183.00,0.0016
2182.00,0.0014
2181.00,0.0014
2180.00,0.0016
2179.00,0.0017
2178.00,0.0018
2177.00,0.0018
2176.00,0.0017
2175.00,0.0017
2174.00,0.0017
2173.00,0.0018
2172.00,0.0020
2171.00,0.0023
2170.00,0.0025
2169.00,0.0027
2168.00,0.0028
2167.00,0.0027
2166.00,0.0027
2165.00,0.0028
2164.00,0.0030
2163.00,0.0030
2162.00,0.0027
2161.00,0.0020
2160.00,0.0010
2159.00,-0.0001
2158.00,-0.0009
2157.00,-0.0011
2156.00,-0.0010
2155.00,-0.0007
2154.00,-0.0004
2153.00,-0.0002
2152.00,0.0000
2151.00,0.0002
2150.00,0.0002
2149.00,0.0002
2148.00,0.0002
2147.00,0.0002
2146.00,0.0001
2145.00,0.0002
2144.00,0.0002
2143.00,0.0002
2142.00,0.0003
2141.00,0.0003
2140.00,0.0003
2139.00,0.0003
2138.00,0.0003
2137.00,0.0002
2136.00,0.0001
2135.00,-0.0001
2134.00,-0.0002
2133.00,-0.0001
2132.00,0.0001
2131.00,0.0003
2130.00,0.0005
2129.00,0.0007
2128.00,0.0008
2127.00,0.0009
2126.00,0.0010
2125.00,0.0012
2124.00,0.0013
2123.00,0.0014
2122.00,0.0014
2121.00,0.0015
2120.00,0.0016
2119.00,0.0017
2118.00,0.0018
2117.00,0.0019
2116.00,0.0020
2115.00,0.0020
2114.00,0.0020
2113.00,0.0020
2112.00,0.0021
2111.00,0.0020
2110.00,0.0020
2109.00,0.0020
2108.00,0.0020
2107.00,0.0020
2106.00,0.0019
2105.00,0.0019
2104.00,0.0019
2103.00,0.0019
2102.00,0.0019
2101.00,0.0019
2100.00,0.0019
2099.00,0.0019
2098.00,0.0018
2097.00,0.0016
2096.00,0.0015
2095.00,0.0014
2094.00,0.0014
2093.00,0.0015
2092.00,0.0016
2091.00,0.0017
2090.00,0.0017
2089.00,0.0018
2088.00,0.0019
2087.00,0.0020
2086.00,0.0020
2085.00,0.0020
2084.00,0.0020
2083.00,0.0021
2082.00,0.0021
2081.00,0.0021
2080.00,0.0022
2079.00,0.0021
2078.00,0.0021
2077.00,0.0021
2076.00,0.0022
2075.00,0.0022
2074.00,0.0022
2073.00,0.0022
2072.00,0.0021
2071.00,0.0021
2070.00,0.0019
2069.00,0.0019
2068.00,0.0018
2067.00,0.0018
2066.00,0.0018
2065.00,0.0018
2064.00,0.0019
2063.00,0.0019
2062.00,0.0018
2061.00,0.0017
2060.00,0.0017
2059.00,0.0017
2058.00,0.0017
2057.00,0.0017
2056.00,0.0017
2055.00,0.0018
2054.00,0.0020
2053.00,0.0024
2052.00,0.0028
2051.00,0.0028
2050.00,0.0025
2049.00,0.0021
2048.00,0.0018
2047.00,0.0016
2046.00,0.0016
2045.00,0.0016
2044.00,0.0017
2043.00,0.0018
2042.00,0.0019
2041.00,0.0021
2040.00,0.0022
2039.00,0.0022
2038.00,0.0021
2037.00,0.0019
2036.00,0.0018
2035.00,0.0017
2034.00,0.0015
2033.00,0.0014
2032.00,0.0014
2031.00,0.0013
2030.00,0.0011
2029.00,0.0010
2028.00,0.0009
2027.00,0.0008
2026.00,0.0007
2025.00,0.0007
2024.00,0.0008
2023.00,0.0008
2022.00,0.0007
2021.00,0.0006
2020.00,0.0006
2019.00,0.0006
2018.00,0.0007
2017.00,0.0008
2016.00,0.0009
2015.00,0.0009
2014.00,0.0008
2013.00,0.0007
2012.00,0.0007
2011.00,0.0008
2010.00,0.0008
2009.00,0.0008
2008.00,0.0008
2007.00,0.0007
2006.00,0.0006
2005.00,0.0006
2004.00,0.0007
2003.00,0.0008
2002.00,0.0008
2001.00,0.0008
2000.00,0.0009
1999.00,0.0010
1998.00,0.0010
1997.00,0.0010
1996.00,0.0010
1995.00,0.0010
1994.00,0.0011
1993.00,0.0012
1992.00,0.0014
1991.00,0.0016
1990.00,0.0017
1989.00,0.0018
1988.00,0.0019
1987.00,0.0019
1986.00,0.0019
1985.00,0.0020
1984.00,0.0022
1983.00,0.0024
1982.00,0.0025
1981.00,0.0025
1980.00,0.0022
1979.00,0.0017
1978.00,0.0010
1977.00,0.0006
1976.00,0.0004
1975.00,0.0004
1974.00,0.0004
1973.00,0.0005
1972.00,0.0006
1971.00,0.0007
1970.00,0.0007
1969.00,0.0006
1968.00,0.0006
1967.00,0.0006
1966.00,0.0006
1965.00,0.0006
1964.00,0.0005
1963.00,0.0003
1962.00,0.0002
1961.00,0.0001
1960.00,0.0002
1959.00,0.0002
1958.00,0.0001
1957.00,0.0002
1956.00,0.0004
1955.00,0.0006
1954.00,0.0007
1953.00,0.0007
1952.00,0.0007
1951.00,0.0007
1950.00,0.0007
1949.00,0.0007
1948.00,0.0007
1947.00,0.0007
1946.00,0.0006
1945.00,0.0005
1944.00,0.0006
1943.00,0.0007
1942.00,0.0009
1941.00,0.0009
1940.00,0.0009
1939.00,0.0008
1938.00,0.0007
1937.00,0.0008
1936.00,0.0009
1935.00,0.0009
1934.00,0.0008
1933.00,0.0008
1932.00,0.0008
1931.00,0.0008
1930.00,0.0008
1929.00,0.0008
1928.00,0.0008
1927.00,0.0008
1926.00,0.0007
1925.00,0.0006
1924.00,0.0006
1923.00,0.0007
1922.00,0.0009
1921.00,0.0009
1920.00,0.0009
1919.00,0.0010
1918.00,0.0012
1917.00,0.0014
1916.00,0.0015
1915.00,0.0014
1914.00,0.0012
1913.00,0.0010
1912.00,0.0009
1911.00,0.0009
1910.00,0.0008
1909.00,0.0009
1908.00,0.0011
1907.00,0.0012
1906.00,0.0011
1905.00,0.0011
1904.00,0.0012
1903.00,0.0012
1902.00,0.0012
1901.00,0.0012
1900.00,0.0012
1899.00,0.0012
1898.00,0.0011
1897.00,0.0010
1896.00,0.0010
1895.00,0.0011
1894.00,0.0012
1893.00,0.0011
1892.00,0.0010
1891.00,0.0010
1890.00,0.0011
1889.00,0.0013
1888.00,0.0015
1887.00,0.0014
1886.00,0.0014
1885.00,0.0013
1884.00,0.0014
1883.00,0.0014
1882.00,0.0014
1881.00,0.0014
1880.00,0.0014
1879.00,0.0014
1878.00,0.0014
1877.00,0.0014
1876.00,0.0013
1875.00,0.0013
1874.00,0.0013
1873.00,0.0012
1872.00,0.0011
1871.00,0.0009
1870.00,0.0008
1869.00,0.0009
1868.00,0.0012
1867.00,0.0014
1866.00,0.0014
1865.00,0.0014
1864.00,0.0014
1863.00,0.0015
1862.00,0.0015
1861.00,0.0015
1860.00,0.0015
1859.00,0.0015
1858.00,0.0014
1857.00,0.0014
1856.00,0.0015
1855.00,0.0015
1854.00,0.0015
1853.00,0.0015
1852.00,0.0015
1851.00,0.0014
1850.00,0.0013
1849.00,0.0012
1848.00,0.0012
1847.00,0.0012
1846.00,0.0012
1845.00,0.0015
1844.00,0.0020
1843.00,0.0023
1842.00,0.0021
1841.00,0.0019
1840.00,0.0016
1839.00,0.0015
1838.00,0.0015
1837.00,0.0015
1836.00,0.0016
1835.00,0.0017
1834.00,0.0016
1833.00,0.0014
1832.00,0.0012
1831.00,0.0010
1830.00,0.0012
1829.00,0.0016
1828.00,0.0017
1827.00,0.0017
1826.00,0.0017
1825.00,0.0019
1824.00,0.0021
1823.00,0.0022
1822.00,0.0020
1821.00,0.0019
1820.00,0.0018
1819.00,0.0018
1818.00,0.0017
1817.00,0.0017
1816.00,0.0018
1815.00,0.0018
1814.00,0.0017
1813.00,0.0016
1812.00,0.0016
1811.00,0.0017
1810.00,0.0019
1809.00,0.0020
1808.00,0.0021
1807.00,0.0022
1806.00,0.0022
1805.00,0.0021
1804.00,0.0021
1803.00,0.0021
1802.00,0.0020
1801.00,0.0021
1800.00,0.0022
1799.00,0.0023
1798.00,0.0023
1797.00,0.0021
1796.00,0.0021
1795.00,0.0018
1794.00,0.0024
1793.00,0.0030
1792.00,0.0028
1791.00,0.0028
1790.00,0.0026
1789.00,0.0026
1788.00,0.0027
1787.00,0.0028
1786.00,0.0028
1785.00,0.0028
1784.00,0.0029
1783.00,0.0029
1782.00,0.0029
1781.00,0.0030
1780.00,0.0030
1779.00,0.0029
1778.00,0.0030
1777.00,0.0030
1776.00,0.0032
1775.00,0.0034
1774.00,0.0035
1773.00,0.0036
1772.00,0.0035
1771.00,0.0034
1770.00,0.0034
1769.00,0.0034
1768.00,0.0034
1767.00,0.0036
1766.00,0.0038
1765.00,0.0033
1764.00,0.0032
1763.00,0.0033
1762.00,0.0036
1761.00,0.0040
1760.00,0.0040
1759.00,0.0039
1758.00,0.0039
1757.00,0.0042
1756.00,0.0045
1755.00,0.0045
1754.00,0.0044
1753.00,0.0044
1752.00,0.0045
1751.00,0.0046
1750.00,0.0045
1749.00,0.0045
1748.00,0.0047
1747.00,0.0049
1746.00,0.0051
1745.00,0.0052
1744.00,0.0054
1743.00,0.0056
1742.00,0.0057
1741.00,0.0059
1740.00,0.0063
1739.00,0.0068
1738.00,0.0069
1737.00,0.0069
1736.00,0.0070
1735.00,0.0075
1734.00,0.0084
1733.00,0.0088
1732.00,0.0085
1731.00,0.0082
1730.00,0.0081
1729.00,0.0083
1728.00,0.0085
1727.00,0.0086
1726.00,0.0086
1725.00,0.0087
1724.00,0.0089
1723.00,0.0091
1722.00,0.0091
1721.00,0.0091
1720.00,0.0090
1719.00,0.0091
1718.00,0.0096
1717.00,0.0103
1716.00,0.0110
1715.00,0.0114
1714.00,0.0117
1713.00,0.0119
1712.00,0.0121
1711.00,0.0124
1710.00,0.0128
1709.00,0.0131
1708.00,0.0136
1707.00,0.0143
1706.00,0.0154
1705.00,0.0168
1704.00,0.0184
1703.00,0.0200
1702.00,0.0218
1701.00,0.0243
1700.00,0.0273
1699.00,0.0294
1698.00,0.0308
1697.00,0.0322
1696.00,0.0342
1695.00,0.0358
1694.00,0.0365
1693.00,0.0367
1692.00,0.0370
1691.00,0.0375
1690.00,0.0381
1689.00,0.0388
1688.00,0.0397
1687.00,0.0407
1686.00,0.0417
1685.00,0.0428
1684.00,0.0441
1683.00,0.0452
1682.00,0.0459
1681.00,0.0468
1680.00,0.0480
1679.00,0.0494
1678.00,0.0508
1677.00,0.0523
1676.00,0.0537
1675.00,0.0547
1674.00,0.0555
1673.00,0.0563
1672.00,0.0573
1671.00,0.0585
1670.00,0.0597
1669.00,0.0609
1668.00,0.0621
1667.00,0.0634
1666.00,0.0647
1665.00,0.0661
1664.00,0.0675
1663.00,0.0688
1662.00,0.0699
1661.00,0.0711
1660.00,0.0725
1659.00,0.0740
1658.00,0.0755
1657.00,0.0774
1656.00,0.0796
1655.00,0.0815
1654.00,0.0822
1653.00,0.0817
1652.00,0.0808
1651.00,0.0808
1650.00,0.0815
1649.00,0.0826
1648.00,0.0834
1647.00,0.0836
1646.00,0.0834
1645.00,0.0834
1644.00,0.0838
1643.00,0.0844
1642.00,0.0852
1641.00,0.0858
1640.00,0.0866
1639.00,0.0875
1638.00,0.0884
1637.00,0.0891
1636.00,0.0895
1635.00,0.0897
1634.00,0.0903
1633.00,0.0916
1632.00,0.0934
1631.00,0.0956
1630.00,0.0975
1629.00,0.0992
1628.00,0.1010
1627.00,0.1030
1626.00,0.1051
1625.00,0.1071
1624.00,0.1089
1623.00,0.1101
1622.00,0.1111
1621.00,0.1124
1620.00,0.1142
1619.00,0.1158
1618.00,0.1161
1617.00,0.1146
1616.00,0.1120
1615.00,0.1097
1614.00,0.1081
1613.00,0.1067
1612.00,0.1049
1611.00,0.1024
1610.00,0.0993
1609.00,0.0959
1608.00,0.0927
1607.00,0.0895
1606.00,0.0865
1605.00,0.0836
1604.00,0.0809
1603.00,0.0783
1602.00,0.0758
1601.00,0.0737
1600.00,0.0717
1599.00,0.0700
1598.00,0.0684
1597.00,0.0669
1596.00,0.0655
1595.00,0.0642
1594.00,0.0631
1593.00,0.0621
1592.00,0.0612
1591.00,0.0604
1590.00,0.0597
1589.00,0.0591
1588.00,0.0586
1587.00,0.0581
1586.00,0.0578
1585.00,0.0575
1584.00,0.0573
1583.00,0.0571
1582.00,0.0570
1581.00,0.0570
1580.00,0.0571
1579.00,0.0574
1578.00,0.0577
1577.00,0.0580
1576.00,0.0583
1575.00,0.0585
1574.00,0.0588
1573.00,0.0595
1572.00,0.0604
1571.00,0.0611
1570.00,0.0618
1569.00,0.0625
1568.00,0.0633
1567.00,0.0642
1566.00,0.0651
1565.00,0.0662
1564.00,0.0674
1563.00,0.0690
1562.00,0.0709
1561.00,0.0728
1560.00,0.0735
1559.00,0.0734
1558.00,0.0737
1557.00,0.0745
1556.00,0.0758
1555.00,0.0773
1554.00,0.0787
1553.00,0.0801
1552.00,0.0813
1551.00,0.0825
1550.00,0.0837
1549.00,0.0849
1548.00,0.0862
1547.00,0.0877
1546.00,0.0890
1545.00,0.0900
1544.00,0.0908
1543.00,0.0916
1542.00,0.0923
1541.00,0.0925
1540.00,0.0925
1539.00,0.0926
1538.00,0.0933
1537.00,0.0946
1536.00,0.0962
1535.00,0.0977
1534.00,0.0983
1533.00,0.0983
1532.00,0.0985
1531.00,0.0992
1530.00,0.1002
1529.00,0.1011
1528.00,0.1016
1527.00,0.1018
1526.00,0.1018
1525.00,0.1018
1524.00,0.1021
1523.00,0.1024
1522.00,0.1022
1521.00,0.1014
1520.00,0.1007
1519.00,0.1006
1518.00,0.1007
1517.00,0.1006
1516.00,0.1002
1515.00,0.0998
1514.00,0.0995
1513.00,0.0989
1512.00,0.0977
1511.00,0.0963
1510.00,0.0950
1509.00,0.0936
1508.00,0.0912
1507.00,0.0877
1506.00,0.0842
1505.00,0.0813
1504.00,0.0794
1503.00,0.0782
1502.00,0.0771
1501.00,0.0758
1500.00,0.0743
1499.00,0.0727
1498.00,0.0710
1497.00,0.0690
1496.00,0.0668
1495.00,0.0648
1494.00,0.0631
1493.00,0.0617
1492.00,0.0602
1491.00,0.0584
1490.00,0.0564
1489.00,0.0546
1488.00,0.0531
1487.00,0.0520
1486.00,0.0510
1485.00,0.0501
1484.00,0.0493
1483.00,0.0485
1482.00,0.0478
1481.00,0.0473
1480.00,0.0469
1479.00,0.0467
1478.00,0.0466
1477.00,0.0465
1476.00,0.0466
1475.00,0.0469
1474.00,0.0473
1473.00,0.0478
1472.00,0.0485
1471.00,0.0490
1470.00,0.0494
1469.00,0.0497
1468.00,0.0501
1467.00,0.0505
1466.00,0.0507
1465.00,0.0507
1464.00,0.0507
1463.00,0.0507
1462.00,0.0508
1461.00,0.0511
1460.00,0.0517
1459.00,0.0524
1458.00,0.0533
1457.00,0.0541
1456.00,0.0545
1455.00,0.0544
1454.00,0.0543
1453.00,0.0544
1452.00,0.0546
1451.00,0.0547
1450.00,0.0547
1449.00,0.0546
1448.00,0.0545
1447.00,0.0542
1446.00,0.0540
1445.00,0.0539
1444.00,0.0537
1443.00,0.0535
1442.00,0.0533
1441.00,0.0532
1440.00,0.0532
1439.00,0.0534
1438.00,0.0535
1437.00,0.0530
1436.00,0.0520
1435.00,0.0508
1434.00,0.0498
1433.00,0.0491
1432.00,0.0484
1431.00,0.0478
1430.00,0.0473
1429.00,0.0469
1428.00,0.0466
1427.00,0.0464
1426.00,0.0463
1425.00,0.0462
1424.00,0.0463
1423.00,0.0466
1422.00,0.0472
1421.00,0.0479
1420.00,0.0485
1419.00,0.0489
1418.00,0.0493
1417.00,0.0496
1416.00,0.0500
1415.00,0.0506
1414.00,0.0513
1413.00,0.0520
1412.00,0.0526
1411.00,0.0532
1410.00,0.0537
1409.00,0.0543
1408.00,0.0548
1407.00,0.0553
1406.00,0.0557
1405.00,0.0560
1404.00,0.0564
1403.00,0.0567
1402.00,0.0570
1401.00,0.0574
1400.00,0.0577
1399.00,0.0578
1398.00,0.0580
1397.00,0.0582
1396.00,0.0584
1395.00,0.0586
1394.00,0.0587
1393.00,0.0587
1392.00,0.0588
1391.00,0.0589
1390.00,0.0591
1389.00,0.0593
1388.00,0.0592
1387.00,0.0589
1386.00,0.0583
1385.00,0.0577
1384.00,0.0571
1383.00,0.0566
1382.00,0.0560
1381.00,0.0554
1380.00,0.0548
1379.00,0.0542
1378.00,0.0536
1377.00,0.0530
1376.00,0.0524
1375.00,0.0518
1374.00,0.0514
1373.00,0.0510
1372.00,0.0507
1371.00,0.0504
1370.00,0.0501
1369.00,0.0497
1368.00,0.0492
1367.00,0.0486
1366.00,0.0481
1365.00,0.0475
1364.00,0.0469
1363.00,0.0463
1362.00,0.0458
1361.00,0.0454
1360.00,0.0451
1359.00,0.0448
1358.00,0.0446
1357.00,0.0445
1356.00,0.0445
1355.00,0.0446
1354.00,0.0447
1353.00,0.0449
1352.00,0.0451
1351.00,0.0453
1350.00,0.0454
1349.00,0.0455
1348.00,0.0457
1347.00,0.0457
1346.00,0.0457
1345.00,0.0457
1344.00,0.0456
1343.00,0.0455
1342.00,0.0453
1341.00,0.0451
1340.00,0.0449
1339.00,0.0448
1338.00,0.0446
1337.00,0.0444
1336.00,0.0442
1335.00,0.0440
1334.00,0.0437
1333.00,0.0435
1332.00,0.0433
1331.00,0.0431
1330.00,0.0430
1329.00,0.0429
1328.00,0.0428
1327.00,0.0428
1326.00,0.0428
1325.00,0.0428
1324.00,0.0428
1323.00,0.0428
1322.00,0.0429
1321.00,0.0429
1320.00,0.0429
1319.00,0.0430
1318.00,0.0431
1317.00,0.0432
1316.00,0.0432
1315.00,0.0432
1314.00,0.0432
1313.00,0.0431
1312.00,0.0431
1311.00,0.0430
1310.00,0.0429
1309.00,0.0428
1308.00,0.0427
1307.00,0.0426
1306.00,0.0425
1305.00,0.0424
1304.00,0.0423
1303.00,0.0422
1302.00,0.0421
1301.00,0.0421
1300.00,0.0420
1299.00,0.0420
1298.00,0.0420
1297.00,0.0420
1296.00,0.0421
1295.00,0.0422
1294.00,0.0423
1293.00,0.0424
1292.00,0.0426
1291.00,0.0428
1290.00,0.0430
1289.00,0.0431
1288.00,0.0433
1287.00,0.0435
1286.00,0.0436
1285.00,0.0438
1284.00,0.0439
1283.00,0.0440
1282.00,0.0440
1281.00,0.0441
1280.00,0.0441
1279.00,0.0442
1278.00,0.0442
1277.00,0.0442
1276.00,0.0443
1275.00,0.0443
1274.00,0.0444
1273.00,0.0445
1272.00,0.0446
1271.00,0.0448
1270.00,0.0450
1269.00,0.0453
1268.00,0.0457
1267.00,0.0461
1266.00,0.0466
1265.00,0.0471
1264.00,0.0476
1263.00,0.0480
1262.00,0.0484
1261.00,0.0488
1260.00,0.0492
1259.00,0.0495
1258.00,0.0499
1257.00,0.0502
1256.00,0.0506
1255.00,0.0510
1254.00,0.0514
1253.00,0.0518
1252.00,0.0522
1251.00,0.0526
1250.00,0.0530
1249.00,0.0535
1248.00,0.0539
1247.00,0.0543
1246.00,0.0547
1245.00,0.0550
1244.00,0.0554
1243.00,0.0557
1242.00,0.0560
1241.00,0.0563
1240.00,0.0566
1239.00,0.0568
1238.00,0.0570
1237.00,0.0572
1236.00,0.0574
1235.00,0.0574
1234.00,0.0575
1233.00,0.0575
1232.00,0.0575
1231.00,0.0575
1230.00,0.0573
1229.00,0.0572
1228.00,0.0570
1227.00,0.0568
1226.00,0.0565
1225.00,0.0562
1224.00,0.0558
1223.00,0.0554
1222.00,0.0550
1221.00,0.0546
1220.00,0.0541
1219.00,0.0535
1218.00,0.0529
1217.00,0.0522
1216.00,0.0515
1215.00,0.0507
1214.00,0.0499
1213.00,0.0492
1212.00,0.0484
1211.00,0.0476
1210.00,0.0469
1209.00,0.0461
1208.00,0.0454
1207.00,0.0447
1206.00,0.0441
1205.00,0.0435
1204.00,0.0429
1203.00,0.0424
1202.00,0.0419
1201.00,0.0415
1200.00,0.0411
1199.00,0.0408
1198.00,0.0404
1197.00,0.0401
1196.00,0.0398
1195.00,0.0396
1194.00,0.0394
1193.00,0.0392
1192.00,0.0390
1191.00,0.0389
1190.00,0.0387
1189.00,0.0386
1188.00,0.0385
1187.00,0.0383
1186.00,0.0382
1185.00,0.0382
1184.00,0.0381
1183.00,0.0381
1182.00,0.0380
1181.00,0.0380
1180.00,0.0381
1179.00,0.0382
1178.00,0.0385
1177.00,0.0388
1176.00,0.0392
1175.00,0.0396
1174.00,0.0400
1173.00,0.0404
1172.00,0.0407
1171.00,0.0409
1170.00,0.0411
1169.00,0.0412
1168.00,0.0412
1167.00,0.0413
1166.00,0.0414
1165.00,0.0414
1164.00,0.0415
1163.00,0.0416
1162.00,0.0417
1161.00,0.0418
1160.00,0.0419
1159.00,0.0420
1158.00,0.0421
1157.00,0.0422
1156.00,0.0422
1155.00,0.0422
1154.00,0.0422
1153.00,0.0421
1152.00,0.0420
1151.00,0.0418
1150.00,0.0417
1149.00,0.0415
1148.00,0.0412
1147.00,0.0410
1146.00,0.0408
1145.00,0.0406
1144.00,0.0404
1143.00,0.0403
1142.00,0.0402
1141.00,0.0402
1140.00,0.0401
1139.00,0.0401
1138.00,0.0401
1137.00,0.0402
1136.00,0.0403
1135.00,0.0405
1134.00,0.0407
1133.00,0.0410
1132.00,0.0413
1131.00,0.0416
1130.00,0.0419
1129.00,0.0422
1128.00,0.0426
1127.00,0.0429
1126.00,0.0433
1125.00,0.0436
1124.00,0.0439
1123.00,0.0442
1122.00,0.0445
1121.00,0.0447
1120.00,0.0450
1119.00,0.0453
1118.00,0.0456
1117.00,0.0459
1116.00,0.0462
1115.00,0.0464
1114.00,0.0466
1113.00,0.0468
1112.00,0.0470
1111.00,0.0472
1110.00,0.0474
1109.00,0.0475
1108.00,0.0477
1107.00,0.0479
1106.00,0.0480
1105.00,0.0482
1104.00,0.0483
1103.00,0.0485
1102.00,0.0486
1101.00,0.0488
1100.00,0.0489
1099.00,0.0491
1098.00,0.0493
1097.00,0.0495
1096.00,0.0498
1095.00,0.0501
1094.00,0.0504
1093.00,0.0508
1092.00,0.0513
1091.00,0.0518
1090.00,0.0523
1089.00,0.0528
1088.00,0.0534
1087.00,0.0540
1086.00,0.0545
1085.00,0.0551
1084.00,0.0557
1083.00,0.0563
1082.00,0.0568
1081.00,0.0574
1080.00,0.0578
1079.00,0.0582
1078.00,0.0586
1077.00,0.0588
1076.00,0.0591
1075.00,0.0592
1074.00,0.0593
1073.00,0.0594
1072.00,0.0595
1071.00,0.0595
1070.00,0.0595
1069.00,0.0596
1068.00,0.0596
1067.00,0.0596
1066.00,0.0596
1065.00,0.0595
1064.00,0.0594
1063.00,0.0593
1062.00,0.0592
1061.00,0.0591
1060.00,0.0589
1059.00,0.0588
1058.00,0.0586
1057.00,0.0584
1056.00,0.0582
1055.00,0.0580
1054.00,0.0578
1053.00,0.0575
1052.00,0.0573
1051.00,0.0570
1050.00,0.0567
1049.00,0.0564
1048.00,0.0561
1047.00,0.0558
1046.00,0.0555
1045.00,0.0552
1044.00,0.0549
1043.00,0.0546
1042.00,0.0542
1041.00,0.0538
1040.00,0.0533
1039.00,0.0529
1038.00,0.0525
1037.00,0.0521
1036.00,0.0518
1035.00,0.0515
1034.00,0.0513
1033.00,0.0511
1032.00,0.0509
1031.00,0.0507
1030.00,0.0505
1029.00,0.0501
1028.00,0.0498
1027.00,0.0494
1026.00,0.0489
1025.00,0.0484
1024.00,0.0479
1023.00,0.0474
1022.00,0.0469
1021.00,0.0463
1020.00,0.0457
1019.00,0.0451
1018.00,0.0445
1017.00,0.0439
1016.00,0.0434
1015.00,0.0428
1014.00,0.0423
1013.00,0.0417
1012.00,0.0412
1011.00,0.0405
1010.00,0.0399
1009.00,0.0393
1008.00,0.0387
1007.00,0.0382
1006.00,0.0377
1005.00,0.0372
1004.00,0.0367
1003.00,0.0363
1002.00,0.0359
1001.00,0.0355
1000.00,0.0352
999.00,0.0349
998.00,0.0346
997.00,0.0343
996.00,0.0341
995.00,0.0338
994.00,0.0336
993.00,0.0334
992.00,0.0332
991.00,0.0331
990.00,0.0329
989.00,0.0328
988.00,0.0327
987.00,0.0326
986.00,0.0326
985.00,0.0325
984.00,0.0326
983.00,0.0327
982.00,0.0328
981.00,0.0330
980.00,0.0332
979.00,0.0334
978.00,0.0336
977.00,0.0338
976.00,0.0340
975.00,0.0342
974.00,0.0342
973.00,0.0343
972.00,0.0342
971.00,0.0342
970.00,0.0341
969.00,0.0340
968.00,0.0339
967.00,0.0337
966.00,0.0336
965.00,0.0334
964.00,0.0332
963.00,0.0330
962.00,0.0328
961.00,0.0327
960.00,0.0325
959.00,0.0324
958.00,0.0323
957.00,0.0323
956.00,0.0322
955.00,0.0322
954.00,0.0322
953.00,0.0321
952.00,0.0321
951.00,0.0320
950.00,0.0320
949.00,0.0321
948.00,0.0321
947.00,0.0321
946.00,0.0322
945.00,0.0323
944.00,0.0324
943.00,0.0325
942.00,0.0326
941.00,0.0327
940.00,0.0328
939.00,0.0330
938.00,0.0331
937.00,0.0332
936.00,0.0333
935.00,0.0334
934.00,0.0334
933.00,0.0334
932.00,0.0334
931.00,0.0333
930.00,0.0333
929.00,0.0332
928.00,0.0330
927.00,0.0329
926.00,0.0327
925.00,0.0324
924.00,0.0322
923.00,0.0320
922.00,0.0317
921.00,0.0315
920.00,0.0313
919.00,0.0311
918.00,0.0310
917.00,0.0308
916.00,0.0307
915.00,0.0306
914.00,0.0305
913.00,0.0304
912.00,0.0303
911.00,0.0303
910.00,0.0302
909.00,0.0302
908.00,0.0302
907.00,0.0302
906.00,0.0302
905.00,0.0303
904.00,0.0303
903.00,0.0303
902.00,0.0303
901.00,0.0303
900.00,0.0303
899.00,0.0304
898.00,0.0304
897.00,0.0304
896.00,0.0303
895.00,0.0303
894.00,0.0303
893.00,0.0303
892.00,0.0304
891.00,0.0305
890.00,0.0305
889.00,0.0305
888.00,0.0306
887.00,0.0306
886.00,0.0306
885.00,0.0307
884.00,0.0308
883.00,0.0308
882.00,0.0308
881.00,0.0308
880.00,0.0308
879.00,0.0309
878.00,0.0310
877.00,0.0310
876.00,0.0310
875.00,0.0309
874.00,0.0309
873.00,0.0308
872.00,0.0308
871.00,0.0309
870.00,0.0308
869.00,0.0308
868.00,0.0308
867.00,0.0308
866.00,0.0309
865.00,0.0309
864.00,0.0311
863.00,0.0313
862.00,0.0315
861.00,0.0317
860.00,0.0320
859.00,0.0322
858.00,0.0324
857.00,0.0326
856.00,0.0329
855.00,0.0333
854.00,0.0336
853.00,0.0338
852.00,0.0340
851.00,0.0342
850.00,0.0343
849.00,0.0345
848.00,0.0345
847.00,0.0346
846.00,0.0347
845.00,0.0348
844.00,0.0350
843.00,0.0352
842.00,0.0355
841.00,0.0358
840.00,0.0361
839.00,0.0364
838.00,0.0368
837.00,0.0372
836.00,0.0376
835.00,0.0381
834.00,0.0385
833.00,0.0390
832.00,0.0394
831.00,0.0398
830.00,0.0401
829.00,0.0404
828.00,0.0407
827.00,0.0409
826.00,0.0411
825.00,0.0412
824.00,0.0413
823.00,0.0414
822.00,0.0414
821.00,0.0414
820.00,0.0415
819.00,0.0416
818.00,0.0417
817.00,0.0419
816.00,0.0421
815.00,0.0424
814.00,0.0426
813.00,0.0428
812.00,0.0431
811.00,0.0433
810.00,0.0436
809.00,0.0438
808.00,0.0441
807.00,0.0444
806.00,0.0446
805.00,0.0448
804.00,0.0451
803.00,0.0454
802.00,0.0458
801.00,0.0462
800.00,0.0465
799.00,0.0468
798.00,0.0471
797.00,0.0474
796.00,0.0476
795.00,0.0480
794.00,0.0484
793.00,0.0489
792.00,0.0494
791.00,0.0499
790.00,0.0505
789.00,0.0510
788.00,0.0515
787.00,0.0520
786.00,0.0525
785.00,0.0530
784.00,0.0534
783.00,0.0538
782.00,0.0541
781.00,0.0544
780.00,0.0547
779.00,0.0550
778.00,0.0552
777.00,0.0554
776.00,0.0555
775.00,0.0557
774.00,0.0559
773.00,0.0562
772.00,0.0564
771.00,0.0566
770.00,0.0568
769.00,0.0570
768.00,0.0572
767.00,0.0574
766.00,0.0575
765.00,0.0577
764.00,0.0578
763.00,0.0580
762.00,0.0582
761.00,0.0584
760.00,0.0586
759.00,0.0589
758.00,0.0591
757.00,0.0594
756.00,0.0597
755.00,0.0599
754.00,0.0602
753.00,0.0605
752.00,0.0608
751.00,0.0612
750.00,0.0616
749.00,0.0620
748.00,0.0624
747.00,0.0628
746.00,0.0632
745.00,0.0635
744.00,0.0638
743.00,0.0641
742.00,0.0644
741.00,0.0647
740.00,0.0649
739.00,0.0652
738.00,0.0655
737.00,0.0659
736.00,0.0663
735.00,0.0668
734.00,0.0673
733.00,0.0679
732.00,0.0685
731.00,0.0691
730.00,0.0698
729.00,0.0706
728.00,0.0715
727.00,0.0724
726.00,0.0734
725.00,0.0745
724.00,0.0756
723.00,0.0767
722.00,0.0778
721.00,0.0788
720.00,0.0797
719.00,0.0805
718.00,0.0813
717.00,0.0820
716.00,0.0827
715.00,0.0833
714.00,0.0840
713.00,0.0846
712.00,0.0853
711.00,0.0860
710.00,0.0868
709.00,0.0875
708.00,0.0883
707.00,0.0891
706.00,0.0899
705.00,0.0908
704.00,0.0918
703.00,0.0927
702.00,0.0936
701.00,0.0943
700.00,0.0950
699.00,0.0954
698.00,0.0957
697.00,0.0959
696.00,0.0959
695.00,0.0958
694.00,0.0956
693.00,0.0955
692.00,0.0953
691.00,0.0952
690.00,0.0952
689.00,0.0951
688.00,0.0951
687.00,0.0952
686.00,0.0952
685.00,0.0953
684.00,0.0954
683.00,0.0955
682.00,0.0956
681.00,0.0956
680.00,0.0957
679.00,0.0958
678.00,0.0960
677.00,0.0961
676.00,0.0963
675.00,0.0964
674.00,0.0965
673.00,0.0967
672.00,0.0969
671.00,0.0972
670.00,0.0975
669.00,0.0977
668.00,0.0975
667.00,0.0974
666.00,0.0975
665.00,0.0979
664.00,0.0983
663.00,0.0986
662.00,0.0989
661.00,0.0991
660.00,0.0994
659.00,0.0995
658.00,0.0996
657.00,0.0997
656.00,0.0998
655.00,0.0999
654.00,0.0999
653.00,0.1001
652.00,0.1004
651.00,0.1006
650.00,0.1008
649.00,0.1010
648.00,0.1012
647.00,0.1015
646.00,0.1018
645.00,0.1021
644.00,0.1024
643.00,0.1026
642.00,0.1029
641.00,0.1031
640.00,0.1034
639.00,0.1035
638.00,0.1037
637.00,0.1039
636.00,0.1041
635.00,0.1044
634.00,0.1046
633.00,0.1048
632.00,0.1050
631.00,0.1053
630.00,0.1055
629.00,0.1059
628.00,0.1062
627.00,0.1066
626.00,0.1069
625.00,0.1072
624.00,0.1076
623.00,0.1079
622.00,0.1080
621.00,0.1082
620.00,0.1083
619.00,0.1083
618.00,0.1081
617.00,0.1080
616.00,0.1081
615.00,0.1083
614.00,0.1085
613.00,0.1086
612.00,0.1088
611.00,0.1091
610.00,0.1092
609.00,0.1092
608.00,0.1090
607.00,0.1089
606.00,0.1088
605.00,0.1088
604.00,0.1088
603.00,0.1088
602.00,0.1089
601.00,0.1089
600.00,0.1091
599.00,0.1092
598.00,0.1094
597.00,0.1096
596.00,0.1098
595.00,0.1100
594.00,0.1102
593.00,0.1103
592.00,0.1104
591.00,0.1105
590.00,0.1105
589.00,0.1106
588.00,0.1108
587.00,0.1111
586.00,0.1114
585.00,0.1117
584.00,0.1119
583.00,0.1121
582.00,0.1122
581.00,0.1124
580.00,0.1126
579.00,0.1128
578.00,0.1131
577.00,0.1132
576.00,0.1134
575.00,0.1135
574.00,0.1137
573.00,0.1141
572.00,0.1145
571.00,0.1148
570.00,0.1150
569.00,0.1151
568.00,0.1154
567.00,0.1157
566.00,0.1160
565.00,0.1163
564.00,0.1166
563.00,0.1170
562.00,0.1174
561.00,0.1177
560.00,0.1181
559.00,0.1183
558.00,0.1184
557.00,0.1186
556.00,0.1190
555.00,0.1194
554.00,0.1197
553.00,0.1200
552.00,0.1203
551.00,0.1206
550.00,0.1210
549.00,0.1213
548.00,0.1216
547.00,0.1217
546.00,0.1218
545.00,0.1220
544.00,0.1224
543.00,0.1228
542.00,0.1231
541.00,0.1232
540.00,0.1235
539.00,0.1238
538.00,0.1241
537.00,0.1244
536.00,0.1247
535.00,0.1248
534.00,0.1249
533.00,0.1251
532.00,0.1253
531.00,0.1254
530.00,0.1255
529.00,0.1256
528.00,0.1257
527.00,0.1260
526.00,0.1262
525.00,0.1263
524.00,0.1266
523.00,0.1267
522.00,0.1269
521.00,0.1271
520.00,0.1274
519.00,0.1276
518.00,0.1277
517.00,0.1278
516.00,0.1278
515.00,0.1279
514.00,0.1279
513.00,0.1280
512.00,0.1281
511.00,0.1282
510.00,0.1282
509.00,0.1282
508.00,0.1283
507.00,0.1284
506.00,0.1285
505.00,0.1285
504.00,0.1286
503.00,0.1287
502.00,0.1288
501.00,0.1290
500.00,0.1292
499.00,0.1292
498.00,0.1293
497.00,0.1296
496.00,0.1300
495.00,0.1304
494.00,0.1306
493.00,0.1307
492.00,0.1307
491.00,0.1307
490.00,0.1305
489.00,0.1305
488.00,0.1306
487.00,0.1305
486.00,0.1303
485.00,0.1301
484.00,0.1301
483.00,0.1302
482.00,0.1303
481.00,0.1304
480.00,0.1305
479.00,0.1307
478.00,0.1308
477.00,0.1310
476.00,0.1313
475.00,0.1314
474.00,0.1312
473.00,0.1310
472.00,0.1310
471.00,0.1311
470.00,0.1313
469.00,0.1315
468.00,0.1319
467.00,0.1323
466.00,0.1325
465.00,0.1325
464.00,0.1324
463.00,0.1323
462.00,0.1321
461.00,0.1322
460.00,0.1324
459.00,0.1325
458.00,0.1324
457.00,0.1321
456.00,0.1319
455.00,0.1317
454.00,0.1315
453.00,0.1315
452.00,0.1318
451.00,0.1321
450.00,0.1321
449.00,0.1318
448.00,0.1314
447.00,0.1311
446.00,0.1306
445.00,0.1302
444.00,0.1298
443.00,0.1293
442.00,0.1287
441.00,0.1285
440.00,0.1286
439.00,0.1288
438.00,0.1289
437.00,0.1288
436.00,0.1286
435.00,0.1284
434.00,0.1282
433.00,0.1280
432.00,0.1277
431.00,0.1272
430.00,0.1266
429.00,0.1263
428.00,0.1264
427.00,0.1267
426.00,0.1270
425.00,0.1272
424.00,0.1274
423.00,0.1273
422.00,0.1269
421.00,0.1266
420.00,0.1267
419.00,0.1266
418.00,0.1262
417.00,0.1258
416.00,0.1260
415.00,0.1265
414.00,0.1269
413.00,0.1269
412.00,0.1265
411.00,0.1261
410.00,0.1257
409.00,0.1253
408.00,0.1251
407.00,0.1248
406.00,0.1246
405.00,0.1247
404.00,0.1251
403.00,0.1251
402.00,0.1242
401.00,0.1233
400.00,0.1230
