Created as New Dataset,Sample 772 By YargerLab Date Monday, July 07 2025
cm-1,A
4000.00,0.0117
3999.00,0.0117
3998.00,0.0117
3997.00,0.0117
3996.00,0.0116
3995.00,0.0116
3994.00,0.0116
3993.00,0.0116
3992.00,0.0116
3991.00,0.0116
3990.00,0.0116
3989.00,0.0116
3988.00,0.0116
3987.00,0.0116
3986.00,0.0116
3985.00,0.0116
3984.00,0.0116
3983.00,0.0116
3982.00,0.0115
3981.00,0.0115
3980.00,0.0115
3979.00,0.0115
3978.00,0.0115
3977.00,0.0115
3976.00,0.0115
3975.00,0.0115
3974.00,0.0116
3973.00,0.0116
3972.00,0.0115
3971.00,0.0115
3970.00,0.0115
3969.00,0.0115
3968.00,0.0115
3967.00,0.0115
3966.00,0.0115
3965.00,0.0115
3964.00,0.0115
3963.00,0.0115
3962.00,0.0115
3961.00,0.0115
3960.00,0.0115
3959.00,0.0115
3958.00,0.0115
3957.00,0.0115
3956.00,0.0115
3955.00,0.0115
3954.00,0.0114
3953.00,0.0114
3952.00,0.0114
3951.00,0.0114
3950.00,0.0115
3949.00,0.0115
3948.00,0.0115
3947.00,0.0115
3946.00,0.0115
3945.00,0.0114
3944.00,0.0114
3943.00,0.0114
3942.00,0.0114
3941.00,0.0114
3940.00,0.0114
3939.00,0.0114
3938.00,0.0114
3937.00,0.0114
3936.00,0.0114
3935.00,0.0115
3934.00,0.0115
3933.00,0.0115
3932.00,0.0115
3931.00,0.0115
3930.00,0.0115
3929.00,0.0115
3928.00,0.0115
3927.00,0.0114
3926.00,0.0114
3925.00,0.0114
3924.00,0.0113
3923.00,0.0114
3922.00,0.0114
3921.00,0.0113
3920.00,0.0113
3919.00,0.0113
3918.00,0.0113
3917.00,0.0113
3916.00,0.0113
3915.00,0.0113
3914.00,0.0113
3913.00,0.0113
3912.00,0.0113
3911.00,0.0113
3910.00,0.0113
3909.00,0.0113
3908.00,0.0112
3907.00,0.0112
3906.00,0.0112
3905.00,0.0112
3904.00,0.0112
3903.00,0.0112
3902.00,0.0113
3901.00,0.0113
3900.00,0.0113
3899.00,0.0113
3898.00,0.0113
3897.00,0.0113
3896.00,0.0113
3895.00,0.0113
3894.00,0.0113
3893.00,0.0113
3892.00,0.0113
3891.00,0.0112
3890.00,0.0112
3889.00,0.0112
3888.00,0.0112
3887.00,0.0111
3886.00,0.0111
3885.00,0.0112
3884.00,0.0112
3883.00,0.0112
3882.00,0.0111
3881.00,0.0111
3880.00,0.0111
3879.00,0.0111
3878.00,0.0111
3877.00,0.0111
3876.00,0.0111
3875.00,0.0110
3874.00,0.0110
3873.00,0.0110
3872.00,0.0110
3871.00,0.0110
3870.00,0.0110
3869.00,0.0110
3868.00,0.0110
3867.00,0.0110
3866.00,0.0110
3865.00,0.0110
3864.00,0.0110
3863.00,0.0110
3862.00,0.0110
3861.00,0.0110
3860.00,0.0110
3859.00,0.0110
3858.00,0.0110
3857.00,0.0110
3856.00,0.0110
3855.00,0.0110
3854.00,0.0110
3853.00,0.0110
3852.00,0.0110
3851.00,0.0110
3850.00,0.0110
3849.00,0.0110
3848.00,0.0110
3847.00,0.0110
3846.00,0.0110
3845.00,0.0110
3844.00,0.0110
3843.00,0.0110
3842.00,0.0110
3841.00,0.0110
3840.00,0.0110
3839.00,0.0110
3838.00,0.0110
3837.00,0.0110
3836.00,0.0110
3835.00,0.0110
3834.00,0.0109
3833.00,0.0109
3832.00,0.0108
3831.00,0.0108
3830.00,0.0108
3829.00,0.0108
3828.00,0.0108
3827.00,0.0108
3826.00,0.0109
3825.00,0.0109
3824.00,0.0109
3823.00,0.0109
3822.00,0.0109
3821.00,0.0109
3820.00,0.0109
3819.00,0.0109
3818.00,0.0108
3817.00,0.0108
3816.00,0.0107
3815.00,0.0107
3814.00,0.0107
3813.00,0.0108
3812.00,0.0108
3811.00,0.0108
3810.00,0.0108
3809.00,0.0107
3808.00,0.0107
3807.00,0.0107
3806.00,0.0107
3805.00,0.0107
3804.00,0.0108
3803.00,0.0108
3802.00,0.0108
3801.00,0.0108
3800.00,0.0108
3799.00,0.0108
3798.00,0.0107
3797.00,0.0107
3796.00,0.0107
3795.00,0.0107
3794.00,0.0107
3793.00,0.0107
3792.00,0.0107
3791.00,0.0107
3790.00,0.0107
3789.00,0.0107
3788.00,0.0107
3787.00,0.0107
3786.00,0.0107
3785.00,0.0107
3784.00,0.0107
3783.00,0.0107
3782.00,0.0108
3781.00,0.0107
3780.00,0.0107
3779.00,0.0107
3778.00,0.0107
3777.00,0.0107
3776.00,0.0107
3775.00,0.0107
3774.00,0.0107
3773.00,0.0107
3772.00,0.0107
3771.00,0.0107
3770.00,0.0107
3769.00,0.0108
3768.00,0.0108
3767.00,0.0108
3766.00,0.0107
3765.00,0.0107
3764.00,0.0107
3763.00,0.0107
3762.00,0.0108
3761.00,0.0108
3760.00,0.0107
3759.00,0.0107
3758.00,0.0107
3757.00,0.0106
3756.00,0.0106
3755.00,0.0106
3754.00,0.0106
3753.00,0.0106
3752.00,0.0106
3751.00,0.0106
3750.00,0.0106
3749.00,0.0106
3748.00,0.0106
3747.00,0.0106
3746.00,0.0107
3745.00,0.0106
3744.00,0.0106
3743.00,0.0106
3742.00,0.0106
3741.00,0.0106
3740.00,0.0106
3739.00,0.0105
3738.00,0.0105
3737.00,0.0105
3736.00,0.0104
3735.00,0.0104
3734.00,0.0104
3733.00,0.0105
3732.00,0.0105
3731.00,0.0105
3730.00,0.0105
3729.00,0.0105
3728.00,0.0105
3727.00,0.0105
3726.00,0.0105
3725.00,0.0105
3724.00,0.0104
3723.00,0.0104
3722.00,0.0104
3721.00,0.0104
3720.00,0.0104
3719.00,0.0104
3718.00,0.0103
3717.00,0.0103
3716.00,0.0103
3715.00,0.0103
3714.00,0.0103
3713.00,0.0103
3712.00,0.0103
3711.00,0.0103
3710.00,0.0103
3709.00,0.0103
3708.00,0.0103
3707.00,0.0103
3706.00,0.0103
3705.00,0.0103
3704.00,0.0103
3703.00,0.0103
3702.00,0.0103
3701.00,0.0103
3700.00,0.0103
3699.00,0.0102
3698.00,0.0102
3697.00,0.0102
3696.00,0.0102
3695.00,0.0103
3694.00,0.0103
3693.00,0.0104
3692.00,0.0103
3691.00,0.0103
3690.00,0.0102
3689.00,0.0102
3688.00,0.0101
3687.00,0.0101
3686.00,0.0101
3685.00,0.0101
3684.00,0.0101
3683.00,0.0101
3682.00,0.0101
3681.00,0.0101
3680.00,0.0101
3679.00,0.0100
3678.00,0.0100
3677.00,0.0099
3676.00,0.0098
3675.00,0.0099
3674.00,0.0099
3673.00,0.0100
3672.00,0.0100
3671.00,0.0099
3670.00,0.0099
3669.00,0.0100
3668.00,0.0100
3667.00,0.0100
3666.00,0.0100
3665.00,0.0100
3664.00,0.0100
3663.00,0.0101
3662.00,0.0101
3661.00,0.0101
3660.00,0.0102
3659.00,0.0102
3658.00,0.0102
3657.00,0.0102
3656.00,0.0103
3655.00,0.0103
3654.00,0.0103
3653.00,0.0104
3652.00,0.0104
3651.00,0.0105
3650.00,0.0106
3649.00,0.0106
3648.00,0.0107
3647.00,0.0107
3646.00,0.0108
3645.00,0.0109
3644.00,0.0109
3643.00,0.0110
3642.00,0.0112
3641.00,0.0113
3640.00,0.0114
3639.00,0.0114
3638.00,0.0114
3637.00,0.0114
3636.00,0.0115
3635.00,0.0116
3634.00,0.0118
3633.00,0.0119
3632.00,0.0120
3631.00,0.0121
3630.00,0.0122
3629.00,0.0123
3628.00,0.0124
3627.00,0.0126
3626.00,0.0126
3625.00,0.0127
3624.00,0.0127
3623.00,0.0128
3622.00,0.0128
3621.00,0.0129
3620.00,0.0130
3619.00,0.0130
3618.00,0.0130
3617.00,0.0131
3616.00,0.0132
3615.00,0.0133
3614.00,0.0134
3613.00,0.0136
3612.00,0.0137
3611.00,0.0138
3610.00,0.0139
3609.00,0.0139
3608.00,0.0140
3607.00,0.0140
3606.00,0.0141
3605.00,0.0142
3604.00,0.0142
3603.00,0.0142
3602.00,0.0143
3601.00,0.0143
3600.00,0.0144
3599.00,0.0145
3598.00,0.0145
3597.00,0.0146
3596.00,0.0146
3595.00,0.0147
3594.00,0.0148
3593.00,0.0149
3592.00,0.0150
3591.00,0.0151
3590.00,0.0152
3589.00,0.0152
3588.00,0.0153
3587.00,0.0154
3586.00,0.0156
3585.00,0.0157
3584.00,0.0157
3583.00,0.0157
3582.00,0.0157
3581.00,0.0158
3580.00,0.0158
3579.00,0.0159
3578.00,0.0160
3577.00,0.0161
3576.00,0.0162
3575.00,0.0163
3574.00,0.0164
3573.00,0.0165
3572.00,0.0166
3571.00,0.0167
3570.00,0.0168
3569.00,0.0169
3568.00,0.0170
3567.00,0.0171
3566.00,0.0173
3565.00,0.0174
3564.00,0.0175
3563.00,0.0175
3562.00,0.0176
3561.00,0.0176
3560.00,0.0177
3559.00,0.0178
3558.00,0.0179
3557.00,0.0180
3556.00,0.0181
3555.00,0.0182
3554.00,0.0184
3553.00,0.0185
3552.00,0.0186
3551.00,0.0188
3550.00,0.0189
3549.00,0.0189
3548.00,0.0189
3547.00,0.0190
3546.00,0.0190
3545.00,0.0191
3544.00,0.0192
3543.00,0.0193
3542.00,0.0193
3541.00,0.0194
3540.00,0.0195
3539.00,0.0196
3538.00,0.0196
3537.00,0.0197
3536.00,0.0198
3535.00,0.0198
3534.00,0.0199
3533.00,0.0200
3532.00,0.0201
3531.00,0.0202
3530.00,0.0203
3529.00,0.0204
3528.00,0.0204
3527.00,0.0205
3526.00,0.0206
3525.00,0.0207
3524.00,0.0208
3523.00,0.0209
3522.00,0.0210
3521.00,0.0210
3520.00,0.0211
3519.00,0.0212
3518.00,0.0213
3517.00,0.0214
3516.00,0.0215
3515.00,0.0215
3514.00,0.0216
3513.00,0.0217
3512.00,0.0217
3511.00,0.0218
3510.00,0.0218
3509.00,0.0218
3508.00,0.0219
3507.00,0.0219
3506.00,0.0220
3505.00,0.0220
3504.00,0.0221
3503.00,0.0222
3502.00,0.0223
3501.00,0.0224
3500.00,0.0225
3499.00,0.0225
3498.00,0.0226
3497.00,0.0226
3496.00,0.0227
3495.00,0.0227
3494.00,0.0227
3493.00,0.0228
3492.00,0.0228
3491.00,0.0228
3490.00,0.0229
3489.00,0.0230
3488.00,0.0231
3487.00,0.0232
3486.00,0.0232
3485.00,0.0233
3484.00,0.0233
3483.00,0.0234
3482.00,0.0235
3481.00,0.0235
3480.00,0.0236
3479.00,0.0236
3478.00,0.0236
3477.00,0.0237
3476.00,0.0237
3475.00,0.0238
3474.00,0.0238
3473.00,0.0239
3472.00,0.0239
3471.00,0.0240
3470.00,0.0240
3469.00,0.0241
3468.00,0.0242
3467.00,0.0243
3466.00,0.0243
3465.00,0.0243
3464.00,0.0244
3463.00,0.0244
3462.00,0.0245
3461.00,0.0245
3460.00,0.0246
3459.00,0.0246
3458.00,0.0247
3457.00,0.0248
3456.00,0.0248
3455.00,0.0249
3454.00,0.0249
3453.00,0.0249
3452.00,0.0250
3451.00,0.0250
3450.00,0.0250
3449.00,0.0251
3448.00,0.0252
3447.00,0.0253
3446.00,0.0253
3445.00,0.0254
3444.00,0.0254
3443.00,0.0255
3442.00,0.0255
3441.00,0.0256
3440.00,0.0257
3439.00,0.0257
3438.00,0.0258
3437.00,0.0259
3436.00,0.0259
3435.00,0.0260
3434.00,0.0260
3433.00,0.0261
3432.00,0.0261
3431.00,0.0262
3430.00,0.0263
3429.00,0.0264
3428.00,0.0264
3427.00,0.0265
3426.00,0.0266
3425.00,0.0267
3424.00,0.0269
3423.00,0.0270
3422.00,0.0271
3421.00,0.0272
3420.00,0.0273
3419.00,0.0274
3418.00,0.0274
3417.00,0.0275
3416.00,0.0276
3415.00,0.0277
3414.00,0.0278
3413.00,0.0279
3412.00,0.0280
3411.00,0.0281
3410.00,0.0281
3409.00,0.0282
3408.00,0.0284
3407.00,0.0285
3406.00,0.0286
3405.00,0.0287
3404.00,0.0288
3403.00,0.0289
3402.00,0.0290
3401.00,0.0290
3400.00,0.0291
3399.00,0.0292
3398.00,0.0293
3397.00,0.0294
3396.00,0.0295
3395.00,0.0296
3394.00,0.0297
3393.00,0.0298
3392.00,0.0299
3391.00,0.0300
3390.00,0.0301
3389.00,0.0302
3388.00,0.0304
3387.00,0.0305
3386.00,0.0306
3385.00,0.0307
3384.00,0.0308
3383.00,0.0309
3382.00,0.0310
3381.00,0.0311
3380.00,0.0313
3379.00,0.0314
3378.00,0.0315
3377.00,0.0317
3376.00,0.0318
3375.00,0.0319
3374.00,0.0319
3373.00,0.0320
3372.00,0.0321
3371.00,0.0323
3370.00,0.0324
3369.00,0.0326
3368.00,0.0327
3367.00,0.0329
3366.00,0.0330
3365.00,0.0332
3364.00,0.0335
3363.00,0.0337
3362.00,0.0338
3361.00,0.0340
3360.00,0.0342
3359.00,0.0343
3358.00,0.0345
3357.00,0.0348
3356.00,0.0350
3355.00,0.0352
3354.00,0.0354
3353.00,0.0356
3352.00,0.0359
3351.00,0.0361
3350.00,0.0364
3349.00,0.0367
3348.00,0.0370
3347.00,0.0372
3346.00,0.0375
3345.00,0.0378
3344.00,0.0380
3343.00,0.0383
3342.00,0.0386
3341.00,0.0389
3340.00,0.0391
3339.00,0.0394
3338.00,0.0397
3337.00,0.0401
3336.00,0.0405
3335.00,0.0409
3334.00,0.0413
3333.00,0.0418
3332.00,0.0421
3331.00,0.0425
3330.00,0.0429
3329.00,0.0432
3328.00,0.0436
3327.00,0.0440
3326.00,0.0444
3325.00,0.0449
3324.00,0.0453
3323.00,0.0458
3322.00,0.0463
3321.00,0.0468
3320.00,0.0473
3319.00,0.0478
3318.00,0.0483
3317.00,0.0488
3316.00,0.0493
3315.00,0.0498
3314.00,0.0503
3313.00,0.0508
3312.00,0.0514
3311.00,0.0519
3310.00,0.0524
3309.00,0.0529
3308.00,0.0534
3307.00,0.0540
3306.00,0.0545
3305.00,0.0551
3304.00,0.0557
3303.00,0.0564
3302.00,0.0569
3301.00,0.0575
3300.00,0.0579
3299.00,0.0584
3298.00,0.0588
3297.00,0.0593
3296.00,0.0598
3295.00,0.0603
3294.00,0.0607
3293.00,0.0612
3292.00,0.0615
3291.00,0.0619
3290.00,0.0622
3289.00,0.0626
3288.00,0.0628
3287.00,0.0631
3286.00,0.0633
3285.00,0.0634
3284.00,0.0635
3283.00,0.0635
3282.00,0.0635
3281.00,0.0634
3280.00,0.0633
3279.00,0.0631
3278.00,0.0629
3277.00,0.0626
3276.00,0.0623
3275.00,0.0619
3274.00,0.0615
3273.00,0.0611
3272.00,0.0607
3271.00,0.0603
3270.00,0.0600
3269.00,0.0596
3268.00,0.0592
3267.00,0.0588
3266.00,0.0583
3265.00,0.0578
3264.00,0.0573
3263.00,0.0568
3262.00,0.0563
3261.00,0.0559
3260.00,0.0554
3259.00,0.0549
3258.00,0.0543
3257.00,0.0538
3256.00,0.0533
3255.00,0.0528
3254.00,0.0524
3253.00,0.0521
3252.00,0.0517
3251.00,0.0513
3250.00,0.0508
3249.00,0.0503
3248.00,0.0499
3247.00,0.0495
3246.00,0.0491
3245.00,0.0488
3244.00,0.0484
3243.00,0.0481
3242.00,0.0478
3241.00,0.0475
3240.00,0.0472
3239.00,0.0468
3238.00,0.0465
3237.00,0.0461
3236.00,0.0456
3235.00,0.0452
3234.00,0.0449
3233.00,0.0447
3232.00,0.0445
3231.00,0.0444
3230.00,0.0443
3229.00,0.0441
3228.00,0.0438
3227.00,0.0436
3226.00,0.0433
3225.00,0.0430
3224.00,0.0427
3223.00,0.0424
3222.00,0.0421
3221.00,0.0419
3220.00,0.0416
3219.00,0.0414
3218.00,0.0412
3217.00,0.0410
3216.00,0.0407
3215.00,0.0405
3214.00,0.0403
3213.00,0.0400
3212.00,0.0398
3211.00,0.0396
3210.00,0.0394
3209.00,0.0391
3208.00,0.0389
3207.00,0.0387
3206.00,0.0385
3205.00,0.0382
3204.00,0.0380
3203.00,0.0378
3202.00,0.0376
3201.00,0.0373
3200.00,0.0371
3199.00,0.0368
3198.00,0.0366
3197.00,0.0364
3196.00,0.0363
3195.00,0.0361
3194.00,0.0358
3193.00,0.0356
3192.00,0.0353
3191.00,0.0351
3190.00,0.0349
3189.00,0.0347
3188.00,0.0345
3187.00,0.0343
3186.00,0.0341
3185.00,0.0339
3184.00,0.0337
3183.00,0.0334
3182.00,0.0332
3181.00,0.0330
3180.00,0.0328
3179.00,0.0325
3178.00,0.0323
3177.00,0.0322
3176.00,0.0320
3175.00,0.0319
3174.00,0.0317
3173.00,0.0315
3172.00,0.0313
3171.00,0.0311
3170.00,0.0309
3169.00,0.0307
3168.00,0.0306
3167.00,0.0304
3166.00,0.0302
3165.00,0.0301
3164.00,0.0299
3163.00,0.0297
3162.00,0.0295
3161.00,0.0293
3160.00,0.0292
3159.00,0.0290
3158.00,0.0288
3157.00,0.0287
3156.00,0.0285
3155.00,0.0284
3154.00,0.0283
3153.00,0.0281
3152.00,0.0280
3151.00,0.0279
3150.00,0.0278
3149.00,0.0277
3148.00,0.0276
3147.00,0.0274
3146.00,0.0273
3145.00,0.0272
3144.00,0.0271
3143.00,0.0270
3142.00,0.0269
3141.00,0.0268
3140.00,0.0267
3139.00,0.0266
3138.00,0.0266
3137.00,0.0265
3136.00,0.0265
3135.00,0.0264
3134.00,0.0264
3133.00,0.0263
3132.00,0.0263
3131.00,0.0262
3130.00,0.0261
3129.00,0.0261
3128.00,0.0260
3127.00,0.0260
3126.00,0.0259
3125.00,0.0259
3124.00,0.0259
3123.00,0.0259
3122.00,0.0258
3121.00,0.0257
3120.00,0.0257
3119.00,0.0257
3118.00,0.0257
3117.00,0.0257
3116.00,0.0258
3115.00,0.0258
3114.00,0.0259
3113.00,0.0260
3112.00,0.0260
3111.00,0.0261
3110.00,0.0261
3109.00,0.0261
3108.00,0.0262
3107.00,0.0262
3106.00,0.0263
3105.00,0.0264
3104.00,0.0265
3103.00,0.0265
3102.00,0.0265
3101.00,0.0265
3100.00,0.0266
3099.00,0.0267
3098.00,0.0268
3097.00,0.0269
3096.00,0.0269
3095.00,0.0270
3094.00,0.0271
3093.00,0.0271
3092.00,0.0272
3091.00,0.0272
3090.00,0.0272
3089.00,0.0272
3088.00,0.0273
3087.00,0.0273
3086.00,0.0274
3085.00,0.0274
3084.00,0.0274
3083.00,0.0274
3082.00,0.0274
3081.00,0.0274
3080.00,0.0274
3079.00,0.0275
3078.00,0.0276
3077.00,0.0277
3076.00,0.0278
3075.00,0.0280
3074.00,0.0280
3073.00,0.0280
3072.00,0.0280
3071.00,0.0279
3070.00,0.0278
3069.00,0.0277
3068.00,0.0276
3067.00,0.0276
3066.00,0.0276
3065.00,0.0276
3064.00,0.0276
3063.00,0.0276
3062.00,0.0275
3061.00,0.0274
3060.00,0.0273
3059.00,0.0272
3058.00,0.0271
3057.00,0.0269
3056.00,0.0268
3055.00,0.0266
3054.00,0.0265
3053.00,0.0264
3052.00,0.0262
3051.00,0.0261
3050.00,0.0259
3049.00,0.0258
3048.00,0.0257
3047.00,0.0255
3046.00,0.0254
3045.00,0.0252
3044.00,0.0250
3043.00,0.0248
3042.00,0.0246
3041.00,0.0246
3040.00,0.0245
3039.00,0.0245
3038.00,0.0244
3037.00,0.0242
3036.00,0.0240
3035.00,0.0238
3034.00,0.0238
3033.00,0.0237
3032.00,0.0237
3031.00,0.0237
3030.00,0.0235
3029.00,0.0234
3028.00,0.0232
3027.00,0.0231
3026.00,0.0230
3025.00,0.0229
3024.00,0.0228
3023.00,0.0228
3022.00,0.0227
3021.00,0.0225
3020.00,0.0224
3019.00,0.0222
3018.00,0.0221
3017.00,0.0220
3016.00,0.0219
3015.00,0.0218
3014.00,0.0217
3013.00,0.0216
3012.00,0.0215
3011.00,0.0214
3010.00,0.0212
3009.00,0.0211
3008.00,0.0210
3007.00,0.0208
3006.00,0.0206
3005.00,0.0204
3004.00,0.0202
3003.00,0.0199
3002.00,0.0196
3001.00,0.0193
3000.00,0.0191
2999.00,0.0189
2998.00,0.0187
2997.00,0.0186
2996.00,0.0185
2995.00,0.0185
2994.00,0.0184
2993.00,0.0183
2992.00,0.0183
2991.00,0.0183
2990.00,0.0184
2989.00,0.0185
2988.00,0.0185
2987.00,0.0184
2986.00,0.0182
2985.00,0.0178
2984.00,0.0172
2983.00,0.0166
2982.00,0.0162
2981.00,0.0161
2980.00,0.0163
2979.00,0.0168
2978.00,0.0174
2977.00,0.0179
2976.00,0.0183
2975.00,0.0185
2974.00,0.0187
2973.00,0.0188
2972.00,0.0189
2971.00,0.0192
2970.00,0.0196
2969.00,0.0201
2968.00,0.0206
2967.00,0.0210
2966.00,0.0213
2965.00,0.0217
2964.00,0.0220
2963.00,0.0223
2962.00,0.0226
2961.00,0.0229
2960.00,0.0232
2959.00,0.0234
2958.00,0.0236
2957.00,0.0238
2956.00,0.0239
2955.00,0.0240
2954.00,0.0241
2953.00,0.0242
2952.00,0.0244
2951.00,0.0245
2950.00,0.0247
2949.00,0.0249
2948.00,0.0251
2947.00,0.0254
2946.00,0.0257
2945.00,0.0261
2944.00,0.0266
2943.00,0.0272
2942.00,0.0278
2941.00,0.0284
2940.00,0.0291
2939.00,0.0297
2938.00,0.0304
2937.00,0.0311
2936.00,0.0319
2935.00,0.0326
2934.00,0.0333
2933.00,0.0340
2932.00,0.0346
2931.00,0.0353
2930.00,0.0360
2929.00,0.0367
2928.00,0.0373
2927.00,0.0379
2926.00,0.0384
2925.00,0.0388
2924.00,0.0391
2923.00,0.0393
2922.00,0.0393
2921.00,0.0392
2920.00,0.0389
2919.00,0.0385
2918.00,0.0379
2917.00,0.0372
2916.00,0.0363
2915.00,0.0353
2914.00,0.0343
2913.00,0.0332
2912.00,0.0322
2911.00,0.0312
2910.00,0.0304
2909.00,0.0297
2908.00,0.0291
2907.00,0.0286
2906.00,0.0280
2905.00,0.0276
2904.00,0.0271
2903.00,0.0266
2902.00,0.0262
2901.00,0.0259
2900.00,0.0255
2899.00,0.0252
2898.00,0.0249
2897.00,0.0245
2896.00,0.0242
2895.00,0.0239
2894.00,0.0237
2893.00,0.0234
2892.00,0.0231
2891.00,0.0228
2890.00,0.0225
2889.00,0.0223
2888.00,0.0221
2887.00,0.0220
2886.00,0.0218
2885.00,0.0217
2884.00,0.0216
2883.00,0.0216
2882.00,0.0216
2881.00,0.0217
2880.00,0.0218
2879.00,0.0220
2878.00,0.0221
2877.00,0.0223
2876.00,0.0224
2875.00,0.0226
2874.00,0.0227
2873.00,0.0227
2872.00,0.0228
2871.00,0.0228
2870.00,0.0228
2869.00,0.0228
2868.00,0.0228
2867.00,0.0228
2866.00,0.0229
2865.00,0.0231
2864.00,0.0234
2863.00,0.0237
2862.00,0.0242
2861.00,0.0247
2860.00,0.0253
2859.00,0.0260
2858.00,0.0267
2857.00,0.0273
2856.00,0.0280
2855.00,0.0285
2854.00,0.0290
2853.00,0.0294
2852.00,0.0295
2851.00,0.0294
2850.00,0.0291
2849.00,0.0284
2848.00,0.0276
2847.00,0.0266
2846.00,0.0256
2845.00,0.0246
2844.00,0.0238
2843.00,0.0231
2842.00,0.0224
2841.00,0.0218
2840.00,0.0213
2839.00,0.0209
2838.00,0.0206
2837.00,0.0203
2836.00,0.0200
2835.00,0.0198
2834.00,0.0196
2833.00,0.0194
2832.00,0.0193
2831.00,0.0192
2830.00,0.0191
2829.00,0.0189
2828.00,0.0189
2827.00,0.0188
2826.00,0.0187
2825.00,0.0186
2824.00,0.0185
2823.00,0.0184
2822.00,0.0183
2821.00,0.0182
2820.00,0.0181
2819.00,0.0181
2818.00,0.0180
2817.00,0.0179
2816.00,0.0179
2815.00,0.0179
2814.00,0.0178
2813.00,0.0177
2812.00,0.0176
2811.00,0.0176
2810.00,0.0175
2809.00,0.0175
2808.00,0.0175
2807.00,0.0174
2806.00,0.0174
2805.00,0.0173
2804.00,0.0173
2803.00,0.0173
2802.00,0.0172
2801.00,0.0171
2800.00,0.0171
2799.00,0.0170
2798.00,0.0170
2797.00,0.0169
2796.00,0.0169
2795.00,0.0169
2794.00,0.0168
2793.00,0.0168
2792.00,0.0167
2791.00,0.0167
2790.00,0.0166
2789.00,0.0166
2788.00,0.0166
2787.00,0.0165
2786.00,0.0165
2785.00,0.0165
2784.00,0.0164
2783.00,0.0164
2782.00,0.0164
2781.00,0.0163
2780.00,0.0163
2779.00,0.0163
2778.00,0.0162
2777.00,0.0162
2776.00,0.0161
2775.00,0.0161
2774.00,0.0161
2773.00,0.0161
2772.00,0.0161
2771.00,0.0161
2770.00,0.0160
2769.00,0.0160
2768.00,0.0160
2767.00,0.0159
2766.00,0.0159
2765.00,0.0158
2764.00,0.0158
2763.00,0.0158
2762.00,0.0157
2761.00,0.0157
2760.00,0.0157
2759.00,0.0156
2758.00,0.0156
2757.00,0.0156
2756.00,0.0155
2755.00,0.0155
2754.00,0.0155
2753.00,0.0155
2752.00,0.0155
2751.00,0.0155
2750.00,0.0154
2749.00,0.0154
2748.00,0.0154
2747.00,0.0154
2746.00,0.0153
2745.00,0.0153
2744.00,0.0153
2743.00,0.0152
2742.00,0.0152
2741.00,0.0152
2740.00,0.0151
2739.00,0.0151
2738.00,0.0151
2737.00,0.0151
2736.00,0.0151
2735.00,0.0151
2734.00,0.0151
2733.00,0.0151
2732.00,0.0150
2731.00,0.0149
2730.00,0.0149
2729.00,0.0148
2728.00,0.0148
2727.00,0.0148
2726.00,0.0147
2725.00,0.0147
2724.00,0.0147
2723.00,0.0146
2722.00,0.0146
2721.00,0.0146
2720.00,0.0146
2719.00,0.0145
2718.00,0.0145
2717.00,0.0144
2716.00,0.0144
2715.00,0.0144
2714.00,0.0144
2713.00,0.0144
2712.00,0.0144
2711.00,0.0144
2710.00,0.0144
2709.00,0.0143
2708.00,0.0143
2707.00,0.0142
2706.00,0.0142
2705.00,0.0142
2704.00,0.0142
2703.00,0.0142
2702.00,0.0142
2701.00,0.0142
2700.00,0.0141
2699.00,0.0141
2698.00,0.0141
2697.00,0.0141
2696.00,0.0141
2695.00,0.0141
2694.00,0.0141
2693.00,0.0140
2692.00,0.0140
2691.00,0.0140
2690.00,0.0140
2689.00,0.0140
2688.00,0.0141
2687.00,0.0141
2686.00,0.0140
2685.00,0.0140
2684.00,0.0139
2683.00,0.0139
2682.00,0.0139
2681.00,0.0138
2680.00,0.0138
2679.00,0.0138
2678.00,0.0137
2677.00,0.0137
2676.00,0.0137
2675.00,0.0137
2674.00,0.0137
2673.00,0.0137
2672.00,0.0137
2671.00,0.0137
2670.00,0.0137
2669.00,0.0137
2668.00,0.0137
2667.00,0.0137
2666.00,0.0137
2665.00,0.0138
2664.00,0.0138
2663.00,0.0138
2662.00,0.0138
2661.00,0.0139
2660.00,0.0139
2659.00,0.0139
2658.00,0.0139
2657.00,0.0139
2656.00,0.0139
2655.00,0.0139
2654.00,0.0139
2653.00,0.0139
2652.00,0.0139
2651.00,0.0139
2650.00,0.0139
2649.00,0.0139
2648.00,0.0139
2647.00,0.0139
2646.00,0.0138
2645.00,0.0138
2644.00,0.0138
2643.00,0.0138
2642.00,0.0138
2641.00,0.0137
2640.00,0.0137
2639.00,0.0137
2638.00,0.0137
2637.00,0.0137
2636.00,0.0137
2635.00,0.0137
2634.00,0.0137
2633.00,0.0137
2632.00,0.0136
2631.00,0.0136
2630.00,0.0136
2629.00,0.0136
2628.00,0.0136
2627.00,0.0136
2626.00,0.0136
2625.00,0.0136
2624.00,0.0136
2623.00,0.0136
2622.00,0.0135
2621.00,0.0135
2620.00,0.0135
2619.00,0.0135
2618.00,0.0134
2617.00,0.0134
2616.00,0.0134
2615.00,0.0134
2614.00,0.0133
2613.00,0.0133
2612.00,0.0133
2611.00,0.0132
2610.00,0.0132
2609.00,0.0132
2608.00,0.0131
2607.00,0.0131
2606.00,0.0131
2605.00,0.0132
2604.00,0.0132
2603.00,0.0131
2602.00,0.0131
2601.00,0.0130
2600.00,0.0130
2599.00,0.0129
2598.00,0.0129
2597.00,0.0129
2596.00,0.0129
2595.00,0.0129
2594.00,0.0129
2593.00,0.0129
2592.00,0.0129
2591.00,0.0128
2590.00,0.0128
2589.00,0.0128
2588.00,0.0128
2587.00,0.0127
2586.00,0.0127
2585.00,0.0127
2584.00,0.0126
2583.00,0.0126
2582.00,0.0126
2581.00,0.0126
2580.00,0.0126
2579.00,0.0125
2578.00,0.0125
2577.00,0.0125
2576.00,0.0125
2575.00,0.0125
2574.00,0.0125
2573.00,0.0125
2572.00,0.0125
2571.00,0.0125
2570.00,0.0125
2569.00,0.0124
2568.00,0.0124
2567.00,0.0124
2566.00,0.0123
2565.00,0.0123
2564.00,0.0124
2563.00,0.0124
2562.00,0.0125
2561.00,0.0126
2560.00,0.0126
2559.00,0.0124
2558.00,0.0122
2557.00,0.0121
2556.00,0.0120
2555.00,0.0120
2554.00,0.0120
2553.00,0.0120
2552.00,0.0120
2551.00,0.0119
2550.00,0.0119
2549.00,0.0119
2548.00,0.0120
2547.00,0.0120
2546.00,0.0120
2545.00,0.0119
2544.00,0.0119
2543.00,0.0119
2542.00,0.0119
2541.00,0.0119
2540.00,0.0118
2539.00,0.0118
2538.00,0.0118
2537.00,0.0117
2536.00,0.0117
2535.00,0.0117
2534.00,0.0117
2533.00,0.0117
2532.00,0.0117
2531.00,0.0117
2530.00,0.0117
2529.00,0.0116
2528.00,0.0116
2527.00,0.0116
2526.00,0.0116
2525.00,0.0117
2524.00,0.0117
2523.00,0.0117
2522.00,0.0116
2521.00,0.0115
2520.00,0.0114
2519.00,0.0114
2518.00,0.0114
2517.00,0.0115
2516.00,0.0115
2515.00,0.0115
2514.00,0.0115
2513.00,0.0114
2512.00,0.0113
2511.00,0.0113
2510.00,0.0113
2509.00,0.0114
2508.00,0.0114
2507.00,0.0115
2506.00,0.0115
2505.00,0.0115
2504.00,0.0114
2503.00,0.0114
2502.00,0.0113
2501.00,0.0113
2500.00,0.0112
2499.00,0.0113
2498.00,0.0113
2497.00,0.0114
2496.00,0.0115
2495.00,0.0115
2494.00,0.0114
2493.00,0.0114
2492.00,0.0113
2491.00,0.0113
2490.00,0.0113
2489.00,0.0113
2488.00,0.0112
2487.00,0.0112
2486.00,0.0112
2485.00,0.0112
2484.00,0.0112
2483.00,0.0113
2482.00,0.0113
2481.00,0.0113
2480.00,0.0113
2479.00,0.0113
2478.00,0.0113
2477.00,0.0113
2476.00,0.0113
2475.00,0.0113
2474.00,0.0113
2473.00,0.0114
2472.00,0.0114
2471.00,0.0114
2470.00,0.0115
2469.00,0.0114
2468.00,0.0114
2467.00,0.0114
2466.00,0.0113
2465.00,0.0113
2464.00,0.0112
2463.00,0.0112
2462.00,0.0113
2461.00,0.0113
2460.00,0.0112
2459.00,0.0112
2458.00,0.0112
2457.00,0.0112
2456.00,0.0112
2455.00,0.0112
2454.00,0.0111
2453.00,0.0112
2452.00,0.0112
2451.00,0.0111
2450.00,0.0111
2449.00,0.0110
2448.00,0.0110
2447.00,0.0109
2446.00,0.0109
2445.00,0.0110
2444.00,0.0110
2443.00,0.0109
2442.00,0.0109
2441.00,0.0108
2440.00,0.0108
2439.00,0.0107
2438.00,0.0108
2437.00,0.0108
2436.00,0.0108
2435.00,0.0107
2434.00,0.0107
2433.00,0.0106
2432.00,0.0106
2431.00,0.0106
2430.00,0.0106
2429.00,0.0106
2428.00,0.0105
2427.00,0.0105
2426.00,0.0105
2425.00,0.0105
2424.00,0.0106
2423.00,0.0105
2422.00,0.0105
2421.00,0.0104
2420.00,0.0104
2419.00,0.0105
2418.00,0.0105
2417.00,0.0105
2416.00,0.0105
2415.00,0.0105
2414.00,0.0104
2413.00,0.0104
2412.00,0.0103
2411.00,0.0103
2410.00,0.0103
2409.00,0.0103
2408.00,0.0103
2407.00,0.0103
2406.00,0.0103
2405.00,0.0103
2404.00,0.0103
2403.00,0.0103
2402.00,0.0102
2401.00,0.0101
2400.00,0.0101
2399.00,0.0101
2398.00,0.0101
2397.00,0.0102
2396.00,0.0102
2395.00,0.0102
2394.00,0.0102
2393.00,0.0102
2392.00,0.0102
2391.00,0.0102
2390.00,0.0102
2389.00,0.0102
2388.00,0.0101
2387.00,0.0101
2386.00,0.0099
2385.00,0.0098
2384.00,0.0098
2383.00,0.0097
2382.00,0.0097
2381.00,0.0097
2380.00,0.0097
2379.00,0.0096
2378.00,0.0096
2377.00,0.0096
2376.00,0.0096
2375.00,0.0096
2374.00,0.0096
2373.00,0.0096
2372.00,0.0095
2371.00,0.0095
2370.00,0.0094
2369.00,0.0094
2368.00,0.0094
2367.00,0.0094
2366.00,0.0094
2365.00,0.0095
2364.00,0.0095
2363.00,0.0095
2362.00,0.0095
2361.00,0.0095
2360.00,0.0095
2359.00,0.0095
2358.00,0.0095
2357.00,0.0095
2356.00,0.0096
2355.00,0.0096
2354.00,0.0096
2353.00,0.0096
2352.00,0.0096
2351.00,0.0096
2350.00,0.0096
2349.00,0.0096
2348.00,0.0096
2347.00,0.0097
2346.00,0.0097
2345.00,0.0097
2344.00,0.0096
2343.00,0.0096
2342.00,0.0096
2341.00,0.0097
2340.00,0.0098
2339.00,0.0098
2338.00,0.0099
2337.00,0.0099
2336.00,0.0099
2335.00,0.0100
2334.00,0.0100
2333.00,0.0100
2332.00,0.0100
2331.00,0.0099
2330.00,0.0099
2329.00,0.0100
2328.00,0.0104
2327.00,0.0108
2326.00,0.0111
2325.00,0.0113
2324.00,0.0112
2323.00,0.0109
2322.00,0.0107
2321.00,0.0105
2320.00,0.0104
2319.00,0.0103
2318.00,0.0103
2317.00,0.0103
2316.00,0.0103
2315.00,0.0103
2314.00,0.0103
2313.00,0.0102
2312.00,0.0101
2311.00,0.0101
2310.00,0.0100
2309.00,0.0100
2308.00,0.0100
2307.00,0.0100
2306.00,0.0101
2305.00,0.0101
2304.00,0.0101
2303.00,0.0101
2302.00,0.0101
2301.00,0.0102
2300.00,0.0103
2299.00,0.0103
2298.00,0.0103
2297.00,0.0103
2296.00,0.0103
2295.00,0.0103
2294.00,0.0103
2293.00,0.0104
2292.00,0.0105
2291.00,0.0107
2290.00,0.0109
2289.00,0.0110
2288.00,0.0110
2287.00,0.0110
2286.00,0.0110
2285.00,0.0109
2284.00,0.0108
2283.00,0.0108
2282.00,0.0108
2281.00,0.0107
2280.00,0.0107
2279.00,0.0107
2278.00,0.0106
2277.00,0.0105
2276.00,0.0104
2275.00,0.0103
2274.00,0.0102
2273.00,0.0102
2272.00,0.0102
2271.00,0.0103
2270.00,0.0103
2269.00,0.0103
2268.00,0.0102
2267.00,0.0101
2266.00,0.0100
2265.00,0.0098
2264.00,0.0097
2263.00,0.0097
2262.00,0.0097
2261.00,0.0099
2260.00,0.0100
2259.00,0.0101
2258.00,0.0100
2257.00,0.0099
2256.00,0.0098
2255.00,0.0097
2254.00,0.0097
2253.00,0.0096
2252.00,0.0096
2251.00,0.0096
2250.00,0.0097
2249.00,0.0098
2248.00,0.0098
2247.00,0.0098
2246.00,0.0098
2245.00,0.0098
2244.00,0.0098
2243.00,0.0098
2242.00,0.0098
2241.00,0.0098
2240.00,0.0098
2239.00,0.0098
2238.00,0.0097
2237.00,0.0097
2236.00,0.0097
2235.00,0.0097
2234.00,0.0096
2233.00,0.0096
2232.00,0.0097
2231.00,0.0097
2230.00,0.0097
2229.00,0.0097
2228.00,0.0097
2227.00,0.0097
2226.00,0.0098
2225.00,0.0098
2224.00,0.0097
2223.00,0.0095
2222.00,0.0093
2221.00,0.0093
2220.00,0.0094
2219.00,0.0095
2218.00,0.0096
2217.00,0.0097
2216.00,0.0099
2215.00,0.0101
2214.00,0.0100
2213.00,0.0098
2212.00,0.0095
2211.00,0.0094
2210.00,0.0095
2209.00,0.0096
2208.00,0.0097
2207.00,0.0097
2206.00,0.0096
2205.00,0.0096
2204.00,0.0096
2203.00,0.0097
2202.00,0.0096
2201.00,0.0095
2200.00,0.0093
2199.00,0.0091
2198.00,0.0091
2197.00,0.0093
2196.00,0.0096
2195.00,0.0097
2194.00,0.0098
2193.00,0.0098
2192.00,0.0099
2191.00,0.0100
2190.00,0.0101
2189.00,0.0101
2188.00,0.0101
2187.00,0.0101
2186.00,0.0101
2185.00,0.0100
2184.00,0.0097
2183.00,0.0095
2182.00,0.0093
2181.00,0.0093
2180.00,0.0095
2179.00,0.0096
2178.00,0.0095
2177.00,0.0092
2176.00,0.0091
2175.00,0.0091
2174.00,0.0092
2173.00,0.0095
2172.00,0.0097
2171.00,0.0098
2170.00,0.0097
2169.00,0.0095
2168.00,0.0094
2167.00,0.0095
2166.00,0.0098
2165.00,0.0102
2164.00,0.0106
2163.00,0.0105
2162.00,0.0097
2161.00,0.0084
2160.00,0.0068
2159.00,0.0056
2158.00,0.0051
2157.00,0.0052
2156.00,0.0056
2155.00,0.0059
2154.00,0.0061
2153.00,0.0063
2152.00,0.0064
2151.00,0.0065
2150.00,0.0066
2149.00,0.0068
2148.00,0.0070
2147.00,0.0071
2146.00,0.0071
2145.00,0.0070
2144.00,0.0070
2143.00,0.0070
2142.00,0.0070
2141.00,0.0070
2140.00,0.0071
2139.00,0.0071
2138.00,0.0069
2137.00,0.0067
2136.00,0.0065
2135.00,0.0064
2134.00,0.0065
2133.00,0.0068
2132.00,0.0070
2131.00,0.0071
2130.00,0.0072
2129.00,0.0073
2128.00,0.0074
2127.00,0.0076
2126.00,0.0078
2125.00,0.0081
2124.00,0.0083
2123.00,0.0085
2122.00,0.0085
2121.00,0.0085
2120.00,0.0085
2119.00,0.0086
2118.00,0.0087
2117.00,0.0088
2116.00,0.0089
2115.00,0.0090
2114.00,0.0089
2113.00,0.0089
2112.00,0.0088
2111.00,0.0087
2110.00,0.0086
2109.00,0.0087
2108.00,0.0088
2107.00,0.0091
2106.00,0.0092
2105.00,0.0092
2104.00,0.0090
2103.00,0.0087
2102.00,0.0085
2101.00,0.0085
2100.00,0.0086
2099.00,0.0088
2098.00,0.0088
2097.00,0.0087
2096.00,0.0086
2095.00,0.0085
2094.00,0.0084
2093.00,0.0085
2092.00,0.0086
2091.00,0.0086
2090.00,0.0086
2089.00,0.0086
2088.00,0.0087
2087.00,0.0088
2086.00,0.0088
2085.00,0.0089
2084.00,0.0090
2083.00,0.0091
2082.00,0.0091
2081.00,0.0091
2080.00,0.0090
2079.00,0.0089
2078.00,0.0087
2077.00,0.0086
2076.00,0.0086
2075.00,0.0086
2074.00,0.0087
2073.00,0.0087
2072.00,0.0088
2071.00,0.0088
2070.00,0.0088
2069.00,0.0087
2068.00,0.0086
2067.00,0.0085
2066.00,0.0083
2065.00,0.0081
2064.00,0.0080
2063.00,0.0080
2062.00,0.0080
2061.00,0.0080
2060.00,0.0081
2059.00,0.0082
2058.00,0.0083
2057.00,0.0083
2056.00,0.0084
2055.00,0.0086
2054.00,0.0088
2053.00,0.0091
2052.00,0.0094
2051.00,0.0094
2050.00,0.0092
2049.00,0.0090
2048.00,0.0088
2047.00,0.0087
2046.00,0.0086
2045.00,0.0085
2044.00,0.0085
2043.00,0.0086
2042.00,0.0087
2041.00,0.0088
2040.00,0.0089
2039.00,0.0089
2038.00,0.0087
2037.00,0.0085
2036.00,0.0082
2035.00,0.0078
2034.00,0.0075
2033.00,0.0074
2032.00,0.0073
2031.00,0.0072
2030.00,0.0072
2029.00,0.0074
2028.00,0.0076
2027.00,0.0076
2026.00,0.0073
2025.00,0.0072
2024.00,0.0071
2023.00,0.0070
2022.00,0.0069
2021.00,0.0068
2020.00,0.0067
2019.00,0.0068
2018.00,0.0069
2017.00,0.0071
2016.00,0.0074
2015.00,0.0077
2014.00,0.0077
2013.00,0.0074
2012.00,0.0071
2011.00,0.0067
2010.00,0.0066
2009.00,0.0068
2008.00,0.0070
2007.00,0.0071
2006.00,0.0071
2005.00,0.0070
2004.00,0.0070
2003.00,0.0069
2002.00,0.0068
2001.00,0.0069
2000.00,0.0072
1999.00,0.0074
1998.00,0.0074
1997.00,0.0073
1996.00,0.0071
1995.00,0.0069
1994.00,0.0068
1993.00,0.0070
1992.00,0.0072
1991.00,0.0074
1990.00,0.0074
1989.00,0.0074
1988.00,0.0076
1987.00,0.0078
1986.00,0.0081
1985.00,0.0084
1984.00,0.0087
1983.00,0.0088
1982.00,0.0088
1981.00,0.0087
1980.00,0.0084
1979.00,0.0079
1978.00,0.0073
1977.00,0.0067
1976.00,0.0064
1975.00,0.0062
1974.00,0.0062
1973.00,0.0063
1972.00,0.0065
1971.00,0.0066
1970.00,0.0066
1969.00,0.0065
1968.00,0.0064
1967.00,0.0063
1966.00,0.0062
1965.00,0.0063
1964.00,0.0063
1963.00,0.0062
1962.00,0.0060
1961.00,0.0059
1960.00,0.0060
1959.00,0.0060
1958.00,0.0061
1957.00,0.0061
1956.00,0.0061
1955.00,0.0061
1954.00,0.0062
1953.00,0.0064
1952.00,0.0066
1951.00,0.0066
1950.00,0.0065
1949.00,0.0063
1948.00,0.0061
1947.00,0.0060
1946.00,0.0060
1945.00,0.0061
1944.00,0.0061
1943.00,0.0061
1942.00,0.0060
1941.00,0.0060
1940.00,0.0061
1939.00,0.0062
1938.00,0.0063
1937.00,0.0065
1936.00,0.0066
1935.00,0.0067
1934.00,0.0068
1933.00,0.0068
1932.00,0.0066
1931.00,0.0064
1930.00,0.0061
1929.00,0.0061
1928.00,0.0061
1927.00,0.0062
1926.00,0.0063
1925.00,0.0063
1924.00,0.0063
1923.00,0.0062
1922.00,0.0062
1921.00,0.0062
1920.00,0.0064
1919.00,0.0065
1918.00,0.0066
1917.00,0.0066
1916.00,0.0067
1915.00,0.0067
1914.00,0.0066
1913.00,0.0065
1912.00,0.0065
1911.00,0.0064
1910.00,0.0064
1909.00,0.0063
1908.00,0.0063
1907.00,0.0063
1906.00,0.0063
1905.00,0.0064
1904.00,0.0065
1903.00,0.0066
1902.00,0.0067
1901.00,0.0067
1900.00,0.0067
1899.00,0.0067
1898.00,0.0066
1897.00,0.0065
1896.00,0.0064
1895.00,0.0063
1894.00,0.0062
1893.00,0.0063
1892.00,0.0063
1891.00,0.0063
1890.00,0.0062
1889.00,0.0062
1888.00,0.0063
1887.00,0.0064
1886.00,0.0065
1885.00,0.0064
1884.00,0.0064
1883.00,0.0064
1882.00,0.0063
1881.00,0.0064
1880.00,0.0064
1879.00,0.0064
1878.00,0.0064
1877.00,0.0064
1876.00,0.0064
1875.00,0.0063
1874.00,0.0063
1873.00,0.0063
1872.00,0.0062
1871.00,0.0062
1870.00,0.0061
1869.00,0.0060
1868.00,0.0060
1867.00,0.0060
1866.00,0.0061
1865.00,0.0062
1864.00,0.0063
1863.00,0.0063
1862.00,0.0063
1861.00,0.0063
1860.00,0.0063
1859.00,0.0062
1858.00,0.0062
1857.00,0.0062
1856.00,0.0063
1855.00,0.0063
1854.00,0.0063
1853.00,0.0063
1852.00,0.0063
1851.00,0.0063
1850.00,0.0062
1849.00,0.0061
1848.00,0.0060
1847.00,0.0059
1846.00,0.0060
1845.00,0.0061
1844.00,0.0063
1843.00,0.0065
1842.00,0.0066
1841.00,0.0065
1840.00,0.0063
1839.00,0.0061
1838.00,0.0059
1837.00,0.0059
1836.00,0.0059
1835.00,0.0060
1834.00,0.0061
1833.00,0.0062
1832.00,0.0061
1831.00,0.0059
1830.00,0.0057
1829.00,0.0056
1828.00,0.0058
1827.00,0.0060
1826.00,0.0060
1825.00,0.0060
1824.00,0.0060
1823.00,0.0060
1822.00,0.0061
1821.00,0.0061
1820.00,0.0061
1819.00,0.0061
1818.00,0.0060
1817.00,0.0059
1816.00,0.0059
1815.00,0.0060
1814.00,0.0060
1813.00,0.0059
1812.00,0.0059
1811.00,0.0058
1810.00,0.0058
1809.00,0.0059
1808.00,0.0061
1807.00,0.0062
1806.00,0.0061
1805.00,0.0061
1804.00,0.0061
1803.00,0.0061
1802.00,0.0060
1801.00,0.0060
1800.00,0.0061
1799.00,0.0061
1798.00,0.0061
1797.00,0.0061
1796.00,0.0060
1795.00,0.0060
1794.00,0.0060
1793.00,0.0060
1792.00,0.0061
1791.00,0.0062
1790.00,0.0063
1789.00,0.0064
1788.00,0.0064
1787.00,0.0064
1786.00,0.0063
1785.00,0.0063
1784.00,0.0064
1783.00,0.0064
1782.00,0.0064
1781.00,0.0062
1780.00,0.0062
1779.00,0.0061
1778.00,0.0062
1777.00,0.0062
1776.00,0.0062
1775.00,0.0062
1774.00,0.0062
1773.00,0.0063
1772.00,0.0065
1771.00,0.0066
1770.00,0.0067
1769.00,0.0068
1768.00,0.0069
1767.00,0.0070
1766.00,0.0071
1765.00,0.0071
1764.00,0.0072
1763.00,0.0072
1762.00,0.0074
1761.00,0.0077
1760.00,0.0080
1759.00,0.0082
1758.00,0.0083
1757.00,0.0085
1756.00,0.0088
1755.00,0.0092
1754.00,0.0096
1753.00,0.0099
1752.00,0.0104
1751.00,0.0108
1750.00,0.0110
1749.00,0.0112
1748.00,0.0113
1747.00,0.0114
1746.00,0.0116
1745.00,0.0117
1744.00,0.0118
1743.00,0.0118
1742.00,0.0119
1741.00,0.0120
1740.00,0.0120
1739.00,0.0120
1738.00,0.0119
1737.00,0.0118
1736.00,0.0119
1735.00,0.0119
1734.00,0.0119
1733.00,0.0118
1732.00,0.0117
1731.00,0.0111
1730.00,0.0105
1729.00,0.0102
1728.00,0.0103
1727.00,0.0105
1726.00,0.0106
1725.00,0.0107
1724.00,0.0107
1723.00,0.0107
1722.00,0.0108
1721.00,0.0110
1720.00,0.0113
1719.00,0.0117
1718.00,0.0121
1717.00,0.0125
1716.00,0.0131
1715.00,0.0137
1714.00,0.0141
1713.00,0.0146
1712.00,0.0153
1711.00,0.0161
1710.00,0.0170
1709.00,0.0180
1708.00,0.0192
1707.00,0.0206
1706.00,0.0223
1705.00,0.0245
1704.00,0.0269
1703.00,0.0291
1702.00,0.0315
1701.00,0.0344
1700.00,0.0374
1699.00,0.0394
1698.00,0.0401
1697.00,0.0402
1696.00,0.0406
1695.00,0.0414
1694.00,0.0421
1693.00,0.0424
1692.00,0.0424
1691.00,0.0426
1690.00,0.0431
1689.00,0.0438
1688.00,0.0447
1687.00,0.0458
1686.00,0.0472
1685.00,0.0489
1684.00,0.0509
1683.00,0.0526
1682.00,0.0540
1681.00,0.0549
1680.00,0.0558
1679.00,0.0570
1678.00,0.0585
1677.00,0.0602
1676.00,0.0621
1675.00,0.0643
1674.00,0.0661
1673.00,0.0676
1672.00,0.0688
1671.00,0.0701
1670.00,0.0718
1669.00,0.0740
1668.00,0.0763
1667.00,0.0783
1666.00,0.0798
1665.00,0.0813
1664.00,0.0830
1663.00,0.0852
1662.00,0.0874
1661.00,0.0896
1660.00,0.0916
1659.00,0.0934
1658.00,0.0950
1657.00,0.0965
1656.00,0.0981
1655.00,0.0999
1654.00,0.1022
1653.00,0.1050
1652.00,0.1079
1651.00,0.1096
1650.00,0.1095
1649.00,0.1090
1648.00,0.1092
1647.00,0.1103
1646.00,0.1119
1645.00,0.1137
1644.00,0.1152
1643.00,0.1160
1642.00,0.1167
1641.00,0.1175
1640.00,0.1185
1639.00,0.1196
1638.00,0.1206
1637.00,0.1218
1636.00,0.1236
1635.00,0.1259
1634.00,0.1281
1633.00,0.1297
1632.00,0.1306
1631.00,0.1315
1630.00,0.1325
1629.00,0.1336
1628.00,0.1346
1627.00,0.1356
1626.00,0.1363
1625.00,0.1366
1624.00,0.1363
1623.00,0.1355
1622.00,0.1343
1621.00,0.1330
1620.00,0.1315
1619.00,0.1295
1618.00,0.1269
1617.00,0.1233
1616.00,0.1195
1615.00,0.1162
1614.00,0.1130
1613.00,0.1096
1612.00,0.1060
1611.00,0.1021
1610.00,0.0982
1609.00,0.0941
1608.00,0.0901
1607.00,0.0863
1606.00,0.0828
1605.00,0.0796
1604.00,0.0764
1603.00,0.0734
1602.00,0.0708
1601.00,0.0684
1600.00,0.0663
1599.00,0.0644
1598.00,0.0627
1597.00,0.0610
1596.00,0.0594
1595.00,0.0577
1594.00,0.0563
1593.00,0.0549
1592.00,0.0536
1591.00,0.0524
1590.00,0.0514
1589.00,0.0505
1588.00,0.0497
1587.00,0.0491
1586.00,0.0486
1585.00,0.0483
1584.00,0.0481
1583.00,0.0480
1582.00,0.0481
1581.00,0.0484
1580.00,0.0487
1579.00,0.0490
1578.00,0.0495
1577.00,0.0504
1576.00,0.0515
1575.00,0.0527
1574.00,0.0536
1573.00,0.0541
1572.00,0.0545
1571.00,0.0552
1570.00,0.0564
1569.00,0.0579
1568.00,0.0594
1567.00,0.0607
1566.00,0.0620
1565.00,0.0634
1564.00,0.0648
1563.00,0.0662
1562.00,0.0677
1561.00,0.0695
1560.00,0.0715
1559.00,0.0740
1558.00,0.0767
1557.00,0.0792
1556.00,0.0806
1555.00,0.0815
1554.00,0.0827
1553.00,0.0843
1552.00,0.0856
1551.00,0.0868
1550.00,0.0881
1549.00,0.0897
1548.00,0.0913
1547.00,0.0927
1546.00,0.0940
1545.00,0.0952
1544.00,0.0964
1543.00,0.0975
1542.00,0.0988
1541.00,0.1002
1540.00,0.1019
1539.00,0.1039
1538.00,0.1059
1537.00,0.1068
1536.00,0.1070
1535.00,0.1071
1534.00,0.1077
1533.00,0.1087
1532.00,0.1098
1531.00,0.1109
1530.00,0.1117
1529.00,0.1124
1528.00,0.1130
1527.00,0.1137
1526.00,0.1146
1525.00,0.1156
1524.00,0.1165
1523.00,0.1174
1522.00,0.1186
1521.00,0.1201
1520.00,0.1217
1519.00,0.1230
1518.00,0.1237
1517.00,0.1242
1516.00,0.1246
1515.00,0.1248
1514.00,0.1245
1513.00,0.1236
1512.00,0.1220
1511.00,0.1200
1510.00,0.1179
1509.00,0.1156
1508.00,0.1127
1507.00,0.1090
1506.00,0.1059
1505.00,0.1043
1504.00,0.1026
1503.00,0.1002
1502.00,0.0973
1501.00,0.0945
1500.00,0.0918
1499.00,0.0890
1498.00,0.0863
1497.00,0.0833
1496.00,0.0806
1495.00,0.0782
1494.00,0.0759
1493.00,0.0736
1492.00,0.0712
1491.00,0.0686
1490.00,0.0658
1489.00,0.0632
1488.00,0.0613
1487.00,0.0598
1486.00,0.0585
1485.00,0.0572
1484.00,0.0560
1483.00,0.0548
1482.00,0.0535
1481.00,0.0524
1480.00,0.0515
1479.00,0.0508
1478.00,0.0502
1477.00,0.0495
1476.00,0.0490
1475.00,0.0488
1474.00,0.0487
1473.00,0.0489
1472.00,0.0494
1471.00,0.0501
1470.00,0.0507
1469.00,0.0510
1468.00,0.0512
1467.00,0.0514
1466.00,0.0516
1465.00,0.0518
1464.00,0.0521
1463.00,0.0525
1462.00,0.0528
1461.00,0.0531
1460.00,0.0535
1459.00,0.0542
1458.00,0.0553
1457.00,0.0570
1456.00,0.0591
1455.00,0.0606
1454.00,0.0614
1453.00,0.0618
1452.00,0.0624
1451.00,0.0631
1450.00,0.0637
1449.00,0.0641
1448.00,0.0644
1447.00,0.0644
1446.00,0.0644
1445.00,0.0641
1444.00,0.0638
1443.00,0.0633
1442.00,0.0627
1441.00,0.0621
1440.00,0.0615
1439.00,0.0609
1438.00,0.0601
1437.00,0.0591
1436.00,0.0579
1435.00,0.0567
1434.00,0.0555
1433.00,0.0542
1432.00,0.0529
1431.00,0.0518
1430.00,0.0509
1429.00,0.0502
1428.00,0.0497
1427.00,0.0494
1426.00,0.0491
1425.00,0.0488
1424.00,0.0486
1423.00,0.0486
1422.00,0.0489
1421.00,0.0493
1420.00,0.0497
1419.00,0.0501
1418.00,0.0504
1417.00,0.0505
1416.00,0.0506
1415.00,0.0508
1414.00,0.0509
1413.00,0.0510
1412.00,0.0510
1411.00,0.0510
1410.00,0.0508
1409.00,0.0506
1408.00,0.0504
1407.00,0.0500
1406.00,0.0495
1405.00,0.0490
1404.00,0.0485
1403.00,0.0481
1402.00,0.0478
1401.00,0.0473
1400.00,0.0468
1399.00,0.0463
1398.00,0.0458
1397.00,0.0455
1396.00,0.0453
1395.00,0.0452
1394.00,0.0453
1393.00,0.0456
1392.00,0.0457
1391.00,0.0458
1390.00,0.0458
1389.00,0.0458
1388.00,0.0458
1387.00,0.0459
1386.00,0.0460
1385.00,0.0461
1384.00,0.0461
1383.00,0.0462
1382.00,0.0462
1381.00,0.0463
1380.00,0.0464
1379.00,0.0465
1378.00,0.0466
1377.00,0.0466
1376.00,0.0465
1375.00,0.0464
1374.00,0.0463
1373.00,0.0464
1372.00,0.0466
1371.00,0.0468
1370.00,0.0467
1369.00,0.0465
1368.00,0.0461
1367.00,0.0458
1366.00,0.0454
1365.00,0.0449
1364.00,0.0442
1363.00,0.0434
1362.00,0.0427
1361.00,0.0422
1360.00,0.0420
1359.00,0.0417
1358.00,0.0414
1357.00,0.0412
1356.00,0.0410
1355.00,0.0408
1354.00,0.0407
1353.00,0.0407
1352.00,0.0408
1351.00,0.0409
1350.00,0.0410
1349.00,0.0411
1348.00,0.0412
1347.00,0.0414
1346.00,0.0416
1345.00,0.0419
1344.00,0.0421
1343.00,0.0422
1342.00,0.0423
1341.00,0.0423
1340.00,0.0422
1339.00,0.0423
1338.00,0.0424
1337.00,0.0427
1336.00,0.0429
1335.00,0.0430
1334.00,0.0430
1333.00,0.0429
1332.00,0.0427
1331.00,0.0424
1330.00,0.0421
1329.00,0.0418
1328.00,0.0415
1327.00,0.0412
1326.00,0.0410
1325.00,0.0408
1324.00,0.0406
1323.00,0.0404
1322.00,0.0402
1321.00,0.0401
1320.00,0.0399
1319.00,0.0398
1318.00,0.0399
1317.00,0.0399
1316.00,0.0400
1315.00,0.0401
1314.00,0.0402
1313.00,0.0403
1312.00,0.0403
1311.00,0.0405
1310.00,0.0406
1309.00,0.0407
1308.00,0.0408
1307.00,0.0409
1306.00,0.0410
1305.00,0.0410
1304.00,0.0411
1303.00,0.0412
1302.00,0.0412
1301.00,0.0413
1300.00,0.0413
1299.00,0.0414
1298.00,0.0414
1297.00,0.0414
1296.00,0.0415
1295.00,0.0416
1294.00,0.0417
1293.00,0.0419
1292.00,0.0420
1291.00,0.0421
1290.00,0.0423
1289.00,0.0424
1288.00,0.0426
1287.00,0.0429
1286.00,0.0432
1285.00,0.0434
1284.00,0.0437
1283.00,0.0440
1282.00,0.0444
1281.00,0.0447
1280.00,0.0450
1279.00,0.0454
1278.00,0.0458
1277.00,0.0464
1276.00,0.0469
1275.00,0.0476
1274.00,0.0482
1273.00,0.0488
1272.00,0.0495
1271.00,0.0502
1270.00,0.0509
1269.00,0.0516
1268.00,0.0522
1267.00,0.0528
1266.00,0.0533
1265.00,0.0538
1264.00,0.0542
1263.00,0.0545
1262.00,0.0548
1261.00,0.0550
1260.00,0.0552
1259.00,0.0554
1258.00,0.0557
1257.00,0.0559
1256.00,0.0561
1255.00,0.0562
1254.00,0.0564
1253.00,0.0566
1252.00,0.0569
1251.00,0.0573
1250.00,0.0577
1249.00,0.0582
1248.00,0.0587
1247.00,0.0592
1246.00,0.0598
1245.00,0.0603
1244.00,0.0608
1243.00,0.0614
1242.00,0.0620
1241.00,0.0625
1240.00,0.0631
1239.00,0.0636
1238.00,0.0641
1237.00,0.0646
1236.00,0.0651
1235.00,0.0655
1234.00,0.0659
1233.00,0.0661
1232.00,0.0662
1231.00,0.0663
1230.00,0.0662
1229.00,0.0659
1228.00,0.0655
1227.00,0.0650
1226.00,0.0643
1225.00,0.0636
1224.00,0.0627
1223.00,0.0618
1222.00,0.0609
1221.00,0.0599
1220.00,0.0590
1219.00,0.0579
1218.00,0.0568
1217.00,0.0557
1216.00,0.0544
1215.00,0.0532
1214.00,0.0520
1213.00,0.0508
1212.00,0.0496
1211.00,0.0485
1210.00,0.0473
1209.00,0.0462
1208.00,0.0451
1207.00,0.0441
1206.00,0.0430
1205.00,0.0421
1204.00,0.0411
1203.00,0.0403
1202.00,0.0395
1201.00,0.0387
1200.00,0.0379
1199.00,0.0373
1198.00,0.0367
1197.00,0.0362
1196.00,0.0357
1195.00,0.0353
1194.00,0.0351
1193.00,0.0349
1192.00,0.0347
1191.00,0.0345
1190.00,0.0343
1189.00,0.0341
1188.00,0.0340
1187.00,0.0340
1186.00,0.0340
1185.00,0.0341
1184.00,0.0342
1183.00,0.0344
1182.00,0.0346
1181.00,0.0350
1180.00,0.0354
1179.00,0.0360
1178.00,0.0367
1177.00,0.0374
1176.00,0.0380
1175.00,0.0386
1174.00,0.0392
1173.00,0.0397
1172.00,0.0401
1171.00,0.0404
1170.00,0.0405
1169.00,0.0406
1168.00,0.0407
1167.00,0.0406
1166.00,0.0406
1165.00,0.0404
1164.00,0.0402
1163.00,0.0399
1162.00,0.0395
1161.00,0.0391
1160.00,0.0387
1159.00,0.0383
1158.00,0.0378
1157.00,0.0373
1156.00,0.0367
1155.00,0.0361
1154.00,0.0355
1153.00,0.0349
1152.00,0.0343
1151.00,0.0338
1150.00,0.0332
1149.00,0.0327
1148.00,0.0322
1147.00,0.0317
1146.00,0.0313
1145.00,0.0309
1144.00,0.0305
1143.00,0.0302
1142.00,0.0299
1141.00,0.0296
1140.00,0.0293
1139.00,0.0291
1138.00,0.0288
1137.00,0.0286
1136.00,0.0285
1135.00,0.0284
1134.00,0.0284
1133.00,0.0284
1132.00,0.0284
1131.00,0.0284
1130.00,0.0284
1129.00,0.0284
1128.00,0.0285
1127.00,0.0286
1126.00,0.0288
1125.00,0.0289
1124.00,0.0290
1123.00,0.0292
1122.00,0.0294
1121.00,0.0295
1120.00,0.0296
1119.00,0.0297
1118.00,0.0298
1117.00,0.0299
1116.00,0.0300
1115.00,0.0301
1114.00,0.0303
1113.00,0.0304
1112.00,0.0304
1111.00,0.0305
1110.00,0.0306
1109.00,0.0307
1108.00,0.0308
1107.00,0.0310
1106.00,0.0311
1105.00,0.0312
1104.00,0.0311
1103.00,0.0310
1102.00,0.0309
1101.00,0.0307
1100.00,0.0305
1099.00,0.0302
1098.00,0.0300
1097.00,0.0297
1096.00,0.0295
1095.00,0.0294
1094.00,0.0294
1093.00,0.0293
1092.00,0.0293
1091.00,0.0293
1090.00,0.0294
1089.00,0.0295
1088.00,0.0297
1087.00,0.0298
1086.00,0.0300
1085.00,0.0301
1084.00,0.0304
1083.00,0.0306
1082.00,0.0309
1081.00,0.0311
1080.00,0.0313
1079.00,0.0315
1078.00,0.0317
1077.00,0.0320
1076.00,0.0321
1075.00,0.0323
1074.00,0.0324
1073.00,0.0326
1072.00,0.0327
1071.00,0.0329
1070.00,0.0331
1069.00,0.0333
1068.00,0.0335
1067.00,0.0336
1066.00,0.0337
1065.00,0.0339
1064.00,0.0339
1063.00,0.0340
1062.00,0.0339
1061.00,0.0339
1060.00,0.0339
1059.00,0.0339
1058.00,0.0340
1057.00,0.0340
1056.00,0.0339
1055.00,0.0339
1054.00,0.0337
1053.00,0.0336
1052.00,0.0334
1051.00,0.0331
1050.00,0.0329
1049.00,0.0327
1048.00,0.0324
1047.00,0.0322
1046.00,0.0320
1045.00,0.0317
1044.00,0.0314
1043.00,0.0311
1042.00,0.0309
1041.00,0.0307
1040.00,0.0305
1039.00,0.0304
1038.00,0.0303
1037.00,0.0302
1036.00,0.0301
1035.00,0.0301
1034.00,0.0300
1033.00,0.0300
1032.00,0.0300
1031.00,0.0300
1030.00,0.0300
1029.00,0.0300
1028.00,0.0299
1027.00,0.0299
1026.00,0.0299
1025.00,0.0300
1024.00,0.0301
1023.00,0.0304
1022.00,0.0307
1021.00,0.0311
1020.00,0.0316
1019.00,0.0320
1018.00,0.0323
1017.00,0.0326
1016.00,0.0329
1015.00,0.0330
1014.00,0.0330
1013.00,0.0328
1012.00,0.0326
1011.00,0.0324
1010.00,0.0321
1009.00,0.0319
1008.00,0.0317
1007.00,0.0315
1006.00,0.0313
1005.00,0.0312
1004.00,0.0311
1003.00,0.0310
1002.00,0.0310
1001.00,0.0309
1000.00,0.0307
999.00,0.0305
998.00,0.0302
997.00,0.0298
996.00,0.0294
995.00,0.0289
994.00,0.0284
993.00,0.0279
992.00,0.0273
991.00,0.0269
990.00,0.0264
989.00,0.0261
988.00,0.0258
987.00,0.0256
986.00,0.0255
985.00,0.0254
984.00,0.0255
983.00,0.0256
982.00,0.0257
981.00,0.0258
980.00,0.0259
979.00,0.0259
978.00,0.0260
977.00,0.0259
976.00,0.0258
975.00,0.0257
974.00,0.0254
973.00,0.0250
972.00,0.0245
971.00,0.0240
970.00,0.0235
969.00,0.0231
968.00,0.0227
967.00,0.0224
966.00,0.0222
965.00,0.0219
964.00,0.0218
963.00,0.0216
962.00,0.0215
961.00,0.0214
960.00,0.0213
959.00,0.0211
958.00,0.0209
957.00,0.0207
956.00,0.0207
955.00,0.0206
954.00,0.0206
953.00,0.0206
952.00,0.0205
951.00,0.0205
950.00,0.0205
949.00,0.0205
948.00,0.0205
947.00,0.0205
946.00,0.0205
945.00,0.0205
944.00,0.0205
943.00,0.0205
942.00,0.0205
941.00,0.0206
940.00,0.0206
939.00,0.0206
938.00,0.0207
937.00,0.0208
936.00,0.0209
935.00,0.0210
934.00,0.0211
933.00,0.0212
932.00,0.0213
931.00,0.0215
930.00,0.0216
929.00,0.0216
928.00,0.0216
927.00,0.0215
926.00,0.0215
925.00,0.0214
924.00,0.0212
923.00,0.0210
922.00,0.0208
921.00,0.0206
920.00,0.0205
919.00,0.0203
918.00,0.0202
917.00,0.0200
916.00,0.0198
915.00,0.0197
914.00,0.0196
913.00,0.0195
912.00,0.0194
911.00,0.0193
910.00,0.0191
909.00,0.0189
908.00,0.0188
907.00,0.0187
906.00,0.0187
905.00,0.0186
904.00,0.0186
903.00,0.0185
902.00,0.0185
901.00,0.0185
900.00,0.0185
899.00,0.0185
898.00,0.0186
897.00,0.0186
896.00,0.0186
895.00,0.0186
894.00,0.0187
893.00,0.0187
892.00,0.0187
891.00,0.0187
890.00,0.0187
889.00,0.0186
888.00,0.0186
887.00,0.0187
886.00,0.0187
885.00,0.0188
884.00,0.0189
883.00,0.0190
882.00,0.0190
881.00,0.0190
880.00,0.0190
879.00,0.0191
878.00,0.0191
877.00,0.0191
876.00,0.0191
875.00,0.0191
874.00,0.0192
873.00,0.0193
872.00,0.0195
871.00,0.0196
870.00,0.0197
869.00,0.0198
868.00,0.0198
867.00,0.0199
866.00,0.0200
865.00,0.0201
864.00,0.0202
863.00,0.0205
862.00,0.0208
861.00,0.0211
860.00,0.0214
859.00,0.0217
858.00,0.0220
857.00,0.0224
856.00,0.0228
855.00,0.0232
854.00,0.0236
853.00,0.0238
852.00,0.0240
851.00,0.0240
850.00,0.0240
849.00,0.0240
848.00,0.0240
847.00,0.0239
846.00,0.0239
845.00,0.0239
844.00,0.0239
843.00,0.0239
842.00,0.0241
841.00,0.0242
840.00,0.0244
839.00,0.0247
838.00,0.0249
837.00,0.0252
836.00,0.0254
835.00,0.0257
834.00,0.0260
833.00,0.0263
832.00,0.0266
831.00,0.0268
830.00,0.0269
829.00,0.0270
828.00,0.0271
827.00,0.0273
826.00,0.0274
825.00,0.0274
824.00,0.0272
823.00,0.0270
822.00,0.0268
821.00,0.0267
820.00,0.0266
819.00,0.0266
818.00,0.0266
817.00,0.0265
816.00,0.0266
815.00,0.0267
814.00,0.0268
813.00,0.0269
812.00,0.0270
811.00,0.0272
810.00,0.0274
809.00,0.0275
808.00,0.0277
807.00,0.0278
806.00,0.0280
805.00,0.0282
804.00,0.0284
803.00,0.0286
802.00,0.0288
801.00,0.0289
800.00,0.0290
799.00,0.0290
798.00,0.0291
797.00,0.0292
796.00,0.0294
795.00,0.0296
794.00,0.0299
793.00,0.0301
792.00,0.0304
791.00,0.0307
790.00,0.0310
789.00,0.0313
788.00,0.0316
787.00,0.0318
786.00,0.0321
785.00,0.0324
784.00,0.0326
783.00,0.0329
782.00,0.0332
781.00,0.0334
780.00,0.0337
779.00,0.0339
778.00,0.0342
777.00,0.0345
776.00,0.0348
775.00,0.0351
774.00,0.0355
773.00,0.0359
772.00,0.0362
771.00,0.0365
770.00,0.0368
769.00,0.0371
768.00,0.0374
767.00,0.0378
766.00,0.0380
765.00,0.0383
764.00,0.0385
763.00,0.0388
762.00,0.0390
761.00,0.0393
760.00,0.0396
759.00,0.0399
758.00,0.0402
757.00,0.0404
756.00,0.0407
755.00,0.0411
754.00,0.0415
753.00,0.0419
752.00,0.0423
751.00,0.0426
750.00,0.0430
749.00,0.0435
748.00,0.0440
747.00,0.0445
746.00,0.0451
745.00,0.0456
744.00,0.0462
743.00,0.0468
742.00,0.0474
741.00,0.0479
740.00,0.0485
739.00,0.0490
738.00,0.0496
737.00,0.0502
736.00,0.0508
735.00,0.0515
734.00,0.0521
733.00,0.0527
732.00,0.0534
731.00,0.0542
730.00,0.0549
729.00,0.0555
728.00,0.0562
727.00,0.0569
726.00,0.0576
725.00,0.0583
724.00,0.0591
723.00,0.0598
722.00,0.0603
721.00,0.0609
720.00,0.0613
719.00,0.0618
718.00,0.0622
717.00,0.0625
716.00,0.0628
715.00,0.0631
714.00,0.0635
713.00,0.0639
712.00,0.0644
711.00,0.0648
710.00,0.0653
709.00,0.0658
708.00,0.0663
707.00,0.0668
706.00,0.0673
705.00,0.0677
704.00,0.0682
703.00,0.0686
702.00,0.0690
701.00,0.0694
700.00,0.0698
699.00,0.0701
698.00,0.0704
697.00,0.0707
696.00,0.0710
695.00,0.0713
694.00,0.0716
693.00,0.0719
692.00,0.0721
691.00,0.0722
690.00,0.0723
689.00,0.0724
688.00,0.0726
687.00,0.0728
686.00,0.0731
685.00,0.0733
684.00,0.0735
683.00,0.0736
682.00,0.0736
681.00,0.0737
680.00,0.0739
679.00,0.0741
678.00,0.0743
677.00,0.0745
676.00,0.0747
675.00,0.0749
674.00,0.0751
673.00,0.0752
672.00,0.0752
671.00,0.0752
670.00,0.0753
669.00,0.0755
668.00,0.0759
667.00,0.0763
666.00,0.0764
665.00,0.0763
664.00,0.0764
663.00,0.0765
662.00,0.0766
661.00,0.0767
660.00,0.0769
659.00,0.0770
658.00,0.0772
657.00,0.0774
656.00,0.0776
655.00,0.0778
654.00,0.0780
653.00,0.0782
652.00,0.0784
651.00,0.0786
650.00,0.0788
649.00,0.0790
648.00,0.0791
647.00,0.0793
646.00,0.0794
645.00,0.0796
644.00,0.0797
643.00,0.0799
642.00,0.0800
641.00,0.0800
640.00,0.0801
639.00,0.0801
638.00,0.0801
637.00,0.0801
636.00,0.0802
635.00,0.0803
634.00,0.0804
633.00,0.0804
632.00,0.0803
631.00,0.0802
630.00,0.0802
629.00,0.0801
628.00,0.0800
627.00,0.0799
626.00,0.0799
625.00,0.0800
624.00,0.0802
623.00,0.0804
622.00,0.0806
621.00,0.0809
620.00,0.0812
619.00,0.0816
618.00,0.0821
617.00,0.0825
616.00,0.0830
615.00,0.0833
614.00,0.0835
613.00,0.0836
612.00,0.0837
611.00,0.0837
610.00,0.0836
609.00,0.0833
608.00,0.0830
607.00,0.0826
606.00,0.0823
605.00,0.0820
604.00,0.0817
603.00,0.0814
602.00,0.0810
601.00,0.0806
600.00,0.0804
599.00,0.0803
598.00,0.0801
597.00,0.0800
596.00,0.0798
595.00,0.0797
594.00,0.0795
593.00,0.0792
592.00,0.0791
591.00,0.0790
590.00,0.0791
589.00,0.0792
588.00,0.0793
587.00,0.0794
586.00,0.0795
585.00,0.0795
584.00,0.0795
583.00,0.0795
582.00,0.0796
581.00,0.0797
580.00,0.0800
579.00,0.0805
578.00,0.0808
577.00,0.0810
576.00,0.0811
575.00,0.0813
574.00,0.0815
573.00,0.0818
572.00,0.0821
571.00,0.0824
570.00,0.0828
569.00,0.0832
568.00,0.0837
567.00,0.0844
566.00,0.0851
565.00,0.0858
564.00,0.0866
563.00,0.0873
562.00,0.0882
561.00,0.0890
560.00,0.0899
559.00,0.0908
558.00,0.0916
557.00,0.0924
556.00,0.0933
555.00,0.0941
554.00,0.0947
553.00,0.0951
552.00,0.0953
551.00,0.0953
550.00,0.0952
549.00,0.0950
548.00,0.0949
547.00,0.0947
546.00,0.0945
545.00,0.0942
544.00,0.0939
543.00,0.0936
542.00,0.0933
541.00,0.0931
540.00,0.0929
539.00,0.0927
538.00,0.0924
537.00,0.0920
536.00,0.0916
535.00,0.0911
534.00,0.0906
533.00,0.0902
532.00,0.0898
531.00,0.0896
530.00,0.0892
529.00,0.0889
528.00,0.0887
527.00,0.0885
526.00,0.0883
525.00,0.0883
524.00,0.0881
523.00,0.0878
522.00,0.0873
521.00,0.0867
520.00,0.0861
519.00,0.0856
518.00,0.0853
517.00,0.0852
516.00,0.0854
515.00,0.0856
514.00,0.0858
513.00,0.0858
512.00,0.0856
511.00,0.0852
510.00,0.0847
509.00,0.0842
508.00,0.0836
507.00,0.0833
506.00,0.0831
505.00,0.0831
504.00,0.0830
503.00,0.0827
502.00,0.0823
501.00,0.0820
500.00,0.0818
499.00,0.0817
498.00,0.0815
497.00,0.0815
496.00,0.0815
495.00,0.0817
494.00,0.0818
493.00,0.0818
492.00,0.0817
491.00,0.0815
490.00,0.0812
489.00,0.0808
488.00,0.0806
487.00,0.0804
486.00,0.0803
485.00,0.0802
484.00,0.0801
483.00,0.0798
482.00,0.0796
481.00,0.0793
480.00,0.0791
479.00,0.0789
478.00,0.0787
477.00,0.0786
476.00,0.0785
475.00,0.0782
474.00,0.0779
473.00,0.0774
472.00,0.0769
471.00,0.0764
470.00,0.0761
469.00,0.0759
468.00,0.0759
467.00,0.0760
466.00,0.0761
465.00,0.0761
464.00,0.0761
463.00,0.0758
462.00,0.0755
461.00,0.0751
460.00,0.0748
459.00,0.0748
458.00,0.0752
457.00,0.0759
456.00,0.0765
455.00,0.0765
454.00,0.0758
453.00,0.0750
452.00,0.0744
451.00,0.0742
450.00,0.0742
449.00,0.0739
448.00,0.0736
447.00,0.0733
446.00,0.0732
445.00,0.0735
444.00,0.0740
443.00,0.0744
442.00,0.0743
441.00,0.0740
440.00,0.0739
439.00,0.0739
438.00,0.0738
437.00,0.0736
436.00,0.0734
435.00,0.0732
434.00,0.0731
433.00,0.0731
432.00,0.0733
431.00,0.0739
430.00,0.0747
429.00,0.0755
428.00,0.0761
427.00,0.0767
426.00,0.0772
425.00,0.0777
424.00,0.0780
423.00,0.0779
422.00,0.0774
421.00,0.0769
420.00,0.0764
419.00,0.0757
418.00,0.0748
417.00,0.0741
416.00,0.0736
415.00,0.0734
414.00,0.0734
413.00,0.0733
412.00,0.0728
411.00,0.0717
410.00,0.0703
409.00,0.0691
408.00,0.0685
407.00,0.0681
406.00,0.0677
405.00,0.0673
404.00,0.0675
403.00,0.0686
402.00,0.0699
401.00,0.0708
400.00,0.0713
