Created as New Dataset,Sample 609 By YargerLab Date Thursday, June 05 2025
cm-1,A
4000.00,0.0050
3999.00,0.0050
3998.00,0.0050
3997.00,0.0050
3996.00,0.0050
3995.00,0.0050
3994.00,0.0050
3993.00,0.0050
3992.00,0.0050
3991.00,0.0050
3990.00,0.0050
3989.00,0.0050
3988.00,0.0050
3987.00,0.0050
3986.00,0.0050
3985.00,0.0050
3984.00,0.0050
3983.00,0.0050
3982.00,0.0050
3981.00,0.0050
3980.00,0.0050
3979.00,0.0050
3978.00,0.0050
3977.00,0.0050
3976.00,0.0050
3975.00,0.0050
3974.00,0.0050
3973.00,0.0050
3972.00,0.0050
3971.00,0.0050
3970.00,0.0050
3969.00,0.0050
3968.00,0.0050
3967.00,0.0050
3966.00,0.0050
3965.00,0.0050
3964.00,0.0050
3963.00,0.0050
3962.00,0.0050
3961.00,0.0050
3960.00,0.0050
3959.00,0.0050
3958.00,0.0050
3957.00,0.0050
3956.00,0.0050
3955.00,0.0050
3954.00,0.0050
3953.00,0.0050
3952.00,0.0050
3951.00,0.0049
3950.00,0.0049
3949.00,0.0049
3948.00,0.0049
3947.00,0.0049
3946.00,0.0049
3945.00,0.0049
3944.00,0.0049
3943.00,0.0049
3942.00,0.0050
3941.00,0.0050
3940.00,0.0050
3939.00,0.0049
3938.00,0.0049
3937.00,0.0049
3936.00,0.0049
3935.00,0.0049
3934.00,0.0049
3933.00,0.0049
3932.00,0.0049
3931.00,0.0049
3930.00,0.0048
3929.00,0.0048
3928.00,0.0048
3927.00,0.0048
3926.00,0.0049
3925.00,0.0049
3924.00,0.0049
3923.00,0.0049
3922.00,0.0049
3921.00,0.0049
3920.00,0.0049
3919.00,0.0049
3918.00,0.0049
3917.00,0.0049
3916.00,0.0049
3915.00,0.0049
3914.00,0.0049
3913.00,0.0049
3912.00,0.0049
3911.00,0.0049
3910.00,0.0049
3909.00,0.0049
3908.00,0.0049
3907.00,0.0049
3906.00,0.0048
3905.00,0.0048
3904.00,0.0048
3903.00,0.0047
3902.00,0.0047
3901.00,0.0047
3900.00,0.0047
3899.00,0.0048
3898.00,0.0048
3897.00,0.0048
3896.00,0.0048
3895.00,0.0048
3894.00,0.0049
3893.00,0.0049
3892.00,0.0049
3891.00,0.0048
3890.00,0.0048
3889.00,0.0048
3888.00,0.0047
3887.00,0.0047
3886.00,0.0047
3885.00,0.0047
3884.00,0.0047
3883.00,0.0047
3882.00,0.0046
3881.00,0.0047
3880.00,0.0047
3879.00,0.0047
3878.00,0.0047
3877.00,0.0047
3876.00,0.0047
3875.00,0.0047
3874.00,0.0047
3873.00,0.0047
3872.00,0.0046
3871.00,0.0046
3870.00,0.0046
3869.00,0.0046
3868.00,0.0046
3867.00,0.0046
3866.00,0.0046
3865.00,0.0046
3864.00,0.0046
3863.00,0.0046
3862.00,0.0046
3861.00,0.0046
3860.00,0.0046
3859.00,0.0046
3858.00,0.0047
3857.00,0.0048
3856.00,0.0048
3855.00,0.0047
3854.00,0.0046
3853.00,0.0046
3852.00,0.0046
3851.00,0.0045
3850.00,0.0045
3849.00,0.0045
3848.00,0.0046
3847.00,0.0046
3846.00,0.0046
3845.00,0.0046
3844.00,0.0046
3843.00,0.0046
3842.00,0.0046
3841.00,0.0045
3840.00,0.0045
3839.00,0.0045
3838.00,0.0044
3837.00,0.0045
3836.00,0.0045
3835.00,0.0045
3834.00,0.0045
3833.00,0.0046
3832.00,0.0046
3831.00,0.0046
3830.00,0.0046
3829.00,0.0046
3828.00,0.0046
3827.00,0.0046
3826.00,0.0046
3825.00,0.0046
3824.00,0.0046
3823.00,0.0045
3822.00,0.0044
3821.00,0.0045
3820.00,0.0045
3819.00,0.0045
3818.00,0.0045
3817.00,0.0045
3816.00,0.0045
3815.00,0.0046
3814.00,0.0046
3813.00,0.0047
3812.00,0.0047
3811.00,0.0047
3810.00,0.0047
3809.00,0.0046
3808.00,0.0046
3807.00,0.0046
3806.00,0.0046
3805.00,0.0046
3804.00,0.0045
3803.00,0.0045
3802.00,0.0045
3801.00,0.0045
3800.00,0.0046
3799.00,0.0046
3798.00,0.0045
3797.00,0.0045
3796.00,0.0046
3795.00,0.0047
3794.00,0.0047
3793.00,0.0047
3792.00,0.0047
3791.00,0.0048
3790.00,0.0048
3789.00,0.0048
3788.00,0.0048
3787.00,0.0047
3786.00,0.0047
3785.00,0.0047
3784.00,0.0047
3783.00,0.0047
3782.00,0.0047
3781.00,0.0047
3780.00,0.0047
3779.00,0.0047
3778.00,0.0047
3777.00,0.0047
3776.00,0.0047
3775.00,0.0047
3774.00,0.0047
3773.00,0.0047
3772.00,0.0047
3771.00,0.0047
3770.00,0.0046
3769.00,0.0046
3768.00,0.0046
3767.00,0.0046
3766.00,0.0045
3765.00,0.0045
3764.00,0.0045
3763.00,0.0045
3762.00,0.0045
3761.00,0.0045
3760.00,0.0045
3759.00,0.0045
3758.00,0.0045
3757.00,0.0045
3756.00,0.0045
3755.00,0.0045
3754.00,0.0045
3753.00,0.0044
3752.00,0.0044
3751.00,0.0044
3750.00,0.0043
3749.00,0.0043
3748.00,0.0043
3747.00,0.0043
3746.00,0.0042
3745.00,0.0042
3744.00,0.0043
3743.00,0.0043
3742.00,0.0043
3741.00,0.0043
3740.00,0.0042
3739.00,0.0042
3738.00,0.0041
3737.00,0.0041
3736.00,0.0041
3735.00,0.0041
3734.00,0.0042
3733.00,0.0042
3732.00,0.0042
3731.00,0.0042
3730.00,0.0043
3729.00,0.0044
3728.00,0.0044
3727.00,0.0044
3726.00,0.0044
3725.00,0.0044
3724.00,0.0044
3723.00,0.0044
3722.00,0.0045
3721.00,0.0045
3720.00,0.0045
3719.00,0.0045
3718.00,0.0045
3717.00,0.0045
3716.00,0.0045
3715.00,0.0044
3714.00,0.0044
3713.00,0.0043
3712.00,0.0043
3711.00,0.0043
3710.00,0.0043
3709.00,0.0044
3708.00,0.0044
3707.00,0.0044
3706.00,0.0044
3705.00,0.0044
3704.00,0.0045
3703.00,0.0045
3702.00,0.0045
3701.00,0.0046
3700.00,0.0046
3699.00,0.0045
3698.00,0.0045
3697.00,0.0045
3696.00,0.0045
3695.00,0.0045
3694.00,0.0045
3693.00,0.0044
3692.00,0.0044
3691.00,0.0044
3690.00,0.0044
3689.00,0.0043
3688.00,0.0043
3687.00,0.0043
3686.00,0.0043
3685.00,0.0043
3684.00,0.0043
3683.00,0.0043
3682.00,0.0044
3681.00,0.0044
3680.00,0.0044
3679.00,0.0043
3678.00,0.0043
3677.00,0.0042
3676.00,0.0041
3675.00,0.0041
3674.00,0.0042
3673.00,0.0041
3672.00,0.0041
3671.00,0.0041
3670.00,0.0042
3669.00,0.0043
3668.00,0.0043
3667.00,0.0043
3666.00,0.0043
3665.00,0.0044
3664.00,0.0044
3663.00,0.0045
3662.00,0.0045
3661.00,0.0046
3660.00,0.0046
3659.00,0.0046
3658.00,0.0045
3657.00,0.0045
3656.00,0.0045
3655.00,0.0045
3654.00,0.0045
3653.00,0.0044
3652.00,0.0044
3651.00,0.0044
3650.00,0.0044
3649.00,0.0044
3648.00,0.0044
3647.00,0.0044
3646.00,0.0045
3645.00,0.0045
3644.00,0.0046
3643.00,0.0047
3642.00,0.0048
3641.00,0.0048
3640.00,0.0049
3639.00,0.0049
3638.00,0.0049
3637.00,0.0049
3636.00,0.0049
3635.00,0.0050
3634.00,0.0050
3633.00,0.0050
3632.00,0.0051
3631.00,0.0050
3630.00,0.0050
3629.00,0.0050
3628.00,0.0051
3627.00,0.0051
3626.00,0.0051
3625.00,0.0052
3624.00,0.0052
3623.00,0.0053
3622.00,0.0053
3621.00,0.0054
3620.00,0.0054
3619.00,0.0054
3618.00,0.0054
3617.00,0.0054
3616.00,0.0054
3615.00,0.0054
3614.00,0.0054
3613.00,0.0055
3612.00,0.0055
3611.00,0.0056
3610.00,0.0056
3609.00,0.0057
3608.00,0.0057
3607.00,0.0058
3606.00,0.0058
3605.00,0.0059
3604.00,0.0059
3603.00,0.0059
3602.00,0.0059
3601.00,0.0060
3600.00,0.0060
3599.00,0.0060
3598.00,0.0060
3597.00,0.0060
3596.00,0.0060
3595.00,0.0061
3594.00,0.0061
3593.00,0.0062
3592.00,0.0062
3591.00,0.0062
3590.00,0.0062
3589.00,0.0062
3588.00,0.0062
3587.00,0.0062
3586.00,0.0063
3585.00,0.0063
3584.00,0.0063
3583.00,0.0064
3582.00,0.0064
3581.00,0.0065
3580.00,0.0066
3579.00,0.0066
3578.00,0.0066
3577.00,0.0066
3576.00,0.0067
3575.00,0.0067
3574.00,0.0068
3573.00,0.0068
3572.00,0.0068
3571.00,0.0068
3570.00,0.0068
3569.00,0.0068
3568.00,0.0068
3567.00,0.0068
3566.00,0.0069
3565.00,0.0069
3564.00,0.0069
3563.00,0.0069
3562.00,0.0070
3561.00,0.0070
3560.00,0.0071
3559.00,0.0072
3558.00,0.0072
3557.00,0.0073
3556.00,0.0074
3555.00,0.0074
3554.00,0.0074
3553.00,0.0074
3552.00,0.0074
3551.00,0.0074
3550.00,0.0074
3549.00,0.0074
3548.00,0.0075
3547.00,0.0075
3546.00,0.0075
3545.00,0.0076
3544.00,0.0076
3543.00,0.0077
3542.00,0.0077
3541.00,0.0077
3540.00,0.0077
3539.00,0.0078
3538.00,0.0078
3537.00,0.0079
3536.00,0.0079
3535.00,0.0080
3534.00,0.0080
3533.00,0.0080
3532.00,0.0080
3531.00,0.0080
3530.00,0.0081
3529.00,0.0081
3528.00,0.0082
3527.00,0.0082
3526.00,0.0083
3525.00,0.0083
3524.00,0.0083
3523.00,0.0083
3522.00,0.0084
3521.00,0.0084
3520.00,0.0084
3519.00,0.0084
3518.00,0.0084
3517.00,0.0084
3516.00,0.0085
3515.00,0.0085
3514.00,0.0085
3513.00,0.0085
3512.00,0.0085
3511.00,0.0086
3510.00,0.0086
3509.00,0.0087
3508.00,0.0087
3507.00,0.0087
3506.00,0.0087
3505.00,0.0087
3504.00,0.0087
3503.00,0.0087
3502.00,0.0088
3501.00,0.0088
3500.00,0.0089
3499.00,0.0089
3498.00,0.0089
3497.00,0.0089
3496.00,0.0090
3495.00,0.0090
3494.00,0.0090
3493.00,0.0090
3492.00,0.0090
3491.00,0.0091
3490.00,0.0091
3489.00,0.0091
3488.00,0.0092
3487.00,0.0092
3486.00,0.0092
3485.00,0.0092
3484.00,0.0093
3483.00,0.0093
3482.00,0.0093
3481.00,0.0093
3480.00,0.0093
3479.00,0.0093
3478.00,0.0093
3477.00,0.0093
3476.00,0.0093
3475.00,0.0093
3474.00,0.0093
3473.00,0.0094
3472.00,0.0094
3471.00,0.0094
3470.00,0.0094
3469.00,0.0094
3468.00,0.0094
3467.00,0.0094
3466.00,0.0094
3465.00,0.0093
3464.00,0.0092
3463.00,0.0092
3462.00,0.0091
3461.00,0.0090
3460.00,0.0089
3459.00,0.0088
3458.00,0.0087
3457.00,0.0086
3456.00,0.0084
3455.00,0.0083
3454.00,0.0082
3453.00,0.0082
3452.00,0.0081
3451.00,0.0081
3450.00,0.0081
3449.00,0.0082
3448.00,0.0084
3447.00,0.0086
3446.00,0.0088
3445.00,0.0091
3444.00,0.0093
3443.00,0.0096
3442.00,0.0098
3441.00,0.0100
3440.00,0.0102
3439.00,0.0104
3438.00,0.0105
3437.00,0.0107
3436.00,0.0108
3435.00,0.0109
3434.00,0.0110
3433.00,0.0110
3432.00,0.0111
3431.00,0.0112
3430.00,0.0113
3429.00,0.0114
3428.00,0.0115
3427.00,0.0115
3426.00,0.0116
3425.00,0.0116
3424.00,0.0117
3423.00,0.0117
3422.00,0.0118
3421.00,0.0118
3420.00,0.0119
3419.00,0.0119
3418.00,0.0120
3417.00,0.0121
3416.00,0.0121
3415.00,0.0122
3414.00,0.0122
3413.00,0.0123
3412.00,0.0123
3411.00,0.0124
3410.00,0.0124
3409.00,0.0125
3408.00,0.0125
3407.00,0.0126
3406.00,0.0126
3405.00,0.0127
3404.00,0.0127
3403.00,0.0128
3402.00,0.0128
3401.00,0.0129
3400.00,0.0129
3399.00,0.0130
3398.00,0.0130
3397.00,0.0131
3396.00,0.0131
3395.00,0.0131
3394.00,0.0132
3393.00,0.0132
3392.00,0.0133
3391.00,0.0133
3390.00,0.0134
3389.00,0.0135
3388.00,0.0135
3387.00,0.0136
3386.00,0.0136
3385.00,0.0137
3384.00,0.0137
3383.00,0.0138
3382.00,0.0138
3381.00,0.0139
3380.00,0.0140
3379.00,0.0140
3378.00,0.0140
3377.00,0.0141
3376.00,0.0141
3375.00,0.0142
3374.00,0.0143
3373.00,0.0144
3372.00,0.0144
3371.00,0.0145
3370.00,0.0146
3369.00,0.0146
3368.00,0.0147
3367.00,0.0148
3366.00,0.0148
3365.00,0.0149
3364.00,0.0150
3363.00,0.0151
3362.00,0.0152
3361.00,0.0152
3360.00,0.0153
3359.00,0.0154
3358.00,0.0155
3357.00,0.0155
3356.00,0.0156
3355.00,0.0157
3354.00,0.0157
3353.00,0.0158
3352.00,0.0159
3351.00,0.0159
3350.00,0.0160
3349.00,0.0161
3348.00,0.0162
3347.00,0.0163
3346.00,0.0164
3345.00,0.0165
3344.00,0.0166
3343.00,0.0166
3342.00,0.0167
3341.00,0.0168
3340.00,0.0169
3339.00,0.0170
3338.00,0.0171
3337.00,0.0172
3336.00,0.0173
3335.00,0.0174
3334.00,0.0174
3333.00,0.0175
3332.00,0.0176
3331.00,0.0177
3330.00,0.0178
3329.00,0.0179
3328.00,0.0180
3327.00,0.0181
3326.00,0.0182
3325.00,0.0184
3324.00,0.0185
3323.00,0.0186
3322.00,0.0187
3321.00,0.0188
3320.00,0.0189
3319.00,0.0190
3318.00,0.0191
3317.00,0.0192
3316.00,0.0193
3315.00,0.0195
3314.00,0.0196
3313.00,0.0197
3312.00,0.0198
3311.00,0.0199
3310.00,0.0200
3309.00,0.0201
3308.00,0.0202
3307.00,0.0203
3306.00,0.0204
3305.00,0.0205
3304.00,0.0207
3303.00,0.0208
3302.00,0.0210
3301.00,0.0211
3300.00,0.0212
3299.00,0.0213
3298.00,0.0214
3297.00,0.0215
3296.00,0.0215
3295.00,0.0216
3294.00,0.0217
3293.00,0.0218
3292.00,0.0219
3291.00,0.0221
3290.00,0.0222
3289.00,0.0223
3288.00,0.0224
3287.00,0.0225
3286.00,0.0225
3285.00,0.0226
3284.00,0.0226
3283.00,0.0227
3282.00,0.0227
3281.00,0.0228
3280.00,0.0228
3279.00,0.0228
3278.00,0.0228
3277.00,0.0228
3276.00,0.0228
3275.00,0.0228
3274.00,0.0227
3273.00,0.0227
3272.00,0.0226
3271.00,0.0226
3270.00,0.0226
3269.00,0.0226
3268.00,0.0225
3267.00,0.0225
3266.00,0.0224
3265.00,0.0224
3264.00,0.0223
3263.00,0.0222
3262.00,0.0221
3261.00,0.0220
3260.00,0.0219
3259.00,0.0218
3258.00,0.0217
3257.00,0.0216
3256.00,0.0214
3255.00,0.0213
3254.00,0.0212
3253.00,0.0211
3252.00,0.0210
3251.00,0.0209
3250.00,0.0208
3249.00,0.0207
3248.00,0.0205
3247.00,0.0204
3246.00,0.0203
3245.00,0.0202
3244.00,0.0202
3243.00,0.0201
3242.00,0.0200
3241.00,0.0199
3240.00,0.0198
3239.00,0.0196
3238.00,0.0195
3237.00,0.0194
3236.00,0.0193
3235.00,0.0192
3234.00,0.0191
3233.00,0.0190
3232.00,0.0189
3231.00,0.0189
3230.00,0.0188
3229.00,0.0188
3228.00,0.0187
3227.00,0.0186
3226.00,0.0186
3225.00,0.0185
3224.00,0.0184
3223.00,0.0184
3222.00,0.0183
3221.00,0.0182
3220.00,0.0182
3219.00,0.0181
3218.00,0.0180
3217.00,0.0180
3216.00,0.0179
3215.00,0.0178
3214.00,0.0178
3213.00,0.0177
3212.00,0.0177
3211.00,0.0176
3210.00,0.0176
3209.00,0.0175
3208.00,0.0174
3207.00,0.0173
3206.00,0.0173
3205.00,0.0172
3204.00,0.0172
3203.00,0.0171
3202.00,0.0171
3201.00,0.0170
3200.00,0.0170
3199.00,0.0169
3198.00,0.0168
3197.00,0.0167
3196.00,0.0167
3195.00,0.0166
3194.00,0.0166
3193.00,0.0165
3192.00,0.0164
3191.00,0.0164
3190.00,0.0164
3189.00,0.0163
3188.00,0.0163
3187.00,0.0162
3186.00,0.0161
3185.00,0.0161
3184.00,0.0160
3183.00,0.0160
3182.00,0.0159
3181.00,0.0158
3180.00,0.0158
3179.00,0.0157
3178.00,0.0157
3177.00,0.0156
3176.00,0.0155
3175.00,0.0154
3174.00,0.0154
3173.00,0.0153
3172.00,0.0153
3171.00,0.0153
3170.00,0.0152
3169.00,0.0151
3168.00,0.0150
3167.00,0.0150
3166.00,0.0149
3165.00,0.0149
3164.00,0.0148
3163.00,0.0148
3162.00,0.0147
3161.00,0.0146
3160.00,0.0145
3159.00,0.0145
3158.00,0.0144
3157.00,0.0144
3156.00,0.0143
3155.00,0.0142
3154.00,0.0142
3153.00,0.0141
3152.00,0.0141
3151.00,0.0140
3150.00,0.0140
3149.00,0.0140
3148.00,0.0139
3147.00,0.0139
3146.00,0.0138
3145.00,0.0137
3144.00,0.0137
3143.00,0.0136
3142.00,0.0135
3141.00,0.0135
3140.00,0.0134
3139.00,0.0134
3138.00,0.0133
3137.00,0.0133
3136.00,0.0133
3135.00,0.0132
3134.00,0.0132
3133.00,0.0131
3132.00,0.0131
3131.00,0.0130
3130.00,0.0129
3129.00,0.0129
3128.00,0.0128
3127.00,0.0128
3126.00,0.0128
3125.00,0.0127
3124.00,0.0127
3123.00,0.0126
3122.00,0.0126
3121.00,0.0125
3120.00,0.0125
3119.00,0.0125
3118.00,0.0125
3117.00,0.0125
3116.00,0.0125
3115.00,0.0125
3114.00,0.0125
3113.00,0.0125
3112.00,0.0125
3111.00,0.0125
3110.00,0.0125
3109.00,0.0124
3108.00,0.0124
3107.00,0.0124
3106.00,0.0124
3105.00,0.0125
3104.00,0.0125
3103.00,0.0125
3102.00,0.0125
3101.00,0.0125
3100.00,0.0125
3099.00,0.0125
3098.00,0.0125
3097.00,0.0125
3096.00,0.0126
3095.00,0.0126
3094.00,0.0126
3093.00,0.0126
3092.00,0.0126
3091.00,0.0126
3090.00,0.0126
3089.00,0.0126
3088.00,0.0127
3087.00,0.0127
3086.00,0.0127
3085.00,0.0127
3084.00,0.0128
3083.00,0.0128
3082.00,0.0128
3081.00,0.0128
3080.00,0.0128
3079.00,0.0128
3078.00,0.0128
3077.00,0.0128
3076.00,0.0129
3075.00,0.0130
3074.00,0.0130
3073.00,0.0130
3072.00,0.0129
3071.00,0.0129
3070.00,0.0128
3069.00,0.0128
3068.00,0.0128
3067.00,0.0128
3066.00,0.0128
3065.00,0.0129
3064.00,0.0129
3063.00,0.0129
3062.00,0.0130
3061.00,0.0130
3060.00,0.0130
3059.00,0.0130
3058.00,0.0129
3057.00,0.0129
3056.00,0.0129
3055.00,0.0129
3054.00,0.0129
3053.00,0.0128
3052.00,0.0128
3051.00,0.0128
3050.00,0.0128
3049.00,0.0128
3048.00,0.0127
3047.00,0.0127
3046.00,0.0126
3045.00,0.0126
3044.00,0.0125
3043.00,0.0125
3042.00,0.0125
3041.00,0.0125
3040.00,0.0125
3039.00,0.0125
3038.00,0.0124
3037.00,0.0123
3036.00,0.0123
3035.00,0.0122
3034.00,0.0122
3033.00,0.0121
3032.00,0.0121
3031.00,0.0121
3030.00,0.0121
3029.00,0.0121
3028.00,0.0120
3027.00,0.0120
3026.00,0.0120
3025.00,0.0119
3024.00,0.0119
3023.00,0.0118
3022.00,0.0118
3021.00,0.0117
3020.00,0.0117
3019.00,0.0116
3018.00,0.0115
3017.00,0.0114
3016.00,0.0114
3015.00,0.0113
3014.00,0.0112
3013.00,0.0111
3012.00,0.0111
3011.00,0.0110
3010.00,0.0110
3009.00,0.0109
3008.00,0.0109
3007.00,0.0107
3006.00,0.0106
3005.00,0.0105
3004.00,0.0104
3003.00,0.0103
3002.00,0.0102
3001.00,0.0101
3000.00,0.0100
2999.00,0.0099
2998.00,0.0099
2997.00,0.0098
2996.00,0.0098
2995.00,0.0098
2994.00,0.0097
2993.00,0.0097
2992.00,0.0097
2991.00,0.0097
2990.00,0.0098
2989.00,0.0098
2988.00,0.0098
2987.00,0.0098
2986.00,0.0098
2985.00,0.0096
2984.00,0.0094
2983.00,0.0093
2982.00,0.0092
2981.00,0.0092
2980.00,0.0093
2979.00,0.0096
2978.00,0.0098
2977.00,0.0100
2976.00,0.0102
2975.00,0.0103
2974.00,0.0104
2973.00,0.0105
2972.00,0.0106
2971.00,0.0107
2970.00,0.0109
2969.00,0.0111
2968.00,0.0114
2967.00,0.0115
2966.00,0.0117
2965.00,0.0118
2964.00,0.0119
2963.00,0.0120
2962.00,0.0121
2961.00,0.0122
2960.00,0.0122
2959.00,0.0121
2958.00,0.0120
2957.00,0.0120
2956.00,0.0119
2955.00,0.0118
2954.00,0.0117
2953.00,0.0117
2952.00,0.0116
2951.00,0.0116
2950.00,0.0116
2949.00,0.0116
2948.00,0.0117
2947.00,0.0118
2946.00,0.0120
2945.00,0.0121
2944.00,0.0123
2943.00,0.0124
2942.00,0.0125
2941.00,0.0125
2940.00,0.0126
2939.00,0.0127
2938.00,0.0127
2937.00,0.0128
2936.00,0.0128
2935.00,0.0128
2934.00,0.0128
2933.00,0.0128
2932.00,0.0128
2931.00,0.0128
2930.00,0.0127
2929.00,0.0126
2928.00,0.0125
2927.00,0.0124
2926.00,0.0124
2925.00,0.0123
2924.00,0.0122
2923.00,0.0122
2922.00,0.0121
2921.00,0.0121
2920.00,0.0120
2919.00,0.0119
2918.00,0.0118
2917.00,0.0117
2916.00,0.0116
2915.00,0.0115
2914.00,0.0113
2913.00,0.0112
2912.00,0.0111
2911.00,0.0110
2910.00,0.0110
2909.00,0.0109
2908.00,0.0109
2907.00,0.0109
2906.00,0.0108
2905.00,0.0108
2904.00,0.0108
2903.00,0.0108
2902.00,0.0108
2901.00,0.0108
2900.00,0.0108
2899.00,0.0107
2898.00,0.0107
2897.00,0.0106
2896.00,0.0105
2895.00,0.0105
2894.00,0.0104
2893.00,0.0104
2892.00,0.0104
2891.00,0.0103
2890.00,0.0103
2889.00,0.0103
2888.00,0.0103
2887.00,0.0103
2886.00,0.0103
2885.00,0.0103
2884.00,0.0103
2883.00,0.0103
2882.00,0.0104
2881.00,0.0105
2880.00,0.0106
2879.00,0.0107
2878.00,0.0108
2877.00,0.0108
2876.00,0.0108
2875.00,0.0108
2874.00,0.0108
2873.00,0.0108
2872.00,0.0107
2871.00,0.0106
2870.00,0.0106
2869.00,0.0105
2868.00,0.0105
2867.00,0.0104
2866.00,0.0104
2865.00,0.0104
2864.00,0.0104
2863.00,0.0103
2862.00,0.0103
2861.00,0.0102
2860.00,0.0102
2859.00,0.0101
2858.00,0.0100
2857.00,0.0100
2856.00,0.0100
2855.00,0.0100
2854.00,0.0101
2853.00,0.0101
2852.00,0.0102
2851.00,0.0102
2850.00,0.0102
2849.00,0.0101
2848.00,0.0101
2847.00,0.0100
2846.00,0.0099
2845.00,0.0099
2844.00,0.0098
2843.00,0.0097
2842.00,0.0096
2841.00,0.0095
2840.00,0.0095
2839.00,0.0094
2838.00,0.0094
2837.00,0.0093
2836.00,0.0093
2835.00,0.0092
2834.00,0.0092
2833.00,0.0091
2832.00,0.0091
2831.00,0.0091
2830.00,0.0091
2829.00,0.0091
2828.00,0.0092
2827.00,0.0092
2826.00,0.0092
2825.00,0.0093
2824.00,0.0093
2823.00,0.0094
2822.00,0.0094
2821.00,0.0094
2820.00,0.0094
2819.00,0.0094
2818.00,0.0094
2817.00,0.0094
2816.00,0.0094
2815.00,0.0094
2814.00,0.0094
2813.00,0.0094
2812.00,0.0093
2811.00,0.0093
2810.00,0.0093
2809.00,0.0093
2808.00,0.0093
2807.00,0.0093
2806.00,0.0093
2805.00,0.0093
2804.00,0.0093
2803.00,0.0093
2802.00,0.0093
2801.00,0.0092
2800.00,0.0092
2799.00,0.0092
2798.00,0.0092
2797.00,0.0092
2796.00,0.0092
2795.00,0.0091
2794.00,0.0091
2793.00,0.0091
2792.00,0.0091
2791.00,0.0090
2790.00,0.0090
2789.00,0.0090
2788.00,0.0090
2787.00,0.0090
2786.00,0.0090
2785.00,0.0090
2784.00,0.0089
2783.00,0.0089
2782.00,0.0089
2781.00,0.0089
2780.00,0.0089
2779.00,0.0089
2778.00,0.0088
2777.00,0.0088
2776.00,0.0088
2775.00,0.0087
2774.00,0.0087
2773.00,0.0087
2772.00,0.0087
2771.00,0.0086
2770.00,0.0086
2769.00,0.0086
2768.00,0.0086
2767.00,0.0085
2766.00,0.0085
2765.00,0.0085
2764.00,0.0085
2763.00,0.0085
2762.00,0.0084
2761.00,0.0084
2760.00,0.0084
2759.00,0.0084
2758.00,0.0084
2757.00,0.0083
2756.00,0.0083
2755.00,0.0083
2754.00,0.0083
2753.00,0.0082
2752.00,0.0082
2751.00,0.0082
2750.00,0.0082
2749.00,0.0082
2748.00,0.0082
2747.00,0.0082
2746.00,0.0081
2745.00,0.0081
2744.00,0.0081
2743.00,0.0081
2742.00,0.0081
2741.00,0.0081
2740.00,0.0081
2739.00,0.0080
2738.00,0.0080
2737.00,0.0080
2736.00,0.0080
2735.00,0.0080
2734.00,0.0080
2733.00,0.0080
2732.00,0.0079
2731.00,0.0079
2730.00,0.0079
2729.00,0.0079
2728.00,0.0078
2727.00,0.0078
2726.00,0.0078
2725.00,0.0078
2724.00,0.0078
2723.00,0.0077
2722.00,0.0077
2721.00,0.0077
2720.00,0.0077
2719.00,0.0077
2718.00,0.0077
2717.00,0.0076
2716.00,0.0076
2715.00,0.0076
2714.00,0.0076
2713.00,0.0076
2712.00,0.0076
2711.00,0.0075
2710.00,0.0075
2709.00,0.0075
2708.00,0.0075
2707.00,0.0075
2706.00,0.0075
2705.00,0.0074
2704.00,0.0074
2703.00,0.0074
2702.00,0.0074
2701.00,0.0074
2700.00,0.0074
2699.00,0.0074
2698.00,0.0073
2697.00,0.0073
2696.00,0.0073
2695.00,0.0073
2694.00,0.0073
2693.00,0.0073
2692.00,0.0073
2691.00,0.0073
2690.00,0.0073
2689.00,0.0073
2688.00,0.0073
2687.00,0.0073
2686.00,0.0072
2685.00,0.0072
2684.00,0.0072
2683.00,0.0072
2682.00,0.0072
2681.00,0.0072
2680.00,0.0072
2679.00,0.0072
2678.00,0.0072
2677.00,0.0071
2676.00,0.0071
2675.00,0.0071
2674.00,0.0071
2673.00,0.0071
2672.00,0.0071
2671.00,0.0071
2670.00,0.0071
2669.00,0.0071
2668.00,0.0071
2667.00,0.0072
2666.00,0.0072
2665.00,0.0072
2664.00,0.0073
2663.00,0.0073
2662.00,0.0073
2661.00,0.0074
2660.00,0.0074
2659.00,0.0074
2658.00,0.0074
2657.00,0.0074
2656.00,0.0074
2655.00,0.0074
2654.00,0.0074
2653.00,0.0074
2652.00,0.0074
2651.00,0.0074
2650.00,0.0074
2649.00,0.0074
2648.00,0.0074
2647.00,0.0074
2646.00,0.0074
2645.00,0.0074
2644.00,0.0074
2643.00,0.0074
2642.00,0.0074
2641.00,0.0074
2640.00,0.0074
2639.00,0.0074
2638.00,0.0074
2637.00,0.0074
2636.00,0.0074
2635.00,0.0074
2634.00,0.0074
2633.00,0.0074
2632.00,0.0074
2631.00,0.0074
2630.00,0.0074
2629.00,0.0074
2628.00,0.0073
2627.00,0.0073
2626.00,0.0073
2625.00,0.0073
2624.00,0.0073
2623.00,0.0073
2622.00,0.0072
2621.00,0.0072
2620.00,0.0072
2619.00,0.0072
2618.00,0.0072
2617.00,0.0072
2616.00,0.0072
2615.00,0.0071
2614.00,0.0071
2613.00,0.0071
2612.00,0.0071
2611.00,0.0071
2610.00,0.0071
2609.00,0.0071
2608.00,0.0071
2607.00,0.0071
2606.00,0.0071
2605.00,0.0071
2604.00,0.0071
2603.00,0.0070
2602.00,0.0070
2601.00,0.0070
2600.00,0.0070
2599.00,0.0069
2598.00,0.0069
2597.00,0.0069
2596.00,0.0069
2595.00,0.0069
2594.00,0.0069
2593.00,0.0069
2592.00,0.0069
2591.00,0.0069
2590.00,0.0069
2589.00,0.0069
2588.00,0.0068
2587.00,0.0068
2586.00,0.0068
2585.00,0.0068
2584.00,0.0068
2583.00,0.0068
2582.00,0.0068
2581.00,0.0068
2580.00,0.0068
2579.00,0.0068
2578.00,0.0068
2577.00,0.0068
2576.00,0.0068
2575.00,0.0068
2574.00,0.0068
2573.00,0.0067
2572.00,0.0067
2571.00,0.0066
2570.00,0.0066
2569.00,0.0066
2568.00,0.0067
2567.00,0.0067
2566.00,0.0066
2565.00,0.0066
2564.00,0.0066
2563.00,0.0065
2562.00,0.0065
2561.00,0.0065
2560.00,0.0064
2559.00,0.0064
2558.00,0.0064
2557.00,0.0064
2556.00,0.0064
2555.00,0.0064
2554.00,0.0064
2553.00,0.0064
2552.00,0.0064
2551.00,0.0064
2550.00,0.0064
2549.00,0.0064
2548.00,0.0064
2547.00,0.0064
2546.00,0.0064
2545.00,0.0064
2544.00,0.0063
2543.00,0.0063
2542.00,0.0063
2541.00,0.0063
2540.00,0.0063
2539.00,0.0063
2538.00,0.0063
2537.00,0.0063
2536.00,0.0063
2535.00,0.0064
2534.00,0.0064
2533.00,0.0064
2532.00,0.0064
2531.00,0.0063
2530.00,0.0063
2529.00,0.0062
2528.00,0.0063
2527.00,0.0063
2526.00,0.0063
2525.00,0.0063
2524.00,0.0063
2523.00,0.0062
2522.00,0.0062
2521.00,0.0062
2520.00,0.0062
2519.00,0.0062
2518.00,0.0062
2517.00,0.0062
2516.00,0.0062
2515.00,0.0062
2514.00,0.0062
2513.00,0.0062
2512.00,0.0062
2511.00,0.0062
2510.00,0.0062
2509.00,0.0062
2508.00,0.0062
2507.00,0.0062
2506.00,0.0061
2505.00,0.0061
2504.00,0.0061
2503.00,0.0061
2502.00,0.0061
2501.00,0.0062
2500.00,0.0062
2499.00,0.0062
2498.00,0.0062
2497.00,0.0062
2496.00,0.0062
2495.00,0.0061
2494.00,0.0061
2493.00,0.0061
2492.00,0.0061
2491.00,0.0060
2490.00,0.0060
2489.00,0.0060
2488.00,0.0061
2487.00,0.0061
2486.00,0.0061
2485.00,0.0060
2484.00,0.0060
2483.00,0.0060
2482.00,0.0060
2481.00,0.0060
2480.00,0.0060
2479.00,0.0060
2478.00,0.0060
2477.00,0.0059
2476.00,0.0059
2475.00,0.0059
2474.00,0.0059
2473.00,0.0059
2472.00,0.0059
2471.00,0.0060
2470.00,0.0060
2469.00,0.0060
2468.00,0.0060
2467.00,0.0060
2466.00,0.0060
2465.00,0.0059
2464.00,0.0059
2463.00,0.0059
2462.00,0.0059
2461.00,0.0059
2460.00,0.0059
2459.00,0.0059
2458.00,0.0059
2457.00,0.0059
2456.00,0.0059
2455.00,0.0059
2454.00,0.0059
2453.00,0.0059
2452.00,0.0059
2451.00,0.0058
2450.00,0.0058
2449.00,0.0058
2448.00,0.0057
2447.00,0.0057
2446.00,0.0057
2445.00,0.0057
2444.00,0.0057
2443.00,0.0057
2442.00,0.0057
2441.00,0.0056
2440.00,0.0056
2439.00,0.0056
2438.00,0.0056
2437.00,0.0056
2436.00,0.0056
2435.00,0.0056
2434.00,0.0056
2433.00,0.0056
2432.00,0.0056
2431.00,0.0056
2430.00,0.0056
2429.00,0.0056
2428.00,0.0056
2427.00,0.0055
2426.00,0.0055
2425.00,0.0054
2424.00,0.0054
2423.00,0.0054
2422.00,0.0054
2421.00,0.0054
2420.00,0.0054
2419.00,0.0054
2418.00,0.0054
2417.00,0.0055
2416.00,0.0055
2415.00,0.0054
2414.00,0.0054
2413.00,0.0054
2412.00,0.0054
2411.00,0.0054
2410.00,0.0054
2409.00,0.0054
2408.00,0.0053
2407.00,0.0053
2406.00,0.0053
2405.00,0.0053
2404.00,0.0052
2403.00,0.0052
2402.00,0.0052
2401.00,0.0052
2400.00,0.0053
2399.00,0.0053
2398.00,0.0053
2397.00,0.0053
2396.00,0.0053
2395.00,0.0053
2394.00,0.0053
2393.00,0.0053
2392.00,0.0053
2391.00,0.0053
2390.00,0.0053
2389.00,0.0052
2388.00,0.0052
2387.00,0.0051
2386.00,0.0051
2385.00,0.0051
2384.00,0.0051
2383.00,0.0051
2382.00,0.0051
2381.00,0.0050
2380.00,0.0050
2379.00,0.0050
2378.00,0.0050
2377.00,0.0050
2376.00,0.0050
2375.00,0.0050
2374.00,0.0050
2373.00,0.0050
2372.00,0.0050
2371.00,0.0050
2370.00,0.0050
2369.00,0.0050
2368.00,0.0050
2367.00,0.0050
2366.00,0.0051
2365.00,0.0051
2364.00,0.0051
2363.00,0.0051
2362.00,0.0051
2361.00,0.0050
2360.00,0.0050
2359.00,0.0050
2358.00,0.0050
2357.00,0.0051
2356.00,0.0051
2355.00,0.0051
2354.00,0.0051
2353.00,0.0051
2352.00,0.0051
2351.00,0.0051
2350.00,0.0051
2349.00,0.0052
2348.00,0.0052
2347.00,0.0053
2346.00,0.0054
2345.00,0.0054
2344.00,0.0053
2343.00,0.0052
2342.00,0.0052
2341.00,0.0052
2340.00,0.0053
2339.00,0.0053
2338.00,0.0054
2337.00,0.0053
2336.00,0.0053
2335.00,0.0053
2334.00,0.0053
2333.00,0.0053
2332.00,0.0053
2331.00,0.0053
2330.00,0.0053
2329.00,0.0055
2328.00,0.0057
2327.00,0.0060
2326.00,0.0063
2325.00,0.0064
2324.00,0.0063
2323.00,0.0062
2322.00,0.0060
2321.00,0.0059
2320.00,0.0058
2319.00,0.0057
2318.00,0.0056
2317.00,0.0056
2316.00,0.0056
2315.00,0.0055
2314.00,0.0055
2313.00,0.0054
2312.00,0.0054
2311.00,0.0053
2310.00,0.0053
2309.00,0.0054
2308.00,0.0054
2307.00,0.0054
2306.00,0.0055
2305.00,0.0056
2304.00,0.0056
2303.00,0.0057
2302.00,0.0057
2301.00,0.0057
2300.00,0.0058
2299.00,0.0058
2298.00,0.0058
2297.00,0.0058
2296.00,0.0058
2295.00,0.0059
2294.00,0.0059
2293.00,0.0060
2292.00,0.0061
2291.00,0.0061
2290.00,0.0062
2289.00,0.0062
2288.00,0.0063
2287.00,0.0063
2286.00,0.0063
2285.00,0.0063
2284.00,0.0063
2283.00,0.0062
2282.00,0.0061
2281.00,0.0061
2280.00,0.0061
2279.00,0.0061
2278.00,0.0060
2277.00,0.0060
2276.00,0.0059
2275.00,0.0059
2274.00,0.0059
2273.00,0.0059
2272.00,0.0060
2271.00,0.0059
2270.00,0.0059
2269.00,0.0058
2268.00,0.0057
2267.00,0.0057
2266.00,0.0056
2265.00,0.0056
2264.00,0.0056
2263.00,0.0056
2262.00,0.0056
2261.00,0.0056
2260.00,0.0057
2259.00,0.0057
2258.00,0.0057
2257.00,0.0057
2256.00,0.0056
2255.00,0.0055
2254.00,0.0055
2253.00,0.0055
2252.00,0.0055
2251.00,0.0055
2250.00,0.0055
2249.00,0.0055
2248.00,0.0055
2247.00,0.0056
2246.00,0.0056
2245.00,0.0056
2244.00,0.0056
2243.00,0.0057
2242.00,0.0057
2241.00,0.0057
2240.00,0.0056
2239.00,0.0055
2238.00,0.0055
2237.00,0.0055
2236.00,0.0056
2235.00,0.0056
2234.00,0.0056
2233.00,0.0056
2232.00,0.0056
2231.00,0.0056
2230.00,0.0056
2229.00,0.0056
2228.00,0.0056
2227.00,0.0056
2226.00,0.0057
2225.00,0.0057
2224.00,0.0057
2223.00,0.0056
2222.00,0.0055
2221.00,0.0054
2220.00,0.0054
2219.00,0.0053
2218.00,0.0053
2217.00,0.0052
2216.00,0.0052
2215.00,0.0052
2214.00,0.0053
2213.00,0.0054
2212.00,0.0054
2211.00,0.0055
2210.00,0.0054
2209.00,0.0054
2208.00,0.0055
2207.00,0.0055
2206.00,0.0056
2205.00,0.0056
2204.00,0.0056
2203.00,0.0056
2202.00,0.0055
2201.00,0.0055
2200.00,0.0055
2199.00,0.0055
2198.00,0.0055
2197.00,0.0054
2196.00,0.0055
2195.00,0.0055
2194.00,0.0056
2193.00,0.0056
2192.00,0.0056
2191.00,0.0055
2190.00,0.0055
2189.00,0.0056
2188.00,0.0057
2187.00,0.0058
2186.00,0.0057
2185.00,0.0056
2184.00,0.0055
2183.00,0.0053
2182.00,0.0051
2181.00,0.0051
2180.00,0.0053
2179.00,0.0055
2178.00,0.0054
2177.00,0.0052
2176.00,0.0050
2175.00,0.0050
2174.00,0.0051
2173.00,0.0053
2172.00,0.0056
2171.00,0.0058
2170.00,0.0060
2169.00,0.0061
2168.00,0.0061
2167.00,0.0061
2166.00,0.0060
2165.00,0.0061
2164.00,0.0063
2163.00,0.0063
2162.00,0.0059
2161.00,0.0051
2160.00,0.0040
2159.00,0.0031
2158.00,0.0026
2157.00,0.0026
2156.00,0.0029
2155.00,0.0031
2154.00,0.0033
2153.00,0.0035
2152.00,0.0036
2151.00,0.0037
2150.00,0.0038
2149.00,0.0040
2148.00,0.0041
2147.00,0.0041
2146.00,0.0040
2145.00,0.0039
2144.00,0.0039
2143.00,0.0040
2142.00,0.0041
2141.00,0.0042
2140.00,0.0042
2139.00,0.0041
2138.00,0.0040
2137.00,0.0039
2136.00,0.0037
2135.00,0.0036
2134.00,0.0036
2133.00,0.0037
2132.00,0.0039
2131.00,0.0040
2130.00,0.0041
2129.00,0.0041
2128.00,0.0042
2127.00,0.0043
2126.00,0.0044
2125.00,0.0045
2124.00,0.0046
2123.00,0.0047
2122.00,0.0047
2121.00,0.0048
2120.00,0.0049
2119.00,0.0050
2118.00,0.0051
2117.00,0.0052
2116.00,0.0052
2115.00,0.0053
2114.00,0.0053
2113.00,0.0054
2112.00,0.0054
2111.00,0.0055
2110.00,0.0054
2109.00,0.0054
2108.00,0.0053
2107.00,0.0053
2106.00,0.0053
2105.00,0.0053
2104.00,0.0053
2103.00,0.0054
2102.00,0.0054
2101.00,0.0053
2100.00,0.0053
2099.00,0.0053
2098.00,0.0051
2097.00,0.0050
2096.00,0.0048
2095.00,0.0048
2094.00,0.0048
2093.00,0.0048
2092.00,0.0049
2091.00,0.0050
2090.00,0.0050
2089.00,0.0051
2088.00,0.0051
2087.00,0.0051
2086.00,0.0051
2085.00,0.0052
2084.00,0.0053
2083.00,0.0054
2082.00,0.0055
2081.00,0.0056
2080.00,0.0057
2079.00,0.0057
2078.00,0.0057
2077.00,0.0056
2076.00,0.0056
2075.00,0.0056
2074.00,0.0056
2073.00,0.0056
2072.00,0.0055
2071.00,0.0054
2070.00,0.0053
2069.00,0.0052
2068.00,0.0053
2067.00,0.0052
2066.00,0.0052
2065.00,0.0052
2064.00,0.0052
2063.00,0.0053
2062.00,0.0052
2061.00,0.0052
2060.00,0.0052
2059.00,0.0052
2058.00,0.0052
2057.00,0.0052
2056.00,0.0053
2055.00,0.0053
2054.00,0.0055
2053.00,0.0057
2052.00,0.0059
2051.00,0.0059
2050.00,0.0056
2049.00,0.0052
2048.00,0.0050
2047.00,0.0049
2046.00,0.0049
2045.00,0.0050
2044.00,0.0051
2043.00,0.0052
2042.00,0.0052
2041.00,0.0052
2040.00,0.0054
2039.00,0.0055
2038.00,0.0055
2037.00,0.0055
2036.00,0.0053
2035.00,0.0052
2034.00,0.0051
2033.00,0.0051
2032.00,0.0051
2031.00,0.0051
2030.00,0.0051
2029.00,0.0050
2028.00,0.0049
2027.00,0.0047
2026.00,0.0046
2025.00,0.0044
2024.00,0.0044
2023.00,0.0043
2022.00,0.0044
2021.00,0.0045
2020.00,0.0046
2019.00,0.0046
2018.00,0.0046
2017.00,0.0046
2016.00,0.0045
2015.00,0.0045
2014.00,0.0045
2013.00,0.0044
2012.00,0.0044
2011.00,0.0044
2010.00,0.0044
2009.00,0.0043
2008.00,0.0042
2007.00,0.0040
2006.00,0.0039
2005.00,0.0040
2004.00,0.0041
2003.00,0.0042
2002.00,0.0042
2001.00,0.0043
2000.00,0.0045
1999.00,0.0047
1998.00,0.0048
1997.00,0.0049
1996.00,0.0050
1995.00,0.0050
1994.00,0.0050
1993.00,0.0050
1992.00,0.0050
1991.00,0.0050
1990.00,0.0049
1989.00,0.0049
1988.00,0.0050
1987.00,0.0051
1986.00,0.0053
1985.00,0.0054
1984.00,0.0056
1983.00,0.0058
1982.00,0.0059
1981.00,0.0059
1980.00,0.0057
1979.00,0.0053
1978.00,0.0047
1977.00,0.0043
1976.00,0.0042
1975.00,0.0041
1974.00,0.0040
1973.00,0.0040
1972.00,0.0040
1971.00,0.0041
1970.00,0.0042
1969.00,0.0042
1968.00,0.0042
1967.00,0.0041
1966.00,0.0040
1965.00,0.0040
1964.00,0.0041
1963.00,0.0042
1962.00,0.0042
1961.00,0.0042
1960.00,0.0041
1959.00,0.0040
1958.00,0.0040
1957.00,0.0040
1956.00,0.0041
1955.00,0.0042
1954.00,0.0042
1953.00,0.0043
1952.00,0.0043
1951.00,0.0043
1950.00,0.0042
1949.00,0.0042
1948.00,0.0043
1947.00,0.0043
1946.00,0.0044
1945.00,0.0043
1944.00,0.0043
1943.00,0.0042
1942.00,0.0042
1941.00,0.0041
1940.00,0.0042
1939.00,0.0042
1938.00,0.0044
1937.00,0.0045
1936.00,0.0045
1935.00,0.0045
1934.00,0.0044
1933.00,0.0044
1932.00,0.0043
1931.00,0.0043
1930.00,0.0043
1929.00,0.0043
1928.00,0.0043
1927.00,0.0044
1926.00,0.0044
1925.00,0.0044
1924.00,0.0044
1923.00,0.0044
1922.00,0.0043
1921.00,0.0044
1920.00,0.0044
1919.00,0.0045
1918.00,0.0044
1917.00,0.0044
1916.00,0.0044
1915.00,0.0044
1914.00,0.0045
1913.00,0.0045
1912.00,0.0045
1911.00,0.0045
1910.00,0.0044
1909.00,0.0045
1908.00,0.0045
1907.00,0.0045
1906.00,0.0045
1905.00,0.0045
1904.00,0.0045
1903.00,0.0045
1902.00,0.0045
1901.00,0.0045
1900.00,0.0046
1899.00,0.0046
1898.00,0.0046
1897.00,0.0046
1896.00,0.0047
1895.00,0.0047
1894.00,0.0046
1893.00,0.0046
1892.00,0.0046
1891.00,0.0046
1890.00,0.0046
1889.00,0.0045
1888.00,0.0045
1887.00,0.0045
1886.00,0.0045
1885.00,0.0046
1884.00,0.0046
1883.00,0.0046
1882.00,0.0046
1881.00,0.0045
1880.00,0.0045
1879.00,0.0045
1878.00,0.0045
1877.00,0.0045
1876.00,0.0045
1875.00,0.0045
1874.00,0.0045
1873.00,0.0045
1872.00,0.0046
1871.00,0.0046
1870.00,0.0046
1869.00,0.0045
1868.00,0.0045
1867.00,0.0044
1866.00,0.0044
1865.00,0.0044
1864.00,0.0044
1863.00,0.0045
1862.00,0.0045
1861.00,0.0045
1860.00,0.0044
1859.00,0.0044
1858.00,0.0044
1857.00,0.0044
1856.00,0.0044
1855.00,0.0044
1854.00,0.0044
1853.00,0.0044
1852.00,0.0044
1851.00,0.0044
1850.00,0.0044
1849.00,0.0044
1848.00,0.0045
1847.00,0.0046
1846.00,0.0046
1845.00,0.0045
1844.00,0.0043
1843.00,0.0041
1842.00,0.0041
1841.00,0.0042
1840.00,0.0043
1839.00,0.0044
1838.00,0.0044
1837.00,0.0044
1836.00,0.0044
1835.00,0.0043
1834.00,0.0043
1833.00,0.0044
1832.00,0.0045
1831.00,0.0046
1830.00,0.0045
1829.00,0.0045
1828.00,0.0044
1827.00,0.0044
1826.00,0.0044
1825.00,0.0044
1824.00,0.0043
1823.00,0.0043
1822.00,0.0043
1821.00,0.0043
1820.00,0.0043
1819.00,0.0042
1818.00,0.0041
1817.00,0.0040
1816.00,0.0040
1815.00,0.0041
1814.00,0.0042
1813.00,0.0043
1812.00,0.0044
1811.00,0.0044
1810.00,0.0044
1809.00,0.0044
1808.00,0.0044
1807.00,0.0044
1806.00,0.0044
1805.00,0.0045
1804.00,0.0045
1803.00,0.0045
1802.00,0.0045
1801.00,0.0044
1800.00,0.0044
1799.00,0.0044
1798.00,0.0043
1797.00,0.0044
1796.00,0.0045
1795.00,0.0046
1794.00,0.0046
1793.00,0.0045
1792.00,0.0043
1791.00,0.0041
1790.00,0.0041
1789.00,0.0041
1788.00,0.0043
1787.00,0.0043
1786.00,0.0043
1785.00,0.0043
1784.00,0.0042
1783.00,0.0042
1782.00,0.0043
1781.00,0.0043
1780.00,0.0043
1779.00,0.0043
1778.00,0.0043
1777.00,0.0044
1776.00,0.0045
1775.00,0.0047
1774.00,0.0047
1773.00,0.0047
1772.00,0.0045
1771.00,0.0044
1770.00,0.0043
1769.00,0.0042
1768.00,0.0042
1767.00,0.0043
1766.00,0.0044
1765.00,0.0046
1764.00,0.0048
1763.00,0.0049
1762.00,0.0049
1761.00,0.0048
1760.00,0.0049
1759.00,0.0051
1758.00,0.0052
1757.00,0.0053
1756.00,0.0053
1755.00,0.0055
1754.00,0.0057
1753.00,0.0059
1752.00,0.0060
1751.00,0.0061
1750.00,0.0061
1749.00,0.0063
1748.00,0.0065
1747.00,0.0068
1746.00,0.0071
1745.00,0.0074
1744.00,0.0077
1743.00,0.0080
1742.00,0.0083
1741.00,0.0087
1740.00,0.0089
1739.00,0.0092
1738.00,0.0095
1737.00,0.0100
1736.00,0.0104
1735.00,0.0107
1734.00,0.0108
1733.00,0.0108
1732.00,0.0111
1731.00,0.0114
1730.00,0.0117
1729.00,0.0119
1728.00,0.0121
1727.00,0.0123
1726.00,0.0124
1725.00,0.0125
1724.00,0.0125
1723.00,0.0126
1722.00,0.0127
1721.00,0.0128
1720.00,0.0130
1719.00,0.0130
1718.00,0.0130
1717.00,0.0128
1716.00,0.0126
1715.00,0.0125
1714.00,0.0124
1713.00,0.0124
1712.00,0.0125
1711.00,0.0126
1710.00,0.0127
1709.00,0.0129
1708.00,0.0131
1707.00,0.0133
1706.00,0.0136
1705.00,0.0139
1704.00,0.0143
1703.00,0.0148
1702.00,0.0152
1701.00,0.0156
1700.00,0.0162
1699.00,0.0168
1698.00,0.0175
1697.00,0.0182
1696.00,0.0187
1695.00,0.0190
1694.00,0.0192
1693.00,0.0196
1692.00,0.0201
1691.00,0.0207
1690.00,0.0212
1689.00,0.0218
1688.00,0.0224
1687.00,0.0231
1686.00,0.0236
1685.00,0.0241
1684.00,0.0248
1683.00,0.0253
1682.00,0.0257
1681.00,0.0263
1680.00,0.0270
1679.00,0.0276
1678.00,0.0281
1677.00,0.0287
1676.00,0.0292
1675.00,0.0299
1674.00,0.0306
1673.00,0.0312
1672.00,0.0319
1671.00,0.0326
1670.00,0.0333
1669.00,0.0341
1668.00,0.0348
1667.00,0.0354
1666.00,0.0360
1665.00,0.0367
1664.00,0.0374
1663.00,0.0382
1662.00,0.0391
1661.00,0.0399
1660.00,0.0406
1659.00,0.0413
1658.00,0.0420
1657.00,0.0427
1656.00,0.0432
1655.00,0.0437
1654.00,0.0445
1653.00,0.0456
1652.00,0.0463
1651.00,0.0465
1650.00,0.0466
1649.00,0.0466
1648.00,0.0468
1647.00,0.0470
1646.00,0.0472
1645.00,0.0471
1644.00,0.0469
1643.00,0.0467
1642.00,0.0465
1641.00,0.0464
1640.00,0.0463
1639.00,0.0462
1638.00,0.0462
1637.00,0.0462
1636.00,0.0466
1635.00,0.0470
1634.00,0.0473
1633.00,0.0473
1632.00,0.0474
1631.00,0.0474
1630.00,0.0476
1629.00,0.0479
1628.00,0.0484
1627.00,0.0488
1626.00,0.0491
1625.00,0.0493
1624.00,0.0495
1623.00,0.0497
1622.00,0.0497
1621.00,0.0494
1620.00,0.0490
1619.00,0.0484
1618.00,0.0478
1617.00,0.0472
1616.00,0.0465
1615.00,0.0456
1614.00,0.0447
1613.00,0.0437
1612.00,0.0426
1611.00,0.0415
1610.00,0.0404
1609.00,0.0394
1608.00,0.0383
1607.00,0.0373
1606.00,0.0362
1605.00,0.0353
1604.00,0.0343
1603.00,0.0334
1602.00,0.0325
1601.00,0.0317
1600.00,0.0309
1599.00,0.0301
1598.00,0.0294
1597.00,0.0288
1596.00,0.0281
1595.00,0.0275
1594.00,0.0268
1593.00,0.0262
1592.00,0.0255
1591.00,0.0248
1590.00,0.0242
1589.00,0.0235
1588.00,0.0229
1587.00,0.0223
1586.00,0.0218
1585.00,0.0213
1584.00,0.0208
1583.00,0.0205
1582.00,0.0202
1581.00,0.0200
1580.00,0.0198
1579.00,0.0196
1578.00,0.0196
1577.00,0.0197
1576.00,0.0198
1575.00,0.0199
1574.00,0.0199
1573.00,0.0200
1572.00,0.0200
1571.00,0.0202
1570.00,0.0207
1569.00,0.0213
1568.00,0.0218
1567.00,0.0222
1566.00,0.0228
1565.00,0.0235
1564.00,0.0241
1563.00,0.0247
1562.00,0.0252
1561.00,0.0256
1560.00,0.0262
1559.00,0.0280
1558.00,0.0296
1557.00,0.0304
1556.00,0.0311
1555.00,0.0318
1554.00,0.0327
1553.00,0.0335
1552.00,0.0343
1551.00,0.0350
1550.00,0.0359
1549.00,0.0368
1548.00,0.0376
1547.00,0.0382
1546.00,0.0387
1545.00,0.0394
1544.00,0.0401
1543.00,0.0408
1542.00,0.0415
1541.00,0.0423
1540.00,0.0432
1539.00,0.0437
1538.00,0.0439
1537.00,0.0440
1536.00,0.0440
1535.00,0.0441
1534.00,0.0444
1533.00,0.0448
1532.00,0.0451
1531.00,0.0452
1530.00,0.0452
1529.00,0.0452
1528.00,0.0453
1527.00,0.0453
1526.00,0.0454
1525.00,0.0455
1524.00,0.0455
1523.00,0.0456
1522.00,0.0458
1521.00,0.0461
1520.00,0.0464
1519.00,0.0466
1518.00,0.0468
1517.00,0.0471
1516.00,0.0473
1515.00,0.0474
1514.00,0.0472
1513.00,0.0468
1512.00,0.0463
1511.00,0.0458
1510.00,0.0453
1509.00,0.0448
1508.00,0.0443
1507.00,0.0438
1506.00,0.0430
1505.00,0.0421
1504.00,0.0414
1503.00,0.0407
1502.00,0.0400
1501.00,0.0392
1500.00,0.0385
1499.00,0.0378
1498.00,0.0371
1497.00,0.0363
1496.00,0.0354
1495.00,0.0346
1494.00,0.0338
1493.00,0.0330
1492.00,0.0322
1491.00,0.0314
1490.00,0.0306
1489.00,0.0299
1488.00,0.0293
1487.00,0.0286
1486.00,0.0280
1485.00,0.0274
1484.00,0.0269
1483.00,0.0264
1482.00,0.0259
1481.00,0.0255
1480.00,0.0252
1479.00,0.0248
1478.00,0.0245
1477.00,0.0243
1476.00,0.0242
1475.00,0.0242
1474.00,0.0242
1473.00,0.0244
1472.00,0.0245
1471.00,0.0247
1470.00,0.0248
1469.00,0.0249
1468.00,0.0249
1467.00,0.0249
1466.00,0.0249
1465.00,0.0249
1464.00,0.0250
1463.00,0.0250
1462.00,0.0251
1461.00,0.0251
1460.00,0.0251
1459.00,0.0252
1458.00,0.0253
1457.00,0.0254
1456.00,0.0255
1455.00,0.0255
1454.00,0.0255
1453.00,0.0254
1452.00,0.0253
1451.00,0.0251
1450.00,0.0248
1449.00,0.0246
1448.00,0.0244
1447.00,0.0242
1446.00,0.0240
1445.00,0.0237
1444.00,0.0235
1443.00,0.0232
1442.00,0.0230
1441.00,0.0227
1440.00,0.0225
1439.00,0.0223
1438.00,0.0220
1437.00,0.0219
1436.00,0.0219
1435.00,0.0220
1434.00,0.0219
1433.00,0.0218
1432.00,0.0217
1431.00,0.0217
1430.00,0.0218
1429.00,0.0218
1428.00,0.0219
1427.00,0.0219
1426.00,0.0220
1425.00,0.0221
1424.00,0.0222
1423.00,0.0224
1422.00,0.0226
1421.00,0.0226
1420.00,0.0226
1419.00,0.0228
1418.00,0.0230
1417.00,0.0232
1416.00,0.0233
1415.00,0.0235
1414.00,0.0236
1413.00,0.0237
1412.00,0.0237
1411.00,0.0238
1410.00,0.0238
1409.00,0.0238
1408.00,0.0237
1407.00,0.0236
1406.00,0.0235
1405.00,0.0234
1404.00,0.0233
1403.00,0.0232
1402.00,0.0231
1401.00,0.0229
1400.00,0.0228
1399.00,0.0227
1398.00,0.0226
1397.00,0.0226
1396.00,0.0226
1395.00,0.0227
1394.00,0.0227
1393.00,0.0228
1392.00,0.0229
1391.00,0.0231
1390.00,0.0232
1389.00,0.0233
1388.00,0.0233
1387.00,0.0234
1386.00,0.0234
1385.00,0.0234
1384.00,0.0233
1383.00,0.0231
1382.00,0.0229
1381.00,0.0226
1380.00,0.0223
1379.00,0.0220
1378.00,0.0217
1377.00,0.0215
1376.00,0.0214
1375.00,0.0215
1374.00,0.0216
1373.00,0.0218
1372.00,0.0219
1371.00,0.0220
1370.00,0.0220
1369.00,0.0220
1368.00,0.0219
1367.00,0.0217
1366.00,0.0216
1365.00,0.0214
1364.00,0.0213
1363.00,0.0213
1362.00,0.0213
1361.00,0.0213
1360.00,0.0213
1359.00,0.0213
1358.00,0.0212
1357.00,0.0212
1356.00,0.0211
1355.00,0.0210
1354.00,0.0208
1353.00,0.0207
1352.00,0.0206
1351.00,0.0205
1350.00,0.0204
1349.00,0.0204
1348.00,0.0204
1347.00,0.0205
1346.00,0.0206
1345.00,0.0208
1344.00,0.0209
1343.00,0.0210
1342.00,0.0210
1341.00,0.0210
1340.00,0.0210
1339.00,0.0210
1338.00,0.0209
1337.00,0.0208
1336.00,0.0207
1335.00,0.0207
1334.00,0.0207
1333.00,0.0207
1332.00,0.0208
1331.00,0.0209
1330.00,0.0210
1329.00,0.0211
1328.00,0.0210
1327.00,0.0210
1326.00,0.0209
1325.00,0.0207
1324.00,0.0205
1323.00,0.0203
1322.00,0.0200
1321.00,0.0198
1320.00,0.0195
1319.00,0.0194
1318.00,0.0193
1317.00,0.0193
1316.00,0.0194
1315.00,0.0196
1314.00,0.0199
1313.00,0.0202
1312.00,0.0206
1311.00,0.0208
1310.00,0.0211
1309.00,0.0212
1308.00,0.0213
1307.00,0.0213
1306.00,0.0212
1305.00,0.0212
1304.00,0.0213
1303.00,0.0214
1302.00,0.0215
1301.00,0.0217
1300.00,0.0219
1299.00,0.0220
1298.00,0.0221
1297.00,0.0222
1296.00,0.0223
1295.00,0.0223
1294.00,0.0224
1293.00,0.0225
1292.00,0.0225
1291.00,0.0224
1290.00,0.0224
1289.00,0.0223
1288.00,0.0222
1287.00,0.0221
1286.00,0.0220
1285.00,0.0219
1284.00,0.0218
1283.00,0.0216
1282.00,0.0215
1281.00,0.0214
1280.00,0.0213
1279.00,0.0213
1278.00,0.0214
1277.00,0.0216
1276.00,0.0219
1275.00,0.0223
1274.00,0.0227
1273.00,0.0230
1272.00,0.0233
1271.00,0.0237
1270.00,0.0240
1269.00,0.0243
1268.00,0.0245
1267.00,0.0248
1266.00,0.0251
1265.00,0.0253
1264.00,0.0255
1263.00,0.0257
1262.00,0.0259
1261.00,0.0261
1260.00,0.0263
1259.00,0.0264
1258.00,0.0265
1257.00,0.0265
1256.00,0.0264
1255.00,0.0263
1254.00,0.0262
1253.00,0.0261
1252.00,0.0261
1251.00,0.0261
1250.00,0.0261
1249.00,0.0262
1248.00,0.0262
1247.00,0.0262
1246.00,0.0260
1245.00,0.0259
1244.00,0.0258
1243.00,0.0259
1242.00,0.0260
1241.00,0.0263
1240.00,0.0268
1239.00,0.0272
1238.00,0.0277
1237.00,0.0282
1236.00,0.0286
1235.00,0.0290
1234.00,0.0293
1233.00,0.0294
1232.00,0.0295
1231.00,0.0295
1230.00,0.0294
1229.00,0.0292
1228.00,0.0292
1227.00,0.0291
1226.00,0.0292
1225.00,0.0293
1224.00,0.0294
1223.00,0.0294
1222.00,0.0294
1221.00,0.0293
1220.00,0.0292
1219.00,0.0290
1218.00,0.0288
1217.00,0.0287
1216.00,0.0286
1215.00,0.0286
1214.00,0.0285
1213.00,0.0283
1212.00,0.0282
1211.00,0.0279
1210.00,0.0276
1209.00,0.0271
1208.00,0.0266
1207.00,0.0260
1206.00,0.0254
1205.00,0.0250
1204.00,0.0248
1203.00,0.0248
1202.00,0.0251
1201.00,0.0255
1200.00,0.0259
1199.00,0.0263
1198.00,0.0267
1197.00,0.0270
1196.00,0.0272
1195.00,0.0274
1194.00,0.0275
1193.00,0.0276
1192.00,0.0277
1191.00,0.0277
1190.00,0.0277
1189.00,0.0277
1188.00,0.0278
1187.00,0.0278
1186.00,0.0279
1185.00,0.0281
1184.00,0.0282
1183.00,0.0283
1182.00,0.0284
1181.00,0.0285
1180.00,0.0286
1179.00,0.0286
1178.00,0.0285
1177.00,0.0284
1176.00,0.0283
1175.00,0.0282
1174.00,0.0280
1173.00,0.0278
1172.00,0.0276
1171.00,0.0275
1170.00,0.0275
1169.00,0.0277
1168.00,0.0280
1167.00,0.0283
1166.00,0.0286
1165.00,0.0289
1164.00,0.0291
1163.00,0.0293
1162.00,0.0295
1161.00,0.0296
1160.00,0.0297
1159.00,0.0298
1158.00,0.0298
1157.00,0.0297
1156.00,0.0296
1155.00,0.0294
1154.00,0.0292
1153.00,0.0289
1152.00,0.0284
1151.00,0.0278
1150.00,0.0271
1149.00,0.0265
1148.00,0.0260
1147.00,0.0259
1146.00,0.0261
1145.00,0.0265
1144.00,0.0270
1143.00,0.0274
1142.00,0.0276
1141.00,0.0277
1140.00,0.0278
1139.00,0.0278
1138.00,0.0278
1137.00,0.0277
1136.00,0.0276
1135.00,0.0276
1134.00,0.0276
1133.00,0.0276
1132.00,0.0277
1131.00,0.0278
1130.00,0.0279
1129.00,0.0280
1128.00,0.0280
1127.00,0.0280
1126.00,0.0281
1125.00,0.0281
1124.00,0.0281
1123.00,0.0281
1122.00,0.0281
1121.00,0.0281
1120.00,0.0281
1119.00,0.0281
1118.00,0.0280
1117.00,0.0280
1116.00,0.0280
1115.00,0.0280
1114.00,0.0280
1113.00,0.0280
1112.00,0.0280
1111.00,0.0280
1110.00,0.0280
1109.00,0.0279
1108.00,0.0279
1107.00,0.0278
1106.00,0.0277
1105.00,0.0276
1104.00,0.0276
1103.00,0.0275
1102.00,0.0275
1101.00,0.0274
1100.00,0.0273
1099.00,0.0273
1098.00,0.0272
1097.00,0.0273
1096.00,0.0274
1095.00,0.0275
1094.00,0.0276
1093.00,0.0277
1092.00,0.0278
1091.00,0.0279
1090.00,0.0279
1089.00,0.0281
1088.00,0.0282
1087.00,0.0283
1086.00,0.0284
1085.00,0.0285
1084.00,0.0285
1083.00,0.0286
1082.00,0.0287
1081.00,0.0287
1080.00,0.0287
1079.00,0.0288
1078.00,0.0289
1077.00,0.0291
1076.00,0.0292
1075.00,0.0293
1074.00,0.0293
1073.00,0.0293
1072.00,0.0293
1071.00,0.0293
1070.00,0.0292
1069.00,0.0292
1068.00,0.0291
1067.00,0.0291
1066.00,0.0291
1065.00,0.0290
1064.00,0.0289
1063.00,0.0288
1062.00,0.0287
1061.00,0.0285
1060.00,0.0282
1059.00,0.0279
1058.00,0.0275
1057.00,0.0271
1056.00,0.0267
1055.00,0.0263
1054.00,0.0259
1053.00,0.0256
1052.00,0.0256
1051.00,0.0258
1050.00,0.0262
1049.00,0.0267
1048.00,0.0270
1047.00,0.0273
1046.00,0.0274
1045.00,0.0273
1044.00,0.0272
1043.00,0.0270
1042.00,0.0268
1041.00,0.0265
1040.00,0.0262
1039.00,0.0259
1038.00,0.0255
1037.00,0.0251
1036.00,0.0247
1035.00,0.0242
1034.00,0.0238
1033.00,0.0235
1032.00,0.0233
1031.00,0.0232
1030.00,0.0233
1029.00,0.0235
1028.00,0.0238
1027.00,0.0242
1026.00,0.0247
1025.00,0.0250
1024.00,0.0253
1023.00,0.0256
1022.00,0.0258
1021.00,0.0259
1020.00,0.0261
1019.00,0.0261
1018.00,0.0262
1017.00,0.0262
1016.00,0.0262
1015.00,0.0261
1014.00,0.0261
1013.00,0.0260
1012.00,0.0259
1011.00,0.0257
1010.00,0.0256
1009.00,0.0254
1008.00,0.0253
1007.00,0.0252
1006.00,0.0251
1005.00,0.0250
1004.00,0.0248
1003.00,0.0246
1002.00,0.0243
1001.00,0.0240
1000.00,0.0236
999.00,0.0233
998.00,0.0231
997.00,0.0231
996.00,0.0233
995.00,0.0234
994.00,0.0235
993.00,0.0235
992.00,0.0235
991.00,0.0234
990.00,0.0233
989.00,0.0232
988.00,0.0231
987.00,0.0229
986.00,0.0228
985.00,0.0227
984.00,0.0226
983.00,0.0225
982.00,0.0225
981.00,0.0225
980.00,0.0224
979.00,0.0224
978.00,0.0224
977.00,0.0223
976.00,0.0222
975.00,0.0221
974.00,0.0220
973.00,0.0219
972.00,0.0217
971.00,0.0216
970.00,0.0214
969.00,0.0213
968.00,0.0212
967.00,0.0211
966.00,0.0211
965.00,0.0210
964.00,0.0208
963.00,0.0207
962.00,0.0206
961.00,0.0205
960.00,0.0203
959.00,0.0202
958.00,0.0200
957.00,0.0200
956.00,0.0199
955.00,0.0199
954.00,0.0199
953.00,0.0198
952.00,0.0198
951.00,0.0199
950.00,0.0199
949.00,0.0200
948.00,0.0201
947.00,0.0202
946.00,0.0202
945.00,0.0202
944.00,0.0203
943.00,0.0203
942.00,0.0204
941.00,0.0204
940.00,0.0205
939.00,0.0206
938.00,0.0207
937.00,0.0208
936.00,0.0209
935.00,0.0210
934.00,0.0211
933.00,0.0212
932.00,0.0212
931.00,0.0212
930.00,0.0212
929.00,0.0211
928.00,0.0211
927.00,0.0210
926.00,0.0209
925.00,0.0208
924.00,0.0208
923.00,0.0207
922.00,0.0207
921.00,0.0206
920.00,0.0205
919.00,0.0204
918.00,0.0203
917.00,0.0202
916.00,0.0200
915.00,0.0199
914.00,0.0199
913.00,0.0198
912.00,0.0199
911.00,0.0200
910.00,0.0202
909.00,0.0203
908.00,0.0203
907.00,0.0203
906.00,0.0203
905.00,0.0202
904.00,0.0200
903.00,0.0198
902.00,0.0196
901.00,0.0195
900.00,0.0195
899.00,0.0195
898.00,0.0196
897.00,0.0197
896.00,0.0197
895.00,0.0195
894.00,0.0193
893.00,0.0188
892.00,0.0181
891.00,0.0174
890.00,0.0167
889.00,0.0163
888.00,0.0162
887.00,0.0163
886.00,0.0163
885.00,0.0162
884.00,0.0162
883.00,0.0165
882.00,0.0169
881.00,0.0175
880.00,0.0180
879.00,0.0183
878.00,0.0186
877.00,0.0188
876.00,0.0190
875.00,0.0191
874.00,0.0191
873.00,0.0191
872.00,0.0191
871.00,0.0190
870.00,0.0189
869.00,0.0187
868.00,0.0186
867.00,0.0184
866.00,0.0182
865.00,0.0180
864.00,0.0176
863.00,0.0173
862.00,0.0169
861.00,0.0166
860.00,0.0165
859.00,0.0166
858.00,0.0167
857.00,0.0169
856.00,0.0171
855.00,0.0173
854.00,0.0175
853.00,0.0176
852.00,0.0178
851.00,0.0181
850.00,0.0183
849.00,0.0184
848.00,0.0185
847.00,0.0186
846.00,0.0186
845.00,0.0186
844.00,0.0186
843.00,0.0186
842.00,0.0185
841.00,0.0185
840.00,0.0185
839.00,0.0184
838.00,0.0185
837.00,0.0187
836.00,0.0190
835.00,0.0194
834.00,0.0198
833.00,0.0201
832.00,0.0203
831.00,0.0204
830.00,0.0204
829.00,0.0204
828.00,0.0204
827.00,0.0205
826.00,0.0207
825.00,0.0210
824.00,0.0213
823.00,0.0215
822.00,0.0216
821.00,0.0217
820.00,0.0217
819.00,0.0217
818.00,0.0218
817.00,0.0218
816.00,0.0219
815.00,0.0220
814.00,0.0220
813.00,0.0221
812.00,0.0221
811.00,0.0221
810.00,0.0221
809.00,0.0219
808.00,0.0217
807.00,0.0215
806.00,0.0212
805.00,0.0209
804.00,0.0206
803.00,0.0206
802.00,0.0207
801.00,0.0208
800.00,0.0210
799.00,0.0211
798.00,0.0211
797.00,0.0211
796.00,0.0210
795.00,0.0210
794.00,0.0212
793.00,0.0214
792.00,0.0217
791.00,0.0221
790.00,0.0224
789.00,0.0228
788.00,0.0230
787.00,0.0232
786.00,0.0234
785.00,0.0236
784.00,0.0238
783.00,0.0241
782.00,0.0242
781.00,0.0243
780.00,0.0244
779.00,0.0245
778.00,0.0245
777.00,0.0245
776.00,0.0246
775.00,0.0246
774.00,0.0245
773.00,0.0245
772.00,0.0245
771.00,0.0245
770.00,0.0245
769.00,0.0246
768.00,0.0247
767.00,0.0248
766.00,0.0250
765.00,0.0251
764.00,0.0253
763.00,0.0256
762.00,0.0258
761.00,0.0260
760.00,0.0261
759.00,0.0262
758.00,0.0263
757.00,0.0264
756.00,0.0265
755.00,0.0266
754.00,0.0267
753.00,0.0268
752.00,0.0270
751.00,0.0273
750.00,0.0275
749.00,0.0277
748.00,0.0279
747.00,0.0280
746.00,0.0281
745.00,0.0282
744.00,0.0283
743.00,0.0284
742.00,0.0284
741.00,0.0284
740.00,0.0283
739.00,0.0282
738.00,0.0281
737.00,0.0280
736.00,0.0278
735.00,0.0277
734.00,0.0276
733.00,0.0276
732.00,0.0277
731.00,0.0280
730.00,0.0283
729.00,0.0287
728.00,0.0291
727.00,0.0294
726.00,0.0297
725.00,0.0299
724.00,0.0301
723.00,0.0304
722.00,0.0306
721.00,0.0309
720.00,0.0311
719.00,0.0313
718.00,0.0315
717.00,0.0317
716.00,0.0320
715.00,0.0322
714.00,0.0324
713.00,0.0326
712.00,0.0328
711.00,0.0331
710.00,0.0334
709.00,0.0337
708.00,0.0341
707.00,0.0344
706.00,0.0347
705.00,0.0350
704.00,0.0353
703.00,0.0357
702.00,0.0359
701.00,0.0362
700.00,0.0364
699.00,0.0366
698.00,0.0367
697.00,0.0367
696.00,0.0368
695.00,0.0367
694.00,0.0367
693.00,0.0367
692.00,0.0367
691.00,0.0366
690.00,0.0366
689.00,0.0367
688.00,0.0368
687.00,0.0368
686.00,0.0369
685.00,0.0369
684.00,0.0369
683.00,0.0370
682.00,0.0370
681.00,0.0370
680.00,0.0370
679.00,0.0371
678.00,0.0372
677.00,0.0373
676.00,0.0374
675.00,0.0375
674.00,0.0376
673.00,0.0377
672.00,0.0378
671.00,0.0379
670.00,0.0381
669.00,0.0386
668.00,0.0393
667.00,0.0397
666.00,0.0397
665.00,0.0397
664.00,0.0396
663.00,0.0397
662.00,0.0399
661.00,0.0400
660.00,0.0401
659.00,0.0402
658.00,0.0403
657.00,0.0404
656.00,0.0405
655.00,0.0406
654.00,0.0407
653.00,0.0408
652.00,0.0408
651.00,0.0408
650.00,0.0408
649.00,0.0408
648.00,0.0408
647.00,0.0410
646.00,0.0411
645.00,0.0412
644.00,0.0414
643.00,0.0415
642.00,0.0416
641.00,0.0417
640.00,0.0418
639.00,0.0418
638.00,0.0419
637.00,0.0419
636.00,0.0420
635.00,0.0421
634.00,0.0423
633.00,0.0425
632.00,0.0428
631.00,0.0431
630.00,0.0434
629.00,0.0437
628.00,0.0440
627.00,0.0442
626.00,0.0443
625.00,0.0445
624.00,0.0447
623.00,0.0449
622.00,0.0450
621.00,0.0451
620.00,0.0452
619.00,0.0453
618.00,0.0452
617.00,0.0451
616.00,0.0450
615.00,0.0449
614.00,0.0449
613.00,0.0451
612.00,0.0453
611.00,0.0456
610.00,0.0457
609.00,0.0457
608.00,0.0457
607.00,0.0457
606.00,0.0457
605.00,0.0458
604.00,0.0459
603.00,0.0460
602.00,0.0460
601.00,0.0460
600.00,0.0460
599.00,0.0460
598.00,0.0459
597.00,0.0459
596.00,0.0459
595.00,0.0459
594.00,0.0460
593.00,0.0461
592.00,0.0463
591.00,0.0465
590.00,0.0467
589.00,0.0469
588.00,0.0470
587.00,0.0472
586.00,0.0472
585.00,0.0471
584.00,0.0471
583.00,0.0471
582.00,0.0470
581.00,0.0468
580.00,0.0466
579.00,0.0465
578.00,0.0465
577.00,0.0466
576.00,0.0469
575.00,0.0473
574.00,0.0478
573.00,0.0482
572.00,0.0486
571.00,0.0489
570.00,0.0491
569.00,0.0492
568.00,0.0493
567.00,0.0494
566.00,0.0496
565.00,0.0499
564.00,0.0501
563.00,0.0501
562.00,0.0501
561.00,0.0499
560.00,0.0499
559.00,0.0499
558.00,0.0500
557.00,0.0499
556.00,0.0498
555.00,0.0496
554.00,0.0493
553.00,0.0489
552.00,0.0487
551.00,0.0487
550.00,0.0491
549.00,0.0496
548.00,0.0501
547.00,0.0506
546.00,0.0509
545.00,0.0511
544.00,0.0513
543.00,0.0514
542.00,0.0514
541.00,0.0515
540.00,0.0516
539.00,0.0516
538.00,0.0515
537.00,0.0512
536.00,0.0508
535.00,0.0506
534.00,0.0505
533.00,0.0506
532.00,0.0510
531.00,0.0514
530.00,0.0516
529.00,0.0517
528.00,0.0515
527.00,0.0512
526.00,0.0509
525.00,0.0509
524.00,0.0511
523.00,0.0513
522.00,0.0515
521.00,0.0517
520.00,0.0520
519.00,0.0523
518.00,0.0524
517.00,0.0525
516.00,0.0527
515.00,0.0531
514.00,0.0534
513.00,0.0536
512.00,0.0536
511.00,0.0535
510.00,0.0533
509.00,0.0530
508.00,0.0529
507.00,0.0527
506.00,0.0525
505.00,0.0522
504.00,0.0521
503.00,0.0519
502.00,0.0519
501.00,0.0520
500.00,0.0522
499.00,0.0522
498.00,0.0520
497.00,0.0517
496.00,0.0515
495.00,0.0515
494.00,0.0513
493.00,0.0510
492.00,0.0508
491.00,0.0505
490.00,0.0503
489.00,0.0501
488.00,0.0500
487.00,0.0499
486.00,0.0499
485.00,0.0499
484.00,0.0499
483.00,0.0499
482.00,0.0497
481.00,0.0496
480.00,0.0498
479.00,0.0502
478.00,0.0504
477.00,0.0506
476.00,0.0506
475.00,0.0504
474.00,0.0500
473.00,0.0499
472.00,0.0501
471.00,0.0506
470.00,0.0512
469.00,0.0516
468.00,0.0519
467.00,0.0518
466.00,0.0514
465.00,0.0511
464.00,0.0511
463.00,0.0513
462.00,0.0515
461.00,0.0517
460.00,0.0518
459.00,0.0517
458.00,0.0517
457.00,0.0519
456.00,0.0522
455.00,0.0525
454.00,0.0525
453.00,0.0525
452.00,0.0525
451.00,0.0523
450.00,0.0519
449.00,0.0515
448.00,0.0514
447.00,0.0516
446.00,0.0519
445.00,0.0523
444.00,0.0525
443.00,0.0524
442.00,0.0521
441.00,0.0518
440.00,0.0519
439.00,0.0520
438.00,0.0518
437.00,0.0515
436.00,0.0512
435.00,0.0512
434.00,0.0512
433.00,0.0512
432.00,0.0512
431.00,0.0512
430.00,0.0512
429.00,0.0514
428.00,0.0520
427.00,0.0526
426.00,0.0530
425.00,0.0534
424.00,0.0538
423.00,0.0539
422.00,0.0534
421.00,0.0528
420.00,0.0524
419.00,0.0522
418.00,0.0518
417.00,0.0515
416.00,0.0513
415.00,0.0513
414.00,0.0514
413.00,0.0520
412.00,0.0528
411.00,0.0531
410.00,0.0527
409.00,0.0521
408.00,0.0520
407.00,0.0521
406.00,0.0521
405.00,0.0523
404.00,0.0525
403.00,0.0524
402.00,0.0519
401.00,0.0516
400.00,0.0522
