Created as New Dataset,Sample 491 By YargerLab Date Sunday, April 13 2025
cm-1,A
4000.00,0.0058
3999.00,0.0058
3998.00,0.0058
3997.00,0.0058
3996.00,0.0058
3995.00,0.0058
3994.00,0.0058
3993.00,0.0058
3992.00,0.0058
3991.00,0.0058
3990.00,0.0058
3989.00,0.0058
3988.00,0.0058
3987.00,0.0059
3986.00,0.0059
3985.00,0.0059
3984.00,0.0059
3983.00,0.0059
3982.00,0.0059
3981.00,0.0059
3980.00,0.0059
3979.00,0.0059
3978.00,0.0059
3977.00,0.0059
3976.00,0.0058
3975.00,0.0058
3974.00,0.0058
3973.00,0.0058
3972.00,0.0059
3971.00,0.0059
3970.00,0.0059
3969.00,0.0058
3968.00,0.0058
3967.00,0.0058
3966.00,0.0058
3965.00,0.0058
3964.00,0.0058
3963.00,0.0058
3962.00,0.0058
3961.00,0.0058
3960.00,0.0058
3959.00,0.0058
3958.00,0.0058
3957.00,0.0058
3956.00,0.0058
3955.00,0.0058
3954.00,0.0058
3953.00,0.0057
3952.00,0.0057
3951.00,0.0057
3950.00,0.0058
3949.00,0.0058
3948.00,0.0058
3947.00,0.0058
3946.00,0.0058
3945.00,0.0058
3944.00,0.0058
3943.00,0.0058
3942.00,0.0058
3941.00,0.0058
3940.00,0.0059
3939.00,0.0059
3938.00,0.0058
3937.00,0.0058
3936.00,0.0058
3935.00,0.0059
3934.00,0.0058
3933.00,0.0058
3932.00,0.0058
3931.00,0.0058
3930.00,0.0058
3929.00,0.0059
3928.00,0.0059
3927.00,0.0059
3926.00,0.0059
3925.00,0.0059
3924.00,0.0059
3923.00,0.0059
3922.00,0.0058
3921.00,0.0058
3920.00,0.0058
3919.00,0.0057
3918.00,0.0057
3917.00,0.0057
3916.00,0.0057
3915.00,0.0057
3914.00,0.0058
3913.00,0.0058
3912.00,0.0058
3911.00,0.0058
3910.00,0.0058
3909.00,0.0057
3908.00,0.0057
3907.00,0.0058
3906.00,0.0058
3905.00,0.0058
3904.00,0.0059
3903.00,0.0059
3902.00,0.0059
3901.00,0.0060
3900.00,0.0060
3899.00,0.0059
3898.00,0.0059
3897.00,0.0059
3896.00,0.0059
3895.00,0.0059
3894.00,0.0059
3893.00,0.0059
3892.00,0.0059
3891.00,0.0059
3890.00,0.0059
3889.00,0.0059
3888.00,0.0059
3887.00,0.0058
3886.00,0.0057
3885.00,0.0057
3884.00,0.0057
3883.00,0.0058
3882.00,0.0058
3881.00,0.0058
3880.00,0.0058
3879.00,0.0058
3878.00,0.0059
3877.00,0.0059
3876.00,0.0059
3875.00,0.0058
3874.00,0.0058
3873.00,0.0058
3872.00,0.0059
3871.00,0.0059
3870.00,0.0059
3869.00,0.0059
3868.00,0.0059
3867.00,0.0060
3866.00,0.0059
3865.00,0.0059
3864.00,0.0059
3863.00,0.0059
3862.00,0.0059
3861.00,0.0059
3860.00,0.0058
3859.00,0.0058
3858.00,0.0058
3857.00,0.0058
3856.00,0.0059
3855.00,0.0059
3854.00,0.0059
3853.00,0.0059
3852.00,0.0059
3851.00,0.0059
3850.00,0.0059
3849.00,0.0059
3848.00,0.0058
3847.00,0.0058
3846.00,0.0058
3845.00,0.0058
3844.00,0.0059
3843.00,0.0059
3842.00,0.0059
3841.00,0.0059
3840.00,0.0059
3839.00,0.0059
3838.00,0.0059
3837.00,0.0059
3836.00,0.0060
3835.00,0.0060
3834.00,0.0060
3833.00,0.0059
3832.00,0.0058
3831.00,0.0058
3830.00,0.0058
3829.00,0.0058
3828.00,0.0058
3827.00,0.0058
3826.00,0.0057
3825.00,0.0057
3824.00,0.0058
3823.00,0.0058
3822.00,0.0058
3821.00,0.0058
3820.00,0.0058
3819.00,0.0058
3818.00,0.0059
3817.00,0.0058
3816.00,0.0058
3815.00,0.0057
3814.00,0.0058
3813.00,0.0058
3812.00,0.0057
3811.00,0.0057
3810.00,0.0057
3809.00,0.0057
3808.00,0.0057
3807.00,0.0057
3806.00,0.0057
3805.00,0.0058
3804.00,0.0059
3803.00,0.0059
3802.00,0.0059
3801.00,0.0058
3800.00,0.0058
3799.00,0.0058
3798.00,0.0058
3797.00,0.0057
3796.00,0.0056
3795.00,0.0056
3794.00,0.0056
3793.00,0.0057
3792.00,0.0057
3791.00,0.0057
3790.00,0.0056
3789.00,0.0056
3788.00,0.0057
3787.00,0.0057
3786.00,0.0057
3785.00,0.0057
3784.00,0.0057
3783.00,0.0057
3782.00,0.0057
3781.00,0.0057
3780.00,0.0057
3779.00,0.0056
3778.00,0.0056
3777.00,0.0056
3776.00,0.0056
3775.00,0.0056
3774.00,0.0056
3773.00,0.0056
3772.00,0.0056
3771.00,0.0056
3770.00,0.0056
3769.00,0.0056
3768.00,0.0056
3767.00,0.0057
3766.00,0.0057
3765.00,0.0057
3764.00,0.0057
3763.00,0.0057
3762.00,0.0057
3761.00,0.0057
3760.00,0.0057
3759.00,0.0056
3758.00,0.0056
3757.00,0.0056
3756.00,0.0056
3755.00,0.0056
3754.00,0.0057
3753.00,0.0058
3752.00,0.0058
3751.00,0.0058
3750.00,0.0058
3749.00,0.0057
3748.00,0.0057
3747.00,0.0058
3746.00,0.0057
3745.00,0.0056
3744.00,0.0056
3743.00,0.0056
3742.00,0.0056
3741.00,0.0057
3740.00,0.0057
3739.00,0.0057
3738.00,0.0057
3737.00,0.0057
3736.00,0.0057
3735.00,0.0057
3734.00,0.0057
3733.00,0.0057
3732.00,0.0056
3731.00,0.0056
3730.00,0.0056
3729.00,0.0056
3728.00,0.0056
3727.00,0.0056
3726.00,0.0056
3725.00,0.0055
3724.00,0.0055
3723.00,0.0055
3722.00,0.0055
3721.00,0.0055
3720.00,0.0055
3719.00,0.0055
3718.00,0.0055
3717.00,0.0055
3716.00,0.0055
3715.00,0.0055
3714.00,0.0055
3713.00,0.0055
3712.00,0.0055
3711.00,0.0055
3710.00,0.0056
3709.00,0.0056
3708.00,0.0056
3707.00,0.0055
3706.00,0.0055
3705.00,0.0055
3704.00,0.0055
3703.00,0.0055
3702.00,0.0055
3701.00,0.0055
3700.00,0.0055
3699.00,0.0055
3698.00,0.0055
3697.00,0.0055
3696.00,0.0054
3695.00,0.0054
3694.00,0.0054
3693.00,0.0054
3692.00,0.0054
3691.00,0.0054
3690.00,0.0054
3689.00,0.0054
3688.00,0.0054
3687.00,0.0054
3686.00,0.0054
3685.00,0.0054
3684.00,0.0054
3683.00,0.0054
3682.00,0.0054
3681.00,0.0055
3680.00,0.0055
3679.00,0.0055
3678.00,0.0056
3677.00,0.0057
3676.00,0.0057
3675.00,0.0056
3674.00,0.0056
3673.00,0.0057
3672.00,0.0057
3671.00,0.0056
3670.00,0.0055
3669.00,0.0055
3668.00,0.0055
3667.00,0.0055
3666.00,0.0055
3665.00,0.0055
3664.00,0.0055
3663.00,0.0055
3662.00,0.0054
3661.00,0.0054
3660.00,0.0054
3659.00,0.0055
3658.00,0.0055
3657.00,0.0055
3656.00,0.0055
3655.00,0.0054
3654.00,0.0055
3653.00,0.0055
3652.00,0.0056
3651.00,0.0057
3650.00,0.0057
3649.00,0.0057
3648.00,0.0057
3647.00,0.0057
3646.00,0.0056
3645.00,0.0055
3644.00,0.0055
3643.00,0.0054
3642.00,0.0054
3641.00,0.0054
3640.00,0.0054
3639.00,0.0054
3638.00,0.0054
3637.00,0.0054
3636.00,0.0055
3635.00,0.0055
3634.00,0.0055
3633.00,0.0055
3632.00,0.0056
3631.00,0.0056
3630.00,0.0056
3629.00,0.0055
3628.00,0.0054
3627.00,0.0054
3626.00,0.0055
3625.00,0.0055
3624.00,0.0055
3623.00,0.0055
3622.00,0.0055
3621.00,0.0055
3620.00,0.0055
3619.00,0.0055
3618.00,0.0055
3617.00,0.0056
3616.00,0.0056
3615.00,0.0056
3614.00,0.0056
3613.00,0.0056
3612.00,0.0056
3611.00,0.0056
3610.00,0.0056
3609.00,0.0056
3608.00,0.0056
3607.00,0.0057
3606.00,0.0056
3605.00,0.0056
3604.00,0.0056
3603.00,0.0056
3602.00,0.0055
3601.00,0.0055
3600.00,0.0055
3599.00,0.0055
3598.00,0.0055
3597.00,0.0055
3596.00,0.0056
3595.00,0.0056
3594.00,0.0056
3593.00,0.0056
3592.00,0.0056
3591.00,0.0056
3590.00,0.0056
3589.00,0.0056
3588.00,0.0057
3587.00,0.0057
3586.00,0.0057
3585.00,0.0058
3584.00,0.0058
3583.00,0.0058
3582.00,0.0058
3581.00,0.0058
3580.00,0.0059
3579.00,0.0058
3578.00,0.0058
3577.00,0.0058
3576.00,0.0058
3575.00,0.0058
3574.00,0.0058
3573.00,0.0057
3572.00,0.0057
3571.00,0.0057
3570.00,0.0057
3569.00,0.0056
3568.00,0.0056
3567.00,0.0057
3566.00,0.0057
3565.00,0.0058
3564.00,0.0058
3563.00,0.0059
3562.00,0.0059
3561.00,0.0059
3560.00,0.0059
3559.00,0.0059
3558.00,0.0059
3557.00,0.0059
3556.00,0.0059
3555.00,0.0059
3554.00,0.0060
3553.00,0.0060
3552.00,0.0060
3551.00,0.0060
3550.00,0.0060
3549.00,0.0060
3548.00,0.0060
3547.00,0.0061
3546.00,0.0061
3545.00,0.0061
3544.00,0.0061
3543.00,0.0061
3542.00,0.0061
3541.00,0.0061
3540.00,0.0062
3539.00,0.0062
3538.00,0.0062
3537.00,0.0062
3536.00,0.0062
3535.00,0.0062
3534.00,0.0062
3533.00,0.0063
3532.00,0.0063
3531.00,0.0063
3530.00,0.0063
3529.00,0.0064
3528.00,0.0064
3527.00,0.0065
3526.00,0.0065
3525.00,0.0065
3524.00,0.0065
3523.00,0.0066
3522.00,0.0066
3521.00,0.0067
3520.00,0.0067
3519.00,0.0068
3518.00,0.0068
3517.00,0.0067
3516.00,0.0067
3515.00,0.0067
3514.00,0.0067
3513.00,0.0067
3512.00,0.0067
3511.00,0.0067
3510.00,0.0067
3509.00,0.0067
3508.00,0.0067
3507.00,0.0067
3506.00,0.0066
3505.00,0.0066
3504.00,0.0066
3503.00,0.0066
3502.00,0.0066
3501.00,0.0067
3500.00,0.0067
3499.00,0.0067
3498.00,0.0067
3497.00,0.0067
3496.00,0.0067
3495.00,0.0067
3494.00,0.0067
3493.00,0.0068
3492.00,0.0068
3491.00,0.0068
3490.00,0.0068
3489.00,0.0068
3488.00,0.0068
3487.00,0.0068
3486.00,0.0068
3485.00,0.0068
3484.00,0.0068
3483.00,0.0068
3482.00,0.0068
3481.00,0.0068
3480.00,0.0069
3479.00,0.0070
3478.00,0.0070
3477.00,0.0070
3476.00,0.0070
3475.00,0.0071
3474.00,0.0071
3473.00,0.0071
3472.00,0.0071
3471.00,0.0072
3470.00,0.0072
3469.00,0.0072
3468.00,0.0072
3467.00,0.0072
3466.00,0.0072
3465.00,0.0072
3464.00,0.0072
3463.00,0.0072
3462.00,0.0072
3461.00,0.0072
3460.00,0.0072
3459.00,0.0073
3458.00,0.0073
3457.00,0.0073
3456.00,0.0073
3455.00,0.0074
3454.00,0.0074
3453.00,0.0074
3452.00,0.0074
3451.00,0.0074
3450.00,0.0074
3449.00,0.0073
3448.00,0.0074
3447.00,0.0074
3446.00,0.0075
3445.00,0.0075
3444.00,0.0075
3443.00,0.0075
3442.00,0.0075
3441.00,0.0074
3440.00,0.0074
3439.00,0.0074
3438.00,0.0075
3437.00,0.0075
3436.00,0.0075
3435.00,0.0075
3434.00,0.0075
3433.00,0.0075
3432.00,0.0076
3431.00,0.0076
3430.00,0.0076
3429.00,0.0077
3428.00,0.0077
3427.00,0.0077
3426.00,0.0077
3425.00,0.0078
3424.00,0.0078
3423.00,0.0079
3422.00,0.0079
3421.00,0.0078
3420.00,0.0078
3419.00,0.0079
3418.00,0.0079
3417.00,0.0079
3416.00,0.0080
3415.00,0.0080
3414.00,0.0080
3413.00,0.0081
3412.00,0.0081
3411.00,0.0081
3410.00,0.0082
3409.00,0.0082
3408.00,0.0082
3407.00,0.0082
3406.00,0.0082
3405.00,0.0082
3404.00,0.0083
3403.00,0.0083
3402.00,0.0083
3401.00,0.0083
3400.00,0.0083
3399.00,0.0083
3398.00,0.0083
3397.00,0.0083
3396.00,0.0083
3395.00,0.0082
3394.00,0.0082
3393.00,0.0082
3392.00,0.0083
3391.00,0.0083
3390.00,0.0083
3389.00,0.0083
3388.00,0.0083
3387.00,0.0083
3386.00,0.0083
3385.00,0.0083
3384.00,0.0083
3383.00,0.0083
3382.00,0.0083
3381.00,0.0082
3380.00,0.0082
3379.00,0.0082
3378.00,0.0082
3377.00,0.0083
3376.00,0.0083
3375.00,0.0083
3374.00,0.0083
3373.00,0.0084
3372.00,0.0084
3371.00,0.0084
3370.00,0.0084
3369.00,0.0084
3368.00,0.0084
3367.00,0.0084
3366.00,0.0084
3365.00,0.0085
3364.00,0.0085
3363.00,0.0086
3362.00,0.0086
3361.00,0.0086
3360.00,0.0086
3359.00,0.0086
3358.00,0.0086
3357.00,0.0087
3356.00,0.0087
3355.00,0.0087
3354.00,0.0088
3353.00,0.0088
3352.00,0.0088
3351.00,0.0089
3350.00,0.0089
3349.00,0.0089
3348.00,0.0090
3347.00,0.0090
3346.00,0.0090
3345.00,0.0090
3344.00,0.0091
3343.00,0.0091
3342.00,0.0091
3341.00,0.0092
3340.00,0.0092
3339.00,0.0093
3338.00,0.0093
3337.00,0.0093
3336.00,0.0094
3335.00,0.0094
3334.00,0.0095
3333.00,0.0096
3332.00,0.0096
3331.00,0.0097
3330.00,0.0097
3329.00,0.0097
3328.00,0.0097
3327.00,0.0097
3326.00,0.0097
3325.00,0.0098
3324.00,0.0099
3323.00,0.0100
3322.00,0.0100
3321.00,0.0101
3320.00,0.0101
3319.00,0.0102
3318.00,0.0102
3317.00,0.0103
3316.00,0.0104
3315.00,0.0104
3314.00,0.0105
3313.00,0.0105
3312.00,0.0106
3311.00,0.0106
3310.00,0.0107
3309.00,0.0108
3308.00,0.0109
3307.00,0.0109
3306.00,0.0110
3305.00,0.0110
3304.00,0.0111
3303.00,0.0112
3302.00,0.0113
3301.00,0.0114
3300.00,0.0116
3299.00,0.0117
3298.00,0.0118
3297.00,0.0118
3296.00,0.0119
3295.00,0.0119
3294.00,0.0120
3293.00,0.0120
3292.00,0.0120
3291.00,0.0121
3290.00,0.0122
3289.00,0.0123
3288.00,0.0123
3287.00,0.0124
3286.00,0.0125
3285.00,0.0125
3284.00,0.0126
3283.00,0.0127
3282.00,0.0127
3281.00,0.0127
3280.00,0.0128
3279.00,0.0128
3278.00,0.0128
3277.00,0.0129
3276.00,0.0130
3275.00,0.0130
3274.00,0.0130
3273.00,0.0130
3272.00,0.0130
3271.00,0.0130
3270.00,0.0130
3269.00,0.0130
3268.00,0.0130
3267.00,0.0130
3266.00,0.0130
3265.00,0.0129
3264.00,0.0129
3263.00,0.0129
3262.00,0.0128
3261.00,0.0128
3260.00,0.0128
3259.00,0.0128
3258.00,0.0127
3257.00,0.0127
3256.00,0.0126
3255.00,0.0126
3254.00,0.0125
3253.00,0.0125
3252.00,0.0124
3251.00,0.0124
3250.00,0.0123
3249.00,0.0122
3248.00,0.0122
3247.00,0.0122
3246.00,0.0121
3245.00,0.0121
3244.00,0.0121
3243.00,0.0120
3242.00,0.0120
3241.00,0.0120
3240.00,0.0119
3239.00,0.0119
3238.00,0.0118
3237.00,0.0118
3236.00,0.0117
3235.00,0.0117
3234.00,0.0116
3233.00,0.0116
3232.00,0.0116
3231.00,0.0116
3230.00,0.0116
3229.00,0.0116
3228.00,0.0115
3227.00,0.0115
3226.00,0.0115
3225.00,0.0114
3224.00,0.0113
3223.00,0.0113
3222.00,0.0113
3221.00,0.0113
3220.00,0.0113
3219.00,0.0112
3218.00,0.0112
3217.00,0.0112
3216.00,0.0111
3215.00,0.0111
3214.00,0.0111
3213.00,0.0111
3212.00,0.0110
3211.00,0.0110
3210.00,0.0110
3209.00,0.0110
3208.00,0.0110
3207.00,0.0110
3206.00,0.0109
3205.00,0.0109
3204.00,0.0108
3203.00,0.0108
3202.00,0.0108
3201.00,0.0108
3200.00,0.0108
3199.00,0.0107
3198.00,0.0107
3197.00,0.0107
3196.00,0.0107
3195.00,0.0106
3194.00,0.0106
3193.00,0.0105
3192.00,0.0105
3191.00,0.0105
3190.00,0.0105
3189.00,0.0105
3188.00,0.0105
3187.00,0.0105
3186.00,0.0105
3185.00,0.0104
3184.00,0.0104
3183.00,0.0104
3182.00,0.0104
3181.00,0.0104
3180.00,0.0103
3179.00,0.0102
3178.00,0.0102
3177.00,0.0102
3176.00,0.0102
3175.00,0.0101
3174.00,0.0101
3173.00,0.0101
3172.00,0.0100
3171.00,0.0100
3170.00,0.0100
3169.00,0.0100
3168.00,0.0099
3167.00,0.0099
3166.00,0.0098
3165.00,0.0098
3164.00,0.0098
3163.00,0.0098
3162.00,0.0098
3161.00,0.0098
3160.00,0.0098
3159.00,0.0098
3158.00,0.0098
3157.00,0.0097
3156.00,0.0096
3155.00,0.0096
3154.00,0.0095
3153.00,0.0095
3152.00,0.0095
3151.00,0.0095
3150.00,0.0095
3149.00,0.0095
3148.00,0.0095
3147.00,0.0095
3146.00,0.0094
3145.00,0.0094
3144.00,0.0094
3143.00,0.0094
3142.00,0.0093
3141.00,0.0093
3140.00,0.0093
3139.00,0.0093
3138.00,0.0093
3137.00,0.0093
3136.00,0.0093
3135.00,0.0093
3134.00,0.0093
3133.00,0.0092
3132.00,0.0092
3131.00,0.0092
3130.00,0.0092
3129.00,0.0091
3128.00,0.0091
3127.00,0.0091
3126.00,0.0091
3125.00,0.0091
3124.00,0.0090
3123.00,0.0090
3122.00,0.0090
3121.00,0.0090
3120.00,0.0090
3119.00,0.0090
3118.00,0.0090
3117.00,0.0090
3116.00,0.0090
3115.00,0.0090
3114.00,0.0090
3113.00,0.0090
3112.00,0.0089
3111.00,0.0089
3110.00,0.0089
3109.00,0.0090
3108.00,0.0090
3107.00,0.0090
3106.00,0.0090
3105.00,0.0090
3104.00,0.0091
3103.00,0.0091
3102.00,0.0091
3101.00,0.0090
3100.00,0.0090
3099.00,0.0090
3098.00,0.0090
3097.00,0.0090
3096.00,0.0090
3095.00,0.0091
3094.00,0.0091
3093.00,0.0091
3092.00,0.0092
3091.00,0.0092
3090.00,0.0092
3089.00,0.0092
3088.00,0.0092
3087.00,0.0092
3086.00,0.0092
3085.00,0.0092
3084.00,0.0092
3083.00,0.0092
3082.00,0.0092
3081.00,0.0092
3080.00,0.0092
3079.00,0.0092
3078.00,0.0092
3077.00,0.0093
3076.00,0.0093
3075.00,0.0093
3074.00,0.0093
3073.00,0.0094
3072.00,0.0094
3071.00,0.0094
3070.00,0.0094
3069.00,0.0094
3068.00,0.0093
3067.00,0.0093
3066.00,0.0093
3065.00,0.0093
3064.00,0.0093
3063.00,0.0093
3062.00,0.0093
3061.00,0.0093
3060.00,0.0093
3059.00,0.0093
3058.00,0.0093
3057.00,0.0093
3056.00,0.0093
3055.00,0.0092
3054.00,0.0092
3053.00,0.0092
3052.00,0.0091
3051.00,0.0091
3050.00,0.0091
3049.00,0.0091
3048.00,0.0091
3047.00,0.0091
3046.00,0.0090
3045.00,0.0090
3044.00,0.0090
3043.00,0.0090
3042.00,0.0090
3041.00,0.0090
3040.00,0.0090
3039.00,0.0090
3038.00,0.0090
3037.00,0.0090
3036.00,0.0090
3035.00,0.0090
3034.00,0.0090
3033.00,0.0090
3032.00,0.0090
3031.00,0.0089
3030.00,0.0089
3029.00,0.0089
3028.00,0.0089
3027.00,0.0088
3026.00,0.0088
3025.00,0.0088
3024.00,0.0087
3023.00,0.0087
3022.00,0.0087
3021.00,0.0086
3020.00,0.0086
3019.00,0.0086
3018.00,0.0086
3017.00,0.0086
3016.00,0.0085
3015.00,0.0085
3014.00,0.0085
3013.00,0.0085
3012.00,0.0085
3011.00,0.0085
3010.00,0.0085
3009.00,0.0085
3008.00,0.0085
3007.00,0.0085
3006.00,0.0084
3005.00,0.0084
3004.00,0.0084
3003.00,0.0084
3002.00,0.0084
3001.00,0.0084
3000.00,0.0084
2999.00,0.0084
2998.00,0.0084
2997.00,0.0084
2996.00,0.0084
2995.00,0.0083
2994.00,0.0083
2993.00,0.0084
2992.00,0.0084
2991.00,0.0085
2990.00,0.0085
2989.00,0.0086
2988.00,0.0086
2987.00,0.0087
2986.00,0.0087
2985.00,0.0087
2984.00,0.0088
2983.00,0.0088
2982.00,0.0089
2981.00,0.0089
2980.00,0.0090
2979.00,0.0090
2978.00,0.0091
2977.00,0.0091
2976.00,0.0091
2975.00,0.0092
2974.00,0.0093
2973.00,0.0094
2972.00,0.0095
2971.00,0.0096
2970.00,0.0096
2969.00,0.0097
2968.00,0.0098
2967.00,0.0099
2966.00,0.0099
2965.00,0.0100
2964.00,0.0100
2963.00,0.0101
2962.00,0.0101
2961.00,0.0101
2960.00,0.0102
2959.00,0.0101
2958.00,0.0101
2957.00,0.0101
2956.00,0.0101
2955.00,0.0101
2954.00,0.0101
2953.00,0.0101
2952.00,0.0101
2951.00,0.0101
2950.00,0.0101
2949.00,0.0101
2948.00,0.0101
2947.00,0.0101
2946.00,0.0101
2945.00,0.0102
2944.00,0.0102
2943.00,0.0103
2942.00,0.0104
2941.00,0.0105
2940.00,0.0106
2939.00,0.0107
2938.00,0.0108
2937.00,0.0109
2936.00,0.0110
2935.00,0.0110
2934.00,0.0111
2933.00,0.0113
2932.00,0.0114
2931.00,0.0115
2930.00,0.0116
2929.00,0.0117
2928.00,0.0117
2927.00,0.0117
2926.00,0.0117
2925.00,0.0117
2924.00,0.0118
2923.00,0.0118
2922.00,0.0118
2921.00,0.0117
2920.00,0.0117
2919.00,0.0116
2918.00,0.0115
2917.00,0.0114
2916.00,0.0113
2915.00,0.0112
2914.00,0.0111
2913.00,0.0109
2912.00,0.0108
2911.00,0.0107
2910.00,0.0106
2909.00,0.0105
2908.00,0.0105
2907.00,0.0104
2906.00,0.0103
2905.00,0.0102
2904.00,0.0102
2903.00,0.0102
2902.00,0.0101
2901.00,0.0101
2900.00,0.0100
2899.00,0.0100
2898.00,0.0099
2897.00,0.0099
2896.00,0.0098
2895.00,0.0098
2894.00,0.0098
2893.00,0.0097
2892.00,0.0097
2891.00,0.0097
2890.00,0.0097
2889.00,0.0096
2888.00,0.0096
2887.00,0.0096
2886.00,0.0096
2885.00,0.0096
2884.00,0.0097
2883.00,0.0097
2882.00,0.0097
2881.00,0.0097
2880.00,0.0097
2879.00,0.0097
2878.00,0.0098
2877.00,0.0098
2876.00,0.0099
2875.00,0.0099
2874.00,0.0100
2873.00,0.0100
2872.00,0.0100
2871.00,0.0100
2870.00,0.0100
2869.00,0.0099
2868.00,0.0099
2867.00,0.0098
2866.00,0.0098
2865.00,0.0098
2864.00,0.0098
2863.00,0.0098
2862.00,0.0099
2861.00,0.0100
2860.00,0.0100
2859.00,0.0101
2858.00,0.0101
2857.00,0.0102
2856.00,0.0102
2855.00,0.0102
2854.00,0.0102
2853.00,0.0102
2852.00,0.0101
2851.00,0.0101
2850.00,0.0100
2849.00,0.0099
2848.00,0.0097
2847.00,0.0096
2846.00,0.0095
2845.00,0.0094
2844.00,0.0093
2843.00,0.0092
2842.00,0.0092
2841.00,0.0091
2840.00,0.0090
2839.00,0.0090
2838.00,0.0090
2837.00,0.0090
2836.00,0.0090
2835.00,0.0090
2834.00,0.0089
2833.00,0.0089
2832.00,0.0089
2831.00,0.0089
2830.00,0.0089
2829.00,0.0088
2828.00,0.0088
2827.00,0.0088
2826.00,0.0087
2825.00,0.0087
2824.00,0.0087
2823.00,0.0086
2822.00,0.0086
2821.00,0.0086
2820.00,0.0086
2819.00,0.0085
2818.00,0.0085
2817.00,0.0085
2816.00,0.0085
2815.00,0.0085
2814.00,0.0085
2813.00,0.0085
2812.00,0.0084
2811.00,0.0084
2810.00,0.0084
2809.00,0.0084
2808.00,0.0084
2807.00,0.0084
2806.00,0.0084
2805.00,0.0084
2804.00,0.0084
2803.00,0.0084
2802.00,0.0084
2801.00,0.0084
2800.00,0.0084
2799.00,0.0084
2798.00,0.0084
2797.00,0.0084
2796.00,0.0084
2795.00,0.0083
2794.00,0.0083
2793.00,0.0083
2792.00,0.0083
2791.00,0.0083
2790.00,0.0083
2789.00,0.0083
2788.00,0.0082
2787.00,0.0082
2786.00,0.0082
2785.00,0.0082
2784.00,0.0082
2783.00,0.0082
2782.00,0.0082
2781.00,0.0082
2780.00,0.0082
2779.00,0.0082
2778.00,0.0082
2777.00,0.0082
2776.00,0.0082
2775.00,0.0082
2774.00,0.0081
2773.00,0.0081
2772.00,0.0081
2771.00,0.0081
2770.00,0.0081
2769.00,0.0081
2768.00,0.0081
2767.00,0.0080
2766.00,0.0080
2765.00,0.0080
2764.00,0.0080
2763.00,0.0081
2762.00,0.0081
2761.00,0.0081
2760.00,0.0081
2759.00,0.0081
2758.00,0.0081
2757.00,0.0081
2756.00,0.0080
2755.00,0.0080
2754.00,0.0080
2753.00,0.0080
2752.00,0.0080
2751.00,0.0080
2750.00,0.0080
2749.00,0.0079
2748.00,0.0079
2747.00,0.0079
2746.00,0.0079
2745.00,0.0080
2744.00,0.0080
2743.00,0.0080
2742.00,0.0080
2741.00,0.0080
2740.00,0.0079
2739.00,0.0079
2738.00,0.0079
2737.00,0.0079
2736.00,0.0079
2735.00,0.0079
2734.00,0.0079
2733.00,0.0079
2732.00,0.0079
2731.00,0.0079
2730.00,0.0078
2729.00,0.0078
2728.00,0.0078
2727.00,0.0078
2726.00,0.0078
2725.00,0.0078
2724.00,0.0078
2723.00,0.0078
2722.00,0.0078
2721.00,0.0078
2720.00,0.0078
2719.00,0.0078
2718.00,0.0078
2717.00,0.0078
2716.00,0.0078
2715.00,0.0078
2714.00,0.0078
2713.00,0.0078
2712.00,0.0078
2711.00,0.0078
2710.00,0.0078
2709.00,0.0078
2708.00,0.0078
2707.00,0.0078
2706.00,0.0078
2705.00,0.0078
2704.00,0.0078
2703.00,0.0078
2702.00,0.0078
2701.00,0.0078
2700.00,0.0078
2699.00,0.0077
2698.00,0.0077
2697.00,0.0077
2696.00,0.0077
2695.00,0.0077
2694.00,0.0077
2693.00,0.0077
2692.00,0.0077
2691.00,0.0077
2690.00,0.0077
2689.00,0.0077
2688.00,0.0077
2687.00,0.0077
2686.00,0.0077
2685.00,0.0077
2684.00,0.0077
2683.00,0.0077
2682.00,0.0077
2681.00,0.0077
2680.00,0.0077
2679.00,0.0077
2678.00,0.0076
2677.00,0.0076
2676.00,0.0076
2675.00,0.0076
2674.00,0.0076
2673.00,0.0076
2672.00,0.0076
2671.00,0.0076
2670.00,0.0076
2669.00,0.0076
2668.00,0.0076
2667.00,0.0076
2666.00,0.0076
2665.00,0.0076
2664.00,0.0076
2663.00,0.0076
2662.00,0.0076
2661.00,0.0076
2660.00,0.0075
2659.00,0.0075
2658.00,0.0075
2657.00,0.0075
2656.00,0.0075
2655.00,0.0075
2654.00,0.0075
2653.00,0.0075
2652.00,0.0075
2651.00,0.0074
2650.00,0.0074
2649.00,0.0074
2648.00,0.0074
2647.00,0.0074
2646.00,0.0074
2645.00,0.0074
2644.00,0.0074
2643.00,0.0074
2642.00,0.0074
2641.00,0.0074
2640.00,0.0073
2639.00,0.0073
2638.00,0.0073
2637.00,0.0073
2636.00,0.0073
2635.00,0.0074
2634.00,0.0074
2633.00,0.0073
2632.00,0.0073
2631.00,0.0073
2630.00,0.0073
2629.00,0.0073
2628.00,0.0073
2627.00,0.0073
2626.00,0.0073
2625.00,0.0073
2624.00,0.0074
2623.00,0.0074
2622.00,0.0074
2621.00,0.0074
2620.00,0.0073
2619.00,0.0073
2618.00,0.0073
2617.00,0.0073
2616.00,0.0073
2615.00,0.0073
2614.00,0.0073
2613.00,0.0072
2612.00,0.0072
2611.00,0.0072
2610.00,0.0072
2609.00,0.0073
2608.00,0.0073
2607.00,0.0073
2606.00,0.0073
2605.00,0.0073
2604.00,0.0073
2603.00,0.0073
2602.00,0.0073
2601.00,0.0073
2600.00,0.0072
2599.00,0.0072
2598.00,0.0072
2597.00,0.0072
2596.00,0.0072
2595.00,0.0072
2594.00,0.0072
2593.00,0.0072
2592.00,0.0071
2591.00,0.0071
2590.00,0.0071
2589.00,0.0071
2588.00,0.0071
2587.00,0.0071
2586.00,0.0071
2585.00,0.0071
2584.00,0.0071
2583.00,0.0071
2582.00,0.0071
2581.00,0.0071
2580.00,0.0072
2579.00,0.0072
2578.00,0.0073
2577.00,0.0073
2576.00,0.0074
2575.00,0.0073
2574.00,0.0073
2573.00,0.0073
2572.00,0.0073
2571.00,0.0073
2570.00,0.0073
2569.00,0.0072
2568.00,0.0072
2567.00,0.0071
2566.00,0.0071
2565.00,0.0071
2564.00,0.0071
2563.00,0.0071
2562.00,0.0072
2561.00,0.0072
2560.00,0.0072
2559.00,0.0071
2558.00,0.0070
2557.00,0.0070
2556.00,0.0070
2555.00,0.0071
2554.00,0.0071
2553.00,0.0072
2552.00,0.0072
2551.00,0.0071
2550.00,0.0071
2549.00,0.0071
2548.00,0.0072
2547.00,0.0072
2546.00,0.0071
2545.00,0.0071
2544.00,0.0071
2543.00,0.0071
2542.00,0.0071
2541.00,0.0071
2540.00,0.0071
2539.00,0.0071
2538.00,0.0071
2537.00,0.0071
2536.00,0.0071
2535.00,0.0071
2534.00,0.0070
2533.00,0.0070
2532.00,0.0070
2531.00,0.0070
2530.00,0.0070
2529.00,0.0070
2528.00,0.0070
2527.00,0.0070
2526.00,0.0070
2525.00,0.0070
2524.00,0.0071
2523.00,0.0071
2522.00,0.0071
2521.00,0.0071
2520.00,0.0071
2519.00,0.0070
2518.00,0.0070
2517.00,0.0069
2516.00,0.0069
2515.00,0.0069
2514.00,0.0069
2513.00,0.0069
2512.00,0.0069
2511.00,0.0069
2510.00,0.0069
2509.00,0.0069
2508.00,0.0070
2507.00,0.0070
2506.00,0.0070
2505.00,0.0070
2504.00,0.0070
2503.00,0.0071
2502.00,0.0071
2501.00,0.0070
2500.00,0.0070
2499.00,0.0070
2498.00,0.0069
2497.00,0.0070
2496.00,0.0070
2495.00,0.0070
2494.00,0.0070
2493.00,0.0071
2492.00,0.0070
2491.00,0.0070
2490.00,0.0070
2489.00,0.0069
2488.00,0.0069
2487.00,0.0069
2486.00,0.0069
2485.00,0.0069
2484.00,0.0068
2483.00,0.0068
2482.00,0.0068
2481.00,0.0068
2480.00,0.0069
2479.00,0.0069
2478.00,0.0069
2477.00,0.0069
2476.00,0.0069
2475.00,0.0069
2474.00,0.0069
2473.00,0.0069
2472.00,0.0069
2471.00,0.0068
2470.00,0.0068
2469.00,0.0068
2468.00,0.0068
2467.00,0.0068
2466.00,0.0069
2465.00,0.0069
2464.00,0.0070
2463.00,0.0070
2462.00,0.0070
2461.00,0.0069
2460.00,0.0069
2459.00,0.0069
2458.00,0.0068
2457.00,0.0069
2456.00,0.0069
2455.00,0.0069
2454.00,0.0068
2453.00,0.0068
2452.00,0.0069
2451.00,0.0068
2450.00,0.0068
2449.00,0.0068
2448.00,0.0068
2447.00,0.0068
2446.00,0.0068
2445.00,0.0068
2444.00,0.0068
2443.00,0.0069
2442.00,0.0069
2441.00,0.0069
2440.00,0.0068
2439.00,0.0068
2438.00,0.0067
2437.00,0.0067
2436.00,0.0067
2435.00,0.0067
2434.00,0.0068
2433.00,0.0068
2432.00,0.0069
2431.00,0.0069
2430.00,0.0068
2429.00,0.0068
2428.00,0.0068
2427.00,0.0068
2426.00,0.0068
2425.00,0.0068
2424.00,0.0069
2423.00,0.0068
2422.00,0.0068
2421.00,0.0067
2420.00,0.0067
2419.00,0.0067
2418.00,0.0067
2417.00,0.0067
2416.00,0.0067
2415.00,0.0066
2414.00,0.0066
2413.00,0.0067
2412.00,0.0067
2411.00,0.0067
2410.00,0.0067
2409.00,0.0067
2408.00,0.0067
2407.00,0.0067
2406.00,0.0067
2405.00,0.0067
2404.00,0.0067
2403.00,0.0067
2402.00,0.0067
2401.00,0.0067
2400.00,0.0067
2399.00,0.0067
2398.00,0.0067
2397.00,0.0067
2396.00,0.0067
2395.00,0.0067
2394.00,0.0067
2393.00,0.0067
2392.00,0.0068
2391.00,0.0068
2390.00,0.0068
2389.00,0.0068
2388.00,0.0067
2387.00,0.0067
2386.00,0.0067
2385.00,0.0067
2384.00,0.0067
2383.00,0.0067
2382.00,0.0067
2381.00,0.0067
2380.00,0.0068
2379.00,0.0068
2378.00,0.0068
2377.00,0.0067
2376.00,0.0067
2375.00,0.0067
2374.00,0.0067
2373.00,0.0067
2372.00,0.0067
2371.00,0.0067
2370.00,0.0067
2369.00,0.0066
2368.00,0.0066
2367.00,0.0067
2366.00,0.0067
2365.00,0.0067
2364.00,0.0068
2363.00,0.0067
2362.00,0.0067
2361.00,0.0067
2360.00,0.0067
2359.00,0.0066
2358.00,0.0066
2357.00,0.0067
2356.00,0.0067
2355.00,0.0067
2354.00,0.0068
2353.00,0.0068
2352.00,0.0067
2351.00,0.0067
2350.00,0.0066
2349.00,0.0066
2348.00,0.0065
2347.00,0.0065
2346.00,0.0065
2345.00,0.0065
2344.00,0.0065
2343.00,0.0065
2342.00,0.0065
2341.00,0.0066
2340.00,0.0066
2339.00,0.0066
2338.00,0.0067
2337.00,0.0067
2336.00,0.0067
2335.00,0.0067
2334.00,0.0068
2333.00,0.0068
2332.00,0.0068
2331.00,0.0068
2330.00,0.0068
2329.00,0.0067
2328.00,0.0067
2327.00,0.0066
2326.00,0.0066
2325.00,0.0066
2324.00,0.0066
2323.00,0.0066
2322.00,0.0066
2321.00,0.0066
2320.00,0.0066
2319.00,0.0066
2318.00,0.0066
2317.00,0.0067
2316.00,0.0066
2315.00,0.0066
2314.00,0.0066
2313.00,0.0066
2312.00,0.0066
2311.00,0.0065
2310.00,0.0065
2309.00,0.0065
2308.00,0.0065
2307.00,0.0065
2306.00,0.0065
2305.00,0.0065
2304.00,0.0065
2303.00,0.0065
2302.00,0.0064
2301.00,0.0064
2300.00,0.0064
2299.00,0.0064
2298.00,0.0064
2297.00,0.0064
2296.00,0.0063
2295.00,0.0063
2294.00,0.0063
2293.00,0.0064
2292.00,0.0064
2291.00,0.0064
2290.00,0.0063
2289.00,0.0063
2288.00,0.0062
2287.00,0.0062
2286.00,0.0062
2285.00,0.0062
2284.00,0.0062
2283.00,0.0062
2282.00,0.0062
2281.00,0.0063
2280.00,0.0063
2279.00,0.0063
2278.00,0.0063
2277.00,0.0062
2276.00,0.0061
2275.00,0.0061
2274.00,0.0060
2273.00,0.0061
2272.00,0.0062
2271.00,0.0062
2270.00,0.0063
2269.00,0.0062
2268.00,0.0061
2267.00,0.0060
2266.00,0.0060
2265.00,0.0060
2264.00,0.0061
2263.00,0.0061
2262.00,0.0062
2261.00,0.0062
2260.00,0.0063
2259.00,0.0062
2258.00,0.0062
2257.00,0.0062
2256.00,0.0063
2255.00,0.0063
2254.00,0.0063
2253.00,0.0062
2252.00,0.0062
2251.00,0.0061
2250.00,0.0060
2249.00,0.0060
2248.00,0.0061
2247.00,0.0061
2246.00,0.0062
2245.00,0.0061
2244.00,0.0060
2243.00,0.0059
2242.00,0.0059
2241.00,0.0059
2240.00,0.0060
2239.00,0.0062
2238.00,0.0063
2237.00,0.0063
2236.00,0.0063
2235.00,0.0063
2234.00,0.0062
2233.00,0.0062
2232.00,0.0062
2231.00,0.0062
2230.00,0.0063
2229.00,0.0063
2228.00,0.0062
2227.00,0.0060
2226.00,0.0059
2225.00,0.0058
2224.00,0.0058
2223.00,0.0058
2222.00,0.0058
2221.00,0.0058
2220.00,0.0059
2219.00,0.0059
2218.00,0.0059
2217.00,0.0059
2216.00,0.0060
2215.00,0.0060
2214.00,0.0059
2213.00,0.0059
2212.00,0.0058
2211.00,0.0058
2210.00,0.0059
2209.00,0.0060
2208.00,0.0061
2207.00,0.0061
2206.00,0.0061
2205.00,0.0061
2204.00,0.0059
2203.00,0.0058
2202.00,0.0057
2201.00,0.0057
2200.00,0.0057
2199.00,0.0056
2198.00,0.0056
2197.00,0.0056
2196.00,0.0056
2195.00,0.0056
2194.00,0.0056
2193.00,0.0056
2192.00,0.0056
2191.00,0.0057
2190.00,0.0057
2189.00,0.0058
2188.00,0.0058
2187.00,0.0058
2186.00,0.0058
2185.00,0.0061
2184.00,0.0064
2183.00,0.0066
2182.00,0.0067
2181.00,0.0066
2180.00,0.0066
2179.00,0.0065
2178.00,0.0065
2177.00,0.0064
2176.00,0.0062
2175.00,0.0061
2174.00,0.0061
2173.00,0.0062
2172.00,0.0064
2171.00,0.0064
2170.00,0.0063
2169.00,0.0061
2168.00,0.0060
2167.00,0.0059
2166.00,0.0058
2165.00,0.0058
2164.00,0.0058
2163.00,0.0058
2162.00,0.0059
2161.00,0.0060
2160.00,0.0062
2159.00,0.0063
2158.00,0.0062
2157.00,0.0059
2156.00,0.0057
2155.00,0.0055
2154.00,0.0055
2153.00,0.0056
2152.00,0.0057
2151.00,0.0058
2150.00,0.0059
2149.00,0.0060
2148.00,0.0061
2147.00,0.0061
2146.00,0.0060
2145.00,0.0060
2144.00,0.0060
2143.00,0.0060
2142.00,0.0060
2141.00,0.0060
2140.00,0.0059
2139.00,0.0059
2138.00,0.0060
2137.00,0.0061
2136.00,0.0061
2135.00,0.0061
2134.00,0.0060
2133.00,0.0060
2132.00,0.0059
2131.00,0.0060
2130.00,0.0060
2129.00,0.0060
2128.00,0.0060
2127.00,0.0059
2126.00,0.0060
2125.00,0.0060
2124.00,0.0060
2123.00,0.0060
2122.00,0.0060
2121.00,0.0061
2120.00,0.0061
2119.00,0.0060
2118.00,0.0060
2117.00,0.0059
2116.00,0.0059
2115.00,0.0060
2114.00,0.0060
2113.00,0.0059
2112.00,0.0058
2111.00,0.0057
2110.00,0.0057
2109.00,0.0058
2108.00,0.0059
2107.00,0.0059
2106.00,0.0059
2105.00,0.0059
2104.00,0.0059
2103.00,0.0060
2102.00,0.0060
2101.00,0.0060
2100.00,0.0060
2099.00,0.0060
2098.00,0.0060
2097.00,0.0060
2096.00,0.0060
2095.00,0.0060
2094.00,0.0059
2093.00,0.0058
2092.00,0.0058
2091.00,0.0058
2090.00,0.0058
2089.00,0.0058
2088.00,0.0058
2087.00,0.0058
2086.00,0.0059
2085.00,0.0059
2084.00,0.0060
2083.00,0.0061
2082.00,0.0061
2081.00,0.0061
2080.00,0.0061
2079.00,0.0060
2078.00,0.0059
2077.00,0.0059
2076.00,0.0058
2075.00,0.0058
2074.00,0.0057
2073.00,0.0056
2072.00,0.0057
2071.00,0.0058
2070.00,0.0058
2069.00,0.0057
2068.00,0.0055
2067.00,0.0054
2066.00,0.0054
2065.00,0.0054
2064.00,0.0056
2063.00,0.0058
2062.00,0.0059
2061.00,0.0059
2060.00,0.0059
2059.00,0.0059
2058.00,0.0059
2057.00,0.0058
2056.00,0.0057
2055.00,0.0055
2054.00,0.0054
2053.00,0.0053
2052.00,0.0054
2051.00,0.0055
2050.00,0.0057
2049.00,0.0058
2048.00,0.0058
2047.00,0.0057
2046.00,0.0055
2045.00,0.0054
2044.00,0.0053
2043.00,0.0054
2042.00,0.0055
2041.00,0.0055
2040.00,0.0055
2039.00,0.0054
2038.00,0.0054
2037.00,0.0054
2036.00,0.0053
2035.00,0.0053
2034.00,0.0055
2033.00,0.0056
2032.00,0.0057
2031.00,0.0056
2030.00,0.0054
2029.00,0.0054
2028.00,0.0054
2027.00,0.0054
2026.00,0.0055
2025.00,0.0055
2024.00,0.0054
2023.00,0.0055
2022.00,0.0056
2021.00,0.0058
2020.00,0.0058
2019.00,0.0058
2018.00,0.0056
2017.00,0.0054
2016.00,0.0053
2015.00,0.0053
2014.00,0.0052
2013.00,0.0052
2012.00,0.0051
2011.00,0.0050
2010.00,0.0051
2009.00,0.0053
2008.00,0.0056
2007.00,0.0057
2006.00,0.0056
2005.00,0.0054
2004.00,0.0052
2003.00,0.0051
2002.00,0.0051
2001.00,0.0051
2000.00,0.0052
1999.00,0.0054
1998.00,0.0056
1997.00,0.0057
1996.00,0.0057
1995.00,0.0057
1994.00,0.0057
1993.00,0.0057
1992.00,0.0057
1991.00,0.0057
1990.00,0.0057
1989.00,0.0057
1988.00,0.0057
1987.00,0.0057
1986.00,0.0057
1985.00,0.0056
1984.00,0.0055
1983.00,0.0055
1982.00,0.0054
1981.00,0.0053
1980.00,0.0051
1979.00,0.0049
1978.00,0.0048
1977.00,0.0048
1976.00,0.0050
1975.00,0.0052
1974.00,0.0053
1973.00,0.0054
1972.00,0.0053
1971.00,0.0052
1970.00,0.0053
1969.00,0.0055
1968.00,0.0057
1967.00,0.0058
1966.00,0.0057
1965.00,0.0055
1964.00,0.0055
1963.00,0.0055
1962.00,0.0054
1961.00,0.0053
1960.00,0.0052
1959.00,0.0052
1958.00,0.0052
1957.00,0.0052
1956.00,0.0053
1955.00,0.0054
1954.00,0.0054
1953.00,0.0053
1952.00,0.0053
1951.00,0.0054
1950.00,0.0055
1949.00,0.0055
1948.00,0.0055
1947.00,0.0055
1946.00,0.0055
1945.00,0.0056
1944.00,0.0056
1943.00,0.0056
1942.00,0.0054
1941.00,0.0052
1940.00,0.0051
1939.00,0.0051
1938.00,0.0052
1937.00,0.0052
1936.00,0.0051
1935.00,0.0051
1934.00,0.0050
1933.00,0.0050
1932.00,0.0050
1931.00,0.0050
1930.00,0.0050
1929.00,0.0051
1928.00,0.0052
1927.00,0.0052
1926.00,0.0053
1925.00,0.0053
1924.00,0.0053
1923.00,0.0053
1922.00,0.0052
1921.00,0.0051
1920.00,0.0051
1919.00,0.0051
1918.00,0.0051
1917.00,0.0050
1916.00,0.0051
1915.00,0.0051
1914.00,0.0052
1913.00,0.0052
1912.00,0.0051
1911.00,0.0051
1910.00,0.0050
1909.00,0.0050
1908.00,0.0050
1907.00,0.0050
1906.00,0.0050
1905.00,0.0051
1904.00,0.0051
1903.00,0.0051
1902.00,0.0051
1901.00,0.0051
1900.00,0.0050
1899.00,0.0050
1898.00,0.0051
1897.00,0.0051
1896.00,0.0051
1895.00,0.0051
1894.00,0.0051
1893.00,0.0051
1892.00,0.0051
1891.00,0.0051
1890.00,0.0050
1889.00,0.0049
1888.00,0.0048
1887.00,0.0048
1886.00,0.0048
1885.00,0.0048
1884.00,0.0049
1883.00,0.0049
1882.00,0.0048
1881.00,0.0048
1880.00,0.0048
1879.00,0.0049
1878.00,0.0049
1877.00,0.0050
1876.00,0.0050
1875.00,0.0050
1874.00,0.0049
1873.00,0.0049
1872.00,0.0050
1871.00,0.0050
1870.00,0.0050
1869.00,0.0049
1868.00,0.0049
1867.00,0.0048
1866.00,0.0048
1865.00,0.0047
1864.00,0.0047
1863.00,0.0047
1862.00,0.0047
1861.00,0.0047
1860.00,0.0047
1859.00,0.0048
1858.00,0.0048
1857.00,0.0048
1856.00,0.0048
1855.00,0.0048
1854.00,0.0048
1853.00,0.0047
1852.00,0.0047
1851.00,0.0046
1850.00,0.0046
1849.00,0.0046
1848.00,0.0046
1847.00,0.0047
1846.00,0.0047
1845.00,0.0047
1844.00,0.0046
1843.00,0.0045
1842.00,0.0045
1841.00,0.0045
1840.00,0.0045
1839.00,0.0045
1838.00,0.0045
1837.00,0.0045
1836.00,0.0045
1835.00,0.0045
1834.00,0.0046
1833.00,0.0046
1832.00,0.0047
1831.00,0.0045
1830.00,0.0044
1829.00,0.0045
1828.00,0.0045
1827.00,0.0045
1826.00,0.0045
1825.00,0.0045
1824.00,0.0045
1823.00,0.0045
1822.00,0.0044
1821.00,0.0044
1820.00,0.0044
1819.00,0.0044
1818.00,0.0044
1817.00,0.0044
1816.00,0.0044
1815.00,0.0044
1814.00,0.0044
1813.00,0.0045
1812.00,0.0045
1811.00,0.0044
1810.00,0.0044
1809.00,0.0044
1808.00,0.0044
1807.00,0.0043
1806.00,0.0043
1805.00,0.0043
1804.00,0.0042
1803.00,0.0042
1802.00,0.0042
1801.00,0.0041
1800.00,0.0041
1799.00,0.0041
1798.00,0.0041
1797.00,0.0042
1796.00,0.0042
1795.00,0.0042
1794.00,0.0043
1793.00,0.0043
1792.00,0.0042
1791.00,0.0041
1790.00,0.0040
1789.00,0.0040
1788.00,0.0040
1787.00,0.0040
1786.00,0.0039
1785.00,0.0039
1784.00,0.0039
1783.00,0.0040
1782.00,0.0040
1781.00,0.0039
1780.00,0.0038
1779.00,0.0038
1778.00,0.0038
1777.00,0.0039
1776.00,0.0039
1775.00,0.0040
1774.00,0.0040
1773.00,0.0040
1772.00,0.0038
1771.00,0.0036
1770.00,0.0035
1769.00,0.0035
1768.00,0.0036
1767.00,0.0036
1766.00,0.0037
1765.00,0.0037
1764.00,0.0037
1763.00,0.0036
1762.00,0.0036
1761.00,0.0036
1760.00,0.0036
1759.00,0.0036
1758.00,0.0035
1757.00,0.0035
1756.00,0.0035
1755.00,0.0034
1754.00,0.0034
1753.00,0.0035
1752.00,0.0036
1751.00,0.0036
1750.00,0.0036
1749.00,0.0037
1748.00,0.0037
1747.00,0.0037
1746.00,0.0037
1745.00,0.0038
1744.00,0.0038
1743.00,0.0038
1742.00,0.0037
1741.00,0.0038
1740.00,0.0037
1739.00,0.0036
1738.00,0.0035
1737.00,0.0035
1736.00,0.0035
1735.00,0.0035
1734.00,0.0033
1733.00,0.0032
1732.00,0.0033
1731.00,0.0035
1730.00,0.0035
1729.00,0.0035
1728.00,0.0035
1727.00,0.0035
1726.00,0.0035
1725.00,0.0035
1724.00,0.0035
1723.00,0.0034
1722.00,0.0034
1721.00,0.0034
1720.00,0.0035
1719.00,0.0035
1718.00,0.0034
1717.00,0.0033
1716.00,0.0032
1715.00,0.0032
1714.00,0.0032
1713.00,0.0033
1712.00,0.0035
1711.00,0.0036
1710.00,0.0037
1709.00,0.0038
1708.00,0.0040
1707.00,0.0042
1706.00,0.0043
1705.00,0.0045
1704.00,0.0046
1703.00,0.0049
1702.00,0.0052
1701.00,0.0056
1700.00,0.0061
1699.00,0.0066
1698.00,0.0070
1697.00,0.0073
1696.00,0.0074
1695.00,0.0074
1694.00,0.0077
1693.00,0.0079
1692.00,0.0082
1691.00,0.0085
1690.00,0.0088
1689.00,0.0090
1688.00,0.0092
1687.00,0.0094
1686.00,0.0098
1685.00,0.0103
1684.00,0.0107
1683.00,0.0111
1682.00,0.0115
1681.00,0.0118
1680.00,0.0120
1679.00,0.0122
1678.00,0.0124
1677.00,0.0127
1676.00,0.0131
1675.00,0.0136
1674.00,0.0141
1673.00,0.0146
1672.00,0.0150
1671.00,0.0154
1670.00,0.0159
1669.00,0.0164
1668.00,0.0169
1667.00,0.0173
1666.00,0.0177
1665.00,0.0180
1664.00,0.0185
1663.00,0.0191
1662.00,0.0196
1661.00,0.0201
1660.00,0.0206
1659.00,0.0209
1658.00,0.0211
1657.00,0.0212
1656.00,0.0212
1655.00,0.0213
1654.00,0.0218
1653.00,0.0226
1652.00,0.0234
1651.00,0.0239
1650.00,0.0239
1649.00,0.0239
1648.00,0.0239
1647.00,0.0241
1646.00,0.0244
1645.00,0.0246
1644.00,0.0246
1643.00,0.0246
1642.00,0.0245
1641.00,0.0245
1640.00,0.0245
1639.00,0.0244
1638.00,0.0244
1637.00,0.0245
1636.00,0.0247
1635.00,0.0250
1634.00,0.0253
1633.00,0.0254
1632.00,0.0254
1631.00,0.0255
1630.00,0.0256
1629.00,0.0260
1628.00,0.0263
1627.00,0.0267
1626.00,0.0269
1625.00,0.0272
1624.00,0.0276
1623.00,0.0281
1622.00,0.0284
1621.00,0.0284
1620.00,0.0283
1619.00,0.0281
1618.00,0.0280
1617.00,0.0280
1616.00,0.0280
1615.00,0.0278
1614.00,0.0273
1613.00,0.0266
1612.00,0.0259
1611.00,0.0252
1610.00,0.0246
1609.00,0.0239
1608.00,0.0232
1607.00,0.0225
1606.00,0.0218
1605.00,0.0212
1604.00,0.0207
1603.00,0.0202
1602.00,0.0197
1601.00,0.0192
1600.00,0.0188
1599.00,0.0184
1598.00,0.0181
1597.00,0.0177
1596.00,0.0174
1595.00,0.0170
1594.00,0.0167
1593.00,0.0164
1592.00,0.0160
1591.00,0.0158
1590.00,0.0156
1589.00,0.0154
1588.00,0.0152
1587.00,0.0150
1586.00,0.0148
1585.00,0.0147
1584.00,0.0145
1583.00,0.0143
1582.00,0.0142
1581.00,0.0140
1580.00,0.0138
1579.00,0.0136
1578.00,0.0135
1577.00,0.0133
1576.00,0.0132
1575.00,0.0132
1574.00,0.0132
1573.00,0.0132
1572.00,0.0132
1571.00,0.0133
1570.00,0.0135
1569.00,0.0135
1568.00,0.0136
1567.00,0.0137
1566.00,0.0139
1565.00,0.0140
1564.00,0.0141
1563.00,0.0141
1562.00,0.0141
1561.00,0.0143
1560.00,0.0148
1559.00,0.0155
1558.00,0.0161
1557.00,0.0167
1556.00,0.0170
1555.00,0.0173
1554.00,0.0177
1553.00,0.0181
1552.00,0.0185
1551.00,0.0189
1550.00,0.0193
1549.00,0.0197
1548.00,0.0199
1547.00,0.0202
1546.00,0.0204
1545.00,0.0207
1544.00,0.0210
1543.00,0.0213
1542.00,0.0217
1541.00,0.0221
1540.00,0.0225
1539.00,0.0228
1538.00,0.0231
1537.00,0.0231
1536.00,0.0230
1535.00,0.0231
1534.00,0.0233
1533.00,0.0235
1532.00,0.0237
1531.00,0.0238
1530.00,0.0238
1529.00,0.0238
1528.00,0.0239
1527.00,0.0240
1526.00,0.0242
1525.00,0.0244
1524.00,0.0245
1523.00,0.0246
1522.00,0.0248
1521.00,0.0251
1520.00,0.0255
1519.00,0.0258
1518.00,0.0260
1517.00,0.0263
1516.00,0.0264
1515.00,0.0264
1514.00,0.0263
1513.00,0.0261
1512.00,0.0259
1511.00,0.0256
1510.00,0.0253
1509.00,0.0249
1508.00,0.0247
1507.00,0.0244
1506.00,0.0242
1505.00,0.0240
1504.00,0.0237
1503.00,0.0232
1502.00,0.0227
1501.00,0.0222
1500.00,0.0217
1499.00,0.0212
1498.00,0.0208
1497.00,0.0203
1496.00,0.0199
1495.00,0.0196
1494.00,0.0192
1493.00,0.0187
1492.00,0.0182
1491.00,0.0178
1490.00,0.0174
1489.00,0.0170
1488.00,0.0166
1487.00,0.0162
1486.00,0.0158
1485.00,0.0155
1484.00,0.0151
1483.00,0.0149
1482.00,0.0146
1481.00,0.0143
1480.00,0.0141
1479.00,0.0139
1478.00,0.0138
1477.00,0.0137
1476.00,0.0136
1475.00,0.0136
1474.00,0.0136
1473.00,0.0138
1472.00,0.0139
1471.00,0.0141
1470.00,0.0142
1469.00,0.0143
1468.00,0.0143
1467.00,0.0143
1466.00,0.0144
1465.00,0.0144
1464.00,0.0145
1463.00,0.0146
1462.00,0.0146
1461.00,0.0147
1460.00,0.0147
1459.00,0.0148
1458.00,0.0149
1457.00,0.0151
1456.00,0.0155
1455.00,0.0158
1454.00,0.0161
1453.00,0.0162
1452.00,0.0162
1451.00,0.0162
1450.00,0.0162
1449.00,0.0163
1448.00,0.0163
1447.00,0.0164
1446.00,0.0164
1445.00,0.0163
1444.00,0.0162
1443.00,0.0160
1442.00,0.0158
1441.00,0.0156
1440.00,0.0153
1439.00,0.0150
1438.00,0.0147
1437.00,0.0145
1436.00,0.0144
1435.00,0.0144
1434.00,0.0144
1433.00,0.0143
1432.00,0.0141
1431.00,0.0140
1430.00,0.0138
1429.00,0.0137
1428.00,0.0135
1427.00,0.0134
1426.00,0.0134
1425.00,0.0134
1424.00,0.0134
1423.00,0.0133
1422.00,0.0132
1421.00,0.0131
1420.00,0.0130
1419.00,0.0132
1418.00,0.0133
1417.00,0.0135
1416.00,0.0136
1415.00,0.0137
1414.00,0.0137
1413.00,0.0138
1412.00,0.0138
1411.00,0.0138
1410.00,0.0139
1409.00,0.0139
1408.00,0.0139
1407.00,0.0139
1406.00,0.0139
1405.00,0.0139
1404.00,0.0139
1403.00,0.0138
1402.00,0.0138
1401.00,0.0137
1400.00,0.0137
1399.00,0.0137
1398.00,0.0138
1397.00,0.0137
1396.00,0.0137
1395.00,0.0137
1394.00,0.0136
1393.00,0.0137
1392.00,0.0137
1391.00,0.0137
1390.00,0.0137
1389.00,0.0137
1388.00,0.0137
1387.00,0.0138
1386.00,0.0139
1385.00,0.0139
1384.00,0.0140
1383.00,0.0140
1382.00,0.0140
1381.00,0.0139
1380.00,0.0139
1379.00,0.0139
1378.00,0.0139
1377.00,0.0139
1376.00,0.0139
1375.00,0.0138
1374.00,0.0137
1373.00,0.0136
1372.00,0.0135
1371.00,0.0135
1370.00,0.0135
1369.00,0.0134
1368.00,0.0133
1367.00,0.0133
1366.00,0.0132
1365.00,0.0131
1364.00,0.0129
1363.00,0.0129
1362.00,0.0128
1361.00,0.0128
1360.00,0.0127
1359.00,0.0127
1358.00,0.0126
1357.00,0.0125
1356.00,0.0125
1355.00,0.0124
1354.00,0.0124
1353.00,0.0123
1352.00,0.0123
1351.00,0.0123
1350.00,0.0123
1349.00,0.0124
1348.00,0.0124
1347.00,0.0124
1346.00,0.0124
1345.00,0.0124
1344.00,0.0124
1343.00,0.0125
1342.00,0.0125
1341.00,0.0125
1340.00,0.0125
1339.00,0.0125
1338.00,0.0125
1337.00,0.0125
1336.00,0.0126
1335.00,0.0126
1334.00,0.0126
1333.00,0.0126
1332.00,0.0126
1331.00,0.0126
1330.00,0.0126
1329.00,0.0126
1328.00,0.0125
1327.00,0.0125
1326.00,0.0125
1325.00,0.0125
1324.00,0.0125
1323.00,0.0125
1322.00,0.0125
1321.00,0.0125
1320.00,0.0124
1319.00,0.0124
1318.00,0.0124
1317.00,0.0125
1316.00,0.0125
1315.00,0.0126
1314.00,0.0127
1313.00,0.0128
1312.00,0.0128
1311.00,0.0128
1310.00,0.0129
1309.00,0.0129
1308.00,0.0129
1307.00,0.0130
1306.00,0.0130
1305.00,0.0130
1304.00,0.0130
1303.00,0.0130
1302.00,0.0131
1301.00,0.0131
1300.00,0.0131
1299.00,0.0130
1298.00,0.0130
1297.00,0.0129
1296.00,0.0128
1295.00,0.0128
1294.00,0.0127
1293.00,0.0127
1292.00,0.0126
1291.00,0.0125
1290.00,0.0125
1289.00,0.0125
1288.00,0.0125
1287.00,0.0125
1286.00,0.0125
1285.00,0.0125
1284.00,0.0125
1283.00,0.0125
1282.00,0.0125
1281.00,0.0125
1280.00,0.0124
1279.00,0.0124
1278.00,0.0124
1277.00,0.0124
1276.00,0.0125
1275.00,0.0125
1274.00,0.0125
1273.00,0.0125
1272.00,0.0125
1271.00,0.0125
1270.00,0.0126
1269.00,0.0126
1268.00,0.0127
1267.00,0.0127
1266.00,0.0128
1265.00,0.0128
1264.00,0.0129
1263.00,0.0130
1262.00,0.0131
1261.00,0.0131
1260.00,0.0132
1259.00,0.0132
1258.00,0.0133
1257.00,0.0134
1256.00,0.0134
1255.00,0.0135
1254.00,0.0135
1253.00,0.0136
1252.00,0.0137
1251.00,0.0138
1250.00,0.0138
1249.00,0.0139
1248.00,0.0140
1247.00,0.0141
1246.00,0.0142
1245.00,0.0143
1244.00,0.0143
1243.00,0.0144
1242.00,0.0145
1241.00,0.0146
1240.00,0.0147
1239.00,0.0148
1238.00,0.0148
1237.00,0.0149
1236.00,0.0149
1235.00,0.0149
1234.00,0.0149
1233.00,0.0149
1232.00,0.0148
1231.00,0.0148
1230.00,0.0147
1229.00,0.0147
1228.00,0.0146
1227.00,0.0146
1226.00,0.0146
1225.00,0.0146
1224.00,0.0146
1223.00,0.0145
1222.00,0.0145
1221.00,0.0145
1220.00,0.0144
1219.00,0.0145
1218.00,0.0145
1217.00,0.0145
1216.00,0.0144
1215.00,0.0143
1214.00,0.0141
1213.00,0.0139
1212.00,0.0137
1211.00,0.0135
1210.00,0.0133
1209.00,0.0131
1208.00,0.0129
1207.00,0.0127
1206.00,0.0126
1205.00,0.0124
1204.00,0.0122
1203.00,0.0120
1202.00,0.0118
1201.00,0.0117
1200.00,0.0116
1199.00,0.0115
1198.00,0.0114
1197.00,0.0114
1196.00,0.0113
1195.00,0.0113
1194.00,0.0112
1193.00,0.0112
1192.00,0.0112
1191.00,0.0111
1190.00,0.0111
1189.00,0.0110
1188.00,0.0110
1187.00,0.0109
1186.00,0.0109
1185.00,0.0109
1184.00,0.0109
1183.00,0.0109
1182.00,0.0109
1181.00,0.0109
1180.00,0.0109
1179.00,0.0109
1178.00,0.0110
1177.00,0.0111
1176.00,0.0111
1175.00,0.0111
1174.00,0.0112
1173.00,0.0112
1172.00,0.0113
1171.00,0.0113
1170.00,0.0113
1169.00,0.0114
1168.00,0.0114
1167.00,0.0114
1166.00,0.0114
1165.00,0.0113
1164.00,0.0113
1163.00,0.0113
1162.00,0.0114
1161.00,0.0114
1160.00,0.0114
1159.00,0.0113
1158.00,0.0113
1157.00,0.0113
1156.00,0.0112
1155.00,0.0112
1154.00,0.0112
1153.00,0.0111
1152.00,0.0110
1151.00,0.0109
1150.00,0.0108
1149.00,0.0107
1148.00,0.0106
1147.00,0.0105
1146.00,0.0104
1145.00,0.0104
1144.00,0.0103
1143.00,0.0103
1142.00,0.0103
1141.00,0.0103
1140.00,0.0104
1139.00,0.0105
1138.00,0.0105
1137.00,0.0105
1136.00,0.0105
1135.00,0.0105
1134.00,0.0106
1133.00,0.0106
1132.00,0.0107
1131.00,0.0108
1130.00,0.0108
1129.00,0.0109
1128.00,0.0108
1127.00,0.0108
1126.00,0.0108
1125.00,0.0109
1124.00,0.0109
1123.00,0.0109
1122.00,0.0109
1121.00,0.0110
1120.00,0.0109
1119.00,0.0109
1118.00,0.0109
1117.00,0.0109
1116.00,0.0109
1115.00,0.0109
1114.00,0.0109
1113.00,0.0109
1112.00,0.0110
1111.00,0.0110
1110.00,0.0110
1109.00,0.0110
1108.00,0.0109
1107.00,0.0109
1106.00,0.0109
1105.00,0.0109
1104.00,0.0109
1103.00,0.0110
1102.00,0.0111
1101.00,0.0112
1100.00,0.0112
1099.00,0.0112
1098.00,0.0112
1097.00,0.0112
1096.00,0.0112
1095.00,0.0112
1094.00,0.0113
1093.00,0.0114
1092.00,0.0114
1091.00,0.0115
1090.00,0.0116
1089.00,0.0117
1088.00,0.0117
1087.00,0.0118
1086.00,0.0119
1085.00,0.0122
1084.00,0.0124
1083.00,0.0126
1082.00,0.0128
1081.00,0.0129
1080.00,0.0131
1079.00,0.0132
1078.00,0.0134
1077.00,0.0135
1076.00,0.0136
1075.00,0.0137
1074.00,0.0138
1073.00,0.0139
1072.00,0.0139
1071.00,0.0139
1070.00,0.0140
1069.00,0.0141
1068.00,0.0141
1067.00,0.0142
1066.00,0.0143
1065.00,0.0143
1064.00,0.0143
1063.00,0.0143
1062.00,0.0143
1061.00,0.0143
1060.00,0.0143
1059.00,0.0143
1058.00,0.0143
1057.00,0.0143
1056.00,0.0142
1055.00,0.0141
1054.00,0.0140
1053.00,0.0140
1052.00,0.0139
1051.00,0.0138
1050.00,0.0138
1049.00,0.0137
1048.00,0.0136
1047.00,0.0135
1046.00,0.0135
1045.00,0.0133
1044.00,0.0131
1043.00,0.0129
1042.00,0.0128
1041.00,0.0126
1040.00,0.0124
1039.00,0.0122
1038.00,0.0120
1037.00,0.0118
1036.00,0.0116
1035.00,0.0115
1034.00,0.0115
1033.00,0.0114
1032.00,0.0113
1031.00,0.0113
1030.00,0.0112
1029.00,0.0112
1028.00,0.0111
1027.00,0.0111
1026.00,0.0111
1025.00,0.0112
1024.00,0.0112
1023.00,0.0112
1022.00,0.0112
1021.00,0.0112
1020.00,0.0111
1019.00,0.0110
1018.00,0.0109
1017.00,0.0108
1016.00,0.0107
1015.00,0.0106
1014.00,0.0106
1013.00,0.0105
1012.00,0.0103
1011.00,0.0102
1010.00,0.0101
1009.00,0.0101
1008.00,0.0100
1007.00,0.0100
1006.00,0.0100
1005.00,0.0099
1004.00,0.0098
1003.00,0.0097
1002.00,0.0097
1001.00,0.0096
1000.00,0.0094
999.00,0.0093
998.00,0.0092
997.00,0.0092
996.00,0.0092
995.00,0.0091
994.00,0.0091
993.00,0.0091
992.00,0.0091
991.00,0.0091
990.00,0.0091
989.00,0.0091
988.00,0.0090
987.00,0.0088
986.00,0.0088
985.00,0.0088
984.00,0.0087
983.00,0.0087
982.00,0.0087
981.00,0.0086
980.00,0.0086
979.00,0.0086
978.00,0.0086
977.00,0.0085
976.00,0.0085
975.00,0.0085
974.00,0.0085
973.00,0.0086
972.00,0.0086
971.00,0.0086
970.00,0.0087
969.00,0.0088
968.00,0.0089
967.00,0.0090
966.00,0.0090
965.00,0.0090
964.00,0.0090
963.00,0.0090
962.00,0.0090
961.00,0.0090
960.00,0.0089
959.00,0.0088
958.00,0.0088
957.00,0.0087
956.00,0.0086
955.00,0.0085
954.00,0.0084
953.00,0.0083
952.00,0.0082
951.00,0.0081
950.00,0.0081
949.00,0.0080
948.00,0.0080
947.00,0.0079
946.00,0.0079
945.00,0.0079
944.00,0.0079
943.00,0.0079
942.00,0.0079
941.00,0.0079
940.00,0.0079
939.00,0.0080
938.00,0.0080
937.00,0.0081
936.00,0.0081
935.00,0.0082
934.00,0.0084
933.00,0.0085
932.00,0.0084
931.00,0.0084
930.00,0.0084
929.00,0.0083
928.00,0.0083
927.00,0.0083
926.00,0.0083
925.00,0.0082
924.00,0.0081
923.00,0.0080
922.00,0.0080
921.00,0.0080
920.00,0.0079
919.00,0.0078
918.00,0.0078
917.00,0.0077
916.00,0.0076
915.00,0.0076
914.00,0.0076
913.00,0.0076
912.00,0.0075
911.00,0.0076
910.00,0.0077
909.00,0.0078
908.00,0.0079
907.00,0.0080
906.00,0.0080
905.00,0.0079
904.00,0.0079
903.00,0.0079
902.00,0.0080
901.00,0.0080
900.00,0.0080
899.00,0.0080
898.00,0.0081
897.00,0.0081
896.00,0.0081
895.00,0.0081
894.00,0.0081
893.00,0.0080
892.00,0.0078
891.00,0.0077
890.00,0.0077
889.00,0.0077
888.00,0.0077
887.00,0.0078
886.00,0.0078
885.00,0.0078
884.00,0.0077
883.00,0.0077
882.00,0.0076
881.00,0.0076
880.00,0.0075
879.00,0.0074
878.00,0.0075
877.00,0.0075
876.00,0.0075
875.00,0.0076
874.00,0.0078
873.00,0.0079
872.00,0.0079
871.00,0.0078
870.00,0.0077
869.00,0.0075
868.00,0.0073
867.00,0.0071
866.00,0.0070
865.00,0.0069
864.00,0.0068
863.00,0.0068
862.00,0.0068
861.00,0.0068
860.00,0.0068
859.00,0.0069
858.00,0.0069
857.00,0.0069
856.00,0.0068
855.00,0.0067
854.00,0.0066
853.00,0.0066
852.00,0.0065
851.00,0.0063
850.00,0.0062
849.00,0.0061
848.00,0.0060
847.00,0.0060
846.00,0.0061
845.00,0.0062
844.00,0.0062
843.00,0.0061
842.00,0.0061
841.00,0.0062
840.00,0.0062
839.00,0.0063
838.00,0.0064
837.00,0.0065
836.00,0.0066
835.00,0.0066
834.00,0.0067
833.00,0.0068
832.00,0.0068
831.00,0.0067
830.00,0.0067
829.00,0.0067
828.00,0.0067
827.00,0.0067
826.00,0.0069
825.00,0.0070
824.00,0.0070
823.00,0.0070
822.00,0.0071
821.00,0.0072
820.00,0.0073
819.00,0.0074
818.00,0.0075
817.00,0.0076
816.00,0.0076
815.00,0.0077
814.00,0.0079
813.00,0.0079
812.00,0.0079
811.00,0.0078
810.00,0.0079
809.00,0.0079
808.00,0.0080
807.00,0.0081
806.00,0.0082
805.00,0.0082
804.00,0.0081
803.00,0.0080
802.00,0.0080
801.00,0.0080
800.00,0.0079
799.00,0.0077
798.00,0.0077
797.00,0.0076
796.00,0.0076
795.00,0.0076
794.00,0.0077
793.00,0.0079
792.00,0.0080
791.00,0.0081
790.00,0.0082
789.00,0.0083
788.00,0.0083
787.00,0.0083
786.00,0.0083
785.00,0.0082
784.00,0.0082
783.00,0.0083
782.00,0.0085
781.00,0.0086
780.00,0.0087
779.00,0.0087
778.00,0.0088
777.00,0.0088
776.00,0.0088
775.00,0.0089
774.00,0.0090
773.00,0.0091
772.00,0.0090
771.00,0.0091
770.00,0.0092
769.00,0.0094
768.00,0.0095
767.00,0.0097
766.00,0.0099
765.00,0.0101
764.00,0.0102
763.00,0.0104
762.00,0.0105
761.00,0.0106
760.00,0.0105
759.00,0.0104
758.00,0.0105
757.00,0.0105
756.00,0.0105
755.00,0.0105
754.00,0.0105
753.00,0.0105
752.00,0.0105
751.00,0.0105
750.00,0.0106
749.00,0.0107
748.00,0.0107
747.00,0.0107
746.00,0.0107
745.00,0.0106
744.00,0.0105
743.00,0.0103
742.00,0.0104
741.00,0.0105
740.00,0.0106
739.00,0.0107
738.00,0.0109
737.00,0.0110
736.00,0.0111
735.00,0.0111
734.00,0.0111
733.00,0.0111
732.00,0.0110
731.00,0.0109
730.00,0.0109
729.00,0.0111
728.00,0.0112
727.00,0.0113
726.00,0.0116
725.00,0.0118
724.00,0.0121
723.00,0.0123
722.00,0.0125
721.00,0.0127
720.00,0.0128
719.00,0.0130
718.00,0.0131
717.00,0.0131
716.00,0.0130
715.00,0.0130
714.00,0.0133
713.00,0.0137
712.00,0.0141
711.00,0.0144
710.00,0.0146
709.00,0.0148
708.00,0.0150
707.00,0.0151
706.00,0.0153
705.00,0.0154
704.00,0.0155
703.00,0.0156
702.00,0.0157
701.00,0.0159
700.00,0.0160
699.00,0.0160
698.00,0.0161
697.00,0.0163
696.00,0.0163
695.00,0.0163
694.00,0.0162
693.00,0.0161
692.00,0.0161
691.00,0.0161
690.00,0.0161
689.00,0.0161
688.00,0.0161
687.00,0.0162
686.00,0.0164
685.00,0.0165
684.00,0.0165
683.00,0.0164
682.00,0.0162
681.00,0.0162
680.00,0.0162
679.00,0.0164
678.00,0.0166
677.00,0.0167
676.00,0.0167
675.00,0.0167
674.00,0.0169
673.00,0.0170
672.00,0.0170
671.00,0.0172
670.00,0.0175
669.00,0.0180
668.00,0.0182
667.00,0.0181
666.00,0.0178
665.00,0.0174
664.00,0.0170
663.00,0.0167
662.00,0.0168
661.00,0.0169
660.00,0.0171
659.00,0.0173
658.00,0.0176
657.00,0.0178
656.00,0.0179
655.00,0.0180
654.00,0.0182
653.00,0.0182
652.00,0.0181
651.00,0.0180
650.00,0.0179
649.00,0.0178
648.00,0.0177
647.00,0.0176
646.00,0.0176
645.00,0.0176
644.00,0.0176
643.00,0.0177
642.00,0.0179
641.00,0.0180
640.00,0.0180
639.00,0.0179
638.00,0.0178
637.00,0.0178
636.00,0.0178
635.00,0.0179
634.00,0.0180
633.00,0.0181
632.00,0.0182
631.00,0.0183
630.00,0.0187
629.00,0.0190
628.00,0.0191
627.00,0.0191
626.00,0.0192
625.00,0.0194
624.00,0.0196
623.00,0.0199
622.00,0.0202
621.00,0.0202
620.00,0.0200
619.00,0.0197
618.00,0.0197
617.00,0.0199
616.00,0.0200
615.00,0.0201
614.00,0.0201
613.00,0.0198
612.00,0.0193
611.00,0.0188
610.00,0.0187
609.00,0.0187
608.00,0.0186
607.00,0.0187
606.00,0.0189
605.00,0.0192
604.00,0.0194
603.00,0.0196
602.00,0.0199
601.00,0.0202
600.00,0.0205
599.00,0.0207
598.00,0.0209
597.00,0.0210
596.00,0.0208
595.00,0.0204
594.00,0.0201
593.00,0.0199
592.00,0.0198
591.00,0.0197
590.00,0.0198
589.00,0.0200
588.00,0.0201
587.00,0.0203
586.00,0.0205
585.00,0.0207
584.00,0.0207
583.00,0.0207
582.00,0.0208
581.00,0.0208
580.00,0.0208
579.00,0.0210
578.00,0.0211
577.00,0.0212
576.00,0.0211
575.00,0.0211
574.00,0.0212
573.00,0.0213
572.00,0.0212
571.00,0.0211
570.00,0.0212
569.00,0.0212
568.00,0.0212
567.00,0.0213
566.00,0.0216
565.00,0.0219
564.00,0.0220
563.00,0.0221
562.00,0.0223
561.00,0.0225
560.00,0.0225
559.00,0.0224
558.00,0.0224
557.00,0.0221
556.00,0.0216
555.00,0.0214
554.00,0.0217
553.00,0.0221
552.00,0.0224
551.00,0.0226
550.00,0.0227
549.00,0.0227
548.00,0.0226
547.00,0.0226
546.00,0.0229
545.00,0.0231
544.00,0.0230
543.00,0.0228
542.00,0.0228
541.00,0.0226
540.00,0.0222
539.00,0.0219
538.00,0.0219
537.00,0.0221
536.00,0.0223
535.00,0.0227
534.00,0.0233
533.00,0.0237
532.00,0.0238
531.00,0.0238
530.00,0.0238
529.00,0.0236
528.00,0.0232
527.00,0.0229
526.00,0.0231
525.00,0.0232
524.00,0.0230
523.00,0.0229
522.00,0.0230
521.00,0.0233
520.00,0.0232
519.00,0.0231
518.00,0.0231
517.00,0.0231
516.00,0.0228
515.00,0.0226
514.00,0.0228
513.00,0.0233
512.00,0.0236
511.00,0.0238
510.00,0.0241
509.00,0.0243
508.00,0.0242
507.00,0.0241
506.00,0.0239
505.00,0.0236
504.00,0.0230
503.00,0.0227
502.00,0.0229
501.00,0.0231
500.00,0.0229
499.00,0.0226
498.00,0.0225
497.00,0.0226
496.00,0.0226
495.00,0.0227
494.00,0.0231
493.00,0.0232
492.00,0.0230
491.00,0.0227
490.00,0.0228
489.00,0.0230
488.00,0.0228
487.00,0.0226
486.00,0.0227
485.00,0.0226
484.00,0.0225
483.00,0.0226
482.00,0.0232
481.00,0.0236
480.00,0.0235
479.00,0.0233
478.00,0.0233
477.00,0.0232
476.00,0.0225
475.00,0.0219
474.00,0.0218
473.00,0.0217
472.00,0.0213
471.00,0.0211
470.00,0.0217
469.00,0.0225
468.00,0.0228
467.00,0.0230
466.00,0.0235
465.00,0.0237
464.00,0.0233
463.00,0.0229
462.00,0.0228
461.00,0.0227
460.00,0.0220
459.00,0.0214
458.00,0.0217
457.00,0.0227
456.00,0.0233
455.00,0.0234
454.00,0.0233
453.00,0.0228
452.00,0.0218
451.00,0.0209
450.00,0.0207
449.00,0.0205
448.00,0.0199
447.00,0.0193
446.00,0.0192
445.00,0.0194
444.00,0.0198
443.00,0.0206
442.00,0.0217
441.00,0.0223
440.00,0.0222
439.00,0.0221
438.00,0.0225
437.00,0.0226
436.00,0.0219
435.00,0.0211
434.00,0.0210
433.00,0.0212
432.00,0.0211
431.00,0.0211
430.00,0.0213
429.00,0.0213
428.00,0.0206
427.00,0.0200
426.00,0.0201
425.00,0.0204
424.00,0.0204
423.00,0.0203
422.00,0.0203
421.00,0.0196
420.00,0.0180
419.00,0.0174
418.00,0.0186
417.00,0.0199
416.00,0.0202
415.00,0.0206
414.00,0.0216
413.00,0.0220
412.00,0.0210
411.00,0.0203
410.00,0.0211
409.00,0.0221
408.00,0.0219
407.00,0.0216
406.00,0.0223
405.00,0.0225
404.00,0.0209
403.00,0.0186
402.00,0.0178
401.00,0.0186
400.00,0.0199
