Created as New Dataset,Sample 497 By YargerLab Date Saturday, April 26 2025
cm-1,A
4000.00,0.0010
3999.00,0.0011
3998.00,0.0011
3997.00,0.0010
3996.00,0.0010
3995.00,0.0010
3994.00,0.0010
3993.00,0.0010
3992.00,0.0010
3991.00,0.0010
3990.00,0.0010
3989.00,0.0010
3988.00,0.0010
3987.00,0.0010
3986.00,0.0011
3985.00,0.0011
3984.00,0.0010
3983.00,0.0010
3982.00,0.0010
3981.00,0.0011
3980.00,0.0011
3979.00,0.0011
3978.00,0.0011
3977.00,0.0011
3976.00,0.0011
3975.00,0.0011
3974.00,0.0010
3973.00,0.0010
3972.00,0.0011
3971.00,0.0011
3970.00,0.0011
3969.00,0.0011
3968.00,0.0011
3967.00,0.0011
3966.00,0.0011
3965.00,0.0011
3964.00,0.0011
3963.00,0.0011
3962.00,0.0010
3961.00,0.0010
3960.00,0.0010
3959.00,0.0010
3958.00,0.0010
3957.00,0.0010
3956.00,0.0010
3955.00,0.0010
3954.00,0.0010
3953.00,0.0010
3952.00,0.0010
3951.00,0.0011
3950.00,0.0012
3949.00,0.0012
3948.00,0.0013
3947.00,0.0013
3946.00,0.0013
3945.00,0.0013
3944.00,0.0012
3943.00,0.0012
3942.00,0.0011
3941.00,0.0011
3940.00,0.0012
3939.00,0.0012
3938.00,0.0012
3937.00,0.0012
3936.00,0.0012
3935.00,0.0013
3934.00,0.0014
3933.00,0.0015
3932.00,0.0014
3931.00,0.0013
3930.00,0.0012
3929.00,0.0012
3928.00,0.0012
3927.00,0.0012
3926.00,0.0012
3925.00,0.0011
3924.00,0.0011
3923.00,0.0012
3922.00,0.0013
3921.00,0.0015
3920.00,0.0015
3919.00,0.0015
3918.00,0.0015
3917.00,0.0015
3916.00,0.0014
3915.00,0.0013
3914.00,0.0012
3913.00,0.0011
3912.00,0.0011
3911.00,0.0011
3910.00,0.0010
3909.00,0.0010
3908.00,0.0011
3907.00,0.0011
3906.00,0.0012
3905.00,0.0014
3904.00,0.0017
3903.00,0.0020
3902.00,0.0023
3901.00,0.0023
3900.00,0.0022
3899.00,0.0019
3898.00,0.0017
3897.00,0.0017
3896.00,0.0016
3895.00,0.0016
3894.00,0.0015
3893.00,0.0014
3892.00,0.0013
3891.00,0.0013
3890.00,0.0014
3889.00,0.0016
3888.00,0.0018
3887.00,0.0019
3886.00,0.0019
3885.00,0.0017
3884.00,0.0017
3883.00,0.0018
3882.00,0.0019
3881.00,0.0019
3880.00,0.0018
3879.00,0.0017
3878.00,0.0017
3877.00,0.0018
3876.00,0.0019
3875.00,0.0018
3874.00,0.0016
3873.00,0.0016
3872.00,0.0018
3871.00,0.0020
3870.00,0.0021
3869.00,0.0020
3868.00,0.0019
3867.00,0.0020
3866.00,0.0022
3865.00,0.0021
3864.00,0.0019
3863.00,0.0018
3862.00,0.0019
3861.00,0.0020
3860.00,0.0020
3859.00,0.0018
3858.00,0.0015
3857.00,0.0011
3856.00,0.0009
3855.00,0.0008
3854.00,0.0010
3853.00,0.0013
3852.00,0.0016
3851.00,0.0018
3850.00,0.0020
3849.00,0.0020
3848.00,0.0020
3847.00,0.0019
3846.00,0.0018
3845.00,0.0018
3844.00,0.0019
3843.00,0.0020
3842.00,0.0020
3841.00,0.0021
3840.00,0.0021
3839.00,0.0021
3838.00,0.0021
3837.00,0.0020
3836.00,0.0020
3835.00,0.0020
3834.00,0.0020
3833.00,0.0020
3832.00,0.0020
3831.00,0.0019
3830.00,0.0019
3829.00,0.0019
3828.00,0.0019
3827.00,0.0018
3826.00,0.0017
3825.00,0.0017
3824.00,0.0018
3823.00,0.0021
3822.00,0.0022
3821.00,0.0020
3820.00,0.0019
3819.00,0.0019
3818.00,0.0020
3817.00,0.0021
3816.00,0.0019
3815.00,0.0017
3814.00,0.0015
3813.00,0.0014
3812.00,0.0014
3811.00,0.0014
3810.00,0.0013
3809.00,0.0013
3808.00,0.0015
3807.00,0.0016
3806.00,0.0017
3805.00,0.0018
3804.00,0.0020
3803.00,0.0022
3802.00,0.0022
3801.00,0.0020
3800.00,0.0019
3799.00,0.0019
3798.00,0.0020
3797.00,0.0019
3796.00,0.0017
3795.00,0.0015
3794.00,0.0013
3793.00,0.0012
3792.00,0.0011
3791.00,0.0010
3790.00,0.0010
3789.00,0.0010
3788.00,0.0010
3787.00,0.0010
3786.00,0.0011
3785.00,0.0011
3784.00,0.0011
3783.00,0.0012
3782.00,0.0013
3781.00,0.0014
3780.00,0.0013
3779.00,0.0012
3778.00,0.0012
3777.00,0.0011
3776.00,0.0012
3775.00,0.0011
3774.00,0.0011
3773.00,0.0012
3772.00,0.0013
3771.00,0.0014
3770.00,0.0015
3769.00,0.0015
3768.00,0.0016
3767.00,0.0017
3766.00,0.0018
3765.00,0.0017
3764.00,0.0017
3763.00,0.0017
3762.00,0.0019
3761.00,0.0020
3760.00,0.0019
3759.00,0.0019
3758.00,0.0019
3757.00,0.0020
3756.00,0.0020
3755.00,0.0021
3754.00,0.0023
3753.00,0.0025
3752.00,0.0026
3751.00,0.0028
3750.00,0.0030
3749.00,0.0030
3748.00,0.0030
3747.00,0.0029
3746.00,0.0030
3745.00,0.0030
3744.00,0.0028
3743.00,0.0027
3742.00,0.0027
3741.00,0.0029
3740.00,0.0031
3739.00,0.0033
3738.00,0.0035
3737.00,0.0037
3736.00,0.0036
3735.00,0.0033
3734.00,0.0031
3733.00,0.0030
3732.00,0.0028
3731.00,0.0026
3730.00,0.0023
3729.00,0.0023
3728.00,0.0023
3727.00,0.0022
3726.00,0.0021
3725.00,0.0020
3724.00,0.0020
3723.00,0.0020
3722.00,0.0019
3721.00,0.0018
3720.00,0.0017
3719.00,0.0017
3718.00,0.0016
3717.00,0.0016
3716.00,0.0016
3715.00,0.0017
3714.00,0.0019
3713.00,0.0020
3712.00,0.0021
3711.00,0.0021
3710.00,0.0021
3709.00,0.0021
3708.00,0.0020
3707.00,0.0019
3706.00,0.0017
3705.00,0.0017
3704.00,0.0016
3703.00,0.0015
3702.00,0.0014
3701.00,0.0013
3700.00,0.0013
3699.00,0.0013
3698.00,0.0014
3697.00,0.0014
3696.00,0.0013
3695.00,0.0014
3694.00,0.0015
3693.00,0.0016
3692.00,0.0016
3691.00,0.0016
3690.00,0.0017
3689.00,0.0018
3688.00,0.0020
3687.00,0.0020
3686.00,0.0020
3685.00,0.0019
3684.00,0.0019
3683.00,0.0019
3682.00,0.0019
3681.00,0.0020
3680.00,0.0020
3679.00,0.0020
3678.00,0.0023
3677.00,0.0026
3676.00,0.0027
3675.00,0.0027
3674.00,0.0026
3673.00,0.0027
3672.00,0.0029
3671.00,0.0029
3670.00,0.0026
3669.00,0.0023
3668.00,0.0022
3667.00,0.0021
3666.00,0.0021
3665.00,0.0020
3664.00,0.0018
3663.00,0.0017
3662.00,0.0017
3661.00,0.0017
3660.00,0.0017
3659.00,0.0018
3658.00,0.0019
3657.00,0.0020
3656.00,0.0021
3655.00,0.0023
3654.00,0.0025
3653.00,0.0029
3652.00,0.0033
3651.00,0.0036
3650.00,0.0038
3649.00,0.0039
3648.00,0.0040
3647.00,0.0039
3646.00,0.0036
3645.00,0.0033
3644.00,0.0030
3643.00,0.0027
3642.00,0.0025
3641.00,0.0023
3640.00,0.0023
3639.00,0.0023
3638.00,0.0024
3637.00,0.0025
3636.00,0.0026
3635.00,0.0027
3634.00,0.0028
3633.00,0.0029
3632.00,0.0030
3631.00,0.0033
3630.00,0.0034
3629.00,0.0035
3628.00,0.0035
3627.00,0.0036
3626.00,0.0037
3625.00,0.0037
3624.00,0.0036
3623.00,0.0035
3622.00,0.0035
3621.00,0.0034
3620.00,0.0034
3619.00,0.0034
3618.00,0.0036
3617.00,0.0039
3616.00,0.0041
3615.00,0.0042
3614.00,0.0042
3613.00,0.0042
3612.00,0.0042
3611.00,0.0043
3610.00,0.0044
3609.00,0.0044
3608.00,0.0043
3607.00,0.0041
3606.00,0.0040
3605.00,0.0040
3604.00,0.0040
3603.00,0.0039
3602.00,0.0039
3601.00,0.0038
3600.00,0.0038
3599.00,0.0039
3598.00,0.0040
3597.00,0.0041
3596.00,0.0041
3595.00,0.0042
3594.00,0.0042
3593.00,0.0042
3592.00,0.0043
3591.00,0.0045
3590.00,0.0046
3589.00,0.0047
3588.00,0.0047
3587.00,0.0047
3586.00,0.0047
3585.00,0.0047
3584.00,0.0047
3583.00,0.0046
3582.00,0.0045
3581.00,0.0044
3580.00,0.0043
3579.00,0.0043
3578.00,0.0043
3577.00,0.0044
3576.00,0.0044
3575.00,0.0045
3574.00,0.0045
3573.00,0.0046
3572.00,0.0047
3571.00,0.0049
3570.00,0.0051
3569.00,0.0053
3568.00,0.0055
3567.00,0.0055
3566.00,0.0055
3565.00,0.0056
3564.00,0.0055
3563.00,0.0055
3562.00,0.0054
3561.00,0.0052
3560.00,0.0052
3559.00,0.0051
3558.00,0.0051
3557.00,0.0051
3556.00,0.0052
3555.00,0.0052
3554.00,0.0053
3553.00,0.0053
3552.00,0.0054
3551.00,0.0055
3550.00,0.0056
3549.00,0.0058
3548.00,0.0059
3547.00,0.0060
3546.00,0.0060
3545.00,0.0059
3544.00,0.0059
3543.00,0.0059
3542.00,0.0058
3541.00,0.0058
3540.00,0.0058
3539.00,0.0057
3538.00,0.0057
3537.00,0.0058
3536.00,0.0058
3535.00,0.0058
3534.00,0.0059
3533.00,0.0060
3532.00,0.0060
3531.00,0.0061
3530.00,0.0061
3529.00,0.0062
3528.00,0.0063
3527.00,0.0064
3526.00,0.0065
3525.00,0.0065
3524.00,0.0065
3523.00,0.0064
3522.00,0.0064
3521.00,0.0064
3520.00,0.0063
3519.00,0.0063
3518.00,0.0063
3517.00,0.0063
3516.00,0.0063
3515.00,0.0063
3514.00,0.0063
3513.00,0.0064
3512.00,0.0065
3511.00,0.0065
3510.00,0.0066
3509.00,0.0066
3508.00,0.0066
3507.00,0.0067
3506.00,0.0067
3505.00,0.0067
3504.00,0.0068
3503.00,0.0068
3502.00,0.0068
3501.00,0.0068
3500.00,0.0069
3499.00,0.0068
3498.00,0.0068
3497.00,0.0068
3496.00,0.0068
3495.00,0.0068
3494.00,0.0068
3493.00,0.0068
3492.00,0.0068
3491.00,0.0069
3490.00,0.0069
3489.00,0.0069
3488.00,0.0069
3487.00,0.0069
3486.00,0.0069
3485.00,0.0069
3484.00,0.0069
3483.00,0.0069
3482.00,0.0069
3481.00,0.0069
3480.00,0.0069
3479.00,0.0070
3478.00,0.0070
3477.00,0.0070
3476.00,0.0069
3475.00,0.0069
3474.00,0.0069
3473.00,0.0069
3472.00,0.0069
3471.00,0.0069
3470.00,0.0069
3469.00,0.0069
3468.00,0.0069
3467.00,0.0069
3466.00,0.0069
3465.00,0.0069
3464.00,0.0069
3463.00,0.0069
3462.00,0.0068
3461.00,0.0068
3460.00,0.0068
3459.00,0.0068
3458.00,0.0068
3457.00,0.0067
3456.00,0.0067
3455.00,0.0066
3454.00,0.0066
3453.00,0.0066
3452.00,0.0066
3451.00,0.0067
3450.00,0.0067
3449.00,0.0067
3448.00,0.0068
3447.00,0.0068
3446.00,0.0068
3445.00,0.0069
3444.00,0.0069
3443.00,0.0069
3442.00,0.0068
3441.00,0.0068
3440.00,0.0068
3439.00,0.0069
3438.00,0.0069
3437.00,0.0070
3436.00,0.0070
3435.00,0.0070
3434.00,0.0070
3433.00,0.0070
3432.00,0.0070
3431.00,0.0070
3430.00,0.0070
3429.00,0.0071
3428.00,0.0071
3427.00,0.0071
3426.00,0.0071
3425.00,0.0072
3424.00,0.0072
3423.00,0.0072
3422.00,0.0072
3421.00,0.0072
3420.00,0.0072
3419.00,0.0072
3418.00,0.0073
3417.00,0.0073
3416.00,0.0073
3415.00,0.0074
3414.00,0.0074
3413.00,0.0074
3412.00,0.0075
3411.00,0.0075
3410.00,0.0075
3409.00,0.0075
3408.00,0.0076
3407.00,0.0076
3406.00,0.0076
3405.00,0.0076
3404.00,0.0077
3403.00,0.0077
3402.00,0.0077
3401.00,0.0078
3400.00,0.0078
3399.00,0.0078
3398.00,0.0079
3397.00,0.0079
3396.00,0.0079
3395.00,0.0079
3394.00,0.0079
3393.00,0.0079
3392.00,0.0079
3391.00,0.0079
3390.00,0.0080
3389.00,0.0080
3388.00,0.0080
3387.00,0.0080
3386.00,0.0080
3385.00,0.0080
3384.00,0.0081
3383.00,0.0081
3382.00,0.0082
3381.00,0.0082
3380.00,0.0082
3379.00,0.0082
3378.00,0.0083
3377.00,0.0083
3376.00,0.0083
3375.00,0.0083
3374.00,0.0084
3373.00,0.0084
3372.00,0.0085
3371.00,0.0085
3370.00,0.0086
3369.00,0.0086
3368.00,0.0087
3367.00,0.0087
3366.00,0.0087
3365.00,0.0087
3364.00,0.0088
3363.00,0.0088
3362.00,0.0089
3361.00,0.0089
3360.00,0.0090
3359.00,0.0090
3358.00,0.0090
3357.00,0.0090
3356.00,0.0091
3355.00,0.0092
3354.00,0.0092
3353.00,0.0093
3352.00,0.0094
3351.00,0.0095
3350.00,0.0096
3349.00,0.0096
3348.00,0.0097
3347.00,0.0097
3346.00,0.0098
3345.00,0.0099
3344.00,0.0099
3343.00,0.0100
3342.00,0.0101
3341.00,0.0102
3340.00,0.0103
3339.00,0.0104
3338.00,0.0105
3337.00,0.0106
3336.00,0.0108
3335.00,0.0109
3334.00,0.0110
3333.00,0.0112
3332.00,0.0113
3331.00,0.0114
3330.00,0.0115
3329.00,0.0116
3328.00,0.0116
3327.00,0.0118
3326.00,0.0119
3325.00,0.0121
3324.00,0.0122
3323.00,0.0123
3322.00,0.0125
3321.00,0.0126
3320.00,0.0128
3319.00,0.0129
3318.00,0.0131
3317.00,0.0133
3316.00,0.0134
3315.00,0.0136
3314.00,0.0138
3313.00,0.0140
3312.00,0.0142
3311.00,0.0144
3310.00,0.0146
3309.00,0.0147
3308.00,0.0149
3307.00,0.0151
3306.00,0.0152
3305.00,0.0154
3304.00,0.0156
3303.00,0.0158
3302.00,0.0160
3301.00,0.0162
3300.00,0.0163
3299.00,0.0165
3298.00,0.0167
3297.00,0.0168
3296.00,0.0170
3295.00,0.0172
3294.00,0.0173
3293.00,0.0174
3292.00,0.0175
3291.00,0.0175
3290.00,0.0176
3289.00,0.0176
3288.00,0.0177
3287.00,0.0177
3286.00,0.0178
3285.00,0.0178
3284.00,0.0178
3283.00,0.0178
3282.00,0.0178
3281.00,0.0177
3280.00,0.0177
3279.00,0.0176
3278.00,0.0176
3277.00,0.0175
3276.00,0.0174
3275.00,0.0173
3274.00,0.0171
3273.00,0.0170
3272.00,0.0168
3271.00,0.0166
3270.00,0.0165
3269.00,0.0163
3268.00,0.0161
3267.00,0.0160
3266.00,0.0158
3265.00,0.0156
3264.00,0.0154
3263.00,0.0152
3262.00,0.0151
3261.00,0.0149
3260.00,0.0148
3259.00,0.0146
3258.00,0.0145
3257.00,0.0143
3256.00,0.0142
3255.00,0.0140
3254.00,0.0139
3253.00,0.0138
3252.00,0.0136
3251.00,0.0135
3250.00,0.0134
3249.00,0.0133
3248.00,0.0132
3247.00,0.0131
3246.00,0.0130
3245.00,0.0129
3244.00,0.0128
3243.00,0.0127
3242.00,0.0126
3241.00,0.0125
3240.00,0.0123
3239.00,0.0122
3238.00,0.0121
3237.00,0.0120
3236.00,0.0119
3235.00,0.0118
3234.00,0.0117
3233.00,0.0117
3232.00,0.0116
3231.00,0.0116
3230.00,0.0115
3229.00,0.0114
3228.00,0.0113
3227.00,0.0112
3226.00,0.0111
3225.00,0.0110
3224.00,0.0109
3223.00,0.0108
3222.00,0.0107
3221.00,0.0106
3220.00,0.0106
3219.00,0.0105
3218.00,0.0104
3217.00,0.0103
3216.00,0.0102
3215.00,0.0101
3214.00,0.0100
3213.00,0.0100
3212.00,0.0099
3211.00,0.0098
3210.00,0.0098
3209.00,0.0097
3208.00,0.0096
3207.00,0.0095
3206.00,0.0093
3205.00,0.0092
3204.00,0.0092
3203.00,0.0091
3202.00,0.0090
3201.00,0.0090
3200.00,0.0089
3199.00,0.0089
3198.00,0.0088
3197.00,0.0087
3196.00,0.0086
3195.00,0.0084
3194.00,0.0083
3193.00,0.0082
3192.00,0.0081
3191.00,0.0080
3190.00,0.0080
3189.00,0.0079
3188.00,0.0079
3187.00,0.0079
3186.00,0.0078
3185.00,0.0077
3184.00,0.0076
3183.00,0.0076
3182.00,0.0075
3181.00,0.0074
3180.00,0.0074
3179.00,0.0073
3178.00,0.0072
3177.00,0.0071
3176.00,0.0070
3175.00,0.0069
3174.00,0.0069
3173.00,0.0068
3172.00,0.0068
3171.00,0.0067
3170.00,0.0066
3169.00,0.0066
3168.00,0.0065
3167.00,0.0064
3166.00,0.0064
3165.00,0.0063
3164.00,0.0063
3163.00,0.0062
3162.00,0.0062
3161.00,0.0062
3160.00,0.0061
3159.00,0.0061
3158.00,0.0061
3157.00,0.0060
3156.00,0.0060
3155.00,0.0059
3154.00,0.0059
3153.00,0.0058
3152.00,0.0058
3151.00,0.0057
3150.00,0.0057
3149.00,0.0056
3148.00,0.0056
3147.00,0.0056
3146.00,0.0055
3145.00,0.0055
3144.00,0.0055
3143.00,0.0054
3142.00,0.0054
3141.00,0.0053
3140.00,0.0053
3139.00,0.0053
3138.00,0.0053
3137.00,0.0053
3136.00,0.0053
3135.00,0.0053
3134.00,0.0053
3133.00,0.0053
3132.00,0.0052
3131.00,0.0052
3130.00,0.0052
3129.00,0.0052
3128.00,0.0052
3127.00,0.0051
3126.00,0.0051
3125.00,0.0051
3124.00,0.0051
3123.00,0.0051
3122.00,0.0052
3121.00,0.0052
3120.00,0.0052
3119.00,0.0052
3118.00,0.0052
3117.00,0.0052
3116.00,0.0052
3115.00,0.0052
3114.00,0.0052
3113.00,0.0052
3112.00,0.0053
3111.00,0.0053
3110.00,0.0053
3109.00,0.0053
3108.00,0.0053
3107.00,0.0053
3106.00,0.0053
3105.00,0.0054
3104.00,0.0054
3103.00,0.0054
3102.00,0.0055
3101.00,0.0055
3100.00,0.0056
3099.00,0.0056
3098.00,0.0056
3097.00,0.0056
3096.00,0.0056
3095.00,0.0056
3094.00,0.0056
3093.00,0.0056
3092.00,0.0056
3091.00,0.0057
3090.00,0.0057
3089.00,0.0058
3088.00,0.0058
3087.00,0.0058
3086.00,0.0058
3085.00,0.0058
3084.00,0.0058
3083.00,0.0058
3082.00,0.0058
3081.00,0.0058
3080.00,0.0058
3079.00,0.0058
3078.00,0.0058
3077.00,0.0058
3076.00,0.0058
3075.00,0.0058
3074.00,0.0058
3073.00,0.0058
3072.00,0.0058
3071.00,0.0058
3070.00,0.0058
3069.00,0.0058
3068.00,0.0058
3067.00,0.0058
3066.00,0.0058
3065.00,0.0058
3064.00,0.0058
3063.00,0.0057
3062.00,0.0057
3061.00,0.0056
3060.00,0.0056
3059.00,0.0056
3058.00,0.0056
3057.00,0.0056
3056.00,0.0055
3055.00,0.0055
3054.00,0.0054
3053.00,0.0053
3052.00,0.0052
3051.00,0.0052
3050.00,0.0051
3049.00,0.0051
3048.00,0.0051
3047.00,0.0050
3046.00,0.0049
3045.00,0.0049
3044.00,0.0048
3043.00,0.0048
3042.00,0.0047
3041.00,0.0047
3040.00,0.0047
3039.00,0.0047
3038.00,0.0046
3037.00,0.0045
3036.00,0.0045
3035.00,0.0045
3034.00,0.0045
3033.00,0.0044
3032.00,0.0044
3031.00,0.0044
3030.00,0.0043
3029.00,0.0043
3028.00,0.0043
3027.00,0.0042
3026.00,0.0041
3025.00,0.0041
3024.00,0.0041
3023.00,0.0040
3022.00,0.0040
3021.00,0.0040
3020.00,0.0040
3019.00,0.0040
3018.00,0.0040
3017.00,0.0039
3016.00,0.0039
3015.00,0.0039
3014.00,0.0039
3013.00,0.0038
3012.00,0.0038
3011.00,0.0038
3010.00,0.0038
3009.00,0.0038
3008.00,0.0038
3007.00,0.0038
3006.00,0.0038
3005.00,0.0037
3004.00,0.0037
3003.00,0.0037
3002.00,0.0037
3001.00,0.0037
3000.00,0.0037
2999.00,0.0038
2998.00,0.0038
2997.00,0.0038
2996.00,0.0039
2995.00,0.0039
2994.00,0.0039
2993.00,0.0039
2992.00,0.0040
2991.00,0.0040
2990.00,0.0041
2989.00,0.0042
2988.00,0.0042
2987.00,0.0043
2986.00,0.0043
2985.00,0.0044
2984.00,0.0044
2983.00,0.0044
2982.00,0.0045
2981.00,0.0045
2980.00,0.0046
2979.00,0.0046
2978.00,0.0046
2977.00,0.0047
2976.00,0.0047
2975.00,0.0047
2974.00,0.0048
2973.00,0.0048
2972.00,0.0049
2971.00,0.0049
2970.00,0.0050
2969.00,0.0050
2968.00,0.0051
2967.00,0.0051
2966.00,0.0052
2965.00,0.0052
2964.00,0.0052
2963.00,0.0052
2962.00,0.0052
2961.00,0.0052
2960.00,0.0051
2959.00,0.0051
2958.00,0.0050
2957.00,0.0050
2956.00,0.0050
2955.00,0.0050
2954.00,0.0050
2953.00,0.0050
2952.00,0.0050
2951.00,0.0050
2950.00,0.0050
2949.00,0.0050
2948.00,0.0050
2947.00,0.0051
2946.00,0.0052
2945.00,0.0053
2944.00,0.0053
2943.00,0.0054
2942.00,0.0056
2941.00,0.0057
2940.00,0.0058
2939.00,0.0059
2938.00,0.0061
2937.00,0.0062
2936.00,0.0064
2935.00,0.0065
2934.00,0.0067
2933.00,0.0068
2932.00,0.0070
2931.00,0.0071
2930.00,0.0073
2929.00,0.0074
2928.00,0.0075
2927.00,0.0076
2926.00,0.0077
2925.00,0.0078
2924.00,0.0080
2923.00,0.0081
2922.00,0.0082
2921.00,0.0082
2920.00,0.0083
2919.00,0.0082
2918.00,0.0081
2917.00,0.0079
2916.00,0.0077
2915.00,0.0073
2914.00,0.0070
2913.00,0.0067
2912.00,0.0064
2911.00,0.0061
2910.00,0.0058
2909.00,0.0056
2908.00,0.0054
2907.00,0.0052
2906.00,0.0050
2905.00,0.0049
2904.00,0.0048
2903.00,0.0047
2902.00,0.0046
2901.00,0.0046
2900.00,0.0045
2899.00,0.0044
2898.00,0.0043
2897.00,0.0042
2896.00,0.0041
2895.00,0.0041
2894.00,0.0040
2893.00,0.0039
2892.00,0.0039
2891.00,0.0038
2890.00,0.0037
2889.00,0.0037
2888.00,0.0036
2887.00,0.0036
2886.00,0.0036
2885.00,0.0036
2884.00,0.0036
2883.00,0.0035
2882.00,0.0035
2881.00,0.0035
2880.00,0.0035
2879.00,0.0036
2878.00,0.0036
2877.00,0.0036
2876.00,0.0036
2875.00,0.0037
2874.00,0.0037
2873.00,0.0036
2872.00,0.0036
2871.00,0.0035
2870.00,0.0035
2869.00,0.0034
2868.00,0.0034
2867.00,0.0034
2866.00,0.0033
2865.00,0.0034
2864.00,0.0034
2863.00,0.0035
2862.00,0.0035
2861.00,0.0036
2860.00,0.0037
2859.00,0.0038
2858.00,0.0039
2857.00,0.0040
2856.00,0.0042
2855.00,0.0044
2854.00,0.0046
2853.00,0.0047
2852.00,0.0048
2851.00,0.0049
2850.00,0.0049
2849.00,0.0048
2848.00,0.0045
2847.00,0.0042
2846.00,0.0039
2845.00,0.0035
2844.00,0.0032
2843.00,0.0030
2842.00,0.0027
2841.00,0.0026
2840.00,0.0024
2839.00,0.0023
2838.00,0.0022
2837.00,0.0022
2836.00,0.0021
2835.00,0.0020
2834.00,0.0020
2833.00,0.0019
2832.00,0.0019
2831.00,0.0019
2830.00,0.0018
2829.00,0.0018
2828.00,0.0018
2827.00,0.0018
2826.00,0.0017
2825.00,0.0017
2824.00,0.0017
2823.00,0.0017
2822.00,0.0017
2821.00,0.0016
2820.00,0.0016
2819.00,0.0016
2818.00,0.0016
2817.00,0.0016
2816.00,0.0016
2815.00,0.0016
2814.00,0.0016
2813.00,0.0016
2812.00,0.0016
2811.00,0.0016
2810.00,0.0016
2809.00,0.0016
2808.00,0.0015
2807.00,0.0015
2806.00,0.0015
2805.00,0.0015
2804.00,0.0015
2803.00,0.0015
2802.00,0.0015
2801.00,0.0015
2800.00,0.0014
2799.00,0.0014
2798.00,0.0014
2797.00,0.0014
2796.00,0.0014
2795.00,0.0014
2794.00,0.0014
2793.00,0.0014
2792.00,0.0014
2791.00,0.0014
2790.00,0.0014
2789.00,0.0013
2788.00,0.0013
2787.00,0.0013
2786.00,0.0013
2785.00,0.0013
2784.00,0.0013
2783.00,0.0013
2782.00,0.0012
2781.00,0.0012
2780.00,0.0012
2779.00,0.0012
2778.00,0.0012
2777.00,0.0012
2776.00,0.0012
2775.00,0.0012
2774.00,0.0012
2773.00,0.0012
2772.00,0.0011
2771.00,0.0011
2770.00,0.0011
2769.00,0.0010
2768.00,0.0010
2767.00,0.0010
2766.00,0.0010
2765.00,0.0010
2764.00,0.0010
2763.00,0.0010
2762.00,0.0010
2761.00,0.0010
2760.00,0.0010
2759.00,0.0010
2758.00,0.0010
2757.00,0.0009
2756.00,0.0009
2755.00,0.0009
2754.00,0.0008
2753.00,0.0008
2752.00,0.0009
2751.00,0.0008
2750.00,0.0008
2749.00,0.0008
2748.00,0.0008
2747.00,0.0008
2746.00,0.0008
2745.00,0.0008
2744.00,0.0008
2743.00,0.0008
2742.00,0.0008
2741.00,0.0007
2740.00,0.0007
2739.00,0.0007
2738.00,0.0007
2737.00,0.0007
2736.00,0.0007
2735.00,0.0007
2734.00,0.0007
2733.00,0.0007
2732.00,0.0006
2731.00,0.0006
2730.00,0.0006
2729.00,0.0006
2728.00,0.0006
2727.00,0.0006
2726.00,0.0006
2725.00,0.0006
2724.00,0.0006
2723.00,0.0006
2722.00,0.0005
2721.00,0.0005
2720.00,0.0005
2719.00,0.0005
2718.00,0.0005
2717.00,0.0005
2716.00,0.0005
2715.00,0.0005
2714.00,0.0005
2713.00,0.0005
2712.00,0.0005
2711.00,0.0005
2710.00,0.0005
2709.00,0.0005
2708.00,0.0005
2707.00,0.0005
2706.00,0.0005
2705.00,0.0005
2704.00,0.0005
2703.00,0.0005
2702.00,0.0005
2701.00,0.0005
2700.00,0.0005
2699.00,0.0005
2698.00,0.0005
2697.00,0.0004
2696.00,0.0004
2695.00,0.0004
2694.00,0.0004
2693.00,0.0004
2692.00,0.0004
2691.00,0.0005
2690.00,0.0005
2689.00,0.0005
2688.00,0.0005
2687.00,0.0005
2686.00,0.0004
2685.00,0.0004
2684.00,0.0004
2683.00,0.0004
2682.00,0.0004
2681.00,0.0005
2680.00,0.0005
2679.00,0.0004
2678.00,0.0004
2677.00,0.0004
2676.00,0.0004
2675.00,0.0004
2674.00,0.0003
2673.00,0.0004
2672.00,0.0004
2671.00,0.0004
2670.00,0.0003
2669.00,0.0003
2668.00,0.0003
2667.00,0.0004
2666.00,0.0004
2665.00,0.0004
2664.00,0.0003
2663.00,0.0003
2662.00,0.0003
2661.00,0.0003
2660.00,0.0003
2659.00,0.0003
2658.00,0.0003
2657.00,0.0003
2656.00,0.0003
2655.00,0.0003
2654.00,0.0003
2653.00,0.0003
2652.00,0.0003
2651.00,0.0003
2650.00,0.0003
2649.00,0.0003
2648.00,0.0003
2647.00,0.0003
2646.00,0.0003
2645.00,0.0003
2644.00,0.0003
2643.00,0.0003
2642.00,0.0003
2641.00,0.0002
2640.00,0.0002
2639.00,0.0002
2638.00,0.0002
2637.00,0.0002
2636.00,0.0002
2635.00,0.0002
2634.00,0.0002
2633.00,0.0002
2632.00,0.0003
2631.00,0.0003
2630.00,0.0002
2629.00,0.0002
2628.00,0.0002
2627.00,0.0002
2626.00,0.0002
2625.00,0.0002
2624.00,0.0002
2623.00,0.0002
2622.00,0.0002
2621.00,0.0002
2620.00,0.0002
2619.00,0.0002
2618.00,0.0001
2617.00,0.0002
2616.00,0.0002
2615.00,0.0002
2614.00,0.0002
2613.00,0.0002
2612.00,0.0002
2611.00,0.0001
2610.00,0.0001
2609.00,0.0001
2608.00,0.0001
2607.00,0.0001
2606.00,0.0001
2605.00,0.0001
2604.00,0.0001
2603.00,0.0001
2602.00,0.0001
2601.00,0.0001
2600.00,0.0001
2599.00,0.0001
2598.00,0.0001
2597.00,0.0001
2596.00,0.0001
2595.00,0.0001
2594.00,0.0001
2593.00,0.0000
2592.00,0.0000
2591.00,-0.0000
2590.00,-0.0000
2589.00,-0.0000
2588.00,-0.0000
2587.00,-0.0000
2586.00,-0.0000
2585.00,-0.0000
2584.00,-0.0000
2583.00,-0.0001
2582.00,-0.0001
2581.00,-0.0001
2580.00,-0.0000
2579.00,0.0000
2578.00,0.0001
2577.00,0.0001
2576.00,0.0001
2575.00,0.0001
2574.00,0.0001
2573.00,0.0001
2572.00,0.0001
2571.00,0.0001
2570.00,0.0000
2569.00,-0.0000
2568.00,-0.0001
2567.00,-0.0001
2566.00,-0.0001
2565.00,-0.0001
2564.00,-0.0001
2563.00,-0.0001
2562.00,-0.0000
2561.00,-0.0000
2560.00,-0.0000
2559.00,-0.0001
2558.00,-0.0002
2557.00,-0.0002
2556.00,-0.0002
2555.00,-0.0001
2554.00,-0.0001
2553.00,-0.0001
2552.00,-0.0001
2551.00,-0.0001
2550.00,-0.0001
2549.00,-0.0001
2548.00,-0.0000
2547.00,-0.0001
2546.00,-0.0001
2545.00,-0.0001
2544.00,-0.0001
2543.00,-0.0001
2542.00,-0.0001
2541.00,-0.0001
2540.00,-0.0001
2539.00,-0.0001
2538.00,-0.0001
2537.00,-0.0001
2536.00,-0.0001
2535.00,-0.0001
2534.00,-0.0001
2533.00,-0.0001
2532.00,-0.0002
2531.00,-0.0002
2530.00,-0.0002
2529.00,-0.0002
2528.00,-0.0003
2527.00,-0.0002
2526.00,-0.0002
2525.00,-0.0001
2524.00,-0.0001
2523.00,-0.0001
2522.00,-0.0001
2521.00,-0.0001
2520.00,-0.0002
2519.00,-0.0002
2518.00,-0.0002
2517.00,-0.0003
2516.00,-0.0003
2515.00,-0.0003
2514.00,-0.0002
2513.00,-0.0002
2512.00,-0.0002
2511.00,-0.0002
2510.00,-0.0002
2509.00,-0.0003
2508.00,-0.0003
2507.00,-0.0002
2506.00,-0.0002
2505.00,-0.0002
2504.00,-0.0002
2503.00,-0.0002
2502.00,-0.0002
2501.00,-0.0002
2500.00,-0.0003
2499.00,-0.0003
2498.00,-0.0003
2497.00,-0.0003
2496.00,-0.0003
2495.00,-0.0003
2494.00,-0.0003
2493.00,-0.0003
2492.00,-0.0003
2491.00,-0.0003
2490.00,-0.0003
2489.00,-0.0003
2488.00,-0.0003
2487.00,-0.0003
2486.00,-0.0003
2485.00,-0.0003
2484.00,-0.0003
2483.00,-0.0004
2482.00,-0.0004
2481.00,-0.0003
2480.00,-0.0003
2479.00,-0.0003
2478.00,-0.0003
2477.00,-0.0003
2476.00,-0.0003
2475.00,-0.0003
2474.00,-0.0003
2473.00,-0.0003
2472.00,-0.0003
2471.00,-0.0003
2470.00,-0.0003
2469.00,-0.0004
2468.00,-0.0004
2467.00,-0.0003
2466.00,-0.0003
2465.00,-0.0003
2464.00,-0.0003
2463.00,-0.0003
2462.00,-0.0003
2461.00,-0.0003
2460.00,-0.0003
2459.00,-0.0003
2458.00,-0.0003
2457.00,-0.0003
2456.00,-0.0003
2455.00,-0.0004
2454.00,-0.0004
2453.00,-0.0004
2452.00,-0.0004
2451.00,-0.0004
2450.00,-0.0003
2449.00,-0.0003
2448.00,-0.0003
2447.00,-0.0003
2446.00,-0.0003
2445.00,-0.0003
2444.00,-0.0003
2443.00,-0.0003
2442.00,-0.0004
2441.00,-0.0004
2440.00,-0.0004
2439.00,-0.0004
2438.00,-0.0004
2437.00,-0.0004
2436.00,-0.0004
2435.00,-0.0004
2434.00,-0.0004
2433.00,-0.0004
2432.00,-0.0004
2431.00,-0.0004
2430.00,-0.0004
2429.00,-0.0004
2428.00,-0.0005
2427.00,-0.0005
2426.00,-0.0004
2425.00,-0.0004
2424.00,-0.0004
2423.00,-0.0004
2422.00,-0.0005
2421.00,-0.0005
2420.00,-0.0005
2419.00,-0.0005
2418.00,-0.0005
2417.00,-0.0005
2416.00,-0.0005
2415.00,-0.0005
2414.00,-0.0005
2413.00,-0.0005
2412.00,-0.0005
2411.00,-0.0005
2410.00,-0.0005
2409.00,-0.0006
2408.00,-0.0006
2407.00,-0.0006
2406.00,-0.0006
2405.00,-0.0006
2404.00,-0.0006
2403.00,-0.0006
2402.00,-0.0005
2401.00,-0.0005
2400.00,-0.0005
2399.00,-0.0005
2398.00,-0.0005
2397.00,-0.0005
2396.00,-0.0005
2395.00,-0.0005
2394.00,-0.0005
2393.00,-0.0005
2392.00,-0.0005
2391.00,-0.0005
2390.00,-0.0005
2389.00,-0.0006
2388.00,-0.0006
2387.00,-0.0006
2386.00,-0.0006
2385.00,-0.0005
2384.00,-0.0005
2383.00,-0.0006
2382.00,-0.0006
2381.00,-0.0006
2380.00,-0.0005
2379.00,-0.0005
2378.00,-0.0005
2377.00,-0.0005
2376.00,-0.0005
2375.00,-0.0006
2374.00,-0.0006
2373.00,-0.0006
2372.00,-0.0006
2371.00,-0.0006
2370.00,-0.0006
2369.00,-0.0006
2368.00,-0.0006
2367.00,-0.0006
2366.00,-0.0005
2365.00,-0.0005
2364.00,-0.0005
2363.00,-0.0006
2362.00,-0.0006
2361.00,-0.0006
2360.00,-0.0006
2359.00,-0.0006
2358.00,-0.0006
2357.00,-0.0006
2356.00,-0.0006
2355.00,-0.0006
2354.00,-0.0006
2353.00,-0.0005
2352.00,-0.0005
2351.00,-0.0005
2350.00,-0.0006
2349.00,-0.0006
2348.00,-0.0006
2347.00,-0.0005
2346.00,-0.0005
2345.00,-0.0005
2344.00,-0.0006
2343.00,-0.0006
2342.00,-0.0006
2341.00,-0.0006
2340.00,-0.0006
2339.00,-0.0006
2338.00,-0.0006
2337.00,-0.0006
2336.00,-0.0005
2335.00,-0.0004
2334.00,-0.0004
2333.00,-0.0003
2332.00,-0.0003
2331.00,-0.0004
2330.00,-0.0004
2329.00,-0.0004
2328.00,-0.0004
2327.00,-0.0004
2326.00,-0.0004
2325.00,-0.0004
2324.00,-0.0004
2323.00,-0.0004
2322.00,-0.0004
2321.00,-0.0005
2320.00,-0.0005
2319.00,-0.0005
2318.00,-0.0005
2317.00,-0.0005
2316.00,-0.0005
2315.00,-0.0005
2314.00,-0.0005
2313.00,-0.0005
2312.00,-0.0006
2311.00,-0.0006
2310.00,-0.0006
2309.00,-0.0005
2308.00,-0.0004
2307.00,-0.0004
2306.00,-0.0004
2305.00,-0.0004
2304.00,-0.0004
2303.00,-0.0005
2302.00,-0.0005
2301.00,-0.0005
2300.00,-0.0005
2299.00,-0.0005
2298.00,-0.0005
2297.00,-0.0005
2296.00,-0.0005
2295.00,-0.0005
2294.00,-0.0004
2293.00,-0.0004
2292.00,-0.0004
2291.00,-0.0003
2290.00,-0.0003
2289.00,-0.0003
2288.00,-0.0004
2287.00,-0.0004
2286.00,-0.0004
2285.00,-0.0004
2284.00,-0.0005
2283.00,-0.0005
2282.00,-0.0005
2281.00,-0.0004
2280.00,-0.0004
2279.00,-0.0004
2278.00,-0.0005
2277.00,-0.0005
2276.00,-0.0006
2275.00,-0.0006
2274.00,-0.0006
2273.00,-0.0006
2272.00,-0.0005
2271.00,-0.0004
2270.00,-0.0004
2269.00,-0.0003
2268.00,-0.0003
2267.00,-0.0003
2266.00,-0.0003
2265.00,-0.0004
2264.00,-0.0004
2263.00,-0.0005
2262.00,-0.0005
2261.00,-0.0005
2260.00,-0.0005
2259.00,-0.0005
2258.00,-0.0005
2257.00,-0.0005
2256.00,-0.0005
2255.00,-0.0004
2254.00,-0.0004
2253.00,-0.0004
2252.00,-0.0005
2251.00,-0.0005
2250.00,-0.0005
2249.00,-0.0005
2248.00,-0.0004
2247.00,-0.0004
2246.00,-0.0004
2245.00,-0.0004
2244.00,-0.0004
2243.00,-0.0004
2242.00,-0.0004
2241.00,-0.0004
2240.00,-0.0005
2239.00,-0.0005
2238.00,-0.0005
2237.00,-0.0006
2236.00,-0.0006
2235.00,-0.0006
2234.00,-0.0005
2233.00,-0.0005
2232.00,-0.0005
2231.00,-0.0005
2230.00,-0.0005
2229.00,-0.0006
2228.00,-0.0006
2227.00,-0.0007
2226.00,-0.0008
2225.00,-0.0008
2224.00,-0.0008
2223.00,-0.0008
2222.00,-0.0008
2221.00,-0.0007
2220.00,-0.0006
2219.00,-0.0005
2218.00,-0.0005
2217.00,-0.0006
2216.00,-0.0006
2215.00,-0.0007
2214.00,-0.0008
2213.00,-0.0008
2212.00,-0.0008
2211.00,-0.0007
2210.00,-0.0007
2209.00,-0.0006
2208.00,-0.0005
2207.00,-0.0004
2206.00,-0.0004
2205.00,-0.0005
2204.00,-0.0005
2203.00,-0.0006
2202.00,-0.0006
2201.00,-0.0006
2200.00,-0.0007
2199.00,-0.0007
2198.00,-0.0007
2197.00,-0.0007
2196.00,-0.0008
2195.00,-0.0008
2194.00,-0.0007
2193.00,-0.0007
2192.00,-0.0006
2191.00,-0.0006
2190.00,-0.0005
2189.00,-0.0004
2188.00,-0.0003
2187.00,-0.0003
2186.00,-0.0002
2185.00,-0.0002
2184.00,-0.0002
2183.00,-0.0002
2182.00,-0.0002
2181.00,-0.0002
2180.00,-0.0001
2179.00,-0.0001
2178.00,-0.0002
2177.00,-0.0004
2176.00,-0.0006
2175.00,-0.0007
2174.00,-0.0007
2173.00,-0.0005
2172.00,-0.0003
2171.00,-0.0002
2170.00,-0.0001
2169.00,-0.0001
2168.00,-0.0002
2167.00,-0.0002
2166.00,-0.0002
2165.00,-0.0001
2164.00,-0.0001
2163.00,-0.0002
2162.00,-0.0004
2161.00,-0.0005
2160.00,-0.0005
2159.00,-0.0005
2158.00,-0.0005
2157.00,-0.0006
2156.00,-0.0007
2155.00,-0.0008
2154.00,-0.0008
2153.00,-0.0008
2152.00,-0.0008
2151.00,-0.0008
2150.00,-0.0007
2149.00,-0.0007
2148.00,-0.0007
2147.00,-0.0006
2146.00,-0.0006
2145.00,-0.0005
2144.00,-0.0005
2143.00,-0.0004
2142.00,-0.0004
2141.00,-0.0004
2140.00,-0.0005
2139.00,-0.0006
2138.00,-0.0006
2137.00,-0.0006
2136.00,-0.0007
2135.00,-0.0007
2134.00,-0.0007
2133.00,-0.0007
2132.00,-0.0006
2131.00,-0.0005
2130.00,-0.0005
2129.00,-0.0005
2128.00,-0.0005
2127.00,-0.0005
2126.00,-0.0005
2125.00,-0.0005
2124.00,-0.0005
2123.00,-0.0004
2122.00,-0.0004
2121.00,-0.0003
2120.00,-0.0003
2119.00,-0.0003
2118.00,-0.0003
2117.00,-0.0003
2116.00,-0.0002
2115.00,-0.0002
2114.00,-0.0002
2113.00,-0.0003
2112.00,-0.0004
2111.00,-0.0004
2110.00,-0.0004
2109.00,-0.0003
2108.00,-0.0003
2107.00,-0.0003
2106.00,-0.0003
2105.00,-0.0003
2104.00,-0.0002
2103.00,-0.0002
2102.00,-0.0001
2101.00,-0.0001
2100.00,-0.0001
2099.00,-0.0002
2098.00,-0.0002
2097.00,-0.0002
2096.00,-0.0001
2095.00,-0.0001
2094.00,-0.0001
2093.00,-0.0002
2092.00,-0.0003
2091.00,-0.0004
2090.00,-0.0004
2089.00,-0.0004
2088.00,-0.0003
2087.00,-0.0003
2086.00,-0.0002
2085.00,-0.0003
2084.00,-0.0003
2083.00,-0.0004
2082.00,-0.0004
2081.00,-0.0003
2080.00,-0.0003
2079.00,-0.0003
2078.00,-0.0004
2077.00,-0.0004
2076.00,-0.0004
2075.00,-0.0004
2074.00,-0.0004
2073.00,-0.0004
2072.00,-0.0004
2071.00,-0.0003
2070.00,-0.0003
2069.00,-0.0005
2068.00,-0.0006
2067.00,-0.0007
2066.00,-0.0007
2065.00,-0.0006
2064.00,-0.0005
2063.00,-0.0004
2062.00,-0.0004
2061.00,-0.0004
2060.00,-0.0005
2059.00,-0.0005
2058.00,-0.0005
2057.00,-0.0004
2056.00,-0.0003
2055.00,-0.0003
2054.00,-0.0003
2053.00,-0.0004
2052.00,-0.0005
2051.00,-0.0007
2050.00,-0.0007
2049.00,-0.0006
2048.00,-0.0006
2047.00,-0.0005
2046.00,-0.0005
2045.00,-0.0005
2044.00,-0.0005
2043.00,-0.0005
2042.00,-0.0005
2041.00,-0.0005
2040.00,-0.0005
2039.00,-0.0005
2038.00,-0.0006
2037.00,-0.0007
2036.00,-0.0007
2035.00,-0.0007
2034.00,-0.0006
2033.00,-0.0005
2032.00,-0.0006
2031.00,-0.0007
2030.00,-0.0008
2029.00,-0.0009
2028.00,-0.0010
2027.00,-0.0010
2026.00,-0.0009
2025.00,-0.0007
2024.00,-0.0005
2023.00,-0.0004
2022.00,-0.0004
2021.00,-0.0005
2020.00,-0.0005
2019.00,-0.0006
2018.00,-0.0007
2017.00,-0.0008
2016.00,-0.0009
2015.00,-0.0009
2014.00,-0.0009
2013.00,-0.0008
2012.00,-0.0008
2011.00,-0.0008
2010.00,-0.0007
2009.00,-0.0006
2008.00,-0.0005
2007.00,-0.0005
2006.00,-0.0006
2005.00,-0.0007
2004.00,-0.0008
2003.00,-0.0008
2002.00,-0.0008
2001.00,-0.0008
2000.00,-0.0008
1999.00,-0.0008
1998.00,-0.0007
1997.00,-0.0006
1996.00,-0.0006
1995.00,-0.0006
1994.00,-0.0006
1993.00,-0.0005
1992.00,-0.0004
1991.00,-0.0004
1990.00,-0.0004
1989.00,-0.0004
1988.00,-0.0005
1987.00,-0.0005
1986.00,-0.0005
1985.00,-0.0005
1984.00,-0.0005
1983.00,-0.0005
1982.00,-0.0006
1981.00,-0.0008
1980.00,-0.0009
1979.00,-0.0010
1978.00,-0.0011
1977.00,-0.0011
1976.00,-0.0010
1975.00,-0.0008
1974.00,-0.0007
1973.00,-0.0006
1972.00,-0.0007
1971.00,-0.0008
1970.00,-0.0008
1969.00,-0.0008
1968.00,-0.0008
1967.00,-0.0008
1966.00,-0.0008
1965.00,-0.0007
1964.00,-0.0007
1963.00,-0.0008
1962.00,-0.0010
1961.00,-0.0011
1960.00,-0.0011
1959.00,-0.0011
1958.00,-0.0010
1957.00,-0.0010
1956.00,-0.0009
1955.00,-0.0009
1954.00,-0.0008
1953.00,-0.0008
1952.00,-0.0008
1951.00,-0.0008
1950.00,-0.0008
1949.00,-0.0008
1948.00,-0.0008
1947.00,-0.0007
1946.00,-0.0006
1945.00,-0.0005
1944.00,-0.0005
1943.00,-0.0006
1942.00,-0.0007
1941.00,-0.0008
1940.00,-0.0008
1939.00,-0.0007
1938.00,-0.0006
1937.00,-0.0006
1936.00,-0.0006
1935.00,-0.0007
1934.00,-0.0008
1933.00,-0.0009
1932.00,-0.0009
1931.00,-0.0008
1930.00,-0.0007
1929.00,-0.0006
1928.00,-0.0006
1927.00,-0.0006
1926.00,-0.0006
1925.00,-0.0007
1924.00,-0.0007
1923.00,-0.0008
1922.00,-0.0008
1921.00,-0.0007
1920.00,-0.0006
1919.00,-0.0005
1918.00,-0.0005
1917.00,-0.0004
1916.00,-0.0004
1915.00,-0.0004
1914.00,-0.0004
1913.00,-0.0005
1912.00,-0.0006
1911.00,-0.0006
1910.00,-0.0007
1909.00,-0.0007
1908.00,-0.0007
1907.00,-0.0006
1906.00,-0.0006
1905.00,-0.0006
1904.00,-0.0006
1903.00,-0.0006
1902.00,-0.0006
1901.00,-0.0007
1900.00,-0.0007
1899.00,-0.0006
1898.00,-0.0005
1897.00,-0.0005
1896.00,-0.0005
1895.00,-0.0006
1894.00,-0.0005
1893.00,-0.0005
1892.00,-0.0005
1891.00,-0.0005
1890.00,-0.0006
1889.00,-0.0007
1888.00,-0.0007
1887.00,-0.0007
1886.00,-0.0006
1885.00,-0.0006
1884.00,-0.0007
1883.00,-0.0007
1882.00,-0.0006
1881.00,-0.0006
1880.00,-0.0006
1879.00,-0.0006
1878.00,-0.0006
1877.00,-0.0005
1876.00,-0.0005
1875.00,-0.0005
1874.00,-0.0005
1873.00,-0.0004
1872.00,-0.0004
1871.00,-0.0003
1870.00,-0.0004
1869.00,-0.0005
1868.00,-0.0006
1867.00,-0.0006
1866.00,-0.0005
1865.00,-0.0005
1864.00,-0.0005
1863.00,-0.0006
1862.00,-0.0006
1861.00,-0.0006
1860.00,-0.0006
1859.00,-0.0006
1858.00,-0.0006
1857.00,-0.0006
1856.00,-0.0006
1855.00,-0.0005
1854.00,-0.0005
1853.00,-0.0005
1852.00,-0.0005
1851.00,-0.0006
1850.00,-0.0006
1849.00,-0.0006
1848.00,-0.0006
1847.00,-0.0005
1846.00,-0.0004
1845.00,-0.0003
1844.00,-0.0004
1843.00,-0.0005
1842.00,-0.0005
1841.00,-0.0004
1840.00,-0.0004
1839.00,-0.0005
1838.00,-0.0005
1837.00,-0.0005
1836.00,-0.0005
1835.00,-0.0005
1834.00,-0.0004
1833.00,-0.0003
1832.00,-0.0003
1831.00,-0.0003
1830.00,-0.0005
1829.00,-0.0005
1828.00,-0.0005
1827.00,-0.0003
1826.00,-0.0003
1825.00,-0.0003
1824.00,-0.0004
1823.00,-0.0004
1822.00,-0.0003
1821.00,-0.0003
1820.00,-0.0004
1819.00,-0.0004
1818.00,-0.0005
1817.00,-0.0004
1816.00,-0.0004
1815.00,-0.0004
1814.00,-0.0003
1813.00,-0.0002
1812.00,-0.0002
1811.00,-0.0003
1810.00,-0.0003
1809.00,-0.0002
1808.00,-0.0003
1807.00,-0.0003
1806.00,-0.0002
1805.00,-0.0002
1804.00,-0.0002
1803.00,-0.0003
1802.00,-0.0002
1801.00,-0.0001
1800.00,-0.0000
1799.00,0.0000
1798.00,0.0001
1797.00,0.0001
1796.00,0.0001
1795.00,0.0001
1794.00,0.0002
1793.00,0.0003
1792.00,0.0002
1791.00,0.0001
1790.00,0.0001
1789.00,0.0002
1788.00,0.0002
1787.00,0.0002
1786.00,0.0002
1785.00,0.0002
1784.00,0.0002
1783.00,0.0001
1782.00,0.0001
1781.00,0.0001
1780.00,0.0001
1779.00,0.0001
1778.00,0.0002
1777.00,0.0002
1776.00,0.0003
1775.00,0.0003
1774.00,0.0003
1773.00,0.0003
1772.00,0.0002
1771.00,0.0002
1770.00,0.0003
1769.00,0.0004
1768.00,0.0005
1767.00,0.0004
1766.00,0.0004
1765.00,0.0005
1764.00,0.0005
1763.00,0.0004
1762.00,0.0002
1761.00,0.0002
1760.00,0.0003
1759.00,0.0004
1758.00,0.0004
1757.00,0.0005
1756.00,0.0006
1755.00,0.0007
1754.00,0.0009
1753.00,0.0011
1752.00,0.0013
1751.00,0.0013
1750.00,0.0012
1749.00,0.0011
1748.00,0.0011
1747.00,0.0011
1746.00,0.0010
1745.00,0.0010
1744.00,0.0010
1743.00,0.0009
1742.00,0.0009
1741.00,0.0010
1740.00,0.0011
1739.00,0.0009
1738.00,0.0008
1737.00,0.0009
1736.00,0.0012
1735.00,0.0012
1734.00,0.0010
1733.00,0.0008
1732.00,0.0008
1731.00,0.0009
1730.00,0.0010
1729.00,0.0010
1728.00,0.0011
1727.00,0.0011
1726.00,0.0011
1725.00,0.0012
1724.00,0.0012
1723.00,0.0013
1722.00,0.0014
1721.00,0.0016
1720.00,0.0019
1719.00,0.0020
1718.00,0.0020
1717.00,0.0021
1716.00,0.0023
1715.00,0.0027
1714.00,0.0031
1713.00,0.0034
1712.00,0.0037
1711.00,0.0040
1710.00,0.0044
1709.00,0.0048
1708.00,0.0053
1707.00,0.0059
1706.00,0.0066
1705.00,0.0074
1704.00,0.0081
1703.00,0.0090
1702.00,0.0101
1701.00,0.0112
1700.00,0.0117
1699.00,0.0117
1698.00,0.0117
1697.00,0.0118
1696.00,0.0117
1695.00,0.0116
1694.00,0.0116
1693.00,0.0117
1692.00,0.0118
1691.00,0.0120
1690.00,0.0121
1689.00,0.0123
1688.00,0.0124
1687.00,0.0125
1686.00,0.0128
1685.00,0.0134
1684.00,0.0140
1683.00,0.0146
1682.00,0.0149
1681.00,0.0152
1680.00,0.0155
1679.00,0.0157
1678.00,0.0160
1677.00,0.0164
1676.00,0.0171
1675.00,0.0177
1674.00,0.0182
1673.00,0.0185
1672.00,0.0188
1671.00,0.0192
1670.00,0.0198
1669.00,0.0204
1668.00,0.0210
1667.00,0.0214
1666.00,0.0216
1665.00,0.0219
1664.00,0.0224
1663.00,0.0231
1662.00,0.0239
1661.00,0.0246
1660.00,0.0252
1659.00,0.0256
1658.00,0.0259
1657.00,0.0259
1656.00,0.0258
1655.00,0.0260
1654.00,0.0268
1653.00,0.0286
1652.00,0.0302
1651.00,0.0307
1650.00,0.0307
1649.00,0.0307
1648.00,0.0311
1647.00,0.0320
1646.00,0.0332
1645.00,0.0339
1644.00,0.0343
1643.00,0.0345
1642.00,0.0348
1641.00,0.0352
1640.00,0.0356
1639.00,0.0359
1638.00,0.0362
1637.00,0.0369
1636.00,0.0382
1635.00,0.0397
1634.00,0.0405
1633.00,0.0407
1632.00,0.0407
1631.00,0.0409
1630.00,0.0412
1629.00,0.0416
1628.00,0.0420
1627.00,0.0423
1626.00,0.0424
1625.00,0.0422
1624.00,0.0420
1623.00,0.0419
1622.00,0.0415
1621.00,0.0405
1620.00,0.0393
1619.00,0.0379
1618.00,0.0365
1617.00,0.0352
1616.00,0.0340
1615.00,0.0330
1614.00,0.0318
1613.00,0.0304
1612.00,0.0291
1611.00,0.0279
1610.00,0.0267
1609.00,0.0255
1608.00,0.0243
1607.00,0.0233
1606.00,0.0222
1605.00,0.0212
1604.00,0.0203
1603.00,0.0196
1602.00,0.0189
1601.00,0.0184
1600.00,0.0179
1599.00,0.0176
1598.00,0.0172
1597.00,0.0169
1596.00,0.0166
1595.00,0.0164
1594.00,0.0162
1593.00,0.0159
1592.00,0.0157
1591.00,0.0155
1590.00,0.0153
1589.00,0.0151
1588.00,0.0149
1587.00,0.0148
1586.00,0.0148
1585.00,0.0147
1584.00,0.0147
1583.00,0.0148
1582.00,0.0150
1581.00,0.0150
1580.00,0.0150
1579.00,0.0150
1578.00,0.0150
1577.00,0.0153
1576.00,0.0160
1575.00,0.0168
1574.00,0.0172
1573.00,0.0174
1572.00,0.0177
1571.00,0.0181
1570.00,0.0188
1569.00,0.0195
1568.00,0.0202
1567.00,0.0207
1566.00,0.0210
1565.00,0.0214
1564.00,0.0216
1563.00,0.0216
1562.00,0.0215
1561.00,0.0216
1560.00,0.0224
1559.00,0.0241
1558.00,0.0257
1557.00,0.0261
1556.00,0.0260
1555.00,0.0262
1554.00,0.0265
1553.00,0.0269
1552.00,0.0272
1551.00,0.0274
1550.00,0.0278
1549.00,0.0283
1548.00,0.0287
1547.00,0.0289
1546.00,0.0290
1545.00,0.0291
1544.00,0.0292
1543.00,0.0294
1542.00,0.0297
1541.00,0.0304
1540.00,0.0316
1539.00,0.0329
1538.00,0.0335
1537.00,0.0334
1536.00,0.0332
1535.00,0.0332
1534.00,0.0337
1533.00,0.0344
1532.00,0.0349
1531.00,0.0351
1530.00,0.0352
1529.00,0.0352
1528.00,0.0352
1527.00,0.0354
1526.00,0.0357
1525.00,0.0359
1524.00,0.0359
1523.00,0.0358
1522.00,0.0362
1521.00,0.0369
1520.00,0.0376
1519.00,0.0379
1518.00,0.0382
1517.00,0.0387
1516.00,0.0390
1515.00,0.0390
1514.00,0.0386
1513.00,0.0380
1512.00,0.0371
1511.00,0.0361
1510.00,0.0350
1509.00,0.0341
1508.00,0.0331
1507.00,0.0324
1506.00,0.0321
1505.00,0.0315
1504.00,0.0304
1503.00,0.0293
1502.00,0.0282
1501.00,0.0271
1500.00,0.0260
1499.00,0.0249
1498.00,0.0239
1497.00,0.0231
1496.00,0.0221
1495.00,0.0212
1494.00,0.0204
1493.00,0.0196
1492.00,0.0188
1491.00,0.0180
1490.00,0.0171
1489.00,0.0164
1488.00,0.0157
1487.00,0.0151
1486.00,0.0146
1485.00,0.0140
1484.00,0.0135
1483.00,0.0131
1482.00,0.0127
1481.00,0.0124
1480.00,0.0122
1479.00,0.0120
1478.00,0.0119
1477.00,0.0118
1476.00,0.0117
1475.00,0.0117
1474.00,0.0119
1473.00,0.0123
1472.00,0.0125
1471.00,0.0126
1470.00,0.0125
1469.00,0.0124
1468.00,0.0123
1467.00,0.0123
1466.00,0.0124
1465.00,0.0128
1464.00,0.0132
1463.00,0.0134
1462.00,0.0135
1461.00,0.0135
1460.00,0.0135
1459.00,0.0134
1458.00,0.0136
1457.00,0.0145
1456.00,0.0155
1455.00,0.0161
1454.00,0.0164
1453.00,0.0168
1452.00,0.0171
1451.00,0.0173
1450.00,0.0175
1449.00,0.0178
1448.00,0.0180
1447.00,0.0180
1446.00,0.0180
1445.00,0.0180
1444.00,0.0180
1443.00,0.0178
1442.00,0.0177
1441.00,0.0175
1440.00,0.0173
1439.00,0.0170
1438.00,0.0167
1437.00,0.0165
1436.00,0.0161
1435.00,0.0157
1434.00,0.0151
1433.00,0.0147
1432.00,0.0142
1431.00,0.0137
1430.00,0.0132
1429.00,0.0129
1428.00,0.0127
1427.00,0.0124
1426.00,0.0121
1425.00,0.0120
1424.00,0.0120
1423.00,0.0119
1422.00,0.0117
1421.00,0.0116
1420.00,0.0116
1419.00,0.0116
1418.00,0.0118
1417.00,0.0120
1416.00,0.0121
1415.00,0.0121
1414.00,0.0120
1413.00,0.0119
1412.00,0.0119
1411.00,0.0119
1410.00,0.0118
1409.00,0.0117
1408.00,0.0116
1407.00,0.0115
1406.00,0.0113
1405.00,0.0112
1404.00,0.0111
1403.00,0.0109
1402.00,0.0106
1401.00,0.0104
1400.00,0.0103
1399.00,0.0101
1398.00,0.0099
1397.00,0.0097
1396.00,0.0095
1395.00,0.0094
1394.00,0.0093
1393.00,0.0093
1392.00,0.0092
1391.00,0.0091
1390.00,0.0089
1389.00,0.0086
1388.00,0.0084
1387.00,0.0083
1386.00,0.0082
1385.00,0.0081
1384.00,0.0079
1383.00,0.0077
1382.00,0.0075
1381.00,0.0073
1380.00,0.0071
1379.00,0.0069
1378.00,0.0067
1377.00,0.0065
1376.00,0.0063
1375.00,0.0061
1374.00,0.0060
1373.00,0.0059
1372.00,0.0059
1371.00,0.0059
1370.00,0.0058
1369.00,0.0057
1368.00,0.0055
1367.00,0.0054
1366.00,0.0051
1365.00,0.0047
1364.00,0.0043
1363.00,0.0039
1362.00,0.0036
1361.00,0.0034
1360.00,0.0032
1359.00,0.0031
1358.00,0.0029
1357.00,0.0027
1356.00,0.0026
1355.00,0.0024
1354.00,0.0023
1353.00,0.0022
1352.00,0.0022
1351.00,0.0021
1350.00,0.0021
1349.00,0.0021
1348.00,0.0021
1347.00,0.0021
1346.00,0.0022
1345.00,0.0022
1344.00,0.0023
1343.00,0.0023
1342.00,0.0023
1341.00,0.0022
1340.00,0.0021
1339.00,0.0021
1338.00,0.0021
1337.00,0.0022
1336.00,0.0022
1335.00,0.0022
1334.00,0.0021
1333.00,0.0020
1332.00,0.0019
1331.00,0.0017
1330.00,0.0016
1329.00,0.0015
1328.00,0.0013
1327.00,0.0012
1326.00,0.0011
1325.00,0.0011
1324.00,0.0010
1323.00,0.0010
1322.00,0.0010
1321.00,0.0010
1320.00,0.0010
1319.00,0.0010
1318.00,0.0011
1317.00,0.0012
1316.00,0.0013
1315.00,0.0014
1314.00,0.0015
1313.00,0.0015
1312.00,0.0016
1311.00,0.0017
1310.00,0.0018
1309.00,0.0019
1308.00,0.0020
1307.00,0.0022
1306.00,0.0023
1305.00,0.0023
1304.00,0.0024
1303.00,0.0025
1302.00,0.0026
1301.00,0.0027
1300.00,0.0029
1299.00,0.0030
1298.00,0.0031
1297.00,0.0032
1296.00,0.0033
1295.00,0.0034
1294.00,0.0035
1293.00,0.0037
1292.00,0.0038
1291.00,0.0040
1290.00,0.0041
1289.00,0.0043
1288.00,0.0045
1287.00,0.0047
1286.00,0.0049
1285.00,0.0051
1284.00,0.0053
1283.00,0.0055
1282.00,0.0057
1281.00,0.0060
1280.00,0.0062
1279.00,0.0065
1278.00,0.0068
1277.00,0.0072
1276.00,0.0076
1275.00,0.0081
1274.00,0.0086
1273.00,0.0091
1272.00,0.0096
1271.00,0.0101
1270.00,0.0106
1269.00,0.0111
1268.00,0.0116
1267.00,0.0120
1266.00,0.0124
1265.00,0.0128
1264.00,0.0131
1263.00,0.0133
1262.00,0.0135
1261.00,0.0136
1260.00,0.0136
1259.00,0.0137
1258.00,0.0137
1257.00,0.0137
1256.00,0.0136
1255.00,0.0136
1254.00,0.0135
1253.00,0.0135
1252.00,0.0135
1251.00,0.0135
1250.00,0.0136
1249.00,0.0137
1248.00,0.0138
1247.00,0.0139
1246.00,0.0140
1245.00,0.0140
1244.00,0.0141
1243.00,0.0143
1242.00,0.0144
1241.00,0.0146
1240.00,0.0147
1239.00,0.0149
1238.00,0.0150
1237.00,0.0152
1236.00,0.0154
1235.00,0.0156
1234.00,0.0158
1233.00,0.0158
1232.00,0.0159
1231.00,0.0159
1230.00,0.0157
1229.00,0.0155
1228.00,0.0152
1227.00,0.0149
1226.00,0.0145
1225.00,0.0141
1224.00,0.0137
1223.00,0.0132
1222.00,0.0127
1221.00,0.0121
1220.00,0.0116
1219.00,0.0110
1218.00,0.0104
1217.00,0.0098
1216.00,0.0092
1215.00,0.0086
1214.00,0.0080
1213.00,0.0074
1212.00,0.0068
1211.00,0.0062
1210.00,0.0057
1209.00,0.0052
1208.00,0.0047
1207.00,0.0042
1206.00,0.0037
1205.00,0.0032
1204.00,0.0028
1203.00,0.0024
1202.00,0.0021
1201.00,0.0018
1200.00,0.0016
1199.00,0.0014
1198.00,0.0013
1197.00,0.0011
1196.00,0.0010
1195.00,0.0008
1194.00,0.0007
1193.00,0.0007
1192.00,0.0006
1191.00,0.0005
1190.00,0.0005
1189.00,0.0004
1188.00,0.0004
1187.00,0.0004
1186.00,0.0004
1185.00,0.0005
1184.00,0.0005
1183.00,0.0006
1182.00,0.0007
1181.00,0.0008
1180.00,0.0011
1179.00,0.0013
1178.00,0.0016
1177.00,0.0019
1176.00,0.0022
1175.00,0.0024
1174.00,0.0026
1173.00,0.0027
1172.00,0.0028
1171.00,0.0030
1170.00,0.0031
1169.00,0.0032
1168.00,0.0033
1167.00,0.0033
1166.00,0.0034
1165.00,0.0034
1164.00,0.0034
1163.00,0.0033
1162.00,0.0033
1161.00,0.0032
1160.00,0.0031
1159.00,0.0029
1158.00,0.0027
1157.00,0.0025
1156.00,0.0023
1155.00,0.0020
1154.00,0.0018
1153.00,0.0015
1152.00,0.0013
1151.00,0.0010
1150.00,0.0008
1149.00,0.0006
1148.00,0.0005
1147.00,0.0004
1146.00,0.0004
1145.00,0.0004
1144.00,0.0004
1143.00,0.0004
1142.00,0.0003
1141.00,0.0003
1140.00,0.0004
1139.00,0.0004
1138.00,0.0005
1137.00,0.0005
1136.00,0.0006
1135.00,0.0008
1134.00,0.0010
1133.00,0.0012
1132.00,0.0014
1131.00,0.0016
1130.00,0.0018
1129.00,0.0020
1128.00,0.0022
1127.00,0.0023
1126.00,0.0025
1125.00,0.0027
1124.00,0.0029
1123.00,0.0031
1122.00,0.0033
1121.00,0.0034
1120.00,0.0036
1119.00,0.0038
1118.00,0.0040
1117.00,0.0042
1116.00,0.0044
1115.00,0.0046
1114.00,0.0047
1113.00,0.0049
1112.00,0.0051
1111.00,0.0052
1110.00,0.0053
1109.00,0.0054
1108.00,0.0055
1107.00,0.0056
1106.00,0.0056
1105.00,0.0057
1104.00,0.0057
1103.00,0.0058
1102.00,0.0058
1101.00,0.0058
1100.00,0.0057
1099.00,0.0056
1098.00,0.0054
1097.00,0.0053
1096.00,0.0052
1095.00,0.0051
1094.00,0.0050
1093.00,0.0048
1092.00,0.0048
1091.00,0.0047
1090.00,0.0046
1089.00,0.0045
1088.00,0.0044
1087.00,0.0042
1086.00,0.0041
1085.00,0.0040
1084.00,0.0040
1083.00,0.0039
1082.00,0.0039
1081.00,0.0038
1080.00,0.0038
1079.00,0.0037
1078.00,0.0037
1077.00,0.0036
1076.00,0.0036
1075.00,0.0035
1074.00,0.0034
1073.00,0.0032
1072.00,0.0031
1071.00,0.0030
1070.00,0.0030
1069.00,0.0030
1068.00,0.0031
1067.00,0.0031
1066.00,0.0031
1065.00,0.0030
1064.00,0.0031
1063.00,0.0031
1062.00,0.0031
1061.00,0.0032
1060.00,0.0032
1059.00,0.0033
1058.00,0.0033
1057.00,0.0032
1056.00,0.0031
1055.00,0.0030
1054.00,0.0029
1053.00,0.0028
1052.00,0.0027
1051.00,0.0027
1050.00,0.0027
1049.00,0.0027
1048.00,0.0026
1047.00,0.0024
1046.00,0.0022
1045.00,0.0020
1044.00,0.0017
1043.00,0.0014
1042.00,0.0011
1041.00,0.0007
1040.00,0.0003
1039.00,-0.0000
1038.00,-0.0004
1037.00,-0.0006
1036.00,-0.0009
1035.00,-0.0010
1034.00,-0.0011
1033.00,-0.0011
1032.00,-0.0011
1031.00,-0.0010
1030.00,-0.0009
1029.00,-0.0007
1028.00,-0.0005
1027.00,-0.0002
1026.00,0.0002
1025.00,0.0005
1024.00,0.0009
1023.00,0.0012
1022.00,0.0016
1021.00,0.0020
1020.00,0.0024
1019.00,0.0027
1018.00,0.0031
1017.00,0.0035
1016.00,0.0039
1015.00,0.0042
1014.00,0.0045
1013.00,0.0046
1012.00,0.0047
1011.00,0.0048
1010.00,0.0048
1009.00,0.0048
1008.00,0.0049
1007.00,0.0050
1006.00,0.0051
1005.00,0.0053
1004.00,0.0055
1003.00,0.0057
1002.00,0.0058
1001.00,0.0059
1000.00,0.0060
999.00,0.0061
998.00,0.0061
997.00,0.0061
996.00,0.0060
995.00,0.0059
994.00,0.0056
993.00,0.0053
992.00,0.0051
991.00,0.0048
990.00,0.0045
989.00,0.0043
988.00,0.0041
987.00,0.0039
986.00,0.0039
985.00,0.0039
984.00,0.0040
983.00,0.0041
982.00,0.0042
981.00,0.0043
980.00,0.0044
979.00,0.0044
978.00,0.0044
977.00,0.0043
976.00,0.0043
975.00,0.0042
974.00,0.0041
973.00,0.0040
972.00,0.0038
971.00,0.0036
970.00,0.0033
969.00,0.0030
968.00,0.0027
967.00,0.0024
966.00,0.0021
965.00,0.0018
964.00,0.0015
963.00,0.0013
962.00,0.0011
961.00,0.0009
960.00,0.0008
959.00,0.0007
958.00,0.0006
957.00,0.0006
956.00,0.0006
955.00,0.0006
954.00,0.0006
953.00,0.0005
952.00,0.0005
951.00,0.0005
950.00,0.0006
949.00,0.0006
948.00,0.0006
947.00,0.0006
946.00,0.0006
945.00,0.0006
944.00,0.0006
943.00,0.0006
942.00,0.0007
941.00,0.0007
940.00,0.0008
939.00,0.0009
938.00,0.0009
937.00,0.0010
936.00,0.0011
935.00,0.0012
934.00,0.0012
933.00,0.0013
932.00,0.0012
931.00,0.0012
930.00,0.0012
929.00,0.0012
928.00,0.0012
927.00,0.0012
926.00,0.0012
925.00,0.0011
924.00,0.0010
923.00,0.0010
922.00,0.0009
921.00,0.0007
920.00,0.0006
919.00,0.0005
918.00,0.0004
917.00,0.0003
916.00,0.0002
915.00,0.0001
914.00,-0.0000
913.00,-0.0000
912.00,-0.0000
911.00,0.0000
910.00,0.0001
909.00,0.0001
908.00,0.0001
907.00,0.0000
906.00,-0.0001
905.00,-0.0002
904.00,-0.0004
903.00,-0.0005
902.00,-0.0007
901.00,-0.0008
900.00,-0.0008
899.00,-0.0009
898.00,-0.0009
897.00,-0.0009
896.00,-0.0008
895.00,-0.0008
894.00,-0.0008
893.00,-0.0009
892.00,-0.0010
891.00,-0.0010
890.00,-0.0011
889.00,-0.0011
888.00,-0.0010
887.00,-0.0010
886.00,-0.0011
885.00,-0.0011
884.00,-0.0012
883.00,-0.0011
882.00,-0.0011
881.00,-0.0010
880.00,-0.0008
879.00,-0.0006
878.00,-0.0004
877.00,-0.0002
876.00,-0.0000
875.00,0.0001
874.00,0.0003
873.00,0.0004
872.00,0.0004
871.00,0.0004
870.00,0.0003
869.00,0.0002
868.00,0.0002
867.00,0.0001
866.00,0.0001
865.00,0.0001
864.00,0.0001
863.00,0.0002
862.00,0.0003
861.00,0.0004
860.00,0.0006
859.00,0.0009
858.00,0.0012
857.00,0.0014
856.00,0.0016
855.00,0.0017
854.00,0.0019
853.00,0.0020
852.00,0.0020
851.00,0.0020
850.00,0.0020
849.00,0.0019
848.00,0.0019
847.00,0.0019
846.00,0.0020
845.00,0.0021
844.00,0.0022
843.00,0.0022
842.00,0.0022
841.00,0.0023
840.00,0.0024
839.00,0.0025
838.00,0.0027
837.00,0.0028
836.00,0.0030
835.00,0.0030
834.00,0.0030
833.00,0.0030
832.00,0.0029
831.00,0.0028
830.00,0.0025
829.00,0.0022
828.00,0.0021
827.00,0.0021
826.00,0.0023
825.00,0.0025
824.00,0.0027
823.00,0.0029
822.00,0.0031
821.00,0.0032
820.00,0.0034
819.00,0.0036
818.00,0.0037
817.00,0.0037
816.00,0.0038
815.00,0.0039
814.00,0.0040
813.00,0.0041
812.00,0.0041
811.00,0.0041
810.00,0.0042
809.00,0.0042
808.00,0.0043
807.00,0.0043
806.00,0.0043
805.00,0.0042
804.00,0.0041
803.00,0.0041
802.00,0.0042
801.00,0.0043
800.00,0.0044
799.00,0.0044
798.00,0.0045
797.00,0.0046
796.00,0.0047
795.00,0.0048
794.00,0.0049
793.00,0.0051
792.00,0.0052
791.00,0.0053
790.00,0.0054
789.00,0.0055
788.00,0.0057
787.00,0.0057
786.00,0.0057
785.00,0.0057
784.00,0.0058
783.00,0.0060
782.00,0.0061
781.00,0.0063
780.00,0.0064
779.00,0.0064
778.00,0.0065
777.00,0.0065
776.00,0.0066
775.00,0.0068
774.00,0.0069
773.00,0.0069
772.00,0.0069
771.00,0.0070
770.00,0.0071
769.00,0.0073
768.00,0.0074
767.00,0.0075
766.00,0.0076
765.00,0.0076
764.00,0.0077
763.00,0.0079
762.00,0.0081
761.00,0.0082
760.00,0.0083
759.00,0.0084
758.00,0.0085
757.00,0.0087
756.00,0.0088
755.00,0.0089
754.00,0.0090
753.00,0.0092
752.00,0.0094
751.00,0.0096
750.00,0.0098
749.00,0.0100
748.00,0.0102
747.00,0.0103
746.00,0.0106
745.00,0.0108
744.00,0.0111
743.00,0.0112
742.00,0.0114
741.00,0.0116
740.00,0.0120
739.00,0.0124
738.00,0.0128
737.00,0.0133
736.00,0.0139
735.00,0.0144
734.00,0.0150
733.00,0.0155
732.00,0.0160
731.00,0.0165
730.00,0.0169
729.00,0.0174
728.00,0.0178
727.00,0.0181
726.00,0.0184
725.00,0.0187
724.00,0.0191
723.00,0.0194
722.00,0.0196
721.00,0.0199
720.00,0.0201
719.00,0.0203
718.00,0.0203
717.00,0.0201
716.00,0.0198
715.00,0.0195
714.00,0.0194
713.00,0.0194
712.00,0.0195
711.00,0.0195
710.00,0.0195
709.00,0.0194
708.00,0.0193
707.00,0.0193
706.00,0.0194
705.00,0.0194
704.00,0.0194
703.00,0.0194
702.00,0.0194
701.00,0.0195
700.00,0.0196
699.00,0.0196
698.00,0.0196
697.00,0.0197
696.00,0.0199
695.00,0.0200
694.00,0.0200
693.00,0.0200
692.00,0.0201
691.00,0.0202
690.00,0.0203
689.00,0.0205
688.00,0.0206
687.00,0.0208
686.00,0.0209
685.00,0.0209
684.00,0.0209
683.00,0.0208
682.00,0.0208
681.00,0.0207
680.00,0.0208
679.00,0.0209
678.00,0.0210
677.00,0.0211
676.00,0.0211
675.00,0.0210
674.00,0.0210
673.00,0.0210
672.00,0.0210
671.00,0.0209
670.00,0.0208
669.00,0.0210
668.00,0.0214
667.00,0.0217
666.00,0.0218
665.00,0.0216
664.00,0.0215
663.00,0.0216
662.00,0.0217
661.00,0.0218
660.00,0.0219
659.00,0.0219
658.00,0.0219
657.00,0.0219
656.00,0.0221
655.00,0.0222
654.00,0.0223
653.00,0.0223
652.00,0.0222
651.00,0.0221
650.00,0.0221
649.00,0.0221
648.00,0.0221
647.00,0.0220
646.00,0.0219
645.00,0.0218
644.00,0.0218
643.00,0.0218
642.00,0.0217
641.00,0.0216
640.00,0.0214
639.00,0.0211
638.00,0.0209
637.00,0.0207
636.00,0.0206
635.00,0.0206
634.00,0.0206
633.00,0.0205
632.00,0.0205
631.00,0.0205
630.00,0.0205
629.00,0.0205
628.00,0.0205
627.00,0.0205
626.00,0.0205
625.00,0.0206
624.00,0.0207
623.00,0.0209
622.00,0.0211
621.00,0.0214
620.00,0.0216
619.00,0.0218
618.00,0.0221
617.00,0.0224
616.00,0.0227
615.00,0.0231
614.00,0.0233
613.00,0.0234
612.00,0.0235
611.00,0.0235
610.00,0.0235
609.00,0.0235
608.00,0.0234
607.00,0.0232
606.00,0.0229
605.00,0.0225
604.00,0.0223
603.00,0.0221
602.00,0.0220
601.00,0.0220
600.00,0.0222
599.00,0.0223
598.00,0.0223
597.00,0.0222
596.00,0.0220
595.00,0.0218
594.00,0.0215
593.00,0.0214
592.00,0.0214
591.00,0.0215
590.00,0.0215
589.00,0.0214
588.00,0.0214
587.00,0.0215
586.00,0.0215
585.00,0.0216
584.00,0.0217
583.00,0.0218
582.00,0.0218
581.00,0.0217
580.00,0.0217
579.00,0.0219
578.00,0.0220
577.00,0.0221
576.00,0.0221
575.00,0.0221
574.00,0.0222
573.00,0.0224
572.00,0.0226
571.00,0.0229
570.00,0.0231
569.00,0.0234
568.00,0.0239
567.00,0.0243
566.00,0.0247
565.00,0.0251
564.00,0.0255
563.00,0.0260
562.00,0.0266
561.00,0.0272
560.00,0.0278
559.00,0.0284
558.00,0.0288
557.00,0.0292
556.00,0.0296
555.00,0.0300
554.00,0.0303
553.00,0.0306
552.00,0.0309
551.00,0.0310
550.00,0.0309
549.00,0.0305
548.00,0.0303
547.00,0.0301
546.00,0.0300
545.00,0.0299
544.00,0.0298
543.00,0.0295
542.00,0.0292
541.00,0.0287
540.00,0.0283
539.00,0.0279
538.00,0.0273
537.00,0.0269
536.00,0.0267
535.00,0.0267
534.00,0.0267
533.00,0.0266
532.00,0.0265
531.00,0.0263
530.00,0.0259
529.00,0.0256
528.00,0.0254
527.00,0.0253
526.00,0.0252
525.00,0.0250
524.00,0.0246
523.00,0.0242
522.00,0.0239
521.00,0.0238
520.00,0.0239
519.00,0.0241
518.00,0.0242
517.00,0.0244
516.00,0.0247
515.00,0.0248
514.00,0.0249
513.00,0.0249
512.00,0.0249
511.00,0.0249
510.00,0.0249
509.00,0.0248
508.00,0.0248
507.00,0.0247
506.00,0.0246
505.00,0.0246
504.00,0.0246
503.00,0.0247
502.00,0.0247
501.00,0.0247
500.00,0.0247
499.00,0.0245
498.00,0.0243
497.00,0.0241
496.00,0.0241
495.00,0.0241
494.00,0.0240
493.00,0.0238
492.00,0.0237
491.00,0.0238
490.00,0.0242
489.00,0.0246
488.00,0.0250
487.00,0.0250
486.00,0.0246
485.00,0.0241
484.00,0.0238
483.00,0.0238
482.00,0.0238
481.00,0.0240
480.00,0.0243
479.00,0.0244
478.00,0.0242
477.00,0.0238
476.00,0.0233
475.00,0.0230
474.00,0.0228
473.00,0.0226
472.00,0.0226
471.00,0.0225
470.00,0.0222
469.00,0.0221
468.00,0.0222
467.00,0.0226
466.00,0.0229
465.00,0.0230
464.00,0.0228
463.00,0.0222
462.00,0.0214
461.00,0.0208
460.00,0.0206
459.00,0.0205
458.00,0.0206
457.00,0.0209
456.00,0.0212
455.00,0.0212
454.00,0.0210
453.00,0.0208
452.00,0.0207
451.00,0.0203
450.00,0.0198
449.00,0.0193
448.00,0.0192
447.00,0.0191
446.00,0.0190
445.00,0.0194
444.00,0.0204
443.00,0.0214
442.00,0.0221
441.00,0.0226
440.00,0.0228
439.00,0.0228
438.00,0.0226
437.00,0.0225
436.00,0.0227
435.00,0.0232
434.00,0.0237
433.00,0.0244
432.00,0.0254
431.00,0.0265
430.00,0.0269
429.00,0.0267
428.00,0.0261
427.00,0.0256
426.00,0.0256
425.00,0.0262
424.00,0.0272
423.00,0.0278
422.00,0.0275
421.00,0.0267
420.00,0.0264
419.00,0.0268
418.00,0.0270
417.00,0.0266
416.00,0.0260
415.00,0.0257
414.00,0.0254
413.00,0.0250
412.00,0.0245
411.00,0.0240
410.00,0.0235
409.00,0.0233
408.00,0.0237
407.00,0.0242
406.00,0.0242
405.00,0.0234
404.00,0.0224
403.00,0.0215
402.00,0.0210
401.00,0.0213
400.00,0.0227
