Created as New Dataset,Sample 610 By YargerLab Date Thursday, June 05 2025
cm-1,A
4000.00,0.0046
3999.00,0.0046
3998.00,0.0046
3997.00,0.0046
3996.00,0.0046
3995.00,0.0046
3994.00,0.0046
3993.00,0.0046
3992.00,0.0046
3991.00,0.0046
3990.00,0.0045
3989.00,0.0045
3988.00,0.0045
3987.00,0.0046
3986.00,0.0046
3985.00,0.0046
3984.00,0.0046
3983.00,0.0046
3982.00,0.0046
3981.00,0.0046
3980.00,0.0046
3979.00,0.0046
3978.00,0.0045
3977.00,0.0045
3976.00,0.0045
3975.00,0.0045
3974.00,0.0045
3973.00,0.0046
3972.00,0.0046
3971.00,0.0046
3970.00,0.0045
3969.00,0.0045
3968.00,0.0045
3967.00,0.0045
3966.00,0.0045
3965.00,0.0045
3964.00,0.0045
3963.00,0.0045
3962.00,0.0045
3961.00,0.0045
3960.00,0.0045
3959.00,0.0045
3958.00,0.0045
3957.00,0.0045
3956.00,0.0045
3955.00,0.0045
3954.00,0.0045
3953.00,0.0045
3952.00,0.0045
3951.00,0.0045
3950.00,0.0044
3949.00,0.0044
3948.00,0.0044
3947.00,0.0044
3946.00,0.0044
3945.00,0.0045
3944.00,0.0045
3943.00,0.0045
3942.00,0.0045
3941.00,0.0045
3940.00,0.0045
3939.00,0.0045
3938.00,0.0045
3937.00,0.0045
3936.00,0.0045
3935.00,0.0045
3934.00,0.0044
3933.00,0.0044
3932.00,0.0044
3931.00,0.0044
3930.00,0.0044
3929.00,0.0044
3928.00,0.0044
3927.00,0.0044
3926.00,0.0044
3925.00,0.0044
3924.00,0.0044
3923.00,0.0044
3922.00,0.0044
3921.00,0.0044
3920.00,0.0044
3919.00,0.0044
3918.00,0.0044
3917.00,0.0044
3916.00,0.0044
3915.00,0.0044
3914.00,0.0044
3913.00,0.0044
3912.00,0.0045
3911.00,0.0045
3910.00,0.0045
3909.00,0.0044
3908.00,0.0044
3907.00,0.0044
3906.00,0.0044
3905.00,0.0044
3904.00,0.0043
3903.00,0.0043
3902.00,0.0043
3901.00,0.0042
3900.00,0.0043
3899.00,0.0043
3898.00,0.0043
3897.00,0.0043
3896.00,0.0044
3895.00,0.0044
3894.00,0.0044
3893.00,0.0044
3892.00,0.0044
3891.00,0.0044
3890.00,0.0044
3889.00,0.0044
3888.00,0.0043
3887.00,0.0043
3886.00,0.0043
3885.00,0.0043
3884.00,0.0043
3883.00,0.0042
3882.00,0.0042
3881.00,0.0042
3880.00,0.0042
3879.00,0.0043
3878.00,0.0043
3877.00,0.0043
3876.00,0.0042
3875.00,0.0042
3874.00,0.0043
3873.00,0.0043
3872.00,0.0042
3871.00,0.0042
3870.00,0.0042
3869.00,0.0042
3868.00,0.0042
3867.00,0.0042
3866.00,0.0041
3865.00,0.0041
3864.00,0.0042
3863.00,0.0042
3862.00,0.0042
3861.00,0.0042
3860.00,0.0042
3859.00,0.0042
3858.00,0.0043
3857.00,0.0044
3856.00,0.0044
3855.00,0.0044
3854.00,0.0043
3853.00,0.0042
3852.00,0.0041
3851.00,0.0041
3850.00,0.0040
3849.00,0.0041
3848.00,0.0041
3847.00,0.0041
3846.00,0.0042
3845.00,0.0042
3844.00,0.0042
3843.00,0.0041
3842.00,0.0041
3841.00,0.0041
3840.00,0.0041
3839.00,0.0041
3838.00,0.0041
3837.00,0.0041
3836.00,0.0041
3835.00,0.0041
3834.00,0.0041
3833.00,0.0041
3832.00,0.0041
3831.00,0.0042
3830.00,0.0042
3829.00,0.0042
3828.00,0.0042
3827.00,0.0042
3826.00,0.0042
3825.00,0.0042
3824.00,0.0041
3823.00,0.0041
3822.00,0.0040
3821.00,0.0040
3820.00,0.0041
3819.00,0.0041
3818.00,0.0040
3817.00,0.0040
3816.00,0.0040
3815.00,0.0041
3814.00,0.0042
3813.00,0.0042
3812.00,0.0042
3811.00,0.0042
3810.00,0.0042
3809.00,0.0042
3808.00,0.0042
3807.00,0.0041
3806.00,0.0041
3805.00,0.0041
3804.00,0.0041
3803.00,0.0041
3802.00,0.0041
3801.00,0.0041
3800.00,0.0041
3799.00,0.0041
3798.00,0.0040
3797.00,0.0040
3796.00,0.0041
3795.00,0.0041
3794.00,0.0042
3793.00,0.0042
3792.00,0.0042
3791.00,0.0043
3790.00,0.0043
3789.00,0.0043
3788.00,0.0043
3787.00,0.0043
3786.00,0.0042
3785.00,0.0042
3784.00,0.0042
3783.00,0.0042
3782.00,0.0042
3781.00,0.0042
3780.00,0.0042
3779.00,0.0042
3778.00,0.0043
3777.00,0.0043
3776.00,0.0042
3775.00,0.0042
3774.00,0.0042
3773.00,0.0042
3772.00,0.0042
3771.00,0.0042
3770.00,0.0042
3769.00,0.0042
3768.00,0.0041
3767.00,0.0041
3766.00,0.0041
3765.00,0.0041
3764.00,0.0041
3763.00,0.0041
3762.00,0.0041
3761.00,0.0041
3760.00,0.0041
3759.00,0.0041
3758.00,0.0041
3757.00,0.0041
3756.00,0.0041
3755.00,0.0041
3754.00,0.0040
3753.00,0.0040
3752.00,0.0039
3751.00,0.0039
3750.00,0.0038
3749.00,0.0038
3748.00,0.0038
3747.00,0.0038
3746.00,0.0038
3745.00,0.0038
3744.00,0.0038
3743.00,0.0038
3742.00,0.0038
3741.00,0.0038
3740.00,0.0037
3739.00,0.0037
3738.00,0.0037
3737.00,0.0036
3736.00,0.0036
3735.00,0.0037
3734.00,0.0037
3733.00,0.0037
3732.00,0.0037
3731.00,0.0038
3730.00,0.0038
3729.00,0.0039
3728.00,0.0039
3727.00,0.0039
3726.00,0.0039
3725.00,0.0040
3724.00,0.0040
3723.00,0.0040
3722.00,0.0040
3721.00,0.0040
3720.00,0.0040
3719.00,0.0040
3718.00,0.0040
3717.00,0.0041
3716.00,0.0041
3715.00,0.0041
3714.00,0.0040
3713.00,0.0039
3712.00,0.0039
3711.00,0.0039
3710.00,0.0039
3709.00,0.0039
3708.00,0.0039
3707.00,0.0039
3706.00,0.0039
3705.00,0.0039
3704.00,0.0040
3703.00,0.0040
3702.00,0.0041
3701.00,0.0041
3700.00,0.0041
3699.00,0.0041
3698.00,0.0041
3697.00,0.0040
3696.00,0.0040
3695.00,0.0040
3694.00,0.0040
3693.00,0.0040
3692.00,0.0039
3691.00,0.0039
3690.00,0.0039
3689.00,0.0039
3688.00,0.0039
3687.00,0.0038
3686.00,0.0039
3685.00,0.0039
3684.00,0.0039
3683.00,0.0039
3682.00,0.0039
3681.00,0.0039
3680.00,0.0039
3679.00,0.0039
3678.00,0.0039
3677.00,0.0038
3676.00,0.0038
3675.00,0.0038
3674.00,0.0038
3673.00,0.0037
3672.00,0.0037
3671.00,0.0037
3670.00,0.0037
3669.00,0.0038
3668.00,0.0038
3667.00,0.0039
3666.00,0.0039
3665.00,0.0039
3664.00,0.0040
3663.00,0.0040
3662.00,0.0041
3661.00,0.0041
3660.00,0.0041
3659.00,0.0041
3658.00,0.0041
3657.00,0.0041
3656.00,0.0041
3655.00,0.0042
3654.00,0.0041
3653.00,0.0041
3652.00,0.0040
3651.00,0.0040
3650.00,0.0040
3649.00,0.0040
3648.00,0.0040
3647.00,0.0041
3646.00,0.0041
3645.00,0.0042
3644.00,0.0043
3643.00,0.0043
3642.00,0.0044
3641.00,0.0045
3640.00,0.0045
3639.00,0.0046
3638.00,0.0046
3637.00,0.0046
3636.00,0.0046
3635.00,0.0046
3634.00,0.0047
3633.00,0.0047
3632.00,0.0047
3631.00,0.0047
3630.00,0.0047
3629.00,0.0047
3628.00,0.0048
3627.00,0.0048
3626.00,0.0048
3625.00,0.0049
3624.00,0.0049
3623.00,0.0050
3622.00,0.0050
3621.00,0.0051
3620.00,0.0051
3619.00,0.0052
3618.00,0.0052
3617.00,0.0052
3616.00,0.0051
3615.00,0.0051
3614.00,0.0052
3613.00,0.0052
3612.00,0.0053
3611.00,0.0053
3610.00,0.0053
3609.00,0.0053
3608.00,0.0054
3607.00,0.0055
3606.00,0.0055
3605.00,0.0055
3604.00,0.0055
3603.00,0.0056
3602.00,0.0056
3601.00,0.0057
3600.00,0.0057
3599.00,0.0057
3598.00,0.0058
3597.00,0.0058
3596.00,0.0058
3595.00,0.0058
3594.00,0.0059
3593.00,0.0059
3592.00,0.0059
3591.00,0.0059
3590.00,0.0059
3589.00,0.0059
3588.00,0.0060
3587.00,0.0060
3586.00,0.0061
3585.00,0.0061
3584.00,0.0062
3583.00,0.0062
3582.00,0.0063
3581.00,0.0064
3580.00,0.0064
3579.00,0.0065
3578.00,0.0065
3577.00,0.0065
3576.00,0.0065
3575.00,0.0066
3574.00,0.0066
3573.00,0.0067
3572.00,0.0067
3571.00,0.0066
3570.00,0.0066
3569.00,0.0066
3568.00,0.0066
3567.00,0.0067
3566.00,0.0067
3565.00,0.0067
3564.00,0.0068
3563.00,0.0068
3562.00,0.0069
3561.00,0.0070
3560.00,0.0070
3559.00,0.0071
3558.00,0.0072
3557.00,0.0072
3556.00,0.0072
3555.00,0.0073
3554.00,0.0073
3553.00,0.0073
3552.00,0.0073
3551.00,0.0073
3550.00,0.0073
3549.00,0.0073
3548.00,0.0073
3547.00,0.0074
3546.00,0.0075
3545.00,0.0075
3544.00,0.0076
3543.00,0.0076
3542.00,0.0076
3541.00,0.0077
3540.00,0.0077
3539.00,0.0078
3538.00,0.0078
3537.00,0.0079
3536.00,0.0079
3535.00,0.0080
3534.00,0.0080
3533.00,0.0079
3532.00,0.0079
3531.00,0.0080
3530.00,0.0080
3529.00,0.0080
3528.00,0.0081
3527.00,0.0081
3526.00,0.0082
3525.00,0.0082
3524.00,0.0082
3523.00,0.0083
3522.00,0.0083
3521.00,0.0083
3520.00,0.0083
3519.00,0.0084
3518.00,0.0084
3517.00,0.0084
3516.00,0.0085
3515.00,0.0085
3514.00,0.0085
3513.00,0.0085
3512.00,0.0086
3511.00,0.0086
3510.00,0.0086
3509.00,0.0087
3508.00,0.0087
3507.00,0.0087
3506.00,0.0087
3505.00,0.0087
3504.00,0.0087
3503.00,0.0088
3502.00,0.0088
3501.00,0.0089
3500.00,0.0089
3499.00,0.0089
3498.00,0.0090
3497.00,0.0090
3496.00,0.0090
3495.00,0.0090
3494.00,0.0090
3493.00,0.0090
3492.00,0.0091
3491.00,0.0091
3490.00,0.0091
3489.00,0.0092
3488.00,0.0092
3487.00,0.0092
3486.00,0.0092
3485.00,0.0092
3484.00,0.0092
3483.00,0.0092
3482.00,0.0093
3481.00,0.0093
3480.00,0.0093
3479.00,0.0093
3478.00,0.0093
3477.00,0.0093
3476.00,0.0094
3475.00,0.0094
3474.00,0.0094
3473.00,0.0094
3472.00,0.0094
3471.00,0.0094
3470.00,0.0094
3469.00,0.0095
3468.00,0.0095
3467.00,0.0095
3466.00,0.0094
3465.00,0.0094
3464.00,0.0093
3463.00,0.0092
3462.00,0.0091
3461.00,0.0091
3460.00,0.0090
3459.00,0.0089
3458.00,0.0088
3457.00,0.0087
3456.00,0.0086
3455.00,0.0085
3454.00,0.0084
3453.00,0.0084
3452.00,0.0083
3451.00,0.0082
3450.00,0.0082
3449.00,0.0082
3448.00,0.0084
3447.00,0.0085
3446.00,0.0087
3445.00,0.0089
3444.00,0.0091
3443.00,0.0094
3442.00,0.0096
3441.00,0.0098
3440.00,0.0100
3439.00,0.0102
3438.00,0.0104
3437.00,0.0105
3436.00,0.0106
3435.00,0.0107
3434.00,0.0108
3433.00,0.0109
3432.00,0.0110
3431.00,0.0111
3430.00,0.0111
3429.00,0.0112
3428.00,0.0113
3427.00,0.0113
3426.00,0.0114
3425.00,0.0114
3424.00,0.0115
3423.00,0.0115
3422.00,0.0116
3421.00,0.0116
3420.00,0.0117
3419.00,0.0118
3418.00,0.0118
3417.00,0.0119
3416.00,0.0119
3415.00,0.0120
3414.00,0.0120
3413.00,0.0121
3412.00,0.0121
3411.00,0.0121
3410.00,0.0122
3409.00,0.0123
3408.00,0.0123
3407.00,0.0124
3406.00,0.0124
3405.00,0.0125
3404.00,0.0125
3403.00,0.0126
3402.00,0.0126
3401.00,0.0126
3400.00,0.0127
3399.00,0.0127
3398.00,0.0128
3397.00,0.0128
3396.00,0.0129
3395.00,0.0129
3394.00,0.0129
3393.00,0.0130
3392.00,0.0130
3391.00,0.0131
3390.00,0.0132
3389.00,0.0132
3388.00,0.0133
3387.00,0.0133
3386.00,0.0133
3385.00,0.0134
3384.00,0.0134
3383.00,0.0135
3382.00,0.0135
3381.00,0.0136
3380.00,0.0137
3379.00,0.0137
3378.00,0.0137
3377.00,0.0138
3376.00,0.0138
3375.00,0.0138
3374.00,0.0139
3373.00,0.0140
3372.00,0.0140
3371.00,0.0141
3370.00,0.0141
3369.00,0.0142
3368.00,0.0143
3367.00,0.0144
3366.00,0.0144
3365.00,0.0145
3364.00,0.0146
3363.00,0.0146
3362.00,0.0147
3361.00,0.0148
3360.00,0.0148
3359.00,0.0149
3358.00,0.0150
3357.00,0.0150
3356.00,0.0151
3355.00,0.0151
3354.00,0.0152
3353.00,0.0152
3352.00,0.0153
3351.00,0.0154
3350.00,0.0155
3349.00,0.0155
3348.00,0.0156
3347.00,0.0157
3346.00,0.0158
3345.00,0.0159
3344.00,0.0159
3343.00,0.0160
3342.00,0.0161
3341.00,0.0161
3340.00,0.0162
3339.00,0.0163
3338.00,0.0164
3337.00,0.0164
3336.00,0.0165
3335.00,0.0166
3334.00,0.0167
3333.00,0.0168
3332.00,0.0169
3331.00,0.0170
3330.00,0.0171
3329.00,0.0171
3328.00,0.0172
3327.00,0.0173
3326.00,0.0174
3325.00,0.0175
3324.00,0.0176
3323.00,0.0177
3322.00,0.0178
3321.00,0.0179
3320.00,0.0180
3319.00,0.0180
3318.00,0.0181
3317.00,0.0182
3316.00,0.0184
3315.00,0.0185
3314.00,0.0186
3313.00,0.0187
3312.00,0.0187
3311.00,0.0188
3310.00,0.0189
3309.00,0.0189
3308.00,0.0190
3307.00,0.0191
3306.00,0.0192
3305.00,0.0194
3304.00,0.0195
3303.00,0.0197
3302.00,0.0198
3301.00,0.0199
3300.00,0.0199
3299.00,0.0200
3298.00,0.0200
3297.00,0.0201
3296.00,0.0201
3295.00,0.0202
3294.00,0.0203
3293.00,0.0204
3292.00,0.0205
3291.00,0.0206
3290.00,0.0207
3289.00,0.0208
3288.00,0.0208
3287.00,0.0209
3286.00,0.0209
3285.00,0.0210
3284.00,0.0210
3283.00,0.0210
3282.00,0.0211
3281.00,0.0211
3280.00,0.0211
3279.00,0.0211
3278.00,0.0211
3277.00,0.0210
3276.00,0.0210
3275.00,0.0210
3274.00,0.0209
3273.00,0.0208
3272.00,0.0208
3271.00,0.0207
3270.00,0.0207
3269.00,0.0207
3268.00,0.0206
3267.00,0.0206
3266.00,0.0205
3265.00,0.0204
3264.00,0.0203
3263.00,0.0203
3262.00,0.0202
3261.00,0.0201
3260.00,0.0200
3259.00,0.0199
3258.00,0.0197
3257.00,0.0196
3256.00,0.0195
3255.00,0.0194
3254.00,0.0193
3253.00,0.0192
3252.00,0.0191
3251.00,0.0190
3250.00,0.0189
3249.00,0.0188
3248.00,0.0187
3247.00,0.0185
3246.00,0.0184
3245.00,0.0184
3244.00,0.0183
3243.00,0.0182
3242.00,0.0181
3241.00,0.0180
3240.00,0.0179
3239.00,0.0178
3238.00,0.0177
3237.00,0.0176
3236.00,0.0175
3235.00,0.0174
3234.00,0.0173
3233.00,0.0172
3232.00,0.0172
3231.00,0.0172
3230.00,0.0171
3229.00,0.0170
3228.00,0.0169
3227.00,0.0169
3226.00,0.0168
3225.00,0.0168
3224.00,0.0167
3223.00,0.0166
3222.00,0.0166
3221.00,0.0165
3220.00,0.0165
3219.00,0.0164
3218.00,0.0163
3217.00,0.0163
3216.00,0.0162
3215.00,0.0162
3214.00,0.0161
3213.00,0.0161
3212.00,0.0160
3211.00,0.0160
3210.00,0.0159
3209.00,0.0158
3208.00,0.0158
3207.00,0.0157
3206.00,0.0157
3205.00,0.0156
3204.00,0.0156
3203.00,0.0156
3202.00,0.0155
3201.00,0.0155
3200.00,0.0154
3199.00,0.0153
3198.00,0.0152
3197.00,0.0152
3196.00,0.0151
3195.00,0.0151
3194.00,0.0150
3193.00,0.0150
3192.00,0.0149
3191.00,0.0149
3190.00,0.0148
3189.00,0.0148
3188.00,0.0147
3187.00,0.0147
3186.00,0.0146
3185.00,0.0146
3184.00,0.0145
3183.00,0.0145
3182.00,0.0144
3181.00,0.0143
3180.00,0.0143
3179.00,0.0142
3178.00,0.0142
3177.00,0.0141
3176.00,0.0140
3175.00,0.0140
3174.00,0.0139
3173.00,0.0139
3172.00,0.0138
3171.00,0.0138
3170.00,0.0137
3169.00,0.0137
3168.00,0.0136
3167.00,0.0135
3166.00,0.0135
3165.00,0.0134
3164.00,0.0134
3163.00,0.0133
3162.00,0.0132
3161.00,0.0131
3160.00,0.0131
3159.00,0.0130
3158.00,0.0130
3157.00,0.0129
3156.00,0.0128
3155.00,0.0127
3154.00,0.0127
3153.00,0.0126
3152.00,0.0126
3151.00,0.0126
3150.00,0.0125
3149.00,0.0125
3148.00,0.0124
3147.00,0.0124
3146.00,0.0124
3145.00,0.0123
3144.00,0.0122
3143.00,0.0121
3142.00,0.0121
3141.00,0.0120
3140.00,0.0119
3139.00,0.0119
3138.00,0.0119
3137.00,0.0118
3136.00,0.0118
3135.00,0.0117
3134.00,0.0117
3133.00,0.0116
3132.00,0.0116
3131.00,0.0115
3130.00,0.0114
3129.00,0.0114
3128.00,0.0114
3127.00,0.0113
3126.00,0.0113
3125.00,0.0113
3124.00,0.0112
3123.00,0.0112
3122.00,0.0111
3121.00,0.0111
3120.00,0.0111
3119.00,0.0110
3118.00,0.0110
3117.00,0.0110
3116.00,0.0110
3115.00,0.0110
3114.00,0.0110
3113.00,0.0110
3112.00,0.0110
3111.00,0.0110
3110.00,0.0109
3109.00,0.0109
3108.00,0.0109
3107.00,0.0109
3106.00,0.0109
3105.00,0.0109
3104.00,0.0109
3103.00,0.0109
3102.00,0.0109
3101.00,0.0109
3100.00,0.0109
3099.00,0.0110
3098.00,0.0110
3097.00,0.0110
3096.00,0.0110
3095.00,0.0110
3094.00,0.0110
3093.00,0.0110
3092.00,0.0110
3091.00,0.0110
3090.00,0.0110
3089.00,0.0110
3088.00,0.0111
3087.00,0.0111
3086.00,0.0111
3085.00,0.0111
3084.00,0.0111
3083.00,0.0111
3082.00,0.0111
3081.00,0.0111
3080.00,0.0111
3079.00,0.0112
3078.00,0.0112
3077.00,0.0112
3076.00,0.0113
3075.00,0.0113
3074.00,0.0113
3073.00,0.0113
3072.00,0.0113
3071.00,0.0112
3070.00,0.0112
3069.00,0.0111
3068.00,0.0111
3067.00,0.0111
3066.00,0.0111
3065.00,0.0112
3064.00,0.0112
3063.00,0.0112
3062.00,0.0113
3061.00,0.0113
3060.00,0.0113
3059.00,0.0113
3058.00,0.0113
3057.00,0.0112
3056.00,0.0112
3055.00,0.0112
3054.00,0.0112
3053.00,0.0112
3052.00,0.0111
3051.00,0.0111
3050.00,0.0111
3049.00,0.0111
3048.00,0.0111
3047.00,0.0110
3046.00,0.0109
3045.00,0.0109
3044.00,0.0108
3043.00,0.0108
3042.00,0.0108
3041.00,0.0108
3040.00,0.0108
3039.00,0.0107
3038.00,0.0107
3037.00,0.0106
3036.00,0.0106
3035.00,0.0105
3034.00,0.0105
3033.00,0.0105
3032.00,0.0105
3031.00,0.0105
3030.00,0.0104
3029.00,0.0104
3028.00,0.0104
3027.00,0.0103
3026.00,0.0103
3025.00,0.0102
3024.00,0.0102
3023.00,0.0101
3022.00,0.0101
3021.00,0.0101
3020.00,0.0100
3019.00,0.0099
3018.00,0.0099
3017.00,0.0098
3016.00,0.0097
3015.00,0.0096
3014.00,0.0096
3013.00,0.0095
3012.00,0.0094
3011.00,0.0094
3010.00,0.0093
3009.00,0.0093
3008.00,0.0092
3007.00,0.0091
3006.00,0.0090
3005.00,0.0089
3004.00,0.0088
3003.00,0.0087
3002.00,0.0086
3001.00,0.0085
3000.00,0.0084
2999.00,0.0083
2998.00,0.0082
2997.00,0.0082
2996.00,0.0081
2995.00,0.0081
2994.00,0.0081
2993.00,0.0081
2992.00,0.0081
2991.00,0.0081
2990.00,0.0081
2989.00,0.0081
2988.00,0.0081
2987.00,0.0081
2986.00,0.0080
2985.00,0.0079
2984.00,0.0077
2983.00,0.0075
2982.00,0.0074
2981.00,0.0074
2980.00,0.0076
2979.00,0.0078
2978.00,0.0080
2977.00,0.0082
2976.00,0.0084
2975.00,0.0085
2974.00,0.0086
2973.00,0.0087
2972.00,0.0088
2971.00,0.0089
2970.00,0.0091
2969.00,0.0093
2968.00,0.0096
2967.00,0.0098
2966.00,0.0099
2965.00,0.0101
2964.00,0.0102
2963.00,0.0103
2962.00,0.0104
2961.00,0.0104
2960.00,0.0104
2959.00,0.0104
2958.00,0.0104
2957.00,0.0103
2956.00,0.0102
2955.00,0.0102
2954.00,0.0101
2953.00,0.0101
2952.00,0.0100
2951.00,0.0100
2950.00,0.0100
2949.00,0.0100
2948.00,0.0101
2947.00,0.0102
2946.00,0.0103
2945.00,0.0105
2944.00,0.0106
2943.00,0.0107
2942.00,0.0108
2941.00,0.0109
2940.00,0.0110
2939.00,0.0111
2938.00,0.0112
2937.00,0.0112
2936.00,0.0113
2935.00,0.0113
2934.00,0.0113
2933.00,0.0113
2932.00,0.0113
2931.00,0.0113
2930.00,0.0112
2929.00,0.0112
2928.00,0.0111
2927.00,0.0111
2926.00,0.0110
2925.00,0.0110
2924.00,0.0109
2923.00,0.0109
2922.00,0.0109
2921.00,0.0108
2920.00,0.0107
2919.00,0.0106
2918.00,0.0105
2917.00,0.0104
2916.00,0.0102
2915.00,0.0101
2914.00,0.0099
2913.00,0.0097
2912.00,0.0096
2911.00,0.0095
2910.00,0.0094
2909.00,0.0094
2908.00,0.0093
2907.00,0.0093
2906.00,0.0092
2905.00,0.0092
2904.00,0.0092
2903.00,0.0092
2902.00,0.0091
2901.00,0.0091
2900.00,0.0091
2899.00,0.0090
2898.00,0.0089
2897.00,0.0089
2896.00,0.0088
2895.00,0.0088
2894.00,0.0087
2893.00,0.0087
2892.00,0.0086
2891.00,0.0085
2890.00,0.0085
2889.00,0.0085
2888.00,0.0085
2887.00,0.0084
2886.00,0.0085
2885.00,0.0085
2884.00,0.0085
2883.00,0.0086
2882.00,0.0086
2881.00,0.0087
2880.00,0.0088
2879.00,0.0089
2878.00,0.0090
2877.00,0.0090
2876.00,0.0091
2875.00,0.0091
2874.00,0.0090
2873.00,0.0090
2872.00,0.0089
2871.00,0.0088
2870.00,0.0087
2869.00,0.0087
2868.00,0.0087
2867.00,0.0087
2866.00,0.0087
2865.00,0.0087
2864.00,0.0086
2863.00,0.0086
2862.00,0.0086
2861.00,0.0085
2860.00,0.0085
2859.00,0.0084
2858.00,0.0084
2857.00,0.0084
2856.00,0.0085
2855.00,0.0085
2854.00,0.0086
2853.00,0.0087
2852.00,0.0087
2851.00,0.0087
2850.00,0.0087
2849.00,0.0086
2848.00,0.0085
2847.00,0.0084
2846.00,0.0083
2845.00,0.0082
2844.00,0.0081
2843.00,0.0080
2842.00,0.0079
2841.00,0.0078
2840.00,0.0078
2839.00,0.0077
2838.00,0.0076
2837.00,0.0076
2836.00,0.0075
2835.00,0.0074
2834.00,0.0074
2833.00,0.0073
2832.00,0.0073
2831.00,0.0073
2830.00,0.0073
2829.00,0.0074
2828.00,0.0074
2827.00,0.0074
2826.00,0.0074
2825.00,0.0075
2824.00,0.0075
2823.00,0.0076
2822.00,0.0076
2821.00,0.0076
2820.00,0.0076
2819.00,0.0076
2818.00,0.0076
2817.00,0.0076
2816.00,0.0076
2815.00,0.0076
2814.00,0.0076
2813.00,0.0076
2812.00,0.0076
2811.00,0.0076
2810.00,0.0076
2809.00,0.0076
2808.00,0.0075
2807.00,0.0075
2806.00,0.0075
2805.00,0.0075
2804.00,0.0075
2803.00,0.0075
2802.00,0.0075
2801.00,0.0075
2800.00,0.0075
2799.00,0.0074
2798.00,0.0074
2797.00,0.0074
2796.00,0.0074
2795.00,0.0074
2794.00,0.0074
2793.00,0.0074
2792.00,0.0073
2791.00,0.0073
2790.00,0.0073
2789.00,0.0073
2788.00,0.0073
2787.00,0.0072
2786.00,0.0072
2785.00,0.0072
2784.00,0.0072
2783.00,0.0072
2782.00,0.0071
2781.00,0.0071
2780.00,0.0071
2779.00,0.0071
2778.00,0.0070
2777.00,0.0070
2776.00,0.0070
2775.00,0.0069
2774.00,0.0069
2773.00,0.0069
2772.00,0.0069
2771.00,0.0069
2770.00,0.0069
2769.00,0.0068
2768.00,0.0068
2767.00,0.0068
2766.00,0.0068
2765.00,0.0067
2764.00,0.0067
2763.00,0.0067
2762.00,0.0067
2761.00,0.0067
2760.00,0.0067
2759.00,0.0066
2758.00,0.0066
2757.00,0.0066
2756.00,0.0066
2755.00,0.0065
2754.00,0.0065
2753.00,0.0065
2752.00,0.0065
2751.00,0.0065
2750.00,0.0065
2749.00,0.0064
2748.00,0.0064
2747.00,0.0064
2746.00,0.0064
2745.00,0.0064
2744.00,0.0064
2743.00,0.0064
2742.00,0.0064
2741.00,0.0063
2740.00,0.0063
2739.00,0.0063
2738.00,0.0063
2737.00,0.0062
2736.00,0.0062
2735.00,0.0062
2734.00,0.0062
2733.00,0.0062
2732.00,0.0062
2731.00,0.0062
2730.00,0.0062
2729.00,0.0061
2728.00,0.0061
2727.00,0.0061
2726.00,0.0061
2725.00,0.0061
2724.00,0.0061
2723.00,0.0061
2722.00,0.0061
2721.00,0.0060
2720.00,0.0060
2719.00,0.0060
2718.00,0.0060
2717.00,0.0059
2716.00,0.0059
2715.00,0.0059
2714.00,0.0059
2713.00,0.0059
2712.00,0.0059
2711.00,0.0059
2710.00,0.0059
2709.00,0.0059
2708.00,0.0058
2707.00,0.0058
2706.00,0.0058
2705.00,0.0058
2704.00,0.0058
2703.00,0.0057
2702.00,0.0057
2701.00,0.0057
2700.00,0.0057
2699.00,0.0057
2698.00,0.0057
2697.00,0.0057
2696.00,0.0057
2695.00,0.0057
2694.00,0.0057
2693.00,0.0056
2692.00,0.0056
2691.00,0.0056
2690.00,0.0056
2689.00,0.0056
2688.00,0.0056
2687.00,0.0056
2686.00,0.0056
2685.00,0.0056
2684.00,0.0056
2683.00,0.0056
2682.00,0.0056
2681.00,0.0055
2680.00,0.0055
2679.00,0.0055
2678.00,0.0055
2677.00,0.0055
2676.00,0.0055
2675.00,0.0055
2674.00,0.0055
2673.00,0.0055
2672.00,0.0055
2671.00,0.0055
2670.00,0.0055
2669.00,0.0055
2668.00,0.0055
2667.00,0.0055
2666.00,0.0055
2665.00,0.0056
2664.00,0.0056
2663.00,0.0056
2662.00,0.0056
2661.00,0.0057
2660.00,0.0057
2659.00,0.0057
2658.00,0.0057
2657.00,0.0057
2656.00,0.0057
2655.00,0.0057
2654.00,0.0058
2653.00,0.0058
2652.00,0.0058
2651.00,0.0058
2650.00,0.0057
2649.00,0.0057
2648.00,0.0057
2647.00,0.0057
2646.00,0.0057
2645.00,0.0057
2644.00,0.0057
2643.00,0.0057
2642.00,0.0057
2641.00,0.0057
2640.00,0.0057
2639.00,0.0057
2638.00,0.0057
2637.00,0.0057
2636.00,0.0057
2635.00,0.0057
2634.00,0.0057
2633.00,0.0057
2632.00,0.0057
2631.00,0.0057
2630.00,0.0057
2629.00,0.0057
2628.00,0.0057
2627.00,0.0057
2626.00,0.0056
2625.00,0.0056
2624.00,0.0056
2623.00,0.0056
2622.00,0.0056
2621.00,0.0056
2620.00,0.0056
2619.00,0.0056
2618.00,0.0056
2617.00,0.0055
2616.00,0.0055
2615.00,0.0055
2614.00,0.0055
2613.00,0.0054
2612.00,0.0054
2611.00,0.0054
2610.00,0.0054
2609.00,0.0054
2608.00,0.0054
2607.00,0.0054
2606.00,0.0054
2605.00,0.0054
2604.00,0.0054
2603.00,0.0053
2602.00,0.0053
2601.00,0.0053
2600.00,0.0053
2599.00,0.0053
2598.00,0.0052
2597.00,0.0052
2596.00,0.0052
2595.00,0.0052
2594.00,0.0052
2593.00,0.0052
2592.00,0.0052
2591.00,0.0052
2590.00,0.0051
2589.00,0.0051
2588.00,0.0052
2587.00,0.0052
2586.00,0.0052
2585.00,0.0051
2584.00,0.0051
2583.00,0.0051
2582.00,0.0051
2581.00,0.0051
2580.00,0.0051
2579.00,0.0051
2578.00,0.0051
2577.00,0.0051
2576.00,0.0051
2575.00,0.0051
2574.00,0.0051
2573.00,0.0050
2572.00,0.0049
2571.00,0.0049
2570.00,0.0049
2569.00,0.0049
2568.00,0.0049
2567.00,0.0050
2566.00,0.0050
2565.00,0.0049
2564.00,0.0049
2563.00,0.0049
2562.00,0.0049
2561.00,0.0048
2560.00,0.0048
2559.00,0.0048
2558.00,0.0048
2557.00,0.0048
2556.00,0.0048
2555.00,0.0048
2554.00,0.0048
2553.00,0.0048
2552.00,0.0047
2551.00,0.0047
2550.00,0.0047
2549.00,0.0048
2548.00,0.0048
2547.00,0.0047
2546.00,0.0047
2545.00,0.0047
2544.00,0.0048
2543.00,0.0047
2542.00,0.0047
2541.00,0.0047
2540.00,0.0047
2539.00,0.0047
2538.00,0.0047
2537.00,0.0047
2536.00,0.0047
2535.00,0.0047
2534.00,0.0047
2533.00,0.0047
2532.00,0.0047
2531.00,0.0047
2530.00,0.0047
2529.00,0.0046
2528.00,0.0046
2527.00,0.0046
2526.00,0.0046
2525.00,0.0046
2524.00,0.0046
2523.00,0.0046
2522.00,0.0046
2521.00,0.0046
2520.00,0.0047
2519.00,0.0046
2518.00,0.0046
2517.00,0.0046
2516.00,0.0046
2515.00,0.0046
2514.00,0.0046
2513.00,0.0046
2512.00,0.0046
2511.00,0.0046
2510.00,0.0045
2509.00,0.0045
2508.00,0.0045
2507.00,0.0045
2506.00,0.0045
2505.00,0.0045
2504.00,0.0045
2503.00,0.0045
2502.00,0.0045
2501.00,0.0045
2500.00,0.0045
2499.00,0.0045
2498.00,0.0046
2497.00,0.0046
2496.00,0.0046
2495.00,0.0046
2494.00,0.0045
2493.00,0.0045
2492.00,0.0045
2491.00,0.0045
2490.00,0.0045
2489.00,0.0045
2488.00,0.0045
2487.00,0.0045
2486.00,0.0044
2485.00,0.0044
2484.00,0.0044
2483.00,0.0044
2482.00,0.0044
2481.00,0.0044
2480.00,0.0044
2479.00,0.0044
2478.00,0.0044
2477.00,0.0044
2476.00,0.0044
2475.00,0.0044
2474.00,0.0044
2473.00,0.0043
2472.00,0.0044
2471.00,0.0044
2470.00,0.0044
2469.00,0.0044
2468.00,0.0044
2467.00,0.0043
2466.00,0.0043
2465.00,0.0043
2464.00,0.0043
2463.00,0.0043
2462.00,0.0043
2461.00,0.0043
2460.00,0.0043
2459.00,0.0043
2458.00,0.0043
2457.00,0.0043
2456.00,0.0043
2455.00,0.0043
2454.00,0.0043
2453.00,0.0043
2452.00,0.0042
2451.00,0.0042
2450.00,0.0042
2449.00,0.0042
2448.00,0.0042
2447.00,0.0042
2446.00,0.0041
2445.00,0.0041
2444.00,0.0041
2443.00,0.0041
2442.00,0.0041
2441.00,0.0041
2440.00,0.0041
2439.00,0.0041
2438.00,0.0040
2437.00,0.0040
2436.00,0.0040
2435.00,0.0040
2434.00,0.0040
2433.00,0.0040
2432.00,0.0040
2431.00,0.0040
2430.00,0.0040
2429.00,0.0040
2428.00,0.0040
2427.00,0.0039
2426.00,0.0039
2425.00,0.0039
2424.00,0.0038
2423.00,0.0038
2422.00,0.0038
2421.00,0.0039
2420.00,0.0039
2419.00,0.0039
2418.00,0.0039
2417.00,0.0039
2416.00,0.0039
2415.00,0.0038
2414.00,0.0038
2413.00,0.0039
2412.00,0.0039
2411.00,0.0039
2410.00,0.0039
2409.00,0.0039
2408.00,0.0038
2407.00,0.0038
2406.00,0.0037
2405.00,0.0037
2404.00,0.0037
2403.00,0.0037
2402.00,0.0037
2401.00,0.0037
2400.00,0.0037
2399.00,0.0037
2398.00,0.0037
2397.00,0.0037
2396.00,0.0037
2395.00,0.0037
2394.00,0.0037
2393.00,0.0037
2392.00,0.0037
2391.00,0.0037
2390.00,0.0037
2389.00,0.0037
2388.00,0.0037
2387.00,0.0037
2386.00,0.0036
2385.00,0.0036
2384.00,0.0036
2383.00,0.0036
2382.00,0.0035
2381.00,0.0035
2380.00,0.0034
2379.00,0.0034
2378.00,0.0034
2377.00,0.0033
2376.00,0.0034
2375.00,0.0034
2374.00,0.0034
2373.00,0.0035
2372.00,0.0035
2371.00,0.0036
2370.00,0.0036
2369.00,0.0035
2368.00,0.0035
2367.00,0.0035
2366.00,0.0035
2365.00,0.0035
2364.00,0.0036
2363.00,0.0036
2362.00,0.0036
2361.00,0.0036
2360.00,0.0035
2359.00,0.0035
2358.00,0.0035
2357.00,0.0036
2356.00,0.0036
2355.00,0.0036
2354.00,0.0035
2353.00,0.0035
2352.00,0.0035
2351.00,0.0036
2350.00,0.0037
2349.00,0.0037
2348.00,0.0037
2347.00,0.0037
2346.00,0.0038
2345.00,0.0038
2344.00,0.0038
2343.00,0.0039
2342.00,0.0039
2341.00,0.0039
2340.00,0.0039
2339.00,0.0039
2338.00,0.0038
2337.00,0.0038
2336.00,0.0038
2335.00,0.0038
2334.00,0.0038
2333.00,0.0038
2332.00,0.0038
2331.00,0.0038
2330.00,0.0039
2329.00,0.0040
2328.00,0.0042
2327.00,0.0045
2326.00,0.0047
2325.00,0.0049
2324.00,0.0048
2323.00,0.0047
2322.00,0.0046
2321.00,0.0044
2320.00,0.0043
2319.00,0.0042
2318.00,0.0041
2317.00,0.0041
2316.00,0.0040
2315.00,0.0040
2314.00,0.0040
2313.00,0.0040
2312.00,0.0039
2311.00,0.0039
2310.00,0.0039
2309.00,0.0039
2308.00,0.0039
2307.00,0.0040
2306.00,0.0041
2305.00,0.0041
2304.00,0.0042
2303.00,0.0042
2302.00,0.0042
2301.00,0.0043
2300.00,0.0043
2299.00,0.0042
2298.00,0.0042
2297.00,0.0042
2296.00,0.0043
2295.00,0.0044
2294.00,0.0044
2293.00,0.0046
2292.00,0.0047
2291.00,0.0047
2290.00,0.0048
2289.00,0.0048
2288.00,0.0048
2287.00,0.0047
2286.00,0.0047
2285.00,0.0046
2284.00,0.0046
2283.00,0.0046
2282.00,0.0046
2281.00,0.0046
2280.00,0.0046
2279.00,0.0045
2278.00,0.0045
2277.00,0.0044
2276.00,0.0044
2275.00,0.0044
2274.00,0.0044
2273.00,0.0044
2272.00,0.0044
2271.00,0.0044
2270.00,0.0044
2269.00,0.0043
2268.00,0.0043
2267.00,0.0042
2266.00,0.0041
2265.00,0.0040
2264.00,0.0040
2263.00,0.0040
2262.00,0.0041
2261.00,0.0042
2260.00,0.0043
2259.00,0.0044
2258.00,0.0044
2257.00,0.0043
2256.00,0.0041
2255.00,0.0040
2254.00,0.0039
2253.00,0.0038
2252.00,0.0038
2251.00,0.0038
2250.00,0.0039
2249.00,0.0040
2248.00,0.0041
2247.00,0.0041
2246.00,0.0041
2245.00,0.0041
2244.00,0.0041
2243.00,0.0041
2242.00,0.0040
2241.00,0.0040
2240.00,0.0040
2239.00,0.0040
2238.00,0.0041
2237.00,0.0041
2236.00,0.0041
2235.00,0.0041
2234.00,0.0040
2233.00,0.0040
2232.00,0.0039
2231.00,0.0039
2230.00,0.0039
2229.00,0.0039
2228.00,0.0039
2227.00,0.0040
2226.00,0.0041
2225.00,0.0041
2224.00,0.0041
2223.00,0.0041
2222.00,0.0040
2221.00,0.0039
2220.00,0.0039
2219.00,0.0038
2218.00,0.0038
2217.00,0.0038
2216.00,0.0038
2215.00,0.0038
2214.00,0.0037
2213.00,0.0038
2212.00,0.0038
2211.00,0.0038
2210.00,0.0038
2209.00,0.0038
2208.00,0.0038
2207.00,0.0038
2206.00,0.0039
2205.00,0.0040
2204.00,0.0041
2203.00,0.0041
2202.00,0.0042
2201.00,0.0041
2200.00,0.0041
2199.00,0.0041
2198.00,0.0040
2197.00,0.0040
2196.00,0.0041
2195.00,0.0043
2194.00,0.0044
2193.00,0.0045
2192.00,0.0045
2191.00,0.0044
2190.00,0.0043
2189.00,0.0043
2188.00,0.0044
2187.00,0.0044
2186.00,0.0043
2185.00,0.0042
2184.00,0.0040
2183.00,0.0038
2182.00,0.0036
2181.00,0.0036
2180.00,0.0036
2179.00,0.0036
2178.00,0.0037
2177.00,0.0036
2176.00,0.0036
2175.00,0.0036
2174.00,0.0036
2173.00,0.0038
2172.00,0.0040
2171.00,0.0042
2170.00,0.0044
2169.00,0.0046
2168.00,0.0048
2167.00,0.0048
2166.00,0.0047
2165.00,0.0047
2164.00,0.0047
2163.00,0.0047
2162.00,0.0045
2161.00,0.0038
2160.00,0.0028
2159.00,0.0018
2158.00,0.0013
2157.00,0.0012
2156.00,0.0014
2155.00,0.0016
2154.00,0.0018
2153.00,0.0020
2152.00,0.0022
2151.00,0.0023
2150.00,0.0024
2149.00,0.0025
2148.00,0.0025
2147.00,0.0025
2146.00,0.0025
2145.00,0.0025
2144.00,0.0026
2143.00,0.0026
2142.00,0.0027
2141.00,0.0027
2140.00,0.0028
2139.00,0.0028
2138.00,0.0028
2137.00,0.0026
2136.00,0.0025
2135.00,0.0024
2134.00,0.0023
2133.00,0.0024
2132.00,0.0025
2131.00,0.0026
2130.00,0.0027
2129.00,0.0028
2128.00,0.0029
2127.00,0.0029
2126.00,0.0030
2125.00,0.0031
2124.00,0.0032
2123.00,0.0033
2122.00,0.0033
2121.00,0.0034
2120.00,0.0034
2119.00,0.0035
2118.00,0.0036
2117.00,0.0038
2116.00,0.0038
2115.00,0.0039
2114.00,0.0039
2113.00,0.0039
2112.00,0.0039
2111.00,0.0039
2110.00,0.0039
2109.00,0.0039
2108.00,0.0038
2107.00,0.0038
2106.00,0.0037
2105.00,0.0038
2104.00,0.0039
2103.00,0.0039
2102.00,0.0039
2101.00,0.0039
2100.00,0.0039
2099.00,0.0039
2098.00,0.0038
2097.00,0.0037
2096.00,0.0036
2095.00,0.0035
2094.00,0.0035
2093.00,0.0035
2092.00,0.0036
2091.00,0.0037
2090.00,0.0038
2089.00,0.0038
2088.00,0.0038
2087.00,0.0038
2086.00,0.0038
2085.00,0.0038
2084.00,0.0039
2083.00,0.0040
2082.00,0.0041
2081.00,0.0041
2080.00,0.0041
2079.00,0.0041
2078.00,0.0040
2077.00,0.0040
2076.00,0.0040
2075.00,0.0040
2074.00,0.0040
2073.00,0.0039
2072.00,0.0039
2071.00,0.0038
2070.00,0.0038
2069.00,0.0038
2068.00,0.0038
2067.00,0.0038
2066.00,0.0038
2065.00,0.0038
2064.00,0.0038
2063.00,0.0039
2062.00,0.0039
2061.00,0.0039
2060.00,0.0039
2059.00,0.0039
2058.00,0.0039
2057.00,0.0039
2056.00,0.0040
2055.00,0.0041
2054.00,0.0042
2053.00,0.0044
2052.00,0.0046
2051.00,0.0046
2050.00,0.0044
2049.00,0.0042
2048.00,0.0039
2047.00,0.0037
2046.00,0.0036
2045.00,0.0037
2044.00,0.0037
2043.00,0.0037
2042.00,0.0036
2041.00,0.0037
2040.00,0.0038
2039.00,0.0039
2038.00,0.0040
2037.00,0.0040
2036.00,0.0038
2035.00,0.0037
2034.00,0.0035
2033.00,0.0035
2032.00,0.0034
2031.00,0.0034
2030.00,0.0033
2029.00,0.0034
2028.00,0.0034
2027.00,0.0034
2026.00,0.0034
2025.00,0.0033
2024.00,0.0033
2023.00,0.0033
2022.00,0.0032
2021.00,0.0032
2020.00,0.0033
2019.00,0.0034
2018.00,0.0034
2017.00,0.0034
2016.00,0.0033
2015.00,0.0031
2014.00,0.0030
2013.00,0.0029
2012.00,0.0029
2011.00,0.0029
2010.00,0.0028
2009.00,0.0027
2008.00,0.0026
2007.00,0.0025
2006.00,0.0024
2005.00,0.0026
2004.00,0.0027
2003.00,0.0028
2002.00,0.0028
2001.00,0.0029
2000.00,0.0030
1999.00,0.0032
1998.00,0.0034
1997.00,0.0036
1996.00,0.0037
1995.00,0.0038
1994.00,0.0037
1993.00,0.0037
1992.00,0.0037
1991.00,0.0037
1990.00,0.0037
1989.00,0.0037
1988.00,0.0037
1987.00,0.0038
1986.00,0.0038
1985.00,0.0039
1984.00,0.0041
1983.00,0.0042
1982.00,0.0043
1981.00,0.0044
1980.00,0.0042
1979.00,0.0038
1978.00,0.0033
1977.00,0.0031
1976.00,0.0030
1975.00,0.0029
1974.00,0.0028
1973.00,0.0027
1972.00,0.0026
1971.00,0.0026
1970.00,0.0026
1969.00,0.0027
1968.00,0.0027
1967.00,0.0027
1966.00,0.0026
1965.00,0.0026
1964.00,0.0026
1963.00,0.0026
1962.00,0.0027
1961.00,0.0027
1960.00,0.0027
1959.00,0.0026
1958.00,0.0026
1957.00,0.0026
1956.00,0.0027
1955.00,0.0028
1954.00,0.0029
1953.00,0.0030
1952.00,0.0030
1951.00,0.0030
1950.00,0.0029
1949.00,0.0028
1948.00,0.0028
1947.00,0.0028
1946.00,0.0029
1945.00,0.0030
1944.00,0.0030
1943.00,0.0030
1942.00,0.0029
1941.00,0.0028
1940.00,0.0028
1939.00,0.0029
1938.00,0.0030
1937.00,0.0030
1936.00,0.0030
1935.00,0.0030
1934.00,0.0030
1933.00,0.0030
1932.00,0.0030
1931.00,0.0031
1930.00,0.0031
1929.00,0.0032
1928.00,0.0032
1927.00,0.0032
1926.00,0.0032
1925.00,0.0032
1924.00,0.0033
1923.00,0.0033
1922.00,0.0032
1921.00,0.0032
1920.00,0.0032
1919.00,0.0033
1918.00,0.0033
1917.00,0.0032
1916.00,0.0032
1915.00,0.0032
1914.00,0.0032
1913.00,0.0033
1912.00,0.0033
1911.00,0.0033
1910.00,0.0033
1909.00,0.0033
1908.00,0.0033
1907.00,0.0033
1906.00,0.0033
1905.00,0.0033
1904.00,0.0033
1903.00,0.0033
1902.00,0.0033
1901.00,0.0033
1900.00,0.0033
1899.00,0.0033
1898.00,0.0033
1897.00,0.0033
1896.00,0.0034
1895.00,0.0034
1894.00,0.0034
1893.00,0.0033
1892.00,0.0033
1891.00,0.0033
1890.00,0.0033
1889.00,0.0033
1888.00,0.0032
1887.00,0.0032
1886.00,0.0033
1885.00,0.0033
1884.00,0.0034
1883.00,0.0033
1882.00,0.0033
1881.00,0.0033
1880.00,0.0033
1879.00,0.0033
1878.00,0.0033
1877.00,0.0033
1876.00,0.0033
1875.00,0.0033
1874.00,0.0033
1873.00,0.0033
1872.00,0.0034
1871.00,0.0035
1870.00,0.0035
1869.00,0.0034
1868.00,0.0033
1867.00,0.0032
1866.00,0.0032
1865.00,0.0033
1864.00,0.0033
1863.00,0.0034
1862.00,0.0034
1861.00,0.0034
1860.00,0.0034
1859.00,0.0034
1858.00,0.0033
1857.00,0.0033
1856.00,0.0034
1855.00,0.0034
1854.00,0.0033
1853.00,0.0033
1852.00,0.0033
1851.00,0.0033
1850.00,0.0033
1849.00,0.0034
1848.00,0.0034
1847.00,0.0035
1846.00,0.0036
1845.00,0.0034
1844.00,0.0032
1843.00,0.0030
1842.00,0.0030
1841.00,0.0031
1840.00,0.0033
1839.00,0.0034
1838.00,0.0034
1837.00,0.0034
1836.00,0.0033
1835.00,0.0033
1834.00,0.0033
1833.00,0.0034
1832.00,0.0035
1831.00,0.0035
1830.00,0.0035
1829.00,0.0034
1828.00,0.0034
1827.00,0.0034
1826.00,0.0034
1825.00,0.0033
1824.00,0.0033
1823.00,0.0033
1822.00,0.0033
1821.00,0.0033
1820.00,0.0032
1819.00,0.0032
1818.00,0.0031
1817.00,0.0031
1816.00,0.0031
1815.00,0.0032
1814.00,0.0033
1813.00,0.0034
1812.00,0.0035
1811.00,0.0035
1810.00,0.0035
1809.00,0.0035
1808.00,0.0035
1807.00,0.0035
1806.00,0.0035
1805.00,0.0035
1804.00,0.0035
1803.00,0.0036
1802.00,0.0036
1801.00,0.0035
1800.00,0.0035
1799.00,0.0035
1798.00,0.0035
1797.00,0.0035
1796.00,0.0036
1795.00,0.0038
1794.00,0.0037
1793.00,0.0036
1792.00,0.0034
1791.00,0.0032
1790.00,0.0031
1789.00,0.0032
1788.00,0.0034
1787.00,0.0035
1786.00,0.0035
1785.00,0.0034
1784.00,0.0034
1783.00,0.0035
1782.00,0.0035
1781.00,0.0036
1780.00,0.0036
1779.00,0.0035
1778.00,0.0035
1777.00,0.0036
1776.00,0.0038
1775.00,0.0039
1774.00,0.0040
1773.00,0.0039
1772.00,0.0037
1771.00,0.0035
1770.00,0.0034
1769.00,0.0035
1768.00,0.0035
1767.00,0.0035
1766.00,0.0036
1765.00,0.0038
1764.00,0.0041
1763.00,0.0042
1762.00,0.0041
1761.00,0.0041
1760.00,0.0041
1759.00,0.0043
1758.00,0.0044
1757.00,0.0045
1756.00,0.0045
1755.00,0.0047
1754.00,0.0049
1753.00,0.0051
1752.00,0.0053
1751.00,0.0053
1750.00,0.0054
1749.00,0.0057
1748.00,0.0059
1747.00,0.0062
1746.00,0.0065
1745.00,0.0067
1744.00,0.0070
1743.00,0.0073
1742.00,0.0076
1741.00,0.0079
1740.00,0.0081
1739.00,0.0083
1738.00,0.0086
1737.00,0.0090
1736.00,0.0094
1735.00,0.0095
1734.00,0.0095
1733.00,0.0096
1732.00,0.0099
1731.00,0.0103
1730.00,0.0106
1729.00,0.0109
1728.00,0.0110
1727.00,0.0112
1726.00,0.0113
1725.00,0.0114
1724.00,0.0115
1723.00,0.0115
1722.00,0.0116
1721.00,0.0117
1720.00,0.0119
1719.00,0.0119
1718.00,0.0118
1717.00,0.0117
1716.00,0.0115
1715.00,0.0114
1714.00,0.0113
1713.00,0.0114
1712.00,0.0115
1711.00,0.0116
1710.00,0.0117
1709.00,0.0119
1708.00,0.0121
1707.00,0.0123
1706.00,0.0126
1705.00,0.0128
1704.00,0.0131
1703.00,0.0135
1702.00,0.0137
1701.00,0.0140
1700.00,0.0144
1699.00,0.0150
1698.00,0.0156
1697.00,0.0162
1696.00,0.0166
1695.00,0.0168
1694.00,0.0171
1693.00,0.0176
1692.00,0.0182
1691.00,0.0188
1690.00,0.0193
1689.00,0.0199
1688.00,0.0205
1687.00,0.0209
1686.00,0.0214
1685.00,0.0219
1684.00,0.0227
1683.00,0.0232
1682.00,0.0237
1681.00,0.0243
1680.00,0.0249
1679.00,0.0255
1678.00,0.0260
1677.00,0.0264
1676.00,0.0270
1675.00,0.0276
1674.00,0.0283
1673.00,0.0289
1672.00,0.0295
1671.00,0.0302
1670.00,0.0310
1669.00,0.0318
1668.00,0.0325
1667.00,0.0330
1666.00,0.0336
1665.00,0.0342
1664.00,0.0349
1663.00,0.0359
1662.00,0.0368
1661.00,0.0376
1660.00,0.0384
1659.00,0.0391
1658.00,0.0397
1657.00,0.0402
1656.00,0.0406
1655.00,0.0409
1654.00,0.0418
1653.00,0.0431
1652.00,0.0438
1651.00,0.0440
1650.00,0.0440
1649.00,0.0440
1648.00,0.0442
1647.00,0.0444
1646.00,0.0445
1645.00,0.0443
1644.00,0.0440
1643.00,0.0438
1642.00,0.0435
1641.00,0.0433
1640.00,0.0430
1639.00,0.0428
1638.00,0.0426
1637.00,0.0425
1636.00,0.0428
1635.00,0.0431
1634.00,0.0432
1633.00,0.0430
1632.00,0.0429
1631.00,0.0427
1630.00,0.0426
1629.00,0.0428
1628.00,0.0430
1627.00,0.0432
1626.00,0.0432
1625.00,0.0432
1624.00,0.0432
1623.00,0.0432
1622.00,0.0431
1621.00,0.0427
1620.00,0.0421
1619.00,0.0414
1618.00,0.0408
1617.00,0.0402
1616.00,0.0395
1615.00,0.0387
1614.00,0.0379
1613.00,0.0370
1612.00,0.0361
1611.00,0.0351
1610.00,0.0342
1609.00,0.0333
1608.00,0.0324
1607.00,0.0315
1606.00,0.0306
1605.00,0.0298
1604.00,0.0290
1603.00,0.0282
1602.00,0.0275
1601.00,0.0268
1600.00,0.0261
1599.00,0.0254
1598.00,0.0248
1597.00,0.0243
1596.00,0.0237
1595.00,0.0231
1594.00,0.0226
1593.00,0.0220
1592.00,0.0214
1591.00,0.0208
1590.00,0.0202
1589.00,0.0197
1588.00,0.0191
1587.00,0.0186
1586.00,0.0182
1585.00,0.0178
1584.00,0.0174
1583.00,0.0171
1582.00,0.0169
1581.00,0.0167
1580.00,0.0165
1579.00,0.0164
1578.00,0.0163
1577.00,0.0163
1576.00,0.0165
1575.00,0.0166
1574.00,0.0167
1573.00,0.0168
1572.00,0.0169
1571.00,0.0171
1570.00,0.0177
1569.00,0.0183
1568.00,0.0188
1567.00,0.0192
1566.00,0.0198
1565.00,0.0204
1564.00,0.0211
1563.00,0.0216
1562.00,0.0219
1561.00,0.0222
1560.00,0.0230
1559.00,0.0249
1558.00,0.0266
1557.00,0.0274
1556.00,0.0282
1555.00,0.0290
1554.00,0.0300
1553.00,0.0309
1552.00,0.0317
1551.00,0.0326
1550.00,0.0335
1549.00,0.0344
1548.00,0.0351
1547.00,0.0356
1546.00,0.0361
1545.00,0.0368
1544.00,0.0375
1543.00,0.0380
1542.00,0.0386
1541.00,0.0393
1540.00,0.0401
1539.00,0.0405
1538.00,0.0406
1537.00,0.0407
1536.00,0.0407
1535.00,0.0407
1534.00,0.0410
1533.00,0.0413
1532.00,0.0415
1531.00,0.0415
1530.00,0.0414
1529.00,0.0414
1528.00,0.0413
1527.00,0.0413
1526.00,0.0413
1525.00,0.0413
1524.00,0.0412
1523.00,0.0411
1522.00,0.0413
1521.00,0.0416
1520.00,0.0418
1519.00,0.0419
1518.00,0.0421
1517.00,0.0423
1516.00,0.0425
1515.00,0.0424
1514.00,0.0420
1513.00,0.0415
1512.00,0.0410
1511.00,0.0405
1510.00,0.0399
1509.00,0.0393
1508.00,0.0388
1507.00,0.0383
1506.00,0.0374
1505.00,0.0363
1504.00,0.0356
1503.00,0.0350
1502.00,0.0343
1501.00,0.0336
1500.00,0.0328
1499.00,0.0321
1498.00,0.0314
1497.00,0.0305
1496.00,0.0297
1495.00,0.0289
1494.00,0.0282
1493.00,0.0275
1492.00,0.0269
1491.00,0.0261
1490.00,0.0255
1489.00,0.0248
1488.00,0.0242
1487.00,0.0236
1486.00,0.0230
1485.00,0.0225
1484.00,0.0220
1483.00,0.0216
1482.00,0.0212
1481.00,0.0209
1480.00,0.0206
1479.00,0.0203
1478.00,0.0201
1477.00,0.0200
1476.00,0.0200
1475.00,0.0200
1474.00,0.0200
1473.00,0.0202
1472.00,0.0204
1471.00,0.0206
1470.00,0.0207
1469.00,0.0208
1468.00,0.0209
1467.00,0.0210
1466.00,0.0210
1465.00,0.0210
1464.00,0.0210
1463.00,0.0211
1462.00,0.0211
1461.00,0.0211
1460.00,0.0212
1459.00,0.0212
1458.00,0.0212
1457.00,0.0213
1456.00,0.0212
1455.00,0.0212
1454.00,0.0213
1453.00,0.0212
1452.00,0.0211
1451.00,0.0209
1450.00,0.0207
1449.00,0.0204
1448.00,0.0202
1447.00,0.0200
1446.00,0.0198
1445.00,0.0195
1444.00,0.0192
1443.00,0.0189
1442.00,0.0187
1441.00,0.0185
1440.00,0.0182
1439.00,0.0180
1438.00,0.0177
1437.00,0.0176
1436.00,0.0177
1435.00,0.0177
1434.00,0.0177
1433.00,0.0176
1432.00,0.0176
1431.00,0.0176
1430.00,0.0177
1429.00,0.0178
1428.00,0.0179
1427.00,0.0180
1426.00,0.0181
1425.00,0.0183
1424.00,0.0185
1423.00,0.0187
1422.00,0.0188
1421.00,0.0189
1420.00,0.0189
1419.00,0.0191
1418.00,0.0194
1417.00,0.0196
1416.00,0.0197
1415.00,0.0199
1414.00,0.0200
1413.00,0.0200
1412.00,0.0201
1411.00,0.0201
1410.00,0.0201
1409.00,0.0201
1408.00,0.0200
1407.00,0.0199
1406.00,0.0199
1405.00,0.0198
1404.00,0.0197
1403.00,0.0195
1402.00,0.0194
1401.00,0.0192
1400.00,0.0191
1399.00,0.0190
1398.00,0.0190
1397.00,0.0190
1396.00,0.0190
1395.00,0.0190
1394.00,0.0191
1393.00,0.0191
1392.00,0.0192
1391.00,0.0193
1390.00,0.0194
1389.00,0.0195
1388.00,0.0196
1387.00,0.0196
1386.00,0.0196
1385.00,0.0195
1384.00,0.0194
1383.00,0.0193
1382.00,0.0190
1381.00,0.0187
1380.00,0.0184
1379.00,0.0181
1378.00,0.0179
1377.00,0.0177
1376.00,0.0176
1375.00,0.0177
1374.00,0.0178
1373.00,0.0179
1372.00,0.0181
1371.00,0.0182
1370.00,0.0182
1369.00,0.0182
1368.00,0.0181
1367.00,0.0180
1366.00,0.0178
1365.00,0.0177
1364.00,0.0177
1363.00,0.0177
1362.00,0.0177
1361.00,0.0176
1360.00,0.0176
1359.00,0.0176
1358.00,0.0175
1357.00,0.0174
1356.00,0.0173
1355.00,0.0172
1354.00,0.0171
1353.00,0.0169
1352.00,0.0167
1351.00,0.0166
1350.00,0.0166
1349.00,0.0166
1348.00,0.0166
1347.00,0.0167
1346.00,0.0168
1345.00,0.0169
1344.00,0.0170
1343.00,0.0172
1342.00,0.0172
1341.00,0.0173
1340.00,0.0173
1339.00,0.0172
1338.00,0.0171
1337.00,0.0170
1336.00,0.0169
1335.00,0.0168
1334.00,0.0168
1333.00,0.0169
1332.00,0.0170
1331.00,0.0172
1330.00,0.0173
1329.00,0.0174
1328.00,0.0174
1327.00,0.0174
1326.00,0.0173
1325.00,0.0172
1324.00,0.0170
1323.00,0.0168
1322.00,0.0166
1321.00,0.0164
1320.00,0.0162
1319.00,0.0160
1318.00,0.0159
1317.00,0.0159
1316.00,0.0161
1315.00,0.0163
1314.00,0.0166
1313.00,0.0169
1312.00,0.0172
1311.00,0.0175
1310.00,0.0178
1309.00,0.0179
1308.00,0.0180
1307.00,0.0180
1306.00,0.0180
1305.00,0.0180
1304.00,0.0181
1303.00,0.0182
1302.00,0.0184
1301.00,0.0185
1300.00,0.0187
1299.00,0.0189
1298.00,0.0190
1297.00,0.0191
1296.00,0.0192
1295.00,0.0193
1294.00,0.0194
1293.00,0.0194
1292.00,0.0194
1291.00,0.0194
1290.00,0.0193
1289.00,0.0192
1288.00,0.0191
1287.00,0.0190
1286.00,0.0189
1285.00,0.0188
1284.00,0.0187
1283.00,0.0185
1282.00,0.0184
1281.00,0.0182
1280.00,0.0182
1279.00,0.0182
1278.00,0.0183
1277.00,0.0185
1276.00,0.0188
1275.00,0.0191
1274.00,0.0195
1273.00,0.0199
1272.00,0.0202
1271.00,0.0205
1270.00,0.0208
1269.00,0.0211
1268.00,0.0214
1267.00,0.0216
1266.00,0.0219
1265.00,0.0221
1264.00,0.0224
1263.00,0.0226
1262.00,0.0228
1261.00,0.0230
1260.00,0.0231
1259.00,0.0232
1258.00,0.0232
1257.00,0.0232
1256.00,0.0231
1255.00,0.0231
1254.00,0.0229
1253.00,0.0228
1252.00,0.0228
1251.00,0.0228
1250.00,0.0228
1249.00,0.0228
1248.00,0.0228
1247.00,0.0227
1246.00,0.0226
1245.00,0.0224
1244.00,0.0223
1243.00,0.0223
1242.00,0.0225
1241.00,0.0228
1240.00,0.0232
1239.00,0.0236
1238.00,0.0240
1237.00,0.0244
1236.00,0.0248
1235.00,0.0252
1234.00,0.0254
1233.00,0.0256
1232.00,0.0257
1231.00,0.0256
1230.00,0.0255
1229.00,0.0254
1228.00,0.0252
1227.00,0.0252
1226.00,0.0252
1225.00,0.0253
1224.00,0.0254
1223.00,0.0254
1222.00,0.0254
1221.00,0.0253
1220.00,0.0251
1219.00,0.0250
1218.00,0.0249
1217.00,0.0248
1216.00,0.0247
1215.00,0.0247
1214.00,0.0246
1213.00,0.0245
1212.00,0.0244
1211.00,0.0242
1210.00,0.0238
1209.00,0.0234
1208.00,0.0228
1207.00,0.0223
1206.00,0.0217
1205.00,0.0213
1204.00,0.0211
1203.00,0.0212
1202.00,0.0214
1201.00,0.0218
1200.00,0.0222
1199.00,0.0227
1198.00,0.0230
1197.00,0.0233
1196.00,0.0236
1195.00,0.0238
1194.00,0.0239
1193.00,0.0240
1192.00,0.0240
1191.00,0.0240
1190.00,0.0241
1189.00,0.0241
1188.00,0.0241
1187.00,0.0242
1186.00,0.0242
1185.00,0.0244
1184.00,0.0245
1183.00,0.0246
1182.00,0.0247
1181.00,0.0248
1180.00,0.0248
1179.00,0.0248
1178.00,0.0247
1177.00,0.0246
1176.00,0.0245
1175.00,0.0244
1174.00,0.0242
1173.00,0.0240
1172.00,0.0238
1171.00,0.0237
1170.00,0.0237
1169.00,0.0239
1168.00,0.0241
1167.00,0.0245
1166.00,0.0248
1165.00,0.0251
1164.00,0.0254
1163.00,0.0256
1162.00,0.0258
1161.00,0.0259
1160.00,0.0260
1159.00,0.0261
1158.00,0.0261
1157.00,0.0260
1156.00,0.0259
1155.00,0.0258
1154.00,0.0256
1153.00,0.0253
1152.00,0.0249
1151.00,0.0243
1150.00,0.0237
1149.00,0.0231
1148.00,0.0227
1147.00,0.0226
1146.00,0.0228
1145.00,0.0233
1144.00,0.0237
1143.00,0.0241
1142.00,0.0243
1141.00,0.0245
1140.00,0.0246
1139.00,0.0246
1138.00,0.0246
1137.00,0.0246
1136.00,0.0246
1135.00,0.0246
1134.00,0.0246
1133.00,0.0246
1132.00,0.0247
1131.00,0.0248
1130.00,0.0249
1129.00,0.0250
1128.00,0.0251
1127.00,0.0252
1126.00,0.0252
1125.00,0.0253
1124.00,0.0253
1123.00,0.0254
1122.00,0.0254
1121.00,0.0254
1120.00,0.0254
1119.00,0.0254
1118.00,0.0254
1117.00,0.0254
1116.00,0.0254
1115.00,0.0255
1114.00,0.0255
1113.00,0.0255
1112.00,0.0255
1111.00,0.0255
1110.00,0.0254
1109.00,0.0254
1108.00,0.0254
1107.00,0.0254
1106.00,0.0253
1105.00,0.0253
1104.00,0.0252
1103.00,0.0251
1102.00,0.0250
1101.00,0.0249
1100.00,0.0248
1099.00,0.0248
1098.00,0.0249
1097.00,0.0250
1096.00,0.0251
1095.00,0.0252
1094.00,0.0253
1093.00,0.0254
1092.00,0.0255
1091.00,0.0256
1090.00,0.0258
1089.00,0.0259
1088.00,0.0260
1087.00,0.0261
1086.00,0.0262
1085.00,0.0264
1084.00,0.0265
1083.00,0.0266
1082.00,0.0267
1081.00,0.0267
1080.00,0.0268
1079.00,0.0269
1078.00,0.0270
1077.00,0.0271
1076.00,0.0273
1075.00,0.0274
1074.00,0.0274
1073.00,0.0273
1072.00,0.0273
1071.00,0.0272
1070.00,0.0271
1069.00,0.0271
1068.00,0.0270
1067.00,0.0270
1066.00,0.0269
1065.00,0.0269
1064.00,0.0268
1063.00,0.0268
1062.00,0.0266
1061.00,0.0265
1060.00,0.0263
1059.00,0.0260
1058.00,0.0256
1057.00,0.0253
1056.00,0.0249
1055.00,0.0245
1054.00,0.0242
1053.00,0.0240
1052.00,0.0240
1051.00,0.0243
1050.00,0.0247
1049.00,0.0251
1048.00,0.0255
1047.00,0.0258
1046.00,0.0259
1045.00,0.0258
1044.00,0.0257
1043.00,0.0255
1042.00,0.0253
1041.00,0.0251
1040.00,0.0248
1039.00,0.0245
1038.00,0.0241
1037.00,0.0237
1036.00,0.0233
1035.00,0.0229
1034.00,0.0225
1033.00,0.0222
1032.00,0.0220
1031.00,0.0219
1030.00,0.0219
1029.00,0.0221
1028.00,0.0224
1027.00,0.0228
1026.00,0.0232
1025.00,0.0236
1024.00,0.0239
1023.00,0.0242
1022.00,0.0244
1021.00,0.0245
1020.00,0.0246
1019.00,0.0246
1018.00,0.0246
1017.00,0.0246
1016.00,0.0246
1015.00,0.0246
1014.00,0.0246
1013.00,0.0245
1012.00,0.0244
1011.00,0.0243
1010.00,0.0241
1009.00,0.0239
1008.00,0.0237
1007.00,0.0235
1006.00,0.0234
1005.00,0.0232
1004.00,0.0231
1003.00,0.0229
1002.00,0.0226
1001.00,0.0222
1000.00,0.0217
999.00,0.0214
998.00,0.0212
997.00,0.0212
996.00,0.0213
995.00,0.0214
994.00,0.0215
993.00,0.0215
992.00,0.0214
991.00,0.0213
990.00,0.0211
989.00,0.0210
988.00,0.0208
987.00,0.0207
986.00,0.0205
985.00,0.0204
984.00,0.0202
983.00,0.0201
982.00,0.0201
981.00,0.0200
980.00,0.0200
979.00,0.0199
978.00,0.0199
977.00,0.0198
976.00,0.0196
975.00,0.0195
974.00,0.0194
973.00,0.0192
972.00,0.0191
971.00,0.0190
970.00,0.0189
969.00,0.0187
968.00,0.0186
967.00,0.0185
966.00,0.0184
965.00,0.0183
964.00,0.0183
963.00,0.0182
962.00,0.0180
961.00,0.0179
960.00,0.0177
959.00,0.0176
958.00,0.0175
957.00,0.0174
956.00,0.0173
955.00,0.0173
954.00,0.0172
953.00,0.0172
952.00,0.0172
951.00,0.0172
950.00,0.0172
949.00,0.0173
948.00,0.0174
947.00,0.0175
946.00,0.0176
945.00,0.0176
944.00,0.0177
943.00,0.0177
942.00,0.0177
941.00,0.0177
940.00,0.0178
939.00,0.0178
938.00,0.0179
937.00,0.0181
936.00,0.0182
935.00,0.0184
934.00,0.0185
933.00,0.0185
932.00,0.0185
931.00,0.0185
930.00,0.0184
929.00,0.0184
928.00,0.0183
927.00,0.0183
926.00,0.0182
925.00,0.0181
924.00,0.0180
923.00,0.0180
922.00,0.0179
921.00,0.0178
920.00,0.0177
919.00,0.0176
918.00,0.0174
917.00,0.0174
916.00,0.0173
915.00,0.0172
914.00,0.0170
913.00,0.0170
912.00,0.0170
911.00,0.0171
910.00,0.0173
909.00,0.0174
908.00,0.0174
907.00,0.0174
906.00,0.0173
905.00,0.0172
904.00,0.0170
903.00,0.0168
902.00,0.0166
901.00,0.0165
900.00,0.0165
899.00,0.0166
898.00,0.0166
897.00,0.0167
896.00,0.0167
895.00,0.0166
894.00,0.0163
893.00,0.0158
892.00,0.0152
891.00,0.0144
890.00,0.0137
889.00,0.0133
888.00,0.0132
887.00,0.0133
886.00,0.0133
885.00,0.0133
884.00,0.0133
883.00,0.0135
882.00,0.0140
881.00,0.0145
880.00,0.0151
879.00,0.0154
878.00,0.0157
877.00,0.0159
876.00,0.0160
875.00,0.0161
874.00,0.0162
873.00,0.0162
872.00,0.0162
871.00,0.0162
870.00,0.0161
869.00,0.0159
868.00,0.0158
867.00,0.0156
866.00,0.0154
865.00,0.0151
864.00,0.0148
863.00,0.0143
862.00,0.0139
861.00,0.0137
860.00,0.0136
859.00,0.0136
858.00,0.0138
857.00,0.0140
856.00,0.0142
855.00,0.0144
854.00,0.0145
853.00,0.0146
852.00,0.0148
851.00,0.0150
850.00,0.0153
849.00,0.0155
848.00,0.0156
847.00,0.0156
846.00,0.0156
845.00,0.0156
844.00,0.0156
843.00,0.0156
842.00,0.0156
841.00,0.0156
840.00,0.0156
839.00,0.0156
838.00,0.0156
837.00,0.0158
836.00,0.0161
835.00,0.0165
834.00,0.0168
833.00,0.0171
832.00,0.0173
831.00,0.0175
830.00,0.0175
829.00,0.0176
828.00,0.0176
827.00,0.0177
826.00,0.0179
825.00,0.0181
824.00,0.0183
823.00,0.0186
822.00,0.0187
821.00,0.0189
820.00,0.0190
819.00,0.0191
818.00,0.0191
817.00,0.0191
816.00,0.0192
815.00,0.0193
814.00,0.0194
813.00,0.0194
812.00,0.0194
811.00,0.0195
810.00,0.0194
809.00,0.0193
808.00,0.0192
807.00,0.0189
806.00,0.0186
805.00,0.0183
804.00,0.0181
803.00,0.0181
802.00,0.0182
801.00,0.0184
800.00,0.0186
799.00,0.0187
798.00,0.0188
797.00,0.0187
796.00,0.0187
795.00,0.0187
794.00,0.0188
793.00,0.0190
792.00,0.0194
791.00,0.0197
790.00,0.0201
789.00,0.0204
788.00,0.0207
787.00,0.0210
786.00,0.0211
785.00,0.0213
784.00,0.0215
783.00,0.0217
782.00,0.0219
781.00,0.0220
780.00,0.0221
779.00,0.0221
778.00,0.0221
777.00,0.0221
776.00,0.0221
775.00,0.0221
774.00,0.0221
773.00,0.0221
772.00,0.0222
771.00,0.0222
770.00,0.0223
769.00,0.0224
768.00,0.0225
767.00,0.0226
766.00,0.0228
765.00,0.0229
764.00,0.0231
763.00,0.0233
762.00,0.0235
761.00,0.0237
760.00,0.0239
759.00,0.0240
758.00,0.0241
757.00,0.0242
756.00,0.0243
755.00,0.0244
754.00,0.0245
753.00,0.0248
752.00,0.0250
751.00,0.0253
750.00,0.0256
749.00,0.0258
748.00,0.0260
747.00,0.0261
746.00,0.0261
745.00,0.0262
744.00,0.0262
743.00,0.0263
742.00,0.0263
741.00,0.0262
740.00,0.0262
739.00,0.0261
738.00,0.0260
737.00,0.0259
736.00,0.0258
735.00,0.0256
734.00,0.0255
733.00,0.0255
732.00,0.0257
731.00,0.0260
730.00,0.0264
729.00,0.0269
728.00,0.0272
727.00,0.0275
726.00,0.0277
725.00,0.0280
724.00,0.0282
723.00,0.0285
722.00,0.0287
721.00,0.0289
720.00,0.0292
719.00,0.0294
718.00,0.0296
717.00,0.0299
716.00,0.0301
715.00,0.0303
714.00,0.0305
713.00,0.0307
712.00,0.0309
711.00,0.0312
710.00,0.0314
709.00,0.0317
708.00,0.0321
707.00,0.0324
706.00,0.0327
705.00,0.0330
704.00,0.0333
703.00,0.0336
702.00,0.0339
701.00,0.0341
700.00,0.0343
699.00,0.0345
698.00,0.0346
697.00,0.0346
696.00,0.0346
695.00,0.0347
694.00,0.0347
693.00,0.0346
692.00,0.0346
691.00,0.0345
690.00,0.0345
689.00,0.0345
688.00,0.0346
687.00,0.0346
686.00,0.0347
685.00,0.0347
684.00,0.0347
683.00,0.0347
682.00,0.0347
681.00,0.0347
680.00,0.0348
679.00,0.0350
678.00,0.0351
677.00,0.0353
676.00,0.0354
675.00,0.0355
674.00,0.0355
673.00,0.0356
672.00,0.0357
671.00,0.0358
670.00,0.0359
669.00,0.0363
668.00,0.0370
667.00,0.0375
666.00,0.0377
665.00,0.0376
664.00,0.0376
663.00,0.0377
662.00,0.0378
661.00,0.0380
660.00,0.0381
659.00,0.0382
658.00,0.0383
657.00,0.0384
656.00,0.0386
655.00,0.0387
654.00,0.0389
653.00,0.0389
652.00,0.0390
651.00,0.0390
650.00,0.0390
649.00,0.0390
648.00,0.0391
647.00,0.0392
646.00,0.0394
645.00,0.0396
644.00,0.0397
643.00,0.0399
642.00,0.0400
641.00,0.0401
640.00,0.0402
639.00,0.0403
638.00,0.0403
637.00,0.0403
636.00,0.0404
635.00,0.0405
634.00,0.0406
633.00,0.0408
632.00,0.0410
631.00,0.0413
630.00,0.0415
629.00,0.0418
628.00,0.0420
627.00,0.0422
626.00,0.0424
625.00,0.0426
624.00,0.0429
623.00,0.0431
622.00,0.0432
621.00,0.0434
620.00,0.0435
619.00,0.0436
618.00,0.0436
617.00,0.0435
616.00,0.0434
615.00,0.0435
614.00,0.0435
613.00,0.0437
612.00,0.0438
611.00,0.0440
610.00,0.0442
609.00,0.0443
608.00,0.0443
607.00,0.0442
606.00,0.0441
605.00,0.0442
604.00,0.0444
603.00,0.0446
602.00,0.0447
601.00,0.0448
600.00,0.0448
599.00,0.0448
598.00,0.0447
597.00,0.0447
596.00,0.0447
595.00,0.0448
594.00,0.0449
593.00,0.0450
592.00,0.0452
591.00,0.0454
590.00,0.0456
589.00,0.0457
588.00,0.0458
587.00,0.0458
586.00,0.0458
585.00,0.0459
584.00,0.0459
583.00,0.0459
582.00,0.0458
581.00,0.0456
580.00,0.0455
579.00,0.0453
578.00,0.0452
577.00,0.0453
576.00,0.0456
575.00,0.0461
574.00,0.0468
573.00,0.0473
572.00,0.0477
571.00,0.0479
570.00,0.0479
569.00,0.0479
568.00,0.0480
567.00,0.0482
566.00,0.0484
565.00,0.0486
564.00,0.0487
563.00,0.0488
562.00,0.0489
561.00,0.0489
560.00,0.0490
559.00,0.0491
558.00,0.0490
557.00,0.0489
556.00,0.0487
555.00,0.0484
554.00,0.0479
553.00,0.0475
552.00,0.0474
551.00,0.0476
550.00,0.0479
549.00,0.0484
548.00,0.0488
547.00,0.0492
546.00,0.0495
545.00,0.0497
544.00,0.0499
543.00,0.0500
542.00,0.0501
541.00,0.0502
540.00,0.0503
539.00,0.0503
538.00,0.0502
537.00,0.0501
536.00,0.0499
535.00,0.0498
534.00,0.0498
533.00,0.0500
532.00,0.0504
531.00,0.0508
530.00,0.0511
529.00,0.0510
528.00,0.0509
527.00,0.0505
526.00,0.0502
525.00,0.0502
524.00,0.0504
523.00,0.0507
522.00,0.0510
521.00,0.0513
520.00,0.0515
519.00,0.0517
518.00,0.0518
517.00,0.0519
516.00,0.0523
515.00,0.0527
514.00,0.0530
513.00,0.0531
512.00,0.0532
511.00,0.0530
510.00,0.0528
509.00,0.0526
508.00,0.0524
507.00,0.0522
506.00,0.0519
505.00,0.0517
504.00,0.0517
503.00,0.0517
502.00,0.0517
501.00,0.0516
500.00,0.0515
499.00,0.0513
498.00,0.0511
497.00,0.0509
496.00,0.0507
495.00,0.0505
494.00,0.0502
493.00,0.0499
492.00,0.0498
491.00,0.0497
490.00,0.0495
489.00,0.0495
488.00,0.0497
487.00,0.0498
486.00,0.0497
485.00,0.0494
484.00,0.0491
483.00,0.0488
482.00,0.0486
481.00,0.0486
480.00,0.0489
479.00,0.0492
478.00,0.0494
477.00,0.0495
476.00,0.0495
475.00,0.0494
474.00,0.0493
473.00,0.0493
472.00,0.0495
471.00,0.0498
470.00,0.0499
469.00,0.0500
468.00,0.0501
467.00,0.0503
466.00,0.0503
465.00,0.0503
464.00,0.0504
463.00,0.0505
462.00,0.0505
461.00,0.0507
460.00,0.0510
459.00,0.0514
458.00,0.0517
457.00,0.0519
456.00,0.0520
455.00,0.0520
454.00,0.0519
453.00,0.0517
452.00,0.0517
451.00,0.0516
450.00,0.0514
449.00,0.0511
448.00,0.0511
447.00,0.0511
446.00,0.0514
445.00,0.0518
444.00,0.0522
443.00,0.0525
442.00,0.0523
441.00,0.0521
440.00,0.0521
439.00,0.0521
438.00,0.0520
437.00,0.0518
436.00,0.0519
435.00,0.0520
434.00,0.0518
433.00,0.0513
432.00,0.0508
431.00,0.0507
430.00,0.0509
429.00,0.0517
428.00,0.0527
427.00,0.0534
426.00,0.0536
425.00,0.0535
424.00,0.0534
423.00,0.0532
422.00,0.0528
421.00,0.0523
420.00,0.0521
419.00,0.0522
418.00,0.0520
417.00,0.0519
416.00,0.0519
415.00,0.0521
414.00,0.0524
413.00,0.0530
412.00,0.0536
411.00,0.0537
410.00,0.0530
409.00,0.0526
408.00,0.0528
407.00,0.0533
406.00,0.0535
405.00,0.0536
404.00,0.0537
403.00,0.0534
402.00,0.0526
401.00,0.0519
400.00,0.0518
