Created as New Dataset,Sample 657 By YargerLab Date Wednesday, June 11 2025
cm-1,A
4000.00,0.0037
3999.00,0.0037
3998.00,0.0037
3997.00,0.0037
3996.00,0.0037
3995.00,0.0037
3994.00,0.0037
3993.00,0.0037
3992.00,0.0037
3991.00,0.0037
3990.00,0.0037
3989.00,0.0036
3988.00,0.0036
3987.00,0.0036
3986.00,0.0037
3985.00,0.0037
3984.00,0.0037
3983.00,0.0036
3982.00,0.0036
3981.00,0.0036
3980.00,0.0036
3979.00,0.0036
3978.00,0.0036
3977.00,0.0036
3976.00,0.0036
3975.00,0.0035
3974.00,0.0035
3973.00,0.0036
3972.00,0.0036
3971.00,0.0036
3970.00,0.0036
3969.00,0.0036
3968.00,0.0036
3967.00,0.0036
3966.00,0.0036
3965.00,0.0036
3964.00,0.0037
3963.00,0.0037
3962.00,0.0037
3961.00,0.0037
3960.00,0.0037
3959.00,0.0037
3958.00,0.0037
3957.00,0.0037
3956.00,0.0037
3955.00,0.0037
3954.00,0.0036
3953.00,0.0036
3952.00,0.0036
3951.00,0.0036
3950.00,0.0036
3949.00,0.0037
3948.00,0.0038
3947.00,0.0039
3946.00,0.0039
3945.00,0.0038
3944.00,0.0038
3943.00,0.0037
3942.00,0.0037
3941.00,0.0037
3940.00,0.0037
3939.00,0.0037
3938.00,0.0037
3937.00,0.0037
3936.00,0.0038
3935.00,0.0039
3934.00,0.0040
3933.00,0.0040
3932.00,0.0040
3931.00,0.0039
3930.00,0.0039
3929.00,0.0039
3928.00,0.0038
3927.00,0.0038
3926.00,0.0037
3925.00,0.0037
3924.00,0.0037
3923.00,0.0037
3922.00,0.0038
3921.00,0.0039
3920.00,0.0040
3919.00,0.0040
3918.00,0.0040
3917.00,0.0040
3916.00,0.0039
3915.00,0.0038
3914.00,0.0037
3913.00,0.0037
3912.00,0.0036
3911.00,0.0036
3910.00,0.0036
3909.00,0.0036
3908.00,0.0036
3907.00,0.0036
3906.00,0.0037
3905.00,0.0039
3904.00,0.0042
3903.00,0.0044
3902.00,0.0046
3901.00,0.0047
3900.00,0.0046
3899.00,0.0044
3898.00,0.0043
3897.00,0.0042
3896.00,0.0042
3895.00,0.0041
3894.00,0.0040
3893.00,0.0038
3892.00,0.0038
3891.00,0.0038
3890.00,0.0039
3889.00,0.0040
3888.00,0.0042
3887.00,0.0043
3886.00,0.0043
3885.00,0.0042
3884.00,0.0041
3883.00,0.0042
3882.00,0.0042
3881.00,0.0042
3880.00,0.0041
3879.00,0.0041
3878.00,0.0041
3877.00,0.0042
3876.00,0.0043
3875.00,0.0042
3874.00,0.0040
3873.00,0.0040
3872.00,0.0041
3871.00,0.0043
3870.00,0.0043
3869.00,0.0043
3868.00,0.0043
3867.00,0.0044
3866.00,0.0045
3865.00,0.0045
3864.00,0.0043
3863.00,0.0043
3862.00,0.0043
3861.00,0.0044
3860.00,0.0044
3859.00,0.0042
3858.00,0.0039
3857.00,0.0036
3856.00,0.0034
3855.00,0.0034
3854.00,0.0035
3853.00,0.0038
3852.00,0.0041
3851.00,0.0043
3850.00,0.0044
3849.00,0.0044
3848.00,0.0044
3847.00,0.0043
3846.00,0.0043
3845.00,0.0043
3844.00,0.0043
3843.00,0.0043
3842.00,0.0043
3841.00,0.0043
3840.00,0.0043
3839.00,0.0043
3838.00,0.0043
3837.00,0.0043
3836.00,0.0043
3835.00,0.0043
3834.00,0.0043
3833.00,0.0043
3832.00,0.0043
3831.00,0.0043
3830.00,0.0042
3829.00,0.0042
3828.00,0.0042
3827.00,0.0041
3826.00,0.0041
3825.00,0.0041
3824.00,0.0042
3823.00,0.0044
3822.00,0.0044
3821.00,0.0043
3820.00,0.0042
3819.00,0.0042
3818.00,0.0043
3817.00,0.0043
3816.00,0.0042
3815.00,0.0041
3814.00,0.0040
3813.00,0.0039
3812.00,0.0039
3811.00,0.0039
3810.00,0.0038
3809.00,0.0039
3808.00,0.0040
3807.00,0.0041
3806.00,0.0041
3805.00,0.0042
3804.00,0.0044
3803.00,0.0045
3802.00,0.0044
3801.00,0.0042
3800.00,0.0042
3799.00,0.0042
3798.00,0.0043
3797.00,0.0043
3796.00,0.0041
3795.00,0.0040
3794.00,0.0039
3793.00,0.0038
3792.00,0.0037
3791.00,0.0037
3790.00,0.0036
3789.00,0.0036
3788.00,0.0036
3787.00,0.0035
3786.00,0.0035
3785.00,0.0035
3784.00,0.0036
3783.00,0.0036
3782.00,0.0038
3781.00,0.0038
3780.00,0.0038
3779.00,0.0038
3778.00,0.0037
3777.00,0.0037
3776.00,0.0037
3775.00,0.0037
3774.00,0.0037
3773.00,0.0038
3772.00,0.0039
3771.00,0.0040
3770.00,0.0041
3769.00,0.0041
3768.00,0.0041
3767.00,0.0042
3766.00,0.0042
3765.00,0.0041
3764.00,0.0041
3763.00,0.0041
3762.00,0.0042
3761.00,0.0042
3760.00,0.0042
3759.00,0.0042
3758.00,0.0042
3757.00,0.0043
3756.00,0.0043
3755.00,0.0044
3754.00,0.0045
3753.00,0.0046
3752.00,0.0047
3751.00,0.0048
3750.00,0.0050
3749.00,0.0051
3748.00,0.0050
3747.00,0.0050
3746.00,0.0051
3745.00,0.0052
3744.00,0.0051
3743.00,0.0050
3742.00,0.0050
3741.00,0.0051
3740.00,0.0051
3739.00,0.0052
3738.00,0.0053
3737.00,0.0054
3736.00,0.0053
3735.00,0.0052
3734.00,0.0051
3733.00,0.0051
3732.00,0.0051
3731.00,0.0049
3730.00,0.0047
3729.00,0.0046
3728.00,0.0046
3727.00,0.0046
3726.00,0.0045
3725.00,0.0044
3724.00,0.0044
3723.00,0.0043
3722.00,0.0043
3721.00,0.0042
3720.00,0.0041
3719.00,0.0040
3718.00,0.0039
3717.00,0.0039
3716.00,0.0039
3715.00,0.0039
3714.00,0.0041
3713.00,0.0042
3712.00,0.0042
3711.00,0.0042
3710.00,0.0043
3709.00,0.0043
3708.00,0.0043
3707.00,0.0042
3706.00,0.0041
3705.00,0.0040
3704.00,0.0039
3703.00,0.0038
3702.00,0.0037
3701.00,0.0036
3700.00,0.0036
3699.00,0.0036
3698.00,0.0037
3697.00,0.0037
3696.00,0.0036
3695.00,0.0037
3694.00,0.0037
3693.00,0.0038
3692.00,0.0038
3691.00,0.0038
3690.00,0.0038
3689.00,0.0039
3688.00,0.0041
3687.00,0.0041
3686.00,0.0040
3685.00,0.0039
3684.00,0.0039
3683.00,0.0039
3682.00,0.0039
3681.00,0.0039
3680.00,0.0040
3679.00,0.0041
3678.00,0.0042
3677.00,0.0045
3676.00,0.0046
3675.00,0.0045
3674.00,0.0045
3673.00,0.0045
3672.00,0.0047
3671.00,0.0047
3670.00,0.0045
3669.00,0.0043
3668.00,0.0042
3667.00,0.0041
3666.00,0.0041
3665.00,0.0040
3664.00,0.0038
3663.00,0.0037
3662.00,0.0037
3661.00,0.0037
3660.00,0.0037
3659.00,0.0037
3658.00,0.0038
3657.00,0.0039
3656.00,0.0041
3655.00,0.0042
3654.00,0.0044
3653.00,0.0046
3652.00,0.0049
3651.00,0.0050
3650.00,0.0050
3649.00,0.0051
3648.00,0.0051
3647.00,0.0051
3646.00,0.0049
3645.00,0.0046
3644.00,0.0043
3643.00,0.0041
3642.00,0.0040
3641.00,0.0039
3640.00,0.0038
3639.00,0.0038
3638.00,0.0038
3637.00,0.0039
3636.00,0.0039
3635.00,0.0040
3634.00,0.0041
3633.00,0.0041
3632.00,0.0042
3631.00,0.0043
3630.00,0.0045
3629.00,0.0045
3628.00,0.0045
3627.00,0.0046
3626.00,0.0047
3625.00,0.0047
3624.00,0.0046
3623.00,0.0045
3622.00,0.0044
3621.00,0.0043
3620.00,0.0042
3619.00,0.0042
3618.00,0.0043
3617.00,0.0045
3616.00,0.0046
3615.00,0.0047
3614.00,0.0047
3613.00,0.0047
3612.00,0.0047
3611.00,0.0048
3610.00,0.0049
3609.00,0.0049
3608.00,0.0047
3607.00,0.0046
3606.00,0.0045
3605.00,0.0044
3604.00,0.0044
3603.00,0.0043
3602.00,0.0043
3601.00,0.0043
3600.00,0.0043
3599.00,0.0044
3598.00,0.0044
3597.00,0.0045
3596.00,0.0045
3595.00,0.0045
3594.00,0.0044
3593.00,0.0045
3592.00,0.0045
3591.00,0.0047
3590.00,0.0048
3589.00,0.0048
3588.00,0.0047
3587.00,0.0047
3586.00,0.0046
3585.00,0.0047
3584.00,0.0047
3583.00,0.0046
3582.00,0.0045
3581.00,0.0043
3580.00,0.0042
3579.00,0.0040
3578.00,0.0040
3577.00,0.0040
3576.00,0.0040
3575.00,0.0041
3574.00,0.0041
3573.00,0.0042
3572.00,0.0043
3571.00,0.0045
3570.00,0.0048
3569.00,0.0050
3568.00,0.0051
3567.00,0.0051
3566.00,0.0050
3565.00,0.0049
3564.00,0.0048
3563.00,0.0048
3562.00,0.0047
3561.00,0.0046
3560.00,0.0045
3559.00,0.0044
3558.00,0.0044
3557.00,0.0044
3556.00,0.0044
3555.00,0.0044
3554.00,0.0044
3553.00,0.0044
3552.00,0.0044
3551.00,0.0045
3550.00,0.0046
3549.00,0.0047
3548.00,0.0049
3547.00,0.0049
3546.00,0.0049
3545.00,0.0049
3544.00,0.0048
3543.00,0.0047
3542.00,0.0047
3541.00,0.0046
3540.00,0.0046
3539.00,0.0045
3538.00,0.0046
3537.00,0.0046
3536.00,0.0046
3535.00,0.0046
3534.00,0.0046
3533.00,0.0046
3532.00,0.0046
3531.00,0.0046
3530.00,0.0046
3529.00,0.0047
3528.00,0.0048
3527.00,0.0048
3526.00,0.0049
3525.00,0.0050
3524.00,0.0050
3523.00,0.0049
3522.00,0.0049
3521.00,0.0050
3520.00,0.0050
3519.00,0.0050
3518.00,0.0049
3517.00,0.0048
3516.00,0.0048
3515.00,0.0048
3514.00,0.0048
3513.00,0.0048
3512.00,0.0048
3511.00,0.0048
3510.00,0.0048
3509.00,0.0048
3508.00,0.0048
3507.00,0.0049
3506.00,0.0049
3505.00,0.0050
3504.00,0.0050
3503.00,0.0050
3502.00,0.0050
3501.00,0.0050
3500.00,0.0050
3499.00,0.0050
3498.00,0.0050
3497.00,0.0050
3496.00,0.0050
3495.00,0.0050
3494.00,0.0050
3493.00,0.0050
3492.00,0.0050
3491.00,0.0050
3490.00,0.0049
3489.00,0.0049
3488.00,0.0050
3487.00,0.0050
3486.00,0.0050
3485.00,0.0051
3484.00,0.0051
3483.00,0.0051
3482.00,0.0051
3481.00,0.0051
3480.00,0.0051
3479.00,0.0051
3478.00,0.0051
3477.00,0.0051
3476.00,0.0051
3475.00,0.0051
3474.00,0.0051
3473.00,0.0051
3472.00,0.0052
3471.00,0.0052
3470.00,0.0052
3469.00,0.0053
3468.00,0.0053
3467.00,0.0053
3466.00,0.0053
3465.00,0.0053
3464.00,0.0053
3463.00,0.0053
3462.00,0.0053
3461.00,0.0053
3460.00,0.0053
3459.00,0.0054
3458.00,0.0055
3457.00,0.0055
3456.00,0.0056
3455.00,0.0055
3454.00,0.0055
3453.00,0.0054
3452.00,0.0053
3451.00,0.0053
3450.00,0.0053
3449.00,0.0053
3448.00,0.0054
3447.00,0.0054
3446.00,0.0054
3445.00,0.0054
3444.00,0.0054
3443.00,0.0054
3442.00,0.0054
3441.00,0.0054
3440.00,0.0055
3439.00,0.0055
3438.00,0.0056
3437.00,0.0056
3436.00,0.0055
3435.00,0.0055
3434.00,0.0055
3433.00,0.0055
3432.00,0.0055
3431.00,0.0055
3430.00,0.0056
3429.00,0.0056
3428.00,0.0056
3427.00,0.0057
3426.00,0.0056
3425.00,0.0056
3424.00,0.0056
3423.00,0.0055
3422.00,0.0056
3421.00,0.0056
3420.00,0.0057
3419.00,0.0057
3418.00,0.0057
3417.00,0.0058
3416.00,0.0058
3415.00,0.0058
3414.00,0.0058
3413.00,0.0058
3412.00,0.0058
3411.00,0.0058
3410.00,0.0058
3409.00,0.0058
3408.00,0.0058
3407.00,0.0059
3406.00,0.0059
3405.00,0.0059
3404.00,0.0059
3403.00,0.0059
3402.00,0.0060
3401.00,0.0060
3400.00,0.0061
3399.00,0.0061
3398.00,0.0060
3397.00,0.0060
3396.00,0.0060
3395.00,0.0060
3394.00,0.0060
3393.00,0.0061
3392.00,0.0061
3391.00,0.0061
3390.00,0.0062
3389.00,0.0062
3388.00,0.0061
3387.00,0.0061
3386.00,0.0061
3385.00,0.0062
3384.00,0.0062
3383.00,0.0062
3382.00,0.0063
3381.00,0.0063
3380.00,0.0063
3379.00,0.0063
3378.00,0.0064
3377.00,0.0064
3376.00,0.0064
3375.00,0.0064
3374.00,0.0064
3373.00,0.0065
3372.00,0.0065
3371.00,0.0065
3370.00,0.0065
3369.00,0.0066
3368.00,0.0066
3367.00,0.0066
3366.00,0.0066
3365.00,0.0067
3364.00,0.0067
3363.00,0.0067
3362.00,0.0068
3361.00,0.0068
3360.00,0.0068
3359.00,0.0068
3358.00,0.0068
3357.00,0.0068
3356.00,0.0068
3355.00,0.0068
3354.00,0.0069
3353.00,0.0069
3352.00,0.0070
3351.00,0.0070
3350.00,0.0071
3349.00,0.0071
3348.00,0.0071
3347.00,0.0072
3346.00,0.0072
3345.00,0.0072
3344.00,0.0072
3343.00,0.0072
3342.00,0.0073
3341.00,0.0073
3340.00,0.0074
3339.00,0.0075
3338.00,0.0075
3337.00,0.0075
3336.00,0.0075
3335.00,0.0075
3334.00,0.0075
3333.00,0.0075
3332.00,0.0075
3331.00,0.0075
3330.00,0.0076
3329.00,0.0076
3328.00,0.0077
3327.00,0.0077
3326.00,0.0078
3325.00,0.0078
3324.00,0.0078
3323.00,0.0079
3322.00,0.0079
3321.00,0.0079
3320.00,0.0079
3319.00,0.0080
3318.00,0.0080
3317.00,0.0080
3316.00,0.0080
3315.00,0.0081
3314.00,0.0081
3313.00,0.0082
3312.00,0.0083
3311.00,0.0083
3310.00,0.0084
3309.00,0.0084
3308.00,0.0084
3307.00,0.0084
3306.00,0.0084
3305.00,0.0085
3304.00,0.0085
3303.00,0.0086
3302.00,0.0086
3301.00,0.0086
3300.00,0.0087
3299.00,0.0087
3298.00,0.0087
3297.00,0.0087
3296.00,0.0088
3295.00,0.0088
3294.00,0.0088
3293.00,0.0088
3292.00,0.0088
3291.00,0.0088
3290.00,0.0088
3289.00,0.0088
3288.00,0.0088
3287.00,0.0087
3286.00,0.0088
3285.00,0.0088
3284.00,0.0088
3283.00,0.0088
3282.00,0.0088
3281.00,0.0087
3280.00,0.0087
3279.00,0.0086
3278.00,0.0086
3277.00,0.0087
3276.00,0.0087
3275.00,0.0087
3274.00,0.0087
3273.00,0.0086
3272.00,0.0086
3271.00,0.0086
3270.00,0.0086
3269.00,0.0085
3268.00,0.0085
3267.00,0.0084
3266.00,0.0083
3265.00,0.0082
3264.00,0.0082
3263.00,0.0081
3262.00,0.0080
3261.00,0.0080
3260.00,0.0080
3259.00,0.0080
3258.00,0.0079
3257.00,0.0079
3256.00,0.0079
3255.00,0.0079
3254.00,0.0078
3253.00,0.0078
3252.00,0.0077
3251.00,0.0077
3250.00,0.0077
3249.00,0.0076
3248.00,0.0076
3247.00,0.0076
3246.00,0.0076
3245.00,0.0076
3244.00,0.0075
3243.00,0.0075
3242.00,0.0074
3241.00,0.0074
3240.00,0.0073
3239.00,0.0073
3238.00,0.0072
3237.00,0.0072
3236.00,0.0072
3235.00,0.0072
3234.00,0.0072
3233.00,0.0072
3232.00,0.0072
3231.00,0.0071
3230.00,0.0071
3229.00,0.0070
3228.00,0.0070
3227.00,0.0070
3226.00,0.0070
3225.00,0.0070
3224.00,0.0069
3223.00,0.0069
3222.00,0.0068
3221.00,0.0068
3220.00,0.0068
3219.00,0.0068
3218.00,0.0068
3217.00,0.0068
3216.00,0.0068
3215.00,0.0068
3214.00,0.0068
3213.00,0.0068
3212.00,0.0067
3211.00,0.0067
3210.00,0.0067
3209.00,0.0066
3208.00,0.0066
3207.00,0.0066
3206.00,0.0066
3205.00,0.0066
3204.00,0.0066
3203.00,0.0066
3202.00,0.0065
3201.00,0.0065
3200.00,0.0065
3199.00,0.0064
3198.00,0.0064
3197.00,0.0064
3196.00,0.0064
3195.00,0.0063
3194.00,0.0063
3193.00,0.0063
3192.00,0.0062
3191.00,0.0062
3190.00,0.0061
3189.00,0.0061
3188.00,0.0061
3187.00,0.0061
3186.00,0.0061
3185.00,0.0060
3184.00,0.0060
3183.00,0.0060
3182.00,0.0060
3181.00,0.0060
3180.00,0.0060
3179.00,0.0059
3178.00,0.0059
3177.00,0.0059
3176.00,0.0060
3175.00,0.0060
3174.00,0.0060
3173.00,0.0059
3172.00,0.0058
3171.00,0.0057
3170.00,0.0057
3169.00,0.0057
3168.00,0.0057
3167.00,0.0057
3166.00,0.0057
3165.00,0.0057
3164.00,0.0056
3163.00,0.0056
3162.00,0.0056
3161.00,0.0056
3160.00,0.0056
3159.00,0.0056
3158.00,0.0056
3157.00,0.0056
3156.00,0.0055
3155.00,0.0055
3154.00,0.0055
3153.00,0.0055
3152.00,0.0055
3151.00,0.0055
3150.00,0.0055
3149.00,0.0054
3148.00,0.0054
3147.00,0.0054
3146.00,0.0054
3145.00,0.0054
3144.00,0.0054
3143.00,0.0054
3142.00,0.0054
3141.00,0.0054
3140.00,0.0054
3139.00,0.0054
3138.00,0.0053
3137.00,0.0053
3136.00,0.0053
3135.00,0.0052
3134.00,0.0052
3133.00,0.0052
3132.00,0.0053
3131.00,0.0053
3130.00,0.0053
3129.00,0.0053
3128.00,0.0053
3127.00,0.0053
3126.00,0.0052
3125.00,0.0052
3124.00,0.0052
3123.00,0.0052
3122.00,0.0053
3121.00,0.0053
3120.00,0.0053
3119.00,0.0054
3118.00,0.0054
3117.00,0.0055
3116.00,0.0055
3115.00,0.0055
3114.00,0.0055
3113.00,0.0056
3112.00,0.0056
3111.00,0.0058
3110.00,0.0059
3109.00,0.0061
3108.00,0.0062
3107.00,0.0063
3106.00,0.0063
3105.00,0.0064
3104.00,0.0065
3103.00,0.0066
3102.00,0.0066
3101.00,0.0066
3100.00,0.0066
3099.00,0.0065
3098.00,0.0065
3097.00,0.0064
3096.00,0.0064
3095.00,0.0064
3094.00,0.0065
3093.00,0.0067
3092.00,0.0069
3091.00,0.0071
3090.00,0.0074
3089.00,0.0078
3088.00,0.0081
3087.00,0.0085
3086.00,0.0089
3085.00,0.0093
3084.00,0.0095
3083.00,0.0097
3082.00,0.0097
3081.00,0.0096
3080.00,0.0094
3079.00,0.0092
3078.00,0.0089
3077.00,0.0087
3076.00,0.0085
3075.00,0.0084
3074.00,0.0083
3073.00,0.0083
3072.00,0.0083
3071.00,0.0084
3070.00,0.0086
3069.00,0.0088
3068.00,0.0091
3067.00,0.0095
3066.00,0.0099
3065.00,0.0103
3064.00,0.0107
3063.00,0.0111
3062.00,0.0114
3061.00,0.0116
3060.00,0.0117
3059.00,0.0116
3058.00,0.0114
3057.00,0.0112
3056.00,0.0108
3055.00,0.0104
3054.00,0.0099
3053.00,0.0096
3052.00,0.0092
3051.00,0.0090
3050.00,0.0087
3049.00,0.0085
3048.00,0.0083
3047.00,0.0082
3046.00,0.0081
3045.00,0.0080
3044.00,0.0080
3043.00,0.0081
3042.00,0.0082
3041.00,0.0084
3040.00,0.0086
3039.00,0.0089
3038.00,0.0092
3037.00,0.0095
3036.00,0.0100
3035.00,0.0106
3034.00,0.0112
3033.00,0.0120
3032.00,0.0129
3031.00,0.0139
3030.00,0.0150
3029.00,0.0160
3028.00,0.0169
3027.00,0.0176
3026.00,0.0180
3025.00,0.0181
3024.00,0.0178
3023.00,0.0171
3022.00,0.0161
3021.00,0.0150
3020.00,0.0137
3019.00,0.0125
3018.00,0.0115
3017.00,0.0105
3016.00,0.0097
3015.00,0.0091
3014.00,0.0085
3013.00,0.0081
3012.00,0.0078
3011.00,0.0076
3010.00,0.0074
3009.00,0.0073
3008.00,0.0073
3007.00,0.0073
3006.00,0.0074
3005.00,0.0075
3004.00,0.0076
3003.00,0.0076
3002.00,0.0077
3001.00,0.0076
3000.00,0.0075
2999.00,0.0074
2998.00,0.0071
2997.00,0.0069
2996.00,0.0067
2995.00,0.0065
2994.00,0.0063
2993.00,0.0061
2992.00,0.0060
2991.00,0.0059
2990.00,0.0058
2989.00,0.0057
2988.00,0.0056
2987.00,0.0056
2986.00,0.0055
2985.00,0.0056
2984.00,0.0056
2983.00,0.0056
2982.00,0.0057
2981.00,0.0057
2980.00,0.0057
2979.00,0.0058
2978.00,0.0058
2977.00,0.0058
2976.00,0.0058
2975.00,0.0058
2974.00,0.0058
2973.00,0.0058
2972.00,0.0058
2971.00,0.0059
2970.00,0.0059
2969.00,0.0059
2968.00,0.0059
2967.00,0.0060
2966.00,0.0060
2965.00,0.0061
2964.00,0.0062
2963.00,0.0063
2962.00,0.0063
2961.00,0.0064
2960.00,0.0065
2959.00,0.0066
2958.00,0.0067
2957.00,0.0068
2956.00,0.0070
2955.00,0.0071
2954.00,0.0073
2953.00,0.0075
2952.00,0.0078
2951.00,0.0080
2950.00,0.0082
2949.00,0.0085
2948.00,0.0088
2947.00,0.0091
2946.00,0.0095
2945.00,0.0098
2944.00,0.0102
2943.00,0.0105
2942.00,0.0109
2941.00,0.0114
2940.00,0.0118
2939.00,0.0123
2938.00,0.0128
2937.00,0.0134
2936.00,0.0140
2935.00,0.0145
2934.00,0.0151
2933.00,0.0157
2932.00,0.0162
2931.00,0.0168
2930.00,0.0173
2929.00,0.0177
2928.00,0.0182
2927.00,0.0187
2926.00,0.0191
2925.00,0.0195
2924.00,0.0198
2923.00,0.0200
2922.00,0.0202
2921.00,0.0204
2920.00,0.0205
2919.00,0.0205
2918.00,0.0204
2917.00,0.0202
2916.00,0.0199
2915.00,0.0196
2914.00,0.0193
2913.00,0.0188
2912.00,0.0184
2911.00,0.0179
2910.00,0.0174
2909.00,0.0169
2908.00,0.0164
2907.00,0.0159
2906.00,0.0155
2905.00,0.0151
2904.00,0.0146
2903.00,0.0142
2902.00,0.0137
2901.00,0.0133
2900.00,0.0129
2899.00,0.0125
2898.00,0.0121
2897.00,0.0118
2896.00,0.0114
2895.00,0.0111
2894.00,0.0108
2893.00,0.0105
2892.00,0.0103
2891.00,0.0101
2890.00,0.0099
2889.00,0.0097
2888.00,0.0096
2887.00,0.0094
2886.00,0.0093
2885.00,0.0091
2884.00,0.0090
2883.00,0.0089
2882.00,0.0087
2881.00,0.0086
2880.00,0.0085
2879.00,0.0084
2878.00,0.0083
2877.00,0.0082
2876.00,0.0081
2875.00,0.0080
2874.00,0.0079
2873.00,0.0078
2872.00,0.0077
2871.00,0.0076
2870.00,0.0076
2869.00,0.0075
2868.00,0.0075
2867.00,0.0075
2866.00,0.0075
2865.00,0.0076
2864.00,0.0076
2863.00,0.0077
2862.00,0.0079
2861.00,0.0080
2860.00,0.0082
2859.00,0.0085
2858.00,0.0088
2857.00,0.0091
2856.00,0.0094
2855.00,0.0097
2854.00,0.0100
2853.00,0.0102
2852.00,0.0105
2851.00,0.0107
2850.00,0.0109
2849.00,0.0110
2848.00,0.0109
2847.00,0.0107
2846.00,0.0105
2845.00,0.0102
2844.00,0.0099
2843.00,0.0095
2842.00,0.0091
2841.00,0.0086
2840.00,0.0082
2839.00,0.0077
2838.00,0.0073
2837.00,0.0069
2836.00,0.0066
2835.00,0.0063
2834.00,0.0061
2833.00,0.0059
2832.00,0.0057
2831.00,0.0056
2830.00,0.0054
2829.00,0.0053
2828.00,0.0053
2827.00,0.0052
2826.00,0.0051
2825.00,0.0051
2824.00,0.0050
2823.00,0.0050
2822.00,0.0050
2821.00,0.0050
2820.00,0.0050
2819.00,0.0050
2818.00,0.0050
2817.00,0.0049
2816.00,0.0049
2815.00,0.0048
2814.00,0.0048
2813.00,0.0048
2812.00,0.0048
2811.00,0.0048
2810.00,0.0048
2809.00,0.0048
2808.00,0.0048
2807.00,0.0047
2806.00,0.0047
2805.00,0.0047
2804.00,0.0046
2803.00,0.0046
2802.00,0.0046
2801.00,0.0046
2800.00,0.0046
2799.00,0.0046
2798.00,0.0046
2797.00,0.0046
2796.00,0.0046
2795.00,0.0045
2794.00,0.0045
2793.00,0.0045
2792.00,0.0045
2791.00,0.0045
2790.00,0.0044
2789.00,0.0044
2788.00,0.0044
2787.00,0.0045
2786.00,0.0045
2785.00,0.0044
2784.00,0.0044
2783.00,0.0044
2782.00,0.0044
2781.00,0.0043
2780.00,0.0043
2779.00,0.0043
2778.00,0.0043
2777.00,0.0043
2776.00,0.0043
2775.00,0.0043
2774.00,0.0043
2773.00,0.0043
2772.00,0.0043
2771.00,0.0043
2770.00,0.0043
2769.00,0.0042
2768.00,0.0042
2767.00,0.0042
2766.00,0.0041
2765.00,0.0041
2764.00,0.0041
2763.00,0.0040
2762.00,0.0041
2761.00,0.0041
2760.00,0.0041
2759.00,0.0041
2758.00,0.0041
2757.00,0.0042
2756.00,0.0042
2755.00,0.0042
2754.00,0.0042
2753.00,0.0042
2752.00,0.0042
2751.00,0.0041
2750.00,0.0041
2749.00,0.0041
2748.00,0.0041
2747.00,0.0041
2746.00,0.0040
2745.00,0.0040
2744.00,0.0041
2743.00,0.0041
2742.00,0.0041
2741.00,0.0041
2740.00,0.0041
2739.00,0.0041
2738.00,0.0041
2737.00,0.0041
2736.00,0.0041
2735.00,0.0040
2734.00,0.0040
2733.00,0.0039
2732.00,0.0039
2731.00,0.0039
2730.00,0.0039
2729.00,0.0039
2728.00,0.0039
2727.00,0.0040
2726.00,0.0040
2725.00,0.0040
2724.00,0.0040
2723.00,0.0040
2722.00,0.0040
2721.00,0.0040
2720.00,0.0039
2719.00,0.0039
2718.00,0.0039
2717.00,0.0039
2716.00,0.0039
2715.00,0.0039
2714.00,0.0039
2713.00,0.0039
2712.00,0.0039
2711.00,0.0039
2710.00,0.0039
2709.00,0.0039
2708.00,0.0039
2707.00,0.0040
2706.00,0.0040
2705.00,0.0040
2704.00,0.0039
2703.00,0.0039
2702.00,0.0039
2701.00,0.0039
2700.00,0.0039
2699.00,0.0039
2698.00,0.0039
2697.00,0.0039
2696.00,0.0039
2695.00,0.0039
2694.00,0.0039
2693.00,0.0039
2692.00,0.0039
2691.00,0.0039
2690.00,0.0039
2689.00,0.0039
2688.00,0.0039
2687.00,0.0039
2686.00,0.0039
2685.00,0.0038
2684.00,0.0038
2683.00,0.0038
2682.00,0.0039
2681.00,0.0039
2680.00,0.0039
2679.00,0.0039
2678.00,0.0039
2677.00,0.0039
2676.00,0.0039
2675.00,0.0038
2674.00,0.0038
2673.00,0.0038
2672.00,0.0037
2671.00,0.0037
2670.00,0.0037
2669.00,0.0038
2668.00,0.0038
2667.00,0.0038
2666.00,0.0039
2665.00,0.0039
2664.00,0.0040
2663.00,0.0040
2662.00,0.0040
2661.00,0.0041
2660.00,0.0041
2659.00,0.0041
2658.00,0.0041
2657.00,0.0041
2656.00,0.0041
2655.00,0.0041
2654.00,0.0041
2653.00,0.0041
2652.00,0.0040
2651.00,0.0040
2650.00,0.0040
2649.00,0.0040
2648.00,0.0041
2647.00,0.0041
2646.00,0.0041
2645.00,0.0041
2644.00,0.0041
2643.00,0.0040
2642.00,0.0040
2641.00,0.0039
2640.00,0.0039
2639.00,0.0039
2638.00,0.0039
2637.00,0.0040
2636.00,0.0040
2635.00,0.0040
2634.00,0.0040
2633.00,0.0041
2632.00,0.0041
2631.00,0.0041
2630.00,0.0041
2629.00,0.0041
2628.00,0.0040
2627.00,0.0040
2626.00,0.0040
2625.00,0.0040
2624.00,0.0039
2623.00,0.0039
2622.00,0.0039
2621.00,0.0039
2620.00,0.0039
2619.00,0.0039
2618.00,0.0039
2617.00,0.0039
2616.00,0.0038
2615.00,0.0038
2614.00,0.0038
2613.00,0.0038
2612.00,0.0038
2611.00,0.0038
2610.00,0.0038
2609.00,0.0038
2608.00,0.0038
2607.00,0.0038
2606.00,0.0038
2605.00,0.0038
2604.00,0.0038
2603.00,0.0037
2602.00,0.0037
2601.00,0.0037
2600.00,0.0037
2599.00,0.0037
2598.00,0.0037
2597.00,0.0037
2596.00,0.0037
2595.00,0.0037
2594.00,0.0036
2593.00,0.0036
2592.00,0.0036
2591.00,0.0036
2590.00,0.0036
2589.00,0.0036
2588.00,0.0036
2587.00,0.0036
2586.00,0.0036
2585.00,0.0036
2584.00,0.0035
2583.00,0.0035
2582.00,0.0035
2581.00,0.0036
2580.00,0.0036
2579.00,0.0035
2578.00,0.0034
2577.00,0.0033
2576.00,0.0033
2575.00,0.0033
2574.00,0.0034
2573.00,0.0035
2572.00,0.0035
2571.00,0.0035
2570.00,0.0035
2569.00,0.0034
2568.00,0.0034
2567.00,0.0034
2566.00,0.0034
2565.00,0.0034
2564.00,0.0034
2563.00,0.0034
2562.00,0.0035
2561.00,0.0035
2560.00,0.0035
2559.00,0.0035
2558.00,0.0034
2557.00,0.0034
2556.00,0.0033
2555.00,0.0032
2554.00,0.0032
2553.00,0.0033
2552.00,0.0034
2551.00,0.0034
2550.00,0.0034
2549.00,0.0034
2548.00,0.0033
2547.00,0.0033
2546.00,0.0032
2545.00,0.0032
2544.00,0.0032
2543.00,0.0032
2542.00,0.0033
2541.00,0.0033
2540.00,0.0034
2539.00,0.0034
2538.00,0.0034
2537.00,0.0033
2536.00,0.0033
2535.00,0.0033
2534.00,0.0033
2533.00,0.0032
2532.00,0.0032
2531.00,0.0032
2530.00,0.0033
2529.00,0.0033
2528.00,0.0033
2527.00,0.0034
2526.00,0.0034
2525.00,0.0034
2524.00,0.0034
2523.00,0.0034
2522.00,0.0033
2521.00,0.0033
2520.00,0.0032
2519.00,0.0032
2518.00,0.0032
2517.00,0.0033
2516.00,0.0033
2515.00,0.0033
2514.00,0.0033
2513.00,0.0032
2512.00,0.0032
2511.00,0.0032
2510.00,0.0032
2509.00,0.0032
2508.00,0.0032
2507.00,0.0032
2506.00,0.0032
2505.00,0.0033
2504.00,0.0033
2503.00,0.0033
2502.00,0.0032
2501.00,0.0032
2500.00,0.0032
2499.00,0.0031
2498.00,0.0031
2497.00,0.0031
2496.00,0.0031
2495.00,0.0032
2494.00,0.0032
2493.00,0.0033
2492.00,0.0033
2491.00,0.0034
2490.00,0.0033
2489.00,0.0033
2488.00,0.0032
2487.00,0.0032
2486.00,0.0032
2485.00,0.0032
2484.00,0.0032
2483.00,0.0032
2482.00,0.0032
2481.00,0.0032
2480.00,0.0031
2479.00,0.0031
2478.00,0.0031
2477.00,0.0031
2476.00,0.0032
2475.00,0.0031
2474.00,0.0031
2473.00,0.0031
2472.00,0.0030
2471.00,0.0030
2470.00,0.0030
2469.00,0.0031
2468.00,0.0031
2467.00,0.0032
2466.00,0.0032
2465.00,0.0032
2464.00,0.0032
2463.00,0.0032
2462.00,0.0031
2461.00,0.0031
2460.00,0.0031
2459.00,0.0031
2458.00,0.0031
2457.00,0.0031
2456.00,0.0031
2455.00,0.0032
2454.00,0.0032
2453.00,0.0031
2452.00,0.0031
2451.00,0.0030
2450.00,0.0029
2449.00,0.0030
2448.00,0.0030
2447.00,0.0031
2446.00,0.0031
2445.00,0.0031
2444.00,0.0031
2443.00,0.0030
2442.00,0.0030
2441.00,0.0030
2440.00,0.0030
2439.00,0.0030
2438.00,0.0031
2437.00,0.0031
2436.00,0.0031
2435.00,0.0031
2434.00,0.0030
2433.00,0.0029
2432.00,0.0029
2431.00,0.0028
2430.00,0.0028
2429.00,0.0028
2428.00,0.0028
2427.00,0.0028
2426.00,0.0028
2425.00,0.0029
2424.00,0.0029
2423.00,0.0029
2422.00,0.0029
2421.00,0.0029
2420.00,0.0028
2419.00,0.0028
2418.00,0.0028
2417.00,0.0028
2416.00,0.0028
2415.00,0.0028
2414.00,0.0028
2413.00,0.0028
2412.00,0.0028
2411.00,0.0028
2410.00,0.0029
2409.00,0.0028
2408.00,0.0028
2407.00,0.0028
2406.00,0.0028
2405.00,0.0028
2404.00,0.0028
2403.00,0.0028
2402.00,0.0028
2401.00,0.0028
2400.00,0.0028
2399.00,0.0028
2398.00,0.0028
2397.00,0.0028
2396.00,0.0027
2395.00,0.0027
2394.00,0.0027
2393.00,0.0027
2392.00,0.0027
2391.00,0.0027
2390.00,0.0027
2389.00,0.0027
2388.00,0.0027
2387.00,0.0027
2386.00,0.0027
2385.00,0.0027
2384.00,0.0027
2383.00,0.0027
2382.00,0.0027
2381.00,0.0027
2380.00,0.0026
2379.00,0.0026
2378.00,0.0026
2377.00,0.0026
2376.00,0.0026
2375.00,0.0027
2374.00,0.0026
2373.00,0.0026
2372.00,0.0026
2371.00,0.0025
2370.00,0.0025
2369.00,0.0025
2368.00,0.0025
2367.00,0.0026
2366.00,0.0026
2365.00,0.0026
2364.00,0.0027
2363.00,0.0028
2362.00,0.0028
2361.00,0.0028
2360.00,0.0028
2359.00,0.0027
2358.00,0.0027
2357.00,0.0027
2356.00,0.0027
2355.00,0.0027
2354.00,0.0027
2353.00,0.0028
2352.00,0.0028
2351.00,0.0029
2350.00,0.0029
2349.00,0.0029
2348.00,0.0029
2347.00,0.0029
2346.00,0.0029
2345.00,0.0030
2344.00,0.0031
2343.00,0.0031
2342.00,0.0032
2341.00,0.0032
2340.00,0.0032
2339.00,0.0032
2338.00,0.0031
2337.00,0.0031
2336.00,0.0030
2335.00,0.0030
2334.00,0.0029
2333.00,0.0029
2332.00,0.0029
2331.00,0.0030
2330.00,0.0031
2329.00,0.0032
2328.00,0.0034
2327.00,0.0035
2326.00,0.0036
2325.00,0.0036
2324.00,0.0036
2323.00,0.0036
2322.00,0.0037
2321.00,0.0036
2320.00,0.0035
2319.00,0.0034
2318.00,0.0033
2317.00,0.0033
2316.00,0.0033
2315.00,0.0033
2314.00,0.0033
2313.00,0.0033
2312.00,0.0033
2311.00,0.0033
2310.00,0.0033
2309.00,0.0033
2308.00,0.0033
2307.00,0.0032
2306.00,0.0032
2305.00,0.0032
2304.00,0.0031
2303.00,0.0031
2302.00,0.0031
2301.00,0.0031
2300.00,0.0032
2299.00,0.0032
2298.00,0.0032
2297.00,0.0032
2296.00,0.0032
2295.00,0.0034
2294.00,0.0034
2293.00,0.0035
2292.00,0.0034
2291.00,0.0033
2290.00,0.0033
2289.00,0.0033
2288.00,0.0033
2287.00,0.0033
2286.00,0.0033
2285.00,0.0033
2284.00,0.0033
2283.00,0.0033
2282.00,0.0032
2281.00,0.0032
2280.00,0.0032
2279.00,0.0031
2278.00,0.0031
2277.00,0.0030
2276.00,0.0030
2275.00,0.0029
2274.00,0.0028
2273.00,0.0028
2272.00,0.0028
2271.00,0.0029
2270.00,0.0030
2269.00,0.0031
2268.00,0.0031
2267.00,0.0031
2266.00,0.0031
2265.00,0.0031
2264.00,0.0031
2263.00,0.0032
2262.00,0.0032
2261.00,0.0032
2260.00,0.0031
2259.00,0.0029
2258.00,0.0028
2257.00,0.0028
2256.00,0.0028
2255.00,0.0028
2254.00,0.0028
2253.00,0.0028
2252.00,0.0028
2251.00,0.0028
2250.00,0.0028
2249.00,0.0028
2248.00,0.0028
2247.00,0.0027
2246.00,0.0027
2245.00,0.0027
2244.00,0.0027
2243.00,0.0027
2242.00,0.0027
2241.00,0.0028
2240.00,0.0028
2239.00,0.0028
2238.00,0.0029
2237.00,0.0029
2236.00,0.0029
2235.00,0.0029
2234.00,0.0028
2233.00,0.0028
2232.00,0.0028
2231.00,0.0028
2230.00,0.0028
2229.00,0.0028
2228.00,0.0027
2227.00,0.0027
2226.00,0.0026
2225.00,0.0026
2224.00,0.0027
2223.00,0.0027
2222.00,0.0027
2221.00,0.0026
2220.00,0.0027
2219.00,0.0028
2218.00,0.0029
2217.00,0.0029
2216.00,0.0029
2215.00,0.0028
2214.00,0.0028
2213.00,0.0027
2212.00,0.0027
2211.00,0.0027
2210.00,0.0028
2209.00,0.0028
2208.00,0.0028
2207.00,0.0029
2206.00,0.0029
2205.00,0.0029
2204.00,0.0028
2203.00,0.0029
2202.00,0.0030
2201.00,0.0031
2200.00,0.0031
2199.00,0.0030
2198.00,0.0028
2197.00,0.0026
2196.00,0.0025
2195.00,0.0025
2194.00,0.0027
2193.00,0.0028
2192.00,0.0029
2191.00,0.0029
2190.00,0.0030
2189.00,0.0030
2188.00,0.0030
2187.00,0.0031
2186.00,0.0032
2185.00,0.0031
2184.00,0.0029
2183.00,0.0026
2182.00,0.0023
2181.00,0.0021
2180.00,0.0020
2179.00,0.0020
2178.00,0.0022
2177.00,0.0022
2176.00,0.0023
2175.00,0.0025
2174.00,0.0026
2173.00,0.0028
2172.00,0.0028
2171.00,0.0029
2170.00,0.0030
2169.00,0.0031
2168.00,0.0030
2167.00,0.0029
2166.00,0.0027
2165.00,0.0026
2164.00,0.0027
2163.00,0.0028
2162.00,0.0027
2161.00,0.0019
2160.00,0.0009
2159.00,0.0000
2158.00,-0.0003
2157.00,-0.0001
2156.00,0.0003
2155.00,0.0007
2154.00,0.0009
2153.00,0.0011
2152.00,0.0013
2151.00,0.0014
2150.00,0.0016
2149.00,0.0016
2148.00,0.0015
2147.00,0.0014
2146.00,0.0014
2145.00,0.0014
2144.00,0.0014
2143.00,0.0014
2142.00,0.0015
2141.00,0.0016
2140.00,0.0016
2139.00,0.0015
2138.00,0.0014
2137.00,0.0012
2136.00,0.0010
2135.00,0.0009
2134.00,0.0009
2133.00,0.0010
2132.00,0.0012
2131.00,0.0014
2130.00,0.0016
2129.00,0.0016
2128.00,0.0016
2127.00,0.0016
2126.00,0.0016
2125.00,0.0017
2124.00,0.0018
2123.00,0.0018
2122.00,0.0019
2121.00,0.0020
2120.00,0.0021
2119.00,0.0022
2118.00,0.0023
2117.00,0.0024
2116.00,0.0024
2115.00,0.0024
2114.00,0.0024
2113.00,0.0023
2112.00,0.0022
2111.00,0.0022
2110.00,0.0022
2109.00,0.0023
2108.00,0.0024
2107.00,0.0026
2106.00,0.0027
2105.00,0.0027
2104.00,0.0025
2103.00,0.0023
2102.00,0.0021
2101.00,0.0020
2100.00,0.0020
2099.00,0.0020
2098.00,0.0020
2097.00,0.0019
2096.00,0.0019
2095.00,0.0019
2094.00,0.0019
2093.00,0.0020
2092.00,0.0020
2091.00,0.0021
2090.00,0.0022
2089.00,0.0022
2088.00,0.0023
2087.00,0.0023
2086.00,0.0024
2085.00,0.0024
2084.00,0.0024
2083.00,0.0023
2082.00,0.0024
2081.00,0.0024
2080.00,0.0024
2079.00,0.0025
2078.00,0.0027
2077.00,0.0028
2076.00,0.0029
2075.00,0.0030
2074.00,0.0031
2073.00,0.0030
2072.00,0.0029
2071.00,0.0028
2070.00,0.0027
2069.00,0.0026
2068.00,0.0024
2067.00,0.0023
2066.00,0.0021
2065.00,0.0021
2064.00,0.0020
2063.00,0.0020
2062.00,0.0021
2061.00,0.0021
2060.00,0.0021
2059.00,0.0021
2058.00,0.0023
2057.00,0.0023
2056.00,0.0024
2055.00,0.0024
2054.00,0.0026
2053.00,0.0028
2052.00,0.0029
2051.00,0.0028
2050.00,0.0026
2049.00,0.0023
2048.00,0.0021
2047.00,0.0021
2046.00,0.0021
2045.00,0.0021
2044.00,0.0021
2043.00,0.0022
2042.00,0.0024
2041.00,0.0025
2040.00,0.0024
2039.00,0.0021
2038.00,0.0020
2037.00,0.0019
2036.00,0.0018
2035.00,0.0018
2034.00,0.0018
2033.00,0.0017
2032.00,0.0017
2031.00,0.0016
2030.00,0.0016
2029.00,0.0017
2028.00,0.0018
2027.00,0.0018
2026.00,0.0017
2025.00,0.0016
2024.00,0.0016
2023.00,0.0017
2022.00,0.0018
2021.00,0.0018
2020.00,0.0016
2019.00,0.0013
2018.00,0.0013
2017.00,0.0014
2016.00,0.0016
2015.00,0.0014
2014.00,0.0009
2013.00,0.0001
2012.00,-0.0006
2011.00,-0.0008
2010.00,-0.0005
2009.00,0.0002
2008.00,0.0008
2007.00,0.0012
2006.00,0.0015
2005.00,0.0017
2004.00,0.0019
2003.00,0.0021
2002.00,0.0022
2001.00,0.0023
2000.00,0.0022
1999.00,0.0020
1998.00,0.0019
1997.00,0.0019
1996.00,0.0018
1995.00,0.0019
1994.00,0.0021
1993.00,0.0023
1992.00,0.0024
1991.00,0.0023
1990.00,0.0023
1989.00,0.0023
1988.00,0.0023
1987.00,0.0025
1986.00,0.0028
1985.00,0.0029
1984.00,0.0031
1983.00,0.0032
1982.00,0.0036
1981.00,0.0039
1980.00,0.0039
1979.00,0.0034
1978.00,0.0026
1977.00,0.0018
1976.00,0.0013
1975.00,0.0011
1974.00,0.0013
1973.00,0.0015
1972.00,0.0018
1971.00,0.0020
1970.00,0.0022
1969.00,0.0025
1968.00,0.0026
1967.00,0.0026
1966.00,0.0027
1965.00,0.0027
1964.00,0.0027
1963.00,0.0027
1962.00,0.0026
1961.00,0.0025
1960.00,0.0024
1959.00,0.0024
1958.00,0.0025
1957.00,0.0026
1956.00,0.0027
1955.00,0.0028
1954.00,0.0028
1953.00,0.0029
1952.00,0.0030
1951.00,0.0031
1950.00,0.0033
1949.00,0.0035
1948.00,0.0036
1947.00,0.0035
1946.00,0.0035
1945.00,0.0035
1944.00,0.0035
1943.00,0.0036
1942.00,0.0037
1941.00,0.0037
1940.00,0.0037
1939.00,0.0036
1938.00,0.0035
1937.00,0.0033
1936.00,0.0032
1935.00,0.0031
1934.00,0.0030
1933.00,0.0028
1932.00,0.0027
1931.00,0.0027
1930.00,0.0027
1929.00,0.0027
1928.00,0.0026
1927.00,0.0025
1926.00,0.0024
1925.00,0.0023
1924.00,0.0021
1923.00,0.0020
1922.00,0.0021
1921.00,0.0022
1920.00,0.0023
1919.00,0.0024
1918.00,0.0024
1917.00,0.0024
1916.00,0.0023
1915.00,0.0022
1914.00,0.0022
1913.00,0.0022
1912.00,0.0022
1911.00,0.0022
1910.00,0.0021
1909.00,0.0021
1908.00,0.0020
1907.00,0.0021
1906.00,0.0021
1905.00,0.0021
1904.00,0.0021
1903.00,0.0021
1902.00,0.0021
1901.00,0.0022
1900.00,0.0022
1899.00,0.0023
1898.00,0.0024
1897.00,0.0025
1896.00,0.0025
1895.00,0.0026
1894.00,0.0027
1893.00,0.0028
1892.00,0.0028
1891.00,0.0029
1890.00,0.0029
1889.00,0.0030
1888.00,0.0031
1887.00,0.0032
1886.00,0.0033
1885.00,0.0033
1884.00,0.0032
1883.00,0.0032
1882.00,0.0032
1881.00,0.0033
1880.00,0.0033
1879.00,0.0033
1878.00,0.0034
1877.00,0.0034
1876.00,0.0034
1875.00,0.0035
1874.00,0.0036
1873.00,0.0036
1872.00,0.0036
1871.00,0.0037
1870.00,0.0037
1869.00,0.0037
1868.00,0.0036
1867.00,0.0036
1866.00,0.0036
1865.00,0.0035
1864.00,0.0033
1863.00,0.0032
1862.00,0.0031
1861.00,0.0030
1860.00,0.0029
1859.00,0.0028
1858.00,0.0028
1857.00,0.0027
1856.00,0.0027
1855.00,0.0027
1854.00,0.0027
1853.00,0.0027
1852.00,0.0026
1851.00,0.0025
1850.00,0.0024
1849.00,0.0024
1848.00,0.0023
1847.00,0.0024
1846.00,0.0024
1845.00,0.0025
1844.00,0.0024
1843.00,0.0023
1842.00,0.0023
1841.00,0.0023
1840.00,0.0023
1839.00,0.0022
1838.00,0.0022
1837.00,0.0022
1836.00,0.0022
1835.00,0.0023
1834.00,0.0023
1833.00,0.0023
1832.00,0.0023
1831.00,0.0023
1830.00,0.0023
1829.00,0.0023
1828.00,0.0025
1827.00,0.0026
1826.00,0.0027
1825.00,0.0027
1824.00,0.0027
1823.00,0.0027
1822.00,0.0028
1821.00,0.0028
1820.00,0.0028
1819.00,0.0027
1818.00,0.0028
1817.00,0.0029
1816.00,0.0029
1815.00,0.0030
1814.00,0.0031
1813.00,0.0032
1812.00,0.0033
1811.00,0.0033
1810.00,0.0035
1809.00,0.0036
1808.00,0.0036
1807.00,0.0037
1806.00,0.0038
1805.00,0.0038
1804.00,0.0038
1803.00,0.0038
1802.00,0.0039
1801.00,0.0040
1800.00,0.0040
1799.00,0.0039
1798.00,0.0039
1797.00,0.0038
1796.00,0.0037
1795.00,0.0036
1794.00,0.0036
1793.00,0.0035
1792.00,0.0034
1791.00,0.0033
1790.00,0.0032
1789.00,0.0031
1788.00,0.0029
1787.00,0.0028
1786.00,0.0028
1785.00,0.0028
1784.00,0.0027
1783.00,0.0027
1782.00,0.0027
1781.00,0.0027
1780.00,0.0027
1779.00,0.0027
1778.00,0.0027
1777.00,0.0027
1776.00,0.0027
1775.00,0.0026
1774.00,0.0026
1773.00,0.0026
1772.00,0.0026
1771.00,0.0026
1770.00,0.0026
1769.00,0.0027
1768.00,0.0027
1767.00,0.0026
1766.00,0.0025
1765.00,0.0025
1764.00,0.0024
1763.00,0.0023
1762.00,0.0022
1761.00,0.0022
1760.00,0.0022
1759.00,0.0023
1758.00,0.0024
1757.00,0.0025
1756.00,0.0025
1755.00,0.0026
1754.00,0.0027
1753.00,0.0029
1752.00,0.0030
1751.00,0.0030
1750.00,0.0029
1749.00,0.0028
1748.00,0.0028
1747.00,0.0027
1746.00,0.0026
1745.00,0.0025
1744.00,0.0025
1743.00,0.0024
1742.00,0.0023
1741.00,0.0023
1740.00,0.0023
1739.00,0.0022
1738.00,0.0022
1737.00,0.0023
1736.00,0.0025
1735.00,0.0026
1734.00,0.0026
1733.00,0.0026
1732.00,0.0026
1731.00,0.0026
1730.00,0.0025
1729.00,0.0024
1728.00,0.0023
1727.00,0.0023
1726.00,0.0022
1725.00,0.0023
1724.00,0.0023
1723.00,0.0024
1722.00,0.0024
1721.00,0.0025
1720.00,0.0026
1719.00,0.0027
1718.00,0.0028
1717.00,0.0028
1716.00,0.0028
1715.00,0.0028
1714.00,0.0029
1713.00,0.0029
1712.00,0.0029
1711.00,0.0030
1710.00,0.0031
1709.00,0.0033
1708.00,0.0035
1707.00,0.0036
1706.00,0.0038
1705.00,0.0040
1704.00,0.0041
1703.00,0.0044
1702.00,0.0050
1701.00,0.0055
1700.00,0.0058
1699.00,0.0059
1698.00,0.0063
1697.00,0.0066
1696.00,0.0066
1695.00,0.0066
1694.00,0.0067
1693.00,0.0069
1692.00,0.0071
1691.00,0.0073
1690.00,0.0075
1689.00,0.0077
1688.00,0.0078
1687.00,0.0080
1686.00,0.0083
1685.00,0.0086
1684.00,0.0088
1683.00,0.0090
1682.00,0.0091
1681.00,0.0093
1680.00,0.0095
1679.00,0.0097
1678.00,0.0098
1677.00,0.0100
1676.00,0.0102
1675.00,0.0104
1674.00,0.0106
1673.00,0.0108
1672.00,0.0110
1671.00,0.0113
1670.00,0.0114
1669.00,0.0115
1668.00,0.0117
1667.00,0.0119
1666.00,0.0120
1665.00,0.0121
1664.00,0.0123
1663.00,0.0124
1662.00,0.0127
1661.00,0.0129
1660.00,0.0131
1659.00,0.0132
1658.00,0.0133
1657.00,0.0132
1656.00,0.0132
1655.00,0.0132
1654.00,0.0132
1653.00,0.0132
1652.00,0.0135
1651.00,0.0137
1650.00,0.0139
1649.00,0.0141
1648.00,0.0142
1647.00,0.0142
1646.00,0.0142
1645.00,0.0142
1644.00,0.0141
1643.00,0.0141
1642.00,0.0142
1641.00,0.0142
1640.00,0.0141
1639.00,0.0141
1638.00,0.0142
1637.00,0.0142
1636.00,0.0142
1635.00,0.0142
1634.00,0.0142
1633.00,0.0140
1632.00,0.0139
1631.00,0.0139
1630.00,0.0139
1629.00,0.0138
1628.00,0.0137
1627.00,0.0136
1626.00,0.0134
1625.00,0.0133
1624.00,0.0131
1623.00,0.0128
1622.00,0.0125
1621.00,0.0122
1620.00,0.0120
1619.00,0.0118
1618.00,0.0117
1617.00,0.0114
1616.00,0.0113
1615.00,0.0112
1614.00,0.0112
1613.00,0.0111
1612.00,0.0112
1611.00,0.0114
1610.00,0.0118
1609.00,0.0122
1608.00,0.0130
1607.00,0.0141
1606.00,0.0154
1605.00,0.0169
1604.00,0.0184
1603.00,0.0198
1602.00,0.0207
1601.00,0.0208
1600.00,0.0203
1599.00,0.0192
1598.00,0.0176
1597.00,0.0159
1596.00,0.0144
1595.00,0.0131
1594.00,0.0121
1593.00,0.0113
1592.00,0.0107
1591.00,0.0102
1590.00,0.0098
1589.00,0.0096
1588.00,0.0097
1587.00,0.0100
1586.00,0.0105
1585.00,0.0111
1584.00,0.0115
1583.00,0.0118
1582.00,0.0116
1581.00,0.0110
1580.00,0.0103
1579.00,0.0097
1578.00,0.0092
1577.00,0.0089
1576.00,0.0087
1575.00,0.0086
1574.00,0.0085
1573.00,0.0083
1572.00,0.0083
1571.00,0.0084
1570.00,0.0084
1569.00,0.0084
1568.00,0.0086
1567.00,0.0088
1566.00,0.0089
1565.00,0.0089
1564.00,0.0090
1563.00,0.0090
1562.00,0.0090
1561.00,0.0091
1560.00,0.0095
1559.00,0.0100
1558.00,0.0103
1557.00,0.0103
1556.00,0.0103
1555.00,0.0105
1554.00,0.0107
1553.00,0.0110
1552.00,0.0113
1551.00,0.0115
1550.00,0.0118
1549.00,0.0120
1548.00,0.0122
1547.00,0.0124
1546.00,0.0126
1545.00,0.0127
1544.00,0.0127
1543.00,0.0127
1542.00,0.0129
1541.00,0.0130
1540.00,0.0132
1539.00,0.0134
1538.00,0.0135
1537.00,0.0133
1536.00,0.0132
1535.00,0.0132
1534.00,0.0131
1533.00,0.0130
1532.00,0.0129
1531.00,0.0129
1530.00,0.0130
1529.00,0.0130
1528.00,0.0129
1527.00,0.0128
1526.00,0.0128
1525.00,0.0128
1524.00,0.0129
1523.00,0.0129
1522.00,0.0130
1521.00,0.0131
1520.00,0.0132
1519.00,0.0133
1518.00,0.0135
1517.00,0.0137
1516.00,0.0138
1515.00,0.0138
1514.00,0.0137
1513.00,0.0137
1512.00,0.0135
1511.00,0.0133
1510.00,0.0132
1509.00,0.0133
1508.00,0.0132
1507.00,0.0132
1506.00,0.0132
1505.00,0.0132
1504.00,0.0132
1503.00,0.0133
1502.00,0.0136
1501.00,0.0143
1500.00,0.0152
1499.00,0.0168
1498.00,0.0196
1497.00,0.0241
1496.00,0.0300
1495.00,0.0361
1494.00,0.0413
1493.00,0.0445
1492.00,0.0446
1491.00,0.0414
1490.00,0.0358
1489.00,0.0296
1488.00,0.0245
1487.00,0.0208
1486.00,0.0181
1485.00,0.0159
1484.00,0.0143
1483.00,0.0130
1482.00,0.0119
1481.00,0.0111
1480.00,0.0106
1479.00,0.0102
1478.00,0.0100
1477.00,0.0098
1476.00,0.0096
1475.00,0.0094
1474.00,0.0094
1473.00,0.0094
1472.00,0.0094
1471.00,0.0093
1470.00,0.0092
1469.00,0.0092
1468.00,0.0092
1467.00,0.0092
1466.00,0.0093
1465.00,0.0096
1464.00,0.0099
1463.00,0.0103
1462.00,0.0107
1461.00,0.0113
1460.00,0.0121
1459.00,0.0133
1458.00,0.0158
1457.00,0.0204
1456.00,0.0265
1455.00,0.0324
1454.00,0.0375
1453.00,0.0415
1452.00,0.0435
1451.00,0.0432
1450.00,0.0413
1449.00,0.0385
1448.00,0.0355
1447.00,0.0327
1446.00,0.0305
1445.00,0.0286
1444.00,0.0268
1443.00,0.0249
1442.00,0.0232
1441.00,0.0217
1440.00,0.0204
1439.00,0.0192
1438.00,0.0180
1437.00,0.0167
1436.00,0.0154
1435.00,0.0142
1434.00,0.0133
1433.00,0.0126
1432.00,0.0120
1431.00,0.0113
1430.00,0.0107
1429.00,0.0102
1428.00,0.0098
1427.00,0.0094
1426.00,0.0092
1425.00,0.0090
1424.00,0.0090
1423.00,0.0088
1422.00,0.0086
1421.00,0.0085
1420.00,0.0085
1419.00,0.0085
1418.00,0.0085
1417.00,0.0086
1416.00,0.0086
1415.00,0.0085
1414.00,0.0084
1413.00,0.0083
1412.00,0.0084
1411.00,0.0083
1410.00,0.0083
1409.00,0.0084
1408.00,0.0084
1407.00,0.0084
1406.00,0.0084
1405.00,0.0084
1404.00,0.0084
1403.00,0.0084
1402.00,0.0084
1401.00,0.0084
1400.00,0.0084
1399.00,0.0085
1398.00,0.0085
1397.00,0.0085
1396.00,0.0085
1395.00,0.0084
1394.00,0.0085
1393.00,0.0086
1392.00,0.0088
1391.00,0.0090
1390.00,0.0091
1389.00,0.0093
1388.00,0.0096
1387.00,0.0099
1386.00,0.0102
1385.00,0.0104
1384.00,0.0107
1383.00,0.0109
1382.00,0.0111
1381.00,0.0113
1380.00,0.0114
1379.00,0.0117
1378.00,0.0119
1377.00,0.0121
1376.00,0.0123
1375.00,0.0125
1374.00,0.0126
1373.00,0.0127
1372.00,0.0127
1371.00,0.0127
1370.00,0.0127
1369.00,0.0127
1368.00,0.0126
1367.00,0.0125
1366.00,0.0124
1365.00,0.0124
1364.00,0.0122
1363.00,0.0121
1362.00,0.0120
1361.00,0.0118
1360.00,0.0117
1359.00,0.0115
1358.00,0.0114
1357.00,0.0113
1356.00,0.0113
1355.00,0.0112
1354.00,0.0112
1353.00,0.0111
1352.00,0.0111
1351.00,0.0111
1350.00,0.0111
1349.00,0.0111
1348.00,0.0110
1347.00,0.0109
1346.00,0.0108
1345.00,0.0107
1344.00,0.0106
1343.00,0.0104
1342.00,0.0103
1341.00,0.0102
1340.00,0.0101
1339.00,0.0100
1338.00,0.0100
1337.00,0.0101
1336.00,0.0102
1335.00,0.0103
1334.00,0.0104
1333.00,0.0105
1332.00,0.0107
1331.00,0.0108
1330.00,0.0109
1329.00,0.0109
1328.00,0.0109
1327.00,0.0109
1326.00,0.0108
1325.00,0.0107
1324.00,0.0106
1323.00,0.0105
1322.00,0.0104
1321.00,0.0103
1320.00,0.0103
1319.00,0.0103
1318.00,0.0104
1317.00,0.0104
1316.00,0.0105
1315.00,0.0106
1314.00,0.0107
1313.00,0.0107
1312.00,0.0107
1311.00,0.0107
1310.00,0.0106
1309.00,0.0104
1308.00,0.0103
1307.00,0.0101
1306.00,0.0100
1305.00,0.0099
1304.00,0.0098
1303.00,0.0097
1302.00,0.0095
1301.00,0.0094
1300.00,0.0092
1299.00,0.0091
1298.00,0.0091
1297.00,0.0090
1296.00,0.0090
1295.00,0.0090
1294.00,0.0089
1293.00,0.0089
1292.00,0.0088
1291.00,0.0088
1290.00,0.0087
1289.00,0.0086
1288.00,0.0085
1287.00,0.0085
1286.00,0.0085
1285.00,0.0085
1284.00,0.0085
1283.00,0.0085
1282.00,0.0085
1281.00,0.0084
1280.00,0.0084
1279.00,0.0083
1278.00,0.0083
1277.00,0.0083
1276.00,0.0082
1275.00,0.0081
1274.00,0.0080
1273.00,0.0079
1272.00,0.0078
1271.00,0.0077
1270.00,0.0077
1269.00,0.0076
1268.00,0.0076
1267.00,0.0075
1266.00,0.0074
1265.00,0.0074
1264.00,0.0074
1263.00,0.0074
1262.00,0.0074
1261.00,0.0073
1260.00,0.0073
1259.00,0.0072
1258.00,0.0072
1257.00,0.0071
1256.00,0.0071
1255.00,0.0072
1254.00,0.0073
1253.00,0.0074
1252.00,0.0074
1251.00,0.0075
1250.00,0.0076
1249.00,0.0076
1248.00,0.0076
1247.00,0.0076
1246.00,0.0076
1245.00,0.0077
1244.00,0.0077
1243.00,0.0077
1242.00,0.0077
1241.00,0.0077
1240.00,0.0077
1239.00,0.0076
1238.00,0.0076
1237.00,0.0076
1236.00,0.0076
1235.00,0.0077
1234.00,0.0078
1233.00,0.0078
1232.00,0.0078
1231.00,0.0078
1230.00,0.0078
1229.00,0.0078
1228.00,0.0078
1227.00,0.0078
1226.00,0.0078
1225.00,0.0078
1224.00,0.0077
1223.00,0.0077
1222.00,0.0077
1221.00,0.0077
1220.00,0.0077
1219.00,0.0078
1218.00,0.0078
1217.00,0.0079
1216.00,0.0079
1215.00,0.0079
1214.00,0.0079
1213.00,0.0079
1212.00,0.0080
1211.00,0.0080
1210.00,0.0081
1209.00,0.0081
1208.00,0.0082
1207.00,0.0083
1206.00,0.0083
1205.00,0.0084
1204.00,0.0085
1203.00,0.0087
1202.00,0.0088
1201.00,0.0089
1200.00,0.0090
1199.00,0.0091
1198.00,0.0091
1197.00,0.0091
1196.00,0.0091
1195.00,0.0092
1194.00,0.0092
1193.00,0.0092
1192.00,0.0091
1191.00,0.0091
1190.00,0.0091
1189.00,0.0092
1188.00,0.0093
1187.00,0.0095
1186.00,0.0099
1185.00,0.0103
1184.00,0.0107
1183.00,0.0111
1182.00,0.0113
1181.00,0.0114
1180.00,0.0112
1179.00,0.0107
1178.00,0.0102
1177.00,0.0095
1176.00,0.0089
1175.00,0.0085
1174.00,0.0081
1173.00,0.0079
1172.00,0.0078
1171.00,0.0077
1170.00,0.0076
1169.00,0.0076
1168.00,0.0075
1167.00,0.0075
1166.00,0.0075
1165.00,0.0076
1164.00,0.0076
1163.00,0.0078
1162.00,0.0080
1161.00,0.0083
1160.00,0.0087
1159.00,0.0092
1158.00,0.0098
1157.00,0.0103
1156.00,0.0108
1155.00,0.0111
1154.00,0.0111
1153.00,0.0109
1152.00,0.0104
1151.00,0.0097
1150.00,0.0090
1149.00,0.0083
1148.00,0.0078
1147.00,0.0073
1146.00,0.0069
1145.00,0.0067
1144.00,0.0064
1143.00,0.0062
1142.00,0.0060
1141.00,0.0059
1140.00,0.0058
1139.00,0.0056
1138.00,0.0056
1137.00,0.0055
1136.00,0.0054
1135.00,0.0053
1134.00,0.0053
1133.00,0.0053
1132.00,0.0052
1131.00,0.0052
1130.00,0.0053
1129.00,0.0053
1128.00,0.0053
1127.00,0.0052
1126.00,0.0052
1125.00,0.0053
1124.00,0.0053
1123.00,0.0054
1122.00,0.0055
1121.00,0.0057
1120.00,0.0058
1119.00,0.0060
1118.00,0.0061
1117.00,0.0062
1116.00,0.0063
1115.00,0.0065
1114.00,0.0066
1113.00,0.0067
1112.00,0.0068
1111.00,0.0068
1110.00,0.0067
1109.00,0.0067
1108.00,0.0066
1107.00,0.0066
1106.00,0.0066
1105.00,0.0066
1104.00,0.0067
1103.00,0.0067
1102.00,0.0066
1101.00,0.0066
1100.00,0.0066
1099.00,0.0066
1098.00,0.0067
1097.00,0.0068
1096.00,0.0069
1095.00,0.0071
1094.00,0.0073
1093.00,0.0074
1092.00,0.0074
1091.00,0.0075
1090.00,0.0076
1089.00,0.0077
1088.00,0.0080
1087.00,0.0082
1086.00,0.0085
1085.00,0.0087
1084.00,0.0090
1083.00,0.0093
1082.00,0.0096
1081.00,0.0098
1080.00,0.0101
1079.00,0.0105
1078.00,0.0110
1077.00,0.0114
1076.00,0.0118
1075.00,0.0123
1074.00,0.0128
1073.00,0.0133
1072.00,0.0138
1071.00,0.0143
1070.00,0.0145
1069.00,0.0146
1068.00,0.0146
1067.00,0.0144
1066.00,0.0142
1065.00,0.0139
1064.00,0.0134
1063.00,0.0129
1062.00,0.0123
1061.00,0.0119
1060.00,0.0115
1059.00,0.0112
1058.00,0.0109
1057.00,0.0107
1056.00,0.0105
1055.00,0.0103
1054.00,0.0101
1053.00,0.0099
1052.00,0.0097
1051.00,0.0094
1050.00,0.0093
1049.00,0.0091
1048.00,0.0089
1047.00,0.0087
1046.00,0.0086
1045.00,0.0086
1044.00,0.0085
1043.00,0.0085
1042.00,0.0085
1041.00,0.0085
1040.00,0.0087
1039.00,0.0089
1038.00,0.0095
1037.00,0.0103
1036.00,0.0114
1035.00,0.0130
1034.00,0.0148
1033.00,0.0168
1032.00,0.0188
1031.00,0.0207
1030.00,0.0223
1029.00,0.0234
1028.00,0.0237
1027.00,0.0232
1026.00,0.0222
1025.00,0.0209
1024.00,0.0194
1023.00,0.0180
1022.00,0.0168
1021.00,0.0158
1020.00,0.0149
1019.00,0.0141
1018.00,0.0135
1017.00,0.0129
1016.00,0.0124
1015.00,0.0119
1014.00,0.0116
1013.00,0.0112
1012.00,0.0109
1011.00,0.0108
1010.00,0.0107
1009.00,0.0107
1008.00,0.0108
1007.00,0.0110
1006.00,0.0112
1005.00,0.0114
1004.00,0.0115
1003.00,0.0113
1002.00,0.0110
1001.00,0.0106
1000.00,0.0100
999.00,0.0095
998.00,0.0092
997.00,0.0089
996.00,0.0087
995.00,0.0086
994.00,0.0085
993.00,0.0084
992.00,0.0083
991.00,0.0083
990.00,0.0083
989.00,0.0085
988.00,0.0087
987.00,0.0089
986.00,0.0092
985.00,0.0094
984.00,0.0096
983.00,0.0098
982.00,0.0101
981.00,0.0102
980.00,0.0103
979.00,0.0102
978.00,0.0100
977.00,0.0098
976.00,0.0095
975.00,0.0092
974.00,0.0091
973.00,0.0090
972.00,0.0091
971.00,0.0092
970.00,0.0095
969.00,0.0099
968.00,0.0102
967.00,0.0105
966.00,0.0108
965.00,0.0109
964.00,0.0109
963.00,0.0107
962.00,0.0104
961.00,0.0101
960.00,0.0096
959.00,0.0093
958.00,0.0090
957.00,0.0087
956.00,0.0084
955.00,0.0082
954.00,0.0081
953.00,0.0080
952.00,0.0080
951.00,0.0081
950.00,0.0082
949.00,0.0083
948.00,0.0084
947.00,0.0085
946.00,0.0086
945.00,0.0088
944.00,0.0088
943.00,0.0088
942.00,0.0088
941.00,0.0088
940.00,0.0087
939.00,0.0085
938.00,0.0084
937.00,0.0082
936.00,0.0079
935.00,0.0076
934.00,0.0073
933.00,0.0070
932.00,0.0068
931.00,0.0066
930.00,0.0065
929.00,0.0066
928.00,0.0066
927.00,0.0066
926.00,0.0067
925.00,0.0068
924.00,0.0068
923.00,0.0069
922.00,0.0071
921.00,0.0073
920.00,0.0075
919.00,0.0077
918.00,0.0081
917.00,0.0085
916.00,0.0091
915.00,0.0097
914.00,0.0106
913.00,0.0115
912.00,0.0125
911.00,0.0136
910.00,0.0146
909.00,0.0156
908.00,0.0162
907.00,0.0166
906.00,0.0167
905.00,0.0164
904.00,0.0159
903.00,0.0151
902.00,0.0141
901.00,0.0130
900.00,0.0118
899.00,0.0107
898.00,0.0097
897.00,0.0088
896.00,0.0081
895.00,0.0075
894.00,0.0072
893.00,0.0069
892.00,0.0066
891.00,0.0064
890.00,0.0063
889.00,0.0061
888.00,0.0059
887.00,0.0057
886.00,0.0057
885.00,0.0057
884.00,0.0057
883.00,0.0057
882.00,0.0057
881.00,0.0056
880.00,0.0055
879.00,0.0053
878.00,0.0052
877.00,0.0051
876.00,0.0050
875.00,0.0050
874.00,0.0050
873.00,0.0050
872.00,0.0049
871.00,0.0048
870.00,0.0048
869.00,0.0048
868.00,0.0048
867.00,0.0047
866.00,0.0047
865.00,0.0047
864.00,0.0046
863.00,0.0047
862.00,0.0047
861.00,0.0048
860.00,0.0047
859.00,0.0047
858.00,0.0046
857.00,0.0047
856.00,0.0048
855.00,0.0050
854.00,0.0053
853.00,0.0057
852.00,0.0060
851.00,0.0062
850.00,0.0064
849.00,0.0066
848.00,0.0070
847.00,0.0074
846.00,0.0079
845.00,0.0084
844.00,0.0087
843.00,0.0090
842.00,0.0092
841.00,0.0093
840.00,0.0091
839.00,0.0089
838.00,0.0085
837.00,0.0081
836.00,0.0076
835.00,0.0071
834.00,0.0067
833.00,0.0062
832.00,0.0058
831.00,0.0056
830.00,0.0055
829.00,0.0055
828.00,0.0054
827.00,0.0053
826.00,0.0053
825.00,0.0052
824.00,0.0051
823.00,0.0051
822.00,0.0051
821.00,0.0051
820.00,0.0051
819.00,0.0050
818.00,0.0050
817.00,0.0051
816.00,0.0052
815.00,0.0053
814.00,0.0054
813.00,0.0054
812.00,0.0054
811.00,0.0054
810.00,0.0055
809.00,0.0055
808.00,0.0055
807.00,0.0055
806.00,0.0055
805.00,0.0056
804.00,0.0057
803.00,0.0058
802.00,0.0060
801.00,0.0061
800.00,0.0062
799.00,0.0062
798.00,0.0064
797.00,0.0066
796.00,0.0068
795.00,0.0071
794.00,0.0075
793.00,0.0078
792.00,0.0081
791.00,0.0085
790.00,0.0089
789.00,0.0093
788.00,0.0098
787.00,0.0103
786.00,0.0109
785.00,0.0115
784.00,0.0122
783.00,0.0128
782.00,0.0136
781.00,0.0144
780.00,0.0154
779.00,0.0166
778.00,0.0179
777.00,0.0195
776.00,0.0212
775.00,0.0230
774.00,0.0251
773.00,0.0272
772.00,0.0295
771.00,0.0318
770.00,0.0344
769.00,0.0370
768.00,0.0396
767.00,0.0422
766.00,0.0448
765.00,0.0473
764.00,0.0499
763.00,0.0525
762.00,0.0552
761.00,0.0579
760.00,0.0606
759.00,0.0631
758.00,0.0653
757.00,0.0670
756.00,0.0680
755.00,0.0684
754.00,0.0686
753.00,0.0686
752.00,0.0686
751.00,0.0686
750.00,0.0686
749.00,0.0685
748.00,0.0681
747.00,0.0672
746.00,0.0656
745.00,0.0628
744.00,0.0591
743.00,0.0547
742.00,0.0502
741.00,0.0458
740.00,0.0416
739.00,0.0378
738.00,0.0344
737.00,0.0313
736.00,0.0283
735.00,0.0253
734.00,0.0224
733.00,0.0197
732.00,0.0173
731.00,0.0155
730.00,0.0141
729.00,0.0131
728.00,0.0123
727.00,0.0118
726.00,0.0114
725.00,0.0111
724.00,0.0109
723.00,0.0107
722.00,0.0107
721.00,0.0107
720.00,0.0108
719.00,0.0109
718.00,0.0112
717.00,0.0116
716.00,0.0122
715.00,0.0130
714.00,0.0140
713.00,0.0155
712.00,0.0176
711.00,0.0205
710.00,0.0245
709.00,0.0297
708.00,0.0363
707.00,0.0445
706.00,0.0545
705.00,0.0662
704.00,0.0794
703.00,0.0942
702.00,0.1102
701.00,0.1272
700.00,0.1445
699.00,0.1619
698.00,0.1790
697.00,0.1948
696.00,0.2075
695.00,0.2142
694.00,0.2125
693.00,0.2016
692.00,0.1834
691.00,0.1618
690.00,0.1407
689.00,0.1219
688.00,0.1061
687.00,0.0933
686.00,0.0831
685.00,0.0749
684.00,0.0682
683.00,0.0626
682.00,0.0581
681.00,0.0542
680.00,0.0508
679.00,0.0478
678.00,0.0451
677.00,0.0428
676.00,0.0408
675.00,0.0392
674.00,0.0379
673.00,0.0366
672.00,0.0355
671.00,0.0344
670.00,0.0335
669.00,0.0325
668.00,0.0313
667.00,0.0301
666.00,0.0292
665.00,0.0283
664.00,0.0274
663.00,0.0264
662.00,0.0255
661.00,0.0246
660.00,0.0236
659.00,0.0228
658.00,0.0221
657.00,0.0214
656.00,0.0207
655.00,0.0200
654.00,0.0195
653.00,0.0189
652.00,0.0183
651.00,0.0178
650.00,0.0175
649.00,0.0172
648.00,0.0168
647.00,0.0164
646.00,0.0162
645.00,0.0160
644.00,0.0157
643.00,0.0155
642.00,0.0154
641.00,0.0154
640.00,0.0154
639.00,0.0155
638.00,0.0157
637.00,0.0160
636.00,0.0162
635.00,0.0164
634.00,0.0167
633.00,0.0171
632.00,0.0175
631.00,0.0178
630.00,0.0181
629.00,0.0182
628.00,0.0182
627.00,0.0182
626.00,0.0184
625.00,0.0186
624.00,0.0187
623.00,0.0190
622.00,0.0194
621.00,0.0196
620.00,0.0195
619.00,0.0192
618.00,0.0187
617.00,0.0182
616.00,0.0178
615.00,0.0174
614.00,0.0171
613.00,0.0168
612.00,0.0165
611.00,0.0164
610.00,0.0165
609.00,0.0165
608.00,0.0163
607.00,0.0161
606.00,0.0160
605.00,0.0160
604.00,0.0158
603.00,0.0158
602.00,0.0159
601.00,0.0161
600.00,0.0163
599.00,0.0165
598.00,0.0167
597.00,0.0169
596.00,0.0170
595.00,0.0171
594.00,0.0173
593.00,0.0174
592.00,0.0175
591.00,0.0176
590.00,0.0178
589.00,0.0179
588.00,0.0179
587.00,0.0180
586.00,0.0183
585.00,0.0187
584.00,0.0191
583.00,0.0195
582.00,0.0200
581.00,0.0205
580.00,0.0210
579.00,0.0217
578.00,0.0226
577.00,0.0235
576.00,0.0244
575.00,0.0254
574.00,0.0264
573.00,0.0275
572.00,0.0284
571.00,0.0294
570.00,0.0304
569.00,0.0312
568.00,0.0319
567.00,0.0327
566.00,0.0337
565.00,0.0348
564.00,0.0357
563.00,0.0367
562.00,0.0378
561.00,0.0389
560.00,0.0398
559.00,0.0407
558.00,0.0417
557.00,0.0425
556.00,0.0434
555.00,0.0444
554.00,0.0459
553.00,0.0474
552.00,0.0488
551.00,0.0502
550.00,0.0519
549.00,0.0536
548.00,0.0554
547.00,0.0574
546.00,0.0596
545.00,0.0619
544.00,0.0643
543.00,0.0669
542.00,0.0695
541.00,0.0718
540.00,0.0735
539.00,0.0747
538.00,0.0754
537.00,0.0753
536.00,0.0743
535.00,0.0724
534.00,0.0698
533.00,0.0667
532.00,0.0632
531.00,0.0596
530.00,0.0561
529.00,0.0527
528.00,0.0493
527.00,0.0462
526.00,0.0435
525.00,0.0411
524.00,0.0387
523.00,0.0365
522.00,0.0348
521.00,0.0333
520.00,0.0318
519.00,0.0306
518.00,0.0299
517.00,0.0293
516.00,0.0285
515.00,0.0277
514.00,0.0270
513.00,0.0263
512.00,0.0254
511.00,0.0247
510.00,0.0241
509.00,0.0235
508.00,0.0226
507.00,0.0217
506.00,0.0213
505.00,0.0211
504.00,0.0207
503.00,0.0203
502.00,0.0199
501.00,0.0193
500.00,0.0185
499.00,0.0179
498.00,0.0177
497.00,0.0175
496.00,0.0171
495.00,0.0167
494.00,0.0166
493.00,0.0166
492.00,0.0163
491.00,0.0158
490.00,0.0155
489.00,0.0152
488.00,0.0148
487.00,0.0146
486.00,0.0147
485.00,0.0148
484.00,0.0146
483.00,0.0143
482.00,0.0143
481.00,0.0143
480.00,0.0142
479.00,0.0140
478.00,0.0139
477.00,0.0136
476.00,0.0128
475.00,0.0123
474.00,0.0122
473.00,0.0123
472.00,0.0123
471.00,0.0125
470.00,0.0132
469.00,0.0137
468.00,0.0137
467.00,0.0133
466.00,0.0130
465.00,0.0127
464.00,0.0123
463.00,0.0120
462.00,0.0119
461.00,0.0118
460.00,0.0116
459.00,0.0117
458.00,0.0123
457.00,0.0128
456.00,0.0125
455.00,0.0118
454.00,0.0114
453.00,0.0111
452.00,0.0109
451.00,0.0110
450.00,0.0113
449.00,0.0115
448.00,0.0110
447.00,0.0105
446.00,0.0104
445.00,0.0104
444.00,0.0102
443.00,0.0100
442.00,0.0102
441.00,0.0103
440.00,0.0099
439.00,0.0094
438.00,0.0095
437.00,0.0099
436.00,0.0099
435.00,0.0097
434.00,0.0096
433.00,0.0095
432.00,0.0090
431.00,0.0087
430.00,0.0090
429.00,0.0093
428.00,0.0092
427.00,0.0090
426.00,0.0091
425.00,0.0089
424.00,0.0085
423.00,0.0086
422.00,0.0094
421.00,0.0097
420.00,0.0089
419.00,0.0083
418.00,0.0087
417.00,0.0092
416.00,0.0090
415.00,0.0093
414.00,0.0108
413.00,0.0122
412.00,0.0124
411.00,0.0121
410.00,0.0118
409.00,0.0108
408.00,0.0087
407.00,0.0074
406.00,0.0081
405.00,0.0096
404.00,0.0105
403.00,0.0110
402.00,0.0127
401.00,0.0151
400.00,0.0177
