Created as New Dataset,Sample 500 By YargerLab Date Saturday, April 26 2025
cm-1,A
4000.00,0.0040
3999.00,0.0040
3998.00,0.0040
3997.00,0.0040
3996.00,0.0040
3995.00,0.0040
3994.00,0.0040
3993.00,0.0040
3992.00,0.0040
3991.00,0.0040
3990.00,0.0040
3989.00,0.0040
3988.00,0.0040
3987.00,0.0041
3986.00,0.0041
3985.00,0.0041
3984.00,0.0041
3983.00,0.0040
3982.00,0.0040
3981.00,0.0040
3980.00,0.0041
3979.00,0.0041
3978.00,0.0041
3977.00,0.0041
3976.00,0.0041
3975.00,0.0040
3974.00,0.0040
3973.00,0.0040
3972.00,0.0040
3971.00,0.0041
3970.00,0.0041
3969.00,0.0041
3968.00,0.0040
3967.00,0.0040
3966.00,0.0040
3965.00,0.0040
3964.00,0.0040
3963.00,0.0040
3962.00,0.0040
3961.00,0.0040
3960.00,0.0040
3959.00,0.0040
3958.00,0.0040
3957.00,0.0040
3956.00,0.0040
3955.00,0.0040
3954.00,0.0040
3953.00,0.0040
3952.00,0.0040
3951.00,0.0041
3950.00,0.0041
3949.00,0.0042
3948.00,0.0043
3947.00,0.0043
3946.00,0.0043
3945.00,0.0043
3944.00,0.0042
3943.00,0.0041
3942.00,0.0041
3941.00,0.0041
3940.00,0.0041
3939.00,0.0041
3938.00,0.0041
3937.00,0.0041
3936.00,0.0042
3935.00,0.0043
3934.00,0.0044
3933.00,0.0044
3932.00,0.0044
3931.00,0.0043
3930.00,0.0043
3929.00,0.0043
3928.00,0.0043
3927.00,0.0042
3926.00,0.0042
3925.00,0.0041
3924.00,0.0041
3923.00,0.0041
3922.00,0.0042
3921.00,0.0044
3920.00,0.0044
3919.00,0.0045
3918.00,0.0045
3917.00,0.0044
3916.00,0.0043
3915.00,0.0042
3914.00,0.0041
3913.00,0.0041
3912.00,0.0040
3911.00,0.0040
3910.00,0.0040
3909.00,0.0040
3908.00,0.0040
3907.00,0.0041
3906.00,0.0042
3905.00,0.0044
3904.00,0.0047
3903.00,0.0050
3902.00,0.0052
3901.00,0.0053
3900.00,0.0051
3899.00,0.0049
3898.00,0.0047
3897.00,0.0046
3896.00,0.0046
3895.00,0.0045
3894.00,0.0044
3893.00,0.0042
3892.00,0.0042
3891.00,0.0042
3890.00,0.0043
3889.00,0.0045
3888.00,0.0047
3887.00,0.0048
3886.00,0.0048
3885.00,0.0047
3884.00,0.0046
3883.00,0.0048
3882.00,0.0049
3881.00,0.0048
3880.00,0.0047
3879.00,0.0047
3878.00,0.0047
3877.00,0.0049
3876.00,0.0049
3875.00,0.0048
3874.00,0.0047
3873.00,0.0046
3872.00,0.0048
3871.00,0.0050
3870.00,0.0051
3869.00,0.0050
3868.00,0.0049
3867.00,0.0050
3866.00,0.0051
3865.00,0.0050
3864.00,0.0049
3863.00,0.0048
3862.00,0.0049
3861.00,0.0050
3860.00,0.0049
3859.00,0.0048
3858.00,0.0044
3857.00,0.0040
3856.00,0.0038
3855.00,0.0038
3854.00,0.0039
3853.00,0.0042
3852.00,0.0045
3851.00,0.0047
3850.00,0.0049
3849.00,0.0049
3848.00,0.0048
3847.00,0.0048
3846.00,0.0048
3845.00,0.0048
3844.00,0.0048
3843.00,0.0049
3842.00,0.0050
3841.00,0.0050
3840.00,0.0050
3839.00,0.0050
3838.00,0.0050
3837.00,0.0050
3836.00,0.0050
3835.00,0.0049
3834.00,0.0049
3833.00,0.0049
3832.00,0.0049
3831.00,0.0048
3830.00,0.0047
3829.00,0.0047
3828.00,0.0047
3827.00,0.0046
3826.00,0.0046
3825.00,0.0046
3824.00,0.0048
3823.00,0.0050
3822.00,0.0051
3821.00,0.0050
3820.00,0.0049
3819.00,0.0049
3818.00,0.0050
3817.00,0.0050
3816.00,0.0048
3815.00,0.0045
3814.00,0.0043
3813.00,0.0042
3812.00,0.0042
3811.00,0.0042
3810.00,0.0041
3809.00,0.0042
3808.00,0.0043
3807.00,0.0044
3806.00,0.0045
3805.00,0.0047
3804.00,0.0049
3803.00,0.0051
3802.00,0.0050
3801.00,0.0047
3800.00,0.0046
3799.00,0.0047
3798.00,0.0047
3797.00,0.0047
3796.00,0.0045
3795.00,0.0042
3794.00,0.0041
3793.00,0.0039
3792.00,0.0038
3791.00,0.0037
3790.00,0.0037
3789.00,0.0037
3788.00,0.0037
3787.00,0.0038
3786.00,0.0038
3785.00,0.0038
3784.00,0.0039
3783.00,0.0040
3782.00,0.0041
3781.00,0.0042
3780.00,0.0042
3779.00,0.0041
3778.00,0.0040
3777.00,0.0040
3776.00,0.0039
3775.00,0.0039
3774.00,0.0039
3773.00,0.0039
3772.00,0.0041
3771.00,0.0042
3770.00,0.0043
3769.00,0.0044
3768.00,0.0044
3767.00,0.0045
3766.00,0.0045
3765.00,0.0045
3764.00,0.0044
3763.00,0.0045
3762.00,0.0047
3761.00,0.0048
3760.00,0.0047
3759.00,0.0047
3758.00,0.0047
3757.00,0.0048
3756.00,0.0049
3755.00,0.0050
3754.00,0.0052
3753.00,0.0054
3752.00,0.0055
3751.00,0.0056
3750.00,0.0058
3749.00,0.0058
3748.00,0.0057
3747.00,0.0057
3746.00,0.0058
3745.00,0.0058
3744.00,0.0056
3743.00,0.0055
3742.00,0.0055
3741.00,0.0057
3740.00,0.0059
3739.00,0.0061
3738.00,0.0063
3737.00,0.0064
3736.00,0.0063
3735.00,0.0060
3734.00,0.0058
3733.00,0.0057
3732.00,0.0056
3731.00,0.0054
3730.00,0.0051
3729.00,0.0050
3728.00,0.0050
3727.00,0.0050
3726.00,0.0048
3725.00,0.0047
3724.00,0.0047
3723.00,0.0047
3722.00,0.0046
3721.00,0.0045
3720.00,0.0044
3719.00,0.0043
3718.00,0.0042
3717.00,0.0042
3716.00,0.0042
3715.00,0.0044
3714.00,0.0046
3713.00,0.0048
3712.00,0.0048
3711.00,0.0049
3710.00,0.0049
3709.00,0.0048
3708.00,0.0047
3707.00,0.0046
3706.00,0.0044
3705.00,0.0043
3704.00,0.0043
3703.00,0.0042
3702.00,0.0041
3701.00,0.0040
3700.00,0.0039
3699.00,0.0040
3698.00,0.0040
3697.00,0.0040
3696.00,0.0040
3695.00,0.0040
3694.00,0.0042
3693.00,0.0043
3692.00,0.0044
3691.00,0.0044
3690.00,0.0044
3689.00,0.0046
3688.00,0.0047
3687.00,0.0047
3686.00,0.0046
3685.00,0.0046
3684.00,0.0045
3683.00,0.0045
3682.00,0.0046
3681.00,0.0047
3680.00,0.0047
3679.00,0.0048
3678.00,0.0051
3677.00,0.0054
3676.00,0.0056
3675.00,0.0055
3674.00,0.0055
3673.00,0.0056
3672.00,0.0057
3671.00,0.0057
3670.00,0.0054
3669.00,0.0051
3668.00,0.0050
3667.00,0.0049
3666.00,0.0048
3665.00,0.0047
3664.00,0.0046
3663.00,0.0045
3662.00,0.0044
3661.00,0.0044
3660.00,0.0045
3659.00,0.0046
3658.00,0.0047
3657.00,0.0049
3656.00,0.0050
3655.00,0.0051
3654.00,0.0054
3653.00,0.0058
3652.00,0.0063
3651.00,0.0066
3650.00,0.0068
3649.00,0.0069
3648.00,0.0070
3647.00,0.0069
3646.00,0.0066
3645.00,0.0063
3644.00,0.0060
3643.00,0.0057
3642.00,0.0055
3641.00,0.0053
3640.00,0.0052
3639.00,0.0053
3638.00,0.0053
3637.00,0.0054
3636.00,0.0056
3635.00,0.0057
3634.00,0.0058
3633.00,0.0059
3632.00,0.0061
3631.00,0.0063
3630.00,0.0065
3629.00,0.0066
3628.00,0.0066
3627.00,0.0068
3626.00,0.0069
3625.00,0.0069
3624.00,0.0068
3623.00,0.0068
3622.00,0.0067
3621.00,0.0067
3620.00,0.0066
3619.00,0.0067
3618.00,0.0069
3617.00,0.0072
3616.00,0.0074
3615.00,0.0075
3614.00,0.0075
3613.00,0.0075
3612.00,0.0075
3611.00,0.0076
3610.00,0.0077
3609.00,0.0077
3608.00,0.0076
3607.00,0.0075
3606.00,0.0074
3605.00,0.0073
3604.00,0.0073
3603.00,0.0072
3602.00,0.0072
3601.00,0.0072
3600.00,0.0072
3599.00,0.0073
3598.00,0.0075
3597.00,0.0076
3596.00,0.0076
3595.00,0.0076
3594.00,0.0077
3593.00,0.0078
3592.00,0.0079
3591.00,0.0080
3590.00,0.0081
3589.00,0.0082
3588.00,0.0082
3587.00,0.0082
3586.00,0.0082
3585.00,0.0083
3584.00,0.0083
3583.00,0.0083
3582.00,0.0082
3581.00,0.0081
3580.00,0.0080
3579.00,0.0079
3578.00,0.0079
3577.00,0.0080
3576.00,0.0080
3575.00,0.0081
3574.00,0.0082
3573.00,0.0083
3572.00,0.0084
3571.00,0.0086
3570.00,0.0088
3569.00,0.0091
3568.00,0.0093
3567.00,0.0094
3566.00,0.0094
3565.00,0.0094
3564.00,0.0094
3563.00,0.0094
3562.00,0.0093
3561.00,0.0092
3560.00,0.0091
3559.00,0.0091
3558.00,0.0091
3557.00,0.0091
3556.00,0.0091
3555.00,0.0092
3554.00,0.0092
3553.00,0.0093
3552.00,0.0094
3551.00,0.0095
3550.00,0.0097
3549.00,0.0098
3548.00,0.0099
3547.00,0.0100
3546.00,0.0100
3545.00,0.0100
3544.00,0.0100
3543.00,0.0100
3542.00,0.0099
3541.00,0.0099
3540.00,0.0099
3539.00,0.0099
3538.00,0.0099
3537.00,0.0099
3536.00,0.0100
3535.00,0.0100
3534.00,0.0101
3533.00,0.0102
3532.00,0.0103
3531.00,0.0103
3530.00,0.0104
3529.00,0.0105
3528.00,0.0106
3527.00,0.0107
3526.00,0.0108
3525.00,0.0108
3524.00,0.0108
3523.00,0.0108
3522.00,0.0108
3521.00,0.0107
3520.00,0.0107
3519.00,0.0107
3518.00,0.0106
3517.00,0.0106
3516.00,0.0106
3515.00,0.0106
3514.00,0.0107
3513.00,0.0107
3512.00,0.0108
3511.00,0.0109
3510.00,0.0109
3509.00,0.0110
3508.00,0.0110
3507.00,0.0111
3506.00,0.0112
3505.00,0.0112
3504.00,0.0113
3503.00,0.0113
3502.00,0.0114
3501.00,0.0114
3500.00,0.0114
3499.00,0.0114
3498.00,0.0114
3497.00,0.0113
3496.00,0.0113
3495.00,0.0114
3494.00,0.0114
3493.00,0.0114
3492.00,0.0115
3491.00,0.0115
3490.00,0.0115
3489.00,0.0116
3488.00,0.0116
3487.00,0.0116
3486.00,0.0116
3485.00,0.0116
3484.00,0.0116
3483.00,0.0116
3482.00,0.0116
3481.00,0.0116
3480.00,0.0117
3479.00,0.0117
3478.00,0.0117
3477.00,0.0117
3476.00,0.0116
3475.00,0.0116
3474.00,0.0116
3473.00,0.0117
3472.00,0.0117
3471.00,0.0117
3470.00,0.0118
3469.00,0.0118
3468.00,0.0118
3467.00,0.0118
3466.00,0.0118
3465.00,0.0118
3464.00,0.0118
3463.00,0.0118
3462.00,0.0118
3461.00,0.0118
3460.00,0.0118
3459.00,0.0118
3458.00,0.0118
3457.00,0.0117
3456.00,0.0117
3455.00,0.0117
3454.00,0.0116
3453.00,0.0117
3452.00,0.0117
3451.00,0.0117
3450.00,0.0118
3449.00,0.0118
3448.00,0.0118
3447.00,0.0119
3446.00,0.0119
3445.00,0.0120
3444.00,0.0120
3443.00,0.0119
3442.00,0.0119
3441.00,0.0119
3440.00,0.0119
3439.00,0.0119
3438.00,0.0120
3437.00,0.0120
3436.00,0.0120
3435.00,0.0120
3434.00,0.0121
3433.00,0.0121
3432.00,0.0121
3431.00,0.0122
3430.00,0.0122
3429.00,0.0123
3428.00,0.0123
3427.00,0.0123
3426.00,0.0124
3425.00,0.0124
3424.00,0.0125
3423.00,0.0126
3422.00,0.0126
3421.00,0.0127
3420.00,0.0127
3419.00,0.0128
3418.00,0.0129
3417.00,0.0130
3416.00,0.0130
3415.00,0.0131
3414.00,0.0131
3413.00,0.0132
3412.00,0.0132
3411.00,0.0133
3410.00,0.0133
3409.00,0.0134
3408.00,0.0135
3407.00,0.0135
3406.00,0.0136
3405.00,0.0137
3404.00,0.0137
3403.00,0.0138
3402.00,0.0138
3401.00,0.0138
3400.00,0.0139
3399.00,0.0139
3398.00,0.0140
3397.00,0.0140
3396.00,0.0141
3395.00,0.0141
3394.00,0.0141
3393.00,0.0142
3392.00,0.0142
3391.00,0.0143
3390.00,0.0144
3389.00,0.0144
3388.00,0.0145
3387.00,0.0145
3386.00,0.0146
3385.00,0.0146
3384.00,0.0147
3383.00,0.0147
3382.00,0.0148
3381.00,0.0149
3380.00,0.0149
3379.00,0.0150
3378.00,0.0151
3377.00,0.0152
3376.00,0.0152
3375.00,0.0153
3374.00,0.0154
3373.00,0.0154
3372.00,0.0156
3371.00,0.0157
3370.00,0.0158
3369.00,0.0159
3368.00,0.0159
3367.00,0.0160
3366.00,0.0161
3365.00,0.0162
3364.00,0.0163
3363.00,0.0164
3362.00,0.0165
3361.00,0.0166
3360.00,0.0167
3359.00,0.0168
3358.00,0.0169
3357.00,0.0170
3356.00,0.0171
3355.00,0.0172
3354.00,0.0174
3353.00,0.0175
3352.00,0.0177
3351.00,0.0178
3350.00,0.0180
3349.00,0.0182
3348.00,0.0183
3347.00,0.0185
3346.00,0.0186
3345.00,0.0188
3344.00,0.0190
3343.00,0.0192
3342.00,0.0194
3341.00,0.0195
3340.00,0.0197
3339.00,0.0200
3338.00,0.0202
3337.00,0.0205
3336.00,0.0207
3335.00,0.0210
3334.00,0.0213
3333.00,0.0215
3332.00,0.0218
3331.00,0.0220
3330.00,0.0223
3329.00,0.0225
3328.00,0.0228
3327.00,0.0230
3326.00,0.0233
3325.00,0.0236
3324.00,0.0240
3323.00,0.0243
3322.00,0.0246
3321.00,0.0250
3320.00,0.0253
3319.00,0.0256
3318.00,0.0260
3317.00,0.0263
3316.00,0.0267
3315.00,0.0270
3314.00,0.0274
3313.00,0.0277
3312.00,0.0281
3311.00,0.0285
3310.00,0.0288
3309.00,0.0292
3308.00,0.0296
3307.00,0.0299
3306.00,0.0303
3305.00,0.0307
3304.00,0.0311
3303.00,0.0315
3302.00,0.0319
3301.00,0.0323
3300.00,0.0326
3299.00,0.0330
3298.00,0.0333
3297.00,0.0336
3296.00,0.0339
3295.00,0.0341
3294.00,0.0343
3293.00,0.0345
3292.00,0.0347
3291.00,0.0349
3290.00,0.0351
3289.00,0.0353
3288.00,0.0354
3287.00,0.0354
3286.00,0.0355
3285.00,0.0355
3284.00,0.0355
3283.00,0.0355
3282.00,0.0354
3281.00,0.0353
3280.00,0.0352
3279.00,0.0351
3278.00,0.0349
3277.00,0.0347
3276.00,0.0344
3275.00,0.0342
3274.00,0.0339
3273.00,0.0335
3272.00,0.0331
3271.00,0.0328
3270.00,0.0325
3269.00,0.0321
3268.00,0.0318
3267.00,0.0315
3266.00,0.0311
3265.00,0.0307
3264.00,0.0304
3263.00,0.0300
3262.00,0.0297
3261.00,0.0293
3260.00,0.0290
3259.00,0.0287
3258.00,0.0283
3257.00,0.0280
3256.00,0.0276
3255.00,0.0273
3254.00,0.0270
3253.00,0.0267
3252.00,0.0265
3251.00,0.0262
3250.00,0.0259
3249.00,0.0256
3248.00,0.0253
3247.00,0.0251
3246.00,0.0250
3245.00,0.0248
3244.00,0.0246
3243.00,0.0244
3242.00,0.0241
3241.00,0.0239
3240.00,0.0237
3239.00,0.0234
3238.00,0.0232
3237.00,0.0230
3236.00,0.0227
3235.00,0.0225
3234.00,0.0223
3233.00,0.0222
3232.00,0.0220
3231.00,0.0219
3230.00,0.0218
3229.00,0.0216
3228.00,0.0215
3227.00,0.0213
3226.00,0.0211
3225.00,0.0209
3224.00,0.0207
3223.00,0.0205
3222.00,0.0204
3221.00,0.0202
3220.00,0.0201
3219.00,0.0199
3218.00,0.0198
3217.00,0.0196
3216.00,0.0194
3215.00,0.0193
3214.00,0.0191
3213.00,0.0190
3212.00,0.0189
3211.00,0.0187
3210.00,0.0185
3209.00,0.0184
3208.00,0.0182
3207.00,0.0181
3206.00,0.0179
3205.00,0.0177
3204.00,0.0176
3203.00,0.0174
3202.00,0.0173
3201.00,0.0171
3200.00,0.0170
3199.00,0.0169
3198.00,0.0167
3197.00,0.0166
3196.00,0.0164
3195.00,0.0162
3194.00,0.0160
3193.00,0.0159
3192.00,0.0157
3191.00,0.0156
3190.00,0.0154
3189.00,0.0153
3188.00,0.0152
3187.00,0.0151
3186.00,0.0149
3185.00,0.0148
3184.00,0.0146
3183.00,0.0145
3182.00,0.0144
3181.00,0.0143
3180.00,0.0142
3179.00,0.0140
3178.00,0.0139
3177.00,0.0138
3176.00,0.0136
3175.00,0.0135
3174.00,0.0133
3173.00,0.0132
3172.00,0.0131
3171.00,0.0130
3170.00,0.0129
3169.00,0.0128
3168.00,0.0127
3167.00,0.0126
3166.00,0.0124
3165.00,0.0123
3164.00,0.0123
3163.00,0.0122
3162.00,0.0121
3161.00,0.0120
3160.00,0.0119
3159.00,0.0118
3158.00,0.0118
3157.00,0.0117
3156.00,0.0116
3155.00,0.0115
3154.00,0.0114
3153.00,0.0114
3152.00,0.0113
3151.00,0.0112
3150.00,0.0112
3149.00,0.0111
3148.00,0.0110
3147.00,0.0110
3146.00,0.0109
3145.00,0.0109
3144.00,0.0108
3143.00,0.0107
3142.00,0.0107
3141.00,0.0106
3140.00,0.0106
3139.00,0.0106
3138.00,0.0106
3137.00,0.0106
3136.00,0.0106
3135.00,0.0105
3134.00,0.0105
3133.00,0.0105
3132.00,0.0104
3131.00,0.0104
3130.00,0.0104
3129.00,0.0103
3128.00,0.0103
3127.00,0.0103
3126.00,0.0103
3125.00,0.0103
3124.00,0.0103
3123.00,0.0103
3122.00,0.0103
3121.00,0.0103
3120.00,0.0103
3119.00,0.0103
3118.00,0.0103
3117.00,0.0103
3116.00,0.0103
3115.00,0.0103
3114.00,0.0104
3113.00,0.0105
3112.00,0.0105
3111.00,0.0105
3110.00,0.0105
3109.00,0.0105
3108.00,0.0106
3107.00,0.0106
3106.00,0.0107
3105.00,0.0107
3104.00,0.0107
3103.00,0.0108
3102.00,0.0108
3101.00,0.0109
3100.00,0.0109
3099.00,0.0110
3098.00,0.0110
3097.00,0.0111
3096.00,0.0111
3095.00,0.0111
3094.00,0.0111
3093.00,0.0112
3092.00,0.0112
3091.00,0.0112
3090.00,0.0113
3089.00,0.0113
3088.00,0.0114
3087.00,0.0114
3086.00,0.0114
3085.00,0.0114
3084.00,0.0114
3083.00,0.0114
3082.00,0.0114
3081.00,0.0114
3080.00,0.0114
3079.00,0.0114
3078.00,0.0114
3077.00,0.0115
3076.00,0.0115
3075.00,0.0115
3074.00,0.0115
3073.00,0.0115
3072.00,0.0115
3071.00,0.0115
3070.00,0.0115
3069.00,0.0114
3068.00,0.0114
3067.00,0.0113
3066.00,0.0113
3065.00,0.0113
3064.00,0.0113
3063.00,0.0112
3062.00,0.0112
3061.00,0.0111
3060.00,0.0111
3059.00,0.0110
3058.00,0.0110
3057.00,0.0109
3056.00,0.0108
3055.00,0.0107
3054.00,0.0106
3053.00,0.0105
3052.00,0.0104
3051.00,0.0103
3050.00,0.0102
3049.00,0.0102
3048.00,0.0101
3047.00,0.0100
3046.00,0.0098
3045.00,0.0097
3044.00,0.0096
3043.00,0.0095
3042.00,0.0095
3041.00,0.0095
3040.00,0.0094
3039.00,0.0094
3038.00,0.0093
3037.00,0.0092
3036.00,0.0091
3035.00,0.0091
3034.00,0.0090
3033.00,0.0090
3032.00,0.0090
3031.00,0.0089
3030.00,0.0089
3029.00,0.0088
3028.00,0.0088
3027.00,0.0087
3026.00,0.0086
3025.00,0.0085
3024.00,0.0085
3023.00,0.0084
3022.00,0.0084
3021.00,0.0083
3020.00,0.0083
3019.00,0.0083
3018.00,0.0082
3017.00,0.0082
3016.00,0.0081
3015.00,0.0080
3014.00,0.0080
3013.00,0.0080
3012.00,0.0080
3011.00,0.0080
3010.00,0.0080
3009.00,0.0080
3008.00,0.0081
3007.00,0.0081
3006.00,0.0080
3005.00,0.0080
3004.00,0.0080
3003.00,0.0080
3002.00,0.0080
3001.00,0.0080
3000.00,0.0081
2999.00,0.0081
2998.00,0.0082
2997.00,0.0082
2996.00,0.0082
2995.00,0.0082
2994.00,0.0083
2993.00,0.0083
2992.00,0.0084
2991.00,0.0085
2990.00,0.0086
2989.00,0.0087
2988.00,0.0088
2987.00,0.0089
2986.00,0.0090
2985.00,0.0090
2984.00,0.0091
2983.00,0.0092
2982.00,0.0092
2981.00,0.0093
2980.00,0.0093
2979.00,0.0094
2978.00,0.0094
2977.00,0.0094
2976.00,0.0094
2975.00,0.0095
2974.00,0.0096
2973.00,0.0096
2972.00,0.0097
2971.00,0.0097
2970.00,0.0098
2969.00,0.0099
2968.00,0.0099
2967.00,0.0100
2966.00,0.0100
2965.00,0.0101
2964.00,0.0101
2963.00,0.0101
2962.00,0.0101
2961.00,0.0101
2960.00,0.0101
2959.00,0.0101
2958.00,0.0101
2957.00,0.0101
2956.00,0.0101
2955.00,0.0101
2954.00,0.0100
2953.00,0.0100
2952.00,0.0100
2951.00,0.0099
2950.00,0.0099
2949.00,0.0099
2948.00,0.0100
2947.00,0.0101
2946.00,0.0102
2945.00,0.0103
2944.00,0.0105
2943.00,0.0107
2942.00,0.0110
2941.00,0.0113
2940.00,0.0115
2939.00,0.0118
2938.00,0.0121
2937.00,0.0124
2936.00,0.0127
2935.00,0.0131
2934.00,0.0135
2933.00,0.0138
2932.00,0.0142
2931.00,0.0145
2930.00,0.0149
2929.00,0.0152
2928.00,0.0155
2927.00,0.0158
2926.00,0.0161
2925.00,0.0164
2924.00,0.0167
2923.00,0.0169
2922.00,0.0171
2921.00,0.0172
2920.00,0.0173
2919.00,0.0172
2918.00,0.0170
2917.00,0.0167
2916.00,0.0162
2915.00,0.0155
2914.00,0.0148
2913.00,0.0142
2912.00,0.0135
2911.00,0.0130
2910.00,0.0125
2909.00,0.0121
2908.00,0.0117
2907.00,0.0114
2906.00,0.0111
2905.00,0.0108
2904.00,0.0106
2903.00,0.0104
2902.00,0.0103
2901.00,0.0101
2900.00,0.0100
2899.00,0.0098
2898.00,0.0097
2897.00,0.0095
2896.00,0.0094
2895.00,0.0093
2894.00,0.0092
2893.00,0.0090
2892.00,0.0089
2891.00,0.0088
2890.00,0.0087
2889.00,0.0085
2888.00,0.0084
2887.00,0.0083
2886.00,0.0083
2885.00,0.0082
2884.00,0.0082
2883.00,0.0081
2882.00,0.0081
2881.00,0.0081
2880.00,0.0081
2879.00,0.0081
2878.00,0.0082
2877.00,0.0082
2876.00,0.0082
2875.00,0.0082
2874.00,0.0082
2873.00,0.0082
2872.00,0.0081
2871.00,0.0081
2870.00,0.0080
2869.00,0.0079
2868.00,0.0079
2867.00,0.0078
2866.00,0.0078
2865.00,0.0078
2864.00,0.0079
2863.00,0.0080
2862.00,0.0082
2861.00,0.0084
2860.00,0.0087
2859.00,0.0089
2858.00,0.0093
2857.00,0.0096
2856.00,0.0100
2855.00,0.0104
2854.00,0.0108
2853.00,0.0111
2852.00,0.0115
2851.00,0.0116
2850.00,0.0116
2849.00,0.0113
2848.00,0.0108
2847.00,0.0101
2846.00,0.0094
2845.00,0.0088
2844.00,0.0081
2843.00,0.0076
2842.00,0.0072
2841.00,0.0069
2840.00,0.0066
2839.00,0.0064
2838.00,0.0062
2837.00,0.0061
2836.00,0.0059
2835.00,0.0059
2834.00,0.0058
2833.00,0.0057
2832.00,0.0056
2831.00,0.0056
2830.00,0.0055
2829.00,0.0055
2828.00,0.0054
2827.00,0.0054
2826.00,0.0053
2825.00,0.0053
2824.00,0.0053
2823.00,0.0053
2822.00,0.0052
2821.00,0.0052
2820.00,0.0052
2819.00,0.0051
2818.00,0.0051
2817.00,0.0051
2816.00,0.0051
2815.00,0.0051
2814.00,0.0051
2813.00,0.0050
2812.00,0.0050
2811.00,0.0050
2810.00,0.0050
2809.00,0.0049
2808.00,0.0049
2807.00,0.0049
2806.00,0.0049
2805.00,0.0049
2804.00,0.0049
2803.00,0.0049
2802.00,0.0049
2801.00,0.0048
2800.00,0.0048
2799.00,0.0048
2798.00,0.0048
2797.00,0.0048
2796.00,0.0048
2795.00,0.0047
2794.00,0.0047
2793.00,0.0047
2792.00,0.0046
2791.00,0.0046
2790.00,0.0046
2789.00,0.0046
2788.00,0.0046
2787.00,0.0045
2786.00,0.0045
2785.00,0.0045
2784.00,0.0045
2783.00,0.0045
2782.00,0.0045
2781.00,0.0045
2780.00,0.0045
2779.00,0.0044
2778.00,0.0044
2777.00,0.0044
2776.00,0.0044
2775.00,0.0044
2774.00,0.0044
2773.00,0.0043
2772.00,0.0043
2771.00,0.0043
2770.00,0.0042
2769.00,0.0042
2768.00,0.0042
2767.00,0.0042
2766.00,0.0042
2765.00,0.0042
2764.00,0.0042
2763.00,0.0042
2762.00,0.0042
2761.00,0.0042
2760.00,0.0042
2759.00,0.0041
2758.00,0.0041
2757.00,0.0041
2756.00,0.0040
2755.00,0.0040
2754.00,0.0040
2753.00,0.0040
2752.00,0.0039
2751.00,0.0039
2750.00,0.0039
2749.00,0.0039
2748.00,0.0039
2747.00,0.0039
2746.00,0.0039
2745.00,0.0039
2744.00,0.0039
2743.00,0.0038
2742.00,0.0038
2741.00,0.0038
2740.00,0.0037
2739.00,0.0037
2738.00,0.0037
2737.00,0.0037
2736.00,0.0037
2735.00,0.0037
2734.00,0.0037
2733.00,0.0037
2732.00,0.0036
2731.00,0.0036
2730.00,0.0036
2729.00,0.0036
2728.00,0.0036
2727.00,0.0036
2726.00,0.0036
2725.00,0.0036
2724.00,0.0035
2723.00,0.0035
2722.00,0.0035
2721.00,0.0035
2720.00,0.0034
2719.00,0.0034
2718.00,0.0034
2717.00,0.0034
2716.00,0.0034
2715.00,0.0034
2714.00,0.0034
2713.00,0.0034
2712.00,0.0034
2711.00,0.0034
2710.00,0.0034
2709.00,0.0034
2708.00,0.0034
2707.00,0.0034
2706.00,0.0034
2705.00,0.0034
2704.00,0.0034
2703.00,0.0034
2702.00,0.0034
2701.00,0.0034
2700.00,0.0034
2699.00,0.0033
2698.00,0.0033
2697.00,0.0033
2696.00,0.0033
2695.00,0.0033
2694.00,0.0032
2693.00,0.0032
2692.00,0.0032
2691.00,0.0033
2690.00,0.0033
2689.00,0.0033
2688.00,0.0032
2687.00,0.0032
2686.00,0.0032
2685.00,0.0032
2684.00,0.0032
2683.00,0.0032
2682.00,0.0032
2681.00,0.0032
2680.00,0.0032
2679.00,0.0032
2678.00,0.0032
2677.00,0.0032
2676.00,0.0031
2675.00,0.0031
2674.00,0.0031
2673.00,0.0031
2672.00,0.0031
2671.00,0.0031
2670.00,0.0031
2669.00,0.0031
2668.00,0.0031
2667.00,0.0031
2666.00,0.0031
2665.00,0.0031
2664.00,0.0030
2663.00,0.0030
2662.00,0.0030
2661.00,0.0030
2660.00,0.0030
2659.00,0.0030
2658.00,0.0030
2657.00,0.0030
2656.00,0.0030
2655.00,0.0030
2654.00,0.0030
2653.00,0.0029
2652.00,0.0029
2651.00,0.0029
2650.00,0.0029
2649.00,0.0029
2648.00,0.0029
2647.00,0.0029
2646.00,0.0029
2645.00,0.0029
2644.00,0.0029
2643.00,0.0029
2642.00,0.0029
2641.00,0.0028
2640.00,0.0028
2639.00,0.0028
2638.00,0.0028
2637.00,0.0028
2636.00,0.0028
2635.00,0.0028
2634.00,0.0028
2633.00,0.0028
2632.00,0.0028
2631.00,0.0028
2630.00,0.0028
2629.00,0.0028
2628.00,0.0028
2627.00,0.0028
2626.00,0.0028
2625.00,0.0028
2624.00,0.0028
2623.00,0.0029
2622.00,0.0029
2621.00,0.0028
2620.00,0.0028
2619.00,0.0028
2618.00,0.0027
2617.00,0.0027
2616.00,0.0028
2615.00,0.0028
2614.00,0.0028
2613.00,0.0028
2612.00,0.0028
2611.00,0.0027
2610.00,0.0027
2609.00,0.0027
2608.00,0.0027
2607.00,0.0026
2606.00,0.0026
2605.00,0.0026
2604.00,0.0026
2603.00,0.0026
2602.00,0.0027
2601.00,0.0027
2600.00,0.0026
2599.00,0.0026
2598.00,0.0026
2597.00,0.0026
2596.00,0.0026
2595.00,0.0026
2594.00,0.0025
2593.00,0.0025
2592.00,0.0025
2591.00,0.0025
2590.00,0.0025
2589.00,0.0024
2588.00,0.0024
2587.00,0.0024
2586.00,0.0024
2585.00,0.0024
2584.00,0.0024
2583.00,0.0024
2582.00,0.0024
2581.00,0.0024
2580.00,0.0024
2579.00,0.0024
2578.00,0.0025
2577.00,0.0025
2576.00,0.0025
2575.00,0.0025
2574.00,0.0025
2573.00,0.0025
2572.00,0.0024
2571.00,0.0024
2570.00,0.0024
2569.00,0.0024
2568.00,0.0023
2567.00,0.0023
2566.00,0.0023
2565.00,0.0022
2564.00,0.0022
2563.00,0.0022
2562.00,0.0023
2561.00,0.0023
2560.00,0.0023
2559.00,0.0022
2558.00,0.0022
2557.00,0.0022
2556.00,0.0022
2555.00,0.0022
2554.00,0.0023
2553.00,0.0023
2552.00,0.0023
2551.00,0.0023
2550.00,0.0022
2549.00,0.0022
2548.00,0.0022
2547.00,0.0022
2546.00,0.0022
2545.00,0.0022
2544.00,0.0022
2543.00,0.0022
2542.00,0.0022
2541.00,0.0022
2540.00,0.0022
2539.00,0.0022
2538.00,0.0022
2537.00,0.0022
2536.00,0.0022
2535.00,0.0022
2534.00,0.0021
2533.00,0.0021
2532.00,0.0021
2531.00,0.0020
2530.00,0.0020
2529.00,0.0020
2528.00,0.0020
2527.00,0.0020
2526.00,0.0021
2525.00,0.0021
2524.00,0.0022
2523.00,0.0022
2522.00,0.0021
2521.00,0.0021
2520.00,0.0021
2519.00,0.0021
2518.00,0.0021
2517.00,0.0020
2516.00,0.0020
2515.00,0.0021
2514.00,0.0021
2513.00,0.0021
2512.00,0.0021
2511.00,0.0020
2510.00,0.0020
2509.00,0.0020
2508.00,0.0020
2507.00,0.0020
2506.00,0.0021
2505.00,0.0021
2504.00,0.0021
2503.00,0.0021
2502.00,0.0021
2501.00,0.0021
2500.00,0.0021
2499.00,0.0020
2498.00,0.0020
2497.00,0.0020
2496.00,0.0020
2495.00,0.0020
2494.00,0.0020
2493.00,0.0020
2492.00,0.0020
2491.00,0.0020
2490.00,0.0020
2489.00,0.0020
2488.00,0.0020
2487.00,0.0020
2486.00,0.0020
2485.00,0.0020
2484.00,0.0019
2483.00,0.0019
2482.00,0.0019
2481.00,0.0020
2480.00,0.0020
2479.00,0.0020
2478.00,0.0020
2477.00,0.0020
2476.00,0.0020
2475.00,0.0020
2474.00,0.0020
2473.00,0.0020
2472.00,0.0020
2471.00,0.0020
2470.00,0.0020
2469.00,0.0019
2468.00,0.0019
2467.00,0.0019
2466.00,0.0019
2465.00,0.0019
2464.00,0.0019
2463.00,0.0020
2462.00,0.0020
2461.00,0.0020
2460.00,0.0020
2459.00,0.0020
2458.00,0.0020
2457.00,0.0019
2456.00,0.0019
2455.00,0.0019
2454.00,0.0019
2453.00,0.0019
2452.00,0.0019
2451.00,0.0019
2450.00,0.0019
2449.00,0.0019
2448.00,0.0019
2447.00,0.0019
2446.00,0.0019
2445.00,0.0019
2444.00,0.0019
2443.00,0.0019
2442.00,0.0019
2441.00,0.0019
2440.00,0.0019
2439.00,0.0019
2438.00,0.0019
2437.00,0.0019
2436.00,0.0019
2435.00,0.0019
2434.00,0.0019
2433.00,0.0019
2432.00,0.0019
2431.00,0.0019
2430.00,0.0019
2429.00,0.0019
2428.00,0.0018
2427.00,0.0018
2426.00,0.0017
2425.00,0.0017
2424.00,0.0017
2423.00,0.0017
2422.00,0.0017
2421.00,0.0017
2420.00,0.0017
2419.00,0.0017
2418.00,0.0017
2417.00,0.0017
2416.00,0.0017
2415.00,0.0017
2414.00,0.0017
2413.00,0.0017
2412.00,0.0017
2411.00,0.0017
2410.00,0.0017
2409.00,0.0016
2408.00,0.0016
2407.00,0.0016
2406.00,0.0016
2405.00,0.0016
2404.00,0.0016
2403.00,0.0016
2402.00,0.0016
2401.00,0.0017
2400.00,0.0017
2399.00,0.0017
2398.00,0.0017
2397.00,0.0017
2396.00,0.0017
2395.00,0.0017
2394.00,0.0017
2393.00,0.0017
2392.00,0.0017
2391.00,0.0017
2390.00,0.0017
2389.00,0.0016
2388.00,0.0016
2387.00,0.0016
2386.00,0.0016
2385.00,0.0016
2384.00,0.0016
2383.00,0.0016
2382.00,0.0016
2381.00,0.0017
2380.00,0.0017
2379.00,0.0017
2378.00,0.0017
2377.00,0.0017
2376.00,0.0016
2375.00,0.0016
2374.00,0.0016
2373.00,0.0016
2372.00,0.0016
2371.00,0.0016
2370.00,0.0016
2369.00,0.0015
2368.00,0.0016
2367.00,0.0016
2366.00,0.0016
2365.00,0.0016
2364.00,0.0016
2363.00,0.0016
2362.00,0.0016
2361.00,0.0016
2360.00,0.0016
2359.00,0.0016
2358.00,0.0016
2357.00,0.0016
2356.00,0.0016
2355.00,0.0016
2354.00,0.0016
2353.00,0.0016
2352.00,0.0016
2351.00,0.0016
2350.00,0.0016
2349.00,0.0016
2348.00,0.0016
2347.00,0.0016
2346.00,0.0015
2345.00,0.0015
2344.00,0.0015
2343.00,0.0015
2342.00,0.0015
2341.00,0.0015
2340.00,0.0015
2339.00,0.0015
2338.00,0.0016
2337.00,0.0016
2336.00,0.0016
2335.00,0.0017
2334.00,0.0017
2333.00,0.0018
2332.00,0.0018
2331.00,0.0018
2330.00,0.0018
2329.00,0.0018
2328.00,0.0018
2327.00,0.0018
2326.00,0.0018
2325.00,0.0018
2324.00,0.0018
2323.00,0.0018
2322.00,0.0017
2321.00,0.0017
2320.00,0.0017
2319.00,0.0017
2318.00,0.0017
2317.00,0.0017
2316.00,0.0017
2315.00,0.0017
2314.00,0.0017
2313.00,0.0017
2312.00,0.0016
2311.00,0.0017
2310.00,0.0017
2309.00,0.0017
2308.00,0.0018
2307.00,0.0018
2306.00,0.0018
2305.00,0.0018
2304.00,0.0017
2303.00,0.0017
2302.00,0.0016
2301.00,0.0016
2300.00,0.0016
2299.00,0.0016
2298.00,0.0016
2297.00,0.0016
2296.00,0.0016
2295.00,0.0016
2294.00,0.0016
2293.00,0.0017
2292.00,0.0017
2291.00,0.0017
2290.00,0.0017
2289.00,0.0017
2288.00,0.0017
2287.00,0.0016
2286.00,0.0016
2285.00,0.0016
2284.00,0.0016
2283.00,0.0016
2282.00,0.0016
2281.00,0.0017
2280.00,0.0017
2279.00,0.0016
2278.00,0.0016
2277.00,0.0015
2276.00,0.0014
2275.00,0.0014
2274.00,0.0014
2273.00,0.0014
2272.00,0.0015
2271.00,0.0015
2270.00,0.0016
2269.00,0.0016
2268.00,0.0016
2267.00,0.0015
2266.00,0.0015
2265.00,0.0016
2264.00,0.0016
2263.00,0.0015
2262.00,0.0015
2261.00,0.0015
2260.00,0.0015
2259.00,0.0015
2258.00,0.0014
2257.00,0.0014
2256.00,0.0014
2255.00,0.0015
2254.00,0.0015
2253.00,0.0015
2252.00,0.0014
2251.00,0.0014
2250.00,0.0014
2249.00,0.0014
2248.00,0.0014
2247.00,0.0015
2246.00,0.0015
2245.00,0.0015
2244.00,0.0014
2243.00,0.0013
2242.00,0.0013
2241.00,0.0013
2240.00,0.0013
2239.00,0.0014
2238.00,0.0014
2237.00,0.0014
2236.00,0.0014
2235.00,0.0015
2234.00,0.0015
2233.00,0.0015
2232.00,0.0015
2231.00,0.0015
2230.00,0.0015
2229.00,0.0014
2228.00,0.0013
2227.00,0.0012
2226.00,0.0011
2225.00,0.0011
2224.00,0.0011
2223.00,0.0011
2222.00,0.0011
2221.00,0.0012
2220.00,0.0013
2219.00,0.0013
2218.00,0.0013
2217.00,0.0013
2216.00,0.0012
2215.00,0.0013
2214.00,0.0013
2213.00,0.0014
2212.00,0.0014
2211.00,0.0014
2210.00,0.0014
2209.00,0.0014
2208.00,0.0014
2207.00,0.0014
2206.00,0.0013
2205.00,0.0013
2204.00,0.0012
2203.00,0.0012
2202.00,0.0011
2201.00,0.0012
2200.00,0.0012
2199.00,0.0012
2198.00,0.0012
2197.00,0.0011
2196.00,0.0010
2195.00,0.0010
2194.00,0.0010
2193.00,0.0010
2192.00,0.0010
2191.00,0.0011
2190.00,0.0011
2189.00,0.0012
2188.00,0.0013
2187.00,0.0013
2186.00,0.0013
2185.00,0.0014
2184.00,0.0014
2183.00,0.0014
2182.00,0.0015
2181.00,0.0016
2180.00,0.0017
2179.00,0.0017
2178.00,0.0017
2177.00,0.0016
2176.00,0.0015
2175.00,0.0014
2174.00,0.0013
2173.00,0.0015
2172.00,0.0016
2171.00,0.0017
2170.00,0.0017
2169.00,0.0017
2168.00,0.0017
2167.00,0.0017
2166.00,0.0016
2165.00,0.0014
2164.00,0.0012
2163.00,0.0010
2162.00,0.0009
2161.00,0.0009
2160.00,0.0010
2159.00,0.0011
2158.00,0.0011
2157.00,0.0011
2156.00,0.0010
2155.00,0.0009
2154.00,0.0008
2153.00,0.0008
2152.00,0.0008
2151.00,0.0009
2150.00,0.0010
2149.00,0.0011
2148.00,0.0011
2147.00,0.0010
2146.00,0.0010
2145.00,0.0011
2144.00,0.0011
2143.00,0.0012
2142.00,0.0012
2141.00,0.0012
2140.00,0.0011
2139.00,0.0012
2138.00,0.0013
2137.00,0.0014
2136.00,0.0013
2135.00,0.0012
2134.00,0.0011
2133.00,0.0011
2132.00,0.0011
2131.00,0.0012
2130.00,0.0013
2129.00,0.0013
2128.00,0.0013
2127.00,0.0012
2126.00,0.0012
2125.00,0.0012
2124.00,0.0013
2123.00,0.0013
2122.00,0.0013
2121.00,0.0014
2120.00,0.0015
2119.00,0.0015
2118.00,0.0015
2117.00,0.0015
2116.00,0.0016
2115.00,0.0016
2114.00,0.0015
2113.00,0.0015
2112.00,0.0015
2111.00,0.0015
2110.00,0.0015
2109.00,0.0015
2108.00,0.0014
2107.00,0.0014
2106.00,0.0013
2105.00,0.0013
2104.00,0.0014
2103.00,0.0015
2102.00,0.0016
2101.00,0.0016
2100.00,0.0016
2099.00,0.0015
2098.00,0.0015
2097.00,0.0015
2096.00,0.0016
2095.00,0.0016
2094.00,0.0016
2093.00,0.0015
2092.00,0.0014
2091.00,0.0013
2090.00,0.0013
2089.00,0.0013
2088.00,0.0013
2087.00,0.0014
2086.00,0.0015
2085.00,0.0015
2084.00,0.0015
2083.00,0.0015
2082.00,0.0015
2081.00,0.0015
2080.00,0.0014
2079.00,0.0014
2078.00,0.0014
2077.00,0.0014
2076.00,0.0014
2075.00,0.0014
2074.00,0.0014
2073.00,0.0015
2072.00,0.0015
2071.00,0.0015
2070.00,0.0015
2069.00,0.0014
2068.00,0.0012
2067.00,0.0011
2066.00,0.0010
2065.00,0.0010
2064.00,0.0011
2063.00,0.0013
2062.00,0.0014
2061.00,0.0014
2060.00,0.0014
2059.00,0.0014
2058.00,0.0014
2057.00,0.0014
2056.00,0.0014
2055.00,0.0014
2054.00,0.0013
2053.00,0.0012
2052.00,0.0011
2051.00,0.0010
2050.00,0.0011
2049.00,0.0012
2048.00,0.0013
2047.00,0.0013
2046.00,0.0012
2045.00,0.0011
2044.00,0.0009
2043.00,0.0009
2042.00,0.0009
2041.00,0.0010
2040.00,0.0010
2039.00,0.0009
2038.00,0.0008
2037.00,0.0008
2036.00,0.0008
2035.00,0.0008
2034.00,0.0009
2033.00,0.0010
2032.00,0.0010
2031.00,0.0009
2030.00,0.0007
2029.00,0.0006
2028.00,0.0005
2027.00,0.0005
2026.00,0.0007
2025.00,0.0009
2024.00,0.0010
2023.00,0.0011
2022.00,0.0011
2021.00,0.0011
2020.00,0.0009
2019.00,0.0008
2018.00,0.0006
2017.00,0.0006
2016.00,0.0007
2015.00,0.0007
2014.00,0.0008
2013.00,0.0008
2012.00,0.0007
2011.00,0.0006
2010.00,0.0006
2009.00,0.0007
2008.00,0.0009
2007.00,0.0010
2006.00,0.0011
2005.00,0.0011
2004.00,0.0009
2003.00,0.0008
2002.00,0.0007
2001.00,0.0007
2000.00,0.0008
1999.00,0.0009
1998.00,0.0010
1997.00,0.0011
1996.00,0.0011
1995.00,0.0010
1994.00,0.0010
1993.00,0.0011
1992.00,0.0012
1991.00,0.0012
1990.00,0.0011
1989.00,0.0010
1988.00,0.0009
1987.00,0.0008
1986.00,0.0008
1985.00,0.0010
1984.00,0.0011
1983.00,0.0011
1982.00,0.0009
1981.00,0.0007
1980.00,0.0006
1979.00,0.0004
1978.00,0.0004
1977.00,0.0004
1976.00,0.0006
1975.00,0.0007
1974.00,0.0008
1973.00,0.0008
1972.00,0.0008
1971.00,0.0006
1970.00,0.0006
1969.00,0.0006
1968.00,0.0007
1967.00,0.0008
1966.00,0.0010
1965.00,0.0011
1964.00,0.0011
1963.00,0.0010
1962.00,0.0008
1961.00,0.0006
1960.00,0.0006
1959.00,0.0006
1958.00,0.0006
1957.00,0.0006
1956.00,0.0007
1955.00,0.0007
1954.00,0.0007
1953.00,0.0006
1952.00,0.0006
1951.00,0.0006
1950.00,0.0005
1949.00,0.0006
1948.00,0.0007
1947.00,0.0008
1946.00,0.0009
1945.00,0.0010
1944.00,0.0010
1943.00,0.0010
1942.00,0.0009
1941.00,0.0007
1940.00,0.0007
1939.00,0.0007
1938.00,0.0007
1937.00,0.0008
1936.00,0.0008
1935.00,0.0007
1934.00,0.0007
1933.00,0.0006
1932.00,0.0006
1931.00,0.0006
1930.00,0.0007
1929.00,0.0008
1928.00,0.0009
1927.00,0.0010
1926.00,0.0009
1925.00,0.0009
1924.00,0.0008
1923.00,0.0007
1922.00,0.0008
1921.00,0.0009
1920.00,0.0010
1919.00,0.0011
1918.00,0.0011
1917.00,0.0011
1916.00,0.0011
1915.00,0.0012
1914.00,0.0012
1913.00,0.0012
1912.00,0.0011
1911.00,0.0010
1910.00,0.0009
1909.00,0.0009
1908.00,0.0008
1907.00,0.0009
1906.00,0.0009
1905.00,0.0009
1904.00,0.0009
1903.00,0.0009
1902.00,0.0009
1901.00,0.0009
1900.00,0.0008
1899.00,0.0009
1898.00,0.0009
1897.00,0.0009
1896.00,0.0010
1895.00,0.0010
1894.00,0.0010
1893.00,0.0011
1892.00,0.0010
1891.00,0.0010
1890.00,0.0009
1889.00,0.0009
1888.00,0.0009
1887.00,0.0009
1886.00,0.0010
1885.00,0.0009
1884.00,0.0009
1883.00,0.0009
1882.00,0.0009
1881.00,0.0009
1880.00,0.0009
1879.00,0.0009
1878.00,0.0009
1877.00,0.0009
1876.00,0.0009
1875.00,0.0010
1874.00,0.0010
1873.00,0.0010
1872.00,0.0011
1871.00,0.0011
1870.00,0.0011
1869.00,0.0010
1868.00,0.0009
1867.00,0.0009
1866.00,0.0010
1865.00,0.0010
1864.00,0.0010
1863.00,0.0008
1862.00,0.0008
1861.00,0.0007
1860.00,0.0007
1859.00,0.0007
1858.00,0.0008
1857.00,0.0008
1856.00,0.0008
1855.00,0.0009
1854.00,0.0009
1853.00,0.0009
1852.00,0.0009
1851.00,0.0008
1850.00,0.0008
1849.00,0.0008
1848.00,0.0008
1847.00,0.0009
1846.00,0.0011
1845.00,0.0012
1844.00,0.0012
1843.00,0.0011
1842.00,0.0011
1841.00,0.0011
1840.00,0.0010
1839.00,0.0009
1838.00,0.0009
1837.00,0.0009
1836.00,0.0009
1835.00,0.0009
1834.00,0.0010
1833.00,0.0010
1832.00,0.0011
1831.00,0.0010
1830.00,0.0010
1829.00,0.0010
1828.00,0.0010
1827.00,0.0011
1826.00,0.0012
1825.00,0.0012
1824.00,0.0011
1823.00,0.0010
1822.00,0.0011
1821.00,0.0011
1820.00,0.0011
1819.00,0.0010
1818.00,0.0010
1817.00,0.0010
1816.00,0.0010
1815.00,0.0010
1814.00,0.0011
1813.00,0.0012
1812.00,0.0012
1811.00,0.0011
1810.00,0.0012
1809.00,0.0012
1808.00,0.0012
1807.00,0.0011
1806.00,0.0012
1805.00,0.0012
1804.00,0.0011
1803.00,0.0010
1802.00,0.0011
1801.00,0.0013
1800.00,0.0014
1799.00,0.0014
1798.00,0.0014
1797.00,0.0014
1796.00,0.0014
1795.00,0.0014
1794.00,0.0015
1793.00,0.0016
1792.00,0.0015
1791.00,0.0015
1790.00,0.0015
1789.00,0.0016
1788.00,0.0016
1787.00,0.0016
1786.00,0.0016
1785.00,0.0015
1784.00,0.0015
1783.00,0.0014
1782.00,0.0014
1781.00,0.0014
1780.00,0.0015
1779.00,0.0015
1778.00,0.0015
1777.00,0.0015
1776.00,0.0015
1775.00,0.0015
1774.00,0.0015
1773.00,0.0015
1772.00,0.0016
1771.00,0.0016
1770.00,0.0017
1769.00,0.0018
1768.00,0.0019
1767.00,0.0018
1766.00,0.0018
1765.00,0.0018
1764.00,0.0018
1763.00,0.0017
1762.00,0.0016
1761.00,0.0016
1760.00,0.0016
1759.00,0.0017
1758.00,0.0018
1757.00,0.0020
1756.00,0.0021
1755.00,0.0021
1754.00,0.0022
1753.00,0.0024
1752.00,0.0026
1751.00,0.0026
1750.00,0.0026
1749.00,0.0026
1748.00,0.0028
1747.00,0.0028
1746.00,0.0026
1745.00,0.0026
1744.00,0.0026
1743.00,0.0026
1742.00,0.0026
1741.00,0.0027
1740.00,0.0028
1739.00,0.0027
1738.00,0.0025
1737.00,0.0025
1736.00,0.0027
1735.00,0.0027
1734.00,0.0024
1733.00,0.0022
1732.00,0.0022
1731.00,0.0024
1730.00,0.0025
1729.00,0.0026
1728.00,0.0026
1727.00,0.0026
1726.00,0.0026
1725.00,0.0026
1724.00,0.0027
1723.00,0.0028
1722.00,0.0029
1721.00,0.0031
1720.00,0.0033
1719.00,0.0034
1718.00,0.0035
1717.00,0.0037
1716.00,0.0041
1715.00,0.0047
1714.00,0.0053
1713.00,0.0058
1712.00,0.0063
1711.00,0.0068
1710.00,0.0075
1709.00,0.0083
1708.00,0.0094
1707.00,0.0106
1706.00,0.0122
1705.00,0.0139
1704.00,0.0154
1703.00,0.0168
1702.00,0.0185
1701.00,0.0203
1700.00,0.0216
1699.00,0.0220
1698.00,0.0221
1697.00,0.0221
1696.00,0.0221
1695.00,0.0221
1694.00,0.0221
1693.00,0.0222
1692.00,0.0223
1691.00,0.0225
1690.00,0.0227
1689.00,0.0231
1688.00,0.0233
1687.00,0.0234
1686.00,0.0237
1685.00,0.0246
1684.00,0.0262
1683.00,0.0275
1682.00,0.0281
1681.00,0.0285
1680.00,0.0290
1679.00,0.0295
1678.00,0.0299
1677.00,0.0306
1676.00,0.0317
1675.00,0.0329
1674.00,0.0338
1673.00,0.0343
1672.00,0.0349
1671.00,0.0358
1670.00,0.0370
1669.00,0.0383
1668.00,0.0395
1667.00,0.0401
1666.00,0.0405
1665.00,0.0410
1664.00,0.0420
1663.00,0.0434
1662.00,0.0450
1661.00,0.0463
1660.00,0.0473
1659.00,0.0481
1658.00,0.0486
1657.00,0.0488
1656.00,0.0488
1655.00,0.0490
1654.00,0.0507
1653.00,0.0544
1652.00,0.0573
1651.00,0.0580
1650.00,0.0579
1649.00,0.0580
1648.00,0.0588
1647.00,0.0607
1646.00,0.0629
1645.00,0.0644
1644.00,0.0651
1643.00,0.0656
1642.00,0.0662
1641.00,0.0670
1640.00,0.0677
1639.00,0.0684
1638.00,0.0690
1637.00,0.0705
1636.00,0.0733
1635.00,0.0766
1634.00,0.0785
1633.00,0.0791
1632.00,0.0794
1631.00,0.0798
1630.00,0.0805
1629.00,0.0815
1628.00,0.0827
1627.00,0.0836
1626.00,0.0839
1625.00,0.0838
1624.00,0.0838
1623.00,0.0838
1622.00,0.0832
1621.00,0.0816
1620.00,0.0793
1619.00,0.0767
1618.00,0.0742
1617.00,0.0719
1616.00,0.0700
1615.00,0.0680
1614.00,0.0656
1613.00,0.0628
1612.00,0.0601
1611.00,0.0575
1610.00,0.0549
1609.00,0.0524
1608.00,0.0499
1607.00,0.0476
1606.00,0.0453
1605.00,0.0431
1604.00,0.0411
1603.00,0.0393
1602.00,0.0378
1601.00,0.0364
1600.00,0.0352
1599.00,0.0341
1598.00,0.0331
1597.00,0.0322
1596.00,0.0313
1595.00,0.0305
1594.00,0.0298
1593.00,0.0290
1592.00,0.0283
1591.00,0.0276
1590.00,0.0270
1589.00,0.0264
1588.00,0.0259
1587.00,0.0256
1586.00,0.0253
1585.00,0.0251
1584.00,0.0250
1583.00,0.0250
1582.00,0.0251
1581.00,0.0251
1580.00,0.0250
1579.00,0.0249
1578.00,0.0250
1577.00,0.0254
1576.00,0.0265
1575.00,0.0276
1574.00,0.0283
1573.00,0.0286
1572.00,0.0290
1571.00,0.0297
1570.00,0.0309
1569.00,0.0322
1568.00,0.0333
1567.00,0.0341
1566.00,0.0347
1565.00,0.0355
1564.00,0.0361
1563.00,0.0363
1562.00,0.0362
1561.00,0.0363
1560.00,0.0377
1559.00,0.0410
1558.00,0.0440
1557.00,0.0447
1556.00,0.0448
1555.00,0.0451
1554.00,0.0458
1553.00,0.0465
1552.00,0.0471
1551.00,0.0478
1550.00,0.0487
1549.00,0.0496
1548.00,0.0503
1547.00,0.0506
1546.00,0.0510
1545.00,0.0514
1544.00,0.0520
1543.00,0.0525
1542.00,0.0531
1541.00,0.0545
1540.00,0.0568
1539.00,0.0590
1538.00,0.0599
1537.00,0.0598
1536.00,0.0595
1535.00,0.0597
1534.00,0.0607
1533.00,0.0622
1532.00,0.0632
1531.00,0.0636
1530.00,0.0637
1529.00,0.0638
1528.00,0.0641
1527.00,0.0646
1526.00,0.0654
1525.00,0.0659
1524.00,0.0660
1523.00,0.0661
1522.00,0.0671
1521.00,0.0688
1520.00,0.0701
1519.00,0.0708
1518.00,0.0715
1517.00,0.0725
1516.00,0.0733
1515.00,0.0734
1514.00,0.0728
1513.00,0.0717
1512.00,0.0702
1511.00,0.0686
1510.00,0.0668
1509.00,0.0651
1508.00,0.0636
1507.00,0.0631
1506.00,0.0631
1505.00,0.0620
1504.00,0.0600
1503.00,0.0580
1502.00,0.0561
1501.00,0.0543
1500.00,0.0526
1499.00,0.0509
1498.00,0.0493
1497.00,0.0479
1496.00,0.0465
1495.00,0.0450
1494.00,0.0436
1493.00,0.0421
1492.00,0.0407
1491.00,0.0392
1490.00,0.0379
1489.00,0.0368
1488.00,0.0356
1487.00,0.0345
1486.00,0.0334
1485.00,0.0323
1484.00,0.0312
1483.00,0.0302
1482.00,0.0294
1481.00,0.0287
1480.00,0.0281
1479.00,0.0275
1478.00,0.0270
1477.00,0.0267
1476.00,0.0263
1475.00,0.0262
1474.00,0.0263
1473.00,0.0267
1472.00,0.0271
1471.00,0.0271
1470.00,0.0269
1469.00,0.0266
1468.00,0.0263
1467.00,0.0262
1466.00,0.0264
1465.00,0.0270
1464.00,0.0275
1463.00,0.0278
1462.00,0.0278
1461.00,0.0277
1460.00,0.0276
1459.00,0.0275
1458.00,0.0282
1457.00,0.0299
1456.00,0.0316
1455.00,0.0325
1454.00,0.0331
1453.00,0.0337
1452.00,0.0343
1451.00,0.0349
1450.00,0.0353
1449.00,0.0358
1448.00,0.0363
1447.00,0.0365
1446.00,0.0365
1445.00,0.0364
1444.00,0.0362
1443.00,0.0359
1442.00,0.0356
1441.00,0.0352
1440.00,0.0347
1439.00,0.0341
1438.00,0.0334
1437.00,0.0329
1436.00,0.0323
1435.00,0.0314
1434.00,0.0304
1433.00,0.0295
1432.00,0.0286
1431.00,0.0277
1430.00,0.0269
1429.00,0.0263
1428.00,0.0258
1427.00,0.0252
1426.00,0.0247
1425.00,0.0245
1424.00,0.0244
1423.00,0.0242
1422.00,0.0238
1421.00,0.0235
1420.00,0.0234
1419.00,0.0236
1418.00,0.0239
1417.00,0.0242
1416.00,0.0243
1415.00,0.0241
1414.00,0.0239
1413.00,0.0238
1412.00,0.0237
1411.00,0.0236
1410.00,0.0235
1409.00,0.0234
1408.00,0.0232
1407.00,0.0229
1406.00,0.0227
1405.00,0.0225
1404.00,0.0224
1403.00,0.0221
1402.00,0.0216
1401.00,0.0213
1400.00,0.0210
1399.00,0.0208
1398.00,0.0206
1397.00,0.0203
1396.00,0.0201
1395.00,0.0199
1394.00,0.0199
1393.00,0.0198
1392.00,0.0197
1391.00,0.0195
1390.00,0.0192
1389.00,0.0189
1388.00,0.0188
1387.00,0.0188
1386.00,0.0188
1385.00,0.0187
1384.00,0.0185
1383.00,0.0183
1382.00,0.0181
1381.00,0.0179
1380.00,0.0178
1379.00,0.0177
1378.00,0.0176
1377.00,0.0174
1376.00,0.0172
1375.00,0.0171
1374.00,0.0172
1373.00,0.0172
1372.00,0.0173
1371.00,0.0173
1370.00,0.0172
1369.00,0.0171
1368.00,0.0169
1367.00,0.0166
1366.00,0.0161
1365.00,0.0155
1364.00,0.0149
1363.00,0.0143
1362.00,0.0138
1361.00,0.0134
1360.00,0.0131
1359.00,0.0127
1358.00,0.0124
1357.00,0.0120
1356.00,0.0118
1355.00,0.0116
1354.00,0.0114
1353.00,0.0113
1352.00,0.0112
1351.00,0.0111
1350.00,0.0111
1349.00,0.0111
1348.00,0.0111
1347.00,0.0112
1346.00,0.0112
1345.00,0.0112
1344.00,0.0112
1343.00,0.0112
1342.00,0.0111
1341.00,0.0110
1340.00,0.0110
1339.00,0.0111
1338.00,0.0112
1337.00,0.0113
1336.00,0.0113
1335.00,0.0112
1334.00,0.0112
1333.00,0.0110
1332.00,0.0109
1331.00,0.0107
1330.00,0.0105
1329.00,0.0103
1328.00,0.0101
1327.00,0.0100
1326.00,0.0098
1325.00,0.0096
1324.00,0.0095
1323.00,0.0094
1322.00,0.0093
1321.00,0.0092
1320.00,0.0092
1319.00,0.0092
1318.00,0.0093
1317.00,0.0094
1316.00,0.0095
1315.00,0.0096
1314.00,0.0097
1313.00,0.0098
1312.00,0.0100
1311.00,0.0101
1310.00,0.0102
1309.00,0.0103
1308.00,0.0104
1307.00,0.0105
1306.00,0.0106
1305.00,0.0108
1304.00,0.0109
1303.00,0.0110
1302.00,0.0111
1301.00,0.0112
1300.00,0.0113
1299.00,0.0115
1298.00,0.0116
1297.00,0.0117
1296.00,0.0118
1295.00,0.0120
1294.00,0.0121
1293.00,0.0122
1292.00,0.0124
1291.00,0.0125
1290.00,0.0127
1289.00,0.0130
1288.00,0.0132
1287.00,0.0135
1286.00,0.0137
1285.00,0.0140
1284.00,0.0143
1283.00,0.0146
1282.00,0.0149
1281.00,0.0152
1280.00,0.0156
1279.00,0.0161
1278.00,0.0166
1277.00,0.0172
1276.00,0.0178
1275.00,0.0185
1274.00,0.0192
1273.00,0.0199
1272.00,0.0206
1271.00,0.0214
1270.00,0.0222
1269.00,0.0229
1268.00,0.0235
1267.00,0.0242
1266.00,0.0247
1265.00,0.0252
1264.00,0.0256
1263.00,0.0260
1262.00,0.0262
1261.00,0.0264
1260.00,0.0265
1259.00,0.0266
1258.00,0.0266
1257.00,0.0265
1256.00,0.0265
1255.00,0.0265
1254.00,0.0265
1253.00,0.0265
1252.00,0.0265
1251.00,0.0266
1250.00,0.0268
1249.00,0.0270
1248.00,0.0272
1247.00,0.0274
1246.00,0.0276
1245.00,0.0279
1244.00,0.0281
1243.00,0.0284
1242.00,0.0287
1241.00,0.0291
1240.00,0.0294
1239.00,0.0298
1238.00,0.0302
1237.00,0.0306
1236.00,0.0311
1235.00,0.0315
1234.00,0.0318
1233.00,0.0321
1232.00,0.0323
1231.00,0.0324
1230.00,0.0323
1229.00,0.0322
1228.00,0.0319
1227.00,0.0315
1226.00,0.0311
1225.00,0.0305
1224.00,0.0300
1223.00,0.0293
1222.00,0.0286
1221.00,0.0279
1220.00,0.0271
1219.00,0.0262
1218.00,0.0254
1217.00,0.0245
1216.00,0.0236
1215.00,0.0227
1214.00,0.0218
1213.00,0.0208
1212.00,0.0199
1211.00,0.0190
1210.00,0.0181
1209.00,0.0172
1208.00,0.0163
1207.00,0.0155
1206.00,0.0147
1205.00,0.0139
1204.00,0.0132
1203.00,0.0125
1202.00,0.0119
1201.00,0.0113
1200.00,0.0109
1199.00,0.0105
1198.00,0.0101
1197.00,0.0097
1196.00,0.0094
1195.00,0.0092
1194.00,0.0089
1193.00,0.0087
1192.00,0.0086
1191.00,0.0084
1190.00,0.0083
1189.00,0.0082
1188.00,0.0081
1187.00,0.0081
1186.00,0.0081
1185.00,0.0082
1184.00,0.0084
1183.00,0.0085
1182.00,0.0087
1181.00,0.0089
1180.00,0.0093
1179.00,0.0097
1178.00,0.0101
1177.00,0.0106
1176.00,0.0111
1175.00,0.0116
1174.00,0.0119
1173.00,0.0123
1172.00,0.0126
1171.00,0.0128
1170.00,0.0130
1169.00,0.0131
1168.00,0.0131
1167.00,0.0132
1166.00,0.0132
1165.00,0.0132
1164.00,0.0131
1163.00,0.0130
1162.00,0.0128
1161.00,0.0126
1160.00,0.0124
1159.00,0.0121
1158.00,0.0118
1157.00,0.0114
1156.00,0.0110
1155.00,0.0106
1154.00,0.0101
1153.00,0.0097
1152.00,0.0092
1151.00,0.0088
1150.00,0.0084
1149.00,0.0081
1148.00,0.0079
1147.00,0.0077
1146.00,0.0076
1145.00,0.0074
1144.00,0.0072
1143.00,0.0070
1142.00,0.0068
1141.00,0.0067
1140.00,0.0067
1139.00,0.0066
1138.00,0.0066
1137.00,0.0066
1136.00,0.0066
1135.00,0.0066
1134.00,0.0067
1133.00,0.0068
1132.00,0.0070
1131.00,0.0072
1130.00,0.0074
1129.00,0.0075
1128.00,0.0076
1127.00,0.0078
1126.00,0.0079
1125.00,0.0081
1124.00,0.0083
1123.00,0.0085
1122.00,0.0087
1121.00,0.0088
1120.00,0.0089
1119.00,0.0091
1118.00,0.0092
1117.00,0.0094
1116.00,0.0096
1115.00,0.0098
1114.00,0.0100
1113.00,0.0102
1112.00,0.0103
1111.00,0.0105
1110.00,0.0107
1109.00,0.0108
1108.00,0.0109
1107.00,0.0109
1106.00,0.0110
1105.00,0.0110
1104.00,0.0111
1103.00,0.0111
1102.00,0.0110
1101.00,0.0109
1100.00,0.0108
1099.00,0.0106
1098.00,0.0104
1097.00,0.0102
1096.00,0.0101
1095.00,0.0100
1094.00,0.0100
1093.00,0.0099
1092.00,0.0098
1091.00,0.0098
1090.00,0.0098
1089.00,0.0097
1088.00,0.0097
1087.00,0.0097
1086.00,0.0096
1085.00,0.0096
1084.00,0.0097
1083.00,0.0098
1082.00,0.0098
1081.00,0.0098
1080.00,0.0099
1079.00,0.0099
1078.00,0.0100
1077.00,0.0101
1076.00,0.0101
1075.00,0.0102
1074.00,0.0102
1073.00,0.0101
1072.00,0.0101
1071.00,0.0101
1070.00,0.0101
1069.00,0.0102
1068.00,0.0102
1067.00,0.0103
1066.00,0.0103
1065.00,0.0103
1064.00,0.0103
1063.00,0.0102
1062.00,0.0102
1061.00,0.0102
1060.00,0.0102
1059.00,0.0102
1058.00,0.0101
1057.00,0.0099
1056.00,0.0097
1055.00,0.0096
1054.00,0.0094
1053.00,0.0092
1052.00,0.0091
1051.00,0.0090
1050.00,0.0090
1049.00,0.0089
1048.00,0.0088
1047.00,0.0086
1046.00,0.0083
1045.00,0.0080
1044.00,0.0076
1043.00,0.0073
1042.00,0.0069
1041.00,0.0065
1040.00,0.0060
1039.00,0.0056
1038.00,0.0052
1037.00,0.0049
1036.00,0.0046
1035.00,0.0044
1034.00,0.0043
1033.00,0.0042
1032.00,0.0043
1031.00,0.0044
1030.00,0.0045
1029.00,0.0047
1028.00,0.0049
1027.00,0.0051
1026.00,0.0055
1025.00,0.0058
1024.00,0.0063
1023.00,0.0067
1022.00,0.0072
1021.00,0.0076
1020.00,0.0081
1019.00,0.0086
1018.00,0.0091
1017.00,0.0096
1016.00,0.0101
1015.00,0.0105
1014.00,0.0108
1013.00,0.0110
1012.00,0.0111
1011.00,0.0111
1010.00,0.0111
1009.00,0.0112
1008.00,0.0113
1007.00,0.0114
1006.00,0.0116
1005.00,0.0119
1004.00,0.0121
1003.00,0.0124
1002.00,0.0126
1001.00,0.0127
1000.00,0.0128
999.00,0.0128
998.00,0.0128
997.00,0.0127
996.00,0.0125
995.00,0.0123
994.00,0.0119
993.00,0.0114
992.00,0.0110
991.00,0.0105
990.00,0.0101
989.00,0.0097
988.00,0.0094
987.00,0.0092
986.00,0.0091
985.00,0.0091
984.00,0.0093
983.00,0.0094
982.00,0.0096
981.00,0.0098
980.00,0.0100
979.00,0.0101
978.00,0.0102
977.00,0.0102
976.00,0.0102
975.00,0.0101
974.00,0.0099
973.00,0.0097
972.00,0.0094
971.00,0.0090
970.00,0.0086
969.00,0.0082
968.00,0.0078
967.00,0.0074
966.00,0.0070
965.00,0.0067
964.00,0.0064
963.00,0.0061
962.00,0.0058
961.00,0.0056
960.00,0.0054
959.00,0.0053
958.00,0.0052
957.00,0.0052
956.00,0.0052
955.00,0.0051
954.00,0.0051
953.00,0.0050
952.00,0.0049
951.00,0.0048
950.00,0.0048
949.00,0.0048
948.00,0.0048
947.00,0.0048
946.00,0.0048
945.00,0.0048
944.00,0.0048
943.00,0.0049
942.00,0.0049
941.00,0.0049
940.00,0.0050
939.00,0.0050
938.00,0.0050
937.00,0.0050
936.00,0.0051
935.00,0.0052
934.00,0.0053
933.00,0.0054
932.00,0.0055
931.00,0.0055
930.00,0.0055
929.00,0.0055
928.00,0.0055
927.00,0.0055
926.00,0.0054
925.00,0.0052
924.00,0.0051
923.00,0.0049
922.00,0.0047
921.00,0.0045
920.00,0.0043
919.00,0.0042
918.00,0.0040
917.00,0.0038
916.00,0.0036
915.00,0.0035
914.00,0.0033
913.00,0.0032
912.00,0.0032
911.00,0.0031
910.00,0.0031
909.00,0.0031
908.00,0.0030
907.00,0.0029
906.00,0.0028
905.00,0.0026
904.00,0.0024
903.00,0.0022
902.00,0.0021
901.00,0.0020
900.00,0.0020
899.00,0.0019
898.00,0.0020
897.00,0.0020
896.00,0.0021
895.00,0.0022
894.00,0.0022
893.00,0.0021
892.00,0.0020
891.00,0.0020
890.00,0.0019
889.00,0.0019
888.00,0.0020
887.00,0.0020
886.00,0.0020
885.00,0.0019
884.00,0.0018
883.00,0.0018
882.00,0.0018
881.00,0.0019
880.00,0.0021
879.00,0.0022
878.00,0.0024
877.00,0.0027
876.00,0.0028
875.00,0.0030
874.00,0.0031
873.00,0.0031
872.00,0.0032
871.00,0.0032
870.00,0.0032
869.00,0.0032
868.00,0.0032
867.00,0.0031
866.00,0.0032
865.00,0.0032
864.00,0.0033
863.00,0.0035
862.00,0.0037
861.00,0.0040
860.00,0.0044
859.00,0.0048
858.00,0.0051
857.00,0.0054
856.00,0.0056
855.00,0.0058
854.00,0.0060
853.00,0.0062
852.00,0.0063
851.00,0.0064
850.00,0.0063
849.00,0.0062
848.00,0.0062
847.00,0.0061
846.00,0.0061
845.00,0.0062
844.00,0.0063
843.00,0.0064
842.00,0.0065
841.00,0.0067
840.00,0.0068
839.00,0.0070
838.00,0.0072
837.00,0.0074
836.00,0.0076
835.00,0.0077
834.00,0.0078
833.00,0.0079
832.00,0.0079
831.00,0.0079
830.00,0.0077
829.00,0.0074
828.00,0.0073
827.00,0.0073
826.00,0.0074
825.00,0.0076
824.00,0.0078
823.00,0.0080
822.00,0.0081
821.00,0.0083
820.00,0.0085
819.00,0.0087
818.00,0.0088
817.00,0.0089
816.00,0.0090
815.00,0.0091
814.00,0.0093
813.00,0.0094
812.00,0.0095
811.00,0.0095
810.00,0.0096
809.00,0.0096
808.00,0.0097
807.00,0.0097
806.00,0.0097
805.00,0.0097
804.00,0.0097
803.00,0.0097
802.00,0.0098
801.00,0.0098
800.00,0.0099
799.00,0.0100
798.00,0.0101
797.00,0.0102
796.00,0.0104
795.00,0.0105
794.00,0.0107
793.00,0.0108
792.00,0.0110
791.00,0.0112
790.00,0.0113
789.00,0.0115
788.00,0.0117
787.00,0.0119
786.00,0.0120
785.00,0.0121
784.00,0.0122
783.00,0.0124
782.00,0.0126
781.00,0.0128
780.00,0.0130
779.00,0.0132
778.00,0.0133
777.00,0.0135
776.00,0.0137
775.00,0.0139
774.00,0.0140
773.00,0.0142
772.00,0.0143
771.00,0.0145
770.00,0.0148
769.00,0.0150
768.00,0.0152
767.00,0.0154
766.00,0.0156
765.00,0.0157
764.00,0.0159
763.00,0.0162
762.00,0.0164
761.00,0.0165
760.00,0.0166
759.00,0.0168
758.00,0.0170
757.00,0.0173
756.00,0.0175
755.00,0.0177
754.00,0.0180
753.00,0.0183
752.00,0.0186
751.00,0.0189
750.00,0.0192
749.00,0.0195
748.00,0.0198
747.00,0.0202
746.00,0.0205
745.00,0.0209
744.00,0.0213
743.00,0.0217
742.00,0.0221
741.00,0.0225
740.00,0.0230
739.00,0.0235
738.00,0.0240
737.00,0.0246
736.00,0.0253
735.00,0.0260
734.00,0.0266
733.00,0.0273
732.00,0.0280
731.00,0.0287
730.00,0.0292
729.00,0.0297
728.00,0.0301
727.00,0.0305
726.00,0.0309
725.00,0.0314
724.00,0.0319
723.00,0.0324
722.00,0.0328
721.00,0.0332
720.00,0.0337
719.00,0.0341
718.00,0.0343
717.00,0.0343
716.00,0.0341
715.00,0.0340
714.00,0.0341
713.00,0.0343
712.00,0.0346
711.00,0.0349
710.00,0.0350
709.00,0.0351
708.00,0.0352
707.00,0.0353
706.00,0.0356
705.00,0.0358
704.00,0.0360
703.00,0.0361
702.00,0.0363
701.00,0.0366
700.00,0.0368
699.00,0.0370
698.00,0.0371
697.00,0.0373
696.00,0.0375
695.00,0.0377
694.00,0.0378
693.00,0.0380
692.00,0.0381
691.00,0.0383
690.00,0.0385
689.00,0.0387
688.00,0.0389
687.00,0.0392
686.00,0.0393
685.00,0.0394
684.00,0.0395
683.00,0.0394
682.00,0.0394
681.00,0.0394
680.00,0.0396
679.00,0.0397
678.00,0.0398
677.00,0.0398
676.00,0.0397
675.00,0.0397
674.00,0.0397
673.00,0.0398
672.00,0.0397
671.00,0.0396
670.00,0.0396
669.00,0.0398
668.00,0.0404
667.00,0.0409
666.00,0.0410
665.00,0.0409
664.00,0.0408
663.00,0.0409
662.00,0.0410
661.00,0.0412
660.00,0.0413
659.00,0.0414
658.00,0.0414
657.00,0.0415
656.00,0.0417
655.00,0.0418
654.00,0.0420
653.00,0.0421
652.00,0.0421
651.00,0.0421
650.00,0.0421
649.00,0.0421
648.00,0.0422
647.00,0.0423
646.00,0.0423
645.00,0.0423
644.00,0.0423
643.00,0.0423
642.00,0.0423
641.00,0.0422
640.00,0.0421
639.00,0.0419
638.00,0.0417
637.00,0.0416
636.00,0.0415
635.00,0.0414
634.00,0.0413
633.00,0.0412
632.00,0.0411
631.00,0.0412
630.00,0.0412
629.00,0.0412
628.00,0.0412
627.00,0.0412
626.00,0.0411
625.00,0.0412
624.00,0.0414
623.00,0.0417
622.00,0.0420
621.00,0.0423
620.00,0.0427
619.00,0.0430
618.00,0.0434
617.00,0.0439
616.00,0.0444
615.00,0.0448
614.00,0.0451
613.00,0.0453
612.00,0.0455
611.00,0.0456
610.00,0.0457
609.00,0.0456
608.00,0.0453
607.00,0.0448
606.00,0.0444
605.00,0.0439
604.00,0.0436
603.00,0.0432
602.00,0.0429
601.00,0.0427
600.00,0.0426
599.00,0.0427
598.00,0.0426
597.00,0.0425
596.00,0.0422
595.00,0.0419
594.00,0.0416
593.00,0.0415
592.00,0.0414
591.00,0.0414
590.00,0.0412
589.00,0.0409
588.00,0.0407
587.00,0.0407
586.00,0.0408
585.00,0.0410
584.00,0.0414
583.00,0.0416
582.00,0.0417
581.00,0.0416
580.00,0.0416
579.00,0.0418
578.00,0.0419
577.00,0.0420
576.00,0.0421
575.00,0.0423
574.00,0.0425
573.00,0.0427
572.00,0.0430
571.00,0.0433
570.00,0.0436
569.00,0.0440
568.00,0.0446
567.00,0.0453
566.00,0.0461
565.00,0.0470
564.00,0.0478
563.00,0.0487
562.00,0.0496
561.00,0.0505
560.00,0.0514
559.00,0.0522
558.00,0.0528
557.00,0.0534
556.00,0.0539
555.00,0.0544
554.00,0.0549
553.00,0.0553
552.00,0.0556
551.00,0.0557
550.00,0.0555
549.00,0.0553
548.00,0.0551
547.00,0.0549
546.00,0.0547
545.00,0.0545
544.00,0.0542
543.00,0.0539
542.00,0.0533
541.00,0.0528
540.00,0.0524
539.00,0.0518
538.00,0.0510
537.00,0.0503
536.00,0.0498
535.00,0.0496
534.00,0.0494
533.00,0.0491
532.00,0.0489
531.00,0.0486
530.00,0.0483
529.00,0.0479
528.00,0.0475
527.00,0.0472
526.00,0.0468
525.00,0.0463
524.00,0.0457
523.00,0.0452
522.00,0.0449
521.00,0.0449
520.00,0.0450
519.00,0.0452
518.00,0.0453
517.00,0.0454
516.00,0.0454
515.00,0.0455
514.00,0.0454
513.00,0.0453
512.00,0.0452
511.00,0.0449
510.00,0.0447
509.00,0.0446
508.00,0.0446
507.00,0.0447
506.00,0.0445
505.00,0.0443
504.00,0.0442
503.00,0.0443
502.00,0.0444
501.00,0.0444
500.00,0.0441
499.00,0.0438
498.00,0.0434
497.00,0.0433
496.00,0.0433
495.00,0.0433
494.00,0.0432
493.00,0.0430
492.00,0.0430
491.00,0.0430
490.00,0.0431
489.00,0.0434
488.00,0.0437
487.00,0.0439
486.00,0.0437
485.00,0.0434
484.00,0.0432
483.00,0.0430
482.00,0.0427
481.00,0.0423
480.00,0.0420
479.00,0.0417
478.00,0.0413
477.00,0.0409
476.00,0.0406
475.00,0.0404
474.00,0.0403
473.00,0.0404
472.00,0.0406
471.00,0.0407
470.00,0.0405
469.00,0.0402
468.00,0.0402
467.00,0.0402
466.00,0.0403
465.00,0.0401
464.00,0.0399
463.00,0.0395
462.00,0.0390
461.00,0.0384
460.00,0.0380
459.00,0.0377
458.00,0.0378
457.00,0.0382
456.00,0.0388
455.00,0.0389
454.00,0.0385
453.00,0.0380
452.00,0.0375
451.00,0.0369
450.00,0.0361
449.00,0.0355
448.00,0.0355
447.00,0.0359
446.00,0.0362
445.00,0.0367
444.00,0.0373
443.00,0.0381
442.00,0.0388
441.00,0.0394
440.00,0.0396
439.00,0.0397
438.00,0.0397
437.00,0.0399
436.00,0.0406
435.00,0.0413
434.00,0.0420
433.00,0.0430
432.00,0.0444
431.00,0.0458
430.00,0.0465
429.00,0.0464
428.00,0.0459
427.00,0.0456
426.00,0.0458
425.00,0.0465
424.00,0.0474
423.00,0.0478
422.00,0.0472
421.00,0.0460
420.00,0.0450
419.00,0.0449
418.00,0.0449
417.00,0.0445
416.00,0.0441
415.00,0.0439
414.00,0.0440
413.00,0.0437
412.00,0.0430
411.00,0.0420
410.00,0.0411
409.00,0.0408
408.00,0.0410
407.00,0.0415
406.00,0.0417
405.00,0.0413
404.00,0.0403
403.00,0.0387
402.00,0.0375
401.00,0.0374
400.00,0.0387
