Created as New Dataset,Sample 644 By YargerLab Date Tuesday, June 10 2025
cm-1,A
4000.00,0.0068
3999.00,0.0068
3998.00,0.0068
3997.00,0.0068
3996.00,0.0068
3995.00,0.0069
3994.00,0.0069
3993.00,0.0069
3992.00,0.0069
3991.00,0.0069
3990.00,0.0069
3989.00,0.0068
3988.00,0.0068
3987.00,0.0068
3986.00,0.0068
3985.00,0.0069
3984.00,0.0069
3983.00,0.0069
3982.00,0.0068
3981.00,0.0068
3980.00,0.0068
3979.00,0.0067
3978.00,0.0067
3977.00,0.0067
3976.00,0.0067
3975.00,0.0067
3974.00,0.0067
3973.00,0.0067
3972.00,0.0068
3971.00,0.0068
3970.00,0.0068
3969.00,0.0068
3968.00,0.0068
3967.00,0.0068
3966.00,0.0068
3965.00,0.0068
3964.00,0.0068
3963.00,0.0068
3962.00,0.0068
3961.00,0.0069
3960.00,0.0069
3959.00,0.0068
3958.00,0.0068
3957.00,0.0068
3956.00,0.0068
3955.00,0.0068
3954.00,0.0068
3953.00,0.0068
3952.00,0.0068
3951.00,0.0068
3950.00,0.0068
3949.00,0.0068
3948.00,0.0068
3947.00,0.0068
3946.00,0.0068
3945.00,0.0068
3944.00,0.0068
3943.00,0.0067
3942.00,0.0067
3941.00,0.0067
3940.00,0.0067
3939.00,0.0067
3938.00,0.0067
3937.00,0.0068
3936.00,0.0068
3935.00,0.0068
3934.00,0.0068
3933.00,0.0068
3932.00,0.0068
3931.00,0.0068
3930.00,0.0068
3929.00,0.0067
3928.00,0.0067
3927.00,0.0067
3926.00,0.0067
3925.00,0.0067
3924.00,0.0067
3923.00,0.0067
3922.00,0.0067
3921.00,0.0067
3920.00,0.0067
3919.00,0.0067
3918.00,0.0067
3917.00,0.0067
3916.00,0.0066
3915.00,0.0066
3914.00,0.0067
3913.00,0.0067
3912.00,0.0067
3911.00,0.0067
3910.00,0.0066
3909.00,0.0066
3908.00,0.0066
3907.00,0.0066
3906.00,0.0066
3905.00,0.0067
3904.00,0.0067
3903.00,0.0067
3902.00,0.0067
3901.00,0.0067
3900.00,0.0067
3899.00,0.0067
3898.00,0.0068
3897.00,0.0068
3896.00,0.0068
3895.00,0.0068
3894.00,0.0067
3893.00,0.0067
3892.00,0.0067
3891.00,0.0067
3890.00,0.0067
3889.00,0.0067
3888.00,0.0067
3887.00,0.0066
3886.00,0.0066
3885.00,0.0066
3884.00,0.0066
3883.00,0.0065
3882.00,0.0065
3881.00,0.0065
3880.00,0.0065
3879.00,0.0066
3878.00,0.0066
3877.00,0.0066
3876.00,0.0066
3875.00,0.0066
3874.00,0.0066
3873.00,0.0066
3872.00,0.0066
3871.00,0.0066
3870.00,0.0066
3869.00,0.0065
3868.00,0.0065
3867.00,0.0065
3866.00,0.0066
3865.00,0.0066
3864.00,0.0066
3863.00,0.0066
3862.00,0.0066
3861.00,0.0065
3860.00,0.0065
3859.00,0.0065
3858.00,0.0065
3857.00,0.0064
3856.00,0.0063
3855.00,0.0063
3854.00,0.0063
3853.00,0.0063
3852.00,0.0063
3851.00,0.0063
3850.00,0.0064
3849.00,0.0064
3848.00,0.0065
3847.00,0.0065
3846.00,0.0066
3845.00,0.0066
3844.00,0.0066
3843.00,0.0066
3842.00,0.0065
3841.00,0.0065
3840.00,0.0065
3839.00,0.0065
3838.00,0.0064
3837.00,0.0064
3836.00,0.0064
3835.00,0.0064
3834.00,0.0064
3833.00,0.0064
3832.00,0.0065
3831.00,0.0065
3830.00,0.0065
3829.00,0.0065
3828.00,0.0065
3827.00,0.0065
3826.00,0.0065
3825.00,0.0064
3824.00,0.0064
3823.00,0.0064
3822.00,0.0063
3821.00,0.0063
3820.00,0.0063
3819.00,0.0063
3818.00,0.0063
3817.00,0.0063
3816.00,0.0063
3815.00,0.0063
3814.00,0.0063
3813.00,0.0063
3812.00,0.0064
3811.00,0.0064
3810.00,0.0064
3809.00,0.0064
3808.00,0.0064
3807.00,0.0065
3806.00,0.0065
3805.00,0.0065
3804.00,0.0064
3803.00,0.0064
3802.00,0.0064
3801.00,0.0064
3800.00,0.0064
3799.00,0.0064
3798.00,0.0064
3797.00,0.0064
3796.00,0.0064
3795.00,0.0065
3794.00,0.0065
3793.00,0.0065
3792.00,0.0065
3791.00,0.0065
3790.00,0.0065
3789.00,0.0065
3788.00,0.0065
3787.00,0.0064
3786.00,0.0064
3785.00,0.0064
3784.00,0.0064
3783.00,0.0064
3782.00,0.0064
3781.00,0.0064
3780.00,0.0064
3779.00,0.0064
3778.00,0.0064
3777.00,0.0064
3776.00,0.0064
3775.00,0.0064
3774.00,0.0064
3773.00,0.0065
3772.00,0.0065
3771.00,0.0065
3770.00,0.0065
3769.00,0.0065
3768.00,0.0064
3767.00,0.0064
3766.00,0.0064
3765.00,0.0064
3764.00,0.0064
3763.00,0.0064
3762.00,0.0064
3761.00,0.0064
3760.00,0.0064
3759.00,0.0064
3758.00,0.0063
3757.00,0.0063
3756.00,0.0062
3755.00,0.0062
3754.00,0.0062
3753.00,0.0062
3752.00,0.0062
3751.00,0.0062
3750.00,0.0062
3749.00,0.0062
3748.00,0.0062
3747.00,0.0061
3746.00,0.0061
3745.00,0.0061
3744.00,0.0062
3743.00,0.0062
3742.00,0.0063
3741.00,0.0063
3740.00,0.0063
3739.00,0.0063
3738.00,0.0063
3737.00,0.0063
3736.00,0.0064
3735.00,0.0064
3734.00,0.0064
3733.00,0.0064
3732.00,0.0063
3731.00,0.0063
3730.00,0.0063
3729.00,0.0063
3728.00,0.0064
3727.00,0.0064
3726.00,0.0064
3725.00,0.0064
3724.00,0.0064
3723.00,0.0064
3722.00,0.0063
3721.00,0.0063
3720.00,0.0063
3719.00,0.0063
3718.00,0.0063
3717.00,0.0062
3716.00,0.0062
3715.00,0.0062
3714.00,0.0062
3713.00,0.0061
3712.00,0.0061
3711.00,0.0061
3710.00,0.0062
3709.00,0.0062
3708.00,0.0062
3707.00,0.0062
3706.00,0.0062
3705.00,0.0062
3704.00,0.0062
3703.00,0.0062
3702.00,0.0062
3701.00,0.0062
3700.00,0.0062
3699.00,0.0062
3698.00,0.0062
3697.00,0.0062
3696.00,0.0062
3695.00,0.0061
3694.00,0.0061
3693.00,0.0061
3692.00,0.0060
3691.00,0.0060
3690.00,0.0060
3689.00,0.0060
3688.00,0.0060
3687.00,0.0060
3686.00,0.0060
3685.00,0.0060
3684.00,0.0060
3683.00,0.0061
3682.00,0.0061
3681.00,0.0061
3680.00,0.0062
3679.00,0.0062
3678.00,0.0062
3677.00,0.0062
3676.00,0.0062
3675.00,0.0062
3674.00,0.0061
3673.00,0.0061
3672.00,0.0061
3671.00,0.0061
3670.00,0.0061
3669.00,0.0061
3668.00,0.0061
3667.00,0.0062
3666.00,0.0062
3665.00,0.0062
3664.00,0.0062
3663.00,0.0062
3662.00,0.0062
3661.00,0.0062
3660.00,0.0062
3659.00,0.0062
3658.00,0.0062
3657.00,0.0062
3656.00,0.0062
3655.00,0.0062
3654.00,0.0062
3653.00,0.0062
3652.00,0.0062
3651.00,0.0062
3650.00,0.0061
3649.00,0.0061
3648.00,0.0061
3647.00,0.0061
3646.00,0.0061
3645.00,0.0061
3644.00,0.0061
3643.00,0.0061
3642.00,0.0061
3641.00,0.0062
3640.00,0.0062
3639.00,0.0063
3638.00,0.0063
3637.00,0.0063
3636.00,0.0063
3635.00,0.0063
3634.00,0.0063
3633.00,0.0063
3632.00,0.0063
3631.00,0.0063
3630.00,0.0063
3629.00,0.0063
3628.00,0.0063
3627.00,0.0063
3626.00,0.0063
3625.00,0.0063
3624.00,0.0063
3623.00,0.0063
3622.00,0.0063
3621.00,0.0063
3620.00,0.0063
3619.00,0.0063
3618.00,0.0063
3617.00,0.0063
3616.00,0.0063
3615.00,0.0063
3614.00,0.0064
3613.00,0.0064
3612.00,0.0064
3611.00,0.0065
3610.00,0.0065
3609.00,0.0065
3608.00,0.0065
3607.00,0.0065
3606.00,0.0065
3605.00,0.0065
3604.00,0.0065
3603.00,0.0065
3602.00,0.0066
3601.00,0.0066
3600.00,0.0067
3599.00,0.0067
3598.00,0.0067
3597.00,0.0068
3596.00,0.0068
3595.00,0.0068
3594.00,0.0068
3593.00,0.0068
3592.00,0.0068
3591.00,0.0068
3590.00,0.0068
3589.00,0.0068
3588.00,0.0069
3587.00,0.0069
3586.00,0.0069
3585.00,0.0069
3584.00,0.0069
3583.00,0.0069
3582.00,0.0069
3581.00,0.0069
3580.00,0.0068
3579.00,0.0067
3578.00,0.0067
3577.00,0.0068
3576.00,0.0068
3575.00,0.0069
3574.00,0.0069
3573.00,0.0069
3572.00,0.0070
3571.00,0.0070
3570.00,0.0071
3569.00,0.0071
3568.00,0.0072
3567.00,0.0072
3566.00,0.0071
3565.00,0.0071
3564.00,0.0071
3563.00,0.0071
3562.00,0.0071
3561.00,0.0071
3560.00,0.0071
3559.00,0.0071
3558.00,0.0071
3557.00,0.0071
3556.00,0.0072
3555.00,0.0072
3554.00,0.0072
3553.00,0.0072
3552.00,0.0072
3551.00,0.0071
3550.00,0.0072
3549.00,0.0072
3548.00,0.0073
3547.00,0.0074
3546.00,0.0074
3545.00,0.0074
3544.00,0.0074
3543.00,0.0074
3542.00,0.0074
3541.00,0.0074
3540.00,0.0074
3539.00,0.0074
3538.00,0.0075
3537.00,0.0075
3536.00,0.0076
3535.00,0.0075
3534.00,0.0075
3533.00,0.0074
3532.00,0.0074
3531.00,0.0075
3530.00,0.0075
3529.00,0.0075
3528.00,0.0076
3527.00,0.0076
3526.00,0.0076
3525.00,0.0077
3524.00,0.0077
3523.00,0.0078
3522.00,0.0078
3521.00,0.0078
3520.00,0.0079
3519.00,0.0078
3518.00,0.0078
3517.00,0.0078
3516.00,0.0077
3515.00,0.0077
3514.00,0.0078
3513.00,0.0078
3512.00,0.0078
3511.00,0.0078
3510.00,0.0078
3509.00,0.0078
3508.00,0.0078
3507.00,0.0078
3506.00,0.0078
3505.00,0.0078
3504.00,0.0079
3503.00,0.0079
3502.00,0.0079
3501.00,0.0079
3500.00,0.0079
3499.00,0.0079
3498.00,0.0079
3497.00,0.0080
3496.00,0.0080
3495.00,0.0080
3494.00,0.0080
3493.00,0.0080
3492.00,0.0080
3491.00,0.0080
3490.00,0.0080
3489.00,0.0080
3488.00,0.0080
3487.00,0.0080
3486.00,0.0080
3485.00,0.0080
3484.00,0.0081
3483.00,0.0081
3482.00,0.0081
3481.00,0.0081
3480.00,0.0081
3479.00,0.0081
3478.00,0.0081
3477.00,0.0082
3476.00,0.0082
3475.00,0.0082
3474.00,0.0081
3473.00,0.0081
3472.00,0.0082
3471.00,0.0082
3470.00,0.0082
3469.00,0.0082
3468.00,0.0082
3467.00,0.0082
3466.00,0.0082
3465.00,0.0082
3464.00,0.0082
3463.00,0.0082
3462.00,0.0082
3461.00,0.0083
3460.00,0.0084
3459.00,0.0084
3458.00,0.0085
3457.00,0.0086
3456.00,0.0086
3455.00,0.0086
3454.00,0.0085
3453.00,0.0084
3452.00,0.0084
3451.00,0.0084
3450.00,0.0084
3449.00,0.0085
3448.00,0.0085
3447.00,0.0085
3446.00,0.0085
3445.00,0.0085
3444.00,0.0085
3443.00,0.0085
3442.00,0.0085
3441.00,0.0085
3440.00,0.0085
3439.00,0.0086
3438.00,0.0086
3437.00,0.0086
3436.00,0.0086
3435.00,0.0086
3434.00,0.0086
3433.00,0.0086
3432.00,0.0086
3431.00,0.0086
3430.00,0.0087
3429.00,0.0087
3428.00,0.0088
3427.00,0.0088
3426.00,0.0088
3425.00,0.0088
3424.00,0.0088
3423.00,0.0088
3422.00,0.0088
3421.00,0.0088
3420.00,0.0089
3419.00,0.0089
3418.00,0.0089
3417.00,0.0090
3416.00,0.0090
3415.00,0.0090
3414.00,0.0091
3413.00,0.0091
3412.00,0.0091
3411.00,0.0091
3410.00,0.0091
3409.00,0.0091
3408.00,0.0092
3407.00,0.0092
3406.00,0.0092
3405.00,0.0092
3404.00,0.0092
3403.00,0.0093
3402.00,0.0093
3401.00,0.0094
3400.00,0.0094
3399.00,0.0094
3398.00,0.0095
3397.00,0.0095
3396.00,0.0095
3395.00,0.0095
3394.00,0.0095
3393.00,0.0096
3392.00,0.0096
3391.00,0.0097
3390.00,0.0097
3389.00,0.0097
3388.00,0.0097
3387.00,0.0098
3386.00,0.0098
3385.00,0.0098
3384.00,0.0099
3383.00,0.0099
3382.00,0.0099
3381.00,0.0099
3380.00,0.0100
3379.00,0.0100
3378.00,0.0100
3377.00,0.0101
3376.00,0.0101
3375.00,0.0102
3374.00,0.0102
3373.00,0.0102
3372.00,0.0103
3371.00,0.0103
3370.00,0.0103
3369.00,0.0104
3368.00,0.0104
3367.00,0.0105
3366.00,0.0105
3365.00,0.0106
3364.00,0.0107
3363.00,0.0107
3362.00,0.0108
3361.00,0.0109
3360.00,0.0109
3359.00,0.0109
3358.00,0.0109
3357.00,0.0109
3356.00,0.0110
3355.00,0.0110
3354.00,0.0111
3353.00,0.0112
3352.00,0.0113
3351.00,0.0113
3350.00,0.0114
3349.00,0.0114
3348.00,0.0115
3347.00,0.0115
3346.00,0.0116
3345.00,0.0117
3344.00,0.0118
3343.00,0.0118
3342.00,0.0119
3341.00,0.0120
3340.00,0.0121
3339.00,0.0122
3338.00,0.0123
3337.00,0.0124
3336.00,0.0125
3335.00,0.0125
3334.00,0.0126
3333.00,0.0126
3332.00,0.0127
3331.00,0.0128
3330.00,0.0130
3329.00,0.0131
3328.00,0.0133
3327.00,0.0134
3326.00,0.0135
3325.00,0.0136
3324.00,0.0137
3323.00,0.0138
3322.00,0.0139
3321.00,0.0141
3320.00,0.0142
3319.00,0.0144
3318.00,0.0145
3317.00,0.0146
3316.00,0.0147
3315.00,0.0149
3314.00,0.0150
3313.00,0.0151
3312.00,0.0153
3311.00,0.0154
3310.00,0.0155
3309.00,0.0156
3308.00,0.0158
3307.00,0.0159
3306.00,0.0160
3305.00,0.0162
3304.00,0.0163
3303.00,0.0164
3302.00,0.0165
3301.00,0.0167
3300.00,0.0168
3299.00,0.0170
3298.00,0.0171
3297.00,0.0172
3296.00,0.0173
3295.00,0.0175
3294.00,0.0175
3293.00,0.0176
3292.00,0.0177
3291.00,0.0177
3290.00,0.0178
3289.00,0.0179
3288.00,0.0180
3287.00,0.0180
3286.00,0.0180
3285.00,0.0181
3284.00,0.0181
3283.00,0.0181
3282.00,0.0181
3281.00,0.0180
3280.00,0.0180
3279.00,0.0179
3278.00,0.0179
3277.00,0.0179
3276.00,0.0178
3275.00,0.0178
3274.00,0.0177
3273.00,0.0177
3272.00,0.0176
3271.00,0.0175
3270.00,0.0174
3269.00,0.0173
3268.00,0.0172
3267.00,0.0171
3266.00,0.0169
3265.00,0.0168
3264.00,0.0167
3263.00,0.0166
3262.00,0.0165
3261.00,0.0163
3260.00,0.0162
3259.00,0.0161
3258.00,0.0161
3257.00,0.0160
3256.00,0.0159
3255.00,0.0158
3254.00,0.0157
3253.00,0.0155
3252.00,0.0154
3251.00,0.0153
3250.00,0.0153
3249.00,0.0152
3248.00,0.0151
3247.00,0.0151
3246.00,0.0150
3245.00,0.0149
3244.00,0.0148
3243.00,0.0148
3242.00,0.0147
3241.00,0.0146
3240.00,0.0145
3239.00,0.0144
3238.00,0.0143
3237.00,0.0143
3236.00,0.0142
3235.00,0.0141
3234.00,0.0141
3233.00,0.0141
3232.00,0.0140
3231.00,0.0139
3230.00,0.0139
3229.00,0.0138
3228.00,0.0138
3227.00,0.0138
3226.00,0.0137
3225.00,0.0136
3224.00,0.0136
3223.00,0.0135
3222.00,0.0134
3221.00,0.0133
3220.00,0.0133
3219.00,0.0132
3218.00,0.0132
3217.00,0.0131
3216.00,0.0131
3215.00,0.0131
3214.00,0.0130
3213.00,0.0130
3212.00,0.0129
3211.00,0.0129
3210.00,0.0128
3209.00,0.0127
3208.00,0.0127
3207.00,0.0127
3206.00,0.0126
3205.00,0.0126
3204.00,0.0126
3203.00,0.0125
3202.00,0.0125
3201.00,0.0124
3200.00,0.0124
3199.00,0.0123
3198.00,0.0123
3197.00,0.0122
3196.00,0.0122
3195.00,0.0121
3194.00,0.0121
3193.00,0.0120
3192.00,0.0119
3191.00,0.0119
3190.00,0.0118
3189.00,0.0118
3188.00,0.0118
3187.00,0.0117
3186.00,0.0116
3185.00,0.0116
3184.00,0.0115
3183.00,0.0115
3182.00,0.0115
3181.00,0.0115
3180.00,0.0114
3179.00,0.0114
3178.00,0.0113
3177.00,0.0113
3176.00,0.0113
3175.00,0.0112
3174.00,0.0112
3173.00,0.0111
3172.00,0.0110
3171.00,0.0109
3170.00,0.0109
3169.00,0.0109
3168.00,0.0108
3167.00,0.0107
3166.00,0.0107
3165.00,0.0106
3164.00,0.0106
3163.00,0.0105
3162.00,0.0105
3161.00,0.0104
3160.00,0.0104
3159.00,0.0104
3158.00,0.0103
3157.00,0.0103
3156.00,0.0103
3155.00,0.0103
3154.00,0.0102
3153.00,0.0102
3152.00,0.0102
3151.00,0.0101
3150.00,0.0101
3149.00,0.0101
3148.00,0.0101
3147.00,0.0101
3146.00,0.0100
3145.00,0.0100
3144.00,0.0100
3143.00,0.0100
3142.00,0.0100
3141.00,0.0100
3140.00,0.0099
3139.00,0.0099
3138.00,0.0098
3137.00,0.0098
3136.00,0.0097
3135.00,0.0097
3134.00,0.0097
3133.00,0.0097
3132.00,0.0097
3131.00,0.0097
3130.00,0.0097
3129.00,0.0097
3128.00,0.0096
3127.00,0.0096
3126.00,0.0096
3125.00,0.0095
3124.00,0.0095
3123.00,0.0095
3122.00,0.0095
3121.00,0.0095
3120.00,0.0095
3119.00,0.0095
3118.00,0.0095
3117.00,0.0095
3116.00,0.0095
3115.00,0.0095
3114.00,0.0095
3113.00,0.0095
3112.00,0.0095
3111.00,0.0095
3110.00,0.0095
3109.00,0.0095
3108.00,0.0096
3107.00,0.0096
3106.00,0.0096
3105.00,0.0096
3104.00,0.0096
3103.00,0.0096
3102.00,0.0097
3101.00,0.0097
3100.00,0.0097
3099.00,0.0097
3098.00,0.0097
3097.00,0.0097
3096.00,0.0097
3095.00,0.0097
3094.00,0.0097
3093.00,0.0098
3092.00,0.0098
3091.00,0.0098
3090.00,0.0098
3089.00,0.0098
3088.00,0.0098
3087.00,0.0099
3086.00,0.0099
3085.00,0.0100
3084.00,0.0100
3083.00,0.0100
3082.00,0.0099
3081.00,0.0099
3080.00,0.0099
3079.00,0.0099
3078.00,0.0099
3077.00,0.0100
3076.00,0.0100
3075.00,0.0100
3074.00,0.0100
3073.00,0.0101
3072.00,0.0101
3071.00,0.0101
3070.00,0.0101
3069.00,0.0101
3068.00,0.0101
3067.00,0.0101
3066.00,0.0101
3065.00,0.0101
3064.00,0.0101
3063.00,0.0101
3062.00,0.0101
3061.00,0.0100
3060.00,0.0100
3059.00,0.0100
3058.00,0.0099
3057.00,0.0099
3056.00,0.0099
3055.00,0.0099
3054.00,0.0098
3053.00,0.0098
3052.00,0.0098
3051.00,0.0098
3050.00,0.0098
3049.00,0.0098
3048.00,0.0098
3047.00,0.0098
3046.00,0.0098
3045.00,0.0097
3044.00,0.0097
3043.00,0.0096
3042.00,0.0096
3041.00,0.0095
3040.00,0.0095
3039.00,0.0094
3038.00,0.0094
3037.00,0.0094
3036.00,0.0093
3035.00,0.0093
3034.00,0.0093
3033.00,0.0092
3032.00,0.0091
3031.00,0.0091
3030.00,0.0091
3029.00,0.0091
3028.00,0.0092
3027.00,0.0092
3026.00,0.0091
3025.00,0.0091
3024.00,0.0091
3023.00,0.0090
3022.00,0.0090
3021.00,0.0089
3020.00,0.0088
3019.00,0.0087
3018.00,0.0087
3017.00,0.0087
3016.00,0.0087
3015.00,0.0087
3014.00,0.0088
3013.00,0.0088
3012.00,0.0088
3011.00,0.0088
3010.00,0.0088
3009.00,0.0088
3008.00,0.0088
3007.00,0.0087
3006.00,0.0087
3005.00,0.0087
3004.00,0.0087
3003.00,0.0087
3002.00,0.0087
3001.00,0.0087
3000.00,0.0087
2999.00,0.0086
2998.00,0.0087
2997.00,0.0087
2996.00,0.0087
2995.00,0.0088
2994.00,0.0088
2993.00,0.0088
2992.00,0.0089
2991.00,0.0089
2990.00,0.0089
2989.00,0.0090
2988.00,0.0090
2987.00,0.0091
2986.00,0.0091
2985.00,0.0092
2984.00,0.0092
2983.00,0.0093
2982.00,0.0093
2981.00,0.0093
2980.00,0.0094
2979.00,0.0094
2978.00,0.0095
2977.00,0.0095
2976.00,0.0095
2975.00,0.0095
2974.00,0.0096
2973.00,0.0096
2972.00,0.0097
2971.00,0.0097
2970.00,0.0098
2969.00,0.0098
2968.00,0.0099
2967.00,0.0099
2966.00,0.0100
2965.00,0.0100
2964.00,0.0100
2963.00,0.0100
2962.00,0.0100
2961.00,0.0100
2960.00,0.0101
2959.00,0.0101
2958.00,0.0101
2957.00,0.0100
2956.00,0.0100
2955.00,0.0100
2954.00,0.0100
2953.00,0.0100
2952.00,0.0100
2951.00,0.0099
2950.00,0.0099
2949.00,0.0099
2948.00,0.0099
2947.00,0.0099
2946.00,0.0100
2945.00,0.0100
2944.00,0.0101
2943.00,0.0102
2942.00,0.0103
2941.00,0.0105
2940.00,0.0106
2939.00,0.0108
2938.00,0.0110
2937.00,0.0112
2936.00,0.0114
2935.00,0.0116
2934.00,0.0118
2933.00,0.0120
2932.00,0.0122
2931.00,0.0124
2930.00,0.0126
2929.00,0.0129
2928.00,0.0131
2927.00,0.0133
2926.00,0.0135
2925.00,0.0137
2924.00,0.0138
2923.00,0.0140
2922.00,0.0141
2921.00,0.0142
2920.00,0.0142
2919.00,0.0142
2918.00,0.0142
2917.00,0.0141
2916.00,0.0140
2915.00,0.0138
2914.00,0.0135
2913.00,0.0132
2912.00,0.0128
2911.00,0.0125
2910.00,0.0121
2909.00,0.0119
2908.00,0.0116
2907.00,0.0114
2906.00,0.0112
2905.00,0.0111
2904.00,0.0110
2903.00,0.0108
2902.00,0.0107
2901.00,0.0106
2900.00,0.0105
2899.00,0.0105
2898.00,0.0104
2897.00,0.0103
2896.00,0.0102
2895.00,0.0101
2894.00,0.0101
2893.00,0.0100
2892.00,0.0099
2891.00,0.0098
2890.00,0.0098
2889.00,0.0097
2888.00,0.0097
2887.00,0.0096
2886.00,0.0096
2885.00,0.0095
2884.00,0.0095
2883.00,0.0095
2882.00,0.0095
2881.00,0.0094
2880.00,0.0094
2879.00,0.0094
2878.00,0.0094
2877.00,0.0094
2876.00,0.0094
2875.00,0.0094
2874.00,0.0094
2873.00,0.0094
2872.00,0.0094
2871.00,0.0094
2870.00,0.0094
2869.00,0.0094
2868.00,0.0093
2867.00,0.0093
2866.00,0.0093
2865.00,0.0093
2864.00,0.0093
2863.00,0.0093
2862.00,0.0094
2861.00,0.0095
2860.00,0.0096
2859.00,0.0098
2858.00,0.0100
2857.00,0.0103
2856.00,0.0105
2855.00,0.0107
2854.00,0.0109
2853.00,0.0111
2852.00,0.0112
2851.00,0.0114
2850.00,0.0114
2849.00,0.0114
2848.00,0.0112
2847.00,0.0110
2846.00,0.0107
2845.00,0.0103
2844.00,0.0100
2843.00,0.0097
2842.00,0.0094
2841.00,0.0092
2840.00,0.0091
2839.00,0.0089
2838.00,0.0088
2837.00,0.0087
2836.00,0.0086
2835.00,0.0085
2834.00,0.0085
2833.00,0.0084
2832.00,0.0084
2831.00,0.0083
2830.00,0.0083
2829.00,0.0083
2828.00,0.0082
2827.00,0.0082
2826.00,0.0082
2825.00,0.0081
2824.00,0.0081
2823.00,0.0080
2822.00,0.0080
2821.00,0.0080
2820.00,0.0080
2819.00,0.0080
2818.00,0.0080
2817.00,0.0080
2816.00,0.0079
2815.00,0.0079
2814.00,0.0079
2813.00,0.0079
2812.00,0.0079
2811.00,0.0079
2810.00,0.0079
2809.00,0.0078
2808.00,0.0078
2807.00,0.0078
2806.00,0.0077
2805.00,0.0077
2804.00,0.0077
2803.00,0.0077
2802.00,0.0077
2801.00,0.0077
2800.00,0.0077
2799.00,0.0076
2798.00,0.0076
2797.00,0.0076
2796.00,0.0076
2795.00,0.0075
2794.00,0.0075
2793.00,0.0075
2792.00,0.0075
2791.00,0.0075
2790.00,0.0076
2789.00,0.0076
2788.00,0.0076
2787.00,0.0075
2786.00,0.0075
2785.00,0.0075
2784.00,0.0075
2783.00,0.0075
2782.00,0.0075
2781.00,0.0075
2780.00,0.0075
2779.00,0.0074
2778.00,0.0074
2777.00,0.0074
2776.00,0.0074
2775.00,0.0074
2774.00,0.0074
2773.00,0.0073
2772.00,0.0073
2771.00,0.0073
2770.00,0.0073
2769.00,0.0073
2768.00,0.0073
2767.00,0.0073
2766.00,0.0072
2765.00,0.0072
2764.00,0.0072
2763.00,0.0072
2762.00,0.0072
2761.00,0.0072
2760.00,0.0072
2759.00,0.0072
2758.00,0.0072
2757.00,0.0072
2756.00,0.0072
2755.00,0.0072
2754.00,0.0072
2753.00,0.0072
2752.00,0.0072
2751.00,0.0071
2750.00,0.0071
2749.00,0.0071
2748.00,0.0071
2747.00,0.0071
2746.00,0.0071
2745.00,0.0071
2744.00,0.0071
2743.00,0.0071
2742.00,0.0071
2741.00,0.0071
2740.00,0.0071
2739.00,0.0071
2738.00,0.0071
2737.00,0.0070
2736.00,0.0070
2735.00,0.0069
2734.00,0.0069
2733.00,0.0069
2732.00,0.0069
2731.00,0.0069
2730.00,0.0069
2729.00,0.0069
2728.00,0.0069
2727.00,0.0069
2726.00,0.0069
2725.00,0.0069
2724.00,0.0069
2723.00,0.0069
2722.00,0.0069
2721.00,0.0069
2720.00,0.0069
2719.00,0.0068
2718.00,0.0068
2717.00,0.0068
2716.00,0.0068
2715.00,0.0068
2714.00,0.0068
2713.00,0.0068
2712.00,0.0068
2711.00,0.0068
2710.00,0.0068
2709.00,0.0068
2708.00,0.0068
2707.00,0.0068
2706.00,0.0068
2705.00,0.0068
2704.00,0.0068
2703.00,0.0067
2702.00,0.0067
2701.00,0.0067
2700.00,0.0067
2699.00,0.0067
2698.00,0.0068
2697.00,0.0068
2696.00,0.0067
2695.00,0.0067
2694.00,0.0067
2693.00,0.0067
2692.00,0.0067
2691.00,0.0067
2690.00,0.0067
2689.00,0.0067
2688.00,0.0067
2687.00,0.0067
2686.00,0.0067
2685.00,0.0067
2684.00,0.0067
2683.00,0.0067
2682.00,0.0067
2681.00,0.0067
2680.00,0.0067
2679.00,0.0067
2678.00,0.0066
2677.00,0.0066
2676.00,0.0066
2675.00,0.0066
2674.00,0.0066
2673.00,0.0065
2672.00,0.0065
2671.00,0.0065
2670.00,0.0065
2669.00,0.0065
2668.00,0.0066
2667.00,0.0066
2666.00,0.0066
2665.00,0.0067
2664.00,0.0067
2663.00,0.0067
2662.00,0.0067
2661.00,0.0067
2660.00,0.0067
2659.00,0.0067
2658.00,0.0067
2657.00,0.0068
2656.00,0.0068
2655.00,0.0068
2654.00,0.0068
2653.00,0.0068
2652.00,0.0067
2651.00,0.0067
2650.00,0.0067
2649.00,0.0067
2648.00,0.0067
2647.00,0.0067
2646.00,0.0067
2645.00,0.0067
2644.00,0.0067
2643.00,0.0067
2642.00,0.0066
2641.00,0.0066
2640.00,0.0066
2639.00,0.0065
2638.00,0.0066
2637.00,0.0066
2636.00,0.0066
2635.00,0.0067
2634.00,0.0066
2633.00,0.0066
2632.00,0.0066
2631.00,0.0066
2630.00,0.0066
2629.00,0.0066
2628.00,0.0066
2627.00,0.0066
2626.00,0.0066
2625.00,0.0066
2624.00,0.0066
2623.00,0.0066
2622.00,0.0066
2621.00,0.0066
2620.00,0.0066
2619.00,0.0066
2618.00,0.0066
2617.00,0.0066
2616.00,0.0066
2615.00,0.0065
2614.00,0.0065
2613.00,0.0065
2612.00,0.0065
2611.00,0.0065
2610.00,0.0065
2609.00,0.0065
2608.00,0.0065
2607.00,0.0065
2606.00,0.0065
2605.00,0.0065
2604.00,0.0064
2603.00,0.0064
2602.00,0.0064
2601.00,0.0064
2600.00,0.0064
2599.00,0.0064
2598.00,0.0064
2597.00,0.0064
2596.00,0.0064
2595.00,0.0064
2594.00,0.0064
2593.00,0.0063
2592.00,0.0063
2591.00,0.0063
2590.00,0.0063
2589.00,0.0063
2588.00,0.0063
2587.00,0.0063
2586.00,0.0063
2585.00,0.0063
2584.00,0.0062
2583.00,0.0062
2582.00,0.0062
2581.00,0.0062
2580.00,0.0062
2579.00,0.0061
2578.00,0.0060
2577.00,0.0060
2576.00,0.0059
2575.00,0.0060
2574.00,0.0060
2573.00,0.0061
2572.00,0.0061
2571.00,0.0061
2570.00,0.0061
2569.00,0.0061
2568.00,0.0061
2567.00,0.0061
2566.00,0.0061
2565.00,0.0061
2564.00,0.0061
2563.00,0.0061
2562.00,0.0061
2561.00,0.0061
2560.00,0.0061
2559.00,0.0061
2558.00,0.0061
2557.00,0.0060
2556.00,0.0060
2555.00,0.0059
2554.00,0.0059
2553.00,0.0059
2552.00,0.0059
2551.00,0.0059
2550.00,0.0059
2549.00,0.0060
2548.00,0.0060
2547.00,0.0060
2546.00,0.0059
2545.00,0.0059
2544.00,0.0058
2543.00,0.0058
2542.00,0.0059
2541.00,0.0059
2540.00,0.0059
2539.00,0.0059
2538.00,0.0059
2537.00,0.0059
2536.00,0.0059
2535.00,0.0059
2534.00,0.0059
2533.00,0.0059
2532.00,0.0059
2531.00,0.0059
2530.00,0.0060
2529.00,0.0060
2528.00,0.0060
2527.00,0.0059
2526.00,0.0059
2525.00,0.0059
2524.00,0.0058
2523.00,0.0058
2522.00,0.0057
2521.00,0.0057
2520.00,0.0058
2519.00,0.0058
2518.00,0.0059
2517.00,0.0059
2516.00,0.0059
2515.00,0.0059
2514.00,0.0058
2513.00,0.0057
2512.00,0.0057
2511.00,0.0057
2510.00,0.0057
2509.00,0.0057
2508.00,0.0057
2507.00,0.0057
2506.00,0.0057
2505.00,0.0057
2504.00,0.0057
2503.00,0.0058
2502.00,0.0058
2501.00,0.0058
2500.00,0.0057
2499.00,0.0057
2498.00,0.0057
2497.00,0.0056
2496.00,0.0056
2495.00,0.0056
2494.00,0.0056
2493.00,0.0056
2492.00,0.0057
2491.00,0.0057
2490.00,0.0057
2489.00,0.0057
2488.00,0.0058
2487.00,0.0058
2486.00,0.0058
2485.00,0.0058
2484.00,0.0057
2483.00,0.0057
2482.00,0.0057
2481.00,0.0056
2480.00,0.0056
2479.00,0.0056
2478.00,0.0056
2477.00,0.0056
2476.00,0.0056
2475.00,0.0056
2474.00,0.0056
2473.00,0.0056
2472.00,0.0056
2471.00,0.0056
2470.00,0.0056
2469.00,0.0056
2468.00,0.0056
2467.00,0.0056
2466.00,0.0056
2465.00,0.0056
2464.00,0.0056
2463.00,0.0056
2462.00,0.0056
2461.00,0.0056
2460.00,0.0056
2459.00,0.0056
2458.00,0.0056
2457.00,0.0056
2456.00,0.0056
2455.00,0.0056
2454.00,0.0057
2453.00,0.0057
2452.00,0.0056
2451.00,0.0056
2450.00,0.0055
2449.00,0.0055
2448.00,0.0055
2447.00,0.0055
2446.00,0.0055
2445.00,0.0055
2444.00,0.0055
2443.00,0.0055
2442.00,0.0055
2441.00,0.0055
2440.00,0.0055
2439.00,0.0055
2438.00,0.0055
2437.00,0.0055
2436.00,0.0055
2435.00,0.0055
2434.00,0.0055
2433.00,0.0054
2432.00,0.0054
2431.00,0.0054
2430.00,0.0054
2429.00,0.0053
2428.00,0.0053
2427.00,0.0053
2426.00,0.0053
2425.00,0.0053
2424.00,0.0053
2423.00,0.0053
2422.00,0.0053
2421.00,0.0053
2420.00,0.0053
2419.00,0.0053
2418.00,0.0053
2417.00,0.0053
2416.00,0.0053
2415.00,0.0053
2414.00,0.0053
2413.00,0.0053
2412.00,0.0053
2411.00,0.0053
2410.00,0.0053
2409.00,0.0053
2408.00,0.0053
2407.00,0.0052
2406.00,0.0052
2405.00,0.0052
2404.00,0.0052
2403.00,0.0052
2402.00,0.0051
2401.00,0.0051
2400.00,0.0051
2399.00,0.0051
2398.00,0.0051
2397.00,0.0051
2396.00,0.0051
2395.00,0.0051
2394.00,0.0051
2393.00,0.0051
2392.00,0.0051
2391.00,0.0051
2390.00,0.0051
2389.00,0.0051
2388.00,0.0051
2387.00,0.0051
2386.00,0.0051
2385.00,0.0051
2384.00,0.0051
2383.00,0.0051
2382.00,0.0051
2381.00,0.0051
2380.00,0.0051
2379.00,0.0051
2378.00,0.0051
2377.00,0.0051
2376.00,0.0051
2375.00,0.0051
2374.00,0.0051
2373.00,0.0051
2372.00,0.0051
2371.00,0.0050
2370.00,0.0050
2369.00,0.0050
2368.00,0.0049
2367.00,0.0050
2366.00,0.0050
2365.00,0.0050
2364.00,0.0051
2363.00,0.0052
2362.00,0.0053
2361.00,0.0053
2360.00,0.0053
2359.00,0.0052
2358.00,0.0051
2357.00,0.0050
2356.00,0.0050
2355.00,0.0050
2354.00,0.0050
2353.00,0.0050
2352.00,0.0051
2351.00,0.0051
2350.00,0.0051
2349.00,0.0051
2348.00,0.0051
2347.00,0.0051
2346.00,0.0052
2345.00,0.0052
2344.00,0.0052
2343.00,0.0053
2342.00,0.0053
2341.00,0.0053
2340.00,0.0052
2339.00,0.0052
2338.00,0.0052
2337.00,0.0052
2336.00,0.0052
2335.00,0.0051
2334.00,0.0051
2333.00,0.0050
2332.00,0.0051
2331.00,0.0051
2330.00,0.0052
2329.00,0.0053
2328.00,0.0055
2327.00,0.0056
2326.00,0.0056
2325.00,0.0056
2324.00,0.0056
2323.00,0.0057
2322.00,0.0057
2321.00,0.0057
2320.00,0.0057
2319.00,0.0056
2318.00,0.0056
2317.00,0.0055
2316.00,0.0055
2315.00,0.0054
2314.00,0.0054
2313.00,0.0054
2312.00,0.0055
2311.00,0.0055
2310.00,0.0055
2309.00,0.0055
2308.00,0.0055
2307.00,0.0054
2306.00,0.0054
2305.00,0.0054
2304.00,0.0054
2303.00,0.0054
2302.00,0.0054
2301.00,0.0054
2300.00,0.0054
2299.00,0.0054
2298.00,0.0054
2297.00,0.0055
2296.00,0.0056
2295.00,0.0057
2294.00,0.0058
2293.00,0.0058
2292.00,0.0057
2291.00,0.0056
2290.00,0.0056
2289.00,0.0056
2288.00,0.0057
2287.00,0.0057
2286.00,0.0057
2285.00,0.0056
2284.00,0.0055
2283.00,0.0054
2282.00,0.0054
2281.00,0.0053
2280.00,0.0053
2279.00,0.0053
2278.00,0.0053
2277.00,0.0053
2276.00,0.0053
2275.00,0.0053
2274.00,0.0053
2273.00,0.0053
2272.00,0.0053
2271.00,0.0053
2270.00,0.0053
2269.00,0.0054
2268.00,0.0053
2267.00,0.0053
2266.00,0.0053
2265.00,0.0053
2264.00,0.0053
2263.00,0.0053
2262.00,0.0052
2261.00,0.0052
2260.00,0.0051
2259.00,0.0051
2258.00,0.0051
2257.00,0.0051
2256.00,0.0050
2255.00,0.0050
2254.00,0.0050
2253.00,0.0050
2252.00,0.0050
2251.00,0.0050
2250.00,0.0050
2249.00,0.0050
2248.00,0.0050
2247.00,0.0050
2246.00,0.0050
2245.00,0.0050
2244.00,0.0050
2243.00,0.0050
2242.00,0.0050
2241.00,0.0051
2240.00,0.0051
2239.00,0.0051
2238.00,0.0052
2237.00,0.0053
2236.00,0.0052
2235.00,0.0052
2234.00,0.0051
2233.00,0.0051
2232.00,0.0051
2231.00,0.0051
2230.00,0.0050
2229.00,0.0049
2228.00,0.0048
2227.00,0.0049
2226.00,0.0049
2225.00,0.0050
2224.00,0.0050
2223.00,0.0050
2222.00,0.0050
2221.00,0.0050
2220.00,0.0050
2219.00,0.0051
2218.00,0.0051
2217.00,0.0052
2216.00,0.0052
2215.00,0.0051
2214.00,0.0050
2213.00,0.0049
2212.00,0.0049
2211.00,0.0048
2210.00,0.0049
2209.00,0.0050
2208.00,0.0051
2207.00,0.0051
2206.00,0.0051
2205.00,0.0050
2204.00,0.0050
2203.00,0.0050
2202.00,0.0051
2201.00,0.0053
2200.00,0.0054
2199.00,0.0054
2198.00,0.0052
2197.00,0.0051
2196.00,0.0050
2195.00,0.0050
2194.00,0.0050
2193.00,0.0050
2192.00,0.0050
2191.00,0.0049
2190.00,0.0050
2189.00,0.0051
2188.00,0.0053
2187.00,0.0054
2186.00,0.0054
2185.00,0.0054
2184.00,0.0052
2183.00,0.0050
2182.00,0.0049
2181.00,0.0048
2180.00,0.0048
2179.00,0.0048
2178.00,0.0048
2177.00,0.0048
2176.00,0.0047
2175.00,0.0048
2174.00,0.0050
2173.00,0.0052
2172.00,0.0053
2171.00,0.0054
2170.00,0.0055
2169.00,0.0056
2168.00,0.0058
2167.00,0.0058
2166.00,0.0056
2165.00,0.0055
2164.00,0.0055
2163.00,0.0055
2162.00,0.0054
2161.00,0.0050
2160.00,0.0042
2159.00,0.0035
2158.00,0.0031
2157.00,0.0030
2156.00,0.0032
2155.00,0.0035
2154.00,0.0037
2153.00,0.0038
2152.00,0.0038
2151.00,0.0039
2150.00,0.0040
2149.00,0.0040
2148.00,0.0039
2147.00,0.0038
2146.00,0.0037
2145.00,0.0036
2144.00,0.0036
2143.00,0.0037
2142.00,0.0037
2141.00,0.0037
2140.00,0.0037
2139.00,0.0037
2138.00,0.0035
2137.00,0.0034
2136.00,0.0032
2135.00,0.0032
2134.00,0.0032
2133.00,0.0032
2132.00,0.0033
2131.00,0.0035
2130.00,0.0036
2129.00,0.0038
2128.00,0.0039
2127.00,0.0040
2126.00,0.0041
2125.00,0.0041
2124.00,0.0042
2123.00,0.0042
2122.00,0.0042
2121.00,0.0042
2120.00,0.0042
2119.00,0.0043
2118.00,0.0044
2117.00,0.0045
2116.00,0.0045
2115.00,0.0045
2114.00,0.0045
2113.00,0.0045
2112.00,0.0045
2111.00,0.0044
2110.00,0.0044
2109.00,0.0044
2108.00,0.0046
2107.00,0.0047
2106.00,0.0048
2105.00,0.0048
2104.00,0.0047
2103.00,0.0046
2102.00,0.0045
2101.00,0.0044
2100.00,0.0044
2099.00,0.0043
2098.00,0.0042
2097.00,0.0041
2096.00,0.0041
2095.00,0.0041
2094.00,0.0041
2093.00,0.0041
2092.00,0.0042
2091.00,0.0042
2090.00,0.0043
2089.00,0.0043
2088.00,0.0044
2087.00,0.0044
2086.00,0.0045
2085.00,0.0045
2084.00,0.0046
2083.00,0.0046
2082.00,0.0046
2081.00,0.0046
2080.00,0.0046
2079.00,0.0047
2078.00,0.0048
2077.00,0.0049
2076.00,0.0050
2075.00,0.0050
2074.00,0.0051
2073.00,0.0050
2072.00,0.0049
2071.00,0.0048
2070.00,0.0047
2069.00,0.0047
2068.00,0.0046
2067.00,0.0045
2066.00,0.0043
2065.00,0.0043
2064.00,0.0042
2063.00,0.0042
2062.00,0.0042
2061.00,0.0042
2060.00,0.0042
2059.00,0.0043
2058.00,0.0043
2057.00,0.0044
2056.00,0.0044
2055.00,0.0044
2054.00,0.0045
2053.00,0.0047
2052.00,0.0048
2051.00,0.0048
2050.00,0.0046
2049.00,0.0044
2048.00,0.0044
2047.00,0.0044
2046.00,0.0045
2045.00,0.0045
2044.00,0.0047
2043.00,0.0048
2042.00,0.0050
2041.00,0.0051
2040.00,0.0049
2039.00,0.0047
2038.00,0.0045
2037.00,0.0043
2036.00,0.0041
2035.00,0.0040
2034.00,0.0040
2033.00,0.0041
2032.00,0.0041
2031.00,0.0040
2030.00,0.0038
2029.00,0.0037
2028.00,0.0038
2027.00,0.0039
2026.00,0.0039
2025.00,0.0039
2024.00,0.0038
2023.00,0.0039
2022.00,0.0040
2021.00,0.0041
2020.00,0.0040
2019.00,0.0039
2018.00,0.0039
2017.00,0.0041
2016.00,0.0042
2015.00,0.0041
2014.00,0.0035
2013.00,0.0027
2012.00,0.0019
2011.00,0.0015
2010.00,0.0018
2009.00,0.0025
2008.00,0.0031
2007.00,0.0036
2006.00,0.0038
2005.00,0.0039
2004.00,0.0041
2003.00,0.0043
2002.00,0.0044
2001.00,0.0044
2000.00,0.0042
1999.00,0.0039
1998.00,0.0037
1997.00,0.0036
1996.00,0.0036
1995.00,0.0038
1994.00,0.0039
1993.00,0.0041
1992.00,0.0043
1991.00,0.0043
1990.00,0.0043
1989.00,0.0043
1988.00,0.0044
1987.00,0.0045
1986.00,0.0046
1985.00,0.0046
1984.00,0.0046
1983.00,0.0047
1982.00,0.0051
1981.00,0.0055
1980.00,0.0058
1979.00,0.0055
1978.00,0.0048
1977.00,0.0040
1976.00,0.0035
1975.00,0.0034
1974.00,0.0035
1973.00,0.0036
1972.00,0.0036
1971.00,0.0037
1970.00,0.0037
1969.00,0.0038
1968.00,0.0038
1967.00,0.0038
1966.00,0.0037
1965.00,0.0037
1964.00,0.0038
1963.00,0.0038
1962.00,0.0038
1961.00,0.0036
1960.00,0.0035
1959.00,0.0034
1958.00,0.0034
1957.00,0.0033
1956.00,0.0034
1955.00,0.0034
1954.00,0.0034
1953.00,0.0034
1952.00,0.0035
1951.00,0.0036
1950.00,0.0038
1949.00,0.0038
1948.00,0.0038
1947.00,0.0037
1946.00,0.0036
1945.00,0.0035
1944.00,0.0035
1943.00,0.0036
1942.00,0.0037
1941.00,0.0038
1940.00,0.0038
1939.00,0.0037
1938.00,0.0036
1937.00,0.0035
1936.00,0.0035
1935.00,0.0035
1934.00,0.0034
1933.00,0.0033
1932.00,0.0033
1931.00,0.0034
1930.00,0.0035
1929.00,0.0036
1928.00,0.0036
1927.00,0.0035
1926.00,0.0034
1925.00,0.0033
1924.00,0.0032
1923.00,0.0033
1922.00,0.0034
1921.00,0.0035
1920.00,0.0035
1919.00,0.0035
1918.00,0.0035
1917.00,0.0036
1916.00,0.0036
1915.00,0.0035
1914.00,0.0036
1913.00,0.0036
1912.00,0.0036
1911.00,0.0036
1910.00,0.0035
1909.00,0.0035
1908.00,0.0035
1907.00,0.0035
1906.00,0.0035
1905.00,0.0034
1904.00,0.0034
1903.00,0.0033
1902.00,0.0033
1901.00,0.0033
1900.00,0.0033
1899.00,0.0034
1898.00,0.0034
1897.00,0.0034
1896.00,0.0034
1895.00,0.0034
1894.00,0.0034
1893.00,0.0034
1892.00,0.0034
1891.00,0.0033
1890.00,0.0033
1889.00,0.0034
1888.00,0.0035
1887.00,0.0035
1886.00,0.0035
1885.00,0.0035
1884.00,0.0034
1883.00,0.0034
1882.00,0.0034
1881.00,0.0033
1880.00,0.0033
1879.00,0.0033
1878.00,0.0034
1877.00,0.0034
1876.00,0.0033
1875.00,0.0033
1874.00,0.0033
1873.00,0.0033
1872.00,0.0033
1871.00,0.0032
1870.00,0.0031
1869.00,0.0030
1868.00,0.0031
1867.00,0.0032
1866.00,0.0033
1865.00,0.0033
1864.00,0.0032
1863.00,0.0032
1862.00,0.0031
1861.00,0.0031
1860.00,0.0031
1859.00,0.0032
1858.00,0.0032
1857.00,0.0032
1856.00,0.0033
1855.00,0.0034
1854.00,0.0034
1853.00,0.0034
1852.00,0.0034
1851.00,0.0033
1850.00,0.0032
1849.00,0.0032
1848.00,0.0032
1847.00,0.0031
1846.00,0.0031
1845.00,0.0032
1844.00,0.0033
1843.00,0.0034
1842.00,0.0034
1841.00,0.0033
1840.00,0.0031
1839.00,0.0030
1838.00,0.0030
1837.00,0.0030
1836.00,0.0030
1835.00,0.0030
1834.00,0.0031
1833.00,0.0030
1832.00,0.0029
1831.00,0.0028
1830.00,0.0028
1829.00,0.0029
1828.00,0.0030
1827.00,0.0030
1826.00,0.0029
1825.00,0.0029
1824.00,0.0030
1823.00,0.0031
1822.00,0.0031
1821.00,0.0030
1820.00,0.0029
1819.00,0.0028
1818.00,0.0028
1817.00,0.0028
1816.00,0.0028
1815.00,0.0028
1814.00,0.0028
1813.00,0.0027
1812.00,0.0027
1811.00,0.0027
1810.00,0.0028
1809.00,0.0029
1808.00,0.0030
1807.00,0.0030
1806.00,0.0029
1805.00,0.0029
1804.00,0.0029
1803.00,0.0028
1802.00,0.0028
1801.00,0.0028
1800.00,0.0028
1799.00,0.0029
1798.00,0.0029
1797.00,0.0029
1796.00,0.0028
1795.00,0.0028
1794.00,0.0028
1793.00,0.0028
1792.00,0.0030
1791.00,0.0032
1790.00,0.0033
1789.00,0.0032
1788.00,0.0030
1787.00,0.0029
1786.00,0.0028
1785.00,0.0029
1784.00,0.0029
1783.00,0.0029
1782.00,0.0028
1781.00,0.0027
1780.00,0.0027
1779.00,0.0027
1778.00,0.0028
1777.00,0.0027
1776.00,0.0027
1775.00,0.0027
1774.00,0.0026
1773.00,0.0027
1772.00,0.0028
1771.00,0.0030
1770.00,0.0030
1769.00,0.0029
1768.00,0.0029
1767.00,0.0028
1766.00,0.0028
1765.00,0.0027
1764.00,0.0025
1763.00,0.0024
1762.00,0.0024
1761.00,0.0025
1760.00,0.0025
1759.00,0.0024
1758.00,0.0023
1757.00,0.0022
1756.00,0.0023
1755.00,0.0024
1754.00,0.0024
1753.00,0.0023
1752.00,0.0023
1751.00,0.0022
1750.00,0.0022
1749.00,0.0021
1748.00,0.0020
1747.00,0.0020
1746.00,0.0020
1745.00,0.0020
1744.00,0.0020
1743.00,0.0021
1742.00,0.0021
1741.00,0.0021
1740.00,0.0022
1739.00,0.0024
1738.00,0.0026
1737.00,0.0027
1736.00,0.0027
1735.00,0.0029
1734.00,0.0031
1733.00,0.0034
1732.00,0.0033
1731.00,0.0030
1730.00,0.0027
1729.00,0.0027
1728.00,0.0027
1727.00,0.0027
1726.00,0.0027
1725.00,0.0027
1724.00,0.0028
1723.00,0.0029
1722.00,0.0030
1721.00,0.0030
1720.00,0.0030
1719.00,0.0031
1718.00,0.0034
1717.00,0.0037
1716.00,0.0040
1715.00,0.0040
1714.00,0.0041
1713.00,0.0042
1712.00,0.0043
1711.00,0.0045
1710.00,0.0048
1709.00,0.0051
1708.00,0.0055
1707.00,0.0059
1706.00,0.0065
1705.00,0.0073
1704.00,0.0083
1703.00,0.0093
1702.00,0.0102
1701.00,0.0111
1700.00,0.0121
1699.00,0.0129
1698.00,0.0134
1697.00,0.0136
1696.00,0.0138
1695.00,0.0140
1694.00,0.0141
1693.00,0.0141
1692.00,0.0142
1691.00,0.0143
1690.00,0.0146
1689.00,0.0150
1688.00,0.0155
1687.00,0.0162
1686.00,0.0168
1685.00,0.0171
1684.00,0.0173
1683.00,0.0177
1682.00,0.0180
1681.00,0.0183
1680.00,0.0188
1679.00,0.0193
1678.00,0.0200
1677.00,0.0206
1676.00,0.0211
1675.00,0.0216
1674.00,0.0220
1673.00,0.0225
1672.00,0.0230
1671.00,0.0235
1670.00,0.0239
1669.00,0.0244
1668.00,0.0250
1667.00,0.0256
1666.00,0.0263
1665.00,0.0270
1664.00,0.0276
1663.00,0.0281
1662.00,0.0286
1661.00,0.0291
1660.00,0.0298
1659.00,0.0304
1658.00,0.0312
1657.00,0.0322
1656.00,0.0334
1655.00,0.0346
1654.00,0.0349
1653.00,0.0343
1652.00,0.0340
1651.00,0.0340
1650.00,0.0344
1649.00,0.0350
1648.00,0.0354
1647.00,0.0354
1646.00,0.0353
1645.00,0.0353
1644.00,0.0355
1643.00,0.0359
1642.00,0.0363
1641.00,0.0367
1640.00,0.0371
1639.00,0.0377
1638.00,0.0383
1637.00,0.0386
1636.00,0.0384
1635.00,0.0380
1634.00,0.0378
1633.00,0.0380
1632.00,0.0385
1631.00,0.0390
1630.00,0.0393
1629.00,0.0394
1628.00,0.0393
1627.00,0.0393
1626.00,0.0393
1625.00,0.0392
1624.00,0.0388
1623.00,0.0380
1622.00,0.0372
1621.00,0.0366
1620.00,0.0364
1619.00,0.0362
1618.00,0.0355
1617.00,0.0342
1616.00,0.0325
1615.00,0.0311
1614.00,0.0301
1613.00,0.0293
1612.00,0.0285
1611.00,0.0275
1610.00,0.0265
1609.00,0.0254
1608.00,0.0244
1607.00,0.0234
1606.00,0.0225
1605.00,0.0217
1604.00,0.0209
1603.00,0.0202
1602.00,0.0195
1601.00,0.0189
1600.00,0.0184
1599.00,0.0179
1598.00,0.0175
1597.00,0.0171
1596.00,0.0168
1595.00,0.0165
1594.00,0.0162
1593.00,0.0159
1592.00,0.0157
1591.00,0.0154
1590.00,0.0152
1589.00,0.0150
1588.00,0.0148
1587.00,0.0147
1586.00,0.0146
1585.00,0.0145
1584.00,0.0145
1583.00,0.0145
1582.00,0.0145
1581.00,0.0146
1580.00,0.0148
1579.00,0.0150
1578.00,0.0153
1577.00,0.0156
1576.00,0.0158
1575.00,0.0159
1574.00,0.0160
1573.00,0.0162
1572.00,0.0164
1571.00,0.0166
1570.00,0.0169
1569.00,0.0172
1568.00,0.0176
1567.00,0.0180
1566.00,0.0183
1565.00,0.0187
1564.00,0.0193
1563.00,0.0200
1562.00,0.0210
1561.00,0.0219
1560.00,0.0222
1559.00,0.0223
1558.00,0.0226
1557.00,0.0231
1556.00,0.0235
1555.00,0.0239
1554.00,0.0243
1553.00,0.0248
1552.00,0.0253
1551.00,0.0257
1550.00,0.0261
1549.00,0.0267
1548.00,0.0273
1547.00,0.0280
1546.00,0.0286
1545.00,0.0291
1544.00,0.0297
1543.00,0.0303
1542.00,0.0309
1541.00,0.0312
1540.00,0.0312
1539.00,0.0313
1538.00,0.0315
1537.00,0.0319
1536.00,0.0324
1535.00,0.0328
1534.00,0.0330
1533.00,0.0331
1532.00,0.0333
1531.00,0.0337
1530.00,0.0342
1529.00,0.0347
1528.00,0.0351
1527.00,0.0354
1526.00,0.0357
1525.00,0.0361
1524.00,0.0367
1523.00,0.0373
1522.00,0.0375
1521.00,0.0376
1520.00,0.0377
1519.00,0.0381
1518.00,0.0385
1517.00,0.0387
1516.00,0.0389
1515.00,0.0392
1514.00,0.0395
1513.00,0.0396
1512.00,0.0395
1511.00,0.0393
1510.00,0.0394
1509.00,0.0394
1508.00,0.0389
1507.00,0.0375
1506.00,0.0360
1505.00,0.0349
1504.00,0.0343
1503.00,0.0339
1502.00,0.0336
1501.00,0.0332
1500.00,0.0326
1499.00,0.0319
1498.00,0.0311
1497.00,0.0301
1496.00,0.0289
1495.00,0.0279
1494.00,0.0271
1493.00,0.0265
1492.00,0.0259
1491.00,0.0250
1490.00,0.0240
1489.00,0.0231
1488.00,0.0223
1487.00,0.0216
1486.00,0.0211
1485.00,0.0206
1484.00,0.0201
1483.00,0.0197
1482.00,0.0192
1481.00,0.0187
1480.00,0.0184
1479.00,0.0181
1478.00,0.0179
1477.00,0.0177
1476.00,0.0176
1475.00,0.0175
1474.00,0.0175
1473.00,0.0174
1472.00,0.0174
1471.00,0.0174
1470.00,0.0174
1469.00,0.0174
1468.00,0.0175
1467.00,0.0176
1466.00,0.0176
1465.00,0.0176
1464.00,0.0175
1463.00,0.0175
1462.00,0.0176
1461.00,0.0178
1460.00,0.0180
1459.00,0.0183
1458.00,0.0185
1457.00,0.0188
1456.00,0.0189
1455.00,0.0190
1454.00,0.0191
1453.00,0.0192
1452.00,0.0195
1451.00,0.0197
1450.00,0.0200
1449.00,0.0201
1448.00,0.0201
1447.00,0.0201
1446.00,0.0201
1445.00,0.0200
1444.00,0.0199
1443.00,0.0198
1442.00,0.0196
1441.00,0.0195
1440.00,0.0194
1439.00,0.0194
1438.00,0.0192
1437.00,0.0187
1436.00,0.0182
1435.00,0.0176
1434.00,0.0172
1433.00,0.0169
1432.00,0.0166
1431.00,0.0163
1430.00,0.0160
1429.00,0.0157
1428.00,0.0156
1427.00,0.0155
1426.00,0.0154
1425.00,0.0153
1424.00,0.0153
1423.00,0.0154
1422.00,0.0156
1421.00,0.0158
1420.00,0.0159
1419.00,0.0159
1418.00,0.0160
1417.00,0.0160
1416.00,0.0160
1415.00,0.0160
1414.00,0.0160
1413.00,0.0161
1412.00,0.0162
1411.00,0.0163
1410.00,0.0163
1409.00,0.0164
1408.00,0.0164
1407.00,0.0164
1406.00,0.0163
1405.00,0.0162
1404.00,0.0161
1403.00,0.0161
1402.00,0.0160
1401.00,0.0160
1400.00,0.0158
1399.00,0.0157
1398.00,0.0156
1397.00,0.0155
1396.00,0.0155
1395.00,0.0154
1394.00,0.0154
1393.00,0.0154
1392.00,0.0154
1391.00,0.0154
1390.00,0.0155
1389.00,0.0155
1388.00,0.0155
1387.00,0.0154
1386.00,0.0154
1385.00,0.0153
1384.00,0.0152
1383.00,0.0152
1382.00,0.0151
1381.00,0.0151
1380.00,0.0150
1379.00,0.0150
1378.00,0.0150
1377.00,0.0150
1376.00,0.0149
1375.00,0.0147
1374.00,0.0146
1373.00,0.0146
1372.00,0.0146
1371.00,0.0146
1370.00,0.0146
1369.00,0.0145
1368.00,0.0144
1367.00,0.0143
1366.00,0.0142
1365.00,0.0140
1364.00,0.0138
1363.00,0.0136
1362.00,0.0134
1361.00,0.0133
1360.00,0.0131
1359.00,0.0130
1358.00,0.0129
1357.00,0.0129
1356.00,0.0128
1355.00,0.0127
1354.00,0.0127
1353.00,0.0127
1352.00,0.0127
1351.00,0.0127
1350.00,0.0127
1349.00,0.0127
1348.00,0.0127
1347.00,0.0127
1346.00,0.0127
1345.00,0.0128
1344.00,0.0128
1343.00,0.0128
1342.00,0.0129
1341.00,0.0129
1340.00,0.0128
1339.00,0.0128
1338.00,0.0129
1337.00,0.0129
1336.00,0.0130
1335.00,0.0130
1334.00,0.0130
1333.00,0.0130
1332.00,0.0129
1331.00,0.0128
1330.00,0.0128
1329.00,0.0127
1328.00,0.0126
1327.00,0.0125
1326.00,0.0125
1325.00,0.0124
1324.00,0.0123
1323.00,0.0123
1322.00,0.0122
1321.00,0.0121
1320.00,0.0121
1319.00,0.0121
1318.00,0.0121
1317.00,0.0122
1316.00,0.0122
1315.00,0.0122
1314.00,0.0122
1313.00,0.0122
1312.00,0.0123
1311.00,0.0123
1310.00,0.0124
1309.00,0.0124
1308.00,0.0124
1307.00,0.0125
1306.00,0.0125
1305.00,0.0126
1304.00,0.0126
1303.00,0.0126
1302.00,0.0127
1301.00,0.0127
1300.00,0.0127
1299.00,0.0127
1298.00,0.0127
1297.00,0.0127
1296.00,0.0128
1295.00,0.0128
1294.00,0.0128
1293.00,0.0129
1292.00,0.0129
1291.00,0.0129
1290.00,0.0130
1289.00,0.0130
1288.00,0.0131
1287.00,0.0131
1286.00,0.0132
1285.00,0.0133
1284.00,0.0133
1283.00,0.0134
1282.00,0.0135
1281.00,0.0136
1280.00,0.0137
1279.00,0.0138
1278.00,0.0139
1277.00,0.0141
1276.00,0.0143
1275.00,0.0144
1274.00,0.0146
1273.00,0.0149
1272.00,0.0151
1271.00,0.0153
1270.00,0.0156
1269.00,0.0158
1268.00,0.0160
1267.00,0.0162
1266.00,0.0164
1265.00,0.0165
1264.00,0.0167
1263.00,0.0168
1262.00,0.0169
1261.00,0.0170
1260.00,0.0170
1259.00,0.0170
1258.00,0.0170
1257.00,0.0169
1256.00,0.0169
1255.00,0.0170
1254.00,0.0170
1253.00,0.0171
1252.00,0.0172
1251.00,0.0173
1250.00,0.0174
1249.00,0.0174
1248.00,0.0175
1247.00,0.0176
1246.00,0.0178
1245.00,0.0179
1244.00,0.0180
1243.00,0.0182
1242.00,0.0184
1241.00,0.0185
1240.00,0.0187
1239.00,0.0189
1238.00,0.0191
1237.00,0.0193
1236.00,0.0194
1235.00,0.0196
1234.00,0.0198
1233.00,0.0200
1232.00,0.0202
1231.00,0.0203
1230.00,0.0204
1229.00,0.0204
1228.00,0.0204
1227.00,0.0203
1226.00,0.0202
1225.00,0.0201
1224.00,0.0199
1223.00,0.0197
1222.00,0.0195
1221.00,0.0193
1220.00,0.0191
1219.00,0.0189
1218.00,0.0186
1217.00,0.0184
1216.00,0.0181
1215.00,0.0177
1214.00,0.0174
1213.00,0.0170
1212.00,0.0167
1211.00,0.0163
1210.00,0.0159
1209.00,0.0156
1208.00,0.0152
1207.00,0.0148
1206.00,0.0145
1205.00,0.0142
1204.00,0.0138
1203.00,0.0135
1202.00,0.0132
1201.00,0.0129
1200.00,0.0127
1199.00,0.0125
1198.00,0.0123
1197.00,0.0121
1196.00,0.0120
1195.00,0.0118
1194.00,0.0117
1193.00,0.0116
1192.00,0.0115
1191.00,0.0113
1190.00,0.0112
1189.00,0.0112
1188.00,0.0111
1187.00,0.0111
1186.00,0.0111
1185.00,0.0111
1184.00,0.0111
1183.00,0.0111
1182.00,0.0112
1181.00,0.0113
1180.00,0.0114
1179.00,0.0115
1178.00,0.0117
1177.00,0.0119
1176.00,0.0121
1175.00,0.0122
1174.00,0.0124
1173.00,0.0126
1172.00,0.0127
1171.00,0.0129
1170.00,0.0129
1169.00,0.0130
1168.00,0.0129
1167.00,0.0129
1166.00,0.0129
1165.00,0.0128
1164.00,0.0127
1163.00,0.0126
1162.00,0.0125
1161.00,0.0124
1160.00,0.0123
1159.00,0.0122
1158.00,0.0121
1157.00,0.0120
1156.00,0.0119
1155.00,0.0117
1154.00,0.0116
1153.00,0.0115
1152.00,0.0114
1151.00,0.0112
1150.00,0.0111
1149.00,0.0109
1148.00,0.0107
1147.00,0.0105
1146.00,0.0104
1145.00,0.0103
1144.00,0.0102
1143.00,0.0101
1142.00,0.0101
1141.00,0.0100
1140.00,0.0099
1139.00,0.0098
1138.00,0.0098
1137.00,0.0098
1136.00,0.0097
1135.00,0.0096
1134.00,0.0096
1133.00,0.0095
1132.00,0.0096
1131.00,0.0096
1130.00,0.0096
1129.00,0.0096
1128.00,0.0096
1127.00,0.0095
1126.00,0.0095
1125.00,0.0095
1124.00,0.0094
1123.00,0.0093
1122.00,0.0093
1121.00,0.0093
1120.00,0.0093
1119.00,0.0092
1118.00,0.0092
1117.00,0.0092
1116.00,0.0091
1115.00,0.0091
1114.00,0.0090
1113.00,0.0090
1112.00,0.0089
1111.00,0.0089
1110.00,0.0089
1109.00,0.0089
1108.00,0.0089
1107.00,0.0090
1106.00,0.0090
1105.00,0.0091
1104.00,0.0091
1103.00,0.0091
1102.00,0.0091
1101.00,0.0091
1100.00,0.0090
1099.00,0.0090
1098.00,0.0090
1097.00,0.0090
1096.00,0.0090
1095.00,0.0090
1094.00,0.0091
1093.00,0.0092
1092.00,0.0092
1091.00,0.0093
1090.00,0.0093
1089.00,0.0094
1088.00,0.0095
1087.00,0.0096
1086.00,0.0097
1085.00,0.0099
1084.00,0.0100
1083.00,0.0100
1082.00,0.0101
1081.00,0.0102
1080.00,0.0102
1079.00,0.0103
1078.00,0.0103
1077.00,0.0104
1076.00,0.0105
1075.00,0.0105
1074.00,0.0106
1073.00,0.0106
1072.00,0.0106
1071.00,0.0106
1070.00,0.0105
1069.00,0.0104
1068.00,0.0103
1067.00,0.0103
1066.00,0.0103
1065.00,0.0103
1064.00,0.0103
1063.00,0.0102
1062.00,0.0101
1061.00,0.0100
1060.00,0.0099
1059.00,0.0098
1058.00,0.0098
1057.00,0.0097
1056.00,0.0096
1055.00,0.0095
1054.00,0.0095
1053.00,0.0094
1052.00,0.0094
1051.00,0.0093
1050.00,0.0092
1049.00,0.0091
1048.00,0.0090
1047.00,0.0089
1046.00,0.0088
1045.00,0.0088
1044.00,0.0088
1043.00,0.0087
1042.00,0.0086
1041.00,0.0085
1040.00,0.0084
1039.00,0.0082
1038.00,0.0082
1037.00,0.0081
1036.00,0.0080
1035.00,0.0079
1034.00,0.0078
1033.00,0.0077
1032.00,0.0076
1031.00,0.0076
1030.00,0.0076
1029.00,0.0076
1028.00,0.0076
1027.00,0.0076
1026.00,0.0077
1025.00,0.0077
1024.00,0.0077
1023.00,0.0078
1022.00,0.0080
1021.00,0.0081
1020.00,0.0081
1019.00,0.0082
1018.00,0.0083
1017.00,0.0083
1016.00,0.0084
1015.00,0.0084
1014.00,0.0084
1013.00,0.0084
1012.00,0.0085
1011.00,0.0085
1010.00,0.0086
1009.00,0.0087
1008.00,0.0086
1007.00,0.0086
1006.00,0.0086
1005.00,0.0085
1004.00,0.0085
1003.00,0.0084
1002.00,0.0085
1001.00,0.0085
1000.00,0.0086
999.00,0.0086
998.00,0.0085
997.00,0.0084
996.00,0.0083
995.00,0.0081
994.00,0.0079
993.00,0.0078
992.00,0.0076
991.00,0.0074
990.00,0.0073
989.00,0.0072
988.00,0.0071
987.00,0.0071
986.00,0.0071
985.00,0.0071
984.00,0.0071
983.00,0.0071
982.00,0.0073
981.00,0.0074
980.00,0.0076
979.00,0.0077
978.00,0.0078
977.00,0.0079
976.00,0.0079
975.00,0.0079
974.00,0.0079
973.00,0.0079
972.00,0.0079
971.00,0.0078
970.00,0.0078
969.00,0.0078
968.00,0.0077
967.00,0.0076
966.00,0.0075
965.00,0.0074
964.00,0.0074
963.00,0.0073
962.00,0.0073
961.00,0.0073
960.00,0.0073
959.00,0.0073
958.00,0.0073
957.00,0.0073
956.00,0.0072
955.00,0.0072
954.00,0.0072
953.00,0.0072
952.00,0.0073
951.00,0.0073
950.00,0.0073
949.00,0.0073
948.00,0.0072
947.00,0.0072
946.00,0.0072
945.00,0.0072
944.00,0.0072
943.00,0.0072
942.00,0.0072
941.00,0.0072
940.00,0.0072
939.00,0.0072
938.00,0.0073
937.00,0.0073
936.00,0.0073
935.00,0.0072
934.00,0.0073
933.00,0.0072
932.00,0.0072
931.00,0.0072
930.00,0.0072
929.00,0.0071
928.00,0.0071
927.00,0.0071
926.00,0.0071
925.00,0.0071
924.00,0.0070
923.00,0.0070
922.00,0.0069
921.00,0.0069
920.00,0.0068
919.00,0.0067
918.00,0.0067
917.00,0.0066
916.00,0.0065
915.00,0.0064
914.00,0.0063
913.00,0.0063
912.00,0.0062
911.00,0.0062
910.00,0.0062
909.00,0.0062
908.00,0.0061
907.00,0.0061
906.00,0.0061
905.00,0.0061
904.00,0.0061
903.00,0.0060
902.00,0.0060
901.00,0.0060
900.00,0.0059
899.00,0.0059
898.00,0.0059
897.00,0.0059
896.00,0.0058
895.00,0.0058
894.00,0.0058
893.00,0.0058
892.00,0.0057
891.00,0.0057
890.00,0.0057
889.00,0.0057
888.00,0.0057
887.00,0.0057
886.00,0.0058
885.00,0.0058
884.00,0.0058
883.00,0.0058
882.00,0.0058
881.00,0.0059
880.00,0.0058
879.00,0.0058
878.00,0.0059
877.00,0.0059
876.00,0.0058
875.00,0.0058
874.00,0.0058
873.00,0.0058
872.00,0.0057
871.00,0.0057
870.00,0.0057
869.00,0.0057
868.00,0.0057
867.00,0.0057
866.00,0.0058
865.00,0.0058
864.00,0.0058
863.00,0.0058
862.00,0.0058
861.00,0.0059
860.00,0.0060
859.00,0.0060
858.00,0.0061
857.00,0.0062
856.00,0.0063
855.00,0.0064
854.00,0.0065
853.00,0.0065
852.00,0.0065
851.00,0.0065
850.00,0.0065
849.00,0.0064
848.00,0.0064
847.00,0.0064
846.00,0.0065
845.00,0.0066
844.00,0.0066
843.00,0.0066
842.00,0.0067
841.00,0.0068
840.00,0.0068
839.00,0.0069
838.00,0.0070
837.00,0.0071
836.00,0.0071
835.00,0.0072
834.00,0.0073
833.00,0.0073
832.00,0.0073
831.00,0.0074
830.00,0.0075
829.00,0.0076
828.00,0.0076
827.00,0.0076
826.00,0.0077
825.00,0.0077
824.00,0.0077
823.00,0.0076
822.00,0.0076
821.00,0.0075
820.00,0.0075
819.00,0.0074
818.00,0.0074
817.00,0.0075
816.00,0.0075
815.00,0.0076
814.00,0.0077
813.00,0.0077
812.00,0.0077
811.00,0.0077
810.00,0.0078
809.00,0.0079
808.00,0.0079
807.00,0.0079
806.00,0.0079
805.00,0.0080
804.00,0.0080
803.00,0.0081
802.00,0.0082
801.00,0.0082
800.00,0.0082
799.00,0.0082
798.00,0.0083
797.00,0.0083
796.00,0.0083
795.00,0.0083
794.00,0.0084
793.00,0.0085
792.00,0.0085
791.00,0.0086
790.00,0.0086
789.00,0.0087
788.00,0.0087
787.00,0.0087
786.00,0.0088
785.00,0.0089
784.00,0.0090
783.00,0.0091
782.00,0.0092
781.00,0.0093
780.00,0.0093
779.00,0.0093
778.00,0.0095
777.00,0.0096
776.00,0.0097
775.00,0.0098
774.00,0.0099
773.00,0.0100
772.00,0.0101
771.00,0.0102
770.00,0.0103
769.00,0.0104
768.00,0.0104
767.00,0.0104
766.00,0.0105
765.00,0.0106
764.00,0.0106
763.00,0.0107
762.00,0.0108
761.00,0.0108
760.00,0.0109
759.00,0.0110
758.00,0.0111
757.00,0.0112
756.00,0.0113
755.00,0.0114
754.00,0.0116
753.00,0.0117
752.00,0.0118
751.00,0.0119
750.00,0.0120
749.00,0.0121
748.00,0.0122
747.00,0.0122
746.00,0.0124
745.00,0.0126
744.00,0.0127
743.00,0.0129
742.00,0.0131
741.00,0.0133
740.00,0.0134
739.00,0.0136
738.00,0.0138
737.00,0.0141
736.00,0.0142
735.00,0.0143
734.00,0.0143
733.00,0.0145
732.00,0.0146
731.00,0.0148
730.00,0.0151
729.00,0.0154
728.00,0.0155
727.00,0.0156
726.00,0.0157
725.00,0.0159
724.00,0.0161
723.00,0.0163
722.00,0.0166
721.00,0.0169
720.00,0.0170
719.00,0.0172
718.00,0.0173
717.00,0.0174
716.00,0.0174
715.00,0.0174
714.00,0.0175
713.00,0.0176
712.00,0.0177
711.00,0.0178
710.00,0.0180
709.00,0.0182
708.00,0.0183
707.00,0.0185
706.00,0.0187
705.00,0.0189
704.00,0.0190
703.00,0.0191
702.00,0.0192
701.00,0.0194
700.00,0.0194
699.00,0.0195
698.00,0.0196
697.00,0.0198
696.00,0.0199
695.00,0.0200
694.00,0.0201
693.00,0.0202
692.00,0.0201
691.00,0.0201
690.00,0.0201
689.00,0.0202
688.00,0.0202
687.00,0.0203
686.00,0.0204
685.00,0.0204
684.00,0.0205
683.00,0.0205
682.00,0.0207
681.00,0.0207
680.00,0.0207
679.00,0.0207
678.00,0.0207
677.00,0.0207
676.00,0.0206
675.00,0.0206
674.00,0.0207
673.00,0.0208
672.00,0.0209
671.00,0.0210
670.00,0.0212
669.00,0.0212
668.00,0.0208
667.00,0.0205
666.00,0.0206
665.00,0.0208
664.00,0.0210
663.00,0.0211
662.00,0.0212
661.00,0.0213
660.00,0.0213
659.00,0.0214
658.00,0.0215
657.00,0.0216
656.00,0.0217
655.00,0.0217
654.00,0.0219
653.00,0.0220
652.00,0.0221
651.00,0.0221
650.00,0.0222
649.00,0.0224
648.00,0.0224
647.00,0.0224
646.00,0.0225
645.00,0.0225
644.00,0.0225
643.00,0.0225
642.00,0.0226
641.00,0.0226
640.00,0.0225
639.00,0.0225
638.00,0.0225
637.00,0.0226
636.00,0.0225
635.00,0.0225
634.00,0.0226
633.00,0.0226
632.00,0.0225
631.00,0.0224
630.00,0.0224
629.00,0.0225
628.00,0.0224
627.00,0.0224
626.00,0.0224
625.00,0.0224
624.00,0.0224
623.00,0.0223
622.00,0.0224
621.00,0.0225
620.00,0.0225
619.00,0.0226
618.00,0.0227
617.00,0.0229
616.00,0.0229
615.00,0.0229
614.00,0.0230
613.00,0.0231
612.00,0.0231
611.00,0.0232
610.00,0.0233
609.00,0.0233
608.00,0.0230
607.00,0.0227
606.00,0.0226
605.00,0.0225
604.00,0.0222
603.00,0.0220
602.00,0.0220
601.00,0.0220
600.00,0.0219
599.00,0.0219
598.00,0.0219
597.00,0.0218
596.00,0.0217
595.00,0.0217
594.00,0.0218
593.00,0.0220
592.00,0.0220
591.00,0.0219
590.00,0.0220
589.00,0.0220
588.00,0.0220
587.00,0.0219
586.00,0.0220
585.00,0.0221
584.00,0.0221
583.00,0.0221
582.00,0.0222
581.00,0.0223
580.00,0.0223
579.00,0.0223
578.00,0.0226
577.00,0.0228
576.00,0.0229
575.00,0.0229
574.00,0.0230
573.00,0.0231
572.00,0.0230
571.00,0.0230
570.00,0.0231
569.00,0.0232
568.00,0.0230
567.00,0.0230
566.00,0.0233
565.00,0.0236
564.00,0.0238
563.00,0.0240
562.00,0.0242
561.00,0.0245
560.00,0.0246
559.00,0.0248
558.00,0.0251
557.00,0.0255
556.00,0.0257
555.00,0.0259
554.00,0.0262
553.00,0.0265
552.00,0.0265
551.00,0.0263
550.00,0.0263
549.00,0.0263
548.00,0.0261
547.00,0.0262
546.00,0.0264
545.00,0.0265
544.00,0.0265
543.00,0.0264
542.00,0.0263
541.00,0.0262
540.00,0.0261
539.00,0.0260
538.00,0.0261
537.00,0.0261
536.00,0.0259
535.00,0.0257
534.00,0.0258
533.00,0.0259
532.00,0.0258
531.00,0.0258
530.00,0.0258
529.00,0.0257
528.00,0.0253
527.00,0.0250
526.00,0.0250
525.00,0.0251
524.00,0.0251
523.00,0.0250
522.00,0.0250
521.00,0.0250
520.00,0.0248
519.00,0.0248
518.00,0.0250
517.00,0.0252
516.00,0.0251
515.00,0.0250
514.00,0.0251
513.00,0.0252
512.00,0.0250
511.00,0.0250
510.00,0.0252
509.00,0.0252
508.00,0.0248
507.00,0.0245
506.00,0.0245
505.00,0.0246
504.00,0.0246
503.00,0.0244
502.00,0.0243
501.00,0.0241
500.00,0.0237
499.00,0.0235
498.00,0.0236
497.00,0.0238
496.00,0.0238
495.00,0.0238
494.00,0.0241
493.00,0.0243
492.00,0.0241
491.00,0.0239
490.00,0.0239
489.00,0.0239
488.00,0.0237
487.00,0.0236
486.00,0.0239
485.00,0.0240
484.00,0.0237
483.00,0.0235
482.00,0.0237
481.00,0.0237
480.00,0.0234
479.00,0.0232
478.00,0.0234
477.00,0.0233
476.00,0.0228
475.00,0.0223
474.00,0.0224
473.00,0.0226
472.00,0.0228
471.00,0.0230
470.00,0.0234
469.00,0.0236
468.00,0.0231
467.00,0.0225
466.00,0.0225
465.00,0.0227
464.00,0.0228
463.00,0.0228
462.00,0.0230
461.00,0.0230
460.00,0.0225
459.00,0.0219
458.00,0.0217
457.00,0.0216
456.00,0.0213
455.00,0.0211
454.00,0.0213
453.00,0.0214
452.00,0.0211
451.00,0.0209
450.00,0.0212
449.00,0.0215
448.00,0.0211
447.00,0.0206
446.00,0.0206
445.00,0.0207
444.00,0.0205
443.00,0.0203
442.00,0.0205
441.00,0.0206
440.00,0.0201
439.00,0.0197
438.00,0.0198
437.00,0.0200
436.00,0.0197
435.00,0.0195
434.00,0.0196
433.00,0.0197
432.00,0.0194
431.00,0.0194
430.00,0.0200
429.00,0.0205
428.00,0.0201
427.00,0.0195
426.00,0.0195
425.00,0.0196
424.00,0.0192
423.00,0.0191
422.00,0.0197
421.00,0.0203
420.00,0.0199
419.00,0.0193
418.00,0.0195
417.00,0.0197
416.00,0.0193
415.00,0.0192
414.00,0.0201
413.00,0.0207
412.00,0.0204
411.00,0.0199
410.00,0.0199
409.00,0.0193
408.00,0.0174
407.00,0.0159
406.00,0.0162
405.00,0.0169
404.00,0.0165
403.00,0.0159
402.00,0.0163
401.00,0.0165
400.00,0.0153
