Created as New Dataset,Sample 603 By YargerLab Date Thursday, June 05 2025
cm-1,A
4000.00,0.0073
3999.00,0.0073
3998.00,0.0073
3997.00,0.0073
3996.00,0.0073
3995.00,0.0073
3994.00,0.0073
3993.00,0.0072
3992.00,0.0072
3991.00,0.0072
3990.00,0.0072
3989.00,0.0072
3988.00,0.0072
3987.00,0.0073
3986.00,0.0073
3985.00,0.0073
3984.00,0.0073
3983.00,0.0073
3982.00,0.0073
3981.00,0.0072
3980.00,0.0072
3979.00,0.0072
3978.00,0.0073
3977.00,0.0073
3976.00,0.0073
3975.00,0.0073
3974.00,0.0073
3973.00,0.0073
3972.00,0.0073
3971.00,0.0073
3970.00,0.0073
3969.00,0.0073
3968.00,0.0073
3967.00,0.0072
3966.00,0.0072
3965.00,0.0072
3964.00,0.0072
3963.00,0.0072
3962.00,0.0072
3961.00,0.0072
3960.00,0.0072
3959.00,0.0072
3958.00,0.0072
3957.00,0.0072
3956.00,0.0072
3955.00,0.0072
3954.00,0.0072
3953.00,0.0072
3952.00,0.0072
3951.00,0.0072
3950.00,0.0072
3949.00,0.0072
3948.00,0.0071
3947.00,0.0071
3946.00,0.0071
3945.00,0.0071
3944.00,0.0071
3943.00,0.0072
3942.00,0.0072
3941.00,0.0072
3940.00,0.0072
3939.00,0.0072
3938.00,0.0072
3937.00,0.0072
3936.00,0.0072
3935.00,0.0072
3934.00,0.0072
3933.00,0.0072
3932.00,0.0072
3931.00,0.0072
3930.00,0.0071
3929.00,0.0071
3928.00,0.0071
3927.00,0.0071
3926.00,0.0071
3925.00,0.0071
3924.00,0.0071
3923.00,0.0071
3922.00,0.0071
3921.00,0.0071
3920.00,0.0071
3919.00,0.0071
3918.00,0.0071
3917.00,0.0071
3916.00,0.0071
3915.00,0.0071
3914.00,0.0071
3913.00,0.0071
3912.00,0.0071
3911.00,0.0071
3910.00,0.0071
3909.00,0.0071
3908.00,0.0071
3907.00,0.0071
3906.00,0.0071
3905.00,0.0071
3904.00,0.0071
3903.00,0.0070
3902.00,0.0070
3901.00,0.0070
3900.00,0.0070
3899.00,0.0070
3898.00,0.0070
3897.00,0.0070
3896.00,0.0070
3895.00,0.0070
3894.00,0.0070
3893.00,0.0071
3892.00,0.0071
3891.00,0.0070
3890.00,0.0070
3889.00,0.0070
3888.00,0.0070
3887.00,0.0070
3886.00,0.0069
3885.00,0.0070
3884.00,0.0070
3883.00,0.0069
3882.00,0.0069
3881.00,0.0069
3880.00,0.0069
3879.00,0.0069
3878.00,0.0069
3877.00,0.0069
3876.00,0.0068
3875.00,0.0068
3874.00,0.0069
3873.00,0.0069
3872.00,0.0068
3871.00,0.0068
3870.00,0.0068
3869.00,0.0068
3868.00,0.0068
3867.00,0.0068
3866.00,0.0068
3865.00,0.0068
3864.00,0.0068
3863.00,0.0069
3862.00,0.0069
3861.00,0.0068
3860.00,0.0068
3859.00,0.0069
3858.00,0.0069
3857.00,0.0070
3856.00,0.0070
3855.00,0.0069
3854.00,0.0068
3853.00,0.0068
3852.00,0.0067
3851.00,0.0067
3850.00,0.0067
3849.00,0.0067
3848.00,0.0067
3847.00,0.0067
3846.00,0.0068
3845.00,0.0068
3844.00,0.0068
3843.00,0.0068
3842.00,0.0067
3841.00,0.0067
3840.00,0.0067
3839.00,0.0066
3838.00,0.0066
3837.00,0.0066
3836.00,0.0066
3835.00,0.0067
3834.00,0.0067
3833.00,0.0067
3832.00,0.0067
3831.00,0.0067
3830.00,0.0067
3829.00,0.0067
3828.00,0.0067
3827.00,0.0067
3826.00,0.0067
3825.00,0.0067
3824.00,0.0067
3823.00,0.0066
3822.00,0.0066
3821.00,0.0066
3820.00,0.0066
3819.00,0.0065
3818.00,0.0065
3817.00,0.0065
3816.00,0.0066
3815.00,0.0066
3814.00,0.0067
3813.00,0.0067
3812.00,0.0067
3811.00,0.0068
3810.00,0.0068
3809.00,0.0067
3808.00,0.0067
3807.00,0.0066
3806.00,0.0066
3805.00,0.0066
3804.00,0.0066
3803.00,0.0065
3802.00,0.0065
3801.00,0.0066
3800.00,0.0066
3799.00,0.0066
3798.00,0.0066
3797.00,0.0066
3796.00,0.0066
3795.00,0.0067
3794.00,0.0067
3793.00,0.0067
3792.00,0.0067
3791.00,0.0067
3790.00,0.0067
3789.00,0.0067
3788.00,0.0067
3787.00,0.0067
3786.00,0.0067
3785.00,0.0067
3784.00,0.0067
3783.00,0.0067
3782.00,0.0067
3781.00,0.0066
3780.00,0.0066
3779.00,0.0067
3778.00,0.0067
3777.00,0.0067
3776.00,0.0067
3775.00,0.0066
3774.00,0.0066
3773.00,0.0067
3772.00,0.0067
3771.00,0.0067
3770.00,0.0067
3769.00,0.0067
3768.00,0.0066
3767.00,0.0066
3766.00,0.0065
3765.00,0.0065
3764.00,0.0066
3763.00,0.0066
3762.00,0.0066
3761.00,0.0066
3760.00,0.0066
3759.00,0.0066
3758.00,0.0066
3757.00,0.0065
3756.00,0.0065
3755.00,0.0065
3754.00,0.0065
3753.00,0.0065
3752.00,0.0065
3751.00,0.0064
3750.00,0.0064
3749.00,0.0063
3748.00,0.0063
3747.00,0.0063
3746.00,0.0063
3745.00,0.0063
3744.00,0.0063
3743.00,0.0063
3742.00,0.0063
3741.00,0.0062
3740.00,0.0062
3739.00,0.0062
3738.00,0.0061
3737.00,0.0061
3736.00,0.0061
3735.00,0.0061
3734.00,0.0061
3733.00,0.0061
3732.00,0.0062
3731.00,0.0062
3730.00,0.0062
3729.00,0.0062
3728.00,0.0062
3727.00,0.0062
3726.00,0.0063
3725.00,0.0063
3724.00,0.0063
3723.00,0.0063
3722.00,0.0063
3721.00,0.0063
3720.00,0.0063
3719.00,0.0063
3718.00,0.0064
3717.00,0.0064
3716.00,0.0064
3715.00,0.0064
3714.00,0.0063
3713.00,0.0062
3712.00,0.0062
3711.00,0.0062
3710.00,0.0062
3709.00,0.0062
3708.00,0.0062
3707.00,0.0062
3706.00,0.0062
3705.00,0.0063
3704.00,0.0063
3703.00,0.0063
3702.00,0.0063
3701.00,0.0063
3700.00,0.0063
3699.00,0.0063
3698.00,0.0063
3697.00,0.0063
3696.00,0.0063
3695.00,0.0063
3694.00,0.0063
3693.00,0.0063
3692.00,0.0063
3691.00,0.0063
3690.00,0.0062
3689.00,0.0062
3688.00,0.0062
3687.00,0.0062
3686.00,0.0062
3685.00,0.0062
3684.00,0.0062
3683.00,0.0062
3682.00,0.0062
3681.00,0.0062
3680.00,0.0062
3679.00,0.0062
3678.00,0.0062
3677.00,0.0061
3676.00,0.0061
3675.00,0.0061
3674.00,0.0061
3673.00,0.0061
3672.00,0.0061
3671.00,0.0061
3670.00,0.0062
3669.00,0.0062
3668.00,0.0063
3667.00,0.0063
3666.00,0.0063
3665.00,0.0063
3664.00,0.0063
3663.00,0.0064
3662.00,0.0064
3661.00,0.0064
3660.00,0.0064
3659.00,0.0064
3658.00,0.0064
3657.00,0.0064
3656.00,0.0065
3655.00,0.0065
3654.00,0.0065
3653.00,0.0064
3652.00,0.0064
3651.00,0.0063
3650.00,0.0063
3649.00,0.0063
3648.00,0.0064
3647.00,0.0064
3646.00,0.0065
3645.00,0.0066
3644.00,0.0066
3643.00,0.0067
3642.00,0.0067
3641.00,0.0068
3640.00,0.0068
3639.00,0.0068
3638.00,0.0068
3637.00,0.0069
3636.00,0.0069
3635.00,0.0069
3634.00,0.0070
3633.00,0.0070
3632.00,0.0070
3631.00,0.0070
3630.00,0.0070
3629.00,0.0070
3628.00,0.0071
3627.00,0.0071
3626.00,0.0071
3625.00,0.0071
3624.00,0.0072
3623.00,0.0072
3622.00,0.0073
3621.00,0.0073
3620.00,0.0074
3619.00,0.0074
3618.00,0.0075
3617.00,0.0075
3616.00,0.0074
3615.00,0.0074
3614.00,0.0074
3613.00,0.0075
3612.00,0.0076
3611.00,0.0076
3610.00,0.0077
3609.00,0.0077
3608.00,0.0078
3607.00,0.0078
3606.00,0.0078
3605.00,0.0078
3604.00,0.0078
3603.00,0.0079
3602.00,0.0079
3601.00,0.0079
3600.00,0.0080
3599.00,0.0080
3598.00,0.0081
3597.00,0.0081
3596.00,0.0081
3595.00,0.0081
3594.00,0.0082
3593.00,0.0082
3592.00,0.0083
3591.00,0.0083
3590.00,0.0083
3589.00,0.0084
3588.00,0.0084
3587.00,0.0085
3586.00,0.0086
3585.00,0.0086
3584.00,0.0086
3583.00,0.0087
3582.00,0.0087
3581.00,0.0088
3580.00,0.0088
3579.00,0.0089
3578.00,0.0089
3577.00,0.0089
3576.00,0.0089
3575.00,0.0090
3574.00,0.0091
3573.00,0.0091
3572.00,0.0091
3571.00,0.0091
3570.00,0.0091
3569.00,0.0091
3568.00,0.0092
3567.00,0.0093
3566.00,0.0094
3565.00,0.0095
3564.00,0.0095
3563.00,0.0095
3562.00,0.0095
3561.00,0.0096
3560.00,0.0097
3559.00,0.0098
3558.00,0.0098
3557.00,0.0099
3556.00,0.0099
3555.00,0.0100
3554.00,0.0100
3553.00,0.0100
3552.00,0.0101
3551.00,0.0101
3550.00,0.0101
3549.00,0.0101
3548.00,0.0101
3547.00,0.0102
3546.00,0.0103
3545.00,0.0104
3544.00,0.0104
3543.00,0.0105
3542.00,0.0105
3541.00,0.0106
3540.00,0.0106
3539.00,0.0107
3538.00,0.0107
3537.00,0.0108
3536.00,0.0109
3535.00,0.0109
3534.00,0.0109
3533.00,0.0109
3532.00,0.0110
3531.00,0.0110
3530.00,0.0110
3529.00,0.0111
3528.00,0.0112
3527.00,0.0112
3526.00,0.0113
3525.00,0.0113
3524.00,0.0114
3523.00,0.0114
3522.00,0.0115
3521.00,0.0115
3520.00,0.0115
3519.00,0.0116
3518.00,0.0116
3517.00,0.0117
3516.00,0.0117
3515.00,0.0118
3514.00,0.0119
3513.00,0.0119
3512.00,0.0119
3511.00,0.0120
3510.00,0.0120
3509.00,0.0121
3508.00,0.0122
3507.00,0.0122
3506.00,0.0122
3505.00,0.0122
3504.00,0.0123
3503.00,0.0124
3502.00,0.0125
3501.00,0.0125
3500.00,0.0126
3499.00,0.0126
3498.00,0.0127
3497.00,0.0127
3496.00,0.0128
3495.00,0.0128
3494.00,0.0129
3493.00,0.0129
3492.00,0.0130
3491.00,0.0130
3490.00,0.0131
3489.00,0.0132
3488.00,0.0132
3487.00,0.0133
3486.00,0.0133
3485.00,0.0134
3484.00,0.0134
3483.00,0.0135
3482.00,0.0135
3481.00,0.0136
3480.00,0.0136
3479.00,0.0137
3478.00,0.0137
3477.00,0.0137
3476.00,0.0138
3475.00,0.0138
3474.00,0.0139
3473.00,0.0140
3472.00,0.0140
3471.00,0.0141
3470.00,0.0142
3469.00,0.0143
3468.00,0.0144
3467.00,0.0145
3466.00,0.0146
3465.00,0.0146
3464.00,0.0147
3463.00,0.0147
3462.00,0.0148
3461.00,0.0149
3460.00,0.0150
3459.00,0.0150
3458.00,0.0151
3457.00,0.0152
3456.00,0.0154
3455.00,0.0155
3454.00,0.0156
3453.00,0.0157
3452.00,0.0158
3451.00,0.0159
3450.00,0.0159
3449.00,0.0160
3448.00,0.0161
3447.00,0.0162
3446.00,0.0162
3445.00,0.0163
3444.00,0.0163
3443.00,0.0163
3442.00,0.0164
3441.00,0.0164
3440.00,0.0165
3439.00,0.0165
3438.00,0.0166
3437.00,0.0166
3436.00,0.0167
3435.00,0.0167
3434.00,0.0168
3433.00,0.0169
3432.00,0.0169
3431.00,0.0170
3430.00,0.0171
3429.00,0.0172
3428.00,0.0173
3427.00,0.0173
3426.00,0.0174
3425.00,0.0175
3424.00,0.0175
3423.00,0.0176
3422.00,0.0177
3421.00,0.0178
3420.00,0.0179
3419.00,0.0180
3418.00,0.0181
3417.00,0.0182
3416.00,0.0183
3415.00,0.0184
3414.00,0.0184
3413.00,0.0185
3412.00,0.0186
3411.00,0.0187
3410.00,0.0187
3409.00,0.0188
3408.00,0.0189
3407.00,0.0190
3406.00,0.0191
3405.00,0.0191
3404.00,0.0192
3403.00,0.0193
3402.00,0.0194
3401.00,0.0195
3400.00,0.0196
3399.00,0.0196
3398.00,0.0197
3397.00,0.0198
3396.00,0.0199
3395.00,0.0199
3394.00,0.0200
3393.00,0.0200
3392.00,0.0201
3391.00,0.0202
3390.00,0.0204
3389.00,0.0205
3388.00,0.0206
3387.00,0.0207
3386.00,0.0208
3385.00,0.0209
3384.00,0.0210
3383.00,0.0211
3382.00,0.0212
3381.00,0.0213
3380.00,0.0214
3379.00,0.0214
3378.00,0.0215
3377.00,0.0216
3376.00,0.0217
3375.00,0.0218
3374.00,0.0219
3373.00,0.0219
3372.00,0.0220
3371.00,0.0221
3370.00,0.0222
3369.00,0.0223
3368.00,0.0225
3367.00,0.0226
3366.00,0.0228
3365.00,0.0229
3364.00,0.0231
3363.00,0.0232
3362.00,0.0233
3361.00,0.0234
3360.00,0.0235
3359.00,0.0237
3358.00,0.0238
3357.00,0.0239
3356.00,0.0241
3355.00,0.0242
3354.00,0.0243
3353.00,0.0244
3352.00,0.0245
3351.00,0.0246
3350.00,0.0247
3349.00,0.0249
3348.00,0.0251
3347.00,0.0252
3346.00,0.0254
3345.00,0.0255
3344.00,0.0256
3343.00,0.0257
3342.00,0.0259
3341.00,0.0260
3340.00,0.0261
3339.00,0.0262
3338.00,0.0264
3337.00,0.0266
3336.00,0.0268
3335.00,0.0270
3334.00,0.0271
3333.00,0.0273
3332.00,0.0274
3331.00,0.0275
3330.00,0.0277
3329.00,0.0278
3328.00,0.0279
3327.00,0.0280
3326.00,0.0281
3325.00,0.0283
3324.00,0.0286
3323.00,0.0288
3322.00,0.0290
3321.00,0.0291
3320.00,0.0293
3319.00,0.0294
3318.00,0.0295
3317.00,0.0297
3316.00,0.0298
3315.00,0.0300
3314.00,0.0301
3313.00,0.0302
3312.00,0.0303
3311.00,0.0303
3310.00,0.0304
3309.00,0.0304
3308.00,0.0305
3307.00,0.0306
3306.00,0.0308
3305.00,0.0310
3304.00,0.0313
3303.00,0.0316
3302.00,0.0318
3301.00,0.0319
3300.00,0.0320
3299.00,0.0320
3298.00,0.0321
3297.00,0.0321
3296.00,0.0322
3295.00,0.0322
3294.00,0.0323
3293.00,0.0325
3292.00,0.0326
3291.00,0.0328
3290.00,0.0330
3289.00,0.0331
3288.00,0.0332
3287.00,0.0332
3286.00,0.0333
3285.00,0.0333
3284.00,0.0333
3283.00,0.0334
3282.00,0.0334
3281.00,0.0334
3280.00,0.0334
3279.00,0.0334
3278.00,0.0333
3277.00,0.0332
3276.00,0.0331
3275.00,0.0330
3274.00,0.0328
3273.00,0.0327
3272.00,0.0325
3271.00,0.0325
3270.00,0.0325
3269.00,0.0325
3268.00,0.0325
3267.00,0.0324
3266.00,0.0323
3265.00,0.0322
3264.00,0.0321
3263.00,0.0319
3262.00,0.0318
3261.00,0.0317
3260.00,0.0315
3259.00,0.0313
3258.00,0.0311
3257.00,0.0309
3256.00,0.0308
3255.00,0.0306
3254.00,0.0306
3253.00,0.0305
3252.00,0.0303
3251.00,0.0302
3250.00,0.0299
3249.00,0.0297
3248.00,0.0295
3247.00,0.0293
3246.00,0.0292
3245.00,0.0292
3244.00,0.0291
3243.00,0.0290
3242.00,0.0289
3241.00,0.0288
3240.00,0.0286
3239.00,0.0285
3238.00,0.0283
3237.00,0.0281
3236.00,0.0279
3235.00,0.0277
3234.00,0.0276
3233.00,0.0275
3232.00,0.0275
3231.00,0.0275
3230.00,0.0275
3229.00,0.0274
3228.00,0.0274
3227.00,0.0273
3226.00,0.0272
3225.00,0.0271
3224.00,0.0270
3223.00,0.0269
3222.00,0.0268
3221.00,0.0267
3220.00,0.0266
3219.00,0.0265
3218.00,0.0265
3217.00,0.0264
3216.00,0.0263
3215.00,0.0262
3214.00,0.0262
3213.00,0.0261
3212.00,0.0260
3211.00,0.0259
3210.00,0.0259
3209.00,0.0258
3208.00,0.0257
3207.00,0.0257
3206.00,0.0256
3205.00,0.0255
3204.00,0.0255
3203.00,0.0254
3202.00,0.0253
3201.00,0.0252
3200.00,0.0251
3199.00,0.0250
3198.00,0.0249
3197.00,0.0248
3196.00,0.0247
3195.00,0.0246
3194.00,0.0245
3193.00,0.0244
3192.00,0.0243
3191.00,0.0242
3190.00,0.0241
3189.00,0.0240
3188.00,0.0240
3187.00,0.0239
3186.00,0.0239
3185.00,0.0238
3184.00,0.0237
3183.00,0.0236
3182.00,0.0235
3181.00,0.0234
3180.00,0.0232
3179.00,0.0231
3178.00,0.0230
3177.00,0.0229
3176.00,0.0228
3175.00,0.0227
3174.00,0.0226
3173.00,0.0225
3172.00,0.0225
3171.00,0.0224
3170.00,0.0223
3169.00,0.0222
3168.00,0.0220
3167.00,0.0219
3166.00,0.0218
3165.00,0.0218
3164.00,0.0217
3163.00,0.0216
3162.00,0.0215
3161.00,0.0214
3160.00,0.0213
3159.00,0.0212
3158.00,0.0211
3157.00,0.0210
3156.00,0.0209
3155.00,0.0207
3154.00,0.0206
3153.00,0.0205
3152.00,0.0205
3151.00,0.0204
3150.00,0.0204
3149.00,0.0204
3148.00,0.0203
3147.00,0.0203
3146.00,0.0202
3145.00,0.0201
3144.00,0.0200
3143.00,0.0199
3142.00,0.0198
3141.00,0.0197
3140.00,0.0196
3139.00,0.0196
3138.00,0.0196
3137.00,0.0196
3136.00,0.0196
3135.00,0.0195
3134.00,0.0195
3133.00,0.0194
3132.00,0.0193
3131.00,0.0192
3130.00,0.0192
3129.00,0.0191
3128.00,0.0191
3127.00,0.0191
3126.00,0.0191
3125.00,0.0191
3124.00,0.0190
3123.00,0.0189
3122.00,0.0188
3121.00,0.0187
3120.00,0.0186
3119.00,0.0186
3118.00,0.0186
3117.00,0.0186
3116.00,0.0186
3115.00,0.0187
3114.00,0.0188
3113.00,0.0188
3112.00,0.0189
3111.00,0.0188
3110.00,0.0188
3109.00,0.0188
3108.00,0.0188
3107.00,0.0189
3106.00,0.0189
3105.00,0.0190
3104.00,0.0190
3103.00,0.0189
3102.00,0.0189
3101.00,0.0189
3100.00,0.0190
3099.00,0.0190
3098.00,0.0191
3097.00,0.0192
3096.00,0.0192
3095.00,0.0192
3094.00,0.0192
3093.00,0.0192
3092.00,0.0191
3091.00,0.0191
3090.00,0.0191
3089.00,0.0192
3088.00,0.0192
3087.00,0.0192
3086.00,0.0192
3085.00,0.0191
3084.00,0.0192
3083.00,0.0192
3082.00,0.0192
3081.00,0.0192
3080.00,0.0192
3079.00,0.0192
3078.00,0.0193
3077.00,0.0194
3076.00,0.0196
3075.00,0.0197
3074.00,0.0197
3073.00,0.0197
3072.00,0.0197
3071.00,0.0196
3070.00,0.0195
3069.00,0.0194
3068.00,0.0194
3067.00,0.0194
3066.00,0.0195
3065.00,0.0195
3064.00,0.0195
3063.00,0.0196
3062.00,0.0195
3061.00,0.0195
3060.00,0.0194
3059.00,0.0194
3058.00,0.0193
3057.00,0.0192
3056.00,0.0191
3055.00,0.0191
3054.00,0.0190
3053.00,0.0190
3052.00,0.0189
3051.00,0.0188
3050.00,0.0188
3049.00,0.0188
3048.00,0.0187
3047.00,0.0186
3046.00,0.0185
3045.00,0.0183
3044.00,0.0182
3043.00,0.0182
3042.00,0.0182
3041.00,0.0182
3040.00,0.0182
3039.00,0.0182
3038.00,0.0181
3037.00,0.0180
3036.00,0.0178
3035.00,0.0177
3034.00,0.0177
3033.00,0.0177
3032.00,0.0177
3031.00,0.0177
3030.00,0.0177
3029.00,0.0176
3028.00,0.0176
3027.00,0.0175
3026.00,0.0174
3025.00,0.0173
3024.00,0.0172
3023.00,0.0172
3022.00,0.0171
3021.00,0.0170
3020.00,0.0168
3019.00,0.0167
3018.00,0.0166
3017.00,0.0164
3016.00,0.0163
3015.00,0.0162
3014.00,0.0161
3013.00,0.0161
3012.00,0.0161
3011.00,0.0161
3010.00,0.0161
3009.00,0.0161
3008.00,0.0160
3007.00,0.0160
3006.00,0.0159
3005.00,0.0158
3004.00,0.0157
3003.00,0.0156
3002.00,0.0155
3001.00,0.0154
3000.00,0.0153
2999.00,0.0153
2998.00,0.0152
2997.00,0.0152
2996.00,0.0152
2995.00,0.0152
2994.00,0.0152
2993.00,0.0153
2992.00,0.0154
2991.00,0.0155
2990.00,0.0156
2989.00,0.0157
2988.00,0.0158
2987.00,0.0159
2986.00,0.0159
2985.00,0.0159
2984.00,0.0158
2983.00,0.0157
2982.00,0.0157
2981.00,0.0158
2980.00,0.0161
2979.00,0.0164
2978.00,0.0167
2977.00,0.0170
2976.00,0.0173
2975.00,0.0175
2974.00,0.0177
2973.00,0.0179
2972.00,0.0180
2971.00,0.0182
2970.00,0.0184
2969.00,0.0187
2968.00,0.0189
2967.00,0.0191
2966.00,0.0193
2965.00,0.0194
2964.00,0.0196
2963.00,0.0197
2962.00,0.0198
2961.00,0.0199
2960.00,0.0199
2959.00,0.0199
2958.00,0.0199
2957.00,0.0198
2956.00,0.0197
2955.00,0.0196
2954.00,0.0195
2953.00,0.0194
2952.00,0.0194
2951.00,0.0193
2950.00,0.0193
2949.00,0.0192
2948.00,0.0192
2947.00,0.0192
2946.00,0.0192
2945.00,0.0193
2944.00,0.0194
2943.00,0.0196
2942.00,0.0197
2941.00,0.0199
2940.00,0.0200
2939.00,0.0201
2938.00,0.0203
2937.00,0.0204
2936.00,0.0205
2935.00,0.0205
2934.00,0.0206
2933.00,0.0206
2932.00,0.0206
2931.00,0.0206
2930.00,0.0206
2929.00,0.0207
2928.00,0.0207
2927.00,0.0208
2926.00,0.0208
2925.00,0.0208
2924.00,0.0208
2923.00,0.0208
2922.00,0.0208
2921.00,0.0207
2920.00,0.0206
2919.00,0.0205
2918.00,0.0203
2917.00,0.0201
2916.00,0.0198
2915.00,0.0195
2914.00,0.0192
2913.00,0.0190
2912.00,0.0187
2911.00,0.0184
2910.00,0.0182
2909.00,0.0180
2908.00,0.0179
2907.00,0.0177
2906.00,0.0175
2905.00,0.0174
2904.00,0.0173
2903.00,0.0172
2902.00,0.0171
2901.00,0.0170
2900.00,0.0169
2899.00,0.0168
2898.00,0.0166
2897.00,0.0165
2896.00,0.0164
2895.00,0.0163
2894.00,0.0163
2893.00,0.0163
2892.00,0.0162
2891.00,0.0162
2890.00,0.0161
2889.00,0.0161
2888.00,0.0161
2887.00,0.0161
2886.00,0.0161
2885.00,0.0161
2884.00,0.0162
2883.00,0.0162
2882.00,0.0163
2881.00,0.0164
2880.00,0.0165
2879.00,0.0166
2878.00,0.0167
2877.00,0.0168
2876.00,0.0168
2875.00,0.0168
2874.00,0.0167
2873.00,0.0167
2872.00,0.0167
2871.00,0.0166
2870.00,0.0165
2869.00,0.0164
2868.00,0.0163
2867.00,0.0162
2866.00,0.0160
2865.00,0.0159
2864.00,0.0158
2863.00,0.0157
2862.00,0.0156
2861.00,0.0155
2860.00,0.0154
2859.00,0.0154
2858.00,0.0153
2857.00,0.0153
2856.00,0.0153
2855.00,0.0152
2854.00,0.0153
2853.00,0.0153
2852.00,0.0153
2851.00,0.0153
2850.00,0.0152
2849.00,0.0151
2848.00,0.0150
2847.00,0.0148
2846.00,0.0146
2845.00,0.0144
2844.00,0.0143
2843.00,0.0142
2842.00,0.0140
2841.00,0.0139
2840.00,0.0138
2839.00,0.0137
2838.00,0.0136
2837.00,0.0136
2836.00,0.0135
2835.00,0.0135
2834.00,0.0134
2833.00,0.0134
2832.00,0.0134
2831.00,0.0133
2830.00,0.0133
2829.00,0.0132
2828.00,0.0132
2827.00,0.0132
2826.00,0.0131
2825.00,0.0131
2824.00,0.0131
2823.00,0.0130
2822.00,0.0130
2821.00,0.0130
2820.00,0.0130
2819.00,0.0129
2818.00,0.0129
2817.00,0.0129
2816.00,0.0129
2815.00,0.0129
2814.00,0.0129
2813.00,0.0128
2812.00,0.0128
2811.00,0.0127
2810.00,0.0127
2809.00,0.0127
2808.00,0.0126
2807.00,0.0126
2806.00,0.0126
2805.00,0.0126
2804.00,0.0125
2803.00,0.0125
2802.00,0.0125
2801.00,0.0125
2800.00,0.0124
2799.00,0.0124
2798.00,0.0123
2797.00,0.0123
2796.00,0.0123
2795.00,0.0123
2794.00,0.0123
2793.00,0.0122
2792.00,0.0122
2791.00,0.0121
2790.00,0.0121
2789.00,0.0121
2788.00,0.0121
2787.00,0.0121
2786.00,0.0121
2785.00,0.0121
2784.00,0.0120
2783.00,0.0120
2782.00,0.0120
2781.00,0.0120
2780.00,0.0119
2779.00,0.0119
2778.00,0.0119
2777.00,0.0118
2776.00,0.0118
2775.00,0.0117
2774.00,0.0117
2773.00,0.0117
2772.00,0.0117
2771.00,0.0117
2770.00,0.0116
2769.00,0.0116
2768.00,0.0116
2767.00,0.0116
2766.00,0.0115
2765.00,0.0115
2764.00,0.0115
2763.00,0.0114
2762.00,0.0114
2761.00,0.0114
2760.00,0.0114
2759.00,0.0114
2758.00,0.0113
2757.00,0.0113
2756.00,0.0113
2755.00,0.0113
2754.00,0.0112
2753.00,0.0112
2752.00,0.0112
2751.00,0.0112
2750.00,0.0111
2749.00,0.0111
2748.00,0.0111
2747.00,0.0111
2746.00,0.0111
2745.00,0.0111
2744.00,0.0110
2743.00,0.0110
2742.00,0.0110
2741.00,0.0110
2740.00,0.0110
2739.00,0.0109
2738.00,0.0109
2737.00,0.0109
2736.00,0.0109
2735.00,0.0109
2734.00,0.0109
2733.00,0.0108
2732.00,0.0108
2731.00,0.0108
2730.00,0.0107
2729.00,0.0107
2728.00,0.0107
2727.00,0.0106
2726.00,0.0106
2725.00,0.0106
2724.00,0.0106
2723.00,0.0105
2722.00,0.0105
2721.00,0.0105
2720.00,0.0105
2719.00,0.0104
2718.00,0.0104
2717.00,0.0104
2716.00,0.0104
2715.00,0.0104
2714.00,0.0103
2713.00,0.0103
2712.00,0.0103
2711.00,0.0103
2710.00,0.0103
2709.00,0.0102
2708.00,0.0102
2707.00,0.0102
2706.00,0.0102
2705.00,0.0102
2704.00,0.0102
2703.00,0.0101
2702.00,0.0101
2701.00,0.0101
2700.00,0.0101
2699.00,0.0100
2698.00,0.0100
2697.00,0.0100
2696.00,0.0100
2695.00,0.0100
2694.00,0.0100
2693.00,0.0100
2692.00,0.0100
2691.00,0.0100
2690.00,0.0099
2689.00,0.0099
2688.00,0.0099
2687.00,0.0099
2686.00,0.0099
2685.00,0.0099
2684.00,0.0099
2683.00,0.0098
2682.00,0.0098
2681.00,0.0098
2680.00,0.0097
2679.00,0.0097
2678.00,0.0097
2677.00,0.0097
2676.00,0.0097
2675.00,0.0097
2674.00,0.0097
2673.00,0.0097
2672.00,0.0097
2671.00,0.0097
2670.00,0.0097
2669.00,0.0097
2668.00,0.0097
2667.00,0.0097
2666.00,0.0097
2665.00,0.0098
2664.00,0.0098
2663.00,0.0098
2662.00,0.0099
2661.00,0.0099
2660.00,0.0099
2659.00,0.0099
2658.00,0.0099
2657.00,0.0099
2656.00,0.0099
2655.00,0.0099
2654.00,0.0099
2653.00,0.0099
2652.00,0.0099
2651.00,0.0098
2650.00,0.0098
2649.00,0.0098
2648.00,0.0098
2647.00,0.0098
2646.00,0.0098
2645.00,0.0097
2644.00,0.0097
2643.00,0.0097
2642.00,0.0097
2641.00,0.0097
2640.00,0.0097
2639.00,0.0096
2638.00,0.0096
2637.00,0.0096
2636.00,0.0096
2635.00,0.0096
2634.00,0.0096
2633.00,0.0096
2632.00,0.0095
2631.00,0.0095
2630.00,0.0095
2629.00,0.0095
2628.00,0.0095
2627.00,0.0094
2626.00,0.0094
2625.00,0.0094
2624.00,0.0094
2623.00,0.0094
2622.00,0.0093
2621.00,0.0093
2620.00,0.0093
2619.00,0.0093
2618.00,0.0093
2617.00,0.0093
2616.00,0.0092
2615.00,0.0092
2614.00,0.0092
2613.00,0.0092
2612.00,0.0091
2611.00,0.0091
2610.00,0.0091
2609.00,0.0090
2608.00,0.0090
2607.00,0.0090
2606.00,0.0090
2605.00,0.0090
2604.00,0.0090
2603.00,0.0090
2602.00,0.0089
2601.00,0.0089
2600.00,0.0089
2599.00,0.0088
2598.00,0.0088
2597.00,0.0088
2596.00,0.0088
2595.00,0.0089
2594.00,0.0089
2593.00,0.0089
2592.00,0.0088
2591.00,0.0088
2590.00,0.0087
2589.00,0.0087
2588.00,0.0087
2587.00,0.0087
2586.00,0.0086
2585.00,0.0086
2584.00,0.0086
2583.00,0.0086
2582.00,0.0086
2581.00,0.0086
2580.00,0.0086
2579.00,0.0086
2578.00,0.0086
2577.00,0.0086
2576.00,0.0086
2575.00,0.0085
2574.00,0.0085
2573.00,0.0084
2572.00,0.0084
2571.00,0.0084
2570.00,0.0084
2569.00,0.0084
2568.00,0.0084
2567.00,0.0083
2566.00,0.0083
2565.00,0.0083
2564.00,0.0083
2563.00,0.0083
2562.00,0.0083
2561.00,0.0083
2560.00,0.0083
2559.00,0.0082
2558.00,0.0082
2557.00,0.0082
2556.00,0.0082
2555.00,0.0082
2554.00,0.0082
2553.00,0.0082
2552.00,0.0081
2551.00,0.0081
2550.00,0.0081
2549.00,0.0081
2548.00,0.0081
2547.00,0.0081
2546.00,0.0081
2545.00,0.0081
2544.00,0.0080
2543.00,0.0080
2542.00,0.0080
2541.00,0.0079
2540.00,0.0079
2539.00,0.0079
2538.00,0.0079
2537.00,0.0079
2536.00,0.0079
2535.00,0.0079
2534.00,0.0079
2533.00,0.0079
2532.00,0.0079
2531.00,0.0079
2530.00,0.0078
2529.00,0.0078
2528.00,0.0078
2527.00,0.0078
2526.00,0.0078
2525.00,0.0077
2524.00,0.0077
2523.00,0.0077
2522.00,0.0077
2521.00,0.0077
2520.00,0.0077
2519.00,0.0077
2518.00,0.0076
2517.00,0.0076
2516.00,0.0076
2515.00,0.0076
2514.00,0.0076
2513.00,0.0076
2512.00,0.0076
2511.00,0.0075
2510.00,0.0075
2509.00,0.0076
2508.00,0.0076
2507.00,0.0076
2506.00,0.0076
2505.00,0.0075
2504.00,0.0075
2503.00,0.0075
2502.00,0.0075
2501.00,0.0075
2500.00,0.0074
2499.00,0.0074
2498.00,0.0074
2497.00,0.0074
2496.00,0.0074
2495.00,0.0074
2494.00,0.0074
2493.00,0.0074
2492.00,0.0074
2491.00,0.0073
2490.00,0.0073
2489.00,0.0073
2488.00,0.0073
2487.00,0.0073
2486.00,0.0073
2485.00,0.0073
2484.00,0.0072
2483.00,0.0072
2482.00,0.0072
2481.00,0.0072
2480.00,0.0072
2479.00,0.0072
2478.00,0.0072
2477.00,0.0072
2476.00,0.0072
2475.00,0.0072
2474.00,0.0072
2473.00,0.0072
2472.00,0.0072
2471.00,0.0072
2470.00,0.0072
2469.00,0.0072
2468.00,0.0071
2467.00,0.0071
2466.00,0.0071
2465.00,0.0071
2464.00,0.0071
2463.00,0.0071
2462.00,0.0071
2461.00,0.0071
2460.00,0.0071
2459.00,0.0072
2458.00,0.0072
2457.00,0.0072
2456.00,0.0072
2455.00,0.0072
2454.00,0.0071
2453.00,0.0071
2452.00,0.0071
2451.00,0.0070
2450.00,0.0070
2449.00,0.0070
2448.00,0.0070
2447.00,0.0070
2446.00,0.0069
2445.00,0.0069
2444.00,0.0069
2443.00,0.0069
2442.00,0.0068
2441.00,0.0068
2440.00,0.0068
2439.00,0.0068
2438.00,0.0067
2437.00,0.0067
2436.00,0.0067
2435.00,0.0067
2434.00,0.0067
2433.00,0.0067
2432.00,0.0068
2431.00,0.0068
2430.00,0.0068
2429.00,0.0067
2428.00,0.0067
2427.00,0.0066
2426.00,0.0065
2425.00,0.0065
2424.00,0.0064
2423.00,0.0064
2422.00,0.0064
2421.00,0.0064
2420.00,0.0065
2419.00,0.0065
2418.00,0.0065
2417.00,0.0065
2416.00,0.0065
2415.00,0.0065
2414.00,0.0065
2413.00,0.0064
2412.00,0.0065
2411.00,0.0064
2410.00,0.0064
2409.00,0.0063
2408.00,0.0063
2407.00,0.0062
2406.00,0.0062
2405.00,0.0062
2404.00,0.0062
2403.00,0.0062
2402.00,0.0062
2401.00,0.0062
2400.00,0.0062
2399.00,0.0062
2398.00,0.0062
2397.00,0.0062
2396.00,0.0062
2395.00,0.0062
2394.00,0.0062
2393.00,0.0061
2392.00,0.0061
2391.00,0.0061
2390.00,0.0060
2389.00,0.0060
2388.00,0.0059
2387.00,0.0058
2386.00,0.0058
2385.00,0.0058
2384.00,0.0057
2383.00,0.0057
2382.00,0.0057
2381.00,0.0056
2380.00,0.0056
2379.00,0.0055
2378.00,0.0055
2377.00,0.0055
2376.00,0.0055
2375.00,0.0055
2374.00,0.0055
2373.00,0.0055
2372.00,0.0055
2371.00,0.0055
2370.00,0.0055
2369.00,0.0055
2368.00,0.0055
2367.00,0.0055
2366.00,0.0055
2365.00,0.0055
2364.00,0.0055
2363.00,0.0055
2362.00,0.0055
2361.00,0.0055
2360.00,0.0054
2359.00,0.0054
2358.00,0.0054
2357.00,0.0054
2356.00,0.0055
2355.00,0.0055
2354.00,0.0055
2353.00,0.0055
2352.00,0.0055
2351.00,0.0055
2350.00,0.0056
2349.00,0.0056
2348.00,0.0056
2347.00,0.0057
2346.00,0.0058
2345.00,0.0058
2344.00,0.0058
2343.00,0.0057
2342.00,0.0057
2341.00,0.0058
2340.00,0.0058
2339.00,0.0058
2338.00,0.0059
2337.00,0.0059
2336.00,0.0058
2335.00,0.0058
2334.00,0.0058
2333.00,0.0057
2332.00,0.0058
2331.00,0.0058
2330.00,0.0059
2329.00,0.0061
2328.00,0.0064
2327.00,0.0068
2326.00,0.0071
2325.00,0.0072
2324.00,0.0071
2323.00,0.0069
2322.00,0.0067
2321.00,0.0065
2320.00,0.0064
2319.00,0.0062
2318.00,0.0061
2317.00,0.0061
2316.00,0.0061
2315.00,0.0061
2314.00,0.0060
2313.00,0.0060
2312.00,0.0059
2311.00,0.0058
2310.00,0.0058
2309.00,0.0058
2308.00,0.0058
2307.00,0.0059
2306.00,0.0059
2305.00,0.0060
2304.00,0.0060
2303.00,0.0061
2302.00,0.0061
2301.00,0.0061
2300.00,0.0062
2299.00,0.0062
2298.00,0.0062
2297.00,0.0062
2296.00,0.0062
2295.00,0.0063
2294.00,0.0064
2293.00,0.0065
2292.00,0.0066
2291.00,0.0067
2290.00,0.0068
2289.00,0.0068
2288.00,0.0069
2287.00,0.0069
2286.00,0.0069
2285.00,0.0068
2284.00,0.0067
2283.00,0.0066
2282.00,0.0066
2281.00,0.0065
2280.00,0.0065
2279.00,0.0065
2278.00,0.0064
2277.00,0.0064
2276.00,0.0063
2275.00,0.0063
2274.00,0.0063
2273.00,0.0062
2272.00,0.0062
2271.00,0.0063
2270.00,0.0063
2269.00,0.0063
2268.00,0.0062
2267.00,0.0061
2266.00,0.0060
2265.00,0.0059
2264.00,0.0058
2263.00,0.0059
2262.00,0.0059
2261.00,0.0060
2260.00,0.0061
2259.00,0.0061
2258.00,0.0060
2257.00,0.0059
2256.00,0.0057
2255.00,0.0056
2254.00,0.0056
2253.00,0.0056
2252.00,0.0057
2251.00,0.0057
2250.00,0.0057
2249.00,0.0058
2248.00,0.0058
2247.00,0.0057
2246.00,0.0057
2245.00,0.0058
2244.00,0.0059
2243.00,0.0059
2242.00,0.0059
2241.00,0.0058
2240.00,0.0057
2239.00,0.0057
2238.00,0.0056
2237.00,0.0056
2236.00,0.0056
2235.00,0.0056
2234.00,0.0056
2233.00,0.0056
2232.00,0.0056
2231.00,0.0055
2230.00,0.0055
2229.00,0.0055
2228.00,0.0056
2227.00,0.0057
2226.00,0.0057
2225.00,0.0058
2224.00,0.0057
2223.00,0.0056
2222.00,0.0054
2221.00,0.0053
2220.00,0.0053
2219.00,0.0053
2218.00,0.0053
2217.00,0.0053
2216.00,0.0052
2215.00,0.0052
2214.00,0.0053
2213.00,0.0054
2212.00,0.0055
2211.00,0.0056
2210.00,0.0056
2209.00,0.0056
2208.00,0.0055
2207.00,0.0055
2206.00,0.0055
2205.00,0.0056
2204.00,0.0057
2203.00,0.0058
2202.00,0.0058
2201.00,0.0058
2200.00,0.0058
2199.00,0.0057
2198.00,0.0055
2197.00,0.0055
2196.00,0.0055
2195.00,0.0056
2194.00,0.0058
2193.00,0.0059
2192.00,0.0059
2191.00,0.0058
2190.00,0.0058
2189.00,0.0058
2188.00,0.0058
2187.00,0.0058
2186.00,0.0056
2185.00,0.0054
2184.00,0.0051
2183.00,0.0049
2182.00,0.0048
2181.00,0.0049
2180.00,0.0050
2179.00,0.0050
2178.00,0.0049
2177.00,0.0048
2176.00,0.0046
2175.00,0.0046
2174.00,0.0047
2173.00,0.0049
2172.00,0.0052
2171.00,0.0054
2170.00,0.0056
2169.00,0.0057
2168.00,0.0058
2167.00,0.0058
2166.00,0.0058
2165.00,0.0059
2164.00,0.0061
2163.00,0.0060
2162.00,0.0055
2161.00,0.0043
2160.00,0.0029
2159.00,0.0018
2158.00,0.0014
2157.00,0.0015
2156.00,0.0019
2155.00,0.0022
2154.00,0.0024
2153.00,0.0026
2152.00,0.0028
2151.00,0.0030
2150.00,0.0031
2149.00,0.0033
2148.00,0.0033
2147.00,0.0034
2146.00,0.0033
2145.00,0.0033
2144.00,0.0033
2143.00,0.0034
2142.00,0.0034
2141.00,0.0035
2140.00,0.0035
2139.00,0.0035
2138.00,0.0033
2137.00,0.0031
2136.00,0.0029
2135.00,0.0027
2134.00,0.0027
2133.00,0.0029
2132.00,0.0032
2131.00,0.0034
2130.00,0.0036
2129.00,0.0037
2128.00,0.0038
2127.00,0.0039
2126.00,0.0040
2125.00,0.0042
2124.00,0.0043
2123.00,0.0044
2122.00,0.0044
2121.00,0.0045
2120.00,0.0046
2119.00,0.0047
2118.00,0.0049
2117.00,0.0049
2116.00,0.0049
2115.00,0.0049
2114.00,0.0049
2113.00,0.0049
2112.00,0.0050
2111.00,0.0050
2110.00,0.0050
2109.00,0.0049
2108.00,0.0049
2107.00,0.0048
2106.00,0.0049
2105.00,0.0049
2104.00,0.0050
2103.00,0.0049
2102.00,0.0049
2101.00,0.0048
2100.00,0.0048
2099.00,0.0048
2098.00,0.0047
2097.00,0.0046
2096.00,0.0045
2095.00,0.0045
2094.00,0.0045
2093.00,0.0045
2092.00,0.0046
2091.00,0.0047
2090.00,0.0047
2089.00,0.0047
2088.00,0.0048
2087.00,0.0048
2086.00,0.0048
2085.00,0.0049
2084.00,0.0050
2083.00,0.0051
2082.00,0.0051
2081.00,0.0051
2080.00,0.0051
2079.00,0.0051
2078.00,0.0051
2077.00,0.0050
2076.00,0.0050
2075.00,0.0049
2074.00,0.0049
2073.00,0.0050
2072.00,0.0049
2071.00,0.0049
2070.00,0.0049
2069.00,0.0049
2068.00,0.0049
2067.00,0.0049
2066.00,0.0048
2065.00,0.0047
2064.00,0.0046
2063.00,0.0046
2062.00,0.0045
2061.00,0.0045
2060.00,0.0046
2059.00,0.0046
2058.00,0.0047
2057.00,0.0048
2056.00,0.0048
2055.00,0.0049
2054.00,0.0051
2053.00,0.0054
2052.00,0.0057
2051.00,0.0056
2050.00,0.0052
2049.00,0.0048
2048.00,0.0045
2047.00,0.0044
2046.00,0.0043
2045.00,0.0043
2044.00,0.0044
2043.00,0.0045
2042.00,0.0045
2041.00,0.0045
2040.00,0.0046
2039.00,0.0046
2038.00,0.0046
2037.00,0.0046
2036.00,0.0045
2035.00,0.0043
2034.00,0.0040
2033.00,0.0039
2032.00,0.0038
2031.00,0.0038
2030.00,0.0037
2029.00,0.0037
2028.00,0.0038
2027.00,0.0038
2026.00,0.0037
2025.00,0.0037
2024.00,0.0037
2023.00,0.0036
2022.00,0.0036
2021.00,0.0036
2020.00,0.0036
2019.00,0.0036
2018.00,0.0036
2017.00,0.0036
2016.00,0.0036
2015.00,0.0035
2014.00,0.0035
2013.00,0.0035
2012.00,0.0035
2011.00,0.0036
2010.00,0.0035
2009.00,0.0033
2008.00,0.0031
2007.00,0.0029
2006.00,0.0028
2005.00,0.0030
2004.00,0.0033
2003.00,0.0035
2002.00,0.0036
2001.00,0.0037
2000.00,0.0039
1999.00,0.0040
1998.00,0.0041
1997.00,0.0041
1996.00,0.0041
1995.00,0.0041
1994.00,0.0040
1993.00,0.0040
1992.00,0.0040
1991.00,0.0040
1990.00,0.0040
1989.00,0.0042
1988.00,0.0043
1987.00,0.0043
1986.00,0.0044
1985.00,0.0045
1984.00,0.0048
1983.00,0.0050
1982.00,0.0052
1981.00,0.0052
1980.00,0.0049
1979.00,0.0043
1978.00,0.0036
1977.00,0.0031
1976.00,0.0030
1975.00,0.0029
1974.00,0.0028
1973.00,0.0028
1972.00,0.0027
1971.00,0.0027
1970.00,0.0027
1969.00,0.0028
1968.00,0.0028
1967.00,0.0028
1966.00,0.0027
1965.00,0.0028
1964.00,0.0029
1963.00,0.0029
1962.00,0.0029
1961.00,0.0028
1960.00,0.0028
1959.00,0.0028
1958.00,0.0028
1957.00,0.0029
1956.00,0.0030
1955.00,0.0030
1954.00,0.0030
1953.00,0.0031
1952.00,0.0031
1951.00,0.0031
1950.00,0.0031
1949.00,0.0030
1948.00,0.0031
1947.00,0.0031
1946.00,0.0032
1945.00,0.0033
1944.00,0.0034
1943.00,0.0033
1942.00,0.0032
1941.00,0.0031
1940.00,0.0031
1939.00,0.0032
1938.00,0.0033
1937.00,0.0033
1936.00,0.0033
1935.00,0.0034
1934.00,0.0033
1933.00,0.0033
1932.00,0.0033
1931.00,0.0033
1930.00,0.0034
1929.00,0.0034
1928.00,0.0035
1927.00,0.0035
1926.00,0.0035
1925.00,0.0035
1924.00,0.0036
1923.00,0.0035
1922.00,0.0034
1921.00,0.0035
1920.00,0.0036
1919.00,0.0037
1918.00,0.0036
1917.00,0.0034
1916.00,0.0034
1915.00,0.0034
1914.00,0.0035
1913.00,0.0036
1912.00,0.0037
1911.00,0.0037
1910.00,0.0037
1909.00,0.0037
1908.00,0.0036
1907.00,0.0036
1906.00,0.0036
1905.00,0.0035
1904.00,0.0035
1903.00,0.0035
1902.00,0.0036
1901.00,0.0036
1900.00,0.0036
1899.00,0.0036
1898.00,0.0036
1897.00,0.0037
1896.00,0.0037
1895.00,0.0037
1894.00,0.0037
1893.00,0.0037
1892.00,0.0038
1891.00,0.0038
1890.00,0.0037
1889.00,0.0036
1888.00,0.0035
1887.00,0.0035
1886.00,0.0035
1885.00,0.0036
1884.00,0.0037
1883.00,0.0037
1882.00,0.0036
1881.00,0.0036
1880.00,0.0036
1879.00,0.0037
1878.00,0.0037
1877.00,0.0037
1876.00,0.0037
1875.00,0.0037
1874.00,0.0037
1873.00,0.0037
1872.00,0.0039
1871.00,0.0040
1870.00,0.0040
1869.00,0.0039
1868.00,0.0037
1867.00,0.0035
1866.00,0.0034
1865.00,0.0034
1864.00,0.0036
1863.00,0.0036
1862.00,0.0037
1861.00,0.0037
1860.00,0.0036
1859.00,0.0036
1858.00,0.0036
1857.00,0.0037
1856.00,0.0037
1855.00,0.0037
1854.00,0.0037
1853.00,0.0037
1852.00,0.0037
1851.00,0.0037
1850.00,0.0037
1849.00,0.0038
1848.00,0.0039
1847.00,0.0041
1846.00,0.0042
1845.00,0.0040
1844.00,0.0036
1843.00,0.0032
1842.00,0.0031
1841.00,0.0033
1840.00,0.0036
1839.00,0.0037
1838.00,0.0038
1837.00,0.0038
1836.00,0.0038
1835.00,0.0038
1834.00,0.0038
1833.00,0.0040
1832.00,0.0042
1831.00,0.0042
1830.00,0.0041
1829.00,0.0038
1828.00,0.0037
1827.00,0.0038
1826.00,0.0039
1825.00,0.0038
1824.00,0.0037
1823.00,0.0036
1822.00,0.0037
1821.00,0.0037
1820.00,0.0037
1819.00,0.0036
1818.00,0.0035
1817.00,0.0034
1816.00,0.0035
1815.00,0.0036
1814.00,0.0037
1813.00,0.0039
1812.00,0.0040
1811.00,0.0040
1810.00,0.0039
1809.00,0.0038
1808.00,0.0038
1807.00,0.0039
1806.00,0.0039
1805.00,0.0040
1804.00,0.0041
1803.00,0.0042
1802.00,0.0042
1801.00,0.0041
1800.00,0.0040
1799.00,0.0039
1798.00,0.0039
1797.00,0.0040
1796.00,0.0042
1795.00,0.0044
1794.00,0.0045
1793.00,0.0043
1792.00,0.0039
1791.00,0.0036
1790.00,0.0034
1789.00,0.0036
1788.00,0.0039
1787.00,0.0041
1786.00,0.0041
1785.00,0.0041
1784.00,0.0040
1783.00,0.0041
1782.00,0.0042
1781.00,0.0042
1780.00,0.0041
1779.00,0.0040
1778.00,0.0040
1777.00,0.0042
1776.00,0.0044
1775.00,0.0046
1774.00,0.0047
1773.00,0.0045
1772.00,0.0041
1771.00,0.0038
1770.00,0.0037
1769.00,0.0038
1768.00,0.0039
1767.00,0.0038
1766.00,0.0039
1765.00,0.0042
1764.00,0.0046
1763.00,0.0047
1762.00,0.0045
1761.00,0.0043
1760.00,0.0042
1759.00,0.0044
1758.00,0.0046
1757.00,0.0045
1756.00,0.0044
1755.00,0.0044
1754.00,0.0046
1753.00,0.0048
1752.00,0.0049
1751.00,0.0047
1750.00,0.0046
1749.00,0.0046
1748.00,0.0047
1747.00,0.0048
1746.00,0.0049
1745.00,0.0050
1744.00,0.0052
1743.00,0.0054
1742.00,0.0055
1741.00,0.0056
1740.00,0.0055
1739.00,0.0053
1738.00,0.0054
1737.00,0.0058
1736.00,0.0061
1735.00,0.0060
1734.00,0.0052
1733.00,0.0046
1732.00,0.0046
1731.00,0.0052
1730.00,0.0057
1729.00,0.0060
1728.00,0.0061
1727.00,0.0062
1726.00,0.0064
1725.00,0.0065
1724.00,0.0066
1723.00,0.0067
1722.00,0.0069
1721.00,0.0074
1720.00,0.0078
1719.00,0.0080
1718.00,0.0078
1717.00,0.0074
1716.00,0.0074
1715.00,0.0076
1714.00,0.0081
1713.00,0.0086
1712.00,0.0093
1711.00,0.0099
1710.00,0.0105
1709.00,0.0112
1708.00,0.0120
1707.00,0.0129
1706.00,0.0138
1705.00,0.0146
1704.00,0.0155
1703.00,0.0164
1702.00,0.0174
1701.00,0.0187
1700.00,0.0199
1699.00,0.0209
1698.00,0.0220
1697.00,0.0233
1696.00,0.0247
1695.00,0.0257
1694.00,0.0266
1693.00,0.0277
1692.00,0.0289
1691.00,0.0301
1690.00,0.0311
1689.00,0.0321
1688.00,0.0329
1687.00,0.0335
1686.00,0.0342
1685.00,0.0354
1684.00,0.0371
1683.00,0.0383
1682.00,0.0393
1681.00,0.0402
1680.00,0.0412
1679.00,0.0421
1678.00,0.0429
1677.00,0.0438
1676.00,0.0450
1675.00,0.0463
1674.00,0.0474
1673.00,0.0482
1672.00,0.0491
1671.00,0.0503
1670.00,0.0518
1669.00,0.0534
1668.00,0.0545
1667.00,0.0553
1666.00,0.0560
1665.00,0.0568
1664.00,0.0580
1663.00,0.0596
1662.00,0.0611
1661.00,0.0624
1660.00,0.0633
1659.00,0.0642
1658.00,0.0650
1657.00,0.0654
1656.00,0.0655
1655.00,0.0658
1654.00,0.0676
1653.00,0.0710
1652.00,0.0731
1651.00,0.0734
1650.00,0.0733
1649.00,0.0733
1648.00,0.0740
1647.00,0.0755
1646.00,0.0769
1645.00,0.0775
1644.00,0.0777
1643.00,0.0778
1642.00,0.0778
1641.00,0.0780
1640.00,0.0780
1639.00,0.0779
1638.00,0.0777
1637.00,0.0780
1636.00,0.0793
1635.00,0.0807
1634.00,0.0811
1633.00,0.0807
1632.00,0.0800
1631.00,0.0793
1630.00,0.0788
1629.00,0.0784
1628.00,0.0781
1627.00,0.0776
1626.00,0.0768
1625.00,0.0758
1624.00,0.0751
1623.00,0.0745
1622.00,0.0736
1621.00,0.0721
1620.00,0.0703
1619.00,0.0685
1618.00,0.0668
1617.00,0.0654
1616.00,0.0641
1615.00,0.0626
1614.00,0.0610
1613.00,0.0593
1612.00,0.0575
1611.00,0.0558
1610.00,0.0542
1609.00,0.0526
1608.00,0.0511
1607.00,0.0497
1606.00,0.0484
1605.00,0.0471
1604.00,0.0460
1603.00,0.0449
1602.00,0.0440
1601.00,0.0432
1600.00,0.0424
1599.00,0.0417
1598.00,0.0411
1597.00,0.0406
1596.00,0.0401
1595.00,0.0397
1594.00,0.0394
1593.00,0.0391
1592.00,0.0388
1591.00,0.0385
1590.00,0.0384
1589.00,0.0382
1588.00,0.0381
1587.00,0.0381
1586.00,0.0381
1585.00,0.0381
1584.00,0.0382
1583.00,0.0383
1582.00,0.0386
1581.00,0.0388
1580.00,0.0389
1579.00,0.0389
1578.00,0.0391
1577.00,0.0393
1576.00,0.0398
1575.00,0.0403
1574.00,0.0407
1573.00,0.0411
1572.00,0.0414
1571.00,0.0419
1570.00,0.0427
1569.00,0.0435
1568.00,0.0440
1567.00,0.0444
1566.00,0.0450
1565.00,0.0457
1564.00,0.0463
1563.00,0.0465
1562.00,0.0465
1561.00,0.0465
1560.00,0.0475
1559.00,0.0499
1558.00,0.0520
1557.00,0.0527
1556.00,0.0532
1555.00,0.0540
1554.00,0.0549
1553.00,0.0558
1552.00,0.0566
1551.00,0.0575
1550.00,0.0586
1549.00,0.0596
1548.00,0.0602
1547.00,0.0607
1546.00,0.0613
1545.00,0.0621
1544.00,0.0629
1543.00,0.0635
1542.00,0.0641
1541.00,0.0652
1540.00,0.0668
1539.00,0.0680
1538.00,0.0684
1537.00,0.0683
1536.00,0.0681
1535.00,0.0682
1534.00,0.0690
1533.00,0.0699
1532.00,0.0704
1531.00,0.0704
1530.00,0.0702
1529.00,0.0702
1528.00,0.0704
1527.00,0.0707
1526.00,0.0710
1525.00,0.0711
1524.00,0.0710
1523.00,0.0710
1522.00,0.0716
1521.00,0.0725
1520.00,0.0730
1519.00,0.0731
1518.00,0.0733
1517.00,0.0737
1516.00,0.0740
1515.00,0.0738
1514.00,0.0731
1513.00,0.0723
1512.00,0.0715
1511.00,0.0707
1510.00,0.0696
1509.00,0.0685
1508.00,0.0678
1507.00,0.0678
1506.00,0.0675
1505.00,0.0664
1504.00,0.0651
1503.00,0.0638
1502.00,0.0626
1501.00,0.0614
1500.00,0.0602
1499.00,0.0591
1498.00,0.0579
1497.00,0.0567
1496.00,0.0555
1495.00,0.0543
1494.00,0.0530
1493.00,0.0517
1492.00,0.0505
1491.00,0.0493
1490.00,0.0482
1489.00,0.0471
1488.00,0.0459
1487.00,0.0447
1486.00,0.0435
1485.00,0.0423
1484.00,0.0414
1483.00,0.0405
1482.00,0.0397
1481.00,0.0391
1480.00,0.0385
1479.00,0.0381
1478.00,0.0377
1477.00,0.0375
1476.00,0.0374
1475.00,0.0373
1474.00,0.0373
1473.00,0.0376
1472.00,0.0380
1471.00,0.0382
1470.00,0.0382
1469.00,0.0383
1468.00,0.0383
1467.00,0.0383
1466.00,0.0382
1465.00,0.0382
1464.00,0.0382
1463.00,0.0382
1462.00,0.0382
1461.00,0.0382
1460.00,0.0384
1459.00,0.0385
1458.00,0.0389
1457.00,0.0394
1456.00,0.0399
1455.00,0.0401
1454.00,0.0404
1453.00,0.0407
1452.00,0.0409
1451.00,0.0411
1450.00,0.0412
1449.00,0.0413
1448.00,0.0415
1447.00,0.0415
1446.00,0.0414
1445.00,0.0412
1444.00,0.0410
1443.00,0.0407
1442.00,0.0404
1441.00,0.0401
1440.00,0.0396
1439.00,0.0391
1438.00,0.0386
1437.00,0.0382
1436.00,0.0378
1435.00,0.0374
1434.00,0.0370
1433.00,0.0366
1432.00,0.0362
1431.00,0.0359
1430.00,0.0356
1429.00,0.0353
1428.00,0.0351
1427.00,0.0349
1426.00,0.0348
1425.00,0.0349
1424.00,0.0351
1423.00,0.0352
1422.00,0.0353
1421.00,0.0353
1420.00,0.0355
1419.00,0.0359
1418.00,0.0363
1417.00,0.0366
1416.00,0.0369
1415.00,0.0372
1414.00,0.0374
1413.00,0.0376
1412.00,0.0379
1411.00,0.0381
1410.00,0.0383
1409.00,0.0385
1408.00,0.0386
1407.00,0.0388
1406.00,0.0390
1405.00,0.0393
1404.00,0.0395
1403.00,0.0397
1402.00,0.0397
1401.00,0.0398
1400.00,0.0400
1399.00,0.0402
1398.00,0.0404
1397.00,0.0405
1396.00,0.0406
1395.00,0.0407
1394.00,0.0408
1393.00,0.0408
1392.00,0.0408
1391.00,0.0407
1390.00,0.0407
1389.00,0.0406
1388.00,0.0404
1387.00,0.0403
1386.00,0.0400
1385.00,0.0397
1384.00,0.0393
1383.00,0.0390
1382.00,0.0386
1381.00,0.0382
1380.00,0.0379
1379.00,0.0375
1378.00,0.0372
1377.00,0.0368
1376.00,0.0365
1375.00,0.0363
1374.00,0.0360
1373.00,0.0358
1372.00,0.0355
1371.00,0.0352
1370.00,0.0350
1369.00,0.0348
1368.00,0.0344
1367.00,0.0340
1366.00,0.0336
1365.00,0.0332
1364.00,0.0328
1363.00,0.0325
1362.00,0.0322
1361.00,0.0319
1360.00,0.0317
1359.00,0.0315
1358.00,0.0313
1357.00,0.0313
1356.00,0.0312
1355.00,0.0312
1354.00,0.0311
1353.00,0.0311
1352.00,0.0311
1351.00,0.0311
1350.00,0.0311
1349.00,0.0311
1348.00,0.0312
1347.00,0.0312
1346.00,0.0312
1345.00,0.0312
1344.00,0.0311
1343.00,0.0311
1342.00,0.0311
1341.00,0.0312
1340.00,0.0312
1339.00,0.0313
1338.00,0.0313
1337.00,0.0314
1336.00,0.0313
1335.00,0.0313
1334.00,0.0313
1333.00,0.0312
1332.00,0.0311
1331.00,0.0311
1330.00,0.0310
1329.00,0.0310
1328.00,0.0311
1327.00,0.0311
1326.00,0.0312
1325.00,0.0313
1324.00,0.0314
1323.00,0.0315
1322.00,0.0317
1321.00,0.0318
1320.00,0.0320
1319.00,0.0321
1318.00,0.0322
1317.00,0.0322
1316.00,0.0322
1315.00,0.0322
1314.00,0.0322
1313.00,0.0322
1312.00,0.0323
1311.00,0.0323
1310.00,0.0323
1309.00,0.0323
1308.00,0.0323
1307.00,0.0323
1306.00,0.0323
1305.00,0.0323
1304.00,0.0323
1303.00,0.0322
1302.00,0.0322
1301.00,0.0321
1300.00,0.0321
1299.00,0.0322
1298.00,0.0322
1297.00,0.0322
1296.00,0.0323
1295.00,0.0323
1294.00,0.0324
1293.00,0.0325
1292.00,0.0326
1291.00,0.0327
1290.00,0.0328
1289.00,0.0330
1288.00,0.0331
1287.00,0.0332
1286.00,0.0333
1285.00,0.0334
1284.00,0.0335
1283.00,0.0336
1282.00,0.0336
1281.00,0.0337
1280.00,0.0337
1279.00,0.0337
1278.00,0.0337
1277.00,0.0336
1276.00,0.0336
1275.00,0.0336
1274.00,0.0337
1273.00,0.0337
1272.00,0.0338
1271.00,0.0339
1270.00,0.0340
1269.00,0.0342
1268.00,0.0344
1267.00,0.0346
1266.00,0.0348
1265.00,0.0350
1264.00,0.0352
1263.00,0.0354
1262.00,0.0355
1261.00,0.0357
1260.00,0.0358
1259.00,0.0360
1258.00,0.0361
1257.00,0.0362
1256.00,0.0363
1255.00,0.0364
1254.00,0.0365
1253.00,0.0366
1252.00,0.0367
1251.00,0.0368
1250.00,0.0369
1249.00,0.0371
1248.00,0.0374
1247.00,0.0376
1246.00,0.0378
1245.00,0.0380
1244.00,0.0382
1243.00,0.0383
1242.00,0.0384
1241.00,0.0384
1240.00,0.0385
1239.00,0.0385
1238.00,0.0386
1237.00,0.0386
1236.00,0.0386
1235.00,0.0386
1234.00,0.0386
1233.00,0.0386
1232.00,0.0386
1231.00,0.0385
1230.00,0.0384
1229.00,0.0383
1228.00,0.0382
1227.00,0.0380
1226.00,0.0377
1225.00,0.0375
1224.00,0.0373
1223.00,0.0370
1222.00,0.0368
1221.00,0.0365
1220.00,0.0362
1219.00,0.0359
1218.00,0.0356
1217.00,0.0352
1216.00,0.0348
1215.00,0.0344
1214.00,0.0340
1213.00,0.0337
1212.00,0.0333
1211.00,0.0329
1210.00,0.0326
1209.00,0.0322
1208.00,0.0319
1207.00,0.0315
1206.00,0.0311
1205.00,0.0306
1204.00,0.0301
1203.00,0.0297
1202.00,0.0293
1201.00,0.0289
1200.00,0.0286
1199.00,0.0283
1198.00,0.0280
1197.00,0.0277
1196.00,0.0275
1195.00,0.0273
1194.00,0.0271
1193.00,0.0269
1192.00,0.0267
1191.00,0.0265
1190.00,0.0264
1189.00,0.0262
1188.00,0.0261
1187.00,0.0260
1186.00,0.0259
1185.00,0.0258
1184.00,0.0257
1183.00,0.0257
1182.00,0.0257
1181.00,0.0258
1180.00,0.0258
1179.00,0.0259
1178.00,0.0260
1177.00,0.0261
1176.00,0.0263
1175.00,0.0264
1174.00,0.0266
1173.00,0.0267
1172.00,0.0267
1171.00,0.0267
1170.00,0.0266
1169.00,0.0265
1168.00,0.0264
1167.00,0.0263
1166.00,0.0262
1165.00,0.0260
1164.00,0.0260
1163.00,0.0259
1162.00,0.0259
1161.00,0.0259
1160.00,0.0259
1159.00,0.0258
1158.00,0.0258
1157.00,0.0258
1156.00,0.0257
1155.00,0.0256
1154.00,0.0255
1153.00,0.0253
1152.00,0.0252
1151.00,0.0250
1150.00,0.0248
1149.00,0.0245
1148.00,0.0243
1147.00,0.0241
1146.00,0.0239
1145.00,0.0237
1144.00,0.0236
1143.00,0.0235
1142.00,0.0235
1141.00,0.0234
1140.00,0.0233
1139.00,0.0233
1138.00,0.0233
1137.00,0.0233
1136.00,0.0234
1135.00,0.0235
1134.00,0.0235
1133.00,0.0236
1132.00,0.0238
1131.00,0.0239
1130.00,0.0240
1129.00,0.0242
1128.00,0.0243
1127.00,0.0244
1126.00,0.0245
1125.00,0.0246
1124.00,0.0246
1123.00,0.0247
1122.00,0.0248
1121.00,0.0248
1120.00,0.0249
1119.00,0.0250
1118.00,0.0251
1117.00,0.0252
1116.00,0.0253
1115.00,0.0254
1114.00,0.0254
1113.00,0.0255
1112.00,0.0256
1111.00,0.0256
1110.00,0.0257
1109.00,0.0258
1108.00,0.0259
1107.00,0.0260
1106.00,0.0261
1105.00,0.0262
1104.00,0.0262
1103.00,0.0262
1102.00,0.0262
1101.00,0.0263
1100.00,0.0263
1099.00,0.0263
1098.00,0.0262
1097.00,0.0262
1096.00,0.0262
1095.00,0.0262
1094.00,0.0263
1093.00,0.0263
1092.00,0.0264
1091.00,0.0264
1090.00,0.0264
1089.00,0.0264
1088.00,0.0265
1087.00,0.0267
1086.00,0.0268
1085.00,0.0269
1084.00,0.0270
1083.00,0.0272
1082.00,0.0273
1081.00,0.0274
1080.00,0.0275
1079.00,0.0276
1078.00,0.0276
1077.00,0.0277
1076.00,0.0277
1075.00,0.0278
1074.00,0.0278
1073.00,0.0278
1072.00,0.0279
1071.00,0.0279
1070.00,0.0279
1069.00,0.0279
1068.00,0.0279
1067.00,0.0279
1066.00,0.0280
1065.00,0.0280
1064.00,0.0280
1063.00,0.0280
1062.00,0.0280
1061.00,0.0280
1060.00,0.0280
1059.00,0.0281
1058.00,0.0281
1057.00,0.0282
1056.00,0.0282
1055.00,0.0283
1054.00,0.0283
1053.00,0.0283
1052.00,0.0283
1051.00,0.0282
1050.00,0.0282
1049.00,0.0283
1048.00,0.0283
1047.00,0.0284
1046.00,0.0284
1045.00,0.0283
1044.00,0.0282
1043.00,0.0281
1042.00,0.0279
1041.00,0.0277
1040.00,0.0275
1039.00,0.0273
1038.00,0.0271
1037.00,0.0269
1036.00,0.0268
1035.00,0.0267
1034.00,0.0265
1033.00,0.0264
1032.00,0.0261
1031.00,0.0259
1030.00,0.0256
1029.00,0.0254
1028.00,0.0252
1027.00,0.0250
1026.00,0.0249
1025.00,0.0247
1024.00,0.0245
1023.00,0.0244
1022.00,0.0243
1021.00,0.0242
1020.00,0.0240
1019.00,0.0239
1018.00,0.0237
1017.00,0.0235
1016.00,0.0233
1015.00,0.0231
1014.00,0.0229
1013.00,0.0227
1012.00,0.0225
1011.00,0.0222
1010.00,0.0219
1009.00,0.0216
1008.00,0.0213
1007.00,0.0210
1006.00,0.0207
1005.00,0.0205
1004.00,0.0203
1003.00,0.0201
1002.00,0.0199
1001.00,0.0197
1000.00,0.0195
999.00,0.0193
998.00,0.0192
997.00,0.0191
996.00,0.0190
995.00,0.0189
994.00,0.0188
993.00,0.0187
992.00,0.0187
991.00,0.0186
990.00,0.0185
989.00,0.0185
988.00,0.0184
987.00,0.0183
986.00,0.0182
985.00,0.0181
984.00,0.0179
983.00,0.0178
982.00,0.0177
981.00,0.0177
980.00,0.0176
979.00,0.0176
978.00,0.0175
977.00,0.0174
976.00,0.0173
975.00,0.0172
974.00,0.0171
973.00,0.0170
972.00,0.0169
971.00,0.0168
970.00,0.0167
969.00,0.0166
968.00,0.0166
967.00,0.0166
966.00,0.0165
965.00,0.0165
964.00,0.0165
963.00,0.0164
962.00,0.0164
961.00,0.0164
960.00,0.0164
959.00,0.0163
958.00,0.0162
957.00,0.0161
956.00,0.0161
955.00,0.0160
954.00,0.0160
953.00,0.0160
952.00,0.0160
951.00,0.0160
950.00,0.0161
949.00,0.0161
948.00,0.0162
947.00,0.0163
946.00,0.0164
945.00,0.0165
944.00,0.0167
943.00,0.0168
942.00,0.0169
941.00,0.0170
940.00,0.0171
939.00,0.0173
938.00,0.0174
937.00,0.0176
936.00,0.0177
935.00,0.0178
934.00,0.0180
933.00,0.0180
932.00,0.0181
931.00,0.0181
930.00,0.0181
929.00,0.0181
928.00,0.0181
927.00,0.0181
926.00,0.0180
925.00,0.0179
924.00,0.0178
923.00,0.0178
922.00,0.0177
921.00,0.0176
920.00,0.0176
919.00,0.0175
918.00,0.0174
917.00,0.0173
916.00,0.0173
915.00,0.0172
914.00,0.0171
913.00,0.0170
912.00,0.0170
911.00,0.0169
910.00,0.0170
909.00,0.0170
908.00,0.0171
907.00,0.0172
906.00,0.0173
905.00,0.0174
904.00,0.0174
903.00,0.0174
902.00,0.0174
901.00,0.0174
900.00,0.0174
899.00,0.0174
898.00,0.0173
897.00,0.0173
896.00,0.0173
895.00,0.0172
894.00,0.0172
893.00,0.0171
892.00,0.0171
891.00,0.0171
890.00,0.0170
889.00,0.0169
888.00,0.0168
887.00,0.0168
886.00,0.0169
885.00,0.0170
884.00,0.0170
883.00,0.0170
882.00,0.0170
881.00,0.0170
880.00,0.0170
879.00,0.0171
878.00,0.0171
877.00,0.0171
876.00,0.0171
875.00,0.0171
874.00,0.0171
873.00,0.0171
872.00,0.0171
871.00,0.0171
870.00,0.0171
869.00,0.0170
868.00,0.0170
867.00,0.0170
866.00,0.0171
865.00,0.0171
864.00,0.0172
863.00,0.0173
862.00,0.0174
861.00,0.0174
860.00,0.0175
859.00,0.0176
858.00,0.0178
857.00,0.0180
856.00,0.0182
855.00,0.0184
854.00,0.0185
853.00,0.0186
852.00,0.0186
851.00,0.0187
850.00,0.0187
849.00,0.0188
848.00,0.0189
847.00,0.0190
846.00,0.0190
845.00,0.0190
844.00,0.0191
843.00,0.0191
842.00,0.0192
841.00,0.0194
840.00,0.0195
839.00,0.0197
838.00,0.0198
837.00,0.0200
836.00,0.0202
835.00,0.0203
834.00,0.0205
833.00,0.0206
832.00,0.0208
831.00,0.0210
830.00,0.0211
829.00,0.0213
828.00,0.0214
827.00,0.0216
826.00,0.0217
825.00,0.0218
824.00,0.0219
823.00,0.0220
822.00,0.0220
821.00,0.0221
820.00,0.0222
819.00,0.0222
818.00,0.0223
817.00,0.0225
816.00,0.0227
815.00,0.0229
814.00,0.0231
813.00,0.0232
812.00,0.0234
811.00,0.0235
810.00,0.0236
809.00,0.0238
808.00,0.0239
807.00,0.0241
806.00,0.0242
805.00,0.0243
804.00,0.0243
803.00,0.0244
802.00,0.0246
801.00,0.0247
800.00,0.0249
799.00,0.0250
798.00,0.0252
797.00,0.0253
796.00,0.0255
795.00,0.0256
794.00,0.0258
793.00,0.0259
792.00,0.0260
791.00,0.0261
790.00,0.0263
789.00,0.0264
788.00,0.0265
787.00,0.0266
786.00,0.0268
785.00,0.0269
784.00,0.0270
783.00,0.0272
782.00,0.0273
781.00,0.0274
780.00,0.0276
779.00,0.0277
778.00,0.0278
777.00,0.0279
776.00,0.0280
775.00,0.0281
774.00,0.0282
773.00,0.0283
772.00,0.0284
771.00,0.0285
770.00,0.0287
769.00,0.0288
768.00,0.0289
767.00,0.0290
766.00,0.0291
765.00,0.0292
764.00,0.0294
763.00,0.0296
762.00,0.0298
761.00,0.0299
760.00,0.0301
759.00,0.0303
758.00,0.0305
757.00,0.0307
756.00,0.0309
755.00,0.0311
754.00,0.0312
753.00,0.0314
752.00,0.0316
751.00,0.0317
750.00,0.0319
749.00,0.0321
748.00,0.0323
747.00,0.0325
746.00,0.0327
745.00,0.0328
744.00,0.0330
743.00,0.0332
742.00,0.0334
741.00,0.0335
740.00,0.0337
739.00,0.0338
738.00,0.0340
737.00,0.0341
736.00,0.0343
735.00,0.0344
734.00,0.0346
733.00,0.0348
732.00,0.0350
731.00,0.0353
730.00,0.0356
729.00,0.0359
728.00,0.0362
727.00,0.0364
726.00,0.0367
725.00,0.0370
724.00,0.0372
723.00,0.0375
722.00,0.0378
721.00,0.0381
720.00,0.0385
719.00,0.0389
718.00,0.0392
717.00,0.0395
716.00,0.0398
715.00,0.0401
714.00,0.0405
713.00,0.0408
712.00,0.0412
711.00,0.0416
710.00,0.0420
709.00,0.0425
708.00,0.0429
707.00,0.0433
706.00,0.0437
705.00,0.0441
704.00,0.0445
703.00,0.0449
702.00,0.0452
701.00,0.0455
700.00,0.0457
699.00,0.0460
698.00,0.0461
697.00,0.0462
696.00,0.0462
695.00,0.0462
694.00,0.0463
693.00,0.0463
692.00,0.0464
691.00,0.0464
690.00,0.0464
689.00,0.0465
688.00,0.0468
687.00,0.0471
686.00,0.0474
685.00,0.0476
684.00,0.0479
683.00,0.0480
682.00,0.0482
681.00,0.0483
680.00,0.0485
679.00,0.0487
678.00,0.0489
677.00,0.0491
676.00,0.0493
675.00,0.0494
674.00,0.0496
673.00,0.0497
672.00,0.0497
671.00,0.0498
670.00,0.0500
669.00,0.0507
668.00,0.0519
667.00,0.0526
666.00,0.0524
665.00,0.0520
664.00,0.0517
663.00,0.0517
662.00,0.0518
661.00,0.0520
660.00,0.0521
659.00,0.0523
658.00,0.0524
657.00,0.0525
656.00,0.0526
655.00,0.0527
654.00,0.0527
653.00,0.0527
652.00,0.0527
651.00,0.0527
650.00,0.0528
649.00,0.0529
648.00,0.0530
647.00,0.0532
646.00,0.0534
645.00,0.0535
644.00,0.0537
643.00,0.0538
642.00,0.0539
641.00,0.0540
640.00,0.0541
639.00,0.0543
638.00,0.0544
637.00,0.0544
636.00,0.0545
635.00,0.0546
634.00,0.0548
633.00,0.0550
632.00,0.0552
631.00,0.0554
630.00,0.0556
629.00,0.0557
628.00,0.0558
627.00,0.0559
626.00,0.0560
625.00,0.0561
624.00,0.0562
623.00,0.0564
622.00,0.0566
621.00,0.0568
620.00,0.0570
619.00,0.0572
618.00,0.0573
617.00,0.0573
616.00,0.0573
615.00,0.0574
614.00,0.0575
613.00,0.0575
612.00,0.0575
611.00,0.0576
610.00,0.0576
609.00,0.0577
608.00,0.0577
607.00,0.0577
606.00,0.0577
605.00,0.0578
604.00,0.0579
603.00,0.0579
602.00,0.0580
601.00,0.0581
600.00,0.0582
599.00,0.0582
598.00,0.0581
597.00,0.0581
596.00,0.0581
595.00,0.0582
594.00,0.0583
593.00,0.0585
592.00,0.0588
591.00,0.0590
590.00,0.0592
589.00,0.0593
588.00,0.0593
587.00,0.0594
586.00,0.0594
585.00,0.0596
584.00,0.0597
583.00,0.0599
582.00,0.0600
581.00,0.0601
580.00,0.0602
579.00,0.0604
578.00,0.0606
577.00,0.0606
576.00,0.0606
575.00,0.0606
574.00,0.0606
573.00,0.0605
572.00,0.0606
571.00,0.0606
570.00,0.0606
569.00,0.0606
568.00,0.0606
567.00,0.0608
566.00,0.0610
565.00,0.0612
564.00,0.0614
563.00,0.0614
562.00,0.0614
561.00,0.0613
560.00,0.0614
559.00,0.0615
558.00,0.0617
557.00,0.0619
556.00,0.0621
555.00,0.0623
554.00,0.0625
553.00,0.0626
552.00,0.0626
551.00,0.0626
550.00,0.0625
549.00,0.0623
548.00,0.0622
547.00,0.0621
546.00,0.0621
545.00,0.0621
544.00,0.0622
543.00,0.0622
542.00,0.0621
541.00,0.0621
540.00,0.0621
539.00,0.0622
538.00,0.0622
537.00,0.0623
536.00,0.0624
535.00,0.0625
534.00,0.0623
533.00,0.0622
532.00,0.0621
531.00,0.0621
530.00,0.0621
529.00,0.0621
528.00,0.0621
527.00,0.0620
526.00,0.0618
525.00,0.0615
524.00,0.0613
523.00,0.0613
522.00,0.0612
521.00,0.0610
520.00,0.0608
519.00,0.0604
518.00,0.0601
517.00,0.0600
516.00,0.0603
515.00,0.0606
514.00,0.0609
513.00,0.0609
512.00,0.0608
511.00,0.0606
510.00,0.0603
509.00,0.0601
508.00,0.0600
507.00,0.0599
506.00,0.0597
505.00,0.0594
504.00,0.0591
503.00,0.0588
502.00,0.0586
501.00,0.0587
500.00,0.0589
499.00,0.0590
498.00,0.0591
497.00,0.0592
496.00,0.0592
495.00,0.0591
494.00,0.0590
493.00,0.0589
492.00,0.0590
491.00,0.0592
490.00,0.0592
489.00,0.0592
488.00,0.0591
487.00,0.0591
486.00,0.0590
485.00,0.0588
484.00,0.0585
483.00,0.0582
482.00,0.0579
481.00,0.0578
480.00,0.0579
479.00,0.0580
478.00,0.0579
477.00,0.0577
476.00,0.0575
475.00,0.0573
474.00,0.0570
473.00,0.0570
472.00,0.0571
471.00,0.0572
470.00,0.0572
469.00,0.0573
468.00,0.0575
467.00,0.0577
466.00,0.0578
465.00,0.0578
464.00,0.0578
463.00,0.0578
462.00,0.0575
461.00,0.0572
460.00,0.0570
459.00,0.0568
458.00,0.0566
457.00,0.0564
456.00,0.0562
455.00,0.0561
454.00,0.0561
453.00,0.0563
452.00,0.0565
451.00,0.0564
450.00,0.0559
449.00,0.0555
448.00,0.0555
447.00,0.0559
446.00,0.0562
445.00,0.0564
444.00,0.0566
443.00,0.0565
442.00,0.0562
441.00,0.0559
440.00,0.0558
439.00,0.0559
438.00,0.0562
437.00,0.0566
436.00,0.0570
435.00,0.0572
434.00,0.0571
433.00,0.0570
432.00,0.0571
431.00,0.0573
430.00,0.0574
429.00,0.0576
428.00,0.0580
427.00,0.0585
426.00,0.0586
425.00,0.0586
424.00,0.0587
423.00,0.0586
422.00,0.0582
421.00,0.0576
420.00,0.0571
419.00,0.0570
418.00,0.0572
417.00,0.0573
416.00,0.0573
415.00,0.0570
414.00,0.0565
413.00,0.0563
412.00,0.0567
411.00,0.0570
410.00,0.0570
409.00,0.0569
408.00,0.0569
407.00,0.0568
406.00,0.0561
405.00,0.0554
404.00,0.0548
403.00,0.0546
402.00,0.0547
401.00,0.0553
400.00,0.0562
