Created as New Dataset,Sample 747 By YargerLab Date Friday, June 27 2025
cm-1,A
4000.00,0.0003
3999.00,0.0003
3998.00,0.0003
3997.00,0.0003
3996.00,0.0003
3995.00,0.0003
3994.00,0.0003
3993.00,0.0003
3992.00,0.0003
3991.00,0.0004
3990.00,0.0004
3989.00,0.0003
3988.00,0.0003
3987.00,0.0003
3986.00,0.0003
3985.00,0.0003
3984.00,0.0003
3983.00,0.0003
3982.00,0.0003
3981.00,0.0003
3980.00,0.0003
3979.00,0.0003
3978.00,0.0003
3977.00,0.0003
3976.00,0.0003
3975.00,0.0003
3974.00,0.0003
3973.00,0.0003
3972.00,0.0003
3971.00,0.0003
3970.00,0.0003
3969.00,0.0003
3968.00,0.0003
3967.00,0.0003
3966.00,0.0003
3965.00,0.0003
3964.00,0.0003
3963.00,0.0003
3962.00,0.0003
3961.00,0.0003
3960.00,0.0003
3959.00,0.0003
3958.00,0.0003
3957.00,0.0003
3956.00,0.0003
3955.00,0.0003
3954.00,0.0003
3953.00,0.0002
3952.00,0.0002
3951.00,0.0002
3950.00,0.0002
3949.00,0.0002
3948.00,0.0002
3947.00,0.0002
3946.00,0.0002
3945.00,0.0002
3944.00,0.0002
3943.00,0.0002
3942.00,0.0002
3941.00,0.0002
3940.00,0.0002
3939.00,0.0002
3938.00,0.0003
3937.00,0.0002
3936.00,0.0002
3935.00,0.0002
3934.00,0.0002
3933.00,0.0002
3932.00,0.0002
3931.00,0.0002
3930.00,0.0002
3929.00,0.0002
3928.00,0.0002
3927.00,0.0002
3926.00,0.0002
3925.00,0.0002
3924.00,0.0002
3923.00,0.0002
3922.00,0.0002
3921.00,0.0002
3920.00,0.0002
3919.00,0.0002
3918.00,0.0002
3917.00,0.0002
3916.00,0.0002
3915.00,0.0002
3914.00,0.0002
3913.00,0.0002
3912.00,0.0002
3911.00,0.0003
3910.00,0.0002
3909.00,0.0002
3908.00,0.0002
3907.00,0.0001
3906.00,0.0001
3905.00,0.0000
3904.00,-0.0000
3903.00,-0.0000
3902.00,-0.0001
3901.00,-0.0001
3900.00,-0.0001
3899.00,-0.0000
3898.00,0.0000
3897.00,0.0000
3896.00,0.0001
3895.00,0.0001
3894.00,0.0001
3893.00,0.0001
3892.00,0.0002
3891.00,0.0002
3890.00,0.0001
3889.00,0.0001
3888.00,0.0000
3887.00,0.0000
3886.00,0.0000
3885.00,0.0000
3884.00,-0.0000
3883.00,-0.0000
3882.00,-0.0000
3881.00,0.0000
3880.00,0.0001
3879.00,0.0001
3878.00,0.0001
3877.00,0.0000
3876.00,0.0000
3875.00,0.0001
3874.00,0.0001
3873.00,0.0000
3872.00,-0.0000
3871.00,-0.0000
3870.00,-0.0000
3869.00,-0.0000
3868.00,-0.0000
3867.00,-0.0000
3866.00,-0.0000
3865.00,-0.0000
3864.00,0.0000
3863.00,0.0000
3862.00,0.0000
3861.00,0.0001
3860.00,0.0001
3859.00,0.0001
3858.00,0.0000
3857.00,-0.0000
3856.00,-0.0001
3855.00,-0.0001
3854.00,-0.0002
3853.00,-0.0002
3852.00,-0.0002
3851.00,-0.0002
3850.00,-0.0001
3849.00,-0.0000
3848.00,0.0000
3847.00,0.0001
3846.00,0.0001
3845.00,0.0001
3844.00,0.0001
3843.00,0.0000
3842.00,-0.0000
3841.00,-0.0000
3840.00,-0.0001
3839.00,-0.0001
3838.00,-0.0001
3837.00,-0.0001
3836.00,-0.0001
3835.00,-0.0000
3834.00,-0.0000
3833.00,0.0000
3832.00,0.0001
3831.00,0.0001
3830.00,0.0001
3829.00,0.0001
3828.00,0.0001
3827.00,0.0001
3826.00,0.0001
3825.00,0.0001
3824.00,0.0001
3823.00,0.0001
3822.00,0.0001
3821.00,0.0001
3820.00,0.0001
3819.00,-0.0000
3818.00,-0.0001
3817.00,-0.0001
3816.00,-0.0000
3815.00,-0.0000
3814.00,0.0000
3813.00,0.0000
3812.00,0.0001
3811.00,0.0001
3810.00,0.0001
3809.00,0.0001
3808.00,0.0001
3807.00,0.0002
3806.00,0.0001
3805.00,0.0001
3804.00,0.0000
3803.00,0.0000
3802.00,0.0000
3801.00,-0.0000
3800.00,-0.0001
3799.00,-0.0001
3798.00,-0.0000
3797.00,0.0000
3796.00,0.0001
3795.00,0.0001
3794.00,0.0002
3793.00,0.0002
3792.00,0.0002
3791.00,0.0003
3790.00,0.0003
3789.00,0.0003
3788.00,0.0003
3787.00,0.0002
3786.00,0.0002
3785.00,0.0002
3784.00,0.0002
3783.00,0.0002
3782.00,0.0001
3781.00,0.0002
3780.00,0.0002
3779.00,0.0002
3778.00,0.0002
3777.00,0.0002
3776.00,0.0002
3775.00,0.0002
3774.00,0.0002
3773.00,0.0002
3772.00,0.0002
3771.00,0.0002
3770.00,0.0002
3769.00,0.0002
3768.00,0.0001
3767.00,0.0001
3766.00,0.0002
3765.00,0.0002
3764.00,0.0002
3763.00,0.0001
3762.00,0.0001
3761.00,0.0001
3760.00,0.0001
3759.00,0.0002
3758.00,0.0001
3757.00,0.0001
3756.00,0.0001
3755.00,0.0001
3754.00,0.0001
3753.00,0.0000
3752.00,0.0000
3751.00,-0.0000
3750.00,-0.0001
3749.00,-0.0001
3748.00,-0.0002
3747.00,-0.0002
3746.00,-0.0002
3745.00,-0.0002
3744.00,-0.0001
3743.00,-0.0002
3742.00,-0.0002
3741.00,-0.0001
3740.00,-0.0001
3739.00,-0.0001
3738.00,-0.0001
3737.00,-0.0001
3736.00,-0.0001
3735.00,-0.0002
3734.00,-0.0002
3733.00,-0.0002
3732.00,-0.0001
3731.00,-0.0001
3730.00,-0.0001
3729.00,-0.0000
3728.00,0.0000
3727.00,0.0000
3726.00,0.0001
3725.00,0.0001
3724.00,0.0001
3723.00,0.0001
3722.00,0.0001
3721.00,0.0001
3720.00,0.0002
3719.00,0.0002
3718.00,0.0002
3717.00,0.0002
3716.00,0.0002
3715.00,0.0002
3714.00,0.0001
3713.00,0.0001
3712.00,0.0001
3711.00,0.0001
3710.00,0.0001
3709.00,0.0001
3708.00,0.0001
3707.00,0.0002
3706.00,0.0002
3705.00,0.0002
3704.00,0.0002
3703.00,0.0002
3702.00,0.0002
3701.00,0.0003
3700.00,0.0003
3699.00,0.0003
3698.00,0.0003
3697.00,0.0003
3696.00,0.0003
3695.00,0.0003
3694.00,0.0003
3693.00,0.0003
3692.00,0.0002
3691.00,0.0003
3690.00,0.0003
3689.00,0.0003
3688.00,0.0003
3687.00,0.0003
3686.00,0.0003
3685.00,0.0004
3684.00,0.0005
3683.00,0.0005
3682.00,0.0006
3681.00,0.0006
3680.00,0.0006
3679.00,0.0006
3678.00,0.0005
3677.00,0.0005
3676.00,0.0005
3675.00,0.0005
3674.00,0.0005
3673.00,0.0004
3672.00,0.0004
3671.00,0.0005
3670.00,0.0006
3669.00,0.0006
3668.00,0.0007
3667.00,0.0007
3666.00,0.0008
3665.00,0.0009
3664.00,0.0010
3663.00,0.0011
3662.00,0.0012
3661.00,0.0012
3660.00,0.0012
3659.00,0.0012
3658.00,0.0013
3657.00,0.0013
3656.00,0.0013
3655.00,0.0013
3654.00,0.0013
3653.00,0.0013
3652.00,0.0013
3651.00,0.0013
3650.00,0.0013
3649.00,0.0013
3648.00,0.0014
3647.00,0.0014
3646.00,0.0015
3645.00,0.0016
3644.00,0.0017
3643.00,0.0019
3642.00,0.0019
3641.00,0.0020
3640.00,0.0021
3639.00,0.0021
3638.00,0.0022
3637.00,0.0022
3636.00,0.0023
3635.00,0.0023
3634.00,0.0024
3633.00,0.0024
3632.00,0.0024
3631.00,0.0024
3630.00,0.0024
3629.00,0.0024
3628.00,0.0023
3627.00,0.0023
3626.00,0.0024
3625.00,0.0026
3624.00,0.0027
3623.00,0.0029
3622.00,0.0030
3621.00,0.0030
3620.00,0.0031
3619.00,0.0031
3618.00,0.0031
3617.00,0.0031
3616.00,0.0031
3615.00,0.0032
3614.00,0.0033
3613.00,0.0034
3612.00,0.0034
3611.00,0.0035
3610.00,0.0036
3609.00,0.0036
3608.00,0.0037
3607.00,0.0037
3606.00,0.0038
3605.00,0.0039
3604.00,0.0040
3603.00,0.0041
3602.00,0.0042
3601.00,0.0043
3600.00,0.0043
3599.00,0.0043
3598.00,0.0044
3597.00,0.0044
3596.00,0.0045
3595.00,0.0046
3594.00,0.0046
3593.00,0.0047
3592.00,0.0048
3591.00,0.0048
3590.00,0.0049
3589.00,0.0049
3588.00,0.0050
3587.00,0.0050
3586.00,0.0050
3585.00,0.0051
3584.00,0.0052
3583.00,0.0054
3582.00,0.0055
3581.00,0.0056
3580.00,0.0057
3579.00,0.0058
3578.00,0.0059
3577.00,0.0059
3576.00,0.0060
3575.00,0.0061
3574.00,0.0062
3573.00,0.0062
3572.00,0.0063
3571.00,0.0064
3570.00,0.0064
3569.00,0.0065
3568.00,0.0065
3567.00,0.0065
3566.00,0.0065
3565.00,0.0065
3564.00,0.0066
3563.00,0.0067
3562.00,0.0069
3561.00,0.0070
3560.00,0.0071
3559.00,0.0072
3558.00,0.0073
3557.00,0.0074
3556.00,0.0074
3555.00,0.0075
3554.00,0.0076
3553.00,0.0077
3552.00,0.0077
3551.00,0.0078
3550.00,0.0078
3549.00,0.0079
3548.00,0.0080
3547.00,0.0081
3546.00,0.0082
3545.00,0.0082
3544.00,0.0083
3543.00,0.0083
3542.00,0.0084
3541.00,0.0085
3540.00,0.0087
3539.00,0.0088
3538.00,0.0089
3537.00,0.0089
3536.00,0.0090
3535.00,0.0090
3534.00,0.0091
3533.00,0.0092
3532.00,0.0092
3531.00,0.0093
3530.00,0.0094
3529.00,0.0094
3528.00,0.0095
3527.00,0.0096
3526.00,0.0096
3525.00,0.0097
3524.00,0.0097
3523.00,0.0098
3522.00,0.0099
3521.00,0.0100
3520.00,0.0101
3519.00,0.0102
3518.00,0.0103
3517.00,0.0103
3516.00,0.0104
3515.00,0.0105
3514.00,0.0105
3513.00,0.0106
3512.00,0.0107
3511.00,0.0107
3510.00,0.0108
3509.00,0.0108
3508.00,0.0109
3507.00,0.0110
3506.00,0.0111
3505.00,0.0112
3504.00,0.0113
3503.00,0.0113
3502.00,0.0114
3501.00,0.0114
3500.00,0.0115
3499.00,0.0116
3498.00,0.0117
3497.00,0.0118
3496.00,0.0119
3495.00,0.0119
3494.00,0.0120
3493.00,0.0120
3492.00,0.0121
3491.00,0.0122
3490.00,0.0123
3489.00,0.0123
3488.00,0.0124
3487.00,0.0125
3486.00,0.0126
3485.00,0.0126
3484.00,0.0127
3483.00,0.0128
3482.00,0.0129
3481.00,0.0129
3480.00,0.0130
3479.00,0.0131
3478.00,0.0132
3477.00,0.0133
3476.00,0.0134
3475.00,0.0134
3474.00,0.0135
3473.00,0.0136
3472.00,0.0136
3471.00,0.0137
3470.00,0.0138
3469.00,0.0139
3468.00,0.0140
3467.00,0.0141
3466.00,0.0142
3465.00,0.0142
3464.00,0.0143
3463.00,0.0144
3462.00,0.0144
3461.00,0.0145
3460.00,0.0145
3459.00,0.0146
3458.00,0.0147
3457.00,0.0148
3456.00,0.0149
3455.00,0.0149
3454.00,0.0150
3453.00,0.0151
3452.00,0.0152
3451.00,0.0153
3450.00,0.0153
3449.00,0.0154
3448.00,0.0155
3447.00,0.0156
3446.00,0.0156
3445.00,0.0157
3444.00,0.0158
3443.00,0.0159
3442.00,0.0159
3441.00,0.0160
3440.00,0.0161
3439.00,0.0162
3438.00,0.0163
3437.00,0.0164
3436.00,0.0165
3435.00,0.0166
3434.00,0.0167
3433.00,0.0168
3432.00,0.0168
3431.00,0.0169
3430.00,0.0170
3429.00,0.0170
3428.00,0.0171
3427.00,0.0172
3426.00,0.0173
3425.00,0.0174
3424.00,0.0175
3423.00,0.0176
3422.00,0.0176
3421.00,0.0177
3420.00,0.0178
3419.00,0.0179
3418.00,0.0179
3417.00,0.0180
3416.00,0.0181
3415.00,0.0182
3414.00,0.0183
3413.00,0.0184
3412.00,0.0185
3411.00,0.0186
3410.00,0.0187
3409.00,0.0188
3408.00,0.0189
3407.00,0.0190
3406.00,0.0190
3405.00,0.0191
3404.00,0.0191
3403.00,0.0192
3402.00,0.0193
3401.00,0.0194
3400.00,0.0195
3399.00,0.0196
3398.00,0.0197
3397.00,0.0197
3396.00,0.0198
3395.00,0.0199
3394.00,0.0199
3393.00,0.0200
3392.00,0.0201
3391.00,0.0202
3390.00,0.0203
3389.00,0.0204
3388.00,0.0205
3387.00,0.0206
3386.00,0.0207
3385.00,0.0208
3384.00,0.0209
3383.00,0.0209
3382.00,0.0211
3381.00,0.0212
3380.00,0.0213
3379.00,0.0214
3378.00,0.0215
3377.00,0.0216
3376.00,0.0217
3375.00,0.0218
3374.00,0.0219
3373.00,0.0220
3372.00,0.0221
3371.00,0.0222
3370.00,0.0223
3369.00,0.0224
3368.00,0.0225
3367.00,0.0226
3366.00,0.0227
3365.00,0.0229
3364.00,0.0230
3363.00,0.0231
3362.00,0.0232
3361.00,0.0234
3360.00,0.0235
3359.00,0.0236
3358.00,0.0237
3357.00,0.0239
3356.00,0.0240
3355.00,0.0241
3354.00,0.0243
3353.00,0.0244
3352.00,0.0245
3351.00,0.0246
3350.00,0.0248
3349.00,0.0249
3348.00,0.0250
3347.00,0.0252
3346.00,0.0253
3345.00,0.0255
3344.00,0.0256
3343.00,0.0258
3342.00,0.0260
3341.00,0.0261
3340.00,0.0263
3339.00,0.0265
3338.00,0.0266
3337.00,0.0268
3336.00,0.0269
3335.00,0.0271
3334.00,0.0273
3333.00,0.0275
3332.00,0.0277
3331.00,0.0279
3330.00,0.0281
3329.00,0.0283
3328.00,0.0285
3327.00,0.0286
3326.00,0.0289
3325.00,0.0291
3324.00,0.0293
3323.00,0.0295
3322.00,0.0298
3321.00,0.0300
3320.00,0.0303
3319.00,0.0305
3318.00,0.0308
3317.00,0.0310
3316.00,0.0313
3315.00,0.0316
3314.00,0.0318
3313.00,0.0321
3312.00,0.0324
3311.00,0.0326
3310.00,0.0328
3309.00,0.0331
3308.00,0.0333
3307.00,0.0336
3306.00,0.0339
3305.00,0.0342
3304.00,0.0345
3303.00,0.0349
3302.00,0.0352
3301.00,0.0355
3300.00,0.0358
3299.00,0.0361
3298.00,0.0364
3297.00,0.0367
3296.00,0.0371
3295.00,0.0374
3294.00,0.0377
3293.00,0.0380
3292.00,0.0383
3291.00,0.0386
3290.00,0.0389
3289.00,0.0392
3288.00,0.0395
3287.00,0.0398
3286.00,0.0401
3285.00,0.0404
3284.00,0.0406
3283.00,0.0409
3282.00,0.0411
3281.00,0.0413
3280.00,0.0415
3279.00,0.0417
3278.00,0.0418
3277.00,0.0420
3276.00,0.0421
3275.00,0.0422
3274.00,0.0423
3273.00,0.0423
3272.00,0.0423
3271.00,0.0424
3270.00,0.0424
3269.00,0.0424
3268.00,0.0424
3267.00,0.0423
3266.00,0.0422
3265.00,0.0421
3264.00,0.0419
3263.00,0.0418
3262.00,0.0416
3261.00,0.0414
3260.00,0.0412
3259.00,0.0410
3258.00,0.0407
3257.00,0.0405
3256.00,0.0402
3255.00,0.0399
3254.00,0.0396
3253.00,0.0394
3252.00,0.0391
3251.00,0.0388
3250.00,0.0385
3249.00,0.0383
3248.00,0.0380
3247.00,0.0377
3246.00,0.0375
3245.00,0.0372
3244.00,0.0369
3243.00,0.0367
3242.00,0.0364
3241.00,0.0362
3240.00,0.0359
3239.00,0.0357
3238.00,0.0354
3237.00,0.0352
3236.00,0.0349
3235.00,0.0346
3234.00,0.0344
3233.00,0.0342
3232.00,0.0340
3231.00,0.0338
3230.00,0.0336
3229.00,0.0333
3228.00,0.0331
3227.00,0.0330
3226.00,0.0328
3225.00,0.0326
3224.00,0.0324
3223.00,0.0322
3222.00,0.0320
3221.00,0.0318
3220.00,0.0316
3219.00,0.0314
3218.00,0.0313
3217.00,0.0311
3216.00,0.0310
3215.00,0.0308
3214.00,0.0306
3213.00,0.0305
3212.00,0.0303
3211.00,0.0302
3210.00,0.0300
3209.00,0.0298
3208.00,0.0297
3207.00,0.0295
3206.00,0.0294
3205.00,0.0292
3204.00,0.0291
3203.00,0.0290
3202.00,0.0288
3201.00,0.0287
3200.00,0.0286
3199.00,0.0284
3198.00,0.0283
3197.00,0.0281
3196.00,0.0280
3195.00,0.0278
3194.00,0.0277
3193.00,0.0276
3192.00,0.0274
3191.00,0.0273
3190.00,0.0272
3189.00,0.0271
3188.00,0.0270
3187.00,0.0268
3186.00,0.0267
3185.00,0.0266
3184.00,0.0264
3183.00,0.0263
3182.00,0.0261
3181.00,0.0260
3180.00,0.0259
3179.00,0.0258
3178.00,0.0256
3177.00,0.0255
3176.00,0.0254
3175.00,0.0253
3174.00,0.0252
3173.00,0.0251
3172.00,0.0249
3171.00,0.0248
3170.00,0.0247
3169.00,0.0246
3168.00,0.0245
3167.00,0.0244
3166.00,0.0243
3165.00,0.0242
3164.00,0.0240
3163.00,0.0239
3162.00,0.0238
3161.00,0.0237
3160.00,0.0236
3159.00,0.0235
3158.00,0.0234
3157.00,0.0233
3156.00,0.0232
3155.00,0.0231
3154.00,0.0230
3153.00,0.0228
3152.00,0.0227
3151.00,0.0226
3150.00,0.0225
3149.00,0.0225
3148.00,0.0224
3147.00,0.0223
3146.00,0.0223
3145.00,0.0222
3144.00,0.0221
3143.00,0.0220
3142.00,0.0220
3141.00,0.0219
3140.00,0.0218
3139.00,0.0217
3138.00,0.0217
3137.00,0.0216
3136.00,0.0216
3135.00,0.0215
3134.00,0.0214
3133.00,0.0214
3132.00,0.0213
3131.00,0.0213
3130.00,0.0212
3129.00,0.0212
3128.00,0.0212
3127.00,0.0212
3126.00,0.0211
3125.00,0.0211
3124.00,0.0211
3123.00,0.0210
3122.00,0.0210
3121.00,0.0209
3120.00,0.0209
3119.00,0.0208
3118.00,0.0208
3117.00,0.0208
3116.00,0.0209
3115.00,0.0209
3114.00,0.0210
3113.00,0.0210
3112.00,0.0210
3111.00,0.0210
3110.00,0.0210
3109.00,0.0210
3108.00,0.0211
3107.00,0.0211
3106.00,0.0212
3105.00,0.0212
3104.00,0.0213
3103.00,0.0213
3102.00,0.0213
3101.00,0.0213
3100.00,0.0214
3099.00,0.0214
3098.00,0.0215
3097.00,0.0215
3096.00,0.0216
3095.00,0.0216
3094.00,0.0216
3093.00,0.0217
3092.00,0.0217
3091.00,0.0217
3090.00,0.0218
3089.00,0.0218
3088.00,0.0218
3087.00,0.0218
3086.00,0.0218
3085.00,0.0218
3084.00,0.0218
3083.00,0.0218
3082.00,0.0218
3081.00,0.0218
3080.00,0.0218
3079.00,0.0218
3078.00,0.0218
3077.00,0.0218
3076.00,0.0218
3075.00,0.0219
3074.00,0.0219
3073.00,0.0218
3072.00,0.0218
3071.00,0.0217
3070.00,0.0217
3069.00,0.0216
3068.00,0.0215
3067.00,0.0215
3066.00,0.0214
3065.00,0.0213
3064.00,0.0213
3063.00,0.0212
3062.00,0.0212
3061.00,0.0211
3060.00,0.0210
3059.00,0.0209
3058.00,0.0207
3057.00,0.0206
3056.00,0.0205
3055.00,0.0204
3054.00,0.0203
3053.00,0.0201
3052.00,0.0200
3051.00,0.0199
3050.00,0.0198
3049.00,0.0197
3048.00,0.0196
3047.00,0.0194
3046.00,0.0193
3045.00,0.0192
3044.00,0.0190
3043.00,0.0189
3042.00,0.0188
3041.00,0.0188
3040.00,0.0187
3039.00,0.0187
3038.00,0.0186
3037.00,0.0185
3036.00,0.0184
3035.00,0.0182
3034.00,0.0181
3033.00,0.0181
3032.00,0.0180
3031.00,0.0179
3030.00,0.0179
3029.00,0.0178
3028.00,0.0178
3027.00,0.0177
3026.00,0.0176
3025.00,0.0175
3024.00,0.0174
3023.00,0.0173
3022.00,0.0172
3021.00,0.0171
3020.00,0.0170
3019.00,0.0168
3018.00,0.0167
3017.00,0.0166
3016.00,0.0165
3015.00,0.0164
3014.00,0.0163
3013.00,0.0163
3012.00,0.0162
3011.00,0.0162
3010.00,0.0162
3009.00,0.0162
3008.00,0.0162
3007.00,0.0162
3006.00,0.0161
3005.00,0.0161
3004.00,0.0161
3003.00,0.0161
3002.00,0.0160
3001.00,0.0160
3000.00,0.0160
2999.00,0.0160
2998.00,0.0161
2997.00,0.0161
2996.00,0.0162
2995.00,0.0162
2994.00,0.0163
2993.00,0.0164
2992.00,0.0165
2991.00,0.0167
2990.00,0.0168
2989.00,0.0169
2988.00,0.0171
2987.00,0.0173
2986.00,0.0175
2985.00,0.0177
2984.00,0.0179
2983.00,0.0181
2982.00,0.0183
2981.00,0.0185
2980.00,0.0188
2979.00,0.0190
2978.00,0.0193
2977.00,0.0196
2976.00,0.0199
2975.00,0.0202
2974.00,0.0205
2973.00,0.0208
2972.00,0.0210
2971.00,0.0213
2970.00,0.0216
2969.00,0.0219
2968.00,0.0221
2967.00,0.0224
2966.00,0.0226
2965.00,0.0227
2964.00,0.0229
2963.00,0.0230
2962.00,0.0230
2961.00,0.0231
2960.00,0.0230
2959.00,0.0230
2958.00,0.0229
2957.00,0.0227
2956.00,0.0226
2955.00,0.0224
2954.00,0.0222
2953.00,0.0220
2952.00,0.0218
2951.00,0.0216
2950.00,0.0214
2949.00,0.0213
2948.00,0.0211
2947.00,0.0211
2946.00,0.0211
2945.00,0.0211
2944.00,0.0212
2943.00,0.0213
2942.00,0.0215
2941.00,0.0216
2940.00,0.0218
2939.00,0.0220
2938.00,0.0222
2937.00,0.0224
2936.00,0.0226
2935.00,0.0228
2934.00,0.0229
2933.00,0.0231
2932.00,0.0232
2931.00,0.0233
2930.00,0.0233
2929.00,0.0234
2928.00,0.0234
2927.00,0.0234
2926.00,0.0234
2925.00,0.0234
2924.00,0.0233
2923.00,0.0233
2922.00,0.0232
2921.00,0.0231
2920.00,0.0229
2919.00,0.0227
2918.00,0.0225
2917.00,0.0222
2916.00,0.0219
2915.00,0.0216
2914.00,0.0213
2913.00,0.0210
2912.00,0.0207
2911.00,0.0204
2910.00,0.0202
2909.00,0.0199
2908.00,0.0197
2907.00,0.0194
2906.00,0.0192
2905.00,0.0190
2904.00,0.0188
2903.00,0.0187
2902.00,0.0185
2901.00,0.0184
2900.00,0.0182
2899.00,0.0181
2898.00,0.0180
2897.00,0.0179
2896.00,0.0178
2895.00,0.0177
2894.00,0.0176
2893.00,0.0175
2892.00,0.0174
2891.00,0.0173
2890.00,0.0172
2889.00,0.0172
2888.00,0.0172
2887.00,0.0172
2886.00,0.0172
2885.00,0.0172
2884.00,0.0173
2883.00,0.0173
2882.00,0.0174
2881.00,0.0175
2880.00,0.0176
2879.00,0.0177
2878.00,0.0178
2877.00,0.0179
2876.00,0.0180
2875.00,0.0180
2874.00,0.0180
2873.00,0.0180
2872.00,0.0179
2871.00,0.0178
2870.00,0.0177
2869.00,0.0175
2868.00,0.0174
2867.00,0.0172
2866.00,0.0170
2865.00,0.0168
2864.00,0.0166
2863.00,0.0164
2862.00,0.0163
2861.00,0.0162
2860.00,0.0161
2859.00,0.0161
2858.00,0.0160
2857.00,0.0160
2856.00,0.0160
2855.00,0.0160
2854.00,0.0160
2853.00,0.0160
2852.00,0.0159
2851.00,0.0158
2850.00,0.0156
2849.00,0.0154
2848.00,0.0152
2847.00,0.0149
2846.00,0.0146
2845.00,0.0143
2844.00,0.0141
2843.00,0.0138
2842.00,0.0136
2841.00,0.0134
2840.00,0.0132
2839.00,0.0131
2838.00,0.0129
2837.00,0.0128
2836.00,0.0128
2835.00,0.0127
2834.00,0.0127
2833.00,0.0126
2832.00,0.0125
2831.00,0.0124
2830.00,0.0124
2829.00,0.0123
2828.00,0.0123
2827.00,0.0122
2826.00,0.0122
2825.00,0.0122
2824.00,0.0121
2823.00,0.0121
2822.00,0.0121
2821.00,0.0120
2820.00,0.0120
2819.00,0.0119
2818.00,0.0119
2817.00,0.0119
2816.00,0.0118
2815.00,0.0118
2814.00,0.0118
2813.00,0.0118
2812.00,0.0117
2811.00,0.0117
2810.00,0.0117
2809.00,0.0116
2808.00,0.0116
2807.00,0.0116
2806.00,0.0115
2805.00,0.0115
2804.00,0.0115
2803.00,0.0114
2802.00,0.0114
2801.00,0.0114
2800.00,0.0113
2799.00,0.0113
2798.00,0.0113
2797.00,0.0113
2796.00,0.0112
2795.00,0.0112
2794.00,0.0112
2793.00,0.0111
2792.00,0.0111
2791.00,0.0110
2790.00,0.0110
2789.00,0.0109
2788.00,0.0109
2787.00,0.0109
2786.00,0.0108
2785.00,0.0108
2784.00,0.0108
2783.00,0.0107
2782.00,0.0107
2781.00,0.0106
2780.00,0.0106
2779.00,0.0105
2778.00,0.0105
2777.00,0.0104
2776.00,0.0104
2775.00,0.0103
2774.00,0.0103
2773.00,0.0102
2772.00,0.0102
2771.00,0.0101
2770.00,0.0101
2769.00,0.0100
2768.00,0.0100
2767.00,0.0099
2766.00,0.0099
2765.00,0.0098
2764.00,0.0098
2763.00,0.0097
2762.00,0.0097
2761.00,0.0096
2760.00,0.0096
2759.00,0.0095
2758.00,0.0095
2757.00,0.0094
2756.00,0.0094
2755.00,0.0094
2754.00,0.0093
2753.00,0.0093
2752.00,0.0092
2751.00,0.0092
2750.00,0.0092
2749.00,0.0091
2748.00,0.0091
2747.00,0.0091
2746.00,0.0090
2745.00,0.0090
2744.00,0.0090
2743.00,0.0089
2742.00,0.0089
2741.00,0.0089
2740.00,0.0088
2739.00,0.0088
2738.00,0.0088
2737.00,0.0088
2736.00,0.0087
2735.00,0.0087
2734.00,0.0086
2733.00,0.0086
2732.00,0.0086
2731.00,0.0086
2730.00,0.0085
2729.00,0.0085
2728.00,0.0085
2727.00,0.0084
2726.00,0.0084
2725.00,0.0084
2724.00,0.0083
2723.00,0.0083
2722.00,0.0083
2721.00,0.0083
2720.00,0.0083
2719.00,0.0082
2718.00,0.0082
2717.00,0.0082
2716.00,0.0081
2715.00,0.0081
2714.00,0.0081
2713.00,0.0080
2712.00,0.0080
2711.00,0.0080
2710.00,0.0079
2709.00,0.0079
2708.00,0.0079
2707.00,0.0079
2706.00,0.0078
2705.00,0.0078
2704.00,0.0078
2703.00,0.0078
2702.00,0.0078
2701.00,0.0078
2700.00,0.0077
2699.00,0.0077
2698.00,0.0077
2697.00,0.0077
2696.00,0.0076
2695.00,0.0076
2694.00,0.0076
2693.00,0.0076
2692.00,0.0076
2691.00,0.0076
2690.00,0.0075
2689.00,0.0075
2688.00,0.0075
2687.00,0.0075
2686.00,0.0074
2685.00,0.0074
2684.00,0.0074
2683.00,0.0074
2682.00,0.0074
2681.00,0.0073
2680.00,0.0073
2679.00,0.0073
2678.00,0.0073
2677.00,0.0072
2676.00,0.0072
2675.00,0.0072
2674.00,0.0071
2673.00,0.0071
2672.00,0.0071
2671.00,0.0071
2670.00,0.0070
2669.00,0.0070
2668.00,0.0070
2667.00,0.0070
2666.00,0.0070
2665.00,0.0071
2664.00,0.0071
2663.00,0.0071
2662.00,0.0071
2661.00,0.0072
2660.00,0.0072
2659.00,0.0072
2658.00,0.0072
2657.00,0.0071
2656.00,0.0071
2655.00,0.0071
2654.00,0.0071
2653.00,0.0071
2652.00,0.0070
2651.00,0.0070
2650.00,0.0070
2649.00,0.0070
2648.00,0.0070
2647.00,0.0069
2646.00,0.0069
2645.00,0.0069
2644.00,0.0069
2643.00,0.0068
2642.00,0.0068
2641.00,0.0068
2640.00,0.0068
2639.00,0.0068
2638.00,0.0067
2637.00,0.0067
2636.00,0.0067
2635.00,0.0066
2634.00,0.0066
2633.00,0.0066
2632.00,0.0066
2631.00,0.0065
2630.00,0.0065
2629.00,0.0065
2628.00,0.0065
2627.00,0.0065
2626.00,0.0065
2625.00,0.0064
2624.00,0.0064
2623.00,0.0064
2622.00,0.0063
2621.00,0.0063
2620.00,0.0063
2619.00,0.0062
2618.00,0.0062
2617.00,0.0062
2616.00,0.0062
2615.00,0.0061
2614.00,0.0061
2613.00,0.0061
2612.00,0.0061
2611.00,0.0061
2610.00,0.0061
2609.00,0.0061
2608.00,0.0060
2607.00,0.0060
2606.00,0.0060
2605.00,0.0059
2604.00,0.0059
2603.00,0.0059
2602.00,0.0058
2601.00,0.0058
2600.00,0.0058
2599.00,0.0058
2598.00,0.0058
2597.00,0.0058
2596.00,0.0057
2595.00,0.0057
2594.00,0.0056
2593.00,0.0056
2592.00,0.0056
2591.00,0.0056
2590.00,0.0056
2589.00,0.0055
2588.00,0.0055
2587.00,0.0055
2586.00,0.0054
2585.00,0.0054
2584.00,0.0054
2583.00,0.0054
2582.00,0.0054
2581.00,0.0054
2580.00,0.0053
2579.00,0.0053
2578.00,0.0053
2577.00,0.0053
2576.00,0.0053
2575.00,0.0052
2574.00,0.0052
2573.00,0.0052
2572.00,0.0052
2571.00,0.0052
2570.00,0.0052
2569.00,0.0052
2568.00,0.0052
2567.00,0.0052
2566.00,0.0051
2565.00,0.0051
2564.00,0.0051
2563.00,0.0051
2562.00,0.0051
2561.00,0.0050
2560.00,0.0050
2559.00,0.0049
2558.00,0.0049
2557.00,0.0049
2556.00,0.0049
2555.00,0.0049
2554.00,0.0049
2553.00,0.0048
2552.00,0.0048
2551.00,0.0048
2550.00,0.0048
2549.00,0.0048
2548.00,0.0047
2547.00,0.0047
2546.00,0.0047
2545.00,0.0047
2544.00,0.0047
2543.00,0.0047
2542.00,0.0047
2541.00,0.0047
2540.00,0.0047
2539.00,0.0047
2538.00,0.0046
2537.00,0.0046
2536.00,0.0045
2535.00,0.0045
2534.00,0.0044
2533.00,0.0044
2532.00,0.0045
2531.00,0.0045
2530.00,0.0045
2529.00,0.0045
2528.00,0.0044
2527.00,0.0044
2526.00,0.0044
2525.00,0.0044
2524.00,0.0044
2523.00,0.0044
2522.00,0.0044
2521.00,0.0044
2520.00,0.0043
2519.00,0.0043
2518.00,0.0043
2517.00,0.0043
2516.00,0.0043
2515.00,0.0043
2514.00,0.0043
2513.00,0.0043
2512.00,0.0043
2511.00,0.0042
2510.00,0.0042
2509.00,0.0042
2508.00,0.0042
2507.00,0.0042
2506.00,0.0042
2505.00,0.0042
2504.00,0.0042
2503.00,0.0042
2502.00,0.0041
2501.00,0.0041
2500.00,0.0041
2499.00,0.0041
2498.00,0.0041
2497.00,0.0041
2496.00,0.0040
2495.00,0.0040
2494.00,0.0040
2493.00,0.0040
2492.00,0.0040
2491.00,0.0039
2490.00,0.0039
2489.00,0.0039
2488.00,0.0039
2487.00,0.0039
2486.00,0.0039
2485.00,0.0039
2484.00,0.0039
2483.00,0.0038
2482.00,0.0038
2481.00,0.0038
2480.00,0.0037
2479.00,0.0037
2478.00,0.0037
2477.00,0.0037
2476.00,0.0038
2475.00,0.0038
2474.00,0.0037
2473.00,0.0037
2472.00,0.0037
2471.00,0.0037
2470.00,0.0037
2469.00,0.0037
2468.00,0.0037
2467.00,0.0036
2466.00,0.0036
2465.00,0.0036
2464.00,0.0036
2463.00,0.0036
2462.00,0.0036
2461.00,0.0036
2460.00,0.0036
2459.00,0.0036
2458.00,0.0036
2457.00,0.0036
2456.00,0.0036
2455.00,0.0036
2454.00,0.0036
2453.00,0.0035
2452.00,0.0035
2451.00,0.0035
2450.00,0.0034
2449.00,0.0034
2448.00,0.0034
2447.00,0.0034
2446.00,0.0033
2445.00,0.0033
2444.00,0.0034
2443.00,0.0033
2442.00,0.0033
2441.00,0.0033
2440.00,0.0033
2439.00,0.0032
2438.00,0.0032
2437.00,0.0032
2436.00,0.0032
2435.00,0.0032
2434.00,0.0032
2433.00,0.0032
2432.00,0.0031
2431.00,0.0031
2430.00,0.0031
2429.00,0.0030
2428.00,0.0030
2427.00,0.0030
2426.00,0.0030
2425.00,0.0030
2424.00,0.0030
2423.00,0.0029
2422.00,0.0029
2421.00,0.0029
2420.00,0.0028
2419.00,0.0028
2418.00,0.0028
2417.00,0.0029
2416.00,0.0029
2415.00,0.0029
2414.00,0.0028
2413.00,0.0028
2412.00,0.0028
2411.00,0.0028
2410.00,0.0028
2409.00,0.0027
2408.00,0.0027
2407.00,0.0026
2406.00,0.0026
2405.00,0.0026
2404.00,0.0026
2403.00,0.0026
2402.00,0.0026
2401.00,0.0025
2400.00,0.0025
2399.00,0.0025
2398.00,0.0025
2397.00,0.0025
2396.00,0.0025
2395.00,0.0025
2394.00,0.0025
2393.00,0.0025
2392.00,0.0025
2391.00,0.0024
2390.00,0.0024
2389.00,0.0024
2388.00,0.0024
2387.00,0.0024
2386.00,0.0023
2385.00,0.0023
2384.00,0.0022
2383.00,0.0022
2382.00,0.0021
2381.00,0.0021
2380.00,0.0022
2379.00,0.0022
2378.00,0.0022
2377.00,0.0021
2376.00,0.0021
2375.00,0.0021
2374.00,0.0021
2373.00,0.0021
2372.00,0.0021
2371.00,0.0020
2370.00,0.0020
2369.00,0.0019
2368.00,0.0019
2367.00,0.0020
2366.00,0.0020
2365.00,0.0021
2364.00,0.0021
2363.00,0.0021
2362.00,0.0021
2361.00,0.0021
2360.00,0.0021
2359.00,0.0021
2358.00,0.0021
2357.00,0.0021
2356.00,0.0021
2355.00,0.0021
2354.00,0.0021
2353.00,0.0021
2352.00,0.0021
2351.00,0.0022
2350.00,0.0022
2349.00,0.0023
2348.00,0.0023
2347.00,0.0023
2346.00,0.0023
2345.00,0.0023
2344.00,0.0024
2343.00,0.0024
2342.00,0.0024
2341.00,0.0024
2340.00,0.0024
2339.00,0.0024
2338.00,0.0024
2337.00,0.0024
2336.00,0.0024
2335.00,0.0024
2334.00,0.0024
2333.00,0.0024
2332.00,0.0024
2331.00,0.0024
2330.00,0.0024
2329.00,0.0025
2328.00,0.0028
2327.00,0.0032
2326.00,0.0035
2325.00,0.0037
2324.00,0.0036
2323.00,0.0035
2322.00,0.0033
2321.00,0.0031
2320.00,0.0030
2319.00,0.0029
2318.00,0.0029
2317.00,0.0029
2316.00,0.0028
2315.00,0.0028
2314.00,0.0027
2313.00,0.0027
2312.00,0.0026
2311.00,0.0026
2310.00,0.0026
2309.00,0.0026
2308.00,0.0026
2307.00,0.0026
2306.00,0.0026
2305.00,0.0026
2304.00,0.0026
2303.00,0.0027
2302.00,0.0027
2301.00,0.0027
2300.00,0.0027
2299.00,0.0027
2298.00,0.0028
2297.00,0.0029
2296.00,0.0030
2295.00,0.0030
2294.00,0.0031
2293.00,0.0031
2292.00,0.0031
2291.00,0.0031
2290.00,0.0032
2289.00,0.0033
2288.00,0.0033
2287.00,0.0034
2286.00,0.0034
2285.00,0.0034
2284.00,0.0033
2283.00,0.0032
2282.00,0.0031
2281.00,0.0030
2280.00,0.0030
2279.00,0.0029
2278.00,0.0028
2277.00,0.0028
2276.00,0.0028
2275.00,0.0028
2274.00,0.0028
2273.00,0.0028
2272.00,0.0028
2271.00,0.0028
2270.00,0.0028
2269.00,0.0027
2268.00,0.0027
2267.00,0.0026
2266.00,0.0026
2265.00,0.0025
2264.00,0.0025
2263.00,0.0026
2262.00,0.0026
2261.00,0.0027
2260.00,0.0027
2259.00,0.0027
2258.00,0.0026
2257.00,0.0024
2256.00,0.0022
2255.00,0.0021
2254.00,0.0020
2253.00,0.0020
2252.00,0.0021
2251.00,0.0022
2250.00,0.0022
2249.00,0.0023
2248.00,0.0023
2247.00,0.0023
2246.00,0.0023
2245.00,0.0024
2244.00,0.0024
2243.00,0.0024
2242.00,0.0025
2241.00,0.0025
2240.00,0.0025
2239.00,0.0025
2238.00,0.0024
2237.00,0.0024
2236.00,0.0024
2235.00,0.0024
2234.00,0.0024
2233.00,0.0024
2232.00,0.0023
2231.00,0.0023
2230.00,0.0022
2229.00,0.0021
2228.00,0.0021
2227.00,0.0021
2226.00,0.0022
2225.00,0.0023
2224.00,0.0024
2223.00,0.0025
2222.00,0.0024
2221.00,0.0024
2220.00,0.0023
2219.00,0.0022
2218.00,0.0021
2217.00,0.0021
2216.00,0.0021
2215.00,0.0021
2214.00,0.0020
2213.00,0.0021
2212.00,0.0021
2211.00,0.0021
2210.00,0.0021
2209.00,0.0022
2208.00,0.0023
2207.00,0.0023
2206.00,0.0023
2205.00,0.0023
2204.00,0.0022
2203.00,0.0021
2202.00,0.0021
2201.00,0.0021
2200.00,0.0022
2199.00,0.0023
2198.00,0.0024
2197.00,0.0025
2196.00,0.0025
2195.00,0.0024
2194.00,0.0023
2193.00,0.0022
2192.00,0.0021
2191.00,0.0021
2190.00,0.0022
2189.00,0.0022
2188.00,0.0024
2187.00,0.0024
2186.00,0.0024
2185.00,0.0023
2184.00,0.0020
2183.00,0.0017
2182.00,0.0015
2181.00,0.0015
2180.00,0.0017
2179.00,0.0019
2178.00,0.0019
2177.00,0.0019
2176.00,0.0018
2175.00,0.0018
2174.00,0.0017
2173.00,0.0018
2172.00,0.0020
2171.00,0.0022
2170.00,0.0025
2169.00,0.0027
2168.00,0.0028
2167.00,0.0028
2166.00,0.0028
2165.00,0.0029
2164.00,0.0032
2163.00,0.0033
2162.00,0.0029
2161.00,0.0021
2160.00,0.0008
2159.00,-0.0004
2158.00,-0.0012
2157.00,-0.0015
2156.00,-0.0013
2155.00,-0.0010
2154.00,-0.0006
2153.00,-0.0001
2152.00,0.0002
2151.00,0.0003
2150.00,0.0004
2149.00,0.0003
2148.00,0.0002
2147.00,0.0002
2146.00,0.0002
2145.00,0.0002
2144.00,0.0004
2143.00,0.0005
2142.00,0.0005
2141.00,0.0005
2140.00,0.0005
2139.00,0.0004
2138.00,0.0004
2137.00,0.0003
2136.00,0.0002
2135.00,-0.0000
2134.00,-0.0001
2133.00,-0.0001
2132.00,0.0001
2131.00,0.0003
2130.00,0.0005
2129.00,0.0007
2128.00,0.0008
2127.00,0.0010
2126.00,0.0011
2125.00,0.0012
2124.00,0.0013
2123.00,0.0014
2122.00,0.0015
2121.00,0.0015
2120.00,0.0016
2119.00,0.0017
2118.00,0.0018
2117.00,0.0019
2116.00,0.0020
2115.00,0.0020
2114.00,0.0021
2113.00,0.0020
2112.00,0.0020
2111.00,0.0020
2110.00,0.0020
2109.00,0.0020
2108.00,0.0020
2107.00,0.0020
2106.00,0.0020
2105.00,0.0020
2104.00,0.0020
2103.00,0.0020
2102.00,0.0020
2101.00,0.0020
2100.00,0.0020
2099.00,0.0019
2098.00,0.0018
2097.00,0.0017
2096.00,0.0015
2095.00,0.0014
2094.00,0.0014
2093.00,0.0015
2092.00,0.0016
2091.00,0.0018
2090.00,0.0018
2089.00,0.0019
2088.00,0.0020
2087.00,0.0021
2086.00,0.0021
2085.00,0.0022
2084.00,0.0022
2083.00,0.0022
2082.00,0.0022
2081.00,0.0022
2080.00,0.0022
2079.00,0.0022
2078.00,0.0021
2077.00,0.0021
2076.00,0.0021
2075.00,0.0021
2074.00,0.0022
2073.00,0.0022
2072.00,0.0022
2071.00,0.0021
2070.00,0.0020
2069.00,0.0019
2068.00,0.0019
2067.00,0.0018
2066.00,0.0018
2065.00,0.0018
2064.00,0.0020
2063.00,0.0020
2062.00,0.0020
2061.00,0.0019
2060.00,0.0018
2059.00,0.0017
2058.00,0.0017
2057.00,0.0016
2056.00,0.0016
2055.00,0.0017
2054.00,0.0019
2053.00,0.0023
2052.00,0.0027
2051.00,0.0028
2050.00,0.0026
2049.00,0.0022
2048.00,0.0020
2047.00,0.0018
2046.00,0.0017
2045.00,0.0017
2044.00,0.0017
2043.00,0.0016
2042.00,0.0016
2041.00,0.0017
2040.00,0.0018
2039.00,0.0019
2038.00,0.0019
2037.00,0.0018
2036.00,0.0018
2035.00,0.0016
2034.00,0.0014
2033.00,0.0012
2032.00,0.0011
2031.00,0.0011
2030.00,0.0010
2029.00,0.0010
2028.00,0.0010
2027.00,0.0010
2026.00,0.0009
2025.00,0.0008
2024.00,0.0009
2023.00,0.0010
2022.00,0.0010
2021.00,0.0009
2020.00,0.0009
2019.00,0.0008
2018.00,0.0006
2017.00,0.0006
2016.00,0.0007
2015.00,0.0007
2014.00,0.0007
2013.00,0.0008
2012.00,0.0009
2011.00,0.0009
2010.00,0.0008
2009.00,0.0007
2008.00,0.0006
2007.00,0.0004
2006.00,0.0003
2005.00,0.0004
2004.00,0.0006
2003.00,0.0007
2002.00,0.0007
2001.00,0.0008
2000.00,0.0009
1999.00,0.0010
1998.00,0.0010
1997.00,0.0010
1996.00,0.0010
1995.00,0.0010
1994.00,0.0010
1993.00,0.0011
1992.00,0.0012
1991.00,0.0014
1990.00,0.0015
1989.00,0.0017
1988.00,0.0018
1987.00,0.0018
1986.00,0.0017
1985.00,0.0018
1984.00,0.0019
1983.00,0.0021
1982.00,0.0023
1981.00,0.0023
1980.00,0.0022
1979.00,0.0018
1978.00,0.0011
1977.00,0.0006
1976.00,0.0003
1975.00,0.0003
1974.00,0.0003
1973.00,0.0004
1972.00,0.0005
1971.00,0.0005
1970.00,0.0004
1969.00,0.0003
1968.00,0.0004
1967.00,0.0004
1966.00,0.0004
1965.00,0.0004
1964.00,0.0003
1963.00,0.0002
1962.00,-0.0000
1961.00,-0.0001
1960.00,0.0000
1959.00,0.0000
1958.00,0.0001
1957.00,0.0002
1956.00,0.0004
1955.00,0.0005
1954.00,0.0006
1953.00,0.0006
1952.00,0.0006
1951.00,0.0006
1950.00,0.0006
1949.00,0.0007
1948.00,0.0008
1947.00,0.0008
1946.00,0.0007
1945.00,0.0006
1944.00,0.0006
1943.00,0.0006
1942.00,0.0006
1941.00,0.0006
1940.00,0.0006
1939.00,0.0006
1938.00,0.0006
1937.00,0.0006
1936.00,0.0007
1935.00,0.0007
1934.00,0.0007
1933.00,0.0007
1932.00,0.0007
1931.00,0.0008
1930.00,0.0008
1929.00,0.0008
1928.00,0.0008
1927.00,0.0008
1926.00,0.0007
1925.00,0.0006
1924.00,0.0006
1923.00,0.0007
1922.00,0.0009
1921.00,0.0010
1920.00,0.0010
1919.00,0.0011
1918.00,0.0012
1917.00,0.0013
1916.00,0.0013
1915.00,0.0012
1914.00,0.0011
1913.00,0.0010
1912.00,0.0010
1911.00,0.0009
1910.00,0.0010
1909.00,0.0010
1908.00,0.0012
1907.00,0.0012
1906.00,0.0012
1905.00,0.0012
1904.00,0.0012
1903.00,0.0012
1902.00,0.0012
1901.00,0.0013
1900.00,0.0012
1899.00,0.0012
1898.00,0.0011
1897.00,0.0010
1896.00,0.0011
1895.00,0.0011
1894.00,0.0012
1893.00,0.0012
1892.00,0.0012
1891.00,0.0011
1890.00,0.0012
1889.00,0.0013
1888.00,0.0014
1887.00,0.0014
1886.00,0.0013
1885.00,0.0014
1884.00,0.0014
1883.00,0.0014
1882.00,0.0014
1881.00,0.0014
1880.00,0.0014
1879.00,0.0014
1878.00,0.0014
1877.00,0.0014
1876.00,0.0014
1875.00,0.0014
1874.00,0.0014
1873.00,0.0014
1872.00,0.0013
1871.00,0.0012
1870.00,0.0010
1869.00,0.0010
1868.00,0.0012
1867.00,0.0013
1866.00,0.0014
1865.00,0.0014
1864.00,0.0015
1863.00,0.0015
1862.00,0.0015
1861.00,0.0015
1860.00,0.0015
1859.00,0.0015
1858.00,0.0015
1857.00,0.0015
1856.00,0.0015
1855.00,0.0015
1854.00,0.0014
1853.00,0.0015
1852.00,0.0015
1851.00,0.0015
1850.00,0.0015
1849.00,0.0015
1848.00,0.0015
1847.00,0.0015
1846.00,0.0014
1845.00,0.0016
1844.00,0.0018
1843.00,0.0020
1842.00,0.0019
1841.00,0.0017
1840.00,0.0016
1839.00,0.0016
1838.00,0.0015
1837.00,0.0016
1836.00,0.0017
1835.00,0.0017
1834.00,0.0017
1833.00,0.0016
1832.00,0.0013
1831.00,0.0012
1830.00,0.0013
1829.00,0.0015
1828.00,0.0017
1827.00,0.0018
1826.00,0.0018
1825.00,0.0019
1824.00,0.0021
1823.00,0.0021
1822.00,0.0020
1821.00,0.0020
1820.00,0.0020
1819.00,0.0019
1818.00,0.0019
1817.00,0.0019
1816.00,0.0019
1815.00,0.0019
1814.00,0.0019
1813.00,0.0018
1812.00,0.0018
1811.00,0.0019
1810.00,0.0020
1809.00,0.0021
1808.00,0.0022
1807.00,0.0023
1806.00,0.0023
1805.00,0.0023
1804.00,0.0024
1803.00,0.0024
1802.00,0.0023
1801.00,0.0022
1800.00,0.0023
1799.00,0.0023
1798.00,0.0023
1797.00,0.0023
1796.00,0.0023
1795.00,0.0023
1794.00,0.0023
1793.00,0.0024
1792.00,0.0027
1791.00,0.0030
1790.00,0.0030
1789.00,0.0029
1788.00,0.0029
1787.00,0.0030
1786.00,0.0030
1785.00,0.0031
1784.00,0.0031
1783.00,0.0029
1782.00,0.0027
1781.00,0.0027
1780.00,0.0028
1779.00,0.0029
1778.00,0.0028
1777.00,0.0027
1776.00,0.0026
1775.00,0.0024
1774.00,0.0022
1773.00,0.0022
1772.00,0.0027
1771.00,0.0032
1770.00,0.0036
1769.00,0.0038
1768.00,0.0039
1767.00,0.0039
1766.00,0.0037
1765.00,0.0035
1764.00,0.0035
1763.00,0.0036
1762.00,0.0038
1761.00,0.0040
1760.00,0.0041
1759.00,0.0041
1758.00,0.0041
1757.00,0.0043
1756.00,0.0046
1755.00,0.0047
1754.00,0.0047
1753.00,0.0048
1752.00,0.0048
1751.00,0.0048
1750.00,0.0047
1749.00,0.0047
1748.00,0.0049
1747.00,0.0051
1746.00,0.0054
1745.00,0.0056
1744.00,0.0058
1743.00,0.0059
1742.00,0.0060
1741.00,0.0061
1740.00,0.0064
1739.00,0.0068
1738.00,0.0071
1737.00,0.0072
1736.00,0.0074
1735.00,0.0076
1734.00,0.0081
1733.00,0.0083
1732.00,0.0082
1731.00,0.0081
1730.00,0.0082
1729.00,0.0084
1728.00,0.0087
1727.00,0.0088
1726.00,0.0088
1725.00,0.0089
1724.00,0.0091
1723.00,0.0093
1722.00,0.0095
1721.00,0.0095
1720.00,0.0095
1719.00,0.0095
1718.00,0.0098
1717.00,0.0104
1716.00,0.0109
1715.00,0.0114
1714.00,0.0118
1713.00,0.0122
1712.00,0.0126
1711.00,0.0131
1710.00,0.0135
1709.00,0.0140
1708.00,0.0146
1707.00,0.0153
1706.00,0.0164
1705.00,0.0180
1704.00,0.0197
1703.00,0.0214
1702.00,0.0231
1701.00,0.0255
1700.00,0.0283
1699.00,0.0306
1698.00,0.0323
1697.00,0.0340
1696.00,0.0360
1695.00,0.0376
1694.00,0.0385
1693.00,0.0390
1692.00,0.0396
1691.00,0.0403
1690.00,0.0410
1689.00,0.0418
1688.00,0.0428
1687.00,0.0438
1686.00,0.0446
1685.00,0.0455
1684.00,0.0468
1683.00,0.0480
1682.00,0.0490
1681.00,0.0503
1680.00,0.0517
1679.00,0.0532
1678.00,0.0547
1677.00,0.0562
1676.00,0.0575
1675.00,0.0585
1674.00,0.0594
1673.00,0.0604
1672.00,0.0616
1671.00,0.0629
1670.00,0.0642
1669.00,0.0654
1668.00,0.0668
1667.00,0.0682
1666.00,0.0697
1665.00,0.0712
1664.00,0.0727
1663.00,0.0741
1662.00,0.0753
1661.00,0.0767
1660.00,0.0782
1659.00,0.0799
1658.00,0.0816
1657.00,0.0836
1656.00,0.0857
1655.00,0.0874
1654.00,0.0879
1653.00,0.0872
1652.00,0.0864
1651.00,0.0867
1650.00,0.0879
1649.00,0.0892
1648.00,0.0900
1647.00,0.0902
1646.00,0.0899
1645.00,0.0899
1644.00,0.0903
1643.00,0.0912
1642.00,0.0920
1641.00,0.0927
1640.00,0.0934
1639.00,0.0943
1638.00,0.0951
1637.00,0.0958
1636.00,0.0961
1635.00,0.0964
1634.00,0.0972
1633.00,0.0987
1632.00,0.1008
1631.00,0.1030
1630.00,0.1051
1629.00,0.1070
1628.00,0.1089
1627.00,0.1110
1626.00,0.1133
1625.00,0.1155
1624.00,0.1174
1623.00,0.1189
1622.00,0.1202
1621.00,0.1218
1620.00,0.1236
1619.00,0.1251
1618.00,0.1252
1617.00,0.1237
1616.00,0.1212
1615.00,0.1190
1614.00,0.1174
1613.00,0.1159
1612.00,0.1139
1611.00,0.1112
1610.00,0.1078
1609.00,0.1043
1608.00,0.1007
1607.00,0.0973
1606.00,0.0941
1605.00,0.0911
1604.00,0.0882
1603.00,0.0854
1602.00,0.0828
1601.00,0.0805
1600.00,0.0785
1599.00,0.0766
1598.00,0.0749
1597.00,0.0734
1596.00,0.0720
1595.00,0.0706
1594.00,0.0694
1593.00,0.0684
1592.00,0.0675
1591.00,0.0667
1590.00,0.0660
1589.00,0.0654
1588.00,0.0648
1587.00,0.0644
1586.00,0.0640
1585.00,0.0637
1584.00,0.0635
1583.00,0.0633
1582.00,0.0632
1581.00,0.0633
1580.00,0.0634
1579.00,0.0637
1578.00,0.0639
1577.00,0.0640
1576.00,0.0641
1575.00,0.0643
1574.00,0.0649
1573.00,0.0659
1572.00,0.0669
1571.00,0.0677
1570.00,0.0683
1569.00,0.0691
1568.00,0.0699
1567.00,0.0708
1566.00,0.0719
1565.00,0.0731
1564.00,0.0744
1563.00,0.0761
1562.00,0.0780
1561.00,0.0795
1560.00,0.0800
1559.00,0.0799
1558.00,0.0802
1557.00,0.0813
1556.00,0.0829
1555.00,0.0847
1554.00,0.0863
1553.00,0.0877
1552.00,0.0892
1551.00,0.0906
1550.00,0.0918
1549.00,0.0931
1548.00,0.0945
1547.00,0.0960
1546.00,0.0974
1545.00,0.0985
1544.00,0.0993
1543.00,0.1000
1542.00,0.1005
1541.00,0.1006
1540.00,0.1006
1539.00,0.1007
1538.00,0.1016
1537.00,0.1032
1536.00,0.1050
1535.00,0.1064
1534.00,0.1071
1533.00,0.1072
1532.00,0.1074
1531.00,0.1081
1530.00,0.1091
1529.00,0.1101
1528.00,0.1106
1527.00,0.1108
1526.00,0.1106
1525.00,0.1106
1524.00,0.1108
1523.00,0.1110
1522.00,0.1107
1521.00,0.1098
1520.00,0.1091
1519.00,0.1091
1518.00,0.1093
1517.00,0.1092
1516.00,0.1088
1515.00,0.1083
1514.00,0.1078
1513.00,0.1070
1512.00,0.1057
1511.00,0.1042
1510.00,0.1028
1509.00,0.1010
1508.00,0.0982
1507.00,0.0942
1506.00,0.0901
1505.00,0.0870
1504.00,0.0852
1503.00,0.0841
1502.00,0.0830
1501.00,0.0816
1500.00,0.0799
1499.00,0.0780
1498.00,0.0760
1497.00,0.0738
1496.00,0.0714
1495.00,0.0693
1494.00,0.0677
1493.00,0.0663
1492.00,0.0648
1491.00,0.0629
1490.00,0.0608
1489.00,0.0588
1488.00,0.0572
1487.00,0.0560
1486.00,0.0549
1485.00,0.0540
1484.00,0.0531
1483.00,0.0524
1482.00,0.0517
1481.00,0.0511
1480.00,0.0507
1479.00,0.0505
1478.00,0.0505
1477.00,0.0505
1476.00,0.0506
1475.00,0.0509
1474.00,0.0512
1473.00,0.0516
1472.00,0.0522
1471.00,0.0528
1470.00,0.0533
1469.00,0.0539
1468.00,0.0544
1467.00,0.0548
1466.00,0.0549
1465.00,0.0549
1464.00,0.0548
1463.00,0.0549
1462.00,0.0552
1461.00,0.0556
1460.00,0.0563
1459.00,0.0570
1458.00,0.0577
1457.00,0.0583
1456.00,0.0585
1455.00,0.0585
1454.00,0.0586
1453.00,0.0589
1452.00,0.0591
1451.00,0.0593
1450.00,0.0593
1449.00,0.0592
1448.00,0.0590
1447.00,0.0587
1446.00,0.0585
1445.00,0.0583
1444.00,0.0581
1443.00,0.0579
1442.00,0.0577
1441.00,0.0576
1440.00,0.0577
1439.00,0.0578
1438.00,0.0577
1437.00,0.0570
1436.00,0.0558
1435.00,0.0546
1434.00,0.0537
1433.00,0.0531
1432.00,0.0525
1431.00,0.0518
1430.00,0.0512
1429.00,0.0507
1428.00,0.0504
1427.00,0.0503
1426.00,0.0502
1425.00,0.0502
1424.00,0.0503
1423.00,0.0507
1422.00,0.0513
1421.00,0.0520
1420.00,0.0526
1419.00,0.0530
1418.00,0.0533
1417.00,0.0538
1416.00,0.0543
1415.00,0.0550
1414.00,0.0558
1413.00,0.0565
1412.00,0.0572
1411.00,0.0579
1410.00,0.0585
1409.00,0.0591
1408.00,0.0597
1407.00,0.0603
1406.00,0.0607
1405.00,0.0612
1404.00,0.0615
1403.00,0.0619
1402.00,0.0624
1401.00,0.0628
1400.00,0.0632
1399.00,0.0634
1398.00,0.0636
1397.00,0.0638
1396.00,0.0641
1395.00,0.0642
1394.00,0.0642
1393.00,0.0642
1392.00,0.0643
1391.00,0.0644
1390.00,0.0647
1389.00,0.0649
1388.00,0.0647
1387.00,0.0642
1386.00,0.0636
1385.00,0.0629
1384.00,0.0623
1383.00,0.0618
1382.00,0.0611
1381.00,0.0605
1380.00,0.0598
1379.00,0.0592
1378.00,0.0585
1377.00,0.0579
1376.00,0.0572
1375.00,0.0566
1374.00,0.0561
1373.00,0.0556
1372.00,0.0552
1371.00,0.0549
1370.00,0.0545
1369.00,0.0541
1368.00,0.0535
1367.00,0.0529
1366.00,0.0523
1365.00,0.0517
1364.00,0.0511
1363.00,0.0504
1362.00,0.0498
1361.00,0.0492
1360.00,0.0488
1359.00,0.0486
1358.00,0.0484
1357.00,0.0484
1356.00,0.0484
1355.00,0.0486
1354.00,0.0488
1353.00,0.0490
1352.00,0.0492
1351.00,0.0494
1350.00,0.0496
1349.00,0.0498
1348.00,0.0499
1347.00,0.0499
1346.00,0.0499
1345.00,0.0498
1344.00,0.0498
1343.00,0.0497
1342.00,0.0495
1341.00,0.0494
1340.00,0.0492
1339.00,0.0489
1338.00,0.0486
1337.00,0.0483
1336.00,0.0480
1335.00,0.0477
1334.00,0.0475
1333.00,0.0472
1332.00,0.0470
1331.00,0.0468
1330.00,0.0467
1329.00,0.0466
1328.00,0.0465
1327.00,0.0464
1326.00,0.0464
1325.00,0.0464
1324.00,0.0464
1323.00,0.0465
1322.00,0.0465
1321.00,0.0466
1320.00,0.0466
1319.00,0.0467
1318.00,0.0468
1317.00,0.0468
1316.00,0.0468
1315.00,0.0468
1314.00,0.0468
1313.00,0.0467
1312.00,0.0466
1311.00,0.0465
1310.00,0.0464
1309.00,0.0463
1308.00,0.0461
1307.00,0.0460
1306.00,0.0459
1305.00,0.0457
1304.00,0.0456
1303.00,0.0455
1302.00,0.0454
1301.00,0.0453
1300.00,0.0452
1299.00,0.0452
1298.00,0.0452
1297.00,0.0453
1296.00,0.0453
1295.00,0.0454
1294.00,0.0455
1293.00,0.0457
1292.00,0.0459
1291.00,0.0461
1290.00,0.0463
1289.00,0.0464
1288.00,0.0466
1287.00,0.0467
1286.00,0.0469
1285.00,0.0470
1284.00,0.0471
1283.00,0.0472
1282.00,0.0473
1281.00,0.0473
1280.00,0.0474
1279.00,0.0474
1278.00,0.0474
1277.00,0.0475
1276.00,0.0475
1275.00,0.0475
1274.00,0.0476
1273.00,0.0477
1272.00,0.0478
1271.00,0.0480
1270.00,0.0483
1269.00,0.0486
1268.00,0.0491
1267.00,0.0495
1266.00,0.0500
1265.00,0.0505
1264.00,0.0510
1263.00,0.0515
1262.00,0.0520
1261.00,0.0524
1260.00,0.0528
1259.00,0.0532
1258.00,0.0536
1257.00,0.0540
1256.00,0.0544
1255.00,0.0548
1254.00,0.0552
1253.00,0.0556
1252.00,0.0561
1251.00,0.0565
1250.00,0.0570
1249.00,0.0574
1248.00,0.0579
1247.00,0.0583
1246.00,0.0586
1245.00,0.0590
1244.00,0.0594
1243.00,0.0597
1242.00,0.0601
1241.00,0.0603
1240.00,0.0606
1239.00,0.0609
1238.00,0.0611
1237.00,0.0612
1236.00,0.0613
1235.00,0.0614
1234.00,0.0614
1233.00,0.0614
1232.00,0.0614
1231.00,0.0613
1230.00,0.0611
1229.00,0.0609
1228.00,0.0607
1227.00,0.0604
1226.00,0.0601
1225.00,0.0597
1224.00,0.0593
1223.00,0.0589
1222.00,0.0584
1221.00,0.0578
1220.00,0.0573
1219.00,0.0566
1218.00,0.0560
1217.00,0.0552
1216.00,0.0544
1215.00,0.0536
1214.00,0.0528
1213.00,0.0519
1212.00,0.0511
1211.00,0.0502
1210.00,0.0494
1209.00,0.0486
1208.00,0.0478
1207.00,0.0471
1206.00,0.0464
1205.00,0.0457
1204.00,0.0451
1203.00,0.0446
1202.00,0.0441
1201.00,0.0436
1200.00,0.0431
1199.00,0.0428
1198.00,0.0424
1197.00,0.0421
1196.00,0.0419
1195.00,0.0416
1194.00,0.0414
1193.00,0.0412
1192.00,0.0410
1191.00,0.0409
1190.00,0.0407
1189.00,0.0406
1188.00,0.0405
1187.00,0.0403
1186.00,0.0402
1185.00,0.0401
1184.00,0.0400
1183.00,0.0400
1182.00,0.0400
1181.00,0.0400
1180.00,0.0401
1179.00,0.0402
1178.00,0.0405
1177.00,0.0408
1176.00,0.0412
1175.00,0.0416
1174.00,0.0420
1173.00,0.0425
1172.00,0.0428
1171.00,0.0431
1170.00,0.0432
1169.00,0.0434
1168.00,0.0434
1167.00,0.0435
1166.00,0.0435
1165.00,0.0436
1164.00,0.0437
1163.00,0.0438
1162.00,0.0440
1161.00,0.0441
1160.00,0.0442
1159.00,0.0443
1158.00,0.0444
1157.00,0.0445
1156.00,0.0446
1155.00,0.0446
1154.00,0.0446
1153.00,0.0445
1152.00,0.0444
1151.00,0.0443
1150.00,0.0442
1149.00,0.0440
1148.00,0.0437
1147.00,0.0435
1146.00,0.0433
1145.00,0.0431
1144.00,0.0430
1143.00,0.0429
1142.00,0.0429
1141.00,0.0428
1140.00,0.0428
1139.00,0.0428
1138.00,0.0429
1137.00,0.0430
1136.00,0.0432
1135.00,0.0434
1134.00,0.0436
1133.00,0.0439
1132.00,0.0442
1131.00,0.0446
1130.00,0.0450
1129.00,0.0454
1128.00,0.0459
1127.00,0.0463
1126.00,0.0467
1125.00,0.0470
1124.00,0.0474
1123.00,0.0477
1122.00,0.0480
1121.00,0.0483
1120.00,0.0486
1119.00,0.0489
1118.00,0.0493
1117.00,0.0496
1116.00,0.0499
1115.00,0.0502
1114.00,0.0505
1113.00,0.0508
1112.00,0.0510
1111.00,0.0512
1110.00,0.0514
1109.00,0.0516
1108.00,0.0518
1107.00,0.0520
1106.00,0.0522
1105.00,0.0524
1104.00,0.0525
1103.00,0.0527
1102.00,0.0528
1101.00,0.0530
1100.00,0.0531
1099.00,0.0533
1098.00,0.0535
1097.00,0.0538
1096.00,0.0541
1095.00,0.0544
1094.00,0.0548
1093.00,0.0552
1092.00,0.0557
1091.00,0.0563
1090.00,0.0569
1089.00,0.0575
1088.00,0.0581
1087.00,0.0587
1086.00,0.0593
1085.00,0.0599
1084.00,0.0605
1083.00,0.0612
1082.00,0.0618
1081.00,0.0623
1080.00,0.0629
1079.00,0.0633
1078.00,0.0637
1077.00,0.0640
1076.00,0.0643
1075.00,0.0645
1074.00,0.0646
1073.00,0.0648
1072.00,0.0648
1071.00,0.0649
1070.00,0.0649
1069.00,0.0649
1068.00,0.0649
1067.00,0.0649
1066.00,0.0648
1065.00,0.0647
1064.00,0.0646
1063.00,0.0645
1062.00,0.0643
1061.00,0.0642
1060.00,0.0641
1059.00,0.0640
1058.00,0.0638
1057.00,0.0636
1056.00,0.0634
1055.00,0.0631
1054.00,0.0628
1053.00,0.0625
1052.00,0.0622
1051.00,0.0618
1050.00,0.0615
1049.00,0.0611
1048.00,0.0608
1047.00,0.0604
1046.00,0.0601
1045.00,0.0598
1044.00,0.0594
1043.00,0.0590
1042.00,0.0585
1041.00,0.0581
1040.00,0.0576
1039.00,0.0571
1038.00,0.0567
1037.00,0.0563
1036.00,0.0559
1035.00,0.0555
1034.00,0.0553
1033.00,0.0550
1032.00,0.0548
1031.00,0.0545
1030.00,0.0542
1029.00,0.0539
1028.00,0.0535
1027.00,0.0530
1026.00,0.0526
1025.00,0.0520
1024.00,0.0515
1023.00,0.0509
1022.00,0.0503
1021.00,0.0497
1020.00,0.0490
1019.00,0.0483
1018.00,0.0477
1017.00,0.0470
1016.00,0.0464
1015.00,0.0458
1014.00,0.0451
1013.00,0.0445
1012.00,0.0438
1011.00,0.0432
1010.00,0.0425
1009.00,0.0418
1008.00,0.0412
1007.00,0.0406
1006.00,0.0401
1005.00,0.0396
1004.00,0.0391
1003.00,0.0387
1002.00,0.0383
1001.00,0.0379
1000.00,0.0375
999.00,0.0371
998.00,0.0368
997.00,0.0365
996.00,0.0363
995.00,0.0361
994.00,0.0358
993.00,0.0356
992.00,0.0354
991.00,0.0352
990.00,0.0351
989.00,0.0350
988.00,0.0349
987.00,0.0349
986.00,0.0349
985.00,0.0349
984.00,0.0350
983.00,0.0352
982.00,0.0354
981.00,0.0357
980.00,0.0359
979.00,0.0362
978.00,0.0364
977.00,0.0367
976.00,0.0369
975.00,0.0371
974.00,0.0372
973.00,0.0373
972.00,0.0373
971.00,0.0373
970.00,0.0372
969.00,0.0371
968.00,0.0369
967.00,0.0366
966.00,0.0364
965.00,0.0361
964.00,0.0359
963.00,0.0357
962.00,0.0355
961.00,0.0353
960.00,0.0351
959.00,0.0350
958.00,0.0349
957.00,0.0347
956.00,0.0347
955.00,0.0346
954.00,0.0345
953.00,0.0345
952.00,0.0345
951.00,0.0345
950.00,0.0345
949.00,0.0345
948.00,0.0345
947.00,0.0346
946.00,0.0346
945.00,0.0347
944.00,0.0348
943.00,0.0349
942.00,0.0350
941.00,0.0351
940.00,0.0352
939.00,0.0353
938.00,0.0354
937.00,0.0355
936.00,0.0356
935.00,0.0356
934.00,0.0357
933.00,0.0357
932.00,0.0357
931.00,0.0356
930.00,0.0355
929.00,0.0354
928.00,0.0353
927.00,0.0350
926.00,0.0348
925.00,0.0345
924.00,0.0343
923.00,0.0340
922.00,0.0338
921.00,0.0336
920.00,0.0334
919.00,0.0332
918.00,0.0330
917.00,0.0328
916.00,0.0327
915.00,0.0326
914.00,0.0324
913.00,0.0323
912.00,0.0322
911.00,0.0322
910.00,0.0322
909.00,0.0322
908.00,0.0322
907.00,0.0323
906.00,0.0323
905.00,0.0324
904.00,0.0324
903.00,0.0324
902.00,0.0325
901.00,0.0325
900.00,0.0326
899.00,0.0326
898.00,0.0326
897.00,0.0326
896.00,0.0326
895.00,0.0326
894.00,0.0326
893.00,0.0326
892.00,0.0326
891.00,0.0327
890.00,0.0328
889.00,0.0328
888.00,0.0328
887.00,0.0329
886.00,0.0329
885.00,0.0330
884.00,0.0330
883.00,0.0331
882.00,0.0332
881.00,0.0333
880.00,0.0334
879.00,0.0334
878.00,0.0334
877.00,0.0334
876.00,0.0334
875.00,0.0334
874.00,0.0334
873.00,0.0333
872.00,0.0333
871.00,0.0332
870.00,0.0332
869.00,0.0332
868.00,0.0331
867.00,0.0332
866.00,0.0333
865.00,0.0334
864.00,0.0335
863.00,0.0337
862.00,0.0338
861.00,0.0340
860.00,0.0342
859.00,0.0345
858.00,0.0349
857.00,0.0353
856.00,0.0356
855.00,0.0360
854.00,0.0363
853.00,0.0366
852.00,0.0368
851.00,0.0371
850.00,0.0372
849.00,0.0374
848.00,0.0375
847.00,0.0376
846.00,0.0377
845.00,0.0378
844.00,0.0380
843.00,0.0383
842.00,0.0385
841.00,0.0388
840.00,0.0391
839.00,0.0395
838.00,0.0400
837.00,0.0405
836.00,0.0410
835.00,0.0415
834.00,0.0420
833.00,0.0424
832.00,0.0429
831.00,0.0433
830.00,0.0437
829.00,0.0441
828.00,0.0444
827.00,0.0447
826.00,0.0448
825.00,0.0449
824.00,0.0450
823.00,0.0451
822.00,0.0451
821.00,0.0452
820.00,0.0453
819.00,0.0455
818.00,0.0456
817.00,0.0458
816.00,0.0460
815.00,0.0463
814.00,0.0465
813.00,0.0468
812.00,0.0470
811.00,0.0473
810.00,0.0476
809.00,0.0479
808.00,0.0482
807.00,0.0485
806.00,0.0488
805.00,0.0491
804.00,0.0495
803.00,0.0499
802.00,0.0503
801.00,0.0506
800.00,0.0510
799.00,0.0513
798.00,0.0516
797.00,0.0520
796.00,0.0523
795.00,0.0527
794.00,0.0531
793.00,0.0536
792.00,0.0542
791.00,0.0548
790.00,0.0554
789.00,0.0559
788.00,0.0565
787.00,0.0570
786.00,0.0575
785.00,0.0581
784.00,0.0586
783.00,0.0590
782.00,0.0593
781.00,0.0596
780.00,0.0600
779.00,0.0603
778.00,0.0606
777.00,0.0608
776.00,0.0610
775.00,0.0612
774.00,0.0614
773.00,0.0616
772.00,0.0619
771.00,0.0621
770.00,0.0624
769.00,0.0626
768.00,0.0629
767.00,0.0631
766.00,0.0633
765.00,0.0634
764.00,0.0636
763.00,0.0639
762.00,0.0641
761.00,0.0642
760.00,0.0645
759.00,0.0647
758.00,0.0649
757.00,0.0651
756.00,0.0654
755.00,0.0657
754.00,0.0660
753.00,0.0664
752.00,0.0669
751.00,0.0673
750.00,0.0678
749.00,0.0682
748.00,0.0686
747.00,0.0690
746.00,0.0694
745.00,0.0697
744.00,0.0701
743.00,0.0704
742.00,0.0707
741.00,0.0710
740.00,0.0713
739.00,0.0716
738.00,0.0720
737.00,0.0724
736.00,0.0728
735.00,0.0733
734.00,0.0739
733.00,0.0745
732.00,0.0752
731.00,0.0760
730.00,0.0768
729.00,0.0777
728.00,0.0787
727.00,0.0797
726.00,0.0807
725.00,0.0818
724.00,0.0830
723.00,0.0842
722.00,0.0854
721.00,0.0864
720.00,0.0875
719.00,0.0884
718.00,0.0892
717.00,0.0900
716.00,0.0907
715.00,0.0915
714.00,0.0922
713.00,0.0930
712.00,0.0938
711.00,0.0946
710.00,0.0953
709.00,0.0961
708.00,0.0970
707.00,0.0979
706.00,0.0989
705.00,0.0999
704.00,0.1010
703.00,0.1020
702.00,0.1029
701.00,0.1036
700.00,0.1043
699.00,0.1047
698.00,0.1050
697.00,0.1052
696.00,0.1051
695.00,0.1050
694.00,0.1049
693.00,0.1047
692.00,0.1046
691.00,0.1045
690.00,0.1044
689.00,0.1044
688.00,0.1045
687.00,0.1046
686.00,0.1047
685.00,0.1048
684.00,0.1049
683.00,0.1050
682.00,0.1050
681.00,0.1051
680.00,0.1052
679.00,0.1054
678.00,0.1056
677.00,0.1057
676.00,0.1058
675.00,0.1059
674.00,0.1061
673.00,0.1062
672.00,0.1064
671.00,0.1067
670.00,0.1071
669.00,0.1073
668.00,0.1074
667.00,0.1075
666.00,0.1076
665.00,0.1080
664.00,0.1084
663.00,0.1087
662.00,0.1090
661.00,0.1092
660.00,0.1094
659.00,0.1096
658.00,0.1097
657.00,0.1098
656.00,0.1099
655.00,0.1100
654.00,0.1102
653.00,0.1104
652.00,0.1107
651.00,0.1109
650.00,0.1110
649.00,0.1113
648.00,0.1116
647.00,0.1119
646.00,0.1123
645.00,0.1126
644.00,0.1129
643.00,0.1131
642.00,0.1134
641.00,0.1136
640.00,0.1139
639.00,0.1142
638.00,0.1144
637.00,0.1146
636.00,0.1148
635.00,0.1151
634.00,0.1152
633.00,0.1154
632.00,0.1157
631.00,0.1159
630.00,0.1162
629.00,0.1166
628.00,0.1171
627.00,0.1175
626.00,0.1179
625.00,0.1183
624.00,0.1187
623.00,0.1191
622.00,0.1194
621.00,0.1196
620.00,0.1197
619.00,0.1197
618.00,0.1197
617.00,0.1197
616.00,0.1198
615.00,0.1200
614.00,0.1200
613.00,0.1201
612.00,0.1201
611.00,0.1201
610.00,0.1201
609.00,0.1201
608.00,0.1201
607.00,0.1202
606.00,0.1202
605.00,0.1203
604.00,0.1204
603.00,0.1204
602.00,0.1205
601.00,0.1205
600.00,0.1206
599.00,0.1207
598.00,0.1208
597.00,0.1210
596.00,0.1213
595.00,0.1215
594.00,0.1217
593.00,0.1217
592.00,0.1218
591.00,0.1219
590.00,0.1220
589.00,0.1222
588.00,0.1224
587.00,0.1227
586.00,0.1229
585.00,0.1232
584.00,0.1236
583.00,0.1238
582.00,0.1241
581.00,0.1243
580.00,0.1245
579.00,0.1247
578.00,0.1250
577.00,0.1253
576.00,0.1257
575.00,0.1259
574.00,0.1261
573.00,0.1262
572.00,0.1265
571.00,0.1268
570.00,0.1271
569.00,0.1274
568.00,0.1277
567.00,0.1282
566.00,0.1286
565.00,0.1290
564.00,0.1293
563.00,0.1296
562.00,0.1299
561.00,0.1302
560.00,0.1305
559.00,0.1309
558.00,0.1312
557.00,0.1314
556.00,0.1318
555.00,0.1322
554.00,0.1325
553.00,0.1329
552.00,0.1333
551.00,0.1337
550.00,0.1340
549.00,0.1343
548.00,0.1346
547.00,0.1348
546.00,0.1349
545.00,0.1351
544.00,0.1353
543.00,0.1356
542.00,0.1359
541.00,0.1363
540.00,0.1368
539.00,0.1371
538.00,0.1374
537.00,0.1377
536.00,0.1380
535.00,0.1383
534.00,0.1385
533.00,0.1386
532.00,0.1388
531.00,0.1389
530.00,0.1390
529.00,0.1392
528.00,0.1395
527.00,0.1398
526.00,0.1400
525.00,0.1400
524.00,0.1400
523.00,0.1401
522.00,0.1402
521.00,0.1403
520.00,0.1406
519.00,0.1409
518.00,0.1410
517.00,0.1410
516.00,0.1410
515.00,0.1409
514.00,0.1408
513.00,0.1407
512.00,0.1408
511.00,0.1410
510.00,0.1410
509.00,0.1410
508.00,0.1411
507.00,0.1411
506.00,0.1411
505.00,0.1412
504.00,0.1414
503.00,0.1417
502.00,0.1419
501.00,0.1421
500.00,0.1424
499.00,0.1426
498.00,0.1428
497.00,0.1430
496.00,0.1432
495.00,0.1433
494.00,0.1434
493.00,0.1435
492.00,0.1435
491.00,0.1435
490.00,0.1434
489.00,0.1434
488.00,0.1435
487.00,0.1437
486.00,0.1436
485.00,0.1434
484.00,0.1432
483.00,0.1430
482.00,0.1427
481.00,0.1425
480.00,0.1425
479.00,0.1428
478.00,0.1433
477.00,0.1440
476.00,0.1445
475.00,0.1447
474.00,0.1445
473.00,0.1443
472.00,0.1441
471.00,0.1439
470.00,0.1437
469.00,0.1437
468.00,0.1439
467.00,0.1442
466.00,0.1445
465.00,0.1448
464.00,0.1450
463.00,0.1451
462.00,0.1453
461.00,0.1457
460.00,0.1461
459.00,0.1463
458.00,0.1461
457.00,0.1458
456.00,0.1455
455.00,0.1450
454.00,0.1445
453.00,0.1443
452.00,0.1443
451.00,0.1444
450.00,0.1444
449.00,0.1444
448.00,0.1444
447.00,0.1441
446.00,0.1435
445.00,0.1429
444.00,0.1424
443.00,0.1418
442.00,0.1413
441.00,0.1409
440.00,0.1410
439.00,0.1412
438.00,0.1414
437.00,0.1417
436.00,0.1417
435.00,0.1415
434.00,0.1409
433.00,0.1403
432.00,0.1400
431.00,0.1398
430.00,0.1398
429.00,0.1402
428.00,0.1409
427.00,0.1416
426.00,0.1417
425.00,0.1416
424.00,0.1413
423.00,0.1407
422.00,0.1399
421.00,0.1394
420.00,0.1395
419.00,0.1395
418.00,0.1391
417.00,0.1385
416.00,0.1382
415.00,0.1381
414.00,0.1380
413.00,0.1379
412.00,0.1377
411.00,0.1373
410.00,0.1366
409.00,0.1363
408.00,0.1364
407.00,0.1366
406.00,0.1362
405.00,0.1358
404.00,0.1359
403.00,0.1361
402.00,0.1359
401.00,0.1355
400.00,0.1354
