Created as New Dataset,Sample 604 By YargerLab Date Thursday, June 05 2025
cm-1,A
4000.00,0.0066
3999.00,0.0066
3998.00,0.0066
3997.00,0.0066
3996.00,0.0066
3995.00,0.0066
3994.00,0.0066
3993.00,0.0066
3992.00,0.0066
3991.00,0.0066
3990.00,0.0066
3989.00,0.0065
3988.00,0.0065
3987.00,0.0066
3986.00,0.0066
3985.00,0.0066
3984.00,0.0066
3983.00,0.0066
3982.00,0.0066
3981.00,0.0065
3980.00,0.0065
3979.00,0.0065
3978.00,0.0065
3977.00,0.0065
3976.00,0.0065
3975.00,0.0066
3974.00,0.0066
3973.00,0.0066
3972.00,0.0066
3971.00,0.0066
3970.00,0.0066
3969.00,0.0065
3968.00,0.0065
3967.00,0.0065
3966.00,0.0065
3965.00,0.0065
3964.00,0.0065
3963.00,0.0065
3962.00,0.0065
3961.00,0.0065
3960.00,0.0065
3959.00,0.0065
3958.00,0.0065
3957.00,0.0065
3956.00,0.0065
3955.00,0.0065
3954.00,0.0065
3953.00,0.0065
3952.00,0.0065
3951.00,0.0065
3950.00,0.0065
3949.00,0.0064
3948.00,0.0064
3947.00,0.0064
3946.00,0.0064
3945.00,0.0064
3944.00,0.0064
3943.00,0.0064
3942.00,0.0065
3941.00,0.0065
3940.00,0.0065
3939.00,0.0065
3938.00,0.0065
3937.00,0.0065
3936.00,0.0065
3935.00,0.0064
3934.00,0.0064
3933.00,0.0064
3932.00,0.0064
3931.00,0.0064
3930.00,0.0064
3929.00,0.0064
3928.00,0.0064
3927.00,0.0064
3926.00,0.0064
3925.00,0.0064
3924.00,0.0064
3923.00,0.0064
3922.00,0.0064
3921.00,0.0064
3920.00,0.0063
3919.00,0.0063
3918.00,0.0063
3917.00,0.0063
3916.00,0.0064
3915.00,0.0064
3914.00,0.0064
3913.00,0.0064
3912.00,0.0064
3911.00,0.0064
3910.00,0.0064
3909.00,0.0064
3908.00,0.0064
3907.00,0.0063
3906.00,0.0063
3905.00,0.0063
3904.00,0.0062
3903.00,0.0062
3902.00,0.0062
3901.00,0.0062
3900.00,0.0062
3899.00,0.0062
3898.00,0.0063
3897.00,0.0063
3896.00,0.0063
3895.00,0.0063
3894.00,0.0063
3893.00,0.0063
3892.00,0.0063
3891.00,0.0063
3890.00,0.0063
3889.00,0.0062
3888.00,0.0062
3887.00,0.0061
3886.00,0.0061
3885.00,0.0062
3884.00,0.0062
3883.00,0.0061
3882.00,0.0061
3881.00,0.0062
3880.00,0.0062
3879.00,0.0062
3878.00,0.0062
3877.00,0.0062
3876.00,0.0062
3875.00,0.0061
3874.00,0.0061
3873.00,0.0061
3872.00,0.0061
3871.00,0.0060
3870.00,0.0060
3869.00,0.0061
3868.00,0.0061
3867.00,0.0061
3866.00,0.0061
3865.00,0.0061
3864.00,0.0061
3863.00,0.0061
3862.00,0.0061
3861.00,0.0061
3860.00,0.0061
3859.00,0.0061
3858.00,0.0062
3857.00,0.0062
3856.00,0.0062
3855.00,0.0062
3854.00,0.0061
3853.00,0.0061
3852.00,0.0061
3851.00,0.0060
3850.00,0.0060
3849.00,0.0060
3848.00,0.0060
3847.00,0.0060
3846.00,0.0061
3845.00,0.0061
3844.00,0.0061
3843.00,0.0061
3842.00,0.0061
3841.00,0.0061
3840.00,0.0060
3839.00,0.0060
3838.00,0.0060
3837.00,0.0060
3836.00,0.0060
3835.00,0.0060
3834.00,0.0060
3833.00,0.0060
3832.00,0.0060
3831.00,0.0060
3830.00,0.0060
3829.00,0.0060
3828.00,0.0060
3827.00,0.0061
3826.00,0.0061
3825.00,0.0061
3824.00,0.0060
3823.00,0.0060
3822.00,0.0059
3821.00,0.0059
3820.00,0.0059
3819.00,0.0059
3818.00,0.0059
3817.00,0.0059
3816.00,0.0059
3815.00,0.0060
3814.00,0.0060
3813.00,0.0060
3812.00,0.0060
3811.00,0.0060
3810.00,0.0060
3809.00,0.0060
3808.00,0.0060
3807.00,0.0060
3806.00,0.0060
3805.00,0.0060
3804.00,0.0059
3803.00,0.0059
3802.00,0.0059
3801.00,0.0060
3800.00,0.0060
3799.00,0.0060
3798.00,0.0059
3797.00,0.0059
3796.00,0.0060
3795.00,0.0060
3794.00,0.0060
3793.00,0.0060
3792.00,0.0060
3791.00,0.0060
3790.00,0.0061
3789.00,0.0061
3788.00,0.0061
3787.00,0.0061
3786.00,0.0060
3785.00,0.0060
3784.00,0.0060
3783.00,0.0060
3782.00,0.0060
3781.00,0.0060
3780.00,0.0060
3779.00,0.0060
3778.00,0.0060
3777.00,0.0060
3776.00,0.0060
3775.00,0.0060
3774.00,0.0060
3773.00,0.0060
3772.00,0.0060
3771.00,0.0060
3770.00,0.0060
3769.00,0.0059
3768.00,0.0059
3767.00,0.0059
3766.00,0.0059
3765.00,0.0059
3764.00,0.0059
3763.00,0.0059
3762.00,0.0059
3761.00,0.0059
3760.00,0.0059
3759.00,0.0059
3758.00,0.0059
3757.00,0.0059
3756.00,0.0059
3755.00,0.0058
3754.00,0.0058
3753.00,0.0058
3752.00,0.0057
3751.00,0.0057
3750.00,0.0056
3749.00,0.0056
3748.00,0.0056
3747.00,0.0056
3746.00,0.0056
3745.00,0.0056
3744.00,0.0056
3743.00,0.0056
3742.00,0.0056
3741.00,0.0055
3740.00,0.0055
3739.00,0.0055
3738.00,0.0054
3737.00,0.0054
3736.00,0.0054
3735.00,0.0054
3734.00,0.0055
3733.00,0.0055
3732.00,0.0054
3731.00,0.0055
3730.00,0.0055
3729.00,0.0055
3728.00,0.0055
3727.00,0.0055
3726.00,0.0055
3725.00,0.0056
3724.00,0.0056
3723.00,0.0056
3722.00,0.0056
3721.00,0.0057
3720.00,0.0057
3719.00,0.0057
3718.00,0.0057
3717.00,0.0057
3716.00,0.0057
3715.00,0.0056
3714.00,0.0056
3713.00,0.0055
3712.00,0.0055
3711.00,0.0055
3710.00,0.0055
3709.00,0.0055
3708.00,0.0055
3707.00,0.0055
3706.00,0.0056
3705.00,0.0056
3704.00,0.0056
3703.00,0.0056
3702.00,0.0057
3701.00,0.0057
3700.00,0.0057
3699.00,0.0056
3698.00,0.0056
3697.00,0.0056
3696.00,0.0056
3695.00,0.0056
3694.00,0.0056
3693.00,0.0056
3692.00,0.0055
3691.00,0.0055
3690.00,0.0055
3689.00,0.0055
3688.00,0.0054
3687.00,0.0054
3686.00,0.0054
3685.00,0.0054
3684.00,0.0055
3683.00,0.0055
3682.00,0.0055
3681.00,0.0055
3680.00,0.0055
3679.00,0.0055
3678.00,0.0055
3677.00,0.0054
3676.00,0.0053
3675.00,0.0053
3674.00,0.0053
3673.00,0.0053
3672.00,0.0052
3671.00,0.0053
3670.00,0.0053
3669.00,0.0054
3668.00,0.0054
3667.00,0.0054
3666.00,0.0054
3665.00,0.0055
3664.00,0.0055
3663.00,0.0056
3662.00,0.0056
3661.00,0.0056
3660.00,0.0056
3659.00,0.0056
3658.00,0.0056
3657.00,0.0056
3656.00,0.0055
3655.00,0.0055
3654.00,0.0055
3653.00,0.0055
3652.00,0.0054
3651.00,0.0054
3650.00,0.0054
3649.00,0.0055
3648.00,0.0054
3647.00,0.0055
3646.00,0.0055
3645.00,0.0056
3644.00,0.0056
3643.00,0.0057
3642.00,0.0058
3641.00,0.0058
3640.00,0.0058
3639.00,0.0058
3638.00,0.0058
3637.00,0.0058
3636.00,0.0058
3635.00,0.0058
3634.00,0.0058
3633.00,0.0059
3632.00,0.0059
3631.00,0.0058
3630.00,0.0058
3629.00,0.0059
3628.00,0.0060
3627.00,0.0060
3626.00,0.0060
3625.00,0.0061
3624.00,0.0061
3623.00,0.0062
3622.00,0.0062
3621.00,0.0062
3620.00,0.0062
3619.00,0.0062
3618.00,0.0062
3617.00,0.0062
3616.00,0.0062
3615.00,0.0062
3614.00,0.0062
3613.00,0.0063
3612.00,0.0063
3611.00,0.0063
3610.00,0.0063
3609.00,0.0064
3608.00,0.0065
3607.00,0.0065
3606.00,0.0066
3605.00,0.0066
3604.00,0.0066
3603.00,0.0066
3602.00,0.0067
3601.00,0.0067
3600.00,0.0067
3599.00,0.0067
3598.00,0.0067
3597.00,0.0067
3596.00,0.0067
3595.00,0.0068
3594.00,0.0068
3593.00,0.0068
3592.00,0.0068
3591.00,0.0069
3590.00,0.0069
3589.00,0.0069
3588.00,0.0069
3587.00,0.0070
3586.00,0.0070
3585.00,0.0070
3584.00,0.0070
3583.00,0.0071
3582.00,0.0072
3581.00,0.0072
3580.00,0.0073
3579.00,0.0073
3578.00,0.0073
3577.00,0.0074
3576.00,0.0074
3575.00,0.0075
3574.00,0.0075
3573.00,0.0075
3572.00,0.0075
3571.00,0.0075
3570.00,0.0075
3569.00,0.0075
3568.00,0.0075
3567.00,0.0076
3566.00,0.0076
3565.00,0.0076
3564.00,0.0076
3563.00,0.0077
3562.00,0.0077
3561.00,0.0078
3560.00,0.0078
3559.00,0.0079
3558.00,0.0080
3557.00,0.0081
3556.00,0.0081
3555.00,0.0082
3554.00,0.0082
3553.00,0.0082
3552.00,0.0082
3551.00,0.0082
3550.00,0.0082
3549.00,0.0082
3548.00,0.0082
3547.00,0.0083
3546.00,0.0083
3545.00,0.0084
3544.00,0.0084
3543.00,0.0085
3542.00,0.0085
3541.00,0.0085
3540.00,0.0086
3539.00,0.0086
3538.00,0.0087
3537.00,0.0088
3536.00,0.0088
3535.00,0.0088
3534.00,0.0088
3533.00,0.0088
3532.00,0.0088
3531.00,0.0088
3530.00,0.0089
3529.00,0.0089
3528.00,0.0090
3527.00,0.0090
3526.00,0.0091
3525.00,0.0091
3524.00,0.0091
3523.00,0.0092
3522.00,0.0092
3521.00,0.0092
3520.00,0.0093
3519.00,0.0093
3518.00,0.0093
3517.00,0.0094
3516.00,0.0094
3515.00,0.0095
3514.00,0.0095
3513.00,0.0095
3512.00,0.0096
3511.00,0.0096
3510.00,0.0096
3509.00,0.0096
3508.00,0.0096
3507.00,0.0097
3506.00,0.0097
3505.00,0.0097
3504.00,0.0097
3503.00,0.0098
3502.00,0.0098
3501.00,0.0099
3500.00,0.0099
3499.00,0.0099
3498.00,0.0100
3497.00,0.0101
3496.00,0.0101
3495.00,0.0101
3494.00,0.0102
3493.00,0.0102
3492.00,0.0102
3491.00,0.0103
3490.00,0.0103
3489.00,0.0104
3488.00,0.0104
3487.00,0.0105
3486.00,0.0105
3485.00,0.0105
3484.00,0.0106
3483.00,0.0106
3482.00,0.0106
3481.00,0.0107
3480.00,0.0107
3479.00,0.0107
3478.00,0.0107
3477.00,0.0108
3476.00,0.0108
3475.00,0.0109
3474.00,0.0109
3473.00,0.0110
3472.00,0.0110
3471.00,0.0110
3470.00,0.0111
3469.00,0.0111
3468.00,0.0112
3467.00,0.0113
3466.00,0.0113
3465.00,0.0113
3464.00,0.0113
3463.00,0.0114
3462.00,0.0114
3461.00,0.0115
3460.00,0.0116
3459.00,0.0117
3458.00,0.0117
3457.00,0.0118
3456.00,0.0119
3455.00,0.0120
3454.00,0.0120
3453.00,0.0121
3452.00,0.0122
3451.00,0.0122
3450.00,0.0122
3449.00,0.0123
3448.00,0.0124
3447.00,0.0124
3446.00,0.0125
3445.00,0.0125
3444.00,0.0126
3443.00,0.0126
3442.00,0.0127
3441.00,0.0127
3440.00,0.0128
3439.00,0.0128
3438.00,0.0128
3437.00,0.0129
3436.00,0.0129
3435.00,0.0130
3434.00,0.0130
3433.00,0.0131
3432.00,0.0131
3431.00,0.0132
3430.00,0.0133
3429.00,0.0133
3428.00,0.0134
3427.00,0.0135
3426.00,0.0135
3425.00,0.0136
3424.00,0.0136
3423.00,0.0137
3422.00,0.0137
3421.00,0.0138
3420.00,0.0139
3419.00,0.0140
3418.00,0.0140
3417.00,0.0141
3416.00,0.0141
3415.00,0.0142
3414.00,0.0142
3413.00,0.0143
3412.00,0.0144
3411.00,0.0144
3410.00,0.0145
3409.00,0.0146
3408.00,0.0146
3407.00,0.0147
3406.00,0.0148
3405.00,0.0148
3404.00,0.0149
3403.00,0.0149
3402.00,0.0150
3401.00,0.0150
3400.00,0.0151
3399.00,0.0152
3398.00,0.0152
3397.00,0.0153
3396.00,0.0153
3395.00,0.0153
3394.00,0.0154
3393.00,0.0154
3392.00,0.0155
3391.00,0.0156
3390.00,0.0157
3389.00,0.0158
3388.00,0.0159
3387.00,0.0159
3386.00,0.0160
3385.00,0.0161
3384.00,0.0162
3383.00,0.0162
3382.00,0.0163
3381.00,0.0164
3380.00,0.0164
3379.00,0.0165
3378.00,0.0165
3377.00,0.0166
3376.00,0.0167
3375.00,0.0167
3374.00,0.0168
3373.00,0.0169
3372.00,0.0169
3371.00,0.0170
3370.00,0.0171
3369.00,0.0171
3368.00,0.0172
3367.00,0.0173
3366.00,0.0175
3365.00,0.0176
3364.00,0.0177
3363.00,0.0178
3362.00,0.0179
3361.00,0.0180
3360.00,0.0181
3359.00,0.0182
3358.00,0.0183
3357.00,0.0183
3356.00,0.0184
3355.00,0.0185
3354.00,0.0186
3353.00,0.0186
3352.00,0.0187
3351.00,0.0188
3350.00,0.0190
3349.00,0.0191
3348.00,0.0192
3347.00,0.0194
3346.00,0.0195
3345.00,0.0196
3344.00,0.0197
3343.00,0.0197
3342.00,0.0198
3341.00,0.0199
3340.00,0.0199
3339.00,0.0200
3338.00,0.0202
3337.00,0.0203
3336.00,0.0205
3335.00,0.0206
3334.00,0.0208
3333.00,0.0209
3332.00,0.0210
3331.00,0.0211
3330.00,0.0212
3329.00,0.0213
3328.00,0.0214
3327.00,0.0214
3326.00,0.0216
3325.00,0.0217
3324.00,0.0219
3323.00,0.0220
3322.00,0.0222
3321.00,0.0223
3320.00,0.0224
3319.00,0.0225
3318.00,0.0226
3317.00,0.0227
3316.00,0.0228
3315.00,0.0229
3314.00,0.0230
3313.00,0.0231
3312.00,0.0232
3311.00,0.0232
3310.00,0.0232
3309.00,0.0233
3308.00,0.0233
3307.00,0.0234
3306.00,0.0236
3305.00,0.0238
3304.00,0.0240
3303.00,0.0242
3302.00,0.0243
3301.00,0.0244
3300.00,0.0245
3299.00,0.0245
3298.00,0.0246
3297.00,0.0246
3296.00,0.0246
3295.00,0.0247
3294.00,0.0247
3293.00,0.0248
3292.00,0.0249
3291.00,0.0251
3290.00,0.0252
3289.00,0.0253
3288.00,0.0254
3287.00,0.0254
3286.00,0.0255
3285.00,0.0255
3284.00,0.0255
3283.00,0.0256
3282.00,0.0256
3281.00,0.0256
3280.00,0.0256
3279.00,0.0255
3278.00,0.0255
3277.00,0.0254
3276.00,0.0254
3275.00,0.0253
3274.00,0.0251
3273.00,0.0250
3272.00,0.0249
3271.00,0.0249
3270.00,0.0249
3269.00,0.0249
3268.00,0.0249
3267.00,0.0249
3266.00,0.0248
3265.00,0.0247
3264.00,0.0246
3263.00,0.0245
3262.00,0.0244
3261.00,0.0243
3260.00,0.0241
3259.00,0.0240
3258.00,0.0238
3257.00,0.0237
3256.00,0.0236
3255.00,0.0235
3254.00,0.0234
3253.00,0.0233
3252.00,0.0232
3251.00,0.0231
3250.00,0.0230
3249.00,0.0228
3248.00,0.0227
3247.00,0.0225
3246.00,0.0225
3245.00,0.0224
3244.00,0.0223
3243.00,0.0223
3242.00,0.0222
3241.00,0.0221
3240.00,0.0220
3239.00,0.0219
3238.00,0.0217
3237.00,0.0216
3236.00,0.0214
3235.00,0.0213
3234.00,0.0212
3233.00,0.0212
3232.00,0.0212
3231.00,0.0212
3230.00,0.0211
3229.00,0.0211
3228.00,0.0210
3227.00,0.0209
3226.00,0.0209
3225.00,0.0208
3224.00,0.0207
3223.00,0.0207
3222.00,0.0206
3221.00,0.0205
3220.00,0.0204
3219.00,0.0204
3218.00,0.0203
3217.00,0.0202
3216.00,0.0202
3215.00,0.0201
3214.00,0.0201
3213.00,0.0200
3212.00,0.0200
3211.00,0.0199
3210.00,0.0199
3209.00,0.0198
3208.00,0.0197
3207.00,0.0197
3206.00,0.0196
3205.00,0.0195
3204.00,0.0195
3203.00,0.0194
3202.00,0.0194
3201.00,0.0193
3200.00,0.0192
3199.00,0.0191
3198.00,0.0191
3197.00,0.0190
3196.00,0.0189
3195.00,0.0189
3194.00,0.0188
3193.00,0.0187
3192.00,0.0187
3191.00,0.0186
3190.00,0.0185
3189.00,0.0185
3188.00,0.0184
3187.00,0.0183
3186.00,0.0183
3185.00,0.0182
3184.00,0.0182
3183.00,0.0181
3182.00,0.0180
3181.00,0.0179
3180.00,0.0179
3179.00,0.0178
3178.00,0.0177
3177.00,0.0176
3176.00,0.0176
3175.00,0.0175
3174.00,0.0174
3173.00,0.0173
3172.00,0.0173
3171.00,0.0172
3170.00,0.0171
3169.00,0.0170
3168.00,0.0170
3167.00,0.0169
3166.00,0.0168
3165.00,0.0168
3164.00,0.0167
3163.00,0.0166
3162.00,0.0166
3161.00,0.0165
3160.00,0.0164
3159.00,0.0164
3158.00,0.0163
3157.00,0.0162
3156.00,0.0161
3155.00,0.0159
3154.00,0.0158
3153.00,0.0158
3152.00,0.0158
3151.00,0.0158
3150.00,0.0158
3149.00,0.0158
3148.00,0.0158
3147.00,0.0157
3146.00,0.0157
3145.00,0.0156
3144.00,0.0155
3143.00,0.0154
3142.00,0.0153
3141.00,0.0152
3140.00,0.0152
3139.00,0.0151
3138.00,0.0151
3137.00,0.0152
3136.00,0.0152
3135.00,0.0151
3134.00,0.0151
3133.00,0.0151
3132.00,0.0150
3131.00,0.0149
3130.00,0.0149
3129.00,0.0149
3128.00,0.0149
3127.00,0.0149
3126.00,0.0148
3125.00,0.0148
3124.00,0.0148
3123.00,0.0147
3122.00,0.0146
3121.00,0.0145
3120.00,0.0145
3119.00,0.0144
3118.00,0.0144
3117.00,0.0144
3116.00,0.0144
3115.00,0.0145
3114.00,0.0146
3113.00,0.0146
3112.00,0.0146
3111.00,0.0146
3110.00,0.0146
3109.00,0.0146
3108.00,0.0146
3107.00,0.0147
3106.00,0.0147
3105.00,0.0148
3104.00,0.0148
3103.00,0.0148
3102.00,0.0147
3101.00,0.0147
3100.00,0.0147
3099.00,0.0148
3098.00,0.0148
3097.00,0.0149
3096.00,0.0149
3095.00,0.0149
3094.00,0.0149
3093.00,0.0149
3092.00,0.0148
3091.00,0.0148
3090.00,0.0148
3089.00,0.0149
3088.00,0.0149
3087.00,0.0149
3086.00,0.0149
3085.00,0.0149
3084.00,0.0149
3083.00,0.0149
3082.00,0.0149
3081.00,0.0148
3080.00,0.0148
3079.00,0.0149
3078.00,0.0149
3077.00,0.0151
3076.00,0.0152
3075.00,0.0153
3074.00,0.0153
3073.00,0.0153
3072.00,0.0153
3071.00,0.0152
3070.00,0.0152
3069.00,0.0151
3068.00,0.0151
3067.00,0.0151
3066.00,0.0151
3065.00,0.0152
3064.00,0.0152
3063.00,0.0152
3062.00,0.0152
3061.00,0.0152
3060.00,0.0151
3059.00,0.0151
3058.00,0.0150
3057.00,0.0149
3056.00,0.0149
3055.00,0.0149
3054.00,0.0148
3053.00,0.0147
3052.00,0.0147
3051.00,0.0147
3050.00,0.0146
3049.00,0.0146
3048.00,0.0145
3047.00,0.0144
3046.00,0.0143
3045.00,0.0142
3044.00,0.0142
3043.00,0.0142
3042.00,0.0142
3041.00,0.0142
3040.00,0.0142
3039.00,0.0142
3038.00,0.0141
3037.00,0.0140
3036.00,0.0139
3035.00,0.0138
3034.00,0.0138
3033.00,0.0138
3032.00,0.0138
3031.00,0.0138
3030.00,0.0137
3029.00,0.0137
3028.00,0.0137
3027.00,0.0136
3026.00,0.0136
3025.00,0.0135
3024.00,0.0135
3023.00,0.0134
3022.00,0.0133
3021.00,0.0133
3020.00,0.0132
3019.00,0.0131
3018.00,0.0129
3017.00,0.0128
3016.00,0.0128
3015.00,0.0127
3014.00,0.0126
3013.00,0.0125
3012.00,0.0125
3011.00,0.0125
3010.00,0.0125
3009.00,0.0125
3008.00,0.0124
3007.00,0.0124
3006.00,0.0122
3005.00,0.0121
3004.00,0.0120
3003.00,0.0120
3002.00,0.0119
3001.00,0.0118
3000.00,0.0117
2999.00,0.0116
2998.00,0.0116
2997.00,0.0116
2996.00,0.0116
2995.00,0.0116
2994.00,0.0116
2993.00,0.0116
2992.00,0.0116
2991.00,0.0117
2990.00,0.0118
2989.00,0.0118
2988.00,0.0119
2987.00,0.0119
2986.00,0.0119
2985.00,0.0119
2984.00,0.0117
2983.00,0.0116
2982.00,0.0115
2981.00,0.0115
2980.00,0.0117
2979.00,0.0120
2978.00,0.0123
2977.00,0.0126
2976.00,0.0128
2975.00,0.0130
2974.00,0.0131
2973.00,0.0132
2972.00,0.0133
2971.00,0.0135
2970.00,0.0136
2969.00,0.0138
2968.00,0.0140
2967.00,0.0142
2966.00,0.0144
2965.00,0.0145
2964.00,0.0146
2963.00,0.0147
2962.00,0.0148
2961.00,0.0148
2960.00,0.0149
2959.00,0.0149
2958.00,0.0149
2957.00,0.0149
2956.00,0.0148
2955.00,0.0148
2954.00,0.0147
2953.00,0.0146
2952.00,0.0146
2951.00,0.0146
2950.00,0.0145
2949.00,0.0145
2948.00,0.0145
2947.00,0.0145
2946.00,0.0145
2945.00,0.0146
2944.00,0.0147
2943.00,0.0148
2942.00,0.0150
2941.00,0.0151
2940.00,0.0152
2939.00,0.0153
2938.00,0.0153
2937.00,0.0154
2936.00,0.0155
2935.00,0.0155
2934.00,0.0156
2933.00,0.0156
2932.00,0.0156
2931.00,0.0157
2930.00,0.0157
2929.00,0.0157
2928.00,0.0158
2927.00,0.0158
2926.00,0.0158
2925.00,0.0157
2924.00,0.0157
2923.00,0.0157
2922.00,0.0157
2921.00,0.0157
2920.00,0.0157
2919.00,0.0156
2918.00,0.0155
2917.00,0.0154
2916.00,0.0152
2915.00,0.0149
2914.00,0.0147
2913.00,0.0145
2912.00,0.0143
2911.00,0.0141
2910.00,0.0139
2909.00,0.0138
2908.00,0.0137
2907.00,0.0136
2906.00,0.0134
2905.00,0.0133
2904.00,0.0132
2903.00,0.0132
2902.00,0.0131
2901.00,0.0130
2900.00,0.0129
2899.00,0.0129
2898.00,0.0128
2897.00,0.0127
2896.00,0.0126
2895.00,0.0126
2894.00,0.0125
2893.00,0.0125
2892.00,0.0124
2891.00,0.0124
2890.00,0.0124
2889.00,0.0123
2888.00,0.0123
2887.00,0.0123
2886.00,0.0123
2885.00,0.0124
2884.00,0.0124
2883.00,0.0124
2882.00,0.0125
2881.00,0.0126
2880.00,0.0127
2879.00,0.0128
2878.00,0.0128
2877.00,0.0129
2876.00,0.0129
2875.00,0.0129
2874.00,0.0129
2873.00,0.0129
2872.00,0.0129
2871.00,0.0128
2870.00,0.0128
2869.00,0.0127
2868.00,0.0126
2867.00,0.0125
2866.00,0.0124
2865.00,0.0124
2864.00,0.0123
2863.00,0.0122
2862.00,0.0121
2861.00,0.0120
2860.00,0.0120
2859.00,0.0120
2858.00,0.0119
2857.00,0.0119
2856.00,0.0119
2855.00,0.0119
2854.00,0.0119
2853.00,0.0119
2852.00,0.0120
2851.00,0.0120
2850.00,0.0120
2849.00,0.0119
2848.00,0.0118
2847.00,0.0117
2846.00,0.0115
2845.00,0.0114
2844.00,0.0113
2843.00,0.0112
2842.00,0.0111
2841.00,0.0110
2840.00,0.0109
2839.00,0.0108
2838.00,0.0108
2837.00,0.0107
2836.00,0.0107
2835.00,0.0107
2834.00,0.0107
2833.00,0.0106
2832.00,0.0106
2831.00,0.0106
2830.00,0.0106
2829.00,0.0106
2828.00,0.0105
2827.00,0.0105
2826.00,0.0105
2825.00,0.0104
2824.00,0.0104
2823.00,0.0104
2822.00,0.0104
2821.00,0.0104
2820.00,0.0104
2819.00,0.0104
2818.00,0.0104
2817.00,0.0104
2816.00,0.0104
2815.00,0.0103
2814.00,0.0103
2813.00,0.0103
2812.00,0.0103
2811.00,0.0102
2810.00,0.0102
2809.00,0.0102
2808.00,0.0101
2807.00,0.0101
2806.00,0.0101
2805.00,0.0101
2804.00,0.0101
2803.00,0.0101
2802.00,0.0101
2801.00,0.0100
2800.00,0.0100
2799.00,0.0100
2798.00,0.0100
2797.00,0.0099
2796.00,0.0099
2795.00,0.0099
2794.00,0.0099
2793.00,0.0098
2792.00,0.0098
2791.00,0.0098
2790.00,0.0098
2789.00,0.0097
2788.00,0.0097
2787.00,0.0097
2786.00,0.0097
2785.00,0.0097
2784.00,0.0097
2783.00,0.0097
2782.00,0.0096
2781.00,0.0096
2780.00,0.0096
2779.00,0.0096
2778.00,0.0096
2777.00,0.0095
2776.00,0.0095
2775.00,0.0095
2774.00,0.0095
2773.00,0.0094
2772.00,0.0094
2771.00,0.0094
2770.00,0.0094
2769.00,0.0094
2768.00,0.0094
2767.00,0.0093
2766.00,0.0093
2765.00,0.0093
2764.00,0.0093
2763.00,0.0093
2762.00,0.0092
2761.00,0.0092
2760.00,0.0092
2759.00,0.0092
2758.00,0.0092
2757.00,0.0092
2756.00,0.0091
2755.00,0.0091
2754.00,0.0091
2753.00,0.0091
2752.00,0.0091
2751.00,0.0090
2750.00,0.0090
2749.00,0.0090
2748.00,0.0090
2747.00,0.0090
2746.00,0.0090
2745.00,0.0089
2744.00,0.0089
2743.00,0.0089
2742.00,0.0089
2741.00,0.0089
2740.00,0.0089
2739.00,0.0089
2738.00,0.0089
2737.00,0.0088
2736.00,0.0088
2735.00,0.0088
2734.00,0.0088
2733.00,0.0088
2732.00,0.0088
2731.00,0.0088
2730.00,0.0087
2729.00,0.0087
2728.00,0.0087
2727.00,0.0086
2726.00,0.0086
2725.00,0.0086
2724.00,0.0086
2723.00,0.0086
2722.00,0.0086
2721.00,0.0085
2720.00,0.0085
2719.00,0.0085
2718.00,0.0085
2717.00,0.0085
2716.00,0.0085
2715.00,0.0085
2714.00,0.0084
2713.00,0.0084
2712.00,0.0084
2711.00,0.0084
2710.00,0.0084
2709.00,0.0084
2708.00,0.0084
2707.00,0.0083
2706.00,0.0083
2705.00,0.0083
2704.00,0.0083
2703.00,0.0083
2702.00,0.0082
2701.00,0.0082
2700.00,0.0082
2699.00,0.0082
2698.00,0.0082
2697.00,0.0082
2696.00,0.0082
2695.00,0.0082
2694.00,0.0082
2693.00,0.0081
2692.00,0.0081
2691.00,0.0081
2690.00,0.0081
2689.00,0.0081
2688.00,0.0081
2687.00,0.0081
2686.00,0.0081
2685.00,0.0081
2684.00,0.0081
2683.00,0.0081
2682.00,0.0080
2681.00,0.0080
2680.00,0.0080
2679.00,0.0080
2678.00,0.0079
2677.00,0.0079
2676.00,0.0079
2675.00,0.0079
2674.00,0.0079
2673.00,0.0079
2672.00,0.0079
2671.00,0.0079
2670.00,0.0079
2669.00,0.0079
2668.00,0.0079
2667.00,0.0079
2666.00,0.0080
2665.00,0.0080
2664.00,0.0080
2663.00,0.0081
2662.00,0.0081
2661.00,0.0081
2660.00,0.0081
2659.00,0.0081
2658.00,0.0081
2657.00,0.0081
2656.00,0.0081
2655.00,0.0081
2654.00,0.0081
2653.00,0.0081
2652.00,0.0081
2651.00,0.0081
2650.00,0.0081
2649.00,0.0081
2648.00,0.0081
2647.00,0.0081
2646.00,0.0080
2645.00,0.0080
2644.00,0.0080
2643.00,0.0080
2642.00,0.0080
2641.00,0.0080
2640.00,0.0080
2639.00,0.0080
2638.00,0.0080
2637.00,0.0079
2636.00,0.0079
2635.00,0.0079
2634.00,0.0079
2633.00,0.0079
2632.00,0.0078
2631.00,0.0078
2630.00,0.0078
2629.00,0.0078
2628.00,0.0078
2627.00,0.0078
2626.00,0.0078
2625.00,0.0077
2624.00,0.0077
2623.00,0.0077
2622.00,0.0077
2621.00,0.0077
2620.00,0.0076
2619.00,0.0076
2618.00,0.0076
2617.00,0.0076
2616.00,0.0076
2615.00,0.0076
2614.00,0.0075
2613.00,0.0075
2612.00,0.0075
2611.00,0.0075
2610.00,0.0075
2609.00,0.0075
2608.00,0.0075
2607.00,0.0075
2606.00,0.0074
2605.00,0.0074
2604.00,0.0073
2603.00,0.0073
2602.00,0.0073
2601.00,0.0073
2600.00,0.0073
2599.00,0.0073
2598.00,0.0073
2597.00,0.0072
2596.00,0.0072
2595.00,0.0072
2594.00,0.0072
2593.00,0.0072
2592.00,0.0071
2591.00,0.0071
2590.00,0.0071
2589.00,0.0071
2588.00,0.0071
2587.00,0.0071
2586.00,0.0071
2585.00,0.0070
2584.00,0.0070
2583.00,0.0070
2582.00,0.0070
2581.00,0.0070
2580.00,0.0070
2579.00,0.0070
2578.00,0.0070
2577.00,0.0070
2576.00,0.0070
2575.00,0.0070
2574.00,0.0070
2573.00,0.0069
2572.00,0.0069
2571.00,0.0069
2570.00,0.0069
2569.00,0.0069
2568.00,0.0069
2567.00,0.0069
2566.00,0.0069
2565.00,0.0069
2564.00,0.0069
2563.00,0.0068
2562.00,0.0068
2561.00,0.0068
2560.00,0.0068
2559.00,0.0068
2558.00,0.0067
2557.00,0.0067
2556.00,0.0067
2555.00,0.0067
2554.00,0.0067
2553.00,0.0067
2552.00,0.0067
2551.00,0.0066
2550.00,0.0066
2549.00,0.0066
2548.00,0.0066
2547.00,0.0066
2546.00,0.0066
2545.00,0.0066
2544.00,0.0066
2543.00,0.0066
2542.00,0.0066
2541.00,0.0066
2540.00,0.0065
2539.00,0.0065
2538.00,0.0065
2537.00,0.0065
2536.00,0.0064
2535.00,0.0064
2534.00,0.0064
2533.00,0.0064
2532.00,0.0064
2531.00,0.0064
2530.00,0.0064
2529.00,0.0064
2528.00,0.0064
2527.00,0.0064
2526.00,0.0063
2525.00,0.0063
2524.00,0.0063
2523.00,0.0063
2522.00,0.0063
2521.00,0.0063
2520.00,0.0063
2519.00,0.0063
2518.00,0.0063
2517.00,0.0062
2516.00,0.0062
2515.00,0.0062
2514.00,0.0062
2513.00,0.0062
2512.00,0.0062
2511.00,0.0062
2510.00,0.0062
2509.00,0.0062
2508.00,0.0062
2507.00,0.0062
2506.00,0.0062
2505.00,0.0062
2504.00,0.0061
2503.00,0.0061
2502.00,0.0061
2501.00,0.0061
2500.00,0.0061
2499.00,0.0061
2498.00,0.0061
2497.00,0.0061
2496.00,0.0061
2495.00,0.0061
2494.00,0.0061
2493.00,0.0061
2492.00,0.0060
2491.00,0.0060
2490.00,0.0060
2489.00,0.0060
2488.00,0.0060
2487.00,0.0060
2486.00,0.0060
2485.00,0.0059
2484.00,0.0059
2483.00,0.0059
2482.00,0.0059
2481.00,0.0059
2480.00,0.0059
2479.00,0.0059
2478.00,0.0059
2477.00,0.0059
2476.00,0.0059
2475.00,0.0059
2474.00,0.0059
2473.00,0.0059
2472.00,0.0059
2471.00,0.0059
2470.00,0.0059
2469.00,0.0059
2468.00,0.0059
2467.00,0.0059
2466.00,0.0058
2465.00,0.0058
2464.00,0.0058
2463.00,0.0059
2462.00,0.0059
2461.00,0.0059
2460.00,0.0058
2459.00,0.0058
2458.00,0.0058
2457.00,0.0059
2456.00,0.0059
2455.00,0.0059
2454.00,0.0059
2453.00,0.0059
2452.00,0.0058
2451.00,0.0058
2450.00,0.0058
2449.00,0.0058
2448.00,0.0057
2447.00,0.0057
2446.00,0.0057
2445.00,0.0057
2444.00,0.0057
2443.00,0.0057
2442.00,0.0057
2441.00,0.0056
2440.00,0.0056
2439.00,0.0056
2438.00,0.0055
2437.00,0.0055
2436.00,0.0055
2435.00,0.0055
2434.00,0.0055
2433.00,0.0055
2432.00,0.0055
2431.00,0.0055
2430.00,0.0055
2429.00,0.0055
2428.00,0.0055
2427.00,0.0054
2426.00,0.0054
2425.00,0.0053
2424.00,0.0053
2423.00,0.0053
2422.00,0.0053
2421.00,0.0053
2420.00,0.0053
2419.00,0.0053
2418.00,0.0053
2417.00,0.0053
2416.00,0.0053
2415.00,0.0053
2414.00,0.0053
2413.00,0.0053
2412.00,0.0053
2411.00,0.0053
2410.00,0.0053
2409.00,0.0052
2408.00,0.0052
2407.00,0.0051
2406.00,0.0051
2405.00,0.0050
2404.00,0.0050
2403.00,0.0050
2402.00,0.0050
2401.00,0.0050
2400.00,0.0050
2399.00,0.0050
2398.00,0.0050
2397.00,0.0050
2396.00,0.0050
2395.00,0.0050
2394.00,0.0050
2393.00,0.0050
2392.00,0.0050
2391.00,0.0050
2390.00,0.0049
2389.00,0.0049
2388.00,0.0049
2387.00,0.0048
2386.00,0.0048
2385.00,0.0047
2384.00,0.0047
2383.00,0.0047
2382.00,0.0046
2381.00,0.0046
2380.00,0.0046
2379.00,0.0045
2378.00,0.0045
2377.00,0.0045
2376.00,0.0045
2375.00,0.0046
2374.00,0.0046
2373.00,0.0045
2372.00,0.0046
2371.00,0.0046
2370.00,0.0045
2369.00,0.0045
2368.00,0.0045
2367.00,0.0045
2366.00,0.0045
2365.00,0.0046
2364.00,0.0046
2363.00,0.0046
2362.00,0.0046
2361.00,0.0046
2360.00,0.0045
2359.00,0.0045
2358.00,0.0045
2357.00,0.0046
2356.00,0.0046
2355.00,0.0046
2354.00,0.0046
2353.00,0.0045
2352.00,0.0046
2351.00,0.0046
2350.00,0.0046
2349.00,0.0046
2348.00,0.0047
2347.00,0.0048
2346.00,0.0048
2345.00,0.0049
2344.00,0.0048
2343.00,0.0048
2342.00,0.0048
2341.00,0.0048
2340.00,0.0049
2339.00,0.0049
2338.00,0.0049
2337.00,0.0049
2336.00,0.0049
2335.00,0.0049
2334.00,0.0049
2333.00,0.0049
2332.00,0.0049
2331.00,0.0049
2330.00,0.0049
2329.00,0.0051
2328.00,0.0054
2327.00,0.0057
2326.00,0.0060
2325.00,0.0062
2324.00,0.0061
2323.00,0.0060
2322.00,0.0058
2321.00,0.0057
2320.00,0.0055
2319.00,0.0053
2318.00,0.0052
2317.00,0.0051
2316.00,0.0050
2315.00,0.0050
2314.00,0.0050
2313.00,0.0050
2312.00,0.0050
2311.00,0.0050
2310.00,0.0050
2309.00,0.0050
2308.00,0.0050
2307.00,0.0050
2306.00,0.0050
2305.00,0.0050
2304.00,0.0051
2303.00,0.0051
2302.00,0.0051
2301.00,0.0051
2300.00,0.0051
2299.00,0.0051
2298.00,0.0052
2297.00,0.0052
2296.00,0.0053
2295.00,0.0054
2294.00,0.0054
2293.00,0.0055
2292.00,0.0056
2291.00,0.0056
2290.00,0.0057
2289.00,0.0057
2288.00,0.0058
2287.00,0.0058
2286.00,0.0059
2285.00,0.0058
2284.00,0.0057
2283.00,0.0056
2282.00,0.0056
2281.00,0.0055
2280.00,0.0055
2279.00,0.0055
2278.00,0.0054
2277.00,0.0054
2276.00,0.0053
2275.00,0.0052
2274.00,0.0052
2273.00,0.0052
2272.00,0.0052
2271.00,0.0052
2270.00,0.0052
2269.00,0.0051
2268.00,0.0050
2267.00,0.0049
2266.00,0.0048
2265.00,0.0048
2264.00,0.0048
2263.00,0.0048
2262.00,0.0049
2261.00,0.0051
2260.00,0.0051
2259.00,0.0051
2258.00,0.0051
2257.00,0.0049
2256.00,0.0048
2255.00,0.0047
2254.00,0.0046
2253.00,0.0045
2252.00,0.0046
2251.00,0.0046
2250.00,0.0046
2249.00,0.0047
2248.00,0.0048
2247.00,0.0048
2246.00,0.0048
2245.00,0.0048
2244.00,0.0048
2243.00,0.0048
2242.00,0.0048
2241.00,0.0048
2240.00,0.0048
2239.00,0.0048
2238.00,0.0048
2237.00,0.0048
2236.00,0.0048
2235.00,0.0048
2234.00,0.0047
2233.00,0.0047
2232.00,0.0047
2231.00,0.0046
2230.00,0.0046
2229.00,0.0047
2228.00,0.0047
2227.00,0.0047
2226.00,0.0047
2225.00,0.0047
2224.00,0.0046
2223.00,0.0045
2222.00,0.0044
2221.00,0.0043
2220.00,0.0044
2219.00,0.0043
2218.00,0.0043
2217.00,0.0042
2216.00,0.0042
2215.00,0.0042
2214.00,0.0042
2213.00,0.0043
2212.00,0.0044
2211.00,0.0044
2210.00,0.0043
2209.00,0.0043
2208.00,0.0043
2207.00,0.0043
2206.00,0.0043
2205.00,0.0043
2204.00,0.0044
2203.00,0.0044
2202.00,0.0045
2201.00,0.0045
2200.00,0.0045
2199.00,0.0045
2198.00,0.0044
2197.00,0.0044
2196.00,0.0045
2195.00,0.0047
2194.00,0.0048
2193.00,0.0049
2192.00,0.0049
2191.00,0.0048
2190.00,0.0047
2189.00,0.0048
2188.00,0.0050
2187.00,0.0050
2186.00,0.0049
2185.00,0.0047
2184.00,0.0044
2183.00,0.0041
2182.00,0.0039
2181.00,0.0038
2180.00,0.0039
2179.00,0.0040
2178.00,0.0041
2177.00,0.0041
2176.00,0.0040
2175.00,0.0040
2174.00,0.0041
2173.00,0.0042
2172.00,0.0044
2171.00,0.0045
2170.00,0.0047
2169.00,0.0050
2168.00,0.0052
2167.00,0.0052
2166.00,0.0052
2165.00,0.0053
2164.00,0.0055
2163.00,0.0054
2162.00,0.0049
2161.00,0.0038
2160.00,0.0025
2159.00,0.0015
2158.00,0.0011
2157.00,0.0012
2156.00,0.0014
2155.00,0.0016
2154.00,0.0017
2153.00,0.0018
2152.00,0.0019
2151.00,0.0021
2150.00,0.0022
2149.00,0.0023
2148.00,0.0023
2147.00,0.0023
2146.00,0.0023
2145.00,0.0024
2144.00,0.0025
2143.00,0.0026
2142.00,0.0026
2141.00,0.0027
2140.00,0.0027
2139.00,0.0026
2138.00,0.0025
2137.00,0.0023
2136.00,0.0021
2135.00,0.0020
2134.00,0.0021
2133.00,0.0022
2132.00,0.0025
2131.00,0.0027
2130.00,0.0028
2129.00,0.0029
2128.00,0.0029
2127.00,0.0030
2126.00,0.0031
2125.00,0.0032
2124.00,0.0033
2123.00,0.0034
2122.00,0.0035
2121.00,0.0035
2120.00,0.0035
2119.00,0.0036
2118.00,0.0037
2117.00,0.0038
2116.00,0.0039
2115.00,0.0040
2114.00,0.0040
2113.00,0.0041
2112.00,0.0041
2111.00,0.0041
2110.00,0.0040
2109.00,0.0040
2108.00,0.0040
2107.00,0.0039
2106.00,0.0040
2105.00,0.0040
2104.00,0.0040
2103.00,0.0040
2102.00,0.0040
2101.00,0.0040
2100.00,0.0040
2099.00,0.0039
2098.00,0.0038
2097.00,0.0036
2096.00,0.0035
2095.00,0.0034
2094.00,0.0034
2093.00,0.0035
2092.00,0.0036
2091.00,0.0037
2090.00,0.0038
2089.00,0.0038
2088.00,0.0038
2087.00,0.0038
2086.00,0.0039
2085.00,0.0039
2084.00,0.0039
2083.00,0.0040
2082.00,0.0040
2081.00,0.0041
2080.00,0.0041
2079.00,0.0041
2078.00,0.0041
2077.00,0.0040
2076.00,0.0040
2075.00,0.0040
2074.00,0.0040
2073.00,0.0040
2072.00,0.0040
2071.00,0.0040
2070.00,0.0039
2069.00,0.0039
2068.00,0.0039
2067.00,0.0038
2066.00,0.0038
2065.00,0.0038
2064.00,0.0038
2063.00,0.0038
2062.00,0.0038
2061.00,0.0038
2060.00,0.0037
2059.00,0.0037
2058.00,0.0037
2057.00,0.0038
2056.00,0.0038
2055.00,0.0039
2054.00,0.0041
2053.00,0.0045
2052.00,0.0047
2051.00,0.0047
2050.00,0.0044
2049.00,0.0041
2048.00,0.0038
2047.00,0.0036
2046.00,0.0035
2045.00,0.0035
2044.00,0.0037
2043.00,0.0037
2042.00,0.0038
2041.00,0.0038
2040.00,0.0039
2039.00,0.0040
2038.00,0.0041
2037.00,0.0040
2036.00,0.0038
2035.00,0.0036
2034.00,0.0033
2033.00,0.0032
2032.00,0.0032
2031.00,0.0032
2030.00,0.0032
2029.00,0.0034
2028.00,0.0034
2027.00,0.0034
2026.00,0.0032
2025.00,0.0030
2024.00,0.0029
2023.00,0.0028
2022.00,0.0028
2021.00,0.0028
2020.00,0.0029
2019.00,0.0030
2018.00,0.0031
2017.00,0.0031
2016.00,0.0030
2015.00,0.0029
2014.00,0.0028
2013.00,0.0027
2012.00,0.0026
2011.00,0.0025
2010.00,0.0024
2009.00,0.0024
2008.00,0.0023
2007.00,0.0022
2006.00,0.0022
2005.00,0.0023
2004.00,0.0025
2003.00,0.0026
2002.00,0.0026
2001.00,0.0026
2000.00,0.0027
1999.00,0.0028
1998.00,0.0029
1997.00,0.0030
1996.00,0.0031
1995.00,0.0032
1994.00,0.0033
1993.00,0.0033
1992.00,0.0034
1991.00,0.0034
1990.00,0.0034
1989.00,0.0036
1988.00,0.0037
1987.00,0.0038
1986.00,0.0038
1985.00,0.0038
1984.00,0.0040
1983.00,0.0041
1982.00,0.0043
1981.00,0.0044
1980.00,0.0041
1979.00,0.0036
1978.00,0.0029
1977.00,0.0024
1976.00,0.0023
1975.00,0.0023
1974.00,0.0024
1973.00,0.0024
1972.00,0.0024
1971.00,0.0024
1970.00,0.0024
1969.00,0.0023
1968.00,0.0023
1967.00,0.0022
1966.00,0.0022
1965.00,0.0022
1964.00,0.0022
1963.00,0.0022
1962.00,0.0022
1961.00,0.0022
1960.00,0.0022
1959.00,0.0022
1958.00,0.0022
1957.00,0.0021
1956.00,0.0021
1955.00,0.0021
1954.00,0.0021
1953.00,0.0022
1952.00,0.0023
1951.00,0.0024
1950.00,0.0024
1949.00,0.0023
1948.00,0.0024
1947.00,0.0025
1946.00,0.0025
1945.00,0.0026
1944.00,0.0027
1943.00,0.0026
1942.00,0.0025
1941.00,0.0025
1940.00,0.0025
1939.00,0.0025
1938.00,0.0025
1937.00,0.0025
1936.00,0.0026
1935.00,0.0026
1934.00,0.0026
1933.00,0.0026
1932.00,0.0026
1931.00,0.0026
1930.00,0.0026
1929.00,0.0026
1928.00,0.0027
1927.00,0.0027
1926.00,0.0027
1925.00,0.0028
1924.00,0.0028
1923.00,0.0028
1922.00,0.0027
1921.00,0.0027
1920.00,0.0028
1919.00,0.0028
1918.00,0.0027
1917.00,0.0025
1916.00,0.0025
1915.00,0.0026
1914.00,0.0026
1913.00,0.0027
1912.00,0.0028
1911.00,0.0029
1910.00,0.0029
1909.00,0.0028
1908.00,0.0028
1907.00,0.0028
1906.00,0.0028
1905.00,0.0028
1904.00,0.0028
1903.00,0.0028
1902.00,0.0028
1901.00,0.0028
1900.00,0.0028
1899.00,0.0029
1898.00,0.0029
1897.00,0.0030
1896.00,0.0031
1895.00,0.0030
1894.00,0.0030
1893.00,0.0030
1892.00,0.0030
1891.00,0.0030
1890.00,0.0029
1889.00,0.0028
1888.00,0.0027
1887.00,0.0027
1886.00,0.0027
1885.00,0.0028
1884.00,0.0028
1883.00,0.0029
1882.00,0.0028
1881.00,0.0029
1880.00,0.0029
1879.00,0.0029
1878.00,0.0029
1877.00,0.0029
1876.00,0.0029
1875.00,0.0029
1874.00,0.0029
1873.00,0.0029
1872.00,0.0030
1871.00,0.0031
1870.00,0.0031
1869.00,0.0030
1868.00,0.0028
1867.00,0.0027
1866.00,0.0026
1865.00,0.0027
1864.00,0.0028
1863.00,0.0028
1862.00,0.0029
1861.00,0.0029
1860.00,0.0029
1859.00,0.0029
1858.00,0.0029
1857.00,0.0029
1856.00,0.0029
1855.00,0.0029
1854.00,0.0029
1853.00,0.0029
1852.00,0.0029
1851.00,0.0029
1850.00,0.0029
1849.00,0.0029
1848.00,0.0030
1847.00,0.0031
1846.00,0.0031
1845.00,0.0030
1844.00,0.0027
1843.00,0.0024
1842.00,0.0024
1841.00,0.0026
1840.00,0.0028
1839.00,0.0029
1838.00,0.0029
1837.00,0.0029
1836.00,0.0029
1835.00,0.0029
1834.00,0.0029
1833.00,0.0030
1832.00,0.0031
1831.00,0.0031
1830.00,0.0030
1829.00,0.0028
1828.00,0.0028
1827.00,0.0029
1826.00,0.0030
1825.00,0.0029
1824.00,0.0028
1823.00,0.0028
1822.00,0.0028
1821.00,0.0028
1820.00,0.0028
1819.00,0.0027
1818.00,0.0026
1817.00,0.0026
1816.00,0.0026
1815.00,0.0027
1814.00,0.0029
1813.00,0.0030
1812.00,0.0031
1811.00,0.0031
1810.00,0.0030
1809.00,0.0030
1808.00,0.0030
1807.00,0.0030
1806.00,0.0031
1805.00,0.0031
1804.00,0.0032
1803.00,0.0032
1802.00,0.0032
1801.00,0.0031
1800.00,0.0031
1799.00,0.0030
1798.00,0.0030
1797.00,0.0031
1796.00,0.0032
1795.00,0.0033
1794.00,0.0033
1793.00,0.0032
1792.00,0.0029
1791.00,0.0027
1790.00,0.0026
1789.00,0.0028
1788.00,0.0030
1787.00,0.0031
1786.00,0.0031
1785.00,0.0031
1784.00,0.0030
1783.00,0.0031
1782.00,0.0032
1781.00,0.0032
1780.00,0.0032
1779.00,0.0031
1778.00,0.0031
1777.00,0.0032
1776.00,0.0034
1775.00,0.0035
1774.00,0.0035
1773.00,0.0034
1772.00,0.0031
1771.00,0.0028
1770.00,0.0028
1769.00,0.0028
1768.00,0.0028
1767.00,0.0029
1766.00,0.0030
1765.00,0.0032
1764.00,0.0034
1763.00,0.0034
1762.00,0.0033
1761.00,0.0031
1760.00,0.0031
1759.00,0.0033
1758.00,0.0034
1757.00,0.0034
1756.00,0.0033
1755.00,0.0033
1754.00,0.0035
1753.00,0.0036
1752.00,0.0036
1751.00,0.0035
1750.00,0.0034
1749.00,0.0034
1748.00,0.0035
1747.00,0.0036
1746.00,0.0037
1745.00,0.0039
1744.00,0.0040
1743.00,0.0041
1742.00,0.0042
1741.00,0.0041
1740.00,0.0041
1739.00,0.0040
1738.00,0.0040
1737.00,0.0043
1736.00,0.0045
1735.00,0.0044
1734.00,0.0039
1733.00,0.0035
1732.00,0.0036
1731.00,0.0040
1730.00,0.0043
1729.00,0.0045
1728.00,0.0046
1727.00,0.0047
1726.00,0.0048
1725.00,0.0049
1724.00,0.0050
1723.00,0.0051
1722.00,0.0052
1721.00,0.0054
1720.00,0.0057
1719.00,0.0059
1718.00,0.0058
1717.00,0.0056
1716.00,0.0056
1715.00,0.0057
1714.00,0.0060
1713.00,0.0064
1712.00,0.0069
1711.00,0.0074
1710.00,0.0078
1709.00,0.0084
1708.00,0.0090
1707.00,0.0096
1706.00,0.0102
1705.00,0.0109
1704.00,0.0115
1703.00,0.0122
1702.00,0.0128
1701.00,0.0136
1700.00,0.0146
1699.00,0.0155
1698.00,0.0166
1697.00,0.0176
1696.00,0.0187
1695.00,0.0194
1694.00,0.0202
1693.00,0.0210
1692.00,0.0219
1691.00,0.0227
1690.00,0.0235
1689.00,0.0242
1688.00,0.0249
1687.00,0.0254
1686.00,0.0260
1685.00,0.0268
1684.00,0.0279
1683.00,0.0287
1682.00,0.0294
1681.00,0.0302
1680.00,0.0311
1679.00,0.0318
1678.00,0.0324
1677.00,0.0330
1676.00,0.0338
1675.00,0.0347
1674.00,0.0356
1673.00,0.0363
1672.00,0.0370
1671.00,0.0378
1670.00,0.0389
1669.00,0.0399
1668.00,0.0408
1667.00,0.0416
1666.00,0.0422
1665.00,0.0428
1664.00,0.0437
1663.00,0.0448
1662.00,0.0459
1661.00,0.0468
1660.00,0.0476
1659.00,0.0484
1658.00,0.0490
1657.00,0.0494
1656.00,0.0495
1655.00,0.0498
1654.00,0.0510
1653.00,0.0531
1652.00,0.0546
1651.00,0.0550
1650.00,0.0550
1649.00,0.0551
1648.00,0.0555
1647.00,0.0564
1646.00,0.0573
1645.00,0.0577
1644.00,0.0579
1643.00,0.0581
1642.00,0.0581
1641.00,0.0582
1640.00,0.0583
1639.00,0.0582
1638.00,0.0580
1637.00,0.0582
1636.00,0.0588
1635.00,0.0596
1634.00,0.0599
1633.00,0.0597
1632.00,0.0594
1631.00,0.0589
1630.00,0.0585
1629.00,0.0582
1628.00,0.0580
1627.00,0.0576
1626.00,0.0570
1625.00,0.0563
1624.00,0.0557
1623.00,0.0551
1622.00,0.0544
1621.00,0.0535
1620.00,0.0523
1619.00,0.0511
1618.00,0.0499
1617.00,0.0488
1616.00,0.0477
1615.00,0.0466
1614.00,0.0454
1613.00,0.0441
1612.00,0.0428
1611.00,0.0415
1610.00,0.0403
1609.00,0.0392
1608.00,0.0380
1607.00,0.0369
1606.00,0.0360
1605.00,0.0350
1604.00,0.0341
1603.00,0.0334
1602.00,0.0327
1601.00,0.0321
1600.00,0.0315
1599.00,0.0309
1598.00,0.0305
1597.00,0.0302
1596.00,0.0298
1595.00,0.0295
1594.00,0.0293
1593.00,0.0290
1592.00,0.0288
1591.00,0.0286
1590.00,0.0285
1589.00,0.0284
1588.00,0.0283
1587.00,0.0282
1586.00,0.0282
1585.00,0.0283
1584.00,0.0283
1583.00,0.0284
1582.00,0.0286
1581.00,0.0287
1580.00,0.0289
1579.00,0.0289
1578.00,0.0291
1577.00,0.0293
1576.00,0.0296
1575.00,0.0300
1574.00,0.0303
1573.00,0.0306
1572.00,0.0307
1571.00,0.0310
1570.00,0.0315
1569.00,0.0321
1568.00,0.0325
1567.00,0.0329
1566.00,0.0334
1565.00,0.0340
1564.00,0.0345
1563.00,0.0347
1562.00,0.0347
1561.00,0.0347
1560.00,0.0352
1559.00,0.0368
1558.00,0.0382
1557.00,0.0389
1556.00,0.0395
1555.00,0.0402
1554.00,0.0410
1553.00,0.0416
1552.00,0.0423
1551.00,0.0430
1550.00,0.0438
1549.00,0.0445
1548.00,0.0451
1547.00,0.0455
1546.00,0.0459
1545.00,0.0465
1544.00,0.0472
1543.00,0.0476
1542.00,0.0481
1541.00,0.0489
1540.00,0.0499
1539.00,0.0507
1538.00,0.0511
1537.00,0.0511
1536.00,0.0510
1535.00,0.0511
1534.00,0.0515
1533.00,0.0522
1532.00,0.0525
1531.00,0.0526
1530.00,0.0526
1529.00,0.0526
1528.00,0.0527
1527.00,0.0529
1526.00,0.0531
1525.00,0.0532
1524.00,0.0532
1523.00,0.0532
1522.00,0.0536
1521.00,0.0541
1520.00,0.0544
1519.00,0.0546
1518.00,0.0547
1517.00,0.0550
1516.00,0.0551
1515.00,0.0549
1514.00,0.0545
1513.00,0.0540
1512.00,0.0534
1511.00,0.0529
1510.00,0.0522
1509.00,0.0514
1508.00,0.0509
1507.00,0.0506
1506.00,0.0500
1505.00,0.0492
1504.00,0.0485
1503.00,0.0477
1502.00,0.0469
1501.00,0.0460
1500.00,0.0451
1499.00,0.0442
1498.00,0.0432
1497.00,0.0423
1496.00,0.0413
1495.00,0.0404
1494.00,0.0395
1493.00,0.0386
1492.00,0.0377
1491.00,0.0367
1490.00,0.0358
1489.00,0.0349
1488.00,0.0340
1487.00,0.0331
1486.00,0.0322
1485.00,0.0315
1484.00,0.0308
1483.00,0.0302
1482.00,0.0296
1481.00,0.0291
1480.00,0.0287
1479.00,0.0283
1478.00,0.0280
1477.00,0.0278
1476.00,0.0277
1475.00,0.0276
1474.00,0.0276
1473.00,0.0277
1472.00,0.0279
1471.00,0.0281
1470.00,0.0283
1469.00,0.0284
1468.00,0.0284
1467.00,0.0284
1466.00,0.0283
1465.00,0.0282
1464.00,0.0282
1463.00,0.0282
1462.00,0.0283
1461.00,0.0283
1460.00,0.0284
1459.00,0.0285
1458.00,0.0286
1457.00,0.0289
1456.00,0.0291
1455.00,0.0295
1454.00,0.0298
1453.00,0.0300
1452.00,0.0302
1451.00,0.0303
1450.00,0.0304
1449.00,0.0305
1448.00,0.0305
1447.00,0.0305
1446.00,0.0305
1445.00,0.0303
1444.00,0.0302
1443.00,0.0300
1442.00,0.0298
1441.00,0.0295
1440.00,0.0292
1439.00,0.0287
1438.00,0.0282
1437.00,0.0278
1436.00,0.0276
1435.00,0.0274
1434.00,0.0272
1433.00,0.0270
1432.00,0.0268
1431.00,0.0265
1430.00,0.0263
1429.00,0.0262
1428.00,0.0260
1427.00,0.0259
1426.00,0.0259
1425.00,0.0259
1424.00,0.0261
1423.00,0.0262
1422.00,0.0262
1421.00,0.0262
1420.00,0.0263
1419.00,0.0266
1418.00,0.0269
1417.00,0.0272
1416.00,0.0274
1415.00,0.0277
1414.00,0.0279
1413.00,0.0281
1412.00,0.0283
1411.00,0.0285
1410.00,0.0286
1409.00,0.0287
1408.00,0.0288
1407.00,0.0289
1406.00,0.0291
1405.00,0.0292
1404.00,0.0293
1403.00,0.0294
1402.00,0.0295
1401.00,0.0295
1400.00,0.0296
1399.00,0.0297
1398.00,0.0298
1397.00,0.0298
1396.00,0.0299
1395.00,0.0299
1394.00,0.0300
1393.00,0.0300
1392.00,0.0301
1391.00,0.0301
1390.00,0.0300
1389.00,0.0299
1388.00,0.0298
1387.00,0.0296
1386.00,0.0295
1385.00,0.0292
1384.00,0.0290
1383.00,0.0288
1382.00,0.0285
1381.00,0.0282
1380.00,0.0279
1379.00,0.0276
1378.00,0.0273
1377.00,0.0271
1376.00,0.0269
1375.00,0.0267
1374.00,0.0265
1373.00,0.0263
1372.00,0.0261
1371.00,0.0260
1370.00,0.0259
1369.00,0.0257
1368.00,0.0255
1367.00,0.0252
1366.00,0.0248
1365.00,0.0245
1364.00,0.0242
1363.00,0.0240
1362.00,0.0238
1361.00,0.0235
1360.00,0.0234
1359.00,0.0233
1358.00,0.0232
1357.00,0.0232
1356.00,0.0232
1355.00,0.0232
1354.00,0.0231
1353.00,0.0231
1352.00,0.0231
1351.00,0.0231
1350.00,0.0231
1349.00,0.0231
1348.00,0.0231
1347.00,0.0231
1346.00,0.0231
1345.00,0.0231
1344.00,0.0231
1343.00,0.0231
1342.00,0.0231
1341.00,0.0232
1340.00,0.0232
1339.00,0.0233
1338.00,0.0233
1337.00,0.0233
1336.00,0.0233
1335.00,0.0233
1334.00,0.0232
1333.00,0.0232
1332.00,0.0231
1331.00,0.0231
1330.00,0.0231
1329.00,0.0231
1328.00,0.0231
1327.00,0.0231
1326.00,0.0232
1325.00,0.0232
1324.00,0.0233
1323.00,0.0234
1322.00,0.0235
1321.00,0.0236
1320.00,0.0237
1319.00,0.0238
1318.00,0.0238
1317.00,0.0238
1316.00,0.0238
1315.00,0.0238
1314.00,0.0238
1313.00,0.0239
1312.00,0.0239
1311.00,0.0240
1310.00,0.0240
1309.00,0.0240
1308.00,0.0240
1307.00,0.0240
1306.00,0.0240
1305.00,0.0239
1304.00,0.0239
1303.00,0.0239
1302.00,0.0239
1301.00,0.0239
1300.00,0.0239
1299.00,0.0239
1298.00,0.0240
1297.00,0.0240
1296.00,0.0240
1295.00,0.0241
1294.00,0.0242
1293.00,0.0243
1292.00,0.0243
1291.00,0.0244
1290.00,0.0245
1289.00,0.0245
1288.00,0.0246
1287.00,0.0247
1286.00,0.0247
1285.00,0.0248
1284.00,0.0249
1283.00,0.0249
1282.00,0.0250
1281.00,0.0250
1280.00,0.0250
1279.00,0.0250
1278.00,0.0250
1277.00,0.0249
1276.00,0.0249
1275.00,0.0249
1274.00,0.0250
1273.00,0.0250
1272.00,0.0251
1271.00,0.0252
1270.00,0.0253
1269.00,0.0255
1268.00,0.0256
1267.00,0.0258
1266.00,0.0260
1265.00,0.0262
1264.00,0.0264
1263.00,0.0266
1262.00,0.0267
1261.00,0.0268
1260.00,0.0269
1259.00,0.0270
1258.00,0.0271
1257.00,0.0271
1256.00,0.0272
1255.00,0.0272
1254.00,0.0272
1253.00,0.0273
1252.00,0.0273
1251.00,0.0274
1250.00,0.0275
1249.00,0.0276
1248.00,0.0278
1247.00,0.0279
1246.00,0.0281
1245.00,0.0282
1244.00,0.0283
1243.00,0.0284
1242.00,0.0285
1241.00,0.0286
1240.00,0.0286
1239.00,0.0287
1238.00,0.0287
1237.00,0.0288
1236.00,0.0288
1235.00,0.0289
1234.00,0.0289
1233.00,0.0289
1232.00,0.0289
1231.00,0.0289
1230.00,0.0288
1229.00,0.0287
1228.00,0.0286
1227.00,0.0284
1226.00,0.0283
1225.00,0.0281
1224.00,0.0280
1223.00,0.0278
1222.00,0.0276
1221.00,0.0274
1220.00,0.0272
1219.00,0.0270
1218.00,0.0267
1217.00,0.0265
1216.00,0.0262
1215.00,0.0259
1214.00,0.0256
1213.00,0.0253
1212.00,0.0250
1211.00,0.0248
1210.00,0.0245
1209.00,0.0242
1208.00,0.0239
1207.00,0.0236
1206.00,0.0232
1205.00,0.0229
1204.00,0.0225
1203.00,0.0222
1202.00,0.0219
1201.00,0.0216
1200.00,0.0214
1199.00,0.0212
1198.00,0.0210
1197.00,0.0208
1196.00,0.0207
1195.00,0.0205
1194.00,0.0204
1193.00,0.0202
1192.00,0.0201
1191.00,0.0200
1190.00,0.0199
1189.00,0.0197
1188.00,0.0196
1187.00,0.0195
1186.00,0.0194
1185.00,0.0193
1184.00,0.0193
1183.00,0.0193
1182.00,0.0193
1181.00,0.0193
1180.00,0.0193
1179.00,0.0194
1178.00,0.0195
1177.00,0.0195
1176.00,0.0196
1175.00,0.0197
1174.00,0.0198
1173.00,0.0198
1172.00,0.0198
1171.00,0.0198
1170.00,0.0197
1169.00,0.0196
1168.00,0.0196
1167.00,0.0195
1166.00,0.0195
1165.00,0.0194
1164.00,0.0194
1163.00,0.0194
1162.00,0.0193
1161.00,0.0193
1160.00,0.0193
1159.00,0.0193
1158.00,0.0193
1157.00,0.0193
1156.00,0.0192
1155.00,0.0191
1154.00,0.0190
1153.00,0.0189
1152.00,0.0187
1151.00,0.0186
1150.00,0.0184
1149.00,0.0182
1148.00,0.0180
1147.00,0.0178
1146.00,0.0177
1145.00,0.0176
1144.00,0.0176
1143.00,0.0176
1142.00,0.0176
1141.00,0.0176
1140.00,0.0176
1139.00,0.0176
1138.00,0.0176
1137.00,0.0176
1136.00,0.0176
1135.00,0.0176
1134.00,0.0177
1133.00,0.0178
1132.00,0.0179
1131.00,0.0180
1130.00,0.0181
1129.00,0.0182
1128.00,0.0183
1127.00,0.0184
1126.00,0.0185
1125.00,0.0186
1124.00,0.0187
1123.00,0.0188
1122.00,0.0188
1121.00,0.0189
1120.00,0.0189
1119.00,0.0189
1118.00,0.0190
1117.00,0.0191
1116.00,0.0192
1115.00,0.0193
1114.00,0.0193
1113.00,0.0194
1112.00,0.0195
1111.00,0.0196
1110.00,0.0197
1109.00,0.0197
1108.00,0.0198
1107.00,0.0199
1106.00,0.0199
1105.00,0.0199
1104.00,0.0200
1103.00,0.0200
1102.00,0.0200
1101.00,0.0200
1100.00,0.0200
1099.00,0.0200
1098.00,0.0199
1097.00,0.0199
1096.00,0.0199
1095.00,0.0199
1094.00,0.0200
1093.00,0.0200
1092.00,0.0200
1091.00,0.0200
1090.00,0.0201
1089.00,0.0202
1088.00,0.0202
1087.00,0.0203
1086.00,0.0204
1085.00,0.0205
1084.00,0.0206
1083.00,0.0207
1082.00,0.0208
1081.00,0.0208
1080.00,0.0208
1079.00,0.0209
1078.00,0.0209
1077.00,0.0210
1076.00,0.0210
1075.00,0.0211
1074.00,0.0211
1073.00,0.0211
1072.00,0.0211
1071.00,0.0211
1070.00,0.0211
1069.00,0.0211
1068.00,0.0211
1067.00,0.0212
1066.00,0.0212
1065.00,0.0213
1064.00,0.0213
1063.00,0.0213
1062.00,0.0213
1061.00,0.0214
1060.00,0.0214
1059.00,0.0214
1058.00,0.0214
1057.00,0.0214
1056.00,0.0215
1055.00,0.0215
1054.00,0.0214
1053.00,0.0214
1052.00,0.0214
1051.00,0.0214
1050.00,0.0214
1049.00,0.0215
1048.00,0.0216
1047.00,0.0217
1046.00,0.0217
1045.00,0.0217
1044.00,0.0216
1043.00,0.0215
1042.00,0.0214
1041.00,0.0213
1040.00,0.0212
1039.00,0.0210
1038.00,0.0208
1037.00,0.0206
1036.00,0.0205
1035.00,0.0203
1034.00,0.0201
1033.00,0.0200
1032.00,0.0197
1031.00,0.0195
1030.00,0.0193
1029.00,0.0192
1028.00,0.0191
1027.00,0.0190
1026.00,0.0189
1025.00,0.0188
1024.00,0.0187
1023.00,0.0186
1022.00,0.0186
1021.00,0.0185
1020.00,0.0185
1019.00,0.0184
1018.00,0.0182
1017.00,0.0181
1016.00,0.0180
1015.00,0.0179
1014.00,0.0178
1013.00,0.0176
1012.00,0.0173
1011.00,0.0171
1010.00,0.0169
1009.00,0.0166
1008.00,0.0164
1007.00,0.0162
1006.00,0.0160
1005.00,0.0158
1004.00,0.0157
1003.00,0.0155
1002.00,0.0154
1001.00,0.0152
1000.00,0.0150
999.00,0.0148
998.00,0.0147
997.00,0.0146
996.00,0.0145
995.00,0.0145
994.00,0.0145
993.00,0.0144
992.00,0.0144
991.00,0.0143
990.00,0.0142
989.00,0.0142
988.00,0.0141
987.00,0.0141
986.00,0.0140
985.00,0.0139
984.00,0.0138
983.00,0.0137
982.00,0.0136
981.00,0.0136
980.00,0.0135
979.00,0.0135
978.00,0.0134
977.00,0.0133
976.00,0.0132
975.00,0.0132
974.00,0.0131
973.00,0.0130
972.00,0.0130
971.00,0.0129
970.00,0.0128
969.00,0.0127
968.00,0.0126
967.00,0.0125
966.00,0.0125
965.00,0.0125
964.00,0.0125
963.00,0.0125
962.00,0.0125
961.00,0.0125
960.00,0.0124
959.00,0.0124
958.00,0.0123
957.00,0.0122
956.00,0.0121
955.00,0.0121
954.00,0.0120
953.00,0.0120
952.00,0.0121
951.00,0.0121
950.00,0.0121
949.00,0.0122
948.00,0.0122
947.00,0.0123
946.00,0.0124
945.00,0.0125
944.00,0.0126
943.00,0.0126
942.00,0.0127
941.00,0.0129
940.00,0.0130
939.00,0.0131
938.00,0.0132
937.00,0.0134
936.00,0.0135
935.00,0.0136
934.00,0.0137
933.00,0.0138
932.00,0.0138
931.00,0.0138
930.00,0.0138
929.00,0.0138
928.00,0.0138
927.00,0.0138
926.00,0.0137
925.00,0.0137
924.00,0.0136
923.00,0.0136
922.00,0.0135
921.00,0.0135
920.00,0.0134
919.00,0.0133
918.00,0.0133
917.00,0.0132
916.00,0.0131
915.00,0.0131
914.00,0.0131
913.00,0.0130
912.00,0.0130
911.00,0.0130
910.00,0.0130
909.00,0.0131
908.00,0.0132
907.00,0.0132
906.00,0.0133
905.00,0.0133
904.00,0.0133
903.00,0.0133
902.00,0.0133
901.00,0.0133
900.00,0.0133
899.00,0.0133
898.00,0.0132
897.00,0.0131
896.00,0.0131
895.00,0.0130
894.00,0.0130
893.00,0.0129
892.00,0.0129
891.00,0.0128
890.00,0.0127
889.00,0.0126
888.00,0.0126
887.00,0.0125
886.00,0.0125
885.00,0.0126
884.00,0.0126
883.00,0.0126
882.00,0.0127
881.00,0.0127
880.00,0.0127
879.00,0.0128
878.00,0.0129
877.00,0.0129
876.00,0.0129
875.00,0.0129
874.00,0.0128
873.00,0.0128
872.00,0.0128
871.00,0.0128
870.00,0.0128
869.00,0.0128
868.00,0.0128
867.00,0.0128
866.00,0.0128
865.00,0.0129
864.00,0.0129
863.00,0.0129
862.00,0.0129
861.00,0.0130
860.00,0.0130
859.00,0.0132
858.00,0.0133
857.00,0.0134
856.00,0.0136
855.00,0.0137
854.00,0.0138
853.00,0.0138
852.00,0.0139
851.00,0.0140
850.00,0.0140
849.00,0.0141
848.00,0.0141
847.00,0.0142
846.00,0.0142
845.00,0.0142
844.00,0.0143
843.00,0.0143
842.00,0.0144
841.00,0.0145
840.00,0.0145
839.00,0.0146
838.00,0.0147
837.00,0.0148
836.00,0.0150
835.00,0.0151
834.00,0.0153
833.00,0.0154
832.00,0.0156
831.00,0.0158
830.00,0.0159
829.00,0.0160
828.00,0.0161
827.00,0.0162
826.00,0.0163
825.00,0.0165
824.00,0.0166
823.00,0.0167
822.00,0.0167
821.00,0.0168
820.00,0.0168
819.00,0.0169
818.00,0.0169
817.00,0.0170
816.00,0.0172
815.00,0.0173
814.00,0.0174
813.00,0.0175
812.00,0.0177
811.00,0.0178
810.00,0.0179
809.00,0.0180
808.00,0.0181
807.00,0.0181
806.00,0.0182
805.00,0.0183
804.00,0.0183
803.00,0.0184
802.00,0.0185
801.00,0.0186
800.00,0.0188
799.00,0.0189
798.00,0.0190
797.00,0.0191
796.00,0.0192
795.00,0.0193
794.00,0.0194
793.00,0.0195
792.00,0.0196
791.00,0.0197
790.00,0.0198
789.00,0.0199
788.00,0.0200
787.00,0.0201
786.00,0.0202
785.00,0.0203
784.00,0.0204
783.00,0.0205
782.00,0.0206
781.00,0.0207
780.00,0.0207
779.00,0.0208
778.00,0.0208
777.00,0.0209
776.00,0.0210
775.00,0.0211
774.00,0.0212
773.00,0.0213
772.00,0.0214
771.00,0.0215
770.00,0.0216
769.00,0.0217
768.00,0.0218
767.00,0.0219
766.00,0.0219
765.00,0.0220
764.00,0.0221
763.00,0.0222
762.00,0.0223
761.00,0.0225
760.00,0.0226
759.00,0.0228
758.00,0.0229
757.00,0.0231
756.00,0.0232
755.00,0.0234
754.00,0.0235
753.00,0.0237
752.00,0.0238
751.00,0.0239
750.00,0.0241
749.00,0.0242
748.00,0.0244
747.00,0.0245
746.00,0.0247
745.00,0.0249
744.00,0.0250
743.00,0.0252
742.00,0.0253
741.00,0.0254
740.00,0.0254
739.00,0.0255
738.00,0.0255
737.00,0.0256
736.00,0.0257
735.00,0.0259
734.00,0.0260
733.00,0.0262
732.00,0.0264
731.00,0.0266
730.00,0.0268
729.00,0.0271
728.00,0.0273
727.00,0.0275
726.00,0.0276
725.00,0.0278
724.00,0.0280
723.00,0.0283
722.00,0.0286
721.00,0.0289
720.00,0.0292
719.00,0.0294
718.00,0.0296
717.00,0.0298
716.00,0.0300
715.00,0.0303
714.00,0.0306
713.00,0.0309
712.00,0.0312
711.00,0.0314
710.00,0.0317
709.00,0.0320
708.00,0.0324
707.00,0.0327
706.00,0.0331
705.00,0.0333
704.00,0.0336
703.00,0.0339
702.00,0.0342
701.00,0.0344
700.00,0.0345
699.00,0.0347
698.00,0.0347
697.00,0.0348
696.00,0.0348
695.00,0.0349
694.00,0.0349
693.00,0.0350
692.00,0.0351
691.00,0.0351
690.00,0.0352
689.00,0.0353
688.00,0.0355
687.00,0.0357
686.00,0.0359
685.00,0.0360
684.00,0.0361
683.00,0.0362
682.00,0.0363
681.00,0.0365
680.00,0.0366
679.00,0.0368
678.00,0.0369
677.00,0.0370
676.00,0.0371
675.00,0.0372
674.00,0.0373
673.00,0.0374
672.00,0.0375
671.00,0.0376
670.00,0.0378
669.00,0.0384
668.00,0.0392
667.00,0.0396
666.00,0.0395
665.00,0.0392
664.00,0.0390
663.00,0.0390
662.00,0.0391
661.00,0.0392
660.00,0.0393
659.00,0.0394
658.00,0.0395
657.00,0.0396
656.00,0.0397
655.00,0.0398
654.00,0.0398
653.00,0.0399
652.00,0.0399
651.00,0.0399
650.00,0.0399
649.00,0.0400
648.00,0.0401
647.00,0.0402
646.00,0.0402
645.00,0.0403
644.00,0.0405
643.00,0.0406
642.00,0.0407
641.00,0.0408
640.00,0.0409
639.00,0.0410
638.00,0.0410
637.00,0.0410
636.00,0.0410
635.00,0.0411
634.00,0.0412
633.00,0.0413
632.00,0.0415
631.00,0.0417
630.00,0.0418
629.00,0.0419
628.00,0.0420
627.00,0.0421
626.00,0.0421
625.00,0.0422
624.00,0.0423
623.00,0.0423
622.00,0.0424
621.00,0.0425
620.00,0.0426
619.00,0.0427
618.00,0.0428
617.00,0.0429
616.00,0.0430
615.00,0.0430
614.00,0.0430
613.00,0.0431
612.00,0.0432
611.00,0.0433
610.00,0.0433
609.00,0.0432
608.00,0.0431
607.00,0.0431
606.00,0.0431
605.00,0.0432
604.00,0.0434
603.00,0.0435
602.00,0.0436
601.00,0.0437
600.00,0.0438
599.00,0.0437
598.00,0.0436
597.00,0.0436
596.00,0.0437
595.00,0.0437
594.00,0.0438
593.00,0.0439
592.00,0.0440
591.00,0.0441
590.00,0.0442
589.00,0.0442
588.00,0.0443
587.00,0.0444
586.00,0.0445
585.00,0.0445
584.00,0.0446
583.00,0.0447
582.00,0.0448
581.00,0.0450
580.00,0.0452
579.00,0.0455
578.00,0.0456
577.00,0.0456
576.00,0.0456
575.00,0.0455
574.00,0.0455
573.00,0.0455
572.00,0.0456
571.00,0.0456
570.00,0.0456
569.00,0.0456
568.00,0.0456
567.00,0.0456
566.00,0.0457
565.00,0.0458
564.00,0.0460
563.00,0.0461
562.00,0.0461
561.00,0.0462
560.00,0.0462
559.00,0.0464
558.00,0.0465
557.00,0.0467
556.00,0.0468
555.00,0.0469
554.00,0.0469
553.00,0.0470
552.00,0.0470
551.00,0.0469
550.00,0.0468
549.00,0.0466
548.00,0.0466
547.00,0.0466
546.00,0.0466
545.00,0.0466
544.00,0.0466
543.00,0.0465
542.00,0.0464
541.00,0.0464
540.00,0.0465
539.00,0.0466
538.00,0.0468
537.00,0.0469
536.00,0.0470
535.00,0.0469
534.00,0.0467
533.00,0.0464
532.00,0.0463
531.00,0.0463
530.00,0.0463
529.00,0.0462
528.00,0.0462
527.00,0.0462
526.00,0.0461
525.00,0.0460
524.00,0.0460
523.00,0.0460
522.00,0.0460
521.00,0.0458
520.00,0.0457
519.00,0.0456
518.00,0.0455
517.00,0.0455
516.00,0.0456
515.00,0.0458
514.00,0.0460
513.00,0.0460
512.00,0.0459
511.00,0.0457
510.00,0.0454
509.00,0.0453
508.00,0.0452
507.00,0.0452
506.00,0.0450
505.00,0.0447
504.00,0.0444
503.00,0.0442
502.00,0.0442
501.00,0.0443
500.00,0.0446
499.00,0.0447
498.00,0.0447
497.00,0.0446
496.00,0.0445
495.00,0.0445
494.00,0.0444
493.00,0.0443
492.00,0.0442
491.00,0.0440
490.00,0.0440
489.00,0.0440
488.00,0.0441
487.00,0.0441
486.00,0.0439
485.00,0.0437
484.00,0.0435
483.00,0.0432
482.00,0.0430
481.00,0.0429
480.00,0.0429
479.00,0.0429
478.00,0.0430
477.00,0.0430
476.00,0.0430
475.00,0.0428
474.00,0.0425
473.00,0.0423
472.00,0.0424
471.00,0.0428
470.00,0.0430
469.00,0.0432
468.00,0.0433
467.00,0.0434
466.00,0.0433
465.00,0.0432
464.00,0.0430
463.00,0.0428
462.00,0.0425
461.00,0.0421
460.00,0.0417
459.00,0.0414
458.00,0.0414
457.00,0.0417
456.00,0.0422
455.00,0.0424
454.00,0.0424
453.00,0.0423
452.00,0.0422
451.00,0.0421
450.00,0.0418
449.00,0.0414
448.00,0.0412
447.00,0.0412
446.00,0.0412
445.00,0.0414
444.00,0.0417
443.00,0.0420
442.00,0.0420
441.00,0.0420
440.00,0.0420
439.00,0.0421
438.00,0.0422
437.00,0.0423
436.00,0.0423
435.00,0.0422
434.00,0.0419
433.00,0.0415
432.00,0.0414
431.00,0.0415
430.00,0.0417
429.00,0.0421
428.00,0.0424
427.00,0.0425
426.00,0.0425
425.00,0.0424
424.00,0.0425
423.00,0.0423
422.00,0.0419
421.00,0.0416
420.00,0.0418
419.00,0.0422
418.00,0.0424
417.00,0.0422
416.00,0.0422
415.00,0.0421
414.00,0.0418
413.00,0.0414
412.00,0.0412
411.00,0.0413
410.00,0.0416
409.00,0.0421
408.00,0.0426
407.00,0.0428
406.00,0.0423
405.00,0.0417
404.00,0.0411
403.00,0.0403
402.00,0.0390
401.00,0.0380
400.00,0.0381
