Created as New Dataset,Sample 649 By YargerLab Date Tuesday, June 10 2025
cm-1,A
4000.00,0.0040
3999.00,0.0040
3998.00,0.0040
3997.00,0.0040
3996.00,0.0040
3995.00,0.0040
3994.00,0.0040
3993.00,0.0040
3992.00,0.0040
3991.00,0.0040
3990.00,0.0040
3989.00,0.0040
3988.00,0.0040
3987.00,0.0040
3986.00,0.0040
3985.00,0.0040
3984.00,0.0040
3983.00,0.0040
3982.00,0.0040
3981.00,0.0040
3980.00,0.0039
3979.00,0.0039
3978.00,0.0039
3977.00,0.0039
3976.00,0.0039
3975.00,0.0039
3974.00,0.0039
3973.00,0.0039
3972.00,0.0039
3971.00,0.0039
3970.00,0.0040
3969.00,0.0040
3968.00,0.0040
3967.00,0.0040
3966.00,0.0040
3965.00,0.0039
3964.00,0.0039
3963.00,0.0039
3962.00,0.0039
3961.00,0.0039
3960.00,0.0040
3959.00,0.0040
3958.00,0.0040
3957.00,0.0040
3956.00,0.0040
3955.00,0.0040
3954.00,0.0040
3953.00,0.0039
3952.00,0.0039
3951.00,0.0039
3950.00,0.0039
3949.00,0.0039
3948.00,0.0039
3947.00,0.0040
3946.00,0.0040
3945.00,0.0040
3944.00,0.0040
3943.00,0.0039
3942.00,0.0039
3941.00,0.0039
3940.00,0.0039
3939.00,0.0039
3938.00,0.0039
3937.00,0.0039
3936.00,0.0040
3935.00,0.0040
3934.00,0.0040
3933.00,0.0040
3932.00,0.0040
3931.00,0.0040
3930.00,0.0039
3929.00,0.0039
3928.00,0.0039
3927.00,0.0039
3926.00,0.0039
3925.00,0.0039
3924.00,0.0039
3923.00,0.0039
3922.00,0.0039
3921.00,0.0039
3920.00,0.0039
3919.00,0.0039
3918.00,0.0039
3917.00,0.0039
3916.00,0.0039
3915.00,0.0038
3914.00,0.0039
3913.00,0.0039
3912.00,0.0039
3911.00,0.0039
3910.00,0.0039
3909.00,0.0039
3908.00,0.0039
3907.00,0.0039
3906.00,0.0039
3905.00,0.0039
3904.00,0.0039
3903.00,0.0039
3902.00,0.0040
3901.00,0.0040
3900.00,0.0040
3899.00,0.0040
3898.00,0.0041
3897.00,0.0041
3896.00,0.0041
3895.00,0.0040
3894.00,0.0040
3893.00,0.0039
3892.00,0.0039
3891.00,0.0039
3890.00,0.0039
3889.00,0.0039
3888.00,0.0039
3887.00,0.0039
3886.00,0.0039
3885.00,0.0039
3884.00,0.0039
3883.00,0.0038
3882.00,0.0038
3881.00,0.0038
3880.00,0.0038
3879.00,0.0038
3878.00,0.0038
3877.00,0.0039
3876.00,0.0039
3875.00,0.0039
3874.00,0.0039
3873.00,0.0039
3872.00,0.0039
3871.00,0.0039
3870.00,0.0039
3869.00,0.0039
3868.00,0.0039
3867.00,0.0039
3866.00,0.0039
3865.00,0.0039
3864.00,0.0039
3863.00,0.0039
3862.00,0.0039
3861.00,0.0039
3860.00,0.0039
3859.00,0.0038
3858.00,0.0038
3857.00,0.0038
3856.00,0.0038
3855.00,0.0038
3854.00,0.0038
3853.00,0.0038
3852.00,0.0039
3851.00,0.0039
3850.00,0.0039
3849.00,0.0039
3848.00,0.0039
3847.00,0.0039
3846.00,0.0039
3845.00,0.0039
3844.00,0.0039
3843.00,0.0038
3842.00,0.0038
3841.00,0.0038
3840.00,0.0038
3839.00,0.0038
3838.00,0.0038
3837.00,0.0038
3836.00,0.0038
3835.00,0.0038
3834.00,0.0038
3833.00,0.0038
3832.00,0.0038
3831.00,0.0038
3830.00,0.0038
3829.00,0.0038
3828.00,0.0038
3827.00,0.0038
3826.00,0.0038
3825.00,0.0038
3824.00,0.0038
3823.00,0.0038
3822.00,0.0037
3821.00,0.0037
3820.00,0.0037
3819.00,0.0037
3818.00,0.0037
3817.00,0.0037
3816.00,0.0037
3815.00,0.0037
3814.00,0.0037
3813.00,0.0037
3812.00,0.0037
3811.00,0.0037
3810.00,0.0037
3809.00,0.0037
3808.00,0.0037
3807.00,0.0038
3806.00,0.0038
3805.00,0.0038
3804.00,0.0038
3803.00,0.0038
3802.00,0.0038
3801.00,0.0038
3800.00,0.0038
3799.00,0.0038
3798.00,0.0038
3797.00,0.0038
3796.00,0.0038
3795.00,0.0038
3794.00,0.0038
3793.00,0.0038
3792.00,0.0038
3791.00,0.0038
3790.00,0.0038
3789.00,0.0038
3788.00,0.0038
3787.00,0.0037
3786.00,0.0037
3785.00,0.0037
3784.00,0.0037
3783.00,0.0037
3782.00,0.0037
3781.00,0.0038
3780.00,0.0038
3779.00,0.0038
3778.00,0.0038
3777.00,0.0038
3776.00,0.0038
3775.00,0.0038
3774.00,0.0038
3773.00,0.0038
3772.00,0.0039
3771.00,0.0039
3770.00,0.0039
3769.00,0.0038
3768.00,0.0038
3767.00,0.0037
3766.00,0.0038
3765.00,0.0038
3764.00,0.0038
3763.00,0.0038
3762.00,0.0038
3761.00,0.0038
3760.00,0.0038
3759.00,0.0038
3758.00,0.0038
3757.00,0.0038
3756.00,0.0037
3755.00,0.0037
3754.00,0.0037
3753.00,0.0037
3752.00,0.0037
3751.00,0.0037
3750.00,0.0037
3749.00,0.0037
3748.00,0.0037
3747.00,0.0037
3746.00,0.0037
3745.00,0.0037
3744.00,0.0038
3743.00,0.0038
3742.00,0.0038
3741.00,0.0038
3740.00,0.0037
3739.00,0.0037
3738.00,0.0037
3737.00,0.0037
3736.00,0.0038
3735.00,0.0038
3734.00,0.0038
3733.00,0.0038
3732.00,0.0038
3731.00,0.0038
3730.00,0.0038
3729.00,0.0038
3728.00,0.0038
3727.00,0.0038
3726.00,0.0038
3725.00,0.0037
3724.00,0.0037
3723.00,0.0038
3722.00,0.0038
3721.00,0.0038
3720.00,0.0038
3719.00,0.0037
3718.00,0.0037
3717.00,0.0037
3716.00,0.0037
3715.00,0.0037
3714.00,0.0037
3713.00,0.0037
3712.00,0.0037
3711.00,0.0037
3710.00,0.0037
3709.00,0.0037
3708.00,0.0037
3707.00,0.0037
3706.00,0.0037
3705.00,0.0037
3704.00,0.0037
3703.00,0.0036
3702.00,0.0036
3701.00,0.0036
3700.00,0.0037
3699.00,0.0037
3698.00,0.0037
3697.00,0.0037
3696.00,0.0037
3695.00,0.0037
3694.00,0.0037
3693.00,0.0037
3692.00,0.0037
3691.00,0.0036
3690.00,0.0036
3689.00,0.0036
3688.00,0.0036
3687.00,0.0036
3686.00,0.0036
3685.00,0.0036
3684.00,0.0037
3683.00,0.0037
3682.00,0.0037
3681.00,0.0037
3680.00,0.0038
3679.00,0.0038
3678.00,0.0039
3677.00,0.0039
3676.00,0.0039
3675.00,0.0039
3674.00,0.0038
3673.00,0.0038
3672.00,0.0038
3671.00,0.0038
3670.00,0.0038
3669.00,0.0037
3668.00,0.0038
3667.00,0.0038
3666.00,0.0038
3665.00,0.0037
3664.00,0.0038
3663.00,0.0038
3662.00,0.0038
3661.00,0.0038
3660.00,0.0038
3659.00,0.0038
3658.00,0.0038
3657.00,0.0038
3656.00,0.0039
3655.00,0.0039
3654.00,0.0039
3653.00,0.0039
3652.00,0.0039
3651.00,0.0039
3650.00,0.0039
3649.00,0.0039
3648.00,0.0039
3647.00,0.0039
3646.00,0.0039
3645.00,0.0038
3644.00,0.0038
3643.00,0.0037
3642.00,0.0038
3641.00,0.0038
3640.00,0.0039
3639.00,0.0039
3638.00,0.0039
3637.00,0.0039
3636.00,0.0038
3635.00,0.0038
3634.00,0.0038
3633.00,0.0038
3632.00,0.0038
3631.00,0.0039
3630.00,0.0039
3629.00,0.0040
3628.00,0.0040
3627.00,0.0041
3626.00,0.0041
3625.00,0.0041
3624.00,0.0040
3623.00,0.0040
3622.00,0.0040
3621.00,0.0039
3620.00,0.0039
3619.00,0.0039
3618.00,0.0039
3617.00,0.0040
3616.00,0.0040
3615.00,0.0040
3614.00,0.0040
3613.00,0.0040
3612.00,0.0041
3611.00,0.0041
3610.00,0.0042
3609.00,0.0042
3608.00,0.0041
3607.00,0.0041
3606.00,0.0041
3605.00,0.0041
3604.00,0.0041
3603.00,0.0041
3602.00,0.0041
3601.00,0.0041
3600.00,0.0042
3599.00,0.0042
3598.00,0.0042
3597.00,0.0043
3596.00,0.0043
3595.00,0.0043
3594.00,0.0043
3593.00,0.0043
3592.00,0.0043
3591.00,0.0043
3590.00,0.0043
3589.00,0.0043
3588.00,0.0043
3587.00,0.0043
3586.00,0.0044
3585.00,0.0044
3584.00,0.0044
3583.00,0.0044
3582.00,0.0044
3581.00,0.0044
3580.00,0.0044
3579.00,0.0043
3578.00,0.0043
3577.00,0.0043
3576.00,0.0043
3575.00,0.0043
3574.00,0.0044
3573.00,0.0044
3572.00,0.0044
3571.00,0.0045
3570.00,0.0045
3569.00,0.0046
3568.00,0.0046
3567.00,0.0046
3566.00,0.0046
3565.00,0.0046
3564.00,0.0046
3563.00,0.0046
3562.00,0.0046
3561.00,0.0046
3560.00,0.0046
3559.00,0.0046
3558.00,0.0046
3557.00,0.0046
3556.00,0.0046
3555.00,0.0046
3554.00,0.0046
3553.00,0.0046
3552.00,0.0046
3551.00,0.0046
3550.00,0.0046
3549.00,0.0047
3548.00,0.0047
3547.00,0.0048
3546.00,0.0048
3545.00,0.0048
3544.00,0.0048
3543.00,0.0048
3542.00,0.0048
3541.00,0.0048
3540.00,0.0048
3539.00,0.0048
3538.00,0.0049
3537.00,0.0049
3536.00,0.0049
3535.00,0.0049
3534.00,0.0049
3533.00,0.0049
3532.00,0.0049
3531.00,0.0049
3530.00,0.0050
3529.00,0.0050
3528.00,0.0050
3527.00,0.0050
3526.00,0.0051
3525.00,0.0051
3524.00,0.0051
3523.00,0.0051
3522.00,0.0052
3521.00,0.0052
3520.00,0.0053
3519.00,0.0053
3518.00,0.0052
3517.00,0.0052
3516.00,0.0052
3515.00,0.0052
3514.00,0.0052
3513.00,0.0052
3512.00,0.0052
3511.00,0.0052
3510.00,0.0052
3509.00,0.0052
3508.00,0.0052
3507.00,0.0052
3506.00,0.0052
3505.00,0.0053
3504.00,0.0053
3503.00,0.0053
3502.00,0.0053
3501.00,0.0053
3500.00,0.0053
3499.00,0.0054
3498.00,0.0054
3497.00,0.0054
3496.00,0.0054
3495.00,0.0054
3494.00,0.0054
3493.00,0.0054
3492.00,0.0054
3491.00,0.0054
3490.00,0.0054
3489.00,0.0054
3488.00,0.0054
3487.00,0.0055
3486.00,0.0055
3485.00,0.0055
3484.00,0.0055
3483.00,0.0055
3482.00,0.0055
3481.00,0.0056
3480.00,0.0056
3479.00,0.0057
3478.00,0.0057
3477.00,0.0057
3476.00,0.0057
3475.00,0.0057
3474.00,0.0057
3473.00,0.0057
3472.00,0.0057
3471.00,0.0057
3470.00,0.0057
3469.00,0.0057
3468.00,0.0057
3467.00,0.0057
3466.00,0.0057
3465.00,0.0057
3464.00,0.0058
3463.00,0.0058
3462.00,0.0058
3461.00,0.0059
3460.00,0.0060
3459.00,0.0060
3458.00,0.0061
3457.00,0.0062
3456.00,0.0063
3455.00,0.0062
3454.00,0.0061
3453.00,0.0060
3452.00,0.0060
3451.00,0.0060
3450.00,0.0060
3449.00,0.0060
3448.00,0.0061
3447.00,0.0061
3446.00,0.0061
3445.00,0.0061
3444.00,0.0061
3443.00,0.0061
3442.00,0.0061
3441.00,0.0061
3440.00,0.0062
3439.00,0.0062
3438.00,0.0062
3437.00,0.0062
3436.00,0.0062
3435.00,0.0062
3434.00,0.0062
3433.00,0.0062
3432.00,0.0063
3431.00,0.0063
3430.00,0.0064
3429.00,0.0064
3428.00,0.0064
3427.00,0.0065
3426.00,0.0065
3425.00,0.0065
3424.00,0.0064
3423.00,0.0065
3422.00,0.0065
3421.00,0.0066
3420.00,0.0066
3419.00,0.0067
3418.00,0.0067
3417.00,0.0067
3416.00,0.0067
3415.00,0.0068
3414.00,0.0068
3413.00,0.0068
3412.00,0.0068
3411.00,0.0068
3410.00,0.0069
3409.00,0.0069
3408.00,0.0069
3407.00,0.0070
3406.00,0.0070
3405.00,0.0070
3404.00,0.0070
3403.00,0.0070
3402.00,0.0071
3401.00,0.0071
3400.00,0.0071
3399.00,0.0072
3398.00,0.0072
3397.00,0.0072
3396.00,0.0072
3395.00,0.0072
3394.00,0.0072
3393.00,0.0073
3392.00,0.0073
3391.00,0.0073
3390.00,0.0074
3389.00,0.0074
3388.00,0.0075
3387.00,0.0075
3386.00,0.0075
3385.00,0.0076
3384.00,0.0076
3383.00,0.0076
3382.00,0.0077
3381.00,0.0077
3380.00,0.0077
3379.00,0.0077
3378.00,0.0078
3377.00,0.0078
3376.00,0.0079
3375.00,0.0079
3374.00,0.0079
3373.00,0.0080
3372.00,0.0080
3371.00,0.0080
3370.00,0.0080
3369.00,0.0080
3368.00,0.0081
3367.00,0.0082
3366.00,0.0082
3365.00,0.0083
3364.00,0.0084
3363.00,0.0084
3362.00,0.0085
3361.00,0.0085
3360.00,0.0085
3359.00,0.0085
3358.00,0.0086
3357.00,0.0086
3356.00,0.0086
3355.00,0.0087
3354.00,0.0088
3353.00,0.0088
3352.00,0.0089
3351.00,0.0089
3350.00,0.0090
3349.00,0.0091
3348.00,0.0091
3347.00,0.0092
3346.00,0.0093
3345.00,0.0093
3344.00,0.0094
3343.00,0.0094
3342.00,0.0095
3341.00,0.0096
3340.00,0.0097
3339.00,0.0098
3338.00,0.0099
3337.00,0.0100
3336.00,0.0100
3335.00,0.0101
3334.00,0.0101
3333.00,0.0101
3332.00,0.0102
3331.00,0.0102
3330.00,0.0103
3329.00,0.0104
3328.00,0.0105
3327.00,0.0105
3326.00,0.0106
3325.00,0.0106
3324.00,0.0107
3323.00,0.0107
3322.00,0.0108
3321.00,0.0108
3320.00,0.0109
3319.00,0.0109
3318.00,0.0110
3317.00,0.0110
3316.00,0.0111
3315.00,0.0111
3314.00,0.0112
3313.00,0.0112
3312.00,0.0113
3311.00,0.0113
3310.00,0.0113
3309.00,0.0113
3308.00,0.0113
3307.00,0.0114
3306.00,0.0114
3305.00,0.0115
3304.00,0.0115
3303.00,0.0116
3302.00,0.0117
3301.00,0.0117
3300.00,0.0118
3299.00,0.0118
3298.00,0.0119
3297.00,0.0119
3296.00,0.0119
3295.00,0.0120
3294.00,0.0120
3293.00,0.0120
3292.00,0.0120
3291.00,0.0120
3290.00,0.0120
3289.00,0.0119
3288.00,0.0119
3287.00,0.0119
3286.00,0.0119
3285.00,0.0119
3284.00,0.0120
3283.00,0.0119
3282.00,0.0119
3281.00,0.0118
3280.00,0.0118
3279.00,0.0117
3278.00,0.0117
3277.00,0.0116
3276.00,0.0116
3275.00,0.0115
3274.00,0.0115
3273.00,0.0114
3272.00,0.0113
3271.00,0.0113
3270.00,0.0112
3269.00,0.0111
3268.00,0.0111
3267.00,0.0110
3266.00,0.0109
3265.00,0.0109
3264.00,0.0108
3263.00,0.0107
3262.00,0.0106
3261.00,0.0106
3260.00,0.0105
3259.00,0.0104
3258.00,0.0103
3257.00,0.0103
3256.00,0.0102
3255.00,0.0102
3254.00,0.0101
3253.00,0.0100
3252.00,0.0100
3251.00,0.0099
3250.00,0.0099
3249.00,0.0099
3248.00,0.0098
3247.00,0.0098
3246.00,0.0097
3245.00,0.0097
3244.00,0.0096
3243.00,0.0096
3242.00,0.0095
3241.00,0.0095
3240.00,0.0094
3239.00,0.0094
3238.00,0.0093
3237.00,0.0093
3236.00,0.0093
3235.00,0.0092
3234.00,0.0092
3233.00,0.0092
3232.00,0.0091
3231.00,0.0091
3230.00,0.0090
3229.00,0.0090
3228.00,0.0089
3227.00,0.0089
3226.00,0.0089
3225.00,0.0089
3224.00,0.0088
3223.00,0.0088
3222.00,0.0087
3221.00,0.0087
3220.00,0.0086
3219.00,0.0086
3218.00,0.0086
3217.00,0.0086
3216.00,0.0085
3215.00,0.0085
3214.00,0.0085
3213.00,0.0084
3212.00,0.0084
3211.00,0.0084
3210.00,0.0084
3209.00,0.0083
3208.00,0.0083
3207.00,0.0083
3206.00,0.0083
3205.00,0.0082
3204.00,0.0082
3203.00,0.0082
3202.00,0.0081
3201.00,0.0081
3200.00,0.0081
3199.00,0.0080
3198.00,0.0080
3197.00,0.0080
3196.00,0.0080
3195.00,0.0079
3194.00,0.0079
3193.00,0.0078
3192.00,0.0077
3191.00,0.0077
3190.00,0.0077
3189.00,0.0076
3188.00,0.0076
3187.00,0.0076
3186.00,0.0075
3185.00,0.0075
3184.00,0.0075
3183.00,0.0074
3182.00,0.0074
3181.00,0.0074
3180.00,0.0074
3179.00,0.0074
3178.00,0.0073
3177.00,0.0073
3176.00,0.0073
3175.00,0.0073
3174.00,0.0073
3173.00,0.0072
3172.00,0.0072
3171.00,0.0071
3170.00,0.0071
3169.00,0.0071
3168.00,0.0071
3167.00,0.0071
3166.00,0.0070
3165.00,0.0070
3164.00,0.0069
3163.00,0.0069
3162.00,0.0068
3161.00,0.0068
3160.00,0.0068
3159.00,0.0068
3158.00,0.0067
3157.00,0.0067
3156.00,0.0067
3155.00,0.0066
3154.00,0.0066
3153.00,0.0066
3152.00,0.0066
3151.00,0.0066
3150.00,0.0066
3149.00,0.0066
3148.00,0.0066
3147.00,0.0066
3146.00,0.0066
3145.00,0.0065
3144.00,0.0066
3143.00,0.0066
3142.00,0.0066
3141.00,0.0065
3140.00,0.0065
3139.00,0.0064
3138.00,0.0064
3137.00,0.0064
3136.00,0.0063
3135.00,0.0063
3134.00,0.0063
3133.00,0.0063
3132.00,0.0063
3131.00,0.0063
3130.00,0.0064
3129.00,0.0064
3128.00,0.0064
3127.00,0.0063
3126.00,0.0063
3125.00,0.0063
3124.00,0.0063
3123.00,0.0063
3122.00,0.0063
3121.00,0.0063
3120.00,0.0064
3119.00,0.0064
3118.00,0.0064
3117.00,0.0065
3116.00,0.0065
3115.00,0.0065
3114.00,0.0066
3113.00,0.0066
3112.00,0.0067
3111.00,0.0068
3110.00,0.0070
3109.00,0.0071
3108.00,0.0073
3107.00,0.0074
3106.00,0.0075
3105.00,0.0075
3104.00,0.0076
3103.00,0.0077
3102.00,0.0077
3101.00,0.0077
3100.00,0.0077
3099.00,0.0076
3098.00,0.0076
3097.00,0.0076
3096.00,0.0076
3095.00,0.0076
3094.00,0.0077
3093.00,0.0078
3092.00,0.0080
3091.00,0.0082
3090.00,0.0085
3089.00,0.0088
3088.00,0.0091
3087.00,0.0095
3086.00,0.0100
3085.00,0.0103
3084.00,0.0106
3083.00,0.0108
3082.00,0.0108
3081.00,0.0107
3080.00,0.0105
3079.00,0.0103
3078.00,0.0100
3077.00,0.0098
3076.00,0.0097
3075.00,0.0095
3074.00,0.0095
3073.00,0.0095
3072.00,0.0095
3071.00,0.0096
3070.00,0.0098
3069.00,0.0100
3068.00,0.0102
3067.00,0.0105
3066.00,0.0109
3065.00,0.0113
3064.00,0.0117
3063.00,0.0121
3062.00,0.0125
3061.00,0.0127
3060.00,0.0128
3059.00,0.0127
3058.00,0.0125
3057.00,0.0122
3056.00,0.0119
3055.00,0.0114
3054.00,0.0110
3053.00,0.0106
3052.00,0.0103
3051.00,0.0100
3050.00,0.0097
3049.00,0.0095
3048.00,0.0094
3047.00,0.0093
3046.00,0.0092
3045.00,0.0091
3044.00,0.0091
3043.00,0.0092
3042.00,0.0093
3041.00,0.0094
3040.00,0.0096
3039.00,0.0098
3038.00,0.0101
3037.00,0.0105
3036.00,0.0109
3035.00,0.0115
3034.00,0.0121
3033.00,0.0129
3032.00,0.0137
3031.00,0.0147
3030.00,0.0157
3029.00,0.0167
3028.00,0.0176
3027.00,0.0183
3026.00,0.0187
3025.00,0.0188
3024.00,0.0185
3023.00,0.0178
3022.00,0.0169
3021.00,0.0158
3020.00,0.0145
3019.00,0.0133
3018.00,0.0122
3017.00,0.0113
3016.00,0.0106
3015.00,0.0100
3014.00,0.0095
3013.00,0.0091
3012.00,0.0088
3011.00,0.0086
3010.00,0.0085
3009.00,0.0084
3008.00,0.0084
3007.00,0.0084
3006.00,0.0085
3005.00,0.0086
3004.00,0.0087
3003.00,0.0088
3002.00,0.0088
3001.00,0.0088
3000.00,0.0087
2999.00,0.0085
2998.00,0.0083
2997.00,0.0081
2996.00,0.0079
2995.00,0.0076
2994.00,0.0075
2993.00,0.0073
2992.00,0.0072
2991.00,0.0071
2990.00,0.0071
2989.00,0.0070
2988.00,0.0070
2987.00,0.0070
2986.00,0.0070
2985.00,0.0071
2984.00,0.0071
2983.00,0.0071
2982.00,0.0071
2981.00,0.0071
2980.00,0.0071
2979.00,0.0072
2978.00,0.0072
2977.00,0.0073
2976.00,0.0073
2975.00,0.0073
2974.00,0.0074
2973.00,0.0075
2972.00,0.0076
2971.00,0.0077
2970.00,0.0077
2969.00,0.0078
2968.00,0.0079
2967.00,0.0080
2966.00,0.0081
2965.00,0.0082
2964.00,0.0083
2963.00,0.0084
2962.00,0.0085
2961.00,0.0087
2960.00,0.0088
2959.00,0.0089
2958.00,0.0090
2957.00,0.0091
2956.00,0.0093
2955.00,0.0094
2954.00,0.0096
2953.00,0.0098
2952.00,0.0100
2951.00,0.0102
2950.00,0.0104
2949.00,0.0107
2948.00,0.0110
2947.00,0.0113
2946.00,0.0117
2945.00,0.0121
2944.00,0.0125
2943.00,0.0130
2942.00,0.0135
2941.00,0.0141
2940.00,0.0146
2939.00,0.0152
2938.00,0.0159
2937.00,0.0165
2936.00,0.0172
2935.00,0.0179
2934.00,0.0187
2933.00,0.0194
2932.00,0.0201
2931.00,0.0209
2930.00,0.0216
2929.00,0.0223
2928.00,0.0230
2927.00,0.0236
2926.00,0.0242
2925.00,0.0247
2924.00,0.0251
2923.00,0.0254
2922.00,0.0257
2921.00,0.0259
2920.00,0.0260
2919.00,0.0259
2918.00,0.0258
2917.00,0.0255
2916.00,0.0251
2915.00,0.0245
2914.00,0.0238
2913.00,0.0231
2912.00,0.0223
2911.00,0.0216
2910.00,0.0209
2909.00,0.0203
2908.00,0.0197
2907.00,0.0191
2906.00,0.0186
2905.00,0.0181
2904.00,0.0175
2903.00,0.0170
2902.00,0.0165
2901.00,0.0161
2900.00,0.0156
2899.00,0.0151
2898.00,0.0147
2897.00,0.0143
2896.00,0.0139
2895.00,0.0135
2894.00,0.0132
2893.00,0.0129
2892.00,0.0126
2891.00,0.0124
2890.00,0.0121
2889.00,0.0119
2888.00,0.0117
2887.00,0.0115
2886.00,0.0114
2885.00,0.0112
2884.00,0.0111
2883.00,0.0109
2882.00,0.0107
2881.00,0.0106
2880.00,0.0104
2879.00,0.0103
2878.00,0.0102
2877.00,0.0101
2876.00,0.0100
2875.00,0.0099
2874.00,0.0098
2873.00,0.0097
2872.00,0.0097
2871.00,0.0096
2870.00,0.0096
2869.00,0.0095
2868.00,0.0095
2867.00,0.0096
2866.00,0.0096
2865.00,0.0097
2864.00,0.0098
2863.00,0.0100
2862.00,0.0103
2861.00,0.0105
2860.00,0.0109
2859.00,0.0113
2858.00,0.0117
2857.00,0.0122
2856.00,0.0127
2855.00,0.0132
2854.00,0.0136
2853.00,0.0141
2852.00,0.0144
2851.00,0.0147
2850.00,0.0148
2849.00,0.0147
2848.00,0.0144
2847.00,0.0140
2846.00,0.0135
2845.00,0.0129
2844.00,0.0123
2843.00,0.0117
2842.00,0.0111
2841.00,0.0105
2840.00,0.0100
2839.00,0.0094
2838.00,0.0090
2837.00,0.0085
2836.00,0.0081
2835.00,0.0078
2834.00,0.0076
2833.00,0.0073
2832.00,0.0071
2831.00,0.0070
2830.00,0.0068
2829.00,0.0067
2828.00,0.0066
2827.00,0.0065
2826.00,0.0065
2825.00,0.0064
2824.00,0.0063
2823.00,0.0063
2822.00,0.0062
2821.00,0.0062
2820.00,0.0062
2819.00,0.0062
2818.00,0.0061
2817.00,0.0061
2816.00,0.0060
2815.00,0.0060
2814.00,0.0060
2813.00,0.0060
2812.00,0.0059
2811.00,0.0059
2810.00,0.0059
2809.00,0.0059
2808.00,0.0059
2807.00,0.0058
2806.00,0.0058
2805.00,0.0058
2804.00,0.0058
2803.00,0.0058
2802.00,0.0057
2801.00,0.0057
2800.00,0.0057
2799.00,0.0056
2798.00,0.0056
2797.00,0.0056
2796.00,0.0055
2795.00,0.0055
2794.00,0.0055
2793.00,0.0055
2792.00,0.0055
2791.00,0.0054
2790.00,0.0054
2789.00,0.0054
2788.00,0.0054
2787.00,0.0054
2786.00,0.0054
2785.00,0.0054
2784.00,0.0054
2783.00,0.0054
2782.00,0.0054
2781.00,0.0054
2780.00,0.0053
2779.00,0.0053
2778.00,0.0053
2777.00,0.0053
2776.00,0.0053
2775.00,0.0053
2774.00,0.0053
2773.00,0.0052
2772.00,0.0052
2771.00,0.0052
2770.00,0.0052
2769.00,0.0052
2768.00,0.0052
2767.00,0.0051
2766.00,0.0051
2765.00,0.0051
2764.00,0.0050
2763.00,0.0050
2762.00,0.0050
2761.00,0.0051
2760.00,0.0051
2759.00,0.0051
2758.00,0.0051
2757.00,0.0051
2756.00,0.0050
2755.00,0.0050
2754.00,0.0050
2753.00,0.0050
2752.00,0.0050
2751.00,0.0050
2750.00,0.0049
2749.00,0.0049
2748.00,0.0049
2747.00,0.0050
2746.00,0.0050
2745.00,0.0050
2744.00,0.0050
2743.00,0.0050
2742.00,0.0050
2741.00,0.0050
2740.00,0.0050
2739.00,0.0050
2738.00,0.0050
2737.00,0.0049
2736.00,0.0049
2735.00,0.0049
2734.00,0.0048
2733.00,0.0048
2732.00,0.0049
2731.00,0.0049
2730.00,0.0049
2729.00,0.0049
2728.00,0.0049
2727.00,0.0049
2726.00,0.0049
2725.00,0.0049
2724.00,0.0049
2723.00,0.0049
2722.00,0.0049
2721.00,0.0049
2720.00,0.0049
2719.00,0.0048
2718.00,0.0048
2717.00,0.0048
2716.00,0.0048
2715.00,0.0049
2714.00,0.0049
2713.00,0.0048
2712.00,0.0048
2711.00,0.0048
2710.00,0.0048
2709.00,0.0048
2708.00,0.0048
2707.00,0.0048
2706.00,0.0048
2705.00,0.0048
2704.00,0.0048
2703.00,0.0048
2702.00,0.0047
2701.00,0.0047
2700.00,0.0048
2699.00,0.0048
2698.00,0.0048
2697.00,0.0048
2696.00,0.0048
2695.00,0.0048
2694.00,0.0048
2693.00,0.0048
2692.00,0.0048
2691.00,0.0048
2690.00,0.0048
2689.00,0.0048
2688.00,0.0048
2687.00,0.0048
2686.00,0.0047
2685.00,0.0047
2684.00,0.0047
2683.00,0.0048
2682.00,0.0048
2681.00,0.0047
2680.00,0.0047
2679.00,0.0047
2678.00,0.0047
2677.00,0.0047
2676.00,0.0047
2675.00,0.0047
2674.00,0.0047
2673.00,0.0047
2672.00,0.0046
2671.00,0.0046
2670.00,0.0046
2669.00,0.0046
2668.00,0.0047
2667.00,0.0047
2666.00,0.0048
2665.00,0.0048
2664.00,0.0048
2663.00,0.0048
2662.00,0.0049
2661.00,0.0049
2660.00,0.0049
2659.00,0.0049
2658.00,0.0049
2657.00,0.0049
2656.00,0.0049
2655.00,0.0049
2654.00,0.0049
2653.00,0.0049
2652.00,0.0049
2651.00,0.0049
2650.00,0.0049
2649.00,0.0049
2648.00,0.0049
2647.00,0.0049
2646.00,0.0049
2645.00,0.0049
2644.00,0.0048
2643.00,0.0048
2642.00,0.0048
2641.00,0.0048
2640.00,0.0048
2639.00,0.0048
2638.00,0.0048
2637.00,0.0049
2636.00,0.0049
2635.00,0.0049
2634.00,0.0049
2633.00,0.0049
2632.00,0.0049
2631.00,0.0048
2630.00,0.0048
2629.00,0.0048
2628.00,0.0048
2627.00,0.0049
2626.00,0.0049
2625.00,0.0048
2624.00,0.0048
2623.00,0.0048
2622.00,0.0048
2621.00,0.0048
2620.00,0.0048
2619.00,0.0048
2618.00,0.0047
2617.00,0.0047
2616.00,0.0047
2615.00,0.0047
2614.00,0.0047
2613.00,0.0047
2612.00,0.0047
2611.00,0.0047
2610.00,0.0047
2609.00,0.0047
2608.00,0.0048
2607.00,0.0048
2606.00,0.0048
2605.00,0.0047
2604.00,0.0047
2603.00,0.0047
2602.00,0.0047
2601.00,0.0046
2600.00,0.0046
2599.00,0.0046
2598.00,0.0046
2597.00,0.0046
2596.00,0.0046
2595.00,0.0046
2594.00,0.0046
2593.00,0.0046
2592.00,0.0046
2591.00,0.0045
2590.00,0.0045
2589.00,0.0045
2588.00,0.0045
2587.00,0.0045
2586.00,0.0045
2585.00,0.0045
2584.00,0.0044
2583.00,0.0044
2582.00,0.0044
2581.00,0.0044
2580.00,0.0044
2579.00,0.0044
2578.00,0.0043
2577.00,0.0042
2576.00,0.0042
2575.00,0.0042
2574.00,0.0043
2573.00,0.0043
2572.00,0.0043
2571.00,0.0043
2570.00,0.0044
2569.00,0.0043
2568.00,0.0043
2567.00,0.0043
2566.00,0.0043
2565.00,0.0044
2564.00,0.0044
2563.00,0.0044
2562.00,0.0044
2561.00,0.0044
2560.00,0.0044
2559.00,0.0043
2558.00,0.0043
2557.00,0.0043
2556.00,0.0042
2555.00,0.0042
2554.00,0.0042
2553.00,0.0042
2552.00,0.0042
2551.00,0.0042
2550.00,0.0043
2549.00,0.0043
2548.00,0.0043
2547.00,0.0043
2546.00,0.0043
2545.00,0.0042
2544.00,0.0042
2543.00,0.0042
2542.00,0.0042
2541.00,0.0042
2540.00,0.0042
2539.00,0.0042
2538.00,0.0042
2537.00,0.0042
2536.00,0.0042
2535.00,0.0042
2534.00,0.0042
2533.00,0.0042
2532.00,0.0042
2531.00,0.0042
2530.00,0.0042
2529.00,0.0042
2528.00,0.0042
2527.00,0.0042
2526.00,0.0042
2525.00,0.0042
2524.00,0.0042
2523.00,0.0041
2522.00,0.0041
2521.00,0.0041
2520.00,0.0041
2519.00,0.0042
2518.00,0.0042
2517.00,0.0043
2516.00,0.0042
2515.00,0.0042
2514.00,0.0041
2513.00,0.0041
2512.00,0.0040
2511.00,0.0041
2510.00,0.0041
2509.00,0.0041
2508.00,0.0041
2507.00,0.0041
2506.00,0.0041
2505.00,0.0041
2504.00,0.0041
2503.00,0.0041
2502.00,0.0041
2501.00,0.0041
2500.00,0.0041
2499.00,0.0041
2498.00,0.0040
2497.00,0.0040
2496.00,0.0040
2495.00,0.0040
2494.00,0.0040
2493.00,0.0040
2492.00,0.0040
2491.00,0.0040
2490.00,0.0040
2489.00,0.0041
2488.00,0.0041
2487.00,0.0041
2486.00,0.0041
2485.00,0.0041
2484.00,0.0041
2483.00,0.0041
2482.00,0.0040
2481.00,0.0040
2480.00,0.0040
2479.00,0.0040
2478.00,0.0040
2477.00,0.0040
2476.00,0.0040
2475.00,0.0040
2474.00,0.0040
2473.00,0.0040
2472.00,0.0040
2471.00,0.0040
2470.00,0.0040
2469.00,0.0040
2468.00,0.0040
2467.00,0.0040
2466.00,0.0039
2465.00,0.0039
2464.00,0.0039
2463.00,0.0039
2462.00,0.0039
2461.00,0.0040
2460.00,0.0040
2459.00,0.0040
2458.00,0.0040
2457.00,0.0040
2456.00,0.0040
2455.00,0.0040
2454.00,0.0040
2453.00,0.0040
2452.00,0.0039
2451.00,0.0039
2450.00,0.0039
2449.00,0.0039
2448.00,0.0040
2447.00,0.0040
2446.00,0.0039
2445.00,0.0039
2444.00,0.0039
2443.00,0.0039
2442.00,0.0039
2441.00,0.0039
2440.00,0.0039
2439.00,0.0039
2438.00,0.0039
2437.00,0.0039
2436.00,0.0039
2435.00,0.0039
2434.00,0.0039
2433.00,0.0038
2432.00,0.0038
2431.00,0.0038
2430.00,0.0037
2429.00,0.0037
2428.00,0.0037
2427.00,0.0037
2426.00,0.0037
2425.00,0.0037
2424.00,0.0037
2423.00,0.0037
2422.00,0.0037
2421.00,0.0037
2420.00,0.0037
2419.00,0.0037
2418.00,0.0037
2417.00,0.0037
2416.00,0.0037
2415.00,0.0037
2414.00,0.0037
2413.00,0.0037
2412.00,0.0037
2411.00,0.0037
2410.00,0.0037
2409.00,0.0037
2408.00,0.0036
2407.00,0.0036
2406.00,0.0036
2405.00,0.0036
2404.00,0.0036
2403.00,0.0036
2402.00,0.0036
2401.00,0.0036
2400.00,0.0036
2399.00,0.0036
2398.00,0.0036
2397.00,0.0036
2396.00,0.0036
2395.00,0.0036
2394.00,0.0036
2393.00,0.0036
2392.00,0.0036
2391.00,0.0036
2390.00,0.0036
2389.00,0.0036
2388.00,0.0036
2387.00,0.0035
2386.00,0.0035
2385.00,0.0035
2384.00,0.0035
2383.00,0.0035
2382.00,0.0035
2381.00,0.0035
2380.00,0.0035
2379.00,0.0035
2378.00,0.0035
2377.00,0.0035
2376.00,0.0035
2375.00,0.0035
2374.00,0.0035
2373.00,0.0035
2372.00,0.0036
2371.00,0.0036
2370.00,0.0035
2369.00,0.0035
2368.00,0.0035
2367.00,0.0034
2366.00,0.0034
2365.00,0.0035
2364.00,0.0035
2363.00,0.0036
2362.00,0.0037
2361.00,0.0037
2360.00,0.0037
2359.00,0.0036
2358.00,0.0036
2357.00,0.0035
2356.00,0.0035
2355.00,0.0035
2354.00,0.0036
2353.00,0.0036
2352.00,0.0037
2351.00,0.0037
2350.00,0.0037
2349.00,0.0037
2348.00,0.0037
2347.00,0.0037
2346.00,0.0038
2345.00,0.0038
2344.00,0.0038
2343.00,0.0038
2342.00,0.0039
2341.00,0.0039
2340.00,0.0038
2339.00,0.0039
2338.00,0.0039
2337.00,0.0039
2336.00,0.0039
2335.00,0.0039
2334.00,0.0039
2333.00,0.0038
2332.00,0.0038
2331.00,0.0039
2330.00,0.0040
2329.00,0.0041
2328.00,0.0042
2327.00,0.0044
2326.00,0.0045
2325.00,0.0044
2324.00,0.0044
2323.00,0.0044
2322.00,0.0044
2321.00,0.0044
2320.00,0.0044
2319.00,0.0044
2318.00,0.0043
2317.00,0.0043
2316.00,0.0043
2315.00,0.0042
2314.00,0.0042
2313.00,0.0042
2312.00,0.0042
2311.00,0.0042
2310.00,0.0042
2309.00,0.0042
2308.00,0.0042
2307.00,0.0042
2306.00,0.0041
2305.00,0.0041
2304.00,0.0040
2303.00,0.0040
2302.00,0.0040
2301.00,0.0040
2300.00,0.0040
2299.00,0.0041
2298.00,0.0041
2297.00,0.0041
2296.00,0.0042
2295.00,0.0043
2294.00,0.0044
2293.00,0.0044
2292.00,0.0044
2291.00,0.0043
2290.00,0.0042
2289.00,0.0042
2288.00,0.0043
2287.00,0.0043
2286.00,0.0043
2285.00,0.0043
2284.00,0.0042
2283.00,0.0041
2282.00,0.0040
2281.00,0.0040
2280.00,0.0040
2279.00,0.0039
2278.00,0.0039
2277.00,0.0039
2276.00,0.0039
2275.00,0.0039
2274.00,0.0039
2273.00,0.0039
2272.00,0.0039
2271.00,0.0039
2270.00,0.0040
2269.00,0.0040
2268.00,0.0040
2267.00,0.0039
2266.00,0.0039
2265.00,0.0038
2264.00,0.0038
2263.00,0.0038
2262.00,0.0039
2261.00,0.0039
2260.00,0.0039
2259.00,0.0038
2258.00,0.0038
2257.00,0.0037
2256.00,0.0037
2255.00,0.0037
2254.00,0.0038
2253.00,0.0038
2252.00,0.0039
2251.00,0.0039
2250.00,0.0039
2249.00,0.0039
2248.00,0.0039
2247.00,0.0039
2246.00,0.0038
2245.00,0.0037
2244.00,0.0037
2243.00,0.0037
2242.00,0.0037
2241.00,0.0037
2240.00,0.0037
2239.00,0.0037
2238.00,0.0038
2237.00,0.0039
2236.00,0.0039
2235.00,0.0039
2234.00,0.0038
2233.00,0.0038
2232.00,0.0038
2231.00,0.0038
2230.00,0.0038
2229.00,0.0038
2228.00,0.0037
2227.00,0.0037
2226.00,0.0037
2225.00,0.0037
2224.00,0.0036
2223.00,0.0036
2222.00,0.0036
2221.00,0.0036
2220.00,0.0037
2219.00,0.0039
2218.00,0.0040
2217.00,0.0041
2216.00,0.0040
2215.00,0.0040
2214.00,0.0038
2213.00,0.0037
2212.00,0.0036
2211.00,0.0035
2210.00,0.0036
2209.00,0.0037
2208.00,0.0038
2207.00,0.0038
2206.00,0.0038
2205.00,0.0037
2204.00,0.0036
2203.00,0.0036
2202.00,0.0037
2201.00,0.0039
2200.00,0.0040
2199.00,0.0039
2198.00,0.0039
2197.00,0.0038
2196.00,0.0037
2195.00,0.0037
2194.00,0.0037
2193.00,0.0037
2192.00,0.0036
2191.00,0.0037
2190.00,0.0037
2189.00,0.0037
2188.00,0.0038
2187.00,0.0038
2186.00,0.0038
2185.00,0.0038
2184.00,0.0037
2183.00,0.0036
2182.00,0.0034
2181.00,0.0033
2180.00,0.0033
2179.00,0.0033
2178.00,0.0033
2177.00,0.0032
2176.00,0.0031
2175.00,0.0032
2174.00,0.0035
2173.00,0.0038
2172.00,0.0040
2171.00,0.0041
2170.00,0.0042
2169.00,0.0043
2168.00,0.0043
2167.00,0.0043
2166.00,0.0042
2165.00,0.0041
2164.00,0.0042
2163.00,0.0042
2162.00,0.0040
2161.00,0.0034
2160.00,0.0026
2159.00,0.0019
2158.00,0.0015
2157.00,0.0015
2156.00,0.0017
2155.00,0.0019
2154.00,0.0022
2153.00,0.0024
2152.00,0.0026
2151.00,0.0026
2150.00,0.0026
2149.00,0.0025
2148.00,0.0025
2147.00,0.0025
2146.00,0.0025
2145.00,0.0025
2144.00,0.0025
2143.00,0.0024
2142.00,0.0024
2141.00,0.0023
2140.00,0.0023
2139.00,0.0022
2138.00,0.0021
2137.00,0.0019
2136.00,0.0018
2135.00,0.0017
2134.00,0.0017
2133.00,0.0019
2132.00,0.0021
2131.00,0.0023
2130.00,0.0025
2129.00,0.0026
2128.00,0.0027
2127.00,0.0028
2126.00,0.0028
2125.00,0.0029
2124.00,0.0029
2123.00,0.0029
2122.00,0.0029
2121.00,0.0029
2120.00,0.0029
2119.00,0.0031
2118.00,0.0032
2117.00,0.0032
2116.00,0.0032
2115.00,0.0032
2114.00,0.0031
2113.00,0.0031
2112.00,0.0031
2111.00,0.0031
2110.00,0.0031
2109.00,0.0031
2108.00,0.0032
2107.00,0.0033
2106.00,0.0034
2105.00,0.0034
2104.00,0.0033
2103.00,0.0032
2102.00,0.0031
2101.00,0.0031
2100.00,0.0031
2099.00,0.0031
2098.00,0.0030
2097.00,0.0029
2096.00,0.0028
2095.00,0.0027
2094.00,0.0028
2093.00,0.0028
2092.00,0.0029
2091.00,0.0030
2090.00,0.0030
2089.00,0.0030
2088.00,0.0030
2087.00,0.0030
2086.00,0.0031
2085.00,0.0032
2084.00,0.0033
2083.00,0.0033
2082.00,0.0033
2081.00,0.0032
2080.00,0.0033
2079.00,0.0033
2078.00,0.0034
2077.00,0.0035
2076.00,0.0036
2075.00,0.0037
2074.00,0.0037
2073.00,0.0037
2072.00,0.0036
2071.00,0.0035
2070.00,0.0034
2069.00,0.0033
2068.00,0.0031
2067.00,0.0030
2066.00,0.0029
2065.00,0.0028
2064.00,0.0028
2063.00,0.0028
2062.00,0.0029
2061.00,0.0030
2060.00,0.0030
2059.00,0.0031
2058.00,0.0032
2057.00,0.0033
2056.00,0.0033
2055.00,0.0033
2054.00,0.0034
2053.00,0.0036
2052.00,0.0038
2051.00,0.0039
2050.00,0.0037
2049.00,0.0035
2048.00,0.0034
2047.00,0.0033
2046.00,0.0034
2045.00,0.0034
2044.00,0.0034
2043.00,0.0036
2042.00,0.0038
2041.00,0.0039
2040.00,0.0038
2039.00,0.0035
2038.00,0.0033
2037.00,0.0032
2036.00,0.0030
2035.00,0.0029
2034.00,0.0028
2033.00,0.0027
2032.00,0.0026
2031.00,0.0025
2030.00,0.0025
2029.00,0.0025
2028.00,0.0026
2027.00,0.0026
2026.00,0.0026
2025.00,0.0026
2024.00,0.0027
2023.00,0.0029
2022.00,0.0030
2021.00,0.0030
2020.00,0.0027
2019.00,0.0025
2018.00,0.0025
2017.00,0.0028
2016.00,0.0030
2015.00,0.0029
2014.00,0.0023
2013.00,0.0014
2012.00,0.0008
2011.00,0.0006
2010.00,0.0009
2009.00,0.0015
2008.00,0.0020
2007.00,0.0024
2006.00,0.0026
2005.00,0.0028
2004.00,0.0029
2003.00,0.0029
2002.00,0.0030
2001.00,0.0030
2000.00,0.0029
1999.00,0.0028
1998.00,0.0027
1997.00,0.0027
1996.00,0.0028
1995.00,0.0029
1994.00,0.0030
1993.00,0.0031
1992.00,0.0032
1991.00,0.0033
1990.00,0.0033
1989.00,0.0034
1988.00,0.0036
1987.00,0.0039
1986.00,0.0040
1985.00,0.0041
1984.00,0.0040
1983.00,0.0041
1982.00,0.0044
1981.00,0.0048
1980.00,0.0049
1979.00,0.0045
1978.00,0.0037
1977.00,0.0030
1976.00,0.0026
1975.00,0.0025
1974.00,0.0026
1973.00,0.0027
1972.00,0.0029
1971.00,0.0031
1970.00,0.0033
1969.00,0.0034
1968.00,0.0034
1967.00,0.0033
1966.00,0.0033
1965.00,0.0033
1964.00,0.0034
1963.00,0.0035
1962.00,0.0035
1961.00,0.0034
1960.00,0.0033
1959.00,0.0033
1958.00,0.0033
1957.00,0.0034
1956.00,0.0035
1955.00,0.0036
1954.00,0.0036
1953.00,0.0036
1952.00,0.0037
1951.00,0.0038
1950.00,0.0040
1949.00,0.0042
1948.00,0.0043
1947.00,0.0044
1946.00,0.0043
1945.00,0.0043
1944.00,0.0044
1943.00,0.0045
1942.00,0.0046
1941.00,0.0046
1940.00,0.0045
1939.00,0.0043
1938.00,0.0041
1937.00,0.0039
1936.00,0.0039
1935.00,0.0038
1934.00,0.0037
1933.00,0.0035
1932.00,0.0034
1931.00,0.0033
1930.00,0.0032
1929.00,0.0032
1928.00,0.0032
1927.00,0.0031
1926.00,0.0031
1925.00,0.0030
1924.00,0.0029
1923.00,0.0029
1922.00,0.0029
1921.00,0.0030
1920.00,0.0030
1919.00,0.0030
1918.00,0.0029
1917.00,0.0029
1916.00,0.0028
1915.00,0.0028
1914.00,0.0028
1913.00,0.0028
1912.00,0.0029
1911.00,0.0029
1910.00,0.0029
1909.00,0.0029
1908.00,0.0029
1907.00,0.0029
1906.00,0.0029
1905.00,0.0028
1904.00,0.0028
1903.00,0.0028
1902.00,0.0028
1901.00,0.0028
1900.00,0.0028
1899.00,0.0028
1898.00,0.0029
1897.00,0.0030
1896.00,0.0031
1895.00,0.0032
1894.00,0.0033
1893.00,0.0034
1892.00,0.0035
1891.00,0.0035
1890.00,0.0036
1889.00,0.0037
1888.00,0.0037
1887.00,0.0038
1886.00,0.0039
1885.00,0.0039
1884.00,0.0039
1883.00,0.0039
1882.00,0.0039
1881.00,0.0039
1880.00,0.0040
1879.00,0.0040
1878.00,0.0040
1877.00,0.0040
1876.00,0.0040
1875.00,0.0040
1874.00,0.0040
1873.00,0.0040
1872.00,0.0041
1871.00,0.0041
1870.00,0.0041
1869.00,0.0041
1868.00,0.0041
1867.00,0.0041
1866.00,0.0041
1865.00,0.0040
1864.00,0.0039
1863.00,0.0037
1862.00,0.0036
1861.00,0.0035
1860.00,0.0035
1859.00,0.0034
1858.00,0.0033
1857.00,0.0032
1856.00,0.0032
1855.00,0.0032
1854.00,0.0032
1853.00,0.0032
1852.00,0.0031
1851.00,0.0030
1850.00,0.0029
1849.00,0.0029
1848.00,0.0029
1847.00,0.0029
1846.00,0.0030
1845.00,0.0030
1844.00,0.0030
1843.00,0.0029
1842.00,0.0029
1841.00,0.0028
1840.00,0.0027
1839.00,0.0027
1838.00,0.0027
1837.00,0.0027
1836.00,0.0027
1835.00,0.0027
1834.00,0.0028
1833.00,0.0028
1832.00,0.0028
1831.00,0.0028
1830.00,0.0029
1829.00,0.0030
1828.00,0.0030
1827.00,0.0031
1826.00,0.0031
1825.00,0.0031
1824.00,0.0032
1823.00,0.0032
1822.00,0.0032
1821.00,0.0031
1820.00,0.0031
1819.00,0.0032
1818.00,0.0032
1817.00,0.0033
1816.00,0.0034
1815.00,0.0035
1814.00,0.0036
1813.00,0.0037
1812.00,0.0037
1811.00,0.0038
1810.00,0.0038
1809.00,0.0039
1808.00,0.0040
1807.00,0.0040
1806.00,0.0041
1805.00,0.0041
1804.00,0.0042
1803.00,0.0042
1802.00,0.0042
1801.00,0.0043
1800.00,0.0042
1799.00,0.0042
1798.00,0.0041
1797.00,0.0040
1796.00,0.0040
1795.00,0.0039
1794.00,0.0038
1793.00,0.0038
1792.00,0.0038
1791.00,0.0037
1790.00,0.0035
1789.00,0.0034
1788.00,0.0033
1787.00,0.0032
1786.00,0.0031
1785.00,0.0031
1784.00,0.0031
1783.00,0.0031
1782.00,0.0031
1781.00,0.0030
1780.00,0.0030
1779.00,0.0030
1778.00,0.0030
1777.00,0.0030
1776.00,0.0031
1775.00,0.0031
1774.00,0.0031
1773.00,0.0031
1772.00,0.0032
1771.00,0.0032
1770.00,0.0031
1769.00,0.0030
1768.00,0.0030
1767.00,0.0029
1766.00,0.0029
1765.00,0.0029
1764.00,0.0029
1763.00,0.0029
1762.00,0.0028
1761.00,0.0028
1760.00,0.0028
1759.00,0.0028
1758.00,0.0028
1757.00,0.0028
1756.00,0.0029
1755.00,0.0030
1754.00,0.0030
1753.00,0.0030
1752.00,0.0031
1751.00,0.0031
1750.00,0.0031
1749.00,0.0031
1748.00,0.0031
1747.00,0.0031
1746.00,0.0031
1745.00,0.0031
1744.00,0.0032
1743.00,0.0032
1742.00,0.0032
1741.00,0.0033
1740.00,0.0033
1739.00,0.0034
1738.00,0.0034
1737.00,0.0034
1736.00,0.0034
1735.00,0.0035
1734.00,0.0035
1733.00,0.0035
1732.00,0.0035
1731.00,0.0034
1730.00,0.0033
1729.00,0.0033
1728.00,0.0032
1727.00,0.0032
1726.00,0.0032
1725.00,0.0032
1724.00,0.0033
1723.00,0.0034
1722.00,0.0034
1721.00,0.0036
1720.00,0.0037
1719.00,0.0037
1718.00,0.0038
1717.00,0.0039
1716.00,0.0041
1715.00,0.0042
1714.00,0.0043
1713.00,0.0044
1712.00,0.0045
1711.00,0.0047
1710.00,0.0049
1709.00,0.0052
1708.00,0.0056
1707.00,0.0060
1706.00,0.0064
1705.00,0.0069
1704.00,0.0073
1703.00,0.0078
1702.00,0.0082
1701.00,0.0087
1700.00,0.0093
1699.00,0.0097
1698.00,0.0099
1697.00,0.0099
1696.00,0.0101
1695.00,0.0105
1694.00,0.0108
1693.00,0.0111
1692.00,0.0114
1691.00,0.0117
1690.00,0.0120
1689.00,0.0124
1688.00,0.0127
1687.00,0.0130
1686.00,0.0132
1685.00,0.0135
1684.00,0.0140
1683.00,0.0144
1682.00,0.0147
1681.00,0.0149
1680.00,0.0151
1679.00,0.0154
1678.00,0.0157
1677.00,0.0159
1676.00,0.0162
1675.00,0.0164
1674.00,0.0166
1673.00,0.0167
1672.00,0.0169
1671.00,0.0170
1670.00,0.0172
1669.00,0.0175
1668.00,0.0177
1667.00,0.0179
1666.00,0.0180
1665.00,0.0182
1664.00,0.0184
1663.00,0.0186
1662.00,0.0189
1661.00,0.0191
1660.00,0.0193
1659.00,0.0195
1658.00,0.0196
1657.00,0.0199
1656.00,0.0201
1655.00,0.0202
1654.00,0.0204
1653.00,0.0206
1652.00,0.0209
1651.00,0.0210
1650.00,0.0211
1649.00,0.0211
1648.00,0.0211
1647.00,0.0211
1646.00,0.0211
1645.00,0.0210
1644.00,0.0209
1643.00,0.0208
1642.00,0.0207
1641.00,0.0206
1640.00,0.0206
1639.00,0.0206
1638.00,0.0206
1637.00,0.0206
1636.00,0.0206
1635.00,0.0206
1634.00,0.0206
1633.00,0.0204
1632.00,0.0202
1631.00,0.0200
1630.00,0.0198
1629.00,0.0196
1628.00,0.0194
1627.00,0.0192
1626.00,0.0190
1625.00,0.0187
1624.00,0.0182
1623.00,0.0178
1622.00,0.0172
1621.00,0.0168
1620.00,0.0163
1619.00,0.0159
1618.00,0.0155
1617.00,0.0151
1616.00,0.0148
1615.00,0.0145
1614.00,0.0143
1613.00,0.0140
1612.00,0.0139
1611.00,0.0139
1610.00,0.0140
1609.00,0.0144
1608.00,0.0151
1607.00,0.0160
1606.00,0.0172
1605.00,0.0186
1604.00,0.0200
1603.00,0.0213
1602.00,0.0221
1601.00,0.0222
1600.00,0.0217
1599.00,0.0206
1598.00,0.0190
1597.00,0.0174
1596.00,0.0159
1595.00,0.0146
1594.00,0.0136
1593.00,0.0128
1592.00,0.0122
1591.00,0.0116
1590.00,0.0113
1589.00,0.0111
1588.00,0.0112
1587.00,0.0114
1586.00,0.0119
1585.00,0.0124
1584.00,0.0129
1583.00,0.0131
1582.00,0.0129
1581.00,0.0125
1580.00,0.0119
1579.00,0.0114
1578.00,0.0110
1577.00,0.0107
1576.00,0.0105
1575.00,0.0105
1574.00,0.0105
1573.00,0.0104
1572.00,0.0104
1571.00,0.0105
1570.00,0.0106
1569.00,0.0108
1568.00,0.0109
1567.00,0.0110
1566.00,0.0110
1565.00,0.0112
1564.00,0.0113
1563.00,0.0115
1562.00,0.0117
1561.00,0.0120
1560.00,0.0124
1559.00,0.0130
1558.00,0.0135
1557.00,0.0137
1556.00,0.0137
1555.00,0.0137
1554.00,0.0139
1553.00,0.0141
1552.00,0.0144
1551.00,0.0146
1550.00,0.0149
1549.00,0.0152
1548.00,0.0155
1547.00,0.0158
1546.00,0.0161
1545.00,0.0164
1544.00,0.0167
1543.00,0.0170
1542.00,0.0173
1541.00,0.0175
1540.00,0.0177
1539.00,0.0178
1538.00,0.0179
1537.00,0.0179
1536.00,0.0180
1535.00,0.0181
1534.00,0.0182
1533.00,0.0185
1532.00,0.0186
1531.00,0.0187
1530.00,0.0188
1529.00,0.0188
1528.00,0.0188
1527.00,0.0188
1526.00,0.0188
1525.00,0.0188
1524.00,0.0189
1523.00,0.0189
1522.00,0.0189
1521.00,0.0190
1520.00,0.0192
1519.00,0.0193
1518.00,0.0194
1517.00,0.0194
1516.00,0.0194
1515.00,0.0194
1514.00,0.0193
1513.00,0.0191
1512.00,0.0189
1511.00,0.0188
1510.00,0.0186
1509.00,0.0185
1508.00,0.0183
1507.00,0.0182
1506.00,0.0183
1505.00,0.0183
1504.00,0.0183
1503.00,0.0183
1502.00,0.0186
1501.00,0.0191
1500.00,0.0200
1499.00,0.0216
1498.00,0.0242
1497.00,0.0283
1496.00,0.0338
1495.00,0.0396
1494.00,0.0446
1493.00,0.0474
1492.00,0.0473
1491.00,0.0441
1490.00,0.0386
1489.00,0.0327
1488.00,0.0277
1487.00,0.0239
1486.00,0.0211
1485.00,0.0189
1484.00,0.0172
1483.00,0.0158
1482.00,0.0146
1481.00,0.0137
1480.00,0.0131
1479.00,0.0127
1478.00,0.0123
1477.00,0.0121
1476.00,0.0119
1475.00,0.0118
1474.00,0.0117
1473.00,0.0117
1472.00,0.0118
1471.00,0.0118
1470.00,0.0118
1469.00,0.0118
1468.00,0.0118
1467.00,0.0119
1466.00,0.0120
1465.00,0.0122
1464.00,0.0125
1463.00,0.0128
1462.00,0.0132
1461.00,0.0137
1460.00,0.0146
1459.00,0.0159
1458.00,0.0184
1457.00,0.0228
1456.00,0.0285
1455.00,0.0341
1454.00,0.0391
1453.00,0.0429
1452.00,0.0449
1451.00,0.0448
1450.00,0.0430
1449.00,0.0403
1448.00,0.0374
1447.00,0.0349
1446.00,0.0327
1445.00,0.0308
1444.00,0.0290
1443.00,0.0272
1442.00,0.0256
1441.00,0.0241
1440.00,0.0229
1439.00,0.0218
1438.00,0.0206
1437.00,0.0194
1436.00,0.0180
1435.00,0.0169
1434.00,0.0159
1433.00,0.0151
1432.00,0.0144
1431.00,0.0136
1430.00,0.0130
1429.00,0.0124
1428.00,0.0119
1427.00,0.0115
1426.00,0.0112
1425.00,0.0110
1424.00,0.0108
1423.00,0.0107
1422.00,0.0106
1421.00,0.0105
1420.00,0.0105
1419.00,0.0105
1418.00,0.0105
1417.00,0.0104
1416.00,0.0103
1415.00,0.0101
1414.00,0.0101
1413.00,0.0100
1412.00,0.0100
1411.00,0.0100
1410.00,0.0100
1409.00,0.0100
1408.00,0.0099
1407.00,0.0099
1406.00,0.0099
1405.00,0.0098
1404.00,0.0098
1403.00,0.0098
1402.00,0.0098
1401.00,0.0098
1400.00,0.0098
1399.00,0.0098
1398.00,0.0098
1397.00,0.0099
1396.00,0.0100
1395.00,0.0101
1394.00,0.0102
1393.00,0.0104
1392.00,0.0106
1391.00,0.0108
1390.00,0.0110
1389.00,0.0112
1388.00,0.0115
1387.00,0.0118
1386.00,0.0121
1385.00,0.0124
1384.00,0.0127
1383.00,0.0129
1382.00,0.0131
1381.00,0.0134
1380.00,0.0136
1379.00,0.0139
1378.00,0.0141
1377.00,0.0144
1376.00,0.0146
1375.00,0.0148
1374.00,0.0149
1373.00,0.0149
1372.00,0.0149
1371.00,0.0148
1370.00,0.0148
1369.00,0.0147
1368.00,0.0145
1367.00,0.0144
1366.00,0.0144
1365.00,0.0143
1364.00,0.0142
1363.00,0.0141
1362.00,0.0139
1361.00,0.0138
1360.00,0.0136
1359.00,0.0135
1358.00,0.0134
1357.00,0.0133
1356.00,0.0132
1355.00,0.0132
1354.00,0.0132
1353.00,0.0134
1352.00,0.0135
1351.00,0.0136
1350.00,0.0137
1349.00,0.0137
1348.00,0.0136
1347.00,0.0134
1346.00,0.0132
1345.00,0.0130
1344.00,0.0128
1343.00,0.0127
1342.00,0.0126
1341.00,0.0124
1340.00,0.0123
1339.00,0.0122
1338.00,0.0122
1337.00,0.0122
1336.00,0.0123
1335.00,0.0124
1334.00,0.0125
1333.00,0.0126
1332.00,0.0127
1331.00,0.0128
1330.00,0.0128
1329.00,0.0128
1328.00,0.0128
1327.00,0.0127
1326.00,0.0126
1325.00,0.0125
1324.00,0.0124
1323.00,0.0123
1322.00,0.0123
1321.00,0.0123
1320.00,0.0123
1319.00,0.0124
1318.00,0.0125
1317.00,0.0126
1316.00,0.0127
1315.00,0.0128
1314.00,0.0129
1313.00,0.0130
1312.00,0.0130
1311.00,0.0130
1310.00,0.0129
1309.00,0.0128
1308.00,0.0127
1307.00,0.0125
1306.00,0.0124
1305.00,0.0122
1304.00,0.0121
1303.00,0.0119
1302.00,0.0117
1301.00,0.0115
1300.00,0.0113
1299.00,0.0112
1298.00,0.0111
1297.00,0.0111
1296.00,0.0110
1295.00,0.0110
1294.00,0.0110
1293.00,0.0109
1292.00,0.0109
1291.00,0.0109
1290.00,0.0108
1289.00,0.0107
1288.00,0.0107
1287.00,0.0106
1286.00,0.0106
1285.00,0.0106
1284.00,0.0106
1283.00,0.0106
1282.00,0.0106
1281.00,0.0106
1280.00,0.0106
1279.00,0.0106
1278.00,0.0106
1277.00,0.0105
1276.00,0.0105
1275.00,0.0104
1274.00,0.0104
1273.00,0.0103
1272.00,0.0103
1271.00,0.0103
1270.00,0.0103
1269.00,0.0103
1268.00,0.0102
1267.00,0.0102
1266.00,0.0102
1265.00,0.0102
1264.00,0.0102
1263.00,0.0102
1262.00,0.0102
1261.00,0.0102
1260.00,0.0102
1259.00,0.0101
1258.00,0.0100
1257.00,0.0100
1256.00,0.0100
1255.00,0.0100
1254.00,0.0100
1253.00,0.0101
1252.00,0.0102
1251.00,0.0102
1250.00,0.0102
1249.00,0.0103
1248.00,0.0103
1247.00,0.0104
1246.00,0.0104
1245.00,0.0105
1244.00,0.0105
1243.00,0.0106
1242.00,0.0106
1241.00,0.0107
1240.00,0.0108
1239.00,0.0109
1238.00,0.0109
1237.00,0.0110
1236.00,0.0111
1235.00,0.0112
1234.00,0.0114
1233.00,0.0116
1232.00,0.0118
1231.00,0.0120
1230.00,0.0122
1229.00,0.0123
1228.00,0.0124
1227.00,0.0124
1226.00,0.0124
1225.00,0.0123
1224.00,0.0121
1223.00,0.0120
1222.00,0.0118
1221.00,0.0116
1220.00,0.0114
1219.00,0.0113
1218.00,0.0112
1217.00,0.0110
1216.00,0.0109
1215.00,0.0108
1214.00,0.0107
1213.00,0.0106
1212.00,0.0105
1211.00,0.0105
1210.00,0.0105
1209.00,0.0105
1208.00,0.0105
1207.00,0.0105
1206.00,0.0105
1205.00,0.0105
1204.00,0.0105
1203.00,0.0106
1202.00,0.0106
1201.00,0.0107
1200.00,0.0108
1199.00,0.0108
1198.00,0.0109
1197.00,0.0109
1196.00,0.0109
1195.00,0.0109
1194.00,0.0110
1193.00,0.0110
1192.00,0.0110
1191.00,0.0110
1190.00,0.0111
1189.00,0.0111
1188.00,0.0112
1187.00,0.0114
1186.00,0.0116
1185.00,0.0120
1184.00,0.0123
1183.00,0.0127
1182.00,0.0129
1181.00,0.0130
1180.00,0.0128
1179.00,0.0124
1178.00,0.0119
1177.00,0.0114
1176.00,0.0109
1175.00,0.0105
1174.00,0.0102
1173.00,0.0100
1172.00,0.0098
1171.00,0.0097
1170.00,0.0096
1169.00,0.0095
1168.00,0.0095
1167.00,0.0095
1166.00,0.0095
1165.00,0.0096
1164.00,0.0097
1163.00,0.0098
1162.00,0.0100
1161.00,0.0102
1160.00,0.0106
1159.00,0.0111
1158.00,0.0117
1157.00,0.0123
1156.00,0.0127
1155.00,0.0130
1154.00,0.0131
1153.00,0.0128
1152.00,0.0123
1151.00,0.0116
1150.00,0.0108
1149.00,0.0101
1148.00,0.0095
1147.00,0.0090
1146.00,0.0086
1145.00,0.0083
1144.00,0.0081
1143.00,0.0079
1142.00,0.0077
1141.00,0.0076
1140.00,0.0075
1139.00,0.0073
1138.00,0.0072
1137.00,0.0072
1136.00,0.0071
1135.00,0.0071
1134.00,0.0071
1133.00,0.0071
1132.00,0.0071
1131.00,0.0071
1130.00,0.0072
1129.00,0.0073
1128.00,0.0073
1127.00,0.0075
1126.00,0.0076
1125.00,0.0078
1124.00,0.0080
1123.00,0.0082
1122.00,0.0084
1121.00,0.0085
1120.00,0.0086
1119.00,0.0087
1118.00,0.0088
1117.00,0.0088
1116.00,0.0089
1115.00,0.0090
1114.00,0.0090
1113.00,0.0090
1112.00,0.0090
1111.00,0.0090
1110.00,0.0090
1109.00,0.0089
1108.00,0.0089
1107.00,0.0089
1106.00,0.0090
1105.00,0.0091
1104.00,0.0092
1103.00,0.0093
1102.00,0.0094
1101.00,0.0094
1100.00,0.0094
1099.00,0.0093
1098.00,0.0093
1097.00,0.0094
1096.00,0.0094
1095.00,0.0095
1094.00,0.0095
1093.00,0.0096
1092.00,0.0096
1091.00,0.0096
1090.00,0.0097
1089.00,0.0099
1088.00,0.0101
1087.00,0.0103
1086.00,0.0106
1085.00,0.0108
1084.00,0.0110
1083.00,0.0113
1082.00,0.0116
1081.00,0.0118
1080.00,0.0121
1079.00,0.0124
1078.00,0.0127
1077.00,0.0131
1076.00,0.0135
1075.00,0.0140
1074.00,0.0146
1073.00,0.0151
1072.00,0.0156
1071.00,0.0159
1070.00,0.0161
1069.00,0.0162
1068.00,0.0161
1067.00,0.0160
1066.00,0.0158
1065.00,0.0154
1064.00,0.0150
1063.00,0.0145
1062.00,0.0140
1061.00,0.0136
1060.00,0.0132
1059.00,0.0129
1058.00,0.0126
1057.00,0.0124
1056.00,0.0121
1055.00,0.0119
1054.00,0.0117
1053.00,0.0115
1052.00,0.0113
1051.00,0.0111
1050.00,0.0109
1049.00,0.0106
1048.00,0.0104
1047.00,0.0103
1046.00,0.0102
1045.00,0.0101
1044.00,0.0100
1043.00,0.0100
1042.00,0.0101
1041.00,0.0101
1040.00,0.0102
1039.00,0.0104
1038.00,0.0109
1037.00,0.0117
1036.00,0.0128
1035.00,0.0142
1034.00,0.0160
1033.00,0.0179
1032.00,0.0199
1031.00,0.0218
1030.00,0.0234
1029.00,0.0245
1028.00,0.0250
1027.00,0.0248
1026.00,0.0239
1025.00,0.0225
1024.00,0.0211
1023.00,0.0197
1022.00,0.0186
1021.00,0.0176
1020.00,0.0168
1019.00,0.0160
1018.00,0.0153
1017.00,0.0147
1016.00,0.0141
1015.00,0.0137
1014.00,0.0133
1013.00,0.0130
1012.00,0.0128
1011.00,0.0126
1010.00,0.0125
1009.00,0.0125
1008.00,0.0124
1007.00,0.0125
1006.00,0.0127
1005.00,0.0129
1004.00,0.0131
1003.00,0.0130
1002.00,0.0128
1001.00,0.0123
1000.00,0.0118
999.00,0.0113
998.00,0.0108
997.00,0.0105
996.00,0.0102
995.00,0.0100
994.00,0.0099
993.00,0.0099
992.00,0.0099
991.00,0.0099
990.00,0.0099
989.00,0.0100
988.00,0.0102
987.00,0.0104
986.00,0.0106
985.00,0.0109
984.00,0.0111
983.00,0.0113
982.00,0.0115
981.00,0.0117
980.00,0.0117
979.00,0.0117
978.00,0.0116
977.00,0.0114
976.00,0.0112
975.00,0.0109
974.00,0.0108
973.00,0.0107
972.00,0.0107
971.00,0.0108
970.00,0.0111
969.00,0.0113
968.00,0.0116
967.00,0.0119
966.00,0.0120
965.00,0.0122
964.00,0.0122
963.00,0.0121
962.00,0.0119
961.00,0.0115
960.00,0.0111
959.00,0.0107
958.00,0.0103
957.00,0.0100
956.00,0.0098
955.00,0.0096
954.00,0.0095
953.00,0.0094
952.00,0.0094
951.00,0.0094
950.00,0.0094
949.00,0.0095
948.00,0.0096
947.00,0.0097
946.00,0.0098
945.00,0.0099
944.00,0.0100
943.00,0.0100
942.00,0.0100
941.00,0.0099
940.00,0.0098
939.00,0.0096
938.00,0.0094
937.00,0.0092
936.00,0.0090
935.00,0.0087
934.00,0.0084
933.00,0.0082
932.00,0.0080
931.00,0.0079
930.00,0.0078
929.00,0.0077
928.00,0.0076
927.00,0.0076
926.00,0.0077
925.00,0.0078
924.00,0.0079
923.00,0.0080
922.00,0.0081
921.00,0.0083
920.00,0.0085
919.00,0.0088
918.00,0.0092
917.00,0.0096
916.00,0.0101
915.00,0.0108
914.00,0.0115
913.00,0.0124
912.00,0.0134
911.00,0.0144
910.00,0.0153
909.00,0.0162
908.00,0.0168
907.00,0.0172
906.00,0.0173
905.00,0.0171
904.00,0.0166
903.00,0.0157
902.00,0.0147
901.00,0.0135
900.00,0.0123
899.00,0.0112
898.00,0.0103
897.00,0.0095
896.00,0.0089
895.00,0.0084
894.00,0.0079
893.00,0.0076
892.00,0.0073
891.00,0.0071
890.00,0.0069
889.00,0.0068
888.00,0.0067
887.00,0.0066
886.00,0.0065
885.00,0.0064
884.00,0.0063
883.00,0.0062
882.00,0.0061
881.00,0.0061
880.00,0.0060
879.00,0.0059
878.00,0.0058
877.00,0.0058
876.00,0.0058
875.00,0.0057
874.00,0.0057
873.00,0.0056
872.00,0.0055
871.00,0.0054
870.00,0.0054
869.00,0.0054
868.00,0.0054
867.00,0.0054
866.00,0.0054
865.00,0.0054
864.00,0.0054
863.00,0.0054
862.00,0.0054
861.00,0.0055
860.00,0.0056
859.00,0.0057
858.00,0.0057
857.00,0.0058
856.00,0.0058
855.00,0.0060
854.00,0.0061
853.00,0.0063
852.00,0.0065
851.00,0.0067
850.00,0.0069
849.00,0.0072
848.00,0.0076
847.00,0.0082
846.00,0.0087
845.00,0.0091
844.00,0.0095
843.00,0.0097
842.00,0.0098
841.00,0.0098
840.00,0.0097
839.00,0.0094
838.00,0.0091
837.00,0.0087
836.00,0.0083
835.00,0.0079
834.00,0.0076
833.00,0.0072
832.00,0.0070
831.00,0.0067
830.00,0.0066
829.00,0.0065
828.00,0.0064
827.00,0.0063
826.00,0.0063
825.00,0.0063
824.00,0.0062
823.00,0.0061
822.00,0.0061
821.00,0.0060
820.00,0.0059
819.00,0.0058
818.00,0.0058
817.00,0.0058
816.00,0.0059
815.00,0.0060
814.00,0.0060
813.00,0.0061
812.00,0.0061
811.00,0.0061
810.00,0.0062
809.00,0.0062
808.00,0.0063
807.00,0.0063
806.00,0.0063
805.00,0.0064
804.00,0.0064
803.00,0.0065
802.00,0.0067
801.00,0.0068
800.00,0.0069
799.00,0.0071
798.00,0.0073
797.00,0.0077
796.00,0.0080
795.00,0.0084
794.00,0.0086
793.00,0.0089
792.00,0.0091
791.00,0.0094
790.00,0.0098
789.00,0.0102
788.00,0.0106
787.00,0.0110
786.00,0.0115
785.00,0.0121
784.00,0.0127
783.00,0.0134
782.00,0.0141
781.00,0.0149
780.00,0.0158
779.00,0.0169
778.00,0.0182
777.00,0.0196
776.00,0.0212
775.00,0.0229
774.00,0.0247
773.00,0.0267
772.00,0.0289
771.00,0.0313
770.00,0.0338
769.00,0.0363
768.00,0.0388
767.00,0.0413
766.00,0.0437
765.00,0.0462
764.00,0.0487
763.00,0.0513
762.00,0.0539
761.00,0.0565
760.00,0.0591
759.00,0.0614
758.00,0.0635
757.00,0.0652
756.00,0.0664
755.00,0.0671
754.00,0.0674
753.00,0.0673
752.00,0.0671
751.00,0.0670
750.00,0.0669
749.00,0.0669
748.00,0.0666
747.00,0.0658
746.00,0.0642
745.00,0.0616
744.00,0.0582
743.00,0.0542
742.00,0.0499
741.00,0.0456
740.00,0.0416
739.00,0.0379
738.00,0.0346
737.00,0.0315
736.00,0.0286
735.00,0.0257
734.00,0.0230
733.00,0.0205
732.00,0.0183
731.00,0.0166
730.00,0.0153
729.00,0.0143
728.00,0.0135
727.00,0.0130
726.00,0.0125
725.00,0.0122
724.00,0.0120
723.00,0.0120
722.00,0.0120
721.00,0.0120
720.00,0.0121
719.00,0.0123
718.00,0.0126
717.00,0.0129
716.00,0.0135
715.00,0.0142
714.00,0.0152
713.00,0.0166
712.00,0.0186
711.00,0.0213
710.00,0.0249
709.00,0.0298
708.00,0.0360
707.00,0.0438
706.00,0.0530
705.00,0.0639
704.00,0.0763
703.00,0.0899
702.00,0.1047
701.00,0.1202
700.00,0.1362
699.00,0.1523
698.00,0.1682
697.00,0.1831
696.00,0.1954
695.00,0.2023
694.00,0.2017
693.00,0.1925
692.00,0.1763
691.00,0.1566
690.00,0.1368
689.00,0.1190
688.00,0.1039
687.00,0.0917
686.00,0.0819
685.00,0.0741
684.00,0.0677
683.00,0.0625
682.00,0.0581
681.00,0.0543
680.00,0.0509
679.00,0.0480
678.00,0.0455
677.00,0.0432
676.00,0.0414
675.00,0.0398
674.00,0.0385
673.00,0.0373
672.00,0.0362
671.00,0.0352
670.00,0.0344
669.00,0.0334
668.00,0.0322
667.00,0.0311
666.00,0.0302
665.00,0.0294
664.00,0.0286
663.00,0.0277
662.00,0.0268
661.00,0.0259
660.00,0.0250
659.00,0.0242
658.00,0.0234
657.00,0.0226
656.00,0.0219
655.00,0.0212
654.00,0.0207
653.00,0.0203
652.00,0.0198
651.00,0.0194
650.00,0.0190
649.00,0.0187
648.00,0.0183
647.00,0.0180
646.00,0.0177
645.00,0.0175
644.00,0.0172
643.00,0.0171
642.00,0.0170
641.00,0.0170
640.00,0.0170
639.00,0.0170
638.00,0.0171
637.00,0.0173
636.00,0.0176
635.00,0.0179
634.00,0.0183
633.00,0.0186
632.00,0.0188
631.00,0.0191
630.00,0.0194
629.00,0.0196
628.00,0.0198
627.00,0.0200
626.00,0.0201
625.00,0.0202
624.00,0.0203
623.00,0.0205
622.00,0.0208
621.00,0.0210
620.00,0.0210
619.00,0.0207
618.00,0.0203
617.00,0.0199
616.00,0.0194
615.00,0.0190
614.00,0.0187
613.00,0.0184
612.00,0.0182
611.00,0.0181
610.00,0.0180
609.00,0.0179
608.00,0.0177
607.00,0.0175
606.00,0.0173
605.00,0.0172
604.00,0.0171
603.00,0.0170
602.00,0.0170
601.00,0.0171
600.00,0.0172
599.00,0.0174
598.00,0.0175
597.00,0.0176
596.00,0.0177
595.00,0.0179
594.00,0.0181
593.00,0.0183
592.00,0.0185
591.00,0.0186
590.00,0.0188
589.00,0.0190
588.00,0.0192
587.00,0.0194
586.00,0.0197
585.00,0.0200
584.00,0.0202
583.00,0.0206
582.00,0.0210
581.00,0.0215
580.00,0.0220
579.00,0.0227
578.00,0.0235
577.00,0.0243
576.00,0.0251
575.00,0.0260
574.00,0.0269
573.00,0.0278
572.00,0.0288
571.00,0.0298
570.00,0.0308
569.00,0.0317
568.00,0.0325
567.00,0.0332
566.00,0.0341
565.00,0.0350
564.00,0.0360
563.00,0.0369
562.00,0.0380
561.00,0.0390
560.00,0.0400
559.00,0.0410
558.00,0.0420
557.00,0.0431
556.00,0.0441
555.00,0.0451
554.00,0.0462
553.00,0.0474
552.00,0.0486
551.00,0.0498
550.00,0.0511
549.00,0.0526
548.00,0.0544
547.00,0.0563
546.00,0.0584
545.00,0.0607
544.00,0.0632
543.00,0.0658
542.00,0.0683
541.00,0.0706
540.00,0.0726
539.00,0.0740
538.00,0.0747
537.00,0.0747
536.00,0.0737
535.00,0.0718
534.00,0.0691
533.00,0.0660
532.00,0.0626
531.00,0.0591
530.00,0.0557
529.00,0.0524
528.00,0.0492
527.00,0.0462
526.00,0.0434
525.00,0.0410
524.00,0.0389
523.00,0.0370
522.00,0.0353
521.00,0.0337
520.00,0.0322
519.00,0.0310
518.00,0.0301
517.00,0.0294
516.00,0.0288
515.00,0.0281
514.00,0.0274
513.00,0.0267
512.00,0.0261
511.00,0.0254
510.00,0.0249
509.00,0.0243
508.00,0.0237
507.00,0.0230
506.00,0.0225
505.00,0.0221
504.00,0.0218
503.00,0.0213
502.00,0.0207
501.00,0.0201
500.00,0.0196
499.00,0.0193
498.00,0.0190
497.00,0.0188
496.00,0.0185
495.00,0.0182
494.00,0.0179
493.00,0.0175
492.00,0.0172
491.00,0.0169
490.00,0.0166
489.00,0.0164
488.00,0.0162
487.00,0.0161
486.00,0.0161
485.00,0.0161
484.00,0.0160
483.00,0.0159
482.00,0.0157
481.00,0.0154
480.00,0.0151
479.00,0.0147
478.00,0.0145
477.00,0.0144
476.00,0.0142
475.00,0.0139
474.00,0.0139
473.00,0.0140
472.00,0.0141
471.00,0.0142
470.00,0.0143
469.00,0.0143
468.00,0.0142
467.00,0.0140
466.00,0.0139
465.00,0.0137
464.00,0.0136
463.00,0.0136
462.00,0.0135
461.00,0.0133
460.00,0.0132
459.00,0.0132
458.00,0.0134
457.00,0.0135
456.00,0.0132
455.00,0.0127
454.00,0.0123
453.00,0.0121
452.00,0.0122
451.00,0.0125
450.00,0.0127
449.00,0.0128
448.00,0.0127
447.00,0.0125
446.00,0.0125
445.00,0.0125
444.00,0.0124
443.00,0.0122
442.00,0.0121
441.00,0.0118
440.00,0.0115
439.00,0.0111
438.00,0.0110
437.00,0.0111
436.00,0.0113
435.00,0.0113
434.00,0.0111
433.00,0.0108
432.00,0.0104
431.00,0.0102
430.00,0.0104
429.00,0.0107
428.00,0.0107
427.00,0.0104
426.00,0.0100
425.00,0.0096
424.00,0.0093
423.00,0.0093
422.00,0.0094
421.00,0.0093
420.00,0.0091
419.00,0.0090
418.00,0.0091
417.00,0.0093
416.00,0.0093
415.00,0.0094
414.00,0.0098
413.00,0.0102
412.00,0.0106
411.00,0.0108
410.00,0.0105
409.00,0.0096
408.00,0.0083
407.00,0.0075
406.00,0.0077
405.00,0.0084
404.00,0.0087
403.00,0.0082
402.00,0.0073
401.00,0.0063
400.00,0.0052
