Created as New Dataset,Sample 611 By YargerLab Date Thursday, June 05 2025
cm-1,A
4000.00,0.0052
3999.00,0.0052
3998.00,0.0052
3997.00,0.0052
3996.00,0.0052
3995.00,0.0052
3994.00,0.0052
3993.00,0.0052
3992.00,0.0052
3991.00,0.0052
3990.00,0.0052
3989.00,0.0052
3988.00,0.0052
3987.00,0.0052
3986.00,0.0052
3985.00,0.0052
3984.00,0.0052
3983.00,0.0052
3982.00,0.0052
3981.00,0.0052
3980.00,0.0052
3979.00,0.0052
3978.00,0.0052
3977.00,0.0052
3976.00,0.0052
3975.00,0.0052
3974.00,0.0052
3973.00,0.0052
3972.00,0.0052
3971.00,0.0052
3970.00,0.0052
3969.00,0.0052
3968.00,0.0052
3967.00,0.0052
3966.00,0.0052
3965.00,0.0052
3964.00,0.0052
3963.00,0.0052
3962.00,0.0052
3961.00,0.0052
3960.00,0.0052
3959.00,0.0052
3958.00,0.0052
3957.00,0.0052
3956.00,0.0052
3955.00,0.0052
3954.00,0.0052
3953.00,0.0052
3952.00,0.0052
3951.00,0.0051
3950.00,0.0051
3949.00,0.0051
3948.00,0.0051
3947.00,0.0051
3946.00,0.0051
3945.00,0.0051
3944.00,0.0051
3943.00,0.0051
3942.00,0.0052
3941.00,0.0052
3940.00,0.0052
3939.00,0.0052
3938.00,0.0052
3937.00,0.0052
3936.00,0.0052
3935.00,0.0051
3934.00,0.0051
3933.00,0.0051
3932.00,0.0051
3931.00,0.0051
3930.00,0.0051
3929.00,0.0051
3928.00,0.0051
3927.00,0.0051
3926.00,0.0051
3925.00,0.0051
3924.00,0.0051
3923.00,0.0051
3922.00,0.0051
3921.00,0.0051
3920.00,0.0051
3919.00,0.0051
3918.00,0.0051
3917.00,0.0051
3916.00,0.0051
3915.00,0.0051
3914.00,0.0051
3913.00,0.0051
3912.00,0.0051
3911.00,0.0051
3910.00,0.0051
3909.00,0.0051
3908.00,0.0051
3907.00,0.0051
3906.00,0.0051
3905.00,0.0050
3904.00,0.0050
3903.00,0.0050
3902.00,0.0049
3901.00,0.0049
3900.00,0.0049
3899.00,0.0049
3898.00,0.0050
3897.00,0.0050
3896.00,0.0050
3895.00,0.0050
3894.00,0.0050
3893.00,0.0050
3892.00,0.0050
3891.00,0.0050
3890.00,0.0050
3889.00,0.0050
3888.00,0.0050
3887.00,0.0049
3886.00,0.0049
3885.00,0.0049
3884.00,0.0050
3883.00,0.0049
3882.00,0.0049
3881.00,0.0049
3880.00,0.0049
3879.00,0.0050
3878.00,0.0050
3877.00,0.0049
3876.00,0.0049
3875.00,0.0049
3874.00,0.0049
3873.00,0.0049
3872.00,0.0049
3871.00,0.0048
3870.00,0.0048
3869.00,0.0048
3868.00,0.0048
3867.00,0.0048
3866.00,0.0047
3865.00,0.0047
3864.00,0.0048
3863.00,0.0049
3862.00,0.0049
3861.00,0.0049
3860.00,0.0049
3859.00,0.0049
3858.00,0.0050
3857.00,0.0050
3856.00,0.0050
3855.00,0.0049
3854.00,0.0049
3853.00,0.0048
3852.00,0.0048
3851.00,0.0048
3850.00,0.0047
3849.00,0.0047
3848.00,0.0047
3847.00,0.0048
3846.00,0.0048
3845.00,0.0048
3844.00,0.0048
3843.00,0.0048
3842.00,0.0048
3841.00,0.0048
3840.00,0.0048
3839.00,0.0048
3838.00,0.0048
3837.00,0.0048
3836.00,0.0048
3835.00,0.0047
3834.00,0.0047
3833.00,0.0047
3832.00,0.0047
3831.00,0.0047
3830.00,0.0048
3829.00,0.0048
3828.00,0.0048
3827.00,0.0048
3826.00,0.0048
3825.00,0.0048
3824.00,0.0048
3823.00,0.0047
3822.00,0.0046
3821.00,0.0046
3820.00,0.0047
3819.00,0.0047
3818.00,0.0047
3817.00,0.0047
3816.00,0.0047
3815.00,0.0048
3814.00,0.0049
3813.00,0.0049
3812.00,0.0049
3811.00,0.0049
3810.00,0.0049
3809.00,0.0049
3808.00,0.0048
3807.00,0.0047
3806.00,0.0047
3805.00,0.0047
3804.00,0.0047
3803.00,0.0046
3802.00,0.0047
3801.00,0.0047
3800.00,0.0048
3799.00,0.0048
3798.00,0.0048
3797.00,0.0048
3796.00,0.0048
3795.00,0.0049
3794.00,0.0049
3793.00,0.0049
3792.00,0.0049
3791.00,0.0050
3790.00,0.0050
3789.00,0.0050
3788.00,0.0050
3787.00,0.0049
3786.00,0.0049
3785.00,0.0049
3784.00,0.0049
3783.00,0.0049
3782.00,0.0049
3781.00,0.0048
3780.00,0.0048
3779.00,0.0049
3778.00,0.0049
3777.00,0.0049
3776.00,0.0049
3775.00,0.0049
3774.00,0.0049
3773.00,0.0049
3772.00,0.0049
3771.00,0.0049
3770.00,0.0049
3769.00,0.0048
3768.00,0.0048
3767.00,0.0048
3766.00,0.0048
3765.00,0.0048
3764.00,0.0048
3763.00,0.0048
3762.00,0.0047
3761.00,0.0047
3760.00,0.0047
3759.00,0.0047
3758.00,0.0047
3757.00,0.0047
3756.00,0.0047
3755.00,0.0047
3754.00,0.0047
3753.00,0.0046
3752.00,0.0046
3751.00,0.0045
3750.00,0.0045
3749.00,0.0044
3748.00,0.0044
3747.00,0.0045
3746.00,0.0044
3745.00,0.0044
3744.00,0.0044
3743.00,0.0045
3742.00,0.0045
3741.00,0.0044
3740.00,0.0044
3739.00,0.0044
3738.00,0.0043
3737.00,0.0043
3736.00,0.0043
3735.00,0.0044
3734.00,0.0044
3733.00,0.0044
3732.00,0.0044
3731.00,0.0044
3730.00,0.0045
3729.00,0.0045
3728.00,0.0045
3727.00,0.0045
3726.00,0.0046
3725.00,0.0046
3724.00,0.0046
3723.00,0.0047
3722.00,0.0047
3721.00,0.0047
3720.00,0.0047
3719.00,0.0047
3718.00,0.0048
3717.00,0.0048
3716.00,0.0048
3715.00,0.0047
3714.00,0.0047
3713.00,0.0046
3712.00,0.0045
3711.00,0.0045
3710.00,0.0045
3709.00,0.0045
3708.00,0.0045
3707.00,0.0045
3706.00,0.0046
3705.00,0.0046
3704.00,0.0046
3703.00,0.0047
3702.00,0.0047
3701.00,0.0047
3700.00,0.0047
3699.00,0.0047
3698.00,0.0047
3697.00,0.0047
3696.00,0.0047
3695.00,0.0047
3694.00,0.0047
3693.00,0.0046
3692.00,0.0046
3691.00,0.0046
3690.00,0.0045
3689.00,0.0045
3688.00,0.0044
3687.00,0.0044
3686.00,0.0044
3685.00,0.0044
3684.00,0.0045
3683.00,0.0045
3682.00,0.0045
3681.00,0.0045
3680.00,0.0045
3679.00,0.0045
3678.00,0.0044
3677.00,0.0044
3676.00,0.0043
3675.00,0.0043
3674.00,0.0043
3673.00,0.0043
3672.00,0.0042
3671.00,0.0042
3670.00,0.0042
3669.00,0.0043
3668.00,0.0044
3667.00,0.0044
3666.00,0.0044
3665.00,0.0044
3664.00,0.0045
3663.00,0.0045
3662.00,0.0046
3661.00,0.0046
3660.00,0.0046
3659.00,0.0046
3658.00,0.0046
3657.00,0.0045
3656.00,0.0045
3655.00,0.0045
3654.00,0.0045
3653.00,0.0044
3652.00,0.0044
3651.00,0.0043
3650.00,0.0043
3649.00,0.0044
3648.00,0.0044
3647.00,0.0044
3646.00,0.0044
3645.00,0.0045
3644.00,0.0046
3643.00,0.0046
3642.00,0.0047
3641.00,0.0048
3640.00,0.0048
3639.00,0.0049
3638.00,0.0049
3637.00,0.0049
3636.00,0.0049
3635.00,0.0049
3634.00,0.0050
3633.00,0.0050
3632.00,0.0050
3631.00,0.0050
3630.00,0.0049
3629.00,0.0049
3628.00,0.0049
3627.00,0.0050
3626.00,0.0050
3625.00,0.0050
3624.00,0.0051
3623.00,0.0051
3622.00,0.0052
3621.00,0.0052
3620.00,0.0052
3619.00,0.0053
3618.00,0.0053
3617.00,0.0052
3616.00,0.0052
3615.00,0.0052
3614.00,0.0052
3613.00,0.0053
3612.00,0.0053
3611.00,0.0053
3610.00,0.0053
3609.00,0.0053
3608.00,0.0054
3607.00,0.0054
3606.00,0.0055
3605.00,0.0055
3604.00,0.0055
3603.00,0.0056
3602.00,0.0056
3601.00,0.0057
3600.00,0.0057
3599.00,0.0057
3598.00,0.0057
3597.00,0.0057
3596.00,0.0057
3595.00,0.0057
3594.00,0.0057
3593.00,0.0058
3592.00,0.0058
3591.00,0.0058
3590.00,0.0058
3589.00,0.0058
3588.00,0.0059
3587.00,0.0059
3586.00,0.0059
3585.00,0.0059
3584.00,0.0060
3583.00,0.0060
3582.00,0.0060
3581.00,0.0061
3580.00,0.0061
3579.00,0.0061
3578.00,0.0061
3577.00,0.0061
3576.00,0.0062
3575.00,0.0062
3574.00,0.0062
3573.00,0.0063
3572.00,0.0063
3571.00,0.0063
3570.00,0.0062
3569.00,0.0062
3568.00,0.0063
3567.00,0.0063
3566.00,0.0063
3565.00,0.0064
3564.00,0.0064
3563.00,0.0064
3562.00,0.0064
3561.00,0.0065
3560.00,0.0066
3559.00,0.0066
3558.00,0.0066
3557.00,0.0067
3556.00,0.0067
3555.00,0.0067
3554.00,0.0068
3553.00,0.0068
3552.00,0.0068
3551.00,0.0068
3550.00,0.0068
3549.00,0.0068
3548.00,0.0068
3547.00,0.0068
3546.00,0.0068
3545.00,0.0069
3544.00,0.0069
3543.00,0.0069
3542.00,0.0070
3541.00,0.0070
3540.00,0.0070
3539.00,0.0071
3538.00,0.0071
3537.00,0.0072
3536.00,0.0072
3535.00,0.0072
3534.00,0.0072
3533.00,0.0072
3532.00,0.0071
3531.00,0.0071
3530.00,0.0072
3529.00,0.0072
3528.00,0.0073
3527.00,0.0073
3526.00,0.0073
3525.00,0.0074
3524.00,0.0074
3523.00,0.0074
3522.00,0.0074
3521.00,0.0075
3520.00,0.0075
3519.00,0.0075
3518.00,0.0075
3517.00,0.0075
3516.00,0.0076
3515.00,0.0076
3514.00,0.0076
3513.00,0.0076
3512.00,0.0076
3511.00,0.0076
3510.00,0.0076
3509.00,0.0076
3508.00,0.0076
3507.00,0.0076
3506.00,0.0076
3505.00,0.0076
3504.00,0.0076
3503.00,0.0077
3502.00,0.0077
3501.00,0.0077
3500.00,0.0077
3499.00,0.0078
3498.00,0.0078
3497.00,0.0078
3496.00,0.0078
3495.00,0.0078
3494.00,0.0078
3493.00,0.0078
3492.00,0.0079
3491.00,0.0079
3490.00,0.0079
3489.00,0.0079
3488.00,0.0079
3487.00,0.0079
3486.00,0.0079
3485.00,0.0079
3484.00,0.0079
3483.00,0.0079
3482.00,0.0079
3481.00,0.0079
3480.00,0.0079
3479.00,0.0079
3478.00,0.0079
3477.00,0.0079
3476.00,0.0079
3475.00,0.0079
3474.00,0.0079
3473.00,0.0079
3472.00,0.0078
3471.00,0.0078
3470.00,0.0077
3469.00,0.0077
3468.00,0.0077
3467.00,0.0076
3466.00,0.0075
3465.00,0.0074
3464.00,0.0073
3463.00,0.0071
3462.00,0.0070
3461.00,0.0068
3460.00,0.0066
3459.00,0.0064
3458.00,0.0062
3457.00,0.0060
3456.00,0.0057
3455.00,0.0055
3454.00,0.0054
3453.00,0.0052
3452.00,0.0052
3451.00,0.0051
3450.00,0.0052
3449.00,0.0054
3448.00,0.0057
3447.00,0.0061
3446.00,0.0065
3445.00,0.0068
3444.00,0.0072
3443.00,0.0076
3442.00,0.0080
3441.00,0.0083
3440.00,0.0086
3439.00,0.0088
3438.00,0.0090
3437.00,0.0091
3436.00,0.0092
3435.00,0.0093
3434.00,0.0094
3433.00,0.0094
3432.00,0.0095
3431.00,0.0096
3430.00,0.0096
3429.00,0.0097
3428.00,0.0098
3427.00,0.0098
3426.00,0.0098
3425.00,0.0098
3424.00,0.0099
3423.00,0.0099
3422.00,0.0099
3421.00,0.0100
3420.00,0.0100
3419.00,0.0101
3418.00,0.0101
3417.00,0.0102
3416.00,0.0102
3415.00,0.0102
3414.00,0.0103
3413.00,0.0103
3412.00,0.0103
3411.00,0.0104
3410.00,0.0104
3409.00,0.0105
3408.00,0.0105
3407.00,0.0106
3406.00,0.0106
3405.00,0.0106
3404.00,0.0107
3403.00,0.0107
3402.00,0.0107
3401.00,0.0108
3400.00,0.0108
3399.00,0.0108
3398.00,0.0108
3397.00,0.0109
3396.00,0.0109
3395.00,0.0109
3394.00,0.0109
3393.00,0.0109
3392.00,0.0110
3391.00,0.0110
3390.00,0.0111
3389.00,0.0112
3388.00,0.0112
3387.00,0.0112
3386.00,0.0113
3385.00,0.0113
3384.00,0.0114
3383.00,0.0114
3382.00,0.0115
3381.00,0.0115
3380.00,0.0115
3379.00,0.0116
3378.00,0.0116
3377.00,0.0116
3376.00,0.0116
3375.00,0.0116
3374.00,0.0117
3373.00,0.0118
3372.00,0.0118
3371.00,0.0119
3370.00,0.0119
3369.00,0.0120
3368.00,0.0120
3367.00,0.0121
3366.00,0.0121
3365.00,0.0122
3364.00,0.0122
3363.00,0.0123
3362.00,0.0124
3361.00,0.0124
3360.00,0.0125
3359.00,0.0125
3358.00,0.0126
3357.00,0.0126
3356.00,0.0127
3355.00,0.0127
3354.00,0.0128
3353.00,0.0128
3352.00,0.0129
3351.00,0.0130
3350.00,0.0130
3349.00,0.0131
3348.00,0.0131
3347.00,0.0131
3346.00,0.0132
3345.00,0.0133
3344.00,0.0133
3343.00,0.0134
3342.00,0.0135
3341.00,0.0135
3340.00,0.0136
3339.00,0.0136
3338.00,0.0137
3337.00,0.0138
3336.00,0.0138
3335.00,0.0139
3334.00,0.0140
3333.00,0.0140
3332.00,0.0141
3331.00,0.0142
3330.00,0.0142
3329.00,0.0143
3328.00,0.0144
3327.00,0.0144
3326.00,0.0145
3325.00,0.0146
3324.00,0.0147
3323.00,0.0148
3322.00,0.0149
3321.00,0.0149
3320.00,0.0150
3319.00,0.0151
3318.00,0.0151
3317.00,0.0152
3316.00,0.0153
3315.00,0.0154
3314.00,0.0155
3313.00,0.0156
3312.00,0.0156
3311.00,0.0157
3310.00,0.0157
3309.00,0.0158
3308.00,0.0159
3307.00,0.0159
3306.00,0.0160
3305.00,0.0161
3304.00,0.0162
3303.00,0.0163
3302.00,0.0164
3301.00,0.0165
3300.00,0.0166
3299.00,0.0166
3298.00,0.0166
3297.00,0.0167
3296.00,0.0167
3295.00,0.0168
3294.00,0.0169
3293.00,0.0169
3292.00,0.0170
3291.00,0.0172
3290.00,0.0172
3289.00,0.0173
3288.00,0.0173
3287.00,0.0174
3286.00,0.0174
3285.00,0.0174
3284.00,0.0175
3283.00,0.0175
3282.00,0.0176
3281.00,0.0176
3280.00,0.0176
3279.00,0.0176
3278.00,0.0176
3277.00,0.0176
3276.00,0.0176
3275.00,0.0175
3274.00,0.0175
3273.00,0.0175
3272.00,0.0174
3271.00,0.0174
3270.00,0.0173
3269.00,0.0173
3268.00,0.0173
3267.00,0.0172
3266.00,0.0172
3265.00,0.0171
3264.00,0.0170
3263.00,0.0169
3262.00,0.0169
3261.00,0.0168
3260.00,0.0167
3259.00,0.0166
3258.00,0.0165
3257.00,0.0164
3256.00,0.0163
3255.00,0.0162
3254.00,0.0162
3253.00,0.0161
3252.00,0.0160
3251.00,0.0159
3250.00,0.0159
3249.00,0.0158
3248.00,0.0157
3247.00,0.0156
3246.00,0.0155
3245.00,0.0155
3244.00,0.0154
3243.00,0.0153
3242.00,0.0152
3241.00,0.0152
3240.00,0.0151
3239.00,0.0150
3238.00,0.0149
3237.00,0.0148
3236.00,0.0147
3235.00,0.0146
3234.00,0.0145
3233.00,0.0144
3232.00,0.0144
3231.00,0.0144
3230.00,0.0144
3229.00,0.0143
3228.00,0.0142
3227.00,0.0141
3226.00,0.0141
3225.00,0.0140
3224.00,0.0140
3223.00,0.0139
3222.00,0.0139
3221.00,0.0138
3220.00,0.0138
3219.00,0.0137
3218.00,0.0137
3217.00,0.0136
3216.00,0.0136
3215.00,0.0136
3214.00,0.0135
3213.00,0.0135
3212.00,0.0134
3211.00,0.0134
3210.00,0.0134
3209.00,0.0134
3208.00,0.0133
3207.00,0.0133
3206.00,0.0132
3205.00,0.0132
3204.00,0.0131
3203.00,0.0131
3202.00,0.0130
3201.00,0.0130
3200.00,0.0129
3199.00,0.0128
3198.00,0.0128
3197.00,0.0127
3196.00,0.0127
3195.00,0.0126
3194.00,0.0126
3193.00,0.0126
3192.00,0.0125
3191.00,0.0125
3190.00,0.0125
3189.00,0.0124
3188.00,0.0124
3187.00,0.0124
3186.00,0.0123
3185.00,0.0123
3184.00,0.0123
3183.00,0.0122
3182.00,0.0122
3181.00,0.0121
3180.00,0.0121
3179.00,0.0120
3178.00,0.0120
3177.00,0.0119
3176.00,0.0119
3175.00,0.0118
3174.00,0.0118
3173.00,0.0117
3172.00,0.0117
3171.00,0.0117
3170.00,0.0116
3169.00,0.0115
3168.00,0.0115
3167.00,0.0114
3166.00,0.0114
3165.00,0.0114
3164.00,0.0114
3163.00,0.0113
3162.00,0.0113
3161.00,0.0112
3160.00,0.0112
3159.00,0.0111
3158.00,0.0111
3157.00,0.0110
3156.00,0.0110
3155.00,0.0109
3154.00,0.0109
3153.00,0.0108
3152.00,0.0108
3151.00,0.0108
3150.00,0.0107
3149.00,0.0107
3148.00,0.0107
3147.00,0.0106
3146.00,0.0106
3145.00,0.0105
3144.00,0.0105
3143.00,0.0104
3142.00,0.0104
3141.00,0.0104
3140.00,0.0103
3139.00,0.0103
3138.00,0.0102
3137.00,0.0102
3136.00,0.0102
3135.00,0.0101
3134.00,0.0101
3133.00,0.0101
3132.00,0.0100
3131.00,0.0100
3130.00,0.0099
3129.00,0.0099
3128.00,0.0098
3127.00,0.0098
3126.00,0.0098
3125.00,0.0098
3124.00,0.0097
3123.00,0.0097
3122.00,0.0097
3121.00,0.0096
3120.00,0.0096
3119.00,0.0096
3118.00,0.0095
3117.00,0.0095
3116.00,0.0095
3115.00,0.0095
3114.00,0.0096
3113.00,0.0096
3112.00,0.0096
3111.00,0.0095
3110.00,0.0095
3109.00,0.0095
3108.00,0.0095
3107.00,0.0095
3106.00,0.0095
3105.00,0.0095
3104.00,0.0095
3103.00,0.0095
3102.00,0.0095
3101.00,0.0095
3100.00,0.0095
3099.00,0.0095
3098.00,0.0095
3097.00,0.0095
3096.00,0.0096
3095.00,0.0096
3094.00,0.0096
3093.00,0.0095
3092.00,0.0095
3091.00,0.0095
3090.00,0.0096
3089.00,0.0096
3088.00,0.0096
3087.00,0.0096
3086.00,0.0097
3085.00,0.0097
3084.00,0.0097
3083.00,0.0097
3082.00,0.0097
3081.00,0.0097
3080.00,0.0097
3079.00,0.0097
3078.00,0.0097
3077.00,0.0097
3076.00,0.0098
3075.00,0.0098
3074.00,0.0098
3073.00,0.0098
3072.00,0.0097
3071.00,0.0097
3070.00,0.0096
3069.00,0.0096
3068.00,0.0096
3067.00,0.0096
3066.00,0.0096
3065.00,0.0096
3064.00,0.0097
3063.00,0.0097
3062.00,0.0097
3061.00,0.0098
3060.00,0.0098
3059.00,0.0098
3058.00,0.0098
3057.00,0.0098
3056.00,0.0098
3055.00,0.0098
3054.00,0.0098
3053.00,0.0098
3052.00,0.0098
3051.00,0.0098
3050.00,0.0098
3049.00,0.0098
3048.00,0.0098
3047.00,0.0097
3046.00,0.0097
3045.00,0.0097
3044.00,0.0096
3043.00,0.0096
3042.00,0.0096
3041.00,0.0096
3040.00,0.0096
3039.00,0.0096
3038.00,0.0095
3037.00,0.0095
3036.00,0.0095
3035.00,0.0094
3034.00,0.0094
3033.00,0.0094
3032.00,0.0093
3031.00,0.0093
3030.00,0.0093
3029.00,0.0093
3028.00,0.0093
3027.00,0.0093
3026.00,0.0092
3025.00,0.0092
3024.00,0.0092
3023.00,0.0091
3022.00,0.0091
3021.00,0.0091
3020.00,0.0090
3019.00,0.0090
3018.00,0.0089
3017.00,0.0088
3016.00,0.0088
3015.00,0.0087
3014.00,0.0087
3013.00,0.0086
3012.00,0.0086
3011.00,0.0085
3010.00,0.0085
3009.00,0.0084
3008.00,0.0083
3007.00,0.0082
3006.00,0.0081
3005.00,0.0080
3004.00,0.0079
3003.00,0.0078
3002.00,0.0077
3001.00,0.0076
3000.00,0.0075
2999.00,0.0074
2998.00,0.0073
2997.00,0.0073
2996.00,0.0072
2995.00,0.0071
2994.00,0.0071
2993.00,0.0070
2992.00,0.0070
2991.00,0.0070
2990.00,0.0069
2989.00,0.0069
2988.00,0.0069
2987.00,0.0069
2986.00,0.0068
2985.00,0.0067
2984.00,0.0065
2983.00,0.0062
2982.00,0.0061
2981.00,0.0061
2980.00,0.0062
2979.00,0.0064
2978.00,0.0066
2977.00,0.0068
2976.00,0.0069
2975.00,0.0071
2974.00,0.0071
2973.00,0.0072
2972.00,0.0073
2971.00,0.0074
2970.00,0.0076
2969.00,0.0078
2968.00,0.0080
2967.00,0.0082
2966.00,0.0084
2965.00,0.0085
2964.00,0.0087
2963.00,0.0088
2962.00,0.0088
2961.00,0.0089
2960.00,0.0088
2959.00,0.0088
2958.00,0.0087
2957.00,0.0086
2956.00,0.0085
2955.00,0.0084
2954.00,0.0083
2953.00,0.0083
2952.00,0.0083
2951.00,0.0082
2950.00,0.0082
2949.00,0.0083
2948.00,0.0084
2947.00,0.0085
2946.00,0.0087
2945.00,0.0089
2944.00,0.0091
2943.00,0.0092
2942.00,0.0093
2941.00,0.0094
2940.00,0.0094
2939.00,0.0094
2938.00,0.0095
2937.00,0.0095
2936.00,0.0095
2935.00,0.0095
2934.00,0.0095
2933.00,0.0095
2932.00,0.0094
2931.00,0.0094
2930.00,0.0093
2929.00,0.0092
2928.00,0.0090
2927.00,0.0089
2926.00,0.0088
2925.00,0.0087
2924.00,0.0087
2923.00,0.0086
2922.00,0.0086
2921.00,0.0086
2920.00,0.0086
2919.00,0.0086
2918.00,0.0086
2917.00,0.0085
2916.00,0.0084
2915.00,0.0083
2914.00,0.0083
2913.00,0.0082
2912.00,0.0081
2911.00,0.0081
2910.00,0.0080
2909.00,0.0080
2908.00,0.0081
2907.00,0.0081
2906.00,0.0081
2905.00,0.0081
2904.00,0.0081
2903.00,0.0082
2902.00,0.0082
2901.00,0.0081
2900.00,0.0081
2899.00,0.0081
2898.00,0.0080
2897.00,0.0080
2896.00,0.0079
2895.00,0.0079
2894.00,0.0078
2893.00,0.0078
2892.00,0.0078
2891.00,0.0077
2890.00,0.0077
2889.00,0.0076
2888.00,0.0076
2887.00,0.0076
2886.00,0.0076
2885.00,0.0076
2884.00,0.0077
2883.00,0.0077
2882.00,0.0078
2881.00,0.0078
2880.00,0.0079
2879.00,0.0080
2878.00,0.0080
2877.00,0.0081
2876.00,0.0081
2875.00,0.0081
2874.00,0.0081
2873.00,0.0081
2872.00,0.0080
2871.00,0.0079
2870.00,0.0079
2869.00,0.0078
2868.00,0.0078
2867.00,0.0078
2866.00,0.0078
2865.00,0.0079
2864.00,0.0079
2863.00,0.0079
2862.00,0.0079
2861.00,0.0078
2860.00,0.0077
2859.00,0.0077
2858.00,0.0076
2857.00,0.0076
2856.00,0.0076
2855.00,0.0077
2854.00,0.0077
2853.00,0.0078
2852.00,0.0079
2851.00,0.0080
2850.00,0.0080
2849.00,0.0080
2848.00,0.0080
2847.00,0.0079
2846.00,0.0079
2845.00,0.0078
2844.00,0.0077
2843.00,0.0076
2842.00,0.0076
2841.00,0.0075
2840.00,0.0074
2839.00,0.0074
2838.00,0.0073
2837.00,0.0072
2836.00,0.0072
2835.00,0.0071
2834.00,0.0070
2833.00,0.0070
2832.00,0.0070
2831.00,0.0070
2830.00,0.0070
2829.00,0.0071
2828.00,0.0071
2827.00,0.0072
2826.00,0.0072
2825.00,0.0073
2824.00,0.0073
2823.00,0.0074
2822.00,0.0074
2821.00,0.0074
2820.00,0.0074
2819.00,0.0074
2818.00,0.0074
2817.00,0.0075
2816.00,0.0075
2815.00,0.0075
2814.00,0.0075
2813.00,0.0075
2812.00,0.0075
2811.00,0.0075
2810.00,0.0075
2809.00,0.0075
2808.00,0.0075
2807.00,0.0074
2806.00,0.0074
2805.00,0.0074
2804.00,0.0074
2803.00,0.0074
2802.00,0.0074
2801.00,0.0074
2800.00,0.0074
2799.00,0.0074
2798.00,0.0074
2797.00,0.0073
2796.00,0.0073
2795.00,0.0073
2794.00,0.0073
2793.00,0.0073
2792.00,0.0073
2791.00,0.0072
2790.00,0.0072
2789.00,0.0072
2788.00,0.0072
2787.00,0.0072
2786.00,0.0072
2785.00,0.0072
2784.00,0.0072
2783.00,0.0072
2782.00,0.0072
2781.00,0.0071
2780.00,0.0071
2779.00,0.0071
2778.00,0.0071
2777.00,0.0071
2776.00,0.0070
2775.00,0.0070
2774.00,0.0070
2773.00,0.0070
2772.00,0.0069
2771.00,0.0069
2770.00,0.0069
2769.00,0.0069
2768.00,0.0069
2767.00,0.0068
2766.00,0.0068
2765.00,0.0068
2764.00,0.0068
2763.00,0.0067
2762.00,0.0067
2761.00,0.0067
2760.00,0.0067
2759.00,0.0067
2758.00,0.0067
2757.00,0.0067
2756.00,0.0066
2755.00,0.0066
2754.00,0.0066
2753.00,0.0066
2752.00,0.0066
2751.00,0.0066
2750.00,0.0065
2749.00,0.0065
2748.00,0.0065
2747.00,0.0065
2746.00,0.0065
2745.00,0.0065
2744.00,0.0065
2743.00,0.0065
2742.00,0.0065
2741.00,0.0065
2740.00,0.0065
2739.00,0.0064
2738.00,0.0064
2737.00,0.0064
2736.00,0.0064
2735.00,0.0064
2734.00,0.0064
2733.00,0.0063
2732.00,0.0063
2731.00,0.0063
2730.00,0.0063
2729.00,0.0062
2728.00,0.0062
2727.00,0.0062
2726.00,0.0062
2725.00,0.0062
2724.00,0.0062
2723.00,0.0062
2722.00,0.0062
2721.00,0.0062
2720.00,0.0061
2719.00,0.0061
2718.00,0.0061
2717.00,0.0061
2716.00,0.0061
2715.00,0.0061
2714.00,0.0061
2713.00,0.0060
2712.00,0.0060
2711.00,0.0060
2710.00,0.0060
2709.00,0.0060
2708.00,0.0060
2707.00,0.0060
2706.00,0.0060
2705.00,0.0059
2704.00,0.0059
2703.00,0.0059
2702.00,0.0059
2701.00,0.0059
2700.00,0.0059
2699.00,0.0059
2698.00,0.0059
2697.00,0.0059
2696.00,0.0058
2695.00,0.0058
2694.00,0.0058
2693.00,0.0058
2692.00,0.0058
2691.00,0.0058
2690.00,0.0058
2689.00,0.0058
2688.00,0.0058
2687.00,0.0058
2686.00,0.0058
2685.00,0.0058
2684.00,0.0058
2683.00,0.0058
2682.00,0.0058
2681.00,0.0058
2680.00,0.0057
2679.00,0.0057
2678.00,0.0057
2677.00,0.0057
2676.00,0.0057
2675.00,0.0057
2674.00,0.0057
2673.00,0.0057
2672.00,0.0057
2671.00,0.0057
2670.00,0.0057
2669.00,0.0057
2668.00,0.0057
2667.00,0.0057
2666.00,0.0058
2665.00,0.0058
2664.00,0.0058
2663.00,0.0059
2662.00,0.0059
2661.00,0.0059
2660.00,0.0059
2659.00,0.0059
2658.00,0.0059
2657.00,0.0059
2656.00,0.0059
2655.00,0.0059
2654.00,0.0060
2653.00,0.0060
2652.00,0.0060
2651.00,0.0060
2650.00,0.0060
2649.00,0.0060
2648.00,0.0060
2647.00,0.0060
2646.00,0.0060
2645.00,0.0060
2644.00,0.0060
2643.00,0.0060
2642.00,0.0060
2641.00,0.0059
2640.00,0.0059
2639.00,0.0059
2638.00,0.0060
2637.00,0.0060
2636.00,0.0060
2635.00,0.0060
2634.00,0.0060
2633.00,0.0059
2632.00,0.0059
2631.00,0.0059
2630.00,0.0059
2629.00,0.0059
2628.00,0.0059
2627.00,0.0059
2626.00,0.0059
2625.00,0.0059
2624.00,0.0058
2623.00,0.0058
2622.00,0.0058
2621.00,0.0058
2620.00,0.0058
2619.00,0.0058
2618.00,0.0058
2617.00,0.0058
2616.00,0.0058
2615.00,0.0058
2614.00,0.0058
2613.00,0.0057
2612.00,0.0057
2611.00,0.0057
2610.00,0.0057
2609.00,0.0057
2608.00,0.0057
2607.00,0.0057
2606.00,0.0057
2605.00,0.0057
2604.00,0.0056
2603.00,0.0056
2602.00,0.0056
2601.00,0.0056
2600.00,0.0056
2599.00,0.0056
2598.00,0.0056
2597.00,0.0056
2596.00,0.0056
2595.00,0.0056
2594.00,0.0056
2593.00,0.0056
2592.00,0.0055
2591.00,0.0055
2590.00,0.0055
2589.00,0.0055
2588.00,0.0056
2587.00,0.0056
2586.00,0.0056
2585.00,0.0055
2584.00,0.0055
2583.00,0.0055
2582.00,0.0055
2581.00,0.0055
2580.00,0.0055
2579.00,0.0055
2578.00,0.0055
2577.00,0.0055
2576.00,0.0055
2575.00,0.0054
2574.00,0.0054
2573.00,0.0054
2572.00,0.0053
2571.00,0.0053
2570.00,0.0053
2569.00,0.0053
2568.00,0.0053
2567.00,0.0053
2566.00,0.0053
2565.00,0.0053
2564.00,0.0053
2563.00,0.0053
2562.00,0.0053
2561.00,0.0052
2560.00,0.0052
2559.00,0.0052
2558.00,0.0051
2557.00,0.0051
2556.00,0.0051
2555.00,0.0051
2554.00,0.0051
2553.00,0.0051
2552.00,0.0051
2551.00,0.0051
2550.00,0.0051
2549.00,0.0051
2548.00,0.0051
2547.00,0.0051
2546.00,0.0051
2545.00,0.0051
2544.00,0.0051
2543.00,0.0050
2542.00,0.0050
2541.00,0.0050
2540.00,0.0050
2539.00,0.0051
2538.00,0.0051
2537.00,0.0051
2536.00,0.0051
2535.00,0.0051
2534.00,0.0050
2533.00,0.0050
2532.00,0.0050
2531.00,0.0050
2530.00,0.0050
2529.00,0.0051
2528.00,0.0051
2527.00,0.0050
2526.00,0.0050
2525.00,0.0050
2524.00,0.0050
2523.00,0.0049
2522.00,0.0049
2521.00,0.0050
2520.00,0.0050
2519.00,0.0050
2518.00,0.0050
2517.00,0.0051
2516.00,0.0051
2515.00,0.0050
2514.00,0.0050
2513.00,0.0050
2512.00,0.0050
2511.00,0.0050
2510.00,0.0049
2509.00,0.0049
2508.00,0.0049
2507.00,0.0049
2506.00,0.0049
2505.00,0.0049
2504.00,0.0049
2503.00,0.0049
2502.00,0.0050
2501.00,0.0050
2500.00,0.0050
2499.00,0.0050
2498.00,0.0050
2497.00,0.0050
2496.00,0.0050
2495.00,0.0050
2494.00,0.0050
2493.00,0.0049
2492.00,0.0049
2491.00,0.0049
2490.00,0.0049
2489.00,0.0049
2488.00,0.0049
2487.00,0.0048
2486.00,0.0048
2485.00,0.0048
2484.00,0.0048
2483.00,0.0048
2482.00,0.0048
2481.00,0.0048
2480.00,0.0049
2479.00,0.0049
2478.00,0.0049
2477.00,0.0049
2476.00,0.0049
2475.00,0.0048
2474.00,0.0048
2473.00,0.0048
2472.00,0.0048
2471.00,0.0048
2470.00,0.0048
2469.00,0.0047
2468.00,0.0047
2467.00,0.0047
2466.00,0.0048
2465.00,0.0048
2464.00,0.0048
2463.00,0.0049
2462.00,0.0048
2461.00,0.0048
2460.00,0.0048
2459.00,0.0048
2458.00,0.0048
2457.00,0.0048
2456.00,0.0048
2455.00,0.0048
2454.00,0.0048
2453.00,0.0048
2452.00,0.0048
2451.00,0.0047
2450.00,0.0047
2449.00,0.0047
2448.00,0.0046
2447.00,0.0046
2446.00,0.0046
2445.00,0.0046
2444.00,0.0046
2443.00,0.0046
2442.00,0.0046
2441.00,0.0046
2440.00,0.0046
2439.00,0.0046
2438.00,0.0046
2437.00,0.0046
2436.00,0.0046
2435.00,0.0045
2434.00,0.0045
2433.00,0.0045
2432.00,0.0045
2431.00,0.0045
2430.00,0.0045
2429.00,0.0045
2428.00,0.0044
2427.00,0.0044
2426.00,0.0044
2425.00,0.0043
2424.00,0.0043
2423.00,0.0043
2422.00,0.0043
2421.00,0.0043
2420.00,0.0043
2419.00,0.0044
2418.00,0.0044
2417.00,0.0044
2416.00,0.0044
2415.00,0.0044
2414.00,0.0043
2413.00,0.0043
2412.00,0.0043
2411.00,0.0043
2410.00,0.0043
2409.00,0.0043
2408.00,0.0043
2407.00,0.0042
2406.00,0.0042
2405.00,0.0042
2404.00,0.0042
2403.00,0.0042
2402.00,0.0043
2401.00,0.0043
2400.00,0.0043
2399.00,0.0043
2398.00,0.0043
2397.00,0.0043
2396.00,0.0043
2395.00,0.0043
2394.00,0.0043
2393.00,0.0043
2392.00,0.0043
2391.00,0.0043
2390.00,0.0043
2389.00,0.0043
2388.00,0.0042
2387.00,0.0042
2386.00,0.0042
2385.00,0.0042
2384.00,0.0042
2383.00,0.0041
2382.00,0.0041
2381.00,0.0041
2380.00,0.0041
2379.00,0.0041
2378.00,0.0041
2377.00,0.0041
2376.00,0.0041
2375.00,0.0041
2374.00,0.0041
2373.00,0.0041
2372.00,0.0041
2371.00,0.0041
2370.00,0.0041
2369.00,0.0041
2368.00,0.0041
2367.00,0.0041
2366.00,0.0041
2365.00,0.0042
2364.00,0.0042
2363.00,0.0042
2362.00,0.0042
2361.00,0.0042
2360.00,0.0041
2359.00,0.0041
2358.00,0.0041
2357.00,0.0042
2356.00,0.0042
2355.00,0.0042
2354.00,0.0042
2353.00,0.0042
2352.00,0.0043
2351.00,0.0043
2350.00,0.0043
2349.00,0.0043
2348.00,0.0043
2347.00,0.0044
2346.00,0.0044
2345.00,0.0045
2344.00,0.0045
2343.00,0.0045
2342.00,0.0045
2341.00,0.0045
2340.00,0.0045
2339.00,0.0045
2338.00,0.0045
2337.00,0.0045
2336.00,0.0045
2335.00,0.0045
2334.00,0.0045
2333.00,0.0045
2332.00,0.0045
2331.00,0.0045
2330.00,0.0046
2329.00,0.0047
2328.00,0.0050
2327.00,0.0053
2326.00,0.0055
2325.00,0.0057
2324.00,0.0056
2323.00,0.0055
2322.00,0.0054
2321.00,0.0052
2320.00,0.0051
2319.00,0.0050
2318.00,0.0049
2317.00,0.0049
2316.00,0.0049
2315.00,0.0049
2314.00,0.0049
2313.00,0.0049
2312.00,0.0049
2311.00,0.0049
2310.00,0.0049
2309.00,0.0049
2308.00,0.0049
2307.00,0.0049
2306.00,0.0049
2305.00,0.0050
2304.00,0.0050
2303.00,0.0050
2302.00,0.0050
2301.00,0.0051
2300.00,0.0050
2299.00,0.0050
2298.00,0.0050
2297.00,0.0051
2296.00,0.0051
2295.00,0.0052
2294.00,0.0053
2293.00,0.0053
2292.00,0.0054
2291.00,0.0054
2290.00,0.0055
2289.00,0.0055
2288.00,0.0055
2287.00,0.0056
2286.00,0.0055
2285.00,0.0055
2284.00,0.0055
2283.00,0.0054
2282.00,0.0054
2281.00,0.0054
2280.00,0.0054
2279.00,0.0053
2278.00,0.0053
2277.00,0.0053
2276.00,0.0052
2275.00,0.0052
2274.00,0.0052
2273.00,0.0051
2272.00,0.0051
2271.00,0.0051
2270.00,0.0051
2269.00,0.0051
2268.00,0.0051
2267.00,0.0050
2266.00,0.0050
2265.00,0.0049
2264.00,0.0049
2263.00,0.0049
2262.00,0.0049
2261.00,0.0050
2260.00,0.0050
2259.00,0.0050
2258.00,0.0049
2257.00,0.0048
2256.00,0.0047
2255.00,0.0046
2254.00,0.0046
2253.00,0.0046
2252.00,0.0046
2251.00,0.0046
2250.00,0.0047
2249.00,0.0047
2248.00,0.0048
2247.00,0.0048
2246.00,0.0048
2245.00,0.0048
2244.00,0.0049
2243.00,0.0049
2242.00,0.0049
2241.00,0.0049
2240.00,0.0048
2239.00,0.0048
2238.00,0.0048
2237.00,0.0048
2236.00,0.0048
2235.00,0.0048
2234.00,0.0048
2233.00,0.0048
2232.00,0.0048
2231.00,0.0047
2230.00,0.0047
2229.00,0.0046
2228.00,0.0046
2227.00,0.0047
2226.00,0.0047
2225.00,0.0047
2224.00,0.0047
2223.00,0.0046
2222.00,0.0046
2221.00,0.0046
2220.00,0.0046
2219.00,0.0046
2218.00,0.0046
2217.00,0.0045
2216.00,0.0045
2215.00,0.0045
2214.00,0.0046
2213.00,0.0047
2212.00,0.0048
2211.00,0.0048
2210.00,0.0048
2209.00,0.0047
2208.00,0.0047
2207.00,0.0048
2206.00,0.0048
2205.00,0.0048
2204.00,0.0048
2203.00,0.0048
2202.00,0.0048
2201.00,0.0049
2200.00,0.0049
2199.00,0.0049
2198.00,0.0049
2197.00,0.0049
2196.00,0.0049
2195.00,0.0050
2194.00,0.0051
2193.00,0.0051
2192.00,0.0050
2191.00,0.0050
2190.00,0.0051
2189.00,0.0051
2188.00,0.0052
2187.00,0.0052
2186.00,0.0051
2185.00,0.0050
2184.00,0.0048
2183.00,0.0046
2182.00,0.0045
2181.00,0.0044
2180.00,0.0045
2179.00,0.0045
2178.00,0.0044
2177.00,0.0043
2176.00,0.0041
2175.00,0.0040
2174.00,0.0041
2173.00,0.0043
2172.00,0.0045
2171.00,0.0047
2170.00,0.0049
2169.00,0.0051
2168.00,0.0051
2167.00,0.0052
2166.00,0.0052
2165.00,0.0053
2164.00,0.0055
2163.00,0.0056
2162.00,0.0053
2161.00,0.0045
2160.00,0.0035
2159.00,0.0026
2158.00,0.0020
2157.00,0.0019
2156.00,0.0021
2155.00,0.0023
2154.00,0.0026
2153.00,0.0027
2152.00,0.0028
2151.00,0.0028
2150.00,0.0028
2149.00,0.0029
2148.00,0.0030
2147.00,0.0031
2146.00,0.0031
2145.00,0.0031
2144.00,0.0031
2143.00,0.0031
2142.00,0.0032
2141.00,0.0032
2140.00,0.0032
2139.00,0.0033
2138.00,0.0033
2137.00,0.0032
2136.00,0.0031
2135.00,0.0029
2134.00,0.0029
2133.00,0.0029
2132.00,0.0031
2131.00,0.0033
2130.00,0.0034
2129.00,0.0035
2128.00,0.0036
2127.00,0.0037
2126.00,0.0038
2125.00,0.0038
2124.00,0.0039
2123.00,0.0040
2122.00,0.0040
2121.00,0.0041
2120.00,0.0041
2119.00,0.0042
2118.00,0.0043
2117.00,0.0044
2116.00,0.0044
2115.00,0.0045
2114.00,0.0045
2113.00,0.0045
2112.00,0.0046
2111.00,0.0047
2110.00,0.0047
2109.00,0.0047
2108.00,0.0046
2107.00,0.0046
2106.00,0.0046
2105.00,0.0046
2104.00,0.0046
2103.00,0.0046
2102.00,0.0046
2101.00,0.0045
2100.00,0.0045
2099.00,0.0044
2098.00,0.0044
2097.00,0.0043
2096.00,0.0042
2095.00,0.0041
2094.00,0.0041
2093.00,0.0042
2092.00,0.0043
2091.00,0.0043
2090.00,0.0044
2089.00,0.0045
2088.00,0.0045
2087.00,0.0046
2086.00,0.0046
2085.00,0.0046
2084.00,0.0046
2083.00,0.0047
2082.00,0.0047
2081.00,0.0047
2080.00,0.0047
2079.00,0.0047
2078.00,0.0047
2077.00,0.0047
2076.00,0.0047
2075.00,0.0047
2074.00,0.0047
2073.00,0.0047
2072.00,0.0047
2071.00,0.0046
2070.00,0.0046
2069.00,0.0047
2068.00,0.0047
2067.00,0.0047
2066.00,0.0046
2065.00,0.0046
2064.00,0.0045
2063.00,0.0044
2062.00,0.0044
2061.00,0.0044
2060.00,0.0044
2059.00,0.0045
2058.00,0.0045
2057.00,0.0045
2056.00,0.0045
2055.00,0.0046
2054.00,0.0048
2053.00,0.0051
2052.00,0.0053
2051.00,0.0053
2050.00,0.0051
2049.00,0.0048
2048.00,0.0045
2047.00,0.0044
2046.00,0.0044
2045.00,0.0045
2044.00,0.0046
2043.00,0.0046
2042.00,0.0046
2041.00,0.0047
2040.00,0.0047
2039.00,0.0047
2038.00,0.0047
2037.00,0.0047
2036.00,0.0046
2035.00,0.0044
2034.00,0.0043
2033.00,0.0041
2032.00,0.0040
2031.00,0.0039
2030.00,0.0039
2029.00,0.0039
2028.00,0.0040
2027.00,0.0040
2026.00,0.0039
2025.00,0.0038
2024.00,0.0037
2023.00,0.0036
2022.00,0.0035
2021.00,0.0034
2020.00,0.0035
2019.00,0.0035
2018.00,0.0037
2017.00,0.0038
2016.00,0.0038
2015.00,0.0038
2014.00,0.0037
2013.00,0.0035
2012.00,0.0034
2011.00,0.0034
2010.00,0.0035
2009.00,0.0035
2008.00,0.0034
2007.00,0.0032
2006.00,0.0031
2005.00,0.0031
2004.00,0.0032
2003.00,0.0032
2002.00,0.0031
2001.00,0.0032
2000.00,0.0033
1999.00,0.0036
1998.00,0.0038
1997.00,0.0039
1996.00,0.0040
1995.00,0.0040
1994.00,0.0041
1993.00,0.0041
1992.00,0.0042
1991.00,0.0042
1990.00,0.0043
1989.00,0.0043
1988.00,0.0044
1987.00,0.0045
1986.00,0.0045
1985.00,0.0046
1984.00,0.0048
1983.00,0.0050
1982.00,0.0052
1981.00,0.0053
1980.00,0.0050
1979.00,0.0045
1978.00,0.0039
1977.00,0.0035
1976.00,0.0034
1975.00,0.0033
1974.00,0.0033
1973.00,0.0033
1972.00,0.0033
1971.00,0.0033
1970.00,0.0033
1969.00,0.0033
1968.00,0.0033
1967.00,0.0033
1966.00,0.0034
1965.00,0.0034
1964.00,0.0034
1963.00,0.0034
1962.00,0.0034
1961.00,0.0034
1960.00,0.0034
1959.00,0.0035
1958.00,0.0035
1957.00,0.0035
1956.00,0.0035
1955.00,0.0035
1954.00,0.0035
1953.00,0.0035
1952.00,0.0036
1951.00,0.0035
1950.00,0.0035
1949.00,0.0035
1948.00,0.0035
1947.00,0.0036
1946.00,0.0037
1945.00,0.0036
1944.00,0.0035
1943.00,0.0034
1942.00,0.0033
1941.00,0.0034
1940.00,0.0034
1939.00,0.0035
1938.00,0.0035
1937.00,0.0036
1936.00,0.0036
1935.00,0.0036
1934.00,0.0035
1933.00,0.0035
1932.00,0.0035
1931.00,0.0035
1930.00,0.0035
1929.00,0.0036
1928.00,0.0036
1927.00,0.0037
1926.00,0.0037
1925.00,0.0037
1924.00,0.0037
1923.00,0.0037
1922.00,0.0037
1921.00,0.0037
1920.00,0.0038
1919.00,0.0038
1918.00,0.0037
1917.00,0.0037
1916.00,0.0037
1915.00,0.0037
1914.00,0.0038
1913.00,0.0038
1912.00,0.0038
1911.00,0.0038
1910.00,0.0038
1909.00,0.0038
1908.00,0.0038
1907.00,0.0038
1906.00,0.0038
1905.00,0.0037
1904.00,0.0037
1903.00,0.0038
1902.00,0.0038
1901.00,0.0038
1900.00,0.0038
1899.00,0.0038
1898.00,0.0039
1897.00,0.0039
1896.00,0.0040
1895.00,0.0040
1894.00,0.0040
1893.00,0.0040
1892.00,0.0039
1891.00,0.0039
1890.00,0.0039
1889.00,0.0039
1888.00,0.0039
1887.00,0.0039
1886.00,0.0039
1885.00,0.0039
1884.00,0.0039
1883.00,0.0038
1882.00,0.0038
1881.00,0.0038
1880.00,0.0037
1879.00,0.0038
1878.00,0.0038
1877.00,0.0038
1876.00,0.0038
1875.00,0.0038
1874.00,0.0038
1873.00,0.0039
1872.00,0.0039
1871.00,0.0040
1870.00,0.0039
1869.00,0.0038
1868.00,0.0038
1867.00,0.0037
1866.00,0.0037
1865.00,0.0037
1864.00,0.0038
1863.00,0.0038
1862.00,0.0038
1861.00,0.0038
1860.00,0.0038
1859.00,0.0038
1858.00,0.0038
1857.00,0.0038
1856.00,0.0038
1855.00,0.0038
1854.00,0.0038
1853.00,0.0037
1852.00,0.0037
1851.00,0.0037
1850.00,0.0037
1849.00,0.0037
1848.00,0.0038
1847.00,0.0040
1846.00,0.0040
1845.00,0.0039
1844.00,0.0037
1843.00,0.0036
1842.00,0.0036
1841.00,0.0037
1840.00,0.0038
1839.00,0.0038
1838.00,0.0038
1837.00,0.0037
1836.00,0.0037
1835.00,0.0037
1834.00,0.0037
1833.00,0.0038
1832.00,0.0039
1831.00,0.0039
1830.00,0.0038
1829.00,0.0038
1828.00,0.0038
1827.00,0.0039
1826.00,0.0039
1825.00,0.0038
1824.00,0.0038
1823.00,0.0037
1822.00,0.0037
1821.00,0.0037
1820.00,0.0036
1819.00,0.0036
1818.00,0.0035
1817.00,0.0035
1816.00,0.0035
1815.00,0.0036
1814.00,0.0037
1813.00,0.0037
1812.00,0.0038
1811.00,0.0038
1810.00,0.0038
1809.00,0.0038
1808.00,0.0038
1807.00,0.0038
1806.00,0.0038
1805.00,0.0039
1804.00,0.0039
1803.00,0.0039
1802.00,0.0039
1801.00,0.0039
1800.00,0.0039
1799.00,0.0038
1798.00,0.0038
1797.00,0.0038
1796.00,0.0039
1795.00,0.0041
1794.00,0.0041
1793.00,0.0040
1792.00,0.0038
1791.00,0.0036
1790.00,0.0036
1789.00,0.0036
1788.00,0.0037
1787.00,0.0038
1786.00,0.0038
1785.00,0.0037
1784.00,0.0037
1783.00,0.0037
1782.00,0.0037
1781.00,0.0037
1780.00,0.0037
1779.00,0.0037
1778.00,0.0037
1777.00,0.0038
1776.00,0.0039
1775.00,0.0040
1774.00,0.0041
1773.00,0.0041
1772.00,0.0039
1771.00,0.0038
1770.00,0.0038
1769.00,0.0038
1768.00,0.0038
1767.00,0.0038
1766.00,0.0038
1765.00,0.0040
1764.00,0.0042
1763.00,0.0042
1762.00,0.0042
1761.00,0.0042
1760.00,0.0042
1759.00,0.0044
1758.00,0.0045
1757.00,0.0046
1756.00,0.0046
1755.00,0.0047
1754.00,0.0049
1753.00,0.0051
1752.00,0.0052
1751.00,0.0052
1750.00,0.0053
1749.00,0.0054
1748.00,0.0056
1747.00,0.0059
1746.00,0.0061
1745.00,0.0063
1744.00,0.0066
1743.00,0.0068
1742.00,0.0071
1741.00,0.0073
1740.00,0.0075
1739.00,0.0077
1738.00,0.0081
1737.00,0.0085
1736.00,0.0089
1735.00,0.0091
1734.00,0.0091
1733.00,0.0091
1732.00,0.0093
1731.00,0.0095
1730.00,0.0097
1729.00,0.0098
1728.00,0.0099
1727.00,0.0101
1726.00,0.0102
1725.00,0.0103
1724.00,0.0103
1723.00,0.0103
1722.00,0.0104
1721.00,0.0106
1720.00,0.0108
1719.00,0.0108
1718.00,0.0108
1717.00,0.0106
1716.00,0.0104
1715.00,0.0103
1714.00,0.0102
1713.00,0.0102
1712.00,0.0102
1711.00,0.0103
1710.00,0.0104
1709.00,0.0105
1708.00,0.0106
1707.00,0.0108
1706.00,0.0110
1705.00,0.0113
1704.00,0.0117
1703.00,0.0121
1702.00,0.0125
1701.00,0.0127
1700.00,0.0130
1699.00,0.0135
1698.00,0.0140
1697.00,0.0146
1696.00,0.0149
1695.00,0.0150
1694.00,0.0151
1693.00,0.0154
1692.00,0.0159
1691.00,0.0163
1690.00,0.0168
1689.00,0.0173
1688.00,0.0179
1687.00,0.0185
1686.00,0.0190
1685.00,0.0194
1684.00,0.0199
1683.00,0.0203
1682.00,0.0206
1681.00,0.0210
1680.00,0.0215
1679.00,0.0221
1678.00,0.0226
1677.00,0.0231
1676.00,0.0235
1675.00,0.0240
1674.00,0.0246
1673.00,0.0251
1672.00,0.0257
1671.00,0.0263
1670.00,0.0269
1669.00,0.0275
1668.00,0.0280
1667.00,0.0286
1666.00,0.0291
1665.00,0.0297
1664.00,0.0303
1663.00,0.0310
1662.00,0.0318
1661.00,0.0324
1660.00,0.0331
1659.00,0.0337
1658.00,0.0344
1657.00,0.0351
1656.00,0.0358
1655.00,0.0365
1654.00,0.0372
1653.00,0.0379
1652.00,0.0382
1651.00,0.0381
1650.00,0.0381
1649.00,0.0381
1648.00,0.0381
1647.00,0.0382
1646.00,0.0380
1645.00,0.0376
1644.00,0.0372
1643.00,0.0368
1642.00,0.0364
1641.00,0.0360
1640.00,0.0357
1639.00,0.0354
1638.00,0.0352
1637.00,0.0351
1636.00,0.0351
1635.00,0.0351
1634.00,0.0351
1633.00,0.0349
1632.00,0.0348
1631.00,0.0347
1630.00,0.0348
1629.00,0.0351
1628.00,0.0355
1627.00,0.0360
1626.00,0.0364
1625.00,0.0366
1624.00,0.0369
1623.00,0.0372
1622.00,0.0373
1621.00,0.0373
1620.00,0.0370
1619.00,0.0368
1618.00,0.0364
1617.00,0.0359
1616.00,0.0353
1615.00,0.0346
1614.00,0.0339
1613.00,0.0332
1612.00,0.0324
1611.00,0.0316
1610.00,0.0308
1609.00,0.0300
1608.00,0.0291
1607.00,0.0283
1606.00,0.0276
1605.00,0.0268
1604.00,0.0260
1603.00,0.0253
1602.00,0.0247
1601.00,0.0240
1600.00,0.0234
1599.00,0.0228
1598.00,0.0222
1597.00,0.0217
1596.00,0.0211
1595.00,0.0206
1594.00,0.0200
1593.00,0.0195
1592.00,0.0188
1591.00,0.0181
1590.00,0.0175
1589.00,0.0169
1588.00,0.0162
1587.00,0.0156
1586.00,0.0150
1585.00,0.0145
1584.00,0.0140
1583.00,0.0136
1582.00,0.0132
1581.00,0.0130
1580.00,0.0127
1579.00,0.0126
1578.00,0.0125
1577.00,0.0125
1576.00,0.0125
1575.00,0.0126
1574.00,0.0126
1573.00,0.0126
1572.00,0.0127
1571.00,0.0128
1570.00,0.0132
1569.00,0.0138
1568.00,0.0143
1567.00,0.0147
1566.00,0.0152
1565.00,0.0158
1564.00,0.0164
1563.00,0.0171
1562.00,0.0178
1561.00,0.0183
1560.00,0.0190
1559.00,0.0205
1558.00,0.0221
1557.00,0.0230
1556.00,0.0236
1555.00,0.0243
1554.00,0.0251
1553.00,0.0260
1552.00,0.0267
1551.00,0.0275
1550.00,0.0283
1549.00,0.0292
1548.00,0.0299
1547.00,0.0305
1546.00,0.0311
1545.00,0.0317
1544.00,0.0324
1543.00,0.0331
1542.00,0.0338
1541.00,0.0344
1540.00,0.0349
1539.00,0.0352
1538.00,0.0352
1537.00,0.0353
1536.00,0.0353
1535.00,0.0354
1534.00,0.0355
1533.00,0.0358
1532.00,0.0359
1531.00,0.0359
1530.00,0.0359
1529.00,0.0358
1528.00,0.0358
1527.00,0.0358
1526.00,0.0358
1525.00,0.0358
1524.00,0.0358
1523.00,0.0359
1522.00,0.0360
1521.00,0.0362
1520.00,0.0363
1519.00,0.0364
1518.00,0.0366
1517.00,0.0368
1516.00,0.0370
1515.00,0.0371
1514.00,0.0369
1513.00,0.0367
1512.00,0.0363
1511.00,0.0360
1510.00,0.0357
1509.00,0.0353
1508.00,0.0349
1507.00,0.0344
1506.00,0.0336
1505.00,0.0326
1504.00,0.0319
1503.00,0.0314
1502.00,0.0308
1501.00,0.0303
1500.00,0.0297
1499.00,0.0292
1498.00,0.0286
1497.00,0.0280
1496.00,0.0272
1495.00,0.0265
1494.00,0.0259
1493.00,0.0254
1492.00,0.0248
1491.00,0.0241
1490.00,0.0235
1489.00,0.0230
1488.00,0.0224
1487.00,0.0219
1486.00,0.0214
1485.00,0.0209
1484.00,0.0205
1483.00,0.0201
1482.00,0.0198
1481.00,0.0195
1480.00,0.0192
1479.00,0.0189
1478.00,0.0187
1477.00,0.0186
1476.00,0.0185
1475.00,0.0186
1474.00,0.0186
1473.00,0.0187
1472.00,0.0188
1471.00,0.0188
1470.00,0.0188
1469.00,0.0188
1468.00,0.0188
1467.00,0.0188
1466.00,0.0188
1465.00,0.0189
1464.00,0.0189
1463.00,0.0189
1462.00,0.0189
1461.00,0.0189
1460.00,0.0190
1459.00,0.0190
1458.00,0.0191
1457.00,0.0190
1456.00,0.0188
1455.00,0.0186
1454.00,0.0184
1453.00,0.0182
1452.00,0.0180
1451.00,0.0177
1450.00,0.0174
1449.00,0.0171
1448.00,0.0167
1447.00,0.0165
1446.00,0.0162
1445.00,0.0159
1444.00,0.0156
1443.00,0.0153
1442.00,0.0151
1441.00,0.0150
1440.00,0.0150
1439.00,0.0149
1438.00,0.0150
1437.00,0.0150
1436.00,0.0152
1435.00,0.0154
1434.00,0.0155
1433.00,0.0155
1432.00,0.0155
1431.00,0.0157
1430.00,0.0159
1429.00,0.0161
1428.00,0.0163
1427.00,0.0165
1426.00,0.0167
1425.00,0.0168
1424.00,0.0170
1423.00,0.0172
1422.00,0.0174
1421.00,0.0175
1420.00,0.0175
1419.00,0.0176
1418.00,0.0178
1417.00,0.0179
1416.00,0.0179
1415.00,0.0180
1414.00,0.0180
1413.00,0.0181
1412.00,0.0181
1411.00,0.0181
1410.00,0.0181
1409.00,0.0181
1408.00,0.0180
1407.00,0.0180
1406.00,0.0179
1405.00,0.0178
1404.00,0.0177
1403.00,0.0176
1402.00,0.0174
1401.00,0.0173
1400.00,0.0171
1399.00,0.0170
1398.00,0.0169
1397.00,0.0169
1396.00,0.0169
1395.00,0.0170
1394.00,0.0170
1393.00,0.0171
1392.00,0.0172
1391.00,0.0173
1390.00,0.0175
1389.00,0.0176
1388.00,0.0177
1387.00,0.0178
1386.00,0.0178
1385.00,0.0178
1384.00,0.0177
1383.00,0.0175
1382.00,0.0172
1381.00,0.0169
1380.00,0.0166
1379.00,0.0162
1378.00,0.0159
1377.00,0.0157
1376.00,0.0156
1375.00,0.0157
1374.00,0.0159
1373.00,0.0162
1372.00,0.0164
1371.00,0.0165
1370.00,0.0165
1369.00,0.0165
1368.00,0.0164
1367.00,0.0162
1366.00,0.0161
1365.00,0.0160
1364.00,0.0160
1363.00,0.0160
1362.00,0.0161
1361.00,0.0161
1360.00,0.0161
1359.00,0.0161
1358.00,0.0160
1357.00,0.0159
1356.00,0.0158
1355.00,0.0156
1354.00,0.0154
1353.00,0.0152
1352.00,0.0150
1351.00,0.0148
1350.00,0.0147
1349.00,0.0146
1348.00,0.0146
1347.00,0.0147
1346.00,0.0149
1345.00,0.0150
1344.00,0.0152
1343.00,0.0153
1342.00,0.0155
1341.00,0.0155
1340.00,0.0155
1339.00,0.0155
1338.00,0.0154
1337.00,0.0153
1336.00,0.0151
1335.00,0.0151
1334.00,0.0151
1333.00,0.0152
1332.00,0.0154
1331.00,0.0156
1330.00,0.0157
1329.00,0.0158
1328.00,0.0158
1327.00,0.0157
1326.00,0.0156
1325.00,0.0154
1324.00,0.0151
1323.00,0.0148
1322.00,0.0145
1321.00,0.0142
1320.00,0.0138
1319.00,0.0135
1318.00,0.0134
1317.00,0.0134
1316.00,0.0136
1315.00,0.0139
1314.00,0.0143
1313.00,0.0148
1312.00,0.0152
1311.00,0.0156
1310.00,0.0159
1309.00,0.0161
1308.00,0.0161
1307.00,0.0161
1306.00,0.0161
1305.00,0.0160
1304.00,0.0161
1303.00,0.0162
1302.00,0.0164
1301.00,0.0166
1300.00,0.0168
1299.00,0.0170
1298.00,0.0171
1297.00,0.0172
1296.00,0.0173
1295.00,0.0174
1294.00,0.0174
1293.00,0.0174
1292.00,0.0174
1291.00,0.0173
1290.00,0.0172
1289.00,0.0170
1288.00,0.0168
1287.00,0.0166
1286.00,0.0165
1285.00,0.0163
1284.00,0.0160
1283.00,0.0158
1282.00,0.0156
1281.00,0.0154
1280.00,0.0153
1279.00,0.0152
1278.00,0.0154
1277.00,0.0157
1276.00,0.0160
1275.00,0.0165
1274.00,0.0170
1273.00,0.0174
1272.00,0.0178
1271.00,0.0182
1270.00,0.0186
1269.00,0.0189
1268.00,0.0192
1267.00,0.0195
1266.00,0.0198
1265.00,0.0200
1264.00,0.0203
1263.00,0.0205
1262.00,0.0207
1261.00,0.0208
1260.00,0.0210
1259.00,0.0210
1258.00,0.0211
1257.00,0.0211
1256.00,0.0209
1255.00,0.0208
1254.00,0.0206
1253.00,0.0205
1252.00,0.0203
1251.00,0.0203
1250.00,0.0203
1249.00,0.0203
1248.00,0.0201
1247.00,0.0200
1246.00,0.0197
1245.00,0.0194
1244.00,0.0191
1243.00,0.0191
1242.00,0.0192
1241.00,0.0196
1240.00,0.0200
1239.00,0.0206
1238.00,0.0212
1237.00,0.0217
1236.00,0.0222
1235.00,0.0226
1234.00,0.0230
1233.00,0.0231
1232.00,0.0232
1231.00,0.0231
1230.00,0.0229
1229.00,0.0227
1228.00,0.0226
1227.00,0.0225
1226.00,0.0226
1225.00,0.0228
1224.00,0.0229
1223.00,0.0230
1222.00,0.0231
1221.00,0.0230
1220.00,0.0229
1219.00,0.0228
1218.00,0.0227
1217.00,0.0227
1216.00,0.0227
1215.00,0.0227
1214.00,0.0227
1213.00,0.0226
1212.00,0.0225
1211.00,0.0223
1210.00,0.0219
1209.00,0.0214
1208.00,0.0208
1207.00,0.0200
1206.00,0.0193
1205.00,0.0188
1204.00,0.0186
1203.00,0.0186
1202.00,0.0190
1201.00,0.0196
1200.00,0.0202
1199.00,0.0207
1198.00,0.0212
1197.00,0.0216
1196.00,0.0219
1195.00,0.0221
1194.00,0.0223
1193.00,0.0223
1192.00,0.0223
1191.00,0.0223
1190.00,0.0223
1189.00,0.0224
1188.00,0.0224
1187.00,0.0224
1186.00,0.0225
1185.00,0.0226
1184.00,0.0227
1183.00,0.0228
1182.00,0.0229
1181.00,0.0230
1180.00,0.0229
1179.00,0.0229
1178.00,0.0227
1177.00,0.0226
1176.00,0.0223
1175.00,0.0221
1174.00,0.0218
1173.00,0.0215
1172.00,0.0212
1171.00,0.0210
1170.00,0.0209
1169.00,0.0211
1168.00,0.0215
1167.00,0.0219
1166.00,0.0224
1165.00,0.0229
1164.00,0.0232
1163.00,0.0236
1162.00,0.0239
1161.00,0.0241
1160.00,0.0242
1159.00,0.0243
1158.00,0.0244
1157.00,0.0244
1156.00,0.0243
1155.00,0.0242
1154.00,0.0240
1153.00,0.0237
1152.00,0.0233
1151.00,0.0226
1150.00,0.0219
1149.00,0.0211
1148.00,0.0206
1147.00,0.0205
1146.00,0.0208
1145.00,0.0215
1144.00,0.0221
1143.00,0.0227
1142.00,0.0231
1141.00,0.0233
1140.00,0.0234
1139.00,0.0234
1138.00,0.0234
1137.00,0.0234
1136.00,0.0233
1135.00,0.0233
1134.00,0.0234
1133.00,0.0235
1132.00,0.0235
1131.00,0.0236
1130.00,0.0238
1129.00,0.0239
1128.00,0.0239
1127.00,0.0240
1126.00,0.0241
1125.00,0.0242
1124.00,0.0242
1123.00,0.0243
1122.00,0.0243
1121.00,0.0243
1120.00,0.0243
1119.00,0.0243
1118.00,0.0243
1117.00,0.0244
1116.00,0.0244
1115.00,0.0244
1114.00,0.0245
1113.00,0.0245
1112.00,0.0244
1111.00,0.0244
1110.00,0.0244
1109.00,0.0243
1108.00,0.0242
1107.00,0.0242
1106.00,0.0241
1105.00,0.0241
1104.00,0.0240
1103.00,0.0238
1102.00,0.0237
1101.00,0.0236
1100.00,0.0235
1099.00,0.0234
1098.00,0.0235
1097.00,0.0236
1096.00,0.0237
1095.00,0.0238
1094.00,0.0240
1093.00,0.0241
1092.00,0.0242
1091.00,0.0243
1090.00,0.0244
1089.00,0.0246
1088.00,0.0247
1087.00,0.0248
1086.00,0.0250
1085.00,0.0250
1084.00,0.0251
1083.00,0.0251
1082.00,0.0252
1081.00,0.0253
1080.00,0.0253
1079.00,0.0254
1078.00,0.0256
1077.00,0.0257
1076.00,0.0258
1075.00,0.0258
1074.00,0.0259
1073.00,0.0259
1072.00,0.0259
1071.00,0.0259
1070.00,0.0258
1069.00,0.0258
1068.00,0.0257
1067.00,0.0257
1066.00,0.0256
1065.00,0.0256
1064.00,0.0255
1063.00,0.0253
1062.00,0.0252
1061.00,0.0250
1060.00,0.0247
1059.00,0.0244
1058.00,0.0240
1057.00,0.0236
1056.00,0.0231
1055.00,0.0225
1054.00,0.0221
1053.00,0.0219
1052.00,0.0219
1051.00,0.0223
1050.00,0.0229
1049.00,0.0235
1048.00,0.0239
1047.00,0.0242
1046.00,0.0244
1045.00,0.0244
1044.00,0.0243
1043.00,0.0241
1042.00,0.0239
1041.00,0.0237
1040.00,0.0234
1039.00,0.0230
1038.00,0.0225
1037.00,0.0220
1036.00,0.0214
1035.00,0.0209
1034.00,0.0205
1033.00,0.0202
1032.00,0.0200
1031.00,0.0200
1030.00,0.0201
1029.00,0.0204
1028.00,0.0209
1027.00,0.0215
1026.00,0.0221
1025.00,0.0227
1024.00,0.0231
1023.00,0.0234
1022.00,0.0237
1021.00,0.0238
1020.00,0.0239
1019.00,0.0240
1018.00,0.0241
1017.00,0.0241
1016.00,0.0242
1015.00,0.0242
1014.00,0.0242
1013.00,0.0242
1012.00,0.0240
1011.00,0.0238
1010.00,0.0237
1009.00,0.0235
1008.00,0.0234
1007.00,0.0232
1006.00,0.0232
1005.00,0.0231
1004.00,0.0229
1003.00,0.0227
1002.00,0.0225
1001.00,0.0221
1000.00,0.0217
999.00,0.0213
998.00,0.0210
997.00,0.0210
996.00,0.0211
995.00,0.0212
994.00,0.0214
993.00,0.0215
992.00,0.0215
991.00,0.0213
990.00,0.0212
989.00,0.0211
988.00,0.0209
987.00,0.0207
986.00,0.0206
985.00,0.0205
984.00,0.0203
983.00,0.0202
982.00,0.0202
981.00,0.0202
980.00,0.0202
979.00,0.0202
978.00,0.0201
977.00,0.0201
976.00,0.0199
975.00,0.0198
974.00,0.0197
973.00,0.0195
972.00,0.0193
971.00,0.0192
970.00,0.0191
969.00,0.0190
968.00,0.0188
967.00,0.0187
966.00,0.0186
965.00,0.0185
964.00,0.0184
963.00,0.0182
962.00,0.0180
961.00,0.0179
960.00,0.0177
959.00,0.0175
958.00,0.0174
957.00,0.0173
956.00,0.0172
955.00,0.0172
954.00,0.0172
953.00,0.0172
952.00,0.0172
951.00,0.0173
950.00,0.0173
949.00,0.0174
948.00,0.0175
947.00,0.0175
946.00,0.0176
945.00,0.0176
944.00,0.0176
943.00,0.0176
942.00,0.0176
941.00,0.0177
940.00,0.0178
939.00,0.0179
938.00,0.0180
937.00,0.0182
936.00,0.0183
935.00,0.0184
934.00,0.0186
933.00,0.0186
932.00,0.0186
931.00,0.0186
930.00,0.0185
929.00,0.0185
928.00,0.0184
927.00,0.0183
926.00,0.0182
925.00,0.0181
924.00,0.0180
923.00,0.0179
922.00,0.0179
921.00,0.0178
920.00,0.0176
919.00,0.0175
918.00,0.0173
917.00,0.0172
916.00,0.0171
915.00,0.0170
914.00,0.0169
913.00,0.0169
912.00,0.0169
911.00,0.0171
910.00,0.0173
909.00,0.0175
908.00,0.0176
907.00,0.0176
906.00,0.0176
905.00,0.0174
904.00,0.0172
903.00,0.0169
902.00,0.0168
901.00,0.0166
900.00,0.0166
899.00,0.0166
898.00,0.0167
897.00,0.0168
896.00,0.0168
895.00,0.0167
894.00,0.0164
893.00,0.0159
892.00,0.0150
891.00,0.0139
890.00,0.0131
889.00,0.0126
888.00,0.0124
887.00,0.0125
886.00,0.0126
885.00,0.0125
884.00,0.0125
883.00,0.0129
882.00,0.0136
881.00,0.0144
880.00,0.0150
879.00,0.0155
878.00,0.0158
877.00,0.0160
876.00,0.0161
875.00,0.0162
874.00,0.0163
873.00,0.0163
872.00,0.0163
871.00,0.0162
870.00,0.0162
869.00,0.0161
868.00,0.0159
867.00,0.0157
866.00,0.0154
865.00,0.0151
864.00,0.0146
863.00,0.0140
862.00,0.0135
861.00,0.0131
860.00,0.0129
859.00,0.0129
858.00,0.0130
857.00,0.0132
856.00,0.0133
855.00,0.0135
854.00,0.0138
853.00,0.0140
852.00,0.0143
851.00,0.0145
850.00,0.0148
849.00,0.0150
848.00,0.0151
847.00,0.0151
846.00,0.0152
845.00,0.0152
844.00,0.0151
843.00,0.0151
842.00,0.0151
841.00,0.0151
840.00,0.0149
839.00,0.0148
838.00,0.0149
837.00,0.0151
836.00,0.0154
835.00,0.0159
834.00,0.0164
833.00,0.0167
832.00,0.0170
831.00,0.0171
830.00,0.0172
829.00,0.0172
828.00,0.0171
827.00,0.0171
826.00,0.0174
825.00,0.0178
824.00,0.0181
823.00,0.0183
822.00,0.0185
821.00,0.0187
820.00,0.0187
819.00,0.0188
818.00,0.0189
817.00,0.0189
816.00,0.0190
815.00,0.0190
814.00,0.0191
813.00,0.0191
812.00,0.0191
811.00,0.0190
810.00,0.0190
809.00,0.0189
808.00,0.0187
807.00,0.0184
806.00,0.0181
805.00,0.0177
804.00,0.0173
803.00,0.0171
802.00,0.0172
801.00,0.0173
800.00,0.0175
799.00,0.0176
798.00,0.0177
797.00,0.0176
796.00,0.0176
795.00,0.0175
794.00,0.0177
793.00,0.0179
792.00,0.0182
791.00,0.0186
790.00,0.0190
789.00,0.0195
788.00,0.0198
787.00,0.0201
786.00,0.0203
785.00,0.0205
784.00,0.0207
783.00,0.0208
782.00,0.0210
781.00,0.0211
780.00,0.0212
779.00,0.0212
778.00,0.0213
777.00,0.0213
776.00,0.0212
775.00,0.0212
774.00,0.0212
773.00,0.0211
772.00,0.0210
771.00,0.0210
770.00,0.0211
769.00,0.0212
768.00,0.0213
767.00,0.0214
766.00,0.0216
765.00,0.0218
764.00,0.0220
763.00,0.0221
762.00,0.0223
761.00,0.0225
760.00,0.0226
759.00,0.0227
758.00,0.0228
757.00,0.0229
756.00,0.0230
755.00,0.0231
754.00,0.0232
753.00,0.0234
752.00,0.0237
751.00,0.0239
750.00,0.0242
749.00,0.0245
748.00,0.0246
747.00,0.0247
746.00,0.0248
745.00,0.0249
744.00,0.0248
743.00,0.0249
742.00,0.0249
741.00,0.0249
740.00,0.0248
739.00,0.0247
738.00,0.0246
737.00,0.0244
736.00,0.0242
735.00,0.0240
734.00,0.0238
733.00,0.0238
732.00,0.0239
731.00,0.0242
730.00,0.0247
729.00,0.0252
728.00,0.0256
727.00,0.0259
726.00,0.0262
725.00,0.0264
724.00,0.0266
723.00,0.0268
722.00,0.0271
721.00,0.0273
720.00,0.0275
719.00,0.0277
718.00,0.0279
717.00,0.0281
716.00,0.0282
715.00,0.0284
714.00,0.0286
713.00,0.0289
712.00,0.0290
711.00,0.0292
710.00,0.0295
709.00,0.0298
708.00,0.0300
707.00,0.0303
706.00,0.0306
705.00,0.0310
704.00,0.0312
703.00,0.0315
702.00,0.0318
701.00,0.0321
700.00,0.0323
699.00,0.0325
698.00,0.0326
697.00,0.0327
696.00,0.0326
695.00,0.0325
694.00,0.0325
693.00,0.0325
692.00,0.0324
691.00,0.0323
690.00,0.0323
689.00,0.0323
688.00,0.0323
687.00,0.0324
686.00,0.0324
685.00,0.0324
684.00,0.0323
683.00,0.0323
682.00,0.0323
681.00,0.0324
680.00,0.0325
679.00,0.0326
678.00,0.0328
677.00,0.0330
676.00,0.0330
675.00,0.0331
674.00,0.0332
673.00,0.0333
672.00,0.0334
671.00,0.0336
670.00,0.0338
669.00,0.0343
668.00,0.0349
667.00,0.0353
666.00,0.0355
665.00,0.0355
664.00,0.0354
663.00,0.0355
662.00,0.0358
661.00,0.0359
660.00,0.0360
659.00,0.0360
658.00,0.0361
657.00,0.0362
656.00,0.0363
655.00,0.0364
654.00,0.0366
653.00,0.0368
652.00,0.0369
651.00,0.0369
650.00,0.0369
649.00,0.0369
648.00,0.0369
647.00,0.0370
646.00,0.0372
645.00,0.0374
644.00,0.0375
643.00,0.0376
642.00,0.0378
641.00,0.0379
640.00,0.0379
639.00,0.0379
638.00,0.0380
637.00,0.0381
636.00,0.0381
635.00,0.0382
634.00,0.0384
633.00,0.0386
632.00,0.0388
631.00,0.0390
630.00,0.0393
629.00,0.0396
628.00,0.0398
627.00,0.0400
626.00,0.0403
625.00,0.0405
624.00,0.0406
623.00,0.0407
622.00,0.0409
621.00,0.0411
620.00,0.0412
619.00,0.0412
618.00,0.0413
617.00,0.0413
616.00,0.0413
615.00,0.0413
614.00,0.0414
613.00,0.0414
612.00,0.0415
611.00,0.0416
610.00,0.0417
609.00,0.0418
608.00,0.0418
607.00,0.0417
606.00,0.0419
605.00,0.0421
604.00,0.0421
603.00,0.0422
602.00,0.0424
601.00,0.0425
600.00,0.0425
599.00,0.0425
598.00,0.0425
597.00,0.0426
596.00,0.0426
595.00,0.0426
594.00,0.0428
593.00,0.0429
592.00,0.0430
591.00,0.0431
590.00,0.0433
589.00,0.0435
588.00,0.0435
587.00,0.0435
586.00,0.0436
585.00,0.0436
584.00,0.0435
583.00,0.0434
582.00,0.0433
581.00,0.0431
580.00,0.0427
579.00,0.0423
578.00,0.0422
577.00,0.0424
576.00,0.0428
575.00,0.0435
574.00,0.0444
573.00,0.0452
572.00,0.0457
571.00,0.0459
570.00,0.0461
569.00,0.0461
568.00,0.0460
567.00,0.0460
566.00,0.0462
565.00,0.0464
564.00,0.0465
563.00,0.0465
562.00,0.0465
561.00,0.0465
560.00,0.0464
559.00,0.0463
558.00,0.0463
557.00,0.0463
556.00,0.0461
555.00,0.0457
554.00,0.0454
553.00,0.0450
552.00,0.0446
551.00,0.0446
550.00,0.0451
549.00,0.0458
548.00,0.0464
547.00,0.0469
546.00,0.0474
545.00,0.0476
544.00,0.0475
543.00,0.0474
542.00,0.0475
541.00,0.0477
540.00,0.0478
539.00,0.0478
538.00,0.0479
537.00,0.0477
536.00,0.0474
535.00,0.0471
534.00,0.0471
533.00,0.0473
532.00,0.0477
531.00,0.0481
530.00,0.0487
529.00,0.0490
528.00,0.0488
527.00,0.0484
526.00,0.0482
525.00,0.0481
524.00,0.0481
523.00,0.0482
522.00,0.0485
521.00,0.0487
520.00,0.0488
519.00,0.0491
518.00,0.0496
517.00,0.0500
516.00,0.0501
515.00,0.0503
514.00,0.0507
513.00,0.0510
512.00,0.0509
511.00,0.0508
510.00,0.0507
509.00,0.0507
508.00,0.0503
507.00,0.0500
506.00,0.0498
505.00,0.0496
504.00,0.0493
503.00,0.0491
502.00,0.0493
501.00,0.0494
500.00,0.0492
499.00,0.0490
498.00,0.0489
497.00,0.0487
496.00,0.0483
495.00,0.0478
494.00,0.0474
493.00,0.0470
492.00,0.0465
491.00,0.0463
490.00,0.0464
489.00,0.0465
488.00,0.0463
487.00,0.0460
486.00,0.0462
485.00,0.0462
484.00,0.0459
483.00,0.0455
482.00,0.0454
481.00,0.0454
480.00,0.0454
479.00,0.0456
478.00,0.0459
477.00,0.0461
476.00,0.0458
475.00,0.0456
474.00,0.0458
473.00,0.0462
472.00,0.0463
471.00,0.0463
470.00,0.0467
469.00,0.0471
468.00,0.0473
467.00,0.0474
466.00,0.0478
465.00,0.0480
464.00,0.0477
463.00,0.0474
462.00,0.0476
461.00,0.0478
460.00,0.0479
459.00,0.0482
458.00,0.0488
457.00,0.0491
456.00,0.0489
455.00,0.0489
454.00,0.0494
453.00,0.0498
452.00,0.0496
451.00,0.0492
450.00,0.0492
449.00,0.0491
448.00,0.0488
447.00,0.0487
446.00,0.0492
445.00,0.0497
444.00,0.0499
443.00,0.0499
442.00,0.0501
441.00,0.0501
440.00,0.0496
439.00,0.0493
438.00,0.0495
437.00,0.0498
436.00,0.0496
435.00,0.0493
434.00,0.0494
433.00,0.0494
432.00,0.0491
431.00,0.0489
430.00,0.0494
429.00,0.0499
428.00,0.0501
427.00,0.0505
426.00,0.0513
425.00,0.0516
424.00,0.0511
423.00,0.0507
422.00,0.0509
421.00,0.0511
420.00,0.0506
419.00,0.0503
418.00,0.0509
417.00,0.0511
416.00,0.0500
415.00,0.0491
414.00,0.0492
413.00,0.0496
412.00,0.0494
411.00,0.0493
410.00,0.0499
409.00,0.0504
408.00,0.0498
407.00,0.0492
406.00,0.0496
405.00,0.0498
404.00,0.0490
403.00,0.0483
402.00,0.0489
401.00,0.0495
400.00,0.0491
