Created as New Dataset,Sample 607 By YargerLab Date Thursday, June 05 2025
cm-1,A
4000.00,0.0053
3999.00,0.0053
3998.00,0.0053
3997.00,0.0053
3996.00,0.0053
3995.00,0.0053
3994.00,0.0053
3993.00,0.0053
3992.00,0.0053
3991.00,0.0052
3990.00,0.0052
3989.00,0.0052
3988.00,0.0052
3987.00,0.0052
3986.00,0.0053
3985.00,0.0053
3984.00,0.0053
3983.00,0.0053
3982.00,0.0053
3981.00,0.0053
3980.00,0.0053
3979.00,0.0053
3978.00,0.0052
3977.00,0.0052
3976.00,0.0052
3975.00,0.0053
3974.00,0.0053
3973.00,0.0053
3972.00,0.0053
3971.00,0.0053
3970.00,0.0053
3969.00,0.0052
3968.00,0.0052
3967.00,0.0052
3966.00,0.0052
3965.00,0.0052
3964.00,0.0052
3963.00,0.0052
3962.00,0.0052
3961.00,0.0052
3960.00,0.0052
3959.00,0.0052
3958.00,0.0053
3957.00,0.0053
3956.00,0.0053
3955.00,0.0053
3954.00,0.0053
3953.00,0.0053
3952.00,0.0053
3951.00,0.0053
3950.00,0.0052
3949.00,0.0052
3948.00,0.0052
3947.00,0.0052
3946.00,0.0052
3945.00,0.0052
3944.00,0.0052
3943.00,0.0052
3942.00,0.0052
3941.00,0.0052
3940.00,0.0052
3939.00,0.0052
3938.00,0.0052
3937.00,0.0052
3936.00,0.0052
3935.00,0.0052
3934.00,0.0052
3933.00,0.0052
3932.00,0.0052
3931.00,0.0052
3930.00,0.0052
3929.00,0.0052
3928.00,0.0052
3927.00,0.0052
3926.00,0.0052
3925.00,0.0052
3924.00,0.0052
3923.00,0.0052
3922.00,0.0052
3921.00,0.0052
3920.00,0.0052
3919.00,0.0051
3918.00,0.0051
3917.00,0.0051
3916.00,0.0051
3915.00,0.0051
3914.00,0.0051
3913.00,0.0052
3912.00,0.0052
3911.00,0.0052
3910.00,0.0052
3909.00,0.0052
3908.00,0.0052
3907.00,0.0052
3906.00,0.0051
3905.00,0.0051
3904.00,0.0051
3903.00,0.0051
3902.00,0.0050
3901.00,0.0050
3900.00,0.0050
3899.00,0.0050
3898.00,0.0051
3897.00,0.0051
3896.00,0.0051
3895.00,0.0051
3894.00,0.0051
3893.00,0.0051
3892.00,0.0051
3891.00,0.0051
3890.00,0.0051
3889.00,0.0051
3888.00,0.0050
3887.00,0.0050
3886.00,0.0050
3885.00,0.0050
3884.00,0.0050
3883.00,0.0050
3882.00,0.0050
3881.00,0.0050
3880.00,0.0050
3879.00,0.0050
3878.00,0.0050
3877.00,0.0050
3876.00,0.0050
3875.00,0.0050
3874.00,0.0050
3873.00,0.0050
3872.00,0.0050
3871.00,0.0049
3870.00,0.0049
3869.00,0.0049
3868.00,0.0050
3867.00,0.0049
3866.00,0.0049
3865.00,0.0049
3864.00,0.0049
3863.00,0.0049
3862.00,0.0049
3861.00,0.0049
3860.00,0.0049
3859.00,0.0050
3858.00,0.0050
3857.00,0.0051
3856.00,0.0051
3855.00,0.0050
3854.00,0.0049
3853.00,0.0049
3852.00,0.0048
3851.00,0.0048
3850.00,0.0048
3849.00,0.0048
3848.00,0.0048
3847.00,0.0049
3846.00,0.0049
3845.00,0.0049
3844.00,0.0049
3843.00,0.0049
3842.00,0.0049
3841.00,0.0049
3840.00,0.0049
3839.00,0.0049
3838.00,0.0049
3837.00,0.0049
3836.00,0.0049
3835.00,0.0049
3834.00,0.0049
3833.00,0.0049
3832.00,0.0049
3831.00,0.0049
3830.00,0.0049
3829.00,0.0050
3828.00,0.0049
3827.00,0.0049
3826.00,0.0050
3825.00,0.0049
3824.00,0.0049
3823.00,0.0049
3822.00,0.0048
3821.00,0.0049
3820.00,0.0049
3819.00,0.0048
3818.00,0.0048
3817.00,0.0048
3816.00,0.0048
3815.00,0.0049
3814.00,0.0049
3813.00,0.0050
3812.00,0.0050
3811.00,0.0050
3810.00,0.0050
3809.00,0.0050
3808.00,0.0049
3807.00,0.0049
3806.00,0.0049
3805.00,0.0049
3804.00,0.0049
3803.00,0.0048
3802.00,0.0049
3801.00,0.0049
3800.00,0.0049
3799.00,0.0048
3798.00,0.0048
3797.00,0.0048
3796.00,0.0049
3795.00,0.0049
3794.00,0.0050
3793.00,0.0050
3792.00,0.0050
3791.00,0.0051
3790.00,0.0051
3789.00,0.0051
3788.00,0.0050
3787.00,0.0050
3786.00,0.0050
3785.00,0.0050
3784.00,0.0050
3783.00,0.0050
3782.00,0.0050
3781.00,0.0050
3780.00,0.0050
3779.00,0.0050
3778.00,0.0050
3777.00,0.0050
3776.00,0.0050
3775.00,0.0050
3774.00,0.0050
3773.00,0.0050
3772.00,0.0050
3771.00,0.0050
3770.00,0.0050
3769.00,0.0050
3768.00,0.0050
3767.00,0.0050
3766.00,0.0049
3765.00,0.0049
3764.00,0.0049
3763.00,0.0049
3762.00,0.0049
3761.00,0.0049
3760.00,0.0049
3759.00,0.0049
3758.00,0.0049
3757.00,0.0049
3756.00,0.0049
3755.00,0.0048
3754.00,0.0048
3753.00,0.0048
3752.00,0.0047
3751.00,0.0047
3750.00,0.0046
3749.00,0.0045
3748.00,0.0045
3747.00,0.0045
3746.00,0.0045
3745.00,0.0045
3744.00,0.0046
3743.00,0.0046
3742.00,0.0046
3741.00,0.0045
3740.00,0.0045
3739.00,0.0044
3738.00,0.0044
3737.00,0.0044
3736.00,0.0044
3735.00,0.0045
3734.00,0.0045
3733.00,0.0046
3732.00,0.0046
3731.00,0.0046
3730.00,0.0047
3729.00,0.0047
3728.00,0.0047
3727.00,0.0047
3726.00,0.0047
3725.00,0.0047
3724.00,0.0047
3723.00,0.0047
3722.00,0.0048
3721.00,0.0048
3720.00,0.0048
3719.00,0.0048
3718.00,0.0048
3717.00,0.0048
3716.00,0.0048
3715.00,0.0048
3714.00,0.0047
3713.00,0.0047
3712.00,0.0047
3711.00,0.0047
3710.00,0.0046
3709.00,0.0046
3708.00,0.0047
3707.00,0.0047
3706.00,0.0047
3705.00,0.0048
3704.00,0.0048
3703.00,0.0048
3702.00,0.0048
3701.00,0.0048
3700.00,0.0048
3699.00,0.0048
3698.00,0.0048
3697.00,0.0048
3696.00,0.0048
3695.00,0.0048
3694.00,0.0048
3693.00,0.0048
3692.00,0.0048
3691.00,0.0048
3690.00,0.0048
3689.00,0.0047
3688.00,0.0047
3687.00,0.0047
3686.00,0.0047
3685.00,0.0047
3684.00,0.0048
3683.00,0.0048
3682.00,0.0048
3681.00,0.0048
3680.00,0.0048
3679.00,0.0048
3678.00,0.0047
3677.00,0.0047
3676.00,0.0047
3675.00,0.0047
3674.00,0.0047
3673.00,0.0047
3672.00,0.0046
3671.00,0.0046
3670.00,0.0047
3669.00,0.0047
3668.00,0.0048
3667.00,0.0048
3666.00,0.0048
3665.00,0.0049
3664.00,0.0050
3663.00,0.0050
3662.00,0.0051
3661.00,0.0051
3660.00,0.0051
3659.00,0.0052
3658.00,0.0052
3657.00,0.0052
3656.00,0.0052
3655.00,0.0052
3654.00,0.0052
3653.00,0.0051
3652.00,0.0051
3651.00,0.0051
3650.00,0.0052
3649.00,0.0052
3648.00,0.0052
3647.00,0.0052
3646.00,0.0053
3645.00,0.0053
3644.00,0.0054
3643.00,0.0055
3642.00,0.0056
3641.00,0.0057
3640.00,0.0058
3639.00,0.0058
3638.00,0.0058
3637.00,0.0058
3636.00,0.0059
3635.00,0.0059
3634.00,0.0060
3633.00,0.0061
3632.00,0.0061
3631.00,0.0061
3630.00,0.0061
3629.00,0.0061
3628.00,0.0062
3627.00,0.0062
3626.00,0.0063
3625.00,0.0063
3624.00,0.0064
3623.00,0.0065
3622.00,0.0065
3621.00,0.0066
3620.00,0.0066
3619.00,0.0066
3618.00,0.0067
3617.00,0.0067
3616.00,0.0067
3615.00,0.0067
3614.00,0.0067
3613.00,0.0068
3612.00,0.0068
3611.00,0.0069
3610.00,0.0069
3609.00,0.0070
3608.00,0.0070
3607.00,0.0071
3606.00,0.0072
3605.00,0.0072
3604.00,0.0073
3603.00,0.0074
3602.00,0.0074
3601.00,0.0075
3600.00,0.0076
3599.00,0.0076
3598.00,0.0076
3597.00,0.0076
3596.00,0.0076
3595.00,0.0077
3594.00,0.0077
3593.00,0.0077
3592.00,0.0078
3591.00,0.0078
3590.00,0.0078
3589.00,0.0079
3588.00,0.0080
3587.00,0.0080
3586.00,0.0081
3585.00,0.0081
3584.00,0.0082
3583.00,0.0083
3582.00,0.0083
3581.00,0.0084
3580.00,0.0085
3579.00,0.0085
3578.00,0.0086
3577.00,0.0086
3576.00,0.0086
3575.00,0.0087
3574.00,0.0087
3573.00,0.0088
3572.00,0.0088
3571.00,0.0088
3570.00,0.0088
3569.00,0.0089
3568.00,0.0089
3567.00,0.0090
3566.00,0.0090
3565.00,0.0091
3564.00,0.0091
3563.00,0.0091
3562.00,0.0092
3561.00,0.0093
3560.00,0.0094
3559.00,0.0095
3558.00,0.0096
3557.00,0.0097
3556.00,0.0097
3555.00,0.0098
3554.00,0.0098
3553.00,0.0099
3552.00,0.0099
3551.00,0.0099
3550.00,0.0099
3549.00,0.0100
3548.00,0.0100
3547.00,0.0100
3546.00,0.0101
3545.00,0.0102
3544.00,0.0102
3543.00,0.0103
3542.00,0.0103
3541.00,0.0104
3540.00,0.0105
3539.00,0.0105
3538.00,0.0106
3537.00,0.0107
3536.00,0.0108
3535.00,0.0108
3534.00,0.0108
3533.00,0.0108
3532.00,0.0109
3531.00,0.0109
3530.00,0.0110
3529.00,0.0110
3528.00,0.0111
3527.00,0.0111
3526.00,0.0112
3525.00,0.0112
3524.00,0.0113
3523.00,0.0113
3522.00,0.0114
3521.00,0.0114
3520.00,0.0115
3519.00,0.0115
3518.00,0.0115
3517.00,0.0116
3516.00,0.0116
3515.00,0.0117
3514.00,0.0117
3513.00,0.0118
3512.00,0.0118
3511.00,0.0118
3510.00,0.0119
3509.00,0.0119
3508.00,0.0120
3507.00,0.0120
3506.00,0.0121
3505.00,0.0121
3504.00,0.0122
3503.00,0.0122
3502.00,0.0123
3501.00,0.0123
3500.00,0.0124
3499.00,0.0124
3498.00,0.0125
3497.00,0.0125
3496.00,0.0126
3495.00,0.0126
3494.00,0.0126
3493.00,0.0127
3492.00,0.0127
3491.00,0.0128
3490.00,0.0128
3489.00,0.0129
3488.00,0.0129
3487.00,0.0130
3486.00,0.0130
3485.00,0.0130
3484.00,0.0130
3483.00,0.0131
3482.00,0.0131
3481.00,0.0132
3480.00,0.0132
3479.00,0.0132
3478.00,0.0133
3477.00,0.0133
3476.00,0.0133
3475.00,0.0134
3474.00,0.0134
3473.00,0.0134
3472.00,0.0135
3471.00,0.0135
3470.00,0.0135
3469.00,0.0135
3468.00,0.0135
3467.00,0.0135
3466.00,0.0135
3465.00,0.0135
3464.00,0.0134
3463.00,0.0134
3462.00,0.0133
3461.00,0.0133
3460.00,0.0132
3459.00,0.0131
3458.00,0.0130
3457.00,0.0129
3456.00,0.0128
3455.00,0.0127
3454.00,0.0127
3453.00,0.0127
3452.00,0.0127
3451.00,0.0128
3450.00,0.0129
3449.00,0.0131
3448.00,0.0134
3447.00,0.0137
3446.00,0.0141
3445.00,0.0144
3444.00,0.0147
3443.00,0.0150
3442.00,0.0153
3441.00,0.0156
3440.00,0.0158
3439.00,0.0159
3438.00,0.0160
3437.00,0.0161
3436.00,0.0162
3435.00,0.0163
3434.00,0.0164
3433.00,0.0164
3432.00,0.0165
3431.00,0.0165
3430.00,0.0166
3429.00,0.0167
3428.00,0.0168
3427.00,0.0168
3426.00,0.0169
3425.00,0.0170
3424.00,0.0170
3423.00,0.0171
3422.00,0.0171
3421.00,0.0172
3420.00,0.0173
3419.00,0.0173
3418.00,0.0174
3417.00,0.0175
3416.00,0.0176
3415.00,0.0176
3414.00,0.0177
3413.00,0.0178
3412.00,0.0178
3411.00,0.0179
3410.00,0.0180
3409.00,0.0181
3408.00,0.0181
3407.00,0.0182
3406.00,0.0182
3405.00,0.0183
3404.00,0.0184
3403.00,0.0185
3402.00,0.0185
3401.00,0.0186
3400.00,0.0187
3399.00,0.0188
3398.00,0.0188
3397.00,0.0189
3396.00,0.0190
3395.00,0.0190
3394.00,0.0190
3393.00,0.0191
3392.00,0.0192
3391.00,0.0193
3390.00,0.0194
3389.00,0.0195
3388.00,0.0195
3387.00,0.0196
3386.00,0.0197
3385.00,0.0198
3384.00,0.0199
3383.00,0.0200
3382.00,0.0201
3381.00,0.0202
3380.00,0.0202
3379.00,0.0203
3378.00,0.0204
3377.00,0.0205
3376.00,0.0205
3375.00,0.0206
3374.00,0.0207
3373.00,0.0208
3372.00,0.0209
3371.00,0.0210
3370.00,0.0211
3369.00,0.0212
3368.00,0.0213
3367.00,0.0214
3366.00,0.0215
3365.00,0.0216
3364.00,0.0217
3363.00,0.0219
3362.00,0.0220
3361.00,0.0221
3360.00,0.0222
3359.00,0.0223
3358.00,0.0224
3357.00,0.0225
3356.00,0.0226
3355.00,0.0227
3354.00,0.0227
3353.00,0.0229
3352.00,0.0230
3351.00,0.0231
3350.00,0.0233
3349.00,0.0234
3348.00,0.0235
3347.00,0.0237
3346.00,0.0238
3345.00,0.0239
3344.00,0.0240
3343.00,0.0241
3342.00,0.0242
3341.00,0.0243
3340.00,0.0244
3339.00,0.0245
3338.00,0.0247
3337.00,0.0248
3336.00,0.0250
3335.00,0.0252
3334.00,0.0254
3333.00,0.0255
3332.00,0.0257
3331.00,0.0258
3330.00,0.0259
3329.00,0.0261
3328.00,0.0262
3327.00,0.0264
3326.00,0.0265
3325.00,0.0267
3324.00,0.0269
3323.00,0.0271
3322.00,0.0272
3321.00,0.0274
3320.00,0.0275
3319.00,0.0277
3318.00,0.0279
3317.00,0.0281
3316.00,0.0282
3315.00,0.0284
3314.00,0.0286
3313.00,0.0288
3312.00,0.0289
3311.00,0.0291
3310.00,0.0292
3309.00,0.0293
3308.00,0.0294
3307.00,0.0296
3306.00,0.0298
3305.00,0.0300
3304.00,0.0302
3303.00,0.0305
3302.00,0.0307
3301.00,0.0309
3300.00,0.0311
3299.00,0.0312
3298.00,0.0313
3297.00,0.0314
3296.00,0.0316
3295.00,0.0317
3294.00,0.0318
3293.00,0.0320
3292.00,0.0322
3291.00,0.0323
3290.00,0.0325
3289.00,0.0326
3288.00,0.0328
3287.00,0.0329
3286.00,0.0330
3285.00,0.0331
3284.00,0.0332
3283.00,0.0333
3282.00,0.0334
3281.00,0.0334
3280.00,0.0335
3279.00,0.0335
3278.00,0.0335
3277.00,0.0335
3276.00,0.0335
3275.00,0.0334
3274.00,0.0334
3273.00,0.0333
3272.00,0.0332
3271.00,0.0332
3270.00,0.0331
3269.00,0.0331
3268.00,0.0330
3267.00,0.0329
3266.00,0.0328
3265.00,0.0327
3264.00,0.0326
3263.00,0.0325
3262.00,0.0324
3261.00,0.0322
3260.00,0.0321
3259.00,0.0319
3258.00,0.0317
3257.00,0.0315
3256.00,0.0313
3255.00,0.0312
3254.00,0.0310
3253.00,0.0309
3252.00,0.0307
3251.00,0.0305
3250.00,0.0304
3249.00,0.0302
3248.00,0.0300
3247.00,0.0298
3246.00,0.0297
3245.00,0.0295
3244.00,0.0294
3243.00,0.0293
3242.00,0.0291
3241.00,0.0290
3240.00,0.0288
3239.00,0.0287
3238.00,0.0285
3237.00,0.0283
3236.00,0.0281
3235.00,0.0280
3234.00,0.0278
3233.00,0.0277
3232.00,0.0277
3231.00,0.0276
3230.00,0.0275
3229.00,0.0274
3228.00,0.0273
3227.00,0.0272
3226.00,0.0270
3225.00,0.0269
3224.00,0.0268
3223.00,0.0267
3222.00,0.0267
3221.00,0.0266
3220.00,0.0265
3219.00,0.0264
3218.00,0.0263
3217.00,0.0262
3216.00,0.0261
3215.00,0.0260
3214.00,0.0260
3213.00,0.0259
3212.00,0.0258
3211.00,0.0257
3210.00,0.0256
3209.00,0.0255
3208.00,0.0254
3207.00,0.0253
3206.00,0.0252
3205.00,0.0252
3204.00,0.0251
3203.00,0.0250
3202.00,0.0250
3201.00,0.0249
3200.00,0.0248
3199.00,0.0247
3198.00,0.0246
3197.00,0.0245
3196.00,0.0244
3195.00,0.0243
3194.00,0.0242
3193.00,0.0241
3192.00,0.0241
3191.00,0.0240
3190.00,0.0239
3189.00,0.0238
3188.00,0.0237
3187.00,0.0236
3186.00,0.0235
3185.00,0.0235
3184.00,0.0234
3183.00,0.0233
3182.00,0.0232
3181.00,0.0231
3180.00,0.0230
3179.00,0.0229
3178.00,0.0228
3177.00,0.0227
3176.00,0.0226
3175.00,0.0225
3174.00,0.0225
3173.00,0.0224
3172.00,0.0223
3171.00,0.0223
3170.00,0.0222
3169.00,0.0221
3168.00,0.0220
3167.00,0.0219
3166.00,0.0218
3165.00,0.0217
3164.00,0.0216
3163.00,0.0215
3162.00,0.0214
3161.00,0.0213
3160.00,0.0212
3159.00,0.0211
3158.00,0.0210
3157.00,0.0209
3156.00,0.0208
3155.00,0.0207
3154.00,0.0206
3153.00,0.0206
3152.00,0.0205
3151.00,0.0204
3150.00,0.0203
3149.00,0.0203
3148.00,0.0202
3147.00,0.0201
3146.00,0.0200
3145.00,0.0199
3144.00,0.0198
3143.00,0.0197
3142.00,0.0196
3141.00,0.0195
3140.00,0.0195
3139.00,0.0194
3138.00,0.0193
3137.00,0.0193
3136.00,0.0193
3135.00,0.0192
3134.00,0.0192
3133.00,0.0191
3132.00,0.0191
3131.00,0.0190
3130.00,0.0189
3129.00,0.0188
3128.00,0.0187
3127.00,0.0187
3126.00,0.0186
3125.00,0.0186
3124.00,0.0185
3123.00,0.0184
3122.00,0.0184
3121.00,0.0183
3120.00,0.0183
3119.00,0.0182
3118.00,0.0182
3117.00,0.0182
3116.00,0.0181
3115.00,0.0181
3114.00,0.0182
3113.00,0.0182
3112.00,0.0182
3111.00,0.0182
3110.00,0.0182
3109.00,0.0182
3108.00,0.0182
3107.00,0.0182
3106.00,0.0182
3105.00,0.0182
3104.00,0.0182
3103.00,0.0182
3102.00,0.0182
3101.00,0.0182
3100.00,0.0182
3099.00,0.0183
3098.00,0.0183
3097.00,0.0184
3096.00,0.0184
3095.00,0.0184
3094.00,0.0184
3093.00,0.0184
3092.00,0.0184
3091.00,0.0184
3090.00,0.0185
3089.00,0.0185
3088.00,0.0185
3087.00,0.0186
3086.00,0.0186
3085.00,0.0186
3084.00,0.0186
3083.00,0.0186
3082.00,0.0186
3081.00,0.0187
3080.00,0.0187
3079.00,0.0187
3078.00,0.0188
3077.00,0.0188
3076.00,0.0189
3075.00,0.0189
3074.00,0.0190
3073.00,0.0190
3072.00,0.0189
3071.00,0.0189
3070.00,0.0188
3069.00,0.0188
3068.00,0.0188
3067.00,0.0188
3066.00,0.0188
3065.00,0.0188
3064.00,0.0188
3063.00,0.0189
3062.00,0.0189
3061.00,0.0189
3060.00,0.0189
3059.00,0.0189
3058.00,0.0188
3057.00,0.0188
3056.00,0.0188
3055.00,0.0187
3054.00,0.0187
3053.00,0.0186
3052.00,0.0185
3051.00,0.0185
3050.00,0.0185
3049.00,0.0184
3048.00,0.0184
3047.00,0.0183
3046.00,0.0182
3045.00,0.0182
3044.00,0.0181
3043.00,0.0181
3042.00,0.0180
3041.00,0.0180
3040.00,0.0179
3039.00,0.0179
3038.00,0.0178
3037.00,0.0178
3036.00,0.0177
3035.00,0.0176
3034.00,0.0176
3033.00,0.0175
3032.00,0.0175
3031.00,0.0175
3030.00,0.0174
3029.00,0.0174
3028.00,0.0173
3027.00,0.0172
3026.00,0.0171
3025.00,0.0171
3024.00,0.0170
3023.00,0.0169
3022.00,0.0169
3021.00,0.0168
3020.00,0.0167
3019.00,0.0166
3018.00,0.0165
3017.00,0.0164
3016.00,0.0163
3015.00,0.0162
3014.00,0.0161
3013.00,0.0160
3012.00,0.0159
3011.00,0.0159
3010.00,0.0158
3009.00,0.0158
3008.00,0.0157
3007.00,0.0156
3006.00,0.0155
3005.00,0.0153
3004.00,0.0152
3003.00,0.0152
3002.00,0.0151
3001.00,0.0150
3000.00,0.0149
2999.00,0.0148
2998.00,0.0147
2997.00,0.0147
2996.00,0.0147
2995.00,0.0147
2994.00,0.0147
2993.00,0.0147
2992.00,0.0147
2991.00,0.0147
2990.00,0.0148
2989.00,0.0149
2988.00,0.0149
2987.00,0.0150
2986.00,0.0150
2985.00,0.0149
2984.00,0.0148
2983.00,0.0147
2982.00,0.0147
2981.00,0.0147
2980.00,0.0150
2979.00,0.0152
2978.00,0.0155
2977.00,0.0158
2976.00,0.0161
2975.00,0.0163
2974.00,0.0165
2973.00,0.0167
2972.00,0.0168
2971.00,0.0170
2970.00,0.0173
2969.00,0.0176
2968.00,0.0179
2967.00,0.0181
2966.00,0.0184
2965.00,0.0186
2964.00,0.0188
2963.00,0.0189
2962.00,0.0190
2961.00,0.0191
2960.00,0.0191
2959.00,0.0190
2958.00,0.0190
2957.00,0.0189
2956.00,0.0187
2955.00,0.0186
2954.00,0.0185
2953.00,0.0184
2952.00,0.0183
2951.00,0.0182
2950.00,0.0182
2949.00,0.0182
2948.00,0.0182
2947.00,0.0183
2946.00,0.0185
2945.00,0.0187
2944.00,0.0188
2943.00,0.0190
2942.00,0.0192
2941.00,0.0193
2940.00,0.0194
2939.00,0.0196
2938.00,0.0197
2937.00,0.0198
2936.00,0.0199
2935.00,0.0200
2934.00,0.0200
2933.00,0.0201
2932.00,0.0201
2931.00,0.0202
2930.00,0.0202
2929.00,0.0202
2928.00,0.0201
2927.00,0.0200
2926.00,0.0200
2925.00,0.0199
2924.00,0.0198
2923.00,0.0198
2922.00,0.0197
2921.00,0.0196
2920.00,0.0195
2919.00,0.0193
2918.00,0.0192
2917.00,0.0190
2916.00,0.0187
2915.00,0.0185
2914.00,0.0182
2913.00,0.0180
2912.00,0.0178
2911.00,0.0176
2910.00,0.0174
2909.00,0.0173
2908.00,0.0171
2907.00,0.0170
2906.00,0.0169
2905.00,0.0168
2904.00,0.0167
2903.00,0.0167
2902.00,0.0166
2901.00,0.0165
2900.00,0.0164
2899.00,0.0163
2898.00,0.0162
2897.00,0.0161
2896.00,0.0160
2895.00,0.0159
2894.00,0.0158
2893.00,0.0157
2892.00,0.0157
2891.00,0.0156
2890.00,0.0156
2889.00,0.0155
2888.00,0.0155
2887.00,0.0155
2886.00,0.0155
2885.00,0.0156
2884.00,0.0156
2883.00,0.0156
2882.00,0.0157
2881.00,0.0158
2880.00,0.0159
2879.00,0.0160
2878.00,0.0161
2877.00,0.0162
2876.00,0.0162
2875.00,0.0163
2874.00,0.0162
2873.00,0.0162
2872.00,0.0161
2871.00,0.0160
2870.00,0.0159
2869.00,0.0158
2868.00,0.0157
2867.00,0.0156
2866.00,0.0156
2865.00,0.0155
2864.00,0.0154
2863.00,0.0154
2862.00,0.0153
2861.00,0.0153
2860.00,0.0152
2859.00,0.0152
2858.00,0.0151
2857.00,0.0151
2856.00,0.0151
2855.00,0.0151
2854.00,0.0152
2853.00,0.0152
2852.00,0.0153
2851.00,0.0152
2850.00,0.0151
2849.00,0.0150
2848.00,0.0148
2847.00,0.0147
2846.00,0.0145
2845.00,0.0143
2844.00,0.0142
2843.00,0.0140
2842.00,0.0139
2841.00,0.0137
2840.00,0.0136
2839.00,0.0135
2838.00,0.0134
2837.00,0.0134
2836.00,0.0133
2835.00,0.0132
2834.00,0.0131
2833.00,0.0130
2832.00,0.0130
2831.00,0.0129
2830.00,0.0129
2829.00,0.0129
2828.00,0.0129
2827.00,0.0129
2826.00,0.0129
2825.00,0.0129
2824.00,0.0130
2823.00,0.0130
2822.00,0.0130
2821.00,0.0130
2820.00,0.0130
2819.00,0.0130
2818.00,0.0130
2817.00,0.0130
2816.00,0.0129
2815.00,0.0129
2814.00,0.0129
2813.00,0.0128
2812.00,0.0128
2811.00,0.0128
2810.00,0.0127
2809.00,0.0127
2808.00,0.0127
2807.00,0.0127
2806.00,0.0127
2805.00,0.0126
2804.00,0.0126
2803.00,0.0126
2802.00,0.0126
2801.00,0.0126
2800.00,0.0125
2799.00,0.0125
2798.00,0.0125
2797.00,0.0124
2796.00,0.0124
2795.00,0.0124
2794.00,0.0124
2793.00,0.0123
2792.00,0.0123
2791.00,0.0123
2790.00,0.0123
2789.00,0.0122
2788.00,0.0122
2787.00,0.0122
2786.00,0.0122
2785.00,0.0121
2784.00,0.0121
2783.00,0.0120
2782.00,0.0120
2781.00,0.0120
2780.00,0.0120
2779.00,0.0119
2778.00,0.0119
2777.00,0.0119
2776.00,0.0118
2775.00,0.0118
2774.00,0.0118
2773.00,0.0117
2772.00,0.0117
2771.00,0.0117
2770.00,0.0116
2769.00,0.0116
2768.00,0.0115
2767.00,0.0115
2766.00,0.0115
2765.00,0.0115
2764.00,0.0114
2763.00,0.0114
2762.00,0.0114
2761.00,0.0113
2760.00,0.0113
2759.00,0.0113
2758.00,0.0112
2757.00,0.0112
2756.00,0.0112
2755.00,0.0112
2754.00,0.0111
2753.00,0.0111
2752.00,0.0111
2751.00,0.0110
2750.00,0.0110
2749.00,0.0110
2748.00,0.0110
2747.00,0.0110
2746.00,0.0109
2745.00,0.0109
2744.00,0.0109
2743.00,0.0109
2742.00,0.0109
2741.00,0.0109
2740.00,0.0108
2739.00,0.0108
2738.00,0.0108
2737.00,0.0107
2736.00,0.0107
2735.00,0.0107
2734.00,0.0107
2733.00,0.0107
2732.00,0.0106
2731.00,0.0106
2730.00,0.0106
2729.00,0.0105
2728.00,0.0105
2727.00,0.0105
2726.00,0.0104
2725.00,0.0104
2724.00,0.0104
2723.00,0.0104
2722.00,0.0104
2721.00,0.0104
2720.00,0.0103
2719.00,0.0103
2718.00,0.0103
2717.00,0.0102
2716.00,0.0102
2715.00,0.0102
2714.00,0.0102
2713.00,0.0101
2712.00,0.0101
2711.00,0.0101
2710.00,0.0101
2709.00,0.0101
2708.00,0.0101
2707.00,0.0101
2706.00,0.0100
2705.00,0.0100
2704.00,0.0100
2703.00,0.0100
2702.00,0.0099
2701.00,0.0099
2700.00,0.0099
2699.00,0.0099
2698.00,0.0098
2697.00,0.0098
2696.00,0.0098
2695.00,0.0098
2694.00,0.0098
2693.00,0.0098
2692.00,0.0098
2691.00,0.0097
2690.00,0.0097
2689.00,0.0097
2688.00,0.0097
2687.00,0.0097
2686.00,0.0097
2685.00,0.0097
2684.00,0.0097
2683.00,0.0097
2682.00,0.0096
2681.00,0.0096
2680.00,0.0096
2679.00,0.0096
2678.00,0.0096
2677.00,0.0095
2676.00,0.0095
2675.00,0.0095
2674.00,0.0095
2673.00,0.0096
2672.00,0.0096
2671.00,0.0096
2670.00,0.0096
2669.00,0.0096
2668.00,0.0096
2667.00,0.0096
2666.00,0.0096
2665.00,0.0096
2664.00,0.0097
2663.00,0.0097
2662.00,0.0097
2661.00,0.0097
2660.00,0.0098
2659.00,0.0098
2658.00,0.0098
2657.00,0.0098
2656.00,0.0098
2655.00,0.0098
2654.00,0.0098
2653.00,0.0098
2652.00,0.0098
2651.00,0.0098
2650.00,0.0098
2649.00,0.0098
2648.00,0.0098
2647.00,0.0098
2646.00,0.0098
2645.00,0.0098
2644.00,0.0098
2643.00,0.0098
2642.00,0.0098
2641.00,0.0097
2640.00,0.0097
2639.00,0.0097
2638.00,0.0097
2637.00,0.0097
2636.00,0.0097
2635.00,0.0097
2634.00,0.0097
2633.00,0.0097
2632.00,0.0097
2631.00,0.0097
2630.00,0.0097
2629.00,0.0097
2628.00,0.0097
2627.00,0.0097
2626.00,0.0096
2625.00,0.0096
2624.00,0.0095
2623.00,0.0095
2622.00,0.0095
2621.00,0.0095
2620.00,0.0095
2619.00,0.0095
2618.00,0.0095
2617.00,0.0095
2616.00,0.0095
2615.00,0.0094
2614.00,0.0094
2613.00,0.0094
2612.00,0.0094
2611.00,0.0094
2610.00,0.0094
2609.00,0.0094
2608.00,0.0094
2607.00,0.0094
2606.00,0.0093
2605.00,0.0093
2604.00,0.0093
2603.00,0.0093
2602.00,0.0093
2601.00,0.0093
2600.00,0.0093
2599.00,0.0092
2598.00,0.0092
2597.00,0.0092
2596.00,0.0091
2595.00,0.0091
2594.00,0.0091
2593.00,0.0091
2592.00,0.0091
2591.00,0.0090
2590.00,0.0090
2589.00,0.0090
2588.00,0.0090
2587.00,0.0090
2586.00,0.0090
2585.00,0.0089
2584.00,0.0089
2583.00,0.0089
2582.00,0.0089
2581.00,0.0089
2580.00,0.0090
2579.00,0.0090
2578.00,0.0089
2577.00,0.0089
2576.00,0.0089
2575.00,0.0089
2574.00,0.0089
2573.00,0.0088
2572.00,0.0088
2571.00,0.0088
2570.00,0.0087
2569.00,0.0087
2568.00,0.0087
2567.00,0.0087
2566.00,0.0087
2565.00,0.0087
2564.00,0.0087
2563.00,0.0087
2562.00,0.0086
2561.00,0.0086
2560.00,0.0085
2559.00,0.0085
2558.00,0.0085
2557.00,0.0085
2556.00,0.0085
2555.00,0.0085
2554.00,0.0085
2553.00,0.0085
2552.00,0.0085
2551.00,0.0084
2550.00,0.0084
2549.00,0.0084
2548.00,0.0084
2547.00,0.0083
2546.00,0.0083
2545.00,0.0083
2544.00,0.0083
2543.00,0.0083
2542.00,0.0083
2541.00,0.0083
2540.00,0.0083
2539.00,0.0083
2538.00,0.0083
2537.00,0.0083
2536.00,0.0083
2535.00,0.0083
2534.00,0.0083
2533.00,0.0083
2532.00,0.0083
2531.00,0.0082
2530.00,0.0082
2529.00,0.0082
2528.00,0.0082
2527.00,0.0082
2526.00,0.0082
2525.00,0.0082
2524.00,0.0082
2523.00,0.0082
2522.00,0.0082
2521.00,0.0082
2520.00,0.0082
2519.00,0.0082
2518.00,0.0082
2517.00,0.0082
2516.00,0.0082
2515.00,0.0082
2514.00,0.0082
2513.00,0.0081
2512.00,0.0081
2511.00,0.0080
2510.00,0.0080
2509.00,0.0080
2508.00,0.0080
2507.00,0.0080
2506.00,0.0080
2505.00,0.0081
2504.00,0.0081
2503.00,0.0081
2502.00,0.0081
2501.00,0.0081
2500.00,0.0081
2499.00,0.0080
2498.00,0.0080
2497.00,0.0080
2496.00,0.0080
2495.00,0.0079
2494.00,0.0079
2493.00,0.0079
2492.00,0.0079
2491.00,0.0079
2490.00,0.0079
2489.00,0.0079
2488.00,0.0079
2487.00,0.0078
2486.00,0.0078
2485.00,0.0078
2484.00,0.0077
2483.00,0.0077
2482.00,0.0078
2481.00,0.0078
2480.00,0.0078
2479.00,0.0078
2478.00,0.0078
2477.00,0.0078
2476.00,0.0078
2475.00,0.0078
2474.00,0.0077
2473.00,0.0077
2472.00,0.0077
2471.00,0.0077
2470.00,0.0076
2469.00,0.0076
2468.00,0.0076
2467.00,0.0076
2466.00,0.0076
2465.00,0.0077
2464.00,0.0077
2463.00,0.0077
2462.00,0.0077
2461.00,0.0077
2460.00,0.0077
2459.00,0.0077
2458.00,0.0077
2457.00,0.0077
2456.00,0.0077
2455.00,0.0077
2454.00,0.0076
2453.00,0.0076
2452.00,0.0076
2451.00,0.0075
2450.00,0.0075
2449.00,0.0075
2448.00,0.0075
2447.00,0.0074
2446.00,0.0074
2445.00,0.0074
2444.00,0.0074
2443.00,0.0074
2442.00,0.0074
2441.00,0.0074
2440.00,0.0073
2439.00,0.0073
2438.00,0.0073
2437.00,0.0073
2436.00,0.0073
2435.00,0.0073
2434.00,0.0073
2433.00,0.0073
2432.00,0.0073
2431.00,0.0072
2430.00,0.0072
2429.00,0.0072
2428.00,0.0071
2427.00,0.0071
2426.00,0.0070
2425.00,0.0070
2424.00,0.0070
2423.00,0.0070
2422.00,0.0070
2421.00,0.0070
2420.00,0.0070
2419.00,0.0070
2418.00,0.0070
2417.00,0.0070
2416.00,0.0070
2415.00,0.0070
2414.00,0.0070
2413.00,0.0070
2412.00,0.0070
2411.00,0.0070
2410.00,0.0069
2409.00,0.0069
2408.00,0.0068
2407.00,0.0068
2406.00,0.0068
2405.00,0.0068
2404.00,0.0068
2403.00,0.0067
2402.00,0.0067
2401.00,0.0067
2400.00,0.0067
2399.00,0.0067
2398.00,0.0067
2397.00,0.0067
2396.00,0.0068
2395.00,0.0068
2394.00,0.0067
2393.00,0.0068
2392.00,0.0068
2391.00,0.0068
2390.00,0.0068
2389.00,0.0067
2388.00,0.0067
2387.00,0.0066
2386.00,0.0066
2385.00,0.0066
2384.00,0.0066
2383.00,0.0065
2382.00,0.0065
2381.00,0.0065
2380.00,0.0064
2379.00,0.0064
2378.00,0.0064
2377.00,0.0064
2376.00,0.0065
2375.00,0.0065
2374.00,0.0065
2373.00,0.0065
2372.00,0.0065
2371.00,0.0065
2370.00,0.0065
2369.00,0.0064
2368.00,0.0064
2367.00,0.0065
2366.00,0.0065
2365.00,0.0066
2364.00,0.0066
2363.00,0.0066
2362.00,0.0065
2361.00,0.0065
2360.00,0.0065
2359.00,0.0065
2358.00,0.0065
2357.00,0.0066
2356.00,0.0066
2355.00,0.0066
2354.00,0.0065
2353.00,0.0065
2352.00,0.0066
2351.00,0.0066
2350.00,0.0066
2349.00,0.0066
2348.00,0.0067
2347.00,0.0067
2346.00,0.0068
2345.00,0.0068
2344.00,0.0068
2343.00,0.0068
2342.00,0.0067
2341.00,0.0068
2340.00,0.0068
2339.00,0.0068
2338.00,0.0068
2337.00,0.0068
2336.00,0.0068
2335.00,0.0068
2334.00,0.0068
2333.00,0.0068
2332.00,0.0068
2331.00,0.0068
2330.00,0.0068
2329.00,0.0070
2328.00,0.0072
2327.00,0.0075
2326.00,0.0078
2325.00,0.0079
2324.00,0.0079
2323.00,0.0077
2322.00,0.0076
2321.00,0.0075
2320.00,0.0073
2319.00,0.0072
2318.00,0.0071
2317.00,0.0070
2316.00,0.0069
2315.00,0.0069
2314.00,0.0069
2313.00,0.0069
2312.00,0.0068
2311.00,0.0068
2310.00,0.0068
2309.00,0.0068
2308.00,0.0069
2307.00,0.0069
2306.00,0.0069
2305.00,0.0069
2304.00,0.0070
2303.00,0.0070
2302.00,0.0070
2301.00,0.0070
2300.00,0.0070
2299.00,0.0071
2298.00,0.0071
2297.00,0.0071
2296.00,0.0072
2295.00,0.0072
2294.00,0.0073
2293.00,0.0074
2292.00,0.0074
2291.00,0.0075
2290.00,0.0075
2289.00,0.0076
2288.00,0.0077
2287.00,0.0077
2286.00,0.0078
2285.00,0.0077
2284.00,0.0077
2283.00,0.0076
2282.00,0.0075
2281.00,0.0074
2280.00,0.0074
2279.00,0.0074
2278.00,0.0073
2277.00,0.0073
2276.00,0.0073
2275.00,0.0073
2274.00,0.0073
2273.00,0.0073
2272.00,0.0072
2271.00,0.0072
2270.00,0.0071
2269.00,0.0071
2268.00,0.0071
2267.00,0.0070
2266.00,0.0069
2265.00,0.0068
2264.00,0.0068
2263.00,0.0069
2262.00,0.0069
2261.00,0.0070
2260.00,0.0071
2259.00,0.0070
2258.00,0.0070
2257.00,0.0068
2256.00,0.0067
2255.00,0.0067
2254.00,0.0067
2253.00,0.0067
2252.00,0.0068
2251.00,0.0068
2250.00,0.0069
2249.00,0.0069
2248.00,0.0069
2247.00,0.0069
2246.00,0.0068
2245.00,0.0068
2244.00,0.0069
2243.00,0.0069
2242.00,0.0069
2241.00,0.0069
2240.00,0.0068
2239.00,0.0068
2238.00,0.0068
2237.00,0.0068
2236.00,0.0068
2235.00,0.0068
2234.00,0.0068
2233.00,0.0068
2232.00,0.0068
2231.00,0.0067
2230.00,0.0067
2229.00,0.0068
2228.00,0.0068
2227.00,0.0069
2226.00,0.0069
2225.00,0.0069
2224.00,0.0069
2223.00,0.0068
2222.00,0.0066
2221.00,0.0065
2220.00,0.0065
2219.00,0.0065
2218.00,0.0066
2217.00,0.0066
2216.00,0.0067
2215.00,0.0067
2214.00,0.0068
2213.00,0.0068
2212.00,0.0068
2211.00,0.0067
2210.00,0.0067
2209.00,0.0066
2208.00,0.0067
2207.00,0.0067
2206.00,0.0068
2205.00,0.0069
2204.00,0.0069
2203.00,0.0069
2202.00,0.0069
2201.00,0.0069
2200.00,0.0068
2199.00,0.0067
2198.00,0.0066
2197.00,0.0066
2196.00,0.0067
2195.00,0.0069
2194.00,0.0070
2193.00,0.0071
2192.00,0.0071
2191.00,0.0071
2190.00,0.0070
2189.00,0.0070
2188.00,0.0070
2187.00,0.0071
2186.00,0.0071
2185.00,0.0070
2184.00,0.0068
2183.00,0.0066
2182.00,0.0063
2181.00,0.0063
2180.00,0.0063
2179.00,0.0064
2178.00,0.0064
2177.00,0.0063
2176.00,0.0062
2175.00,0.0062
2174.00,0.0063
2173.00,0.0065
2172.00,0.0067
2171.00,0.0069
2170.00,0.0070
2169.00,0.0072
2168.00,0.0073
2167.00,0.0073
2166.00,0.0073
2165.00,0.0074
2164.00,0.0076
2163.00,0.0076
2162.00,0.0071
2161.00,0.0062
2160.00,0.0050
2159.00,0.0040
2158.00,0.0036
2157.00,0.0037
2156.00,0.0041
2155.00,0.0043
2154.00,0.0045
2153.00,0.0047
2152.00,0.0049
2151.00,0.0049
2150.00,0.0050
2149.00,0.0049
2148.00,0.0049
2147.00,0.0049
2146.00,0.0049
2145.00,0.0050
2144.00,0.0051
2143.00,0.0052
2142.00,0.0053
2141.00,0.0053
2140.00,0.0054
2139.00,0.0053
2138.00,0.0053
2137.00,0.0051
2136.00,0.0050
2135.00,0.0048
2134.00,0.0048
2133.00,0.0048
2132.00,0.0050
2131.00,0.0052
2130.00,0.0053
2129.00,0.0055
2128.00,0.0056
2127.00,0.0057
2126.00,0.0058
2125.00,0.0059
2124.00,0.0060
2123.00,0.0061
2122.00,0.0061
2121.00,0.0062
2120.00,0.0063
2119.00,0.0063
2118.00,0.0064
2117.00,0.0065
2116.00,0.0066
2115.00,0.0066
2114.00,0.0066
2113.00,0.0066
2112.00,0.0067
2111.00,0.0066
2110.00,0.0066
2109.00,0.0066
2108.00,0.0066
2107.00,0.0066
2106.00,0.0067
2105.00,0.0068
2104.00,0.0068
2103.00,0.0068
2102.00,0.0067
2101.00,0.0067
2100.00,0.0066
2099.00,0.0066
2098.00,0.0065
2097.00,0.0064
2096.00,0.0062
2095.00,0.0061
2094.00,0.0061
2093.00,0.0062
2092.00,0.0063
2091.00,0.0065
2090.00,0.0065
2089.00,0.0066
2088.00,0.0066
2087.00,0.0066
2086.00,0.0066
2085.00,0.0066
2084.00,0.0067
2083.00,0.0067
2082.00,0.0068
2081.00,0.0069
2080.00,0.0070
2079.00,0.0069
2078.00,0.0069
2077.00,0.0068
2076.00,0.0068
2075.00,0.0068
2074.00,0.0068
2073.00,0.0068
2072.00,0.0068
2071.00,0.0068
2070.00,0.0067
2069.00,0.0067
2068.00,0.0066
2067.00,0.0066
2066.00,0.0065
2065.00,0.0064
2064.00,0.0064
2063.00,0.0063
2062.00,0.0064
2061.00,0.0064
2060.00,0.0065
2059.00,0.0065
2058.00,0.0065
2057.00,0.0065
2056.00,0.0065
2055.00,0.0066
2054.00,0.0068
2053.00,0.0072
2052.00,0.0075
2051.00,0.0075
2050.00,0.0072
2049.00,0.0069
2048.00,0.0067
2047.00,0.0065
2046.00,0.0064
2045.00,0.0064
2044.00,0.0065
2043.00,0.0066
2042.00,0.0066
2041.00,0.0067
2040.00,0.0068
2039.00,0.0069
2038.00,0.0069
2037.00,0.0069
2036.00,0.0069
2035.00,0.0067
2034.00,0.0064
2033.00,0.0062
2032.00,0.0061
2031.00,0.0060
2030.00,0.0058
2029.00,0.0057
2028.00,0.0056
2027.00,0.0055
2026.00,0.0054
2025.00,0.0055
2024.00,0.0056
2023.00,0.0057
2022.00,0.0058
2021.00,0.0059
2020.00,0.0059
2019.00,0.0059
2018.00,0.0059
2017.00,0.0058
2016.00,0.0058
2015.00,0.0058
2014.00,0.0057
2013.00,0.0057
2012.00,0.0056
2011.00,0.0056
2010.00,0.0054
2009.00,0.0053
2008.00,0.0051
2007.00,0.0050
2006.00,0.0050
2005.00,0.0052
2004.00,0.0055
2003.00,0.0056
2002.00,0.0056
2001.00,0.0056
2000.00,0.0057
1999.00,0.0059
1998.00,0.0060
1997.00,0.0062
1996.00,0.0062
1995.00,0.0062
1994.00,0.0061
1993.00,0.0061
1992.00,0.0062
1991.00,0.0063
1990.00,0.0064
1989.00,0.0064
1988.00,0.0065
1987.00,0.0065
1986.00,0.0066
1985.00,0.0066
1984.00,0.0068
1983.00,0.0069
1982.00,0.0070
1981.00,0.0071
1980.00,0.0070
1979.00,0.0066
1978.00,0.0060
1977.00,0.0056
1976.00,0.0054
1975.00,0.0054
1974.00,0.0053
1973.00,0.0052
1972.00,0.0052
1971.00,0.0052
1970.00,0.0053
1969.00,0.0054
1968.00,0.0055
1967.00,0.0054
1966.00,0.0053
1965.00,0.0053
1964.00,0.0053
1963.00,0.0053
1962.00,0.0052
1961.00,0.0051
1960.00,0.0051
1959.00,0.0051
1958.00,0.0051
1957.00,0.0052
1956.00,0.0052
1955.00,0.0053
1954.00,0.0054
1953.00,0.0055
1952.00,0.0056
1951.00,0.0056
1950.00,0.0054
1949.00,0.0054
1948.00,0.0054
1947.00,0.0055
1946.00,0.0056
1945.00,0.0055
1944.00,0.0055
1943.00,0.0055
1942.00,0.0054
1941.00,0.0055
1940.00,0.0055
1939.00,0.0055
1938.00,0.0055
1937.00,0.0055
1936.00,0.0055
1935.00,0.0055
1934.00,0.0055
1933.00,0.0055
1932.00,0.0055
1931.00,0.0055
1930.00,0.0056
1929.00,0.0057
1928.00,0.0057
1927.00,0.0057
1926.00,0.0057
1925.00,0.0057
1924.00,0.0058
1923.00,0.0058
1922.00,0.0058
1921.00,0.0057
1920.00,0.0058
1919.00,0.0058
1918.00,0.0057
1917.00,0.0057
1916.00,0.0057
1915.00,0.0058
1914.00,0.0058
1913.00,0.0059
1912.00,0.0059
1911.00,0.0059
1910.00,0.0058
1909.00,0.0058
1908.00,0.0059
1907.00,0.0059
1906.00,0.0058
1905.00,0.0058
1904.00,0.0058
1903.00,0.0058
1902.00,0.0058
1901.00,0.0057
1900.00,0.0058
1899.00,0.0058
1898.00,0.0058
1897.00,0.0058
1896.00,0.0059
1895.00,0.0059
1894.00,0.0059
1893.00,0.0059
1892.00,0.0060
1891.00,0.0060
1890.00,0.0059
1889.00,0.0058
1888.00,0.0058
1887.00,0.0057
1886.00,0.0057
1885.00,0.0057
1884.00,0.0057
1883.00,0.0058
1882.00,0.0058
1881.00,0.0058
1880.00,0.0058
1879.00,0.0058
1878.00,0.0058
1877.00,0.0058
1876.00,0.0058
1875.00,0.0058
1874.00,0.0057
1873.00,0.0057
1872.00,0.0058
1871.00,0.0059
1870.00,0.0059
1869.00,0.0058
1868.00,0.0056
1867.00,0.0055
1866.00,0.0055
1865.00,0.0055
1864.00,0.0057
1863.00,0.0057
1862.00,0.0057
1861.00,0.0057
1860.00,0.0057
1859.00,0.0056
1858.00,0.0056
1857.00,0.0056
1856.00,0.0057
1855.00,0.0057
1854.00,0.0056
1853.00,0.0056
1852.00,0.0056
1851.00,0.0056
1850.00,0.0056
1849.00,0.0056
1848.00,0.0057
1847.00,0.0058
1846.00,0.0058
1845.00,0.0058
1844.00,0.0055
1843.00,0.0053
1842.00,0.0052
1841.00,0.0053
1840.00,0.0055
1839.00,0.0056
1838.00,0.0056
1837.00,0.0056
1836.00,0.0056
1835.00,0.0056
1834.00,0.0056
1833.00,0.0056
1832.00,0.0057
1831.00,0.0057
1830.00,0.0056
1829.00,0.0055
1828.00,0.0055
1827.00,0.0056
1826.00,0.0056
1825.00,0.0056
1824.00,0.0055
1823.00,0.0055
1822.00,0.0055
1821.00,0.0055
1820.00,0.0055
1819.00,0.0054
1818.00,0.0053
1817.00,0.0053
1816.00,0.0053
1815.00,0.0054
1814.00,0.0055
1813.00,0.0056
1812.00,0.0056
1811.00,0.0057
1810.00,0.0056
1809.00,0.0056
1808.00,0.0056
1807.00,0.0057
1806.00,0.0057
1805.00,0.0057
1804.00,0.0057
1803.00,0.0057
1802.00,0.0057
1801.00,0.0056
1800.00,0.0056
1799.00,0.0055
1798.00,0.0055
1797.00,0.0056
1796.00,0.0057
1795.00,0.0059
1794.00,0.0060
1793.00,0.0058
1792.00,0.0056
1791.00,0.0054
1790.00,0.0053
1789.00,0.0054
1788.00,0.0055
1787.00,0.0057
1786.00,0.0057
1785.00,0.0056
1784.00,0.0056
1783.00,0.0056
1782.00,0.0056
1781.00,0.0056
1780.00,0.0056
1779.00,0.0056
1778.00,0.0056
1777.00,0.0057
1776.00,0.0058
1775.00,0.0061
1774.00,0.0062
1773.00,0.0062
1772.00,0.0060
1771.00,0.0057
1770.00,0.0056
1769.00,0.0057
1768.00,0.0057
1767.00,0.0058
1766.00,0.0059
1765.00,0.0061
1764.00,0.0064
1763.00,0.0065
1762.00,0.0065
1761.00,0.0065
1760.00,0.0065
1759.00,0.0067
1758.00,0.0069
1757.00,0.0071
1756.00,0.0072
1755.00,0.0074
1754.00,0.0077
1753.00,0.0080
1752.00,0.0083
1751.00,0.0084
1750.00,0.0085
1749.00,0.0087
1748.00,0.0090
1747.00,0.0093
1746.00,0.0097
1745.00,0.0101
1744.00,0.0106
1743.00,0.0110
1742.00,0.0115
1741.00,0.0119
1740.00,0.0124
1739.00,0.0128
1738.00,0.0133
1737.00,0.0140
1736.00,0.0147
1735.00,0.0153
1734.00,0.0155
1733.00,0.0156
1732.00,0.0158
1731.00,0.0162
1730.00,0.0166
1729.00,0.0170
1728.00,0.0173
1727.00,0.0175
1726.00,0.0177
1725.00,0.0179
1724.00,0.0180
1723.00,0.0180
1722.00,0.0181
1721.00,0.0183
1720.00,0.0185
1719.00,0.0186
1718.00,0.0185
1717.00,0.0183
1716.00,0.0181
1715.00,0.0179
1714.00,0.0178
1713.00,0.0178
1712.00,0.0179
1711.00,0.0181
1710.00,0.0182
1709.00,0.0184
1708.00,0.0186
1707.00,0.0189
1706.00,0.0192
1705.00,0.0197
1704.00,0.0202
1703.00,0.0210
1702.00,0.0217
1701.00,0.0226
1700.00,0.0235
1699.00,0.0243
1698.00,0.0252
1697.00,0.0261
1696.00,0.0270
1695.00,0.0276
1694.00,0.0279
1693.00,0.0284
1692.00,0.0291
1691.00,0.0298
1690.00,0.0305
1689.00,0.0313
1688.00,0.0322
1687.00,0.0331
1686.00,0.0340
1685.00,0.0349
1684.00,0.0360
1683.00,0.0367
1682.00,0.0373
1681.00,0.0381
1680.00,0.0391
1679.00,0.0400
1678.00,0.0409
1677.00,0.0417
1676.00,0.0427
1675.00,0.0437
1674.00,0.0446
1673.00,0.0455
1672.00,0.0464
1671.00,0.0474
1670.00,0.0486
1669.00,0.0498
1668.00,0.0509
1667.00,0.0519
1666.00,0.0527
1665.00,0.0537
1664.00,0.0548
1663.00,0.0560
1662.00,0.0574
1661.00,0.0586
1660.00,0.0597
1659.00,0.0608
1658.00,0.0618
1657.00,0.0628
1656.00,0.0637
1655.00,0.0646
1654.00,0.0659
1653.00,0.0678
1652.00,0.0690
1651.00,0.0692
1650.00,0.0691
1649.00,0.0692
1648.00,0.0695
1647.00,0.0700
1646.00,0.0705
1645.00,0.0706
1644.00,0.0705
1643.00,0.0704
1642.00,0.0703
1641.00,0.0702
1640.00,0.0702
1639.00,0.0702
1638.00,0.0702
1637.00,0.0705
1636.00,0.0712
1635.00,0.0720
1634.00,0.0725
1633.00,0.0727
1632.00,0.0729
1631.00,0.0732
1630.00,0.0735
1629.00,0.0740
1628.00,0.0746
1627.00,0.0752
1626.00,0.0756
1625.00,0.0758
1624.00,0.0759
1623.00,0.0760
1622.00,0.0758
1621.00,0.0753
1620.00,0.0746
1619.00,0.0737
1618.00,0.0727
1617.00,0.0716
1616.00,0.0704
1615.00,0.0689
1614.00,0.0674
1613.00,0.0658
1612.00,0.0641
1611.00,0.0624
1610.00,0.0607
1609.00,0.0591
1608.00,0.0574
1607.00,0.0557
1606.00,0.0542
1605.00,0.0527
1604.00,0.0512
1603.00,0.0498
1602.00,0.0485
1601.00,0.0473
1600.00,0.0462
1599.00,0.0451
1598.00,0.0440
1597.00,0.0431
1596.00,0.0422
1595.00,0.0413
1594.00,0.0405
1593.00,0.0396
1592.00,0.0388
1591.00,0.0379
1590.00,0.0371
1589.00,0.0363
1588.00,0.0355
1587.00,0.0348
1586.00,0.0342
1585.00,0.0336
1584.00,0.0331
1583.00,0.0326
1582.00,0.0323
1581.00,0.0321
1580.00,0.0318
1579.00,0.0317
1578.00,0.0317
1577.00,0.0319
1576.00,0.0322
1575.00,0.0323
1574.00,0.0324
1573.00,0.0325
1572.00,0.0327
1571.00,0.0330
1570.00,0.0337
1569.00,0.0345
1568.00,0.0351
1567.00,0.0357
1566.00,0.0364
1565.00,0.0373
1564.00,0.0382
1563.00,0.0391
1562.00,0.0398
1561.00,0.0405
1560.00,0.0415
1559.00,0.0436
1558.00,0.0457
1557.00,0.0469
1556.00,0.0477
1555.00,0.0488
1554.00,0.0500
1553.00,0.0512
1552.00,0.0522
1551.00,0.0533
1550.00,0.0545
1549.00,0.0557
1548.00,0.0567
1547.00,0.0575
1546.00,0.0583
1545.00,0.0591
1544.00,0.0601
1543.00,0.0609
1542.00,0.0618
1541.00,0.0628
1540.00,0.0641
1539.00,0.0649
1538.00,0.0653
1537.00,0.0653
1536.00,0.0654
1535.00,0.0655
1534.00,0.0659
1533.00,0.0665
1532.00,0.0669
1531.00,0.0671
1530.00,0.0671
1529.00,0.0672
1528.00,0.0672
1527.00,0.0674
1526.00,0.0675
1525.00,0.0676
1524.00,0.0677
1523.00,0.0678
1522.00,0.0681
1521.00,0.0686
1520.00,0.0689
1519.00,0.0690
1518.00,0.0691
1517.00,0.0694
1516.00,0.0697
1515.00,0.0697
1514.00,0.0693
1513.00,0.0687
1512.00,0.0680
1511.00,0.0671
1510.00,0.0662
1509.00,0.0653
1508.00,0.0644
1507.00,0.0636
1506.00,0.0625
1505.00,0.0612
1504.00,0.0600
1503.00,0.0589
1502.00,0.0577
1501.00,0.0565
1500.00,0.0554
1499.00,0.0543
1498.00,0.0531
1497.00,0.0519
1496.00,0.0507
1495.00,0.0495
1494.00,0.0483
1493.00,0.0471
1492.00,0.0459
1491.00,0.0447
1490.00,0.0434
1489.00,0.0424
1488.00,0.0414
1487.00,0.0405
1486.00,0.0396
1485.00,0.0388
1484.00,0.0381
1483.00,0.0374
1482.00,0.0367
1481.00,0.0362
1480.00,0.0358
1479.00,0.0354
1478.00,0.0351
1477.00,0.0348
1476.00,0.0348
1475.00,0.0349
1474.00,0.0350
1473.00,0.0353
1472.00,0.0357
1471.00,0.0361
1470.00,0.0363
1469.00,0.0365
1468.00,0.0366
1467.00,0.0367
1466.00,0.0368
1465.00,0.0368
1464.00,0.0369
1463.00,0.0370
1462.00,0.0371
1461.00,0.0372
1460.00,0.0373
1459.00,0.0375
1458.00,0.0379
1457.00,0.0383
1456.00,0.0385
1455.00,0.0386
1454.00,0.0387
1453.00,0.0387
1452.00,0.0386
1451.00,0.0385
1450.00,0.0383
1449.00,0.0381
1448.00,0.0379
1447.00,0.0378
1446.00,0.0376
1445.00,0.0373
1444.00,0.0370
1443.00,0.0367
1442.00,0.0364
1441.00,0.0361
1440.00,0.0358
1439.00,0.0355
1438.00,0.0352
1437.00,0.0350
1436.00,0.0348
1435.00,0.0346
1434.00,0.0343
1433.00,0.0340
1432.00,0.0337
1431.00,0.0335
1430.00,0.0334
1429.00,0.0334
1428.00,0.0334
1427.00,0.0333
1426.00,0.0333
1425.00,0.0334
1424.00,0.0335
1423.00,0.0337
1422.00,0.0339
1421.00,0.0340
1420.00,0.0341
1419.00,0.0343
1418.00,0.0345
1417.00,0.0347
1416.00,0.0348
1415.00,0.0350
1414.00,0.0352
1413.00,0.0353
1412.00,0.0355
1411.00,0.0356
1410.00,0.0357
1409.00,0.0357
1408.00,0.0357
1407.00,0.0356
1406.00,0.0355
1405.00,0.0354
1404.00,0.0353
1403.00,0.0351
1402.00,0.0350
1401.00,0.0348
1400.00,0.0346
1399.00,0.0344
1398.00,0.0344
1397.00,0.0343
1396.00,0.0343
1395.00,0.0344
1394.00,0.0345
1393.00,0.0346
1392.00,0.0348
1391.00,0.0349
1390.00,0.0351
1389.00,0.0352
1388.00,0.0353
1387.00,0.0353
1386.00,0.0353
1385.00,0.0353
1384.00,0.0351
1383.00,0.0350
1382.00,0.0347
1381.00,0.0344
1380.00,0.0340
1379.00,0.0337
1378.00,0.0334
1377.00,0.0332
1376.00,0.0330
1375.00,0.0330
1374.00,0.0331
1373.00,0.0332
1372.00,0.0333
1371.00,0.0333
1370.00,0.0333
1369.00,0.0332
1368.00,0.0331
1367.00,0.0329
1366.00,0.0326
1365.00,0.0323
1364.00,0.0321
1363.00,0.0320
1362.00,0.0319
1361.00,0.0319
1360.00,0.0319
1359.00,0.0318
1358.00,0.0318
1357.00,0.0317
1356.00,0.0316
1355.00,0.0316
1354.00,0.0315
1353.00,0.0314
1352.00,0.0313
1351.00,0.0312
1350.00,0.0311
1349.00,0.0311
1348.00,0.0312
1347.00,0.0313
1346.00,0.0314
1345.00,0.0315
1344.00,0.0316
1343.00,0.0317
1342.00,0.0318
1341.00,0.0318
1340.00,0.0317
1339.00,0.0317
1338.00,0.0316
1337.00,0.0316
1336.00,0.0315
1335.00,0.0314
1334.00,0.0314
1333.00,0.0314
1332.00,0.0314
1331.00,0.0314
1330.00,0.0315
1329.00,0.0315
1328.00,0.0315
1327.00,0.0314
1326.00,0.0313
1325.00,0.0312
1324.00,0.0310
1323.00,0.0309
1322.00,0.0307
1321.00,0.0305
1320.00,0.0303
1319.00,0.0301
1318.00,0.0300
1317.00,0.0300
1316.00,0.0301
1315.00,0.0304
1314.00,0.0306
1313.00,0.0309
1312.00,0.0312
1311.00,0.0315
1310.00,0.0317
1309.00,0.0318
1308.00,0.0319
1307.00,0.0319
1306.00,0.0319
1305.00,0.0319
1304.00,0.0319
1303.00,0.0320
1302.00,0.0322
1301.00,0.0323
1300.00,0.0325
1299.00,0.0327
1298.00,0.0328
1297.00,0.0329
1296.00,0.0331
1295.00,0.0332
1294.00,0.0333
1293.00,0.0334
1292.00,0.0334
1291.00,0.0334
1290.00,0.0334
1289.00,0.0334
1288.00,0.0333
1287.00,0.0333
1286.00,0.0333
1285.00,0.0332
1284.00,0.0332
1283.00,0.0331
1282.00,0.0330
1281.00,0.0329
1280.00,0.0328
1279.00,0.0329
1278.00,0.0330
1277.00,0.0332
1276.00,0.0335
1275.00,0.0339
1274.00,0.0342
1273.00,0.0346
1272.00,0.0349
1271.00,0.0353
1270.00,0.0356
1269.00,0.0359
1268.00,0.0362
1267.00,0.0365
1266.00,0.0368
1265.00,0.0371
1264.00,0.0374
1263.00,0.0377
1262.00,0.0379
1261.00,0.0381
1260.00,0.0383
1259.00,0.0385
1258.00,0.0387
1257.00,0.0388
1256.00,0.0389
1255.00,0.0389
1254.00,0.0389
1253.00,0.0389
1252.00,0.0390
1251.00,0.0391
1250.00,0.0392
1249.00,0.0394
1248.00,0.0395
1247.00,0.0395
1246.00,0.0395
1245.00,0.0395
1244.00,0.0395
1243.00,0.0396
1242.00,0.0398
1241.00,0.0401
1240.00,0.0406
1239.00,0.0411
1238.00,0.0415
1237.00,0.0420
1236.00,0.0424
1235.00,0.0428
1234.00,0.0431
1233.00,0.0433
1232.00,0.0435
1231.00,0.0435
1230.00,0.0434
1229.00,0.0432
1228.00,0.0431
1227.00,0.0431
1226.00,0.0430
1225.00,0.0431
1224.00,0.0431
1223.00,0.0431
1222.00,0.0430
1221.00,0.0428
1220.00,0.0426
1219.00,0.0424
1218.00,0.0421
1217.00,0.0419
1216.00,0.0418
1215.00,0.0416
1214.00,0.0414
1213.00,0.0412
1212.00,0.0410
1211.00,0.0407
1210.00,0.0403
1209.00,0.0399
1208.00,0.0394
1207.00,0.0388
1206.00,0.0382
1205.00,0.0378
1204.00,0.0375
1203.00,0.0374
1202.00,0.0376
1201.00,0.0378
1200.00,0.0382
1199.00,0.0386
1198.00,0.0389
1197.00,0.0392
1196.00,0.0394
1195.00,0.0396
1194.00,0.0398
1193.00,0.0399
1192.00,0.0400
1191.00,0.0401
1190.00,0.0401
1189.00,0.0402
1188.00,0.0403
1187.00,0.0404
1186.00,0.0406
1185.00,0.0407
1184.00,0.0409
1183.00,0.0411
1182.00,0.0413
1181.00,0.0414
1180.00,0.0416
1179.00,0.0417
1178.00,0.0418
1177.00,0.0418
1176.00,0.0418
1175.00,0.0419
1174.00,0.0419
1173.00,0.0418
1172.00,0.0418
1171.00,0.0417
1170.00,0.0417
1169.00,0.0417
1168.00,0.0420
1167.00,0.0422
1166.00,0.0425
1165.00,0.0428
1164.00,0.0430
1163.00,0.0431
1162.00,0.0433
1161.00,0.0433
1160.00,0.0434
1159.00,0.0434
1158.00,0.0433
1157.00,0.0432
1156.00,0.0430
1155.00,0.0428
1154.00,0.0425
1153.00,0.0422
1152.00,0.0418
1151.00,0.0412
1150.00,0.0405
1149.00,0.0398
1148.00,0.0393
1147.00,0.0390
1146.00,0.0390
1145.00,0.0392
1144.00,0.0395
1143.00,0.0397
1142.00,0.0399
1141.00,0.0399
1140.00,0.0398
1139.00,0.0398
1138.00,0.0397
1137.00,0.0396
1136.00,0.0395
1135.00,0.0394
1134.00,0.0394
1133.00,0.0394
1132.00,0.0394
1131.00,0.0395
1130.00,0.0396
1129.00,0.0396
1128.00,0.0397
1127.00,0.0397
1126.00,0.0397
1125.00,0.0397
1124.00,0.0397
1123.00,0.0397
1122.00,0.0397
1121.00,0.0397
1120.00,0.0396
1119.00,0.0396
1118.00,0.0396
1117.00,0.0395
1116.00,0.0395
1115.00,0.0395
1114.00,0.0395
1113.00,0.0395
1112.00,0.0395
1111.00,0.0395
1110.00,0.0395
1109.00,0.0395
1108.00,0.0394
1107.00,0.0394
1106.00,0.0394
1105.00,0.0394
1104.00,0.0393
1103.00,0.0393
1102.00,0.0392
1101.00,0.0391
1100.00,0.0391
1099.00,0.0390
1098.00,0.0390
1097.00,0.0390
1096.00,0.0391
1095.00,0.0393
1094.00,0.0394
1093.00,0.0396
1092.00,0.0396
1091.00,0.0397
1090.00,0.0398
1089.00,0.0399
1088.00,0.0401
1087.00,0.0402
1086.00,0.0403
1085.00,0.0404
1084.00,0.0406
1083.00,0.0407
1082.00,0.0408
1081.00,0.0409
1080.00,0.0410
1079.00,0.0412
1078.00,0.0413
1077.00,0.0414
1076.00,0.0416
1075.00,0.0417
1074.00,0.0417
1073.00,0.0417
1072.00,0.0416
1071.00,0.0416
1070.00,0.0415
1069.00,0.0414
1068.00,0.0414
1067.00,0.0414
1066.00,0.0414
1065.00,0.0413
1064.00,0.0412
1063.00,0.0411
1062.00,0.0409
1061.00,0.0408
1060.00,0.0406
1059.00,0.0403
1058.00,0.0400
1057.00,0.0397
1056.00,0.0393
1055.00,0.0389
1054.00,0.0385
1053.00,0.0382
1052.00,0.0382
1051.00,0.0383
1050.00,0.0386
1049.00,0.0389
1048.00,0.0392
1047.00,0.0393
1046.00,0.0393
1045.00,0.0392
1044.00,0.0391
1043.00,0.0389
1042.00,0.0387
1041.00,0.0384
1040.00,0.0382
1039.00,0.0378
1038.00,0.0374
1037.00,0.0370
1036.00,0.0366
1035.00,0.0363
1034.00,0.0359
1033.00,0.0356
1032.00,0.0354
1031.00,0.0354
1030.00,0.0354
1029.00,0.0355
1028.00,0.0358
1027.00,0.0361
1026.00,0.0364
1025.00,0.0367
1024.00,0.0369
1023.00,0.0371
1022.00,0.0371
1021.00,0.0372
1020.00,0.0371
1019.00,0.0371
1018.00,0.0370
1017.00,0.0369
1016.00,0.0368
1015.00,0.0367
1014.00,0.0366
1013.00,0.0365
1012.00,0.0363
1011.00,0.0361
1010.00,0.0358
1009.00,0.0356
1008.00,0.0353
1007.00,0.0351
1006.00,0.0350
1005.00,0.0348
1004.00,0.0346
1003.00,0.0343
1002.00,0.0340
1001.00,0.0336
1000.00,0.0332
999.00,0.0328
998.00,0.0326
997.00,0.0325
996.00,0.0325
995.00,0.0326
994.00,0.0326
993.00,0.0326
992.00,0.0325
991.00,0.0323
990.00,0.0322
989.00,0.0320
988.00,0.0319
987.00,0.0318
986.00,0.0316
985.00,0.0314
984.00,0.0312
983.00,0.0311
982.00,0.0310
981.00,0.0310
980.00,0.0309
979.00,0.0309
978.00,0.0308
977.00,0.0308
976.00,0.0306
975.00,0.0305
974.00,0.0304
973.00,0.0302
972.00,0.0301
971.00,0.0300
970.00,0.0298
969.00,0.0297
968.00,0.0296
967.00,0.0295
966.00,0.0295
965.00,0.0294
964.00,0.0293
963.00,0.0291
962.00,0.0290
961.00,0.0288
960.00,0.0287
959.00,0.0285
958.00,0.0284
957.00,0.0283
956.00,0.0282
955.00,0.0282
954.00,0.0281
953.00,0.0281
952.00,0.0282
951.00,0.0282
950.00,0.0282
949.00,0.0283
948.00,0.0283
947.00,0.0284
946.00,0.0285
945.00,0.0285
944.00,0.0286
943.00,0.0286
942.00,0.0287
941.00,0.0287
940.00,0.0288
939.00,0.0289
938.00,0.0290
937.00,0.0292
936.00,0.0293
935.00,0.0294
934.00,0.0295
933.00,0.0296
932.00,0.0296
931.00,0.0296
930.00,0.0295
929.00,0.0295
928.00,0.0294
927.00,0.0294
926.00,0.0293
925.00,0.0293
924.00,0.0292
923.00,0.0291
922.00,0.0290
921.00,0.0289
920.00,0.0288
919.00,0.0287
918.00,0.0286
917.00,0.0285
916.00,0.0284
915.00,0.0283
914.00,0.0282
913.00,0.0281
912.00,0.0281
911.00,0.0282
910.00,0.0283
909.00,0.0284
908.00,0.0285
907.00,0.0285
906.00,0.0285
905.00,0.0284
904.00,0.0283
903.00,0.0281
902.00,0.0279
901.00,0.0278
900.00,0.0277
899.00,0.0277
898.00,0.0278
897.00,0.0278
896.00,0.0278
895.00,0.0277
894.00,0.0275
893.00,0.0270
892.00,0.0264
891.00,0.0257
890.00,0.0251
889.00,0.0247
888.00,0.0246
887.00,0.0247
886.00,0.0246
885.00,0.0246
884.00,0.0246
883.00,0.0248
882.00,0.0253
881.00,0.0259
880.00,0.0264
879.00,0.0267
878.00,0.0269
877.00,0.0270
876.00,0.0271
875.00,0.0271
874.00,0.0271
873.00,0.0271
872.00,0.0271
871.00,0.0271
870.00,0.0270
869.00,0.0269
868.00,0.0267
867.00,0.0266
866.00,0.0264
865.00,0.0262
864.00,0.0259
863.00,0.0256
862.00,0.0252
861.00,0.0250
860.00,0.0249
859.00,0.0250
858.00,0.0251
857.00,0.0253
856.00,0.0255
855.00,0.0257
854.00,0.0259
853.00,0.0261
852.00,0.0263
851.00,0.0266
850.00,0.0268
849.00,0.0270
848.00,0.0271
847.00,0.0271
846.00,0.0271
845.00,0.0271
844.00,0.0271
843.00,0.0272
842.00,0.0272
841.00,0.0272
840.00,0.0272
839.00,0.0272
838.00,0.0273
837.00,0.0275
836.00,0.0279
835.00,0.0283
834.00,0.0287
833.00,0.0291
832.00,0.0293
831.00,0.0295
830.00,0.0295
829.00,0.0296
828.00,0.0296
827.00,0.0297
826.00,0.0299
825.00,0.0301
824.00,0.0303
823.00,0.0305
822.00,0.0306
821.00,0.0307
820.00,0.0307
819.00,0.0308
818.00,0.0308
817.00,0.0308
816.00,0.0309
815.00,0.0310
814.00,0.0311
813.00,0.0312
812.00,0.0312
811.00,0.0312
810.00,0.0312
809.00,0.0311
808.00,0.0311
807.00,0.0309
806.00,0.0307
805.00,0.0304
804.00,0.0302
803.00,0.0301
802.00,0.0301
801.00,0.0303
800.00,0.0306
799.00,0.0308
798.00,0.0309
797.00,0.0309
796.00,0.0309
795.00,0.0309
794.00,0.0310
793.00,0.0313
792.00,0.0316
791.00,0.0320
790.00,0.0324
789.00,0.0327
788.00,0.0330
787.00,0.0332
786.00,0.0334
785.00,0.0337
784.00,0.0339
783.00,0.0342
782.00,0.0344
781.00,0.0345
780.00,0.0346
779.00,0.0347
778.00,0.0348
777.00,0.0349
776.00,0.0350
775.00,0.0351
774.00,0.0351
773.00,0.0352
772.00,0.0352
771.00,0.0352
770.00,0.0353
769.00,0.0355
768.00,0.0357
767.00,0.0359
766.00,0.0361
765.00,0.0363
764.00,0.0365
763.00,0.0367
762.00,0.0369
761.00,0.0371
760.00,0.0373
759.00,0.0374
758.00,0.0376
757.00,0.0377
756.00,0.0379
755.00,0.0381
754.00,0.0382
753.00,0.0384
752.00,0.0387
751.00,0.0390
750.00,0.0392
749.00,0.0395
748.00,0.0398
747.00,0.0399
746.00,0.0401
745.00,0.0402
744.00,0.0403
743.00,0.0404
742.00,0.0404
741.00,0.0405
740.00,0.0404
739.00,0.0404
738.00,0.0403
737.00,0.0402
736.00,0.0401
735.00,0.0400
734.00,0.0400
733.00,0.0401
732.00,0.0403
731.00,0.0406
730.00,0.0410
729.00,0.0414
728.00,0.0418
727.00,0.0422
726.00,0.0425
725.00,0.0428
724.00,0.0432
723.00,0.0436
722.00,0.0439
721.00,0.0443
720.00,0.0446
719.00,0.0449
718.00,0.0452
717.00,0.0455
716.00,0.0457
715.00,0.0460
714.00,0.0464
713.00,0.0467
712.00,0.0471
711.00,0.0475
710.00,0.0479
709.00,0.0484
708.00,0.0488
707.00,0.0493
706.00,0.0497
705.00,0.0502
704.00,0.0507
703.00,0.0512
702.00,0.0516
701.00,0.0520
700.00,0.0523
699.00,0.0526
698.00,0.0527
697.00,0.0528
696.00,0.0528
695.00,0.0528
694.00,0.0528
693.00,0.0528
692.00,0.0528
691.00,0.0528
690.00,0.0527
689.00,0.0528
688.00,0.0529
687.00,0.0530
686.00,0.0531
685.00,0.0532
684.00,0.0534
683.00,0.0535
682.00,0.0535
681.00,0.0536
680.00,0.0537
679.00,0.0538
678.00,0.0539
677.00,0.0541
676.00,0.0543
675.00,0.0544
674.00,0.0545
673.00,0.0546
672.00,0.0547
671.00,0.0548
670.00,0.0550
669.00,0.0556
668.00,0.0565
667.00,0.0570
666.00,0.0571
665.00,0.0569
664.00,0.0569
663.00,0.0570
662.00,0.0572
661.00,0.0574
660.00,0.0575
659.00,0.0576
658.00,0.0577
657.00,0.0579
656.00,0.0580
655.00,0.0582
654.00,0.0583
653.00,0.0583
652.00,0.0584
651.00,0.0585
650.00,0.0586
649.00,0.0586
648.00,0.0588
647.00,0.0589
646.00,0.0591
645.00,0.0592
644.00,0.0593
643.00,0.0595
642.00,0.0597
641.00,0.0598
640.00,0.0600
639.00,0.0601
638.00,0.0602
637.00,0.0603
636.00,0.0605
635.00,0.0607
634.00,0.0609
633.00,0.0613
632.00,0.0617
631.00,0.0621
630.00,0.0625
629.00,0.0628
628.00,0.0631
627.00,0.0634
626.00,0.0637
625.00,0.0640
624.00,0.0642
623.00,0.0644
622.00,0.0645
621.00,0.0646
620.00,0.0648
619.00,0.0649
618.00,0.0649
617.00,0.0648
616.00,0.0648
615.00,0.0648
614.00,0.0649
613.00,0.0650
612.00,0.0651
611.00,0.0652
610.00,0.0653
609.00,0.0653
608.00,0.0653
607.00,0.0654
606.00,0.0655
605.00,0.0656
604.00,0.0659
603.00,0.0661
602.00,0.0662
601.00,0.0663
600.00,0.0663
599.00,0.0663
598.00,0.0662
597.00,0.0661
596.00,0.0660
595.00,0.0661
594.00,0.0662
593.00,0.0664
592.00,0.0667
591.00,0.0669
590.00,0.0671
589.00,0.0673
588.00,0.0675
587.00,0.0675
586.00,0.0675
585.00,0.0674
584.00,0.0675
583.00,0.0676
582.00,0.0676
581.00,0.0675
580.00,0.0675
579.00,0.0674
578.00,0.0673
577.00,0.0674
576.00,0.0677
575.00,0.0683
574.00,0.0689
573.00,0.0693
572.00,0.0697
571.00,0.0701
570.00,0.0703
569.00,0.0704
568.00,0.0704
567.00,0.0705
566.00,0.0707
565.00,0.0710
564.00,0.0712
563.00,0.0714
562.00,0.0715
561.00,0.0715
560.00,0.0715
559.00,0.0715
558.00,0.0715
557.00,0.0716
556.00,0.0717
555.00,0.0716
554.00,0.0714
553.00,0.0713
552.00,0.0713
551.00,0.0714
550.00,0.0717
549.00,0.0721
548.00,0.0726
547.00,0.0731
546.00,0.0734
545.00,0.0735
544.00,0.0736
543.00,0.0736
542.00,0.0737
541.00,0.0738
540.00,0.0740
539.00,0.0740
538.00,0.0739
537.00,0.0737
536.00,0.0735
535.00,0.0734
534.00,0.0733
533.00,0.0733
532.00,0.0736
531.00,0.0739
530.00,0.0742
529.00,0.0743
528.00,0.0742
527.00,0.0740
526.00,0.0738
525.00,0.0738
524.00,0.0741
523.00,0.0744
522.00,0.0745
521.00,0.0746
520.00,0.0748
519.00,0.0751
518.00,0.0754
517.00,0.0756
516.00,0.0757
515.00,0.0759
514.00,0.0760
513.00,0.0761
512.00,0.0761
511.00,0.0760
510.00,0.0759
509.00,0.0757
508.00,0.0756
507.00,0.0754
506.00,0.0752
505.00,0.0750
504.00,0.0750
503.00,0.0750
502.00,0.0752
501.00,0.0754
500.00,0.0756
499.00,0.0756
498.00,0.0754
497.00,0.0751
496.00,0.0749
495.00,0.0746
494.00,0.0743
493.00,0.0740
492.00,0.0738
491.00,0.0738
490.00,0.0737
489.00,0.0736
488.00,0.0736
487.00,0.0734
486.00,0.0731
485.00,0.0729
484.00,0.0729
483.00,0.0728
482.00,0.0728
481.00,0.0729
480.00,0.0732
479.00,0.0736
478.00,0.0738
477.00,0.0739
476.00,0.0740
475.00,0.0739
474.00,0.0736
473.00,0.0734
472.00,0.0736
471.00,0.0740
470.00,0.0745
469.00,0.0750
468.00,0.0755
467.00,0.0758
466.00,0.0757
465.00,0.0755
464.00,0.0754
463.00,0.0752
462.00,0.0750
461.00,0.0747
460.00,0.0747
459.00,0.0749
458.00,0.0752
457.00,0.0758
456.00,0.0763
455.00,0.0764
454.00,0.0762
453.00,0.0759
452.00,0.0758
451.00,0.0756
450.00,0.0750
449.00,0.0744
448.00,0.0741
447.00,0.0742
446.00,0.0743
445.00,0.0745
444.00,0.0746
443.00,0.0746
442.00,0.0744
441.00,0.0742
440.00,0.0744
439.00,0.0746
438.00,0.0747
437.00,0.0748
436.00,0.0749
435.00,0.0746
434.00,0.0738
433.00,0.0730
432.00,0.0727
431.00,0.0729
430.00,0.0733
429.00,0.0736
428.00,0.0740
427.00,0.0743
426.00,0.0745
425.00,0.0746
424.00,0.0746
423.00,0.0742
422.00,0.0736
421.00,0.0730
420.00,0.0729
419.00,0.0728
418.00,0.0727
417.00,0.0726
416.00,0.0728
415.00,0.0730
414.00,0.0731
413.00,0.0736
412.00,0.0744
411.00,0.0747
410.00,0.0743
409.00,0.0739
408.00,0.0740
407.00,0.0743
406.00,0.0741
405.00,0.0735
404.00,0.0731
403.00,0.0727
402.00,0.0721
401.00,0.0718
400.00,0.0721
