Created as New Dataset,Sample 608 By YargerLab Date Thursday, June 05 2025
cm-1,A
4000.00,0.0041
3999.00,0.0041
3998.00,0.0041
3997.00,0.0041
3996.00,0.0041
3995.00,0.0041
3994.00,0.0041
3993.00,0.0041
3992.00,0.0041
3991.00,0.0041
3990.00,0.0040
3989.00,0.0040
3988.00,0.0040
3987.00,0.0040
3986.00,0.0040
3985.00,0.0041
3984.00,0.0041
3983.00,0.0041
3982.00,0.0041
3981.00,0.0040
3980.00,0.0040
3979.00,0.0040
3978.00,0.0040
3977.00,0.0040
3976.00,0.0040
3975.00,0.0040
3974.00,0.0040
3973.00,0.0040
3972.00,0.0040
3971.00,0.0040
3970.00,0.0040
3969.00,0.0040
3968.00,0.0040
3967.00,0.0040
3966.00,0.0040
3965.00,0.0040
3964.00,0.0040
3963.00,0.0040
3962.00,0.0040
3961.00,0.0040
3960.00,0.0040
3959.00,0.0040
3958.00,0.0040
3957.00,0.0040
3956.00,0.0040
3955.00,0.0040
3954.00,0.0040
3953.00,0.0040
3952.00,0.0040
3951.00,0.0040
3950.00,0.0040
3949.00,0.0040
3948.00,0.0039
3947.00,0.0039
3946.00,0.0039
3945.00,0.0039
3944.00,0.0039
3943.00,0.0039
3942.00,0.0040
3941.00,0.0040
3940.00,0.0040
3939.00,0.0040
3938.00,0.0040
3937.00,0.0040
3936.00,0.0040
3935.00,0.0040
3934.00,0.0040
3933.00,0.0040
3932.00,0.0039
3931.00,0.0039
3930.00,0.0039
3929.00,0.0039
3928.00,0.0039
3927.00,0.0039
3926.00,0.0039
3925.00,0.0040
3924.00,0.0040
3923.00,0.0040
3922.00,0.0039
3921.00,0.0039
3920.00,0.0039
3919.00,0.0039
3918.00,0.0039
3917.00,0.0039
3916.00,0.0039
3915.00,0.0039
3914.00,0.0039
3913.00,0.0039
3912.00,0.0039
3911.00,0.0039
3910.00,0.0039
3909.00,0.0039
3908.00,0.0039
3907.00,0.0039
3906.00,0.0039
3905.00,0.0039
3904.00,0.0038
3903.00,0.0038
3902.00,0.0037
3901.00,0.0037
3900.00,0.0037
3899.00,0.0037
3898.00,0.0038
3897.00,0.0038
3896.00,0.0038
3895.00,0.0038
3894.00,0.0039
3893.00,0.0039
3892.00,0.0039
3891.00,0.0039
3890.00,0.0039
3889.00,0.0038
3888.00,0.0038
3887.00,0.0037
3886.00,0.0037
3885.00,0.0037
3884.00,0.0038
3883.00,0.0037
3882.00,0.0037
3881.00,0.0037
3880.00,0.0038
3879.00,0.0038
3878.00,0.0038
3877.00,0.0038
3876.00,0.0037
3875.00,0.0037
3874.00,0.0038
3873.00,0.0038
3872.00,0.0037
3871.00,0.0037
3870.00,0.0036
3869.00,0.0037
3868.00,0.0037
3867.00,0.0037
3866.00,0.0036
3865.00,0.0036
3864.00,0.0037
3863.00,0.0037
3862.00,0.0037
3861.00,0.0037
3860.00,0.0037
3859.00,0.0038
3858.00,0.0038
3857.00,0.0039
3856.00,0.0039
3855.00,0.0038
3854.00,0.0037
3853.00,0.0036
3852.00,0.0036
3851.00,0.0036
3850.00,0.0036
3849.00,0.0036
3848.00,0.0036
3847.00,0.0036
3846.00,0.0036
3845.00,0.0036
3844.00,0.0036
3843.00,0.0036
3842.00,0.0036
3841.00,0.0036
3840.00,0.0035
3839.00,0.0035
3838.00,0.0035
3837.00,0.0035
3836.00,0.0035
3835.00,0.0036
3834.00,0.0036
3833.00,0.0036
3832.00,0.0036
3831.00,0.0037
3830.00,0.0037
3829.00,0.0037
3828.00,0.0037
3827.00,0.0037
3826.00,0.0037
3825.00,0.0037
3824.00,0.0036
3823.00,0.0035
3822.00,0.0035
3821.00,0.0035
3820.00,0.0036
3819.00,0.0036
3818.00,0.0035
3817.00,0.0035
3816.00,0.0035
3815.00,0.0036
3814.00,0.0037
3813.00,0.0037
3812.00,0.0037
3811.00,0.0037
3810.00,0.0037
3809.00,0.0037
3808.00,0.0036
3807.00,0.0036
3806.00,0.0036
3805.00,0.0036
3804.00,0.0036
3803.00,0.0035
3802.00,0.0035
3801.00,0.0035
3800.00,0.0036
3799.00,0.0036
3798.00,0.0036
3797.00,0.0036
3796.00,0.0036
3795.00,0.0037
3794.00,0.0038
3793.00,0.0038
3792.00,0.0038
3791.00,0.0038
3790.00,0.0038
3789.00,0.0038
3788.00,0.0038
3787.00,0.0038
3786.00,0.0038
3785.00,0.0038
3784.00,0.0038
3783.00,0.0038
3782.00,0.0037
3781.00,0.0037
3780.00,0.0037
3779.00,0.0037
3778.00,0.0037
3777.00,0.0038
3776.00,0.0038
3775.00,0.0038
3774.00,0.0038
3773.00,0.0038
3772.00,0.0038
3771.00,0.0038
3770.00,0.0037
3769.00,0.0037
3768.00,0.0037
3767.00,0.0037
3766.00,0.0036
3765.00,0.0037
3764.00,0.0037
3763.00,0.0037
3762.00,0.0036
3761.00,0.0036
3760.00,0.0036
3759.00,0.0036
3758.00,0.0037
3757.00,0.0037
3756.00,0.0036
3755.00,0.0036
3754.00,0.0036
3753.00,0.0035
3752.00,0.0034
3751.00,0.0034
3750.00,0.0033
3749.00,0.0033
3748.00,0.0033
3747.00,0.0033
3746.00,0.0032
3745.00,0.0032
3744.00,0.0033
3743.00,0.0034
3742.00,0.0034
3741.00,0.0033
3740.00,0.0033
3739.00,0.0032
3738.00,0.0032
3737.00,0.0032
3736.00,0.0032
3735.00,0.0032
3734.00,0.0032
3733.00,0.0032
3732.00,0.0033
3731.00,0.0033
3730.00,0.0034
3729.00,0.0034
3728.00,0.0034
3727.00,0.0035
3726.00,0.0035
3725.00,0.0035
3724.00,0.0035
3723.00,0.0035
3722.00,0.0035
3721.00,0.0035
3720.00,0.0035
3719.00,0.0035
3718.00,0.0036
3717.00,0.0036
3716.00,0.0036
3715.00,0.0035
3714.00,0.0034
3713.00,0.0033
3712.00,0.0033
3711.00,0.0033
3710.00,0.0033
3709.00,0.0033
3708.00,0.0033
3707.00,0.0034
3706.00,0.0034
3705.00,0.0034
3704.00,0.0035
3703.00,0.0035
3702.00,0.0036
3701.00,0.0036
3700.00,0.0036
3699.00,0.0036
3698.00,0.0036
3697.00,0.0036
3696.00,0.0036
3695.00,0.0036
3694.00,0.0035
3693.00,0.0035
3692.00,0.0034
3691.00,0.0034
3690.00,0.0034
3689.00,0.0034
3688.00,0.0033
3687.00,0.0033
3686.00,0.0034
3685.00,0.0034
3684.00,0.0034
3683.00,0.0035
3682.00,0.0035
3681.00,0.0035
3680.00,0.0034
3679.00,0.0034
3678.00,0.0033
3677.00,0.0032
3676.00,0.0031
3675.00,0.0031
3674.00,0.0032
3673.00,0.0032
3672.00,0.0031
3671.00,0.0031
3670.00,0.0032
3669.00,0.0033
3668.00,0.0034
3667.00,0.0034
3666.00,0.0034
3665.00,0.0034
3664.00,0.0035
3663.00,0.0035
3662.00,0.0036
3661.00,0.0036
3660.00,0.0036
3659.00,0.0036
3658.00,0.0036
3657.00,0.0036
3656.00,0.0035
3655.00,0.0035
3654.00,0.0035
3653.00,0.0034
3652.00,0.0034
3651.00,0.0033
3650.00,0.0034
3649.00,0.0034
3648.00,0.0034
3647.00,0.0034
3646.00,0.0034
3645.00,0.0035
3644.00,0.0036
3643.00,0.0037
3642.00,0.0038
3641.00,0.0038
3640.00,0.0039
3639.00,0.0039
3638.00,0.0039
3637.00,0.0039
3636.00,0.0039
3635.00,0.0039
3634.00,0.0040
3633.00,0.0040
3632.00,0.0040
3631.00,0.0040
3630.00,0.0039
3629.00,0.0039
3628.00,0.0040
3627.00,0.0040
3626.00,0.0040
3625.00,0.0041
3624.00,0.0041
3623.00,0.0042
3622.00,0.0043
3621.00,0.0043
3620.00,0.0043
3619.00,0.0043
3618.00,0.0043
3617.00,0.0043
3616.00,0.0043
3615.00,0.0043
3614.00,0.0043
3613.00,0.0043
3612.00,0.0044
3611.00,0.0044
3610.00,0.0044
3609.00,0.0044
3608.00,0.0045
3607.00,0.0045
3606.00,0.0046
3605.00,0.0046
3604.00,0.0047
3603.00,0.0047
3602.00,0.0047
3601.00,0.0047
3600.00,0.0047
3599.00,0.0047
3598.00,0.0048
3597.00,0.0048
3596.00,0.0048
3595.00,0.0048
3594.00,0.0049
3593.00,0.0049
3592.00,0.0049
3591.00,0.0050
3590.00,0.0050
3589.00,0.0050
3588.00,0.0050
3587.00,0.0050
3586.00,0.0050
3585.00,0.0050
3584.00,0.0051
3583.00,0.0051
3582.00,0.0052
3581.00,0.0052
3580.00,0.0053
3579.00,0.0053
3578.00,0.0053
3577.00,0.0053
3576.00,0.0053
3575.00,0.0054
3574.00,0.0054
3573.00,0.0055
3572.00,0.0055
3571.00,0.0055
3570.00,0.0055
3569.00,0.0055
3568.00,0.0054
3567.00,0.0055
3566.00,0.0055
3565.00,0.0055
3564.00,0.0055
3563.00,0.0055
3562.00,0.0056
3561.00,0.0057
3560.00,0.0058
3559.00,0.0058
3558.00,0.0059
3557.00,0.0059
3556.00,0.0060
3555.00,0.0060
3554.00,0.0060
3553.00,0.0060
3552.00,0.0060
3551.00,0.0060
3550.00,0.0060
3549.00,0.0060
3548.00,0.0060
3547.00,0.0061
3546.00,0.0061
3545.00,0.0061
3544.00,0.0062
3543.00,0.0062
3542.00,0.0062
3541.00,0.0063
3540.00,0.0063
3539.00,0.0064
3538.00,0.0064
3537.00,0.0064
3536.00,0.0065
3535.00,0.0065
3534.00,0.0065
3533.00,0.0065
3532.00,0.0064
3531.00,0.0065
3530.00,0.0065
3529.00,0.0066
3528.00,0.0066
3527.00,0.0066
3526.00,0.0067
3525.00,0.0067
3524.00,0.0067
3523.00,0.0068
3522.00,0.0068
3521.00,0.0068
3520.00,0.0068
3519.00,0.0068
3518.00,0.0068
3517.00,0.0068
3516.00,0.0068
3515.00,0.0069
3514.00,0.0069
3513.00,0.0069
3512.00,0.0069
3511.00,0.0069
3510.00,0.0070
3509.00,0.0070
3508.00,0.0070
3507.00,0.0070
3506.00,0.0070
3505.00,0.0070
3504.00,0.0070
3503.00,0.0070
3502.00,0.0070
3501.00,0.0071
3500.00,0.0071
3499.00,0.0071
3498.00,0.0072
3497.00,0.0072
3496.00,0.0072
3495.00,0.0072
3494.00,0.0072
3493.00,0.0073
3492.00,0.0073
3491.00,0.0073
3490.00,0.0073
3489.00,0.0073
3488.00,0.0073
3487.00,0.0074
3486.00,0.0074
3485.00,0.0074
3484.00,0.0074
3483.00,0.0074
3482.00,0.0074
3481.00,0.0074
3480.00,0.0074
3479.00,0.0074
3478.00,0.0074
3477.00,0.0074
3476.00,0.0074
3475.00,0.0074
3474.00,0.0074
3473.00,0.0074
3472.00,0.0074
3471.00,0.0074
3470.00,0.0074
3469.00,0.0074
3468.00,0.0074
3467.00,0.0074
3466.00,0.0073
3465.00,0.0072
3464.00,0.0071
3463.00,0.0070
3462.00,0.0069
3461.00,0.0068
3460.00,0.0067
3459.00,0.0066
3458.00,0.0064
3457.00,0.0063
3456.00,0.0061
3455.00,0.0060
3454.00,0.0059
3453.00,0.0058
3452.00,0.0058
3451.00,0.0058
3450.00,0.0059
3449.00,0.0060
3448.00,0.0063
3447.00,0.0066
3446.00,0.0069
3445.00,0.0072
3444.00,0.0075
3443.00,0.0078
3442.00,0.0081
3441.00,0.0084
3440.00,0.0086
3439.00,0.0087
3438.00,0.0089
3437.00,0.0090
3436.00,0.0091
3435.00,0.0091
3434.00,0.0092
3433.00,0.0092
3432.00,0.0092
3431.00,0.0093
3430.00,0.0093
3429.00,0.0093
3428.00,0.0094
3427.00,0.0094
3426.00,0.0094
3425.00,0.0094
3424.00,0.0094
3423.00,0.0095
3422.00,0.0095
3421.00,0.0096
3420.00,0.0096
3419.00,0.0096
3418.00,0.0097
3417.00,0.0097
3416.00,0.0098
3415.00,0.0099
3414.00,0.0099
3413.00,0.0099
3412.00,0.0099
3411.00,0.0100
3410.00,0.0100
3409.00,0.0101
3408.00,0.0101
3407.00,0.0101
3406.00,0.0102
3405.00,0.0102
3404.00,0.0102
3403.00,0.0103
3402.00,0.0103
3401.00,0.0103
3400.00,0.0104
3399.00,0.0104
3398.00,0.0105
3397.00,0.0105
3396.00,0.0106
3395.00,0.0106
3394.00,0.0106
3393.00,0.0106
3392.00,0.0107
3391.00,0.0107
3390.00,0.0108
3389.00,0.0108
3388.00,0.0109
3387.00,0.0109
3386.00,0.0109
3385.00,0.0110
3384.00,0.0110
3383.00,0.0111
3382.00,0.0111
3381.00,0.0112
3380.00,0.0112
3379.00,0.0112
3378.00,0.0112
3377.00,0.0113
3376.00,0.0113
3375.00,0.0114
3374.00,0.0114
3373.00,0.0115
3372.00,0.0115
3371.00,0.0116
3370.00,0.0117
3369.00,0.0117
3368.00,0.0118
3367.00,0.0118
3366.00,0.0119
3365.00,0.0119
3364.00,0.0120
3363.00,0.0120
3362.00,0.0121
3361.00,0.0122
3360.00,0.0122
3359.00,0.0123
3358.00,0.0123
3357.00,0.0124
3356.00,0.0124
3355.00,0.0125
3354.00,0.0125
3353.00,0.0126
3352.00,0.0126
3351.00,0.0127
3350.00,0.0128
3349.00,0.0129
3348.00,0.0129
3347.00,0.0130
3346.00,0.0131
3345.00,0.0131
3344.00,0.0132
3343.00,0.0132
3342.00,0.0133
3341.00,0.0134
3340.00,0.0135
3339.00,0.0136
3338.00,0.0136
3337.00,0.0137
3336.00,0.0138
3335.00,0.0138
3334.00,0.0139
3333.00,0.0139
3332.00,0.0140
3331.00,0.0141
3330.00,0.0141
3329.00,0.0142
3328.00,0.0143
3327.00,0.0144
3326.00,0.0145
3325.00,0.0146
3324.00,0.0147
3323.00,0.0148
3322.00,0.0148
3321.00,0.0149
3320.00,0.0150
3319.00,0.0150
3318.00,0.0151
3317.00,0.0152
3316.00,0.0153
3315.00,0.0154
3314.00,0.0155
3313.00,0.0156
3312.00,0.0157
3311.00,0.0157
3310.00,0.0158
3309.00,0.0159
3308.00,0.0160
3307.00,0.0161
3306.00,0.0162
3305.00,0.0163
3304.00,0.0164
3303.00,0.0165
3302.00,0.0165
3301.00,0.0166
3300.00,0.0167
3299.00,0.0168
3298.00,0.0168
3297.00,0.0169
3296.00,0.0170
3295.00,0.0171
3294.00,0.0171
3293.00,0.0172
3292.00,0.0173
3291.00,0.0173
3290.00,0.0174
3289.00,0.0175
3288.00,0.0175
3287.00,0.0176
3286.00,0.0176
3285.00,0.0177
3284.00,0.0177
3283.00,0.0178
3282.00,0.0178
3281.00,0.0178
3280.00,0.0178
3279.00,0.0178
3278.00,0.0179
3277.00,0.0179
3276.00,0.0178
3275.00,0.0178
3274.00,0.0178
3273.00,0.0177
3272.00,0.0177
3271.00,0.0176
3270.00,0.0176
3269.00,0.0176
3268.00,0.0176
3267.00,0.0175
3266.00,0.0174
3265.00,0.0174
3264.00,0.0173
3263.00,0.0172
3262.00,0.0171
3261.00,0.0171
3260.00,0.0170
3259.00,0.0169
3258.00,0.0168
3257.00,0.0167
3256.00,0.0166
3255.00,0.0165
3254.00,0.0164
3253.00,0.0163
3252.00,0.0162
3251.00,0.0162
3250.00,0.0161
3249.00,0.0160
3248.00,0.0159
3247.00,0.0158
3246.00,0.0157
3245.00,0.0156
3244.00,0.0156
3243.00,0.0155
3242.00,0.0154
3241.00,0.0153
3240.00,0.0152
3239.00,0.0151
3238.00,0.0151
3237.00,0.0150
3236.00,0.0149
3235.00,0.0148
3234.00,0.0148
3233.00,0.0147
3232.00,0.0147
3231.00,0.0146
3230.00,0.0146
3229.00,0.0145
3228.00,0.0144
3227.00,0.0143
3226.00,0.0143
3225.00,0.0142
3224.00,0.0142
3223.00,0.0142
3222.00,0.0141
3221.00,0.0141
3220.00,0.0140
3219.00,0.0140
3218.00,0.0139
3217.00,0.0138
3216.00,0.0138
3215.00,0.0137
3214.00,0.0137
3213.00,0.0136
3212.00,0.0136
3211.00,0.0136
3210.00,0.0135
3209.00,0.0135
3208.00,0.0134
3207.00,0.0134
3206.00,0.0134
3205.00,0.0133
3204.00,0.0133
3203.00,0.0132
3202.00,0.0132
3201.00,0.0131
3200.00,0.0131
3199.00,0.0130
3198.00,0.0130
3197.00,0.0129
3196.00,0.0128
3195.00,0.0128
3194.00,0.0127
3193.00,0.0127
3192.00,0.0127
3191.00,0.0126
3190.00,0.0126
3189.00,0.0126
3188.00,0.0125
3187.00,0.0125
3186.00,0.0124
3185.00,0.0124
3184.00,0.0123
3183.00,0.0123
3182.00,0.0122
3181.00,0.0122
3180.00,0.0121
3179.00,0.0120
3178.00,0.0120
3177.00,0.0119
3176.00,0.0119
3175.00,0.0118
3174.00,0.0118
3173.00,0.0118
3172.00,0.0118
3171.00,0.0118
3170.00,0.0117
3169.00,0.0116
3168.00,0.0115
3167.00,0.0115
3166.00,0.0114
3165.00,0.0114
3164.00,0.0114
3163.00,0.0113
3162.00,0.0113
3161.00,0.0112
3160.00,0.0112
3159.00,0.0111
3158.00,0.0111
3157.00,0.0110
3156.00,0.0110
3155.00,0.0109
3154.00,0.0109
3153.00,0.0108
3152.00,0.0108
3151.00,0.0107
3150.00,0.0107
3149.00,0.0107
3148.00,0.0107
3147.00,0.0106
3146.00,0.0106
3145.00,0.0105
3144.00,0.0105
3143.00,0.0104
3142.00,0.0103
3141.00,0.0103
3140.00,0.0102
3139.00,0.0102
3138.00,0.0101
3137.00,0.0101
3136.00,0.0101
3135.00,0.0101
3134.00,0.0101
3133.00,0.0100
3132.00,0.0100
3131.00,0.0099
3130.00,0.0098
3129.00,0.0098
3128.00,0.0097
3127.00,0.0097
3126.00,0.0097
3125.00,0.0097
3124.00,0.0096
3123.00,0.0096
3122.00,0.0096
3121.00,0.0095
3120.00,0.0095
3119.00,0.0095
3118.00,0.0095
3117.00,0.0095
3116.00,0.0095
3115.00,0.0095
3114.00,0.0095
3113.00,0.0095
3112.00,0.0095
3111.00,0.0095
3110.00,0.0094
3109.00,0.0094
3108.00,0.0094
3107.00,0.0093
3106.00,0.0094
3105.00,0.0094
3104.00,0.0094
3103.00,0.0094
3102.00,0.0094
3101.00,0.0094
3100.00,0.0094
3099.00,0.0094
3098.00,0.0094
3097.00,0.0094
3096.00,0.0095
3095.00,0.0095
3094.00,0.0095
3093.00,0.0095
3092.00,0.0095
3091.00,0.0095
3090.00,0.0095
3089.00,0.0095
3088.00,0.0096
3087.00,0.0096
3086.00,0.0096
3085.00,0.0097
3084.00,0.0097
3083.00,0.0097
3082.00,0.0097
3081.00,0.0097
3080.00,0.0097
3079.00,0.0097
3078.00,0.0097
3077.00,0.0097
3076.00,0.0098
3075.00,0.0098
3074.00,0.0098
3073.00,0.0098
3072.00,0.0097
3071.00,0.0097
3070.00,0.0096
3069.00,0.0096
3068.00,0.0096
3067.00,0.0097
3066.00,0.0097
3065.00,0.0097
3064.00,0.0097
3063.00,0.0097
3062.00,0.0097
3061.00,0.0098
3060.00,0.0098
3059.00,0.0098
3058.00,0.0098
3057.00,0.0098
3056.00,0.0097
3055.00,0.0097
3054.00,0.0097
3053.00,0.0097
3052.00,0.0097
3051.00,0.0097
3050.00,0.0097
3049.00,0.0097
3048.00,0.0097
3047.00,0.0096
3046.00,0.0096
3045.00,0.0096
3044.00,0.0096
3043.00,0.0095
3042.00,0.0095
3041.00,0.0095
3040.00,0.0095
3039.00,0.0094
3038.00,0.0094
3037.00,0.0093
3036.00,0.0093
3035.00,0.0092
3034.00,0.0092
3033.00,0.0092
3032.00,0.0092
3031.00,0.0091
3030.00,0.0091
3029.00,0.0091
3028.00,0.0091
3027.00,0.0091
3026.00,0.0090
3025.00,0.0090
3024.00,0.0090
3023.00,0.0089
3022.00,0.0089
3021.00,0.0088
3020.00,0.0088
3019.00,0.0087
3018.00,0.0087
3017.00,0.0086
3016.00,0.0085
3015.00,0.0085
3014.00,0.0084
3013.00,0.0084
3012.00,0.0083
3011.00,0.0083
3010.00,0.0082
3009.00,0.0081
3008.00,0.0080
3007.00,0.0079
3006.00,0.0078
3005.00,0.0077
3004.00,0.0076
3003.00,0.0075
3002.00,0.0074
3001.00,0.0073
3000.00,0.0073
2999.00,0.0072
2998.00,0.0072
2997.00,0.0071
2996.00,0.0071
2995.00,0.0070
2994.00,0.0070
2993.00,0.0070
2992.00,0.0070
2991.00,0.0069
2990.00,0.0069
2989.00,0.0069
2988.00,0.0069
2987.00,0.0069
2986.00,0.0068
2985.00,0.0067
2984.00,0.0065
2983.00,0.0064
2982.00,0.0063
2981.00,0.0063
2980.00,0.0064
2979.00,0.0066
2978.00,0.0068
2977.00,0.0069
2976.00,0.0071
2975.00,0.0072
2974.00,0.0073
2973.00,0.0074
2972.00,0.0075
2971.00,0.0076
2970.00,0.0077
2969.00,0.0079
2968.00,0.0081
2967.00,0.0083
2966.00,0.0084
2965.00,0.0086
2964.00,0.0087
2963.00,0.0088
2962.00,0.0089
2961.00,0.0089
2960.00,0.0089
2959.00,0.0089
2958.00,0.0088
2957.00,0.0088
2956.00,0.0087
2955.00,0.0086
2954.00,0.0085
2953.00,0.0085
2952.00,0.0084
2951.00,0.0084
2950.00,0.0084
2949.00,0.0084
2948.00,0.0085
2947.00,0.0086
2946.00,0.0088
2945.00,0.0089
2944.00,0.0091
2943.00,0.0092
2942.00,0.0092
2941.00,0.0093
2940.00,0.0093
2939.00,0.0093
2938.00,0.0094
2937.00,0.0094
2936.00,0.0094
2935.00,0.0094
2934.00,0.0094
2933.00,0.0094
2932.00,0.0093
2931.00,0.0093
2930.00,0.0092
2929.00,0.0091
2928.00,0.0090
2927.00,0.0089
2926.00,0.0088
2925.00,0.0088
2924.00,0.0087
2923.00,0.0087
2922.00,0.0086
2921.00,0.0086
2920.00,0.0086
2919.00,0.0085
2918.00,0.0085
2917.00,0.0084
2916.00,0.0083
2915.00,0.0082
2914.00,0.0081
2913.00,0.0080
2912.00,0.0080
2911.00,0.0079
2910.00,0.0079
2909.00,0.0078
2908.00,0.0078
2907.00,0.0078
2906.00,0.0078
2905.00,0.0078
2904.00,0.0078
2903.00,0.0078
2902.00,0.0078
2901.00,0.0078
2900.00,0.0077
2899.00,0.0077
2898.00,0.0077
2897.00,0.0076
2896.00,0.0076
2895.00,0.0076
2894.00,0.0075
2893.00,0.0075
2892.00,0.0074
2891.00,0.0074
2890.00,0.0073
2889.00,0.0073
2888.00,0.0073
2887.00,0.0073
2886.00,0.0073
2885.00,0.0074
2884.00,0.0074
2883.00,0.0074
2882.00,0.0075
2881.00,0.0075
2880.00,0.0076
2879.00,0.0077
2878.00,0.0078
2877.00,0.0079
2876.00,0.0079
2875.00,0.0079
2874.00,0.0079
2873.00,0.0078
2872.00,0.0078
2871.00,0.0077
2870.00,0.0076
2869.00,0.0076
2868.00,0.0076
2867.00,0.0076
2866.00,0.0076
2865.00,0.0075
2864.00,0.0075
2863.00,0.0075
2862.00,0.0074
2861.00,0.0073
2860.00,0.0073
2859.00,0.0072
2858.00,0.0072
2857.00,0.0071
2856.00,0.0071
2855.00,0.0071
2854.00,0.0072
2853.00,0.0072
2852.00,0.0073
2851.00,0.0073
2850.00,0.0073
2849.00,0.0073
2848.00,0.0073
2847.00,0.0073
2846.00,0.0072
2845.00,0.0072
2844.00,0.0071
2843.00,0.0071
2842.00,0.0070
2841.00,0.0070
2840.00,0.0069
2839.00,0.0069
2838.00,0.0068
2837.00,0.0068
2836.00,0.0067
2835.00,0.0067
2834.00,0.0066
2833.00,0.0066
2832.00,0.0065
2831.00,0.0065
2830.00,0.0065
2829.00,0.0065
2828.00,0.0066
2827.00,0.0066
2826.00,0.0066
2825.00,0.0067
2824.00,0.0067
2823.00,0.0068
2822.00,0.0068
2821.00,0.0068
2820.00,0.0068
2819.00,0.0068
2818.00,0.0068
2817.00,0.0069
2816.00,0.0069
2815.00,0.0069
2814.00,0.0069
2813.00,0.0068
2812.00,0.0068
2811.00,0.0068
2810.00,0.0068
2809.00,0.0068
2808.00,0.0068
2807.00,0.0068
2806.00,0.0068
2805.00,0.0068
2804.00,0.0068
2803.00,0.0068
2802.00,0.0068
2801.00,0.0067
2800.00,0.0067
2799.00,0.0067
2798.00,0.0067
2797.00,0.0067
2796.00,0.0067
2795.00,0.0067
2794.00,0.0066
2793.00,0.0066
2792.00,0.0066
2791.00,0.0066
2790.00,0.0066
2789.00,0.0065
2788.00,0.0065
2787.00,0.0065
2786.00,0.0065
2785.00,0.0065
2784.00,0.0065
2783.00,0.0065
2782.00,0.0065
2781.00,0.0064
2780.00,0.0064
2779.00,0.0064
2778.00,0.0064
2777.00,0.0064
2776.00,0.0063
2775.00,0.0063
2774.00,0.0063
2773.00,0.0063
2772.00,0.0063
2771.00,0.0062
2770.00,0.0062
2769.00,0.0062
2768.00,0.0062
2767.00,0.0061
2766.00,0.0061
2765.00,0.0061
2764.00,0.0061
2763.00,0.0061
2762.00,0.0060
2761.00,0.0060
2760.00,0.0060
2759.00,0.0060
2758.00,0.0060
2757.00,0.0060
2756.00,0.0060
2755.00,0.0059
2754.00,0.0059
2753.00,0.0059
2752.00,0.0059
2751.00,0.0059
2750.00,0.0058
2749.00,0.0058
2748.00,0.0058
2747.00,0.0058
2746.00,0.0058
2745.00,0.0058
2744.00,0.0058
2743.00,0.0057
2742.00,0.0057
2741.00,0.0057
2740.00,0.0057
2739.00,0.0057
2738.00,0.0057
2737.00,0.0057
2736.00,0.0057
2735.00,0.0057
2734.00,0.0057
2733.00,0.0057
2732.00,0.0057
2731.00,0.0056
2730.00,0.0056
2729.00,0.0056
2728.00,0.0055
2727.00,0.0055
2726.00,0.0055
2725.00,0.0055
2724.00,0.0055
2723.00,0.0055
2722.00,0.0055
2721.00,0.0055
2720.00,0.0054
2719.00,0.0054
2718.00,0.0054
2717.00,0.0054
2716.00,0.0054
2715.00,0.0054
2714.00,0.0054
2713.00,0.0054
2712.00,0.0054
2711.00,0.0053
2710.00,0.0053
2709.00,0.0053
2708.00,0.0053
2707.00,0.0053
2706.00,0.0053
2705.00,0.0053
2704.00,0.0052
2703.00,0.0052
2702.00,0.0052
2701.00,0.0052
2700.00,0.0052
2699.00,0.0052
2698.00,0.0052
2697.00,0.0052
2696.00,0.0052
2695.00,0.0052
2694.00,0.0051
2693.00,0.0051
2692.00,0.0051
2691.00,0.0051
2690.00,0.0051
2689.00,0.0051
2688.00,0.0051
2687.00,0.0051
2686.00,0.0051
2685.00,0.0051
2684.00,0.0051
2683.00,0.0050
2682.00,0.0050
2681.00,0.0050
2680.00,0.0050
2679.00,0.0050
2678.00,0.0050
2677.00,0.0049
2676.00,0.0049
2675.00,0.0049
2674.00,0.0050
2673.00,0.0050
2672.00,0.0050
2671.00,0.0050
2670.00,0.0050
2669.00,0.0050
2668.00,0.0050
2667.00,0.0050
2666.00,0.0050
2665.00,0.0051
2664.00,0.0051
2663.00,0.0051
2662.00,0.0051
2661.00,0.0052
2660.00,0.0052
2659.00,0.0052
2658.00,0.0052
2657.00,0.0052
2656.00,0.0053
2655.00,0.0053
2654.00,0.0053
2653.00,0.0053
2652.00,0.0053
2651.00,0.0053
2650.00,0.0053
2649.00,0.0053
2648.00,0.0053
2647.00,0.0053
2646.00,0.0053
2645.00,0.0053
2644.00,0.0053
2643.00,0.0053
2642.00,0.0052
2641.00,0.0052
2640.00,0.0052
2639.00,0.0052
2638.00,0.0052
2637.00,0.0052
2636.00,0.0052
2635.00,0.0052
2634.00,0.0052
2633.00,0.0052
2632.00,0.0052
2631.00,0.0052
2630.00,0.0052
2629.00,0.0052
2628.00,0.0052
2627.00,0.0052
2626.00,0.0052
2625.00,0.0052
2624.00,0.0051
2623.00,0.0051
2622.00,0.0051
2621.00,0.0051
2620.00,0.0051
2619.00,0.0051
2618.00,0.0051
2617.00,0.0051
2616.00,0.0051
2615.00,0.0051
2614.00,0.0050
2613.00,0.0050
2612.00,0.0050
2611.00,0.0050
2610.00,0.0050
2609.00,0.0050
2608.00,0.0050
2607.00,0.0050
2606.00,0.0050
2605.00,0.0049
2604.00,0.0049
2603.00,0.0049
2602.00,0.0049
2601.00,0.0049
2600.00,0.0049
2599.00,0.0049
2598.00,0.0049
2597.00,0.0049
2596.00,0.0049
2595.00,0.0049
2594.00,0.0049
2593.00,0.0048
2592.00,0.0048
2591.00,0.0048
2590.00,0.0047
2589.00,0.0047
2588.00,0.0048
2587.00,0.0048
2586.00,0.0048
2585.00,0.0047
2584.00,0.0047
2583.00,0.0047
2582.00,0.0048
2581.00,0.0048
2580.00,0.0048
2579.00,0.0047
2578.00,0.0047
2577.00,0.0047
2576.00,0.0047
2575.00,0.0047
2574.00,0.0046
2573.00,0.0046
2572.00,0.0046
2571.00,0.0046
2570.00,0.0045
2569.00,0.0045
2568.00,0.0045
2567.00,0.0045
2566.00,0.0045
2565.00,0.0045
2564.00,0.0045
2563.00,0.0045
2562.00,0.0044
2561.00,0.0044
2560.00,0.0044
2559.00,0.0043
2558.00,0.0043
2557.00,0.0043
2556.00,0.0043
2555.00,0.0043
2554.00,0.0044
2553.00,0.0044
2552.00,0.0044
2551.00,0.0044
2550.00,0.0044
2549.00,0.0043
2548.00,0.0043
2547.00,0.0043
2546.00,0.0043
2545.00,0.0043
2544.00,0.0043
2543.00,0.0043
2542.00,0.0042
2541.00,0.0042
2540.00,0.0042
2539.00,0.0042
2538.00,0.0042
2537.00,0.0042
2536.00,0.0043
2535.00,0.0043
2534.00,0.0043
2533.00,0.0042
2532.00,0.0042
2531.00,0.0042
2530.00,0.0042
2529.00,0.0042
2528.00,0.0042
2527.00,0.0042
2526.00,0.0042
2525.00,0.0042
2524.00,0.0042
2523.00,0.0042
2522.00,0.0042
2521.00,0.0042
2520.00,0.0042
2519.00,0.0042
2518.00,0.0042
2517.00,0.0042
2516.00,0.0042
2515.00,0.0042
2514.00,0.0041
2513.00,0.0041
2512.00,0.0041
2511.00,0.0041
2510.00,0.0041
2509.00,0.0041
2508.00,0.0041
2507.00,0.0041
2506.00,0.0041
2505.00,0.0041
2504.00,0.0041
2503.00,0.0041
2502.00,0.0042
2501.00,0.0042
2500.00,0.0042
2499.00,0.0042
2498.00,0.0042
2497.00,0.0042
2496.00,0.0041
2495.00,0.0041
2494.00,0.0040
2493.00,0.0040
2492.00,0.0040
2491.00,0.0040
2490.00,0.0040
2489.00,0.0040
2488.00,0.0040
2487.00,0.0040
2486.00,0.0040
2485.00,0.0040
2484.00,0.0040
2483.00,0.0040
2482.00,0.0040
2481.00,0.0040
2480.00,0.0040
2479.00,0.0040
2478.00,0.0040
2477.00,0.0040
2476.00,0.0040
2475.00,0.0039
2474.00,0.0039
2473.00,0.0039
2472.00,0.0039
2471.00,0.0039
2470.00,0.0039
2469.00,0.0039
2468.00,0.0039
2467.00,0.0039
2466.00,0.0039
2465.00,0.0039
2464.00,0.0039
2463.00,0.0039
2462.00,0.0039
2461.00,0.0039
2460.00,0.0040
2459.00,0.0040
2458.00,0.0040
2457.00,0.0040
2456.00,0.0040
2455.00,0.0040
2454.00,0.0040
2453.00,0.0040
2452.00,0.0039
2451.00,0.0039
2450.00,0.0039
2449.00,0.0038
2448.00,0.0038
2447.00,0.0038
2446.00,0.0038
2445.00,0.0037
2444.00,0.0037
2443.00,0.0037
2442.00,0.0037
2441.00,0.0037
2440.00,0.0037
2439.00,0.0037
2438.00,0.0036
2437.00,0.0036
2436.00,0.0036
2435.00,0.0036
2434.00,0.0036
2433.00,0.0036
2432.00,0.0036
2431.00,0.0036
2430.00,0.0036
2429.00,0.0036
2428.00,0.0035
2427.00,0.0035
2426.00,0.0034
2425.00,0.0034
2424.00,0.0035
2423.00,0.0035
2422.00,0.0035
2421.00,0.0035
2420.00,0.0035
2419.00,0.0035
2418.00,0.0035
2417.00,0.0035
2416.00,0.0035
2415.00,0.0035
2414.00,0.0035
2413.00,0.0035
2412.00,0.0035
2411.00,0.0035
2410.00,0.0035
2409.00,0.0035
2408.00,0.0034
2407.00,0.0034
2406.00,0.0033
2405.00,0.0033
2404.00,0.0033
2403.00,0.0033
2402.00,0.0033
2401.00,0.0033
2400.00,0.0033
2399.00,0.0033
2398.00,0.0034
2397.00,0.0034
2396.00,0.0034
2395.00,0.0034
2394.00,0.0034
2393.00,0.0034
2392.00,0.0034
2391.00,0.0034
2390.00,0.0034
2389.00,0.0033
2388.00,0.0033
2387.00,0.0032
2386.00,0.0032
2385.00,0.0032
2384.00,0.0031
2383.00,0.0031
2382.00,0.0031
2381.00,0.0030
2380.00,0.0030
2379.00,0.0030
2378.00,0.0030
2377.00,0.0030
2376.00,0.0030
2375.00,0.0030
2374.00,0.0030
2373.00,0.0030
2372.00,0.0030
2371.00,0.0030
2370.00,0.0030
2369.00,0.0030
2368.00,0.0030
2367.00,0.0030
2366.00,0.0030
2365.00,0.0031
2364.00,0.0031
2363.00,0.0031
2362.00,0.0030
2361.00,0.0030
2360.00,0.0029
2359.00,0.0030
2358.00,0.0030
2357.00,0.0031
2356.00,0.0031
2355.00,0.0031
2354.00,0.0030
2353.00,0.0030
2352.00,0.0030
2351.00,0.0031
2350.00,0.0031
2349.00,0.0032
2348.00,0.0032
2347.00,0.0032
2346.00,0.0032
2345.00,0.0033
2344.00,0.0033
2343.00,0.0033
2342.00,0.0033
2341.00,0.0033
2340.00,0.0034
2339.00,0.0034
2338.00,0.0034
2337.00,0.0034
2336.00,0.0034
2335.00,0.0034
2334.00,0.0034
2333.00,0.0034
2332.00,0.0034
2331.00,0.0034
2330.00,0.0035
2329.00,0.0036
2328.00,0.0038
2327.00,0.0041
2326.00,0.0044
2325.00,0.0045
2324.00,0.0045
2323.00,0.0044
2322.00,0.0043
2321.00,0.0041
2320.00,0.0040
2319.00,0.0039
2318.00,0.0038
2317.00,0.0037
2316.00,0.0037
2315.00,0.0037
2314.00,0.0037
2313.00,0.0037
2312.00,0.0036
2311.00,0.0036
2310.00,0.0036
2309.00,0.0036
2308.00,0.0036
2307.00,0.0036
2306.00,0.0037
2305.00,0.0038
2304.00,0.0038
2303.00,0.0038
2302.00,0.0039
2301.00,0.0039
2300.00,0.0039
2299.00,0.0040
2298.00,0.0040
2297.00,0.0040
2296.00,0.0040
2295.00,0.0041
2294.00,0.0041
2293.00,0.0042
2292.00,0.0043
2291.00,0.0044
2290.00,0.0044
2289.00,0.0044
2288.00,0.0045
2287.00,0.0045
2286.00,0.0045
2285.00,0.0044
2284.00,0.0044
2283.00,0.0043
2282.00,0.0043
2281.00,0.0043
2280.00,0.0043
2279.00,0.0044
2278.00,0.0043
2277.00,0.0043
2276.00,0.0042
2275.00,0.0042
2274.00,0.0042
2273.00,0.0042
2272.00,0.0042
2271.00,0.0042
2270.00,0.0041
2269.00,0.0041
2268.00,0.0040
2267.00,0.0040
2266.00,0.0039
2265.00,0.0038
2264.00,0.0038
2263.00,0.0038
2262.00,0.0038
2261.00,0.0038
2260.00,0.0039
2259.00,0.0039
2258.00,0.0039
2257.00,0.0039
2256.00,0.0038
2255.00,0.0037
2254.00,0.0037
2253.00,0.0036
2252.00,0.0036
2251.00,0.0036
2250.00,0.0037
2249.00,0.0037
2248.00,0.0037
2247.00,0.0037
2246.00,0.0038
2245.00,0.0038
2244.00,0.0039
2243.00,0.0039
2242.00,0.0039
2241.00,0.0038
2240.00,0.0037
2239.00,0.0037
2238.00,0.0037
2237.00,0.0037
2236.00,0.0037
2235.00,0.0037
2234.00,0.0037
2233.00,0.0036
2232.00,0.0036
2231.00,0.0037
2230.00,0.0037
2229.00,0.0037
2228.00,0.0037
2227.00,0.0037
2226.00,0.0038
2225.00,0.0038
2224.00,0.0038
2223.00,0.0037
2222.00,0.0036
2221.00,0.0036
2220.00,0.0036
2219.00,0.0036
2218.00,0.0036
2217.00,0.0035
2216.00,0.0035
2215.00,0.0035
2214.00,0.0035
2213.00,0.0036
2212.00,0.0037
2211.00,0.0037
2210.00,0.0037
2209.00,0.0036
2208.00,0.0037
2207.00,0.0037
2206.00,0.0037
2205.00,0.0037
2204.00,0.0038
2203.00,0.0038
2202.00,0.0038
2201.00,0.0038
2200.00,0.0037
2199.00,0.0037
2198.00,0.0038
2197.00,0.0038
2196.00,0.0039
2195.00,0.0041
2194.00,0.0041
2193.00,0.0041
2192.00,0.0041
2191.00,0.0040
2190.00,0.0040
2189.00,0.0040
2188.00,0.0041
2187.00,0.0042
2186.00,0.0041
2185.00,0.0040
2184.00,0.0039
2183.00,0.0037
2182.00,0.0036
2181.00,0.0035
2180.00,0.0036
2179.00,0.0036
2178.00,0.0036
2177.00,0.0034
2176.00,0.0033
2175.00,0.0032
2174.00,0.0032
2173.00,0.0033
2172.00,0.0035
2171.00,0.0037
2170.00,0.0039
2169.00,0.0041
2168.00,0.0043
2167.00,0.0045
2166.00,0.0046
2165.00,0.0047
2164.00,0.0048
2163.00,0.0048
2162.00,0.0045
2161.00,0.0036
2160.00,0.0025
2159.00,0.0015
2158.00,0.0010
2157.00,0.0010
2156.00,0.0012
2155.00,0.0014
2154.00,0.0016
2153.00,0.0018
2152.00,0.0019
2151.00,0.0020
2150.00,0.0021
2149.00,0.0022
2148.00,0.0023
2147.00,0.0023
2146.00,0.0023
2145.00,0.0023
2144.00,0.0023
2143.00,0.0023
2142.00,0.0023
2141.00,0.0023
2140.00,0.0023
2139.00,0.0024
2138.00,0.0023
2137.00,0.0022
2136.00,0.0021
2135.00,0.0019
2134.00,0.0018
2133.00,0.0019
2132.00,0.0021
2131.00,0.0023
2130.00,0.0024
2129.00,0.0025
2128.00,0.0026
2127.00,0.0027
2126.00,0.0027
2125.00,0.0028
2124.00,0.0029
2123.00,0.0029
2122.00,0.0030
2121.00,0.0031
2120.00,0.0031
2119.00,0.0032
2118.00,0.0033
2117.00,0.0034
2116.00,0.0035
2115.00,0.0036
2114.00,0.0036
2113.00,0.0036
2112.00,0.0037
2111.00,0.0037
2110.00,0.0038
2109.00,0.0037
2108.00,0.0037
2107.00,0.0036
2106.00,0.0036
2105.00,0.0036
2104.00,0.0036
2103.00,0.0036
2102.00,0.0036
2101.00,0.0036
2100.00,0.0036
2099.00,0.0036
2098.00,0.0034
2097.00,0.0033
2096.00,0.0031
2095.00,0.0030
2094.00,0.0030
2093.00,0.0031
2092.00,0.0032
2091.00,0.0034
2090.00,0.0035
2089.00,0.0035
2088.00,0.0035
2087.00,0.0035
2086.00,0.0035
2085.00,0.0036
2084.00,0.0036
2083.00,0.0037
2082.00,0.0038
2081.00,0.0039
2080.00,0.0039
2079.00,0.0039
2078.00,0.0039
2077.00,0.0038
2076.00,0.0038
2075.00,0.0037
2074.00,0.0037
2073.00,0.0037
2072.00,0.0037
2071.00,0.0037
2070.00,0.0037
2069.00,0.0036
2068.00,0.0036
2067.00,0.0036
2066.00,0.0036
2065.00,0.0035
2064.00,0.0035
2063.00,0.0035
2062.00,0.0035
2061.00,0.0035
2060.00,0.0036
2059.00,0.0036
2058.00,0.0036
2057.00,0.0036
2056.00,0.0036
2055.00,0.0037
2054.00,0.0039
2053.00,0.0041
2052.00,0.0044
2051.00,0.0044
2050.00,0.0043
2049.00,0.0041
2048.00,0.0039
2047.00,0.0038
2046.00,0.0037
2045.00,0.0036
2044.00,0.0036
2043.00,0.0036
2042.00,0.0036
2041.00,0.0036
2040.00,0.0037
2039.00,0.0038
2038.00,0.0039
2037.00,0.0038
2036.00,0.0036
2035.00,0.0034
2034.00,0.0032
2033.00,0.0031
2032.00,0.0031
2031.00,0.0031
2030.00,0.0031
2029.00,0.0031
2028.00,0.0031
2027.00,0.0031
2026.00,0.0031
2025.00,0.0030
2024.00,0.0030
2023.00,0.0030
2022.00,0.0029
2021.00,0.0028
2020.00,0.0028
2019.00,0.0028
2018.00,0.0028
2017.00,0.0029
2016.00,0.0029
2015.00,0.0029
2014.00,0.0029
2013.00,0.0028
2012.00,0.0027
2011.00,0.0026
2010.00,0.0026
2009.00,0.0025
2008.00,0.0025
2007.00,0.0024
2006.00,0.0024
2005.00,0.0025
2004.00,0.0027
2003.00,0.0027
2002.00,0.0027
2001.00,0.0027
2000.00,0.0028
1999.00,0.0029
1998.00,0.0031
1997.00,0.0032
1996.00,0.0033
1995.00,0.0034
1994.00,0.0034
1993.00,0.0034
1992.00,0.0035
1991.00,0.0036
1990.00,0.0037
1989.00,0.0038
1988.00,0.0038
1987.00,0.0037
1986.00,0.0037
1985.00,0.0038
1984.00,0.0039
1983.00,0.0041
1982.00,0.0043
1981.00,0.0045
1980.00,0.0043
1979.00,0.0038
1978.00,0.0031
1977.00,0.0027
1976.00,0.0025
1975.00,0.0026
1974.00,0.0027
1973.00,0.0026
1972.00,0.0026
1971.00,0.0025
1970.00,0.0025
1969.00,0.0025
1968.00,0.0024
1967.00,0.0024
1966.00,0.0024
1965.00,0.0024
1964.00,0.0025
1963.00,0.0025
1962.00,0.0025
1961.00,0.0025
1960.00,0.0025
1959.00,0.0025
1958.00,0.0025
1957.00,0.0026
1956.00,0.0026
1955.00,0.0026
1954.00,0.0026
1953.00,0.0026
1952.00,0.0025
1951.00,0.0025
1950.00,0.0024
1949.00,0.0024
1948.00,0.0025
1947.00,0.0026
1946.00,0.0027
1945.00,0.0027
1944.00,0.0027
1943.00,0.0026
1942.00,0.0026
1941.00,0.0026
1940.00,0.0026
1939.00,0.0026
1938.00,0.0027
1937.00,0.0028
1936.00,0.0028
1935.00,0.0028
1934.00,0.0027
1933.00,0.0026
1932.00,0.0026
1931.00,0.0026
1930.00,0.0026
1929.00,0.0027
1928.00,0.0028
1927.00,0.0028
1926.00,0.0028
1925.00,0.0028
1924.00,0.0028
1923.00,0.0028
1922.00,0.0028
1921.00,0.0028
1920.00,0.0029
1919.00,0.0029
1918.00,0.0029
1917.00,0.0029
1916.00,0.0029
1915.00,0.0029
1914.00,0.0029
1913.00,0.0030
1912.00,0.0030
1911.00,0.0030
1910.00,0.0029
1909.00,0.0029
1908.00,0.0030
1907.00,0.0030
1906.00,0.0030
1905.00,0.0030
1904.00,0.0030
1903.00,0.0030
1902.00,0.0030
1901.00,0.0030
1900.00,0.0030
1899.00,0.0029
1898.00,0.0029
1897.00,0.0029
1896.00,0.0029
1895.00,0.0030
1894.00,0.0030
1893.00,0.0030
1892.00,0.0029
1891.00,0.0029
1890.00,0.0029
1889.00,0.0029
1888.00,0.0029
1887.00,0.0029
1886.00,0.0029
1885.00,0.0030
1884.00,0.0030
1883.00,0.0030
1882.00,0.0030
1881.00,0.0030
1880.00,0.0029
1879.00,0.0029
1878.00,0.0029
1877.00,0.0030
1876.00,0.0030
1875.00,0.0030
1874.00,0.0030
1873.00,0.0029
1872.00,0.0030
1871.00,0.0030
1870.00,0.0030
1869.00,0.0029
1868.00,0.0029
1867.00,0.0029
1866.00,0.0029
1865.00,0.0029
1864.00,0.0029
1863.00,0.0030
1862.00,0.0030
1861.00,0.0030
1860.00,0.0030
1859.00,0.0029
1858.00,0.0029
1857.00,0.0029
1856.00,0.0029
1855.00,0.0029
1854.00,0.0029
1853.00,0.0029
1852.00,0.0029
1851.00,0.0028
1850.00,0.0028
1849.00,0.0028
1848.00,0.0029
1847.00,0.0030
1846.00,0.0031
1845.00,0.0031
1844.00,0.0030
1843.00,0.0029
1842.00,0.0028
1841.00,0.0028
1840.00,0.0029
1839.00,0.0029
1838.00,0.0029
1837.00,0.0029
1836.00,0.0029
1835.00,0.0029
1834.00,0.0029
1833.00,0.0029
1832.00,0.0029
1831.00,0.0030
1830.00,0.0030
1829.00,0.0030
1828.00,0.0030
1827.00,0.0030
1826.00,0.0030
1825.00,0.0030
1824.00,0.0030
1823.00,0.0030
1822.00,0.0029
1821.00,0.0029
1820.00,0.0028
1819.00,0.0027
1818.00,0.0027
1817.00,0.0026
1816.00,0.0027
1815.00,0.0028
1814.00,0.0028
1813.00,0.0029
1812.00,0.0029
1811.00,0.0029
1810.00,0.0029
1809.00,0.0029
1808.00,0.0030
1807.00,0.0030
1806.00,0.0030
1805.00,0.0030
1804.00,0.0030
1803.00,0.0030
1802.00,0.0030
1801.00,0.0030
1800.00,0.0030
1799.00,0.0030
1798.00,0.0030
1797.00,0.0030
1796.00,0.0031
1795.00,0.0031
1794.00,0.0032
1793.00,0.0031
1792.00,0.0030
1791.00,0.0029
1790.00,0.0029
1789.00,0.0029
1788.00,0.0029
1787.00,0.0030
1786.00,0.0030
1785.00,0.0030
1784.00,0.0030
1783.00,0.0030
1782.00,0.0030
1781.00,0.0030
1780.00,0.0030
1779.00,0.0030
1778.00,0.0030
1777.00,0.0030
1776.00,0.0031
1775.00,0.0032
1774.00,0.0033
1773.00,0.0033
1772.00,0.0033
1771.00,0.0033
1770.00,0.0032
1769.00,0.0032
1768.00,0.0031
1767.00,0.0032
1766.00,0.0032
1765.00,0.0033
1764.00,0.0034
1763.00,0.0035
1762.00,0.0036
1761.00,0.0036
1760.00,0.0036
1759.00,0.0037
1758.00,0.0038
1757.00,0.0038
1756.00,0.0039
1755.00,0.0040
1754.00,0.0042
1753.00,0.0043
1752.00,0.0044
1751.00,0.0045
1750.00,0.0046
1749.00,0.0047
1748.00,0.0049
1747.00,0.0050
1746.00,0.0052
1745.00,0.0055
1744.00,0.0057
1743.00,0.0060
1742.00,0.0063
1741.00,0.0066
1740.00,0.0068
1739.00,0.0071
1738.00,0.0074
1737.00,0.0077
1736.00,0.0080
1735.00,0.0084
1734.00,0.0086
1733.00,0.0088
1732.00,0.0089
1731.00,0.0089
1730.00,0.0091
1729.00,0.0092
1728.00,0.0094
1727.00,0.0095
1726.00,0.0096
1725.00,0.0097
1724.00,0.0097
1723.00,0.0098
1722.00,0.0099
1721.00,0.0100
1720.00,0.0101
1719.00,0.0103
1718.00,0.0103
1717.00,0.0102
1716.00,0.0101
1715.00,0.0100
1714.00,0.0098
1713.00,0.0098
1712.00,0.0098
1711.00,0.0098
1710.00,0.0099
1709.00,0.0100
1708.00,0.0102
1707.00,0.0104
1706.00,0.0106
1705.00,0.0108
1704.00,0.0112
1703.00,0.0117
1702.00,0.0121
1701.00,0.0125
1700.00,0.0131
1699.00,0.0137
1698.00,0.0142
1697.00,0.0147
1696.00,0.0151
1695.00,0.0153
1694.00,0.0155
1693.00,0.0157
1692.00,0.0160
1691.00,0.0164
1690.00,0.0167
1689.00,0.0172
1688.00,0.0178
1687.00,0.0184
1686.00,0.0190
1685.00,0.0195
1684.00,0.0199
1683.00,0.0203
1682.00,0.0205
1681.00,0.0209
1680.00,0.0213
1679.00,0.0219
1678.00,0.0224
1677.00,0.0229
1676.00,0.0233
1675.00,0.0238
1674.00,0.0243
1673.00,0.0249
1672.00,0.0254
1671.00,0.0259
1670.00,0.0265
1669.00,0.0270
1668.00,0.0275
1667.00,0.0280
1666.00,0.0285
1665.00,0.0291
1664.00,0.0296
1663.00,0.0302
1662.00,0.0308
1661.00,0.0314
1660.00,0.0320
1659.00,0.0325
1658.00,0.0331
1657.00,0.0338
1656.00,0.0345
1655.00,0.0352
1654.00,0.0357
1653.00,0.0362
1652.00,0.0365
1651.00,0.0365
1650.00,0.0365
1649.00,0.0366
1648.00,0.0366
1647.00,0.0367
1646.00,0.0366
1645.00,0.0365
1644.00,0.0364
1643.00,0.0362
1642.00,0.0361
1641.00,0.0360
1640.00,0.0359
1639.00,0.0359
1638.00,0.0359
1637.00,0.0359
1636.00,0.0359
1635.00,0.0360
1634.00,0.0360
1633.00,0.0360
1632.00,0.0361
1631.00,0.0361
1630.00,0.0362
1629.00,0.0364
1628.00,0.0366
1627.00,0.0369
1626.00,0.0372
1625.00,0.0374
1624.00,0.0375
1623.00,0.0375
1622.00,0.0374
1621.00,0.0373
1620.00,0.0372
1619.00,0.0369
1618.00,0.0365
1617.00,0.0360
1616.00,0.0352
1615.00,0.0345
1614.00,0.0337
1613.00,0.0330
1612.00,0.0322
1611.00,0.0314
1610.00,0.0305
1609.00,0.0297
1608.00,0.0288
1607.00,0.0280
1606.00,0.0272
1605.00,0.0265
1604.00,0.0258
1603.00,0.0250
1602.00,0.0244
1601.00,0.0238
1600.00,0.0231
1599.00,0.0226
1598.00,0.0220
1597.00,0.0215
1596.00,0.0210
1595.00,0.0205
1594.00,0.0200
1593.00,0.0195
1592.00,0.0189
1591.00,0.0184
1590.00,0.0178
1589.00,0.0173
1588.00,0.0167
1587.00,0.0162
1586.00,0.0157
1585.00,0.0153
1584.00,0.0149
1583.00,0.0146
1582.00,0.0143
1581.00,0.0142
1580.00,0.0140
1579.00,0.0139
1578.00,0.0139
1577.00,0.0141
1576.00,0.0142
1575.00,0.0143
1574.00,0.0143
1573.00,0.0143
1572.00,0.0144
1571.00,0.0145
1570.00,0.0150
1569.00,0.0155
1568.00,0.0159
1567.00,0.0163
1566.00,0.0167
1565.00,0.0173
1564.00,0.0179
1563.00,0.0185
1562.00,0.0192
1561.00,0.0198
1560.00,0.0204
1559.00,0.0215
1558.00,0.0228
1557.00,0.0235
1556.00,0.0239
1555.00,0.0244
1554.00,0.0251
1553.00,0.0257
1552.00,0.0263
1551.00,0.0269
1550.00,0.0275
1549.00,0.0283
1548.00,0.0290
1547.00,0.0296
1546.00,0.0301
1545.00,0.0307
1544.00,0.0313
1543.00,0.0320
1542.00,0.0326
1541.00,0.0332
1540.00,0.0337
1539.00,0.0340
1538.00,0.0341
1537.00,0.0342
1536.00,0.0343
1535.00,0.0343
1534.00,0.0345
1533.00,0.0347
1532.00,0.0348
1531.00,0.0350
1530.00,0.0351
1529.00,0.0351
1528.00,0.0352
1527.00,0.0352
1526.00,0.0353
1525.00,0.0353
1524.00,0.0355
1523.00,0.0356
1522.00,0.0357
1521.00,0.0358
1520.00,0.0359
1519.00,0.0361
1518.00,0.0362
1517.00,0.0364
1516.00,0.0365
1515.00,0.0366
1514.00,0.0365
1513.00,0.0363
1512.00,0.0360
1511.00,0.0357
1510.00,0.0354
1509.00,0.0351
1508.00,0.0347
1507.00,0.0342
1506.00,0.0334
1505.00,0.0326
1504.00,0.0320
1503.00,0.0314
1502.00,0.0309
1501.00,0.0303
1500.00,0.0298
1499.00,0.0293
1498.00,0.0287
1497.00,0.0280
1496.00,0.0273
1495.00,0.0265
1494.00,0.0259
1493.00,0.0253
1492.00,0.0246
1491.00,0.0239
1490.00,0.0232
1489.00,0.0225
1488.00,0.0220
1487.00,0.0215
1486.00,0.0210
1485.00,0.0206
1484.00,0.0201
1483.00,0.0197
1482.00,0.0194
1481.00,0.0190
1480.00,0.0187
1479.00,0.0185
1478.00,0.0183
1477.00,0.0181
1476.00,0.0180
1475.00,0.0181
1474.00,0.0181
1473.00,0.0182
1472.00,0.0183
1471.00,0.0184
1470.00,0.0185
1469.00,0.0185
1468.00,0.0185
1467.00,0.0185
1466.00,0.0185
1465.00,0.0185
1464.00,0.0185
1463.00,0.0185
1462.00,0.0186
1461.00,0.0186
1460.00,0.0187
1459.00,0.0188
1458.00,0.0190
1457.00,0.0190
1456.00,0.0190
1455.00,0.0189
1454.00,0.0188
1453.00,0.0186
1452.00,0.0184
1451.00,0.0182
1450.00,0.0180
1449.00,0.0177
1448.00,0.0175
1447.00,0.0173
1446.00,0.0171
1445.00,0.0168
1444.00,0.0165
1443.00,0.0163
1442.00,0.0161
1441.00,0.0159
1440.00,0.0158
1439.00,0.0157
1438.00,0.0156
1437.00,0.0156
1436.00,0.0156
1435.00,0.0156
1434.00,0.0155
1433.00,0.0154
1432.00,0.0153
1431.00,0.0153
1430.00,0.0154
1429.00,0.0156
1428.00,0.0157
1427.00,0.0158
1426.00,0.0159
1425.00,0.0159
1424.00,0.0161
1423.00,0.0163
1422.00,0.0165
1421.00,0.0166
1420.00,0.0167
1419.00,0.0169
1418.00,0.0170
1417.00,0.0171
1416.00,0.0171
1415.00,0.0172
1414.00,0.0173
1413.00,0.0173
1412.00,0.0174
1411.00,0.0174
1410.00,0.0175
1409.00,0.0175
1408.00,0.0174
1407.00,0.0173
1406.00,0.0172
1405.00,0.0171
1404.00,0.0170
1403.00,0.0169
1402.00,0.0168
1401.00,0.0166
1400.00,0.0165
1399.00,0.0163
1398.00,0.0162
1397.00,0.0162
1396.00,0.0162
1395.00,0.0163
1394.00,0.0164
1393.00,0.0165
1392.00,0.0166
1391.00,0.0167
1390.00,0.0168
1389.00,0.0169
1388.00,0.0170
1387.00,0.0170
1386.00,0.0170
1385.00,0.0170
1384.00,0.0169
1383.00,0.0167
1382.00,0.0166
1381.00,0.0163
1380.00,0.0160
1379.00,0.0158
1378.00,0.0155
1377.00,0.0154
1376.00,0.0153
1375.00,0.0154
1374.00,0.0155
1373.00,0.0157
1372.00,0.0158
1371.00,0.0159
1370.00,0.0159
1369.00,0.0159
1368.00,0.0158
1367.00,0.0157
1366.00,0.0155
1365.00,0.0154
1364.00,0.0153
1363.00,0.0153
1362.00,0.0154
1361.00,0.0154
1360.00,0.0154
1359.00,0.0154
1358.00,0.0154
1357.00,0.0153
1356.00,0.0153
1355.00,0.0152
1354.00,0.0150
1353.00,0.0149
1352.00,0.0148
1351.00,0.0147
1350.00,0.0146
1349.00,0.0146
1348.00,0.0146
1347.00,0.0147
1346.00,0.0148
1345.00,0.0149
1344.00,0.0150
1343.00,0.0151
1342.00,0.0152
1341.00,0.0152
1340.00,0.0152
1339.00,0.0151
1338.00,0.0151
1337.00,0.0150
1336.00,0.0149
1335.00,0.0149
1334.00,0.0149
1333.00,0.0149
1332.00,0.0150
1331.00,0.0151
1330.00,0.0152
1329.00,0.0153
1328.00,0.0153
1327.00,0.0152
1326.00,0.0151
1325.00,0.0150
1324.00,0.0148
1323.00,0.0146
1322.00,0.0144
1321.00,0.0141
1320.00,0.0138
1319.00,0.0136
1318.00,0.0135
1317.00,0.0135
1316.00,0.0136
1315.00,0.0138
1314.00,0.0141
1313.00,0.0144
1312.00,0.0147
1311.00,0.0150
1310.00,0.0152
1309.00,0.0153
1308.00,0.0154
1307.00,0.0154
1306.00,0.0154
1305.00,0.0154
1304.00,0.0154
1303.00,0.0155
1302.00,0.0156
1301.00,0.0158
1300.00,0.0159
1299.00,0.0161
1298.00,0.0162
1297.00,0.0163
1296.00,0.0164
1295.00,0.0164
1294.00,0.0165
1293.00,0.0166
1292.00,0.0166
1291.00,0.0165
1290.00,0.0165
1289.00,0.0164
1288.00,0.0162
1287.00,0.0161
1286.00,0.0160
1285.00,0.0159
1284.00,0.0158
1283.00,0.0156
1282.00,0.0155
1281.00,0.0154
1280.00,0.0153
1279.00,0.0153
1278.00,0.0154
1277.00,0.0156
1276.00,0.0159
1275.00,0.0162
1274.00,0.0166
1273.00,0.0170
1272.00,0.0173
1271.00,0.0175
1270.00,0.0178
1269.00,0.0181
1268.00,0.0184
1267.00,0.0186
1266.00,0.0189
1265.00,0.0191
1264.00,0.0193
1263.00,0.0195
1262.00,0.0197
1261.00,0.0198
1260.00,0.0199
1259.00,0.0200
1258.00,0.0201
1257.00,0.0201
1256.00,0.0200
1255.00,0.0199
1254.00,0.0199
1253.00,0.0198
1252.00,0.0197
1251.00,0.0196
1250.00,0.0197
1249.00,0.0197
1248.00,0.0197
1247.00,0.0196
1246.00,0.0194
1245.00,0.0193
1244.00,0.0191
1243.00,0.0191
1242.00,0.0192
1241.00,0.0195
1240.00,0.0199
1239.00,0.0203
1238.00,0.0208
1237.00,0.0213
1236.00,0.0217
1235.00,0.0220
1234.00,0.0223
1233.00,0.0225
1232.00,0.0225
1231.00,0.0225
1230.00,0.0224
1229.00,0.0223
1228.00,0.0222
1227.00,0.0221
1226.00,0.0222
1225.00,0.0223
1224.00,0.0223
1223.00,0.0224
1222.00,0.0224
1221.00,0.0224
1220.00,0.0223
1219.00,0.0221
1218.00,0.0220
1217.00,0.0220
1216.00,0.0219
1215.00,0.0219
1214.00,0.0218
1213.00,0.0218
1212.00,0.0216
1211.00,0.0214
1210.00,0.0212
1209.00,0.0208
1208.00,0.0203
1207.00,0.0198
1206.00,0.0192
1205.00,0.0188
1204.00,0.0185
1203.00,0.0185
1202.00,0.0188
1201.00,0.0191
1200.00,0.0195
1199.00,0.0199
1198.00,0.0203
1197.00,0.0206
1196.00,0.0209
1195.00,0.0211
1194.00,0.0212
1193.00,0.0213
1192.00,0.0213
1191.00,0.0213
1190.00,0.0213
1189.00,0.0214
1188.00,0.0214
1187.00,0.0215
1186.00,0.0216
1185.00,0.0217
1184.00,0.0218
1183.00,0.0219
1182.00,0.0220
1181.00,0.0221
1180.00,0.0221
1179.00,0.0221
1178.00,0.0220
1177.00,0.0219
1176.00,0.0218
1175.00,0.0217
1174.00,0.0215
1173.00,0.0213
1172.00,0.0211
1171.00,0.0209
1170.00,0.0209
1169.00,0.0210
1168.00,0.0213
1167.00,0.0216
1166.00,0.0220
1165.00,0.0223
1164.00,0.0225
1163.00,0.0227
1162.00,0.0229
1161.00,0.0230
1160.00,0.0231
1159.00,0.0231
1158.00,0.0231
1157.00,0.0231
1156.00,0.0229
1155.00,0.0228
1154.00,0.0226
1153.00,0.0223
1152.00,0.0220
1151.00,0.0214
1150.00,0.0208
1149.00,0.0202
1148.00,0.0198
1147.00,0.0197
1146.00,0.0199
1145.00,0.0203
1144.00,0.0208
1143.00,0.0211
1142.00,0.0214
1141.00,0.0216
1140.00,0.0216
1139.00,0.0216
1138.00,0.0216
1137.00,0.0215
1136.00,0.0215
1135.00,0.0214
1134.00,0.0215
1133.00,0.0215
1132.00,0.0216
1131.00,0.0216
1130.00,0.0217
1129.00,0.0218
1128.00,0.0219
1127.00,0.0219
1126.00,0.0220
1125.00,0.0220
1124.00,0.0220
1123.00,0.0220
1122.00,0.0221
1121.00,0.0221
1120.00,0.0220
1119.00,0.0220
1118.00,0.0220
1117.00,0.0220
1116.00,0.0220
1115.00,0.0220
1114.00,0.0220
1113.00,0.0220
1112.00,0.0220
1111.00,0.0220
1110.00,0.0220
1109.00,0.0219
1108.00,0.0218
1107.00,0.0218
1106.00,0.0218
1105.00,0.0217
1104.00,0.0216
1103.00,0.0215
1102.00,0.0214
1101.00,0.0213
1100.00,0.0212
1099.00,0.0212
1098.00,0.0212
1097.00,0.0213
1096.00,0.0213
1095.00,0.0214
1094.00,0.0216
1093.00,0.0217
1092.00,0.0217
1091.00,0.0218
1090.00,0.0219
1089.00,0.0220
1088.00,0.0221
1087.00,0.0221
1086.00,0.0222
1085.00,0.0223
1084.00,0.0223
1083.00,0.0224
1082.00,0.0224
1081.00,0.0225
1080.00,0.0225
1079.00,0.0226
1078.00,0.0227
1077.00,0.0228
1076.00,0.0228
1075.00,0.0229
1074.00,0.0229
1073.00,0.0229
1072.00,0.0228
1071.00,0.0228
1070.00,0.0228
1069.00,0.0227
1068.00,0.0227
1067.00,0.0226
1066.00,0.0226
1065.00,0.0226
1064.00,0.0225
1063.00,0.0223
1062.00,0.0222
1061.00,0.0220
1060.00,0.0218
1059.00,0.0215
1058.00,0.0212
1057.00,0.0208
1056.00,0.0203
1055.00,0.0198
1054.00,0.0194
1053.00,0.0192
1052.00,0.0191
1051.00,0.0193
1050.00,0.0197
1049.00,0.0201
1048.00,0.0204
1047.00,0.0206
1046.00,0.0207
1045.00,0.0207
1044.00,0.0205
1043.00,0.0204
1042.00,0.0202
1041.00,0.0200
1040.00,0.0197
1039.00,0.0194
1038.00,0.0191
1037.00,0.0187
1036.00,0.0182
1035.00,0.0178
1034.00,0.0174
1033.00,0.0171
1032.00,0.0169
1031.00,0.0168
1030.00,0.0168
1029.00,0.0171
1028.00,0.0174
1027.00,0.0178
1026.00,0.0183
1025.00,0.0187
1024.00,0.0190
1023.00,0.0192
1022.00,0.0195
1021.00,0.0196
1020.00,0.0196
1019.00,0.0197
1018.00,0.0197
1017.00,0.0198
1016.00,0.0198
1015.00,0.0198
1014.00,0.0198
1013.00,0.0198
1012.00,0.0197
1011.00,0.0195
1010.00,0.0194
1009.00,0.0193
1008.00,0.0192
1007.00,0.0191
1006.00,0.0190
1005.00,0.0189
1004.00,0.0188
1003.00,0.0186
1002.00,0.0184
1001.00,0.0181
1000.00,0.0178
999.00,0.0175
998.00,0.0173
997.00,0.0173
996.00,0.0174
995.00,0.0175
994.00,0.0177
993.00,0.0177
992.00,0.0177
991.00,0.0176
990.00,0.0175
989.00,0.0175
988.00,0.0173
987.00,0.0172
986.00,0.0171
985.00,0.0169
984.00,0.0168
983.00,0.0168
982.00,0.0168
981.00,0.0168
980.00,0.0168
979.00,0.0168
978.00,0.0168
977.00,0.0167
976.00,0.0166
975.00,0.0165
974.00,0.0164
973.00,0.0163
972.00,0.0161
971.00,0.0160
970.00,0.0159
969.00,0.0158
968.00,0.0157
967.00,0.0156
966.00,0.0156
965.00,0.0155
964.00,0.0154
963.00,0.0153
962.00,0.0152
961.00,0.0150
960.00,0.0148
959.00,0.0146
958.00,0.0145
957.00,0.0145
956.00,0.0144
955.00,0.0143
954.00,0.0144
953.00,0.0144
952.00,0.0144
951.00,0.0144
950.00,0.0144
949.00,0.0145
948.00,0.0145
947.00,0.0146
946.00,0.0146
945.00,0.0147
944.00,0.0147
943.00,0.0147
942.00,0.0148
941.00,0.0149
940.00,0.0149
939.00,0.0150
938.00,0.0151
937.00,0.0153
936.00,0.0153
935.00,0.0154
934.00,0.0155
933.00,0.0156
932.00,0.0156
931.00,0.0156
930.00,0.0156
929.00,0.0155
928.00,0.0155
927.00,0.0154
926.00,0.0153
925.00,0.0152
924.00,0.0152
923.00,0.0151
922.00,0.0150
921.00,0.0150
920.00,0.0148
919.00,0.0147
918.00,0.0146
917.00,0.0145
916.00,0.0144
915.00,0.0143
914.00,0.0142
913.00,0.0142
912.00,0.0142
911.00,0.0143
910.00,0.0145
909.00,0.0146
908.00,0.0147
907.00,0.0147
906.00,0.0147
905.00,0.0146
904.00,0.0144
903.00,0.0142
902.00,0.0141
901.00,0.0140
900.00,0.0139
899.00,0.0139
898.00,0.0140
897.00,0.0141
896.00,0.0141
895.00,0.0139
894.00,0.0137
893.00,0.0132
892.00,0.0124
891.00,0.0117
890.00,0.0110
889.00,0.0107
888.00,0.0106
887.00,0.0107
886.00,0.0107
885.00,0.0106
884.00,0.0106
883.00,0.0109
882.00,0.0115
881.00,0.0121
880.00,0.0126
879.00,0.0129
878.00,0.0131
877.00,0.0133
876.00,0.0133
875.00,0.0134
874.00,0.0134
873.00,0.0135
872.00,0.0134
871.00,0.0134
870.00,0.0134
869.00,0.0133
868.00,0.0132
867.00,0.0130
866.00,0.0128
865.00,0.0126
864.00,0.0122
863.00,0.0118
862.00,0.0114
861.00,0.0112
860.00,0.0110
859.00,0.0111
858.00,0.0112
857.00,0.0114
856.00,0.0115
855.00,0.0116
854.00,0.0118
853.00,0.0120
852.00,0.0122
851.00,0.0124
850.00,0.0126
849.00,0.0128
848.00,0.0129
847.00,0.0129
846.00,0.0130
845.00,0.0130
844.00,0.0130
843.00,0.0129
842.00,0.0130
841.00,0.0130
840.00,0.0129
839.00,0.0128
838.00,0.0129
837.00,0.0130
836.00,0.0133
835.00,0.0136
834.00,0.0140
833.00,0.0143
832.00,0.0144
831.00,0.0145
830.00,0.0146
829.00,0.0146
828.00,0.0146
827.00,0.0147
826.00,0.0150
825.00,0.0152
824.00,0.0154
823.00,0.0156
822.00,0.0157
821.00,0.0158
820.00,0.0158
819.00,0.0158
818.00,0.0158
817.00,0.0159
816.00,0.0160
815.00,0.0160
814.00,0.0161
813.00,0.0161
812.00,0.0161
811.00,0.0161
810.00,0.0160
809.00,0.0160
808.00,0.0158
807.00,0.0156
806.00,0.0154
805.00,0.0151
804.00,0.0148
803.00,0.0146
802.00,0.0147
801.00,0.0148
800.00,0.0150
799.00,0.0151
798.00,0.0151
797.00,0.0151
796.00,0.0150
795.00,0.0151
794.00,0.0152
793.00,0.0154
792.00,0.0157
791.00,0.0160
790.00,0.0164
789.00,0.0167
788.00,0.0169
787.00,0.0171
786.00,0.0173
785.00,0.0175
784.00,0.0176
783.00,0.0177
782.00,0.0179
781.00,0.0180
780.00,0.0181
779.00,0.0181
778.00,0.0182
777.00,0.0182
776.00,0.0182
775.00,0.0182
774.00,0.0183
773.00,0.0182
772.00,0.0181
771.00,0.0181
770.00,0.0181
769.00,0.0182
768.00,0.0182
767.00,0.0183
766.00,0.0185
765.00,0.0187
764.00,0.0188
763.00,0.0190
762.00,0.0192
761.00,0.0193
760.00,0.0194
759.00,0.0195
758.00,0.0196
757.00,0.0197
756.00,0.0198
755.00,0.0198
754.00,0.0200
753.00,0.0201
752.00,0.0203
751.00,0.0205
750.00,0.0208
749.00,0.0210
748.00,0.0211
747.00,0.0212
746.00,0.0213
745.00,0.0214
744.00,0.0214
743.00,0.0215
742.00,0.0215
741.00,0.0215
740.00,0.0214
739.00,0.0212
738.00,0.0211
737.00,0.0210
736.00,0.0208
735.00,0.0206
734.00,0.0206
733.00,0.0206
732.00,0.0207
731.00,0.0209
730.00,0.0213
729.00,0.0217
728.00,0.0219
727.00,0.0221
726.00,0.0224
725.00,0.0226
724.00,0.0228
723.00,0.0230
722.00,0.0233
721.00,0.0235
720.00,0.0237
719.00,0.0238
718.00,0.0240
717.00,0.0242
716.00,0.0243
715.00,0.0244
714.00,0.0246
713.00,0.0248
712.00,0.0249
711.00,0.0251
710.00,0.0254
709.00,0.0257
708.00,0.0259
707.00,0.0262
706.00,0.0265
705.00,0.0268
704.00,0.0270
703.00,0.0272
702.00,0.0275
701.00,0.0277
700.00,0.0278
699.00,0.0279
698.00,0.0281
697.00,0.0281
696.00,0.0281
695.00,0.0281
694.00,0.0281
693.00,0.0281
692.00,0.0280
691.00,0.0279
690.00,0.0279
689.00,0.0279
688.00,0.0279
687.00,0.0279
686.00,0.0280
685.00,0.0280
684.00,0.0280
683.00,0.0280
682.00,0.0281
681.00,0.0281
680.00,0.0281
679.00,0.0281
678.00,0.0283
677.00,0.0284
676.00,0.0284
675.00,0.0284
674.00,0.0285
673.00,0.0286
672.00,0.0287
671.00,0.0289
670.00,0.0292
669.00,0.0296
668.00,0.0300
667.00,0.0302
666.00,0.0303
665.00,0.0303
664.00,0.0302
663.00,0.0303
662.00,0.0304
661.00,0.0306
660.00,0.0307
659.00,0.0308
658.00,0.0309
657.00,0.0309
656.00,0.0309
655.00,0.0309
654.00,0.0310
653.00,0.0311
652.00,0.0312
651.00,0.0312
650.00,0.0312
649.00,0.0312
648.00,0.0312
647.00,0.0313
646.00,0.0314
645.00,0.0315
644.00,0.0315
643.00,0.0316
642.00,0.0317
641.00,0.0319
640.00,0.0319
639.00,0.0320
638.00,0.0321
637.00,0.0321
636.00,0.0320
635.00,0.0320
634.00,0.0321
633.00,0.0323
632.00,0.0325
631.00,0.0327
630.00,0.0330
629.00,0.0332
628.00,0.0333
627.00,0.0335
626.00,0.0337
625.00,0.0339
624.00,0.0340
623.00,0.0341
622.00,0.0343
621.00,0.0344
620.00,0.0345
619.00,0.0345
618.00,0.0345
617.00,0.0345
616.00,0.0343
615.00,0.0342
614.00,0.0343
613.00,0.0344
612.00,0.0345
611.00,0.0346
610.00,0.0348
609.00,0.0349
608.00,0.0348
607.00,0.0348
606.00,0.0349
605.00,0.0350
604.00,0.0350
603.00,0.0350
602.00,0.0351
601.00,0.0352
600.00,0.0352
599.00,0.0351
598.00,0.0351
597.00,0.0351
596.00,0.0350
595.00,0.0349
594.00,0.0351
593.00,0.0352
592.00,0.0353
591.00,0.0354
590.00,0.0356
589.00,0.0357
588.00,0.0357
587.00,0.0358
586.00,0.0359
585.00,0.0360
584.00,0.0360
583.00,0.0359
582.00,0.0359
581.00,0.0358
580.00,0.0355
579.00,0.0354
578.00,0.0354
577.00,0.0355
576.00,0.0357
575.00,0.0360
574.00,0.0366
573.00,0.0371
572.00,0.0373
571.00,0.0375
570.00,0.0377
569.00,0.0378
568.00,0.0378
567.00,0.0379
566.00,0.0382
565.00,0.0385
564.00,0.0385
563.00,0.0385
562.00,0.0386
561.00,0.0386
560.00,0.0385
559.00,0.0384
558.00,0.0385
557.00,0.0385
556.00,0.0383
555.00,0.0380
554.00,0.0378
553.00,0.0375
552.00,0.0372
551.00,0.0373
550.00,0.0377
549.00,0.0383
548.00,0.0387
547.00,0.0390
546.00,0.0394
545.00,0.0395
544.00,0.0394
543.00,0.0394
542.00,0.0395
541.00,0.0397
540.00,0.0396
539.00,0.0396
538.00,0.0396
537.00,0.0395
536.00,0.0391
535.00,0.0389
534.00,0.0390
533.00,0.0393
532.00,0.0394
531.00,0.0397
530.00,0.0401
529.00,0.0403
528.00,0.0400
527.00,0.0398
526.00,0.0397
525.00,0.0398
524.00,0.0397
523.00,0.0397
522.00,0.0399
521.00,0.0401
520.00,0.0401
519.00,0.0403
518.00,0.0407
517.00,0.0410
516.00,0.0411
515.00,0.0413
514.00,0.0418
513.00,0.0421
512.00,0.0420
511.00,0.0418
510.00,0.0417
509.00,0.0417
508.00,0.0415
507.00,0.0414
506.00,0.0414
505.00,0.0414
504.00,0.0411
503.00,0.0410
502.00,0.0412
501.00,0.0415
500.00,0.0415
499.00,0.0413
498.00,0.0412
497.00,0.0411
496.00,0.0408
495.00,0.0405
494.00,0.0404
493.00,0.0401
492.00,0.0396
491.00,0.0392
490.00,0.0393
489.00,0.0393
488.00,0.0392
487.00,0.0391
486.00,0.0393
485.00,0.0393
484.00,0.0390
483.00,0.0388
482.00,0.0390
481.00,0.0393
480.00,0.0392
479.00,0.0391
478.00,0.0394
477.00,0.0397
476.00,0.0395
475.00,0.0392
474.00,0.0392
473.00,0.0393
472.00,0.0392
471.00,0.0392
470.00,0.0396
469.00,0.0400
468.00,0.0400
467.00,0.0399
466.00,0.0402
465.00,0.0405
464.00,0.0404
463.00,0.0402
462.00,0.0402
461.00,0.0403
460.00,0.0403
459.00,0.0406
458.00,0.0414
457.00,0.0418
456.00,0.0415
455.00,0.0412
454.00,0.0413
453.00,0.0415
452.00,0.0414
451.00,0.0412
450.00,0.0411
449.00,0.0410
448.00,0.0406
447.00,0.0405
446.00,0.0408
445.00,0.0411
444.00,0.0411
443.00,0.0412
442.00,0.0415
441.00,0.0415
440.00,0.0410
439.00,0.0405
438.00,0.0405
437.00,0.0404
436.00,0.0399
435.00,0.0394
434.00,0.0394
433.00,0.0394
432.00,0.0389
431.00,0.0388
430.00,0.0394
429.00,0.0402
428.00,0.0405
427.00,0.0407
426.00,0.0413
425.00,0.0413
424.00,0.0405
423.00,0.0399
422.00,0.0401
421.00,0.0405
420.00,0.0401
419.00,0.0398
418.00,0.0404
417.00,0.0406
416.00,0.0397
415.00,0.0386
414.00,0.0383
413.00,0.0383
412.00,0.0379
411.00,0.0381
410.00,0.0393
409.00,0.0401
408.00,0.0399
407.00,0.0396
406.00,0.0400
405.00,0.0399
404.00,0.0383
403.00,0.0369
402.00,0.0368
401.00,0.0370
400.00,0.0362
