Created as New Dataset,Sample 601 By YargerLab Date Thursday, June 05 2025
cm-1,A
4000.00,0.0052
3999.00,0.0052
3998.00,0.0052
3997.00,0.0052
3996.00,0.0052
3995.00,0.0052
3994.00,0.0052
3993.00,0.0052
3992.00,0.0052
3991.00,0.0052
3990.00,0.0052
3989.00,0.0051
3988.00,0.0051
3987.00,0.0052
3986.00,0.0052
3985.00,0.0052
3984.00,0.0052
3983.00,0.0052
3982.00,0.0052
3981.00,0.0052
3980.00,0.0052
3979.00,0.0052
3978.00,0.0052
3977.00,0.0052
3976.00,0.0052
3975.00,0.0052
3974.00,0.0052
3973.00,0.0052
3972.00,0.0052
3971.00,0.0052
3970.00,0.0052
3969.00,0.0052
3968.00,0.0052
3967.00,0.0052
3966.00,0.0051
3965.00,0.0051
3964.00,0.0051
3963.00,0.0051
3962.00,0.0052
3961.00,0.0052
3960.00,0.0052
3959.00,0.0052
3958.00,0.0052
3957.00,0.0052
3956.00,0.0051
3955.00,0.0051
3954.00,0.0051
3953.00,0.0051
3952.00,0.0051
3951.00,0.0051
3950.00,0.0051
3949.00,0.0051
3948.00,0.0051
3947.00,0.0051
3946.00,0.0051
3945.00,0.0051
3944.00,0.0051
3943.00,0.0051
3942.00,0.0051
3941.00,0.0051
3940.00,0.0051
3939.00,0.0051
3938.00,0.0051
3937.00,0.0051
3936.00,0.0051
3935.00,0.0051
3934.00,0.0051
3933.00,0.0051
3932.00,0.0051
3931.00,0.0051
3930.00,0.0051
3929.00,0.0050
3928.00,0.0050
3927.00,0.0050
3926.00,0.0050
3925.00,0.0051
3924.00,0.0051
3923.00,0.0051
3922.00,0.0051
3921.00,0.0050
3920.00,0.0050
3919.00,0.0050
3918.00,0.0050
3917.00,0.0050
3916.00,0.0050
3915.00,0.0050
3914.00,0.0050
3913.00,0.0050
3912.00,0.0050
3911.00,0.0050
3910.00,0.0050
3909.00,0.0050
3908.00,0.0050
3907.00,0.0050
3906.00,0.0050
3905.00,0.0050
3904.00,0.0050
3903.00,0.0050
3902.00,0.0049
3901.00,0.0049
3900.00,0.0050
3899.00,0.0050
3898.00,0.0050
3897.00,0.0050
3896.00,0.0050
3895.00,0.0050
3894.00,0.0050
3893.00,0.0050
3892.00,0.0050
3891.00,0.0050
3890.00,0.0050
3889.00,0.0050
3888.00,0.0049
3887.00,0.0049
3886.00,0.0049
3885.00,0.0049
3884.00,0.0049
3883.00,0.0049
3882.00,0.0049
3881.00,0.0049
3880.00,0.0049
3879.00,0.0050
3878.00,0.0050
3877.00,0.0049
3876.00,0.0049
3875.00,0.0049
3874.00,0.0049
3873.00,0.0049
3872.00,0.0048
3871.00,0.0048
3870.00,0.0048
3869.00,0.0048
3868.00,0.0048
3867.00,0.0048
3866.00,0.0048
3865.00,0.0048
3864.00,0.0048
3863.00,0.0049
3862.00,0.0049
3861.00,0.0048
3860.00,0.0048
3859.00,0.0048
3858.00,0.0049
3857.00,0.0049
3856.00,0.0049
3855.00,0.0049
3854.00,0.0049
3853.00,0.0048
3852.00,0.0048
3851.00,0.0048
3850.00,0.0048
3849.00,0.0047
3848.00,0.0047
3847.00,0.0048
3846.00,0.0048
3845.00,0.0048
3844.00,0.0048
3843.00,0.0048
3842.00,0.0048
3841.00,0.0048
3840.00,0.0047
3839.00,0.0047
3838.00,0.0047
3837.00,0.0047
3836.00,0.0047
3835.00,0.0047
3834.00,0.0047
3833.00,0.0047
3832.00,0.0047
3831.00,0.0048
3830.00,0.0048
3829.00,0.0048
3828.00,0.0048
3827.00,0.0048
3826.00,0.0048
3825.00,0.0048
3824.00,0.0047
3823.00,0.0047
3822.00,0.0046
3821.00,0.0047
3820.00,0.0047
3819.00,0.0048
3818.00,0.0047
3817.00,0.0047
3816.00,0.0047
3815.00,0.0048
3814.00,0.0048
3813.00,0.0048
3812.00,0.0048
3811.00,0.0048
3810.00,0.0048
3809.00,0.0048
3808.00,0.0047
3807.00,0.0047
3806.00,0.0047
3805.00,0.0047
3804.00,0.0047
3803.00,0.0047
3802.00,0.0046
3801.00,0.0047
3800.00,0.0047
3799.00,0.0047
3798.00,0.0047
3797.00,0.0047
3796.00,0.0047
3795.00,0.0047
3794.00,0.0048
3793.00,0.0048
3792.00,0.0048
3791.00,0.0048
3790.00,0.0048
3789.00,0.0048
3788.00,0.0048
3787.00,0.0048
3786.00,0.0048
3785.00,0.0048
3784.00,0.0048
3783.00,0.0048
3782.00,0.0047
3781.00,0.0047
3780.00,0.0047
3779.00,0.0047
3778.00,0.0047
3777.00,0.0047
3776.00,0.0047
3775.00,0.0047
3774.00,0.0047
3773.00,0.0047
3772.00,0.0047
3771.00,0.0047
3770.00,0.0047
3769.00,0.0047
3768.00,0.0047
3767.00,0.0046
3766.00,0.0046
3765.00,0.0046
3764.00,0.0046
3763.00,0.0047
3762.00,0.0047
3761.00,0.0046
3760.00,0.0047
3759.00,0.0047
3758.00,0.0047
3757.00,0.0047
3756.00,0.0047
3755.00,0.0046
3754.00,0.0046
3753.00,0.0046
3752.00,0.0046
3751.00,0.0046
3750.00,0.0045
3749.00,0.0045
3748.00,0.0045
3747.00,0.0045
3746.00,0.0045
3745.00,0.0044
3744.00,0.0045
3743.00,0.0045
3742.00,0.0045
3741.00,0.0044
3740.00,0.0044
3739.00,0.0044
3738.00,0.0044
3737.00,0.0043
3736.00,0.0043
3735.00,0.0044
3734.00,0.0044
3733.00,0.0044
3732.00,0.0044
3731.00,0.0044
3730.00,0.0044
3729.00,0.0044
3728.00,0.0044
3727.00,0.0044
3726.00,0.0044
3725.00,0.0044
3724.00,0.0045
3723.00,0.0045
3722.00,0.0045
3721.00,0.0045
3720.00,0.0045
3719.00,0.0045
3718.00,0.0045
3717.00,0.0045
3716.00,0.0045
3715.00,0.0045
3714.00,0.0044
3713.00,0.0043
3712.00,0.0043
3711.00,0.0043
3710.00,0.0043
3709.00,0.0043
3708.00,0.0043
3707.00,0.0043
3706.00,0.0044
3705.00,0.0044
3704.00,0.0044
3703.00,0.0044
3702.00,0.0045
3701.00,0.0045
3700.00,0.0045
3699.00,0.0045
3698.00,0.0045
3697.00,0.0045
3696.00,0.0044
3695.00,0.0044
3694.00,0.0044
3693.00,0.0044
3692.00,0.0043
3691.00,0.0043
3690.00,0.0043
3689.00,0.0043
3688.00,0.0043
3687.00,0.0043
3686.00,0.0043
3685.00,0.0043
3684.00,0.0043
3683.00,0.0043
3682.00,0.0043
3681.00,0.0042
3680.00,0.0042
3679.00,0.0042
3678.00,0.0041
3677.00,0.0041
3676.00,0.0040
3675.00,0.0040
3674.00,0.0041
3673.00,0.0041
3672.00,0.0040
3671.00,0.0040
3670.00,0.0041
3669.00,0.0041
3668.00,0.0041
3667.00,0.0041
3666.00,0.0042
3665.00,0.0042
3664.00,0.0042
3663.00,0.0042
3662.00,0.0043
3661.00,0.0043
3660.00,0.0043
3659.00,0.0043
3658.00,0.0043
3657.00,0.0042
3656.00,0.0042
3655.00,0.0042
3654.00,0.0042
3653.00,0.0041
3652.00,0.0041
3651.00,0.0041
3650.00,0.0041
3649.00,0.0041
3648.00,0.0041
3647.00,0.0041
3646.00,0.0041
3645.00,0.0042
3644.00,0.0042
3643.00,0.0043
3642.00,0.0043
3641.00,0.0043
3640.00,0.0043
3639.00,0.0043
3638.00,0.0043
3637.00,0.0043
3636.00,0.0044
3635.00,0.0044
3634.00,0.0044
3633.00,0.0044
3632.00,0.0044
3631.00,0.0044
3630.00,0.0043
3629.00,0.0043
3628.00,0.0044
3627.00,0.0044
3626.00,0.0044
3625.00,0.0044
3624.00,0.0045
3623.00,0.0045
3622.00,0.0046
3621.00,0.0045
3620.00,0.0045
3619.00,0.0046
3618.00,0.0046
3617.00,0.0046
3616.00,0.0046
3615.00,0.0046
3614.00,0.0046
3613.00,0.0046
3612.00,0.0046
3611.00,0.0046
3610.00,0.0046
3609.00,0.0046
3608.00,0.0047
3607.00,0.0047
3606.00,0.0047
3605.00,0.0047
3604.00,0.0047
3603.00,0.0047
3602.00,0.0047
3601.00,0.0048
3600.00,0.0048
3599.00,0.0048
3598.00,0.0048
3597.00,0.0048
3596.00,0.0048
3595.00,0.0048
3594.00,0.0048
3593.00,0.0049
3592.00,0.0049
3591.00,0.0049
3590.00,0.0049
3589.00,0.0049
3588.00,0.0049
3587.00,0.0049
3586.00,0.0049
3585.00,0.0049
3584.00,0.0049
3583.00,0.0050
3582.00,0.0050
3581.00,0.0050
3580.00,0.0050
3579.00,0.0051
3578.00,0.0051
3577.00,0.0051
3576.00,0.0051
3575.00,0.0051
3574.00,0.0052
3573.00,0.0052
3572.00,0.0052
3571.00,0.0052
3570.00,0.0052
3569.00,0.0052
3568.00,0.0052
3567.00,0.0052
3566.00,0.0052
3565.00,0.0052
3564.00,0.0052
3563.00,0.0052
3562.00,0.0053
3561.00,0.0053
3560.00,0.0054
3559.00,0.0054
3558.00,0.0055
3557.00,0.0055
3556.00,0.0055
3555.00,0.0055
3554.00,0.0055
3553.00,0.0055
3552.00,0.0055
3551.00,0.0055
3550.00,0.0055
3549.00,0.0055
3548.00,0.0056
3547.00,0.0056
3546.00,0.0056
3545.00,0.0056
3544.00,0.0057
3543.00,0.0056
3542.00,0.0056
3541.00,0.0056
3540.00,0.0057
3539.00,0.0057
3538.00,0.0058
3537.00,0.0058
3536.00,0.0058
3535.00,0.0058
3534.00,0.0058
3533.00,0.0058
3532.00,0.0058
3531.00,0.0058
3530.00,0.0058
3529.00,0.0059
3528.00,0.0059
3527.00,0.0059
3526.00,0.0060
3525.00,0.0060
3524.00,0.0061
3523.00,0.0061
3522.00,0.0061
3521.00,0.0061
3520.00,0.0060
3519.00,0.0060
3518.00,0.0061
3517.00,0.0061
3516.00,0.0061
3515.00,0.0061
3514.00,0.0061
3513.00,0.0062
3512.00,0.0062
3511.00,0.0062
3510.00,0.0062
3509.00,0.0063
3508.00,0.0063
3507.00,0.0063
3506.00,0.0063
3505.00,0.0063
3504.00,0.0063
3503.00,0.0063
3502.00,0.0063
3501.00,0.0063
3500.00,0.0064
3499.00,0.0064
3498.00,0.0064
3497.00,0.0065
3496.00,0.0065
3495.00,0.0065
3494.00,0.0065
3493.00,0.0065
3492.00,0.0065
3491.00,0.0065
3490.00,0.0066
3489.00,0.0066
3488.00,0.0066
3487.00,0.0067
3486.00,0.0067
3485.00,0.0067
3484.00,0.0067
3483.00,0.0067
3482.00,0.0067
3481.00,0.0068
3480.00,0.0068
3479.00,0.0068
3478.00,0.0068
3477.00,0.0068
3476.00,0.0068
3475.00,0.0069
3474.00,0.0069
3473.00,0.0069
3472.00,0.0069
3471.00,0.0069
3470.00,0.0070
3469.00,0.0070
3468.00,0.0071
3467.00,0.0071
3466.00,0.0071
3465.00,0.0071
3464.00,0.0071
3463.00,0.0071
3462.00,0.0071
3461.00,0.0071
3460.00,0.0072
3459.00,0.0072
3458.00,0.0072
3457.00,0.0073
3456.00,0.0074
3455.00,0.0074
3454.00,0.0075
3453.00,0.0076
3452.00,0.0077
3451.00,0.0077
3450.00,0.0078
3449.00,0.0079
3448.00,0.0080
3447.00,0.0081
3446.00,0.0083
3445.00,0.0084
3444.00,0.0084
3443.00,0.0085
3442.00,0.0085
3441.00,0.0086
3440.00,0.0086
3439.00,0.0086
3438.00,0.0085
3437.00,0.0085
3436.00,0.0085
3435.00,0.0084
3434.00,0.0084
3433.00,0.0084
3432.00,0.0084
3431.00,0.0084
3430.00,0.0084
3429.00,0.0084
3428.00,0.0084
3427.00,0.0084
3426.00,0.0084
3425.00,0.0085
3424.00,0.0085
3423.00,0.0085
3422.00,0.0085
3421.00,0.0085
3420.00,0.0085
3419.00,0.0085
3418.00,0.0086
3417.00,0.0086
3416.00,0.0087
3415.00,0.0087
3414.00,0.0087
3413.00,0.0087
3412.00,0.0088
3411.00,0.0088
3410.00,0.0088
3409.00,0.0088
3408.00,0.0089
3407.00,0.0089
3406.00,0.0090
3405.00,0.0090
3404.00,0.0091
3403.00,0.0091
3402.00,0.0091
3401.00,0.0091
3400.00,0.0092
3399.00,0.0092
3398.00,0.0093
3397.00,0.0093
3396.00,0.0093
3395.00,0.0093
3394.00,0.0093
3393.00,0.0093
3392.00,0.0094
3391.00,0.0094
3390.00,0.0095
3389.00,0.0095
3388.00,0.0096
3387.00,0.0096
3386.00,0.0097
3385.00,0.0097
3384.00,0.0097
3383.00,0.0098
3382.00,0.0098
3381.00,0.0099
3380.00,0.0099
3379.00,0.0099
3378.00,0.0099
3377.00,0.0100
3376.00,0.0100
3375.00,0.0100
3374.00,0.0101
3373.00,0.0101
3372.00,0.0102
3371.00,0.0102
3370.00,0.0103
3369.00,0.0103
3368.00,0.0104
3367.00,0.0105
3366.00,0.0105
3365.00,0.0106
3364.00,0.0106
3363.00,0.0107
3362.00,0.0107
3361.00,0.0108
3360.00,0.0108
3359.00,0.0109
3358.00,0.0109
3357.00,0.0110
3356.00,0.0110
3355.00,0.0111
3354.00,0.0111
3353.00,0.0112
3352.00,0.0112
3351.00,0.0113
3350.00,0.0113
3349.00,0.0114
3348.00,0.0115
3347.00,0.0116
3346.00,0.0116
3345.00,0.0117
3344.00,0.0118
3343.00,0.0118
3342.00,0.0119
3341.00,0.0119
3340.00,0.0119
3339.00,0.0120
3338.00,0.0121
3337.00,0.0122
3336.00,0.0123
3335.00,0.0123
3334.00,0.0124
3333.00,0.0125
3332.00,0.0125
3331.00,0.0126
3330.00,0.0127
3329.00,0.0127
3328.00,0.0128
3327.00,0.0128
3326.00,0.0129
3325.00,0.0130
3324.00,0.0131
3323.00,0.0131
3322.00,0.0132
3321.00,0.0133
3320.00,0.0134
3319.00,0.0135
3318.00,0.0135
3317.00,0.0136
3316.00,0.0136
3315.00,0.0137
3314.00,0.0138
3313.00,0.0138
3312.00,0.0138
3311.00,0.0138
3310.00,0.0139
3309.00,0.0139
3308.00,0.0139
3307.00,0.0140
3306.00,0.0141
3305.00,0.0142
3304.00,0.0143
3303.00,0.0145
3302.00,0.0146
3301.00,0.0147
3300.00,0.0147
3299.00,0.0147
3298.00,0.0148
3297.00,0.0148
3296.00,0.0148
3295.00,0.0148
3294.00,0.0148
3293.00,0.0149
3292.00,0.0150
3291.00,0.0151
3290.00,0.0152
3289.00,0.0153
3288.00,0.0154
3287.00,0.0154
3286.00,0.0154
3285.00,0.0154
3284.00,0.0155
3283.00,0.0155
3282.00,0.0155
3281.00,0.0155
3280.00,0.0155
3279.00,0.0155
3278.00,0.0155
3277.00,0.0155
3276.00,0.0155
3275.00,0.0154
3274.00,0.0153
3273.00,0.0152
3272.00,0.0152
3271.00,0.0151
3270.00,0.0152
3269.00,0.0152
3268.00,0.0152
3267.00,0.0152
3266.00,0.0152
3265.00,0.0151
3264.00,0.0150
3263.00,0.0150
3262.00,0.0149
3261.00,0.0148
3260.00,0.0148
3259.00,0.0147
3258.00,0.0146
3257.00,0.0145
3256.00,0.0144
3255.00,0.0143
3254.00,0.0143
3253.00,0.0143
3252.00,0.0142
3251.00,0.0142
3250.00,0.0141
3249.00,0.0140
3248.00,0.0139
3247.00,0.0138
3246.00,0.0138
3245.00,0.0137
3244.00,0.0137
3243.00,0.0136
3242.00,0.0136
3241.00,0.0135
3240.00,0.0135
3239.00,0.0134
3238.00,0.0133
3237.00,0.0132
3236.00,0.0131
3235.00,0.0131
3234.00,0.0130
3233.00,0.0130
3232.00,0.0130
3231.00,0.0130
3230.00,0.0129
3229.00,0.0129
3228.00,0.0128
3227.00,0.0128
3226.00,0.0127
3225.00,0.0127
3224.00,0.0126
3223.00,0.0126
3222.00,0.0126
3221.00,0.0125
3220.00,0.0125
3219.00,0.0125
3218.00,0.0124
3217.00,0.0124
3216.00,0.0123
3215.00,0.0123
3214.00,0.0123
3213.00,0.0123
3212.00,0.0123
3211.00,0.0123
3210.00,0.0122
3209.00,0.0122
3208.00,0.0121
3207.00,0.0120
3206.00,0.0120
3205.00,0.0120
3204.00,0.0120
3203.00,0.0120
3202.00,0.0119
3201.00,0.0119
3200.00,0.0119
3199.00,0.0118
3198.00,0.0118
3197.00,0.0117
3196.00,0.0117
3195.00,0.0116
3194.00,0.0116
3193.00,0.0115
3192.00,0.0115
3191.00,0.0115
3190.00,0.0115
3189.00,0.0114
3188.00,0.0114
3187.00,0.0113
3186.00,0.0113
3185.00,0.0113
3184.00,0.0113
3183.00,0.0112
3182.00,0.0112
3181.00,0.0111
3180.00,0.0111
3179.00,0.0110
3178.00,0.0110
3177.00,0.0109
3176.00,0.0109
3175.00,0.0109
3174.00,0.0109
3173.00,0.0109
3172.00,0.0108
3171.00,0.0108
3170.00,0.0108
3169.00,0.0107
3168.00,0.0106
3167.00,0.0106
3166.00,0.0105
3165.00,0.0105
3164.00,0.0105
3163.00,0.0105
3162.00,0.0104
3161.00,0.0104
3160.00,0.0103
3159.00,0.0103
3158.00,0.0102
3157.00,0.0102
3156.00,0.0101
3155.00,0.0101
3154.00,0.0100
3153.00,0.0100
3152.00,0.0099
3151.00,0.0099
3150.00,0.0100
3149.00,0.0100
3148.00,0.0100
3147.00,0.0100
3146.00,0.0099
3145.00,0.0099
3144.00,0.0098
3143.00,0.0098
3142.00,0.0097
3141.00,0.0097
3140.00,0.0096
3139.00,0.0096
3138.00,0.0096
3137.00,0.0096
3136.00,0.0096
3135.00,0.0096
3134.00,0.0096
3133.00,0.0096
3132.00,0.0096
3131.00,0.0095
3130.00,0.0095
3129.00,0.0094
3128.00,0.0094
3127.00,0.0094
3126.00,0.0094
3125.00,0.0094
3124.00,0.0094
3123.00,0.0094
3122.00,0.0093
3121.00,0.0093
3120.00,0.0092
3119.00,0.0092
3118.00,0.0092
3117.00,0.0092
3116.00,0.0092
3115.00,0.0092
3114.00,0.0093
3113.00,0.0093
3112.00,0.0094
3111.00,0.0093
3110.00,0.0093
3109.00,0.0093
3108.00,0.0093
3107.00,0.0094
3106.00,0.0094
3105.00,0.0094
3104.00,0.0095
3103.00,0.0095
3102.00,0.0094
3101.00,0.0094
3100.00,0.0094
3099.00,0.0094
3098.00,0.0094
3097.00,0.0095
3096.00,0.0095
3095.00,0.0095
3094.00,0.0095
3093.00,0.0095
3092.00,0.0095
3091.00,0.0094
3090.00,0.0094
3089.00,0.0094
3088.00,0.0095
3087.00,0.0095
3086.00,0.0095
3085.00,0.0095
3084.00,0.0095
3083.00,0.0095
3082.00,0.0095
3081.00,0.0095
3080.00,0.0095
3079.00,0.0095
3078.00,0.0095
3077.00,0.0096
3076.00,0.0096
3075.00,0.0097
3074.00,0.0097
3073.00,0.0098
3072.00,0.0097
3071.00,0.0097
3070.00,0.0097
3069.00,0.0096
3068.00,0.0096
3067.00,0.0096
3066.00,0.0096
3065.00,0.0096
3064.00,0.0096
3063.00,0.0096
3062.00,0.0096
3061.00,0.0097
3060.00,0.0097
3059.00,0.0096
3058.00,0.0096
3057.00,0.0095
3056.00,0.0095
3055.00,0.0095
3054.00,0.0094
3053.00,0.0094
3052.00,0.0094
3051.00,0.0093
3050.00,0.0093
3049.00,0.0093
3048.00,0.0093
3047.00,0.0092
3046.00,0.0092
3045.00,0.0091
3044.00,0.0091
3043.00,0.0091
3042.00,0.0091
3041.00,0.0091
3040.00,0.0091
3039.00,0.0091
3038.00,0.0090
3037.00,0.0090
3036.00,0.0089
3035.00,0.0089
3034.00,0.0089
3033.00,0.0089
3032.00,0.0089
3031.00,0.0089
3030.00,0.0088
3029.00,0.0088
3028.00,0.0088
3027.00,0.0088
3026.00,0.0088
3025.00,0.0087
3024.00,0.0087
3023.00,0.0087
3022.00,0.0086
3021.00,0.0086
3020.00,0.0085
3019.00,0.0085
3018.00,0.0084
3017.00,0.0083
3016.00,0.0082
3015.00,0.0082
3014.00,0.0081
3013.00,0.0080
3012.00,0.0080
3011.00,0.0080
3010.00,0.0079
3009.00,0.0079
3008.00,0.0079
3007.00,0.0078
3006.00,0.0078
3005.00,0.0077
3004.00,0.0076
3003.00,0.0075
3002.00,0.0074
3001.00,0.0074
3000.00,0.0073
2999.00,0.0072
2998.00,0.0071
2997.00,0.0071
2996.00,0.0070
2995.00,0.0070
2994.00,0.0070
2993.00,0.0070
2992.00,0.0071
2991.00,0.0071
2990.00,0.0071
2989.00,0.0071
2988.00,0.0071
2987.00,0.0071
2986.00,0.0071
2985.00,0.0070
2984.00,0.0068
2983.00,0.0066
2982.00,0.0065
2981.00,0.0065
2980.00,0.0067
2979.00,0.0069
2978.00,0.0071
2977.00,0.0072
2976.00,0.0074
2975.00,0.0074
2974.00,0.0075
2973.00,0.0076
2972.00,0.0076
2971.00,0.0077
2970.00,0.0078
2969.00,0.0080
2968.00,0.0081
2967.00,0.0082
2966.00,0.0084
2965.00,0.0085
2964.00,0.0086
2963.00,0.0087
2962.00,0.0087
2961.00,0.0088
2960.00,0.0089
2959.00,0.0089
2958.00,0.0089
2957.00,0.0089
2956.00,0.0089
2955.00,0.0089
2954.00,0.0088
2953.00,0.0088
2952.00,0.0088
2951.00,0.0088
2950.00,0.0088
2949.00,0.0088
2948.00,0.0087
2947.00,0.0088
2946.00,0.0088
2945.00,0.0088
2944.00,0.0089
2943.00,0.0090
2942.00,0.0091
2941.00,0.0091
2940.00,0.0092
2939.00,0.0092
2938.00,0.0093
2937.00,0.0093
2936.00,0.0093
2935.00,0.0094
2934.00,0.0094
2933.00,0.0094
2932.00,0.0095
2931.00,0.0095
2930.00,0.0095
2929.00,0.0096
2928.00,0.0096
2927.00,0.0096
2926.00,0.0096
2925.00,0.0096
2924.00,0.0096
2923.00,0.0096
2922.00,0.0096
2921.00,0.0096
2920.00,0.0096
2919.00,0.0095
2918.00,0.0095
2917.00,0.0094
2916.00,0.0093
2915.00,0.0092
2914.00,0.0091
2913.00,0.0090
2912.00,0.0089
2911.00,0.0088
2910.00,0.0087
2909.00,0.0086
2908.00,0.0086
2907.00,0.0085
2906.00,0.0084
2905.00,0.0083
2904.00,0.0083
2903.00,0.0082
2902.00,0.0082
2901.00,0.0082
2900.00,0.0081
2899.00,0.0081
2898.00,0.0081
2897.00,0.0080
2896.00,0.0080
2895.00,0.0079
2894.00,0.0079
2893.00,0.0079
2892.00,0.0078
2891.00,0.0078
2890.00,0.0078
2889.00,0.0078
2888.00,0.0078
2887.00,0.0078
2886.00,0.0078
2885.00,0.0078
2884.00,0.0078
2883.00,0.0079
2882.00,0.0079
2881.00,0.0079
2880.00,0.0080
2879.00,0.0081
2878.00,0.0081
2877.00,0.0082
2876.00,0.0082
2875.00,0.0082
2874.00,0.0082
2873.00,0.0082
2872.00,0.0082
2871.00,0.0082
2870.00,0.0082
2869.00,0.0081
2868.00,0.0081
2867.00,0.0081
2866.00,0.0080
2865.00,0.0080
2864.00,0.0080
2863.00,0.0079
2862.00,0.0079
2861.00,0.0078
2860.00,0.0078
2859.00,0.0078
2858.00,0.0078
2857.00,0.0077
2856.00,0.0077
2855.00,0.0077
2854.00,0.0078
2853.00,0.0078
2852.00,0.0078
2851.00,0.0078
2850.00,0.0078
2849.00,0.0078
2848.00,0.0078
2847.00,0.0077
2846.00,0.0077
2845.00,0.0076
2844.00,0.0076
2843.00,0.0076
2842.00,0.0075
2841.00,0.0074
2840.00,0.0074
2839.00,0.0074
2838.00,0.0073
2837.00,0.0073
2836.00,0.0073
2835.00,0.0073
2834.00,0.0072
2833.00,0.0072
2832.00,0.0072
2831.00,0.0072
2830.00,0.0071
2829.00,0.0071
2828.00,0.0071
2827.00,0.0071
2826.00,0.0071
2825.00,0.0071
2824.00,0.0070
2823.00,0.0070
2822.00,0.0070
2821.00,0.0070
2820.00,0.0070
2819.00,0.0070
2818.00,0.0070
2817.00,0.0071
2816.00,0.0071
2815.00,0.0071
2814.00,0.0070
2813.00,0.0070
2812.00,0.0070
2811.00,0.0070
2810.00,0.0070
2809.00,0.0069
2808.00,0.0069
2807.00,0.0069
2806.00,0.0069
2805.00,0.0069
2804.00,0.0069
2803.00,0.0069
2802.00,0.0069
2801.00,0.0069
2800.00,0.0069
2799.00,0.0069
2798.00,0.0068
2797.00,0.0068
2796.00,0.0068
2795.00,0.0068
2794.00,0.0068
2793.00,0.0068
2792.00,0.0068
2791.00,0.0068
2790.00,0.0067
2789.00,0.0067
2788.00,0.0067
2787.00,0.0067
2786.00,0.0067
2785.00,0.0067
2784.00,0.0067
2783.00,0.0067
2782.00,0.0067
2781.00,0.0067
2780.00,0.0066
2779.00,0.0066
2778.00,0.0066
2777.00,0.0066
2776.00,0.0066
2775.00,0.0066
2774.00,0.0066
2773.00,0.0066
2772.00,0.0066
2771.00,0.0065
2770.00,0.0065
2769.00,0.0065
2768.00,0.0065
2767.00,0.0065
2766.00,0.0065
2765.00,0.0065
2764.00,0.0065
2763.00,0.0064
2762.00,0.0064
2761.00,0.0064
2760.00,0.0064
2759.00,0.0064
2758.00,0.0064
2757.00,0.0064
2756.00,0.0064
2755.00,0.0064
2754.00,0.0064
2753.00,0.0063
2752.00,0.0063
2751.00,0.0063
2750.00,0.0063
2749.00,0.0063
2748.00,0.0063
2747.00,0.0063
2746.00,0.0063
2745.00,0.0063
2744.00,0.0063
2743.00,0.0063
2742.00,0.0063
2741.00,0.0063
2740.00,0.0062
2739.00,0.0062
2738.00,0.0062
2737.00,0.0062
2736.00,0.0062
2735.00,0.0062
2734.00,0.0062
2733.00,0.0062
2732.00,0.0062
2731.00,0.0062
2730.00,0.0062
2729.00,0.0062
2728.00,0.0061
2727.00,0.0061
2726.00,0.0061
2725.00,0.0061
2724.00,0.0061
2723.00,0.0061
2722.00,0.0061
2721.00,0.0061
2720.00,0.0061
2719.00,0.0061
2718.00,0.0061
2717.00,0.0060
2716.00,0.0060
2715.00,0.0060
2714.00,0.0060
2713.00,0.0060
2712.00,0.0060
2711.00,0.0060
2710.00,0.0060
2709.00,0.0060
2708.00,0.0060
2707.00,0.0060
2706.00,0.0060
2705.00,0.0059
2704.00,0.0059
2703.00,0.0059
2702.00,0.0059
2701.00,0.0059
2700.00,0.0059
2699.00,0.0059
2698.00,0.0059
2697.00,0.0059
2696.00,0.0059
2695.00,0.0058
2694.00,0.0058
2693.00,0.0058
2692.00,0.0058
2691.00,0.0058
2690.00,0.0058
2689.00,0.0058
2688.00,0.0058
2687.00,0.0058
2686.00,0.0058
2685.00,0.0058
2684.00,0.0058
2683.00,0.0058
2682.00,0.0058
2681.00,0.0058
2680.00,0.0057
2679.00,0.0057
2678.00,0.0057
2677.00,0.0057
2676.00,0.0057
2675.00,0.0057
2674.00,0.0057
2673.00,0.0057
2672.00,0.0057
2671.00,0.0057
2670.00,0.0057
2669.00,0.0057
2668.00,0.0057
2667.00,0.0057
2666.00,0.0058
2665.00,0.0058
2664.00,0.0058
2663.00,0.0059
2662.00,0.0059
2661.00,0.0059
2660.00,0.0059
2659.00,0.0059
2658.00,0.0059
2657.00,0.0059
2656.00,0.0059
2655.00,0.0059
2654.00,0.0060
2653.00,0.0060
2652.00,0.0060
2651.00,0.0060
2650.00,0.0060
2649.00,0.0060
2648.00,0.0059
2647.00,0.0059
2646.00,0.0059
2645.00,0.0059
2644.00,0.0059
2643.00,0.0059
2642.00,0.0059
2641.00,0.0059
2640.00,0.0059
2639.00,0.0059
2638.00,0.0058
2637.00,0.0058
2636.00,0.0058
2635.00,0.0058
2634.00,0.0058
2633.00,0.0058
2632.00,0.0058
2631.00,0.0058
2630.00,0.0058
2629.00,0.0058
2628.00,0.0058
2627.00,0.0058
2626.00,0.0057
2625.00,0.0057
2624.00,0.0057
2623.00,0.0057
2622.00,0.0057
2621.00,0.0057
2620.00,0.0057
2619.00,0.0056
2618.00,0.0056
2617.00,0.0056
2616.00,0.0056
2615.00,0.0056
2614.00,0.0056
2613.00,0.0056
2612.00,0.0055
2611.00,0.0055
2610.00,0.0055
2609.00,0.0055
2608.00,0.0055
2607.00,0.0055
2606.00,0.0055
2605.00,0.0055
2604.00,0.0054
2603.00,0.0054
2602.00,0.0054
2601.00,0.0054
2600.00,0.0054
2599.00,0.0054
2598.00,0.0053
2597.00,0.0053
2596.00,0.0053
2595.00,0.0053
2594.00,0.0053
2593.00,0.0053
2592.00,0.0052
2591.00,0.0052
2590.00,0.0052
2589.00,0.0052
2588.00,0.0052
2587.00,0.0052
2586.00,0.0052
2585.00,0.0052
2584.00,0.0051
2583.00,0.0051
2582.00,0.0051
2581.00,0.0052
2580.00,0.0052
2579.00,0.0052
2578.00,0.0052
2577.00,0.0052
2576.00,0.0052
2575.00,0.0052
2574.00,0.0052
2573.00,0.0051
2572.00,0.0051
2571.00,0.0051
2570.00,0.0051
2569.00,0.0051
2568.00,0.0051
2567.00,0.0051
2566.00,0.0051
2565.00,0.0051
2564.00,0.0050
2563.00,0.0050
2562.00,0.0050
2561.00,0.0050
2560.00,0.0050
2559.00,0.0050
2558.00,0.0049
2557.00,0.0049
2556.00,0.0049
2555.00,0.0049
2554.00,0.0049
2553.00,0.0049
2552.00,0.0049
2551.00,0.0049
2550.00,0.0049
2549.00,0.0049
2548.00,0.0049
2547.00,0.0049
2546.00,0.0049
2545.00,0.0049
2544.00,0.0048
2543.00,0.0048
2542.00,0.0048
2541.00,0.0048
2540.00,0.0048
2539.00,0.0048
2538.00,0.0048
2537.00,0.0048
2536.00,0.0048
2535.00,0.0048
2534.00,0.0048
2533.00,0.0048
2532.00,0.0048
2531.00,0.0047
2530.00,0.0047
2529.00,0.0047
2528.00,0.0046
2527.00,0.0046
2526.00,0.0046
2525.00,0.0046
2524.00,0.0046
2523.00,0.0046
2522.00,0.0047
2521.00,0.0047
2520.00,0.0047
2519.00,0.0046
2518.00,0.0046
2517.00,0.0046
2516.00,0.0046
2515.00,0.0046
2514.00,0.0046
2513.00,0.0046
2512.00,0.0046
2511.00,0.0046
2510.00,0.0046
2509.00,0.0046
2508.00,0.0046
2507.00,0.0046
2506.00,0.0046
2505.00,0.0046
2504.00,0.0046
2503.00,0.0046
2502.00,0.0046
2501.00,0.0046
2500.00,0.0045
2499.00,0.0045
2498.00,0.0045
2497.00,0.0045
2496.00,0.0045
2495.00,0.0045
2494.00,0.0045
2493.00,0.0045
2492.00,0.0044
2491.00,0.0044
2490.00,0.0044
2489.00,0.0044
2488.00,0.0045
2487.00,0.0045
2486.00,0.0044
2485.00,0.0044
2484.00,0.0044
2483.00,0.0044
2482.00,0.0044
2481.00,0.0044
2480.00,0.0044
2479.00,0.0044
2478.00,0.0044
2477.00,0.0044
2476.00,0.0044
2475.00,0.0044
2474.00,0.0044
2473.00,0.0043
2472.00,0.0043
2471.00,0.0043
2470.00,0.0043
2469.00,0.0043
2468.00,0.0043
2467.00,0.0043
2466.00,0.0043
2465.00,0.0043
2464.00,0.0043
2463.00,0.0044
2462.00,0.0044
2461.00,0.0044
2460.00,0.0044
2459.00,0.0044
2458.00,0.0045
2457.00,0.0045
2456.00,0.0045
2455.00,0.0045
2454.00,0.0045
2453.00,0.0044
2452.00,0.0044
2451.00,0.0043
2450.00,0.0043
2449.00,0.0043
2448.00,0.0043
2447.00,0.0042
2446.00,0.0042
2445.00,0.0042
2444.00,0.0042
2443.00,0.0042
2442.00,0.0042
2441.00,0.0042
2440.00,0.0042
2439.00,0.0042
2438.00,0.0041
2437.00,0.0041
2436.00,0.0041
2435.00,0.0041
2434.00,0.0041
2433.00,0.0042
2432.00,0.0042
2431.00,0.0041
2430.00,0.0041
2429.00,0.0041
2428.00,0.0041
2427.00,0.0040
2426.00,0.0040
2425.00,0.0040
2424.00,0.0039
2423.00,0.0039
2422.00,0.0039
2421.00,0.0040
2420.00,0.0040
2419.00,0.0040
2418.00,0.0041
2417.00,0.0040
2416.00,0.0040
2415.00,0.0040
2414.00,0.0039
2413.00,0.0039
2412.00,0.0039
2411.00,0.0039
2410.00,0.0039
2409.00,0.0039
2408.00,0.0039
2407.00,0.0038
2406.00,0.0038
2405.00,0.0037
2404.00,0.0037
2403.00,0.0037
2402.00,0.0037
2401.00,0.0037
2400.00,0.0037
2399.00,0.0038
2398.00,0.0038
2397.00,0.0038
2396.00,0.0038
2395.00,0.0037
2394.00,0.0037
2393.00,0.0037
2392.00,0.0037
2391.00,0.0037
2390.00,0.0037
2389.00,0.0037
2388.00,0.0036
2387.00,0.0036
2386.00,0.0036
2385.00,0.0035
2384.00,0.0035
2383.00,0.0035
2382.00,0.0035
2381.00,0.0034
2380.00,0.0033
2379.00,0.0033
2378.00,0.0032
2377.00,0.0032
2376.00,0.0033
2375.00,0.0033
2374.00,0.0034
2373.00,0.0034
2372.00,0.0034
2371.00,0.0034
2370.00,0.0034
2369.00,0.0034
2368.00,0.0034
2367.00,0.0034
2366.00,0.0034
2365.00,0.0034
2364.00,0.0034
2363.00,0.0034
2362.00,0.0034
2361.00,0.0034
2360.00,0.0034
2359.00,0.0033
2358.00,0.0034
2357.00,0.0034
2356.00,0.0034
2355.00,0.0034
2354.00,0.0034
2353.00,0.0034
2352.00,0.0034
2351.00,0.0034
2350.00,0.0035
2349.00,0.0035
2348.00,0.0035
2347.00,0.0035
2346.00,0.0036
2345.00,0.0036
2344.00,0.0036
2343.00,0.0036
2342.00,0.0036
2341.00,0.0036
2340.00,0.0037
2339.00,0.0037
2338.00,0.0037
2337.00,0.0037
2336.00,0.0037
2335.00,0.0037
2334.00,0.0037
2333.00,0.0036
2332.00,0.0036
2331.00,0.0036
2330.00,0.0036
2329.00,0.0038
2328.00,0.0040
2327.00,0.0044
2326.00,0.0046
2325.00,0.0048
2324.00,0.0048
2323.00,0.0047
2322.00,0.0045
2321.00,0.0044
2320.00,0.0042
2319.00,0.0041
2318.00,0.0040
2317.00,0.0039
2316.00,0.0039
2315.00,0.0038
2314.00,0.0038
2313.00,0.0038
2312.00,0.0037
2311.00,0.0037
2310.00,0.0037
2309.00,0.0037
2308.00,0.0038
2307.00,0.0038
2306.00,0.0038
2305.00,0.0039
2304.00,0.0039
2303.00,0.0039
2302.00,0.0040
2301.00,0.0040
2300.00,0.0040
2299.00,0.0040
2298.00,0.0040
2297.00,0.0040
2296.00,0.0041
2295.00,0.0041
2294.00,0.0042
2293.00,0.0043
2292.00,0.0043
2291.00,0.0044
2290.00,0.0044
2289.00,0.0045
2288.00,0.0045
2287.00,0.0045
2286.00,0.0045
2285.00,0.0045
2284.00,0.0044
2283.00,0.0044
2282.00,0.0043
2281.00,0.0043
2280.00,0.0042
2279.00,0.0042
2278.00,0.0042
2277.00,0.0041
2276.00,0.0041
2275.00,0.0041
2274.00,0.0041
2273.00,0.0041
2272.00,0.0041
2271.00,0.0041
2270.00,0.0040
2269.00,0.0040
2268.00,0.0039
2267.00,0.0039
2266.00,0.0038
2265.00,0.0037
2264.00,0.0037
2263.00,0.0037
2262.00,0.0038
2261.00,0.0039
2260.00,0.0039
2259.00,0.0039
2258.00,0.0038
2257.00,0.0038
2256.00,0.0037
2255.00,0.0036
2254.00,0.0036
2253.00,0.0035
2252.00,0.0035
2251.00,0.0035
2250.00,0.0036
2249.00,0.0036
2248.00,0.0037
2247.00,0.0037
2246.00,0.0037
2245.00,0.0038
2244.00,0.0038
2243.00,0.0038
2242.00,0.0037
2241.00,0.0037
2240.00,0.0037
2239.00,0.0036
2238.00,0.0036
2237.00,0.0036
2236.00,0.0036
2235.00,0.0037
2234.00,0.0037
2233.00,0.0036
2232.00,0.0036
2231.00,0.0036
2230.00,0.0035
2229.00,0.0036
2228.00,0.0036
2227.00,0.0037
2226.00,0.0037
2225.00,0.0038
2224.00,0.0037
2223.00,0.0036
2222.00,0.0035
2221.00,0.0034
2220.00,0.0034
2219.00,0.0034
2218.00,0.0034
2217.00,0.0034
2216.00,0.0034
2215.00,0.0034
2214.00,0.0034
2213.00,0.0035
2212.00,0.0035
2211.00,0.0036
2210.00,0.0035
2209.00,0.0034
2208.00,0.0033
2207.00,0.0034
2206.00,0.0034
2205.00,0.0036
2204.00,0.0036
2203.00,0.0037
2202.00,0.0036
2201.00,0.0036
2200.00,0.0035
2199.00,0.0034
2198.00,0.0033
2197.00,0.0033
2196.00,0.0034
2195.00,0.0035
2194.00,0.0037
2193.00,0.0038
2192.00,0.0038
2191.00,0.0039
2190.00,0.0039
2189.00,0.0040
2188.00,0.0041
2187.00,0.0041
2186.00,0.0040
2185.00,0.0038
2184.00,0.0035
2183.00,0.0033
2182.00,0.0031
2181.00,0.0031
2180.00,0.0032
2179.00,0.0033
2178.00,0.0033
2177.00,0.0031
2176.00,0.0029
2175.00,0.0027
2174.00,0.0027
2173.00,0.0029
2172.00,0.0032
2171.00,0.0036
2170.00,0.0038
2169.00,0.0040
2168.00,0.0041
2167.00,0.0041
2166.00,0.0041
2165.00,0.0041
2164.00,0.0043
2163.00,0.0044
2162.00,0.0041
2161.00,0.0033
2160.00,0.0022
2159.00,0.0013
2158.00,0.0008
2157.00,0.0008
2156.00,0.0009
2155.00,0.0011
2154.00,0.0012
2153.00,0.0012
2152.00,0.0013
2151.00,0.0013
2150.00,0.0014
2149.00,0.0015
2148.00,0.0016
2147.00,0.0017
2146.00,0.0017
2145.00,0.0017
2144.00,0.0017
2143.00,0.0017
2142.00,0.0017
2141.00,0.0018
2140.00,0.0018
2139.00,0.0019
2138.00,0.0019
2137.00,0.0018
2136.00,0.0016
2135.00,0.0014
2134.00,0.0013
2133.00,0.0014
2132.00,0.0016
2131.00,0.0017
2130.00,0.0018
2129.00,0.0019
2128.00,0.0020
2127.00,0.0021
2126.00,0.0022
2125.00,0.0023
2124.00,0.0023
2123.00,0.0024
2122.00,0.0025
2121.00,0.0026
2120.00,0.0027
2119.00,0.0028
2118.00,0.0029
2117.00,0.0029
2116.00,0.0029
2115.00,0.0030
2114.00,0.0030
2113.00,0.0031
2112.00,0.0031
2111.00,0.0031
2110.00,0.0030
2109.00,0.0030
2108.00,0.0029
2107.00,0.0029
2106.00,0.0028
2105.00,0.0029
2104.00,0.0030
2103.00,0.0030
2102.00,0.0031
2101.00,0.0031
2100.00,0.0030
2099.00,0.0030
2098.00,0.0028
2097.00,0.0027
2096.00,0.0026
2095.00,0.0025
2094.00,0.0025
2093.00,0.0026
2092.00,0.0026
2091.00,0.0027
2090.00,0.0027
2089.00,0.0027
2088.00,0.0028
2087.00,0.0029
2086.00,0.0030
2085.00,0.0030
2084.00,0.0031
2083.00,0.0031
2082.00,0.0031
2081.00,0.0031
2080.00,0.0032
2079.00,0.0032
2078.00,0.0032
2077.00,0.0032
2076.00,0.0032
2075.00,0.0032
2074.00,0.0032
2073.00,0.0031
2072.00,0.0031
2071.00,0.0030
2070.00,0.0030
2069.00,0.0030
2068.00,0.0030
2067.00,0.0030
2066.00,0.0030
2065.00,0.0029
2064.00,0.0028
2063.00,0.0028
2062.00,0.0028
2061.00,0.0028
2060.00,0.0028
2059.00,0.0028
2058.00,0.0029
2057.00,0.0029
2056.00,0.0030
2055.00,0.0031
2054.00,0.0032
2053.00,0.0035
2052.00,0.0038
2051.00,0.0038
2050.00,0.0036
2049.00,0.0033
2048.00,0.0030
2047.00,0.0029
2046.00,0.0028
2045.00,0.0027
2044.00,0.0027
2043.00,0.0027
2042.00,0.0028
2041.00,0.0029
2040.00,0.0030
2039.00,0.0030
2038.00,0.0031
2037.00,0.0030
2036.00,0.0030
2035.00,0.0028
2034.00,0.0027
2033.00,0.0026
2032.00,0.0025
2031.00,0.0025
2030.00,0.0024
2029.00,0.0024
2028.00,0.0024
2027.00,0.0022
2026.00,0.0021
2025.00,0.0020
2024.00,0.0021
2023.00,0.0022
2022.00,0.0022
2021.00,0.0022
2020.00,0.0022
2019.00,0.0022
2018.00,0.0023
2017.00,0.0024
2016.00,0.0024
2015.00,0.0023
2014.00,0.0022
2013.00,0.0021
2012.00,0.0020
2011.00,0.0019
2010.00,0.0019
2009.00,0.0018
2008.00,0.0016
2007.00,0.0015
2006.00,0.0014
2005.00,0.0015
2004.00,0.0016
2003.00,0.0016
2002.00,0.0017
2001.00,0.0018
2000.00,0.0019
1999.00,0.0021
1998.00,0.0023
1997.00,0.0024
1996.00,0.0025
1995.00,0.0025
1994.00,0.0026
1993.00,0.0026
1992.00,0.0027
1991.00,0.0026
1990.00,0.0026
1989.00,0.0026
1988.00,0.0026
1987.00,0.0027
1986.00,0.0027
1985.00,0.0029
1984.00,0.0031
1983.00,0.0033
1982.00,0.0036
1981.00,0.0037
1980.00,0.0035
1979.00,0.0030
1978.00,0.0022
1977.00,0.0017
1976.00,0.0015
1975.00,0.0015
1974.00,0.0015
1973.00,0.0015
1972.00,0.0015
1971.00,0.0015
1970.00,0.0015
1969.00,0.0016
1968.00,0.0017
1967.00,0.0017
1966.00,0.0016
1965.00,0.0016
1964.00,0.0016
1963.00,0.0015
1962.00,0.0015
1961.00,0.0015
1960.00,0.0015
1959.00,0.0015
1958.00,0.0016
1957.00,0.0017
1956.00,0.0018
1955.00,0.0017
1954.00,0.0017
1953.00,0.0016
1952.00,0.0015
1951.00,0.0015
1950.00,0.0014
1949.00,0.0013
1948.00,0.0014
1947.00,0.0015
1946.00,0.0016
1945.00,0.0017
1944.00,0.0017
1943.00,0.0017
1942.00,0.0017
1941.00,0.0016
1940.00,0.0016
1939.00,0.0016
1938.00,0.0017
1937.00,0.0017
1936.00,0.0018
1935.00,0.0018
1934.00,0.0018
1933.00,0.0018
1932.00,0.0018
1931.00,0.0018
1930.00,0.0018
1929.00,0.0019
1928.00,0.0020
1927.00,0.0020
1926.00,0.0020
1925.00,0.0020
1924.00,0.0020
1923.00,0.0020
1922.00,0.0019
1921.00,0.0019
1920.00,0.0019
1919.00,0.0020
1918.00,0.0020
1917.00,0.0020
1916.00,0.0020
1915.00,0.0019
1914.00,0.0020
1913.00,0.0020
1912.00,0.0020
1911.00,0.0020
1910.00,0.0020
1909.00,0.0020
1908.00,0.0021
1907.00,0.0021
1906.00,0.0021
1905.00,0.0021
1904.00,0.0021
1903.00,0.0021
1902.00,0.0021
1901.00,0.0020
1900.00,0.0020
1899.00,0.0020
1898.00,0.0020
1897.00,0.0020
1896.00,0.0021
1895.00,0.0021
1894.00,0.0021
1893.00,0.0021
1892.00,0.0021
1891.00,0.0020
1890.00,0.0020
1889.00,0.0020
1888.00,0.0020
1887.00,0.0020
1886.00,0.0020
1885.00,0.0020
1884.00,0.0021
1883.00,0.0021
1882.00,0.0021
1881.00,0.0021
1880.00,0.0020
1879.00,0.0020
1878.00,0.0020
1877.00,0.0020
1876.00,0.0020
1875.00,0.0020
1874.00,0.0020
1873.00,0.0020
1872.00,0.0020
1871.00,0.0020
1870.00,0.0020
1869.00,0.0020
1868.00,0.0020
1867.00,0.0020
1866.00,0.0019
1865.00,0.0019
1864.00,0.0019
1863.00,0.0020
1862.00,0.0020
1861.00,0.0020
1860.00,0.0020
1859.00,0.0020
1858.00,0.0020
1857.00,0.0020
1856.00,0.0020
1855.00,0.0020
1854.00,0.0020
1853.00,0.0019
1852.00,0.0019
1851.00,0.0019
1850.00,0.0019
1849.00,0.0019
1848.00,0.0020
1847.00,0.0020
1846.00,0.0020
1845.00,0.0020
1844.00,0.0020
1843.00,0.0019
1842.00,0.0019
1841.00,0.0020
1840.00,0.0020
1839.00,0.0021
1838.00,0.0021
1837.00,0.0020
1836.00,0.0020
1835.00,0.0020
1834.00,0.0020
1833.00,0.0020
1832.00,0.0020
1831.00,0.0020
1830.00,0.0020
1829.00,0.0020
1828.00,0.0020
1827.00,0.0020
1826.00,0.0020
1825.00,0.0020
1824.00,0.0020
1823.00,0.0020
1822.00,0.0020
1821.00,0.0019
1820.00,0.0019
1819.00,0.0018
1818.00,0.0018
1817.00,0.0018
1816.00,0.0018
1815.00,0.0019
1814.00,0.0019
1813.00,0.0020
1812.00,0.0020
1811.00,0.0021
1810.00,0.0021
1809.00,0.0021
1808.00,0.0021
1807.00,0.0021
1806.00,0.0021
1805.00,0.0021
1804.00,0.0021
1803.00,0.0021
1802.00,0.0021
1801.00,0.0021
1800.00,0.0021
1799.00,0.0021
1798.00,0.0020
1797.00,0.0020
1796.00,0.0021
1795.00,0.0021
1794.00,0.0021
1793.00,0.0021
1792.00,0.0021
1791.00,0.0020
1790.00,0.0020
1789.00,0.0020
1788.00,0.0020
1787.00,0.0021
1786.00,0.0021
1785.00,0.0021
1784.00,0.0021
1783.00,0.0021
1782.00,0.0021
1781.00,0.0022
1780.00,0.0022
1779.00,0.0021
1778.00,0.0021
1777.00,0.0021
1776.00,0.0021
1775.00,0.0021
1774.00,0.0021
1773.00,0.0021
1772.00,0.0021
1771.00,0.0020
1770.00,0.0020
1769.00,0.0020
1768.00,0.0020
1767.00,0.0020
1766.00,0.0020
1765.00,0.0020
1764.00,0.0021
1763.00,0.0021
1762.00,0.0021
1761.00,0.0021
1760.00,0.0021
1759.00,0.0021
1758.00,0.0022
1757.00,0.0022
1756.00,0.0021
1755.00,0.0021
1754.00,0.0021
1753.00,0.0022
1752.00,0.0022
1751.00,0.0021
1750.00,0.0021
1749.00,0.0022
1748.00,0.0022
1747.00,0.0023
1746.00,0.0023
1745.00,0.0024
1744.00,0.0024
1743.00,0.0024
1742.00,0.0024
1741.00,0.0024
1740.00,0.0024
1739.00,0.0024
1738.00,0.0024
1737.00,0.0024
1736.00,0.0024
1735.00,0.0024
1734.00,0.0024
1733.00,0.0024
1732.00,0.0025
1731.00,0.0026
1730.00,0.0027
1729.00,0.0027
1728.00,0.0028
1727.00,0.0028
1726.00,0.0029
1725.00,0.0029
1724.00,0.0030
1723.00,0.0030
1722.00,0.0030
1721.00,0.0030
1720.00,0.0031
1719.00,0.0032
1718.00,0.0033
1717.00,0.0034
1716.00,0.0035
1715.00,0.0035
1714.00,0.0036
1713.00,0.0037
1712.00,0.0039
1711.00,0.0042
1710.00,0.0044
1709.00,0.0046
1708.00,0.0049
1707.00,0.0053
1706.00,0.0057
1705.00,0.0061
1704.00,0.0065
1703.00,0.0067
1702.00,0.0070
1701.00,0.0076
1700.00,0.0084
1699.00,0.0092
1698.00,0.0098
1697.00,0.0104
1696.00,0.0111
1695.00,0.0117
1694.00,0.0122
1693.00,0.0125
1692.00,0.0129
1691.00,0.0134
1690.00,0.0138
1689.00,0.0143
1688.00,0.0146
1687.00,0.0149
1686.00,0.0152
1685.00,0.0158
1684.00,0.0166
1683.00,0.0173
1682.00,0.0177
1681.00,0.0181
1680.00,0.0185
1679.00,0.0189
1678.00,0.0193
1677.00,0.0196
1676.00,0.0201
1675.00,0.0208
1674.00,0.0213
1673.00,0.0218
1672.00,0.0222
1671.00,0.0227
1670.00,0.0233
1669.00,0.0240
1668.00,0.0246
1667.00,0.0251
1666.00,0.0254
1665.00,0.0258
1664.00,0.0264
1663.00,0.0271
1662.00,0.0278
1661.00,0.0284
1660.00,0.0289
1659.00,0.0294
1658.00,0.0299
1657.00,0.0301
1656.00,0.0303
1655.00,0.0305
1654.00,0.0312
1653.00,0.0324
1652.00,0.0333
1651.00,0.0337
1650.00,0.0336
1649.00,0.0336
1648.00,0.0338
1647.00,0.0342
1646.00,0.0347
1645.00,0.0350
1644.00,0.0351
1643.00,0.0352
1642.00,0.0352
1641.00,0.0353
1640.00,0.0353
1639.00,0.0352
1638.00,0.0351
1637.00,0.0351
1636.00,0.0354
1635.00,0.0358
1634.00,0.0359
1633.00,0.0359
1632.00,0.0357
1631.00,0.0355
1630.00,0.0352
1629.00,0.0350
1628.00,0.0348
1627.00,0.0345
1626.00,0.0341
1625.00,0.0337
1624.00,0.0333
1623.00,0.0329
1622.00,0.0324
1621.00,0.0318
1620.00,0.0311
1619.00,0.0303
1618.00,0.0295
1617.00,0.0288
1616.00,0.0280
1615.00,0.0273
1614.00,0.0265
1613.00,0.0257
1612.00,0.0249
1611.00,0.0241
1610.00,0.0233
1609.00,0.0226
1608.00,0.0219
1607.00,0.0212
1606.00,0.0206
1605.00,0.0201
1604.00,0.0195
1603.00,0.0191
1602.00,0.0187
1601.00,0.0183
1600.00,0.0180
1599.00,0.0177
1598.00,0.0175
1597.00,0.0173
1596.00,0.0171
1595.00,0.0169
1594.00,0.0168
1593.00,0.0167
1592.00,0.0166
1591.00,0.0165
1590.00,0.0165
1589.00,0.0164
1588.00,0.0164
1587.00,0.0163
1586.00,0.0163
1585.00,0.0163
1584.00,0.0163
1583.00,0.0164
1582.00,0.0165
1581.00,0.0166
1580.00,0.0167
1579.00,0.0167
1578.00,0.0168
1577.00,0.0170
1576.00,0.0174
1575.00,0.0177
1574.00,0.0178
1573.00,0.0179
1572.00,0.0180
1571.00,0.0181
1570.00,0.0185
1569.00,0.0189
1568.00,0.0192
1567.00,0.0195
1566.00,0.0198
1565.00,0.0201
1564.00,0.0204
1563.00,0.0206
1562.00,0.0206
1561.00,0.0206
1560.00,0.0210
1559.00,0.0220
1558.00,0.0229
1557.00,0.0234
1556.00,0.0238
1555.00,0.0242
1554.00,0.0246
1553.00,0.0250
1552.00,0.0254
1551.00,0.0258
1550.00,0.0263
1549.00,0.0268
1548.00,0.0271
1547.00,0.0274
1546.00,0.0277
1545.00,0.0281
1544.00,0.0284
1543.00,0.0287
1542.00,0.0290
1541.00,0.0295
1540.00,0.0301
1539.00,0.0305
1538.00,0.0308
1537.00,0.0308
1536.00,0.0308
1535.00,0.0308
1534.00,0.0310
1533.00,0.0313
1532.00,0.0315
1531.00,0.0315
1530.00,0.0315
1529.00,0.0316
1528.00,0.0316
1527.00,0.0317
1526.00,0.0317
1525.00,0.0318
1524.00,0.0317
1523.00,0.0317
1522.00,0.0319
1521.00,0.0321
1520.00,0.0322
1519.00,0.0322
1518.00,0.0322
1517.00,0.0323
1516.00,0.0323
1515.00,0.0321
1514.00,0.0319
1513.00,0.0315
1512.00,0.0311
1511.00,0.0308
1510.00,0.0303
1509.00,0.0299
1508.00,0.0295
1507.00,0.0291
1506.00,0.0286
1505.00,0.0281
1504.00,0.0277
1503.00,0.0273
1502.00,0.0267
1501.00,0.0262
1500.00,0.0256
1499.00,0.0251
1498.00,0.0245
1497.00,0.0239
1496.00,0.0233
1495.00,0.0228
1494.00,0.0222
1493.00,0.0216
1492.00,0.0211
1491.00,0.0205
1490.00,0.0200
1489.00,0.0194
1488.00,0.0190
1487.00,0.0185
1486.00,0.0181
1485.00,0.0177
1484.00,0.0173
1483.00,0.0170
1482.00,0.0167
1481.00,0.0164
1480.00,0.0162
1479.00,0.0160
1478.00,0.0158
1477.00,0.0157
1476.00,0.0156
1475.00,0.0155
1474.00,0.0155
1473.00,0.0157
1472.00,0.0158
1471.00,0.0160
1470.00,0.0161
1469.00,0.0162
1468.00,0.0162
1467.00,0.0161
1466.00,0.0160
1465.00,0.0159
1464.00,0.0160
1463.00,0.0160
1462.00,0.0160
1461.00,0.0160
1460.00,0.0160
1459.00,0.0161
1458.00,0.0163
1457.00,0.0165
1456.00,0.0168
1455.00,0.0170
1454.00,0.0172
1453.00,0.0172
1452.00,0.0173
1451.00,0.0174
1450.00,0.0174
1449.00,0.0174
1448.00,0.0175
1447.00,0.0175
1446.00,0.0175
1445.00,0.0174
1444.00,0.0173
1443.00,0.0172
1442.00,0.0170
1441.00,0.0168
1440.00,0.0166
1439.00,0.0163
1438.00,0.0160
1437.00,0.0158
1436.00,0.0157
1435.00,0.0157
1434.00,0.0155
1433.00,0.0154
1432.00,0.0152
1431.00,0.0150
1430.00,0.0149
1429.00,0.0148
1428.00,0.0148
1427.00,0.0147
1426.00,0.0147
1425.00,0.0147
1424.00,0.0148
1423.00,0.0149
1422.00,0.0149
1421.00,0.0149
1420.00,0.0150
1419.00,0.0153
1418.00,0.0155
1417.00,0.0157
1416.00,0.0158
1415.00,0.0159
1414.00,0.0160
1413.00,0.0162
1412.00,0.0163
1411.00,0.0164
1410.00,0.0165
1409.00,0.0165
1408.00,0.0166
1407.00,0.0166
1406.00,0.0166
1405.00,0.0167
1404.00,0.0168
1403.00,0.0168
1402.00,0.0168
1401.00,0.0168
1400.00,0.0168
1399.00,0.0169
1398.00,0.0169
1397.00,0.0169
1396.00,0.0169
1395.00,0.0169
1394.00,0.0169
1393.00,0.0169
1392.00,0.0169
1391.00,0.0169
1390.00,0.0168
1389.00,0.0168
1388.00,0.0167
1387.00,0.0167
1386.00,0.0166
1385.00,0.0164
1384.00,0.0163
1383.00,0.0161
1382.00,0.0159
1381.00,0.0158
1380.00,0.0156
1379.00,0.0154
1378.00,0.0153
1377.00,0.0151
1376.00,0.0150
1375.00,0.0148
1374.00,0.0147
1373.00,0.0147
1372.00,0.0146
1371.00,0.0146
1370.00,0.0145
1369.00,0.0145
1368.00,0.0144
1367.00,0.0142
1366.00,0.0140
1365.00,0.0139
1364.00,0.0137
1363.00,0.0136
1362.00,0.0135
1361.00,0.0134
1360.00,0.0133
1359.00,0.0133
1358.00,0.0133
1357.00,0.0133
1356.00,0.0133
1355.00,0.0133
1354.00,0.0133
1353.00,0.0133
1352.00,0.0133
1351.00,0.0133
1350.00,0.0133
1349.00,0.0133
1348.00,0.0133
1347.00,0.0133
1346.00,0.0133
1345.00,0.0132
1344.00,0.0132
1343.00,0.0132
1342.00,0.0133
1341.00,0.0133
1340.00,0.0134
1339.00,0.0134
1338.00,0.0134
1337.00,0.0135
1336.00,0.0135
1335.00,0.0135
1334.00,0.0134
1333.00,0.0134
1332.00,0.0133
1331.00,0.0133
1330.00,0.0133
1329.00,0.0134
1328.00,0.0134
1327.00,0.0134
1326.00,0.0135
1325.00,0.0135
1324.00,0.0136
1323.00,0.0137
1322.00,0.0137
1321.00,0.0138
1320.00,0.0138
1319.00,0.0139
1318.00,0.0138
1317.00,0.0138
1316.00,0.0138
1315.00,0.0137
1314.00,0.0137
1313.00,0.0137
1312.00,0.0138
1311.00,0.0138
1310.00,0.0138
1309.00,0.0138
1308.00,0.0138
1307.00,0.0138
1306.00,0.0139
1305.00,0.0139
1304.00,0.0139
1303.00,0.0139
1302.00,0.0138
1301.00,0.0138
1300.00,0.0138
1299.00,0.0139
1298.00,0.0139
1297.00,0.0140
1296.00,0.0140
1295.00,0.0141
1294.00,0.0141
1293.00,0.0141
1292.00,0.0142
1291.00,0.0143
1290.00,0.0143
1289.00,0.0144
1288.00,0.0144
1287.00,0.0145
1286.00,0.0145
1285.00,0.0145
1284.00,0.0145
1283.00,0.0146
1282.00,0.0145
1281.00,0.0145
1280.00,0.0145
1279.00,0.0144
1278.00,0.0144
1277.00,0.0144
1276.00,0.0144
1275.00,0.0144
1274.00,0.0144
1273.00,0.0144
1272.00,0.0144
1271.00,0.0145
1270.00,0.0146
1269.00,0.0147
1268.00,0.0148
1267.00,0.0149
1266.00,0.0150
1265.00,0.0151
1264.00,0.0152
1263.00,0.0154
1262.00,0.0154
1261.00,0.0155
1260.00,0.0156
1259.00,0.0156
1258.00,0.0156
1257.00,0.0156
1256.00,0.0156
1255.00,0.0156
1254.00,0.0156
1253.00,0.0156
1252.00,0.0156
1251.00,0.0156
1250.00,0.0157
1249.00,0.0157
1248.00,0.0158
1247.00,0.0159
1246.00,0.0159
1245.00,0.0160
1244.00,0.0160
1243.00,0.0160
1242.00,0.0160
1241.00,0.0160
1240.00,0.0161
1239.00,0.0161
1238.00,0.0162
1237.00,0.0162
1236.00,0.0162
1235.00,0.0163
1234.00,0.0163
1233.00,0.0164
1232.00,0.0164
1231.00,0.0164
1230.00,0.0164
1229.00,0.0163
1228.00,0.0162
1227.00,0.0161
1226.00,0.0160
1225.00,0.0159
1224.00,0.0158
1223.00,0.0157
1222.00,0.0157
1221.00,0.0156
1220.00,0.0155
1219.00,0.0154
1218.00,0.0152
1217.00,0.0151
1216.00,0.0149
1215.00,0.0148
1214.00,0.0146
1213.00,0.0145
1212.00,0.0143
1211.00,0.0142
1210.00,0.0141
1209.00,0.0139
1208.00,0.0138
1207.00,0.0136
1206.00,0.0134
1205.00,0.0131
1204.00,0.0128
1203.00,0.0126
1202.00,0.0124
1201.00,0.0123
1200.00,0.0122
1199.00,0.0121
1198.00,0.0120
1197.00,0.0120
1196.00,0.0119
1195.00,0.0119
1194.00,0.0118
1193.00,0.0117
1192.00,0.0116
1191.00,0.0115
1190.00,0.0115
1189.00,0.0114
1188.00,0.0113
1187.00,0.0112
1186.00,0.0112
1185.00,0.0111
1184.00,0.0111
1183.00,0.0111
1182.00,0.0111
1181.00,0.0112
1180.00,0.0112
1179.00,0.0112
1178.00,0.0112
1177.00,0.0113
1176.00,0.0113
1175.00,0.0114
1174.00,0.0115
1173.00,0.0115
1172.00,0.0115
1171.00,0.0114
1170.00,0.0113
1169.00,0.0112
1168.00,0.0112
1167.00,0.0112
1166.00,0.0111
1165.00,0.0111
1164.00,0.0111
1163.00,0.0111
1162.00,0.0111
1161.00,0.0111
1160.00,0.0111
1159.00,0.0111
1158.00,0.0111
1157.00,0.0111
1156.00,0.0111
1155.00,0.0110
1154.00,0.0109
1153.00,0.0108
1152.00,0.0108
1151.00,0.0107
1150.00,0.0107
1149.00,0.0105
1148.00,0.0104
1147.00,0.0102
1146.00,0.0102
1145.00,0.0101
1144.00,0.0101
1143.00,0.0101
1142.00,0.0101
1141.00,0.0101
1140.00,0.0102
1139.00,0.0102
1138.00,0.0102
1137.00,0.0102
1136.00,0.0103
1135.00,0.0103
1134.00,0.0103
1133.00,0.0104
1132.00,0.0104
1131.00,0.0105
1130.00,0.0106
1129.00,0.0107
1128.00,0.0108
1127.00,0.0109
1126.00,0.0110
1125.00,0.0111
1124.00,0.0112
1123.00,0.0112
1122.00,0.0112
1121.00,0.0113
1120.00,0.0113
1119.00,0.0114
1118.00,0.0114
1117.00,0.0115
1116.00,0.0116
1115.00,0.0117
1114.00,0.0117
1113.00,0.0118
1112.00,0.0119
1111.00,0.0119
1110.00,0.0120
1109.00,0.0120
1108.00,0.0121
1107.00,0.0121
1106.00,0.0122
1105.00,0.0122
1104.00,0.0122
1103.00,0.0122
1102.00,0.0122
1101.00,0.0123
1100.00,0.0123
1099.00,0.0122
1098.00,0.0122
1097.00,0.0121
1096.00,0.0121
1095.00,0.0122
1094.00,0.0122
1093.00,0.0122
1092.00,0.0122
1091.00,0.0122
1090.00,0.0122
1089.00,0.0122
1088.00,0.0122
1087.00,0.0123
1086.00,0.0123
1085.00,0.0124
1084.00,0.0124
1083.00,0.0125
1082.00,0.0125
1081.00,0.0125
1080.00,0.0126
1079.00,0.0126
1078.00,0.0126
1077.00,0.0126
1076.00,0.0127
1075.00,0.0127
1074.00,0.0127
1073.00,0.0127
1072.00,0.0127
1071.00,0.0127
1070.00,0.0127
1069.00,0.0127
1068.00,0.0128
1067.00,0.0129
1066.00,0.0129
1065.00,0.0130
1064.00,0.0130
1063.00,0.0130
1062.00,0.0131
1061.00,0.0131
1060.00,0.0132
1059.00,0.0132
1058.00,0.0132
1057.00,0.0132
1056.00,0.0132
1055.00,0.0132
1054.00,0.0132
1053.00,0.0131
1052.00,0.0131
1051.00,0.0131
1050.00,0.0132
1049.00,0.0132
1048.00,0.0133
1047.00,0.0134
1046.00,0.0135
1045.00,0.0135
1044.00,0.0135
1043.00,0.0134
1042.00,0.0133
1041.00,0.0133
1040.00,0.0132
1039.00,0.0131
1038.00,0.0130
1037.00,0.0129
1036.00,0.0128
1035.00,0.0127
1034.00,0.0126
1033.00,0.0125
1032.00,0.0123
1031.00,0.0121
1030.00,0.0120
1029.00,0.0118
1028.00,0.0118
1027.00,0.0117
1026.00,0.0117
1025.00,0.0117
1024.00,0.0117
1023.00,0.0116
1022.00,0.0117
1021.00,0.0116
1020.00,0.0116
1019.00,0.0115
1018.00,0.0114
1017.00,0.0113
1016.00,0.0112
1015.00,0.0112
1014.00,0.0112
1013.00,0.0111
1012.00,0.0110
1011.00,0.0108
1010.00,0.0107
1009.00,0.0105
1008.00,0.0104
1007.00,0.0103
1006.00,0.0101
1005.00,0.0100
1004.00,0.0099
1003.00,0.0099
1002.00,0.0098
1001.00,0.0097
1000.00,0.0096
999.00,0.0095
998.00,0.0094
997.00,0.0093
996.00,0.0092
995.00,0.0092
994.00,0.0092
993.00,0.0092
992.00,0.0091
991.00,0.0091
990.00,0.0090
989.00,0.0090
988.00,0.0090
987.00,0.0090
986.00,0.0089
985.00,0.0089
984.00,0.0088
983.00,0.0087
982.00,0.0087
981.00,0.0086
980.00,0.0086
979.00,0.0085
978.00,0.0085
977.00,0.0084
976.00,0.0083
975.00,0.0082
974.00,0.0081
973.00,0.0081
972.00,0.0080
971.00,0.0080
970.00,0.0079
969.00,0.0078
968.00,0.0078
967.00,0.0077
966.00,0.0077
965.00,0.0077
964.00,0.0077
963.00,0.0077
962.00,0.0076
961.00,0.0076
960.00,0.0076
959.00,0.0075
958.00,0.0074
957.00,0.0074
956.00,0.0073
955.00,0.0073
954.00,0.0072
953.00,0.0072
952.00,0.0071
951.00,0.0071
950.00,0.0072
949.00,0.0072
948.00,0.0073
947.00,0.0074
946.00,0.0075
945.00,0.0075
944.00,0.0076
943.00,0.0076
942.00,0.0077
941.00,0.0078
940.00,0.0078
939.00,0.0079
938.00,0.0080
937.00,0.0081
936.00,0.0082
935.00,0.0083
934.00,0.0084
933.00,0.0084
932.00,0.0084
931.00,0.0084
930.00,0.0085
929.00,0.0085
928.00,0.0085
927.00,0.0085
926.00,0.0085
925.00,0.0084
924.00,0.0084
923.00,0.0083
922.00,0.0082
921.00,0.0082
920.00,0.0083
919.00,0.0083
918.00,0.0083
917.00,0.0083
916.00,0.0082
915.00,0.0082
914.00,0.0082
913.00,0.0081
912.00,0.0081
911.00,0.0081
910.00,0.0081
909.00,0.0082
908.00,0.0083
907.00,0.0084
906.00,0.0085
905.00,0.0085
904.00,0.0085
903.00,0.0085
902.00,0.0085
901.00,0.0085
900.00,0.0085
899.00,0.0084
898.00,0.0083
897.00,0.0083
896.00,0.0082
895.00,0.0082
894.00,0.0081
893.00,0.0081
892.00,0.0080
891.00,0.0080
890.00,0.0079
889.00,0.0078
888.00,0.0078
887.00,0.0077
886.00,0.0077
885.00,0.0076
884.00,0.0076
883.00,0.0077
882.00,0.0077
881.00,0.0078
880.00,0.0078
879.00,0.0079
878.00,0.0079
877.00,0.0079
876.00,0.0079
875.00,0.0078
874.00,0.0078
873.00,0.0078
872.00,0.0079
871.00,0.0079
870.00,0.0079
869.00,0.0079
868.00,0.0079
867.00,0.0079
866.00,0.0079
865.00,0.0079
864.00,0.0079
863.00,0.0080
862.00,0.0080
861.00,0.0079
860.00,0.0079
859.00,0.0080
858.00,0.0080
857.00,0.0081
856.00,0.0082
855.00,0.0083
854.00,0.0083
853.00,0.0083
852.00,0.0083
851.00,0.0083
850.00,0.0084
849.00,0.0084
848.00,0.0085
847.00,0.0085
846.00,0.0085
845.00,0.0085
844.00,0.0085
843.00,0.0086
842.00,0.0086
841.00,0.0087
840.00,0.0087
839.00,0.0088
838.00,0.0088
837.00,0.0089
836.00,0.0089
835.00,0.0090
834.00,0.0091
833.00,0.0092
832.00,0.0093
831.00,0.0094
830.00,0.0095
829.00,0.0095
828.00,0.0096
827.00,0.0096
826.00,0.0097
825.00,0.0098
824.00,0.0099
823.00,0.0100
822.00,0.0100
821.00,0.0100
820.00,0.0101
819.00,0.0101
818.00,0.0102
817.00,0.0102
816.00,0.0103
815.00,0.0104
814.00,0.0105
813.00,0.0106
812.00,0.0107
811.00,0.0108
810.00,0.0109
809.00,0.0109
808.00,0.0110
807.00,0.0111
806.00,0.0111
805.00,0.0111
804.00,0.0112
803.00,0.0112
802.00,0.0112
801.00,0.0112
800.00,0.0113
799.00,0.0114
798.00,0.0115
797.00,0.0115
796.00,0.0116
795.00,0.0117
794.00,0.0117
793.00,0.0118
792.00,0.0119
791.00,0.0120
790.00,0.0121
789.00,0.0121
788.00,0.0121
787.00,0.0121
786.00,0.0122
785.00,0.0122
784.00,0.0123
783.00,0.0124
782.00,0.0125
781.00,0.0125
780.00,0.0125
779.00,0.0125
778.00,0.0125
777.00,0.0126
776.00,0.0127
775.00,0.0127
774.00,0.0128
773.00,0.0128
772.00,0.0128
771.00,0.0128
770.00,0.0128
769.00,0.0129
768.00,0.0130
767.00,0.0131
766.00,0.0131
765.00,0.0132
764.00,0.0132
763.00,0.0133
762.00,0.0134
761.00,0.0135
760.00,0.0136
759.00,0.0137
758.00,0.0138
757.00,0.0138
756.00,0.0139
755.00,0.0140
754.00,0.0140
753.00,0.0141
752.00,0.0142
751.00,0.0143
750.00,0.0144
749.00,0.0145
748.00,0.0147
747.00,0.0147
746.00,0.0148
745.00,0.0149
744.00,0.0150
743.00,0.0151
742.00,0.0152
741.00,0.0152
740.00,0.0153
739.00,0.0153
738.00,0.0153
737.00,0.0154
736.00,0.0155
735.00,0.0156
734.00,0.0157
733.00,0.0158
732.00,0.0159
731.00,0.0160
730.00,0.0161
729.00,0.0163
728.00,0.0164
727.00,0.0166
726.00,0.0167
725.00,0.0168
724.00,0.0169
723.00,0.0171
722.00,0.0173
721.00,0.0175
720.00,0.0177
719.00,0.0179
718.00,0.0180
717.00,0.0181
716.00,0.0183
715.00,0.0184
714.00,0.0186
713.00,0.0188
712.00,0.0190
711.00,0.0192
710.00,0.0194
709.00,0.0196
708.00,0.0197
707.00,0.0199
706.00,0.0201
705.00,0.0202
704.00,0.0204
703.00,0.0206
702.00,0.0208
701.00,0.0210
700.00,0.0211
699.00,0.0211
698.00,0.0211
697.00,0.0211
696.00,0.0212
695.00,0.0212
694.00,0.0212
693.00,0.0212
692.00,0.0212
691.00,0.0213
690.00,0.0213
689.00,0.0214
688.00,0.0215
687.00,0.0217
686.00,0.0218
685.00,0.0218
684.00,0.0219
683.00,0.0220
682.00,0.0221
681.00,0.0221
680.00,0.0222
679.00,0.0222
678.00,0.0223
677.00,0.0224
676.00,0.0224
675.00,0.0225
674.00,0.0226
673.00,0.0227
672.00,0.0228
671.00,0.0230
670.00,0.0232
669.00,0.0236
668.00,0.0241
667.00,0.0242
666.00,0.0241
665.00,0.0239
664.00,0.0238
663.00,0.0238
662.00,0.0239
661.00,0.0239
660.00,0.0240
659.00,0.0240
658.00,0.0240
657.00,0.0241
656.00,0.0241
655.00,0.0241
654.00,0.0242
653.00,0.0242
652.00,0.0243
651.00,0.0243
650.00,0.0243
649.00,0.0243
648.00,0.0243
647.00,0.0243
646.00,0.0244
645.00,0.0244
644.00,0.0245
643.00,0.0245
642.00,0.0245
641.00,0.0246
640.00,0.0247
639.00,0.0248
638.00,0.0249
637.00,0.0250
636.00,0.0250
635.00,0.0250
634.00,0.0251
633.00,0.0251
632.00,0.0252
631.00,0.0252
630.00,0.0253
629.00,0.0253
628.00,0.0254
627.00,0.0255
626.00,0.0255
625.00,0.0256
624.00,0.0257
623.00,0.0257
622.00,0.0258
621.00,0.0259
620.00,0.0260
619.00,0.0262
618.00,0.0262
617.00,0.0262
616.00,0.0261
615.00,0.0261
614.00,0.0261
613.00,0.0262
612.00,0.0263
611.00,0.0265
610.00,0.0265
609.00,0.0265
608.00,0.0263
607.00,0.0262
606.00,0.0262
605.00,0.0262
604.00,0.0263
603.00,0.0264
602.00,0.0264
601.00,0.0265
600.00,0.0265
599.00,0.0264
598.00,0.0263
597.00,0.0262
596.00,0.0262
595.00,0.0262
594.00,0.0263
593.00,0.0264
592.00,0.0265
591.00,0.0266
590.00,0.0267
589.00,0.0268
588.00,0.0269
587.00,0.0269
586.00,0.0269
585.00,0.0268
584.00,0.0267
583.00,0.0267
582.00,0.0268
581.00,0.0269
580.00,0.0272
579.00,0.0274
578.00,0.0274
577.00,0.0274
576.00,0.0273
575.00,0.0273
574.00,0.0274
573.00,0.0275
572.00,0.0275
571.00,0.0275
570.00,0.0275
569.00,0.0274
568.00,0.0274
567.00,0.0275
566.00,0.0276
565.00,0.0277
564.00,0.0278
563.00,0.0278
562.00,0.0279
561.00,0.0279
560.00,0.0280
559.00,0.0281
558.00,0.0282
557.00,0.0282
556.00,0.0282
555.00,0.0282
554.00,0.0283
553.00,0.0283
552.00,0.0283
551.00,0.0282
550.00,0.0280
549.00,0.0279
548.00,0.0278
547.00,0.0278
546.00,0.0278
545.00,0.0278
544.00,0.0277
543.00,0.0278
542.00,0.0278
541.00,0.0280
540.00,0.0282
539.00,0.0283
538.00,0.0284
537.00,0.0284
536.00,0.0283
535.00,0.0282
534.00,0.0280
533.00,0.0278
532.00,0.0278
531.00,0.0278
530.00,0.0280
529.00,0.0282
528.00,0.0282
527.00,0.0281
526.00,0.0278
525.00,0.0275
524.00,0.0274
523.00,0.0274
522.00,0.0274
521.00,0.0274
520.00,0.0273
519.00,0.0273
518.00,0.0273
517.00,0.0273
516.00,0.0273
515.00,0.0274
514.00,0.0275
513.00,0.0275
512.00,0.0276
511.00,0.0276
510.00,0.0274
509.00,0.0272
508.00,0.0271
507.00,0.0269
506.00,0.0268
505.00,0.0267
504.00,0.0266
503.00,0.0266
502.00,0.0268
501.00,0.0270
500.00,0.0273
499.00,0.0274
498.00,0.0273
497.00,0.0272
496.00,0.0271
495.00,0.0271
494.00,0.0270
493.00,0.0270
492.00,0.0269
491.00,0.0268
490.00,0.0266
489.00,0.0265
488.00,0.0265
487.00,0.0264
486.00,0.0264
485.00,0.0263
484.00,0.0261
483.00,0.0258
482.00,0.0257
481.00,0.0257
480.00,0.0259
479.00,0.0260
478.00,0.0260
477.00,0.0259
476.00,0.0257
475.00,0.0254
474.00,0.0251
473.00,0.0250
472.00,0.0251
471.00,0.0254
470.00,0.0257
469.00,0.0259
468.00,0.0260
467.00,0.0261
466.00,0.0262
465.00,0.0262
464.00,0.0260
463.00,0.0255
462.00,0.0251
461.00,0.0248
460.00,0.0246
459.00,0.0244
458.00,0.0243
457.00,0.0244
456.00,0.0246
455.00,0.0246
454.00,0.0245
453.00,0.0246
452.00,0.0248
451.00,0.0249
450.00,0.0247
449.00,0.0243
448.00,0.0239
447.00,0.0237
446.00,0.0238
445.00,0.0240
444.00,0.0243
443.00,0.0247
442.00,0.0249
441.00,0.0250
440.00,0.0252
439.00,0.0254
438.00,0.0255
437.00,0.0257
436.00,0.0259
435.00,0.0257
434.00,0.0253
433.00,0.0248
432.00,0.0245
431.00,0.0244
430.00,0.0246
429.00,0.0251
428.00,0.0257
427.00,0.0262
426.00,0.0263
425.00,0.0261
424.00,0.0260
423.00,0.0260
422.00,0.0259
421.00,0.0259
420.00,0.0258
419.00,0.0255
418.00,0.0249
417.00,0.0244
416.00,0.0243
415.00,0.0240
414.00,0.0238
413.00,0.0239
412.00,0.0246
411.00,0.0253
410.00,0.0258
409.00,0.0259
408.00,0.0257
407.00,0.0253
406.00,0.0247
405.00,0.0241
404.00,0.0239
403.00,0.0239
402.00,0.0238
401.00,0.0241
400.00,0.0249
