Created as New Dataset,Sample 656 By YargerLab Date Wednesday, June 11 2025
cm-1,A
4000.00,0.0033
3999.00,0.0033
3998.00,0.0033
3997.00,0.0032
3996.00,0.0032
3995.00,0.0032
3994.00,0.0032
3993.00,0.0033
3992.00,0.0033
3991.00,0.0033
3990.00,0.0033
3989.00,0.0033
3988.00,0.0033
3987.00,0.0033
3986.00,0.0033
3985.00,0.0033
3984.00,0.0033
3983.00,0.0033
3982.00,0.0032
3981.00,0.0032
3980.00,0.0032
3979.00,0.0032
3978.00,0.0032
3977.00,0.0032
3976.00,0.0032
3975.00,0.0031
3974.00,0.0031
3973.00,0.0032
3972.00,0.0032
3971.00,0.0032
3970.00,0.0033
3969.00,0.0033
3968.00,0.0033
3967.00,0.0033
3966.00,0.0033
3965.00,0.0033
3964.00,0.0033
3963.00,0.0032
3962.00,0.0032
3961.00,0.0032
3960.00,0.0033
3959.00,0.0033
3958.00,0.0033
3957.00,0.0033
3956.00,0.0033
3955.00,0.0033
3954.00,0.0033
3953.00,0.0033
3952.00,0.0033
3951.00,0.0033
3950.00,0.0033
3949.00,0.0034
3948.00,0.0035
3947.00,0.0035
3946.00,0.0035
3945.00,0.0035
3944.00,0.0034
3943.00,0.0033
3942.00,0.0033
3941.00,0.0033
3940.00,0.0033
3939.00,0.0033
3938.00,0.0034
3937.00,0.0034
3936.00,0.0034
3935.00,0.0035
3934.00,0.0036
3933.00,0.0036
3932.00,0.0036
3931.00,0.0035
3930.00,0.0034
3929.00,0.0034
3928.00,0.0034
3927.00,0.0034
3926.00,0.0033
3925.00,0.0033
3924.00,0.0033
3923.00,0.0033
3922.00,0.0035
3921.00,0.0036
3920.00,0.0037
3919.00,0.0037
3918.00,0.0036
3917.00,0.0036
3916.00,0.0035
3915.00,0.0034
3914.00,0.0034
3913.00,0.0033
3912.00,0.0033
3911.00,0.0033
3910.00,0.0032
3909.00,0.0032
3908.00,0.0032
3907.00,0.0033
3906.00,0.0033
3905.00,0.0035
3904.00,0.0037
3903.00,0.0040
3902.00,0.0042
3901.00,0.0043
3900.00,0.0042
3899.00,0.0041
3898.00,0.0039
3897.00,0.0039
3896.00,0.0038
3895.00,0.0037
3894.00,0.0036
3893.00,0.0034
3892.00,0.0034
3891.00,0.0034
3890.00,0.0035
3889.00,0.0037
3888.00,0.0039
3887.00,0.0040
3886.00,0.0040
3885.00,0.0038
3884.00,0.0038
3883.00,0.0038
3882.00,0.0038
3881.00,0.0038
3880.00,0.0037
3879.00,0.0037
3878.00,0.0037
3877.00,0.0038
3876.00,0.0039
3875.00,0.0038
3874.00,0.0037
3873.00,0.0037
3872.00,0.0038
3871.00,0.0040
3870.00,0.0041
3869.00,0.0040
3868.00,0.0040
3867.00,0.0041
3866.00,0.0042
3865.00,0.0041
3864.00,0.0040
3863.00,0.0039
3862.00,0.0040
3861.00,0.0040
3860.00,0.0040
3859.00,0.0038
3858.00,0.0036
3857.00,0.0033
3856.00,0.0031
3855.00,0.0030
3854.00,0.0031
3853.00,0.0034
3852.00,0.0037
3851.00,0.0039
3850.00,0.0040
3849.00,0.0041
3848.00,0.0040
3847.00,0.0040
3846.00,0.0039
3845.00,0.0039
3844.00,0.0039
3843.00,0.0040
3842.00,0.0040
3841.00,0.0040
3840.00,0.0041
3839.00,0.0041
3838.00,0.0041
3837.00,0.0041
3836.00,0.0040
3835.00,0.0040
3834.00,0.0040
3833.00,0.0040
3832.00,0.0040
3831.00,0.0039
3830.00,0.0039
3829.00,0.0039
3828.00,0.0038
3827.00,0.0038
3826.00,0.0038
3825.00,0.0038
3824.00,0.0039
3823.00,0.0040
3822.00,0.0040
3821.00,0.0039
3820.00,0.0038
3819.00,0.0039
3818.00,0.0040
3817.00,0.0041
3816.00,0.0040
3815.00,0.0038
3814.00,0.0036
3813.00,0.0036
3812.00,0.0036
3811.00,0.0035
3810.00,0.0035
3809.00,0.0035
3808.00,0.0036
3807.00,0.0037
3806.00,0.0037
3805.00,0.0039
3804.00,0.0040
3803.00,0.0042
3802.00,0.0041
3801.00,0.0039
3800.00,0.0038
3799.00,0.0039
3798.00,0.0040
3797.00,0.0039
3796.00,0.0038
3795.00,0.0037
3794.00,0.0036
3793.00,0.0035
3792.00,0.0035
3791.00,0.0034
3790.00,0.0033
3789.00,0.0032
3788.00,0.0032
3787.00,0.0032
3786.00,0.0032
3785.00,0.0032
3784.00,0.0032
3783.00,0.0033
3782.00,0.0034
3781.00,0.0035
3780.00,0.0036
3779.00,0.0035
3778.00,0.0035
3777.00,0.0034
3776.00,0.0034
3775.00,0.0034
3774.00,0.0034
3773.00,0.0034
3772.00,0.0035
3771.00,0.0037
3770.00,0.0037
3769.00,0.0037
3768.00,0.0037
3767.00,0.0038
3766.00,0.0038
3765.00,0.0038
3764.00,0.0038
3763.00,0.0038
3762.00,0.0039
3761.00,0.0039
3760.00,0.0039
3759.00,0.0039
3758.00,0.0039
3757.00,0.0039
3756.00,0.0040
3755.00,0.0040
3754.00,0.0042
3753.00,0.0043
3752.00,0.0043
3751.00,0.0044
3750.00,0.0046
3749.00,0.0047
3748.00,0.0047
3747.00,0.0048
3746.00,0.0049
3745.00,0.0049
3744.00,0.0047
3743.00,0.0046
3742.00,0.0046
3741.00,0.0047
3740.00,0.0049
3739.00,0.0050
3738.00,0.0050
3737.00,0.0051
3736.00,0.0050
3735.00,0.0049
3734.00,0.0048
3733.00,0.0048
3732.00,0.0047
3731.00,0.0045
3730.00,0.0043
3729.00,0.0042
3728.00,0.0042
3727.00,0.0042
3726.00,0.0041
3725.00,0.0041
3724.00,0.0041
3723.00,0.0041
3722.00,0.0040
3721.00,0.0039
3720.00,0.0038
3719.00,0.0037
3718.00,0.0037
3717.00,0.0036
3716.00,0.0036
3715.00,0.0037
3714.00,0.0039
3713.00,0.0040
3712.00,0.0040
3711.00,0.0040
3710.00,0.0040
3709.00,0.0040
3708.00,0.0040
3707.00,0.0039
3706.00,0.0038
3705.00,0.0037
3704.00,0.0036
3703.00,0.0035
3702.00,0.0034
3701.00,0.0033
3700.00,0.0033
3699.00,0.0033
3698.00,0.0033
3697.00,0.0033
3696.00,0.0033
3695.00,0.0033
3694.00,0.0034
3693.00,0.0035
3692.00,0.0035
3691.00,0.0035
3690.00,0.0035
3689.00,0.0036
3688.00,0.0038
3687.00,0.0038
3686.00,0.0037
3685.00,0.0037
3684.00,0.0036
3683.00,0.0036
3682.00,0.0036
3681.00,0.0037
3680.00,0.0037
3679.00,0.0038
3678.00,0.0040
3677.00,0.0042
3676.00,0.0043
3675.00,0.0043
3674.00,0.0043
3673.00,0.0043
3672.00,0.0045
3671.00,0.0045
3670.00,0.0043
3669.00,0.0040
3668.00,0.0039
3667.00,0.0039
3666.00,0.0038
3665.00,0.0037
3664.00,0.0035
3663.00,0.0034
3662.00,0.0034
3661.00,0.0034
3660.00,0.0034
3659.00,0.0034
3658.00,0.0035
3657.00,0.0036
3656.00,0.0037
3655.00,0.0039
3654.00,0.0040
3653.00,0.0043
3652.00,0.0045
3651.00,0.0046
3650.00,0.0047
3649.00,0.0048
3648.00,0.0048
3647.00,0.0048
3646.00,0.0046
3645.00,0.0043
3644.00,0.0041
3643.00,0.0039
3642.00,0.0037
3641.00,0.0035
3640.00,0.0035
3639.00,0.0035
3638.00,0.0035
3637.00,0.0035
3636.00,0.0036
3635.00,0.0037
3634.00,0.0037
3633.00,0.0038
3632.00,0.0039
3631.00,0.0040
3630.00,0.0042
3629.00,0.0042
3628.00,0.0043
3627.00,0.0043
3626.00,0.0044
3625.00,0.0044
3624.00,0.0043
3623.00,0.0042
3622.00,0.0041
3621.00,0.0040
3620.00,0.0039
3619.00,0.0039
3618.00,0.0040
3617.00,0.0042
3616.00,0.0044
3615.00,0.0044
3614.00,0.0044
3613.00,0.0044
3612.00,0.0045
3611.00,0.0046
3610.00,0.0047
3609.00,0.0047
3608.00,0.0046
3607.00,0.0044
3606.00,0.0043
3605.00,0.0042
3604.00,0.0041
3603.00,0.0040
3602.00,0.0040
3601.00,0.0040
3600.00,0.0040
3599.00,0.0041
3598.00,0.0042
3597.00,0.0042
3596.00,0.0042
3595.00,0.0042
3594.00,0.0042
3593.00,0.0042
3592.00,0.0043
3591.00,0.0044
3590.00,0.0045
3589.00,0.0045
3588.00,0.0045
3587.00,0.0044
3586.00,0.0044
3585.00,0.0045
3584.00,0.0045
3583.00,0.0044
3582.00,0.0042
3581.00,0.0041
3580.00,0.0039
3579.00,0.0038
3578.00,0.0038
3577.00,0.0038
3576.00,0.0038
3575.00,0.0038
3574.00,0.0039
3573.00,0.0040
3572.00,0.0041
3571.00,0.0042
3570.00,0.0045
3569.00,0.0047
3568.00,0.0047
3567.00,0.0047
3566.00,0.0047
3565.00,0.0046
3564.00,0.0046
3563.00,0.0045
3562.00,0.0044
3561.00,0.0043
3560.00,0.0042
3559.00,0.0041
3558.00,0.0041
3557.00,0.0041
3556.00,0.0041
3555.00,0.0041
3554.00,0.0041
3553.00,0.0041
3552.00,0.0041
3551.00,0.0042
3550.00,0.0043
3549.00,0.0044
3548.00,0.0046
3547.00,0.0046
3546.00,0.0046
3545.00,0.0046
3544.00,0.0045
3543.00,0.0045
3542.00,0.0044
3541.00,0.0044
3540.00,0.0043
3539.00,0.0043
3538.00,0.0043
3537.00,0.0043
3536.00,0.0042
3535.00,0.0042
3534.00,0.0042
3533.00,0.0043
3532.00,0.0043
3531.00,0.0043
3530.00,0.0043
3529.00,0.0044
3528.00,0.0045
3527.00,0.0046
3526.00,0.0047
3525.00,0.0047
3524.00,0.0047
3523.00,0.0047
3522.00,0.0047
3521.00,0.0047
3520.00,0.0047
3519.00,0.0046
3518.00,0.0045
3517.00,0.0045
3516.00,0.0044
3515.00,0.0045
3514.00,0.0045
3513.00,0.0045
3512.00,0.0045
3511.00,0.0045
3510.00,0.0045
3509.00,0.0045
3508.00,0.0045
3507.00,0.0046
3506.00,0.0047
3505.00,0.0047
3504.00,0.0047
3503.00,0.0047
3502.00,0.0047
3501.00,0.0047
3500.00,0.0048
3499.00,0.0048
3498.00,0.0048
3497.00,0.0048
3496.00,0.0047
3495.00,0.0047
3494.00,0.0047
3493.00,0.0047
3492.00,0.0046
3491.00,0.0046
3490.00,0.0046
3489.00,0.0047
3488.00,0.0047
3487.00,0.0047
3486.00,0.0048
3485.00,0.0048
3484.00,0.0048
3483.00,0.0048
3482.00,0.0048
3481.00,0.0048
3480.00,0.0049
3479.00,0.0049
3478.00,0.0049
3477.00,0.0049
3476.00,0.0049
3475.00,0.0048
3474.00,0.0048
3473.00,0.0049
3472.00,0.0049
3471.00,0.0049
3470.00,0.0050
3469.00,0.0050
3468.00,0.0050
3467.00,0.0049
3466.00,0.0049
3465.00,0.0049
3464.00,0.0049
3463.00,0.0049
3462.00,0.0049
3461.00,0.0050
3460.00,0.0050
3459.00,0.0051
3458.00,0.0052
3457.00,0.0053
3456.00,0.0053
3455.00,0.0053
3454.00,0.0052
3453.00,0.0051
3452.00,0.0050
3451.00,0.0050
3450.00,0.0051
3449.00,0.0052
3448.00,0.0052
3447.00,0.0052
3446.00,0.0052
3445.00,0.0052
3444.00,0.0052
3443.00,0.0052
3442.00,0.0052
3441.00,0.0052
3440.00,0.0052
3439.00,0.0052
3438.00,0.0052
3437.00,0.0052
3436.00,0.0052
3435.00,0.0052
3434.00,0.0052
3433.00,0.0052
3432.00,0.0052
3431.00,0.0053
3430.00,0.0053
3429.00,0.0053
3428.00,0.0053
3427.00,0.0054
3426.00,0.0054
3425.00,0.0054
3424.00,0.0053
3423.00,0.0053
3422.00,0.0053
3421.00,0.0054
3420.00,0.0054
3419.00,0.0055
3418.00,0.0055
3417.00,0.0055
3416.00,0.0055
3415.00,0.0055
3414.00,0.0055
3413.00,0.0055
3412.00,0.0055
3411.00,0.0055
3410.00,0.0055
3409.00,0.0055
3408.00,0.0056
3407.00,0.0056
3406.00,0.0056
3405.00,0.0056
3404.00,0.0056
3403.00,0.0056
3402.00,0.0057
3401.00,0.0057
3400.00,0.0058
3399.00,0.0058
3398.00,0.0058
3397.00,0.0058
3396.00,0.0058
3395.00,0.0058
3394.00,0.0058
3393.00,0.0058
3392.00,0.0058
3391.00,0.0058
3390.00,0.0059
3389.00,0.0059
3388.00,0.0059
3387.00,0.0059
3386.00,0.0059
3385.00,0.0060
3384.00,0.0060
3383.00,0.0060
3382.00,0.0060
3381.00,0.0060
3380.00,0.0061
3379.00,0.0061
3378.00,0.0061
3377.00,0.0061
3376.00,0.0061
3375.00,0.0061
3374.00,0.0061
3373.00,0.0061
3372.00,0.0062
3371.00,0.0062
3370.00,0.0062
3369.00,0.0063
3368.00,0.0063
3367.00,0.0063
3366.00,0.0064
3365.00,0.0064
3364.00,0.0065
3363.00,0.0065
3362.00,0.0066
3361.00,0.0066
3360.00,0.0065
3359.00,0.0065
3358.00,0.0065
3357.00,0.0065
3356.00,0.0065
3355.00,0.0066
3354.00,0.0066
3353.00,0.0067
3352.00,0.0067
3351.00,0.0068
3350.00,0.0068
3349.00,0.0068
3348.00,0.0068
3347.00,0.0069
3346.00,0.0069
3345.00,0.0070
3344.00,0.0070
3343.00,0.0070
3342.00,0.0070
3341.00,0.0071
3340.00,0.0071
3339.00,0.0072
3338.00,0.0073
3337.00,0.0073
3336.00,0.0073
3335.00,0.0073
3334.00,0.0072
3333.00,0.0072
3332.00,0.0072
3331.00,0.0072
3330.00,0.0072
3329.00,0.0073
3328.00,0.0074
3327.00,0.0074
3326.00,0.0075
3325.00,0.0075
3324.00,0.0076
3323.00,0.0076
3322.00,0.0076
3321.00,0.0076
3320.00,0.0077
3319.00,0.0077
3318.00,0.0077
3317.00,0.0077
3316.00,0.0078
3315.00,0.0078
3314.00,0.0079
3313.00,0.0079
3312.00,0.0080
3311.00,0.0081
3310.00,0.0081
3309.00,0.0081
3308.00,0.0081
3307.00,0.0081
3306.00,0.0082
3305.00,0.0082
3304.00,0.0082
3303.00,0.0083
3302.00,0.0083
3301.00,0.0083
3300.00,0.0084
3299.00,0.0084
3298.00,0.0085
3297.00,0.0085
3296.00,0.0085
3295.00,0.0085
3294.00,0.0086
3293.00,0.0086
3292.00,0.0085
3291.00,0.0085
3290.00,0.0085
3289.00,0.0085
3288.00,0.0085
3287.00,0.0085
3286.00,0.0085
3285.00,0.0085
3284.00,0.0085
3283.00,0.0085
3282.00,0.0085
3281.00,0.0085
3280.00,0.0084
3279.00,0.0084
3278.00,0.0084
3277.00,0.0084
3276.00,0.0084
3275.00,0.0084
3274.00,0.0084
3273.00,0.0084
3272.00,0.0084
3271.00,0.0084
3270.00,0.0084
3269.00,0.0084
3268.00,0.0084
3267.00,0.0083
3266.00,0.0082
3265.00,0.0081
3264.00,0.0079
3263.00,0.0078
3262.00,0.0078
3261.00,0.0077
3260.00,0.0077
3259.00,0.0077
3258.00,0.0076
3257.00,0.0076
3256.00,0.0075
3255.00,0.0075
3254.00,0.0074
3253.00,0.0074
3252.00,0.0073
3251.00,0.0073
3250.00,0.0073
3249.00,0.0073
3248.00,0.0073
3247.00,0.0073
3246.00,0.0073
3245.00,0.0073
3244.00,0.0072
3243.00,0.0072
3242.00,0.0072
3241.00,0.0071
3240.00,0.0071
3239.00,0.0070
3238.00,0.0070
3237.00,0.0069
3236.00,0.0069
3235.00,0.0069
3234.00,0.0070
3233.00,0.0070
3232.00,0.0069
3231.00,0.0069
3230.00,0.0068
3229.00,0.0068
3228.00,0.0067
3227.00,0.0067
3226.00,0.0067
3225.00,0.0067
3224.00,0.0066
3223.00,0.0066
3222.00,0.0066
3221.00,0.0065
3220.00,0.0065
3219.00,0.0065
3218.00,0.0065
3217.00,0.0065
3216.00,0.0065
3215.00,0.0065
3214.00,0.0065
3213.00,0.0065
3212.00,0.0064
3211.00,0.0064
3210.00,0.0063
3209.00,0.0063
3208.00,0.0063
3207.00,0.0062
3206.00,0.0062
3205.00,0.0062
3204.00,0.0062
3203.00,0.0062
3202.00,0.0062
3201.00,0.0062
3200.00,0.0061
3199.00,0.0061
3198.00,0.0061
3197.00,0.0060
3196.00,0.0060
3195.00,0.0060
3194.00,0.0059
3193.00,0.0059
3192.00,0.0059
3191.00,0.0059
3190.00,0.0059
3189.00,0.0059
3188.00,0.0058
3187.00,0.0058
3186.00,0.0058
3185.00,0.0057
3184.00,0.0057
3183.00,0.0057
3182.00,0.0057
3181.00,0.0057
3180.00,0.0057
3179.00,0.0056
3178.00,0.0056
3177.00,0.0056
3176.00,0.0056
3175.00,0.0056
3174.00,0.0056
3173.00,0.0055
3172.00,0.0054
3171.00,0.0054
3170.00,0.0054
3169.00,0.0054
3168.00,0.0054
3167.00,0.0055
3166.00,0.0054
3165.00,0.0054
3164.00,0.0054
3163.00,0.0053
3162.00,0.0053
3161.00,0.0053
3160.00,0.0052
3159.00,0.0052
3158.00,0.0052
3157.00,0.0052
3156.00,0.0052
3155.00,0.0052
3154.00,0.0052
3153.00,0.0052
3152.00,0.0052
3151.00,0.0052
3150.00,0.0052
3149.00,0.0052
3148.00,0.0051
3147.00,0.0051
3146.00,0.0051
3145.00,0.0051
3144.00,0.0051
3143.00,0.0051
3142.00,0.0052
3141.00,0.0052
3140.00,0.0052
3139.00,0.0052
3138.00,0.0051
3137.00,0.0050
3136.00,0.0050
3135.00,0.0049
3134.00,0.0049
3133.00,0.0049
3132.00,0.0049
3131.00,0.0050
3130.00,0.0050
3129.00,0.0050
3128.00,0.0050
3127.00,0.0050
3126.00,0.0050
3125.00,0.0050
3124.00,0.0050
3123.00,0.0050
3122.00,0.0050
3121.00,0.0050
3120.00,0.0050
3119.00,0.0051
3118.00,0.0051
3117.00,0.0052
3116.00,0.0052
3115.00,0.0053
3114.00,0.0053
3113.00,0.0053
3112.00,0.0054
3111.00,0.0055
3110.00,0.0056
3109.00,0.0058
3108.00,0.0059
3107.00,0.0060
3106.00,0.0061
3105.00,0.0062
3104.00,0.0062
3103.00,0.0062
3102.00,0.0063
3101.00,0.0063
3100.00,0.0063
3099.00,0.0062
3098.00,0.0062
3097.00,0.0061
3096.00,0.0061
3095.00,0.0061
3094.00,0.0062
3093.00,0.0064
3092.00,0.0066
3091.00,0.0068
3090.00,0.0071
3089.00,0.0074
3088.00,0.0078
3087.00,0.0082
3086.00,0.0086
3085.00,0.0090
3084.00,0.0093
3083.00,0.0095
3082.00,0.0095
3081.00,0.0095
3080.00,0.0093
3079.00,0.0091
3078.00,0.0088
3077.00,0.0085
3076.00,0.0083
3075.00,0.0081
3074.00,0.0080
3073.00,0.0080
3072.00,0.0081
3071.00,0.0082
3070.00,0.0083
3069.00,0.0086
3068.00,0.0089
3067.00,0.0092
3066.00,0.0096
3065.00,0.0100
3064.00,0.0104
3063.00,0.0108
3062.00,0.0112
3061.00,0.0114
3060.00,0.0116
3059.00,0.0115
3058.00,0.0113
3057.00,0.0110
3056.00,0.0106
3055.00,0.0102
3054.00,0.0097
3053.00,0.0093
3052.00,0.0089
3051.00,0.0086
3050.00,0.0084
3049.00,0.0082
3048.00,0.0080
3047.00,0.0079
3046.00,0.0079
3045.00,0.0078
3044.00,0.0079
3043.00,0.0079
3042.00,0.0080
3041.00,0.0082
3040.00,0.0083
3039.00,0.0085
3038.00,0.0088
3037.00,0.0093
3036.00,0.0098
3035.00,0.0104
3034.00,0.0111
3033.00,0.0119
3032.00,0.0128
3031.00,0.0137
3030.00,0.0148
3029.00,0.0158
3028.00,0.0167
3027.00,0.0175
3026.00,0.0179
3025.00,0.0180
3024.00,0.0177
3023.00,0.0170
3022.00,0.0160
3021.00,0.0149
3020.00,0.0136
3019.00,0.0124
3018.00,0.0113
3017.00,0.0103
3016.00,0.0095
3015.00,0.0088
3014.00,0.0082
3013.00,0.0078
3012.00,0.0075
3011.00,0.0073
3010.00,0.0071
3009.00,0.0070
3008.00,0.0070
3007.00,0.0070
3006.00,0.0071
3005.00,0.0072
3004.00,0.0072
3003.00,0.0073
3002.00,0.0074
3001.00,0.0074
3000.00,0.0073
2999.00,0.0071
2998.00,0.0069
2997.00,0.0067
2996.00,0.0064
2995.00,0.0062
2994.00,0.0060
2993.00,0.0058
2992.00,0.0056
2991.00,0.0055
2990.00,0.0055
2989.00,0.0054
2988.00,0.0054
2987.00,0.0053
2986.00,0.0053
2985.00,0.0053
2984.00,0.0053
2983.00,0.0054
2982.00,0.0054
2981.00,0.0054
2980.00,0.0055
2979.00,0.0055
2978.00,0.0055
2977.00,0.0055
2976.00,0.0055
2975.00,0.0055
2974.00,0.0055
2973.00,0.0055
2972.00,0.0056
2971.00,0.0056
2970.00,0.0057
2969.00,0.0057
2968.00,0.0057
2967.00,0.0058
2966.00,0.0058
2965.00,0.0059
2964.00,0.0059
2963.00,0.0060
2962.00,0.0061
2961.00,0.0062
2960.00,0.0063
2959.00,0.0064
2958.00,0.0065
2957.00,0.0066
2956.00,0.0067
2955.00,0.0069
2954.00,0.0071
2953.00,0.0073
2952.00,0.0075
2951.00,0.0077
2950.00,0.0079
2949.00,0.0082
2948.00,0.0085
2947.00,0.0089
2946.00,0.0092
2945.00,0.0096
2944.00,0.0100
2943.00,0.0104
2942.00,0.0108
2941.00,0.0112
2940.00,0.0117
2939.00,0.0122
2938.00,0.0127
2937.00,0.0132
2936.00,0.0138
2935.00,0.0143
2934.00,0.0149
2933.00,0.0155
2932.00,0.0161
2931.00,0.0167
2930.00,0.0172
2929.00,0.0178
2928.00,0.0183
2927.00,0.0188
2926.00,0.0192
2925.00,0.0195
2924.00,0.0198
2923.00,0.0201
2922.00,0.0203
2921.00,0.0205
2920.00,0.0205
2919.00,0.0206
2918.00,0.0205
2917.00,0.0204
2916.00,0.0201
2915.00,0.0198
2914.00,0.0193
2913.00,0.0188
2912.00,0.0183
2911.00,0.0178
2910.00,0.0173
2909.00,0.0169
2908.00,0.0164
2907.00,0.0159
2906.00,0.0154
2905.00,0.0149
2904.00,0.0144
2903.00,0.0140
2902.00,0.0135
2901.00,0.0131
2900.00,0.0127
2899.00,0.0123
2898.00,0.0119
2897.00,0.0116
2896.00,0.0113
2895.00,0.0110
2894.00,0.0107
2893.00,0.0104
2892.00,0.0101
2891.00,0.0099
2890.00,0.0097
2889.00,0.0095
2888.00,0.0093
2887.00,0.0092
2886.00,0.0091
2885.00,0.0089
2884.00,0.0088
2883.00,0.0087
2882.00,0.0085
2881.00,0.0083
2880.00,0.0082
2879.00,0.0080
2878.00,0.0080
2877.00,0.0079
2876.00,0.0078
2875.00,0.0077
2874.00,0.0076
2873.00,0.0075
2872.00,0.0074
2871.00,0.0073
2870.00,0.0073
2869.00,0.0073
2868.00,0.0073
2867.00,0.0073
2866.00,0.0073
2865.00,0.0073
2864.00,0.0074
2863.00,0.0075
2862.00,0.0077
2861.00,0.0078
2860.00,0.0081
2859.00,0.0083
2858.00,0.0086
2857.00,0.0089
2856.00,0.0092
2855.00,0.0095
2854.00,0.0098
2853.00,0.0101
2852.00,0.0104
2851.00,0.0107
2850.00,0.0109
2849.00,0.0110
2848.00,0.0109
2847.00,0.0108
2846.00,0.0105
2845.00,0.0102
2844.00,0.0098
2843.00,0.0093
2842.00,0.0089
2841.00,0.0084
2840.00,0.0080
2839.00,0.0076
2838.00,0.0072
2837.00,0.0067
2836.00,0.0064
2835.00,0.0061
2834.00,0.0058
2833.00,0.0056
2832.00,0.0055
2831.00,0.0053
2830.00,0.0052
2829.00,0.0051
2828.00,0.0050
2827.00,0.0050
2826.00,0.0049
2825.00,0.0049
2824.00,0.0048
2823.00,0.0047
2822.00,0.0047
2821.00,0.0047
2820.00,0.0047
2819.00,0.0047
2818.00,0.0047
2817.00,0.0047
2816.00,0.0046
2815.00,0.0046
2814.00,0.0045
2813.00,0.0045
2812.00,0.0045
2811.00,0.0045
2810.00,0.0045
2809.00,0.0045
2808.00,0.0044
2807.00,0.0044
2806.00,0.0045
2805.00,0.0044
2804.00,0.0044
2803.00,0.0044
2802.00,0.0044
2801.00,0.0044
2800.00,0.0044
2799.00,0.0043
2798.00,0.0042
2797.00,0.0042
2796.00,0.0042
2795.00,0.0042
2794.00,0.0042
2793.00,0.0042
2792.00,0.0042
2791.00,0.0042
2790.00,0.0042
2789.00,0.0042
2788.00,0.0042
2787.00,0.0042
2786.00,0.0042
2785.00,0.0042
2784.00,0.0042
2783.00,0.0041
2782.00,0.0041
2781.00,0.0041
2780.00,0.0041
2779.00,0.0041
2778.00,0.0041
2777.00,0.0041
2776.00,0.0041
2775.00,0.0041
2774.00,0.0041
2773.00,0.0040
2772.00,0.0040
2771.00,0.0039
2770.00,0.0039
2769.00,0.0039
2768.00,0.0039
2767.00,0.0039
2766.00,0.0038
2765.00,0.0038
2764.00,0.0038
2763.00,0.0038
2762.00,0.0038
2761.00,0.0039
2760.00,0.0039
2759.00,0.0039
2758.00,0.0039
2757.00,0.0038
2756.00,0.0038
2755.00,0.0039
2754.00,0.0039
2753.00,0.0039
2752.00,0.0038
2751.00,0.0038
2750.00,0.0038
2749.00,0.0038
2748.00,0.0038
2747.00,0.0038
2746.00,0.0038
2745.00,0.0038
2744.00,0.0038
2743.00,0.0038
2742.00,0.0038
2741.00,0.0038
2740.00,0.0039
2739.00,0.0039
2738.00,0.0039
2737.00,0.0038
2736.00,0.0038
2735.00,0.0037
2734.00,0.0037
2733.00,0.0036
2732.00,0.0036
2731.00,0.0036
2730.00,0.0036
2729.00,0.0037
2728.00,0.0037
2727.00,0.0038
2726.00,0.0038
2725.00,0.0038
2724.00,0.0038
2723.00,0.0038
2722.00,0.0038
2721.00,0.0038
2720.00,0.0037
2719.00,0.0037
2718.00,0.0037
2717.00,0.0037
2716.00,0.0037
2715.00,0.0037
2714.00,0.0037
2713.00,0.0037
2712.00,0.0037
2711.00,0.0037
2710.00,0.0037
2709.00,0.0037
2708.00,0.0037
2707.00,0.0037
2706.00,0.0037
2705.00,0.0037
2704.00,0.0037
2703.00,0.0037
2702.00,0.0037
2701.00,0.0037
2700.00,0.0037
2699.00,0.0037
2698.00,0.0037
2697.00,0.0037
2696.00,0.0036
2695.00,0.0036
2694.00,0.0036
2693.00,0.0036
2692.00,0.0036
2691.00,0.0036
2690.00,0.0036
2689.00,0.0036
2688.00,0.0036
2687.00,0.0036
2686.00,0.0036
2685.00,0.0037
2684.00,0.0037
2683.00,0.0037
2682.00,0.0037
2681.00,0.0036
2680.00,0.0036
2679.00,0.0036
2678.00,0.0036
2677.00,0.0036
2676.00,0.0036
2675.00,0.0036
2674.00,0.0036
2673.00,0.0035
2672.00,0.0035
2671.00,0.0035
2670.00,0.0035
2669.00,0.0035
2668.00,0.0036
2667.00,0.0037
2666.00,0.0037
2665.00,0.0038
2664.00,0.0038
2663.00,0.0038
2662.00,0.0038
2661.00,0.0038
2660.00,0.0038
2659.00,0.0038
2658.00,0.0038
2657.00,0.0038
2656.00,0.0038
2655.00,0.0038
2654.00,0.0038
2653.00,0.0038
2652.00,0.0038
2651.00,0.0038
2650.00,0.0038
2649.00,0.0038
2648.00,0.0038
2647.00,0.0038
2646.00,0.0038
2645.00,0.0038
2644.00,0.0038
2643.00,0.0038
2642.00,0.0037
2641.00,0.0037
2640.00,0.0037
2639.00,0.0037
2638.00,0.0037
2637.00,0.0037
2636.00,0.0038
2635.00,0.0038
2634.00,0.0039
2633.00,0.0039
2632.00,0.0039
2631.00,0.0039
2630.00,0.0038
2629.00,0.0038
2628.00,0.0038
2627.00,0.0037
2626.00,0.0037
2625.00,0.0037
2624.00,0.0037
2623.00,0.0037
2622.00,0.0037
2621.00,0.0036
2620.00,0.0036
2619.00,0.0036
2618.00,0.0037
2617.00,0.0037
2616.00,0.0036
2615.00,0.0036
2614.00,0.0036
2613.00,0.0036
2612.00,0.0036
2611.00,0.0036
2610.00,0.0036
2609.00,0.0036
2608.00,0.0036
2607.00,0.0037
2606.00,0.0037
2605.00,0.0036
2604.00,0.0036
2603.00,0.0036
2602.00,0.0035
2601.00,0.0035
2600.00,0.0035
2599.00,0.0035
2598.00,0.0035
2597.00,0.0035
2596.00,0.0034
2595.00,0.0034
2594.00,0.0034
2593.00,0.0034
2592.00,0.0035
2591.00,0.0035
2590.00,0.0035
2589.00,0.0034
2588.00,0.0034
2587.00,0.0034
2586.00,0.0034
2585.00,0.0034
2584.00,0.0033
2583.00,0.0033
2582.00,0.0032
2581.00,0.0032
2580.00,0.0032
2579.00,0.0031
2578.00,0.0031
2577.00,0.0031
2576.00,0.0030
2575.00,0.0031
2574.00,0.0032
2573.00,0.0033
2572.00,0.0033
2571.00,0.0033
2570.00,0.0033
2569.00,0.0032
2568.00,0.0032
2567.00,0.0032
2566.00,0.0032
2565.00,0.0032
2564.00,0.0032
2563.00,0.0032
2562.00,0.0032
2561.00,0.0032
2560.00,0.0032
2559.00,0.0032
2558.00,0.0031
2557.00,0.0031
2556.00,0.0031
2555.00,0.0031
2554.00,0.0031
2553.00,0.0031
2552.00,0.0031
2551.00,0.0031
2550.00,0.0031
2549.00,0.0031
2548.00,0.0031
2547.00,0.0031
2546.00,0.0031
2545.00,0.0031
2544.00,0.0031
2543.00,0.0031
2542.00,0.0032
2541.00,0.0032
2540.00,0.0032
2539.00,0.0031
2538.00,0.0031
2537.00,0.0030
2536.00,0.0030
2535.00,0.0031
2534.00,0.0031
2533.00,0.0031
2532.00,0.0031
2531.00,0.0031
2530.00,0.0031
2529.00,0.0032
2528.00,0.0031
2527.00,0.0031
2526.00,0.0031
2525.00,0.0030
2524.00,0.0030
2523.00,0.0030
2522.00,0.0030
2521.00,0.0029
2520.00,0.0029
2519.00,0.0029
2518.00,0.0030
2517.00,0.0031
2516.00,0.0031
2515.00,0.0031
2514.00,0.0030
2513.00,0.0029
2512.00,0.0029
2511.00,0.0030
2510.00,0.0031
2509.00,0.0031
2508.00,0.0031
2507.00,0.0030
2506.00,0.0030
2505.00,0.0030
2504.00,0.0030
2503.00,0.0030
2502.00,0.0030
2501.00,0.0030
2500.00,0.0030
2499.00,0.0030
2498.00,0.0029
2497.00,0.0029
2496.00,0.0029
2495.00,0.0030
2494.00,0.0030
2493.00,0.0030
2492.00,0.0030
2491.00,0.0029
2490.00,0.0030
2489.00,0.0030
2488.00,0.0030
2487.00,0.0030
2486.00,0.0030
2485.00,0.0030
2484.00,0.0030
2483.00,0.0030
2482.00,0.0030
2481.00,0.0030
2480.00,0.0029
2479.00,0.0029
2478.00,0.0029
2477.00,0.0029
2476.00,0.0029
2475.00,0.0029
2474.00,0.0029
2473.00,0.0029
2472.00,0.0029
2471.00,0.0028
2470.00,0.0029
2469.00,0.0029
2468.00,0.0029
2467.00,0.0029
2466.00,0.0029
2465.00,0.0029
2464.00,0.0029
2463.00,0.0029
2462.00,0.0029
2461.00,0.0029
2460.00,0.0030
2459.00,0.0030
2458.00,0.0030
2457.00,0.0029
2456.00,0.0029
2455.00,0.0028
2454.00,0.0028
2453.00,0.0028
2452.00,0.0028
2451.00,0.0028
2450.00,0.0028
2449.00,0.0027
2448.00,0.0027
2447.00,0.0027
2446.00,0.0027
2445.00,0.0028
2444.00,0.0028
2443.00,0.0028
2442.00,0.0028
2441.00,0.0028
2440.00,0.0028
2439.00,0.0028
2438.00,0.0028
2437.00,0.0028
2436.00,0.0028
2435.00,0.0028
2434.00,0.0028
2433.00,0.0028
2432.00,0.0027
2431.00,0.0027
2430.00,0.0026
2429.00,0.0026
2428.00,0.0026
2427.00,0.0026
2426.00,0.0026
2425.00,0.0026
2424.00,0.0026
2423.00,0.0027
2422.00,0.0027
2421.00,0.0027
2420.00,0.0027
2419.00,0.0027
2418.00,0.0027
2417.00,0.0027
2416.00,0.0026
2415.00,0.0026
2414.00,0.0026
2413.00,0.0026
2412.00,0.0026
2411.00,0.0026
2410.00,0.0026
2409.00,0.0026
2408.00,0.0025
2407.00,0.0025
2406.00,0.0026
2405.00,0.0026
2404.00,0.0026
2403.00,0.0026
2402.00,0.0025
2401.00,0.0025
2400.00,0.0025
2399.00,0.0025
2398.00,0.0025
2397.00,0.0025
2396.00,0.0024
2395.00,0.0024
2394.00,0.0024
2393.00,0.0024
2392.00,0.0025
2391.00,0.0025
2390.00,0.0025
2389.00,0.0025
2388.00,0.0025
2387.00,0.0025
2386.00,0.0025
2385.00,0.0025
2384.00,0.0025
2383.00,0.0025
2382.00,0.0025
2381.00,0.0025
2380.00,0.0025
2379.00,0.0025
2378.00,0.0025
2377.00,0.0025
2376.00,0.0024
2375.00,0.0025
2374.00,0.0025
2373.00,0.0025
2372.00,0.0026
2371.00,0.0026
2370.00,0.0025
2369.00,0.0025
2368.00,0.0024
2367.00,0.0024
2366.00,0.0024
2365.00,0.0024
2364.00,0.0025
2363.00,0.0027
2362.00,0.0029
2361.00,0.0029
2360.00,0.0029
2359.00,0.0028
2358.00,0.0026
2357.00,0.0025
2356.00,0.0025
2355.00,0.0025
2354.00,0.0026
2353.00,0.0027
2352.00,0.0027
2351.00,0.0028
2350.00,0.0028
2349.00,0.0028
2348.00,0.0028
2347.00,0.0028
2346.00,0.0029
2345.00,0.0029
2344.00,0.0029
2343.00,0.0029
2342.00,0.0029
2341.00,0.0029
2340.00,0.0029
2339.00,0.0029
2338.00,0.0030
2337.00,0.0030
2336.00,0.0030
2335.00,0.0030
2334.00,0.0029
2333.00,0.0028
2332.00,0.0028
2331.00,0.0029
2330.00,0.0030
2329.00,0.0031
2328.00,0.0033
2327.00,0.0034
2326.00,0.0034
2325.00,0.0034
2324.00,0.0034
2323.00,0.0034
2322.00,0.0034
2321.00,0.0034
2320.00,0.0033
2319.00,0.0033
2318.00,0.0032
2317.00,0.0032
2316.00,0.0032
2315.00,0.0032
2314.00,0.0031
2313.00,0.0032
2312.00,0.0032
2311.00,0.0032
2310.00,0.0033
2309.00,0.0032
2308.00,0.0032
2307.00,0.0031
2306.00,0.0031
2305.00,0.0031
2304.00,0.0031
2303.00,0.0030
2302.00,0.0030
2301.00,0.0031
2300.00,0.0031
2299.00,0.0031
2298.00,0.0031
2297.00,0.0031
2296.00,0.0032
2295.00,0.0033
2294.00,0.0033
2293.00,0.0033
2292.00,0.0032
2291.00,0.0032
2290.00,0.0031
2289.00,0.0031
2288.00,0.0032
2287.00,0.0032
2286.00,0.0032
2285.00,0.0032
2284.00,0.0031
2283.00,0.0031
2282.00,0.0030
2281.00,0.0030
2280.00,0.0029
2279.00,0.0029
2278.00,0.0029
2277.00,0.0029
2276.00,0.0028
2275.00,0.0028
2274.00,0.0027
2273.00,0.0027
2272.00,0.0027
2271.00,0.0027
2270.00,0.0028
2269.00,0.0028
2268.00,0.0029
2267.00,0.0029
2266.00,0.0029
2265.00,0.0028
2264.00,0.0028
2263.00,0.0027
2262.00,0.0027
2261.00,0.0027
2260.00,0.0026
2259.00,0.0026
2258.00,0.0026
2257.00,0.0025
2256.00,0.0025
2255.00,0.0026
2254.00,0.0026
2253.00,0.0027
2252.00,0.0028
2251.00,0.0028
2250.00,0.0028
2249.00,0.0028
2248.00,0.0027
2247.00,0.0026
2246.00,0.0026
2245.00,0.0025
2244.00,0.0024
2243.00,0.0024
2242.00,0.0025
2241.00,0.0025
2240.00,0.0026
2239.00,0.0027
2238.00,0.0027
2237.00,0.0028
2236.00,0.0027
2235.00,0.0026
2234.00,0.0026
2233.00,0.0025
2232.00,0.0026
2231.00,0.0027
2230.00,0.0027
2229.00,0.0026
2228.00,0.0025
2227.00,0.0025
2226.00,0.0025
2225.00,0.0025
2224.00,0.0024
2223.00,0.0024
2222.00,0.0024
2221.00,0.0024
2220.00,0.0025
2219.00,0.0026
2218.00,0.0026
2217.00,0.0025
2216.00,0.0025
2215.00,0.0024
2214.00,0.0024
2213.00,0.0024
2212.00,0.0024
2211.00,0.0024
2210.00,0.0025
2209.00,0.0025
2208.00,0.0026
2207.00,0.0026
2206.00,0.0027
2205.00,0.0027
2204.00,0.0027
2203.00,0.0027
2202.00,0.0027
2201.00,0.0027
2200.00,0.0027
2199.00,0.0027
2198.00,0.0027
2197.00,0.0026
2196.00,0.0025
2195.00,0.0024
2194.00,0.0023
2193.00,0.0023
2192.00,0.0024
2191.00,0.0025
2190.00,0.0026
2189.00,0.0027
2188.00,0.0028
2187.00,0.0028
2186.00,0.0029
2185.00,0.0028
2184.00,0.0027
2183.00,0.0025
2182.00,0.0022
2181.00,0.0021
2180.00,0.0021
2179.00,0.0022
2178.00,0.0023
2177.00,0.0023
2176.00,0.0024
2175.00,0.0025
2174.00,0.0027
2173.00,0.0027
2172.00,0.0027
2171.00,0.0027
2170.00,0.0028
2169.00,0.0029
2168.00,0.0030
2167.00,0.0030
2166.00,0.0029
2165.00,0.0030
2164.00,0.0031
2163.00,0.0032
2162.00,0.0029
2161.00,0.0021
2160.00,0.0012
2159.00,0.0005
2158.00,0.0002
2157.00,0.0002
2156.00,0.0003
2155.00,0.0005
2154.00,0.0008
2153.00,0.0010
2152.00,0.0011
2151.00,0.0012
2150.00,0.0013
2149.00,0.0013
2148.00,0.0013
2147.00,0.0014
2146.00,0.0014
2145.00,0.0014
2144.00,0.0014
2143.00,0.0013
2142.00,0.0014
2141.00,0.0013
2140.00,0.0012
2139.00,0.0010
2138.00,0.0007
2137.00,0.0005
2136.00,0.0004
2135.00,0.0004
2134.00,0.0005
2133.00,0.0007
2132.00,0.0009
2131.00,0.0011
2130.00,0.0013
2129.00,0.0015
2128.00,0.0016
2127.00,0.0016
2126.00,0.0016
2125.00,0.0017
2124.00,0.0017
2123.00,0.0017
2122.00,0.0017
2121.00,0.0017
2120.00,0.0018
2119.00,0.0020
2118.00,0.0021
2117.00,0.0022
2116.00,0.0022
2115.00,0.0022
2114.00,0.0021
2113.00,0.0021
2112.00,0.0020
2111.00,0.0020
2110.00,0.0020
2109.00,0.0021
2108.00,0.0022
2107.00,0.0023
2106.00,0.0024
2105.00,0.0024
2104.00,0.0022
2103.00,0.0021
2102.00,0.0020
2101.00,0.0020
2100.00,0.0020
2099.00,0.0020
2098.00,0.0020
2097.00,0.0020
2096.00,0.0019
2095.00,0.0018
2094.00,0.0018
2093.00,0.0018
2092.00,0.0018
2091.00,0.0019
2090.00,0.0019
2089.00,0.0020
2088.00,0.0020
2087.00,0.0020
2086.00,0.0020
2085.00,0.0021
2084.00,0.0021
2083.00,0.0022
2082.00,0.0022
2081.00,0.0023
2080.00,0.0024
2079.00,0.0024
2078.00,0.0025
2077.00,0.0026
2076.00,0.0026
2075.00,0.0027
2074.00,0.0027
2073.00,0.0027
2072.00,0.0026
2071.00,0.0025
2070.00,0.0024
2069.00,0.0023
2068.00,0.0022
2067.00,0.0021
2066.00,0.0019
2065.00,0.0019
2064.00,0.0018
2063.00,0.0019
2062.00,0.0018
2061.00,0.0017
2060.00,0.0017
2059.00,0.0017
2058.00,0.0019
2057.00,0.0021
2056.00,0.0022
2055.00,0.0024
2054.00,0.0025
2053.00,0.0028
2052.00,0.0029
2051.00,0.0028
2050.00,0.0025
2049.00,0.0021
2048.00,0.0019
2047.00,0.0019
2046.00,0.0020
2045.00,0.0021
2044.00,0.0021
2043.00,0.0022
2042.00,0.0023
2041.00,0.0023
2040.00,0.0022
2039.00,0.0020
2038.00,0.0019
2037.00,0.0018
2036.00,0.0017
2035.00,0.0017
2034.00,0.0017
2033.00,0.0017
2032.00,0.0016
2031.00,0.0014
2030.00,0.0013
2029.00,0.0012
2028.00,0.0013
2027.00,0.0013
2026.00,0.0012
2025.00,0.0012
2024.00,0.0013
2023.00,0.0014
2022.00,0.0016
2021.00,0.0016
2020.00,0.0015
2019.00,0.0014
2018.00,0.0015
2017.00,0.0017
2016.00,0.0018
2015.00,0.0016
2014.00,0.0010
2013.00,0.0001
2012.00,-0.0007
2011.00,-0.0009
2010.00,-0.0006
2009.00,-0.0000
2008.00,0.0006
2007.00,0.0011
2006.00,0.0015
2005.00,0.0018
2004.00,0.0020
2003.00,0.0020
2002.00,0.0020
2001.00,0.0019
2000.00,0.0018
1999.00,0.0017
1998.00,0.0015
1997.00,0.0014
1996.00,0.0014
1995.00,0.0015
1994.00,0.0016
1993.00,0.0018
1992.00,0.0019
1991.00,0.0020
1990.00,0.0020
1989.00,0.0021
1988.00,0.0021
1987.00,0.0023
1986.00,0.0024
1985.00,0.0025
1984.00,0.0026
1983.00,0.0029
1982.00,0.0032
1981.00,0.0036
1980.00,0.0037
1979.00,0.0034
1978.00,0.0026
1977.00,0.0019
1976.00,0.0014
1975.00,0.0012
1974.00,0.0013
1973.00,0.0015
1972.00,0.0018
1971.00,0.0020
1970.00,0.0022
1969.00,0.0023
1968.00,0.0023
1967.00,0.0023
1966.00,0.0023
1965.00,0.0024
1964.00,0.0024
1963.00,0.0024
1962.00,0.0024
1961.00,0.0022
1960.00,0.0022
1959.00,0.0022
1958.00,0.0022
1957.00,0.0024
1956.00,0.0026
1955.00,0.0028
1954.00,0.0028
1953.00,0.0028
1952.00,0.0028
1951.00,0.0029
1950.00,0.0032
1949.00,0.0034
1948.00,0.0035
1947.00,0.0035
1946.00,0.0035
1945.00,0.0034
1944.00,0.0035
1943.00,0.0036
1942.00,0.0036
1941.00,0.0036
1940.00,0.0035
1939.00,0.0034
1938.00,0.0033
1937.00,0.0032
1936.00,0.0030
1935.00,0.0029
1934.00,0.0027
1933.00,0.0026
1932.00,0.0024
1931.00,0.0024
1930.00,0.0024
1929.00,0.0023
1928.00,0.0023
1927.00,0.0022
1926.00,0.0021
1925.00,0.0021
1924.00,0.0020
1923.00,0.0020
1922.00,0.0020
1921.00,0.0021
1920.00,0.0022
1919.00,0.0022
1918.00,0.0022
1917.00,0.0021
1916.00,0.0020
1915.00,0.0020
1914.00,0.0020
1913.00,0.0020
1912.00,0.0020
1911.00,0.0020
1910.00,0.0020
1909.00,0.0020
1908.00,0.0020
1907.00,0.0020
1906.00,0.0020
1905.00,0.0020
1904.00,0.0019
1903.00,0.0019
1902.00,0.0018
1901.00,0.0019
1900.00,0.0019
1899.00,0.0021
1898.00,0.0022
1897.00,0.0023
1896.00,0.0023
1895.00,0.0024
1894.00,0.0025
1893.00,0.0026
1892.00,0.0027
1891.00,0.0027
1890.00,0.0028
1889.00,0.0028
1888.00,0.0029
1887.00,0.0030
1886.00,0.0031
1885.00,0.0031
1884.00,0.0030
1883.00,0.0030
1882.00,0.0030
1881.00,0.0030
1880.00,0.0030
1879.00,0.0030
1878.00,0.0031
1877.00,0.0032
1876.00,0.0032
1875.00,0.0033
1874.00,0.0033
1873.00,0.0034
1872.00,0.0034
1871.00,0.0034
1870.00,0.0034
1869.00,0.0034
1868.00,0.0033
1867.00,0.0033
1866.00,0.0033
1865.00,0.0033
1864.00,0.0031
1863.00,0.0030
1862.00,0.0029
1861.00,0.0027
1860.00,0.0026
1859.00,0.0026
1858.00,0.0025
1857.00,0.0025
1856.00,0.0025
1855.00,0.0025
1854.00,0.0025
1853.00,0.0024
1852.00,0.0023
1851.00,0.0022
1850.00,0.0022
1849.00,0.0022
1848.00,0.0022
1847.00,0.0022
1846.00,0.0023
1845.00,0.0023
1844.00,0.0022
1843.00,0.0021
1842.00,0.0021
1841.00,0.0021
1840.00,0.0020
1839.00,0.0020
1838.00,0.0020
1837.00,0.0020
1836.00,0.0020
1835.00,0.0021
1834.00,0.0021
1833.00,0.0021
1832.00,0.0021
1831.00,0.0020
1830.00,0.0020
1829.00,0.0021
1828.00,0.0023
1827.00,0.0024
1826.00,0.0025
1825.00,0.0025
1824.00,0.0025
1823.00,0.0025
1822.00,0.0026
1821.00,0.0026
1820.00,0.0025
1819.00,0.0025
1818.00,0.0025
1817.00,0.0026
1816.00,0.0027
1815.00,0.0028
1814.00,0.0029
1813.00,0.0031
1812.00,0.0031
1811.00,0.0031
1810.00,0.0032
1809.00,0.0034
1808.00,0.0034
1807.00,0.0035
1806.00,0.0036
1805.00,0.0036
1804.00,0.0036
1803.00,0.0036
1802.00,0.0036
1801.00,0.0037
1800.00,0.0037
1799.00,0.0037
1798.00,0.0036
1797.00,0.0036
1796.00,0.0035
1795.00,0.0034
1794.00,0.0034
1793.00,0.0033
1792.00,0.0032
1791.00,0.0031
1790.00,0.0030
1789.00,0.0029
1788.00,0.0028
1787.00,0.0027
1786.00,0.0026
1785.00,0.0026
1784.00,0.0025
1783.00,0.0025
1782.00,0.0025
1781.00,0.0025
1780.00,0.0025
1779.00,0.0025
1778.00,0.0025
1777.00,0.0026
1776.00,0.0026
1775.00,0.0025
1774.00,0.0025
1773.00,0.0024
1772.00,0.0024
1771.00,0.0024
1770.00,0.0025
1769.00,0.0025
1768.00,0.0025
1767.00,0.0025
1766.00,0.0024
1765.00,0.0023
1764.00,0.0023
1763.00,0.0021
1762.00,0.0020
1761.00,0.0019
1760.00,0.0020
1759.00,0.0021
1758.00,0.0022
1757.00,0.0023
1756.00,0.0024
1755.00,0.0024
1754.00,0.0025
1753.00,0.0027
1752.00,0.0029
1751.00,0.0029
1750.00,0.0027
1749.00,0.0026
1748.00,0.0026
1747.00,0.0025
1746.00,0.0024
1745.00,0.0023
1744.00,0.0022
1743.00,0.0021
1742.00,0.0020
1741.00,0.0020
1740.00,0.0021
1739.00,0.0021
1738.00,0.0020
1737.00,0.0022
1736.00,0.0024
1735.00,0.0025
1734.00,0.0025
1733.00,0.0025
1732.00,0.0026
1731.00,0.0025
1730.00,0.0024
1729.00,0.0023
1728.00,0.0022
1727.00,0.0021
1726.00,0.0021
1725.00,0.0021
1724.00,0.0022
1723.00,0.0022
1722.00,0.0022
1721.00,0.0023
1720.00,0.0024
1719.00,0.0025
1718.00,0.0026
1717.00,0.0026
1716.00,0.0026
1715.00,0.0027
1714.00,0.0028
1713.00,0.0028
1712.00,0.0028
1711.00,0.0028
1710.00,0.0030
1709.00,0.0031
1708.00,0.0033
1707.00,0.0035
1706.00,0.0036
1705.00,0.0038
1704.00,0.0039
1703.00,0.0042
1702.00,0.0047
1701.00,0.0053
1700.00,0.0055
1699.00,0.0058
1698.00,0.0062
1697.00,0.0065
1696.00,0.0065
1695.00,0.0065
1694.00,0.0066
1693.00,0.0068
1692.00,0.0069
1691.00,0.0071
1690.00,0.0073
1689.00,0.0075
1688.00,0.0077
1687.00,0.0079
1686.00,0.0082
1685.00,0.0084
1684.00,0.0086
1683.00,0.0088
1682.00,0.0089
1681.00,0.0091
1680.00,0.0093
1679.00,0.0095
1678.00,0.0096
1677.00,0.0098
1676.00,0.0100
1675.00,0.0102
1674.00,0.0104
1673.00,0.0107
1672.00,0.0109
1671.00,0.0111
1670.00,0.0112
1669.00,0.0113
1668.00,0.0115
1667.00,0.0116
1666.00,0.0118
1665.00,0.0119
1664.00,0.0120
1663.00,0.0122
1662.00,0.0124
1661.00,0.0126
1660.00,0.0128
1659.00,0.0130
1658.00,0.0130
1657.00,0.0130
1656.00,0.0130
1655.00,0.0130
1654.00,0.0130
1653.00,0.0131
1652.00,0.0134
1651.00,0.0136
1650.00,0.0138
1649.00,0.0139
1648.00,0.0139
1647.00,0.0139
1646.00,0.0139
1645.00,0.0139
1644.00,0.0139
1643.00,0.0139
1642.00,0.0139
1641.00,0.0139
1640.00,0.0139
1639.00,0.0139
1638.00,0.0140
1637.00,0.0140
1636.00,0.0140
1635.00,0.0140
1634.00,0.0139
1633.00,0.0137
1632.00,0.0137
1631.00,0.0136
1630.00,0.0135
1629.00,0.0134
1628.00,0.0133
1627.00,0.0132
1626.00,0.0131
1625.00,0.0129
1624.00,0.0127
1623.00,0.0125
1622.00,0.0122
1621.00,0.0119
1620.00,0.0117
1619.00,0.0116
1618.00,0.0114
1617.00,0.0111
1616.00,0.0110
1615.00,0.0110
1614.00,0.0109
1613.00,0.0109
1612.00,0.0110
1611.00,0.0112
1610.00,0.0115
1609.00,0.0119
1608.00,0.0126
1607.00,0.0137
1606.00,0.0149
1605.00,0.0162
1604.00,0.0177
1603.00,0.0190
1602.00,0.0198
1601.00,0.0200
1600.00,0.0195
1599.00,0.0185
1598.00,0.0170
1597.00,0.0154
1596.00,0.0139
1595.00,0.0127
1594.00,0.0118
1593.00,0.0110
1592.00,0.0104
1591.00,0.0099
1590.00,0.0096
1589.00,0.0093
1588.00,0.0094
1587.00,0.0097
1586.00,0.0101
1585.00,0.0107
1584.00,0.0112
1583.00,0.0114
1582.00,0.0112
1581.00,0.0107
1580.00,0.0100
1579.00,0.0094
1578.00,0.0090
1577.00,0.0086
1576.00,0.0084
1575.00,0.0084
1574.00,0.0083
1573.00,0.0082
1572.00,0.0082
1571.00,0.0082
1570.00,0.0082
1569.00,0.0083
1568.00,0.0085
1567.00,0.0087
1566.00,0.0088
1565.00,0.0088
1564.00,0.0088
1563.00,0.0088
1562.00,0.0088
1561.00,0.0089
1560.00,0.0093
1559.00,0.0098
1558.00,0.0100
1557.00,0.0101
1556.00,0.0101
1555.00,0.0103
1554.00,0.0105
1553.00,0.0108
1552.00,0.0111
1551.00,0.0113
1550.00,0.0115
1549.00,0.0117
1548.00,0.0120
1547.00,0.0122
1546.00,0.0124
1545.00,0.0125
1544.00,0.0125
1543.00,0.0126
1542.00,0.0128
1541.00,0.0129
1540.00,0.0131
1539.00,0.0133
1538.00,0.0133
1537.00,0.0132
1536.00,0.0131
1535.00,0.0130
1534.00,0.0130
1533.00,0.0129
1532.00,0.0128
1531.00,0.0128
1530.00,0.0128
1529.00,0.0127
1528.00,0.0126
1527.00,0.0125
1526.00,0.0126
1525.00,0.0126
1524.00,0.0126
1523.00,0.0126
1522.00,0.0127
1521.00,0.0128
1520.00,0.0130
1519.00,0.0131
1518.00,0.0133
1517.00,0.0134
1516.00,0.0135
1515.00,0.0135
1514.00,0.0134
1513.00,0.0133
1512.00,0.0131
1511.00,0.0129
1510.00,0.0129
1509.00,0.0129
1508.00,0.0128
1507.00,0.0127
1506.00,0.0127
1505.00,0.0128
1504.00,0.0129
1503.00,0.0130
1502.00,0.0133
1501.00,0.0139
1500.00,0.0148
1499.00,0.0162
1498.00,0.0188
1497.00,0.0229
1496.00,0.0284
1495.00,0.0342
1494.00,0.0392
1493.00,0.0423
1492.00,0.0426
1491.00,0.0397
1490.00,0.0343
1489.00,0.0285
1488.00,0.0236
1487.00,0.0200
1486.00,0.0173
1485.00,0.0153
1484.00,0.0137
1483.00,0.0125
1482.00,0.0115
1481.00,0.0108
1480.00,0.0102
1479.00,0.0098
1478.00,0.0096
1477.00,0.0095
1476.00,0.0093
1475.00,0.0092
1474.00,0.0091
1473.00,0.0091
1472.00,0.0091
1471.00,0.0091
1470.00,0.0090
1469.00,0.0090
1468.00,0.0089
1467.00,0.0089
1466.00,0.0090
1465.00,0.0093
1464.00,0.0096
1463.00,0.0100
1462.00,0.0104
1461.00,0.0110
1460.00,0.0117
1459.00,0.0129
1458.00,0.0152
1457.00,0.0195
1456.00,0.0251
1455.00,0.0307
1454.00,0.0355
1453.00,0.0393
1452.00,0.0413
1451.00,0.0411
1450.00,0.0393
1449.00,0.0367
1448.00,0.0338
1447.00,0.0311
1446.00,0.0289
1445.00,0.0271
1444.00,0.0255
1443.00,0.0238
1442.00,0.0222
1441.00,0.0209
1440.00,0.0197
1439.00,0.0185
1438.00,0.0174
1437.00,0.0161
1436.00,0.0148
1435.00,0.0137
1434.00,0.0129
1433.00,0.0122
1432.00,0.0115
1431.00,0.0108
1430.00,0.0102
1429.00,0.0097
1428.00,0.0094
1427.00,0.0091
1426.00,0.0089
1425.00,0.0088
1424.00,0.0088
1423.00,0.0086
1422.00,0.0084
1421.00,0.0083
1420.00,0.0083
1419.00,0.0083
1418.00,0.0083
1417.00,0.0084
1416.00,0.0084
1415.00,0.0083
1414.00,0.0082
1413.00,0.0082
1412.00,0.0082
1411.00,0.0082
1410.00,0.0082
1409.00,0.0082
1408.00,0.0083
1407.00,0.0083
1406.00,0.0082
1405.00,0.0082
1404.00,0.0082
1403.00,0.0082
1402.00,0.0082
1401.00,0.0082
1400.00,0.0082
1399.00,0.0083
1398.00,0.0083
1397.00,0.0082
1396.00,0.0082
1395.00,0.0081
1394.00,0.0082
1393.00,0.0083
1392.00,0.0086
1391.00,0.0087
1390.00,0.0089
1389.00,0.0090
1388.00,0.0092
1387.00,0.0095
1386.00,0.0098
1385.00,0.0101
1384.00,0.0103
1383.00,0.0105
1382.00,0.0106
1381.00,0.0108
1380.00,0.0110
1379.00,0.0112
1378.00,0.0115
1377.00,0.0117
1376.00,0.0120
1375.00,0.0121
1374.00,0.0122
1373.00,0.0122
1372.00,0.0123
1371.00,0.0123
1370.00,0.0123
1369.00,0.0122
1368.00,0.0121
1367.00,0.0120
1366.00,0.0119
1365.00,0.0118
1364.00,0.0117
1363.00,0.0116
1362.00,0.0115
1361.00,0.0114
1360.00,0.0113
1359.00,0.0112
1358.00,0.0111
1357.00,0.0109
1356.00,0.0107
1355.00,0.0106
1354.00,0.0106
1353.00,0.0106
1352.00,0.0106
1351.00,0.0107
1350.00,0.0107
1349.00,0.0106
1348.00,0.0105
1347.00,0.0105
1346.00,0.0103
1345.00,0.0102
1344.00,0.0101
1343.00,0.0100
1342.00,0.0099
1341.00,0.0098
1340.00,0.0096
1339.00,0.0095
1338.00,0.0095
1337.00,0.0096
1336.00,0.0097
1335.00,0.0099
1334.00,0.0100
1333.00,0.0101
1332.00,0.0103
1331.00,0.0104
1330.00,0.0105
1329.00,0.0105
1328.00,0.0104
1327.00,0.0103
1326.00,0.0102
1325.00,0.0101
1324.00,0.0100
1323.00,0.0099
1322.00,0.0098
1321.00,0.0097
1320.00,0.0097
1319.00,0.0098
1318.00,0.0099
1317.00,0.0099
1316.00,0.0100
1315.00,0.0101
1314.00,0.0101
1313.00,0.0101
1312.00,0.0101
1311.00,0.0101
1310.00,0.0100
1309.00,0.0100
1308.00,0.0099
1307.00,0.0097
1306.00,0.0096
1305.00,0.0094
1304.00,0.0093
1303.00,0.0092
1302.00,0.0091
1301.00,0.0089
1300.00,0.0088
1299.00,0.0087
1298.00,0.0086
1297.00,0.0085
1296.00,0.0085
1295.00,0.0085
1294.00,0.0084
1293.00,0.0084
1292.00,0.0084
1291.00,0.0083
1290.00,0.0082
1289.00,0.0081
1288.00,0.0081
1287.00,0.0081
1286.00,0.0081
1285.00,0.0081
1284.00,0.0081
1283.00,0.0080
1282.00,0.0080
1281.00,0.0079
1280.00,0.0079
1279.00,0.0079
1278.00,0.0078
1277.00,0.0078
1276.00,0.0077
1275.00,0.0075
1274.00,0.0074
1273.00,0.0073
1272.00,0.0073
1271.00,0.0073
1270.00,0.0073
1269.00,0.0073
1268.00,0.0072
1267.00,0.0071
1266.00,0.0070
1265.00,0.0069
1264.00,0.0069
1263.00,0.0069
1262.00,0.0070
1261.00,0.0070
1260.00,0.0071
1259.00,0.0071
1258.00,0.0070
1257.00,0.0070
1256.00,0.0070
1255.00,0.0070
1254.00,0.0071
1253.00,0.0071
1252.00,0.0072
1251.00,0.0072
1250.00,0.0071
1249.00,0.0071
1248.00,0.0072
1247.00,0.0072
1246.00,0.0073
1245.00,0.0072
1244.00,0.0072
1243.00,0.0072
1242.00,0.0072
1241.00,0.0073
1240.00,0.0073
1239.00,0.0073
1238.00,0.0072
1237.00,0.0072
1236.00,0.0072
1235.00,0.0072
1234.00,0.0072
1233.00,0.0073
1232.00,0.0073
1231.00,0.0074
1230.00,0.0073
1229.00,0.0074
1228.00,0.0074
1227.00,0.0075
1226.00,0.0075
1225.00,0.0074
1224.00,0.0074
1223.00,0.0073
1222.00,0.0073
1221.00,0.0074
1220.00,0.0074
1219.00,0.0075
1218.00,0.0075
1217.00,0.0075
1216.00,0.0075
1215.00,0.0075
1214.00,0.0075
1213.00,0.0076
1212.00,0.0076
1211.00,0.0076
1210.00,0.0077
1209.00,0.0078
1208.00,0.0078
1207.00,0.0079
1206.00,0.0079
1205.00,0.0080
1204.00,0.0081
1203.00,0.0082
1202.00,0.0084
1201.00,0.0085
1200.00,0.0086
1199.00,0.0086
1198.00,0.0086
1197.00,0.0086
1196.00,0.0087
1195.00,0.0087
1194.00,0.0087
1193.00,0.0087
1192.00,0.0086
1191.00,0.0086
1190.00,0.0086
1189.00,0.0086
1188.00,0.0088
1187.00,0.0090
1186.00,0.0093
1185.00,0.0096
1184.00,0.0100
1183.00,0.0103
1182.00,0.0106
1181.00,0.0107
1180.00,0.0106
1179.00,0.0102
1178.00,0.0097
1177.00,0.0092
1176.00,0.0087
1175.00,0.0082
1174.00,0.0079
1173.00,0.0076
1172.00,0.0074
1171.00,0.0072
1170.00,0.0071
1169.00,0.0071
1168.00,0.0070
1167.00,0.0070
1166.00,0.0070
1165.00,0.0071
1164.00,0.0072
1163.00,0.0073
1162.00,0.0075
1161.00,0.0077
1160.00,0.0082
1159.00,0.0087
1158.00,0.0093
1157.00,0.0098
1156.00,0.0103
1155.00,0.0105
1154.00,0.0105
1153.00,0.0103
1152.00,0.0098
1151.00,0.0091
1150.00,0.0084
1149.00,0.0078
1148.00,0.0073
1147.00,0.0069
1146.00,0.0066
1145.00,0.0063
1144.00,0.0061
1143.00,0.0059
1142.00,0.0057
1141.00,0.0056
1140.00,0.0054
1139.00,0.0054
1138.00,0.0053
1137.00,0.0053
1136.00,0.0052
1135.00,0.0052
1134.00,0.0051
1133.00,0.0051
1132.00,0.0052
1131.00,0.0052
1130.00,0.0051
1129.00,0.0051
1128.00,0.0051
1127.00,0.0050
1126.00,0.0050
1125.00,0.0050
1124.00,0.0050
1123.00,0.0051
1122.00,0.0052
1121.00,0.0054
1120.00,0.0056
1119.00,0.0058
1118.00,0.0059
1117.00,0.0060
1116.00,0.0061
1115.00,0.0062
1114.00,0.0063
1113.00,0.0064
1112.00,0.0064
1111.00,0.0065
1110.00,0.0064
1109.00,0.0064
1108.00,0.0064
1107.00,0.0064
1106.00,0.0063
1105.00,0.0063
1104.00,0.0064
1103.00,0.0065
1102.00,0.0065
1101.00,0.0065
1100.00,0.0065
1099.00,0.0066
1098.00,0.0066
1097.00,0.0067
1096.00,0.0068
1095.00,0.0069
1094.00,0.0070
1093.00,0.0072
1092.00,0.0073
1091.00,0.0074
1090.00,0.0075
1089.00,0.0076
1088.00,0.0077
1087.00,0.0080
1086.00,0.0082
1085.00,0.0085
1084.00,0.0088
1083.00,0.0090
1082.00,0.0093
1081.00,0.0095
1080.00,0.0098
1079.00,0.0102
1078.00,0.0106
1077.00,0.0110
1076.00,0.0114
1075.00,0.0118
1074.00,0.0122
1073.00,0.0127
1072.00,0.0131
1071.00,0.0135
1070.00,0.0137
1069.00,0.0138
1068.00,0.0138
1067.00,0.0137
1066.00,0.0135
1065.00,0.0132
1064.00,0.0127
1063.00,0.0122
1062.00,0.0117
1061.00,0.0113
1060.00,0.0110
1059.00,0.0108
1058.00,0.0105
1057.00,0.0103
1056.00,0.0101
1055.00,0.0098
1054.00,0.0096
1053.00,0.0095
1052.00,0.0093
1051.00,0.0091
1050.00,0.0089
1049.00,0.0087
1048.00,0.0085
1047.00,0.0085
1046.00,0.0084
1045.00,0.0083
1044.00,0.0083
1043.00,0.0083
1042.00,0.0084
1041.00,0.0085
1040.00,0.0088
1039.00,0.0091
1038.00,0.0095
1037.00,0.0101
1036.00,0.0110
1035.00,0.0123
1034.00,0.0139
1033.00,0.0158
1032.00,0.0178
1031.00,0.0197
1030.00,0.0213
1029.00,0.0223
1028.00,0.0228
1027.00,0.0225
1026.00,0.0215
1025.00,0.0202
1024.00,0.0188
1023.00,0.0175
1022.00,0.0164
1021.00,0.0154
1020.00,0.0145
1019.00,0.0137
1018.00,0.0130
1017.00,0.0125
1016.00,0.0120
1015.00,0.0117
1014.00,0.0113
1013.00,0.0111
1012.00,0.0109
1011.00,0.0108
1010.00,0.0107
1009.00,0.0106
1008.00,0.0105
1007.00,0.0106
1006.00,0.0108
1005.00,0.0110
1004.00,0.0112
1003.00,0.0112
1002.00,0.0109
1001.00,0.0105
1000.00,0.0100
999.00,0.0095
998.00,0.0090
997.00,0.0087
996.00,0.0085
995.00,0.0083
994.00,0.0082
993.00,0.0082
992.00,0.0082
991.00,0.0082
990.00,0.0082
989.00,0.0083
988.00,0.0085
987.00,0.0088
986.00,0.0090
985.00,0.0093
984.00,0.0095
983.00,0.0097
982.00,0.0098
981.00,0.0099
980.00,0.0100
979.00,0.0100
978.00,0.0099
977.00,0.0097
976.00,0.0095
975.00,0.0092
974.00,0.0090
973.00,0.0089
972.00,0.0090
971.00,0.0092
970.00,0.0095
969.00,0.0097
968.00,0.0099
967.00,0.0101
966.00,0.0104
965.00,0.0105
964.00,0.0106
963.00,0.0106
962.00,0.0104
961.00,0.0100
960.00,0.0096
959.00,0.0092
958.00,0.0088
957.00,0.0084
956.00,0.0081
955.00,0.0079
954.00,0.0079
953.00,0.0079
952.00,0.0081
951.00,0.0082
950.00,0.0083
949.00,0.0083
948.00,0.0084
947.00,0.0085
946.00,0.0086
945.00,0.0087
944.00,0.0087
943.00,0.0087
942.00,0.0086
941.00,0.0085
940.00,0.0084
939.00,0.0083
938.00,0.0082
937.00,0.0080
936.00,0.0079
935.00,0.0076
934.00,0.0074
933.00,0.0072
932.00,0.0070
931.00,0.0068
930.00,0.0066
929.00,0.0065
928.00,0.0065
927.00,0.0066
926.00,0.0066
925.00,0.0068
924.00,0.0069
923.00,0.0070
922.00,0.0071
921.00,0.0073
920.00,0.0075
919.00,0.0077
918.00,0.0081
917.00,0.0085
916.00,0.0089
915.00,0.0095
914.00,0.0103
913.00,0.0111
912.00,0.0120
911.00,0.0130
910.00,0.0140
909.00,0.0148
908.00,0.0155
907.00,0.0160
906.00,0.0161
905.00,0.0158
904.00,0.0153
903.00,0.0145
902.00,0.0135
901.00,0.0124
900.00,0.0113
899.00,0.0102
898.00,0.0093
897.00,0.0085
896.00,0.0079
895.00,0.0074
894.00,0.0070
893.00,0.0067
892.00,0.0065
891.00,0.0064
890.00,0.0062
889.00,0.0059
888.00,0.0058
887.00,0.0057
886.00,0.0057
885.00,0.0056
884.00,0.0056
883.00,0.0056
882.00,0.0055
881.00,0.0054
880.00,0.0053
879.00,0.0051
878.00,0.0050
877.00,0.0049
876.00,0.0048
875.00,0.0048
874.00,0.0048
873.00,0.0047
872.00,0.0047
871.00,0.0047
870.00,0.0048
869.00,0.0048
868.00,0.0048
867.00,0.0048
866.00,0.0047
865.00,0.0046
864.00,0.0045
863.00,0.0045
862.00,0.0045
861.00,0.0046
860.00,0.0047
859.00,0.0047
858.00,0.0047
857.00,0.0048
856.00,0.0049
855.00,0.0050
854.00,0.0052
853.00,0.0053
852.00,0.0055
851.00,0.0056
850.00,0.0059
849.00,0.0062
848.00,0.0067
847.00,0.0072
846.00,0.0077
845.00,0.0082
844.00,0.0085
843.00,0.0086
842.00,0.0087
841.00,0.0087
840.00,0.0087
839.00,0.0084
838.00,0.0081
837.00,0.0077
836.00,0.0072
835.00,0.0067
834.00,0.0062
833.00,0.0058
832.00,0.0055
831.00,0.0054
830.00,0.0053
829.00,0.0053
828.00,0.0052
827.00,0.0051
826.00,0.0051
825.00,0.0050
824.00,0.0050
823.00,0.0050
822.00,0.0050
821.00,0.0049
820.00,0.0048
819.00,0.0047
818.00,0.0047
817.00,0.0048
816.00,0.0049
815.00,0.0051
814.00,0.0052
813.00,0.0053
812.00,0.0054
811.00,0.0054
810.00,0.0055
809.00,0.0055
808.00,0.0054
807.00,0.0054
806.00,0.0053
805.00,0.0053
804.00,0.0054
803.00,0.0055
802.00,0.0056
801.00,0.0058
800.00,0.0059
799.00,0.0061
798.00,0.0063
797.00,0.0065
796.00,0.0067
795.00,0.0069
794.00,0.0072
793.00,0.0075
792.00,0.0078
791.00,0.0082
790.00,0.0085
789.00,0.0089
788.00,0.0094
787.00,0.0099
786.00,0.0104
785.00,0.0109
784.00,0.0115
783.00,0.0121
782.00,0.0128
781.00,0.0136
780.00,0.0145
779.00,0.0156
778.00,0.0168
777.00,0.0182
776.00,0.0196
775.00,0.0212
774.00,0.0229
773.00,0.0248
772.00,0.0269
771.00,0.0292
770.00,0.0316
769.00,0.0339
768.00,0.0362
767.00,0.0386
766.00,0.0409
765.00,0.0432
764.00,0.0454
763.00,0.0477
762.00,0.0501
761.00,0.0525
760.00,0.0550
759.00,0.0573
758.00,0.0593
757.00,0.0608
756.00,0.0619
755.00,0.0624
754.00,0.0625
753.00,0.0625
752.00,0.0624
751.00,0.0623
750.00,0.0623
749.00,0.0623
748.00,0.0620
747.00,0.0612
746.00,0.0596
745.00,0.0571
744.00,0.0539
743.00,0.0501
742.00,0.0460
741.00,0.0421
740.00,0.0384
739.00,0.0350
738.00,0.0318
737.00,0.0288
736.00,0.0260
735.00,0.0234
734.00,0.0208
733.00,0.0183
732.00,0.0162
731.00,0.0145
730.00,0.0132
729.00,0.0122
728.00,0.0115
727.00,0.0109
726.00,0.0104
725.00,0.0101
724.00,0.0100
723.00,0.0099
722.00,0.0099
721.00,0.0100
720.00,0.0101
719.00,0.0103
718.00,0.0105
717.00,0.0108
716.00,0.0113
715.00,0.0120
714.00,0.0129
713.00,0.0143
712.00,0.0162
711.00,0.0189
710.00,0.0226
709.00,0.0273
708.00,0.0333
707.00,0.0405
706.00,0.0492
705.00,0.0594
704.00,0.0710
703.00,0.0838
702.00,0.0975
701.00,0.1119
700.00,0.1267
699.00,0.1416
698.00,0.1562
697.00,0.1698
696.00,0.1807
695.00,0.1867
694.00,0.1857
693.00,0.1770
692.00,0.1620
691.00,0.1439
690.00,0.1256
689.00,0.1091
688.00,0.0951
687.00,0.0838
686.00,0.0747
685.00,0.0675
684.00,0.0616
683.00,0.0567
682.00,0.0525
681.00,0.0489
680.00,0.0458
679.00,0.0430
678.00,0.0406
677.00,0.0386
676.00,0.0369
675.00,0.0354
674.00,0.0342
673.00,0.0331
672.00,0.0322
671.00,0.0314
670.00,0.0306
669.00,0.0297
668.00,0.0286
667.00,0.0274
666.00,0.0265
665.00,0.0258
664.00,0.0250
663.00,0.0241
662.00,0.0232
661.00,0.0224
660.00,0.0218
659.00,0.0211
658.00,0.0204
657.00,0.0197
656.00,0.0189
655.00,0.0182
654.00,0.0177
653.00,0.0172
652.00,0.0168
651.00,0.0165
650.00,0.0161
649.00,0.0158
648.00,0.0154
647.00,0.0150
646.00,0.0146
645.00,0.0144
644.00,0.0143
643.00,0.0143
642.00,0.0143
641.00,0.0143
640.00,0.0143
639.00,0.0143
638.00,0.0144
637.00,0.0146
636.00,0.0149
635.00,0.0152
634.00,0.0154
633.00,0.0156
632.00,0.0158
631.00,0.0161
630.00,0.0164
629.00,0.0167
628.00,0.0169
627.00,0.0170
626.00,0.0170
625.00,0.0171
624.00,0.0173
623.00,0.0175
622.00,0.0177
621.00,0.0179
620.00,0.0179
619.00,0.0177
618.00,0.0173
617.00,0.0169
616.00,0.0165
615.00,0.0162
614.00,0.0159
613.00,0.0156
612.00,0.0155
611.00,0.0154
610.00,0.0154
609.00,0.0152
608.00,0.0149
607.00,0.0146
606.00,0.0145
605.00,0.0145
604.00,0.0145
603.00,0.0146
602.00,0.0147
601.00,0.0147
600.00,0.0148
599.00,0.0150
598.00,0.0152
597.00,0.0154
596.00,0.0155
595.00,0.0157
594.00,0.0158
593.00,0.0160
592.00,0.0161
591.00,0.0162
590.00,0.0162
589.00,0.0163
588.00,0.0166
587.00,0.0168
586.00,0.0171
585.00,0.0174
584.00,0.0177
583.00,0.0180
582.00,0.0183
581.00,0.0188
580.00,0.0196
579.00,0.0205
578.00,0.0214
577.00,0.0221
576.00,0.0228
575.00,0.0234
574.00,0.0242
573.00,0.0251
572.00,0.0261
571.00,0.0270
570.00,0.0280
569.00,0.0288
568.00,0.0296
567.00,0.0303
566.00,0.0310
565.00,0.0318
564.00,0.0327
563.00,0.0336
562.00,0.0345
561.00,0.0355
560.00,0.0365
559.00,0.0374
558.00,0.0382
557.00,0.0388
556.00,0.0396
555.00,0.0406
554.00,0.0417
553.00,0.0430
552.00,0.0444
551.00,0.0458
550.00,0.0470
549.00,0.0483
548.00,0.0500
547.00,0.0518
546.00,0.0537
545.00,0.0557
544.00,0.0580
543.00,0.0604
542.00,0.0627
541.00,0.0649
540.00,0.0668
539.00,0.0681
538.00,0.0686
537.00,0.0686
536.00,0.0680
535.00,0.0664
534.00,0.0639
533.00,0.0608
532.00,0.0574
531.00,0.0540
530.00,0.0505
529.00,0.0474
528.00,0.0447
527.00,0.0421
526.00,0.0397
525.00,0.0373
524.00,0.0353
523.00,0.0334
522.00,0.0317
521.00,0.0303
520.00,0.0292
519.00,0.0282
518.00,0.0274
517.00,0.0267
516.00,0.0262
515.00,0.0255
514.00,0.0248
513.00,0.0241
512.00,0.0235
511.00,0.0229
510.00,0.0221
509.00,0.0212
508.00,0.0204
507.00,0.0198
506.00,0.0194
505.00,0.0193
504.00,0.0195
503.00,0.0195
502.00,0.0192
501.00,0.0187
500.00,0.0181
499.00,0.0175
498.00,0.0170
497.00,0.0165
496.00,0.0162
495.00,0.0159
494.00,0.0156
493.00,0.0152
492.00,0.0150
491.00,0.0148
490.00,0.0146
489.00,0.0144
488.00,0.0142
487.00,0.0141
486.00,0.0139
485.00,0.0136
484.00,0.0133
483.00,0.0131
482.00,0.0129
481.00,0.0127
480.00,0.0127
479.00,0.0127
478.00,0.0127
477.00,0.0126
476.00,0.0124
475.00,0.0122
474.00,0.0119
473.00,0.0117
472.00,0.0118
471.00,0.0120
470.00,0.0122
469.00,0.0123
468.00,0.0124
467.00,0.0124
466.00,0.0123
465.00,0.0124
464.00,0.0126
463.00,0.0126
462.00,0.0124
461.00,0.0122
460.00,0.0122
459.00,0.0121
458.00,0.0119
457.00,0.0117
456.00,0.0113
455.00,0.0106
454.00,0.0100
453.00,0.0098
452.00,0.0100
451.00,0.0101
450.00,0.0100
449.00,0.0098
448.00,0.0098
447.00,0.0099
446.00,0.0098
445.00,0.0099
444.00,0.0101
443.00,0.0105
442.00,0.0106
441.00,0.0105
440.00,0.0101
439.00,0.0096
438.00,0.0091
437.00,0.0089
436.00,0.0091
435.00,0.0091
434.00,0.0086
433.00,0.0081
432.00,0.0079
431.00,0.0080
430.00,0.0083
429.00,0.0085
428.00,0.0085
427.00,0.0083
426.00,0.0080
425.00,0.0078
424.00,0.0084
423.00,0.0093
422.00,0.0101
421.00,0.0102
420.00,0.0097
419.00,0.0087
418.00,0.0074
417.00,0.0068
416.00,0.0069
415.00,0.0073
414.00,0.0077
413.00,0.0083
412.00,0.0092
411.00,0.0101
410.00,0.0103
409.00,0.0097
408.00,0.0084
407.00,0.0068
406.00,0.0057
405.00,0.0058
404.00,0.0068
403.00,0.0076
402.00,0.0074
401.00,0.0059
400.00,0.0039
