Created as New Dataset,Sample 498 By YargerLab Date Saturday, April 26 2025
cm-1,A
4000.00,0.0043
3999.00,0.0043
3998.00,0.0043
3997.00,0.0043
3996.00,0.0042
3995.00,0.0042
3994.00,0.0043
3993.00,0.0043
3992.00,0.0043
3991.00,0.0043
3990.00,0.0043
3989.00,0.0043
3988.00,0.0043
3987.00,0.0043
3986.00,0.0043
3985.00,0.0043
3984.00,0.0043
3983.00,0.0043
3982.00,0.0043
3981.00,0.0043
3980.00,0.0043
3979.00,0.0043
3978.00,0.0043
3977.00,0.0043
3976.00,0.0043
3975.00,0.0042
3974.00,0.0042
3973.00,0.0042
3972.00,0.0042
3971.00,0.0043
3970.00,0.0042
3969.00,0.0042
3968.00,0.0042
3967.00,0.0042
3966.00,0.0042
3965.00,0.0043
3964.00,0.0043
3963.00,0.0043
3962.00,0.0042
3961.00,0.0042
3960.00,0.0042
3959.00,0.0042
3958.00,0.0042
3957.00,0.0042
3956.00,0.0042
3955.00,0.0042
3954.00,0.0042
3953.00,0.0042
3952.00,0.0042
3951.00,0.0043
3950.00,0.0043
3949.00,0.0044
3948.00,0.0045
3947.00,0.0045
3946.00,0.0045
3945.00,0.0045
3944.00,0.0044
3943.00,0.0044
3942.00,0.0043
3941.00,0.0043
3940.00,0.0043
3939.00,0.0043
3938.00,0.0043
3937.00,0.0043
3936.00,0.0043
3935.00,0.0044
3934.00,0.0046
3933.00,0.0046
3932.00,0.0046
3931.00,0.0045
3930.00,0.0045
3929.00,0.0045
3928.00,0.0045
3927.00,0.0045
3926.00,0.0044
3925.00,0.0043
3924.00,0.0043
3923.00,0.0043
3922.00,0.0045
3921.00,0.0046
3920.00,0.0047
3919.00,0.0047
3918.00,0.0047
3917.00,0.0046
3916.00,0.0045
3915.00,0.0044
3914.00,0.0044
3913.00,0.0043
3912.00,0.0042
3911.00,0.0042
3910.00,0.0041
3909.00,0.0041
3908.00,0.0042
3907.00,0.0042
3906.00,0.0044
3905.00,0.0046
3904.00,0.0049
3903.00,0.0053
3902.00,0.0055
3901.00,0.0055
3900.00,0.0054
3899.00,0.0052
3898.00,0.0050
3897.00,0.0049
3896.00,0.0048
3895.00,0.0047
3894.00,0.0046
3893.00,0.0044
3892.00,0.0043
3891.00,0.0044
3890.00,0.0045
3889.00,0.0047
3888.00,0.0049
3887.00,0.0051
3886.00,0.0050
3885.00,0.0049
3884.00,0.0048
3883.00,0.0049
3882.00,0.0050
3881.00,0.0050
3880.00,0.0049
3879.00,0.0048
3878.00,0.0049
3877.00,0.0050
3876.00,0.0050
3875.00,0.0049
3874.00,0.0047
3873.00,0.0047
3872.00,0.0049
3871.00,0.0051
3870.00,0.0052
3869.00,0.0051
3868.00,0.0051
3867.00,0.0052
3866.00,0.0053
3865.00,0.0052
3864.00,0.0050
3863.00,0.0049
3862.00,0.0050
3861.00,0.0051
3860.00,0.0051
3859.00,0.0049
3858.00,0.0045
3857.00,0.0042
3856.00,0.0040
3855.00,0.0040
3854.00,0.0041
3853.00,0.0043
3852.00,0.0046
3851.00,0.0048
3850.00,0.0050
3849.00,0.0050
3848.00,0.0050
3847.00,0.0049
3846.00,0.0049
3845.00,0.0049
3844.00,0.0049
3843.00,0.0050
3842.00,0.0051
3841.00,0.0051
3840.00,0.0051
3839.00,0.0051
3838.00,0.0051
3837.00,0.0050
3836.00,0.0050
3835.00,0.0050
3834.00,0.0050
3833.00,0.0050
3832.00,0.0050
3831.00,0.0049
3830.00,0.0049
3829.00,0.0049
3828.00,0.0048
3827.00,0.0047
3826.00,0.0046
3825.00,0.0046
3824.00,0.0048
3823.00,0.0051
3822.00,0.0052
3821.00,0.0051
3820.00,0.0050
3819.00,0.0050
3818.00,0.0051
3817.00,0.0051
3816.00,0.0050
3815.00,0.0047
3814.00,0.0045
3813.00,0.0045
3812.00,0.0045
3811.00,0.0044
3810.00,0.0044
3809.00,0.0044
3808.00,0.0045
3807.00,0.0045
3806.00,0.0046
3805.00,0.0048
3804.00,0.0050
3803.00,0.0052
3802.00,0.0051
3801.00,0.0049
3800.00,0.0047
3799.00,0.0048
3798.00,0.0048
3797.00,0.0048
3796.00,0.0046
3795.00,0.0044
3794.00,0.0042
3793.00,0.0041
3792.00,0.0040
3791.00,0.0039
3790.00,0.0039
3789.00,0.0039
3788.00,0.0039
3787.00,0.0039
3786.00,0.0039
3785.00,0.0039
3784.00,0.0040
3783.00,0.0041
3782.00,0.0042
3781.00,0.0043
3780.00,0.0043
3779.00,0.0042
3778.00,0.0041
3777.00,0.0041
3776.00,0.0040
3775.00,0.0040
3774.00,0.0040
3773.00,0.0040
3772.00,0.0041
3771.00,0.0043
3770.00,0.0044
3769.00,0.0044
3768.00,0.0045
3767.00,0.0046
3766.00,0.0047
3765.00,0.0046
3764.00,0.0046
3763.00,0.0046
3762.00,0.0048
3761.00,0.0049
3760.00,0.0049
3759.00,0.0048
3758.00,0.0048
3757.00,0.0049
3756.00,0.0049
3755.00,0.0051
3754.00,0.0053
3753.00,0.0055
3752.00,0.0056
3751.00,0.0058
3750.00,0.0060
3749.00,0.0061
3748.00,0.0060
3747.00,0.0060
3746.00,0.0061
3745.00,0.0061
3744.00,0.0059
3743.00,0.0057
3742.00,0.0057
3741.00,0.0059
3740.00,0.0061
3739.00,0.0063
3738.00,0.0065
3737.00,0.0066
3736.00,0.0064
3735.00,0.0062
3734.00,0.0060
3733.00,0.0059
3732.00,0.0058
3731.00,0.0055
3730.00,0.0053
3729.00,0.0052
3728.00,0.0052
3727.00,0.0051
3726.00,0.0049
3725.00,0.0048
3724.00,0.0048
3723.00,0.0048
3722.00,0.0048
3721.00,0.0047
3720.00,0.0046
3719.00,0.0045
3718.00,0.0044
3717.00,0.0044
3716.00,0.0045
3715.00,0.0046
3714.00,0.0048
3713.00,0.0050
3712.00,0.0050
3711.00,0.0050
3710.00,0.0050
3709.00,0.0049
3708.00,0.0049
3707.00,0.0047
3706.00,0.0046
3705.00,0.0045
3704.00,0.0044
3703.00,0.0044
3702.00,0.0042
3701.00,0.0042
3700.00,0.0042
3699.00,0.0042
3698.00,0.0042
3697.00,0.0042
3696.00,0.0042
3695.00,0.0042
3694.00,0.0043
3693.00,0.0044
3692.00,0.0045
3691.00,0.0045
3690.00,0.0046
3689.00,0.0048
3688.00,0.0049
3687.00,0.0049
3686.00,0.0048
3685.00,0.0048
3684.00,0.0048
3683.00,0.0048
3682.00,0.0048
3681.00,0.0049
3680.00,0.0049
3679.00,0.0050
3678.00,0.0052
3677.00,0.0055
3676.00,0.0057
3675.00,0.0057
3674.00,0.0056
3673.00,0.0057
3672.00,0.0059
3671.00,0.0059
3670.00,0.0056
3669.00,0.0053
3668.00,0.0052
3667.00,0.0052
3666.00,0.0051
3665.00,0.0050
3664.00,0.0049
3663.00,0.0048
3662.00,0.0048
3661.00,0.0048
3660.00,0.0048
3659.00,0.0049
3658.00,0.0050
3657.00,0.0051
3656.00,0.0052
3655.00,0.0054
3654.00,0.0057
3653.00,0.0061
3652.00,0.0066
3651.00,0.0069
3650.00,0.0071
3649.00,0.0072
3648.00,0.0073
3647.00,0.0072
3646.00,0.0070
3645.00,0.0066
3644.00,0.0063
3643.00,0.0060
3642.00,0.0057
3641.00,0.0056
3640.00,0.0055
3639.00,0.0056
3638.00,0.0057
3637.00,0.0058
3636.00,0.0059
3635.00,0.0061
3634.00,0.0062
3633.00,0.0063
3632.00,0.0065
3631.00,0.0067
3630.00,0.0069
3629.00,0.0070
3628.00,0.0071
3627.00,0.0072
3626.00,0.0073
3625.00,0.0073
3624.00,0.0072
3623.00,0.0071
3622.00,0.0071
3621.00,0.0071
3620.00,0.0071
3619.00,0.0072
3618.00,0.0074
3617.00,0.0076
3616.00,0.0079
3615.00,0.0080
3614.00,0.0080
3613.00,0.0080
3612.00,0.0080
3611.00,0.0081
3610.00,0.0082
3609.00,0.0083
3608.00,0.0082
3607.00,0.0080
3606.00,0.0079
3605.00,0.0079
3604.00,0.0079
3603.00,0.0078
3602.00,0.0078
3601.00,0.0078
3600.00,0.0078
3599.00,0.0079
3598.00,0.0080
3597.00,0.0081
3596.00,0.0082
3595.00,0.0082
3594.00,0.0083
3593.00,0.0083
3592.00,0.0084
3591.00,0.0086
3590.00,0.0087
3589.00,0.0088
3588.00,0.0088
3587.00,0.0088
3586.00,0.0089
3585.00,0.0090
3584.00,0.0090
3583.00,0.0090
3582.00,0.0089
3581.00,0.0088
3580.00,0.0087
3579.00,0.0087
3578.00,0.0087
3577.00,0.0088
3576.00,0.0088
3575.00,0.0089
3574.00,0.0090
3573.00,0.0091
3572.00,0.0092
3571.00,0.0094
3570.00,0.0097
3569.00,0.0099
3568.00,0.0101
3567.00,0.0102
3566.00,0.0103
3565.00,0.0103
3564.00,0.0104
3563.00,0.0103
3562.00,0.0102
3561.00,0.0101
3560.00,0.0100
3559.00,0.0100
3558.00,0.0100
3557.00,0.0100
3556.00,0.0100
3555.00,0.0101
3554.00,0.0102
3553.00,0.0102
3552.00,0.0103
3551.00,0.0104
3550.00,0.0106
3549.00,0.0108
3548.00,0.0109
3547.00,0.0110
3546.00,0.0110
3545.00,0.0110
3544.00,0.0110
3543.00,0.0110
3542.00,0.0110
3541.00,0.0110
3540.00,0.0110
3539.00,0.0110
3538.00,0.0110
3537.00,0.0110
3536.00,0.0111
3535.00,0.0111
3534.00,0.0112
3533.00,0.0113
3532.00,0.0114
3531.00,0.0115
3530.00,0.0115
3529.00,0.0116
3528.00,0.0117
3527.00,0.0118
3526.00,0.0119
3525.00,0.0120
3524.00,0.0120
3523.00,0.0120
3522.00,0.0120
3521.00,0.0119
3520.00,0.0119
3519.00,0.0119
3518.00,0.0119
3517.00,0.0119
3516.00,0.0119
3515.00,0.0119
3514.00,0.0120
3513.00,0.0121
3512.00,0.0121
3511.00,0.0122
3510.00,0.0122
3509.00,0.0122
3508.00,0.0123
3507.00,0.0124
3506.00,0.0125
3505.00,0.0125
3504.00,0.0126
3503.00,0.0126
3502.00,0.0127
3501.00,0.0127
3500.00,0.0128
3499.00,0.0128
3498.00,0.0127
3497.00,0.0127
3496.00,0.0127
3495.00,0.0127
3494.00,0.0128
3493.00,0.0128
3492.00,0.0129
3491.00,0.0129
3490.00,0.0129
3489.00,0.0130
3488.00,0.0130
3487.00,0.0130
3486.00,0.0130
3485.00,0.0130
3484.00,0.0130
3483.00,0.0130
3482.00,0.0130
3481.00,0.0131
3480.00,0.0131
3479.00,0.0132
3478.00,0.0132
3477.00,0.0131
3476.00,0.0131
3475.00,0.0131
3474.00,0.0131
3473.00,0.0132
3472.00,0.0132
3471.00,0.0133
3470.00,0.0133
3469.00,0.0133
3468.00,0.0134
3467.00,0.0134
3466.00,0.0133
3465.00,0.0133
3464.00,0.0133
3463.00,0.0133
3462.00,0.0134
3461.00,0.0134
3460.00,0.0134
3459.00,0.0134
3458.00,0.0134
3457.00,0.0134
3456.00,0.0133
3455.00,0.0133
3454.00,0.0133
3453.00,0.0133
3452.00,0.0134
3451.00,0.0134
3450.00,0.0134
3449.00,0.0134
3448.00,0.0134
3447.00,0.0134
3446.00,0.0135
3445.00,0.0135
3444.00,0.0135
3443.00,0.0135
3442.00,0.0135
3441.00,0.0135
3440.00,0.0135
3439.00,0.0135
3438.00,0.0136
3437.00,0.0136
3436.00,0.0137
3435.00,0.0137
3434.00,0.0137
3433.00,0.0137
3432.00,0.0138
3431.00,0.0138
3430.00,0.0139
3429.00,0.0140
3428.00,0.0140
3427.00,0.0140
3426.00,0.0141
3425.00,0.0141
3424.00,0.0142
3423.00,0.0142
3422.00,0.0143
3421.00,0.0144
3420.00,0.0145
3419.00,0.0146
3418.00,0.0147
3417.00,0.0147
3416.00,0.0148
3415.00,0.0148
3414.00,0.0148
3413.00,0.0149
3412.00,0.0150
3411.00,0.0151
3410.00,0.0152
3409.00,0.0153
3408.00,0.0153
3407.00,0.0154
3406.00,0.0154
3405.00,0.0155
3404.00,0.0155
3403.00,0.0156
3402.00,0.0156
3401.00,0.0157
3400.00,0.0157
3399.00,0.0158
3398.00,0.0158
3397.00,0.0159
3396.00,0.0159
3395.00,0.0159
3394.00,0.0160
3393.00,0.0160
3392.00,0.0160
3391.00,0.0161
3390.00,0.0162
3389.00,0.0163
3388.00,0.0164
3387.00,0.0164
3386.00,0.0165
3385.00,0.0165
3384.00,0.0166
3383.00,0.0166
3382.00,0.0167
3381.00,0.0168
3380.00,0.0169
3379.00,0.0169
3378.00,0.0170
3377.00,0.0171
3376.00,0.0171
3375.00,0.0172
3374.00,0.0173
3373.00,0.0174
3372.00,0.0175
3371.00,0.0176
3370.00,0.0177
3369.00,0.0177
3368.00,0.0178
3367.00,0.0180
3366.00,0.0181
3365.00,0.0182
3364.00,0.0183
3363.00,0.0184
3362.00,0.0185
3361.00,0.0186
3360.00,0.0187
3359.00,0.0188
3358.00,0.0189
3357.00,0.0191
3356.00,0.0192
3355.00,0.0194
3354.00,0.0195
3353.00,0.0197
3352.00,0.0199
3351.00,0.0200
3350.00,0.0202
3349.00,0.0204
3348.00,0.0205
3347.00,0.0207
3346.00,0.0209
3345.00,0.0211
3344.00,0.0213
3343.00,0.0215
3342.00,0.0217
3341.00,0.0219
3340.00,0.0222
3339.00,0.0224
3338.00,0.0227
3337.00,0.0229
3336.00,0.0232
3335.00,0.0235
3334.00,0.0238
3333.00,0.0242
3332.00,0.0245
3331.00,0.0247
3330.00,0.0250
3329.00,0.0253
3328.00,0.0255
3327.00,0.0258
3326.00,0.0261
3325.00,0.0265
3324.00,0.0269
3323.00,0.0272
3322.00,0.0276
3321.00,0.0280
3320.00,0.0284
3319.00,0.0288
3318.00,0.0292
3317.00,0.0296
3316.00,0.0300
3315.00,0.0304
3314.00,0.0309
3313.00,0.0313
3312.00,0.0318
3311.00,0.0322
3310.00,0.0326
3309.00,0.0331
3308.00,0.0335
3307.00,0.0339
3306.00,0.0344
3305.00,0.0349
3304.00,0.0353
3303.00,0.0358
3302.00,0.0363
3301.00,0.0367
3300.00,0.0371
3299.00,0.0376
3298.00,0.0380
3297.00,0.0384
3296.00,0.0388
3295.00,0.0392
3294.00,0.0395
3293.00,0.0397
3292.00,0.0400
3291.00,0.0402
3290.00,0.0404
3289.00,0.0406
3288.00,0.0408
3287.00,0.0409
3286.00,0.0410
3285.00,0.0411
3284.00,0.0411
3283.00,0.0411
3282.00,0.0410
3281.00,0.0409
3280.00,0.0408
3279.00,0.0406
3278.00,0.0405
3277.00,0.0403
3276.00,0.0400
3275.00,0.0398
3274.00,0.0395
3273.00,0.0391
3272.00,0.0387
3271.00,0.0383
3270.00,0.0379
3269.00,0.0375
3268.00,0.0371
3267.00,0.0367
3266.00,0.0363
3265.00,0.0359
3264.00,0.0354
3263.00,0.0350
3262.00,0.0346
3261.00,0.0342
3260.00,0.0339
3259.00,0.0335
3258.00,0.0331
3257.00,0.0327
3256.00,0.0323
3255.00,0.0319
3254.00,0.0316
3253.00,0.0313
3252.00,0.0310
3251.00,0.0306
3250.00,0.0303
3249.00,0.0299
3248.00,0.0296
3247.00,0.0294
3246.00,0.0291
3245.00,0.0289
3244.00,0.0286
3243.00,0.0284
3242.00,0.0281
3241.00,0.0279
3240.00,0.0276
3239.00,0.0273
3238.00,0.0271
3237.00,0.0268
3236.00,0.0265
3235.00,0.0263
3234.00,0.0261
3233.00,0.0259
3232.00,0.0258
3231.00,0.0256
3230.00,0.0254
3229.00,0.0252
3228.00,0.0250
3227.00,0.0248
3226.00,0.0246
3225.00,0.0243
3224.00,0.0241
3223.00,0.0239
3222.00,0.0237
3221.00,0.0235
3220.00,0.0234
3219.00,0.0232
3218.00,0.0231
3217.00,0.0229
3216.00,0.0226
3215.00,0.0224
3214.00,0.0222
3213.00,0.0220
3212.00,0.0218
3211.00,0.0217
3210.00,0.0215
3209.00,0.0213
3208.00,0.0212
3207.00,0.0210
3206.00,0.0207
3205.00,0.0205
3204.00,0.0203
3203.00,0.0202
3202.00,0.0200
3201.00,0.0199
3200.00,0.0197
3199.00,0.0196
3198.00,0.0194
3197.00,0.0192
3196.00,0.0191
3195.00,0.0189
3194.00,0.0187
3193.00,0.0185
3192.00,0.0183
3191.00,0.0181
3190.00,0.0180
3189.00,0.0178
3188.00,0.0177
3187.00,0.0175
3186.00,0.0174
3185.00,0.0172
3184.00,0.0171
3183.00,0.0169
3182.00,0.0167
3181.00,0.0166
3180.00,0.0164
3179.00,0.0163
3178.00,0.0161
3177.00,0.0160
3176.00,0.0158
3175.00,0.0156
3174.00,0.0155
3173.00,0.0154
3172.00,0.0152
3171.00,0.0151
3170.00,0.0150
3169.00,0.0149
3168.00,0.0147
3167.00,0.0146
3166.00,0.0145
3165.00,0.0143
3164.00,0.0142
3163.00,0.0141
3162.00,0.0140
3161.00,0.0139
3160.00,0.0138
3159.00,0.0137
3158.00,0.0137
3157.00,0.0136
3156.00,0.0135
3155.00,0.0134
3154.00,0.0132
3153.00,0.0131
3152.00,0.0131
3151.00,0.0130
3150.00,0.0129
3149.00,0.0128
3148.00,0.0127
3147.00,0.0127
3146.00,0.0126
3145.00,0.0126
3144.00,0.0125
3143.00,0.0124
3142.00,0.0123
3141.00,0.0123
3140.00,0.0122
3139.00,0.0122
3138.00,0.0121
3137.00,0.0121
3136.00,0.0121
3135.00,0.0121
3134.00,0.0120
3133.00,0.0120
3132.00,0.0120
3131.00,0.0120
3130.00,0.0120
3129.00,0.0119
3128.00,0.0119
3127.00,0.0119
3126.00,0.0118
3125.00,0.0118
3124.00,0.0118
3123.00,0.0118
3122.00,0.0118
3121.00,0.0118
3120.00,0.0118
3119.00,0.0118
3118.00,0.0118
3117.00,0.0118
3116.00,0.0118
3115.00,0.0119
3114.00,0.0119
3113.00,0.0120
3112.00,0.0120
3111.00,0.0120
3110.00,0.0120
3109.00,0.0120
3108.00,0.0121
3107.00,0.0121
3106.00,0.0122
3105.00,0.0122
3104.00,0.0123
3103.00,0.0123
3102.00,0.0124
3101.00,0.0125
3100.00,0.0125
3099.00,0.0126
3098.00,0.0126
3097.00,0.0127
3096.00,0.0127
3095.00,0.0127
3094.00,0.0128
3093.00,0.0128
3092.00,0.0128
3091.00,0.0128
3090.00,0.0129
3089.00,0.0130
3088.00,0.0130
3087.00,0.0131
3086.00,0.0131
3085.00,0.0131
3084.00,0.0131
3083.00,0.0131
3082.00,0.0131
3081.00,0.0131
3080.00,0.0131
3079.00,0.0131
3078.00,0.0132
3077.00,0.0132
3076.00,0.0133
3075.00,0.0133
3074.00,0.0132
3073.00,0.0132
3072.00,0.0132
3071.00,0.0133
3070.00,0.0132
3069.00,0.0132
3068.00,0.0131
3067.00,0.0131
3066.00,0.0130
3065.00,0.0130
3064.00,0.0130
3063.00,0.0129
3062.00,0.0129
3061.00,0.0128
3060.00,0.0127
3059.00,0.0127
3058.00,0.0126
3057.00,0.0125
3056.00,0.0124
3055.00,0.0123
3054.00,0.0122
3053.00,0.0120
3052.00,0.0119
3051.00,0.0118
3050.00,0.0118
3049.00,0.0117
3048.00,0.0116
3047.00,0.0114
3046.00,0.0113
3045.00,0.0111
3044.00,0.0110
3043.00,0.0110
3042.00,0.0109
3041.00,0.0108
3040.00,0.0108
3039.00,0.0107
3038.00,0.0106
3037.00,0.0105
3036.00,0.0104
3035.00,0.0104
3034.00,0.0103
3033.00,0.0103
3032.00,0.0103
3031.00,0.0102
3030.00,0.0101
3029.00,0.0100
3028.00,0.0099
3027.00,0.0098
3026.00,0.0097
3025.00,0.0097
3024.00,0.0096
3023.00,0.0095
3022.00,0.0095
3021.00,0.0094
3020.00,0.0094
3019.00,0.0093
3018.00,0.0093
3017.00,0.0092
3016.00,0.0092
3015.00,0.0091
3014.00,0.0091
3013.00,0.0091
3012.00,0.0091
3011.00,0.0090
3010.00,0.0090
3009.00,0.0091
3008.00,0.0091
3007.00,0.0091
3006.00,0.0090
3005.00,0.0090
3004.00,0.0091
3003.00,0.0091
3002.00,0.0091
3001.00,0.0091
3000.00,0.0091
2999.00,0.0092
2998.00,0.0092
2997.00,0.0093
2996.00,0.0093
2995.00,0.0094
2994.00,0.0094
2993.00,0.0095
2992.00,0.0096
2991.00,0.0097
2990.00,0.0098
2989.00,0.0099
2988.00,0.0099
2987.00,0.0100
2986.00,0.0101
2985.00,0.0102
2984.00,0.0103
2983.00,0.0104
2982.00,0.0104
2981.00,0.0105
2980.00,0.0105
2979.00,0.0106
2978.00,0.0106
2977.00,0.0106
2976.00,0.0107
2975.00,0.0107
2974.00,0.0107
2973.00,0.0108
2972.00,0.0108
2971.00,0.0109
2970.00,0.0109
2969.00,0.0109
2968.00,0.0110
2967.00,0.0110
2966.00,0.0110
2965.00,0.0110
2964.00,0.0110
2963.00,0.0110
2962.00,0.0109
2961.00,0.0109
2960.00,0.0109
2959.00,0.0109
2958.00,0.0109
2957.00,0.0109
2956.00,0.0108
2955.00,0.0108
2954.00,0.0107
2953.00,0.0107
2952.00,0.0106
2951.00,0.0106
2950.00,0.0106
2949.00,0.0106
2948.00,0.0107
2947.00,0.0108
2946.00,0.0109
2945.00,0.0110
2944.00,0.0112
2943.00,0.0114
2942.00,0.0117
2941.00,0.0119
2940.00,0.0122
2939.00,0.0124
2938.00,0.0127
2937.00,0.0129
2936.00,0.0132
2935.00,0.0135
2934.00,0.0138
2933.00,0.0141
2932.00,0.0144
2931.00,0.0147
2930.00,0.0149
2929.00,0.0152
2928.00,0.0154
2927.00,0.0156
2926.00,0.0158
2925.00,0.0160
2924.00,0.0162
2923.00,0.0164
2922.00,0.0165
2921.00,0.0166
2920.00,0.0165
2919.00,0.0164
2918.00,0.0162
2917.00,0.0159
2916.00,0.0155
2915.00,0.0149
2914.00,0.0143
2913.00,0.0138
2912.00,0.0132
2911.00,0.0128
2910.00,0.0123
2909.00,0.0120
2908.00,0.0116
2907.00,0.0114
2906.00,0.0111
2905.00,0.0109
2904.00,0.0107
2903.00,0.0106
2902.00,0.0105
2901.00,0.0103
2900.00,0.0102
2899.00,0.0100
2898.00,0.0099
2897.00,0.0098
2896.00,0.0096
2895.00,0.0095
2894.00,0.0094
2893.00,0.0093
2892.00,0.0092
2891.00,0.0091
2890.00,0.0090
2889.00,0.0089
2888.00,0.0088
2887.00,0.0087
2886.00,0.0087
2885.00,0.0086
2884.00,0.0086
2883.00,0.0085
2882.00,0.0085
2881.00,0.0085
2880.00,0.0085
2879.00,0.0086
2878.00,0.0086
2877.00,0.0086
2876.00,0.0087
2875.00,0.0087
2874.00,0.0087
2873.00,0.0087
2872.00,0.0086
2871.00,0.0086
2870.00,0.0085
2869.00,0.0084
2868.00,0.0083
2867.00,0.0082
2866.00,0.0082
2865.00,0.0082
2864.00,0.0082
2863.00,0.0083
2862.00,0.0085
2861.00,0.0086
2860.00,0.0088
2859.00,0.0090
2858.00,0.0092
2857.00,0.0094
2856.00,0.0097
2855.00,0.0101
2854.00,0.0104
2853.00,0.0107
2852.00,0.0109
2851.00,0.0111
2850.00,0.0110
2849.00,0.0107
2848.00,0.0103
2847.00,0.0098
2846.00,0.0092
2845.00,0.0086
2844.00,0.0081
2843.00,0.0077
2842.00,0.0073
2841.00,0.0070
2840.00,0.0068
2839.00,0.0066
2838.00,0.0065
2837.00,0.0064
2836.00,0.0063
2835.00,0.0062
2834.00,0.0061
2833.00,0.0061
2832.00,0.0060
2831.00,0.0059
2830.00,0.0059
2829.00,0.0058
2828.00,0.0058
2827.00,0.0058
2826.00,0.0058
2825.00,0.0057
2824.00,0.0057
2823.00,0.0057
2822.00,0.0057
2821.00,0.0057
2820.00,0.0057
2819.00,0.0056
2818.00,0.0056
2817.00,0.0056
2816.00,0.0056
2815.00,0.0056
2814.00,0.0056
2813.00,0.0056
2812.00,0.0056
2811.00,0.0055
2810.00,0.0055
2809.00,0.0055
2808.00,0.0055
2807.00,0.0055
2806.00,0.0054
2805.00,0.0054
2804.00,0.0054
2803.00,0.0054
2802.00,0.0054
2801.00,0.0054
2800.00,0.0054
2799.00,0.0054
2798.00,0.0053
2797.00,0.0053
2796.00,0.0053
2795.00,0.0053
2794.00,0.0053
2793.00,0.0052
2792.00,0.0052
2791.00,0.0052
2790.00,0.0052
2789.00,0.0051
2788.00,0.0051
2787.00,0.0050
2786.00,0.0050
2785.00,0.0050
2784.00,0.0050
2783.00,0.0050
2782.00,0.0050
2781.00,0.0050
2780.00,0.0050
2779.00,0.0049
2778.00,0.0049
2777.00,0.0049
2776.00,0.0049
2775.00,0.0049
2774.00,0.0049
2773.00,0.0048
2772.00,0.0048
2771.00,0.0048
2770.00,0.0047
2769.00,0.0047
2768.00,0.0046
2767.00,0.0046
2766.00,0.0046
2765.00,0.0046
2764.00,0.0046
2763.00,0.0046
2762.00,0.0046
2761.00,0.0046
2760.00,0.0046
2759.00,0.0046
2758.00,0.0046
2757.00,0.0045
2756.00,0.0045
2755.00,0.0044
2754.00,0.0044
2753.00,0.0044
2752.00,0.0044
2751.00,0.0044
2750.00,0.0044
2749.00,0.0043
2748.00,0.0043
2747.00,0.0043
2746.00,0.0043
2745.00,0.0043
2744.00,0.0043
2743.00,0.0043
2742.00,0.0042
2741.00,0.0042
2740.00,0.0042
2739.00,0.0042
2738.00,0.0041
2737.00,0.0041
2736.00,0.0041
2735.00,0.0041
2734.00,0.0041
2733.00,0.0041
2732.00,0.0041
2731.00,0.0041
2730.00,0.0040
2729.00,0.0040
2728.00,0.0040
2727.00,0.0040
2726.00,0.0040
2725.00,0.0040
2724.00,0.0040
2723.00,0.0040
2722.00,0.0039
2721.00,0.0039
2720.00,0.0039
2719.00,0.0039
2718.00,0.0039
2717.00,0.0039
2716.00,0.0038
2715.00,0.0038
2714.00,0.0038
2713.00,0.0038
2712.00,0.0038
2711.00,0.0038
2710.00,0.0038
2709.00,0.0038
2708.00,0.0038
2707.00,0.0038
2706.00,0.0038
2705.00,0.0037
2704.00,0.0037
2703.00,0.0037
2702.00,0.0037
2701.00,0.0037
2700.00,0.0037
2699.00,0.0037
2698.00,0.0037
2697.00,0.0037
2696.00,0.0036
2695.00,0.0036
2694.00,0.0036
2693.00,0.0036
2692.00,0.0036
2691.00,0.0036
2690.00,0.0037
2689.00,0.0037
2688.00,0.0036
2687.00,0.0036
2686.00,0.0036
2685.00,0.0036
2684.00,0.0036
2683.00,0.0036
2682.00,0.0036
2681.00,0.0036
2680.00,0.0036
2679.00,0.0036
2678.00,0.0036
2677.00,0.0035
2676.00,0.0035
2675.00,0.0035
2674.00,0.0035
2673.00,0.0035
2672.00,0.0035
2671.00,0.0035
2670.00,0.0034
2669.00,0.0034
2668.00,0.0034
2667.00,0.0034
2666.00,0.0034
2665.00,0.0034
2664.00,0.0034
2663.00,0.0034
2662.00,0.0034
2661.00,0.0034
2660.00,0.0034
2659.00,0.0033
2658.00,0.0033
2657.00,0.0033
2656.00,0.0033
2655.00,0.0033
2654.00,0.0033
2653.00,0.0033
2652.00,0.0033
2651.00,0.0032
2650.00,0.0032
2649.00,0.0032
2648.00,0.0032
2647.00,0.0032
2646.00,0.0032
2645.00,0.0032
2644.00,0.0032
2643.00,0.0032
2642.00,0.0032
2641.00,0.0031
2640.00,0.0031
2639.00,0.0031
2638.00,0.0031
2637.00,0.0032
2636.00,0.0032
2635.00,0.0032
2634.00,0.0032
2633.00,0.0032
2632.00,0.0032
2631.00,0.0032
2630.00,0.0032
2629.00,0.0031
2628.00,0.0031
2627.00,0.0031
2626.00,0.0031
2625.00,0.0031
2624.00,0.0031
2623.00,0.0031
2622.00,0.0032
2621.00,0.0031
2620.00,0.0031
2619.00,0.0031
2618.00,0.0031
2617.00,0.0031
2616.00,0.0031
2615.00,0.0031
2614.00,0.0031
2613.00,0.0031
2612.00,0.0031
2611.00,0.0031
2610.00,0.0030
2609.00,0.0030
2608.00,0.0030
2607.00,0.0030
2606.00,0.0030
2605.00,0.0030
2604.00,0.0030
2603.00,0.0030
2602.00,0.0031
2601.00,0.0031
2600.00,0.0030
2599.00,0.0030
2598.00,0.0030
2597.00,0.0029
2596.00,0.0029
2595.00,0.0029
2594.00,0.0029
2593.00,0.0029
2592.00,0.0029
2591.00,0.0028
2590.00,0.0028
2589.00,0.0028
2588.00,0.0028
2587.00,0.0028
2586.00,0.0028
2585.00,0.0028
2584.00,0.0028
2583.00,0.0028
2582.00,0.0027
2581.00,0.0027
2580.00,0.0027
2579.00,0.0028
2578.00,0.0028
2577.00,0.0029
2576.00,0.0029
2575.00,0.0028
2574.00,0.0028
2573.00,0.0028
2572.00,0.0028
2571.00,0.0028
2570.00,0.0028
2569.00,0.0028
2568.00,0.0027
2567.00,0.0027
2566.00,0.0026
2565.00,0.0026
2564.00,0.0026
2563.00,0.0026
2562.00,0.0026
2561.00,0.0026
2560.00,0.0026
2559.00,0.0026
2558.00,0.0025
2557.00,0.0025
2556.00,0.0025
2555.00,0.0026
2554.00,0.0026
2553.00,0.0026
2552.00,0.0025
2551.00,0.0025
2550.00,0.0025
2549.00,0.0026
2548.00,0.0026
2547.00,0.0026
2546.00,0.0026
2545.00,0.0026
2544.00,0.0025
2543.00,0.0025
2542.00,0.0025
2541.00,0.0025
2540.00,0.0025
2539.00,0.0025
2538.00,0.0025
2537.00,0.0025
2536.00,0.0025
2535.00,0.0025
2534.00,0.0024
2533.00,0.0024
2532.00,0.0024
2531.00,0.0024
2530.00,0.0024
2529.00,0.0024
2528.00,0.0024
2527.00,0.0024
2526.00,0.0025
2525.00,0.0025
2524.00,0.0026
2523.00,0.0026
2522.00,0.0026
2521.00,0.0025
2520.00,0.0025
2519.00,0.0024
2518.00,0.0024
2517.00,0.0023
2516.00,0.0023
2515.00,0.0023
2514.00,0.0024
2513.00,0.0024
2512.00,0.0023
2511.00,0.0023
2510.00,0.0023
2509.00,0.0023
2508.00,0.0023
2507.00,0.0024
2506.00,0.0024
2505.00,0.0025
2504.00,0.0025
2503.00,0.0025
2502.00,0.0025
2501.00,0.0024
2500.00,0.0024
2499.00,0.0023
2498.00,0.0023
2497.00,0.0023
2496.00,0.0023
2495.00,0.0023
2494.00,0.0023
2493.00,0.0023
2492.00,0.0023
2491.00,0.0023
2490.00,0.0023
2489.00,0.0023
2488.00,0.0023
2487.00,0.0023
2486.00,0.0023
2485.00,0.0023
2484.00,0.0022
2483.00,0.0022
2482.00,0.0022
2481.00,0.0023
2480.00,0.0023
2479.00,0.0023
2478.00,0.0023
2477.00,0.0023
2476.00,0.0024
2475.00,0.0024
2474.00,0.0023
2473.00,0.0023
2472.00,0.0023
2471.00,0.0023
2470.00,0.0023
2469.00,0.0023
2468.00,0.0022
2467.00,0.0022
2466.00,0.0022
2465.00,0.0022
2464.00,0.0023
2463.00,0.0023
2462.00,0.0024
2461.00,0.0024
2460.00,0.0024
2459.00,0.0023
2458.00,0.0023
2457.00,0.0023
2456.00,0.0023
2455.00,0.0023
2454.00,0.0023
2453.00,0.0023
2452.00,0.0022
2451.00,0.0022
2450.00,0.0022
2449.00,0.0023
2448.00,0.0023
2447.00,0.0023
2446.00,0.0022
2445.00,0.0022
2444.00,0.0022
2443.00,0.0023
2442.00,0.0023
2441.00,0.0023
2440.00,0.0023
2439.00,0.0022
2438.00,0.0022
2437.00,0.0021
2436.00,0.0021
2435.00,0.0021
2434.00,0.0021
2433.00,0.0022
2432.00,0.0022
2431.00,0.0022
2430.00,0.0022
2429.00,0.0022
2428.00,0.0021
2427.00,0.0021
2426.00,0.0021
2425.00,0.0021
2424.00,0.0021
2423.00,0.0021
2422.00,0.0021
2421.00,0.0020
2420.00,0.0020
2419.00,0.0020
2418.00,0.0020
2417.00,0.0020
2416.00,0.0020
2415.00,0.0020
2414.00,0.0019
2413.00,0.0020
2412.00,0.0020
2411.00,0.0020
2410.00,0.0020
2409.00,0.0020
2408.00,0.0019
2407.00,0.0019
2406.00,0.0018
2405.00,0.0018
2404.00,0.0018
2403.00,0.0019
2402.00,0.0019
2401.00,0.0019
2400.00,0.0019
2399.00,0.0020
2398.00,0.0020
2397.00,0.0020
2396.00,0.0020
2395.00,0.0020
2394.00,0.0020
2393.00,0.0019
2392.00,0.0019
2391.00,0.0020
2390.00,0.0020
2389.00,0.0020
2388.00,0.0020
2387.00,0.0020
2386.00,0.0020
2385.00,0.0020
2384.00,0.0020
2383.00,0.0020
2382.00,0.0020
2381.00,0.0020
2380.00,0.0020
2379.00,0.0021
2378.00,0.0021
2377.00,0.0021
2376.00,0.0020
2375.00,0.0020
2374.00,0.0020
2373.00,0.0019
2372.00,0.0019
2371.00,0.0019
2370.00,0.0019
2369.00,0.0019
2368.00,0.0020
2367.00,0.0020
2366.00,0.0021
2365.00,0.0021
2364.00,0.0021
2363.00,0.0020
2362.00,0.0020
2361.00,0.0020
2360.00,0.0019
2359.00,0.0019
2358.00,0.0020
2357.00,0.0020
2356.00,0.0020
2355.00,0.0020
2354.00,0.0020
2353.00,0.0020
2352.00,0.0020
2351.00,0.0021
2350.00,0.0021
2349.00,0.0021
2348.00,0.0020
2347.00,0.0019
2346.00,0.0018
2345.00,0.0018
2344.00,0.0018
2343.00,0.0019
2342.00,0.0019
2341.00,0.0019
2340.00,0.0020
2339.00,0.0020
2338.00,0.0020
2337.00,0.0021
2336.00,0.0021
2335.00,0.0022
2334.00,0.0022
2333.00,0.0022
2332.00,0.0022
2331.00,0.0021
2330.00,0.0021
2329.00,0.0021
2328.00,0.0021
2327.00,0.0021
2326.00,0.0021
2325.00,0.0022
2324.00,0.0022
2323.00,0.0022
2322.00,0.0021
2321.00,0.0021
2320.00,0.0020
2319.00,0.0020
2318.00,0.0020
2317.00,0.0020
2316.00,0.0020
2315.00,0.0020
2314.00,0.0020
2313.00,0.0020
2312.00,0.0019
2311.00,0.0019
2310.00,0.0019
2309.00,0.0020
2308.00,0.0020
2307.00,0.0020
2306.00,0.0020
2305.00,0.0020
2304.00,0.0020
2303.00,0.0019
2302.00,0.0019
2301.00,0.0019
2300.00,0.0019
2299.00,0.0019
2298.00,0.0019
2297.00,0.0019
2296.00,0.0018
2295.00,0.0018
2294.00,0.0019
2293.00,0.0019
2292.00,0.0020
2291.00,0.0020
2290.00,0.0021
2289.00,0.0020
2288.00,0.0020
2287.00,0.0020
2286.00,0.0019
2285.00,0.0019
2284.00,0.0018
2283.00,0.0018
2282.00,0.0018
2281.00,0.0018
2280.00,0.0017
2279.00,0.0017
2278.00,0.0017
2277.00,0.0016
2276.00,0.0016
2275.00,0.0015
2274.00,0.0015
2273.00,0.0016
2272.00,0.0017
2271.00,0.0018
2270.00,0.0018
2269.00,0.0018
2268.00,0.0018
2267.00,0.0018
2266.00,0.0018
2265.00,0.0018
2264.00,0.0017
2263.00,0.0017
2262.00,0.0017
2261.00,0.0018
2260.00,0.0019
2259.00,0.0019
2258.00,0.0018
2257.00,0.0018
2256.00,0.0018
2255.00,0.0019
2254.00,0.0019
2253.00,0.0018
2252.00,0.0018
2251.00,0.0017
2250.00,0.0016
2249.00,0.0016
2248.00,0.0017
2247.00,0.0017
2246.00,0.0018
2245.00,0.0018
2244.00,0.0017
2243.00,0.0016
2242.00,0.0016
2241.00,0.0016
2240.00,0.0017
2239.00,0.0017
2238.00,0.0017
2237.00,0.0017
2236.00,0.0017
2235.00,0.0017
2234.00,0.0017
2233.00,0.0018
2232.00,0.0018
2231.00,0.0018
2230.00,0.0018
2229.00,0.0018
2228.00,0.0018
2227.00,0.0017
2226.00,0.0017
2225.00,0.0016
2224.00,0.0015
2223.00,0.0014
2222.00,0.0013
2221.00,0.0014
2220.00,0.0014
2219.00,0.0015
2218.00,0.0016
2217.00,0.0016
2216.00,0.0015
2215.00,0.0014
2214.00,0.0014
2213.00,0.0015
2212.00,0.0015
2211.00,0.0016
2210.00,0.0017
2209.00,0.0017
2208.00,0.0018
2207.00,0.0017
2206.00,0.0017
2205.00,0.0017
2204.00,0.0016
2203.00,0.0016
2202.00,0.0016
2201.00,0.0016
2200.00,0.0016
2199.00,0.0015
2198.00,0.0014
2197.00,0.0013
2196.00,0.0012
2195.00,0.0012
2194.00,0.0013
2193.00,0.0014
2192.00,0.0015
2191.00,0.0015
2190.00,0.0014
2189.00,0.0014
2188.00,0.0014
2187.00,0.0014
2186.00,0.0014
2185.00,0.0016
2184.00,0.0017
2183.00,0.0018
2182.00,0.0020
2181.00,0.0021
2180.00,0.0022
2179.00,0.0021
2178.00,0.0020
2177.00,0.0018
2176.00,0.0016
2175.00,0.0015
2174.00,0.0015
2173.00,0.0017
2172.00,0.0019
2171.00,0.0019
2170.00,0.0017
2169.00,0.0016
2168.00,0.0016
2167.00,0.0016
2166.00,0.0017
2165.00,0.0017
2164.00,0.0015
2163.00,0.0014
2162.00,0.0013
2161.00,0.0014
2160.00,0.0015
2159.00,0.0016
2158.00,0.0016
2157.00,0.0015
2156.00,0.0013
2155.00,0.0011
2154.00,0.0010
2153.00,0.0010
2152.00,0.0010
2151.00,0.0012
2150.00,0.0013
2149.00,0.0014
2148.00,0.0015
2147.00,0.0015
2146.00,0.0015
2145.00,0.0015
2144.00,0.0014
2143.00,0.0014
2142.00,0.0014
2141.00,0.0014
2140.00,0.0015
2139.00,0.0017
2138.00,0.0018
2137.00,0.0018
2136.00,0.0017
2135.00,0.0014
2134.00,0.0013
2133.00,0.0013
2132.00,0.0014
2131.00,0.0015
2130.00,0.0016
2129.00,0.0016
2128.00,0.0016
2127.00,0.0015
2126.00,0.0015
2125.00,0.0015
2124.00,0.0015
2123.00,0.0016
2122.00,0.0016
2121.00,0.0017
2120.00,0.0017
2119.00,0.0016
2118.00,0.0016
2117.00,0.0016
2116.00,0.0016
2115.00,0.0016
2114.00,0.0017
2113.00,0.0017
2112.00,0.0018
2111.00,0.0018
2110.00,0.0018
2109.00,0.0018
2108.00,0.0017
2107.00,0.0017
2106.00,0.0017
2105.00,0.0018
2104.00,0.0018
2103.00,0.0019
2102.00,0.0019
2101.00,0.0018
2100.00,0.0018
2099.00,0.0017
2098.00,0.0017
2097.00,0.0018
2096.00,0.0018
2095.00,0.0017
2094.00,0.0017
2093.00,0.0016
2092.00,0.0015
2091.00,0.0015
2090.00,0.0015
2089.00,0.0016
2088.00,0.0017
2087.00,0.0017
2086.00,0.0017
2085.00,0.0017
2084.00,0.0017
2083.00,0.0017
2082.00,0.0017
2081.00,0.0016
2080.00,0.0015
2079.00,0.0014
2078.00,0.0013
2077.00,0.0013
2076.00,0.0014
2075.00,0.0015
2074.00,0.0016
2073.00,0.0016
2072.00,0.0017
2071.00,0.0017
2070.00,0.0017
2069.00,0.0016
2068.00,0.0015
2067.00,0.0014
2066.00,0.0013
2065.00,0.0013
2064.00,0.0013
2063.00,0.0014
2062.00,0.0014
2061.00,0.0014
2060.00,0.0015
2059.00,0.0014
2058.00,0.0015
2057.00,0.0015
2056.00,0.0015
2055.00,0.0014
2054.00,0.0013
2053.00,0.0012
2052.00,0.0012
2051.00,0.0012
2050.00,0.0013
2049.00,0.0014
2048.00,0.0015
2047.00,0.0016
2046.00,0.0016
2045.00,0.0015
2044.00,0.0014
2043.00,0.0013
2042.00,0.0012
2041.00,0.0012
2040.00,0.0011
2039.00,0.0011
2038.00,0.0010
2037.00,0.0010
2036.00,0.0009
2035.00,0.0008
2034.00,0.0008
2033.00,0.0009
2032.00,0.0009
2031.00,0.0008
2030.00,0.0007
2029.00,0.0007
2028.00,0.0007
2027.00,0.0008
2026.00,0.0009
2025.00,0.0011
2024.00,0.0012
2023.00,0.0011
2022.00,0.0010
2021.00,0.0010
2020.00,0.0010
2019.00,0.0009
2018.00,0.0009
2017.00,0.0008
2016.00,0.0008
2015.00,0.0009
2014.00,0.0009
2013.00,0.0009
2012.00,0.0008
2011.00,0.0007
2010.00,0.0007
2009.00,0.0008
2008.00,0.0009
2007.00,0.0010
2006.00,0.0010
2005.00,0.0009
2004.00,0.0008
2003.00,0.0008
2002.00,0.0009
2001.00,0.0010
2000.00,0.0011
1999.00,0.0011
1998.00,0.0011
1997.00,0.0010
1996.00,0.0010
1995.00,0.0009
1994.00,0.0010
1993.00,0.0012
1992.00,0.0013
1991.00,0.0014
1990.00,0.0013
1989.00,0.0012
1988.00,0.0011
1987.00,0.0011
1986.00,0.0012
1985.00,0.0013
1984.00,0.0014
1983.00,0.0014
1982.00,0.0012
1981.00,0.0010
1980.00,0.0008
1979.00,0.0005
1978.00,0.0004
1977.00,0.0003
1976.00,0.0004
1975.00,0.0006
1974.00,0.0007
1973.00,0.0008
1972.00,0.0008
1971.00,0.0008
1970.00,0.0007
1969.00,0.0008
1968.00,0.0010
1967.00,0.0011
1966.00,0.0012
1965.00,0.0012
1964.00,0.0012
1963.00,0.0011
1962.00,0.0010
1961.00,0.0009
1960.00,0.0009
1959.00,0.0009
1958.00,0.0009
1957.00,0.0010
1956.00,0.0010
1955.00,0.0010
1954.00,0.0009
1953.00,0.0009
1952.00,0.0009
1951.00,0.0008
1950.00,0.0008
1949.00,0.0008
1948.00,0.0009
1947.00,0.0010
1946.00,0.0011
1945.00,0.0012
1944.00,0.0012
1943.00,0.0012
1942.00,0.0011
1941.00,0.0010
1940.00,0.0010
1939.00,0.0010
1938.00,0.0010
1937.00,0.0011
1936.00,0.0011
1935.00,0.0010
1934.00,0.0009
1933.00,0.0008
1932.00,0.0009
1931.00,0.0010
1930.00,0.0012
1929.00,0.0012
1928.00,0.0013
1927.00,0.0012
1926.00,0.0011
1925.00,0.0011
1924.00,0.0010
1923.00,0.0010
1922.00,0.0010
1921.00,0.0010
1920.00,0.0011
1919.00,0.0011
1918.00,0.0011
1917.00,0.0012
1916.00,0.0013
1915.00,0.0013
1914.00,0.0013
1913.00,0.0013
1912.00,0.0011
1911.00,0.0011
1910.00,0.0011
1909.00,0.0010
1908.00,0.0010
1907.00,0.0010
1906.00,0.0011
1905.00,0.0011
1904.00,0.0010
1903.00,0.0010
1902.00,0.0010
1901.00,0.0010
1900.00,0.0009
1899.00,0.0010
1898.00,0.0011
1897.00,0.0011
1896.00,0.0011
1895.00,0.0011
1894.00,0.0012
1893.00,0.0012
1892.00,0.0012
1891.00,0.0011
1890.00,0.0011
1889.00,0.0010
1888.00,0.0010
1887.00,0.0011
1886.00,0.0011
1885.00,0.0011
1884.00,0.0010
1883.00,0.0010
1882.00,0.0010
1881.00,0.0010
1880.00,0.0010
1879.00,0.0010
1878.00,0.0011
1877.00,0.0011
1876.00,0.0012
1875.00,0.0012
1874.00,0.0012
1873.00,0.0012
1872.00,0.0012
1871.00,0.0012
1870.00,0.0012
1869.00,0.0012
1868.00,0.0012
1867.00,0.0011
1866.00,0.0011
1865.00,0.0011
1864.00,0.0011
1863.00,0.0010
1862.00,0.0010
1861.00,0.0010
1860.00,0.0009
1859.00,0.0009
1858.00,0.0009
1857.00,0.0010
1856.00,0.0010
1855.00,0.0010
1854.00,0.0011
1853.00,0.0011
1852.00,0.0010
1851.00,0.0010
1850.00,0.0010
1849.00,0.0009
1848.00,0.0009
1847.00,0.0009
1846.00,0.0010
1845.00,0.0011
1844.00,0.0011
1843.00,0.0011
1842.00,0.0011
1841.00,0.0011
1840.00,0.0011
1839.00,0.0011
1838.00,0.0011
1837.00,0.0011
1836.00,0.0011
1835.00,0.0012
1834.00,0.0012
1833.00,0.0012
1832.00,0.0012
1831.00,0.0012
1830.00,0.0011
1829.00,0.0011
1828.00,0.0012
1827.00,0.0013
1826.00,0.0013
1825.00,0.0014
1824.00,0.0013
1823.00,0.0013
1822.00,0.0013
1821.00,0.0013
1820.00,0.0012
1819.00,0.0012
1818.00,0.0011
1817.00,0.0012
1816.00,0.0012
1815.00,0.0012
1814.00,0.0012
1813.00,0.0013
1812.00,0.0013
1811.00,0.0013
1810.00,0.0013
1809.00,0.0014
1808.00,0.0014
1807.00,0.0014
1806.00,0.0014
1805.00,0.0013
1804.00,0.0012
1803.00,0.0012
1802.00,0.0012
1801.00,0.0014
1800.00,0.0016
1799.00,0.0016
1798.00,0.0017
1797.00,0.0016
1796.00,0.0016
1795.00,0.0015
1794.00,0.0016
1793.00,0.0017
1792.00,0.0017
1791.00,0.0017
1790.00,0.0017
1789.00,0.0018
1788.00,0.0018
1787.00,0.0017
1786.00,0.0017
1785.00,0.0017
1784.00,0.0016
1783.00,0.0016
1782.00,0.0016
1781.00,0.0017
1780.00,0.0017
1779.00,0.0017
1778.00,0.0017
1777.00,0.0018
1776.00,0.0018
1775.00,0.0017
1774.00,0.0017
1773.00,0.0018
1772.00,0.0018
1771.00,0.0018
1770.00,0.0018
1769.00,0.0019
1768.00,0.0020
1767.00,0.0020
1766.00,0.0020
1765.00,0.0020
1764.00,0.0020
1763.00,0.0019
1762.00,0.0018
1761.00,0.0018
1760.00,0.0018
1759.00,0.0019
1758.00,0.0020
1757.00,0.0021
1756.00,0.0023
1755.00,0.0023
1754.00,0.0024
1753.00,0.0025
1752.00,0.0027
1751.00,0.0028
1750.00,0.0028
1749.00,0.0029
1748.00,0.0030
1747.00,0.0030
1746.00,0.0029
1745.00,0.0028
1744.00,0.0028
1743.00,0.0027
1742.00,0.0027
1741.00,0.0029
1740.00,0.0030
1739.00,0.0030
1738.00,0.0028
1737.00,0.0027
1736.00,0.0028
1735.00,0.0029
1734.00,0.0028
1733.00,0.0028
1732.00,0.0030
1731.00,0.0032
1730.00,0.0033
1729.00,0.0033
1728.00,0.0034
1727.00,0.0034
1726.00,0.0034
1725.00,0.0035
1724.00,0.0037
1723.00,0.0038
1722.00,0.0039
1721.00,0.0040
1720.00,0.0042
1719.00,0.0044
1718.00,0.0047
1717.00,0.0051
1716.00,0.0056
1715.00,0.0062
1714.00,0.0068
1713.00,0.0074
1712.00,0.0080
1711.00,0.0086
1710.00,0.0093
1709.00,0.0102
1708.00,0.0112
1707.00,0.0126
1706.00,0.0144
1705.00,0.0162
1704.00,0.0178
1703.00,0.0192
1702.00,0.0209
1701.00,0.0230
1700.00,0.0246
1699.00,0.0253
1698.00,0.0255
1697.00,0.0255
1696.00,0.0254
1695.00,0.0254
1694.00,0.0255
1693.00,0.0255
1692.00,0.0255
1691.00,0.0256
1690.00,0.0259
1689.00,0.0262
1688.00,0.0263
1687.00,0.0264
1686.00,0.0268
1685.00,0.0278
1684.00,0.0294
1683.00,0.0307
1682.00,0.0314
1681.00,0.0319
1680.00,0.0324
1679.00,0.0330
1678.00,0.0335
1677.00,0.0342
1676.00,0.0353
1675.00,0.0366
1674.00,0.0376
1673.00,0.0383
1672.00,0.0389
1671.00,0.0398
1670.00,0.0410
1669.00,0.0425
1668.00,0.0438
1667.00,0.0445
1666.00,0.0450
1665.00,0.0455
1664.00,0.0465
1663.00,0.0480
1662.00,0.0497
1661.00,0.0510
1660.00,0.0522
1659.00,0.0531
1658.00,0.0536
1657.00,0.0538
1656.00,0.0536
1655.00,0.0539
1654.00,0.0557
1653.00,0.0595
1652.00,0.0627
1651.00,0.0636
1650.00,0.0636
1649.00,0.0636
1648.00,0.0644
1647.00,0.0664
1646.00,0.0687
1645.00,0.0703
1644.00,0.0712
1643.00,0.0718
1642.00,0.0726
1641.00,0.0735
1640.00,0.0744
1639.00,0.0752
1638.00,0.0760
1637.00,0.0776
1636.00,0.0807
1635.00,0.0843
1634.00,0.0866
1633.00,0.0876
1632.00,0.0882
1631.00,0.0890
1630.00,0.0900
1629.00,0.0915
1628.00,0.0931
1627.00,0.0945
1626.00,0.0953
1625.00,0.0957
1624.00,0.0963
1623.00,0.0970
1622.00,0.0969
1621.00,0.0957
1620.00,0.0936
1619.00,0.0912
1618.00,0.0888
1617.00,0.0867
1616.00,0.0849
1615.00,0.0828
1614.00,0.0801
1613.00,0.0771
1612.00,0.0740
1611.00,0.0711
1610.00,0.0681
1609.00,0.0652
1608.00,0.0622
1607.00,0.0594
1606.00,0.0566
1605.00,0.0539
1604.00,0.0514
1603.00,0.0492
1602.00,0.0472
1601.00,0.0454
1600.00,0.0438
1599.00,0.0424
1598.00,0.0412
1597.00,0.0400
1596.00,0.0388
1595.00,0.0379
1594.00,0.0369
1593.00,0.0359
1592.00,0.0350
1591.00,0.0341
1590.00,0.0334
1589.00,0.0327
1588.00,0.0320
1587.00,0.0316
1586.00,0.0312
1585.00,0.0309
1584.00,0.0307
1583.00,0.0307
1582.00,0.0307
1581.00,0.0307
1580.00,0.0306
1579.00,0.0304
1578.00,0.0305
1577.00,0.0310
1576.00,0.0321
1575.00,0.0333
1574.00,0.0340
1573.00,0.0343
1572.00,0.0346
1571.00,0.0354
1570.00,0.0366
1569.00,0.0381
1568.00,0.0392
1567.00,0.0401
1566.00,0.0409
1565.00,0.0418
1564.00,0.0424
1563.00,0.0426
1562.00,0.0424
1561.00,0.0425
1560.00,0.0441
1559.00,0.0476
1558.00,0.0507
1557.00,0.0517
1556.00,0.0519
1555.00,0.0523
1554.00,0.0531
1553.00,0.0540
1552.00,0.0546
1551.00,0.0553
1550.00,0.0562
1549.00,0.0572
1548.00,0.0579
1547.00,0.0583
1546.00,0.0587
1545.00,0.0592
1544.00,0.0597
1543.00,0.0602
1542.00,0.0610
1541.00,0.0626
1540.00,0.0651
1539.00,0.0676
1538.00,0.0687
1537.00,0.0686
1536.00,0.0683
1535.00,0.0685
1534.00,0.0696
1533.00,0.0712
1532.00,0.0724
1531.00,0.0729
1530.00,0.0731
1529.00,0.0733
1528.00,0.0736
1527.00,0.0742
1526.00,0.0751
1525.00,0.0756
1524.00,0.0758
1523.00,0.0759
1522.00,0.0771
1521.00,0.0790
1520.00,0.0805
1519.00,0.0813
1518.00,0.0821
1517.00,0.0832
1516.00,0.0841
1515.00,0.0843
1514.00,0.0836
1513.00,0.0825
1512.00,0.0809
1511.00,0.0791
1510.00,0.0771
1509.00,0.0752
1508.00,0.0735
1507.00,0.0727
1506.00,0.0725
1505.00,0.0714
1504.00,0.0694
1503.00,0.0672
1502.00,0.0650
1501.00,0.0629
1500.00,0.0608
1499.00,0.0588
1498.00,0.0570
1497.00,0.0554
1496.00,0.0538
1495.00,0.0521
1494.00,0.0505
1493.00,0.0488
1492.00,0.0471
1491.00,0.0454
1490.00,0.0439
1489.00,0.0426
1488.00,0.0413
1487.00,0.0400
1486.00,0.0388
1485.00,0.0375
1484.00,0.0363
1483.00,0.0352
1482.00,0.0343
1481.00,0.0334
1480.00,0.0327
1479.00,0.0320
1478.00,0.0313
1477.00,0.0308
1476.00,0.0303
1475.00,0.0300
1474.00,0.0300
1473.00,0.0303
1472.00,0.0306
1471.00,0.0307
1470.00,0.0305
1469.00,0.0302
1468.00,0.0299
1467.00,0.0298
1466.00,0.0299
1465.00,0.0305
1464.00,0.0311
1463.00,0.0314
1462.00,0.0315
1461.00,0.0315
1460.00,0.0313
1459.00,0.0314
1458.00,0.0322
1457.00,0.0340
1456.00,0.0360
1455.00,0.0373
1454.00,0.0382
1453.00,0.0391
1452.00,0.0400
1451.00,0.0408
1450.00,0.0414
1449.00,0.0420
1448.00,0.0426
1447.00,0.0430
1446.00,0.0431
1445.00,0.0431
1444.00,0.0429
1443.00,0.0427
1442.00,0.0423
1441.00,0.0419
1440.00,0.0412
1439.00,0.0403
1438.00,0.0394
1437.00,0.0387
1436.00,0.0380
1435.00,0.0371
1434.00,0.0360
1433.00,0.0349
1432.00,0.0338
1431.00,0.0328
1430.00,0.0318
1429.00,0.0311
1428.00,0.0304
1427.00,0.0298
1426.00,0.0292
1425.00,0.0289
1424.00,0.0288
1423.00,0.0285
1422.00,0.0281
1421.00,0.0277
1420.00,0.0276
1419.00,0.0278
1418.00,0.0282
1417.00,0.0286
1416.00,0.0287
1415.00,0.0287
1414.00,0.0285
1413.00,0.0284
1412.00,0.0284
1411.00,0.0283
1410.00,0.0282
1409.00,0.0281
1408.00,0.0279
1407.00,0.0276
1406.00,0.0273
1405.00,0.0270
1404.00,0.0268
1403.00,0.0264
1402.00,0.0259
1401.00,0.0255
1400.00,0.0252
1399.00,0.0249
1398.00,0.0245
1397.00,0.0242
1396.00,0.0239
1395.00,0.0237
1394.00,0.0236
1393.00,0.0235
1392.00,0.0235
1391.00,0.0233
1390.00,0.0230
1389.00,0.0226
1388.00,0.0224
1387.00,0.0224
1386.00,0.0224
1385.00,0.0224
1384.00,0.0222
1383.00,0.0220
1382.00,0.0218
1381.00,0.0217
1380.00,0.0216
1379.00,0.0215
1378.00,0.0214
1377.00,0.0213
1376.00,0.0211
1375.00,0.0211
1374.00,0.0211
1373.00,0.0212
1372.00,0.0213
1371.00,0.0213
1370.00,0.0213
1369.00,0.0212
1368.00,0.0210
1367.00,0.0207
1366.00,0.0202
1365.00,0.0195
1364.00,0.0187
1363.00,0.0180
1362.00,0.0175
1361.00,0.0170
1360.00,0.0166
1359.00,0.0163
1358.00,0.0160
1357.00,0.0157
1356.00,0.0154
1355.00,0.0152
1354.00,0.0150
1353.00,0.0149
1352.00,0.0148
1351.00,0.0148
1350.00,0.0148
1349.00,0.0148
1348.00,0.0148
1347.00,0.0149
1346.00,0.0150
1345.00,0.0150
1344.00,0.0151
1343.00,0.0151
1342.00,0.0151
1341.00,0.0150
1340.00,0.0150
1339.00,0.0151
1338.00,0.0152
1337.00,0.0152
1336.00,0.0152
1335.00,0.0151
1334.00,0.0150
1333.00,0.0148
1332.00,0.0145
1331.00,0.0143
1330.00,0.0140
1329.00,0.0138
1328.00,0.0135
1327.00,0.0133
1326.00,0.0130
1325.00,0.0128
1324.00,0.0126
1323.00,0.0125
1322.00,0.0123
1321.00,0.0122
1320.00,0.0122
1319.00,0.0123
1318.00,0.0124
1317.00,0.0125
1316.00,0.0125
1315.00,0.0126
1314.00,0.0127
1313.00,0.0128
1312.00,0.0130
1311.00,0.0131
1310.00,0.0133
1309.00,0.0133
1308.00,0.0134
1307.00,0.0136
1306.00,0.0137
1305.00,0.0138
1304.00,0.0139
1303.00,0.0140
1302.00,0.0142
1301.00,0.0143
1300.00,0.0144
1299.00,0.0145
1298.00,0.0147
1297.00,0.0148
1296.00,0.0150
1295.00,0.0151
1294.00,0.0153
1293.00,0.0155
1292.00,0.0156
1291.00,0.0158
1290.00,0.0160
1289.00,0.0163
1288.00,0.0165
1287.00,0.0168
1286.00,0.0171
1285.00,0.0174
1284.00,0.0178
1283.00,0.0182
1282.00,0.0185
1281.00,0.0189
1280.00,0.0194
1279.00,0.0199
1278.00,0.0205
1277.00,0.0212
1276.00,0.0219
1275.00,0.0227
1274.00,0.0235
1273.00,0.0243
1272.00,0.0252
1271.00,0.0261
1270.00,0.0270
1269.00,0.0278
1268.00,0.0286
1267.00,0.0293
1266.00,0.0300
1265.00,0.0305
1264.00,0.0310
1263.00,0.0314
1262.00,0.0317
1261.00,0.0319
1260.00,0.0320
1259.00,0.0321
1258.00,0.0322
1257.00,0.0322
1256.00,0.0322
1255.00,0.0322
1254.00,0.0322
1253.00,0.0322
1252.00,0.0323
1251.00,0.0325
1250.00,0.0327
1249.00,0.0330
1248.00,0.0332
1247.00,0.0335
1246.00,0.0338
1245.00,0.0341
1244.00,0.0344
1243.00,0.0348
1242.00,0.0352
1241.00,0.0356
1240.00,0.0360
1239.00,0.0365
1238.00,0.0369
1237.00,0.0374
1236.00,0.0379
1235.00,0.0384
1234.00,0.0388
1233.00,0.0391
1232.00,0.0393
1231.00,0.0394
1230.00,0.0393
1229.00,0.0392
1228.00,0.0389
1227.00,0.0385
1226.00,0.0380
1225.00,0.0373
1224.00,0.0366
1223.00,0.0358
1222.00,0.0350
1221.00,0.0341
1220.00,0.0332
1219.00,0.0322
1218.00,0.0313
1217.00,0.0303
1216.00,0.0293
1215.00,0.0282
1214.00,0.0271
1213.00,0.0259
1212.00,0.0248
1211.00,0.0237
1210.00,0.0227
1209.00,0.0216
1208.00,0.0206
1207.00,0.0196
1206.00,0.0186
1205.00,0.0177
1204.00,0.0168
1203.00,0.0160
1202.00,0.0152
1201.00,0.0146
1200.00,0.0140
1199.00,0.0135
1198.00,0.0130
1197.00,0.0126
1196.00,0.0122
1195.00,0.0119
1194.00,0.0116
1193.00,0.0113
1192.00,0.0111
1191.00,0.0110
1190.00,0.0108
1189.00,0.0107
1188.00,0.0106
1187.00,0.0106
1186.00,0.0106
1185.00,0.0106
1184.00,0.0107
1183.00,0.0109
1182.00,0.0112
1181.00,0.0115
1180.00,0.0119
1179.00,0.0124
1178.00,0.0129
1177.00,0.0135
1176.00,0.0140
1175.00,0.0146
1174.00,0.0150
1173.00,0.0154
1172.00,0.0158
1171.00,0.0161
1170.00,0.0163
1169.00,0.0165
1168.00,0.0166
1167.00,0.0166
1166.00,0.0166
1165.00,0.0165
1164.00,0.0164
1163.00,0.0163
1162.00,0.0161
1161.00,0.0158
1160.00,0.0156
1159.00,0.0152
1158.00,0.0148
1157.00,0.0144
1156.00,0.0140
1155.00,0.0135
1154.00,0.0130
1153.00,0.0124
1152.00,0.0119
1151.00,0.0114
1150.00,0.0110
1149.00,0.0106
1148.00,0.0104
1147.00,0.0102
1146.00,0.0100
1145.00,0.0097
1144.00,0.0095
1143.00,0.0093
1142.00,0.0091
1141.00,0.0090
1140.00,0.0089
1139.00,0.0089
1138.00,0.0088
1137.00,0.0088
1136.00,0.0089
1135.00,0.0090
1134.00,0.0091
1133.00,0.0092
1132.00,0.0094
1131.00,0.0096
1130.00,0.0098
1129.00,0.0100
1128.00,0.0101
1127.00,0.0103
1126.00,0.0105
1125.00,0.0107
1124.00,0.0110
1123.00,0.0112
1122.00,0.0114
1121.00,0.0115
1120.00,0.0117
1119.00,0.0118
1118.00,0.0120
1117.00,0.0122
1116.00,0.0124
1115.00,0.0126
1114.00,0.0128
1113.00,0.0130
1112.00,0.0132
1111.00,0.0134
1110.00,0.0135
1109.00,0.0137
1108.00,0.0138
1107.00,0.0139
1106.00,0.0140
1105.00,0.0140
1104.00,0.0141
1103.00,0.0141
1102.00,0.0141
1101.00,0.0141
1100.00,0.0139
1099.00,0.0137
1098.00,0.0135
1097.00,0.0133
1096.00,0.0131
1095.00,0.0130
1094.00,0.0129
1093.00,0.0128
1092.00,0.0127
1091.00,0.0127
1090.00,0.0127
1089.00,0.0126
1088.00,0.0126
1087.00,0.0126
1086.00,0.0126
1085.00,0.0126
1084.00,0.0127
1083.00,0.0128
1082.00,0.0129
1081.00,0.0129
1080.00,0.0130
1079.00,0.0131
1078.00,0.0131
1077.00,0.0132
1076.00,0.0132
1075.00,0.0132
1074.00,0.0132
1073.00,0.0131
1072.00,0.0131
1071.00,0.0131
1070.00,0.0131
1069.00,0.0131
1068.00,0.0132
1067.00,0.0132
1066.00,0.0132
1065.00,0.0131
1064.00,0.0131
1063.00,0.0130
1062.00,0.0130
1061.00,0.0130
1060.00,0.0130
1059.00,0.0130
1058.00,0.0128
1057.00,0.0126
1056.00,0.0124
1055.00,0.0122
1054.00,0.0120
1053.00,0.0119
1052.00,0.0118
1051.00,0.0117
1050.00,0.0116
1049.00,0.0115
1048.00,0.0113
1047.00,0.0111
1046.00,0.0108
1045.00,0.0104
1044.00,0.0101
1043.00,0.0096
1042.00,0.0092
1041.00,0.0087
1040.00,0.0082
1039.00,0.0078
1038.00,0.0074
1037.00,0.0070
1036.00,0.0068
1035.00,0.0066
1034.00,0.0065
1033.00,0.0064
1032.00,0.0064
1031.00,0.0065
1030.00,0.0066
1029.00,0.0068
1028.00,0.0070
1027.00,0.0073
1026.00,0.0077
1025.00,0.0081
1024.00,0.0085
1023.00,0.0090
1022.00,0.0096
1021.00,0.0102
1020.00,0.0108
1019.00,0.0114
1018.00,0.0120
1017.00,0.0126
1016.00,0.0132
1015.00,0.0136
1014.00,0.0139
1013.00,0.0140
1012.00,0.0141
1011.00,0.0141
1010.00,0.0141
1009.00,0.0142
1008.00,0.0143
1007.00,0.0144
1006.00,0.0146
1005.00,0.0148
1004.00,0.0150
1003.00,0.0153
1002.00,0.0155
1001.00,0.0157
1000.00,0.0159
999.00,0.0159
998.00,0.0159
997.00,0.0158
996.00,0.0155
995.00,0.0152
994.00,0.0147
993.00,0.0141
992.00,0.0136
991.00,0.0131
990.00,0.0127
989.00,0.0122
988.00,0.0119
987.00,0.0116
986.00,0.0115
985.00,0.0116
984.00,0.0117
983.00,0.0119
982.00,0.0122
981.00,0.0124
980.00,0.0127
979.00,0.0129
978.00,0.0130
977.00,0.0130
976.00,0.0130
975.00,0.0129
974.00,0.0128
973.00,0.0125
972.00,0.0121
971.00,0.0117
970.00,0.0113
969.00,0.0108
968.00,0.0103
967.00,0.0099
966.00,0.0094
965.00,0.0090
964.00,0.0086
963.00,0.0083
962.00,0.0080
961.00,0.0078
960.00,0.0076
959.00,0.0075
958.00,0.0074
957.00,0.0074
956.00,0.0073
955.00,0.0072
954.00,0.0071
953.00,0.0070
952.00,0.0069
951.00,0.0069
950.00,0.0068
949.00,0.0068
948.00,0.0068
947.00,0.0068
946.00,0.0068
945.00,0.0067
944.00,0.0067
943.00,0.0068
942.00,0.0068
941.00,0.0068
940.00,0.0069
939.00,0.0069
938.00,0.0070
937.00,0.0070
936.00,0.0070
935.00,0.0071
934.00,0.0072
933.00,0.0073
932.00,0.0074
931.00,0.0074
930.00,0.0074
929.00,0.0075
928.00,0.0075
927.00,0.0074
926.00,0.0072
925.00,0.0070
924.00,0.0068
923.00,0.0066
922.00,0.0064
921.00,0.0062
920.00,0.0060
919.00,0.0059
918.00,0.0056
917.00,0.0054
916.00,0.0051
915.00,0.0049
914.00,0.0048
913.00,0.0047
912.00,0.0047
911.00,0.0047
910.00,0.0046
909.00,0.0046
908.00,0.0045
907.00,0.0044
906.00,0.0042
905.00,0.0040
904.00,0.0038
903.00,0.0038
902.00,0.0037
901.00,0.0036
900.00,0.0036
899.00,0.0035
898.00,0.0035
897.00,0.0036
896.00,0.0037
895.00,0.0038
894.00,0.0038
893.00,0.0037
892.00,0.0036
891.00,0.0035
890.00,0.0035
889.00,0.0035
888.00,0.0035
887.00,0.0036
886.00,0.0036
885.00,0.0036
884.00,0.0036
883.00,0.0036
882.00,0.0036
881.00,0.0037
880.00,0.0039
879.00,0.0041
878.00,0.0043
877.00,0.0045
876.00,0.0047
875.00,0.0048
874.00,0.0050
873.00,0.0051
872.00,0.0051
871.00,0.0051
870.00,0.0050
869.00,0.0050
868.00,0.0049
867.00,0.0049
866.00,0.0049
865.00,0.0050
864.00,0.0052
863.00,0.0054
862.00,0.0057
861.00,0.0061
860.00,0.0064
859.00,0.0068
858.00,0.0071
857.00,0.0075
856.00,0.0078
855.00,0.0080
854.00,0.0082
853.00,0.0084
852.00,0.0086
851.00,0.0087
850.00,0.0087
849.00,0.0086
848.00,0.0085
847.00,0.0085
846.00,0.0085
845.00,0.0085
844.00,0.0086
843.00,0.0087
842.00,0.0089
841.00,0.0090
840.00,0.0093
839.00,0.0095
838.00,0.0096
837.00,0.0098
836.00,0.0100
835.00,0.0101
834.00,0.0103
833.00,0.0103
832.00,0.0104
831.00,0.0103
830.00,0.0101
829.00,0.0098
828.00,0.0097
827.00,0.0097
826.00,0.0099
825.00,0.0101
824.00,0.0102
823.00,0.0103
822.00,0.0104
821.00,0.0105
820.00,0.0107
819.00,0.0109
818.00,0.0110
817.00,0.0110
816.00,0.0111
815.00,0.0113
814.00,0.0114
813.00,0.0115
812.00,0.0116
811.00,0.0116
810.00,0.0116
809.00,0.0117
808.00,0.0117
807.00,0.0117
806.00,0.0117
805.00,0.0116
804.00,0.0116
803.00,0.0117
802.00,0.0117
801.00,0.0118
800.00,0.0120
799.00,0.0121
798.00,0.0122
797.00,0.0124
796.00,0.0126
795.00,0.0128
794.00,0.0130
793.00,0.0132
792.00,0.0135
791.00,0.0137
790.00,0.0139
789.00,0.0141
788.00,0.0143
787.00,0.0145
786.00,0.0146
785.00,0.0147
784.00,0.0149
783.00,0.0151
782.00,0.0153
781.00,0.0155
780.00,0.0157
779.00,0.0159
778.00,0.0161
777.00,0.0162
776.00,0.0164
775.00,0.0167
774.00,0.0169
773.00,0.0171
772.00,0.0174
771.00,0.0176
770.00,0.0179
769.00,0.0182
768.00,0.0184
767.00,0.0186
766.00,0.0188
765.00,0.0190
764.00,0.0192
763.00,0.0195
762.00,0.0197
761.00,0.0198
760.00,0.0200
759.00,0.0201
758.00,0.0204
757.00,0.0207
756.00,0.0209
755.00,0.0212
754.00,0.0214
753.00,0.0217
752.00,0.0220
751.00,0.0223
750.00,0.0227
749.00,0.0230
748.00,0.0234
747.00,0.0239
746.00,0.0243
745.00,0.0248
744.00,0.0253
743.00,0.0258
742.00,0.0262
741.00,0.0268
740.00,0.0274
739.00,0.0281
738.00,0.0288
737.00,0.0296
736.00,0.0305
735.00,0.0313
734.00,0.0322
733.00,0.0330
732.00,0.0339
731.00,0.0347
730.00,0.0355
729.00,0.0361
728.00,0.0367
727.00,0.0373
726.00,0.0378
725.00,0.0384
724.00,0.0391
723.00,0.0397
722.00,0.0401
721.00,0.0405
720.00,0.0410
719.00,0.0413
718.00,0.0415
717.00,0.0415
716.00,0.0413
715.00,0.0412
714.00,0.0412
713.00,0.0414
712.00,0.0417
711.00,0.0421
710.00,0.0423
709.00,0.0424
708.00,0.0425
707.00,0.0426
706.00,0.0429
705.00,0.0431
704.00,0.0433
703.00,0.0434
702.00,0.0436
701.00,0.0438
700.00,0.0441
699.00,0.0443
698.00,0.0445
697.00,0.0447
696.00,0.0450
695.00,0.0452
694.00,0.0454
693.00,0.0456
692.00,0.0458
691.00,0.0460
690.00,0.0462
689.00,0.0464
688.00,0.0467
687.00,0.0469
686.00,0.0470
685.00,0.0471
684.00,0.0471
683.00,0.0470
682.00,0.0470
681.00,0.0470
680.00,0.0472
679.00,0.0474
678.00,0.0475
677.00,0.0476
676.00,0.0476
675.00,0.0476
674.00,0.0475
673.00,0.0475
672.00,0.0474
671.00,0.0473
670.00,0.0474
669.00,0.0477
668.00,0.0482
667.00,0.0486
666.00,0.0486
665.00,0.0484
664.00,0.0483
663.00,0.0484
662.00,0.0486
661.00,0.0488
660.00,0.0490
659.00,0.0491
658.00,0.0492
657.00,0.0493
656.00,0.0496
655.00,0.0498
654.00,0.0499
653.00,0.0500
652.00,0.0500
651.00,0.0501
650.00,0.0501
649.00,0.0503
648.00,0.0504
647.00,0.0505
646.00,0.0505
645.00,0.0504
644.00,0.0504
643.00,0.0503
642.00,0.0503
641.00,0.0502
640.00,0.0501
639.00,0.0499
638.00,0.0496
637.00,0.0495
636.00,0.0494
635.00,0.0494
634.00,0.0494
633.00,0.0492
632.00,0.0492
631.00,0.0492
630.00,0.0491
629.00,0.0490
628.00,0.0489
627.00,0.0489
626.00,0.0489
625.00,0.0490
624.00,0.0493
623.00,0.0496
622.00,0.0499
621.00,0.0502
620.00,0.0506
619.00,0.0510
618.00,0.0515
617.00,0.0521
616.00,0.0528
615.00,0.0533
614.00,0.0537
613.00,0.0539
612.00,0.0540
611.00,0.0540
610.00,0.0539
609.00,0.0537
608.00,0.0534
607.00,0.0530
606.00,0.0525
605.00,0.0521
604.00,0.0517
603.00,0.0512
602.00,0.0507
601.00,0.0504
600.00,0.0502
599.00,0.0500
598.00,0.0498
597.00,0.0496
596.00,0.0493
595.00,0.0490
594.00,0.0487
593.00,0.0484
592.00,0.0483
591.00,0.0482
590.00,0.0481
589.00,0.0480
588.00,0.0480
587.00,0.0481
586.00,0.0481
585.00,0.0481
584.00,0.0482
583.00,0.0483
582.00,0.0482
581.00,0.0481
580.00,0.0481
579.00,0.0483
578.00,0.0484
577.00,0.0485
576.00,0.0487
575.00,0.0490
574.00,0.0493
573.00,0.0496
572.00,0.0500
571.00,0.0504
570.00,0.0507
569.00,0.0511
568.00,0.0517
567.00,0.0525
566.00,0.0533
565.00,0.0542
564.00,0.0552
563.00,0.0562
562.00,0.0572
561.00,0.0582
560.00,0.0593
559.00,0.0604
558.00,0.0613
557.00,0.0621
556.00,0.0630
555.00,0.0637
554.00,0.0644
553.00,0.0650
552.00,0.0653
551.00,0.0654
550.00,0.0652
549.00,0.0647
548.00,0.0643
547.00,0.0640
546.00,0.0636
545.00,0.0633
544.00,0.0629
543.00,0.0624
542.00,0.0618
541.00,0.0612
540.00,0.0607
539.00,0.0601
538.00,0.0593
537.00,0.0585
536.00,0.0580
535.00,0.0576
534.00,0.0573
533.00,0.0570
532.00,0.0567
531.00,0.0563
530.00,0.0558
529.00,0.0553
528.00,0.0550
527.00,0.0547
526.00,0.0544
525.00,0.0539
524.00,0.0533
523.00,0.0528
522.00,0.0525
521.00,0.0524
520.00,0.0524
519.00,0.0524
518.00,0.0521
517.00,0.0520
516.00,0.0519
515.00,0.0520
514.00,0.0520
513.00,0.0519
512.00,0.0519
511.00,0.0519
510.00,0.0520
509.00,0.0520
508.00,0.0519
507.00,0.0516
506.00,0.0511
505.00,0.0507
504.00,0.0506
503.00,0.0507
502.00,0.0510
501.00,0.0510
500.00,0.0508
499.00,0.0504
498.00,0.0500
497.00,0.0498
496.00,0.0497
495.00,0.0497
494.00,0.0497
493.00,0.0495
492.00,0.0493
491.00,0.0492
490.00,0.0493
489.00,0.0494
488.00,0.0496
487.00,0.0495
486.00,0.0492
485.00,0.0487
484.00,0.0483
483.00,0.0482
482.00,0.0482
481.00,0.0484
480.00,0.0486
479.00,0.0485
478.00,0.0481
477.00,0.0474
476.00,0.0467
475.00,0.0459
474.00,0.0454
473.00,0.0451
472.00,0.0454
471.00,0.0456
470.00,0.0455
469.00,0.0453
468.00,0.0454
467.00,0.0456
466.00,0.0457
465.00,0.0454
464.00,0.0450
463.00,0.0445
462.00,0.0439
461.00,0.0433
460.00,0.0429
459.00,0.0427
458.00,0.0428
457.00,0.0433
456.00,0.0439
455.00,0.0439
454.00,0.0433
453.00,0.0426
452.00,0.0423
451.00,0.0423
450.00,0.0422
449.00,0.0422
448.00,0.0425
447.00,0.0426
446.00,0.0426
445.00,0.0425
444.00,0.0430
443.00,0.0438
442.00,0.0446
441.00,0.0451
440.00,0.0453
439.00,0.0451
438.00,0.0449
437.00,0.0450
436.00,0.0456
435.00,0.0464
434.00,0.0472
433.00,0.0482
432.00,0.0495
431.00,0.0509
430.00,0.0516
429.00,0.0516
428.00,0.0510
427.00,0.0507
426.00,0.0510
425.00,0.0521
424.00,0.0534
423.00,0.0538
422.00,0.0531
421.00,0.0519
420.00,0.0513
419.00,0.0517
418.00,0.0519
417.00,0.0514
416.00,0.0507
415.00,0.0502
414.00,0.0496
413.00,0.0488
412.00,0.0477
411.00,0.0466
410.00,0.0457
409.00,0.0452
408.00,0.0451
407.00,0.0454
406.00,0.0458
405.00,0.0461
404.00,0.0456
403.00,0.0440
402.00,0.0419
401.00,0.0408
400.00,0.0416
