Created as New Dataset,Sample 654 By YargerLab Date Tuesday, June 10 2025
cm-1,A
4000.00,0.0083
3999.00,0.0083
3998.00,0.0083
3997.00,0.0083
3996.00,0.0083
3995.00,0.0084
3994.00,0.0084
3993.00,0.0084
3992.00,0.0084
3991.00,0.0084
3990.00,0.0084
3989.00,0.0083
3988.00,0.0083
3987.00,0.0084
3986.00,0.0084
3985.00,0.0084
3984.00,0.0084
3983.00,0.0084
3982.00,0.0084
3981.00,0.0083
3980.00,0.0083
3979.00,0.0083
3978.00,0.0083
3977.00,0.0082
3976.00,0.0082
3975.00,0.0082
3974.00,0.0083
3973.00,0.0083
3972.00,0.0083
3971.00,0.0084
3970.00,0.0084
3969.00,0.0084
3968.00,0.0084
3967.00,0.0083
3966.00,0.0083
3965.00,0.0083
3964.00,0.0083
3963.00,0.0084
3962.00,0.0084
3961.00,0.0084
3960.00,0.0084
3959.00,0.0084
3958.00,0.0084
3957.00,0.0084
3956.00,0.0084
3955.00,0.0084
3954.00,0.0084
3953.00,0.0084
3952.00,0.0083
3951.00,0.0083
3950.00,0.0083
3949.00,0.0083
3948.00,0.0084
3947.00,0.0084
3946.00,0.0084
3945.00,0.0084
3944.00,0.0084
3943.00,0.0083
3942.00,0.0083
3941.00,0.0083
3940.00,0.0083
3939.00,0.0083
3938.00,0.0083
3937.00,0.0083
3936.00,0.0084
3935.00,0.0084
3934.00,0.0084
3933.00,0.0084
3932.00,0.0083
3931.00,0.0083
3930.00,0.0083
3929.00,0.0083
3928.00,0.0083
3927.00,0.0083
3926.00,0.0083
3925.00,0.0083
3924.00,0.0083
3923.00,0.0083
3922.00,0.0083
3921.00,0.0083
3920.00,0.0083
3919.00,0.0083
3918.00,0.0082
3917.00,0.0082
3916.00,0.0082
3915.00,0.0082
3914.00,0.0083
3913.00,0.0083
3912.00,0.0083
3911.00,0.0083
3910.00,0.0083
3909.00,0.0083
3908.00,0.0083
3907.00,0.0083
3906.00,0.0083
3905.00,0.0083
3904.00,0.0083
3903.00,0.0083
3902.00,0.0083
3901.00,0.0083
3900.00,0.0083
3899.00,0.0084
3898.00,0.0084
3897.00,0.0084
3896.00,0.0084
3895.00,0.0084
3894.00,0.0083
3893.00,0.0083
3892.00,0.0083
3891.00,0.0083
3890.00,0.0083
3889.00,0.0083
3888.00,0.0083
3887.00,0.0082
3886.00,0.0082
3885.00,0.0082
3884.00,0.0082
3883.00,0.0082
3882.00,0.0082
3881.00,0.0082
3880.00,0.0082
3879.00,0.0082
3878.00,0.0082
3877.00,0.0082
3876.00,0.0082
3875.00,0.0082
3874.00,0.0082
3873.00,0.0082
3872.00,0.0082
3871.00,0.0082
3870.00,0.0082
3869.00,0.0082
3868.00,0.0082
3867.00,0.0082
3866.00,0.0083
3865.00,0.0083
3864.00,0.0082
3863.00,0.0082
3862.00,0.0082
3861.00,0.0082
3860.00,0.0081
3859.00,0.0081
3858.00,0.0081
3857.00,0.0081
3856.00,0.0081
3855.00,0.0081
3854.00,0.0081
3853.00,0.0081
3852.00,0.0081
3851.00,0.0081
3850.00,0.0081
3849.00,0.0081
3848.00,0.0081
3847.00,0.0082
3846.00,0.0082
3845.00,0.0082
3844.00,0.0082
3843.00,0.0082
3842.00,0.0082
3841.00,0.0082
3840.00,0.0081
3839.00,0.0081
3838.00,0.0081
3837.00,0.0081
3836.00,0.0081
3835.00,0.0081
3834.00,0.0081
3833.00,0.0081
3832.00,0.0081
3831.00,0.0082
3830.00,0.0081
3829.00,0.0081
3828.00,0.0081
3827.00,0.0081
3826.00,0.0081
3825.00,0.0081
3824.00,0.0081
3823.00,0.0081
3822.00,0.0080
3821.00,0.0080
3820.00,0.0080
3819.00,0.0080
3818.00,0.0080
3817.00,0.0080
3816.00,0.0080
3815.00,0.0080
3814.00,0.0080
3813.00,0.0080
3812.00,0.0080
3811.00,0.0081
3810.00,0.0081
3809.00,0.0081
3808.00,0.0081
3807.00,0.0081
3806.00,0.0081
3805.00,0.0081
3804.00,0.0081
3803.00,0.0081
3802.00,0.0081
3801.00,0.0080
3800.00,0.0080
3799.00,0.0080
3798.00,0.0080
3797.00,0.0080
3796.00,0.0081
3795.00,0.0081
3794.00,0.0081
3793.00,0.0081
3792.00,0.0081
3791.00,0.0081
3790.00,0.0081
3789.00,0.0081
3788.00,0.0080
3787.00,0.0080
3786.00,0.0080
3785.00,0.0080
3784.00,0.0080
3783.00,0.0080
3782.00,0.0080
3781.00,0.0080
3780.00,0.0080
3779.00,0.0080
3778.00,0.0080
3777.00,0.0080
3776.00,0.0080
3775.00,0.0080
3774.00,0.0081
3773.00,0.0081
3772.00,0.0081
3771.00,0.0081
3770.00,0.0081
3769.00,0.0081
3768.00,0.0081
3767.00,0.0081
3766.00,0.0081
3765.00,0.0081
3764.00,0.0081
3763.00,0.0081
3762.00,0.0080
3761.00,0.0080
3760.00,0.0080
3759.00,0.0080
3758.00,0.0080
3757.00,0.0080
3756.00,0.0080
3755.00,0.0080
3754.00,0.0080
3753.00,0.0080
3752.00,0.0080
3751.00,0.0080
3750.00,0.0080
3749.00,0.0080
3748.00,0.0080
3747.00,0.0080
3746.00,0.0080
3745.00,0.0080
3744.00,0.0080
3743.00,0.0080
3742.00,0.0080
3741.00,0.0080
3740.00,0.0079
3739.00,0.0079
3738.00,0.0079
3737.00,0.0079
3736.00,0.0080
3735.00,0.0080
3734.00,0.0081
3733.00,0.0081
3732.00,0.0081
3731.00,0.0080
3730.00,0.0080
3729.00,0.0080
3728.00,0.0080
3727.00,0.0080
3726.00,0.0080
3725.00,0.0080
3724.00,0.0080
3723.00,0.0080
3722.00,0.0080
3721.00,0.0080
3720.00,0.0080
3719.00,0.0079
3718.00,0.0079
3717.00,0.0079
3716.00,0.0079
3715.00,0.0079
3714.00,0.0078
3713.00,0.0078
3712.00,0.0078
3711.00,0.0078
3710.00,0.0079
3709.00,0.0079
3708.00,0.0079
3707.00,0.0079
3706.00,0.0078
3705.00,0.0078
3704.00,0.0078
3703.00,0.0078
3702.00,0.0078
3701.00,0.0078
3700.00,0.0078
3699.00,0.0078
3698.00,0.0078
3697.00,0.0078
3696.00,0.0078
3695.00,0.0078
3694.00,0.0078
3693.00,0.0078
3692.00,0.0078
3691.00,0.0078
3690.00,0.0077
3689.00,0.0077
3688.00,0.0077
3687.00,0.0077
3686.00,0.0077
3685.00,0.0077
3684.00,0.0077
3683.00,0.0077
3682.00,0.0078
3681.00,0.0078
3680.00,0.0079
3679.00,0.0079
3678.00,0.0080
3677.00,0.0080
3676.00,0.0080
3675.00,0.0080
3674.00,0.0080
3673.00,0.0080
3672.00,0.0079
3671.00,0.0079
3670.00,0.0079
3669.00,0.0079
3668.00,0.0080
3667.00,0.0080
3666.00,0.0080
3665.00,0.0081
3664.00,0.0081
3663.00,0.0081
3662.00,0.0081
3661.00,0.0081
3660.00,0.0081
3659.00,0.0081
3658.00,0.0081
3657.00,0.0082
3656.00,0.0082
3655.00,0.0082
3654.00,0.0083
3653.00,0.0083
3652.00,0.0083
3651.00,0.0083
3650.00,0.0082
3649.00,0.0082
3648.00,0.0083
3647.00,0.0083
3646.00,0.0083
3645.00,0.0082
3644.00,0.0082
3643.00,0.0082
3642.00,0.0083
3641.00,0.0084
3640.00,0.0084
3639.00,0.0084
3638.00,0.0085
3637.00,0.0085
3636.00,0.0085
3635.00,0.0085
3634.00,0.0086
3633.00,0.0086
3632.00,0.0086
3631.00,0.0087
3630.00,0.0087
3629.00,0.0087
3628.00,0.0088
3627.00,0.0088
3626.00,0.0088
3625.00,0.0089
3624.00,0.0089
3623.00,0.0089
3622.00,0.0089
3621.00,0.0088
3620.00,0.0088
3619.00,0.0088
3618.00,0.0089
3617.00,0.0089
3616.00,0.0090
3615.00,0.0090
3614.00,0.0090
3613.00,0.0091
3612.00,0.0092
3611.00,0.0093
3610.00,0.0093
3609.00,0.0093
3608.00,0.0094
3607.00,0.0094
3606.00,0.0094
3605.00,0.0094
3604.00,0.0095
3603.00,0.0095
3602.00,0.0095
3601.00,0.0096
3600.00,0.0096
3599.00,0.0097
3598.00,0.0097
3597.00,0.0098
3596.00,0.0098
3595.00,0.0098
3594.00,0.0099
3593.00,0.0099
3592.00,0.0100
3591.00,0.0100
3590.00,0.0101
3589.00,0.0101
3588.00,0.0101
3587.00,0.0102
3586.00,0.0102
3585.00,0.0103
3584.00,0.0103
3583.00,0.0104
3582.00,0.0104
3581.00,0.0104
3580.00,0.0104
3579.00,0.0104
3578.00,0.0104
3577.00,0.0104
3576.00,0.0105
3575.00,0.0106
3574.00,0.0107
3573.00,0.0107
3572.00,0.0108
3571.00,0.0109
3570.00,0.0110
3569.00,0.0111
3568.00,0.0112
3567.00,0.0112
3566.00,0.0112
3565.00,0.0112
3564.00,0.0112
3563.00,0.0112
3562.00,0.0113
3561.00,0.0113
3560.00,0.0114
3559.00,0.0114
3558.00,0.0115
3557.00,0.0115
3556.00,0.0115
3555.00,0.0116
3554.00,0.0116
3553.00,0.0116
3552.00,0.0117
3551.00,0.0117
3550.00,0.0118
3549.00,0.0118
3548.00,0.0119
3547.00,0.0120
3546.00,0.0121
3545.00,0.0122
3544.00,0.0122
3543.00,0.0123
3542.00,0.0123
3541.00,0.0123
3540.00,0.0124
3539.00,0.0124
3538.00,0.0125
3537.00,0.0125
3536.00,0.0126
3535.00,0.0126
3534.00,0.0126
3533.00,0.0127
3532.00,0.0127
3531.00,0.0128
3530.00,0.0129
3529.00,0.0129
3528.00,0.0130
3527.00,0.0130
3526.00,0.0131
3525.00,0.0132
3524.00,0.0133
3523.00,0.0133
3522.00,0.0134
3521.00,0.0135
3520.00,0.0135
3519.00,0.0136
3518.00,0.0136
3517.00,0.0136
3516.00,0.0137
3515.00,0.0137
3514.00,0.0138
3513.00,0.0139
3512.00,0.0139
3511.00,0.0139
3510.00,0.0139
3509.00,0.0140
3508.00,0.0140
3507.00,0.0141
3506.00,0.0141
3505.00,0.0142
3504.00,0.0143
3503.00,0.0144
3502.00,0.0144
3501.00,0.0145
3500.00,0.0145
3499.00,0.0146
3498.00,0.0146
3497.00,0.0147
3496.00,0.0148
3495.00,0.0148
3494.00,0.0149
3493.00,0.0150
3492.00,0.0150
3491.00,0.0151
3490.00,0.0151
3489.00,0.0152
3488.00,0.0153
3487.00,0.0153
3486.00,0.0154
3485.00,0.0155
3484.00,0.0156
3483.00,0.0156
3482.00,0.0157
3481.00,0.0158
3480.00,0.0159
3479.00,0.0160
3478.00,0.0161
3477.00,0.0161
3476.00,0.0162
3475.00,0.0162
3474.00,0.0162
3473.00,0.0163
3472.00,0.0164
3471.00,0.0165
3470.00,0.0166
3469.00,0.0167
3468.00,0.0167
3467.00,0.0168
3466.00,0.0168
3465.00,0.0169
3464.00,0.0170
3463.00,0.0170
3462.00,0.0171
3461.00,0.0172
3460.00,0.0173
3459.00,0.0175
3458.00,0.0176
3457.00,0.0177
3456.00,0.0178
3455.00,0.0179
3454.00,0.0179
3453.00,0.0178
3452.00,0.0178
3451.00,0.0179
3450.00,0.0180
3449.00,0.0181
3448.00,0.0181
3447.00,0.0182
3446.00,0.0183
3445.00,0.0183
3444.00,0.0184
3443.00,0.0185
3442.00,0.0185
3441.00,0.0186
3440.00,0.0187
3439.00,0.0188
3438.00,0.0189
3437.00,0.0190
3436.00,0.0190
3435.00,0.0191
3434.00,0.0192
3433.00,0.0193
3432.00,0.0194
3431.00,0.0195
3430.00,0.0196
3429.00,0.0197
3428.00,0.0198
3427.00,0.0199
3426.00,0.0200
3425.00,0.0200
3424.00,0.0201
3423.00,0.0202
3422.00,0.0203
3421.00,0.0204
3420.00,0.0205
3419.00,0.0206
3418.00,0.0207
3417.00,0.0208
3416.00,0.0209
3415.00,0.0210
3414.00,0.0211
3413.00,0.0211
3412.00,0.0212
3411.00,0.0213
3410.00,0.0213
3409.00,0.0214
3408.00,0.0215
3407.00,0.0216
3406.00,0.0217
3405.00,0.0217
3404.00,0.0218
3403.00,0.0219
3402.00,0.0220
3401.00,0.0221
3400.00,0.0222
3399.00,0.0223
3398.00,0.0224
3397.00,0.0225
3396.00,0.0226
3395.00,0.0226
3394.00,0.0227
3393.00,0.0228
3392.00,0.0229
3391.00,0.0230
3390.00,0.0231
3389.00,0.0232
3388.00,0.0233
3387.00,0.0234
3386.00,0.0235
3385.00,0.0236
3384.00,0.0237
3383.00,0.0238
3382.00,0.0238
3381.00,0.0239
3380.00,0.0240
3379.00,0.0241
3378.00,0.0243
3377.00,0.0244
3376.00,0.0245
3375.00,0.0246
3374.00,0.0247
3373.00,0.0248
3372.00,0.0249
3371.00,0.0250
3370.00,0.0251
3369.00,0.0252
3368.00,0.0254
3367.00,0.0255
3366.00,0.0256
3365.00,0.0258
3364.00,0.0260
3363.00,0.0261
3362.00,0.0263
3361.00,0.0264
3360.00,0.0265
3359.00,0.0266
3358.00,0.0267
3357.00,0.0269
3356.00,0.0270
3355.00,0.0272
3354.00,0.0273
3353.00,0.0275
3352.00,0.0276
3351.00,0.0278
3350.00,0.0279
3349.00,0.0281
3348.00,0.0283
3347.00,0.0284
3346.00,0.0286
3345.00,0.0288
3344.00,0.0289
3343.00,0.0291
3342.00,0.0293
3341.00,0.0295
3340.00,0.0296
3339.00,0.0298
3338.00,0.0300
3337.00,0.0302
3336.00,0.0304
3335.00,0.0305
3334.00,0.0307
3333.00,0.0308
3332.00,0.0309
3331.00,0.0311
3330.00,0.0313
3329.00,0.0315
3328.00,0.0317
3327.00,0.0319
3326.00,0.0321
3325.00,0.0323
3324.00,0.0325
3323.00,0.0327
3322.00,0.0329
3321.00,0.0331
3320.00,0.0333
3319.00,0.0335
3318.00,0.0337
3317.00,0.0339
3316.00,0.0341
3315.00,0.0342
3314.00,0.0344
3313.00,0.0346
3312.00,0.0348
3311.00,0.0350
3310.00,0.0352
3309.00,0.0354
3308.00,0.0356
3307.00,0.0358
3306.00,0.0360
3305.00,0.0362
3304.00,0.0364
3303.00,0.0367
3302.00,0.0369
3301.00,0.0371
3300.00,0.0373
3299.00,0.0375
3298.00,0.0377
3297.00,0.0379
3296.00,0.0380
3295.00,0.0382
3294.00,0.0384
3293.00,0.0385
3292.00,0.0387
3291.00,0.0388
3290.00,0.0390
3289.00,0.0391
3288.00,0.0393
3287.00,0.0394
3286.00,0.0396
3285.00,0.0397
3284.00,0.0398
3283.00,0.0399
3282.00,0.0399
3281.00,0.0400
3280.00,0.0400
3279.00,0.0400
3278.00,0.0400
3277.00,0.0400
3276.00,0.0400
3275.00,0.0400
3274.00,0.0399
3273.00,0.0398
3272.00,0.0397
3271.00,0.0397
3270.00,0.0396
3269.00,0.0395
3268.00,0.0394
3267.00,0.0392
3266.00,0.0391
3265.00,0.0389
3264.00,0.0387
3263.00,0.0386
3262.00,0.0384
3261.00,0.0382
3260.00,0.0380
3259.00,0.0378
3258.00,0.0376
3257.00,0.0374
3256.00,0.0372
3255.00,0.0371
3254.00,0.0369
3253.00,0.0367
3252.00,0.0365
3251.00,0.0363
3250.00,0.0361
3249.00,0.0359
3248.00,0.0357
3247.00,0.0356
3246.00,0.0354
3245.00,0.0352
3244.00,0.0351
3243.00,0.0349
3242.00,0.0347
3241.00,0.0346
3240.00,0.0344
3239.00,0.0342
3238.00,0.0341
3237.00,0.0339
3236.00,0.0338
3235.00,0.0336
3234.00,0.0335
3233.00,0.0334
3232.00,0.0333
3231.00,0.0331
3230.00,0.0330
3229.00,0.0328
3228.00,0.0327
3227.00,0.0326
3226.00,0.0325
3225.00,0.0324
3224.00,0.0323
3223.00,0.0321
3222.00,0.0320
3221.00,0.0319
3220.00,0.0318
3219.00,0.0317
3218.00,0.0316
3217.00,0.0315
3216.00,0.0314
3215.00,0.0313
3214.00,0.0312
3213.00,0.0311
3212.00,0.0310
3211.00,0.0309
3210.00,0.0308
3209.00,0.0307
3208.00,0.0306
3207.00,0.0305
3206.00,0.0304
3205.00,0.0303
3204.00,0.0302
3203.00,0.0301
3202.00,0.0300
3201.00,0.0300
3200.00,0.0299
3199.00,0.0298
3198.00,0.0297
3197.00,0.0296
3196.00,0.0295
3195.00,0.0293
3194.00,0.0292
3193.00,0.0291
3192.00,0.0290
3191.00,0.0288
3190.00,0.0287
3189.00,0.0286
3188.00,0.0285
3187.00,0.0284
3186.00,0.0283
3185.00,0.0282
3184.00,0.0281
3183.00,0.0280
3182.00,0.0278
3181.00,0.0277
3180.00,0.0276
3179.00,0.0275
3178.00,0.0273
3177.00,0.0272
3176.00,0.0272
3175.00,0.0271
3174.00,0.0269
3173.00,0.0267
3172.00,0.0266
3171.00,0.0264
3170.00,0.0263
3169.00,0.0262
3168.00,0.0261
3167.00,0.0259
3166.00,0.0258
3165.00,0.0257
3164.00,0.0255
3163.00,0.0254
3162.00,0.0253
3161.00,0.0252
3160.00,0.0251
3159.00,0.0250
3158.00,0.0249
3157.00,0.0248
3156.00,0.0247
3155.00,0.0246
3154.00,0.0245
3153.00,0.0244
3152.00,0.0242
3151.00,0.0241
3150.00,0.0240
3149.00,0.0239
3148.00,0.0238
3147.00,0.0238
3146.00,0.0237
3145.00,0.0236
3144.00,0.0235
3143.00,0.0235
3142.00,0.0234
3141.00,0.0233
3140.00,0.0232
3139.00,0.0231
3138.00,0.0230
3137.00,0.0229
3136.00,0.0228
3135.00,0.0227
3134.00,0.0226
3133.00,0.0225
3132.00,0.0225
3131.00,0.0224
3130.00,0.0224
3129.00,0.0224
3128.00,0.0223
3127.00,0.0223
3126.00,0.0222
3125.00,0.0221
3124.00,0.0221
3123.00,0.0220
3122.00,0.0220
3121.00,0.0219
3120.00,0.0219
3119.00,0.0219
3118.00,0.0219
3117.00,0.0218
3116.00,0.0218
3115.00,0.0218
3114.00,0.0218
3113.00,0.0218
3112.00,0.0217
3111.00,0.0217
3110.00,0.0217
3109.00,0.0217
3108.00,0.0218
3107.00,0.0218
3106.00,0.0218
3105.00,0.0218
3104.00,0.0218
3103.00,0.0219
3102.00,0.0219
3101.00,0.0219
3100.00,0.0220
3099.00,0.0220
3098.00,0.0220
3097.00,0.0220
3096.00,0.0220
3095.00,0.0220
3094.00,0.0221
3093.00,0.0221
3092.00,0.0221
3091.00,0.0222
3090.00,0.0222
3089.00,0.0222
3088.00,0.0222
3087.00,0.0223
3086.00,0.0223
3085.00,0.0224
3084.00,0.0224
3083.00,0.0224
3082.00,0.0224
3081.00,0.0224
3080.00,0.0224
3079.00,0.0224
3078.00,0.0225
3077.00,0.0225
3076.00,0.0226
3075.00,0.0226
3074.00,0.0226
3073.00,0.0226
3072.00,0.0226
3071.00,0.0226
3070.00,0.0226
3069.00,0.0226
3068.00,0.0226
3067.00,0.0226
3066.00,0.0226
3065.00,0.0226
3064.00,0.0226
3063.00,0.0226
3062.00,0.0227
3061.00,0.0226
3060.00,0.0226
3059.00,0.0225
3058.00,0.0224
3057.00,0.0224
3056.00,0.0223
3055.00,0.0222
3054.00,0.0222
3053.00,0.0221
3052.00,0.0221
3051.00,0.0220
3050.00,0.0220
3049.00,0.0220
3048.00,0.0219
3047.00,0.0218
3046.00,0.0218
3045.00,0.0217
3044.00,0.0216
3043.00,0.0215
3042.00,0.0215
3041.00,0.0214
3040.00,0.0213
3039.00,0.0213
3038.00,0.0212
3037.00,0.0211
3036.00,0.0210
3035.00,0.0209
3034.00,0.0208
3033.00,0.0207
3032.00,0.0206
3031.00,0.0206
3030.00,0.0205
3029.00,0.0205
3028.00,0.0205
3027.00,0.0204
3026.00,0.0203
3025.00,0.0203
3024.00,0.0202
3023.00,0.0200
3022.00,0.0199
3021.00,0.0198
3020.00,0.0196
3019.00,0.0195
3018.00,0.0194
3017.00,0.0194
3016.00,0.0193
3015.00,0.0193
3014.00,0.0193
3013.00,0.0193
3012.00,0.0193
3011.00,0.0193
3010.00,0.0193
3009.00,0.0193
3008.00,0.0193
3007.00,0.0192
3006.00,0.0192
3005.00,0.0191
3004.00,0.0191
3003.00,0.0191
3002.00,0.0191
3001.00,0.0191
3000.00,0.0191
2999.00,0.0191
2998.00,0.0192
2997.00,0.0192
2996.00,0.0193
2995.00,0.0193
2994.00,0.0194
2993.00,0.0195
2992.00,0.0195
2991.00,0.0196
2990.00,0.0197
2989.00,0.0199
2988.00,0.0200
2987.00,0.0201
2986.00,0.0202
2985.00,0.0203
2984.00,0.0204
2983.00,0.0206
2982.00,0.0207
2981.00,0.0208
2980.00,0.0209
2979.00,0.0211
2978.00,0.0212
2977.00,0.0213
2976.00,0.0214
2975.00,0.0215
2974.00,0.0216
2973.00,0.0218
2972.00,0.0219
2971.00,0.0220
2970.00,0.0221
2969.00,0.0222
2968.00,0.0223
2967.00,0.0224
2966.00,0.0225
2965.00,0.0226
2964.00,0.0226
2963.00,0.0226
2962.00,0.0227
2961.00,0.0227
2960.00,0.0227
2959.00,0.0227
2958.00,0.0227
2957.00,0.0226
2956.00,0.0225
2955.00,0.0225
2954.00,0.0224
2953.00,0.0224
2952.00,0.0223
2951.00,0.0222
2950.00,0.0222
2949.00,0.0222
2948.00,0.0222
2947.00,0.0222
2946.00,0.0223
2945.00,0.0224
2944.00,0.0225
2943.00,0.0227
2942.00,0.0228
2941.00,0.0230
2940.00,0.0231
2939.00,0.0233
2938.00,0.0235
2937.00,0.0236
2936.00,0.0238
2935.00,0.0239
2934.00,0.0241
2933.00,0.0242
2932.00,0.0243
2931.00,0.0244
2930.00,0.0245
2929.00,0.0246
2928.00,0.0247
2927.00,0.0248
2926.00,0.0250
2925.00,0.0251
2924.00,0.0253
2923.00,0.0255
2922.00,0.0257
2921.00,0.0259
2920.00,0.0261
2919.00,0.0262
2918.00,0.0262
2917.00,0.0261
2916.00,0.0259
2915.00,0.0255
2914.00,0.0251
2913.00,0.0245
2912.00,0.0240
2911.00,0.0235
2910.00,0.0231
2909.00,0.0228
2908.00,0.0225
2907.00,0.0223
2906.00,0.0220
2905.00,0.0219
2904.00,0.0217
2903.00,0.0216
2902.00,0.0215
2901.00,0.0213
2900.00,0.0212
2899.00,0.0211
2898.00,0.0210
2897.00,0.0210
2896.00,0.0209
2895.00,0.0208
2894.00,0.0207
2893.00,0.0207
2892.00,0.0206
2891.00,0.0205
2890.00,0.0204
2889.00,0.0204
2888.00,0.0204
2887.00,0.0203
2886.00,0.0204
2885.00,0.0204
2884.00,0.0204
2883.00,0.0204
2882.00,0.0204
2881.00,0.0204
2880.00,0.0205
2879.00,0.0205
2878.00,0.0205
2877.00,0.0205
2876.00,0.0206
2875.00,0.0206
2874.00,0.0205
2873.00,0.0205
2872.00,0.0204
2871.00,0.0204
2870.00,0.0203
2869.00,0.0202
2868.00,0.0200
2867.00,0.0199
2866.00,0.0197
2865.00,0.0196
2864.00,0.0195
2863.00,0.0194
2862.00,0.0193
2861.00,0.0193
2860.00,0.0193
2859.00,0.0194
2858.00,0.0195
2857.00,0.0196
2856.00,0.0197
2855.00,0.0199
2854.00,0.0201
2853.00,0.0204
2852.00,0.0206
2851.00,0.0209
2850.00,0.0210
2849.00,0.0209
2848.00,0.0207
2847.00,0.0203
2846.00,0.0199
2845.00,0.0194
2844.00,0.0190
2843.00,0.0186
2842.00,0.0183
2841.00,0.0181
2840.00,0.0179
2839.00,0.0177
2838.00,0.0176
2837.00,0.0175
2836.00,0.0174
2835.00,0.0173
2834.00,0.0172
2833.00,0.0171
2832.00,0.0171
2831.00,0.0170
2830.00,0.0170
2829.00,0.0169
2828.00,0.0169
2827.00,0.0168
2826.00,0.0168
2825.00,0.0167
2824.00,0.0166
2823.00,0.0166
2822.00,0.0166
2821.00,0.0166
2820.00,0.0166
2819.00,0.0165
2818.00,0.0165
2817.00,0.0164
2816.00,0.0164
2815.00,0.0163
2814.00,0.0163
2813.00,0.0163
2812.00,0.0162
2811.00,0.0162
2810.00,0.0162
2809.00,0.0162
2808.00,0.0161
2807.00,0.0161
2806.00,0.0160
2805.00,0.0160
2804.00,0.0160
2803.00,0.0160
2802.00,0.0159
2801.00,0.0159
2800.00,0.0159
2799.00,0.0158
2798.00,0.0158
2797.00,0.0157
2796.00,0.0157
2795.00,0.0157
2794.00,0.0157
2793.00,0.0156
2792.00,0.0156
2791.00,0.0156
2790.00,0.0156
2789.00,0.0155
2788.00,0.0155
2787.00,0.0155
2786.00,0.0155
2785.00,0.0154
2784.00,0.0154
2783.00,0.0154
2782.00,0.0154
2781.00,0.0153
2780.00,0.0153
2779.00,0.0153
2778.00,0.0153
2777.00,0.0152
2776.00,0.0152
2775.00,0.0152
2774.00,0.0152
2773.00,0.0151
2772.00,0.0151
2771.00,0.0151
2770.00,0.0151
2769.00,0.0150
2768.00,0.0150
2767.00,0.0150
2766.00,0.0149
2765.00,0.0149
2764.00,0.0149
2763.00,0.0149
2762.00,0.0149
2761.00,0.0149
2760.00,0.0149
2759.00,0.0148
2758.00,0.0148
2757.00,0.0148
2756.00,0.0148
2755.00,0.0147
2754.00,0.0147
2753.00,0.0147
2752.00,0.0147
2751.00,0.0147
2750.00,0.0146
2749.00,0.0146
2748.00,0.0146
2747.00,0.0146
2746.00,0.0146
2745.00,0.0146
2744.00,0.0145
2743.00,0.0145
2742.00,0.0145
2741.00,0.0145
2740.00,0.0145
2739.00,0.0144
2738.00,0.0144
2737.00,0.0144
2736.00,0.0143
2735.00,0.0143
2734.00,0.0142
2733.00,0.0142
2732.00,0.0142
2731.00,0.0142
2730.00,0.0142
2729.00,0.0142
2728.00,0.0142
2727.00,0.0141
2726.00,0.0141
2725.00,0.0141
2724.00,0.0141
2723.00,0.0141
2722.00,0.0140
2721.00,0.0140
2720.00,0.0140
2719.00,0.0139
2718.00,0.0139
2717.00,0.0139
2716.00,0.0139
2715.00,0.0138
2714.00,0.0138
2713.00,0.0138
2712.00,0.0138
2711.00,0.0137
2710.00,0.0137
2709.00,0.0137
2708.00,0.0137
2707.00,0.0137
2706.00,0.0137
2705.00,0.0137
2704.00,0.0136
2703.00,0.0136
2702.00,0.0136
2701.00,0.0135
2700.00,0.0136
2699.00,0.0136
2698.00,0.0136
2697.00,0.0135
2696.00,0.0135
2695.00,0.0135
2694.00,0.0135
2693.00,0.0134
2692.00,0.0134
2691.00,0.0134
2690.00,0.0134
2689.00,0.0134
2688.00,0.0134
2687.00,0.0134
2686.00,0.0134
2685.00,0.0133
2684.00,0.0133
2683.00,0.0133
2682.00,0.0133
2681.00,0.0133
2680.00,0.0133
2679.00,0.0133
2678.00,0.0132
2677.00,0.0132
2676.00,0.0132
2675.00,0.0132
2674.00,0.0132
2673.00,0.0132
2672.00,0.0131
2671.00,0.0131
2670.00,0.0131
2669.00,0.0131
2668.00,0.0132
2667.00,0.0132
2666.00,0.0133
2665.00,0.0133
2664.00,0.0133
2663.00,0.0134
2662.00,0.0134
2661.00,0.0134
2660.00,0.0134
2659.00,0.0134
2658.00,0.0134
2657.00,0.0134
2656.00,0.0134
2655.00,0.0135
2654.00,0.0135
2653.00,0.0135
2652.00,0.0134
2651.00,0.0134
2650.00,0.0134
2649.00,0.0134
2648.00,0.0134
2647.00,0.0134
2646.00,0.0134
2645.00,0.0134
2644.00,0.0133
2643.00,0.0133
2642.00,0.0133
2641.00,0.0133
2640.00,0.0132
2639.00,0.0132
2638.00,0.0132
2637.00,0.0132
2636.00,0.0133
2635.00,0.0132
2634.00,0.0132
2633.00,0.0132
2632.00,0.0132
2631.00,0.0132
2630.00,0.0132
2629.00,0.0132
2628.00,0.0132
2627.00,0.0132
2626.00,0.0131
2625.00,0.0131
2624.00,0.0131
2623.00,0.0131
2622.00,0.0131
2621.00,0.0131
2620.00,0.0131
2619.00,0.0131
2618.00,0.0131
2617.00,0.0130
2616.00,0.0130
2615.00,0.0129
2614.00,0.0129
2613.00,0.0129
2612.00,0.0130
2611.00,0.0130
2610.00,0.0130
2609.00,0.0129
2608.00,0.0129
2607.00,0.0129
2606.00,0.0129
2605.00,0.0128
2604.00,0.0128
2603.00,0.0128
2602.00,0.0127
2601.00,0.0127
2600.00,0.0127
2599.00,0.0127
2598.00,0.0127
2597.00,0.0127
2596.00,0.0127
2595.00,0.0126
2594.00,0.0126
2593.00,0.0126
2592.00,0.0126
2591.00,0.0126
2590.00,0.0125
2589.00,0.0125
2588.00,0.0125
2587.00,0.0125
2586.00,0.0125
2585.00,0.0125
2584.00,0.0124
2583.00,0.0124
2582.00,0.0123
2581.00,0.0123
2580.00,0.0123
2579.00,0.0123
2578.00,0.0122
2577.00,0.0121
2576.00,0.0121
2575.00,0.0121
2574.00,0.0122
2573.00,0.0122
2572.00,0.0122
2571.00,0.0122
2570.00,0.0122
2569.00,0.0122
2568.00,0.0122
2567.00,0.0122
2566.00,0.0122
2565.00,0.0122
2564.00,0.0122
2563.00,0.0121
2562.00,0.0121
2561.00,0.0121
2560.00,0.0121
2559.00,0.0121
2558.00,0.0121
2557.00,0.0121
2556.00,0.0120
2555.00,0.0120
2554.00,0.0119
2553.00,0.0119
2552.00,0.0119
2551.00,0.0119
2550.00,0.0120
2549.00,0.0120
2548.00,0.0120
2547.00,0.0120
2546.00,0.0119
2545.00,0.0119
2544.00,0.0119
2543.00,0.0119
2542.00,0.0119
2541.00,0.0119
2540.00,0.0119
2539.00,0.0119
2538.00,0.0119
2537.00,0.0119
2536.00,0.0119
2535.00,0.0119
2534.00,0.0119
2533.00,0.0119
2532.00,0.0118
2531.00,0.0118
2530.00,0.0118
2529.00,0.0118
2528.00,0.0118
2527.00,0.0118
2526.00,0.0118
2525.00,0.0118
2524.00,0.0117
2523.00,0.0117
2522.00,0.0117
2521.00,0.0117
2520.00,0.0117
2519.00,0.0117
2518.00,0.0118
2517.00,0.0118
2516.00,0.0117
2515.00,0.0117
2514.00,0.0116
2513.00,0.0115
2512.00,0.0115
2511.00,0.0115
2510.00,0.0116
2509.00,0.0116
2508.00,0.0116
2507.00,0.0117
2506.00,0.0116
2505.00,0.0116
2504.00,0.0116
2503.00,0.0116
2502.00,0.0116
2501.00,0.0115
2500.00,0.0115
2499.00,0.0115
2498.00,0.0115
2497.00,0.0114
2496.00,0.0114
2495.00,0.0114
2494.00,0.0114
2493.00,0.0114
2492.00,0.0114
2491.00,0.0115
2490.00,0.0115
2489.00,0.0115
2488.00,0.0115
2487.00,0.0116
2486.00,0.0116
2485.00,0.0115
2484.00,0.0115
2483.00,0.0114
2482.00,0.0114
2481.00,0.0114
2480.00,0.0113
2479.00,0.0113
2478.00,0.0114
2477.00,0.0114
2476.00,0.0114
2475.00,0.0113
2474.00,0.0113
2473.00,0.0113
2472.00,0.0114
2471.00,0.0114
2470.00,0.0114
2469.00,0.0114
2468.00,0.0114
2467.00,0.0114
2466.00,0.0113
2465.00,0.0113
2464.00,0.0113
2463.00,0.0113
2462.00,0.0113
2461.00,0.0113
2460.00,0.0113
2459.00,0.0114
2458.00,0.0114
2457.00,0.0114
2456.00,0.0113
2455.00,0.0113
2454.00,0.0113
2453.00,0.0112
2452.00,0.0112
2451.00,0.0112
2450.00,0.0111
2449.00,0.0111
2448.00,0.0112
2447.00,0.0112
2446.00,0.0112
2445.00,0.0111
2444.00,0.0111
2443.00,0.0111
2442.00,0.0111
2441.00,0.0111
2440.00,0.0111
2439.00,0.0111
2438.00,0.0111
2437.00,0.0111
2436.00,0.0110
2435.00,0.0110
2434.00,0.0109
2433.00,0.0109
2432.00,0.0109
2431.00,0.0109
2430.00,0.0108
2429.00,0.0108
2428.00,0.0108
2427.00,0.0108
2426.00,0.0108
2425.00,0.0108
2424.00,0.0108
2423.00,0.0108
2422.00,0.0108
2421.00,0.0108
2420.00,0.0107
2419.00,0.0107
2418.00,0.0107
2417.00,0.0107
2416.00,0.0107
2415.00,0.0107
2414.00,0.0107
2413.00,0.0106
2412.00,0.0106
2411.00,0.0106
2410.00,0.0106
2409.00,0.0106
2408.00,0.0106
2407.00,0.0105
2406.00,0.0105
2405.00,0.0105
2404.00,0.0105
2403.00,0.0105
2402.00,0.0105
2401.00,0.0105
2400.00,0.0105
2399.00,0.0105
2398.00,0.0104
2397.00,0.0104
2396.00,0.0104
2395.00,0.0104
2394.00,0.0104
2393.00,0.0104
2392.00,0.0104
2391.00,0.0103
2390.00,0.0103
2389.00,0.0103
2388.00,0.0103
2387.00,0.0103
2386.00,0.0102
2385.00,0.0102
2384.00,0.0102
2383.00,0.0101
2382.00,0.0101
2381.00,0.0101
2380.00,0.0101
2379.00,0.0101
2378.00,0.0100
2377.00,0.0100
2376.00,0.0101
2375.00,0.0101
2374.00,0.0101
2373.00,0.0101
2372.00,0.0101
2371.00,0.0101
2370.00,0.0101
2369.00,0.0100
2368.00,0.0100
2367.00,0.0099
2366.00,0.0099
2365.00,0.0099
2364.00,0.0100
2363.00,0.0101
2362.00,0.0101
2361.00,0.0101
2360.00,0.0101
2359.00,0.0100
2358.00,0.0099
2357.00,0.0099
2356.00,0.0099
2355.00,0.0099
2354.00,0.0100
2353.00,0.0100
2352.00,0.0101
2351.00,0.0101
2350.00,0.0101
2349.00,0.0101
2348.00,0.0101
2347.00,0.0102
2346.00,0.0102
2345.00,0.0102
2344.00,0.0102
2343.00,0.0103
2342.00,0.0103
2341.00,0.0103
2340.00,0.0103
2339.00,0.0103
2338.00,0.0103
2337.00,0.0103
2336.00,0.0103
2335.00,0.0103
2334.00,0.0102
2333.00,0.0102
2332.00,0.0102
2331.00,0.0103
2330.00,0.0104
2329.00,0.0106
2328.00,0.0108
2327.00,0.0111
2326.00,0.0112
2325.00,0.0112
2324.00,0.0111
2323.00,0.0110
2322.00,0.0110
2321.00,0.0110
2320.00,0.0109
2319.00,0.0108
2318.00,0.0108
2317.00,0.0107
2316.00,0.0107
2315.00,0.0106
2314.00,0.0106
2313.00,0.0106
2312.00,0.0105
2311.00,0.0105
2310.00,0.0105
2309.00,0.0105
2308.00,0.0105
2307.00,0.0105
2306.00,0.0105
2305.00,0.0105
2304.00,0.0105
2303.00,0.0105
2302.00,0.0105
2301.00,0.0105
2300.00,0.0106
2299.00,0.0106
2298.00,0.0106
2297.00,0.0107
2296.00,0.0108
2295.00,0.0109
2294.00,0.0110
2293.00,0.0111
2292.00,0.0110
2291.00,0.0110
2290.00,0.0110
2289.00,0.0110
2288.00,0.0111
2287.00,0.0111
2286.00,0.0110
2285.00,0.0109
2284.00,0.0108
2283.00,0.0107
2282.00,0.0107
2281.00,0.0106
2280.00,0.0106
2279.00,0.0105
2278.00,0.0105
2277.00,0.0105
2276.00,0.0105
2275.00,0.0104
2274.00,0.0104
2273.00,0.0103
2272.00,0.0104
2271.00,0.0104
2270.00,0.0105
2269.00,0.0105
2268.00,0.0105
2267.00,0.0105
2266.00,0.0104
2265.00,0.0103
2264.00,0.0103
2263.00,0.0103
2262.00,0.0103
2261.00,0.0104
2260.00,0.0104
2259.00,0.0104
2258.00,0.0103
2257.00,0.0102
2256.00,0.0102
2255.00,0.0101
2254.00,0.0101
2253.00,0.0102
2252.00,0.0102
2251.00,0.0102
2250.00,0.0102
2249.00,0.0103
2248.00,0.0103
2247.00,0.0103
2246.00,0.0102
2245.00,0.0101
2244.00,0.0100
2243.00,0.0100
2242.00,0.0100
2241.00,0.0100
2240.00,0.0101
2239.00,0.0101
2238.00,0.0101
2237.00,0.0101
2236.00,0.0101
2235.00,0.0102
2234.00,0.0102
2233.00,0.0103
2232.00,0.0103
2231.00,0.0103
2230.00,0.0102
2229.00,0.0101
2228.00,0.0100
2227.00,0.0100
2226.00,0.0099
2225.00,0.0099
2224.00,0.0099
2223.00,0.0100
2222.00,0.0100
2221.00,0.0100
2220.00,0.0101
2219.00,0.0102
2218.00,0.0103
2217.00,0.0103
2216.00,0.0102
2215.00,0.0101
2214.00,0.0100
2213.00,0.0100
2212.00,0.0101
2211.00,0.0101
2210.00,0.0100
2209.00,0.0100
2208.00,0.0101
2207.00,0.0101
2206.00,0.0101
2205.00,0.0101
2204.00,0.0100
2203.00,0.0101
2202.00,0.0101
2201.00,0.0103
2200.00,0.0104
2199.00,0.0104
2198.00,0.0103
2197.00,0.0102
2196.00,0.0101
2195.00,0.0102
2194.00,0.0102
2193.00,0.0103
2192.00,0.0103
2191.00,0.0103
2190.00,0.0103
2189.00,0.0104
2188.00,0.0105
2187.00,0.0105
2186.00,0.0105
2185.00,0.0105
2184.00,0.0103
2183.00,0.0100
2182.00,0.0098
2181.00,0.0097
2180.00,0.0097
2179.00,0.0097
2178.00,0.0097
2177.00,0.0097
2176.00,0.0097
2175.00,0.0098
2174.00,0.0099
2173.00,0.0100
2172.00,0.0101
2171.00,0.0102
2170.00,0.0104
2169.00,0.0107
2168.00,0.0109
2167.00,0.0111
2166.00,0.0111
2165.00,0.0111
2164.00,0.0112
2163.00,0.0112
2162.00,0.0107
2161.00,0.0096
2160.00,0.0083
2159.00,0.0072
2158.00,0.0068
2157.00,0.0069
2156.00,0.0072
2155.00,0.0075
2154.00,0.0078
2153.00,0.0080
2152.00,0.0081
2151.00,0.0082
2150.00,0.0082
2149.00,0.0082
2148.00,0.0082
2147.00,0.0082
2146.00,0.0082
2145.00,0.0082
2144.00,0.0082
2143.00,0.0082
2142.00,0.0082
2141.00,0.0083
2140.00,0.0083
2139.00,0.0082
2138.00,0.0081
2137.00,0.0079
2136.00,0.0077
2135.00,0.0076
2134.00,0.0076
2133.00,0.0077
2132.00,0.0079
2131.00,0.0081
2130.00,0.0083
2129.00,0.0084
2128.00,0.0085
2127.00,0.0085
2126.00,0.0085
2125.00,0.0086
2124.00,0.0088
2123.00,0.0089
2122.00,0.0090
2121.00,0.0090
2120.00,0.0091
2119.00,0.0092
2118.00,0.0093
2117.00,0.0094
2116.00,0.0094
2115.00,0.0094
2114.00,0.0094
2113.00,0.0094
2112.00,0.0094
2111.00,0.0094
2110.00,0.0094
2109.00,0.0095
2108.00,0.0095
2107.00,0.0096
2106.00,0.0096
2105.00,0.0095
2104.00,0.0094
2103.00,0.0093
2102.00,0.0093
2101.00,0.0093
2100.00,0.0093
2099.00,0.0092
2098.00,0.0091
2097.00,0.0089
2096.00,0.0088
2095.00,0.0087
2094.00,0.0087
2093.00,0.0088
2092.00,0.0090
2091.00,0.0091
2090.00,0.0092
2089.00,0.0092
2088.00,0.0093
2087.00,0.0093
2086.00,0.0094
2085.00,0.0095
2084.00,0.0095
2083.00,0.0095
2082.00,0.0094
2081.00,0.0094
2080.00,0.0094
2079.00,0.0095
2078.00,0.0096
2077.00,0.0097
2076.00,0.0098
2075.00,0.0099
2074.00,0.0100
2073.00,0.0099
2072.00,0.0097
2071.00,0.0096
2070.00,0.0095
2069.00,0.0095
2068.00,0.0094
2067.00,0.0093
2066.00,0.0092
2065.00,0.0091
2064.00,0.0090
2063.00,0.0090
2062.00,0.0090
2061.00,0.0090
2060.00,0.0091
2059.00,0.0091
2058.00,0.0091
2057.00,0.0091
2056.00,0.0091
2055.00,0.0093
2054.00,0.0096
2053.00,0.0100
2052.00,0.0103
2051.00,0.0102
2050.00,0.0099
2049.00,0.0095
2048.00,0.0092
2047.00,0.0092
2046.00,0.0092
2045.00,0.0092
2044.00,0.0092
2043.00,0.0093
2042.00,0.0095
2041.00,0.0096
2040.00,0.0096
2039.00,0.0094
2038.00,0.0093
2037.00,0.0091
2036.00,0.0089
2035.00,0.0087
2034.00,0.0087
2033.00,0.0087
2032.00,0.0087
2031.00,0.0086
2030.00,0.0085
2029.00,0.0085
2028.00,0.0085
2027.00,0.0084
2026.00,0.0083
2025.00,0.0083
2024.00,0.0083
2023.00,0.0084
2022.00,0.0084
2021.00,0.0083
2020.00,0.0081
2019.00,0.0080
2018.00,0.0081
2017.00,0.0083
2016.00,0.0084
2015.00,0.0082
2014.00,0.0077
2013.00,0.0069
2012.00,0.0063
2011.00,0.0062
2010.00,0.0065
2009.00,0.0071
2008.00,0.0076
2007.00,0.0079
2006.00,0.0081
2005.00,0.0083
2004.00,0.0085
2003.00,0.0087
2002.00,0.0088
2001.00,0.0088
2000.00,0.0087
1999.00,0.0085
1998.00,0.0083
1997.00,0.0082
1996.00,0.0083
1995.00,0.0084
1994.00,0.0086
1993.00,0.0088
1992.00,0.0090
1991.00,0.0090
1990.00,0.0090
1989.00,0.0091
1988.00,0.0092
1987.00,0.0094
1986.00,0.0096
1985.00,0.0097
1984.00,0.0098
1983.00,0.0099
1982.00,0.0103
1981.00,0.0106
1980.00,0.0106
1979.00,0.0101
1978.00,0.0091
1977.00,0.0083
1976.00,0.0078
1975.00,0.0076
1974.00,0.0076
1973.00,0.0076
1972.00,0.0077
1971.00,0.0079
1970.00,0.0080
1969.00,0.0081
1968.00,0.0082
1967.00,0.0081
1966.00,0.0081
1965.00,0.0080
1964.00,0.0080
1963.00,0.0080
1962.00,0.0078
1961.00,0.0076
1960.00,0.0074
1959.00,0.0074
1958.00,0.0075
1957.00,0.0077
1956.00,0.0078
1955.00,0.0079
1954.00,0.0078
1953.00,0.0077
1952.00,0.0077
1951.00,0.0078
1950.00,0.0079
1949.00,0.0079
1948.00,0.0079
1947.00,0.0078
1946.00,0.0077
1945.00,0.0077
1944.00,0.0077
1943.00,0.0078
1942.00,0.0079
1941.00,0.0080
1940.00,0.0079
1939.00,0.0078
1938.00,0.0077
1937.00,0.0077
1936.00,0.0077
1935.00,0.0078
1934.00,0.0077
1933.00,0.0076
1932.00,0.0076
1931.00,0.0077
1930.00,0.0077
1929.00,0.0077
1928.00,0.0077
1927.00,0.0077
1926.00,0.0076
1925.00,0.0075
1924.00,0.0076
1923.00,0.0076
1922.00,0.0077
1921.00,0.0077
1920.00,0.0077
1919.00,0.0077
1918.00,0.0078
1917.00,0.0077
1916.00,0.0077
1915.00,0.0076
1914.00,0.0076
1913.00,0.0077
1912.00,0.0078
1911.00,0.0078
1910.00,0.0078
1909.00,0.0078
1908.00,0.0078
1907.00,0.0078
1906.00,0.0077
1905.00,0.0077
1904.00,0.0077
1903.00,0.0076
1902.00,0.0076
1901.00,0.0076
1900.00,0.0076
1899.00,0.0076
1898.00,0.0076
1897.00,0.0076
1896.00,0.0077
1895.00,0.0077
1894.00,0.0077
1893.00,0.0076
1892.00,0.0076
1891.00,0.0076
1890.00,0.0076
1889.00,0.0077
1888.00,0.0077
1887.00,0.0078
1886.00,0.0077
1885.00,0.0077
1884.00,0.0077
1883.00,0.0076
1882.00,0.0075
1881.00,0.0075
1880.00,0.0075
1879.00,0.0076
1878.00,0.0076
1877.00,0.0076
1876.00,0.0076
1875.00,0.0076
1874.00,0.0075
1873.00,0.0074
1872.00,0.0073
1871.00,0.0072
1870.00,0.0072
1869.00,0.0072
1868.00,0.0073
1867.00,0.0073
1866.00,0.0074
1865.00,0.0074
1864.00,0.0074
1863.00,0.0073
1862.00,0.0073
1861.00,0.0073
1860.00,0.0073
1859.00,0.0073
1858.00,0.0073
1857.00,0.0073
1856.00,0.0074
1855.00,0.0075
1854.00,0.0076
1853.00,0.0076
1852.00,0.0075
1851.00,0.0074
1850.00,0.0073
1849.00,0.0072
1848.00,0.0072
1847.00,0.0072
1846.00,0.0072
1845.00,0.0073
1844.00,0.0074
1843.00,0.0074
1842.00,0.0073
1841.00,0.0072
1840.00,0.0071
1839.00,0.0071
1838.00,0.0071
1837.00,0.0071
1836.00,0.0071
1835.00,0.0071
1834.00,0.0070
1833.00,0.0069
1832.00,0.0069
1831.00,0.0068
1830.00,0.0069
1829.00,0.0069
1828.00,0.0070
1827.00,0.0070
1826.00,0.0070
1825.00,0.0070
1824.00,0.0071
1823.00,0.0071
1822.00,0.0070
1821.00,0.0069
1820.00,0.0068
1819.00,0.0067
1818.00,0.0067
1817.00,0.0067
1816.00,0.0068
1815.00,0.0068
1814.00,0.0067
1813.00,0.0067
1812.00,0.0067
1811.00,0.0068
1810.00,0.0068
1809.00,0.0069
1808.00,0.0069
1807.00,0.0069
1806.00,0.0069
1805.00,0.0068
1804.00,0.0068
1803.00,0.0068
1802.00,0.0068
1801.00,0.0068
1800.00,0.0069
1799.00,0.0068
1798.00,0.0068
1797.00,0.0068
1796.00,0.0067
1795.00,0.0067
1794.00,0.0067
1793.00,0.0068
1792.00,0.0069
1791.00,0.0070
1790.00,0.0070
1789.00,0.0069
1788.00,0.0068
1787.00,0.0068
1786.00,0.0068
1785.00,0.0069
1784.00,0.0069
1783.00,0.0068
1782.00,0.0067
1781.00,0.0067
1780.00,0.0067
1779.00,0.0066
1778.00,0.0066
1777.00,0.0066
1776.00,0.0065
1775.00,0.0065
1774.00,0.0064
1773.00,0.0064
1772.00,0.0065
1771.00,0.0065
1770.00,0.0066
1769.00,0.0066
1768.00,0.0066
1767.00,0.0066
1766.00,0.0065
1765.00,0.0064
1764.00,0.0063
1763.00,0.0063
1762.00,0.0062
1761.00,0.0062
1760.00,0.0061
1759.00,0.0060
1758.00,0.0060
1757.00,0.0060
1756.00,0.0061
1755.00,0.0060
1754.00,0.0060
1753.00,0.0059
1752.00,0.0059
1751.00,0.0058
1750.00,0.0057
1749.00,0.0057
1748.00,0.0057
1747.00,0.0057
1746.00,0.0057
1745.00,0.0057
1744.00,0.0057
1743.00,0.0058
1742.00,0.0058
1741.00,0.0059
1740.00,0.0060
1739.00,0.0061
1738.00,0.0061
1737.00,0.0062
1736.00,0.0064
1735.00,0.0066
1734.00,0.0069
1733.00,0.0070
1732.00,0.0070
1731.00,0.0070
1730.00,0.0070
1729.00,0.0071
1728.00,0.0072
1727.00,0.0073
1726.00,0.0074
1725.00,0.0075
1724.00,0.0077
1723.00,0.0078
1722.00,0.0078
1721.00,0.0079
1720.00,0.0080
1719.00,0.0081
1718.00,0.0083
1717.00,0.0086
1716.00,0.0089
1715.00,0.0093
1714.00,0.0096
1713.00,0.0099
1712.00,0.0103
1711.00,0.0107
1710.00,0.0112
1709.00,0.0117
1708.00,0.0124
1707.00,0.0132
1706.00,0.0142
1705.00,0.0154
1704.00,0.0166
1703.00,0.0178
1702.00,0.0193
1701.00,0.0210
1700.00,0.0229
1699.00,0.0245
1698.00,0.0257
1697.00,0.0268
1696.00,0.0281
1695.00,0.0291
1694.00,0.0299
1693.00,0.0306
1692.00,0.0315
1691.00,0.0324
1690.00,0.0334
1689.00,0.0344
1688.00,0.0354
1687.00,0.0364
1686.00,0.0374
1685.00,0.0385
1684.00,0.0397
1683.00,0.0408
1682.00,0.0418
1681.00,0.0430
1680.00,0.0443
1679.00,0.0455
1678.00,0.0466
1677.00,0.0478
1676.00,0.0490
1675.00,0.0501
1674.00,0.0511
1673.00,0.0521
1672.00,0.0533
1671.00,0.0545
1670.00,0.0558
1669.00,0.0571
1668.00,0.0584
1667.00,0.0596
1666.00,0.0609
1665.00,0.0622
1664.00,0.0636
1663.00,0.0649
1662.00,0.0662
1661.00,0.0674
1660.00,0.0686
1659.00,0.0699
1658.00,0.0711
1657.00,0.0723
1656.00,0.0736
1655.00,0.0749
1654.00,0.0758
1653.00,0.0761
1652.00,0.0761
1651.00,0.0764
1650.00,0.0771
1649.00,0.0781
1648.00,0.0789
1647.00,0.0793
1646.00,0.0793
1645.00,0.0793
1644.00,0.0796
1643.00,0.0799
1642.00,0.0802
1641.00,0.0805
1640.00,0.0806
1639.00,0.0808
1638.00,0.0810
1637.00,0.0811
1636.00,0.0808
1635.00,0.0804
1634.00,0.0801
1633.00,0.0801
1632.00,0.0805
1631.00,0.0809
1630.00,0.0812
1629.00,0.0814
1628.00,0.0815
1627.00,0.0817
1626.00,0.0820
1625.00,0.0823
1624.00,0.0825
1623.00,0.0825
1622.00,0.0824
1621.00,0.0824
1620.00,0.0826
1619.00,0.0828
1618.00,0.0826
1617.00,0.0817
1616.00,0.0804
1615.00,0.0791
1614.00,0.0780
1613.00,0.0770
1612.00,0.0758
1611.00,0.0742
1610.00,0.0725
1609.00,0.0706
1608.00,0.0686
1607.00,0.0667
1606.00,0.0648
1605.00,0.0631
1604.00,0.0614
1603.00,0.0597
1602.00,0.0580
1601.00,0.0564
1600.00,0.0550
1599.00,0.0535
1598.00,0.0523
1597.00,0.0510
1596.00,0.0499
1595.00,0.0488
1594.00,0.0478
1593.00,0.0468
1592.00,0.0459
1591.00,0.0451
1590.00,0.0443
1589.00,0.0436
1588.00,0.0430
1587.00,0.0425
1586.00,0.0421
1585.00,0.0418
1584.00,0.0415
1583.00,0.0413
1582.00,0.0412
1581.00,0.0411
1580.00,0.0411
1579.00,0.0412
1578.00,0.0413
1577.00,0.0415
1576.00,0.0415
1575.00,0.0415
1574.00,0.0415
1573.00,0.0418
1572.00,0.0421
1571.00,0.0425
1570.00,0.0429
1569.00,0.0433
1568.00,0.0438
1567.00,0.0443
1566.00,0.0450
1565.00,0.0457
1564.00,0.0465
1563.00,0.0473
1562.00,0.0483
1561.00,0.0493
1560.00,0.0502
1559.00,0.0512
1558.00,0.0522
1557.00,0.0532
1556.00,0.0543
1555.00,0.0555
1554.00,0.0568
1553.00,0.0580
1552.00,0.0592
1551.00,0.0603
1550.00,0.0616
1549.00,0.0628
1548.00,0.0639
1547.00,0.0650
1546.00,0.0662
1545.00,0.0673
1544.00,0.0683
1543.00,0.0692
1542.00,0.0701
1541.00,0.0710
1540.00,0.0716
1539.00,0.0721
1538.00,0.0725
1537.00,0.0731
1536.00,0.0739
1535.00,0.0746
1534.00,0.0752
1533.00,0.0755
1532.00,0.0759
1531.00,0.0764
1530.00,0.0769
1529.00,0.0775
1528.00,0.0779
1527.00,0.0782
1526.00,0.0785
1525.00,0.0788
1524.00,0.0792
1523.00,0.0796
1522.00,0.0801
1521.00,0.0803
1520.00,0.0806
1519.00,0.0810
1518.00,0.0815
1517.00,0.0821
1516.00,0.0824
1515.00,0.0826
1514.00,0.0826
1513.00,0.0825
1512.00,0.0822
1511.00,0.0817
1510.00,0.0813
1509.00,0.0809
1508.00,0.0801
1507.00,0.0788
1506.00,0.0772
1505.00,0.0758
1504.00,0.0748
1503.00,0.0742
1502.00,0.0736
1501.00,0.0728
1500.00,0.0718
1499.00,0.0707
1498.00,0.0694
1497.00,0.0679
1496.00,0.0663
1495.00,0.0647
1494.00,0.0633
1493.00,0.0621
1492.00,0.0608
1491.00,0.0593
1490.00,0.0576
1489.00,0.0560
1488.00,0.0545
1487.00,0.0532
1486.00,0.0520
1485.00,0.0509
1484.00,0.0499
1483.00,0.0491
1482.00,0.0482
1481.00,0.0474
1480.00,0.0468
1479.00,0.0462
1478.00,0.0458
1477.00,0.0455
1476.00,0.0453
1475.00,0.0452
1474.00,0.0452
1473.00,0.0452
1472.00,0.0453
1471.00,0.0453
1470.00,0.0453
1469.00,0.0454
1468.00,0.0454
1467.00,0.0455
1466.00,0.0456
1465.00,0.0456
1464.00,0.0456
1463.00,0.0457
1462.00,0.0458
1461.00,0.0460
1460.00,0.0463
1459.00,0.0467
1458.00,0.0472
1457.00,0.0478
1456.00,0.0482
1455.00,0.0484
1454.00,0.0486
1453.00,0.0489
1452.00,0.0491
1451.00,0.0492
1450.00,0.0492
1449.00,0.0492
1448.00,0.0491
1447.00,0.0489
1446.00,0.0487
1445.00,0.0485
1444.00,0.0482
1443.00,0.0478
1442.00,0.0474
1441.00,0.0470
1440.00,0.0467
1439.00,0.0464
1438.00,0.0461
1437.00,0.0457
1436.00,0.0451
1435.00,0.0446
1434.00,0.0442
1433.00,0.0439
1432.00,0.0437
1431.00,0.0434
1430.00,0.0431
1429.00,0.0429
1428.00,0.0427
1427.00,0.0427
1426.00,0.0427
1425.00,0.0428
1424.00,0.0429
1423.00,0.0430
1422.00,0.0432
1421.00,0.0435
1420.00,0.0438
1419.00,0.0441
1418.00,0.0445
1417.00,0.0447
1416.00,0.0450
1415.00,0.0452
1414.00,0.0455
1413.00,0.0458
1412.00,0.0461
1411.00,0.0464
1410.00,0.0466
1409.00,0.0468
1408.00,0.0469
1407.00,0.0470
1406.00,0.0470
1405.00,0.0469
1404.00,0.0468
1403.00,0.0467
1402.00,0.0465
1401.00,0.0464
1400.00,0.0462
1399.00,0.0460
1398.00,0.0458
1397.00,0.0457
1396.00,0.0456
1395.00,0.0455
1394.00,0.0455
1393.00,0.0454
1392.00,0.0453
1391.00,0.0453
1390.00,0.0453
1389.00,0.0453
1388.00,0.0453
1387.00,0.0452
1386.00,0.0451
1385.00,0.0450
1384.00,0.0448
1383.00,0.0447
1382.00,0.0446
1381.00,0.0445
1380.00,0.0443
1379.00,0.0442
1378.00,0.0440
1377.00,0.0439
1376.00,0.0437
1375.00,0.0436
1374.00,0.0434
1373.00,0.0432
1372.00,0.0431
1371.00,0.0430
1370.00,0.0428
1369.00,0.0426
1368.00,0.0423
1367.00,0.0420
1366.00,0.0417
1365.00,0.0414
1364.00,0.0411
1363.00,0.0408
1362.00,0.0405
1361.00,0.0403
1360.00,0.0401
1359.00,0.0399
1358.00,0.0398
1357.00,0.0397
1356.00,0.0396
1355.00,0.0396
1354.00,0.0395
1353.00,0.0395
1352.00,0.0396
1351.00,0.0396
1350.00,0.0397
1349.00,0.0397
1348.00,0.0397
1347.00,0.0396
1346.00,0.0396
1345.00,0.0396
1344.00,0.0396
1343.00,0.0396
1342.00,0.0397
1341.00,0.0397
1340.00,0.0398
1339.00,0.0398
1338.00,0.0399
1337.00,0.0399
1336.00,0.0399
1335.00,0.0399
1334.00,0.0398
1333.00,0.0397
1332.00,0.0397
1331.00,0.0396
1330.00,0.0395
1329.00,0.0394
1328.00,0.0393
1327.00,0.0393
1326.00,0.0392
1325.00,0.0392
1324.00,0.0392
1323.00,0.0393
1322.00,0.0393
1321.00,0.0393
1320.00,0.0394
1319.00,0.0394
1318.00,0.0395
1317.00,0.0396
1316.00,0.0397
1315.00,0.0397
1314.00,0.0398
1313.00,0.0398
1312.00,0.0399
1311.00,0.0399
1310.00,0.0399
1309.00,0.0399
1308.00,0.0399
1307.00,0.0398
1306.00,0.0398
1305.00,0.0398
1304.00,0.0398
1303.00,0.0397
1302.00,0.0397
1301.00,0.0396
1300.00,0.0395
1299.00,0.0395
1298.00,0.0394
1297.00,0.0394
1296.00,0.0393
1295.00,0.0393
1294.00,0.0392
1293.00,0.0391
1292.00,0.0391
1291.00,0.0391
1290.00,0.0391
1289.00,0.0390
1288.00,0.0390
1287.00,0.0390
1286.00,0.0390
1285.00,0.0390
1284.00,0.0390
1283.00,0.0389
1282.00,0.0389
1281.00,0.0389
1280.00,0.0389
1279.00,0.0389
1278.00,0.0390
1277.00,0.0390
1276.00,0.0390
1275.00,0.0390
1274.00,0.0390
1273.00,0.0391
1272.00,0.0391
1271.00,0.0393
1270.00,0.0394
1269.00,0.0395
1268.00,0.0397
1267.00,0.0398
1266.00,0.0400
1265.00,0.0402
1264.00,0.0404
1263.00,0.0406
1262.00,0.0408
1261.00,0.0410
1260.00,0.0412
1259.00,0.0413
1258.00,0.0415
1257.00,0.0416
1256.00,0.0418
1255.00,0.0421
1254.00,0.0423
1253.00,0.0426
1252.00,0.0428
1251.00,0.0431
1250.00,0.0433
1249.00,0.0436
1248.00,0.0438
1247.00,0.0441
1246.00,0.0443
1245.00,0.0445
1244.00,0.0447
1243.00,0.0450
1242.00,0.0452
1241.00,0.0454
1240.00,0.0455
1239.00,0.0457
1238.00,0.0458
1237.00,0.0460
1236.00,0.0461
1235.00,0.0462
1234.00,0.0463
1233.00,0.0464
1232.00,0.0465
1231.00,0.0466
1230.00,0.0466
1229.00,0.0465
1228.00,0.0465
1227.00,0.0463
1226.00,0.0461
1225.00,0.0459
1224.00,0.0456
1223.00,0.0453
1222.00,0.0451
1221.00,0.0448
1220.00,0.0446
1219.00,0.0443
1218.00,0.0441
1217.00,0.0438
1216.00,0.0435
1215.00,0.0431
1214.00,0.0428
1213.00,0.0424
1212.00,0.0421
1211.00,0.0418
1210.00,0.0414
1209.00,0.0411
1208.00,0.0407
1207.00,0.0403
1206.00,0.0399
1205.00,0.0395
1204.00,0.0391
1203.00,0.0387
1202.00,0.0383
1201.00,0.0379
1200.00,0.0375
1199.00,0.0372
1198.00,0.0368
1197.00,0.0365
1196.00,0.0363
1195.00,0.0360
1194.00,0.0358
1193.00,0.0356
1192.00,0.0354
1191.00,0.0352
1190.00,0.0350
1189.00,0.0348
1188.00,0.0346
1187.00,0.0345
1186.00,0.0344
1185.00,0.0343
1184.00,0.0342
1183.00,0.0342
1182.00,0.0341
1181.00,0.0341
1180.00,0.0342
1179.00,0.0343
1178.00,0.0344
1177.00,0.0346
1176.00,0.0349
1175.00,0.0351
1174.00,0.0353
1173.00,0.0356
1172.00,0.0358
1171.00,0.0360
1170.00,0.0362
1169.00,0.0364
1168.00,0.0366
1167.00,0.0367
1166.00,0.0368
1165.00,0.0369
1164.00,0.0369
1163.00,0.0369
1162.00,0.0369
1161.00,0.0368
1160.00,0.0367
1159.00,0.0366
1158.00,0.0365
1157.00,0.0363
1156.00,0.0361
1155.00,0.0359
1154.00,0.0357
1153.00,0.0355
1152.00,0.0353
1151.00,0.0351
1150.00,0.0348
1149.00,0.0345
1148.00,0.0343
1147.00,0.0340
1146.00,0.0338
1145.00,0.0336
1144.00,0.0334
1143.00,0.0332
1142.00,0.0331
1141.00,0.0330
1140.00,0.0329
1139.00,0.0329
1138.00,0.0328
1137.00,0.0328
1136.00,0.0327
1135.00,0.0327
1134.00,0.0327
1133.00,0.0327
1132.00,0.0328
1131.00,0.0328
1130.00,0.0329
1129.00,0.0329
1128.00,0.0329
1127.00,0.0330
1126.00,0.0330
1125.00,0.0330
1124.00,0.0330
1123.00,0.0330
1122.00,0.0330
1121.00,0.0330
1120.00,0.0329
1119.00,0.0329
1118.00,0.0328
1117.00,0.0328
1116.00,0.0327
1115.00,0.0327
1114.00,0.0326
1113.00,0.0326
1112.00,0.0326
1111.00,0.0326
1110.00,0.0327
1109.00,0.0327
1108.00,0.0328
1107.00,0.0329
1106.00,0.0329
1105.00,0.0330
1104.00,0.0331
1103.00,0.0332
1102.00,0.0332
1101.00,0.0332
1100.00,0.0332
1099.00,0.0332
1098.00,0.0333
1097.00,0.0334
1096.00,0.0336
1095.00,0.0337
1094.00,0.0339
1093.00,0.0342
1092.00,0.0344
1091.00,0.0347
1090.00,0.0351
1089.00,0.0355
1088.00,0.0360
1087.00,0.0365
1086.00,0.0370
1085.00,0.0375
1084.00,0.0379
1083.00,0.0384
1082.00,0.0389
1081.00,0.0393
1080.00,0.0398
1079.00,0.0402
1078.00,0.0406
1077.00,0.0410
1076.00,0.0413
1075.00,0.0417
1074.00,0.0420
1073.00,0.0423
1072.00,0.0426
1071.00,0.0428
1070.00,0.0430
1069.00,0.0431
1068.00,0.0432
1067.00,0.0434
1066.00,0.0437
1065.00,0.0439
1064.00,0.0440
1063.00,0.0440
1062.00,0.0440
1061.00,0.0440
1060.00,0.0441
1059.00,0.0440
1058.00,0.0439
1057.00,0.0438
1056.00,0.0436
1055.00,0.0434
1054.00,0.0433
1053.00,0.0431
1052.00,0.0429
1051.00,0.0427
1050.00,0.0424
1049.00,0.0422
1048.00,0.0419
1047.00,0.0416
1046.00,0.0413
1045.00,0.0411
1044.00,0.0408
1043.00,0.0406
1042.00,0.0403
1041.00,0.0400
1040.00,0.0396
1039.00,0.0392
1038.00,0.0389
1037.00,0.0386
1036.00,0.0384
1035.00,0.0381
1034.00,0.0378
1033.00,0.0376
1032.00,0.0373
1031.00,0.0371
1030.00,0.0368
1029.00,0.0365
1028.00,0.0361
1027.00,0.0357
1026.00,0.0353
1025.00,0.0349
1024.00,0.0345
1023.00,0.0342
1022.00,0.0338
1021.00,0.0334
1020.00,0.0331
1019.00,0.0327
1018.00,0.0323
1017.00,0.0319
1016.00,0.0316
1015.00,0.0312
1014.00,0.0309
1013.00,0.0307
1012.00,0.0304
1011.00,0.0302
1010.00,0.0300
1009.00,0.0297
1008.00,0.0294
1007.00,0.0291
1006.00,0.0288
1005.00,0.0285
1004.00,0.0282
1003.00,0.0280
1002.00,0.0278
1001.00,0.0276
1000.00,0.0273
999.00,0.0271
998.00,0.0270
997.00,0.0268
996.00,0.0266
995.00,0.0264
994.00,0.0263
993.00,0.0261
992.00,0.0260
991.00,0.0258
990.00,0.0257
989.00,0.0256
988.00,0.0255
987.00,0.0255
986.00,0.0254
985.00,0.0253
984.00,0.0252
983.00,0.0251
982.00,0.0251
981.00,0.0250
980.00,0.0250
979.00,0.0249
978.00,0.0249
977.00,0.0249
976.00,0.0248
975.00,0.0248
974.00,0.0248
973.00,0.0248
972.00,0.0248
971.00,0.0248
970.00,0.0249
969.00,0.0249
968.00,0.0249
967.00,0.0250
966.00,0.0250
965.00,0.0251
964.00,0.0251
963.00,0.0251
962.00,0.0251
961.00,0.0251
960.00,0.0251
959.00,0.0250
958.00,0.0249
957.00,0.0248
956.00,0.0247
955.00,0.0246
954.00,0.0245
953.00,0.0244
952.00,0.0244
951.00,0.0244
950.00,0.0243
949.00,0.0242
948.00,0.0241
947.00,0.0240
946.00,0.0240
945.00,0.0240
944.00,0.0239
943.00,0.0239
942.00,0.0240
941.00,0.0240
940.00,0.0240
939.00,0.0240
938.00,0.0241
937.00,0.0241
936.00,0.0242
935.00,0.0242
934.00,0.0242
933.00,0.0241
932.00,0.0241
931.00,0.0241
930.00,0.0240
929.00,0.0240
928.00,0.0239
927.00,0.0239
926.00,0.0238
925.00,0.0237
924.00,0.0236
923.00,0.0236
922.00,0.0235
921.00,0.0234
920.00,0.0233
919.00,0.0232
918.00,0.0231
917.00,0.0230
916.00,0.0228
915.00,0.0227
914.00,0.0226
913.00,0.0226
912.00,0.0226
911.00,0.0226
910.00,0.0226
909.00,0.0226
908.00,0.0225
907.00,0.0226
906.00,0.0226
905.00,0.0227
904.00,0.0228
903.00,0.0228
902.00,0.0229
901.00,0.0229
900.00,0.0228
899.00,0.0227
898.00,0.0227
897.00,0.0226
896.00,0.0225
895.00,0.0225
894.00,0.0224
893.00,0.0222
892.00,0.0221
891.00,0.0220
890.00,0.0218
889.00,0.0217
888.00,0.0216
887.00,0.0217
886.00,0.0218
885.00,0.0219
884.00,0.0220
883.00,0.0220
882.00,0.0218
881.00,0.0217
880.00,0.0216
879.00,0.0216
878.00,0.0216
877.00,0.0216
876.00,0.0215
875.00,0.0215
874.00,0.0214
873.00,0.0212
872.00,0.0211
871.00,0.0210
870.00,0.0209
869.00,0.0208
868.00,0.0207
867.00,0.0207
866.00,0.0206
865.00,0.0206
864.00,0.0205
863.00,0.0205
862.00,0.0205
861.00,0.0204
860.00,0.0204
859.00,0.0204
858.00,0.0203
857.00,0.0204
856.00,0.0204
855.00,0.0205
854.00,0.0206
853.00,0.0206
852.00,0.0206
851.00,0.0205
850.00,0.0204
849.00,0.0203
848.00,0.0203
847.00,0.0204
846.00,0.0205
845.00,0.0206
844.00,0.0206
843.00,0.0207
842.00,0.0207
841.00,0.0209
840.00,0.0210
839.00,0.0211
838.00,0.0213
837.00,0.0214
836.00,0.0216
835.00,0.0218
834.00,0.0220
833.00,0.0221
832.00,0.0223
831.00,0.0224
830.00,0.0226
829.00,0.0228
828.00,0.0229
827.00,0.0230
826.00,0.0232
825.00,0.0232
824.00,0.0233
823.00,0.0233
822.00,0.0232
821.00,0.0232
820.00,0.0233
819.00,0.0233
818.00,0.0235
817.00,0.0237
816.00,0.0239
815.00,0.0240
814.00,0.0241
813.00,0.0242
812.00,0.0244
811.00,0.0245
810.00,0.0247
809.00,0.0248
808.00,0.0249
807.00,0.0250
806.00,0.0251
805.00,0.0252
804.00,0.0252
803.00,0.0253
802.00,0.0254
801.00,0.0254
800.00,0.0255
799.00,0.0255
798.00,0.0256
797.00,0.0257
796.00,0.0258
795.00,0.0259
794.00,0.0260
793.00,0.0261
792.00,0.0262
791.00,0.0264
790.00,0.0265
789.00,0.0266
788.00,0.0267
787.00,0.0269
786.00,0.0270
785.00,0.0273
784.00,0.0275
783.00,0.0277
782.00,0.0279
781.00,0.0280
780.00,0.0281
779.00,0.0283
778.00,0.0285
777.00,0.0287
776.00,0.0290
775.00,0.0292
774.00,0.0295
773.00,0.0297
772.00,0.0299
771.00,0.0301
770.00,0.0302
769.00,0.0304
768.00,0.0305
767.00,0.0306
766.00,0.0308
765.00,0.0310
764.00,0.0311
763.00,0.0313
762.00,0.0314
761.00,0.0315
760.00,0.0316
759.00,0.0317
758.00,0.0319
757.00,0.0322
756.00,0.0324
755.00,0.0326
754.00,0.0328
753.00,0.0329
752.00,0.0331
751.00,0.0333
750.00,0.0335
749.00,0.0337
748.00,0.0339
747.00,0.0340
746.00,0.0341
745.00,0.0342
744.00,0.0342
743.00,0.0343
742.00,0.0343
741.00,0.0344
740.00,0.0345
739.00,0.0345
738.00,0.0346
737.00,0.0347
736.00,0.0349
735.00,0.0349
734.00,0.0350
733.00,0.0351
732.00,0.0353
731.00,0.0355
730.00,0.0358
729.00,0.0361
728.00,0.0364
727.00,0.0367
726.00,0.0370
725.00,0.0373
724.00,0.0376
723.00,0.0380
722.00,0.0385
721.00,0.0390
720.00,0.0395
719.00,0.0400
718.00,0.0404
717.00,0.0409
716.00,0.0413
715.00,0.0419
714.00,0.0424
713.00,0.0430
712.00,0.0435
711.00,0.0440
710.00,0.0446
709.00,0.0452
708.00,0.0458
707.00,0.0465
706.00,0.0471
705.00,0.0478
704.00,0.0484
703.00,0.0490
702.00,0.0496
701.00,0.0500
700.00,0.0503
699.00,0.0506
698.00,0.0508
697.00,0.0508
696.00,0.0509
695.00,0.0509
694.00,0.0509
693.00,0.0508
692.00,0.0507
691.00,0.0507
690.00,0.0508
689.00,0.0509
688.00,0.0511
687.00,0.0512
686.00,0.0513
685.00,0.0513
684.00,0.0514
683.00,0.0515
682.00,0.0517
681.00,0.0519
680.00,0.0521
679.00,0.0523
678.00,0.0524
677.00,0.0525
676.00,0.0527
675.00,0.0528
674.00,0.0531
673.00,0.0533
672.00,0.0535
671.00,0.0537
670.00,0.0540
669.00,0.0542
668.00,0.0543
667.00,0.0543
666.00,0.0544
665.00,0.0545
664.00,0.0547
663.00,0.0549
662.00,0.0550
661.00,0.0550
660.00,0.0550
659.00,0.0551
658.00,0.0551
657.00,0.0552
656.00,0.0553
655.00,0.0555
654.00,0.0556
653.00,0.0557
652.00,0.0559
651.00,0.0560
650.00,0.0561
649.00,0.0563
648.00,0.0564
647.00,0.0566
646.00,0.0568
645.00,0.0570
644.00,0.0572
643.00,0.0574
642.00,0.0576
641.00,0.0579
640.00,0.0581
639.00,0.0583
638.00,0.0584
637.00,0.0586
636.00,0.0588
635.00,0.0591
634.00,0.0593
633.00,0.0595
632.00,0.0596
631.00,0.0598
630.00,0.0600
629.00,0.0602
628.00,0.0604
627.00,0.0605
626.00,0.0605
625.00,0.0606
624.00,0.0606
623.00,0.0607
622.00,0.0609
621.00,0.0610
620.00,0.0611
619.00,0.0610
618.00,0.0610
617.00,0.0609
616.00,0.0610
615.00,0.0610
614.00,0.0610
613.00,0.0610
612.00,0.0611
611.00,0.0612
610.00,0.0613
609.00,0.0613
608.00,0.0612
607.00,0.0610
606.00,0.0610
605.00,0.0610
604.00,0.0611
603.00,0.0610
602.00,0.0609
601.00,0.0609
600.00,0.0610
599.00,0.0611
598.00,0.0611
597.00,0.0612
596.00,0.0612
595.00,0.0612
594.00,0.0613
593.00,0.0614
592.00,0.0615
591.00,0.0616
590.00,0.0616
589.00,0.0616
588.00,0.0617
587.00,0.0618
586.00,0.0618
585.00,0.0619
584.00,0.0620
583.00,0.0621
582.00,0.0623
581.00,0.0624
580.00,0.0626
579.00,0.0627
578.00,0.0628
577.00,0.0629
576.00,0.0630
575.00,0.0631
574.00,0.0633
573.00,0.0635
572.00,0.0637
571.00,0.0639
570.00,0.0640
569.00,0.0639
568.00,0.0638
567.00,0.0638
566.00,0.0639
565.00,0.0642
564.00,0.0646
563.00,0.0648
562.00,0.0650
561.00,0.0652
560.00,0.0654
559.00,0.0656
558.00,0.0657
557.00,0.0657
556.00,0.0658
555.00,0.0658
554.00,0.0658
553.00,0.0658
552.00,0.0658
551.00,0.0658
550.00,0.0658
549.00,0.0659
548.00,0.0660
547.00,0.0661
546.00,0.0662
545.00,0.0663
544.00,0.0664
543.00,0.0665
542.00,0.0665
541.00,0.0666
540.00,0.0667
539.00,0.0668
538.00,0.0669
537.00,0.0670
536.00,0.0671
535.00,0.0672
534.00,0.0672
533.00,0.0673
532.00,0.0675
531.00,0.0677
530.00,0.0679
529.00,0.0681
528.00,0.0682
527.00,0.0683
526.00,0.0683
525.00,0.0684
524.00,0.0685
523.00,0.0685
522.00,0.0684
521.00,0.0684
520.00,0.0684
519.00,0.0685
518.00,0.0686
517.00,0.0687
516.00,0.0688
515.00,0.0689
514.00,0.0688
513.00,0.0686
512.00,0.0683
511.00,0.0680
510.00,0.0677
509.00,0.0675
508.00,0.0672
507.00,0.0669
506.00,0.0668
505.00,0.0669
504.00,0.0670
503.00,0.0670
502.00,0.0669
501.00,0.0668
500.00,0.0668
499.00,0.0667
498.00,0.0666
497.00,0.0665
496.00,0.0664
495.00,0.0663
494.00,0.0662
493.00,0.0662
492.00,0.0662
491.00,0.0662
490.00,0.0662
489.00,0.0661
488.00,0.0660
487.00,0.0660
486.00,0.0660
485.00,0.0661
484.00,0.0661
483.00,0.0661
482.00,0.0660
481.00,0.0660
480.00,0.0661
479.00,0.0661
478.00,0.0662
477.00,0.0662
476.00,0.0661
475.00,0.0660
474.00,0.0659
473.00,0.0659
472.00,0.0661
471.00,0.0661
470.00,0.0662
469.00,0.0662
468.00,0.0661
467.00,0.0660
466.00,0.0660
465.00,0.0661
464.00,0.0662
463.00,0.0663
462.00,0.0663
461.00,0.0663
460.00,0.0664
459.00,0.0665
458.00,0.0666
457.00,0.0664
456.00,0.0659
455.00,0.0652
454.00,0.0646
453.00,0.0642
452.00,0.0641
451.00,0.0640
450.00,0.0639
449.00,0.0636
448.00,0.0632
447.00,0.0626
446.00,0.0620
445.00,0.0616
444.00,0.0614
443.00,0.0612
442.00,0.0609
441.00,0.0605
440.00,0.0600
439.00,0.0596
438.00,0.0593
437.00,0.0591
436.00,0.0588
435.00,0.0583
434.00,0.0575
433.00,0.0569
432.00,0.0564
431.00,0.0560
430.00,0.0556
429.00,0.0552
428.00,0.0549
427.00,0.0546
426.00,0.0544
425.00,0.0542
424.00,0.0543
423.00,0.0547
422.00,0.0551
421.00,0.0556
420.00,0.0558
419.00,0.0557
418.00,0.0552
417.00,0.0548
416.00,0.0544
415.00,0.0540
414.00,0.0538
413.00,0.0539
412.00,0.0544
411.00,0.0549
410.00,0.0548
409.00,0.0541
408.00,0.0527
407.00,0.0514
406.00,0.0508
405.00,0.0514
404.00,0.0523
403.00,0.0526
402.00,0.0517
401.00,0.0501
400.00,0.0485
