Created as New Dataset,Sample 496 By YargerLab Date Sunday, April 13 2025
cm-1,A
4000.00,0.0012
3999.00,0.0012
3998.00,0.0012
3997.00,0.0012
3996.00,0.0012
3995.00,0.0012
3994.00,0.0012
3993.00,0.0012
3992.00,0.0012
3991.00,0.0012
3990.00,0.0012
3989.00,0.0012
3988.00,0.0012
3987.00,0.0012
3986.00,0.0013
3985.00,0.0012
3984.00,0.0012
3983.00,0.0012
3982.00,0.0012
3981.00,0.0012
3980.00,0.0013
3979.00,0.0013
3978.00,0.0013
3977.00,0.0013
3976.00,0.0012
3975.00,0.0012
3974.00,0.0012
3973.00,0.0012
3972.00,0.0012
3971.00,0.0012
3970.00,0.0012
3969.00,0.0012
3968.00,0.0012
3967.00,0.0012
3966.00,0.0012
3965.00,0.0012
3964.00,0.0012
3963.00,0.0013
3962.00,0.0012
3961.00,0.0012
3960.00,0.0012
3959.00,0.0012
3958.00,0.0012
3957.00,0.0012
3956.00,0.0012
3955.00,0.0012
3954.00,0.0012
3953.00,0.0012
3952.00,0.0012
3951.00,0.0012
3950.00,0.0013
3949.00,0.0014
3948.00,0.0015
3947.00,0.0015
3946.00,0.0015
3945.00,0.0015
3944.00,0.0014
3943.00,0.0013
3942.00,0.0013
3941.00,0.0013
3940.00,0.0014
3939.00,0.0014
3938.00,0.0014
3937.00,0.0014
3936.00,0.0014
3935.00,0.0015
3934.00,0.0016
3933.00,0.0016
3932.00,0.0016
3931.00,0.0015
3930.00,0.0014
3929.00,0.0014
3928.00,0.0014
3927.00,0.0014
3926.00,0.0014
3925.00,0.0013
3924.00,0.0013
3923.00,0.0013
3922.00,0.0015
3921.00,0.0016
3920.00,0.0017
3919.00,0.0017
3918.00,0.0017
3917.00,0.0016
3916.00,0.0015
3915.00,0.0014
3914.00,0.0013
3913.00,0.0013
3912.00,0.0012
3911.00,0.0012
3910.00,0.0012
3909.00,0.0012
3908.00,0.0012
3907.00,0.0013
3906.00,0.0014
3905.00,0.0016
3904.00,0.0019
3903.00,0.0022
3902.00,0.0024
3901.00,0.0024
3900.00,0.0023
3899.00,0.0020
3898.00,0.0019
3897.00,0.0018
3896.00,0.0017
3895.00,0.0017
3894.00,0.0016
3893.00,0.0014
3892.00,0.0014
3891.00,0.0014
3890.00,0.0015
3889.00,0.0017
3888.00,0.0019
3887.00,0.0020
3886.00,0.0020
3885.00,0.0018
3884.00,0.0018
3883.00,0.0019
3882.00,0.0020
3881.00,0.0020
3880.00,0.0019
3879.00,0.0018
3878.00,0.0019
3877.00,0.0020
3876.00,0.0020
3875.00,0.0020
3874.00,0.0018
3873.00,0.0018
3872.00,0.0020
3871.00,0.0022
3870.00,0.0022
3869.00,0.0021
3868.00,0.0021
3867.00,0.0022
3866.00,0.0023
3865.00,0.0022
3864.00,0.0021
3863.00,0.0020
3862.00,0.0021
3861.00,0.0021
3860.00,0.0021
3859.00,0.0019
3858.00,0.0016
3857.00,0.0012
3856.00,0.0010
3855.00,0.0010
3854.00,0.0011
3853.00,0.0014
3852.00,0.0016
3851.00,0.0019
3850.00,0.0021
3849.00,0.0021
3848.00,0.0021
3847.00,0.0021
3846.00,0.0020
3845.00,0.0020
3844.00,0.0021
3843.00,0.0021
3842.00,0.0022
3841.00,0.0023
3840.00,0.0023
3839.00,0.0022
3838.00,0.0022
3837.00,0.0021
3836.00,0.0021
3835.00,0.0021
3834.00,0.0021
3833.00,0.0022
3832.00,0.0021
3831.00,0.0021
3830.00,0.0020
3829.00,0.0020
3828.00,0.0020
3827.00,0.0019
3826.00,0.0019
3825.00,0.0019
3824.00,0.0020
3823.00,0.0023
3822.00,0.0023
3821.00,0.0022
3820.00,0.0021
3819.00,0.0021
3818.00,0.0022
3817.00,0.0023
3816.00,0.0021
3815.00,0.0018
3814.00,0.0016
3813.00,0.0016
3812.00,0.0015
3811.00,0.0015
3810.00,0.0014
3809.00,0.0015
3808.00,0.0016
3807.00,0.0017
3806.00,0.0018
3805.00,0.0019
3804.00,0.0022
3803.00,0.0023
3802.00,0.0023
3801.00,0.0020
3800.00,0.0019
3799.00,0.0019
3798.00,0.0020
3797.00,0.0020
3796.00,0.0018
3795.00,0.0016
3794.00,0.0014
3793.00,0.0013
3792.00,0.0012
3791.00,0.0011
3790.00,0.0011
3789.00,0.0011
3788.00,0.0011
3787.00,0.0012
3786.00,0.0012
3785.00,0.0012
3784.00,0.0013
3783.00,0.0013
3782.00,0.0015
3781.00,0.0016
3780.00,0.0015
3779.00,0.0014
3778.00,0.0014
3777.00,0.0013
3776.00,0.0013
3775.00,0.0013
3774.00,0.0012
3773.00,0.0013
3772.00,0.0014
3771.00,0.0016
3770.00,0.0016
3769.00,0.0017
3768.00,0.0018
3767.00,0.0019
3766.00,0.0019
3765.00,0.0019
3764.00,0.0018
3763.00,0.0019
3762.00,0.0020
3761.00,0.0021
3760.00,0.0021
3759.00,0.0020
3758.00,0.0020
3757.00,0.0021
3756.00,0.0022
3755.00,0.0023
3754.00,0.0025
3753.00,0.0027
3752.00,0.0028
3751.00,0.0030
3750.00,0.0031
3749.00,0.0032
3748.00,0.0031
3747.00,0.0031
3746.00,0.0031
3745.00,0.0031
3744.00,0.0029
3743.00,0.0027
3742.00,0.0028
3741.00,0.0030
3740.00,0.0032
3739.00,0.0034
3738.00,0.0035
3737.00,0.0036
3736.00,0.0035
3735.00,0.0033
3734.00,0.0032
3733.00,0.0032
3732.00,0.0030
3731.00,0.0028
3730.00,0.0026
3729.00,0.0025
3728.00,0.0025
3727.00,0.0024
3726.00,0.0022
3725.00,0.0021
3724.00,0.0021
3723.00,0.0021
3722.00,0.0021
3721.00,0.0020
3720.00,0.0019
3719.00,0.0018
3718.00,0.0017
3717.00,0.0017
3716.00,0.0017
3715.00,0.0018
3714.00,0.0020
3713.00,0.0022
3712.00,0.0022
3711.00,0.0022
3710.00,0.0022
3709.00,0.0022
3708.00,0.0021
3707.00,0.0020
3706.00,0.0019
3705.00,0.0018
3704.00,0.0018
3703.00,0.0017
3702.00,0.0016
3701.00,0.0015
3700.00,0.0015
3699.00,0.0015
3698.00,0.0015
3697.00,0.0015
3696.00,0.0015
3695.00,0.0015
3694.00,0.0016
3693.00,0.0017
3692.00,0.0017
3691.00,0.0017
3690.00,0.0018
3689.00,0.0020
3688.00,0.0021
3687.00,0.0021
3686.00,0.0020
3685.00,0.0020
3684.00,0.0020
3683.00,0.0020
3682.00,0.0021
3681.00,0.0021
3680.00,0.0022
3679.00,0.0022
3678.00,0.0024
3677.00,0.0027
3676.00,0.0029
3675.00,0.0028
3674.00,0.0028
3673.00,0.0029
3672.00,0.0030
3671.00,0.0029
3670.00,0.0027
3669.00,0.0024
3668.00,0.0023
3667.00,0.0023
3666.00,0.0022
3665.00,0.0021
3664.00,0.0020
3663.00,0.0019
3662.00,0.0018
3661.00,0.0018
3660.00,0.0019
3659.00,0.0020
3658.00,0.0021
3657.00,0.0022
3656.00,0.0024
3655.00,0.0025
3654.00,0.0027
3653.00,0.0031
3652.00,0.0035
3651.00,0.0038
3650.00,0.0040
3649.00,0.0042
3648.00,0.0042
3647.00,0.0041
3646.00,0.0038
3645.00,0.0035
3644.00,0.0033
3643.00,0.0030
3642.00,0.0028
3641.00,0.0026
3640.00,0.0025
3639.00,0.0025
3638.00,0.0026
3637.00,0.0027
3636.00,0.0028
3635.00,0.0030
3634.00,0.0030
3633.00,0.0031
3632.00,0.0032
3631.00,0.0035
3630.00,0.0037
3629.00,0.0037
3628.00,0.0038
3627.00,0.0039
3626.00,0.0040
3625.00,0.0040
3624.00,0.0040
3623.00,0.0039
3622.00,0.0038
3621.00,0.0037
3620.00,0.0037
3619.00,0.0038
3618.00,0.0040
3617.00,0.0043
3616.00,0.0045
3615.00,0.0046
3614.00,0.0046
3613.00,0.0045
3612.00,0.0045
3611.00,0.0046
3610.00,0.0048
3609.00,0.0048
3608.00,0.0046
3607.00,0.0045
3606.00,0.0044
3605.00,0.0044
3604.00,0.0044
3603.00,0.0043
3602.00,0.0043
3601.00,0.0043
3600.00,0.0043
3599.00,0.0043
3598.00,0.0044
3597.00,0.0045
3596.00,0.0046
3595.00,0.0046
3594.00,0.0046
3593.00,0.0047
3592.00,0.0048
3591.00,0.0049
3590.00,0.0050
3589.00,0.0051
3588.00,0.0051
3587.00,0.0051
3586.00,0.0052
3585.00,0.0052
3584.00,0.0052
3583.00,0.0051
3582.00,0.0050
3581.00,0.0050
3580.00,0.0049
3579.00,0.0048
3578.00,0.0048
3577.00,0.0049
3576.00,0.0049
3575.00,0.0050
3574.00,0.0050
3573.00,0.0051
3572.00,0.0052
3571.00,0.0054
3570.00,0.0056
3569.00,0.0058
3568.00,0.0060
3567.00,0.0061
3566.00,0.0061
3565.00,0.0062
3564.00,0.0062
3563.00,0.0061
3562.00,0.0060
3561.00,0.0059
3560.00,0.0058
3559.00,0.0057
3558.00,0.0057
3557.00,0.0058
3556.00,0.0058
3555.00,0.0059
3554.00,0.0059
3553.00,0.0060
3552.00,0.0060
3551.00,0.0061
3550.00,0.0062
3549.00,0.0064
3548.00,0.0065
3547.00,0.0066
3546.00,0.0066
3545.00,0.0066
3544.00,0.0066
3543.00,0.0066
3542.00,0.0065
3541.00,0.0065
3540.00,0.0065
3539.00,0.0065
3538.00,0.0065
3537.00,0.0065
3536.00,0.0065
3535.00,0.0065
3534.00,0.0066
3533.00,0.0066
3532.00,0.0067
3531.00,0.0067
3530.00,0.0068
3529.00,0.0069
3528.00,0.0070
3527.00,0.0071
3526.00,0.0072
3525.00,0.0072
3524.00,0.0072
3523.00,0.0072
3522.00,0.0071
3521.00,0.0071
3520.00,0.0071
3519.00,0.0071
3518.00,0.0070
3517.00,0.0070
3516.00,0.0070
3515.00,0.0070
3514.00,0.0071
3513.00,0.0071
3512.00,0.0072
3511.00,0.0073
3510.00,0.0073
3509.00,0.0073
3508.00,0.0074
3507.00,0.0074
3506.00,0.0075
3505.00,0.0075
3504.00,0.0075
3503.00,0.0075
3502.00,0.0076
3501.00,0.0076
3500.00,0.0077
3499.00,0.0077
3498.00,0.0077
3497.00,0.0076
3496.00,0.0076
3495.00,0.0076
3494.00,0.0076
3493.00,0.0076
3492.00,0.0077
3491.00,0.0077
3490.00,0.0077
3489.00,0.0078
3488.00,0.0078
3487.00,0.0078
3486.00,0.0078
3485.00,0.0077
3484.00,0.0077
3483.00,0.0077
3482.00,0.0077
3481.00,0.0078
3480.00,0.0078
3479.00,0.0078
3478.00,0.0078
3477.00,0.0078
3476.00,0.0078
3475.00,0.0077
3474.00,0.0077
3473.00,0.0077
3472.00,0.0077
3471.00,0.0078
3470.00,0.0078
3469.00,0.0078
3468.00,0.0078
3467.00,0.0078
3466.00,0.0078
3465.00,0.0078
3464.00,0.0078
3463.00,0.0078
3462.00,0.0077
3461.00,0.0077
3460.00,0.0077
3459.00,0.0077
3458.00,0.0077
3457.00,0.0077
3456.00,0.0076
3455.00,0.0076
3454.00,0.0076
3453.00,0.0076
3452.00,0.0076
3451.00,0.0076
3450.00,0.0076
3449.00,0.0076
3448.00,0.0077
3447.00,0.0077
3446.00,0.0078
3445.00,0.0078
3444.00,0.0078
3443.00,0.0078
3442.00,0.0078
3441.00,0.0077
3440.00,0.0077
3439.00,0.0077
3438.00,0.0077
3437.00,0.0078
3436.00,0.0078
3435.00,0.0078
3434.00,0.0078
3433.00,0.0078
3432.00,0.0078
3431.00,0.0079
3430.00,0.0079
3429.00,0.0080
3428.00,0.0080
3427.00,0.0080
3426.00,0.0080
3425.00,0.0080
3424.00,0.0081
3423.00,0.0081
3422.00,0.0081
3421.00,0.0082
3420.00,0.0082
3419.00,0.0082
3418.00,0.0083
3417.00,0.0083
3416.00,0.0083
3415.00,0.0083
3414.00,0.0084
3413.00,0.0084
3412.00,0.0084
3411.00,0.0085
3410.00,0.0085
3409.00,0.0085
3408.00,0.0086
3407.00,0.0086
3406.00,0.0087
3405.00,0.0087
3404.00,0.0087
3403.00,0.0088
3402.00,0.0088
3401.00,0.0089
3400.00,0.0089
3399.00,0.0089
3398.00,0.0089
3397.00,0.0089
3396.00,0.0090
3395.00,0.0090
3394.00,0.0090
3393.00,0.0090
3392.00,0.0091
3391.00,0.0091
3390.00,0.0091
3389.00,0.0091
3388.00,0.0092
3387.00,0.0092
3386.00,0.0092
3385.00,0.0092
3384.00,0.0093
3383.00,0.0093
3382.00,0.0093
3381.00,0.0094
3380.00,0.0094
3379.00,0.0094
3378.00,0.0095
3377.00,0.0095
3376.00,0.0096
3375.00,0.0096
3374.00,0.0096
3373.00,0.0097
3372.00,0.0098
3371.00,0.0098
3370.00,0.0099
3369.00,0.0099
3368.00,0.0100
3367.00,0.0101
3366.00,0.0101
3365.00,0.0101
3364.00,0.0102
3363.00,0.0103
3362.00,0.0103
3361.00,0.0104
3360.00,0.0104
3359.00,0.0105
3358.00,0.0106
3357.00,0.0106
3356.00,0.0107
3355.00,0.0107
3354.00,0.0108
3353.00,0.0109
3352.00,0.0110
3351.00,0.0111
3350.00,0.0112
3349.00,0.0113
3348.00,0.0114
3347.00,0.0115
3346.00,0.0116
3345.00,0.0116
3344.00,0.0118
3343.00,0.0119
3342.00,0.0120
3341.00,0.0121
3340.00,0.0122
3339.00,0.0124
3338.00,0.0126
3337.00,0.0127
3336.00,0.0129
3335.00,0.0130
3334.00,0.0132
3333.00,0.0133
3332.00,0.0135
3331.00,0.0136
3330.00,0.0137
3329.00,0.0139
3328.00,0.0141
3327.00,0.0142
3326.00,0.0144
3325.00,0.0146
3324.00,0.0148
3323.00,0.0150
3322.00,0.0152
3321.00,0.0154
3320.00,0.0156
3319.00,0.0159
3318.00,0.0161
3317.00,0.0163
3316.00,0.0165
3315.00,0.0168
3314.00,0.0170
3313.00,0.0173
3312.00,0.0175
3311.00,0.0178
3310.00,0.0180
3309.00,0.0183
3308.00,0.0185
3307.00,0.0187
3306.00,0.0190
3305.00,0.0192
3304.00,0.0195
3303.00,0.0197
3302.00,0.0200
3301.00,0.0202
3300.00,0.0205
3299.00,0.0207
3298.00,0.0209
3297.00,0.0212
3296.00,0.0214
3295.00,0.0216
3294.00,0.0218
3293.00,0.0220
3292.00,0.0221
3291.00,0.0222
3290.00,0.0224
3289.00,0.0225
3288.00,0.0225
3287.00,0.0226
3286.00,0.0227
3285.00,0.0227
3284.00,0.0228
3283.00,0.0228
3282.00,0.0227
3281.00,0.0227
3280.00,0.0227
3279.00,0.0226
3278.00,0.0225
3277.00,0.0224
3276.00,0.0223
3275.00,0.0222
3274.00,0.0220
3273.00,0.0218
3272.00,0.0216
3271.00,0.0214
3270.00,0.0211
3269.00,0.0209
3268.00,0.0207
3267.00,0.0205
3266.00,0.0203
3265.00,0.0200
3264.00,0.0198
3263.00,0.0195
3262.00,0.0193
3261.00,0.0191
3260.00,0.0189
3259.00,0.0187
3258.00,0.0185
3257.00,0.0183
3256.00,0.0181
3255.00,0.0179
3254.00,0.0177
3253.00,0.0175
3252.00,0.0173
3251.00,0.0171
3250.00,0.0169
3249.00,0.0168
3248.00,0.0166
3247.00,0.0165
3246.00,0.0164
3245.00,0.0163
3244.00,0.0161
3243.00,0.0160
3242.00,0.0158
3241.00,0.0156
3240.00,0.0155
3239.00,0.0153
3238.00,0.0151
3237.00,0.0150
3236.00,0.0148
3235.00,0.0147
3234.00,0.0146
3233.00,0.0145
3232.00,0.0144
3231.00,0.0143
3230.00,0.0142
3229.00,0.0141
3228.00,0.0140
3227.00,0.0138
3226.00,0.0137
3225.00,0.0136
3224.00,0.0134
3223.00,0.0133
3222.00,0.0132
3221.00,0.0131
3220.00,0.0129
3219.00,0.0128
3218.00,0.0127
3217.00,0.0126
3216.00,0.0125
3215.00,0.0124
3214.00,0.0123
3213.00,0.0122
3212.00,0.0121
3211.00,0.0120
3210.00,0.0119
3209.00,0.0118
3208.00,0.0117
3207.00,0.0116
3206.00,0.0114
3205.00,0.0113
3204.00,0.0112
3203.00,0.0111
3202.00,0.0110
3201.00,0.0109
3200.00,0.0108
3199.00,0.0107
3198.00,0.0106
3197.00,0.0105
3196.00,0.0104
3195.00,0.0103
3194.00,0.0101
3193.00,0.0100
3192.00,0.0099
3191.00,0.0098
3190.00,0.0097
3189.00,0.0096
3188.00,0.0095
3187.00,0.0094
3186.00,0.0093
3185.00,0.0092
3184.00,0.0091
3183.00,0.0090
3182.00,0.0089
3181.00,0.0088
3180.00,0.0088
3179.00,0.0087
3178.00,0.0086
3177.00,0.0085
3176.00,0.0083
3175.00,0.0082
3174.00,0.0081
3173.00,0.0081
3172.00,0.0080
3171.00,0.0079
3170.00,0.0079
3169.00,0.0078
3168.00,0.0077
3167.00,0.0076
3166.00,0.0075
3165.00,0.0074
3164.00,0.0073
3163.00,0.0073
3162.00,0.0073
3161.00,0.0072
3160.00,0.0072
3159.00,0.0071
3158.00,0.0071
3157.00,0.0070
3156.00,0.0069
3155.00,0.0069
3154.00,0.0068
3153.00,0.0067
3152.00,0.0067
3151.00,0.0066
3150.00,0.0066
3149.00,0.0065
3148.00,0.0065
3147.00,0.0064
3146.00,0.0064
3145.00,0.0064
3144.00,0.0063
3143.00,0.0063
3142.00,0.0062
3141.00,0.0062
3140.00,0.0062
3139.00,0.0062
3138.00,0.0062
3137.00,0.0062
3136.00,0.0062
3135.00,0.0062
3134.00,0.0061
3133.00,0.0061
3132.00,0.0061
3131.00,0.0060
3130.00,0.0060
3129.00,0.0060
3128.00,0.0060
3127.00,0.0060
3126.00,0.0059
3125.00,0.0060
3124.00,0.0060
3123.00,0.0060
3122.00,0.0060
3121.00,0.0060
3120.00,0.0060
3119.00,0.0060
3118.00,0.0060
3117.00,0.0060
3116.00,0.0060
3115.00,0.0060
3114.00,0.0061
3113.00,0.0061
3112.00,0.0061
3111.00,0.0062
3110.00,0.0062
3109.00,0.0062
3108.00,0.0062
3107.00,0.0062
3106.00,0.0063
3105.00,0.0063
3104.00,0.0063
3103.00,0.0064
3102.00,0.0064
3101.00,0.0064
3100.00,0.0065
3099.00,0.0065
3098.00,0.0065
3097.00,0.0065
3096.00,0.0066
3095.00,0.0066
3094.00,0.0066
3093.00,0.0066
3092.00,0.0067
3091.00,0.0067
3090.00,0.0067
3089.00,0.0068
3088.00,0.0068
3087.00,0.0068
3086.00,0.0068
3085.00,0.0068
3084.00,0.0068
3083.00,0.0068
3082.00,0.0068
3081.00,0.0068
3080.00,0.0068
3079.00,0.0068
3078.00,0.0068
3077.00,0.0069
3076.00,0.0069
3075.00,0.0069
3074.00,0.0069
3073.00,0.0069
3072.00,0.0069
3071.00,0.0069
3070.00,0.0069
3069.00,0.0069
3068.00,0.0069
3067.00,0.0068
3066.00,0.0068
3065.00,0.0068
3064.00,0.0067
3063.00,0.0067
3062.00,0.0066
3061.00,0.0066
3060.00,0.0065
3059.00,0.0065
3058.00,0.0065
3057.00,0.0064
3056.00,0.0064
3055.00,0.0063
3054.00,0.0062
3053.00,0.0061
3052.00,0.0060
3051.00,0.0060
3050.00,0.0060
3049.00,0.0059
3048.00,0.0058
3047.00,0.0057
3046.00,0.0056
3045.00,0.0055
3044.00,0.0054
3043.00,0.0054
3042.00,0.0054
3041.00,0.0054
3040.00,0.0053
3039.00,0.0053
3038.00,0.0052
3037.00,0.0051
3036.00,0.0051
3035.00,0.0050
3034.00,0.0050
3033.00,0.0050
3032.00,0.0050
3031.00,0.0050
3030.00,0.0049
3029.00,0.0048
3028.00,0.0048
3027.00,0.0047
3026.00,0.0046
3025.00,0.0046
3024.00,0.0046
3023.00,0.0045
3022.00,0.0045
3021.00,0.0045
3020.00,0.0045
3019.00,0.0044
3018.00,0.0044
3017.00,0.0044
3016.00,0.0043
3015.00,0.0043
3014.00,0.0043
3013.00,0.0043
3012.00,0.0042
3011.00,0.0042
3010.00,0.0042
3009.00,0.0042
3008.00,0.0042
3007.00,0.0042
3006.00,0.0041
3005.00,0.0041
3004.00,0.0041
3003.00,0.0041
3002.00,0.0042
3001.00,0.0042
3000.00,0.0042
2999.00,0.0043
2998.00,0.0043
2997.00,0.0043
2996.00,0.0044
2995.00,0.0044
2994.00,0.0044
2993.00,0.0044
2992.00,0.0045
2991.00,0.0046
2990.00,0.0046
2989.00,0.0047
2988.00,0.0048
2987.00,0.0048
2986.00,0.0049
2985.00,0.0049
2984.00,0.0049
2983.00,0.0050
2982.00,0.0050
2981.00,0.0051
2980.00,0.0051
2979.00,0.0052
2978.00,0.0052
2977.00,0.0052
2976.00,0.0052
2975.00,0.0053
2974.00,0.0053
2973.00,0.0053
2972.00,0.0054
2971.00,0.0054
2970.00,0.0054
2969.00,0.0055
2968.00,0.0055
2967.00,0.0055
2966.00,0.0055
2965.00,0.0055
2964.00,0.0055
2963.00,0.0054
2962.00,0.0054
2961.00,0.0054
2960.00,0.0053
2959.00,0.0053
2958.00,0.0053
2957.00,0.0053
2956.00,0.0052
2955.00,0.0052
2954.00,0.0052
2953.00,0.0052
2952.00,0.0052
2951.00,0.0052
2950.00,0.0052
2949.00,0.0052
2948.00,0.0053
2947.00,0.0053
2946.00,0.0054
2945.00,0.0055
2944.00,0.0056
2943.00,0.0057
2942.00,0.0058
2941.00,0.0059
2940.00,0.0060
2939.00,0.0061
2938.00,0.0063
2937.00,0.0064
2936.00,0.0065
2935.00,0.0067
2934.00,0.0068
2933.00,0.0070
2932.00,0.0071
2931.00,0.0072
2930.00,0.0074
2929.00,0.0074
2928.00,0.0075
2927.00,0.0075
2926.00,0.0076
2925.00,0.0077
2924.00,0.0078
2923.00,0.0079
2922.00,0.0080
2921.00,0.0080
2920.00,0.0080
2919.00,0.0079
2918.00,0.0078
2917.00,0.0076
2916.00,0.0073
2915.00,0.0070
2914.00,0.0067
2913.00,0.0064
2912.00,0.0061
2911.00,0.0059
2910.00,0.0057
2909.00,0.0055
2908.00,0.0053
2907.00,0.0051
2906.00,0.0049
2905.00,0.0048
2904.00,0.0047
2903.00,0.0046
2902.00,0.0046
2901.00,0.0045
2900.00,0.0044
2899.00,0.0043
2898.00,0.0042
2897.00,0.0042
2896.00,0.0041
2895.00,0.0041
2894.00,0.0040
2893.00,0.0039
2892.00,0.0039
2891.00,0.0038
2890.00,0.0037
2889.00,0.0037
2888.00,0.0036
2887.00,0.0036
2886.00,0.0036
2885.00,0.0036
2884.00,0.0036
2883.00,0.0036
2882.00,0.0036
2881.00,0.0036
2880.00,0.0036
2879.00,0.0037
2878.00,0.0037
2877.00,0.0037
2876.00,0.0037
2875.00,0.0038
2874.00,0.0038
2873.00,0.0037
2872.00,0.0037
2871.00,0.0036
2870.00,0.0036
2869.00,0.0035
2868.00,0.0034
2867.00,0.0034
2866.00,0.0034
2865.00,0.0033
2864.00,0.0034
2863.00,0.0034
2862.00,0.0035
2861.00,0.0035
2860.00,0.0036
2859.00,0.0037
2858.00,0.0038
2857.00,0.0039
2856.00,0.0040
2855.00,0.0042
2854.00,0.0043
2853.00,0.0045
2852.00,0.0046
2851.00,0.0046
2850.00,0.0046
2849.00,0.0045
2848.00,0.0042
2847.00,0.0039
2846.00,0.0036
2845.00,0.0033
2844.00,0.0031
2843.00,0.0029
2842.00,0.0027
2841.00,0.0025
2840.00,0.0024
2839.00,0.0023
2838.00,0.0023
2837.00,0.0022
2836.00,0.0022
2835.00,0.0021
2834.00,0.0021
2833.00,0.0020
2832.00,0.0020
2831.00,0.0019
2830.00,0.0019
2829.00,0.0019
2828.00,0.0019
2827.00,0.0019
2826.00,0.0019
2825.00,0.0018
2824.00,0.0018
2823.00,0.0018
2822.00,0.0018
2821.00,0.0018
2820.00,0.0018
2819.00,0.0018
2818.00,0.0018
2817.00,0.0018
2816.00,0.0018
2815.00,0.0018
2814.00,0.0018
2813.00,0.0018
2812.00,0.0018
2811.00,0.0017
2810.00,0.0017
2809.00,0.0017
2808.00,0.0017
2807.00,0.0017
2806.00,0.0017
2805.00,0.0017
2804.00,0.0017
2803.00,0.0017
2802.00,0.0017
2801.00,0.0017
2800.00,0.0017
2799.00,0.0017
2798.00,0.0017
2797.00,0.0016
2796.00,0.0016
2795.00,0.0016
2794.00,0.0016
2793.00,0.0016
2792.00,0.0016
2791.00,0.0016
2790.00,0.0015
2789.00,0.0015
2788.00,0.0015
2787.00,0.0015
2786.00,0.0014
2785.00,0.0014
2784.00,0.0014
2783.00,0.0014
2782.00,0.0014
2781.00,0.0014
2780.00,0.0014
2779.00,0.0014
2778.00,0.0014
2777.00,0.0014
2776.00,0.0014
2775.00,0.0014
2774.00,0.0014
2773.00,0.0013
2772.00,0.0013
2771.00,0.0013
2770.00,0.0012
2769.00,0.0012
2768.00,0.0012
2767.00,0.0012
2766.00,0.0012
2765.00,0.0012
2764.00,0.0012
2763.00,0.0012
2762.00,0.0012
2761.00,0.0012
2760.00,0.0012
2759.00,0.0012
2758.00,0.0012
2757.00,0.0011
2756.00,0.0011
2755.00,0.0011
2754.00,0.0011
2753.00,0.0011
2752.00,0.0011
2751.00,0.0011
2750.00,0.0010
2749.00,0.0010
2748.00,0.0010
2747.00,0.0010
2746.00,0.0010
2745.00,0.0010
2744.00,0.0010
2743.00,0.0010
2742.00,0.0009
2741.00,0.0009
2740.00,0.0009
2739.00,0.0008
2738.00,0.0008
2737.00,0.0008
2736.00,0.0009
2735.00,0.0009
2734.00,0.0008
2733.00,0.0008
2732.00,0.0008
2731.00,0.0008
2730.00,0.0008
2729.00,0.0007
2728.00,0.0007
2727.00,0.0007
2726.00,0.0008
2725.00,0.0008
2724.00,0.0008
2723.00,0.0008
2722.00,0.0007
2721.00,0.0007
2720.00,0.0007
2719.00,0.0007
2718.00,0.0007
2717.00,0.0007
2716.00,0.0007
2715.00,0.0007
2714.00,0.0007
2713.00,0.0007
2712.00,0.0007
2711.00,0.0006
2710.00,0.0006
2709.00,0.0006
2708.00,0.0006
2707.00,0.0006
2706.00,0.0006
2705.00,0.0006
2704.00,0.0006
2703.00,0.0006
2702.00,0.0006
2701.00,0.0006
2700.00,0.0006
2699.00,0.0006
2698.00,0.0006
2697.00,0.0006
2696.00,0.0005
2695.00,0.0005
2694.00,0.0005
2693.00,0.0006
2692.00,0.0006
2691.00,0.0006
2690.00,0.0006
2689.00,0.0006
2688.00,0.0006
2687.00,0.0006
2686.00,0.0006
2685.00,0.0006
2684.00,0.0005
2683.00,0.0005
2682.00,0.0006
2681.00,0.0006
2680.00,0.0006
2679.00,0.0005
2678.00,0.0005
2677.00,0.0005
2676.00,0.0005
2675.00,0.0005
2674.00,0.0005
2673.00,0.0005
2672.00,0.0005
2671.00,0.0005
2670.00,0.0005
2669.00,0.0005
2668.00,0.0005
2667.00,0.0005
2666.00,0.0005
2665.00,0.0005
2664.00,0.0005
2663.00,0.0005
2662.00,0.0005
2661.00,0.0005
2660.00,0.0004
2659.00,0.0004
2658.00,0.0004
2657.00,0.0004
2656.00,0.0004
2655.00,0.0004
2654.00,0.0004
2653.00,0.0004
2652.00,0.0004
2651.00,0.0004
2650.00,0.0004
2649.00,0.0004
2648.00,0.0004
2647.00,0.0004
2646.00,0.0004
2645.00,0.0004
2644.00,0.0004
2643.00,0.0004
2642.00,0.0004
2641.00,0.0003
2640.00,0.0003
2639.00,0.0003
2638.00,0.0003
2637.00,0.0003
2636.00,0.0003
2635.00,0.0003
2634.00,0.0003
2633.00,0.0003
2632.00,0.0003
2631.00,0.0003
2630.00,0.0003
2629.00,0.0003
2628.00,0.0003
2627.00,0.0003
2626.00,0.0004
2625.00,0.0004
2624.00,0.0004
2623.00,0.0004
2622.00,0.0004
2621.00,0.0004
2620.00,0.0003
2619.00,0.0003
2618.00,0.0002
2617.00,0.0002
2616.00,0.0002
2615.00,0.0003
2614.00,0.0003
2613.00,0.0003
2612.00,0.0003
2611.00,0.0003
2610.00,0.0002
2609.00,0.0002
2608.00,0.0002
2607.00,0.0002
2606.00,0.0002
2605.00,0.0002
2604.00,0.0003
2603.00,0.0003
2602.00,0.0003
2601.00,0.0003
2600.00,0.0003
2599.00,0.0002
2598.00,0.0002
2597.00,0.0002
2596.00,0.0002
2595.00,0.0002
2594.00,0.0002
2593.00,0.0002
2592.00,0.0002
2591.00,0.0001
2590.00,0.0001
2589.00,0.0001
2588.00,0.0001
2587.00,0.0001
2586.00,0.0001
2585.00,0.0001
2584.00,0.0001
2583.00,0.0001
2582.00,0.0001
2581.00,0.0001
2580.00,0.0001
2579.00,0.0001
2578.00,0.0001
2577.00,0.0002
2576.00,0.0002
2575.00,0.0002
2574.00,0.0001
2573.00,0.0001
2572.00,0.0002
2571.00,0.0001
2570.00,0.0001
2569.00,0.0001
2568.00,0.0000
2567.00,-0.0000
2566.00,-0.0000
2565.00,-0.0000
2564.00,-0.0000
2563.00,-0.0000
2562.00,0.0000
2561.00,0.0000
2560.00,0.0000
2559.00,-0.0000
2558.00,-0.0001
2557.00,-0.0001
2556.00,-0.0001
2555.00,-0.0000
2554.00,0.0000
2553.00,0.0000
2552.00,0.0001
2551.00,0.0001
2550.00,0.0000
2549.00,0.0000
2548.00,-0.0000
2547.00,-0.0000
2546.00,-0.0001
2545.00,-0.0000
2544.00,-0.0000
2543.00,0.0000
2542.00,0.0000
2541.00,0.0000
2540.00,-0.0000
2539.00,-0.0001
2538.00,-0.0001
2537.00,-0.0001
2536.00,-0.0001
2535.00,-0.0001
2534.00,-0.0001
2533.00,-0.0001
2532.00,-0.0001
2531.00,-0.0001
2530.00,-0.0001
2529.00,-0.0001
2528.00,-0.0001
2527.00,-0.0001
2526.00,-0.0001
2525.00,-0.0001
2524.00,-0.0000
2523.00,-0.0000
2522.00,-0.0000
2521.00,-0.0000
2520.00,-0.0001
2519.00,-0.0001
2518.00,-0.0001
2517.00,-0.0002
2516.00,-0.0002
2515.00,-0.0002
2514.00,-0.0001
2513.00,-0.0002
2512.00,-0.0002
2511.00,-0.0002
2510.00,-0.0003
2509.00,-0.0003
2508.00,-0.0002
2507.00,-0.0002
2506.00,-0.0001
2505.00,-0.0001
2504.00,-0.0001
2503.00,-0.0001
2502.00,-0.0001
2501.00,-0.0001
2500.00,-0.0001
2499.00,-0.0002
2498.00,-0.0002
2497.00,-0.0002
2496.00,-0.0001
2495.00,-0.0001
2494.00,-0.0001
2493.00,-0.0001
2492.00,-0.0001
2491.00,-0.0001
2490.00,-0.0001
2489.00,-0.0001
2488.00,-0.0002
2487.00,-0.0002
2486.00,-0.0002
2485.00,-0.0002
2484.00,-0.0003
2483.00,-0.0003
2482.00,-0.0003
2481.00,-0.0002
2480.00,-0.0002
2479.00,-0.0002
2478.00,-0.0002
2477.00,-0.0002
2476.00,-0.0002
2475.00,-0.0002
2474.00,-0.0002
2473.00,-0.0003
2472.00,-0.0003
2471.00,-0.0002
2470.00,-0.0002
2469.00,-0.0002
2468.00,-0.0003
2467.00,-0.0002
2466.00,-0.0002
2465.00,-0.0002
2464.00,-0.0002
2463.00,-0.0001
2462.00,-0.0001
2461.00,-0.0001
2460.00,-0.0002
2459.00,-0.0002
2458.00,-0.0002
2457.00,-0.0002
2456.00,-0.0002
2455.00,-0.0003
2454.00,-0.0003
2453.00,-0.0003
2452.00,-0.0003
2451.00,-0.0003
2450.00,-0.0003
2449.00,-0.0003
2448.00,-0.0003
2447.00,-0.0003
2446.00,-0.0002
2445.00,-0.0002
2444.00,-0.0002
2443.00,-0.0002
2442.00,-0.0003
2441.00,-0.0003
2440.00,-0.0003
2439.00,-0.0003
2438.00,-0.0003
2437.00,-0.0003
2436.00,-0.0003
2435.00,-0.0003
2434.00,-0.0003
2433.00,-0.0003
2432.00,-0.0003
2431.00,-0.0003
2430.00,-0.0003
2429.00,-0.0003
2428.00,-0.0003
2427.00,-0.0003
2426.00,-0.0003
2425.00,-0.0003
2424.00,-0.0003
2423.00,-0.0003
2422.00,-0.0004
2421.00,-0.0004
2420.00,-0.0004
2419.00,-0.0004
2418.00,-0.0004
2417.00,-0.0004
2416.00,-0.0004
2415.00,-0.0004
2414.00,-0.0004
2413.00,-0.0004
2412.00,-0.0004
2411.00,-0.0004
2410.00,-0.0004
2409.00,-0.0004
2408.00,-0.0005
2407.00,-0.0005
2406.00,-0.0005
2405.00,-0.0005
2404.00,-0.0005
2403.00,-0.0004
2402.00,-0.0004
2401.00,-0.0004
2400.00,-0.0004
2399.00,-0.0004
2398.00,-0.0004
2397.00,-0.0004
2396.00,-0.0004
2395.00,-0.0004
2394.00,-0.0004
2393.00,-0.0004
2392.00,-0.0004
2391.00,-0.0004
2390.00,-0.0004
2389.00,-0.0005
2388.00,-0.0005
2387.00,-0.0005
2386.00,-0.0004
2385.00,-0.0004
2384.00,-0.0004
2383.00,-0.0004
2382.00,-0.0004
2381.00,-0.0005
2380.00,-0.0005
2379.00,-0.0005
2378.00,-0.0005
2377.00,-0.0005
2376.00,-0.0005
2375.00,-0.0005
2374.00,-0.0005
2373.00,-0.0005
2372.00,-0.0005
2371.00,-0.0005
2370.00,-0.0005
2369.00,-0.0005
2368.00,-0.0005
2367.00,-0.0005
2366.00,-0.0005
2365.00,-0.0005
2364.00,-0.0005
2363.00,-0.0005
2362.00,-0.0005
2361.00,-0.0005
2360.00,-0.0005
2359.00,-0.0005
2358.00,-0.0005
2357.00,-0.0005
2356.00,-0.0005
2355.00,-0.0005
2354.00,-0.0005
2353.00,-0.0005
2352.00,-0.0005
2351.00,-0.0005
2350.00,-0.0005
2349.00,-0.0005
2348.00,-0.0005
2347.00,-0.0005
2346.00,-0.0005
2345.00,-0.0005
2344.00,-0.0006
2343.00,-0.0006
2342.00,-0.0006
2341.00,-0.0006
2340.00,-0.0006
2339.00,-0.0006
2338.00,-0.0006
2337.00,-0.0005
2336.00,-0.0005
2335.00,-0.0005
2334.00,-0.0004
2333.00,-0.0004
2332.00,-0.0004
2331.00,-0.0004
2330.00,-0.0004
2329.00,-0.0004
2328.00,-0.0004
2327.00,-0.0004
2326.00,-0.0004
2325.00,-0.0004
2324.00,-0.0004
2323.00,-0.0004
2322.00,-0.0004
2321.00,-0.0005
2320.00,-0.0005
2319.00,-0.0005
2318.00,-0.0005
2317.00,-0.0005
2316.00,-0.0005
2315.00,-0.0005
2314.00,-0.0005
2313.00,-0.0006
2312.00,-0.0006
2311.00,-0.0006
2310.00,-0.0005
2309.00,-0.0005
2308.00,-0.0004
2307.00,-0.0003
2306.00,-0.0003
2305.00,-0.0003
2304.00,-0.0004
2303.00,-0.0004
2302.00,-0.0004
2301.00,-0.0005
2300.00,-0.0004
2299.00,-0.0004
2298.00,-0.0004
2297.00,-0.0004
2296.00,-0.0004
2295.00,-0.0004
2294.00,-0.0004
2293.00,-0.0003
2292.00,-0.0003
2291.00,-0.0002
2290.00,-0.0002
2289.00,-0.0003
2288.00,-0.0003
2287.00,-0.0003
2286.00,-0.0004
2285.00,-0.0004
2284.00,-0.0004
2283.00,-0.0004
2282.00,-0.0003
2281.00,-0.0003
2280.00,-0.0003
2279.00,-0.0003
2278.00,-0.0003
2277.00,-0.0004
2276.00,-0.0005
2275.00,-0.0006
2274.00,-0.0006
2273.00,-0.0006
2272.00,-0.0005
2271.00,-0.0004
2270.00,-0.0003
2269.00,-0.0003
2268.00,-0.0003
2267.00,-0.0003
2266.00,-0.0004
2265.00,-0.0005
2264.00,-0.0005
2263.00,-0.0005
2262.00,-0.0005
2261.00,-0.0005
2260.00,-0.0005
2259.00,-0.0005
2258.00,-0.0004
2257.00,-0.0004
2256.00,-0.0003
2255.00,-0.0002
2254.00,-0.0002
2253.00,-0.0003
2252.00,-0.0004
2251.00,-0.0005
2250.00,-0.0005
2249.00,-0.0005
2248.00,-0.0005
2247.00,-0.0004
2246.00,-0.0003
2245.00,-0.0004
2244.00,-0.0004
2243.00,-0.0005
2242.00,-0.0005
2241.00,-0.0005
2240.00,-0.0004
2239.00,-0.0004
2238.00,-0.0003
2237.00,-0.0003
2236.00,-0.0003
2235.00,-0.0004
2234.00,-0.0004
2233.00,-0.0004
2232.00,-0.0004
2231.00,-0.0004
2230.00,-0.0004
2229.00,-0.0005
2228.00,-0.0005
2227.00,-0.0006
2226.00,-0.0006
2225.00,-0.0006
2224.00,-0.0006
2223.00,-0.0007
2222.00,-0.0006
2221.00,-0.0006
2220.00,-0.0006
2219.00,-0.0006
2218.00,-0.0006
2217.00,-0.0006
2216.00,-0.0007
2215.00,-0.0006
2214.00,-0.0005
2213.00,-0.0005
2212.00,-0.0005
2211.00,-0.0005
2210.00,-0.0005
2209.00,-0.0005
2208.00,-0.0005
2207.00,-0.0005
2206.00,-0.0004
2205.00,-0.0004
2204.00,-0.0004
2203.00,-0.0004
2202.00,-0.0005
2201.00,-0.0005
2200.00,-0.0005
2199.00,-0.0006
2198.00,-0.0006
2197.00,-0.0007
2196.00,-0.0007
2195.00,-0.0007
2194.00,-0.0006
2193.00,-0.0006
2192.00,-0.0006
2191.00,-0.0006
2190.00,-0.0006
2189.00,-0.0005
2188.00,-0.0005
2187.00,-0.0005
2186.00,-0.0004
2185.00,-0.0003
2184.00,-0.0002
2183.00,-0.0002
2182.00,-0.0002
2181.00,-0.0002
2180.00,-0.0002
2179.00,-0.0002
2178.00,-0.0003
2177.00,-0.0004
2176.00,-0.0006
2175.00,-0.0007
2174.00,-0.0006
2173.00,-0.0005
2172.00,-0.0004
2171.00,-0.0004
2170.00,-0.0003
2169.00,-0.0003
2168.00,-0.0002
2167.00,-0.0002
2166.00,-0.0001
2165.00,-0.0002
2164.00,-0.0003
2163.00,-0.0005
2162.00,-0.0006
2161.00,-0.0006
2160.00,-0.0004
2159.00,-0.0002
2158.00,-0.0002
2157.00,-0.0003
2156.00,-0.0005
2155.00,-0.0007
2154.00,-0.0007
2153.00,-0.0006
2152.00,-0.0005
2151.00,-0.0005
2150.00,-0.0005
2149.00,-0.0006
2148.00,-0.0006
2147.00,-0.0006
2146.00,-0.0005
2145.00,-0.0004
2144.00,-0.0005
2143.00,-0.0005
2142.00,-0.0006
2141.00,-0.0006
2140.00,-0.0006
2139.00,-0.0006
2138.00,-0.0005
2137.00,-0.0004
2136.00,-0.0004
2135.00,-0.0005
2134.00,-0.0006
2133.00,-0.0006
2132.00,-0.0005
2131.00,-0.0004
2130.00,-0.0004
2129.00,-0.0004
2128.00,-0.0004
2127.00,-0.0004
2126.00,-0.0004
2125.00,-0.0004
2124.00,-0.0004
2123.00,-0.0003
2122.00,-0.0003
2121.00,-0.0002
2120.00,-0.0002
2119.00,-0.0002
2118.00,-0.0002
2117.00,-0.0002
2116.00,-0.0002
2115.00,-0.0003
2114.00,-0.0003
2113.00,-0.0003
2112.00,-0.0003
2111.00,-0.0003
2110.00,-0.0002
2109.00,-0.0002
2108.00,-0.0002
2107.00,-0.0002
2106.00,-0.0002
2105.00,-0.0002
2104.00,-0.0002
2103.00,-0.0002
2102.00,-0.0001
2101.00,-0.0001
2100.00,-0.0001
2099.00,-0.0002
2098.00,-0.0002
2097.00,-0.0002
2096.00,-0.0002
2095.00,-0.0001
2094.00,-0.0001
2093.00,-0.0002
2092.00,-0.0003
2091.00,-0.0004
2090.00,-0.0004
2089.00,-0.0004
2088.00,-0.0004
2087.00,-0.0003
2086.00,-0.0002
2085.00,-0.0002
2084.00,-0.0002
2083.00,-0.0002
2082.00,-0.0003
2081.00,-0.0003
2080.00,-0.0004
2079.00,-0.0004
2078.00,-0.0004
2077.00,-0.0004
2076.00,-0.0004
2075.00,-0.0004
2074.00,-0.0004
2073.00,-0.0004
2072.00,-0.0004
2071.00,-0.0004
2070.00,-0.0004
2069.00,-0.0004
2068.00,-0.0005
2067.00,-0.0006
2066.00,-0.0006
2065.00,-0.0005
2064.00,-0.0004
2063.00,-0.0002
2062.00,-0.0002
2061.00,-0.0002
2060.00,-0.0002
2059.00,-0.0002
2058.00,-0.0002
2057.00,-0.0003
2056.00,-0.0003
2055.00,-0.0004
2054.00,-0.0004
2053.00,-0.0004
2052.00,-0.0004
2051.00,-0.0003
2050.00,-0.0002
2049.00,-0.0001
2048.00,-0.0002
2047.00,-0.0003
2046.00,-0.0005
2045.00,-0.0006
2044.00,-0.0007
2043.00,-0.0008
2042.00,-0.0007
2041.00,-0.0007
2040.00,-0.0006
2039.00,-0.0005
2038.00,-0.0005
2037.00,-0.0005
2036.00,-0.0006
2035.00,-0.0007
2034.00,-0.0006
2033.00,-0.0004
2032.00,-0.0004
2031.00,-0.0005
2030.00,-0.0008
2029.00,-0.0010
2028.00,-0.0012
2027.00,-0.0011
2026.00,-0.0008
2025.00,-0.0005
2024.00,-0.0002
2023.00,-0.0001
2022.00,-0.0001
2021.00,-0.0002
2020.00,-0.0003
2019.00,-0.0005
2018.00,-0.0006
2017.00,-0.0007
2016.00,-0.0008
2015.00,-0.0009
2014.00,-0.0010
2013.00,-0.0010
2012.00,-0.0011
2011.00,-0.0010
2010.00,-0.0010
2009.00,-0.0008
2008.00,-0.0007
2007.00,-0.0007
2006.00,-0.0006
2005.00,-0.0007
2004.00,-0.0008
2003.00,-0.0008
2002.00,-0.0009
2001.00,-0.0009
2000.00,-0.0009
1999.00,-0.0009
1998.00,-0.0008
1997.00,-0.0007
1996.00,-0.0006
1995.00,-0.0006
1994.00,-0.0006
1993.00,-0.0005
1992.00,-0.0004
1991.00,-0.0003
1990.00,-0.0003
1989.00,-0.0004
1988.00,-0.0005
1987.00,-0.0005
1986.00,-0.0005
1985.00,-0.0004
1984.00,-0.0003
1983.00,-0.0004
1982.00,-0.0006
1981.00,-0.0008
1980.00,-0.0009
1979.00,-0.0009
1978.00,-0.0008
1977.00,-0.0008
1976.00,-0.0007
1975.00,-0.0005
1974.00,-0.0004
1973.00,-0.0004
1972.00,-0.0005
1971.00,-0.0006
1970.00,-0.0007
1969.00,-0.0006
1968.00,-0.0006
1967.00,-0.0005
1966.00,-0.0005
1965.00,-0.0005
1964.00,-0.0005
1963.00,-0.0007
1962.00,-0.0008
1961.00,-0.0009
1960.00,-0.0010
1959.00,-0.0010
1958.00,-0.0010
1957.00,-0.0009
1956.00,-0.0009
1955.00,-0.0008
1954.00,-0.0008
1953.00,-0.0008
1952.00,-0.0008
1951.00,-0.0008
1950.00,-0.0008
1949.00,-0.0008
1948.00,-0.0007
1947.00,-0.0006
1946.00,-0.0005
1945.00,-0.0005
1944.00,-0.0006
1943.00,-0.0007
1942.00,-0.0008
1941.00,-0.0008
1940.00,-0.0008
1939.00,-0.0008
1938.00,-0.0007
1937.00,-0.0006
1936.00,-0.0006
1935.00,-0.0006
1934.00,-0.0007
1933.00,-0.0008
1932.00,-0.0008
1931.00,-0.0008
1930.00,-0.0007
1929.00,-0.0006
1928.00,-0.0005
1927.00,-0.0005
1926.00,-0.0005
1925.00,-0.0006
1924.00,-0.0007
1923.00,-0.0007
1922.00,-0.0006
1921.00,-0.0005
1920.00,-0.0003
1919.00,-0.0003
1918.00,-0.0003
1917.00,-0.0003
1916.00,-0.0004
1915.00,-0.0003
1914.00,-0.0003
1913.00,-0.0004
1912.00,-0.0005
1911.00,-0.0006
1910.00,-0.0007
1909.00,-0.0007
1908.00,-0.0007
1907.00,-0.0007
1906.00,-0.0006
1905.00,-0.0006
1904.00,-0.0006
1903.00,-0.0006
1902.00,-0.0006
1901.00,-0.0006
1900.00,-0.0007
1899.00,-0.0006
1898.00,-0.0006
1897.00,-0.0006
1896.00,-0.0006
1895.00,-0.0006
1894.00,-0.0005
1893.00,-0.0004
1892.00,-0.0004
1891.00,-0.0004
1890.00,-0.0005
1889.00,-0.0005
1888.00,-0.0005
1887.00,-0.0005
1886.00,-0.0005
1885.00,-0.0005
1884.00,-0.0006
1883.00,-0.0006
1882.00,-0.0006
1881.00,-0.0006
1880.00,-0.0006
1879.00,-0.0006
1878.00,-0.0005
1877.00,-0.0005
1876.00,-0.0005
1875.00,-0.0004
1874.00,-0.0004
1873.00,-0.0004
1872.00,-0.0004
1871.00,-0.0004
1870.00,-0.0004
1869.00,-0.0005
1868.00,-0.0006
1867.00,-0.0005
1866.00,-0.0004
1865.00,-0.0004
1864.00,-0.0005
1863.00,-0.0005
1862.00,-0.0006
1861.00,-0.0006
1860.00,-0.0006
1859.00,-0.0006
1858.00,-0.0005
1857.00,-0.0005
1856.00,-0.0005
1855.00,-0.0005
1854.00,-0.0005
1853.00,-0.0004
1852.00,-0.0004
1851.00,-0.0004
1850.00,-0.0004
1849.00,-0.0005
1848.00,-0.0005
1847.00,-0.0004
1846.00,-0.0003
1845.00,-0.0003
1844.00,-0.0003
1843.00,-0.0003
1842.00,-0.0003
1841.00,-0.0003
1840.00,-0.0003
1839.00,-0.0004
1838.00,-0.0005
1837.00,-0.0005
1836.00,-0.0005
1835.00,-0.0004
1834.00,-0.0004
1833.00,-0.0003
1832.00,-0.0003
1831.00,-0.0004
1830.00,-0.0005
1829.00,-0.0005
1828.00,-0.0004
1827.00,-0.0003
1826.00,-0.0002
1825.00,-0.0002
1824.00,-0.0003
1823.00,-0.0003
1822.00,-0.0003
1821.00,-0.0002
1820.00,-0.0003
1819.00,-0.0003
1818.00,-0.0003
1817.00,-0.0003
1816.00,-0.0003
1815.00,-0.0003
1814.00,-0.0002
1813.00,-0.0002
1812.00,-0.0002
1811.00,-0.0002
1810.00,-0.0002
1809.00,-0.0001
1808.00,-0.0001
1807.00,-0.0002
1806.00,-0.0001
1805.00,-0.0001
1804.00,-0.0002
1803.00,-0.0002
1802.00,-0.0002
1801.00,-0.0001
1800.00,0.0000
1799.00,0.0001
1798.00,0.0002
1797.00,0.0002
1796.00,0.0002
1795.00,0.0002
1794.00,0.0003
1793.00,0.0003
1792.00,0.0002
1791.00,0.0002
1790.00,0.0002
1789.00,0.0003
1788.00,0.0004
1787.00,0.0004
1786.00,0.0004
1785.00,0.0004
1784.00,0.0003
1783.00,0.0003
1782.00,0.0003
1781.00,0.0003
1780.00,0.0003
1779.00,0.0003
1778.00,0.0004
1777.00,0.0004
1776.00,0.0005
1775.00,0.0005
1774.00,0.0005
1773.00,0.0004
1772.00,0.0004
1771.00,0.0004
1770.00,0.0005
1769.00,0.0006
1768.00,0.0007
1767.00,0.0006
1766.00,0.0006
1765.00,0.0007
1764.00,0.0007
1763.00,0.0005
1762.00,0.0004
1761.00,0.0003
1760.00,0.0004
1759.00,0.0005
1758.00,0.0005
1757.00,0.0006
1756.00,0.0008
1755.00,0.0009
1754.00,0.0010
1753.00,0.0011
1752.00,0.0013
1751.00,0.0013
1750.00,0.0011
1749.00,0.0011
1748.00,0.0011
1747.00,0.0011
1746.00,0.0010
1745.00,0.0009
1744.00,0.0009
1743.00,0.0008
1742.00,0.0008
1741.00,0.0009
1740.00,0.0010
1739.00,0.0009
1738.00,0.0008
1737.00,0.0009
1736.00,0.0012
1735.00,0.0012
1734.00,0.0010
1733.00,0.0009
1732.00,0.0009
1731.00,0.0010
1730.00,0.0010
1729.00,0.0011
1728.00,0.0011
1727.00,0.0012
1726.00,0.0012
1725.00,0.0012
1724.00,0.0013
1723.00,0.0014
1722.00,0.0016
1721.00,0.0018
1720.00,0.0020
1719.00,0.0021
1718.00,0.0021
1717.00,0.0023
1716.00,0.0026
1715.00,0.0030
1714.00,0.0034
1713.00,0.0038
1712.00,0.0041
1711.00,0.0044
1710.00,0.0049
1709.00,0.0055
1708.00,0.0061
1707.00,0.0068
1706.00,0.0078
1705.00,0.0088
1704.00,0.0098
1703.00,0.0109
1702.00,0.0121
1701.00,0.0134
1700.00,0.0141
1699.00,0.0143
1698.00,0.0143
1697.00,0.0142
1696.00,0.0141
1695.00,0.0140
1694.00,0.0141
1693.00,0.0142
1692.00,0.0142
1691.00,0.0143
1690.00,0.0145
1689.00,0.0147
1688.00,0.0148
1687.00,0.0150
1686.00,0.0153
1685.00,0.0159
1684.00,0.0167
1683.00,0.0175
1682.00,0.0179
1681.00,0.0182
1680.00,0.0185
1679.00,0.0189
1678.00,0.0192
1677.00,0.0197
1676.00,0.0204
1675.00,0.0212
1674.00,0.0218
1673.00,0.0222
1672.00,0.0226
1671.00,0.0231
1670.00,0.0237
1669.00,0.0245
1668.00,0.0253
1667.00,0.0257
1666.00,0.0260
1665.00,0.0264
1664.00,0.0270
1663.00,0.0278
1662.00,0.0288
1661.00,0.0296
1660.00,0.0303
1659.00,0.0309
1658.00,0.0312
1657.00,0.0313
1656.00,0.0313
1655.00,0.0315
1654.00,0.0325
1653.00,0.0346
1652.00,0.0365
1651.00,0.0370
1650.00,0.0370
1649.00,0.0370
1648.00,0.0375
1647.00,0.0386
1646.00,0.0400
1645.00,0.0409
1644.00,0.0413
1643.00,0.0417
1642.00,0.0420
1641.00,0.0425
1640.00,0.0430
1639.00,0.0435
1638.00,0.0439
1637.00,0.0448
1636.00,0.0464
1635.00,0.0484
1634.00,0.0496
1633.00,0.0500
1632.00,0.0501
1631.00,0.0505
1630.00,0.0510
1629.00,0.0516
1628.00,0.0524
1627.00,0.0530
1626.00,0.0532
1625.00,0.0533
1624.00,0.0533
1623.00,0.0535
1622.00,0.0533
1621.00,0.0525
1620.00,0.0513
1619.00,0.0499
1618.00,0.0485
1617.00,0.0471
1616.00,0.0460
1615.00,0.0449
1614.00,0.0434
1613.00,0.0418
1612.00,0.0402
1611.00,0.0386
1610.00,0.0371
1609.00,0.0355
1608.00,0.0339
1607.00,0.0325
1606.00,0.0310
1605.00,0.0296
1604.00,0.0283
1603.00,0.0272
1602.00,0.0261
1601.00,0.0252
1600.00,0.0244
1599.00,0.0237
1598.00,0.0231
1597.00,0.0224
1596.00,0.0219
1595.00,0.0214
1594.00,0.0209
1593.00,0.0204
1592.00,0.0200
1591.00,0.0196
1590.00,0.0192
1589.00,0.0188
1588.00,0.0185
1587.00,0.0183
1586.00,0.0182
1585.00,0.0180
1584.00,0.0180
1583.00,0.0180
1582.00,0.0181
1581.00,0.0181
1580.00,0.0181
1579.00,0.0181
1578.00,0.0182
1577.00,0.0185
1576.00,0.0192
1575.00,0.0201
1574.00,0.0206
1573.00,0.0208
1572.00,0.0211
1571.00,0.0216
1570.00,0.0223
1569.00,0.0232
1568.00,0.0241
1567.00,0.0247
1566.00,0.0252
1565.00,0.0256
1564.00,0.0260
1563.00,0.0262
1562.00,0.0261
1561.00,0.0263
1560.00,0.0272
1559.00,0.0291
1558.00,0.0310
1557.00,0.0316
1556.00,0.0316
1555.00,0.0318
1554.00,0.0323
1553.00,0.0328
1552.00,0.0332
1551.00,0.0335
1550.00,0.0340
1549.00,0.0346
1548.00,0.0351
1547.00,0.0354
1546.00,0.0356
1545.00,0.0358
1544.00,0.0360
1543.00,0.0363
1542.00,0.0368
1541.00,0.0377
1540.00,0.0391
1539.00,0.0406
1538.00,0.0413
1537.00,0.0412
1536.00,0.0409
1535.00,0.0410
1534.00,0.0416
1533.00,0.0425
1532.00,0.0432
1531.00,0.0435
1530.00,0.0436
1529.00,0.0436
1528.00,0.0437
1527.00,0.0439
1526.00,0.0443
1525.00,0.0446
1524.00,0.0446
1523.00,0.0446
1522.00,0.0451
1521.00,0.0460
1520.00,0.0468
1519.00,0.0472
1518.00,0.0476
1517.00,0.0481
1516.00,0.0485
1515.00,0.0485
1514.00,0.0480
1513.00,0.0472
1512.00,0.0461
1511.00,0.0449
1510.00,0.0436
1509.00,0.0424
1508.00,0.0412
1507.00,0.0405
1506.00,0.0402
1505.00,0.0394
1504.00,0.0380
1503.00,0.0365
1502.00,0.0351
1501.00,0.0338
1500.00,0.0324
1499.00,0.0311
1498.00,0.0299
1497.00,0.0288
1496.00,0.0277
1495.00,0.0266
1494.00,0.0256
1493.00,0.0246
1492.00,0.0236
1491.00,0.0225
1490.00,0.0215
1489.00,0.0206
1488.00,0.0198
1487.00,0.0190
1486.00,0.0184
1485.00,0.0177
1484.00,0.0171
1483.00,0.0165
1482.00,0.0160
1481.00,0.0156
1480.00,0.0153
1479.00,0.0150
1478.00,0.0148
1477.00,0.0147
1476.00,0.0145
1475.00,0.0144
1474.00,0.0146
1473.00,0.0149
1472.00,0.0152
1471.00,0.0153
1470.00,0.0152
1469.00,0.0151
1468.00,0.0150
1467.00,0.0149
1466.00,0.0151
1465.00,0.0155
1464.00,0.0159
1463.00,0.0162
1462.00,0.0163
1461.00,0.0164
1460.00,0.0163
1459.00,0.0163
1458.00,0.0167
1457.00,0.0179
1456.00,0.0192
1455.00,0.0199
1454.00,0.0203
1453.00,0.0208
1452.00,0.0212
1451.00,0.0216
1450.00,0.0219
1449.00,0.0223
1448.00,0.0226
1447.00,0.0227
1446.00,0.0228
1445.00,0.0228
1444.00,0.0228
1443.00,0.0226
1442.00,0.0225
1441.00,0.0223
1440.00,0.0221
1439.00,0.0217
1438.00,0.0213
1437.00,0.0209
1436.00,0.0205
1435.00,0.0199
1434.00,0.0193
1433.00,0.0186
1432.00,0.0180
1431.00,0.0174
1430.00,0.0168
1429.00,0.0164
1428.00,0.0160
1427.00,0.0157
1426.00,0.0153
1425.00,0.0152
1424.00,0.0151
1423.00,0.0150
1422.00,0.0148
1421.00,0.0146
1420.00,0.0145
1419.00,0.0145
1418.00,0.0147
1417.00,0.0149
1416.00,0.0150
1415.00,0.0150
1414.00,0.0148
1413.00,0.0147
1412.00,0.0147
1411.00,0.0147
1410.00,0.0146
1409.00,0.0145
1408.00,0.0144
1407.00,0.0142
1406.00,0.0140
1405.00,0.0138
1404.00,0.0137
1403.00,0.0134
1402.00,0.0131
1401.00,0.0129
1400.00,0.0127
1399.00,0.0125
1398.00,0.0123
1397.00,0.0120
1396.00,0.0118
1395.00,0.0117
1394.00,0.0116
1393.00,0.0116
1392.00,0.0116
1391.00,0.0114
1390.00,0.0112
1389.00,0.0109
1388.00,0.0107
1387.00,0.0106
1386.00,0.0106
1385.00,0.0105
1384.00,0.0104
1383.00,0.0102
1382.00,0.0100
1381.00,0.0097
1380.00,0.0096
1379.00,0.0094
1378.00,0.0093
1377.00,0.0091
1376.00,0.0089
1375.00,0.0088
1374.00,0.0088
1373.00,0.0088
1372.00,0.0088
1371.00,0.0088
1370.00,0.0087
1369.00,0.0086
1368.00,0.0085
1367.00,0.0083
1366.00,0.0080
1365.00,0.0075
1364.00,0.0070
1363.00,0.0066
1362.00,0.0062
1361.00,0.0060
1360.00,0.0058
1359.00,0.0056
1358.00,0.0054
1357.00,0.0051
1356.00,0.0049
1355.00,0.0048
1354.00,0.0047
1353.00,0.0045
1352.00,0.0044
1351.00,0.0044
1350.00,0.0043
1349.00,0.0043
1348.00,0.0043
1347.00,0.0044
1346.00,0.0044
1345.00,0.0045
1344.00,0.0045
1343.00,0.0046
1342.00,0.0045
1341.00,0.0044
1340.00,0.0044
1339.00,0.0044
1338.00,0.0045
1337.00,0.0046
1336.00,0.0046
1335.00,0.0046
1334.00,0.0045
1333.00,0.0044
1332.00,0.0042
1331.00,0.0041
1330.00,0.0040
1329.00,0.0038
1328.00,0.0036
1327.00,0.0035
1326.00,0.0034
1325.00,0.0033
1324.00,0.0032
1323.00,0.0032
1322.00,0.0031
1321.00,0.0031
1320.00,0.0030
1319.00,0.0031
1318.00,0.0032
1317.00,0.0033
1316.00,0.0033
1315.00,0.0034
1314.00,0.0035
1313.00,0.0036
1312.00,0.0037
1311.00,0.0038
1310.00,0.0039
1309.00,0.0040
1308.00,0.0042
1307.00,0.0043
1306.00,0.0044
1305.00,0.0045
1304.00,0.0046
1303.00,0.0048
1302.00,0.0049
1301.00,0.0050
1300.00,0.0051
1299.00,0.0052
1298.00,0.0053
1297.00,0.0054
1296.00,0.0055
1295.00,0.0057
1294.00,0.0058
1293.00,0.0059
1292.00,0.0061
1291.00,0.0062
1290.00,0.0064
1289.00,0.0066
1288.00,0.0068
1287.00,0.0070
1286.00,0.0072
1285.00,0.0075
1284.00,0.0077
1283.00,0.0079
1282.00,0.0082
1281.00,0.0085
1280.00,0.0088
1279.00,0.0091
1278.00,0.0095
1277.00,0.0099
1276.00,0.0104
1275.00,0.0109
1274.00,0.0115
1273.00,0.0120
1272.00,0.0126
1271.00,0.0132
1270.00,0.0138
1269.00,0.0144
1268.00,0.0149
1267.00,0.0154
1266.00,0.0158
1265.00,0.0162
1264.00,0.0165
1263.00,0.0167
1262.00,0.0169
1261.00,0.0170
1260.00,0.0171
1259.00,0.0172
1258.00,0.0172
1257.00,0.0172
1256.00,0.0171
1255.00,0.0171
1254.00,0.0171
1253.00,0.0171
1252.00,0.0171
1251.00,0.0172
1250.00,0.0173
1249.00,0.0174
1248.00,0.0176
1247.00,0.0178
1246.00,0.0179
1245.00,0.0181
1244.00,0.0182
1243.00,0.0184
1242.00,0.0186
1241.00,0.0188
1240.00,0.0191
1239.00,0.0193
1238.00,0.0196
1237.00,0.0199
1236.00,0.0201
1235.00,0.0204
1234.00,0.0206
1233.00,0.0207
1232.00,0.0208
1231.00,0.0208
1230.00,0.0207
1229.00,0.0205
1228.00,0.0202
1227.00,0.0199
1226.00,0.0195
1225.00,0.0190
1224.00,0.0185
1223.00,0.0179
1222.00,0.0174
1221.00,0.0168
1220.00,0.0161
1219.00,0.0154
1218.00,0.0148
1217.00,0.0141
1216.00,0.0134
1215.00,0.0127
1214.00,0.0120
1213.00,0.0112
1212.00,0.0105
1211.00,0.0098
1210.00,0.0092
1209.00,0.0085
1208.00,0.0079
1207.00,0.0073
1206.00,0.0067
1205.00,0.0062
1204.00,0.0057
1203.00,0.0052
1202.00,0.0048
1201.00,0.0045
1200.00,0.0042
1199.00,0.0040
1198.00,0.0037
1197.00,0.0035
1196.00,0.0033
1195.00,0.0031
1194.00,0.0030
1193.00,0.0029
1192.00,0.0028
1191.00,0.0027
1190.00,0.0026
1189.00,0.0026
1188.00,0.0025
1187.00,0.0025
1186.00,0.0025
1185.00,0.0025
1184.00,0.0026
1183.00,0.0027
1182.00,0.0029
1181.00,0.0031
1180.00,0.0033
1179.00,0.0036
1178.00,0.0039
1177.00,0.0042
1176.00,0.0045
1175.00,0.0048
1174.00,0.0050
1173.00,0.0052
1172.00,0.0054
1171.00,0.0055
1170.00,0.0056
1169.00,0.0057
1168.00,0.0058
1167.00,0.0058
1166.00,0.0058
1165.00,0.0057
1164.00,0.0056
1163.00,0.0055
1162.00,0.0054
1161.00,0.0053
1160.00,0.0051
1159.00,0.0049
1158.00,0.0047
1157.00,0.0044
1156.00,0.0042
1155.00,0.0039
1154.00,0.0036
1153.00,0.0033
1152.00,0.0029
1151.00,0.0026
1150.00,0.0024
1149.00,0.0022
1148.00,0.0021
1147.00,0.0020
1146.00,0.0019
1145.00,0.0018
1144.00,0.0018
1143.00,0.0017
1142.00,0.0016
1141.00,0.0016
1140.00,0.0016
1139.00,0.0016
1138.00,0.0017
1137.00,0.0017
1136.00,0.0018
1135.00,0.0019
1134.00,0.0021
1133.00,0.0022
1132.00,0.0024
1131.00,0.0025
1130.00,0.0027
1129.00,0.0029
1128.00,0.0030
1127.00,0.0032
1126.00,0.0034
1125.00,0.0035
1124.00,0.0037
1123.00,0.0039
1122.00,0.0040
1121.00,0.0042
1120.00,0.0043
1119.00,0.0045
1118.00,0.0046
1117.00,0.0048
1116.00,0.0049
1115.00,0.0051
1114.00,0.0052
1113.00,0.0054
1112.00,0.0055
1111.00,0.0057
1110.00,0.0059
1109.00,0.0060
1108.00,0.0060
1107.00,0.0060
1106.00,0.0061
1105.00,0.0061
1104.00,0.0061
1103.00,0.0062
1102.00,0.0062
1101.00,0.0062
1100.00,0.0061
1099.00,0.0060
1098.00,0.0059
1097.00,0.0058
1096.00,0.0056
1095.00,0.0056
1094.00,0.0055
1093.00,0.0055
1092.00,0.0054
1091.00,0.0054
1090.00,0.0053
1089.00,0.0052
1088.00,0.0051
1087.00,0.0051
1086.00,0.0051
1085.00,0.0050
1084.00,0.0050
1083.00,0.0050
1082.00,0.0050
1081.00,0.0050
1080.00,0.0050
1079.00,0.0050
1078.00,0.0050
1077.00,0.0050
1076.00,0.0050
1075.00,0.0049
1074.00,0.0048
1073.00,0.0047
1072.00,0.0046
1071.00,0.0046
1070.00,0.0046
1069.00,0.0046
1068.00,0.0046
1067.00,0.0045
1066.00,0.0045
1065.00,0.0045
1064.00,0.0045
1063.00,0.0044
1062.00,0.0044
1061.00,0.0044
1060.00,0.0043
1059.00,0.0043
1058.00,0.0043
1057.00,0.0042
1056.00,0.0041
1055.00,0.0040
1054.00,0.0039
1053.00,0.0038
1052.00,0.0038
1051.00,0.0038
1050.00,0.0038
1049.00,0.0038
1048.00,0.0037
1047.00,0.0036
1046.00,0.0034
1045.00,0.0032
1044.00,0.0028
1043.00,0.0025
1042.00,0.0022
1041.00,0.0018
1040.00,0.0014
1039.00,0.0010
1038.00,0.0006
1037.00,0.0003
1036.00,-0.0000
1035.00,-0.0002
1034.00,-0.0003
1033.00,-0.0003
1032.00,-0.0003
1031.00,-0.0001
1030.00,0.0000
1029.00,0.0003
1028.00,0.0005
1027.00,0.0007
1026.00,0.0010
1025.00,0.0013
1024.00,0.0017
1023.00,0.0020
1022.00,0.0025
1021.00,0.0029
1020.00,0.0033
1019.00,0.0037
1018.00,0.0042
1017.00,0.0046
1016.00,0.0050
1015.00,0.0054
1014.00,0.0057
1013.00,0.0058
1012.00,0.0059
1011.00,0.0059
1010.00,0.0059
1009.00,0.0060
1008.00,0.0061
1007.00,0.0062
1006.00,0.0064
1005.00,0.0065
1004.00,0.0067
1003.00,0.0068
1002.00,0.0070
1001.00,0.0071
1000.00,0.0072
999.00,0.0072
998.00,0.0073
997.00,0.0072
996.00,0.0071
995.00,0.0069
994.00,0.0066
993.00,0.0063
992.00,0.0060
991.00,0.0057
990.00,0.0054
989.00,0.0051
988.00,0.0049
987.00,0.0047
986.00,0.0047
985.00,0.0047
984.00,0.0048
983.00,0.0049
982.00,0.0051
981.00,0.0052
980.00,0.0054
979.00,0.0054
978.00,0.0055
977.00,0.0055
976.00,0.0054
975.00,0.0054
974.00,0.0053
973.00,0.0051
972.00,0.0049
971.00,0.0046
970.00,0.0043
969.00,0.0040
968.00,0.0037
967.00,0.0033
966.00,0.0031
965.00,0.0028
964.00,0.0025
963.00,0.0022
962.00,0.0020
961.00,0.0019
960.00,0.0017
959.00,0.0017
958.00,0.0017
957.00,0.0017
956.00,0.0016
955.00,0.0016
954.00,0.0016
953.00,0.0015
952.00,0.0015
951.00,0.0015
950.00,0.0016
949.00,0.0017
948.00,0.0017
947.00,0.0017
946.00,0.0017
945.00,0.0018
944.00,0.0018
943.00,0.0019
942.00,0.0019
941.00,0.0020
940.00,0.0020
939.00,0.0021
938.00,0.0021
937.00,0.0022
936.00,0.0022
935.00,0.0023
934.00,0.0024
933.00,0.0025
932.00,0.0025
931.00,0.0025
930.00,0.0025
929.00,0.0025
928.00,0.0025
927.00,0.0024
926.00,0.0024
925.00,0.0023
924.00,0.0022
923.00,0.0021
922.00,0.0020
921.00,0.0019
920.00,0.0018
919.00,0.0017
918.00,0.0016
917.00,0.0015
916.00,0.0013
915.00,0.0012
914.00,0.0012
913.00,0.0011
912.00,0.0011
911.00,0.0010
910.00,0.0011
909.00,0.0011
908.00,0.0010
907.00,0.0009
906.00,0.0008
905.00,0.0007
904.00,0.0005
903.00,0.0004
902.00,0.0003
901.00,0.0003
900.00,0.0002
899.00,0.0001
898.00,0.0001
897.00,0.0002
896.00,0.0002
895.00,0.0002
894.00,0.0002
893.00,0.0002
892.00,0.0001
891.00,0.0001
890.00,0.0001
889.00,0.0001
888.00,0.0001
887.00,0.0001
886.00,0.0001
885.00,0.0000
884.00,-0.0001
883.00,-0.0001
882.00,-0.0000
881.00,0.0001
880.00,0.0002
879.00,0.0003
878.00,0.0005
877.00,0.0007
876.00,0.0008
875.00,0.0009
874.00,0.0010
873.00,0.0011
872.00,0.0011
871.00,0.0011
870.00,0.0012
869.00,0.0012
868.00,0.0011
867.00,0.0011
866.00,0.0011
865.00,0.0011
864.00,0.0012
863.00,0.0013
862.00,0.0015
861.00,0.0018
860.00,0.0020
859.00,0.0023
858.00,0.0026
857.00,0.0028
856.00,0.0030
855.00,0.0031
854.00,0.0033
853.00,0.0035
852.00,0.0036
851.00,0.0036
850.00,0.0036
849.00,0.0036
848.00,0.0035
847.00,0.0035
846.00,0.0036
845.00,0.0037
844.00,0.0037
843.00,0.0038
842.00,0.0039
841.00,0.0040
840.00,0.0041
839.00,0.0043
838.00,0.0045
837.00,0.0046
836.00,0.0047
835.00,0.0047
834.00,0.0048
833.00,0.0048
832.00,0.0048
831.00,0.0047
830.00,0.0045
829.00,0.0043
828.00,0.0041
827.00,0.0041
826.00,0.0042
825.00,0.0044
824.00,0.0046
823.00,0.0048
822.00,0.0050
821.00,0.0051
820.00,0.0053
819.00,0.0054
818.00,0.0055
817.00,0.0055
816.00,0.0055
815.00,0.0056
814.00,0.0058
813.00,0.0059
812.00,0.0059
811.00,0.0058
810.00,0.0059
809.00,0.0059
808.00,0.0059
807.00,0.0059
806.00,0.0059
805.00,0.0059
804.00,0.0058
803.00,0.0058
802.00,0.0059
801.00,0.0060
800.00,0.0060
799.00,0.0061
798.00,0.0062
797.00,0.0064
796.00,0.0065
795.00,0.0067
794.00,0.0069
793.00,0.0072
792.00,0.0073
791.00,0.0074
790.00,0.0075
789.00,0.0076
788.00,0.0077
787.00,0.0078
786.00,0.0079
785.00,0.0080
784.00,0.0080
783.00,0.0082
782.00,0.0084
781.00,0.0085
780.00,0.0086
779.00,0.0087
778.00,0.0089
777.00,0.0090
776.00,0.0091
775.00,0.0092
774.00,0.0093
773.00,0.0094
772.00,0.0094
771.00,0.0096
770.00,0.0098
769.00,0.0099
768.00,0.0101
767.00,0.0102
766.00,0.0103
765.00,0.0104
764.00,0.0104
763.00,0.0105
762.00,0.0107
761.00,0.0108
760.00,0.0109
759.00,0.0110
758.00,0.0112
757.00,0.0115
756.00,0.0116
755.00,0.0118
754.00,0.0120
753.00,0.0121
752.00,0.0123
751.00,0.0125
750.00,0.0128
749.00,0.0130
748.00,0.0132
747.00,0.0134
746.00,0.0137
745.00,0.0140
744.00,0.0142
743.00,0.0144
742.00,0.0147
741.00,0.0150
740.00,0.0154
739.00,0.0158
738.00,0.0163
737.00,0.0169
736.00,0.0175
735.00,0.0181
734.00,0.0187
733.00,0.0193
732.00,0.0197
731.00,0.0202
730.00,0.0208
729.00,0.0212
728.00,0.0216
727.00,0.0219
726.00,0.0224
725.00,0.0228
724.00,0.0231
723.00,0.0233
722.00,0.0235
721.00,0.0237
720.00,0.0238
719.00,0.0240
718.00,0.0242
717.00,0.0241
716.00,0.0239
715.00,0.0237
714.00,0.0236
713.00,0.0237
712.00,0.0238
711.00,0.0239
710.00,0.0241
709.00,0.0241
708.00,0.0240
707.00,0.0241
706.00,0.0242
705.00,0.0243
704.00,0.0243
703.00,0.0243
702.00,0.0244
701.00,0.0246
700.00,0.0246
699.00,0.0246
698.00,0.0247
697.00,0.0249
696.00,0.0251
695.00,0.0252
694.00,0.0253
693.00,0.0254
692.00,0.0254
691.00,0.0255
690.00,0.0257
689.00,0.0259
688.00,0.0260
687.00,0.0261
686.00,0.0263
685.00,0.0264
684.00,0.0264
683.00,0.0263
682.00,0.0262
681.00,0.0262
680.00,0.0262
679.00,0.0263
678.00,0.0264
677.00,0.0264
676.00,0.0264
675.00,0.0263
674.00,0.0263
673.00,0.0263
672.00,0.0262
671.00,0.0261
670.00,0.0261
669.00,0.0264
668.00,0.0267
667.00,0.0270
666.00,0.0271
665.00,0.0270
664.00,0.0268
663.00,0.0267
662.00,0.0269
661.00,0.0270
660.00,0.0270
659.00,0.0270
658.00,0.0271
657.00,0.0272
656.00,0.0273
655.00,0.0274
654.00,0.0274
653.00,0.0275
652.00,0.0274
651.00,0.0273
650.00,0.0274
649.00,0.0275
648.00,0.0275
647.00,0.0274
646.00,0.0274
645.00,0.0274
644.00,0.0274
643.00,0.0274
642.00,0.0274
641.00,0.0274
640.00,0.0272
639.00,0.0269
638.00,0.0267
637.00,0.0266
636.00,0.0264
635.00,0.0263
634.00,0.0262
633.00,0.0262
632.00,0.0261
631.00,0.0261
630.00,0.0262
629.00,0.0262
628.00,0.0261
627.00,0.0261
626.00,0.0261
625.00,0.0261
624.00,0.0262
623.00,0.0264
622.00,0.0268
621.00,0.0270
620.00,0.0271
619.00,0.0272
618.00,0.0276
617.00,0.0281
616.00,0.0283
615.00,0.0285
614.00,0.0288
613.00,0.0289
612.00,0.0289
611.00,0.0289
610.00,0.0290
609.00,0.0290
608.00,0.0288
607.00,0.0285
606.00,0.0283
605.00,0.0280
604.00,0.0275
603.00,0.0271
602.00,0.0270
601.00,0.0269
600.00,0.0269
599.00,0.0269
598.00,0.0270
597.00,0.0270
596.00,0.0267
595.00,0.0263
594.00,0.0261
593.00,0.0260
592.00,0.0259
591.00,0.0259
590.00,0.0260
589.00,0.0259
588.00,0.0257
587.00,0.0256
586.00,0.0256
585.00,0.0257
584.00,0.0258
583.00,0.0259
582.00,0.0260
581.00,0.0260
580.00,0.0260
579.00,0.0260
578.00,0.0262
577.00,0.0263
576.00,0.0263
575.00,0.0263
574.00,0.0266
573.00,0.0269
572.00,0.0270
571.00,0.0272
570.00,0.0276
569.00,0.0280
568.00,0.0283
567.00,0.0287
566.00,0.0293
565.00,0.0299
564.00,0.0303
563.00,0.0308
562.00,0.0316
561.00,0.0324
560.00,0.0330
559.00,0.0336
558.00,0.0343
557.00,0.0348
556.00,0.0351
555.00,0.0355
554.00,0.0359
553.00,0.0363
552.00,0.0364
551.00,0.0363
550.00,0.0361
549.00,0.0358
548.00,0.0354
547.00,0.0351
546.00,0.0350
545.00,0.0349
544.00,0.0346
543.00,0.0343
542.00,0.0340
541.00,0.0336
540.00,0.0331
539.00,0.0324
538.00,0.0319
537.00,0.0314
536.00,0.0310
535.00,0.0309
534.00,0.0309
533.00,0.0309
532.00,0.0306
531.00,0.0302
530.00,0.0298
529.00,0.0294
528.00,0.0289
527.00,0.0286
526.00,0.0286
525.00,0.0284
524.00,0.0279
523.00,0.0274
522.00,0.0272
521.00,0.0271
520.00,0.0269
519.00,0.0269
518.00,0.0273
517.00,0.0276
516.00,0.0277
515.00,0.0277
514.00,0.0279
513.00,0.0280
512.00,0.0279
511.00,0.0277
510.00,0.0278
509.00,0.0279
508.00,0.0277
507.00,0.0275
506.00,0.0274
505.00,0.0273
504.00,0.0270
503.00,0.0269
502.00,0.0273
501.00,0.0275
500.00,0.0273
499.00,0.0269
498.00,0.0269
497.00,0.0268
496.00,0.0266
495.00,0.0266
494.00,0.0269
493.00,0.0269
492.00,0.0265
491.00,0.0261
490.00,0.0263
489.00,0.0267
488.00,0.0269
487.00,0.0269
486.00,0.0270
485.00,0.0268
484.00,0.0262
483.00,0.0260
482.00,0.0264
481.00,0.0267
480.00,0.0264
479.00,0.0261
478.00,0.0259
477.00,0.0258
476.00,0.0253
475.00,0.0250
474.00,0.0250
473.00,0.0251
472.00,0.0250
471.00,0.0249
470.00,0.0250
469.00,0.0249
468.00,0.0246
467.00,0.0247
466.00,0.0254
465.00,0.0259
464.00,0.0255
463.00,0.0247
462.00,0.0241
461.00,0.0237
460.00,0.0232
459.00,0.0231
458.00,0.0236
457.00,0.0243
456.00,0.0243
455.00,0.0239
454.00,0.0237
453.00,0.0236
452.00,0.0232
451.00,0.0229
450.00,0.0229
449.00,0.0228
448.00,0.0225
447.00,0.0225
446.00,0.0231
445.00,0.0239
444.00,0.0244
443.00,0.0249
442.00,0.0257
441.00,0.0263
440.00,0.0262
439.00,0.0260
438.00,0.0261
437.00,0.0262
436.00,0.0261
435.00,0.0262
434.00,0.0269
433.00,0.0279
432.00,0.0285
431.00,0.0292
430.00,0.0300
429.00,0.0299
428.00,0.0287
427.00,0.0277
426.00,0.0279
425.00,0.0288
424.00,0.0293
423.00,0.0298
422.00,0.0303
421.00,0.0304
420.00,0.0301
419.00,0.0303
418.00,0.0310
417.00,0.0307
416.00,0.0290
415.00,0.0277
414.00,0.0272
413.00,0.0266
412.00,0.0250
411.00,0.0238
410.00,0.0239
409.00,0.0240
408.00,0.0233
407.00,0.0234
406.00,0.0248
405.00,0.0259
404.00,0.0252
403.00,0.0244
402.00,0.0260
401.00,0.0296
400.00,0.0341
